% Gyrometer data recorded with 'snsrlog'
% 
% 
% Label description:
% 	 0: Default Label
% 	 1: still_drop
% 	 2: walk_drop
% 	 3: other
% 	 4: dtw_same
% 	 5: dtw_diff
% 	 6: delete
% 
% Column description:
% 	 1: Seconds.milliseconds since 1970
% 	 2: Number of skipped measurements
% 	 3: Gyro X
% 	 4: Gyro Y
% 	 5: Gyro Z
% 	 6: Roll of the device
% 	 7: Pitch of the device
% 	 8: Yaw of the device
% 	 9: Quaternion X
% 	 10: Quaternion Y
% 	 11: Quaternion Z
% 	 12: Quaternion W
% 	 13: Label used for the current sample
% 
% 
1462089993.873	 0	 -1.057732	 1.473283	 -0.407836	 0.386075	 0.643794	 -0.232914	 0.329533	 0.144678	 -0.047897	 0.931763	 1
1462089993.883	 0	 -1.075941	 1.626117	 -0.606619	 0.402668	 0.631727	 -0.234186	 0.324485	 0.153224	 -0.047108	 0.932208	 1
1462089993.893	 0	 -1.026387	 1.836659	 -0.740443	 0.422172	 0.619318	 -0.237077	 0.319479	 0.162918	 -0.046736	 0.932313	 1
1462089993.903	 0	 -0.913411	 2.083702	 -0.802008	 0.444613	 0.607422	 -0.240986	 0.314878	 0.173801	 -0.046418	 0.931928	 1
1462089993.913	 0	 -0.761594	 2.396778	 -0.835587	 0.470432	 0.596576	 -0.245707	 0.310936	 0.186060	 -0.045934	 0.930908	 1
1462089993.923	 0	 -0.584029	 2.732168	 -0.861722	 0.500017	 0.587028	 -0.251279	 0.307790	 0.199837	 -0.045204	 0.929132	 1
1462089993.933	 0	 -0.433517	 3.017399	 -0.922192	 0.533191	 0.578492	 -0.257945	 0.305344	 0.215019	 -0.044399	 0.926585	 1
1462089993.943	 0	 -0.366733	 3.227119	 -1.015675	 0.569147	 0.570097	 -0.265637	 0.303196	 0.231305	 -0.043721	 0.923395	 1
1462089993.953	 0	 -0.372862	 3.402680	 -1.155734	 0.607340	 0.560834	 -0.274214	 0.300889	 0.248552	 -0.043350	 0.919679	 1
1462089993.963	 0	 -0.405063	 3.538467	 -1.364146	 0.647548	 0.549939	 -0.283941	 0.298145	 0.266692	 -0.043590	 0.915470	 1
1462089993.973	 0	 -0.454756	 3.621877	 -1.615523	 0.689285	 0.536865	 -0.294958	 0.294784	 0.285543	 -0.044716	 0.910806	 1
1462089993.983	 0	 -0.516496	 3.663638	 -1.894892	 0.731970	 0.521173	 -0.307177	 0.290652	 0.304911	 -0.046912	 0.905732	 1
1462089993.993	 0	 -0.595122	 3.727934	 -2.153655	 0.775425	 0.502694	 -0.320168	 0.285676	 0.324808	 -0.050105	 0.900210	 1
1462089994.003	 0	 -0.730472	 3.714067	 -2.360429	 0.818716	 0.481325	 -0.332874	 0.279671	 0.344984	 -0.054046	 0.894343	 1
1462089994.013	 0	 -0.932859	 3.465768	 -2.508053	 0.859206	 0.457060	 -0.344070	 0.272367	 0.364434	 -0.058620	 0.888576	 1
1462089994.023	 0	 -1.187222	 3.026447	 -2.617568	 0.894423	 0.429981	 -0.352860	 0.263527	 0.382177	 -0.063786	 0.883417	 1
1462089994.033	 0	 -1.486368	 2.594707	 -2.726623	 0.923767	 0.400033	 -0.358818	 0.252949	 0.398001	 -0.069444	 0.879085	 1
1462089994.043	 0	 -1.757982	 2.341591	 -2.833189	 0.948883	 0.367379	 -0.362020	 0.240687	 0.412567	 -0.075363	 0.875316	 1
1462089994.053	 0	 -1.881423	 2.288981	 -2.950904	 0.972307	 0.332801	 -0.363581	 0.227333	 0.426707	 -0.081522	 0.871548	 1
1462089994.063	 0	 -1.831059	 2.464257	 -3.107444	 0.996844	 0.296997	 -0.365187	 0.213640	 0.441323	 -0.088182	 0.867073	 1
1462089994.073	 0	 -1.651538	 2.896332	 -3.293627	 1.025373	 0.260470	 -0.368105	 0.200271	 0.457440	 -0.095508	 0.861115	 1
1462089994.083	 0	 -1.426440	 3.525783	 -3.524197	 1.060115	 0.223084	 -0.372916	 0.187514	 0.475929	 -0.103646	 0.852987	 1
1462089994.093	 1	 -1.243061	 4.152013	 -3.775749	 1.101429	 0.184290	 -0.379192	 0.175209	 0.496961	 -0.112629	 0.842405	 1
1462089994.113	 1	 -1.164931	 4.360101	 -4.235969	 1.191503	 0.100631	 -0.391784	 0.149915	 0.541599	 -0.133224	 0.816362	 1
1462089994.123	 1	 -1.304029	 3.979515	 -4.413084	 1.232632	 0.055272	 -0.395279	 0.135566	 0.562136	 -0.144506	 0.802959	 1
1462089994.133	 1	 -1.460208	 3.555732	 -4.540361	 1.269208	 0.007981	 -0.395929	 0.119750	 0.580643	 -0.156062	 0.790037	 1
1462089994.153	 2	 -1.415543	 3.341427	 -4.593902	 1.336082	 -0.088274	 -0.391589	 0.086418	 0.613761	 -0.179387	 0.763970	 1
1462089994.163	 2	 -1.099619	 3.647266	 -4.679067	 1.371798	 -0.136256	 -0.389976	 0.070752	 0.630132	 -0.191889	 0.749070	 1
1462089994.173	 2	 -0.636795	 4.184876	 -4.864602	 1.411974	 -0.184970	 -0.391102	 0.056586	 0.647356	 -0.206006	 0.731635	 1
1462089994.183	 2	 -0.115118	 4.782708	 -5.082063	 1.457416	 -0.235114	 -0.395588	 0.044159	 0.665611	 -0.222168	 0.711093	 1
1462089994.193	 2	 0.386387	 5.169005	 -5.290658	 1.506369	 -0.287078	 -0.403134	 0.033283	 0.684119	 -0.240409	 0.687806	 1
1462089994.203	 2	 0.820363	 5.222967	 -5.447405	 1.555651	 -0.340871	 -0.412915	 0.023495	 0.701649	 -0.260424	 0.662809	 1
1462089994.213	 2	 1.151612	 4.922585	 -5.521293	 1.601841	 -0.396036	 -0.423974	 0.014251	 0.717018	 -0.281675	 0.637448	 1
1462089994.223	 2	 1.347548	 4.335287	 -5.467716	 1.642224	 -0.451568	 -0.435176	 0.005040	 0.729439	 -0.303354	 0.613082	 1
1462089994.233	 2	 1.432644	 3.598840	 -5.199276	 1.675140	 -0.505384	 -0.445825	 -0.004142	 0.738613	 -0.324425	 0.590916	 1
1462089994.243	 2	 1.481494	 3.015297	 -4.834247	 1.701419	 -0.556043	 -0.456027	 -0.012902	 0.745083	 -0.344320	 0.571077	 1
1462089994.253	 2	 1.575518	 2.718914	 -4.453083	 1.723331	 -0.603235	 -0.466655	 -0.020645	 0.749758	 -0.363107	 0.552802	 1
1462089994.263	 2	 1.776922	 2.657518	 -4.184704	 1.742661	 -0.647857	 -0.479140	 -0.026943	 0.753298	 -0.381419	 0.535103	 1
1462089994.273	 2	 2.015078	 2.554858	 -4.018277	 1.759105	 -0.691296	 -0.494407	 -0.032047	 0.755701	 -0.399865	 0.517685	 1
1462089994.283	 2	 2.227484	 2.190678	 -3.844467	 1.770109	 -0.733643	 -0.512717	 -0.036505	 0.756437	 -0.418390	 0.501418	 1
1462089994.293	 2	 2.365133	 1.566330	 -3.643652	 1.772900	 -0.774537	 -0.533987	 -0.040998	 0.755020	 -0.436690	 0.487407	 1
1462089994.303	 2	 2.427763	 0.805594	 -3.360323	 1.765726	 -0.813001	 -0.558055	 -0.045905	 0.751305	 -0.454280	 0.476512	 1
1462089994.313	 2	 2.450261	 0.024649	 -2.946810	 1.747785	 -0.847613	 -0.585314	 -0.051069	 0.745419	 -0.470728	 0.469209	 1
1462089994.323	 2	 2.360888	 -0.634543	 -2.362799	 1.720205	 -0.876353	 -0.615268	 -0.055978	 0.737900	 -0.485351	 0.465623	 1
1462089994.333	 2	 2.176784	 -1.085445	 -1.695027	 1.686311	 -0.897757	 -0.646277	 -0.060056	 0.729601	 -0.497561	 0.465305	 1
1462089994.343	 2	 1.960342	 -1.330329	 -1.084740	 1.649466	 -0.911963	 -0.676808	 -0.063046	 0.721166	 -0.507345	 0.467488	 1
1462089994.353	 2	 1.697493	 -1.358966	 -0.593533	 1.613440	 -0.920115	 -0.705052	 -0.064927	 0.713229	 -0.514907	 0.471125	 1
1462089994.363	 2	 1.399461	 -1.289371	 -0.210879	 1.581008	 -0.923512	 -0.729331	 -0.065889	 0.706213	 -0.520428	 0.475474	 1
1462089994.373	 2	 1.073435	 -1.204325	 0.091165	 1.553446	 -0.923269	 -0.748503	 -0.066259	 0.700269	 -0.524041	 0.480223	 1
1462089994.383	 2	 0.747125	 -1.112413	 0.313343	 1.531298	 -0.920419	 -0.762059	 -0.066329	 0.695446	 -0.525919	 0.485143	 1
1462089994.393	 2	 0.464336	 -1.022105	 0.478641	 1.514193	 -0.915782	 -0.770438	 -0.066263	 0.691649	 -0.526343	 0.490096	 1
1462089994.403	 2	 0.258361	 -0.913081	 0.615735	 1.501330	 -0.909773	 -0.774795	 -0.065979	 0.688724	 -0.525645	 0.494979	 1
1462089994.413	 2	 0.137750	 -0.785345	 0.727747	 1.491746	 -0.902673	 -0.776580	 -0.065316	 0.686493	 -0.524194	 0.499681	 1
1462089994.423	 2	 0.083242	 -0.655804	 0.822149	 1.484536	 -0.894631	 -0.777017	 -0.064138	 0.684784	 -0.522287	 0.504157	 1
1462089994.433	 2	 0.069207	 -0.539178	 0.911814	 1.478956	 -0.885709	 -0.776876	 -0.062400	 0.683441	 -0.520096	 0.508443	 1
1462089994.443	 2	 0.076568	 -0.403540	 0.991879	 1.474787	 -0.875955	 -0.776593	 -0.060029	 0.682428	 -0.517730	 0.512488	 1
1462089994.453	 2	 0.074249	 -0.265901	 1.050731	 1.472097	 -0.865551	 -0.776202	 -0.057065	 0.681767	 -0.515233	 0.516210	 1
1462089994.463	 2	 0.017218	 -0.178183	 1.096806	 1.470960	 -0.854713	 -0.775097	 -0.053780	 0.681465	 -0.512489	 0.519682	 1
1462089994.473	 2	 -0.109409	 -0.122315	 1.122941	 1.471692	 -0.843656	 -0.772312	 -0.050506	 0.681589	 -0.509288	 0.522983	 1
1462089994.483	 2	 -0.282003	 -0.065400	 1.128170	 1.474742	 -0.832695	 -0.767120	 -0.047504	 0.682258	 -0.505504	 0.526054	 1
1462089994.493	 2	 -0.443755	 0.003393	 1.162192	 1.480159	 -0.821592	 -0.759585	 -0.044666	 0.683508	 -0.501080	 0.528906	 1
1462089994.503	 2	 -0.589477	 0.096431	 1.172852	 1.487811	 -0.810367	 -0.750007	 -0.041951	 0.685328	 -0.496074	 0.531484	 1
1462089994.513	 2	 -0.677547	 0.204111	 1.172489	 1.497402	 -0.799216	 -0.739189	 -0.039250	 0.687673	 -0.490727	 0.533621	 1
1462089994.523	 2	 -0.665431	 0.285955	 1.169948	 1.507708	 -0.787987	 -0.728447	 -0.036372	 0.690250	 -0.485320	 0.535441	 1
1462089994.533	 2	 -0.607418	 0.394045	 1.138476	 1.518183	 -0.776881	 -0.718824	 -0.033165	 0.692928	 -0.480173	 0.536828	 1
1462089994.543	 2	 -0.824689	 0.191355	 0.960331	 1.528604	 -0.767078	 -0.707732	 -0.031003	 0.695597	 -0.474888	 0.538205	 1
1462089994.553	 2	 -1.209796	 -0.232763	 0.694363	 1.538256	 -0.759897	 -0.691942	 -0.031655	 0.698001	 -0.468941	 0.540265	 1
1462089994.563	 2	 -1.537248	 -0.489507	 0.505119	 1.547759	 -0.754857	 -0.671595	 -0.034756	 0.700288	 -0.462274	 0.542855	 1
1462089994.573	 2	 -1.667675	 -0.286201	 0.474043	 1.559596	 -0.750456	 -0.648863	 -0.038453	 0.703154	 -0.455138	 0.544926	 1
1462089994.583	 2	 -1.604995	 0.245108	 0.577557	 1.575727	 -0.745016	 -0.626658	 -0.040718	 0.707216	 -0.447927	 0.545481	 1
1462089994.593	 2	 -1.607227	 0.659010	 0.598480	 1.595988	 -0.738789	 -0.605078	 -0.041691	 0.712441	 -0.440734	 0.544465	 1
1462089994.603	 2	 -1.756695	 0.696238	 0.538313	 1.618440	 -0.732602	 -0.582319	 -0.042775	 0.718243	 -0.433261	 0.542754	 1
1462089994.613	 2	 -1.997483	 0.351069	 0.510554	 1.639972	 -0.726361	 -0.556807	 -0.045205	 0.723736	 -0.424996	 0.541794	 1
1462089994.623	 2	 -1.954872	 0.196851	 0.675007	 1.659104	 -0.718618	 -0.530669	 -0.048035	 0.728618	 -0.416047	 0.541953	 1
1462089994.633	 2	 -1.605562	 0.224756	 0.997283	 1.674945	 -0.707869	 -0.509184	 -0.048995	 0.732865	 -0.407326	 0.542765	 1
1462089994.643	 2	 -0.971676	 0.578955	 1.109096	 1.688406	 -0.695798	 -0.496069	 -0.047050	 0.736761	 -0.400343	 0.542857	 1
1462089994.653	 2	 -0.530704	 0.511651	 1.246377	 1.697893	 -0.683033	 -0.490029	 -0.043140	 0.739796	 -0.394903	 0.543040	 1
1462089994.663	 2	 -0.440760	 0.055681	 1.326612	 1.701903	 -0.669453	 -0.486550	 -0.039131	 0.741435	 -0.389729	 0.544843	 1
1462089994.673	 2	 -0.504070	 -0.431597	 1.281064	 1.701193	 -0.655919	 -0.482625	 -0.036229	 0.741761	 -0.384321	 0.548429	 1
1462089994.683	 2	 -0.544465	 -0.761960	 1.176028	 1.697150	 -0.643309	 -0.477860	 -0.034576	 0.741093	 -0.378894	 0.553195	 1
1462089994.693	 2	 -0.524164	 -0.902052	 1.079695	 1.691258	 -0.631692	 -0.472958	 -0.033629	 0.739838	 -0.373698	 0.558443	 1
1462089994.703	 2	 -0.389392	 -0.757419	 0.985014	 1.685377	 -0.621179	 -0.469118	 -0.032627	 0.738527	 -0.369140	 0.563249	 1
1462089994.713	 2	 -0.118803	 -0.330231	 0.894978	 1.681515	 -0.611841	 -0.468017	 -0.030615	 0.737758	 -0.365760	 0.566564	 1
1462089994.723	 2	 0.196334	 0.288077	 0.777557	 1.681270	 -0.603920	 -0.470541	 -0.027072	 0.737998	 -0.363918	 0.567618	 1
1462089994.733	 2	 0.463426	 0.947611	 0.605517	 1.685912	 -0.597900	 -0.476267	 -0.022094	 0.739581	 -0.363652	 0.565941	 1
1462089994.743	 2	 0.632432	 1.462251	 0.360512	 1.695027	 -0.594377	 -0.484020	 -0.016385	 0.742335	 -0.364783	 0.561785	 1
1462089994.753	 2	 0.768037	 1.742487	 0.045408	 1.706884	 -0.594068	 -0.492996	 -0.010773	 0.745719	 -0.367271	 0.555787	 1
1462089994.763	 2	 0.922871	 1.814083	 -0.285660	 1.719195	 -0.597350	 -0.503206	 -0.005770	 0.749061	 -0.371212	 0.548704	 1
1462089994.773	 2	 1.037332	 1.649031	 -0.558896	 1.729949	 -0.603799	 -0.514436	 -0.001669	 0.751816	 -0.376400	 0.541381	 1
1462089994.783	 2	 0.995002	 1.228520	 -0.775593	 1.737258	 -0.612599	 -0.525234	 0.000897	 0.753512	 -0.382180	 0.534936	 1
1462089994.793	 2	 0.753332	 0.584556	 -0.939346	 1.740143	 -0.622889	 -0.533367	 0.001152	 0.753951	 -0.387695	 0.530329	 1
1462089994.803	 2	 0.385487	 -0.186030	 -1.014720	 1.738002	 -0.633566	 -0.537140	 -0.001336	 0.753035	 -0.392153	 0.528348	 1
1462089994.813	 2	 0.049304	 -0.847850	 -1.039268	 1.731680	 -0.644123	 -0.536416	 -0.006314	 0.751004	 -0.395351	 0.528821	 1
1462089994.823	 2	 -0.150293	 -1.307803	 -1.038613	 1.721586	 -0.654223	 -0.533032	 -0.012907	 0.747953	 -0.397637	 0.531304	 1
1462089994.833	 2	 -0.226630	 -1.449914	 -1.012626	 1.710117	 -0.664016	 -0.528496	 -0.020123	 0.744498	 -0.399444	 0.534568	 1
1462089994.843	 2	 -0.244615	 -1.455902	 -0.965632	 1.698447	 -0.673395	 -0.523779	 -0.027327	 0.740952	 -0.400997	 0.538000	 1
1462089994.853	 2	 -0.246606	 -1.469345	 -0.913517	 1.686701	 -0.682287	 -0.519192	 -0.034352	 0.737359	 -0.402359	 0.541506	 1
1462089994.863	 2	 -0.242970	 -1.389479	 -0.898951	 1.675205	 -0.690927	 -0.514809	 -0.041181	 0.733800	 -0.403633	 0.544905	 1
1462089994.873	 2	 -0.258681	 -0.937743	 -1.092842	 1.667563	 -0.700935	 -0.510170	 -0.047798	 0.731187	 -0.405283	 0.546651	 1
1462089994.883	 2	 -0.235839	 -0.474274	 -1.266711	 1.664826	 -0.712981	 -0.505441	 -0.054148	 0.729780	 -0.407616	 0.546204	 1
1462089994.893	 2	 -0.163110	 -0.195977	 -1.288203	 1.665100	 -0.725761	 -0.501294	 -0.059917	 0.729128	 -0.410400	 0.544384	 1
1462089994.903	 2	 -0.042724	 -0.039752	 -1.256890	 1.666015	 -0.738304	 -0.498716	 -0.064897	 0.728662	 -0.413553	 0.542047	 1
1462089994.913	 2	 0.052165	 0.316939	 -1.165939	 1.668893	 -0.750199	 -0.497565	 -0.068722	 0.728767	 -0.416956	 0.538817	 1
1462089994.923	 2	 0.148543	 0.931517	 -1.006523	 1.676426	 -0.760798	 -0.497761	 -0.070630	 0.730201	 -0.420491	 0.533859	 1
1462089994.933	 2	 0.340382	 1.577274	 -0.762388	 1.688773	 -0.769331	 -0.500415	 -0.069902	 0.733070	 -0.424226	 0.527024	 1
1462089994.943	 2	 0.592531	 2.044755	 -0.437308	 1.703760	 -0.775222	 -0.506854	 -0.066297	 0.736852	 -0.428220	 0.518924	 1
1462089994.953	 2	 0.754147	 2.041807	 -0.045476	 1.717695	 -0.777656	 -0.516635	 -0.060490	 0.740601	 -0.431926	 0.511166	 1
1462089994.963	 2	 0.671656	 1.488031	 0.264489	 1.727019	 -0.776786	 -0.526878	 -0.054385	 0.743319	 -0.434530	 0.505671	 1
1462089994.973	 2	 0.358556	 0.792562	 0.449384	 1.731709	 -0.773488	 -0.533952	 -0.049653	 0.744883	 -0.435422	 0.503082	 1
1462089994.983	 2	 -0.021416	 0.225536	 0.572110	 1.733661	 -0.768145	 -0.536194	 -0.046644	 0.745743	 -0.434385	 0.502993	 1
1462089994.993	 2	 -0.299834	 -0.135847	 0.493370	 1.734542	 -0.762566	 -0.534104	 -0.045408	 0.746240	 -0.432155	 0.504288	 1
1462089995.003	 2	 -0.415181	 -0.418994	 0.268996	 1.734308	 -0.758654	 -0.529430	 -0.045923	 0.746299	 -0.429756	 0.506201	 1
1462089995.013	 2	 -0.371373	 -0.646452	 0.014978	 1.731889	 -0.757268	 -0.524287	 -0.047907	 0.745645	 -0.427964	 0.508493	 1
1462089995.023	 2	 -0.199667	 -0.751373	 -0.156950	 1.727055	 -0.758057	 -0.520620	 -0.050564	 0.744277	 -0.427155	 0.510914	 1
1462089995.033	 2	 0.089682	 -0.634906	 -0.259633	 1.720480	 -0.760409	 -0.520276	 -0.052870	 0.742448	 -0.427625	 0.512944	 1
1462089995.043	 2	 0.437115	 -0.205821	 -0.350321	 1.714322	 -0.764144	 -0.524393	 -0.053893	 0.740762	 -0.429668	 0.513568	 1
1462089995.053	 2	 0.735556	 0.474386	 -0.445705	 1.711476	 -0.769268	 -0.532755	 -0.053103	 0.739964	 -0.433304	 0.511743	 1
1462089995.063	 2	 0.897255	 1.074588	 -0.482027	 1.713216	 -0.775218	 -0.543755	 -0.050619	 0.740357	 -0.437964	 0.507441	 1
1462089995.073	 2	 0.978020	 1.413993	 -0.433744	 1.717824	 -0.781078	 -0.556237	 -0.046915	 0.741497	 -0.443001	 0.501729	 1
1462089995.083	 2	 0.938920	 1.639243	 -0.335389	 1.724845	 -0.786069	 -0.568827	 -0.042323	 0.743251	 -0.447804	 0.495236	 1
1462089995.093	 2	 0.606784	 1.975808	 -0.259025	 1.737306	 -0.789978	 -0.578074	 -0.037362	 0.746280	 -0.451505	 0.487662	 1
1462089995.103	 2	 0.442293	 1.422757	 -0.175350	 1.749012	 -0.792966	 -0.584066	 -0.033448	 0.749053	 -0.454068	 0.481272	 1
1462089995.113	 2	 0.536548	 0.823614	 -0.182812	 1.753744	 -0.795611	 -0.590655	 -0.030763	 0.750143	 -0.456525	 0.477414	 1
1462089995.123	 2	 0.710434	 1.141277	 -0.308196	 1.757917	 -0.799555	 -0.599286	 -0.027850	 0.751038	 -0.459830	 0.472993	 1
1462089995.133	 2	 0.789317	 1.578160	 -0.312277	 1.765474	 -0.804200	 -0.609415	 -0.023805	 0.752682	 -0.463710	 0.466771	 1
1462089995.143	 2	 0.745410	 1.681180	 -0.204360	 1.775117	 -0.807939	 -0.619384	 -0.019013	 0.754811	 -0.467252	 0.459972	 1
1462089995.153	 2	 0.755038	 1.472576	 -0.219174	 1.783260	 -0.811337	 -0.629335	 -0.014439	 0.756562	 -0.470618	 0.453789	 1
1462089995.163	 2	 0.653761	 0.940002	 -0.366060	 1.787763	 -0.816069	 -0.638283	 -0.011512	 0.757368	 -0.474092	 0.448886	 1
1462089995.173	 2	 0.262454	 0.216965	 -0.494075	 1.788832	 -0.821348	 -0.642127	 -0.011499	 0.757329	 -0.476543	 0.446348	 1
1462089995.183	 2	 -0.080261	 -0.027665	 -0.778992	 1.790484	 -0.828124	 -0.639877	 -0.014133	 0.757289	 -0.478083	 0.444691	 1
1462089995.193	 2	 -0.340030	 0.105334	 -1.317969	 1.798115	 -0.839148	 -0.631124	 -0.019155	 0.758232	 -0.479514	 0.441342	 1
1462089995.203	 2	 -0.504416	 0.134553	 -1.901369	 1.809371	 -0.855242	 -0.618082	 -0.026525	 0.759482	 -0.481627	 0.436484	 1
1462089995.213	 2	 -0.537925	 0.161466	 -2.310080	 1.823096	 -0.875390	 -0.601729	 -0.035792	 0.760715	 -0.484393	 0.430574	 1
1462089995.223	 2	 -0.393003	 0.386316	 -2.632175	 1.839793	 -0.898971	 -0.584569	 -0.045642	 0.761987	 -0.488247	 0.422974	 1
1462089995.233	 2	 -0.133693	 0.305566	 -2.808904	 1.855518	 -0.925112	 -0.569005	 -0.055803	 0.762495	 -0.493376	 0.414811	 1
1462089995.243	 2	 0.193367	 0.193925	 -2.818121	 1.867400	 -0.952609	 -0.556892	 -0.065890	 0.761809	 -0.499664	 0.406990	 1
1462089995.263	 3	 0.897619	 0.631101	 -2.822316	 1.882516	 -1.010089	 -0.548448	 -0.082671	 0.758099	 -0.516014	 0.390105	 1
1462089995.273	 3	 1.201268	 1.012808	 -2.864038	 1.888512	 -1.040681	 -0.552165	 -0.088889	 0.755697	 -0.526168	 0.379694	 1
1462089995.283	 3	 1.439331	 1.354805	 -2.981229	 1.894440	 -1.073006	 -0.559973	 -0.094034	 0.753049	 -0.537474	 0.367690	 1
1462089995.293	 3	 1.597354	 1.693867	 -3.095618	 1.900941	 -1.107176	 -0.570699	 -0.098418	 0.750199	 -0.549685	 0.354064	 1
1462089995.303	 3	 1.555551	 2.316176	 -2.805970	 1.911285	 -1.139903	 -0.583063	 -0.100624	 0.748075	 -0.561728	 0.338703	 1
1462089995.313	 3	 1.348410	 3.131561	 -1.919456	 1.927481	 -1.164997	 -0.597442	 -0.098060	 0.747865	 -0.572012	 0.322311	 1
1462089995.323	 3	 1.185718	 3.625744	 -1.013938	 1.946130	 -1.180806	 -0.615536	 -0.090552	 0.749322	 -0.580172	 0.306133	 1
1462089995.333	 3	 1.145768	 3.473881	 -0.411782	 1.960467	 -1.190151	 -0.638535	 -0.080473	 0.751060	 -0.586826	 0.291665	 1
1462089995.343	 3	 0.915518	 1.523295	 0.092163	 1.957874	 -1.194381	 -0.664204	 -0.072837	 0.751049	 -0.591586	 0.283984	 1
1462089995.353	 3	 0.255773	 -0.601799	 0.411717	 1.942721	 -1.192689	 -0.678783	 -0.071353	 0.749658	 -0.592657	 0.285796	 1
1462089995.363	 3	 -0.473077	 -1.456235	 0.361087	 1.933106	 -1.187970	 -0.675182	 -0.074141	 0.748800	 -0.590517	 0.291704	 1
1462089995.373	 3	 -1.016073	 -1.830236	 0.049000	 1.935094	 -1.183480	 -0.654153	 -0.080093	 0.748914	 -0.586275	 0.298319	 1
1462089995.383	 3	 -1.200013	 -2.066264	 -0.305428	 1.943837	 -1.181327	 -0.622986	 -0.088579	 0.749229	 -0.581352	 0.304696	 1
1462089995.393	 3	 -0.972384	 -2.313808	 -0.468512	 1.949262	 -1.181546	 -0.592839	 -0.098361	 0.748623	 -0.577024	 0.311340	 1
1462089995.403	 3	 -0.436049	 -2.390012	 -0.493074	 1.942871	 -1.183972	 -0.573868	 -0.107994	 0.746265	 -0.574394	 0.318586	 1
1462089995.413	 3	 0.057801	 -1.995763	 -0.488377	 1.927173	 -1.188379	 -0.567891	 -0.116006	 0.742723	 -0.573800	 0.325051	 1
1462089995.423	 3	 0.333834	 -1.466280	 -0.403789	 1.908385	 -1.193375	 -0.571041	 -0.121695	 0.739067	 -0.574598	 0.329859	 1
1462089995.433	 3	 0.416636	 -1.495959	 -0.209752	 1.886271	 -1.197179	 -0.579221	 -0.126165	 0.735326	 -0.575636	 0.334697	 1
1462089995.443	 3	 0.272725	 -1.593321	 -0.053804	 1.863258	 -1.199012	 -0.587004	 -0.130484	 0.731671	 -0.575969	 0.340428	 1
1462089995.453	 3	 -0.115518	 -1.407445	 0.047225	 1.848681	 -1.198710	 -0.586891	 -0.134628	 0.729206	 -0.574903	 0.345862	 1
1462089995.463	 3	 -0.415142	 -1.124735	 0.043938	 1.845096	 -1.197260	 -0.577871	 -0.138504	 0.728175	 -0.572702	 0.350129	 1
1462089995.473	 3	 -0.482474	 -0.694829	 0.045328	 1.848378	 -1.195549	 -0.565607	 -0.141514	 0.728142	 -0.570317	 0.352877	 1
1462089995.493	 4	 -0.175924	 0.445046	 -0.167347	 1.865800	 -1.194834	 -0.547844	 -0.142816	 0.730054	 -0.568232	 0.351763	 1
1462089995.503	 4	 0.062645	 0.612029	 -0.217961	 1.873183	 -1.196914	 -0.546235	 -0.141923	 0.730918	 -0.569047	 0.349002	 1
1462089995.513	 4	 0.211121	 0.567560	 -0.130144	 1.875816	 -1.198948	 -0.549746	 -0.140493	 0.731313	 -0.570403	 0.346529	 1
1462089995.523	 4	 0.225439	 0.342836	 -0.019389	 1.874537	 -1.200067	 -0.555479	 -0.139095	 0.731322	 -0.571613	 0.345079	 1
1462089995.533	 4	 0.132787	 0.042042	 0.118234	 1.871241	 -1.199763	 -0.560340	 -0.138169	 0.731137	 -0.572140	 0.344970	 1
1462089995.543	 4	 -0.002589	 -0.288283	 0.279375	 1.866447	 -1.197561	 -0.563176	 -0.137846	 0.730834	 -0.571699	 0.346469	 1
1462089995.553	 4	 -0.101518	 -0.624683	 0.491324	 1.860156	 -1.193249	 -0.564305	 -0.137937	 0.730457	 -0.570289	 0.349538	 1
1462089995.563	 4	 -0.082639	 -0.930086	 0.771810	 1.848686	 -1.186158	 -0.567265	 -0.137986	 0.729676	 -0.568096	 0.354683	 1
1462089995.573	 4	 -0.018987	 -0.820408	 0.814907	 1.835392	 -1.178098	 -0.572154	 -0.137527	 0.728784	 -0.565879	 0.360197	 1
1462089995.583	 4	 0.079938	 -0.310195	 0.664258	 1.825290	 -1.171395	 -0.578161	 -0.136145	 0.728295	 -0.564476	 0.363892	 1
1462089995.593	 4	 0.221972	 0.366214	 0.422059	 1.820213	 -1.167156	 -0.585825	 -0.133484	 0.728462	 -0.564397	 0.364666	 1
1462089995.603	 4	 0.386099	 1.030384	 0.114542	 1.819964	 -1.166117	 -0.595487	 -0.129713	 0.729192	 -0.565860	 0.362294	 1
1462089995.613	 4	 0.557646	 1.706039	 -0.219577	 1.824504	 -1.168718	 -0.607365	 -0.124893	 0.730420	 -0.568973	 0.356594	 1
1462089995.623	 4	 0.720272	 2.055357	 -0.531077	 1.831611	 -1.174854	 -0.621247	 -0.119683	 0.731712	 -0.573470	 0.348432	 1
1462089995.633	 4	 0.901760	 2.078322	 -0.810607	 1.837188	 -1.184227	 -0.637854	 -0.114890	 0.732411	 -0.579102	 0.339141	 1
1462089995.643	 4	 1.009592	 1.695828	 -1.150820	 1.838452	 -1.197056	 -0.656067	 -0.111818	 0.731967	 -0.585529	 0.329964	 1
1462089995.653	 4	 0.922761	 0.911686	 -1.661466	 1.836046	 -1.214251	 -0.670800	 -0.112466	 0.730138	 -0.592154	 0.321875	 1
1462089995.663	 4	 0.639602	 -0.007682	 -2.271843	 1.834319	 -1.236577	 -0.674927	 -0.118399	 0.727121	 -0.598269	 0.315200	 1
1462089995.673	 4	 0.239173	 -0.726309	 -2.821780	 1.840139	 -1.263444	 -0.662878	 -0.129316	 0.723553	 -0.603361	 0.309360	 1
1462089995.683	 4	 -0.163903	 -1.247958	 -3.197207	 1.859554	 -1.293217	 -0.630852	 -0.144071	 0.719903	 -0.607125	 0.303945	 1
1462089995.693	 4	 -0.477715	 -1.575816	 -3.360587	 1.896627	 -1.323733	 -0.576913	 -0.161220	 0.716344	 -0.609524	 0.298896	 1
1462089995.703	 4	 -0.572794	 -1.819137	 -3.365221	 1.950710	 -1.353419	 -0.503290	 -0.179456	 0.712590	 -0.611009	 0.294411	 1
1462089995.713	 4	 -0.324524	 -2.129350	 -3.361743	 2.013934	 -1.382548	 -0.417822	 -0.198248	 0.707685	 -0.612518	 0.291036	 1
1462089995.723	 4	 0.215812	 -2.153325	 -3.515877	 2.079274	 -1.413708	 -0.329345	 -0.217036	 0.700698	 -0.615530	 0.288167	 1
1462089995.733	 4	 0.689792	 -1.621024	 -3.842240	 2.165697	 -1.448776	 -0.224147	 -0.234741	 0.692101	 -0.620935	 0.283431	 1
1462089995.743	 4	 0.911326	 -0.959532	 -4.202505	 2.340090	 -1.486427	 -0.037599	 -0.251180	 0.682802	 -0.628334	 0.275475	 1
1462089995.753	 4	 0.886482	 -0.454360	 -4.071827	 2.763190	 -1.517630	 0.392245	 -0.265809	 0.673822	 -0.636234	 0.265548	 1
1462089995.763	 4	 0.699182	 -0.037025	 -3.359713	 -2.775548	 -1.526010	 1.138790	 -0.277213	 0.666375	 -0.643257	 0.255573	 1
1462089995.773	 4	 0.384014	 0.234287	 -2.155461	 -2.308298	 -1.515610	 1.604910	 -0.284303	 0.661602	 -0.648161	 0.247674	 1
1462089995.783	 4	 0.070443	 0.535026	 -0.852900	 -2.162643	 -1.507308	 1.746236	 -0.286496	 0.660014	 -0.650736	 0.242580	 1
1462089995.793	 4	 -0.145565	 0.915558	 0.199100	 -2.164006	 -1.506431	 1.736703	 -0.284090	 0.661265	 -0.651617	 0.239619	 1
1462089995.803	 4	 -0.268856	 1.252696	 0.731929	 -2.243275	 -1.510117	 1.645483	 -0.278441	 0.664348	 -0.651715	 0.237443	 1
1462089995.813	 4	 -0.326546	 1.290713	 0.670971	 -2.351908	 -1.513378	 1.523572	 -0.272161	 0.667930	 -0.651593	 0.234998	 1
1462089995.823	 4	 -0.346647	 0.995120	 0.528781	 -2.451681	 -1.514612	 1.412697	 -0.267159	 0.671031	 -0.651310	 0.232677	 1
1462089995.833	 4	 -0.550281	 0.319599	 0.575424	 -2.577574	 -1.513997	 1.281495	 -0.264168	 0.673946	 -0.649706	 0.232152	 1
1462089995.843	 4	 -0.419862	 -0.256669	 0.510309	 -2.699001	 -1.512620	 1.160884	 -0.263203	 0.676014	 -0.647409	 0.233648	 1
1462089995.853	 4	 -0.422539	 -0.864522	 0.289392	 -2.788518	 -1.510092	 1.078522	 -0.264863	 0.676986	 -0.644601	 0.236700	 1
1462089995.863	 4	 -0.302521	 -1.140963	 0.204777	 -2.848291	 -1.507527	 1.029545	 -0.268072	 0.677053	 -0.641755	 0.240597	 1
1462089995.873	 4	 -0.232879	 -1.237506	 0.120143	 -2.894017	 -1.505600	 0.995992	 -0.271760	 0.676556	 -0.639090	 0.244911	 1
1462089995.883	 4	 -0.220264	 -1.118733	 -0.069633	 -2.910232	 -1.503376	 0.991390	 -0.275821	 0.675803	 -0.636773	 0.248461	 1
1462089995.893	 4	 -0.216168	 -0.825026	 -0.193761	 -2.902846	 -1.500886	 1.007860	 -0.279533	 0.675128	 -0.634998	 0.250683	 1
1462089995.903	 4	 -0.267073	 -0.496521	 -0.235023	 -2.886019	 -1.497908	 1.030516	 -0.282451	 0.674871	 -0.633634	 0.251553	 1
1462089995.913	 4	 -0.362726	 -0.192006	 -0.229225	 -2.870515	 -1.494041	 1.048758	 -0.284510	 0.675273	 -0.632405	 0.251245	 1
1462089995.923	 4	 -0.420483	 0.210401	 -0.202597	 -2.858208	 -1.489521	 1.060077	 -0.285409	 0.676399	 -0.631427	 0.249653	 1
1462089995.933	 4	 -0.406694	 0.653807	 -0.213512	 -2.843471	 -1.484920	 1.069484	 -0.284937	 0.678089	 -0.631032	 0.246587	 1
1462089995.943	 4	 -0.363576	 0.905263	 -0.134812	 -2.830044	 -1.480880	 1.074257	 -0.283203	 0.680097	 -0.631195	 0.242604	 1
1462089995.953	 4	 -0.254037	 0.981060	 -0.051931	 -2.822822	 -1.477945	 1.071772	 -0.280723	 0.682069	 -0.631672	 0.238679	 1
1462089995.963	 4	 -0.078983	 0.977453	 -0.038568	 -2.813558	 -1.476628	 1.071244	 -0.277905	 0.683576	 -0.632651	 0.235043	 1
1462089995.973	 4	 0.135419	 1.014608	 -0.108298	 -2.792334	 -1.477091	 1.082546	 -0.274944	 0.684373	 -0.634398	 0.231473	 1
1462089995.983	 4	 0.343615	 1.193441	 -0.297087	 -2.744674	 -1.478950	 1.118920	 -0.271808	 0.684408	 -0.637256	 0.227180	 1
1462089995.993	 4	 0.462189	 1.367302	 -0.474484	 -2.667771	 -1.481094	 1.182804	 -0.268559	 0.683910	 -0.641038	 0.221840	 1
1462089996.003	 4	 0.511244	 1.435636	 -0.564865	 -2.572170	 -1.482714	 1.264469	 -0.265296	 0.683127	 -0.645255	 0.215875	 1
1462089996.013	 4	 0.533469	 1.404653	 -0.574938	 -2.469477	 -1.483649	 1.353320	 -0.262116	 0.682165	 -0.649542	 0.209860	 1
1462089996.023	 4	 0.564077	 1.266863	 -0.496555	 -2.369133	 -1.484366	 1.440919	 -0.259061	 0.681028	 -0.653680	 0.204427	 1
1462089996.033	 4	 0.600980	 1.030789	 -0.328551	 -2.277977	 -1.485675	 1.521410	 -0.256147	 0.679711	 -0.657488	 0.200229	 1
1462089996.043	 4	 0.358649	 0.428520	 -0.170049	 -2.216576	 -1.486836	 1.577002	 -0.254422	 0.678605	 -0.659947	 0.198080	 1
1462089996.053	 4	 0.342612	 0.096517	 -0.051502	 -2.177919	 -1.488112	 1.614288	 -0.253870	 0.677576	 -0.661321	 0.197726	 1
1462089996.063	 4	 0.438794	 0.069068	 0.015614	 -2.134904	 -1.490432	 1.656812	 -0.253242	 0.676261	 -0.662810	 0.198047	 1
1462089996.073	 4	 0.517800	 0.258538	 0.067845	 -2.081984	 -1.493463	 1.707907	 -0.251905	 0.674864	 -0.664698	 0.198189	 1
1462089996.083	 4	 0.528110	 0.578076	 0.134675	 -2.022049	 -1.496969	 1.763051	 -0.249334	 0.673733	 -0.666993	 0.197579	 1
1462089996.093	 4	 0.434784	 0.894532	 0.174668	 -1.964888	 -1.500409	 1.812153	 -0.245575	 0.673198	 -0.669401	 0.195959	 1
1462089996.103	 4	 0.255416	 1.128832	 0.144306	 -1.921350	 -1.502979	 1.845000	 -0.241140	 0.673415	 -0.671585	 0.193230	 1
1462089996.113	 4	 0.021821	 1.220412	 0.065128	 -1.901832	 -1.504068	 1.852455	 -0.236710	 0.674392	 -0.673227	 0.189549	 1
1462089996.123	 4	 -0.249032	 1.123685	 -0.035727	 -1.915305	 -1.503380	 1.827345	 -0.233010	 0.676078	 -0.673983	 0.185395	 1
1462089996.133	 4	 -0.476619	 0.935260	 -0.150601	 -1.956817	 -1.500725	 1.775866	 -0.230494	 0.678272	 -0.673796	 0.181159	 1
1462089996.143	 4	 -0.617892	 0.718935	 -0.264355	 -2.010222	 -1.496193	 1.714549	 -0.229216	 0.680672	 -0.672903	 0.177051	 1
1462089996.153	 4	 -0.687620	 0.463466	 -0.320479	 -2.064531	 -1.490374	 1.654778	 -0.229094	 0.683046	 -0.671480	 0.173431	 1
1462089996.163	 4	 -0.661060	 0.200773	 -0.307168	 -2.113224	 -1.484307	 1.603251	 -0.229857	 0.685173	 -0.669751	 0.170696	 1
1462089996.173	 4	 -0.544576	 -0.049015	 -0.238035	 -2.152546	 -1.479039	 1.563645	 -0.231191	 0.686822	 -0.667999	 0.169123	 1
1462089996.183	 4	 -0.368066	 -0.252104	 -0.158332	 -2.180527	 -1.475236	 1.537619	 -0.232844	 0.687825	 -0.666484	 0.168758	 1
1462089996.193	 4	 -0.184724	 -0.353200	 -0.091595	 -2.196843	 -1.473043	 1.524592	 -0.234518	 0.688182	 -0.665393	 0.169290	 1
1462089996.203	 4	 -0.047948	 -0.335349	 -0.068107	 -2.202507	 -1.472007	 1.522393	 -0.235985	 0.688064	 -0.664775	 0.170157	 1
1462089996.213	 4	 0.022016	 -0.200548	 -0.078119	 -2.199925	 -1.471464	 1.527397	 -0.237026	 0.687747	 -0.664581	 0.170748	 1
1462089996.223	 4	 0.026062	 0.004490	 -0.109285	 -2.192159	 -1.470817	 1.535690	 -0.237509	 0.687490	 -0.664709	 0.170615	 1
1462089996.233	 4	 -0.018935	 0.230849	 -0.153681	 -2.182681	 -1.469624	 1.543473	 -0.237427	 0.687485	 -0.665018	 0.169539	 1
1462089996.243	 4	 -0.075530	 0.478585	 -0.188184	 -2.173435	 -1.467790	 1.548582	 -0.236714	 0.687828	 -0.665450	 0.167434	 1
1462089996.253	 4	 -0.118149	 0.727522	 -0.198286	 -2.164685	 -1.465557	 1.550682	 -0.235263	 0.688507	 -0.666029	 0.164360	 1
1462089996.263	 4	 -0.155431	 0.968010	 -0.197855	 -2.156630	 -1.463096	 1.549648	 -0.233039	 0.689499	 -0.666750	 0.160399	 1
1462089996.273	 4	 -0.194925	 1.184109	 -0.188040	 -2.149792	 -1.460489	 1.545131	 -0.230064	 0.690788	 -0.667576	 0.155640	 1
1462089996.283	 4	 -0.231541	 1.338453	 -0.186285	 -2.144498	 -1.457711	 1.537341	 -0.226523	 0.692322	 -0.668431	 0.150257	 1
1462089996.293	 4	 -0.205494	 1.453051	 -0.213155	 -2.136472	 -1.454820	 1.531074	 -0.222625	 0.693865	 -0.669433	 0.144390	 1
1462089996.303	 4	 -0.121994	 1.554512	 -0.268358	 -2.120318	 -1.451908	 1.531935	 -0.218479	 0.695155	 -0.670793	 0.138071	 1
1462089996.313	 4	 -0.032278	 1.645070	 -0.357820	 -2.093620	 -1.448775	 1.542440	 -0.214211	 0.696062	 -0.672598	 0.131236	 1
1462089996.323	 4	 -0.005130	 1.614378	 -0.472379	 -2.060808	 -1.444854	 1.559110	 -0.210279	 0.696664	 -0.674573	 0.124069	 1
1462089996.333	 4	 0.012417	 1.577395	 -0.578386	 -2.024931	 -1.439969	 1.579306	 -0.206847	 0.697014	 -0.676587	 0.116689	 1
1462089996.343	 4	 0.035645	 1.591636	 -0.658388	 -1.987080	 -1.434280	 1.601526	 -0.203700	 0.697153	 -0.678673	 0.109030	 1
1462089996.353	 4	 0.049563	 1.634911	 -0.698605	 -1.948684	 -1.428097	 1.623893	 -0.200561	 0.697145	 -0.680845	 0.101069	 1
1462089996.363	 4	 0.014367	 1.660360	 -0.723640	 -1.913299	 -1.421482	 1.642933	 -0.197404	 0.697145	 -0.682929	 0.092883	 1
1462089996.373	 4	 -0.061419	 1.691131	 -0.764259	 -1.883230	 -1.414222	 1.656341	 -0.194297	 0.697290	 -0.684770	 0.084406	 1
1462089996.383	 4	 -0.156389	 1.726224	 -0.803604	 -1.860296	 -1.406229	 1.662192	 -0.191234	 0.697720	 -0.686226	 0.075569	 1
1462089996.393	 4	 -0.270842	 1.700768	 -0.840146	 -1.843283	 -1.397575	 1.662071	 -0.188337	 0.698371	 -0.687302	 0.066506	 1
1462089996.403	 4	 -0.367802	 1.522236	 -0.858015	 -1.833472	 -1.388418	 1.655998	 -0.186003	 0.699250	 -0.687837	 0.057728	 1
1462089996.413	 4	 -0.444111	 1.177885	 -0.853094	 -1.830845	 -1.379048	 1.645723	 -0.184737	 0.700267	 -0.687754	 0.049938	 1
1462089996.423	 4	 -0.458951	 0.749274	 -0.855888	 -1.833594	 -1.369626	 1.634176	 -0.184882	 0.701265	 -0.687129	 0.043578	 1
1462089996.433	 4	 -0.393692	 0.383810	 -0.918474	 -1.836791	 -1.359866	 1.626147	 -0.186520	 0.701946	 -0.686296	 0.038471	 1
1462089996.443	 4	 -0.305484	 0.123651	 -0.970688	 -1.837794	 -1.349721	 1.623222	 -0.189322	 0.702200	 -0.685494	 0.034213	 1
1462089996.453	 4	 -0.229559	 -0.092287	 -0.943517	 -1.837678	 -1.339859	 1.623753	 -0.192851	 0.702133	 -0.684738	 0.030847	 1
1462089996.463	 4	 -0.176689	 -0.279974	 -0.843410	 -1.837989	 -1.330947	 1.625855	 -0.196747	 0.701891	 -0.683979	 0.028505	 1
1462089996.473	 4	 -0.158692	 -0.441627	 -0.687338	 -1.840502	 -1.323481	 1.627429	 -0.200712	 0.701661	 -0.683113	 0.027268	 1
1462089996.483	 4	 -0.174448	 -0.566610	 -0.475212	 -1.846620	 -1.317899	 1.626658	 -0.204436	 0.701625	 -0.682049	 0.027164	 1
1462089996.493	 4	 -0.215467	 -0.662412	 -0.209306	 -1.857606	 -1.314667	 1.621913	 -0.207616	 0.701947	 -0.680711	 0.028252	 1
1462089996.503	 4	 -0.272469	 -0.715944	 0.012371	 -1.873672	 -1.313571	 1.612614	 -0.210184	 0.702682	 -0.679073	 0.030343	 1
1462089996.513	 4	 -0.323421	 -0.713192	 0.077852	 -1.892947	 -1.313297	 1.600095	 -0.212412	 0.703701	 -0.677209	 0.032777	 1
1462089996.523	 4	 -0.354473	 -0.666893	 -0.003511	 -1.912519	 -1.312384	 1.586901	 -0.214692	 0.704787	 -0.675252	 0.034885	 1
1462089996.533	 4	 -0.365278	 -0.595397	 -0.122117	 -1.930337	 -1.310244	 1.574822	 -0.217161	 0.705805	 -0.673320	 0.036338	 1
1462089996.543	 4	 -0.348082	 -0.534163	 -0.169647	 -1.945923	 -1.307450	 1.564351	 -0.219643	 0.706714	 -0.671504	 0.037336	 1
1462089996.553	 4	 -0.307392	 -0.525598	 -0.145409	 -1.959926	 -1.304821	 1.555266	 -0.222008	 0.707512	 -0.669829	 0.038314	 1
1462089996.563	 4	 -0.243350	 -0.618558	 -0.031729	 -1.973570	 -1.303153	 1.547182	 -0.224268	 0.708191	 -0.668268	 0.039852	 1
1462089996.573	 4	 -0.162187	 -0.819044	 0.221481	 -1.989651	 -1.303878	 1.538491	 -0.226315	 0.708815	 -0.666725	 0.042903	 1
1462089996.583	 4	 -0.122831	 -0.942770	 0.336155	 -2.008061	 -1.306255	 1.528932	 -0.228267	 0.709405	 -0.665149	 0.047080	 1
1462089996.593	 4	 -0.129318	 -0.941849	 0.313839	 -2.026940	 -1.308640	 1.519220	 -0.230303	 0.709958	 -0.663536	 0.051385	 1
1462089996.603	 4	 -0.153522	 -0.824111	 0.259726	 -2.044995	 -1.310418	 1.509411	 -0.232217	 0.710530	 -0.661951	 0.055165	 1
1462089996.613	 4	 -0.184802	 -0.602295	 0.181065	 -2.061043	 -1.311412	 1.499706	 -0.233747	 0.711157	 -0.660495	 0.058005	 1
1462089996.623	 4	 -0.220910	 -0.254058	 0.080175	 -2.073470	 -1.311322	 1.490444	 -0.234582	 0.711882	 -0.659298	 0.059339	 1
1462089996.633	 4	 -0.229232	 0.107878	 -0.027224	 -2.080800	 -1.310204	 1.482627	 -0.234577	 0.712646	 -0.658506	 0.058988	 1
1462089996.643	 4	 -0.201825	 0.345326	 -0.126501	 -2.082813	 -1.308272	 1.477484	 -0.234034	 0.713303	 -0.658132	 0.057348	 1
1462089996.653	 4	 -0.144884	 0.462899	 -0.170664	 -2.080593	 -1.306066	 1.475242	 -0.233221	 0.713758	 -0.658123	 0.055059	 1
1462089996.663	 4	 -0.087020	 0.503230	 -0.159070	 -2.075939	 -1.304137	 1.474906	 -0.232196	 0.714035	 -0.658385	 0.052623	 1
1462089996.673	 4	 -0.047293	 0.521480	 -0.119812	 -2.070265	 -1.302721	 1.475439	 -0.230979	 0.714200	 -0.658816	 0.050285	 1
1462089996.683	 4	 -0.025502	 0.568627	 -0.063078	 -2.064349	 -1.301875	 1.475817	 -0.229440	 0.714349	 -0.659362	 0.048006	 1
1462089996.693	 4	 -0.016277	 0.651044	 0.012212	 -2.058535	 -1.301729	 1.475319	 -0.227392	 0.714550	 -0.660017	 0.045714	 1
1462089996.703	 4	 -0.013524	 0.732301	 0.071561	 -2.052807	 -1.302172	 1.473837	 -0.224826	 0.714821	 -0.660762	 0.043331	 1
1462089996.713	 4	 0.011081	 0.705976	 0.117995	 -2.047335	 -1.303143	 1.472044	 -0.222059	 0.715085	 -0.661553	 0.041116	 1
1462089996.723	 4	 0.028798	 0.634501	 0.095861	 -2.041756	 -1.304191	 1.471058	 -0.219517	 0.715251	 -0.662341	 0.039156	 1
1462089996.733	 4	 0.048302	 0.504395	 0.056113	 -2.036006	 -1.304970	 1.471398	 -0.217478	 0.715283	 -0.663075	 0.037482	 1
1462089996.743	 4	 0.063216	 0.307283	 0.014716	 -2.030871	 -1.305468	 1.472995	 -0.216182	 0.715179	 -0.663674	 0.036347	 1
1462089996.753	 4	 0.064164	 0.084738	 -0.019336	 -2.027145	 -1.305642	 1.475410	 -0.215752	 0.714977	 -0.664057	 0.035876	 1
1462089996.763	 4	 0.050469	 -0.084501	 -0.042107	 -2.025187	 -1.305548	 1.477940	 -0.216036	 0.714744	 -0.664210	 0.035984	 1
1462089996.773	 4	 0.018148	 -0.130305	 -0.064633	 -2.024610	 -1.305135	 1.479865	 -0.216669	 0.714566	 -0.664179	 0.036274	 1
1462089996.783	 4	 -0.023307	 -0.078215	 -0.085103	 -2.024713	 -1.304355	 1.480729	 -0.217268	 0.714508	 -0.664043	 0.036328	 1
1462089996.793	 4	 -0.052905	 -0.003800	 -0.102270	 -2.024902	 -1.303280	 1.480777	 -0.217701	 0.714551	 -0.663871	 0.036039	 1
1462089996.803	 4	 -0.084695	 0.073681	 -0.137509	 -2.024805	 -1.301799	 1.480305	 -0.217988	 0.714674	 -0.663681	 0.035336	 1
1462089996.813	 4	 -0.115535	 0.119310	 -0.164525	 -2.024660	 -1.299893	 1.479328	 -0.218218	 0.714874	 -0.663445	 0.034301	 1
1462089996.823	 4	 -0.144341	 0.122572	 -0.166376	 -2.025201	 -1.297786	 1.477467	 -0.218424	 0.715168	 -0.663119	 0.033148	 1
1462089996.833	 4	 -0.149822	 0.070653	 -0.141233	 -2.026786	 -1.295796	 1.474927	 -0.218695	 0.715514	 -0.662704	 0.032185	 1
1462089996.843	 4	 -0.135118	 0.005856	 -0.123846	 -2.029042	 -1.294046	 1.472367	 -0.219100	 0.715843	 -0.662246	 0.031539	 1
1462089996.853	 4	 -0.113817	 -0.009045	 -0.116710	 -2.031078	 -1.292446	 1.470338	 -0.219572	 0.716111	 -0.661823	 0.031044	 1
1462089996.863	 4	 -0.072963	 0.037781	 -0.096380	 -2.031888	 -1.291141	 1.469275	 -0.219887	 0.716279	 -0.661561	 0.030532	 1
1462089996.873	 4	 -0.014795	 0.113461	 -0.050355	 -2.030914	 -1.290433	 1.469297	 -0.219805	 0.716325	 -0.661564	 0.029946	 1
1462089996.883	 4	 0.044556	 0.196730	 0.015981	 -2.028181	 -1.290560	 1.470321	 -0.219226	 0.716247	 -0.661868	 0.029350	 1
1462089996.893	 4	 0.066590	 0.294933	 0.073188	 -2.024420	 -1.291385	 1.471427	 -0.218106	 0.716142	 -0.662382	 0.028655	 1
1462089996.903	 4	 0.058491	 0.356914	 0.110071	 -2.020616	 -1.292579	 1.471790	 -0.216583	 0.716100	 -0.662962	 0.027825	 1
1462089996.913	 4	 0.052165	 0.358128	 0.128256	 -2.017227	 -1.293945	 1.471590	 -0.214939	 0.716105	 -0.663525	 0.027018	 1
1462089996.923	 4	 0.050937	 0.330421	 0.120548	 -2.014125	 -1.295276	 1.471271	 -0.213357	 0.716119	 -0.664051	 0.026260	 1
1462089996.933	 4	 0.085755	 0.266326	 0.096202	 -2.010419	 -1.296524	 1.472182	 -0.212042	 0.716013	 -0.664609	 0.025668	 1
1462089996.943	 4	 0.122768	 0.216044	 0.070899	 -2.005604	 -1.297702	 1.474834	 -0.211002	 0.715741	 -0.665250	 0.025234	 1
1462089996.953	 4	 0.132113	 0.182856	 0.044931	 -2.000229	 -1.298718	 1.478412	 -0.210157	 0.715387	 -0.665911	 0.024853	 1
1462089996.963	 4	 0.124215	 0.111451	 0.021954	 -1.995180	 -1.299480	 1.482275	 -0.209605	 0.715011	 -0.666498	 0.024599	 1
1462089996.973	 4	 0.107714	 0.010427	 0.017960	 -1.991381	 -1.300114	 1.485844	 -0.209405	 0.714658	 -0.666937	 0.024651	 1
1462089996.983	 4	 0.086869	 -0.101267	 0.007511	 -1.989225	 -1.300573	 1.488840	 -0.209604	 0.714353	 -0.667188	 0.025039	 1
1462089996.993	 4	 0.071441	 -0.195958	 -0.002828	 -1.988497	 -1.300888	 1.491403	 -0.210171	 0.714081	 -0.667274	 0.025743	 1
1462089997.003	 4	 0.050807	 -0.253490	 -0.024499	 -1.988796	 -1.300928	 1.493600	 -0.211043	 0.713844	 -0.667219	 0.026597	 1
1462089997.013	 4	 0.031458	 -0.275831	 -0.033064	 -1.989841	 -1.300795	 1.495333	 -0.212054	 0.713651	 -0.667067	 0.027502	 1
1462089997.023	 4	 0.009037	 -0.273675	 -0.038178	 -1.991570	 -1.300509	 1.496400	 -0.213106	 0.713525	 -0.666830	 0.028375	 1
1462089997.033	 4	 -0.009005	 -0.266060	 -0.021964	 -1.993992	 -1.300235	 1.496664	 -0.214098	 0.713473	 -0.666532	 0.029232	 1
1462089997.043	 4	 -0.018469	 -0.260504	 0.006946	 -1.997168	 -1.300165	 1.496088	 -0.214974	 0.713490	 -0.666190	 0.030149	 1
1462089997.053	 4	 -0.018371	 -0.248727	 0.017712	 -2.000556	 -1.300238	 1.495186	 -0.215756	 0.713532	 -0.665849	 0.031083	 1
1462089997.063	 4	 -0.006587	 -0.233917	 0.011353	 -2.003494	 -1.300327	 1.494608	 -0.216499	 0.713545	 -0.665552	 0.031969	 1
1462089997.073	 4	 0.011656	 -0.201098	 -0.002355	 -2.005407	 -1.300361	 1.494809	 -0.217195	 0.713491	 -0.665346	 0.032730	 1
1462089997.083	 4	 0.034315	 -0.140606	 -0.011582	 -2.005901	 -1.300389	 1.495931	 -0.217751	 0.713359	 -0.665278	 0.033289	 1
1462089997.093	 4	 0.057045	 -0.071550	 -0.013268	 -2.004905	 -1.300502	 1.497888	 -0.218080	 0.713158	 -0.665369	 0.033625	 1
1462089997.103	 4	 0.075428	 -0.016332	 -0.018243	 -2.002610	 -1.300643	 1.500577	 -0.218228	 0.712898	 -0.665593	 0.033750	 1
1462089997.113	 4	 0.082007	 0.020835	 -0.022208	 -1.995038	 -1.303268	 1.507976	 -0.217473	 0.712118	 -0.666639	 0.034431	 1
1462089997.123	 4	 0.078969	 0.045394	 -0.010229	 -1.991737	 -1.303460	 1.510989	 -0.217382	 0.711840	 -0.666971	 0.034328	 1
1462089997.133	 4	 0.068450	 0.061520	 0.009196	 -1.988850	 -1.303794	 1.513373	 -0.217156	 0.711618	 -0.667287	 0.034212	 1
1462089997.143	 4	 0.064217	 0.052106	 0.029395	 -1.986486	 -1.304282	 1.515240	 -0.216869	 0.711439	 -0.667574	 0.034164	 1
1462089997.153	 4	 0.058770	 0.020277	 0.038753	 -1.988091	 -1.306268	 1.513509	 -0.216129	 0.711527	 -0.667685	 0.034851	 1
1462089997.163	 4	 0.056431	 -0.025431	 0.041546	 -1.986922	 -1.306875	 1.514868	 -0.216021	 0.711378	 -0.667865	 0.035100	 1
1462089997.173	 4	 0.054101	 -0.059524	 0.032723	 -1.986149	 -1.307418	 1.516219	 -0.216062	 0.711226	 -0.667994	 0.035466	 1
1462089997.183	 4	 0.052906	 -0.076624	 0.020851	 -1.985445	 -1.307852	 1.517708	 -0.216212	 0.711063	 -0.668099	 0.035865	 1
1462089997.193	 4	 0.047458	 -0.091543	 0.013277	 -1.984237	 -1.305364	 1.519820	 -0.217388	 0.710942	 -0.667877	 0.035272	 1
1462089997.203	 4	 0.048390	 -0.113915	 0.007716	 -1.983006	 -1.303716	 1.522160	 -0.218356	 0.710766	 -0.667761	 0.035039	 1
1462089997.213	 4	 0.049314	 -0.141586	 0.005308	 -1.980835	 -1.302892	 1.525658	 -0.219148	 0.710448	 -0.667834	 0.035147	 1
1462089997.223	 4	 0.050132	 -0.187363	 -0.001551	 -1.974782	 -1.300145	 1.533302	 -0.220756	 0.709799	 -0.668024	 0.034589	 1
1462089997.233	 4	 0.049968	 -0.216126	 -0.008220	 -1.974090	 -1.299495	 1.536140	 -0.221748	 0.709516	 -0.667971	 0.035064	 1
1462089997.243	 4	 0.055344	 -0.211862	 -0.003948	 -1.977110	 -1.301129	 1.535427	 -0.221959	 0.709493	 -0.667850	 0.036470	 1
1462089997.253	 4	 0.062902	 -0.191700	 -0.007023	 -1.975002	 -1.301809	 1.539515	 -0.222478	 0.709058	 -0.668092	 0.037326	 1
1462089997.263	 4	 0.069362	 -0.181074	 -0.005921	 -1.971665	 -1.301825	 1.544676	 -0.223187	 0.708545	 -0.668369	 0.037873	 1
1462089997.273	 4	 0.074798	 -0.154544	 -0.012120	 -1.969992	 -1.301560	 1.548051	 -0.223912	 0.708207	 -0.668460	 0.038316	 1
1462089997.283	 4	 0.065236	 -0.129123	 -0.030993	 -1.967572	 -1.300677	 1.551880	 -0.224753	 0.707847	 -0.668552	 0.038428	 1
1462089997.293	 4	 0.056832	 -0.094047	 -0.038061	 -1.966141	 -1.299684	 1.554441	 -0.225513	 0.707611	 -0.668546	 0.038429	 1
1462089997.303	 4	 0.043023	 -0.072793	 -0.046272	 -1.965376	 -1.299011	 1.556072	 -0.226058	 0.707458	 -0.668522	 0.038466	 1
1462089997.313	 4	 0.030204	 -0.071721	 -0.050412	 -1.965026	 -1.298622	 1.557231	 -0.226481	 0.707343	 -0.668493	 0.038593	 1
1462089997.323	 4	 0.020595	 -0.069589	 -0.053501	 -1.966407	 -1.298452	 1.556690	 -0.226808	 0.707382	 -0.668327	 0.038840	 1
1462089997.333	 4	 0.010896	 -0.089772	 -0.053598	 -1.967257	 -1.298589	 1.556762	 -0.227072	 0.707353	 -0.668245	 0.039214	 1
1462089997.343	 4	 0.008687	 -0.113107	 -0.045263	 -1.967892	 -1.298843	 1.557259	 -0.227375	 0.707278	 -0.668193	 0.039694	 1
1462089997.353	 4	 0.011903	 -0.112039	 -0.043142	 -1.969278	 -1.299211	 1.557096	 -0.227658	 0.707260	 -0.668083	 0.040259	 1
1462089997.363	 4	 0.008777	 -0.096077	 -0.042959	 -1.970954	 -1.299400	 1.556506	 -0.227946	 0.707289	 -0.667926	 0.040721	 1
1462089997.373	 4	 0.003493	 -0.085425	 -0.042810	 -1.971552	 -1.299420	 1.556822	 -0.228251	 0.707240	 -0.667854	 0.041045	 1
1462089997.383	 4	 0.006739	 -0.074815	 -0.044869	 -1.970820	 -1.299318	 1.558346	 -0.228579	 0.707083	 -0.667894	 0.041259	 1
1462089997.393	 4	 0.008898	 -0.061071	 -0.055417	 -1.970036	 -1.299043	 1.559782	 -0.228917	 0.706942	 -0.667921	 0.041365	 1
1462089997.403	 4	 0.012152	 -0.051502	 -0.054289	 -1.968545	 -1.298954	 1.561819	 -0.229168	 0.706742	 -0.668039	 0.041487	 1
1462089997.413	 4	 0.014348	 -0.034529	 -0.059477	 -1.967164	 -1.298777	 1.563620	 -0.229402	 0.706568	 -0.668140	 0.041538	 1
1462089997.423	 4	 0.020875	 -0.013237	 -0.054005	 -1.965815	 -1.298497	 1.565208	 -0.229606	 0.706420	 -0.668229	 0.041494	 1
1462089997.433	 4	 0.019943	 0.009157	 -0.046325	 -1.965260	 -1.298334	 1.565780	 -0.229677	 0.706370	 -0.668261	 0.041431	 1
1462089997.443	 4	 0.018860	 -0.002472	 -0.036829	 -1.963984	 -1.298367	 1.567075	 -0.229697	 0.706247	 -0.668385	 0.041425	 1
1462089997.453	 4	 0.023001	 -0.032246	 -0.033942	 -1.963094	 -1.298498	 1.568259	 -0.229774	 0.706126	 -0.668478	 0.041553	 1
1462089997.463	 4	 0.031425	 -0.059897	 -0.030007	 -1.962102	 -1.298580	 1.569833	 -0.229971	 0.705964	 -0.668569	 0.041757	 1
1462089997.473	 4	 0.027072	 -0.070583	 -0.038593	 -1.961694	 -1.298508	 1.570981	 -0.230264	 0.705842	 -0.668583	 0.041972	 1
1462089997.483	 4	 0.022764	 -0.084352	 -0.032288	 -1.961075	 -1.298444	 1.572464	 -0.230601	 0.705686	 -0.668616	 0.042226	 1
1462089997.493	 4	 0.027032	 -0.086477	 -0.030211	 -1.960799	 -1.298420	 1.573655	 -0.230937	 0.705555	 -0.668620	 0.042519	 1
1462089997.503	 4	 0.033476	 -0.081148	 -0.025953	 -1.960776	 -1.298401	 1.574593	 -0.231267	 0.705447	 -0.668600	 0.042818	 1
1462089997.513	 4	 0.028132	 -0.081148	 -0.028035	 -1.960745	 -1.298416	 1.575490	 -0.231568	 0.705344	 -0.668586	 0.043112	 1
1462089997.523	 4	 0.026988	 -0.099211	 -0.026062	 -1.960233	 -1.298298	 1.576980	 -0.231961	 0.705185	 -0.668600	 0.043387	 1
1462089997.533	 4	 0.024780	 -0.105664	 -0.036763	 -1.959761	 -1.297903	 1.578545	 -0.232488	 0.705021	 -0.668576	 0.043605	 1
1462089997.543	 4	 0.015139	 -0.108864	 -0.042040	 -1.959293	 -1.297384	 1.580136	 -0.233066	 0.704856	 -0.668537	 0.043788	 1
1462089997.553	 4	 0.015183	 -0.102568	 -0.044091	 -1.958764	 -1.296890	 1.581735	 -0.233617	 0.704690	 -0.668508	 0.043962	 1
1462089997.563	 4	 0.017417	 -0.077085	 -0.049203	 -1.958269	 -1.296436	 1.583112	 -0.234089	 0.704548	 -0.668484	 0.044087	 1
1462089997.573	 4	 0.017492	 -0.063242	 -0.046943	 -1.957534	 -1.296117	 1.584552	 -0.234457	 0.704401	 -0.668502	 0.044197	 1
1462089997.583	 4	 0.017567	 -0.054671	 -0.038337	 -1.956733	 -1.295965	 1.585955	 -0.234734	 0.704257	 -0.668548	 0.044330	 1
1462089997.593	 4	 0.012265	 -0.052490	 -0.032939	 -1.956241	 -1.296043	 1.587001	 -0.234912	 0.704144	 -0.668591	 0.044534	 1
1462089997.603	 4	 0.005908	 -0.051338	 -0.023278	 -1.955889	 -1.296235	 1.587879	 -0.235039	 0.704045	 -0.668635	 0.044771	 1
1462089997.613	 4	 0.009165	 -0.048088	 -0.013681	 -1.955634	 -1.296501	 1.588627	 -0.235128	 0.703959	 -0.668677	 0.045026	 1
1462089997.623	 4	 0.012399	 -0.046989	 -0.007301	 -1.955238	 -1.296828	 1.589498	 -0.235193	 0.703860	 -0.668741	 0.045294	 1
1462089997.633	 4	 0.010262	 -0.046991	 -0.008346	 -1.954929	 -1.297113	 1.590280	 -0.235269	 0.703770	 -0.668791	 0.045547	 1
1462089997.643	 4	 0.006003	 -0.043803	 -0.010410	 -1.954142	 -1.297223	 1.591503	 -0.235400	 0.703643	 -0.668868	 0.045718	 1
1462089997.653	 4	 0.002844	 -0.035284	 -0.010304	 -1.953458	 -1.297246	 1.592546	 -0.235530	 0.703535	 -0.668927	 0.045834	 1
1462089997.663	 4	 0.007135	 -0.029986	 -0.011357	 -1.952895	 -1.297272	 1.593411	 -0.235637	 0.703446	 -0.668976	 0.045935	 1
1462089997.673	 4	 0.017822	 -0.028939	 -0.009310	 -1.951658	 -1.297308	 1.594932	 -0.235746	 0.703294	 -0.669091	 0.046022	 1
1462089997.683	 4	 0.017828	 -0.022604	 -0.015646	 -1.950732	 -1.297288	 1.596094	 -0.235852	 0.703179	 -0.669171	 0.046078	 1
1462089997.693	 4	 0.018851	 -0.033235	 -0.014690	 -1.948903	 -1.297156	 1.598217	 -0.236031	 0.702972	 -0.669324	 0.046099	 1
1462089997.703	 4	 0.018848	 -0.033243	 -0.015757	 -1.947694	 -1.297061	 1.599767	 -0.236202	 0.702819	 -0.669420	 0.046159	 1
1462089997.713	 4	 0.020025	 -0.014069	 -0.011326	 -1.946462	 -1.297093	 1.601207	 -0.236286	 0.702677	 -0.669536	 0.046219	 1
1462089997.723	 4	 0.022263	 0.005093	 -0.007969	 -1.945615	 -1.297194	 1.602072	 -0.236272	 0.702593	 -0.669627	 0.046247	 1
1462089997.733	 4	 0.027630	 0.010403	 -0.006900	 -1.944295	 -1.297348	 1.603320	 -0.236216	 0.702474	 -0.669771	 0.046256	 1
1462089997.743	 4	 0.031856	 0.003985	 -0.010193	 -1.942808	 -1.297441	 1.604784	 -0.236202	 0.702334	 -0.669922	 0.046257	 1
1462089997.753	 4	 0.028646	 0.003979	 -0.012296	 -1.941727	 -1.297452	 1.605879	 -0.236220	 0.702230	 -0.670026	 0.046248	 1
1462089997.763	 4	 0.028672	 0.006137	 -0.008013	 -1.940994	 -1.297484	 1.606612	 -0.236221	 0.702160	 -0.670099	 0.046248	 1
1462089997.773	 4	 0.024406	 0.005101	 -0.005853	 -1.940509	 -1.297564	 1.607094	 -0.236201	 0.702113	 -0.670153	 0.046267	 1
1462089997.783	 4	 0.020141	 0.006177	 -0.005805	 -1.940286	 -1.297580	 1.607315	 -0.236198	 0.702092	 -0.670176	 0.046269	 1
1462089997.793	 4	 0.015880	 0.007261	 -0.004691	 -1.940187	 -1.297581	 1.607392	 -0.236192	 0.702085	 -0.670186	 0.046260	 1
1462089997.803	 4	 0.012688	 0.009398	 -0.004643	 -1.940090	 -1.297584	 1.607438	 -0.236174	 0.702082	 -0.670197	 0.046242	 1
1462089997.813	 4	 0.012691	 0.009405	 -0.003576	 -1.939942	 -1.297662	 1.607531	 -0.236131	 0.702074	 -0.670220	 0.046249	 1
1462089997.823	 4	 0.009515	 0.015789	 -0.004553	 -1.939928	 -1.297740	 1.607438	 -0.236068	 0.702084	 -0.670232	 0.046241	 1
1462089997.833	 4	 0.007412	 0.024289	 -0.006586	 -1.939518	 -1.297756	 1.607644	 -0.235997	 0.702069	 -0.670278	 0.046172	 1
1462089997.843	 4	 0.010654	 0.033844	 -0.007591	 -1.939112	 -1.297724	 1.607767	 -0.235915	 0.702064	 -0.670320	 0.046059	 1
1462089997.853	 4	 0.011789	 0.045564	 -0.004293	 -1.938536	 -1.297773	 1.607948	 -0.235769	 0.702056	 -0.670388	 0.045935	 1
1462089997.863	 4	 0.011820	 0.047730	 0.001057	 -1.938133	 -1.297898	 1.607905	 -0.235577	 0.702069	 -0.670450	 0.045824	 1
1462089997.873	 4	 0.012882	 0.041391	 0.007385	 -1.937696	 -1.298104	 1.607933	 -0.235371	 0.702073	 -0.670522	 0.045753	 1
1462089997.883	 4	 0.009650	 0.030802	 0.012646	 -1.937645	 -1.298399	 1.607669	 -0.235163	 0.702102	 -0.670565	 0.045751	 1
1462089997.893	 4	 0.008541	 0.021239	 0.013634	 -1.937771	 -1.298680	 1.607339	 -0.234994	 0.702135	 -0.670587	 0.045784	 1
1462089997.903	 4	 0.002107	 0.015932	 0.012576	 -1.938234	 -1.298798	 1.606718	 -0.234892	 0.702196	 -0.670559	 0.045781	 1
1462089997.913	 4	 0.001037	 0.014879	 0.013640	 -1.938696	 -1.298768	 1.606112	 -0.234844	 0.702257	 -0.670516	 0.045729	 1
1462089997.923	 4	 -0.004307	 0.011719	 0.015788	 -1.939238	 -1.298790	 1.605442	 -0.234783	 0.702323	 -0.670470	 0.045703	 1
1462089997.933	 4	 -0.004307	 0.011719	 0.015787	 -1.939514	 -1.298867	 1.605049	 -0.234712	 0.702362	 -0.670455	 0.045695	 1
1462089997.943	 4	 -0.001116	 0.010638	 0.014683	 -1.939738	 -1.298955	 1.604706	 -0.234637	 0.702397	 -0.670445	 0.045690	 1
1462089997.953	 4	 0.005318	 0.017001	 0.014685	 -1.939178	 -1.299056	 1.605099	 -0.234553	 0.702362	 -0.670513	 0.045661	 1
1462089997.963	 4	 0.011769	 0.028667	 0.012605	 -1.938392	 -1.299165	 1.605621	 -0.234436	 0.702318	 -0.670605	 0.045598	 1
1462089997.973	 4	 0.017160	 0.039296	 0.013722	 -1.937331	 -1.299286	 1.606317	 -0.234285	 0.702259	 -0.670726	 0.045502	 1
1462089997.983	 4	 0.016118	 0.045673	 0.012722	 -1.936513	 -1.299283	 1.606705	 -0.234147	 0.702232	 -0.670812	 0.045344	 1
1462089997.993	 4	 0.013961	 0.044585	 0.008466	 -1.935627	 -1.299294	 1.607144	 -0.234001	 0.702201	 -0.670907	 0.045184	 1
1462089998.003	 4	 0.009632	 0.038162	 0.000981	 -1.934821	 -1.299172	 1.607566	 -0.233920	 0.702171	 -0.670979	 0.045000	 1
1462089998.013	 4	 0.004286	 0.038163	 -0.001105	 -1.934556	 -1.299066	 1.607475	 -0.233834	 0.702188	 -0.671001	 0.044838	 1
1462089998.023	 4	 -0.002128	 0.034999	 -0.000013	 -1.934296	 -1.299009	 1.607385	 -0.233734	 0.702205	 -0.671028	 0.044697	 1
1462089998.033	 4	 -0.005384	 0.026476	 -0.003262	 -1.934369	 -1.298932	 1.607022	 -0.233658	 0.702247	 -0.671019	 0.044573	 1
1462089998.043	 4	 -0.005432	 0.012679	 0.000874	 -1.934337	 -1.298941	 1.606881	 -0.233594	 0.702264	 -0.671027	 0.044518	 1
1462089998.053	 4	 -0.005469	 0.003121	 0.002917	 -1.934377	 -1.299008	 1.606780	 -0.233550	 0.702274	 -0.671032	 0.044521	 1
1462089998.063	 4	 -0.002273	 -0.000064	 0.004991	 -1.934329	 -1.299070	 1.606814	 -0.233525	 0.702271	 -0.671043	 0.044538	 1
1462089998.073	 4	 0.000958	 0.003141	 0.008190	 -1.933910	 -1.299170	 1.607191	 -0.233483	 0.702235	 -0.671094	 0.044553	 1
1462089998.083	 4	 0.006302	 0.006301	 0.006041	 -1.933110	 -1.299291	 1.607916	 -0.233428	 0.702167	 -0.671184	 0.044558	 1
1462089998.093	 4	 0.009529	 0.015826	 0.000771	 -1.932166	 -1.299280	 1.608719	 -0.233397	 0.702094	 -0.671275	 0.044493	 1
1462089998.103	 4	 0.014942	 0.033877	 -0.001241	 -1.931245	 -1.299256	 1.609369	 -0.233324	 0.702039	 -0.671365	 0.044379	 1
1462089998.113	 4	 0.013962	 0.054074	 -0.003177	 -1.930328	 -1.299202	 1.609811	 -0.233190	 0.702008	 -0.671457	 0.044186	 1
1462089998.123	 4	 0.007589	 0.060475	 -0.003062	 -1.929518	 -1.299160	 1.610046	 -0.233014	 0.701999	 -0.671542	 0.043966	 1
1462089998.133	 4	 0.003283	 0.050930	 -0.000982	 -1.928965	 -1.299137	 1.610073	 -0.232846	 0.702008	 -0.671603	 0.043773	 1
1462089998.143	 4	 0.004268	 0.033908	 -0.001149	 -1.928588	 -1.299121	 1.610079	 -0.232727	 0.702016	 -0.671645	 0.043637	 1
1462089998.153	 4	 0.002040	 0.017928	 -0.005542	 -1.928593	 -1.299034	 1.609875	 -0.232686	 0.702040	 -0.671640	 0.043539	 1
1462089998.163	 4	 -0.001252	 0.000904	 -0.007803	 -1.928604	 -1.298929	 1.609822	 -0.232707	 0.702047	 -0.671629	 0.043488	 1
1462089998.173	 4	 -0.002346	 -0.005467	 -0.006787	 -1.928611	 -1.298833	 1.609867	 -0.232757	 0.702043	 -0.671618	 0.043471	 1
1462089998.183	 4	 -0.003398	 -0.003329	 -0.005692	 -1.928493	 -1.298789	 1.610027	 -0.232788	 0.702027	 -0.671624	 0.043468	 1
1462089998.193	 4	 -0.000148	 0.004130	 -0.002454	 -1.928363	 -1.298757	 1.610131	 -0.232792	 0.702018	 -0.671633	 0.043446	 1
1462089998.203	 4	 -0.001174	 0.011587	 -0.001311	 -1.928049	 -1.298716	 1.610333	 -0.232771	 0.702002	 -0.671661	 0.043389	 1
1462089998.213	 4	 0.000928	 0.006247	 -0.003511	 -1.927392	 -1.298681	 1.610888	 -0.232757	 0.701952	 -0.671722	 0.043333	 1
1462089998.223	 4	 0.000881	 -0.002277	 -0.005722	 -1.926743	 -1.298636	 1.611533	 -0.232780	 0.701891	 -0.671779	 0.043305	 1
1462089998.233	 4	 0.004104	 0.004080	 -0.007824	 -1.926356	 -1.298534	 1.611901	 -0.232814	 0.701857	 -0.671806	 0.043257	 1
1462089998.243	 4	 0.004156	 0.016828	 -0.009838	 -1.925864	 -1.298377	 1.612251	 -0.232825	 0.701828	 -0.671839	 0.043146	 1
1462089998.253	 4	 0.002036	 0.017914	 -0.007679	 -1.925206	 -1.298296	 1.612722	 -0.232796	 0.701788	 -0.671898	 0.043045	 1
1462089998.263	 4	 0.006277	 0.008359	 -0.003541	 -1.924801	 -1.298336	 1.613025	 -0.232753	 0.701762	 -0.671942	 0.043018	 1
1462089998.273	 4	 0.011594	 -0.000128	 0.001664	 -1.924304	 -1.298490	 1.613503	 -0.232702	 0.701715	 -0.672005	 0.043059	 1
1462089998.283	 4	 0.015870	 -0.002237	 0.005872	 -1.923909	 -1.298667	 1.613934	 -0.232660	 0.701673	 -0.672060	 0.043128	 1
1462089998.293	 4	 0.019083	 -0.003280	 0.010099	 -1.923614	 -1.298918	 1.614293	 -0.232603	 0.701635	 -0.672112	 0.043235	 1
1462089998.303	 4	 0.020179	 -0.001203	 0.012318	 -1.923230	 -1.299139	 1.614715	 -0.232547	 0.701593	 -0.672170	 0.043320	 1
1462089998.313	 4	 0.020155	 -0.004410	 0.010157	 -1.922822	 -1.299295	 1.615188	 -0.232524	 0.701546	 -0.672223	 0.043392	 1
1462089998.323	 4	 0.014787	 -0.007616	 0.005910	 -1.922436	 -1.299380	 1.615655	 -0.232529	 0.701499	 -0.672266	 0.043444	 1
1462089998.333	 4	 0.006233	 -0.006565	 0.000665	 -1.922305	 -1.299331	 1.615869	 -0.232576	 0.701478	 -0.672272	 0.043452	 1
1462089998.343	 4	 0.003042	 -0.003372	 -0.000344	 -1.922202	 -1.299276	 1.616024	 -0.232615	 0.701462	 -0.672275	 0.043449	 1
1462089998.353	 4	 0.002027	 0.009380	 -0.002348	 -1.922078	 -1.299295	 1.616092	 -0.232590	 0.701457	 -0.672290	 0.043435	 1
1462089998.363	 4	 0.001015	 0.021083	 -0.002230	 -1.921887	 -1.299286	 1.616102	 -0.232533	 0.701460	 -0.672311	 0.043368	 1
1462089998.373	 4	 0.001034	 0.023226	 -0.000079	 -1.921695	 -1.299297	 1.616066	 -0.232452	 0.701468	 -0.672335	 0.043292	 1
1462089998.383	 4	 0.005301	 0.021101	 0.001997	 -1.921445	 -1.299426	 1.616107	 -0.232339	 0.701468	 -0.672376	 0.043264	 1
1462089998.393	 4	 0.007410	 0.015776	 0.001930	 -1.921019	 -1.299510	 1.616376	 -0.232262	 0.701445	 -0.672428	 0.043235	 1
1462089998.403	 4	 0.006335	 0.011547	 0.005098	 -1.920816	 -1.299578	 1.616465	 -0.232202	 0.701439	 -0.672456	 0.043218	 1
1462089998.413	 4	 0.004175	 0.006235	 0.005068	 -1.920746	 -1.299706	 1.616473	 -0.232138	 0.701439	 -0.672477	 0.043242	 1
1462089998.423	 4	 -0.002262	 0.000921	 0.002943	 -1.920840	 -1.299723	 1.616361	 -0.232124	 0.701450	 -0.672470	 0.043243	 1
1462089998.433	 4	 -0.010832	 -0.002276	 -0.001277	 -1.921171	 -1.299579	 1.616037	 -0.232171	 0.701481	 -0.672425	 0.043199	 1
1462089998.443	 4	 -0.012995	 -0.006539	 -0.003430	 -1.921478	 -1.299441	 1.615770	 -0.232227	 0.701506	 -0.672381	 0.043168	 1
1462089998.453	 4	 -0.008710	 -0.008633	 0.002907	 -1.921616	 -1.299397	 1.615694	 -0.232262	 0.701513	 -0.672362	 0.043175	 1
1462089998.463	 4	 -0.006531	 -0.002234	 0.006145	 -1.921675	 -1.299499	 1.615650	 -0.232231	 0.701516	 -0.672366	 0.043217	 1
1462089998.473	 4	 -0.000147	 0.001981	 0.006376	 -1.921369	 -1.299562	 1.615919	 -0.232202	 0.701491	 -0.672402	 0.043223	 1
1462089998.483	 4	 0.006241	 0.001932	 0.002056	 -1.920643	 -1.299568	 1.616615	 -0.232200	 0.701426	 -0.672472	 0.043205	 1
1462089998.493	 4	 0.004097	 0.005083	 -0.004291	 -1.919968	 -1.299520	 1.617236	 -0.232207	 0.701368	 -0.672532	 0.043159	 1
1462089998.503	 4	 0.000893	 0.007197	 -0.007442	 -1.919516	 -1.299400	 1.617618	 -0.232229	 0.701334	 -0.672565	 0.043087	 1
1462089998.513	 4	 0.001976	 0.011440	 -0.008478	 -1.919248	 -1.299310	 1.617787	 -0.232229	 0.701321	 -0.672583	 0.043017	 1
1462089998.523	 4	 0.001989	 0.011463	 -0.005280	 -1.919096	 -1.299292	 1.617831	 -0.232199	 0.701319	 -0.672598	 0.042973	 1
1462089998.533	 4	 0.001984	 0.005128	 0.001056	 -1.919082	 -1.299322	 1.617788	 -0.232169	 0.701324	 -0.672604	 0.042964	 1
1462089998.543	 4	 0.005120	 -0.012926	 0.006190	 -1.919246	 -1.299446	 1.617725	 -0.232160	 0.701328	 -0.672598	 0.043044	 1
1462089998.553	 4	 0.008223	 -0.032097	 0.003854	 -1.919139	 -1.299582	 1.618105	 -0.232212	 0.701285	 -0.672616	 0.043183	 1
1462089998.563	 4	 0.008151	 -0.043828	 -0.000518	 -1.918932	 -1.299622	 1.618733	 -0.232349	 0.701216	 -0.672631	 0.043336	 1
1462089998.573	 4	 0.006070	 -0.030017	 -0.003568	 -1.918893	 -1.299653	 1.619131	 -0.232465	 0.701171	 -0.672629	 0.043467	 1
1462089998.583	 4	 0.004052	 -0.006602	 -0.002266	 -1.918821	 -1.299770	 1.619327	 -0.232470	 0.701149	 -0.672645	 0.043549	 1
1462089998.593	 4	 0.003115	 0.017888	 0.001169	 -1.918495	 -1.299906	 1.619534	 -0.232387	 0.701131	 -0.672692	 0.043553	 1
1462089998.603	 4	 0.007465	 0.034894	 0.001291	 -1.918092	 -1.300052	 1.619635	 -0.232238	 0.701127	 -0.672751	 0.043498	 1
1462089998.613	 4	 0.012832	 0.044428	 -0.001864	 -1.917525	 -1.300121	 1.619789	 -0.232078	 0.701121	 -0.672820	 0.043376	 1
1462089998.623	 4	 0.009629	 0.044437	 -0.001835	 -1.917194	 -1.300162	 1.619698	 -0.231920	 0.701139	 -0.672865	 0.043243	 1
1462089998.633	 4	 -0.004376	 0.034840	 -0.005737	 -1.917489	 -1.300083	 1.619047	 -0.231818	 0.701208	 -0.672837	 0.043100	 1
1462089998.643	 4	 -0.012996	 0.017846	 -0.005819	 -1.918175	 -1.299954	 1.618146	 -0.231776	 0.701299	 -0.672764	 0.042991	 1
1462089998.653	 4	 -0.017383	 -0.006606	 -0.006009	 -1.919072	 -1.299811	 1.617253	 -0.231813	 0.701384	 -0.672665	 0.042954	 1
1462089998.663	 4	 -0.016416	 -0.026827	 -0.007271	 -1.920013	 -1.299693	 1.616527	 -0.231915	 0.701449	 -0.672560	 0.042999	 1
1462089998.673	 4	 -0.010033	 -0.035317	 -0.002076	 -1.920792	 -1.299654	 1.616067	 -0.232029	 0.701485	 -0.672475	 0.043103	 1
1462089998.683	 4	 0.000661	 -0.034254	 0.002105	 -1.921063	 -1.299740	 1.616143	 -0.232118	 0.701470	 -0.672451	 0.043254	 1
1462089998.693	 4	 0.007124	 -0.022565	 0.003224	 -1.921079	 -1.299881	 1.616391	 -0.232162	 0.701440	 -0.672458	 0.043393	 1
1462089998.703	 4	 0.008259	 -0.006629	 0.001231	 -1.920983	 -1.299947	 1.616601	 -0.232181	 0.701417	 -0.672471	 0.043454	 1
1462089998.713	 4	 0.007258	 0.008258	 0.000312	 -1.920636	 -1.299932	 1.616905	 -0.232177	 0.701390	 -0.672503	 0.043429	 1
1462089998.723	 4	 0.008366	 0.017820	 -0.000675	 -1.920352	 -1.299959	 1.617039	 -0.232119	 0.701380	 -0.672536	 0.043384	 1
1462089998.733	 4	 0.006246	 0.022072	 -0.001682	 -1.920294	 -1.299969	 1.616904	 -0.232048	 0.701397	 -0.672547	 0.043322	 1
1462089998.743	 4	 0.005158	 0.018876	 -0.002767	 -1.920531	 -1.299989	 1.616499	 -0.231979	 0.701439	 -0.672530	 0.043276	 1
1462089998.753	 4	 0.000871	 0.014642	 -0.001703	 -1.920996	 -1.299919	 1.615901	 -0.231949	 0.701499	 -0.672482	 0.043213	 1
1462089998.763	 4	 -0.004481	 0.012522	 -0.002742	 -1.921763	 -1.299846	 1.615030	 -0.231927	 0.701583	 -0.672404	 0.043163	 1
1462089998.773	 4	 -0.013041	 0.009348	 -0.003762	 -1.922881	 -1.299722	 1.613834	 -0.231925	 0.701699	 -0.672288	 0.043109	 1
1462089998.783	 4	 -0.017371	 0.007223	 0.002972	 -1.924121	 -1.299657	 1.612526	 -0.231905	 0.701824	 -0.672166	 0.043082	 1
1462089998.793	 4	 -0.019481	 0.007275	 0.009387	 -1.925382	 -1.299702	 1.611191	 -0.231845	 0.701952	 -0.672053	 0.043092	 1
1462089998.803	 4	 -0.019415	 0.016886	 0.014806	 -1.926542	 -1.299865	 1.609875	 -0.231717	 0.702078	 -0.671964	 0.043115	 1
1462089998.813	 4	 -0.017219	 0.025427	 0.020196	 -1.927336	 -1.300092	 1.608823	 -0.231539	 0.702180	 -0.671917	 0.043121	 1
1462089998.823	 4	 -0.013998	 0.028616	 0.021264	 -1.927818	 -1.300287	 1.608027	 -0.231355	 0.702260	 -0.671899	 0.043092	 1
1462089998.833	 4	 -0.007612	 0.022239	 0.024347	 -1.927847	 -1.300573	 1.607720	 -0.231161	 0.702293	 -0.671931	 0.043100	 1
1462089998.843	 4	 0.000921	 0.021149	 0.024264	 -1.927740	 -1.300898	 1.607593	 -0.230971	 0.702307	 -0.671980	 0.043135	 1
1462089998.853	 4	 0.004118	 0.021132	 0.023171	 -1.927671	 -1.301210	 1.607437	 -0.230788	 0.702323	 -0.672023	 0.043169	 1
1462089998.863	 4	 0.003065	 0.027486	 0.018976	 -1.927406	 -1.301410	 1.607436	 -0.230631	 0.702327	 -0.672074	 0.043147	 1
1462089998.873	 4	 -0.002252	 0.041245	 0.007426	 -1.927094	 -1.301420	 1.607359	 -0.230496	 0.702343	 -0.672113	 0.043015	 1
1462089998.883	 4	 -0.006511	 0.048657	 0.001135	 -1.926750	 -1.301218	 1.607222	 -0.230401	 0.702368	 -0.672135	 0.042777	 1
1462089998.893	 4	 -0.010831	 0.043305	 -0.005273	 -1.926597	 -1.300996	 1.606912	 -0.230315	 0.702409	 -0.672136	 0.042540	 1
1462089998.903	 4	 -0.016227	 0.032669	 -0.007458	 -1.926753	 -1.300776	 1.606383	 -0.230256	 0.702468	 -0.672107	 0.042339	 1
1462089998.913	 4	 -0.018435	 0.014616	 -0.004410	 -1.927171	 -1.300577	 1.605758	 -0.230243	 0.702534	 -0.672052	 0.042205	 1
1462089998.923	 4	 -0.016364	 -0.001322	 -0.001380	 -1.927664	 -1.300425	 1.605211	 -0.230268	 0.702588	 -0.671991	 0.042140	 1
1462089998.933	 4	 -0.012158	 -0.016211	 0.000576	 -1.928044	 -1.300330	 1.604938	 -0.230332	 0.702612	 -0.671943	 0.042148	 1
1462089998.943	 4	 -0.004809	 -0.024811	 0.001827	 -1.928039	 -1.300306	 1.605154	 -0.230414	 0.702587	 -0.671936	 0.042210	 1
1462089998.953	 4	 0.001635	 -0.016321	 0.001850	 -1.927699	 -1.300299	 1.605674	 -0.230485	 0.702535	 -0.671964	 0.042264	 1
1462089998.963	 4	 0.004935	 0.004936	 0.000952	 -1.927045	 -1.300303	 1.606322	 -0.230491	 0.702474	 -0.672026	 0.042253	 1
1462089998.973	 4	 0.002906	 0.030439	 -0.003056	 -1.926446	 -1.300300	 1.606677	 -0.230416	 0.702445	 -0.672087	 0.042161	 1
1462089998.983	 4	 -0.001305	 0.044264	 -0.005023	 -1.925571	 -1.300236	 1.607125	 -0.230301	 0.702413	 -0.672172	 0.041981	 1
1462089998.993	 4	 -0.003409	 0.049597	 -0.003889	 -1.924940	 -1.300226	 1.607254	 -0.230137	 0.702411	 -0.672241	 0.041800	 1
1462089999.003	 4	 -0.001320	 0.038962	 -0.002939	 -1.924408	 -1.300281	 1.607359	 -0.229977	 0.702410	 -0.672306	 0.041667	 1
1462089999.013	 4	 0.003944	 0.022998	 -0.002067	 -1.924015	 -1.300343	 1.607489	 -0.229869	 0.702403	 -0.672354	 0.041595	 1
1462089999.023	 4	 0.002832	 0.014484	 -0.003202	 -1.923751	 -1.300371	 1.607599	 -0.229810	 0.702395	 -0.672385	 0.041550	 1
1462089999.033	 4	 -0.000356	 0.015573	 -0.001033	 -1.923705	 -1.300364	 1.607508	 -0.229765	 0.702407	 -0.672392	 0.041500	 1
1462089999.043	 4	 -0.002462	 0.019849	 0.001158	 -1.923678	 -1.300426	 1.607353	 -0.229680	 0.702425	 -0.672405	 0.041460	 1
1462089999.053	 4	 -0.006705	 0.025180	 0.001245	 -1.923647	 -1.300470	 1.607139	 -0.229580	 0.702449	 -0.672417	 0.041394	 1
1462089999.063	 4	 -0.007711	 0.037947	 0.001372	 -1.923543	 -1.300461	 1.606883	 -0.229459	 0.702481	 -0.672433	 0.041268	 1
1462089999.073	 4	 -0.008758	 0.042205	 0.001421	 -1.923429	 -1.300408	 1.606569	 -0.229327	 0.702520	 -0.672447	 0.041103	 1
1462089999.083	 4	 -0.007717	 0.035828	 0.002418	 -1.923243	 -1.300381	 1.606369	 -0.229204	 0.702547	 -0.672470	 0.040961	 1
1462089999.093	 4	 -0.007718	 0.033716	 0.004529	 -1.923026	 -1.300390	 1.606225	 -0.229077	 0.702568	 -0.672499	 0.040840	 1
1462089999.103	 4	 -0.007807	 0.031522	 0.008027	 -1.922738	 -1.300427	 1.606168	 -0.228948	 0.702580	 -0.672537	 0.040732	 1
1462089999.113	 4	 -0.004614	 0.026225	 0.012213	 -1.922516	 -1.300486	 1.606088	 -0.228825	 0.702593	 -0.672570	 0.040648	 1
1462089999.123	 4	 -0.001480	 0.014492	 0.008879	 -1.922177	 -1.300555	 1.606236	 -0.228740	 0.702582	 -0.672613	 0.040604	 1
1462089999.133	 4	 0.000642	 0.009191	 0.012008	 -1.921782	 -1.300638	 1.606511	 -0.228676	 0.702558	 -0.672661	 0.040587	 1
1462089999.143	 4	 0.004922	 0.011305	 0.011989	 -1.921200	 -1.300754	 1.606979	 -0.228605	 0.702516	 -0.672729	 0.040581	 1
1462089999.153	 4	 0.009271	 0.026200	 0.014222	 -1.920620	 -1.300970	 1.607334	 -0.228462	 0.702485	 -0.672810	 0.040573	 1
1462089999.163	 4	 0.014690	 0.042154	 0.016455	 -1.920161	 -1.301140	 1.607420	 -0.228280	 0.702483	 -0.672878	 0.040501	 1
1462089999.173	 4	 0.016805	 0.040004	 0.014285	 -1.919514	 -1.301292	 1.607659	 -0.228096	 0.702468	 -0.672963	 0.040408	 1
1462089999.183	 4	 0.015666	 0.029332	 0.008866	 -1.918863	 -1.301421	 1.608019	 -0.227959	 0.702439	 -0.673043	 0.040347	 1
1462089999.193	 4	 0.014513	 0.014421	 0.005538	 -1.918547	 -1.301301	 1.608186	 -0.227952	 0.702427	 -0.673063	 0.040250	 1
1462089999.203	 4	 0.004867	 0.011212	 -0.000803	 -1.918487	 -1.301235	 1.608147	 -0.227941	 0.702433	 -0.673064	 0.040192	 1
1462089999.213	 4	 -0.004725	 0.017591	 -0.004924	 -1.918829	 -1.301073	 1.607673	 -0.227944	 0.702482	 -0.673018	 0.040095	 1
1462089999.223	 4	 -0.010012	 0.027187	 -0.003722	 -1.919355	 -1.300969	 1.606914	 -0.227889	 0.702558	 -0.672963	 0.039987	 1
1462089999.233	 4	 -0.013195	 0.030395	 -0.002598	 -1.919883	 -1.300914	 1.606080	 -0.227792	 0.702643	 -0.672914	 0.039873	 1
1462089999.243	 4	 -0.011101	 0.022936	 -0.003751	 -1.920048	 -1.300876	 1.605645	 -0.227708	 0.702690	 -0.672900	 0.039771	 1
1462089999.253	 4	 -0.004756	 0.008048	 -0.000747	 -1.920372	 -1.300892	 1.605201	 -0.227655	 0.702734	 -0.672874	 0.039741	 1
1462089999.263	 4	 -0.004887	 -0.001576	 0.001562	 -1.920785	 -1.300928	 1.604767	 -0.227630	 0.702775	 -0.672839	 0.039753	 1
1462089999.273	 4	 -0.009198	 -0.013241	 0.004689	 -1.921194	 -1.301008	 1.604451	 -0.227630	 0.702802	 -0.672807	 0.039819	 1
1462089999.283	 4	 -0.012411	 -0.016414	 0.005753	 -1.921701	 -1.301059	 1.604084	 -0.227654	 0.702833	 -0.672762	 0.039892	 1
1462089999.293	 4	 -0.010248	 -0.014262	 0.010017	 -1.921857	 -1.301132	 1.604032	 -0.227664	 0.702835	 -0.672752	 0.039955	 1
1462089999.303	 4	 -0.007010	 -0.006826	 0.010058	 -1.921967	 -1.301218	 1.603977	 -0.227652	 0.702838	 -0.672750	 0.040005	 1
1462089999.313	 4	 -0.000599	 -0.001558	 0.005787	 -1.921788	 -1.301199	 1.604169	 -0.227666	 0.702820	 -0.672764	 0.040000	 1
1462089999.323	 4	 0.005837	 0.009029	 0.001566	 -1.921491	 -1.301136	 1.604401	 -0.227669	 0.702800	 -0.672787	 0.039952	 1
1462089999.333	 4	 0.004793	 0.018566	 -0.003667	 -1.921231	 -1.300947	 1.604504	 -0.227681	 0.702796	 -0.672795	 0.039828	 1
1462089999.343	 4	 0.000484	 0.016398	 -0.011111	 -1.920954	 -1.300729	 1.604610	 -0.227699	 0.702791	 -0.672802	 0.039689	 1
1462089999.353	 4	 -0.008146	 0.001493	 -0.016505	 -1.920992	 -1.300437	 1.604517	 -0.227777	 0.702803	 -0.672770	 0.039567	 1
1462089999.363	 4	 -0.012472	 -0.013362	 -0.013408	 -1.921477	 -1.300283	 1.604131	 -0.227857	 0.702839	 -0.672707	 0.039553	 1
1462089999.373	 4	 -0.012504	 -0.026073	 -0.006064	 -1.922501	 -1.300264	 1.603340	 -0.227929	 0.702909	 -0.672604	 0.039640	 1
1462089999.383	 4	 -0.009326	 -0.034561	 -0.001906	 -1.923255	 -1.300358	 1.602902	 -0.227997	 0.702943	 -0.672536	 0.039791	 1
1462089999.393	 4	 -0.006124	 -0.038787	 0.003356	 -1.923844	 -1.300355	 1.602683	 -0.228119	 0.702956	 -0.672473	 0.039924	 1
1462089999.403	 4	 -0.002897	 -0.035590	 0.005490	 -1.924104	 -1.300508	 1.602777	 -0.228188	 0.702939	 -0.672457	 0.040100	 1
1462089999.413	 4	 -0.000712	 -0.024959	 0.005570	 -1.924247	 -1.300642	 1.602903	 -0.228236	 0.702920	 -0.672452	 0.040241	 1
1462089999.423	 4	 -0.000700	 -0.008050	 0.003796	 -1.924298	 -1.300763	 1.602969	 -0.228235	 0.702911	 -0.672458	 0.040324	 1
1462089999.433	 4	 -0.003858	 0.002580	 0.001790	 -1.924152	 -1.300807	 1.603089	 -0.228214	 0.702899	 -0.672476	 0.040329	 1
1462089999.443	 4	 -0.008109	 0.008952	 -0.001310	 -1.924011	 -1.300839	 1.603134	 -0.228171	 0.702897	 -0.672495	 0.040305	 1
1462089999.453	 4	 -0.008097	 0.013191	 -0.003402	 -1.924131	 -1.300802	 1.602872	 -0.228132	 0.702925	 -0.672483	 0.040246	 1
1462089999.463	 4	 -0.005952	 0.016368	 -0.004457	 -1.924054	 -1.300722	 1.602786	 -0.228103	 0.702937	 -0.672485	 0.040162	 1
1462089999.473	 4	 0.000436	 0.013158	 -0.004543	 -1.923876	 -1.300642	 1.602823	 -0.228083	 0.702937	 -0.672496	 0.040084	 1
1462089999.483	 4	 0.002530	 0.005698	 -0.005697	 -1.923911	 -1.300551	 1.602730	 -0.228092	 0.702948	 -0.672485	 0.040032	 1
1462089999.493	 4	 -0.001769	 0.001440	 -0.007830	 -1.924276	 -1.300464	 1.602354	 -0.228112	 0.702984	 -0.672442	 0.040003	 1
1462089999.503	 4	 -0.009275	 -0.005983	 -0.007834	 -1.924769	 -1.300346	 1.601908	 -0.228161	 0.703026	 -0.672382	 0.039985	 1
1462089999.513	 4	 -0.014632	 -0.010222	 -0.007826	 -1.925597	 -1.300227	 1.601177	 -0.228222	 0.703094	 -0.672290	 0.039988	 1
1462089999.523	 4	 -0.018907	 -0.012329	 -0.006743	 -1.926592	 -1.300049	 1.600298	 -0.228308	 0.703176	 -0.672176	 0.039979	 1
1462089999.533	 4	 -0.017846	 -0.014452	 -0.005706	 -1.927397	 -1.299953	 1.599624	 -0.228374	 0.703238	 -0.672087	 0.040001	 1
1462089999.543	 4	 -0.013578	 -0.015521	 -0.004687	 -1.928081	 -1.299884	 1.599081	 -0.228436	 0.703287	 -0.672013	 0.040036	 1
1462089999.553	 4	 -0.007171	 -0.014477	 -0.004733	 -1.928433	 -1.299824	 1.598868	 -0.228499	 0.703305	 -0.671971	 0.040066	 1
1462089999.563	 4	 -0.001825	 -0.012366	 -0.004760	 -1.928512	 -1.299767	 1.598913	 -0.228561	 0.703299	 -0.671955	 0.040089	 1
1462089999.573	 4	 -0.002857	 -0.005973	 -0.003626	 -1.928677	 -1.299739	 1.598826	 -0.228595	 0.703306	 -0.671935	 0.040108	 1
1462089999.583	 4	 -0.004960	 0.002527	 -0.005659	 -1.929077	 -1.299682	 1.598423	 -0.228607	 0.703345	 -0.671891	 0.040093	 1
1462089999.593	 4	 -0.009332	 0.001327	 -0.009631	 -1.929646	 -1.299584	 1.597831	 -0.228623	 0.703402	 -0.671828	 0.040059	 1
1462089999.603	 4	 -0.015747	 -0.001837	 -0.008539	 -1.930473	 -1.299464	 1.597021	 -0.228656	 0.703479	 -0.671737	 0.040036	 1
1462089999.613	 4	 -0.017881	 -0.000775	 -0.009575	 -1.931415	 -1.299326	 1.596092	 -0.228692	 0.703568	 -0.671633	 0.040006	 1
1462089999.623	 4	 -0.021052	 0.000344	 -0.003142	 -1.932373	 -1.299295	 1.595123	 -0.228684	 0.703660	 -0.671540	 0.040007	 1
1462089999.633	 4	 -0.021064	 -0.003895	 -0.001048	 -1.933363	 -1.299344	 1.594134	 -0.228651	 0.703753	 -0.671451	 0.040040	 1
1462089999.643	 4	 -0.021105	 -0.013461	 -0.000071	 -1.934153	 -1.299351	 1.593425	 -0.228665	 0.703818	 -0.671376	 0.040083	 1
1462089999.653	 4	 -0.022188	 -0.011376	 -0.006436	 -1.934814	 -1.299283	 1.592870	 -0.228714	 0.703869	 -0.671304	 0.040105	 1
1462089999.663	 4	 -0.029625	 0.003468	 -0.015825	 -1.935656	 -1.299095	 1.592015	 -0.228759	 0.703953	 -0.671205	 0.040048	 1
1462089999.673	 4	 -0.048817	 0.025700	 -0.037833	 -1.936347	 -1.298520	 1.591082	 -0.228856	 0.704053	 -0.671083	 0.039774	 1
1462089999.683	 4	 -0.074337	 0.061795	 -0.057526	 -1.937302	 -1.297547	 1.589538	 -0.228959	 0.704224	 -0.670900	 0.039248	 1
1462089999.693	 4	 -0.091338	 0.091505	 -0.074156	 -1.938418	 -1.296363	 1.587492	 -0.229010	 0.704452	 -0.670684	 0.038535	 1
1462089999.703	 4	 -0.102990	 0.123334	 -0.089747	 -1.939500	 -1.294981	 1.585180	 -0.229022	 0.704715	 -0.670453	 0.037652	 1
1462089999.713	 4	 -0.108237	 0.145656	 -0.093757	 -1.940628	 -1.293620	 1.582544	 -0.228928	 0.705016	 -0.670223	 0.036684	 1
1462089999.723	 4	 -0.099737	 0.130801	 -0.085443	 -1.941452	 -1.292482	 1.580269	 -0.228784	 0.705278	 -0.670044	 0.035810	 1
1462089999.733	 4	 -0.114884	 0.085123	 -0.083602	 -1.942806	 -1.291612	 1.577813	 -0.228662	 0.705547	 -0.669836	 0.035157	 1
1462089999.743	 4	 -0.133420	 0.001140	 -0.069106	 -1.945397	 -1.290653	 1.574870	 -0.228813	 0.705854	 -0.669483	 0.034747	 1
1462089999.753	 4	 -0.140998	 -0.026448	 -0.062901	 -1.950200	 -1.289547	 1.570186	 -0.229136	 0.706325	 -0.668889	 0.034485	 1
1462089999.763	 4	 -0.141977	 -0.018899	 -0.048966	 -1.955721	 -1.288596	 1.564784	 -0.229391	 0.706867	 -0.668238	 0.034294	 1
1462089999.773	 4	 -0.146095	 -0.021777	 -0.007389	 -1.960812	 -1.288245	 1.559764	 -0.229433	 0.707363	 -0.667699	 0.034293	 1
1462089999.783	 4	 -0.196275	 -0.015345	 -0.020747	 -1.966792	 -1.287368	 1.553700	 -0.229576	 0.707975	 -0.667012	 0.034077	 1
1462089999.793	 4	 -0.241246	 -0.053448	 -0.013253	 -1.973389	 -1.285986	 1.547217	 -0.229938	 0.708641	 -0.666195	 0.033767	 1
1462089999.803	 4	 -0.287088	 -0.033194	 -0.025455	 -1.982155	 -1.284710	 1.538421	 -0.230161	 0.709539	 -0.665175	 0.033499	 1
1462089999.813	 4	 -0.288976	 -0.157001	 -0.085207	 -1.991412	 -1.282915	 1.530033	 -0.230855	 0.710403	 -0.664019	 0.033368	 1
1462089999.823	 4	 -0.269672	 -0.292742	 -0.168702	 -2.000480	 -1.280434	 1.523314	 -0.232295	 0.711107	 -0.662755	 0.033494	 1
1462089999.833	 4	 -0.208326	 -0.369844	 -0.215782	 -2.007975	 -1.277590	 1.519159	 -0.234237	 0.711560	 -0.661569	 0.033790	 1
1462089999.843	 4	 -0.121681	 -0.287476	 -0.262663	 -2.011927	 -1.274726	 1.518409	 -0.236220	 0.711679	 -0.660728	 0.033948	 1
1462089999.853	 4	 -0.051555	 -0.117582	 -0.273416	 -2.011601	 -1.271931	 1.520374	 -0.237731	 0.711546	 -0.660352	 0.033505	 1
1462089999.863	 4	 -0.091052	 0.038406	 -0.192754	 -2.010741	 -1.269678	 1.521271	 -0.238506	 0.711528	 -0.660131	 0.032708	 1
1462089999.873	 4	 -0.206310	 0.185141	 -0.098730	 -2.012674	 -1.267819	 1.517694	 -0.238483	 0.711984	 -0.659703	 0.031566	 1
1462089999.883	 4	 -0.303761	 0.260563	 -0.004458	 -2.017991	 -1.266343	 1.509483	 -0.237795	 0.712930	 -0.658991	 0.030239	 1
1462089999.893	 4	 -0.336332	 0.254205	 0.132184	 -2.026135	 -1.265710	 1.498207	 -0.236660	 0.714170	 -0.658103	 0.029211	 1
1462089999.903	 4	 -0.310800	 0.239000	 0.411219	 -2.037539	 -1.267305	 1.483793	 -0.234737	 0.715638	 -0.657202	 0.029101	 1
1462089999.913	 4	 -0.249965	 0.181720	 0.750134	 -2.052944	 -1.272013	 1.465536	 -0.231724	 0.717320	 -0.656385	 0.030251	 1
1462089999.923	 4	 -0.184279	 0.073983	 1.026724	 -2.072787	 -1.279568	 1.443749	 -0.227961	 0.719106	 -0.655624	 0.032825	 1
1462089999.933	 4	 -0.117321	 -0.036377	 1.089059	 -2.094984	 -1.288424	 1.420670	 -0.224073	 0.720778	 -0.654946	 0.036272	 1
1462089999.943	 4	 -0.012471	 -0.109841	 0.974492	 -2.115144	 -1.296827	 1.400737	 -0.220793	 0.722015	 -0.654489	 0.039862	 1
1462089999.953	 4	 0.137784	 -0.190814	 1.016127	 -2.132532	 -1.305810	 1.384346	 -0.217703	 0.722742	 -0.654470	 0.043798	 1
1462089999.963	 4	 0.227221	 -0.446466	 0.999114	 -2.150351	 -1.315520	 1.369825	 -0.215210	 0.723069	 -0.654585	 0.048728	 1
1462089999.973	 4	 0.252932	 -0.699096	 0.786584	 -2.166928	 -1.323942	 1.359319	 -0.214184	 0.722995	 -0.654584	 0.054077	 1
1462089999.983	 4	 0.295984	 -0.976602	 0.670656	 -2.182210	 -1.331159	 1.352853	 -0.214585	 0.722548	 -0.654441	 0.059868	 1
1462089999.993	 4	 0.401202	 -1.389831	 0.784195	 -2.200543	 -1.339412	 1.347127	 -0.215938	 0.721734	 -0.654169	 0.067327	 1
1462090000.003	 4	 0.551662	 -1.957266	 0.918285	 -2.223642	 -1.349529	 1.341929	 -0.218475	 0.720365	 -0.653738	 0.077263	 1
1462090000.013	 4	 0.806455	 -2.763604	 1.004482	 -2.250898	 -1.362023	 1.340220	 -0.222910	 0.717970	 -0.653167	 0.090567	 1
1462090000.023	 4	 0.987971	 -3.766979	 0.877397	 -2.278534	 -1.375084	 1.347747	 -0.230616	 0.714163	 -0.652156	 0.107142	 1
1462090000.033	 4	 1.016371	 -4.831113	 0.963166	 -2.315544	 -1.388745	 1.356397	 -0.241574	 0.709223	 -0.649909	 0.127524	 1
1462090000.043	 4	 0.956896	 -5.716734	 1.282632	 -2.379881	 -1.404119	 1.347332	 -0.254583	 0.703717	 -0.645604	 0.152204	 1
1462090000.053	 4	 1.031785	 -5.394110	 1.214641	 -2.452328	 -1.420140	 1.330041	 -0.267115	 0.697540	 -0.640903	 0.177007	 1
1462090000.063	 4	 0.972667	 -4.184833	 0.744684	 -2.501507	 -1.433179	 1.326044	 -0.277692	 0.691304	 -0.637390	 0.196774	 1
1462090000.073	 4	 0.568609	 -2.263008	 0.711732	 -2.540351	 -1.442987	 1.315157	 -0.283522	 0.687146	 -0.635217	 0.209631	 1
1462090000.083	 4	 -0.163448	 -0.424216	 0.682994	 -2.595046	 -1.446716	 1.268021	 -0.283642	 0.687323	 -0.633321	 0.214564	 1
1462090000.093	 4	 -0.248137	 0.261300	 0.578205	 -2.646478	 -1.447442	 1.214903	 -0.281440	 0.689148	 -0.631946	 0.215664	 1
1462090000.103	 4	 -0.015455	 0.447335	 0.365824	 -2.676297	 -1.448754	 1.180639	 -0.278709	 0.690449	 -0.631800	 0.215478	 1
1462090000.113	 4	 0.149941	 0.359645	 -0.072329	 -2.671297	 -1.449996	 1.181551	 -0.277130	 0.690587	 -0.632719	 0.214371	 1
1462090000.123	 4	 0.281762	 -0.329563	 -0.457170	 -2.635714	 -1.450420	 1.218623	 -0.278542	 0.689156	 -0.633801	 0.213950	 1
1462090000.133	 4	 0.357724	 -1.268132	 -0.637087	 -2.588623	 -1.450356	 1.276468	 -0.283520	 0.686103	 -0.634183	 0.216078	 1
1462090000.143	 4	 0.380303	 -2.090766	 -0.691832	 -2.543444	 -1.449759	 1.341139	 -0.291485	 0.681854	 -0.633477	 0.220947	 1
1462090000.153	 4	 0.366144	 -2.573860	 -0.727111	 -2.502990	 -1.448687	 1.406847	 -0.301317	 0.676837	 -0.631876	 0.227665	 1
1462090000.163	 4	 0.262073	 -2.744337	 -0.663846	 -2.469790	 -1.446559	 1.467593	 -0.311960	 0.671697	 -0.629522	 0.234961	 1
1462090000.173	 4	 0.196708	 -2.571156	 -0.129850	 -2.467456	 -1.446495	 1.496873	 -0.321048	 0.667351	 -0.626378	 0.243352	 1
1462090000.183	 4	 0.039306	 -1.428727	 0.261563	 -2.493926	 -1.448278	 1.487755	 -0.325744	 0.665299	 -0.623556	 0.249892	 1
1462090000.193	 4	 0.038808	 -0.361230	 0.210752	 -2.514344	 -1.449944	 1.473323	 -0.326806	 0.664833	 -0.622359	 0.252713	 1
1462090000.203	 4	 0.102297	 0.541672	 0.075789	 -2.514210	 -1.451284	 1.470249	 -0.325344	 0.665141	 -0.623031	 0.252134	 1
1462090000.213	 4	 0.166982	 1.217206	 -0.025065	 -2.495599	 -1.452479	 1.478159	 -0.321811	 0.666007	 -0.625282	 0.248786	 1
1462090000.223	 4	 0.228277	 1.598374	 -0.092392	 -2.464783	 -1.453676	 1.494064	 -0.317092	 0.667083	 -0.628469	 0.243882	 1
1462090000.233	 4	 0.373146	 2.032630	 -0.138637	 -2.418786	 -1.455376	 1.520961	 -0.311046	 0.668158	 -0.632758	 0.237558	 1
1462090000.243	 4	 0.497206	 2.040138	 -0.079965	 -2.363564	 -1.458194	 1.555741	 -0.304249	 0.668918	 -0.637642	 0.231073	 1
1462090000.253	 4	 0.452887	 1.652413	 -0.029899	 -2.312809	 -1.461156	 1.588922	 -0.298166	 0.669380	 -0.641942	 0.225697	 1
1462090000.263	 4	 0.354290	 0.846824	 0.016752	 -2.276488	 -1.463726	 1.614722	 -0.294281	 0.669367	 -0.644783	 0.222712	 1
1462090000.273	 4	 0.256345	 -0.013300	 0.023455	 -2.255782	 -1.465686	 1.633610	 -0.293275	 0.668714	 -0.645974	 0.222551	 1
1462090000.283	 4	 0.229627	 -0.697144	 0.020522	 -2.245476	 -1.467329	 1.649377	 -0.294671	 0.667403	 -0.645928	 0.224765	 1
1462090000.293	 4	 0.224825	 -1.185987	 -0.070312	 -2.236099	 -1.468385	 1.669626	 -0.298041	 0.665376	 -0.645147	 0.228541	 1
1462090000.303	 4	 0.115388	 -1.386029	 0.020435	 -2.236627	 -1.469165	 1.682784	 -0.302322	 0.663277	 -0.643638	 0.233226	 1
1462090000.313	 4	 -0.170782	 -1.085311	 0.158945	 -2.264054	 -1.469652	 1.667152	 -0.305791	 0.662386	 -0.641365	 0.237462	 1
1462090000.323	 4	 -0.404708	 -0.585531	 0.048399	 -2.303239	 -1.467988	 1.634924	 -0.308203	 0.662815	 -0.638983	 0.239558	 1
1462090000.333	 4	 -0.430467	 -0.040892	 -0.098713	 -2.331094	 -1.464521	 1.608774	 -0.309544	 0.663877	 -0.637335	 0.239277	 1
1462090000.343	 4	 -0.322220	 0.528716	 -0.122065	 -2.342949	 -1.461170	 1.592869	 -0.309115	 0.665292	 -0.636911	 0.237021	 1
1462090000.353	 4	 -0.156449	 0.819754	 -0.109076	 -2.341057	 -1.458982	 1.587028	 -0.307269	 0.666659	 -0.637567	 0.233795	 1
1462090000.363	 4	 -0.017522	 0.836573	 -0.080288	 -2.330192	 -1.457978	 1.589438	 -0.304928	 0.667663	 -0.638802	 0.230602	 1
1462090000.373	 4	 0.123697	 0.640835	 -0.027920	 -2.315220	 -1.458285	 1.597490	 -0.302731	 0.668124	 -0.640197	 0.228281	 1
1462090000.383	 4	 0.271091	 0.313909	 0.123356	 -2.299545	 -1.460280	 1.609162	 -0.300960	 0.667942	 -0.641512	 0.227461	 1
1462090000.393	 4	 0.468067	 -0.025094	 0.682275	 -2.302719	 -1.467003	 1.605489	 -0.298568	 0.667441	 -0.642381	 0.229621	 1
1462090000.403	 4	 0.626509	 -0.167178	 1.246559	 -2.337309	 -1.479190	 1.572161	 -0.294623	 0.667026	 -0.642853	 0.234551	 1
1462090000.413	 4	 0.682969	 -0.136233	 1.722751	 -2.421979	 -1.495219	 1.488735	 -0.288941	 0.667012	 -0.642976	 0.241225	 1
1462090000.423	 4	 0.579944	 -0.083541	 2.053459	 -2.607945	 -1.511888	 1.303271	 -0.281870	 0.667752	 -0.642470	 0.248774	 1
1462090000.433	 4	 0.445992	 -0.151819	 2.263945	 -2.973738	 -1.524131	 0.938268	 -0.274289	 0.669150	 -0.641074	 0.256958	 1
1462090000.443	 4	 0.441146	 -0.285890	 2.547298	 2.755242	 -1.525806	 0.385988	 -0.266256	 0.670774	 -0.638964	 0.266262	 1
1462090000.453	 4	 0.580380	 -0.391890	 2.799817	 2.253212	 -1.513378	 -0.112890	 -0.257506	 0.672151	 -0.636538	 0.276991	 1
1462090000.463	 4	 0.840915	 -0.422968	 2.872928	 1.939062	 -1.492233	 -0.423634	 -0.248094	 0.672738	 -0.634568	 0.288438	 1
1462090000.473	 4	 1.102015	 -0.527720	 2.906982	 1.740064	 -1.466975	 -0.618442	 -0.238410	 0.672228	 -0.633199	 0.300549	 1
1462090000.483	 4	 1.326974	 -0.502576	 3.091765	 1.602594	 -1.438028	 -0.751566	 -0.227942	 0.670930	 -0.632205	 0.313388	 1
1462090000.493	 4	 1.483519	 -0.196232	 3.451349	 1.506998	 -1.404229	 -0.845344	 -0.215281	 0.669604	 -0.631389	 0.326547	 1
1462090000.503	 4	 1.468871	 0.175009	 3.890828	 1.447967	 -1.365190	 -0.906225	 -0.199901	 0.668979	 -0.630146	 0.339739	 1
1462090000.513	 4	 1.235011	 0.596703	 4.158966	 1.421059	 -1.322671	 -0.938845	 -0.182346	 0.669651	 -0.627864	 0.352285	 1
1462090000.523	 4	 0.896938	 0.920595	 4.098845	 1.417086	 -1.280374	 -0.951803	 -0.164079	 0.671682	 -0.624503	 0.363205	 1
1462090000.533	 4	 0.625990	 0.929146	 3.848699	 1.423632	 -1.240578	 -0.954858	 -0.146676	 0.674324	 -0.620341	 0.372761	 1
1462090000.543	 4	 -0.030340	 0.782688	 3.481099	 1.440612	 -1.204943	 -0.945543	 -0.131723	 0.677811	 -0.614780	 0.381138	 1
1462090000.553	 4	 -0.792833	 0.185511	 3.251977	 1.469358	 -1.172914	 -0.918672	 -0.120552	 0.682531	 -0.606543	 0.389517	 1
1462090000.563	 4	 -1.009785	 -0.839704	 3.061236	 1.492223	 -1.142749	 -0.887291	 -0.113596	 0.686152	 -0.596680	 0.400330	 1
1462090000.573	 4	 -0.986386	 -1.500398	 2.751142	 1.503923	 -1.115223	 -0.859227	 -0.109938	 0.687905	 -0.586733	 0.412849	 1
1462090000.583	 4	 -0.860422	 -1.627949	 2.373710	 1.508518	 -1.091097	 -0.835855	 -0.108032	 0.688453	 -0.577579	 0.425164	 1
1462090000.593	 4	 -0.733469	 -1.437358	 1.867075	 1.510108	 -1.071642	 -0.817132	 -0.107079	 0.688489	 -0.569867	 0.435623	 1
1462090000.603	 4	 -0.638178	 -1.327229	 1.545410	 1.510567	 -1.056043	 -0.801458	 -0.106777	 0.688318	 -0.563343	 0.444367	 1
1462090000.613	 4	 -0.303384	 -1.919976	 1.637161	 1.501964	 -1.040234	 -0.791337	 -0.107015	 0.686401	 -0.557413	 0.454634	 1
1462090000.623	 4	 0.114336	 -2.803177	 1.456915	 1.477991	 -1.025050	 -0.789157	 -0.108955	 0.681232	 -0.552545	 0.467702	 1
1462090000.633	 4	 0.392694	 -3.503805	 1.169808	 1.441274	 -1.012393	 -0.793063	 -0.113151	 0.673038	 -0.548921	 0.482600	 1
1462090000.643	 4	 0.360078	 -3.965272	 1.029380	 1.399045	 -1.001383	 -0.797172	 -0.119289	 0.663098	 -0.545356	 0.498656	 1
1462090000.653	 4	 0.242350	 -3.812813	 1.031824	 1.359095	 -0.990894	 -0.798543	 -0.125796	 0.653152	 -0.541306	 0.514350	 1
1462090000.663	 4	 0.118200	 -3.300076	 1.138924	 1.326309	 -0.979709	 -0.796629	 -0.131059	 0.644498	 -0.536681	 0.528601	 1
1462090000.673	 4	 -0.004299	 -2.825129	 1.168922	 1.300945	 -0.968377	 -0.791800	 -0.135098	 0.637353	 -0.531694	 0.541139	 1
1462090000.683	 4	 -0.096732	 -2.563825	 1.230776	 1.280651	 -0.956924	 -0.784643	 -0.138379	 0.631230	 -0.526344	 0.552596	 1
1462090000.693	 4	 -0.148399	 -2.421237	 1.218697	 1.263082	 -0.945588	 -0.776143	 -0.141314	 0.625617	 -0.520770	 0.563411	 1
1462090000.703	 4	 -0.315114	 -2.488667	 1.239771	 1.247049	 -0.934735	 -0.765549	 -0.144592	 0.620166	 -0.514727	 0.574058	 1
1462090000.713	 4	 -0.583417	 -2.419261	 1.315225	 1.234685	 -0.924159	 -0.750389	 -0.148352	 0.615331	 -0.507590	 0.584560	 1
1462090000.723	 4	 -0.842461	 -2.451742	 1.424820	 1.226233	 -0.913590	 -0.730613	 -0.152449	 0.611213	 -0.499267	 0.594903	 1
1462090000.733	 4	 -1.098341	 -2.919464	 1.504759	 1.217393	 -0.903157	 -0.706472	 -0.157927	 0.606564	 -0.489474	 0.606262	 1
1462090000.743	 4	 -1.274041	 -3.330219	 1.552558	 1.206266	 -0.893072	 -0.679307	 -0.164885	 0.600869	 -0.478434	 0.618766	 1
1462090000.753	 4	 -1.481603	 -3.675225	 1.560746	 1.193696	 -0.883590	 -0.649232	 -0.173125	 0.594332	 -0.466230	 0.632002	 1
1462090000.763	 4	 -1.755913	 -4.046402	 1.453104	 1.179744	 -0.876165	 -0.616104	 -0.183193	 0.586898	 -0.453029	 0.645566	 1
1462090000.773	 4	 -2.179435	 -4.391487	 1.362991	 1.165728	 -0.871415	 -0.578125	 -0.195508	 0.578734	 -0.438420	 0.659266	 1
1462090000.783	 4	 -2.660797	 -4.610422	 1.338501	 1.154095	 -0.869324	 -0.533694	 -0.209946	 0.570370	 -0.422047	 0.672664	 1
1462090000.793	 4	 -3.064939	 -4.633974	 1.447311	 1.146503	 -0.868558	 -0.482783	 -0.225626	 0.562260	 -0.403784	 0.685504	 1
1462090000.803	 4	 -3.373364	 -4.370870	 1.669860	 1.145364	 -0.867535	 -0.425997	 -0.241310	 0.555262	 -0.383815	 0.697237	 1
1462090000.813	 4	 -3.647622	 -4.194302	 2.000015	 1.150805	 -0.864802	 -0.363494	 -0.256478	 0.549497	 -0.361967	 0.707992	 1
1462090000.823	 4	 -3.909125	 -4.286589	 2.368055	 1.160128	 -0.859476	 -0.295311	 -0.271390	 0.544091	 -0.337728	 0.718507	 1
1462090000.833	 4	 -4.055058	 -4.420647	 2.596151	 1.170313	 -0.851910	 -0.223349	 -0.286248	 0.538229	 -0.311396	 0.728975	 1
1462090000.843	 4	 -3.752734	 -4.345037	 2.584630	 1.178586	 -0.842868	 -0.154533	 -0.299912	 0.531882	 -0.285227	 0.738782	 1
1462090000.853	 4	 -3.043150	 -4.762393	 2.520215	 1.176205	 -0.831796	 -0.095220	 -0.311602	 0.522913	 -0.260106	 0.749541	 1
1462090000.863	 4	 -2.108882	 -4.742966	 2.350265	 1.161748	 -0.818864	 -0.049547	 -0.320223	 0.511488	 -0.237382	 0.761240	 1
1462090000.873	 4	 -1.185752	 -4.083734	 2.108565	 1.141962	 -0.804793	 -0.017955	 -0.325024	 0.500227	 -0.218598	 0.772235	 1
1462090000.883	 4	 -0.350467	 -3.101471	 1.935648	 1.121982	 -0.789304	 0.001148	 -0.325838	 0.490942	 -0.204108	 0.781758	 1
1462090000.893	 4	 0.343529	 -1.983875	 2.033792	 1.106561	 -0.770714	 0.011274	 -0.322549	 0.485134	 -0.193076	 0.789512	 1
1462090000.903	 4	 0.957871	 -1.111048	 2.520421	 1.096772	 -0.745821	 0.016154	 -0.314816	 0.482954	 -0.183502	 0.796224	 1
1462090000.913	 4	 1.403876	 -0.253045	 3.094705	 1.093601	 -0.713568	 0.018836	 -0.302913	 0.484381	 -0.174055	 0.802074	 1
1462090000.923	 4	 1.751266	 0.609729	 3.553723	 1.098511	 -0.675296	 0.020051	 -0.287468	 0.489718	 -0.164863	 0.806448	 1
1462090000.933	 4	 2.035828	 1.149544	 3.893049	 1.108536	 -0.632377	 0.019577	 -0.269277	 0.497618	 -0.155739	 0.809698	 1
1462090000.943	 4	 2.260171	 1.432635	 4.153776	 1.121069	 -0.585921	 0.017385	 -0.249010	 0.506842	 -0.146477	 0.812188	 1
1462090000.953	 4	 2.397580	 1.421053	 4.372019	 1.133708	 -0.536764	 0.013989	 -0.227313	 0.516180	 -0.136699	 0.814371	 1
1462090000.963	 4	 2.444713	 1.096624	 4.533783	 1.143776	 -0.485691	 0.010173	 -0.204872	 0.524305	 -0.125992	 0.816859	 1
1462090000.973	 4	 2.270742	 0.381605	 4.572340	 1.148515	 -0.434431	 0.007446	 -0.182916	 0.529770	 -0.114015	 0.820297	 1
1462090000.983	 4	 1.840562	 -0.634068	 4.408902	 1.144931	 -0.385676	 0.007956	 -0.163204	 0.531020	 -0.100533	 0.825394	 1
1462090000.993	 4	 1.362182	 -1.469602	 3.986448	 1.133489	 -0.342175	 0.012018	 -0.146812	 0.528177	 -0.086410	 0.831870	 1
1462090001.003	 4	 1.207185	 -1.840112	 3.286275	 1.117151	 -0.305611	 0.016184	 -0.133312	 0.522742	 -0.073884	 0.838755	 1
1462090001.013	 4	 1.378494	 -2.107802	 2.669480	 1.096990	 -0.274583	 0.016914	 -0.121148	 0.515491	 -0.064209	 0.845854	 1
1462090001.023	 4	 1.672514	 -2.388702	 2.333919	 1.072984	 -0.245896	 0.013904	 -0.108933	 0.506521	 -0.056752	 0.853434	 1
1462090001.033	 4	 1.944319	 -2.566014	 2.193485	 1.046407	 -0.217347	 0.008214	 -0.095990	 0.496320	 -0.050656	 0.861328	 1
1462090001.043	 4	 2.185085	 -2.629685	 2.164152	 1.018709	 -0.187864	 0.000919	 -0.082111	 0.485427	 -0.045336	 0.869231	 1
1462090001.053	 4	 2.428346	 -2.470382	 2.229594	 0.992023	 -0.156546	 -0.007328	 -0.067031	 0.474713	 -0.040426	 0.876653	 1
1462090001.063	 4	 2.701677	 -2.050536	 2.301461	 0.969091	 -0.122883	 -0.016553	 -0.050485	 0.465361	 -0.035910	 0.882950	 1
1462090001.073	 4	 2.941357	 -1.507364	 2.352388	 0.951587	 -0.087206	 -0.026791	 -0.032615	 0.458086	 -0.031860	 0.887738	 1
1462090001.083	 4	 3.212703	 -1.057714	 2.426682	 0.939128	 -0.049296	 -0.038215	 -0.013331	 0.452697	 -0.028183	 0.891119	 1
1462090001.093	 4	 3.470126	 -0.635530	 2.521090	 0.931403	 -0.008963	 -0.050803	 0.007402	 0.449002	 -0.024706	 0.893158	 1
1462090001.103	 4	 3.672642	 -0.306855	 2.605515	 0.927773	 0.033451	 -0.064408	 0.029354	 0.446651	 -0.021312	 0.893972	 1
1462090001.113	 4	 3.566619	 -0.176637	 2.625767	 0.926552	 0.076223	 -0.077649	 0.051393	 0.444897	 -0.017684	 0.893931	 1
1462090001.123	 4	 2.928735	 -0.271100	 2.541984	 0.925121	 0.115476	 -0.087161	 0.071002	 0.442825	 -0.013197	 0.893695	 1
1462090001.133	 4	 2.182340	 -0.663758	 2.361518	 0.920290	 0.148925	 -0.091400	 0.086818	 0.439340	 -0.007817	 0.894082	 1
1462090001.143	 4	 1.771863	 -1.469801	 2.073033	 0.908054	 0.177255	 -0.092978	 0.099761	 0.432698	 -0.002822	 0.895998	 1
1462090001.153	 4	 1.631647	 -2.415172	 1.747859	 0.886532	 0.201861	 -0.094573	 0.111090	 0.421930	 0.000683	 0.899797	 1
1462090001.163	 4	 1.577813	 -3.042789	 1.567703	 0.857775	 0.224330	 -0.096502	 0.121606	 0.407855	 0.002905	 0.904908	 1
1462090001.173	 4	 1.556940	 -3.129225	 1.520187	 0.826698	 0.246109	 -0.098021	 0.131802	 0.392656	 0.004719	 0.910180	 1
1462090001.183	 4	 1.632946	 -2.859239	 1.527366	 0.797597	 0.268207	 -0.099239	 0.142145	 0.378240	 0.006557	 0.914705	 1
1462090001.193	 4	 1.798524	 -2.385240	 1.543124	 0.772933	 0.291480	 -0.100780	 0.153127	 0.365673	 0.008509	 0.918021	 1
1462090001.203	 4	 2.025107	 -1.856267	 1.537548	 0.753827	 0.316339	 -0.103347	 0.165032	 0.355408	 0.010470	 0.919967	 1
1462090001.213	 4	 2.269763	 -1.332744	 1.521105	 0.740432	 0.342716	 -0.107389	 0.177873	 0.347472	 0.012308	 0.920583	 1
1462090001.223	 4	 2.479838	 -0.732044	 1.572823	 0.733384	 0.370849	 -0.112512	 0.191648	 0.342149	 0.014406	 0.919781	 1
1462090001.233	 4	 2.643229	 -0.323515	 1.653001	 0.731358	 0.400943	 -0.118119	 0.206325	 0.338835	 0.017063	 0.917785	 1
1462090001.243	 4	 2.762726	 -0.291224	 1.607499	 0.731422	 0.432000	 -0.124884	 0.221558	 0.336133	 0.019575	 0.915174	 1
1462090001.253	 4	 2.772326	 -0.688462	 1.540839	 0.729154	 0.463081	 -0.132632	 0.236921	 0.332069	 0.021382	 0.912766	 1
1462090001.263	 4	 2.596393	 -1.304039	 1.504669	 0.720928	 0.492963	 -0.139689	 0.251627	 0.325281	 0.022520	 0.911246	 1
1462090001.273	 4	 2.296986	 -1.811122	 1.419427	 0.706524	 0.520224	 -0.145021	 0.264894	 0.315962	 0.023057	 0.910751	 1
1462090001.283	 4	 1.879857	 -2.135183	 1.295259	 0.691792	 0.529633	 -0.150258	 0.270096	 0.307816	 0.020336	 0.912076	 1
1462090001.293	 4	 1.466093	 -2.411475	 1.162003	 0.668699	 0.549049	 -0.150937	 0.279164	 0.295660	 0.020151	 0.913371	 1
1462090001.303	 4	 1.142144	 -2.651865	 1.029366	 0.642220	 0.565176	 -0.149747	 0.286521	 0.282460	 0.019597	 0.915280	 1
1462090001.313	 4	 0.878459	 -2.955671	 0.829538	 0.612391	 0.577982	 -0.147854	 0.292328	 0.268074	 0.018165	 0.917796	 1
1462090001.323	 4	 0.682150	 -3.255192	 0.661135	 0.579455	 0.587895	 -0.145819	 0.296838	 0.252485	 0.015740	 0.920810	 1
1462090001.333	 4	 0.591817	 -3.485892	 0.492450	 0.544282	 0.595926	 -0.144247	 0.300550	 0.235906	 0.012355	 0.924048	 1
1462090001.343	 4	 0.567051	 -3.552481	 0.246921	 0.508834	 0.602421	 -0.144437	 0.303721	 0.219006	 0.007784	 0.927216	 1
1462090001.353	 4	 0.611834	 -3.341782	 -0.013686	 0.476401	 0.607917	 -0.147341	 0.306631	 0.203120	 0.002182	 0.929901	 1
1462090001.363	 4	 0.678324	 -2.932413	 -0.150070	 0.448823	 0.613306	 -0.152357	 0.309592	 0.189138	 -0.003754	 0.931861	 1
1462090001.373	 4	 0.655631	 -2.325985	 -0.135704	 0.426897	 0.618738	 -0.157458	 0.312496	 0.177748	 -0.008920	 0.933098	 1
1462090001.383	 4	 0.585690	 -1.621000	 -0.043274	 0.411101	 0.623946	 -0.161201	 0.315140	 0.169431	 -0.012569	 0.933714	 1
1462090001.393	 4	 0.652559	 -1.037123	 -0.022436	 0.401359	 0.629593	 -0.164489	 0.317955	 0.163974	 -0.015037	 0.933698	 1
1462090001.403	 4	 0.822177	 -0.775335	 -0.081160	 0.395792	 0.636546	 -0.168968	 0.321482	 0.160176	 -0.017277	 0.933110	 1
1462090001.413	 4	 0.885120	 -0.691194	 -0.186435	 0.392329	 0.644073	 -0.175000	 0.325398	 0.157054	 -0.019854	 0.932232	 1
1462090001.423	 4	 0.797540	 -0.639400	 -0.266189	 0.389926	 0.650762	 -0.181835	 0.328985	 0.154333	 -0.022724	 0.931361	 1
1462090001.433	 4	 0.652642	 -0.540477	 -0.323689	 0.388449	 0.655955	 -0.188748	 0.331884	 0.152120	 -0.025638	 0.930621	 1
1462090001.443	 4	 0.533567	 -0.415940	 -0.358795	 0.388129	 0.659814	 -0.195539	 0.334165	 0.150549	 -0.028440	 0.929978	 1
1462090001.463	 5	 0.407577	 -0.169106	 -0.399098	 0.391301	 0.665209	 -0.208836	 0.337684	 0.149368	 -0.033508	 0.928728	 1
1462090001.473	 5	 0.353028	 -0.167063	 -0.432708	 0.393898	 0.666976	 -0.215621	 0.339044	 0.149283	 -0.036026	 0.928152	 1
1462090001.483	 5	 0.277670	 -0.289300	 -0.452373	 0.395554	 0.668018	 -0.222359	 0.340053	 0.148821	 -0.038757	 0.927747	 1
1462090001.493	 5	 0.170179	 -0.473873	 -0.427577	 0.395072	 0.668177	 -0.228475	 0.340570	 0.147543	 -0.041659	 0.927636	 1
1462090001.503	 5	 0.024567	 -0.644086	 -0.344763	 0.391884	 0.667342	 -0.233095	 0.340458	 0.145349	 -0.044437	 0.927894	 1
1462090001.513	 5	 -0.107799	 -0.750271	 -0.227365	 0.386250	 0.665644	 -0.235784	 0.339747	 0.142422	 -0.046829	 0.928491	 1
1462090001.523	 5	 -0.177749	 -0.766059	 -0.086222	 0.379012	 0.663657	 -0.236454	 0.338714	 0.139117	 -0.048582	 0.929279	 1
1462090001.533	 5	 -0.183642	 -0.800969	 0.084026	 0.370315	 0.662063	 -0.235114	 0.337679	 0.135435	 -0.049600	 0.930145	 1
1462090001.543	 5	 -0.088307	 -0.881797	 0.270018	 0.359766	 0.661740	 -0.231945	 0.337057	 0.131089	 -0.049938	 0.930975	 1
1462090001.553	 5	 0.084854	 -0.971429	 0.446724	 0.347431	 0.663513	 -0.227295	 0.337265	 0.125984	 -0.049673	 0.931618	 1
1462090001.563	 5	 0.238221	 -1.119116	 0.555038	 0.333237	 0.667219	 -0.221765	 0.338278	 0.120010	 -0.049132	 0.932069	 1
1462090001.573	 5	 0.327106	 -1.300014	 0.579225	 0.317150	 0.671987	 -0.216049	 0.339746	 0.113111	 -0.048748	 0.932417	 1
1462090001.583	 5	 0.371087	 -1.440862	 0.534901	 0.299741	 0.677107	 -0.210752	 0.341392	 0.105512	 -0.048784	 0.932705	 1
1462090001.603	 5	 0.410155	 -1.394281	 0.374064	 0.265715	 0.687181	 -0.202867	 0.344815	 0.090273	 -0.050106	 0.932975	 1
1462090001.613	 6	 0.430213	 -1.170299	 0.321620	 0.251646	 0.692140	 -0.200112	 0.346631	 0.083846	 -0.050870	 0.932861	 1
1462090001.623	 6	 0.451748	 -0.901291	 0.318607	 0.240307	 0.697240	 -0.197539	 0.348594	 0.078663	 -0.051263	 0.932559	 1
1462090001.633	 6	 0.473358	 -0.643743	 0.348525	 0.231389	 0.702583	 -0.194660	 0.350725	 0.074658	 -0.051097	 0.932098	 1
1462090001.643	 6	 0.499048	 -0.423460	 0.374864	 0.224530	 0.708212	 -0.191399	 0.353033	 0.071673	 -0.050392	 0.931499	 1
1462090001.653	 6	 0.502881	 -0.285240	 0.369722	 0.219212	 0.713957	 -0.188061	 0.355436	 0.069425	 -0.049389	 0.930809	 1
1462090001.663	 6	 0.465780	 -0.231952	 0.369475	 0.214558	 0.719405	 -0.184660	 0.357722	 0.067527	 -0.048273	 0.930132	 1
1462090001.673	 6	 0.399742	 -0.219930	 0.387214	 0.209802	 0.724290	 -0.180840	 0.359736	 0.065702	 -0.047031	 0.929549	 1
1462090001.683	 6	 0.333487	 -0.235718	 0.383381	 0.204786	 0.728495	 -0.176741	 0.361427	 0.063859	 -0.045762	 0.929085	 1
1462090001.693	 6	 0.291520	 -0.275243	 0.342880	 0.199555	 0.732148	 -0.172880	 0.362872	 0.061915	 -0.044688	 0.928705	 1
1462090001.703	 6	 0.279487	 -0.287341	 0.283189	 0.194545	 0.735494	 -0.169680	 0.364207	 0.059979	 -0.043909	 0.928347	 1
1462090001.713	 6	 0.271974	 -0.243108	 0.219720	 0.190345	 0.738635	 -0.167266	 0.365492	 0.058293	 -0.043367	 0.927974	 1
1462090001.723	 6	 0.251910	 -0.149869	 0.162146	 0.187457	 0.741490	 -0.165583	 0.366698	 0.057103	 -0.042947	 0.927592	 1
1462090001.733	 6	 0.190202	 -0.072368	 0.117576	 0.185770	 0.743775	 -0.164394	 0.367681	 0.056414	 -0.042573	 0.927262	 1
1462090001.743	 6	 0.082455	 -0.040352	 0.088971	 0.184641	 0.745042	 -0.163410	 0.368214	 0.056002	 -0.042251	 0.927091	 1
1462090001.753	 6	 -0.031716	 -0.034715	 0.086820	 0.183516	 0.745159	 -0.162264	 0.368212	 0.055685	 -0.041920	 0.927126	 1
1462090001.763	 6	 -0.112791	 -0.044970	 0.106615	 0.182021	 0.744412	 -0.160677	 0.367792	 0.055324	 -0.041502	 0.927333	 1
1462090001.773	 6	 -0.146922	 -0.060653	 0.130213	 0.180097	 0.743239	 -0.158660	 0.367156	 0.054865	 -0.040986	 0.927635	 1
1462090001.783	 6	 -0.127642	 -0.066907	 0.155565	 0.177859	 0.742175	 -0.156341	 0.366557	 0.054308	 -0.040380	 0.927931	 1
1462090001.793	 6	 -0.086909	 -0.046664	 0.176714	 0.175616	 0.741519	 -0.153798	 0.366140	 0.053767	 -0.039647	 0.928159	 1
1462090001.803	 6	 -0.052563	 -0.004228	 0.175744	 0.173751	 0.741225	 -0.151287	 0.365900	 0.053376	 -0.038839	 0.928310	 1
1462090001.813	 6	 -0.019259	 0.054084	 0.163208	 0.173990	 0.742281	 -0.149945	 0.366357	 0.053679	 -0.038116	 0.928142	 1
1462090001.823	 6	 0.012976	 0.109222	 0.152783	 0.173562	 0.742591	 -0.147893	 0.366437	 0.053841	 -0.037225	 0.928138	 1
1462090001.833	 6	 0.065534	 0.155951	 0.164483	 0.173646	 0.743371	 -0.145870	 0.366744	 0.054212	 -0.036229	 0.928034	 1
1462090001.843	 6	 0.122383	 0.191107	 0.195223	 0.173946	 0.744757	 -0.143617	 0.367328	 0.054697	 -0.035055	 0.927820	 1
1462090001.853	 6	 0.167484	 0.221022	 0.231341	 0.176684	 0.747435	 -0.142609	 0.368583	 0.056021	 -0.033940	 0.927284	 1
1462090001.863	 6	 0.189023	 0.244513	 0.252687	 0.177107	 0.749690	 -0.139716	 0.369549	 0.056640	 -0.032399	 0.926917	 1
1462090001.873	 6	 0.186007	 0.270166	 0.268938	 0.177618	 0.752008	 -0.136608	 0.370537	 0.057340	 -0.030740	 0.926536	 1
1462090001.883	 6	 0.155271	 0.302277	 0.284425	 0.178246	 0.754132	 -0.133226	 0.371428	 0.058158	 -0.028943	 0.926187	 1
1462090001.893	 6	 0.099835	 0.307814	 0.292431	 0.178685	 0.758297	 -0.129466	 0.373243	 0.058866	 -0.026899	 0.925473	 1
1462090001.913	 7	 -0.059025	 0.115748	 0.289895	 0.177360	 0.759411	 -0.121548	 0.373505	 0.059680	 -0.023424	 0.925410	 1
1462090001.923	 7	 -0.141982	 -0.037283	 0.274273	 0.174564	 0.758694	 -0.117463	 0.373021	 0.059180	 -0.022092	 0.925670	 1
1462090001.933	 7	 -0.199223	 -0.158576	 0.245938	 0.168243	 0.756997	 -0.111987	 0.372011	 0.057346	 -0.020820	 0.926221	 1
1462090001.943	 7	 -0.222930	 -0.192667	 0.228775	 0.163840	 0.755223	 -0.108354	 0.371045	 0.056053	 -0.020041	 0.926705	 1
1462090001.953	 7	 -0.211988	 -0.133157	 0.226037	 0.159883	 0.753443	 -0.104807	 0.370085	 0.054947	 -0.019214	 0.927172	 1
1462090001.973	 8	 -0.072319	 0.079014	 0.207621	 0.151354	 0.751030	 -0.095664	 0.368647	 0.052771	 -0.016658	 0.927921	 1
1462090001.983	 8	 0.019048	 0.215971	 0.210232	 0.151248	 0.751298	 -0.092842	 0.368695	 0.053232	 -0.015357	 0.927898	 1
1462090001.993	 8	 0.099619	 0.316880	 0.224324	 0.152288	 0.752419	 -0.090030	 0.369146	 0.054194	 -0.013812	 0.927687	 1
1462090002.003	 8	 0.146800	 0.359332	 0.230703	 0.153870	 0.754125	 -0.087199	 0.369867	 0.055392	 -0.012132	 0.927353	 1
1462090002.013	 8	 0.172408	 0.365562	 0.220951	 0.152792	 0.755268	 -0.082525	 0.370260	 0.055718	 -0.010115	 0.927200	 1
1462090002.023	 8	 0.172224	 0.342030	 0.202616	 0.154603	 0.757299	 -0.080072	 0.371138	 0.056945	 -0.008555	 0.926790	 1
1462090002.033	 8	 0.150593	 0.303609	 0.175803	 0.156260	 0.759133	 -0.077920	 0.371931	 0.058053	 -0.007170	 0.926416	 1
1462090002.043	 8	 0.113994	 0.262018	 0.145893	 0.157732	 0.760599	 -0.076099	 0.372560	 0.059026	 -0.005989	 0.926110	 1
1462090002.053	 8	 0.076311	 0.213002	 0.119129	 0.155732	 0.761292	 -0.072368	 0.372765	 0.058773	 -0.004605	 0.926051	 1
1462090002.063	 8	 0.035471	 0.163038	 0.106231	 0.156531	 0.761913	 -0.070980	 0.373012	 0.059382	 -0.003786	 0.925916	 1
1462090002.073	 8	 -0.011768	 0.113101	 0.094454	 0.156868	 0.762064	 -0.069662	 0.373043	 0.059780	 -0.003106	 0.925881	 1
1462090002.083	 8	 -0.045111	 0.064218	 0.086829	 0.156747	 0.761826	 -0.068372	 0.372895	 0.059972	 -0.002542	 0.925930	 1
1462090002.093	 8	 -0.060268	 0.016409	 0.088652	 0.154354	 0.761161	 -0.065842	 0.372509	 0.059355	 -0.001845	 0.926127	 1
1462090002.103	 8	 -0.062451	 -0.001608	 0.097035	 0.151832	 0.760710	 -0.063352	 0.372226	 0.058664	 -0.001180	 0.926286	 1
1462090002.113	 8	 -0.043123	 0.008035	 0.115079	 0.149429	 0.760720	 -0.060825	 0.372155	 0.058021	 -0.000456	 0.926355	 1
1462090002.123	 8	 -0.001251	 0.042107	 0.137419	 0.147101	 0.761287	 -0.058040	 0.372337	 0.057445	 0.000423	 0.926318	 1
1462090002.133	 8	 0.050364	 0.106980	 0.157831	 0.144548	 0.762482	 -0.054600	 0.372793	 0.056872	 0.001587	 0.926169	 1
1462090002.143	 8	 0.096609	 0.181293	 0.158130	 0.142175	 0.764204	 -0.050786	 0.373483	 0.056441	 0.002976	 0.925913	 1
1462090002.153	 8	 0.133139	 0.249106	 0.138205	 0.140394	 0.766234	 -0.047040	 0.374319	 0.056267	 0.004453	 0.925581	 1
1462090002.163	 8	 0.144003	 0.312680	 0.109938	 0.139625	 0.768590	 -0.043747	 0.375317	 0.056473	 0.005918	 0.925155	 1
1462090002.173	 8	 0.130116	 0.337988	 0.075134	 0.139544	 0.770512	 -0.040894	 0.376124	 0.056927	 0.007293	 0.924790	 1
1462090002.183	 8	 0.096703	 0.299512	 0.036708	 0.139990	 0.771755	 -0.038804	 0.376637	 0.057499	 0.008387	 0.924537	 1
1462090002.193	 8	 0.051384	 0.215426	 0.010747	 0.140264	 0.772204	 -0.037286	 0.376799	 0.057902	 0.009157	 0.924438	 1
1462090002.203	 8	 -0.000286	 0.132510	 -0.003424	 0.140149	 0.772318	 -0.036162	 0.376820	 0.058058	 0.009659	 0.924415	 1
1462090002.213	 8	 -0.049681	 0.071986	 -0.008881	 0.139790	 0.772201	 -0.035335	 0.376743	 0.058050	 0.009970	 0.924443	 1
1462090002.223	 8	 -0.082933	 0.035919	 -0.008925	 0.139411	 0.771587	 -0.034760	 0.376445	 0.057996	 0.010142	 0.924566	 1
1462090002.233	 8	 -0.093733	 0.011462	 -0.012253	 0.138885	 0.770693	 -0.034262	 0.376021	 0.057865	 0.010241	 0.924746	 1
1462090002.243	 8	 -0.083115	 0.000783	 -0.013508	 0.138091	 0.769747	 -0.033699	 0.375571	 0.057624	 0.010319	 0.924943	 1
1462090002.253	 8	 -0.060682	 0.008137	 -0.016830	 0.137275	 0.768961	 -0.033146	 0.375197	 0.057366	 0.010394	 0.925110	 1
1462090002.263	 8	 -0.022075	 0.044215	 -0.012564	 0.136850	 0.768709	 -0.032682	 0.375069	 0.057262	 0.010521	 0.925167	 1
1462090002.273	 8	 0.015544	 0.089933	 0.000324	 0.137372	 0.768858	 -0.032537	 0.375131	 0.057528	 0.010691	 0.925123	 1
1462090002.283	 8	 0.036037	 0.124009	 0.014319	 0.138302	 0.769283	 -0.032325	 0.375316	 0.057989	 0.010978	 0.925016	 1
1462090002.293	 8	 0.040370	 0.135711	 0.016522	 0.139149	 0.769706	 -0.031896	 0.375494	 0.058453	 0.011350	 0.924910	 1
1462090002.303	 8	 0.033872	 0.122904	 0.007934	 0.140081	 0.769997	 -0.031624	 0.375615	 0.058929	 0.011661	 0.924827	 1
1462090002.313	 8	 0.016608	 0.090975	 -0.001804	 0.140864	 0.769975	 -0.031488	 0.375597	 0.059317	 0.011871	 0.924807	 1
1462090002.323	 8	 0.001471	 0.054808	 -0.008404	 0.141339	 0.769636	 -0.031427	 0.375436	 0.059555	 0.011976	 0.924856	 1
1462090002.333	 8	 -0.005152	 0.017521	 -0.019352	 0.141655	 0.769166	 -0.031576	 0.375221	 0.059683	 0.011949	 0.924935	 1
1462090002.343	 8	 -0.013887	 -0.017609	 -0.027064	 0.141667	 0.768545	 -0.031810	 0.374941	 0.059657	 0.011822	 0.925052	 1
1462090002.353	 8	 -0.022605	 -0.053764	 -0.029457	 0.141458	 0.767887	 -0.032160	 0.374648	 0.059509	 0.011597	 0.925183	 1
1462090002.363	 8	 -0.036575	 -0.080260	 -0.022123	 0.141022	 0.767333	 -0.032516	 0.374405	 0.059252	 0.011330	 0.925301	 1
1462090002.373	 8	 -0.046204	 -0.096093	 -0.009398	 0.140338	 0.766775	 -0.032740	 0.374158	 0.058905	 0.011079	 0.925426	 1
1462090002.383	 8	 -0.049362	 -0.093894	 -0.000824	 0.139559	 0.766296	 -0.032835	 0.373944	 0.058537	 0.010873	 0.925538	 1
1462090002.393	 8	 -0.050311	 -0.072586	 0.003644	 0.138981	 0.765829	 -0.032898	 0.373733	 0.058267	 0.010719	 0.925642	 1
1462090002.403	 8	 -0.037450	 -0.059868	 0.002584	 0.138438	 0.765357	 -0.032888	 0.373517	 0.058027	 0.010605	 0.925746	 1
1462090002.413	 8	 -0.021347	 -0.039705	 0.002630	 0.138212	 0.765048	 -0.033000	 0.373379	 0.057908	 0.010501	 0.925810	 1
1462090002.423	 8	 -0.004186	 -0.019562	 0.000535	 0.138279	 0.764870	 -0.033194	 0.373301	 0.057906	 0.010417	 0.925843	 1
1462090002.433	 8	 0.013954	 -0.014344	 -0.005970	 0.138358	 0.764713	 -0.033388	 0.373234	 0.057910	 0.010336	 0.925870	 1
1462090002.443	 8	 0.031012	 -0.012314	 -0.012495	 0.138406	 0.764680	 -0.033614	 0.373225	 0.057890	 0.010239	 0.925876	 1
1462090002.453	 8	 0.039545	 -0.006020	 -0.021037	 0.138451	 0.764849	 -0.033867	 0.373311	 0.057861	 0.010137	 0.925845	 1
1462090002.463	 8	 0.036265	 -0.013533	 -0.031736	 0.138612	 0.765047	 -0.034295	 0.373414	 0.057851	 0.009976	 0.925806	 1
1462090002.473	 8	 0.028649	 -0.038029	 -0.039358	 0.138683	 0.765175	 -0.034864	 0.373489	 0.057775	 0.009730	 0.925783	 1
1462090002.483	 8	 0.016841	 -0.056045	 -0.035161	 0.138754	 0.765325	 -0.035555	 0.373578	 0.057676	 0.009429	 0.925756	 1
1462090002.493	 8	 0.001878	 -0.064478	 -0.030847	 0.138866	 0.765425	 -0.036302	 0.373645	 0.057586	 0.009107	 0.925738	 1
1462090002.503	 8	 -0.009855	 -0.062322	 -0.031792	 0.138938	 0.765433	 -0.037004	 0.373669	 0.057488	 0.008796	 0.925737	 1
1462090002.513	 8	 -0.014108	 -0.058061	 -0.032782	 0.139018	 0.765322	 -0.037701	 0.373637	 0.057397	 0.008485	 0.925759	 1
1462090002.523	 8	 -0.008724	 -0.049552	 -0.030619	 0.139158	 0.765128	 -0.038368	 0.373566	 0.057341	 0.008195	 0.925793	 1
1462090002.533	 8	 0.004088	 -0.051685	 -0.026489	 0.139375	 0.765097	 -0.039059	 0.373570	 0.057314	 0.007915	 0.925796	 1
1462090002.543	 8	 0.017921	 -0.059179	 -0.027747	 0.139575	 0.765206	 -0.039809	 0.373642	 0.057264	 0.007609	 0.925773	 1
1462090002.553	 8	 0.034024	 -0.044288	 -0.021355	 0.139813	 0.765638	 -0.040511	 0.373860	 0.057233	 0.007344	 0.925688	 1
1462090002.563	 8	 0.054385	 -0.027421	 -0.012709	 0.140174	 0.766385	 -0.041136	 0.374222	 0.057266	 0.007149	 0.925542	 1
1462090002.573	 8	 0.067289	 -0.009353	 -0.009457	 0.140548	 0.767292	 -0.041641	 0.374655	 0.057324	 0.007019	 0.925364	 1
1462090002.583	 8	 0.067473	 0.028939	 -0.009101	 0.141117	 0.768426	 -0.042044	 0.375188	 0.057486	 0.006980	 0.925138	 1
1462090002.593	 8	 0.052667	 0.064024	 -0.017171	 0.141947	 0.769603	 -0.042394	 0.375739	 0.057777	 0.007017	 0.924896	 1
1462090002.603	 8	 0.024937	 0.082058	 -0.034878	 0.143158	 0.770509	 -0.042928	 0.376169	 0.058215	 0.007031	 0.924694	 1
1462090002.613	 8	 -0.001828	 0.072488	 -0.045391	 0.144513	 0.770914	 -0.043647	 0.376372	 0.058698	 0.006969	 0.924581	 1
1462090002.623	 8	 -0.025415	 0.050215	 -0.046460	 0.145879	 0.770811	 -0.044514	 0.376345	 0.059168	 0.006822	 0.924563	 1
1462090002.633	 8	 -0.038366	 0.016248	 -0.042402	 0.146962	 0.770302	 -0.045366	 0.376132	 0.059521	 0.006612	 0.924629	 1
1462090002.643	 8	 -0.035284	 -0.016665	 -0.033145	 0.147748	 0.769672	 -0.046191	 0.375863	 0.059745	 0.006354	 0.924725	 1
1462090002.653	 8	 -0.025737	 -0.038936	 -0.020650	 0.148275	 0.769038	 -0.046935	 0.375591	 0.059864	 0.006085	 0.924830	 1
1462090002.663	 8	 -0.009671	 -0.043089	 -0.000582	 0.148753	 0.768597	 -0.047586	 0.375406	 0.059974	 0.005856	 0.924900	 1
1462090002.673	 8	 0.017082	 -0.045140	 0.020478	 0.148977	 0.768489	 -0.047958	 0.375366	 0.060010	 0.005722	 0.924914	 1
1462090002.683	 8	 0.043869	 -0.034473	 0.035262	 0.148976	 0.768679	 -0.048031	 0.375456	 0.059991	 0.005696	 0.924879	 1
1462090002.693	 8	 0.063157	 -0.018567	 0.036306	 0.148989	 0.769254	 -0.048004	 0.375721	 0.059988	 0.005733	 0.924772	 1
1462090002.703	 8	 0.061085	 0.002644	 0.026929	 0.149001	 0.770010	 -0.047885	 0.376066	 0.059997	 0.005819	 0.924630	 1
1462090002.713	 8	 0.045096	 0.019595	 0.011240	 0.149115	 0.770709	 -0.047794	 0.376386	 0.060050	 0.005911	 0.924496	 1
1462090002.723	 8	 0.023716	 0.025917	 -0.005566	 0.149386	 0.771199	 -0.047858	 0.376613	 0.060150	 0.005951	 0.924397	 1
1462090002.733	 8	 0.008779	 0.034401	 -0.014949	 0.149844	 0.771493	 -0.048063	 0.376753	 0.060316	 0.005954	 0.924329	 1
1462090002.743	 8	 0.004567	 0.046115	 -0.014803	 0.150544	 0.771721	 -0.048363	 0.376866	 0.060577	 0.005956	 0.924266	 1
1462090002.753	 8	 0.013174	 0.053597	 -0.006283	 0.151418	 0.771942	 -0.048680	 0.376975	 0.060916	 0.005983	 0.924199	 1
1462090002.763	 8	 0.017489	 0.052615	 0.006458	 0.152342	 0.772183	 -0.048949	 0.377091	 0.061286	 0.006043	 0.924126	 1
1462090002.773	 8	 0.015417	 0.056954	 0.017173	 0.153218	 0.772406	 -0.049089	 0.377196	 0.061659	 0.006152	 0.924058	 1
1462090002.783	 8	 0.015430	 0.051706	 0.026715	 0.153892	 0.772643	 -0.049022	 0.377301	 0.061976	 0.006320	 0.923993	 1
1462090002.793	 8	 0.004700	 0.035815	 0.030922	 0.154345	 0.772674	 -0.048849	 0.377308	 0.062217	 0.006486	 0.923973	 1
1462090002.803	 8	 -0.010372	 0.009261	 0.029740	 0.154457	 0.772532	 -0.048589	 0.377234	 0.062322	 0.006622	 0.923995	 1
1462090002.813	 8	 -0.026550	 -0.018415	 0.020030	 0.154400	 0.772042	 -0.048443	 0.377004	 0.062336	 0.006659	 0.924088	 1
1462090002.823	 8	 -0.036217	 -0.027990	 0.015761	 0.153967	 0.771646	 -0.048170	 0.376815	 0.062197	 0.006687	 0.924174	 1
1462090002.833	 8	 -0.026549	 -0.016303	 0.017917	 0.153610	 0.771321	 -0.047901	 0.376657	 0.062091	 0.006731	 0.924245	 1
1462090002.843	 8	 -0.000779	 0.013434	 0.022232	 0.153437	 0.771235	 -0.047580	 0.376608	 0.062074	 0.006844	 0.924265	 1
1462090002.853	 8	 0.030349	 0.046361	 0.028662	 0.153599	 0.771387	 -0.047259	 0.376668	 0.062206	 0.007029	 0.924231	 1
1462090002.863	 8	 0.052854	 0.065447	 0.029709	 0.153980	 0.771823	 -0.046940	 0.376857	 0.062431	 0.007265	 0.924136	 1
1462090002.873	 8	 0.058201	 0.069671	 0.027570	 0.154579	 0.772388	 -0.046744	 0.377110	 0.062730	 0.007492	 0.924011	 1
1462090002.883	 8	 0.046402	 0.056942	 0.027554	 0.155151	 0.772885	 -0.046589	 0.377332	 0.063011	 0.007691	 0.923900	 1
1462090002.893	 8	 0.032407	 0.030400	 0.028494	 0.155453	 0.773289	 -0.046386	 0.377511	 0.063178	 0.007858	 0.923814	 1
1462090002.903	 8	 0.020540	 0.007004	 0.024116	 0.155523	 0.773528	 -0.046197	 0.377615	 0.063240	 0.007968	 0.923766	 1
1462090002.913	 8	 0.011922	 -0.009988	 0.024032	 0.155435	 0.773764	 -0.046027	 0.377719	 0.063226	 0.008039	 0.923724	 1
1462090002.923	 8	 0.018298	 -0.017437	 0.026039	 0.155218	 0.774079	 -0.045827	 0.377859	 0.063155	 0.008104	 0.923671	 1
1462090002.933	 8	 0.024742	 -0.008947	 0.026062	 0.155067	 0.774579	 -0.045640	 0.378084	 0.063108	 0.008181	 0.923582	 1
1462090002.943	 8	 0.024879	 0.017661	 0.028439	 0.155175	 0.775150	 -0.045469	 0.378341	 0.063177	 0.008304	 0.923470	 1
1462090002.953	 8	 0.021723	 0.026188	 0.029612	 0.155322	 0.775677	 -0.045219	 0.378576	 0.063278	 0.008468	 0.923366	 1
1462090002.963	 8	 0.014227	 0.024053	 0.025394	 0.155462	 0.776041	 -0.044984	 0.378736	 0.063378	 0.008618	 0.923292	 1
1462090002.973	 8	 0.000355	 0.024095	 0.025515	 0.155600	 0.776269	 -0.044737	 0.378832	 0.063483	 0.008767	 0.923244	 1
1462090002.983	 8	 -0.011428	 0.016669	 0.023416	 0.155756	 0.776242	 -0.044536	 0.378813	 0.063594	 0.008888	 0.923243	 1
1462090002.993	 8	 -0.018979	 -0.000326	 0.023323	 0.155798	 0.776124	 -0.044351	 0.378752	 0.063651	 0.008977	 0.923263	 1
1462090003.003	 8	 -0.021135	 -0.013014	 0.032815	 0.155670	 0.775998	 -0.044105	 0.378687	 0.063642	 0.009061	 0.923290	 1
1462090003.013	 8	 -0.014656	 -0.007621	 0.045597	 0.155366	 0.775952	 -0.043639	 0.378652	 0.063591	 0.009217	 0.923306	 1
1462090003.023	 8	 -0.006082	 -0.004416	 0.050880	 0.155074	 0.775925	 -0.043108	 0.378624	 0.063557	 0.009406	 0.923318	 1
1462090003.033	 8	 -0.001802	 -0.004406	 0.054040	 0.154662	 0.775901	 -0.042467	 0.378595	 0.063489	 0.009623	 0.923332	 1
1462090003.043	 8	 0.001379	 -0.014997	 0.061373	 0.154072	 0.775952	 -0.041708	 0.378597	 0.063359	 0.009864	 0.923338	 1
1462090003.053	 8	 0.002418	 -0.023487	 0.064482	 0.153304	 0.775999	 -0.040889	 0.378597	 0.063158	 0.010098	 0.923349	 1
1462090003.063	 8	 0.006679	 -0.021403	 0.060201	 0.152448	 0.776108	 -0.040025	 0.378624	 0.062924	 0.010339	 0.923351	 1
1462090003.073	 8	 0.009912	 -0.007648	 0.051776	 0.151630	 0.776310	 -0.039163	 0.378694	 0.062705	 0.010590	 0.923334	 1
1462090003.083	 8	 0.007826	 0.010371	 0.042371	 0.151046	 0.776499	 -0.038402	 0.378761	 0.062575	 0.010838	 0.923313	 1
1462090003.093	 8	 0.003551	 0.018807	 0.030764	 0.150655	 0.776610	 -0.037781	 0.378795	 0.062510	 0.011055	 0.923301	 1
1462090003.103	 8	 -0.001793	 0.025135	 0.021278	 0.150442	 0.776646	 -0.037302	 0.378798	 0.062501	 0.011237	 0.923298	 1
1462090003.113	 8	 -0.007153	 0.026160	 0.013875	 0.150378	 0.776605	 -0.036958	 0.378768	 0.062538	 0.011382	 0.923306	 1
1462090003.123	 8	 -0.006137	 0.020791	 0.007422	 0.150325	 0.776506	 -0.036697	 0.378715	 0.062565	 0.011489	 0.923325	 1
1462090003.133	 8	 0.003417	 0.016453	 -0.000161	 0.150296	 0.776537	 -0.036544	 0.378725	 0.062580	 0.011555	 0.923319	 1
1462090003.143	 8	 0.008748	 0.020644	 -0.006562	 0.150308	 0.776703	 -0.036456	 0.378798	 0.062598	 0.011605	 0.923287	 1
1462090003.153	 8	 0.009793	 0.024818	 -0.017189	 0.150426	 0.776892	 -0.036489	 0.378886	 0.062642	 0.011619	 0.923248	 1
1462090003.163	 8	 -0.007284	 0.025917	 -0.019161	 0.150784	 0.777008	 -0.036695	 0.378943	 0.062766	 0.011596	 0.923216	 1
1462090003.173	 8	 -0.022218	 0.015426	 -0.005274	 0.151219	 0.776896	 -0.036909	 0.378896	 0.062928	 0.011575	 0.923225	 1
1462090003.183	 8	 -0.037256	 -0.028994	 0.023218	 0.151115	 0.776582	 -0.036803	 0.378748	 0.062908	 0.011592	 0.923286	 1
1462090003.193	 8	 -0.055582	 -0.086215	 0.045225	 0.150248	 0.775996	 -0.036355	 0.378469	 0.062606	 0.011613	 0.923421	 1
1462090003.203	 8	 -0.066469	 -0.139296	 0.054416	 0.148570	 0.775237	 -0.035627	 0.378106	 0.061986	 0.011603	 0.923612	 1
1462090003.213	 8	 -0.060213	 -0.169106	 0.053019	 0.146286	 0.774573	 -0.034733	 0.377786	 0.061114	 0.011559	 0.923802	 1
1462090003.223	 8	 -0.049550	 -0.163882	 0.044449	 0.143881	 0.774106	 -0.033844	 0.377557	 0.060181	 0.011499	 0.923957	 1
1462090003.233	 8	 -0.034429	 -0.116148	 0.033039	 0.141847	 0.773885	 -0.033041	 0.377443	 0.059397	 0.011477	 0.924055	 1
1462090003.243	 8	 -0.011732	 -0.041884	 0.016483	 0.140488	 0.774055	 -0.032361	 0.377509	 0.058895	 0.011541	 0.924059	 1
1462090003.253	 8	 0.011091	 0.055805	 0.003341	 0.140297	 0.774560	 -0.031976	 0.377732	 0.058869	 0.011701	 0.923968	 1
1462090003.263	 8	 0.027462	 0.135500	 -0.000322	 0.141320	 0.775162	 -0.031879	 0.378001	 0.059347	 0.011961	 0.923824	 1
1462090003.273	 8	 0.028642	 0.159953	 -0.001170	 0.142937	 0.775620	 -0.031940	 0.378204	 0.060073	 0.012254	 0.923690	 1
1462090003.283	 8	 0.010412	 0.142974	 -0.003301	 0.144542	 0.775824	 -0.032050	 0.378292	 0.060789	 0.012515	 0.923604	 1
1462090003.293	 8	 -0.012255	 0.090906	 -0.005721	 0.145819	 0.775671	 -0.032233	 0.378218	 0.061347	 0.012666	 0.923595	 1
1462090003.303	 8	 -0.036026	 0.024013	 0.000257	 0.146577	 0.775170	 -0.032450	 0.377989	 0.061667	 0.012691	 0.923667	 1
1462090003.313	 8	 -0.050201	 -0.048196	 0.010364	 0.146505	 0.774495	 -0.032510	 0.377680	 0.061637	 0.012624	 0.923796	 1
1462090003.323	 8	 -0.050388	 -0.097039	 0.021633	 0.145719	 0.773873	 -0.032377	 0.377394	 0.061312	 0.012515	 0.923936	 1
1462090003.333	 8	 -0.041868	 -0.107638	 0.029985	 0.144603	 0.773386	 -0.032101	 0.377168	 0.060859	 0.012414	 0.924060	 1
1462090003.343	 8	 -0.027875	 -0.089535	 0.038558	 0.143363	 0.773247	 -0.031608	 0.377096	 0.060382	 0.012403	 0.924120	 1
1462090003.353	 8	 -0.008467	 -0.052326	 0.044064	 0.142391	 0.773421	 -0.031052	 0.377166	 0.060034	 0.012483	 0.924114	 1
1462090003.363	 8	 0.005640	 -0.003438	 0.044396	 0.141872	 0.773775	 -0.030480	 0.377316	 0.059895	 0.012662	 0.924059	 1
1462090003.373	 8	 0.010126	 0.039119	 0.047951	 0.141746	 0.774239	 -0.029874	 0.377512	 0.059941	 0.012934	 0.923972	 1
1462090003.383	 8	 0.011346	 0.071025	 0.048238	 0.141886	 0.774636	 -0.029186	 0.377674	 0.060128	 0.013293	 0.923889	 1
1462090003.393	 8	 0.012372	 0.066729	 0.042860	 0.142158	 0.774812	 -0.028586	 0.377735	 0.060363	 0.013628	 0.923843	 1
1462090003.403	 8	 0.006845	 0.034764	 0.033019	 0.142089	 0.774820	 -0.027990	 0.377721	 0.060444	 0.013890	 0.923840	 1
1462090003.413	 8	 -0.003984	 0.007094	 0.026462	 0.141850	 0.774780	 -0.027533	 0.377691	 0.060421	 0.014055	 0.923851	 1
1462090003.423	 8	 -0.023369	 -0.017422	 0.011482	 0.141306	 0.774534	 -0.027095	 0.377568	 0.060257	 0.014145	 0.923911	 1
1462090003.433	 8	 -0.044894	 -0.044051	 -0.002432	 0.140699	 0.774095	 -0.026896	 0.377364	 0.060023	 0.014107	 0.924010	 1
1462090003.443	 8	 -0.053413	 -0.037667	 -0.005495	 0.140102	 0.773676	 -0.026761	 0.377170	 0.059781	 0.014043	 0.924106	 1
