% Gyrometer data recorded with 'snsrlog'
% 
% 
% Label description:
% 	 0: Default Label
% 	 1: still_drop
% 	 2: walk_drop
% 	 3: other
% 	 4: dtw_same
% 	 5: dtw_diff
% 	 6: delete
% 	 7: steal
% 
% Column description:
% 	 1: Seconds.milliseconds since 1970
% 	 2: Number of skipped measurements
% 	 3: Gyro X
% 	 4: Gyro Y
% 	 5: Gyro Z
% 	 6: Roll of the device
% 	 7: Pitch of the device
% 	 8: Yaw of the device
% 	 9: Quaternion X
% 	 10: Quaternion Y
% 	 11: Quaternion Z
% 	 12: Quaternion W
% 	 13: Label used for the current sample
% 
% 
1463629347.303	 0	 -0.857062	 2.062327	 1.107660	 0.065448	 0.660291	 0.351221	 0.313616	 0.087082	 0.175629	 0.929094	 2
1463629347.313	 0	 -1.005569	 2.104816	 0.746988	 0.079514	 0.650935	 0.362710	 0.307467	 0.094668	 0.183260	 0.928934	 2
1463629347.323	 0	 -1.030340	 2.048933	 0.218065	 0.096772	 0.640970	 0.368365	 0.300929	 0.102756	 0.188594	 0.929148	 2
1463629347.333	 0	 -0.927504	 2.019271	 -0.456668	 0.118260	 0.631085	 0.366096	 0.294388	 0.111629	 0.190771	 0.929775	 2
1463629347.343	 0	 -0.710069	 2.167006	 -0.969818	 0.144893	 0.622337	 0.356839	 0.288291	 0.122008	 0.190318	 0.930474	 2
1463629347.353	 0	 -0.448807	 2.422129	 -1.323552	 0.176519	 0.615286	 0.342885	 0.282881	 0.134235	 0.188261	 0.930869	 2
1463629347.363	 0	 -0.182621	 2.618496	 -1.710914	 0.213024	 0.609709	 0.324159	 0.278177	 0.148241	 0.184549	 0.930905	 2
1463629347.383	 1	 0.363919	 3.096081	 -2.512682	 0.301351	 0.601509	 0.270684	 0.270862	 0.181576	 0.171474	 0.929656	 2
1463629347.393	 1	 0.535313	 3.436301	 -2.755068	 0.353417	 0.597559	 0.237727	 0.267803	 0.201179	 0.162945	 0.928040	 2
1463629347.403	 1	 0.581572	 3.842648	 -2.876384	 0.410133	 0.592303	 0.203194	 0.264500	 0.222742	 0.154096	 0.925570	 2
1463629347.413	 1	 0.543892	 4.297359	 -2.962414	 0.471283	 0.584807	 0.168382	 0.260497	 0.246335	 0.145356	 0.922135	 2
1463629347.423	 1	 0.508163	 4.724315	 -3.061509	 0.536525	 0.574654	 0.133649	 0.255670	 0.271869	 0.136693	 0.917625	 2
1463629347.433	 1	 0.552195	 5.154754	 -3.234803	 0.605843	 0.561964	 0.098496	 0.250243	 0.299293	 0.127765	 0.911854	 2
1463629347.443	 1	 0.714126	 5.787182	 -3.520216	 0.681565	 0.546573	 0.061337	 0.244389	 0.329470	 0.117992	 0.904324	 2
1463629347.453	 1	 0.984768	 6.312534	 -3.713784	 0.763440	 0.529136	 0.022230	 0.238660	 0.362231	 0.107361	 0.894597	 2
1463629347.463	 1	 1.323898	 6.831702	 -3.852586	 0.850646	 0.510108	 -0.018451	 0.233493	 0.397129	 0.095966	 0.882360	 2
1463629347.473	 1	 1.738240	 7.288479	 -4.057636	 0.943066	 0.489015	 -0.061398	 0.229088	 0.433914	 0.083382	 0.867343	 2
1463629347.483	 1	 2.200051	 7.443750	 -4.312798	 1.038344	 0.464881	 -0.107207	 0.225581	 0.471409	 0.068861	 0.849791	 2
1463629347.493	 1	 2.661536	 7.288584	 -4.549530	 1.132840	 0.436981	 -0.155501	 0.223041	 0.508068	 0.051979	 0.830312	 2
1463629347.503	 1	 3.081605	 6.867276	 -4.689261	 1.223044	 0.405275	 -0.205207	 0.221514	 0.542532	 0.032789	 0.809639	 2
1463629347.513	 1	 3.406293	 6.217760	 -4.656567	 1.305681	 0.370724	 -0.254756	 0.221061	 0.573605	 0.011865	 0.788650	 2
1463629347.523	 1	 3.580129	 5.505605	 -4.375886	 1.379000	 0.335265	 -0.302326	 0.221720	 0.600696	 -0.009629	 0.768057	 2
1463629347.533	 1	 3.553903	 4.801391	 -3.961235	 1.442437	 0.300861	 -0.346264	 0.223330	 0.623695	 -0.030437	 0.748467	 2
1463629347.543	 1	 3.367340	 4.221601	 -3.760379	 1.497076	 0.266577	 -0.385677	 0.224835	 0.643368	 -0.050403	 0.730059	 2
1463629347.553	 1	 3.102714	 3.787270	 -3.772774	 1.544436	 0.230601	 -0.420271	 0.225175	 0.660656	 -0.069932	 0.712699	 2
1463629347.563	 1	 2.855606	 3.518195	 -3.870111	 1.586500	 0.192346	 -0.450251	 0.224011	 0.676407	 -0.089175	 0.695946	 2
1463629347.573	 1	 2.716623	 3.366470	 -4.021650	 1.625021	 0.151593	 -0.476653	 0.221505	 0.691176	 -0.108456	 0.679301	 2
1463629347.583	 1	 2.683549	 3.252867	 -4.153508	 1.660970	 0.108525	 -0.500651	 0.218055	 0.705133	 -0.128053	 0.662451	 2
1463629347.593	 1	 2.709146	 3.062074	 -4.199203	 1.694075	 0.063936	 -0.523123	 0.214114	 0.717992	 -0.148016	 0.645549	 2
1463629347.613	 2	 2.541797	 2.361141	 -4.122204	 1.748273	 -0.026080	 -0.562754	 0.204921	 0.739088	 -0.187768	 0.613596	 2
1463629347.633	 3	 2.030291	 1.251284	 -3.959688	 1.779930	 -0.113874	 -0.591114	 0.191701	 0.752586	 -0.225343	 0.588291	 2
1463629347.643	 3	 1.717692	 0.694862	 -3.814003	 1.786986	 -0.155317	 -0.600625	 0.183383	 0.756528	 -0.242579	 0.578958	 2
1463629347.653	 3	 1.373140	 0.156573	 -3.674266	 1.788780	 -0.194655	 -0.606987	 0.173903	 0.758845	 -0.258513	 0.571911	 2
1463629347.663	 3	 1.011702	 -0.313838	 -3.567854	 1.786111	 -0.232088	 -0.610087	 0.163136	 0.759835	 -0.273084	 0.566976	 2
1463629347.673	 3	 0.683688	 -0.649803	 -3.535086	 1.780348	 -0.268273	 -0.610079	 0.151044	 0.759918	 -0.286432	 0.563619	 2
1463629347.683	 3	 0.424827	 -0.727126	 -3.595366	 1.773870	 -0.304257	 -0.607384	 0.137763	 0.759757	 -0.298843	 0.560789	 2
1463629347.693	 3	 0.255426	 -0.596420	 -3.680067	 1.768983	 -0.340708	 -0.602710	 0.123702	 0.759924	 -0.310601	 0.557440	 2
1463629347.703	 3	 0.178385	 -0.410091	 -3.684057	 1.766427	 -0.377273	 -0.597014	 0.109488	 0.760506	 -0.321845	 0.553226	 2
1463629347.713	 3	 0.170029	 -0.268608	 -3.537724	 1.765649	 -0.412750	 -0.591272	 0.095832	 0.761247	 -0.332507	 0.548414	 2
1463629347.723	 3	 0.207739	 -0.209186	 -3.248678	 1.765531	 -0.445781	 -0.586310	 0.083328	 0.761810	 -0.342439	 0.543542	 2
1463629347.733	 3	 0.249384	 -0.287466	 -2.879949	 1.764631	 -0.475419	 -0.582534	 0.072205	 0.761851	 -0.351504	 0.539272	 2
1463629347.743	 3	 0.244511	 -0.501728	 -2.507818	 1.761543	 -0.501411	 -0.579679	 0.062191	 0.761091	 -0.359591	 0.536253	 2
1463629347.753	 3	 0.153852	 -0.788194	 -2.153730	 1.755763	 -0.523750	 -0.576933	 0.052872	 0.759496	 -0.366485	 0.534845	 2
1463629347.763	 3	 -0.042779	 -1.106570	 -1.842712	 1.747466	 -0.542622	 -0.573071	 0.043745	 0.757192	 -0.371905	 0.535194	 2
1463629347.773	 3	 -0.328014	 -1.370960	 -1.602892	 1.737632	 -0.558518	 -0.566821	 0.034354	 0.754476	 -0.375647	 0.537099	 2
1463629347.783	 3	 -0.661283	 -1.580397	 -1.431417	 1.727455	 -0.572109	 -0.557283	 0.024385	 0.751660	 -0.377665	 0.540169	 2
1463629347.793	 3	 -0.982815	 -1.774053	 -1.279082	 1.717345	 -0.583756	 -0.544223	 0.013734	 0.748821	 -0.378001	 0.544237	 2
1463629347.803	 3	 -1.263157	 -2.032933	 -1.157553	 1.706698	 -0.593827	 -0.527970	 0.002314	 0.745748	 -0.376856	 0.549395	 2
1463629347.813	 3	 -1.474588	 -2.193891	 -0.998411	 1.695610	 -0.602311	 -0.509214	 -0.009572	 0.742428	 -0.374389	 0.555465	 2
1463629347.823	 3	 -1.600754	 -2.209948	 -0.770455	 1.684996	 -0.608679	 -0.489000	 -0.021166	 0.739118	 -0.370708	 0.561990	 2
1463629347.833	 3	 -1.658741	 -2.267546	 -0.523229	 1.674502	 -0.612707	 -0.468243	 -0.032105	 0.735740	 -0.365993	 0.568950	 2
1463629347.843	 3	 -1.705684	 -2.696394	 -0.278488	 1.661031	 -0.614437	 -0.447224	 -0.042844	 0.731423	 -0.360272	 0.577398	 2
1463629347.853	 3	 -1.750869	 -3.446324	 -0.015435	 1.640813	 -0.613879	 -0.425917	 -0.054021	 0.725034	 -0.353392	 0.588660	 2
1463629347.863	 3	 -1.950498	 -4.201594	 0.328845	 1.613692	 -0.610426	 -0.403018	 -0.065822	 0.716405	 -0.344660	 0.603026	 2
1463629347.883	 4	 -2.608017	 -5.015937	 0.995225	 1.550386	 -0.594698	 -0.346974	 -0.090629	 0.695222	 -0.319858	 0.637294	 2
1463629347.893	 4	 -3.019424	 -4.901131	 1.259922	 1.520584	 -0.583816	 -0.311350	 -0.103686	 0.684332	 -0.303520	 0.654839	 2
1463629347.903	 4	 -3.272006	 -4.390971	 1.546098	 1.496769	 -0.571124	 -0.271888	 -0.116035	 0.674852	 -0.285204	 0.670649	 2
1463629347.913	 4	 -3.308481	 -3.750766	 1.812419	 1.479476	 -0.556428	 -0.231096	 -0.126779	 0.667240	 -0.265783	 0.684162	 2
1463629347.923	 4	 -2.982950	 -3.118402	 1.877283	 1.466716	 -0.540706	 -0.192755	 -0.135423	 0.661154	 -0.246834	 0.695420	 2
1463629347.933	 4	 -2.405036	 -2.567718	 1.634381	 1.455789	 -0.526507	 -0.161214	 -0.141922	 0.655936	 -0.230607	 0.704576	 2
1463629347.943	 4	 -1.759614	 -2.052412	 1.233896	 1.445841	 -0.515539	 -0.137319	 -0.146823	 0.651327	 -0.218001	 0.711823	 2
1463629347.953	 4	 -1.194899	 -1.532984	 0.929005	 1.437314	 -0.507379	 -0.120785	 -0.150099	 0.647542	 -0.208911	 0.717298	 2
1463629347.963	 4	 -0.771797	 -1.046304	 0.744407	 1.431066	 -0.500802	 -0.109719	 -0.151889	 0.644859	 -0.202406	 0.721192	 2
1463629347.973	 4	 -0.410904	 -0.705529	 0.654912	 1.426433	 -0.494838	 -0.102991	 -0.152313	 0.643038	 -0.197761	 0.724012	 2
1463629347.983	 4	 -0.047405	 -0.304855	 0.612845	 1.423498	 -0.488915	 -0.100419	 -0.151233	 0.642139	 -0.194759	 0.725847	 2
1463629347.993	 4	 0.331795	 0.196276	 0.642982	 1.423441	 -0.482332	 -0.101986	 -0.148293	 0.642630	 -0.193270	 0.726418	 2
1463629348.013	 5	 1.177768	 1.064480	 0.879228	 1.431311	 -0.464402	 -0.118762	 -0.135464	 0.647684	 -0.194303	 0.724155	 2
1463629348.023	 5	 1.584770	 1.372831	 0.883883	 1.437683	 -0.453524	 -0.133802	 -0.125921	 0.651531	 -0.196740	 0.721765	 2
1463629348.033	 5	 1.911410	 1.787331	 0.680269	 1.445779	 -0.443769	 -0.153039	 -0.115213	 0.656063	 -0.201082	 0.718243	 2
1463629348.043	 5	 1.978962	 2.129371	 0.353543	 1.457718	 -0.437092	 -0.174074	 -0.104596	 0.661774	 -0.207153	 0.712883	 2
1463629348.053	 5	 1.985689	 1.986871	 0.066535	 1.468970	 -0.433623	 -0.195727	 -0.094940	 0.666982	 -0.214301	 0.707246	 2
1463629348.063	 5	 1.782151	 1.841764	 -0.225062	 1.479047	 -0.433313	 -0.216164	 -0.086889	 0.671471	 -0.221859	 0.701680	 2
1463629348.073	 5	 1.266847	 1.918566	 -0.549182	 1.491147	 -0.436749	 -0.232201	 -0.081377	 0.676261	 -0.229066	 0.695397	 2
1463629348.083	 5	 0.599917	 2.206376	 -0.877477	 1.508592	 -0.444149	 -0.241116	 -0.079013	 0.682415	 -0.235222	 0.687559	 2
1463629348.093	 5	 0.412541	 2.494557	 -1.107632	 1.530632	 -0.454525	 -0.246384	 -0.078316	 0.689803	 -0.241243	 0.678115	 2
1463629348.103	 5	 0.754393	 2.617581	 -1.164883	 1.553200	 -0.465948	 -0.253946	 -0.077002	 0.697288	 -0.248392	 0.667953	 2
1463629348.113	 5	 1.340894	 2.712960	 -1.122209	 1.573953	 -0.477202	 -0.267361	 -0.073648	 0.704257	 -0.257321	 0.657559	 2
1463629348.123	 5	 1.935632	 2.978426	 -1.088681	 1.593559	 -0.488400	 -0.287438	 -0.067883	 0.710944	 -0.268262	 0.646518	 2
1463629348.133	 5	 2.380107	 3.458599	 -0.988967	 1.614795	 -0.499394	 -0.312920	 -0.059671	 0.718154	 -0.280746	 0.633936	 2
1463629348.143	 5	 2.702168	 3.927038	 -0.796641	 1.638725	 -0.509268	 -0.342387	 -0.048980	 0.726108	 -0.293921	 0.619661	 2
1463629348.153	 5	 2.786089	 4.241045	 -0.729438	 1.665097	 -0.518859	 -0.373571	 -0.036882	 0.734523	 -0.307235	 0.603923	 2
1463629348.163	 5	 2.734892	 4.498370	 -0.759636	 1.694150	 -0.529229	 -0.404175	 -0.024490	 0.743307	 -0.320277	 0.586786	 2
1463629348.173	 5	 2.661984	 4.651921	 -1.028276	 1.725329	 -0.542432	 -0.433592	 -0.012756	 0.752163	 -0.333521	 0.568200	 2
1463629348.183	 5	 2.476203	 4.699747	 -1.108277	 1.758197	 -0.557647	 -0.460505	 -0.001937	 0.760945	 -0.346324	 0.548652	 2
1463629348.193	 5	 2.350346	 4.599008	 -0.970636	 1.791118	 -0.572370	 -0.485586	 0.008743	 0.769272	 -0.358051	 0.529097	 2
1463629348.203	 5	 2.253437	 4.447814	 -0.738863	 1.822533	 -0.585526	 -0.509887	 0.019699	 0.776794	 -0.368656	 0.510192	 2
1463629348.213	 5	 2.022928	 4.378719	 -0.386863	 1.854075	 -0.595724	 -0.532565	 0.031270	 0.784029	 -0.377451	 0.491785	 2
1463629348.223	 5	 1.855837	 3.746453	 0.211930	 1.881120	 -0.600800	 -0.554623	 0.043548	 0.789968	 -0.384040	 0.475990	 2
1463629348.243	 5	 1.483619	 1.760030	 1.289093	 1.904367	 -0.593206	 -0.600311	 0.068445	 0.794390	 -0.391438	 0.459387	 2
1463629348.233	 5	 1.741270	 2.651877	 0.881633	 1.897406	 -0.599481	 -0.577753	 0.056248	 0.793272	 -0.388619	 0.465328	 2
1463629348.253	 5	 1.090171	 0.948238	 1.534353	 1.905171	 -0.583128	 -0.619644	 0.079306	 0.794156	 -0.392344	 0.457267	 2
1463629348.263	 5	 0.805243	 0.344147	 1.717721	 1.900958	 -0.570117	 -0.635891	 0.088834	 0.792823	 -0.391741	 0.458343	 2
1463629348.273	 5	 0.810930	 0.290988	 1.869581	 1.895276	 -0.555305	 -0.651643	 0.098420	 0.791055	 -0.390518	 0.460478	 2
1463629348.283	 5	 1.128845	 0.568972	 2.050579	 1.890261	 -0.539590	 -0.670618	 0.109680	 0.789106	 -0.389753	 0.461925	 2
1463629348.293	 5	 1.405874	 1.038216	 2.188951	 1.887852	 -0.523257	 -0.693339	 0.123099	 0.787321	 -0.389543	 0.461767	 2
1463629348.313	 6	 0.840173	 1.937774	 1.632064	 1.902142	 -0.494675	 -0.731835	 0.149621	 0.787891	 -0.387595	 0.454545	 2
1463629348.323	 6	 0.657278	 2.147240	 1.549279	 1.916907	 -0.482226	 -0.745064	 0.161391	 0.790083	 -0.385151	 0.448755	 2
1463629348.333	 6	 0.557952	 2.233854	 1.426256	 1.933757	 -0.470519	 -0.756901	 0.172747	 0.792710	 -0.382326	 0.442262	 2
1463629348.343	 6	 0.557394	 1.941974	 1.363862	 1.949145	 -0.459821	 -0.768098	 0.183230	 0.794944	 -0.379688	 0.436266	 2
1463629348.353	 6	 0.835452	 1.332030	 1.701072	 1.957795	 -0.447835	 -0.782484	 0.194035	 0.795265	 -0.377802	 0.432630	 2
1463629348.363	 6	 1.133834	 0.676597	 2.373397	 1.957692	 -0.431620	 -0.802495	 0.206600	 0.792888	 -0.376463	 0.432342	 2
1463629348.373	 6	 1.568278	 0.133337	 3.315219	 1.949065	 -0.408503	 -0.829727	 0.222339	 0.787418	 -0.375234	 0.435589	 2
1463629348.383	 6	 2.005847	 -0.023244	 4.046394	 1.935755	 -0.379192	 -0.864295	 0.241752	 0.779317	 -0.374199	 0.440677	 2
1463629348.393	 6	 2.197297	 0.109665	 4.264445	 1.922835	 -0.347013	 -0.902001	 0.263115	 0.770000	 -0.373134	 0.445692	 2
1463629348.403	 6	 1.862832	 0.641138	 3.790578	 1.916744	 -0.316678	 -0.936006	 0.283607	 0.762024	 -0.371223	 0.448419	 2
1463629348.413	 6	 1.076993	 0.849730	 2.904121	 1.917969	 -0.291518	 -0.959884	 0.299970	 0.756942	 -0.367847	 0.449161	 2
1463629348.433	 7	 -0.122937	 -0.639703	 1.341499	 1.913755	 -0.257870	 -0.978032	 0.315402	 0.750400	 -0.361151	 0.454964	 2
1463629348.443	 7	 -0.587784	 -1.401025	 0.744833	 1.901863	 -0.247970	 -0.976515	 0.315439	 0.747029	 -0.359311	 0.461888	 2
1463629348.453	 7	 -1.092658	 -1.977967	 0.330344	 1.885404	 -0.240915	 -0.968432	 0.311448	 0.743810	 -0.357611	 0.471022	 2
1463629348.463	 7	 -1.507531	 -2.409171	 0.101871	 1.865408	 -0.235246	 -0.955066	 0.304525	 0.740574	 -0.355585	 0.482051	 2
1463629348.473	 7	 -1.840616	 -2.486290	 -0.106968	 1.844333	 -0.230739	 -0.937549	 0.295608	 0.737635	 -0.352951	 0.493899	 2
1463629348.483	 7	 -2.146273	 -1.665098	 -0.658322	 1.830568	 -0.230247	 -0.915697	 0.285276	 0.737332	 -0.349338	 0.502913	 2
1463629348.493	 7	 -2.366552	 -0.962080	 -1.337279	 1.825388	 -0.235581	 -0.889591	 0.273171	 0.740152	 -0.345267	 0.508275	 2
1463629348.503	 7	 -2.434377	 -0.490545	 -2.049558	 1.826314	 -0.247561	 -0.860559	 0.259014	 0.745273	 -0.341825	 0.510525	 2
1463629348.513	 7	 -2.356551	 -0.153301	 -2.739847	 1.831611	 -0.266787	 -0.830008	 0.242774	 0.751953	 -0.339946	 0.509965	 2
1463629348.523	 7	 -2.196662	 0.070678	 -3.322147	 1.838950	 -0.293828	 -0.799255	 0.224340	 0.759256	 -0.340576	 0.507158	 2
1463629348.533	 7	 -1.964724	 0.287000	 -3.758054	 1.850261	 -0.323941	 -0.768516	 0.205530	 0.767141	 -0.342027	 0.502265	 2
1463629348.543	 7	 -1.682249	 0.461684	 -4.048776	 1.864191	 -0.357368	 -0.738805	 0.186458	 0.775048	 -0.344891	 0.495565	 2
1463629348.553	 7	 -1.332524	 0.529700	 -4.207857	 1.879264	 -0.393154	 -0.710994	 0.167543	 0.782399	 -0.349253	 0.487652	 2
1463629348.563	 7	 -0.901797	 0.470751	 -4.241997	 1.893687	 -0.430370	 -0.686334	 0.149295	 0.788605	 -0.355239	 0.479185	 2
1463629348.573	 7	 -0.264434	 0.007835	 -4.164462	 1.903332	 -0.468629	 -0.666850	 0.131931	 0.792602	 -0.363408	 0.471499	 2
1463629348.583	 7	 0.597032	 -0.723410	 -4.038087	 1.902833	 -0.508361	 -0.655953	 0.115667	 0.793092	 -0.374825	 0.465974	 2
1463629348.593	 7	 1.246594	 -1.067419	 -3.986196	 1.894290	 -0.549839	 -0.653110	 0.100456	 0.790837	 -0.389023	 0.461679	 2
1463629348.603	 7	 1.675704	 -1.307677	 -3.943143	 1.880069	 -0.592334	 -0.656295	 0.086002	 0.786677	 -0.404919	 0.458022	 2
1463629348.613	 7	 1.957258	 -1.412165	 -3.864503	 1.861369	 -0.635062	 -0.664398	 0.072194	 0.781095	 -0.421771	 0.454739	 2
1463629348.623	 7	 2.043653	 -1.082787	 -3.730036	 1.842278	 -0.676906	 -0.675939	 0.059563	 0.775222	 -0.438628	 0.450653	 2
1463629348.633	 7	 1.898663	 -0.127585	 -3.484352	 1.830398	 -0.716352	 -0.688259	 0.049275	 0.770956	 -0.454219	 0.443716	 2
1463629348.643	 7	 1.675041	 1.043235	 -2.871485	 1.830325	 -0.750149	 -0.700145	 0.043158	 0.769421	 -0.467330	 0.433280	 2
1463629348.653	 7	 1.739957	 1.565943	 -2.193625	 1.835003	 -0.777375	 -0.714527	 0.041188	 0.769006	 -0.478638	 0.421711	 2
1463629348.663	 7	 1.966732	 1.680857	 -1.656359	 1.835518	 -0.803718	 -0.735753	 0.041131	 0.767530	 -0.490974	 0.410062	 2
1463629348.673	 7	 2.182863	 1.517798	 -1.320848	 1.832981	 -0.822944	 -0.760643	 0.043941	 0.765639	 -0.501749	 0.400143	 2
1463629348.683	 7	 2.274338	 1.305029	 -1.143512	 1.825375	 -0.840308	 -0.788996	 0.047310	 0.762745	 -0.512552	 0.391501	 2
1463629348.703	 8	 1.815312	 0.997294	 -1.081625	 1.804032	 -0.870654	 -0.844486	 0.053031	 0.756074	 -0.532197	 0.377234	 2
1463629348.713	 8	 1.104676	 0.690756	 -0.958920	 1.799620	 -0.882928	 -0.860494	 0.053910	 0.754387	 -0.538608	 0.371341	 2
1463629348.723	 8	 0.583264	 0.345254	 -0.706071	 1.797804	 -0.891571	 -0.868305	 0.053551	 0.753541	 -0.542392	 0.367587	 2
1463629348.733	 8	 0.394955	 0.242463	 -0.436816	 1.796447	 -0.897416	 -0.873194	 0.053118	 0.752957	 -0.544861	 0.365186	 2
1463629348.743	 8	 0.316239	 0.400104	 -0.290786	 1.796733	 -0.901248	 -0.877297	 0.053491	 0.752765	 -0.546603	 0.362917	 2
1463629348.753	 8	 0.231215	 0.692910	 -0.281992	 1.800547	 -0.904533	 -0.880300	 0.054594	 0.753257	 -0.547900	 0.359763	 2
1463629348.763	 8	 0.113448	 0.884315	 -0.335671	 1.808178	 -0.907986	 -0.881372	 0.055967	 0.754466	 -0.548783	 0.355650	 2
1463629348.773	 8	 -0.070010	 0.921931	 -0.356105	 1.818669	 -0.911403	 -0.879697	 0.057106	 0.756235	 -0.549087	 0.351214	 2
1463629348.783	 8	 -0.339805	 0.874575	 -0.248686	 1.831886	 -0.913507	 -0.874300	 0.058010	 0.758611	 -0.548320	 0.347115	 2
1463629348.793	 8	 -0.679869	 0.713837	 0.035206	 1.846965	 -0.912382	 -0.864750	 0.058866	 0.761547	 -0.545928	 0.344302	 2
1463629348.803	 8	 -1.002104	 0.612414	 0.438860	 1.863526	 -0.906585	 -0.851851	 0.060290	 0.765054	 -0.541641	 0.343050	 2
1463629348.813	 8	 -1.248920	 0.473226	 0.798876	 1.880339	 -0.896198	 -0.836925	 0.062370	 0.768922	 -0.535680	 0.343389	 2
1463629348.823	 8	 -1.451575	 0.317948	 1.011282	 1.896561	 -0.882572	 -0.820606	 0.064652	 0.772954	 -0.528487	 0.345056	 2
1463629348.833	 8	 -1.687857	 0.240867	 0.993439	 1.913463	 -0.867708	 -0.801854	 0.066415	 0.777312	 -0.520367	 0.347265	 2
1463629348.843	 8	 -2.005433	 0.274402	 0.796153	 1.933639	 -0.853050	 -0.778702	 0.067072	 0.782444	 -0.511294	 0.349086	 2
1463629348.853	 8	 -2.273475	 0.324416	 0.691310	 1.957182	 -0.838458	 -0.751464	 0.066735	 0.788370	 -0.501271	 0.350352	 2
1463629348.863	 8	 -2.383596	 0.387468	 0.834602	 1.981381	 -0.821990	 -0.723704	 0.066633	 0.794621	 -0.490399	 0.351634	 2
1463629348.873	 8	 -2.372097	 0.653443	 0.995775	 2.005817	 -0.803484	 -0.697866	 0.067644	 0.801064	 -0.479030	 0.352493	 2
1463629348.883	 8	 -2.231171	 1.242088	 1.117259	 2.032679	 -0.783784	 -0.675344	 0.070579	 0.807978	 -0.467577	 0.351514	 2
1463629348.893	 8	 -1.931227	 1.907263	 1.149609	 2.062281	 -0.764859	 -0.657792	 0.075604	 0.815187	 -0.456962	 0.347763	 2
1463629348.903	 8	 -1.630099	 2.417806	 1.126159	 2.094079	 -0.746625	 -0.644978	 0.082542	 0.822546	 -0.447122	 0.341593	 2
1463629348.913	 8	 -1.384981	 2.855870	 1.058827	 2.127840	 -0.729979	 -0.635706	 0.090638	 0.829920	 -0.438151	 0.333229	 2
1463629348.923	 8	 -1.208037	 2.878176	 0.979693	 2.161320	 -0.714800	 -0.628999	 0.099067	 0.836922	 -0.429932	 0.323890	 2
1463629348.933	 8	 -1.133716	 2.006941	 0.844113	 2.188096	 -0.701034	 -0.623132	 0.105816	 0.842597	 -0.422524	 0.316713	 2
1463629348.943	 8	 -0.901141	 0.955494	 1.001760	 2.201695	 -0.687804	 -0.620025	 0.110669	 0.845950	 -0.416341	 0.314294	 2
1463629348.953	 8	 -0.608295	 0.591808	 1.276122	 2.206803	 -0.673994	 -0.622291	 0.116113	 0.847685	 -0.411197	 0.314429	 2
1463629348.963	 8	 -1.081388	 1.596656	 1.341814	 2.217978	 -0.658036	 -0.623566	 0.122865	 0.850545	 -0.404670	 0.312603	 2
1463629348.973	 8	 -2.226755	 3.047319	 1.158527	 2.251642	 -0.636364	 -0.613675	 0.130580	 0.857945	 -0.392673	 0.304445	 2
1463629348.983	 8	 -2.750684	 2.587591	 0.912620	 2.290524	 -0.611823	 -0.596076	 0.136199	 0.866748	 -0.377802	 0.295740	 2
1463629348.993	 8	 -2.665241	 1.028016	 0.902693	 2.314016	 -0.587001	 -0.579126	 0.138774	 0.873177	 -0.363759	 0.293229	 2
1463629349.003	 8	 -2.489487	 0.122834	 0.820267	 2.325439	 -0.563604	 -0.563803	 0.139267	 0.877579	 -0.351218	 0.295138	 2
1463629349.013	 8	 -2.224397	 -0.303885	 0.898184	 2.329899	 -0.541498	 -0.551177	 0.139296	 0.880624	 -0.339971	 0.299194	 2
1463629349.023	 8	 -1.897828	 -0.414480	 1.032860	 2.330283	 -0.520624	 -0.542474	 0.140031	 0.882640	 -0.330014	 0.304022	 2
1463629349.033	 8	 -1.586272	 -0.363997	 1.226718	 2.328761	 -0.500667	 -0.537909	 0.142060	 0.883942	 -0.321139	 0.308764	 2
1463629349.043	 8	 -1.360171	 -0.323956	 1.412696	 2.325725	 -0.481033	 -0.536995	 0.145392	 0.884646	 -0.313035	 0.313483	 2
1463629349.053	 8	 -1.368076	 0.048225	 1.398110	 2.324949	 -0.461503	 -0.536920	 0.149427	 0.885547	 -0.304918	 0.317022	 2
1463629349.063	 8	 -1.437642	 0.696238	 1.114858	 2.331441	 -0.442901	 -0.534483	 0.153288	 0.887659	 -0.296230	 0.317509	 2
1463629349.083	 9	 -0.931645	 1.318423	 0.143201	 2.358981	 -0.419292	 -0.523929	 0.157495	 0.893880	 -0.282430	 0.310495	 2
1463629349.093	 9	 -0.562519	 1.332070	 -0.172154	 2.374732	 -0.415355	 -0.518058	 0.157876	 0.896944	 -0.278601	 0.304874	 2
1463629349.103	 9	 -0.199478	 1.293587	 -0.345129	 2.389579	 -0.415382	 -0.513472	 0.157872	 0.899545	 -0.276749	 0.298839	 2
1463629349.113	 9	 0.092641	 1.379737	 -0.520590	 2.404518	 -0.418765	 -0.509831	 0.157634	 0.901876	 -0.276492	 0.292101	 2
1463629349.123	 9	 0.374181	 1.476633	 -0.685202	 2.420321	 -0.425374	 -0.506744	 0.157152	 0.904060	 -0.277663	 0.284396	 2
1463629349.133	 9	 0.614201	 1.528487	 -0.771004	 2.436462	 -0.434479	 -0.504487	 0.156650	 0.906006	 -0.280031	 0.276037	 2
1463629349.143	 9	 0.881259	 1.465088	 -0.898613	 2.452041	 -0.446240	 -0.502960	 0.155954	 0.907562	 -0.283720	 0.267419	 2
1463629349.153	 9	 1.095485	 1.355522	 -1.107190	 2.466618	 -0.460970	 -0.501230	 0.154541	 0.908699	 -0.288774	 0.258831	 2
1463629349.163	 9	 1.270782	 1.158672	 -1.340753	 2.480017	 -0.478572	 -0.498469	 0.152043	 0.909436	 -0.295064	 0.250493	 2
1463629349.173	 9	 1.379670	 0.866669	 -1.522401	 2.491318	 -0.498358	 -0.494573	 0.148406	 0.909687	 -0.302355	 0.242955	 2
1463629349.183	 9	 1.554994	 0.334709	 -1.619467	 2.498207	 -0.520004	 -0.490342	 0.143679	 0.909128	 -0.310764	 0.237211	 2
1463629349.193	 9	 1.774877	 -0.321232	 -1.634946	 2.498301	 -0.543564	 -0.487082	 0.138017	 0.907388	 -0.320599	 0.234124	 2
1463629349.203	 9	 2.045970	 -0.814072	 -1.579012	 2.491741	 -0.568913	 -0.486089	 0.131944	 0.904419	 -0.331875	 0.233401	 2
1463629349.213	 9	 2.386684	 -1.013676	 -1.539074	 2.480810	 -0.596566	 -0.488188	 0.126000	 0.900385	 -0.344686	 0.233713	 2
1463629349.223	 9	 2.640553	 -1.037829	 -1.540443	 2.467613	 -0.626424	 -0.493026	 0.120296	 0.895558	 -0.358756	 0.234093	 2
1463629349.233	 9	 2.566784	 -0.821859	 -1.562304	 2.455380	 -0.656535	 -0.498414	 0.114747	 0.890641	 -0.372774	 0.233731	 2
1463629349.243	 9	 2.040979	 -0.326597	 -1.533933	 2.449185	 -0.683339	 -0.501041	 0.109573	 0.886813	 -0.384602	 0.231599	 2
1463629349.253	 9	 1.172878	 0.102659	 -1.359319	 2.450750	 -0.703165	 -0.498519	 0.104914	 0.884840	 -0.392445	 0.228120	 2
1463629349.263	 9	 0.185837	 0.721904	 -0.994327	 2.461132	 -0.713491	 -0.490952	 0.101619	 0.885166	 -0.395329	 0.223316	 2
1463629349.273	 9	 -0.683144	 1.439920	 -0.308649	 2.479845	 -0.712747	 -0.481919	 0.101445	 0.887775	 -0.393076	 0.216923	 2
1463629349.283	 9	 -1.199391	 1.490070	 0.237720	 2.499670	 -0.703254	 -0.474673	 0.103844	 0.891445	 -0.387310	 0.211029	 2
1463629349.293	 9	 -1.281818	 0.943964	 0.285578	 2.515560	 -0.690988	 -0.467722	 0.106001	 0.894987	 -0.380576	 0.207180	 2
1463629349.303	 9	 -1.062483	 0.082630	 0.107263	 2.522868	 -0.680854	 -0.460929	 0.106134	 0.897346	 -0.375185	 0.206742	 2
1463629349.313	 9	 -0.631912	 -0.672934	 -0.213654	 2.522156	 -0.675492	 -0.454005	 0.103835	 0.898288	 -0.372219	 0.209166	 2
1463629349.323	 9	 -0.223792	 -0.923746	 -0.607479	 2.518062	 -0.675920	 -0.446298	 0.099537	 0.898196	 -0.371797	 0.212374	 2
1463629349.333	 9	 0.004938	 -1.014284	 -0.679587	 2.512823	 -0.679584	 -0.438863	 0.094577	 0.897548	 -0.372819	 0.215567	 2
1463629349.343	 9	 0.119137	 -1.106338	 -0.567401	 2.505356	 -0.683892	 -0.433444	 0.089987	 0.896455	 -0.374409	 0.219292	 2
1463629349.353	 9	 0.006072	 -0.909942	 -0.517696	 2.498678	 -0.687483	 -0.428394	 0.085831	 0.895493	 -0.375672	 0.222702	 2
1463629349.363	 9	 -0.429133	 -0.579648	 -0.321128	 2.496399	 -0.687414	 -0.421886	 0.082502	 0.895520	 -0.375010	 0.224954	 2
1463629349.373	 9	 -0.844866	 -0.752808	 0.272379	 2.492680	 -0.680656	 -0.417256	 0.080947	 0.896128	 -0.371761	 0.228465	 2
1463629349.383	 9	 -1.069707	 -1.112185	 0.784690	 2.482703	 -0.668387	 -0.416292	 0.080890	 0.896507	 -0.366824	 0.234886	 2
1463629349.393	 9	 -1.188990	 -1.042858	 0.762927	 2.472525	 -0.654260	 -0.415197	 0.081124	 0.897011	 -0.361080	 0.241684	 2
1463629349.403	 9	 -1.062027	 -0.789150	 0.452980	 2.466146	 -0.642194	 -0.411655	 0.080611	 0.897763	 -0.355751	 0.246909	 2
1463629349.413	 9	 -0.448217	 -0.635424	 0.046208	 2.461464	 -0.636249	 -0.408305	 0.079375	 0.897986	 -0.352980	 0.250450	 2
1463629349.423	 9	 0.366264	 -0.424207	 -0.418262	 2.457496	 -0.639489	 -0.406690	 0.077348	 0.897187	 -0.354317	 0.252057	 2
1463629349.433	 9	 0.871672	 0.058429	 -0.833819	 2.457296	 -0.650069	 -0.405695	 0.074899	 0.895992	 -0.358716	 0.250820	 2
1463629349.453	 10	 0.705856	 0.479095	 -1.705583	 2.474580	 -0.681074	 -0.392340	 0.066360	 0.894869	 -0.369680	 0.241129	 2
1463629349.463	 10	 0.359677	 0.145420	 -1.950799	 2.487154	 -0.696272	 -0.376399	 0.058823	 0.894930	 -0.373866	 0.236356	 2
1463629349.473	 10	 0.049144	 -0.254012	 -2.009363	 2.498481	 -0.709363	 -0.356447	 0.049706	 0.895058	 -0.376813	 0.233265	 2
1463629349.483	 10	 -0.096835	 -0.687282	 -1.976933	 2.507002	 -0.720580	 -0.334687	 0.039632	 0.894983	 -0.378900	 0.232097	 2
1463629349.493	 10	 0.129237	 -1.200391	 -1.947441	 2.510003	 -0.732530	 -0.314037	 0.028925	 0.893976	 -0.381578	 0.233172	 2
1463629349.503	 10	 0.510706	 -1.510295	 -1.994145	 2.507756	 -0.747583	 -0.295773	 0.017790	 0.891700	 -0.385925	 0.235830	 2
1463629349.513	 10	 0.810919	 -1.582094	 -2.093345	 2.503600	 -0.765828	 -0.278981	 0.006427	 0.888521	 -0.391776	 0.238749	 2
1463629349.523	 10	 1.100493	 -1.583150	 -2.268530	 2.498934	 -0.787294	 -0.262640	 -0.005357	 0.884565	 -0.398986	 0.241507	 2
1463629349.533	 10	 1.493366	 -1.068542	 -2.574101	 2.498721	 -0.813326	 -0.245983	 -0.017115	 0.880154	 -0.408051	 0.241931	 2
1463629349.543	 10	 1.934514	 -0.482966	 -2.900748	 2.505374	 -0.844838	 -0.228579	 -0.028592	 0.875310	 -0.419392	 0.239010	 2
1463629349.553	 10	 2.231779	 -0.220191	 -3.065019	 2.516439	 -0.880226	 -0.210598	 -0.039806	 0.869867	 -0.432393	 0.234057	 2
1463629349.563	 10	 2.367991	 -0.301431	 -3.065895	 2.528200	 -0.917186	 -0.192165	 -0.051027	 0.863713	 -0.446054	 0.228980	 2
1463629349.573	 10	 2.351968	 -0.502821	 -2.829964	 2.537629	 -0.953152	 -0.174832	 -0.061848	 0.857034	 -0.459381	 0.225025	 2
1463629349.583	 10	 2.223176	 -0.712735	 -2.495081	 2.543412	 -0.986395	 -0.159809	 -0.071870	 0.850169	 -0.471699	 0.222595	 2
1463629349.593	 10	 1.982746	 -0.834045	 -2.160533	 2.546339	 -1.015946	 -0.146711	 -0.081036	 0.843526	 -0.482550	 0.221453	 2
1463629349.603	 10	 1.714830	 -0.934768	 -1.785055	 2.546540	 -1.041258	 -0.135845	 -0.089196	 0.837377	 -0.491735	 0.221451	 2
1463629349.613	 10	 1.450736	 -0.944741	 -1.360807	 2.543372	 -1.062043	 -0.128548	 -0.095992	 0.831887	 -0.499250	 0.222484	 2
1463629349.623	 10	 1.214661	 -0.869944	 -0.969052	 2.537373	 -1.078526	 -0.125211	 -0.101232	 0.827179	 -0.505261	 0.224139	 2
1463629349.633	 10	 1.078900	 -0.761696	 -0.617293	 2.528471	 -1.091628	 -0.126391	 -0.104885	 0.823123	 -0.510213	 0.226164	 2
1463629349.643	 10	 1.033906	 -0.633571	 -0.274665	 2.515706	 -1.102173	 -0.133220	 -0.106890	 0.819510	 -0.514535	 0.228542	 2
1463629349.653	 10	 1.040642	 -0.555127	 -0.015013	 2.498930	 -1.110971	 -0.145649	 -0.107457	 0.816138	 -0.518562	 0.231225	 2
1463629349.663	 10	 1.036771	 -0.608171	 0.148654	 2.478361	 -1.118542	 -0.162013	 -0.107319	 0.812810	 -0.522347	 0.234469	 2
1463629349.673	 10	 1.032233	 -0.734133	 0.230651	 2.454488	 -1.125263	 -0.180741	 -0.107063	 0.809391	 -0.525907	 0.238424	 2
1463629349.683	 10	 1.048526	 -0.928572	 0.264936	 2.427364	 -1.131557	 -0.201069	 -0.107070	 0.805727	 -0.529334	 0.243200	 2
1463629349.693	 10	 1.083817	 -1.102360	 0.221447	 2.397634	 -1.137977	 -0.222180	 -0.107611	 0.801703	 -0.532784	 0.248663	 2
1463629349.703	 10	 1.202015	 -1.250631	 0.063437	 2.366187	 -1.145644	 -0.243367	 -0.108960	 0.797122	 -0.536633	 0.254457	 2
1463629349.713	 10	 1.327151	 -1.349445	 -0.018505	 2.332239	 -1.154828	 -0.266011	 -0.110879	 0.791900	 -0.541086	 0.260435	 2
1463629349.723	 10	 1.381462	 -1.570030	 -0.054069	 2.294674	 -1.164356	 -0.290507	 -0.113340	 0.786175	 -0.545679	 0.267054	 2
1463629349.733	 10	 1.512316	 -1.719666	 -0.248438	 2.254099	 -1.175315	 -0.316130	 -0.116743	 0.779735	 -0.550718	 0.274032	 2
1463629349.743	 10	 1.647193	 -1.688558	 -0.450752	 2.211964	 -1.188478	 -0.343276	 -0.120778	 0.772649	 -0.556560	 0.280477	 2
1463629349.753	 10	 1.668238	 -1.597419	 -0.634464	 2.169900	 -1.202974	 -0.371031	 -0.125221	 0.765314	 -0.562816	 0.286100	 2
1463629349.763	 10	 1.639045	 -1.543188	 -0.794635	 2.128850	 -1.218280	 -0.398395	 -0.130090	 0.757952	 -0.569180	 0.290895	 2
1463629349.773	 10	 1.533105	 -1.465373	 -0.960313	 2.089637	 -1.234231	 -0.424233	 -0.135533	 0.750674	 -0.575452	 0.294915	 2
1463629349.783	 10	 1.385594	 -1.426364	 -1.067374	 2.053531	 -1.250231	 -0.447286	 -0.141466	 0.743723	 -0.581322	 0.298209	 2
1463629349.793	 10	 1.233966	 -1.439792	 -1.073639	 2.018954	 -1.265600	 -0.468536	 -0.147746	 0.737069	 -0.586619	 0.301294	 2
1463629349.803	 10	 1.029257	 -1.482086	 -0.975265	 1.985935	 -1.279268	 -0.487713	 -0.154119	 0.730895	 -0.591011	 0.304542	 2
1463629349.813	 10	 0.738347	 -1.544785	 -0.792136	 1.956219	 -1.290209	 -0.502738	 -0.160468	 0.725468	 -0.594072	 0.308259	 2
1463629349.823	 10	 0.357927	 -1.621743	 -0.558270	 1.933237	 -1.297641	 -0.509994	 -0.166759	 0.721121	 -0.595374	 0.312578	 2
1463629349.833	 10	 -0.085323	 -1.678241	 -0.315140	 1.920263	 -1.301253	 -0.506136	 -0.173027	 0.718088	 -0.594651	 0.317493	 2
1463629349.843	 10	 -0.572671	 -1.533997	 -0.128375	 1.921893	 -1.301322	 -0.487966	 -0.179081	 0.716736	 -0.591907	 0.322282	 2
1463629349.853	 10	 -0.953195	 -1.149619	 0.068221	 1.938432	 -1.298133	 -0.457789	 -0.184134	 0.717279	 -0.587632	 0.326029	 2
1463629349.863	 10	 -1.186888	 -0.674896	 0.315535	 1.964321	 -1.291580	 -0.422588	 -0.187418	 0.719523	 -0.582405	 0.328580	 2
1463629349.873	 10	 -1.440747	 -0.151408	 0.532572	 1.997945	 -1.281711	 -0.384604	 -0.188763	 0.723477	 -0.576406	 0.329706	 2
1463629349.883	 10	 -1.781939	 0.430651	 0.724270	 2.041235	 -1.268254	 -0.342306	 -0.188284	 0.729435	 -0.569402	 0.329022	 2
1463629349.903	 11	 -2.186634	 1.173083	 0.858331	 2.143730	 -1.233223	 -0.254762	 -0.183447	 0.745733	 -0.553256	 0.322701	 2
1463629349.923	 12	 -2.785942	 1.484432	 0.869643	 2.250827	 -1.189705	 -0.168098	 -0.177817	 0.765062	 -0.533887	 0.313090	 2
1463629349.933	 12	 -3.129549	 2.403256	 0.858804	 2.314311	 -1.163230	 -0.122400	 -0.173610	 0.777180	 -0.522642	 0.304461	 2
1463629349.943	 12	 -3.185800	 3.745322	 0.953846	 2.384660	 -1.134301	 -0.082669	 -0.165948	 0.791281	 -0.511664	 0.290751	 2
1463629349.953	 12	 -3.031265	 4.886542	 1.158154	 2.455733	 -1.103924	 -0.055038	 -0.154183	 0.806465	 -0.501518	 0.272618	 2
1463629349.963	 12	 -2.762866	 5.535790	 1.328118	 2.523103	 -1.073536	 -0.040087	 -0.139189	 0.821555	 -0.492248	 0.251723	 2
1463629349.973	 12	 -2.511640	 5.786655	 1.409263	 2.585196	 -1.044463	 -0.034688	 -0.122513	 0.835635	 -0.483693	 0.229665	 2
1463629349.983	 12	 -2.380132	 5.820462	 1.430813	 2.643103	 -1.016513	 -0.035108	 -0.105165	 0.848576	 -0.475327	 0.207180	 2
1463629349.993	 12	 -2.266879	 5.346192	 1.490425	 2.694241	 -0.989338	 -0.039901	 -0.088163	 0.860131	 -0.466716	 0.185952	 2
1463629350.003	 12	 -1.880206	 3.938990	 1.640223	 2.728530	 -0.964541	 -0.050997	 -0.072969	 0.869259	 -0.458420	 0.170045	 2
1463629350.013	 12	 -1.427603	 1.994772	 1.831343	 2.738802	 -0.943503	 -0.068875	 -0.060802	 0.875382	 -0.451133	 0.162751	 2
1463629350.023	 12	 -1.465090	 0.275955	 1.959553	 2.729187	 -0.922786	 -0.089299	 -0.051940	 0.879659	 -0.443514	 0.163702	 2
1463629350.043	 13	 -1.511262	 -1.612364	 1.444673	 2.686219	 -0.879485	 -0.117428	 -0.044200	 0.885628	 -0.425990	 0.179562	 2
1463629350.053	 13	 -1.226242	 -1.742402	 1.081819	 2.663229	 -0.862634	 -0.124599	 -0.043904	 0.887009	 -0.418777	 0.189506	 2
1463629350.063	 13	 -1.032485	 -1.412878	 0.840205	 2.644820	 -0.849008	 -0.128924	 -0.044145	 0.887965	 -0.412831	 0.197837	 2
1463629350.073	 13	 -0.978149	 -0.895786	 0.740099	 2.632411	 -0.836713	 -0.131763	 -0.043877	 0.889122	 -0.407462	 0.203747	 2
1463629350.083	 13	 -0.951159	 -0.368397	 0.728785	 2.625637	 -0.824789	 -0.134178	 -0.042640	 0.890708	 -0.402338	 0.207231	 2
1463629350.093	 13	 -0.894649	 0.038039	 0.770442	 2.622902	 -0.813131	 -0.137219	 -0.040314	 0.892633	 -0.397481	 0.208785	 2
1463629350.103	 13	 -0.806999	 0.246660	 0.827040	 2.621894	 -0.801893	 -0.141462	 -0.037146	 0.894645	 -0.392962	 0.209310	 2
1463629350.113	 13	 -0.715813	 0.295765	 0.888517	 2.620790	 -0.791162	 -0.147076	 -0.033434	 0.896543	 -0.388803	 0.209585	 2
1463629350.133	 14	 -0.538722	 0.214998	 0.969353	 2.615970	 -0.771126	 -0.161222	 -0.025337	 0.899733	 -0.381372	 0.210699	 2
1463629350.143	 14	 -0.384192	 0.130860	 1.016250	 2.611182	 -0.762372	 -0.170303	 -0.020972	 0.900820	 -0.378406	 0.211879	 2
1463629350.153	 14	 -0.176050	 0.126114	 1.032512	 2.605050	 -0.755154	 -0.180913	 -0.016355	 0.901474	 -0.376286	 0.213275	 2
1463629350.163	 14	 0.045639	 0.308264	 1.013093	 2.599461	 -0.749826	 -0.192834	 -0.011286	 0.901837	 -0.375168	 0.214037	 2
1463629350.173	 14	 0.266162	 0.505000	 0.951189	 2.595340	 -0.746618	 -0.205624	 -0.005835	 0.901973	 -0.375103	 0.213797	 2
1463629350.183	 14	 0.476843	 0.681299	 0.854011	 2.592741	 -0.745664	 -0.218867	 -0.000214	 0.901869	 -0.376090	 0.212573	 2
1463629350.193	 14	 0.669250	 0.850030	 0.732409	 2.591787	 -0.747002	 -0.232170	 0.005409	 0.901537	 -0.378087	 0.210362	 2
1463629350.203	 14	 0.814612	 1.005028	 0.604694	 2.592654	 -0.750335	 -0.245134	 0.010929	 0.901042	 -0.380899	 0.207170	 2
1463629350.223	 15	 1.025001	 1.049157	 0.321911	 2.597718	 -0.762028	 -0.268864	 0.020864	 0.899495	 -0.388383	 0.199078	 2
1463629350.233	 15	 1.190930	 0.865417	 0.132249	 2.599780	 -0.770853	 -0.279204	 0.024610	 0.898156	 -0.393224	 0.195155	 2
1463629350.243	 15	 1.533042	 0.510689	 -0.097841	 2.598853	 -0.783365	 -0.289156	 0.027031	 0.895897	 -0.399632	 0.192180	 2
1463629350.253	 15	 1.958821	 0.044887	 -0.357403	 2.593333	 -0.800712	 -0.299265	 0.027831	 0.892358	 -0.408166	 0.190585	 2
1463629350.263	 15	 2.337338	 -0.524674	 -0.570625	 2.581828	 -0.822616	 -0.309948	 0.026855	 0.887422	 -0.418729	 0.190858	 2
1463629350.273	 15	 2.447178	 -0.880161	 -0.705978	 2.565323	 -0.846853	 -0.321073	 0.024465	 0.881527	 -0.430294	 0.192766	 2
1463629350.283	 15	 1.969884	 -0.567294	 -0.875827	 2.552897	 -0.869276	 -0.328424	 0.021379	 0.876306	 -0.440568	 0.193726	 2
1463629350.293	 15	 0.763090	 0.751534	 -0.783773	 2.557176	 -0.883164	 -0.327122	 0.019504	 0.874245	 -0.446199	 0.190320	 2
1463629350.303	 15	 -0.420042	 1.401366	 -0.386948	 2.577293	 -0.884319	 -0.319210	 0.020344	 0.875992	 -0.445743	 0.183132	 2
1463629350.313	 15	 -0.771489	 0.359380	 -0.040816	 2.589902	 -0.878777	 -0.311392	 0.020576	 0.878231	 -0.442576	 0.180038	 2
1463629350.323	 15	 -0.641996	 -0.709961	 0.247585	 2.587714	 -0.871944	 -0.308297	 0.019783	 0.879310	 -0.439437	 0.182532	 2
1463629350.333	 15	 -0.422797	 -1.588585	 0.324893	 2.573732	 -0.866193	 -0.308491	 0.017696	 0.879047	 -0.437161	 0.189352	 2
1463629350.343	 15	 -0.185340	 -2.135057	 0.304951	 2.551976	 -0.862441	 -0.310438	 0.014398	 0.877588	 -0.435946	 0.198954	 2
1463629350.353	 15	 0.053925	 -2.110052	 0.329745	 2.527399	 -0.860583	 -0.314438	 0.011100	 0.875383	 -0.435732	 0.209092	 2
1463629350.363	 15	 0.256079	 -1.608213	 0.385942	 2.504944	 -0.860116	 -0.320935	 0.009124	 0.873036	 -0.436344	 0.217553	 2
1463629350.373	 15	 0.352273	 -0.978152	 0.480492	 2.487058	 -0.860074	 -0.329572	 0.008990	 0.871032	 -0.437360	 0.223470	 2
1463629350.383	 15	 0.392712	 -0.443307	 0.622600	 2.473286	 -0.859466	 -0.340275	 0.010741	 0.869531	 -0.438383	 0.227204	 2
1463629350.393	 15	 0.375522	 -0.082118	 0.701780	 2.462597	 -0.858232	 -0.352232	 0.013815	 0.868444	 -0.439306	 0.229399	 2
1463629350.403	 15	 0.110895	 0.148422	 0.705163	 2.455857	 -0.855239	 -0.362483	 0.017338	 0.868085	 -0.439312	 0.230506	 2
1463629350.413	 15	 -0.229041	 0.085100	 0.636128	 2.452399	 -0.849924	 -0.368761	 0.020294	 0.868495	 -0.437897	 0.231409	 2
1463629350.423	 15	 -0.540995	 -0.349769	 0.530352	 2.448468	 -0.842861	 -0.370879	 0.021679	 0.869157	 -0.435297	 0.233695	 2
1463629350.433	 15	 -0.874898	 -0.697266	 0.437305	 2.443992	 -0.833805	 -0.368499	 0.021379	 0.870099	 -0.431358	 0.237488	 2
1463629350.443	 15	 -0.870951	 -0.694698	 0.353099	 2.439991	 -0.824429	 -0.364113	 0.020380	 0.871142	 -0.427028	 0.241542	 2
1463629350.453	 15	 -0.201768	 -0.136939	 0.242689	 2.437422	 -0.819608	 -0.363310	 0.020394	 0.871591	 -0.424977	 0.243533	 2
1463629350.463	 15	 0.342579	 0.914387	 0.088934	 2.440966	 -0.820666	 -0.367187	 0.022638	 0.871814	 -0.425843	 0.241010	 2
1463629350.473	 15	 0.188752	 1.761855	 -0.151229	 2.455799	 -0.823207	 -0.368607	 0.025943	 0.873161	 -0.426877	 0.233866	 2
1463629350.483	 15	 -0.151086	 1.854779	 -0.382928	 2.477860	 -0.824703	 -0.364195	 0.028447	 0.875514	 -0.426689	 0.224948	 2
1463629350.493	 15	 -0.315500	 1.296765	 -0.543356	 2.498789	 -0.825485	 -0.355636	 0.029016	 0.877827	 -0.425766	 0.217488	 2
1463629350.503	 15	 -0.224651	 0.489696	 -0.624129	 2.512737	 -0.826984	 -0.346120	 0.027542	 0.879219	 -0.425170	 0.213179	 2
1463629350.513	 15	 0.097111	 -0.261426	 -0.670156	 2.517747	 -0.830845	 -0.338226	 0.024476	 0.879219	 -0.425881	 0.212134	 2
1463629350.523	 15	 0.661479	 -0.903994	 -0.755652	 2.513457	 -0.839228	 -0.333849	 0.020203	 0.877414	 -0.428969	 0.213828	 2
1463629350.533	 15	 1.293976	 -1.323687	 -0.880167	 2.501184	 -0.853452	 -0.333728	 0.015044	 0.873691	 -0.434989	 0.217305	 2
1463629350.543	 15	 1.765813	 -1.448004	 -0.965364	 2.483906	 -0.872375	 -0.337594	 0.009605	 0.868533	 -0.443340	 0.221377	 2
1463629350.553	 15	 2.038634	 -1.496934	 -1.002299	 2.463701	 -0.894108	 -0.344571	 0.004179	 0.862474	 -0.453078	 0.225482	 2
1463629350.563	 15	 2.160642	 -1.638839	 -1.014274	 2.440283	 -0.917036	 -0.353995	 -0.001390	 0.855757	 -0.463428	 0.230027	 2
1463629350.573	 15	 2.109711	 -1.776126	 -1.046015	 2.414632	 -0.939964	 -0.364238	 -0.007419	 0.848705	 -0.473692	 0.235077	 2
1463629350.583	 15	 1.874897	 -1.768124	 -1.064146	 2.389472	 -0.961461	 -0.373267	 -0.013857	 0.841888	 -0.483065	 0.240170	 2
1463629350.593	 15	 1.580193	 -1.568434	 -1.073576	 2.367787	 -0.980804	 -0.379798	 -0.020312	 0.835796	 -0.491155	 0.244538	 2
1463629350.603	 15	 1.359730	 -1.238156	 -1.085636	 2.351091	 -0.998427	 -0.383901	 -0.026368	 0.830553	 -0.498201	 0.247552	 2
1463629350.613	 15	 1.227197	 -0.848320	 -1.062736	 2.339276	 -1.014858	 -0.386674	 -0.031620	 0.826076	 -0.504591	 0.248972	 2
1463629350.623	 15	 1.148009	 -0.489243	 -1.006483	 2.331339	 -1.030302	 -0.389243	 -0.035838	 0.822230	 -0.510569	 0.248942	 2
1463629350.633	 15	 1.096123	 -0.238612	 -0.933359	 2.325853	 -1.044823	 -0.392206	 -0.039119	 0.818845	 -0.516239	 0.247912	 2
1463629350.643	 15	 1.076721	 -0.117809	 -0.856397	 2.321138	 -1.058585	 -0.396038	 -0.041718	 0.815695	 -0.521704	 0.246428	 2
1463629350.653	 15	 1.071570	 -0.138549	 -0.785139	 2.315524	 -1.071768	 -0.401027	 -0.043993	 0.812555	 -0.527032	 0.245062	 2
1463629350.663	 15	 1.033819	 -0.275194	 -0.723202	 2.308094	 -1.084265	 -0.406794	 -0.046328	 0.809335	 -0.532119	 0.244297	 2
1463629350.673	 15	 1.004215	 -0.477952	 -0.681134	 2.298298	 -1.096151	 -0.413039	 -0.049023	 0.805952	 -0.536938	 0.244411	 2
1463629350.683	 15	 0.996834	 -0.707476	 -0.654430	 2.285632	 -1.107699	 -0.419975	 -0.052202	 0.802301	 -0.541594	 0.245487	 2
1463629350.693	 15	 0.992601	 -0.940270	 -0.637376	 2.269891	 -1.119027	 -0.427669	 -0.055944	 0.798335	 -0.546123	 0.247551	 2
1463629350.703	 15	 1.001337	 -1.126410	 -0.634921	 2.251423	 -1.130274	 -0.436135	 -0.060199	 0.794067	 -0.550571	 0.250411	 2
1463629350.713	 15	 1.037916	 -1.272383	 -0.655782	 2.230392	 -1.141732	 -0.445678	 -0.064892	 0.789466	 -0.555065	 0.253839	 2
1463629350.723	 15	 1.083223	 -1.364259	 -0.693267	 2.207148	 -1.153631	 -0.456434	 -0.069953	 0.784535	 -0.559696	 0.257586	 2
1463629350.733	 15	 1.123251	 -1.430706	 -0.746456	 2.182083	 -1.166076	 -0.468342	 -0.075348	 0.779305	 -0.564484	 0.261464	 2
1463629350.743	 15	 1.166469	 -1.490858	 -0.810272	 2.155277	 -1.179130	 -0.481426	 -0.081088	 0.773781	 -0.569434	 0.265391	 2
1463629350.753	 15	 1.217037	 -1.567065	 -0.884959	 2.126254	 -1.192925	 -0.496044	 -0.087236	 0.767898	 -0.574589	 0.269388	 2
1463629350.763	 15	 1.252429	 -1.692163	 -0.961035	 2.094670	 -1.207393	 -0.512150	 -0.093930	 0.761632	 -0.579873	 0.273571	 2
1463629350.773	 15	 1.253397	 -1.867221	 -1.046867	 2.060265	 -1.222450	 -0.529416	 -0.101388	 0.754959	 -0.585161	 0.278108	 2
1463629350.783	 15	 1.146734	 -2.024814	 -1.114548	 2.024793	 -1.237614	 -0.545951	 -0.109706	 0.748118	 -0.590093	 0.282973	 2
1463629350.793	 15	 0.918145	 -2.071987	 -1.111931	 1.991732	 -1.251901	 -0.558972	 -0.118601	 0.741612	 -0.594166	 0.287946	 2
1463629350.803	 15	 0.598222	 -1.837766	 -1.063270	 1.966573	 -1.264490	 -0.565312	 -0.127295	 0.736153	 -0.597062	 0.292218	 2
1463629350.813	 15	 0.328096	 -1.487466	 -0.974529	 1.951429	 -1.275210	 -0.564681	 -0.135100	 0.732023	 -0.598923	 0.295265	 2
1463629350.833	 16	 0.023508	 -1.071544	 -0.504400	 1.937566	 -1.288946	 -0.554460	 -0.146902	 0.726835	 -0.600156	 0.299905	 2
1463629350.843	 16	 -0.027296	 -1.052706	 -0.420653	 1.933036	 -1.292917	 -0.548287	 -0.151635	 0.724991	 -0.599961	 0.302394	 2
1463629350.853	 16	 -0.072753	 -1.186594	 -0.421503	 1.928761	 -1.296659	 -0.540836	 -0.156682	 0.723102	 -0.599509	 0.305227	 2
1463629350.863	 16	 -0.221717	 -1.359180	 -0.373853	 1.926223	 -1.299692	 -0.529757	 -0.162306	 0.721285	 -0.598425	 0.308695	 2
1463629350.873	 16	 -0.537564	 -1.434115	 -0.274815	 1.931063	 -1.300957	 -0.510000	 -0.168339	 0.720173	 -0.596100	 0.312534	 2
1463629350.883	 16	 -0.944529	 -1.459082	 -0.069010	 1.946409	 -1.299149	 -0.478957	 -0.174454	 0.720265	 -0.592032	 0.316674	 2
1463629350.893	 16	 -1.352061	 -1.239722	 0.241388	 1.972247	 -1.292962	 -0.438554	 -0.179721	 0.722002	 -0.586124	 0.320737	 2
1463629350.903	 16	 -1.769855	 -0.953157	 0.574881	 2.007359	 -1.281646	 -0.391324	 -0.183594	 0.725655	 -0.578362	 0.324370	 2
1463629350.913	 16	 -2.097572	 -0.697526	 0.785805	 2.048400	 -1.266056	 -0.340464	 -0.186367	 0.730907	 -0.569083	 0.327393	 2
1463629350.923	 16	 -2.375691	 -0.459929	 0.876765	 2.092912	 -1.247462	 -0.288229	 -0.188465	 0.737366	 -0.558721	 0.329548	 2
1463629350.933	 16	 -2.693254	 -0.197889	 0.949111	 2.140601	 -1.225971	 -0.234911	 -0.190074	 0.745017	 -0.547264	 0.330641	 2
1463629350.943	 16	 -3.028326	 0.220364	 0.995354	 2.192134	 -1.201229	 -0.180955	 -0.190974	 0.754098	 -0.534670	 0.330141	 2
1463629350.953	 16	 -3.263622	 1.020841	 0.988865	 2.248735	 -1.173909	 -0.128460	 -0.190415	 0.764828	 -0.521593	 0.326681	 2
1463629350.963	 16	 -3.233665	 2.317944	 1.078474	 2.309626	 -1.144784	 -0.083496	 -0.186591	 0.777385	 -0.509198	 0.318707	 2
1463629350.973	 16	 -2.997346	 3.758409	 1.366919	 2.371380	 -1.114248	 -0.052870	 -0.177767	 0.791589	 -0.498278	 0.305787	 2
1463629350.983	 16	 -2.707821	 4.910735	 1.690586	 2.431303	 -1.082889	 -0.037801	 -0.163992	 0.806731	 -0.488759	 0.288803	 2
1463629350.993	 16	 -2.479491	 5.567307	 1.973938	 2.487787	 -1.051250	 -0.035354	 -0.146613	 0.821921	 -0.480017	 0.269322	 2
1463629351.003	 16	 -2.287068	 5.619899	 2.263705	 2.537594	 -1.019523	 -0.043152	 -0.127124	 0.836296	 -0.471378	 0.249503	 2
1463629351.013	 16	 -2.060834	 4.939420	 2.533567	 2.575213	 -0.988194	 -0.059698	 -0.107224	 0.848909	 -0.462486	 0.232301	 2
1463629351.023	 16	 -1.703493	 3.423803	 2.681545	 2.594568	 -0.958908	 -0.082902	 -0.089095	 0.858696	 -0.453697	 0.221048	 2
1463629351.043	 17	 -1.149752	 -0.502768	 2.210684	 2.574889	 -0.910863	 -0.130528	 -0.066475	 0.868444	 -0.437786	 0.223002	 2
1463629351.053	 17	 -1.055365	 -1.911721	 1.854642	 2.545871	 -0.891249	 -0.147149	 -0.062743	 0.869573	 -0.430393	 0.233811	 2
1463629351.063	 17	 -1.025848	 -2.679455	 1.599984	 2.511308	 -0.873293	 -0.159174	 -0.062169	 0.869242	 -0.423133	 0.248015	 2
1463629351.073	 17	 -1.058857	 -2.751814	 1.435471	 2.477117	 -0.856046	 -0.167525	 -0.062951	 0.868347	 -0.415825	 0.262868	 2
1463629351.083	 17	 -1.092361	 -2.082337	 1.339679	 2.449936	 -0.839075	 -0.173251	 -0.063224	 0.867931	 -0.408569	 0.275263	 2
1463629351.093	 17	 -1.091758	 -1.003182	 1.283638	 2.434020	 -0.822342	 -0.177436	 -0.061739	 0.868770	 -0.401593	 0.283108	 2
1463629351.103	 17	 -0.976977	 0.029224	 1.280522	 2.428633	 -0.806339	 -0.181928	 -0.058048	 0.870867	 -0.395309	 0.286271	 2
1463629351.113	 17	 -0.817808	 0.719232	 1.306872	 2.429985	 -0.791351	 -0.187995	 -0.052487	 0.873726	 -0.389865	 0.286100	 2
1463629351.123	 17	 -0.691350	 1.054984	 1.309961	 2.434650	 -0.777343	 -0.195423	 -0.045855	 0.876857	 -0.385086	 0.284126	 2
1463629351.133	 17	 -0.603585	 1.145880	 1.266347	 2.440427	 -0.764296	 -0.203395	 -0.038945	 0.879926	 -0.380774	 0.281469	 2
1463629351.143	 17	 -0.491016	 1.098153	 1.183925	 2.446040	 -0.752546	 -0.211487	 -0.032247	 0.882696	 -0.376983	 0.278733	 2
1463629351.163	 18	 -0.168679	 0.802389	 1.009975	 2.452847	 -0.734228	 -0.228648	 -0.020161	 0.886655	 -0.371591	 0.274513	 2
1463629351.173	 18	 0.059190	 0.736482	 0.960485	 2.453534	 -0.728064	 -0.238724	 -0.014478	 0.887753	 -0.370328	 0.273025	 2
1463629351.183	 18	 0.294317	 0.860859	 0.899912	 2.454099	 -0.724078	 -0.250203	 -0.008572	 0.888480	 -0.370181	 0.271100	 2
1463629351.193	 18	 0.504412	 1.127666	 0.816370	 2.456359	 -0.722265	 -0.262658	 -0.002297	 0.889082	 -0.371088	 0.267996	 2
1463629351.203	 18	 0.687991	 1.449679	 0.707995	 2.461454	 -0.722624	 -0.275714	 0.004394	 0.889700	 -0.372973	 0.263260	 2
1463629351.213	 18	 0.795129	 1.668411	 0.553496	 2.469302	 -0.724924	 -0.288344	 0.011076	 0.890342	 -0.375572	 0.257127	 2
1463629351.223	 18	 0.869621	 1.777480	 0.370551	 2.479253	 -0.729028	 -0.299791	 0.017327	 0.890933	 -0.378710	 0.250035	 2
1463629351.233	 18	 0.934003	 1.802355	 0.160267	 2.490705	 -0.734991	 -0.309602	 0.022838	 0.891382	 -0.382355	 0.242326	 2
1463629351.243	 18	 1.010559	 1.757505	 -0.126441	 2.503275	 -0.743132	 -0.317207	 0.027238	 0.891594	 -0.386587	 0.234239	 2
1463629351.253	 18	 1.153608	 1.617270	 -0.486022	 2.516842	 -0.754508	 -0.321699	 0.029943	 0.891400	 -0.391776	 0.225879	 2
1463629351.263	 18	 1.371028	 1.318042	 -0.740088	 2.528846	 -0.769128	 -0.324566	 0.031135	 0.890466	 -0.398157	 0.218109	 2
1463629351.273	 18	 1.678937	 0.946444	 -0.963642	 2.537654	 -0.787420	 -0.326879	 0.030897	 0.888520	 -0.406067	 0.211392	 2
1463629351.283	 18	 2.069021	 0.526104	 -1.128683	 2.541811	 -0.809830	 -0.329924	 0.029403	 0.885304	 -0.415838	 0.206038	 2
1463629351.293	 18	 2.311048	 0.130958	 -1.252767	 2.541076	 -0.835456	 -0.334070	 0.026846	 0.880917	 -0.427087	 0.202141	 2
1463629351.303	 18	 2.058342	 -0.148068	 -1.404501	 2.539262	 -0.860995	 -0.335363	 0.022787	 0.876345	 -0.437940	 0.199272	 2
1463629351.313	 18	 1.395592	 -0.224231	 -1.321639	 2.539629	 -0.881721	 -0.331859	 0.017895	 0.872760	 -0.446221	 0.197118	 2
1463629351.323	 18	 0.280030	 0.666270	 -0.857085	 2.549364	 -0.892234	 -0.324049	 0.014939	 0.871876	 -0.449748	 0.193226	 2
1463629351.333	 18	 -0.461919	 0.848815	 -0.332032	 2.565327	 -0.891854	 -0.315189	 0.014720	 0.873534	 -0.448626	 0.188299	 2
1463629351.343	 18	 -0.437121	 0.047247	 -0.121225	 2.572831	 -0.888761	 -0.308952	 0.014162	 0.874852	 -0.446694	 0.186809	 2
1463629351.363	 19	 0.147264	 -1.489547	 -0.014854	 2.555782	 -0.887964	 -0.306845	 0.009561	 0.873384	 -0.446261	 0.194832	 2
1463629351.373	 19	 0.289759	 -2.013568	 -0.057206	 2.535486	 -0.890376	 -0.308627	 0.005411	 0.870918	 -0.447519	 0.202975	 2
1463629351.383	 19	 0.335700	 -2.244370	 -0.038439	 2.511544	 -0.893357	 -0.310925	 0.000545	 0.867886	 -0.449029	 0.212476	 2
1463629351.393	 19	 0.366415	 -1.984765	 0.132100	 2.487237	 -0.895718	 -0.315444	 -0.003371	 0.864825	 -0.450475	 0.221673	 2
1463629351.403	 19	 0.430251	 -1.287916	 0.329866	 2.466457	 -0.897208	 -0.323032	 -0.005047	 0.862235	 -0.451895	 0.228728	 2
1463629351.413	 19	 0.378267	 -0.461167	 0.500007	 2.452144	 -0.897537	 -0.332954	 -0.004072	 0.860548	 -0.453141	 0.232601	 2
1463629351.423	 19	 -0.119682	 -0.001643	 0.598143	 2.445485	 -0.894013	 -0.340357	 -0.001743	 0.860399	 -0.452566	 0.234296	 2
1463629351.443	 19	 -0.752456	 -0.642243	 0.300344	 2.440931	 -0.878752	 -0.339371	 -0.000346	 0.862491	 -0.446252	 0.238678	 2
1463629351.433	 19	 -0.579278	 -0.099661	 0.536221	 2.443607	 -0.886691	 -0.342308	 0.000037	 0.861448	 -0.449826	 0.235722	 2
1463629351.453	 19	 -0.667645	 -1.124902	 -0.074705	 2.435809	 -0.873242	 -0.332680	 -0.003341	 0.862806	 -0.443200	 0.243163	 2
1463629351.463	 19	 -0.422766	 -1.167606	 -0.437463	 2.431167	 -0.871823	 -0.323257	 -0.008166	 0.862451	 -0.441453	 0.247450	 2
1463629351.473	 19	 0.203872	 -0.661136	 -0.450995	 2.426902	 -0.875069	 -0.318001	 -0.011982	 0.861341	 -0.442100	 0.249993	 2
1463629351.483	 19	 0.829584	 0.394471	 -0.275032	 2.425351	 -0.882455	 -0.321421	 -0.012244	 0.859901	 -0.445520	 0.248860	 2
1463629351.493	 19	 0.788263	 1.303428	 -0.206525	 2.431935	 -0.890191	 -0.327731	 -0.009513	 0.859409	 -0.449471	 0.243518	 2
1463629351.503	 19	 0.285168	 1.359956	 -0.388127	 2.445554	 -0.895529	 -0.327957	 -0.007342	 0.860114	 -0.451720	 0.236852	 2
1463629351.513	 19	 -0.104151	 0.869519	 -0.560889	 2.460984	 -0.898686	 -0.321251	 -0.007318	 0.861337	 -0.452276	 0.231283	 2
1463629351.523	 19	 -0.299535	 0.080795	 -0.721062	 2.472634	 -0.900890	 -0.310065	 -0.009900	 0.862233	 -0.451940	 0.228488	 2
1463629351.533	 19	 -0.253838	 -0.727798	 -0.883520	 2.477913	 -0.903860	 -0.296557	 -0.015056	 0.862213	 -0.451645	 0.228864	 2
1463629351.553	 20	 0.959451	 -1.443650	 -1.132016	 2.467145	 -0.923304	 -0.277582	 -0.029074	 0.857155	 -0.457281	 0.235232	 2
1463629351.563	 20	 1.546936	 -1.106064	 -1.129726	 2.454786	 -0.941545	 -0.277857	 -0.035033	 0.852247	 -0.464531	 0.238032	 2
1463629351.573	 20	 1.659037	 -0.695393	 -1.068264	 2.443697	 -0.961226	 -0.281713	 -0.039523	 0.847212	 -0.472720	 0.239178	 2
1463629351.583	 20	 1.526943	 -0.449055	 -1.032849	 2.435581	 -0.979876	 -0.285591	 -0.043203	 0.842679	 -0.480472	 0.239107	 2
1463629351.593	 20	 1.408355	 -0.455276	 -1.058518	 2.429080	 -0.997582	 -0.288078	 -0.046973	 0.838446	 -0.487648	 0.238749	 2
1463629351.613	 21	 1.356688	 -0.647675	 -1.210131	 2.416317	 -1.033358	 -0.289645	 -0.056088	 0.829699	 -0.501546	 0.238551	 2
1463629351.623	 21	 1.312108	 -0.773473	 -1.268465	 2.409891	 -1.051592	 -0.288515	 -0.061576	 0.825106	 -0.508299	 0.238830	 2
1463629351.633	 21	 1.270865	 -0.895874	 -1.296954	 2.402995	 -1.069760	 -0.286476	 -0.067580	 0.820376	 -0.514833	 0.239507	 2
1463629351.643	 21	 1.241853	 -0.944655	 -1.288630	 2.395640	 -1.087706	 -0.284160	 -0.073807	 0.815557	 -0.521160	 0.240441	 2
1463629351.653	 21	 1.220139	 -0.852642	 -1.222573	 2.388248	 -1.105141	 -0.282519	 -0.079705	 0.810803	 -0.527298	 0.241252	 2
1463629351.663	 21	 1.188679	 -0.611289	 -1.100688	 2.381515	 -1.121623	 -0.282460	 -0.084643	 0.806346	 -0.533225	 0.241482	 2
1463629351.673	 21	 1.163041	 -0.288928	 -0.952521	 2.375842	 -1.136915	 -0.284612	 -0.088215	 0.802335	 -0.538959	 0.240832	 2
1463629351.683	 21	 1.163166	 0.065266	 -0.804283	 2.371152	 -1.151103	 -0.289496	 -0.090252	 0.798786	 -0.544603	 0.239171	 2
1463629351.693	 21	 1.181016	 0.346945	 -0.674991	 2.366791	 -1.164448	 -0.297391	 -0.090874	 0.795588	 -0.550262	 0.236631	 2
1463629351.703	 21	 1.183868	 0.441035	 -0.605932	 2.361843	 -1.177235	 -0.307392	 -0.090760	 0.792532	 -0.555887	 0.233764	 2
1463629351.713	 21	 1.165471	 0.367866	 -0.583006	 2.355779	 -1.189682	 -0.318212	 -0.090621	 0.789455	 -0.561379	 0.231088	 2
1463629351.723	 21	 1.142127	 0.167995	 -0.580399	 2.347671	 -1.201878	 -0.329336	 -0.090951	 0.786213	 -0.566670	 0.229092	 2
1463629351.733	 21	 1.122722	 -0.090483	 -0.591162	 2.336966	 -1.213951	 -0.340525	 -0.092042	 0.782709	 -0.571750	 0.228028	 2
1463629351.743	 21	 1.104313	 -0.363856	 -0.602071	 2.323273	 -1.225927	 -0.351945	 -0.093965	 0.778909	 -0.576624	 0.227984	 2
1463629351.753	 21	 1.079616	 -0.593770	 -0.635969	 2.307225	 -1.237897	 -0.363236	 -0.096718	 0.774847	 -0.581304	 0.228788	 2
1463629351.763	 21	 1.054110	 -0.756788	 -0.685224	 2.288300	 -1.250506	 -0.375444	 -0.100204	 0.770366	 -0.586092	 0.230199	 2
1463629351.773	 21	 1.036392	 -0.842263	 -0.745548	 2.270384	 -1.262813	 -0.385618	 -0.104230	 0.765984	 -0.590506	 0.231748	 2
1463629351.783	 21	 1.047686	 -0.889501	 -0.801506	 2.251902	 -1.275529	 -0.395768	 -0.108634	 0.761454	 -0.594935	 0.233322	 2
1463629351.793	 21	 1.100621	 -0.935769	 -0.853554	 2.231644	 -1.288857	 -0.407269	 -0.113310	 0.756667	 -0.599525	 0.234919	 2
1463629351.803	 21	 1.186507	 -1.005571	 -0.910366	 2.206470	 -1.302627	 -0.423036	 -0.118100	 0.751472	 -0.604358	 0.236842	 2
1463629351.813	 21	 1.231749	 -1.103890	 -0.956437	 2.179058	 -1.317470	 -0.440265	 -0.123456	 0.745901	 -0.609423	 0.238736	 2
1463629351.823	 21	 1.139368	 -1.227039	 -0.962108	 2.149624	 -1.331957	 -0.458140	 -0.129308	 0.740262	 -0.614158	 0.241043	 2
1463629351.833	 21	 0.905611	 -1.243311	 -0.953829	 2.124401	 -1.345287	 -0.471349	 -0.135490	 0.735135	 -0.618087	 0.243285	 2
1463629351.843	 21	 0.578418	 -1.239469	 -0.849697	 2.107075	 -1.356241	 -0.476384	 -0.141750	 0.730958	 -0.620728	 0.245568	 2
1463629351.853	 21	 0.269635	 -1.222539	 -0.693381	 2.098466	 -1.364321	 -0.472669	 -0.147813	 0.727850	 -0.622000	 0.247995	 2
1463629351.863	 21	 0.012222	 -1.172804	 -0.539339	 2.097504	 -1.369646	 -0.461478	 -0.153518	 0.725707	 -0.622080	 0.250596	 2
1463629351.873	 21	 -0.175837	 -1.091660	 -0.426107	 2.103429	 -1.372885	 -0.444116	 -0.158777	 0.724370	 -0.621302	 0.253104	 2
1463629351.883	 21	 -0.301208	 -1.044943	 -0.341452	 2.113831	 -1.374592	 -0.422740	 -0.163707	 0.723580	 -0.619925	 0.255587	 2
1463629351.893	 21	 -0.407395	 -0.996218	 -0.265470	 2.127568	 -1.375042	 -0.398448	 -0.168350	 0.723223	 -0.618080	 0.258037	 2
1463629351.903	 21	 -0.565639	 -0.933208	 -0.147338	 2.145030	 -1.373777	 -0.370971	 -0.172604	 0.723445	 -0.615623	 0.260468	 2
1463629351.913	 21	 -0.794225	 -0.881424	 0.007538	 2.167301	 -1.369983	 -0.339161	 -0.176412	 0.724503	 -0.612231	 0.262959	 2
1463629351.923	 21	 -1.066439	 -1.018922	 0.150375	 2.193812	 -1.363331	 -0.302191	 -0.180262	 0.726360	 -0.607604	 0.265941	 2
1463629351.933	 21	 -1.425882	 -1.313661	 0.281851	 2.224037	 -1.353431	 -0.258592	 -0.184887	 0.728938	 -0.601310	 0.269986	 2
1463629351.943	 21	 -1.915711	 -1.458801	 0.456353	 2.259840	 -1.339113	 -0.207147	 -0.190112	 0.732702	 -0.592878	 0.274775	 2
1463629351.953	 21	 -2.441549	 -1.337773	 0.652829	 2.301220	 -1.319451	 -0.150237	 -0.195174	 0.738156	 -0.582198	 0.279426	 2
1463629351.963	 21	 -2.839261	 -0.935624	 0.799649	 2.345780	 -1.295053	 -0.093221	 -0.199227	 0.745359	 -0.569885	 0.282807	 2
1463629351.973	 21	 -3.040813	 -0.343718	 0.939066	 2.389532	 -1.267269	 -0.042287	 -0.201533	 0.754003	 -0.556843	 0.284235	 2
1463629351.983	 21	 -3.072226	 0.514087	 1.146619	 2.430105	 -1.237136	 -0.002553	 -0.200986	 0.763956	 -0.543924	 0.283059	 2
1463629351.993	 21	 -2.980165	 1.696447	 1.425392	 2.468067	 -1.205357	 0.023200	 -0.196313	 0.775321	 -0.531817	 0.278405	 2
1463629352.003	 21	 -2.807383	 3.233951	 1.722753	 2.507189	 -1.172686	 0.034799	 -0.186328	 0.788292	 -0.521114	 0.268918	 2
1463629352.013	 21	 -2.624503	 4.649117	 2.021019	 2.549178	 -1.139686	 0.033444	 -0.170921	 0.802572	 -0.511823	 0.254365	 2
1463629352.023	 21	 -2.479599	 5.492067	 2.304700	 2.591621	 -1.106475	 0.021490	 -0.151466	 0.817281	 -0.503192	 0.236448	 2
1463629352.033	 21	 -2.303512	 5.677862	 2.622493	 2.629174	 -1.073372	 -0.000135	 -0.129513	 0.831363	 -0.494616	 0.217754	 2
1463629352.043	 21	 -2.092158	 5.187173	 2.950736	 2.656203	 -1.040798	 -0.030554	 -0.106614	 0.843921	 -0.485783	 0.201109	 2
1463629352.053	 21	 -1.792777	 4.025088	 3.132350	 2.668645	 -1.009872	 -0.066951	 -0.084790	 0.854165	 -0.476888	 0.189184	 2
1463629352.063	 21	 -1.363194	 2.387573	 3.073939	 2.664551	 -0.982590	 -0.105354	 -0.066198	 0.861440	 -0.468745	 0.183895	 2
1463629352.073	 21	 -0.983388	 0.784809	 2.801001	 2.646237	 -0.959709	 -0.141673	 -0.052023	 0.865846	 -0.461832	 0.185244	 2
1463629352.083	 21	 -0.770981	 -0.464113	 2.413447	 2.619291	 -0.940382	 -0.172613	 -0.042301	 0.868132	 -0.455907	 0.191588	 2
1463629352.093	 21	 -0.738810	 -1.268701	 2.064636	 2.588596	 -0.923078	 -0.197175	 -0.036197	 0.869143	 -0.450390	 0.201071	 2
1463629352.103	 21	 -0.803251	 -1.582101	 1.795840	 2.558289	 -0.906454	 -0.216030	 -0.032341	 0.869627	 -0.444802	 0.211787	 2
1463629352.113	 21	 -0.874885	 -1.413415	 1.561434	 2.532729	 -0.890269	 -0.229723	 -0.029532	 0.870170	 -0.439080	 0.221679	 2
1463629352.123	 21	 -0.877035	 -0.840135	 1.413318	 2.514576	 -0.874724	 -0.240233	 -0.026423	 0.871161	 -0.433480	 0.229077	 2
1463629352.133	 21	 -0.811934	 -0.087924	 1.325964	 2.504830	 -0.860071	 -0.249380	 -0.022127	 0.872798	 -0.428263	 0.233076	 2
1463629352.143	 21	 -0.706248	 0.614668	 1.306003	 2.502270	 -0.846387	 -0.258700	 -0.016322	 0.875008	 -0.423572	 0.233840	 2
1463629352.153	 21	 -0.602279	 1.165289	 1.302761	 2.505137	 -0.833584	 -0.268798	 -0.009150	 0.877622	 -0.419372	 0.231997	 2
1463629352.163	 21	 -0.540006	 1.486188	 1.284955	 2.511578	 -0.821492	 -0.279337	 -0.001151	 0.880444	 -0.415493	 0.228435	 2
1463629352.173	 21	 -0.480831	 1.634516	 1.229335	 2.519976	 -0.810150	 -0.289817	 0.007097	 0.883270	 -0.411862	 0.223952	 2
1463629352.183	 21	 -0.347044	 1.579117	 1.124276	 2.528822	 -0.800377	 -0.300145	 0.015098	 0.885796	 -0.408805	 0.219126	 2
1463629352.193	 21	 -0.275098	 1.073018	 1.031547	 2.533880	 -0.791994	 -0.310156	 0.021950	 0.887609	 -0.406279	 0.215885	 2
1463629352.203	 21	 -0.244216	 0.440627	 0.960382	 2.533163	 -0.784332	 -0.319468	 0.027206	 0.888637	 -0.404027	 0.215282	 2
1463629352.213	 21	 -0.132847	 0.111283	 0.910520	 2.528292	 -0.777670	 -0.328763	 0.031464	 0.889019	 -0.402264	 0.216423	 2
1463629352.223	 21	 0.058013	 0.135737	 0.839812	 2.522527	 -0.772763	 -0.338627	 0.035516	 0.888985	 -0.401343	 0.217641	 2
1463629352.233	 21	 0.271073	 0.347270	 0.762124	 2.517982	 -0.769991	 -0.349247	 0.039796	 0.888713	 -0.401407	 0.217895	 2
1463629352.243	 21	 0.446085	 0.641838	 0.679146	 2.515846	 -0.769181	 -0.360468	 0.044491	 0.888366	 -0.402328	 0.216699	 2
1463629352.253	 21	 0.562205	 0.915132	 0.571971	 2.516586	 -0.770002	 -0.371611	 0.049447	 0.888061	 -0.403858	 0.214012	 2
1463629352.263	 21	 0.653368	 1.130805	 0.429306	 2.520132	 -0.772399	 -0.382040	 0.054380	 0.887809	 -0.405884	 0.209993	 2
1463629352.273	 21	 0.743861	 1.241923	 0.241978	 2.525912	 -0.776582	 -0.391219	 0.058908	 0.887523	 -0.408436	 0.204968	 2
1463629352.283	 21	 0.831519	 1.244221	 0.007834	 2.533292	 -0.782831	 -0.398568	 0.062606	 0.887106	 -0.411587	 0.199296	 2
1463629352.293	 21	 0.897034	 1.086955	 -0.238260	 2.541068	 -0.791078	 -0.403588	 0.065027	 0.886457	 -0.415302	 0.193625	 2
1463629352.303	 21	 1.012492	 0.869050	 -0.466168	 2.548168	 -0.801474	 -0.406593	 0.066073	 0.885433	 -0.419722	 0.188351	 2
1463629352.313	 21	 1.210379	 0.692497	 -0.678424	 2.554172	 -0.814542	 -0.408381	 0.065923	 0.883879	 -0.425169	 0.183423	 2
1463629352.323	 21	 1.398910	 0.589181	 -0.915494	 2.559906	 -0.830614	 -0.408930	 0.064691	 0.881798	 -0.431750	 0.178436	 2
1463629352.333	 21	 1.375541	 0.518967	 -1.073677	 2.566459	 -0.848008	 -0.407251	 0.062472	 0.879561	 -0.438643	 0.173384	 2
1463629352.343	 21	 1.094969	 0.706431	 -1.003412	 2.575399	 -0.863581	 -0.403726	 0.060319	 0.877796	 -0.444544	 0.167975	 2
1463629352.353	 21	 0.377113	 1.432917	 -0.701580	 2.592154	 -0.872697	 -0.398190	 0.060143	 0.877760	 -0.447375	 0.160547	 2
1463629352.363	 21	 -0.317950	 0.912537	 -0.433930	 2.609579	 -0.873759	 -0.390313	 0.060409	 0.879183	 -0.446673	 0.154504	 2
1463629352.373	 21	 -0.533111	 -0.324267	 -0.203769	 2.615363	 -0.870688	 -0.382700	 0.058826	 0.880400	 -0.444628	 0.154081	 2
1463629352.383	 21	 -0.308224	 -1.536373	 0.089933	 2.605041	 -0.867274	 -0.379908	 0.055837	 0.880275	 -0.443273	 0.159712	 2
1463629352.393	 21	 0.139110	 -2.373036	 0.325510	 2.580208	 -0.866037	 -0.383670	 0.052181	 0.878343	 -0.443737	 0.169968	 2
1463629352.403	 21	 0.574447	 -2.733845	 0.467569	 2.546159	 -0.867603	 -0.393333	 0.048582	 0.874829	 -0.446096	 0.182518	 2
1463629352.413	 21	 0.807255	 -2.779569	 0.563166	 2.507893	 -0.870759	 -0.406977	 0.045417	 0.870355	 -0.449583	 0.195690	 2
1463629352.423	 21	 0.758643	 -2.596304	 0.734751	 2.469167	 -0.872833	 -0.422851	 0.043189	 0.865745	 -0.452888	 0.208597	 2
1463629352.433	 21	 0.537851	 -2.080322	 0.956759	 2.433972	 -0.871728	 -0.439645	 0.042666	 0.861790	 -0.455000	 0.220163	 2
1463629352.443	 21	 0.106616	 -1.267963	 1.042676	 2.408218	 -0.866623	 -0.454014	 0.044008	 0.859388	 -0.455142	 0.228826	 2
1463629352.453	 21	 -0.400041	 -0.646331	 0.904731	 2.394420	 -0.858169	 -0.461940	 0.046007	 0.858901	 -0.453029	 0.234388	 2
1463629352.463	 21	 -0.757380	 -0.368712	 0.616275	 2.389756	 -0.848404	 -0.462555	 0.047233	 0.859793	 -0.449353	 0.237921	 2
1463629352.473	 21	 -0.775862	 -0.166812	 0.290060	 2.390567	 -0.840062	 -0.458433	 0.047364	 0.861217	 -0.445539	 0.239912	 2
1463629352.483	 21	 -0.223247	 0.200153	 0.074449	 2.393608	 -0.836333	 -0.455666	 0.047614	 0.862194	 -0.443654	 0.239847	 2
1463629352.503	 22	 0.693577	 1.445535	 -0.302422	 2.406272	 -0.846199	 -0.463881	 0.051962	 0.862023	 -0.448225	 0.230889	 2
1463629352.513	 22	 0.116857	 1.842727	 -0.617696	 2.426504	 -0.851895	 -0.460612	 0.053946	 0.863543	 -0.449586	 0.221934	 2
1463629352.523	 22	 -0.492166	 1.628225	 -0.815818	 2.453062	 -0.854194	 -0.448161	 0.054072	 0.866412	 -0.448436	 0.212863	 2
1463629352.533	 22	 -0.812591	 0.984884	 -0.925591	 2.478195	 -0.853970	 -0.430257	 0.051963	 0.869554	 -0.445805	 0.205993	 2
1463629352.543	 22	 -0.815581	 0.172948	 -0.982146	 2.496685	 -0.853256	 -0.410778	 0.047722	 0.872043	 -0.443064	 0.202382	 2
1463629352.553	 22	 -0.475591	 -0.655050	 -0.915010	 2.504811	 -0.854194	 -0.394002	 0.042032	 0.873088	 -0.441569	 0.202406	 2
1463629352.563	 22	 0.215005	 -1.219578	 -0.748294	 2.500922	 -0.859100	 -0.384487	 0.036146	 0.872064	 -0.442691	 0.205482	 2
1463629352.573	 22	 0.994133	 -1.294446	 -0.637475	 2.488284	 -0.869499	 -0.383935	 0.031227	 0.869021	 -0.447109	 0.209572	 2
1463629352.584	 22	 1.495992	 -1.018228	 -0.625419	 2.472932	 -0.884322	 -0.389598	 0.027515	 0.864815	 -0.453965	 0.212729	 2
1463629352.593	 22	 1.744829	 -0.738293	 -0.643099	 2.458007	 -0.901492	 -0.398533	 0.024747	 0.860178	 -0.462038	 0.214484	 2
1463629352.604	 22	 1.968007	 -0.683859	 -0.673311	 2.442082	 -0.920462	 -0.410057	 0.022357	 0.855063	 -0.471031	 0.215630	 2
1463629352.614	 22	 2.131436	 -0.833627	 -0.726218	 2.423100	 -0.941015	 -0.423911	 0.019729	 0.849293	 -0.480825	 0.217073	 2
1463629352.623	 22	 2.138370	 -1.073820	 -0.844682	 2.401395	 -0.962429	 -0.438140	 0.016181	 0.843047	 -0.490883	 0.219188	 2
1463629352.634	 22	 1.983923	 -1.327682	 -1.006629	 2.378747	 -0.983854	 -0.450256	 0.011239	 0.836686	 -0.500563	 0.221963	 2
1463629352.644	 22	 1.715315	 -1.568507	 -1.177054	 2.356917	 -1.004574	 -0.458286	 0.004696	 0.830529	 -0.509344	 0.225319	 2
1463629352.654	 22	 1.383080	 -1.747255	 -1.319702	 2.337509	 -1.024048	 -0.461043	 -0.003341	 0.824827	 -0.516890	 0.229074	 2
1463629352.663	 22	 1.034595	 -1.804246	 -1.399262	 2.321832	 -1.041792	 -0.458351	 -0.012408	 0.819780	 -0.523024	 0.232920	 2
1463629352.674	 22	 0.754340	 -1.696176	 -1.423526	 2.310832	 -1.057773	 -0.451051	 -0.021810	 0.815479	 -0.527883	 0.236343	 2
1463629352.684	 22	 0.625398	 -1.441500	 -1.410442	 2.304228	 -1.072606	 -0.441306	 -0.030810	 0.811781	 -0.531998	 0.238832	 2
1463629352.693	 22	 0.637904	 -1.080733	 -1.377352	 2.301033	 -1.087104	 -0.431591	 -0.038808	 0.808455	 -0.535995	 0.240009	 2
1463629352.704	 22	 0.730253	 -0.653065	 -1.473292	 2.302086	 -1.102605	 -0.421902	 -0.045851	 0.805348	 -0.540413	 0.239304	 2
1463629352.714	 22	 0.915591	 -0.331909	 -1.405840	 2.304395	 -1.119005	 -0.414788	 -0.051677	 0.802175	 -0.545482	 0.237264	 2
1463629352.723	 22	 1.130163	 -0.167024	 -1.315585	 2.304403	 -1.136145	 -0.412622	 -0.056282	 0.798627	 -0.551322	 0.234674	 2
1463629352.734	 22	 1.282590	 -0.248989	 -1.263321	 2.300519	 -1.153975	 -0.414561	 -0.060480	 0.794540	 -0.557729	 0.232352	 2
1463629352.754	 23	 1.263202	 -1.028014	 -1.188337	 2.278087	 -1.189608	 -0.423509	 -0.071142	 0.784732	 -0.570404	 0.231891	 2
1463629352.763	 23	 1.196993	 -1.509463	 -1.164531	 2.259737	 -1.206354	 -0.428325	 -0.078279	 0.779209	 -0.575984	 0.234410	 2
1463629352.773	 23	 1.130328	 -1.898060	 -1.097226	 2.236408	 -1.222266	 -0.433879	 -0.086504	 0.773283	 -0.581017	 0.238682	 2
1463629352.784	 23	 1.028531	 -2.080944	 -0.984005	 2.209645	 -1.236732	 -0.440565	 -0.095102	 0.767274	 -0.585378	 0.244086	 2
1463629352.794	 23	 0.898599	 -2.139139	 -0.848064	 2.181312	 -1.249346	 -0.448015	 -0.103572	 0.761470	 -0.588975	 0.250089	 2
1463629352.804	 23	 0.816010	 -2.071284	 -0.764649	 2.152691	 -1.260490	 -0.456085	 -0.111667	 0.755938	 -0.591998	 0.256178	 2
1463629352.814	 23	 0.801754	 -1.925533	 -0.765300	 2.124589	 -1.271181	 -0.464930	 -0.119324	 0.750583	 -0.594853	 0.261796	 2
1463629352.824	 23	 0.863028	 -1.778329	 -0.828410	 2.096295	 -1.282487	 -0.475588	 -0.126635	 0.745171	 -0.597975	 0.266662	 2
1463629352.834	 23	 0.910152	 -1.677985	 -0.905687	 2.067038	 -1.294610	 -0.488274	 -0.133828	 0.739599	 -0.601397	 0.270933	 2
1463629352.844	 23	 0.836386	 -1.473607	 -0.912735	 2.039263	 -1.306731	 -0.501189	 -0.140635	 0.734266	 -0.604788	 0.274420	 2
1463629352.854	 23	 0.548053	 -1.086464	 -0.884241	 2.020957	 -1.317540	 -0.507803	 -0.146648	 0.730072	 -0.607473	 0.276525	 2
1463629352.864	 23	 0.199716	 -0.613290	 -0.749979	 2.017002	 -1.325888	 -0.504324	 -0.151360	 0.727604	 -0.609057	 0.277006	 2
1463629352.874	 23	 -0.067805	 -0.376912	 -0.676176	 2.025358	 -1.332060	 -0.491457	 -0.155140	 0.726530	 -0.609662	 0.276401	 2
1463629352.884	 23	 -0.188436	 -0.391396	 -0.668866	 2.040135	 -1.337284	 -0.472364	 -0.158945	 0.725993	 -0.609678	 0.275613	 2
1463629352.894	 23	 -0.210360	 -0.495726	 -0.690961	 2.056760	 -1.342399	 -0.450511	 -0.163132	 0.725440	 -0.609487	 0.275045	 2
1463629352.904	 23	 -0.224412	 -0.708846	 -0.751439	 2.073830	 -1.347826	 -0.426355	 -0.168067	 0.724607	 -0.609170	 0.274975	 2
1463629352.914	 23	 -0.287851	 -0.985631	 -0.811013	 2.092675	 -1.353483	 -0.397655	 -0.174123	 0.723479	 -0.608514	 0.275626	 2
1463629352.924	 23	 -0.389814	 -1.151944	 -0.759451	 2.113999	 -1.358379	 -0.364354	 -0.180860	 0.722340	 -0.607287	 0.276978	 2
1463629352.934	 23	 -0.507731	 -1.187528	 -0.580773	 2.136628	 -1.361225	 -0.329116	 -0.187385	 0.721564	 -0.605351	 0.278897	 2
1463629352.944	 23	 -0.617081	 -1.251556	 -0.360869	 2.158312	 -1.361494	 -0.294385	 -0.193425	 0.721229	 -0.602634	 0.281510	 2
1463629352.954	 23	 -0.774922	 -1.402760	 -0.155210	 2.178251	 -1.359100	 -0.260069	 -0.199287	 0.721284	 -0.598964	 0.285090	 2
1463629352.964	 23	 -1.104631	 -1.525086	 0.003190	 2.201871	 -1.353518	 -0.220536	 -0.205335	 0.722103	 -0.593853	 0.289384	 2
1463629352.974	 23	 -1.596278	 -1.411467	 0.218483	 2.234776	 -1.343382	 -0.171782	 -0.211222	 0.724469	 -0.586784	 0.293623	 2
1463629352.984	 23	 -2.070672	 -1.043610	 0.445583	 2.276382	 -1.327993	 -0.117270	 -0.216020	 0.728897	 -0.577883	 0.296810	 2
1463629352.994	 23	 -2.424368	 -0.641114	 0.658100	 2.321274	 -1.307819	 -0.063316	 -0.219400	 0.735192	 -0.567579	 0.298681	 2
1463629353.004	 23	 -2.559334	 -0.358315	 0.733313	 2.363643	 -1.285108	 -0.014680	 -0.221813	 0.742412	 -0.556691	 0.299529	 2
1463629353.014	 23	 -2.640666	 0.064902	 0.979887	 2.400233	 -1.259864	 0.024215	 -0.222501	 0.750546	 -0.545495	 0.299348	 2
1463629353.023	 23	 -2.832983	 1.121683	 1.280217	 2.436227	 -1.231062	 0.053604	 -0.219903	 0.760593	 -0.534101	 0.296441	 2
1463629353.033	 23	 -2.828408	 2.994519	 1.550190	 2.478908	 -1.199673	 0.072532	 -0.211821	 0.773358	 -0.523715	 0.287700	 2
1463629353.043	 23	 -2.592752	 4.664373	 1.936694	 2.524747	 -1.167372	 0.075620	 -0.197225	 0.788171	 -0.515149	 0.272967	 2
1463629353.053	 23	 -2.288176	 5.576603	 2.304890	 2.567393	 -1.135406	 0.063272	 -0.177762	 0.803407	 -0.507879	 0.254945	 2
1463629353.063	 23	 -1.964386	 5.812312	 2.671952	 2.602400	 -1.104405	 0.037817	 -0.155204	 0.817830	 -0.501238	 0.236276	 2
1463629353.073	 23	 -1.621356	 5.449586	 2.952280	 2.626636	 -1.075144	 0.002344	 -0.131364	 0.830486	 -0.494915	 0.219307	 2
1463629353.083	 23	 -1.384217	 4.734871	 3.052272	 2.640978	 -1.047832	 -0.037819	 -0.108035	 0.841076	 -0.488653	 0.205274	 2
1463629353.093	 23	 -1.296991	 3.642507	 2.935838	 2.646677	 -1.022157	 -0.076874	 -0.087220	 0.849627	 -0.482078	 0.195260	 2
1463629353.103	 23	 -1.487595	 2.407048	 2.628653	 2.646690	 -0.996757	 -0.109120	 -0.070464	 0.856721	 -0.474484	 0.189547	 2
1463629353.113	 23	 -1.886098	 1.033539	 2.267640	 2.642066	 -0.969879	 -0.131156	 -0.058798	 0.862960	 -0.465050	 0.188607	 2
1463629353.123	 23	 -2.167832	 -0.076047	 1.974144	 2.632918	 -0.941505	 -0.144520	 -0.051545	 0.868545	 -0.454010	 0.191959	 2
1463629353.143	 24	 -1.853426	 -1.134338	 1.515004	 2.604472	 -0.889141	 -0.158405	 -0.044890	 0.876734	 -0.432307	 0.205993	 2
1463629353.154	 24	 -1.369099	 -1.035884	 1.353971	 2.588681	 -0.869148	 -0.164920	 -0.042653	 0.879108	 -0.424053	 0.213374	 2
1463629353.163	 24	 -0.902142	 -0.793618	 1.216807	 2.574120	 -0.853918	 -0.172892	 -0.040048	 0.880581	 -0.418063	 0.219539	 2
1463629353.174	 24	 -0.551801	 -0.643288	 1.114974	 2.560392	 -0.842459	 -0.182187	 -0.037135	 0.881356	 -0.413901	 0.224761	 2
1463629353.184	 24	 -0.440856	 -0.562490	 1.008184	 2.547766	 -0.832969	 -0.191355	 -0.034275	 0.881809	 -0.410638	 0.229380	 2
1463629353.194	 24	 -0.524102	 -0.474737	 0.902083	 2.537504	 -0.823632	 -0.198509	 -0.031788	 0.882403	 -0.407286	 0.233393	 2
1463629353.204	 24	 -0.607197	 -0.394089	 0.842809	 2.529478	 -0.813927	 -0.203841	 -0.029551	 0.883241	 -0.403622	 0.236856	 2
1463629353.214	 24	 -0.624016	 -0.315543	 0.813845	 2.522842	 -0.804075	 -0.208315	 -0.027352	 0.884211	 -0.399828	 0.239918	 2
1463629353.224	 24	 -0.571044	 -0.167889	 0.809429	 2.517526	 -0.794594	 -0.212812	 -0.024909	 0.885235	 -0.396225	 0.242372	 2
1463629353.234	 24	 -0.440634	 0.066048	 0.854166	 2.513507	 -0.785806	 -0.218508	 -0.021764	 0.886278	 -0.393091	 0.243961	 2
1463629353.243	 24	 -0.261935	 0.356215	 0.899007	 2.510976	 -0.778071	 -0.226085	 -0.017645	 0.887314	 -0.390662	 0.244429	 2
1463629353.253	 24	 -0.073725	 0.673599	 0.887532	 2.510529	 -0.771829	 -0.235206	 -0.012664	 0.888339	 -0.389085	 0.243529	 2
1463629353.264	 24	 0.078858	 0.949220	 0.822691	 2.512564	 -0.767231	 -0.245008	 -0.007159	 0.889369	 -0.388304	 0.241228	 2
1463629353.273	 24	 0.182902	 1.135466	 0.733994	 2.516699	 -0.764075	 -0.254813	 -0.001476	 0.890386	 -0.388128	 0.237839	 2
1463629353.283	 24	 0.259110	 1.319522	 0.625270	 2.523128	 -0.762232	 -0.264041	 0.004185	 0.891427	 -0.388417	 0.233393	 2
1463629353.294	 24	 0.391984	 1.293932	 0.523693	 2.529913	 -0.761963	 -0.273141	 0.009606	 0.892222	 -0.389329	 0.228629	 2
1463629353.303	 24	 0.524370	 1.202078	 0.377808	 2.536263	 -0.763607	 -0.281729	 0.014410	 0.892631	 -0.390970	 0.223929	 2
1463629353.313	 24	 0.682021	 1.058906	 0.205647	 2.541783	 -0.767456	 -0.289617	 0.018391	 0.892574	 -0.393457	 0.219464	 2
1463629353.324	 24	 0.893866	 0.886682	 0.009297	 2.546046	 -0.774041	 -0.296851	 0.021399	 0.891927	 -0.397032	 0.215347	 2
1463629353.354	 26	 1.892993	 0.441140	 -0.744253	 2.549914	 -0.817136	 -0.316990	 0.024172	 0.885103	 -0.417500	 0.204211	 2
1463629353.363	 26	 2.009786	 0.502987	 -0.968505	 2.550764	 -0.838934	 -0.322244	 0.023135	 0.881448	 -0.427241	 0.199945	 2
1463629353.373	 26	 1.488373	 1.053292	 -0.974830	 2.558247	 -0.858327	 -0.323773	 0.022283	 0.878807	 -0.435470	 0.193823	 2
1463629353.384	 26	 0.396469	 1.243499	 -0.707770	 2.574890	 -0.868181	 -0.319221	 0.022353	 0.878692	 -0.438994	 0.186241	 2
1463629353.393	 26	 -0.258348	 -0.092164	 -0.354270	 2.582939	 -0.869412	 -0.312259	 0.020867	 0.879290	 -0.438781	 0.184076	 2
1463629353.403	 26	 -0.280383	 -1.412897	 -0.032785	 2.574947	 -0.867377	 -0.308293	 0.017689	 0.878950	 -0.437631	 0.188713	 2
1463629353.414	 26	 0.069715	 -2.305388	 0.238289	 2.552252	 -0.866162	 -0.310303	 0.013799	 0.876956	 -0.437493	 0.198389	 2
1463629353.424	 26	 0.491836	 -2.758643	 0.387063	 2.519557	 -0.867328	 -0.318256	 0.009923	 0.873358	 -0.438988	 0.210802	 2
1463629353.434	 26	 0.767778	 -2.975393	 0.529719	 2.480547	 -0.870115	 -0.330955	 0.006381	 0.868575	 -0.441683	 0.224618	 2
1463629353.444	 26	 0.750333	 -3.034184	 0.775515	 2.437945	 -0.871670	 -0.347023	 0.003618	 0.863328	 -0.444290	 0.239285	 2
1463629353.454	 26	 0.563177	 -2.761766	 1.158025	 2.395212	 -0.869226	 -0.365545	 0.002556	 0.858435	 -0.445653	 0.253922	 2
1463629353.464	 26	 0.371044	 -1.904834	 1.473546	 2.358259	 -0.862514	 -0.385723	 0.004324	 0.854665	 -0.445662	 0.266297	 2
1463629353.474	 26	 0.048908	 -0.761405	 1.496582	 2.334456	 -0.852724	 -0.403460	 0.008659	 0.852894	 -0.444265	 0.274089	 2
1463629353.484	 26	 -0.417985	 0.000870	 1.260487	 2.325035	 -0.840966	 -0.413935	 0.013564	 0.853280	 -0.441134	 0.277723	 2
1463629353.504	 27	 -0.355372	 0.284936	 0.564511	 2.326459	 -0.821680	 -0.418899	 0.020161	 0.856210	 -0.434209	 0.279213	 2
1463629353.514	 27	 0.266092	 0.389412	 0.262724	 2.326542	 -0.819971	 -0.423483	 0.022510	 0.856414	 -0.434173	 0.278465	 2
1463629353.524	 27	 0.462876	 0.976791	 -0.060712	 2.330759	 -0.822984	 -0.428639	 0.024985	 0.856512	 -0.436025	 0.275037	 2
1463629353.534	 27	 -0.000754	 1.629667	 -0.419354	 2.347065	 -0.826319	 -0.426794	 0.027039	 0.858275	 -0.436882	 0.267895	 2
1463629353.544	 27	 -0.570583	 1.650559	 -0.701954	 2.372175	 -0.827712	 -0.415542	 0.027386	 0.861535	 -0.435611	 0.259326	 2
1463629353.554	 27	 -0.955430	 1.221640	 -0.896563	 2.398891	 -0.827202	 -0.397544	 0.025520	 0.865263	 -0.432753	 0.251781	 2
1463629353.564	 27	 -1.065822	 0.555177	 -1.029695	 2.422015	 -0.825998	 -0.376093	 0.021442	 0.868579	 -0.429321	 0.246564	 2
1463629353.574	 27	 -0.753896	 -0.272261	 -1.043308	 2.436102	 -0.826320	 -0.356084	 0.015696	 0.870445	 -0.426864	 0.244675	 2
1463629353.584	 27	 -0.031132	 -0.964028	 -0.955857	 2.437722	 -0.830916	 -0.342848	 0.009417	 0.869998	 -0.427119	 0.246138	 2
1463629353.594	 27	 0.745304	 -1.094734	 -0.919071	 2.430387	 -0.841172	 -0.337811	 0.003725	 0.867457	 -0.430730	 0.248949	 2
1463629353.604	 27	 1.259697	 -0.672643	 -0.880189	 2.421464	 -0.855713	 -0.339067	 -0.000426	 0.863970	 -0.436836	 0.250461	 2
1463629353.614	 27	 1.565071	 -0.237022	 -0.820177	 2.413915	 -0.872423	 -0.344646	 -0.002888	 0.860263	 -0.444309	 0.250058	 2
1463629353.624	 27	 1.883045	 -0.087408	 -0.740556	 2.405109	 -0.890936	 -0.354672	 -0.004154	 0.856072	 -0.452996	 0.248836	 2
1463629353.634	 27	 2.115821	 -0.154281	 -0.628102	 2.392159	 -0.910562	 -0.369515	 -0.004654	 0.851158	 -0.462629	 0.247958	 2
1463629353.644	 27	 2.152222	 -0.321667	 -0.668344	 2.376187	 -0.930673	 -0.386164	 -0.005376	 0.845769	 -0.472563	 0.247647	 2
1463629353.654	 27	 2.040481	 -0.593546	 -0.804187	 2.358595	 -0.950883	 -0.401490	 -0.007280	 0.840144	 -0.482249	 0.248076	 2
1463629353.664	 27	 1.825901	 -0.924884	 -0.967398	 2.340311	 -0.970714	 -0.413551	 -0.010859	 0.834471	 -0.491253	 0.249422	 2
1463629353.674	 27	 1.549467	 -1.253856	 -1.122588	 2.322206	 -0.989745	 -0.421220	 -0.016243	 0.828913	 -0.499274	 0.251726	 2
1463629353.684	 27	 1.274754	 -1.461434	 -1.257480	 2.305530	 -1.007836	 -0.424141	 -0.023183	 0.823622	 -0.506222	 0.254653	 2
1463629353.694	 27	 1.075959	 -1.447691	 -1.349408	 2.291682	 -1.025218	 -0.423220	 -0.030936	 0.818717	 -0.512326	 0.257425	 2
1463629353.704	 27	 0.953985	 -1.237181	 -1.410333	 2.281561	 -1.042150	 -0.419838	 -0.038703	 0.814266	 -0.517900	 0.259331	 2
1463629353.714	 27	 0.879556	 -0.899203	 -1.474748	 2.276602	 -1.059159	 -0.414199	 -0.046095	 0.810349	 -0.523234	 0.259685	 2
1463629353.724	 27	 0.876478	 -0.512311	 -1.365611	 2.274814	 -1.075442	 -0.409255	 -0.052211	 0.806917	 -0.528422	 0.258706	 2
1463629353.734	 27	 0.921194	 -0.173428	 -1.257336	 2.274902	 -1.091102	 -0.406323	 -0.056870	 0.803831	 -0.533666	 0.256556	 2
1463629353.744	 27	 0.941669	 0.027055	 -1.176783	 2.275921	 -1.106278	 -0.405044	 -0.060494	 0.800949	 -0.538952	 0.253678	 2
1463629353.754	 27	 0.946316	 0.065689	 -1.127439	 2.276950	 -1.121061	 -0.404605	 -0.063681	 0.798119	 -0.544180	 0.250636	 2
1463629353.764	 27	 0.963112	 -0.020280	 -1.095346	 2.276783	 -1.135675	 -0.404876	 -0.066866	 0.795152	 -0.549371	 0.247898	 2
1463629353.774	 27	 0.973281	 -0.172014	 -1.041427	 2.274248	 -1.150012	 -0.406209	 -0.070224	 0.791947	 -0.554482	 0.245840	 2
1463629353.784	 27	 0.984355	 -0.365173	 -0.979375	 2.268617	 -1.163930	 -0.408916	 -0.073826	 0.788472	 -0.559461	 0.244672	 2
1463629353.794	 27	 1.008247	 -0.556236	 -0.916350	 2.259381	 -1.177494	 -0.413401	 -0.077700	 0.784683	 -0.564344	 0.244441	 2
1463629353.804	 27	 1.037557	 -0.719752	 -0.865904	 2.246527	 -1.190800	 -0.419927	 -0.081804	 0.780581	 -0.569177	 0.245029	 2
1463629353.824	 28	 1.064381	 -0.964038	 -0.807662	 2.211394	 -1.216818	 -0.438633	 -0.090653	 0.771601	 -0.578682	 0.248073	 2
1463629353.834	 28	 1.052367	 -1.024609	 -0.804924	 2.190842	 -1.229541	 -0.449715	 -0.095379	 0.766901	 -0.583271	 0.250121	 2
1463629353.844	 28	 1.053194	 -1.060900	 -0.822321	 2.168970	 -1.242251	 -0.461744	 -0.100256	 0.762103	 -0.587802	 0.252264	 2
1463629353.854	 28	 1.082594	 -1.126182	 -0.865815	 2.145274	 -1.255287	 -0.475062	 -0.105399	 0.757099	 -0.592386	 0.254501	 2
1463629353.864	 28	 1.138215	 -1.261970	 -0.941100	 2.118614	 -1.269047	 -0.490205	 -0.111074	 0.751701	 -0.597132	 0.256985	 2
1463629353.874	 28	 1.168879	 -1.472250	 -1.031783	 2.088284	 -1.283652	 -0.507125	 -0.117583	 0.745806	 -0.601988	 0.259919	 2
1463629353.884	 28	 1.064282	 -1.662660	 -1.077406	 2.056316	 -1.298340	 -0.523500	 -0.125020	 0.739702	 -0.606499	 0.263381	 2
1463629353.894	 28	 0.805295	 -1.603297	 -1.062875	 2.029108	 -1.311848	 -0.534675	 -0.132797	 0.734174	 -0.610083	 0.266744	 2
1463629353.904	 28	 0.466973	 -1.519228	 -0.900348	 2.010219	 -1.322834	 -0.538185	 -0.140268	 0.729746	 -0.612338	 0.269885	 2
1463629353.914	 28	 0.129627	 -1.274159	 -0.683044	 2.001639	 -1.330376	 -0.533219	 -0.146764	 0.726762	 -0.613134	 0.272663	 2
1463629353.924	 28	 -0.081862	 -0.981079	 -0.540992	 2.002360	 -1.335413	 -0.521610	 -0.152129	 0.725005	 -0.612989	 0.274715	 2
1463629353.934	 28	 -0.183638	 -0.693963	 -0.443647	 2.009199	 -1.338961	 -0.506741	 -0.156380	 0.724094	 -0.612454	 0.275922	 2
1463629353.944	 28	 -0.271976	 -0.481492	 -0.367363	 2.020429	 -1.341372	 -0.489752	 -0.159738	 0.723813	 -0.611671	 0.276472	 2
1463629353.954	 28	 -0.388419	 -0.322315	 -0.317975	 2.037305	 -1.342792	 -0.468949	 -0.162486	 0.724175	 -0.610559	 0.276380	 2
1463629353.964	 28	 -0.566997	 -0.325783	 -0.135272	 2.057771	 -1.342138	 -0.444873	 -0.164802	 0.725173	 -0.608717	 0.276456	 2
1463629353.974	 28	 -0.889043	 -0.686981	 0.086915	 2.081240	 -1.337996	 -0.414873	 -0.167524	 0.726837	 -0.605285	 0.277981	 2
1463629353.984	 28	 -1.332197	 -1.321709	 0.235139	 2.109043	 -1.330186	 -0.374381	 -0.171973	 0.729043	 -0.599608	 0.281764	 2
1463629353.994	 28	 -1.917998	 -1.888943	 0.392694	 2.143607	 -1.317904	 -0.320593	 -0.178443	 0.732095	 -0.591126	 0.287689	 2
1463629354.004	 28	 -2.534184	 -2.165252	 0.615035	 2.184557	 -1.299941	 -0.256260	 -0.186072	 0.736496	 -0.579627	 0.294929	 2
1463629354.014	 28	 -3.032658	 -2.171538	 0.866574	 2.227253	 -1.276187	 -0.189056	 -0.193730	 0.742345	 -0.565573	 0.302523	 2
1463629354.024	 28	 -3.286280	 -1.744462	 0.988924	 2.268776	 -1.248348	 -0.125829	 -0.200305	 0.749471	 -0.550169	 0.309008	 2
1463629354.034	 28	 -3.303632	 -0.996909	 1.105805	 2.307800	 -1.218504	 -0.071710	 -0.204691	 0.757661	 -0.534808	 0.313099	 2
1463629354.044	 28	 -3.196832	 0.224059	 1.287824	 2.345626	 -1.187343	 -0.029923	 -0.205348	 0.767268	 -0.520436	 0.313495	 2
1463629354.054	 28	 -2.990912	 1.858580	 1.483487	 2.386420	 -1.155529	 -0.001309	 -0.200844	 0.778808	 -0.507882	 0.308504	 2
1463629354.074	 29	 -2.366509	 3.959837	 1.968670	 2.470304	 -1.093122	 0.016800	 -0.177964	 0.805178	 -0.488368	 0.285505	 2
1463629354.084	 29	 -1.973052	 4.053706	 2.311424	 2.501689	 -1.063151	 0.006255	 -0.161986	 0.817760	 -0.480318	 0.272623	 2
1463629354.094	 29	 -1.570423	 3.634620	 2.617353	 2.520656	 -1.034661	 -0.015316	 -0.144749	 0.828722	 -0.472936	 0.261913	 2
1463629354.104	 29	 -1.196131	 2.779382	 2.755343	 2.526656	 -1.008342	 -0.043720	 -0.127927	 0.837510	 -0.466109	 0.254863	 2
1463629354.114	 29	 -0.903315	 1.567633	 2.686098	 2.519935	 -0.984724	 -0.074168	 -0.113371	 0.843775	 -0.459740	 0.252647	 2
1463629354.124	 29	 -0.838504	 0.339467	 2.460953	 2.503556	 -0.963091	 -0.101652	 -0.102317	 0.847855	 -0.453335	 0.255266	 2
1463629354.134	 29	 -0.964462	 -0.579939	 2.201974	 2.482233	 -0.942037	 -0.123206	 -0.094727	 0.850562	 -0.446302	 0.261507	 2
1463629354.144	 29	 -1.140843	 -1.101424	 1.940743	 2.460283	 -0.920974	 -0.138139	 -0.089844	 0.852591	 -0.438506	 0.269682	 2
1463629354.154	 29	 -1.236490	 -1.236109	 1.663224	 2.440915	 -0.900544	 -0.147175	 -0.086795	 0.854333	 -0.430387	 0.278117	 2
1463629354.164	 29	 -1.171419	 -1.086607	 1.478606	 2.424902	 -0.881581	 -0.153108	 -0.084425	 0.855929	 -0.422642	 0.285714	 2
1463629354.174	 29	 -0.986362	 -0.681601	 1.375253	 2.412614	 -0.864558	 -0.158743	 -0.081606	 0.857532	 -0.415851	 0.291627	 2
1463629354.184	 29	 -0.780103	 -0.115748	 1.313711	 2.405023	 -0.849509	 -0.165318	 -0.077671	 0.859392	 -0.410235	 0.295161	 2
1463629354.194	 29	 -0.611236	 0.417451	 1.280966	 2.402178	 -0.836041	 -0.173057	 -0.072496	 0.861634	 -0.405646	 0.296281	 2
1463629354.204	 29	 -0.511556	 0.762594	 1.248140	 2.402839	 -0.823640	 -0.181496	 -0.066474	 0.864165	 -0.401727	 0.295660	 2
1463629354.214	 29	 -0.442846	 0.887570	 1.202877	 2.405243	 -0.812074	 -0.190132	 -0.060153	 0.866751	 -0.398225	 0.294177	 2
1463629354.224	 29	 -0.377084	 0.847630	 1.148645	 2.407667	 -0.801355	 -0.198766	 -0.053972	 0.869135	 -0.395056	 0.292612	 2
1463629354.234	 29	 -0.274506	 0.700109	 1.087762	 2.408782	 -0.791713	 -0.207587	 -0.048152	 0.871098	 -0.392314	 0.291478	 2
1463629354.244	 29	 -0.139128	 0.505580	 1.011235	 2.407761	 -0.783521	 -0.216804	 -0.042831	 0.872474	 -0.390181	 0.291055	 2
1463629354.254	 29	 -0.004526	 0.375906	 0.931056	 2.405040	 -0.776880	 -0.226374	 -0.037956	 0.873321	 -0.388721	 0.291146	 2
1463629354.264	 29	 0.122382	 0.398579	 0.882203	 2.401797	 -0.771539	 -0.236450	 -0.033190	 0.873859	 -0.387881	 0.291234	 2
1463629354.274	 29	 0.271500	 0.600971	 0.838026	 2.399627	 -0.767520	 -0.247367	 -0.028085	 0.874327	 -0.387745	 0.290546	 2
1463629354.284	 29	 0.419698	 0.856356	 0.767706	 2.399480	 -0.765024	 -0.259010	 -0.022551	 0.874831	 -0.388381	 0.288655	 2
1463629354.294	 29	 0.540688	 1.031776	 0.659577	 2.401222	 -0.764156	 -0.270856	 -0.016865	 0.875329	 -0.389734	 0.285696	 2
1463629354.304	 29	 0.620448	 1.101689	 0.506063	 2.404350	 -0.764928	 -0.282072	 -0.011491	 0.875737	 -0.391672	 0.282039	 2
1463629354.314	 29	 0.681656	 1.105533	 0.327584	 2.408460	 -0.767371	 -0.292115	 -0.006749	 0.875995	 -0.394120	 0.277952	 2
1463629354.324	 29	 0.752185	 1.063493	 0.132610	 2.413178	 -0.771616	 -0.300822	 -0.002807	 0.876034	 -0.397107	 0.273610	 2
1463629354.334	 29	 0.857694	 0.995612	 -0.091685	 2.418147	 -0.778010	 -0.308171	 0.000193	 0.875756	 -0.400777	 0.269125	 2
1463629354.344	 29	 1.020638	 0.908235	 -0.341174	 2.423157	 -0.787196	 -0.314299	 0.002151	 0.875034	 -0.405421	 0.264470	 2
1463629354.354	 29	 1.240118	 0.813266	 -0.588028	 2.427669	 -0.799557	 -0.319693	 0.003105	 0.873725	 -0.411262	 0.259727	 2
1463629354.364	 29	 1.462820	 0.735198	 -0.849674	 2.431762	 -0.815347	 -0.324441	 0.003062	 0.871780	 -0.418410	 0.254799	 2
1463629354.374	 29	 1.615819	 0.803124	 -1.100828	 2.436908	 -0.834147	 -0.327942	 0.002157	 0.869421	 -0.426605	 0.249220	 2
1463629354.384	 29	 1.506690	 1.082209	 -1.233698	 2.446028	 -0.853911	 -0.329154	 0.000975	 0.867295	 -0.434874	 0.242245	 2
1463629354.394	 29	 0.838139	 1.177985	 -1.203539	 2.461218	 -0.869675	 -0.324845	 -0.000454	 0.866441	 -0.440830	 0.234411	 2
1463629354.404	 29	 -0.139947	 0.658028	 -0.992038	 2.478583	 -0.877075	 -0.312917	 -0.003115	 0.867157	 -0.442508	 0.228508	 2
1463629354.414	 29	 -0.684332	 -0.188085	 -0.553946	 2.489627	 -0.876470	 -0.298880	 -0.006662	 0.868486	 -0.440688	 0.226895	 2
1463629354.424	 29	 -0.518965	 -0.844372	 -0.053124	 2.488609	 -0.872787	 -0.291110	 -0.009622	 0.868991	 -0.438270	 0.229524	 2
1463629354.434	 29	 -0.084269	 -1.299309	 0.308677	 2.475974	 -0.869849	 -0.292020	 -0.011481	 0.868045	 -0.437092	 0.235194	 2
1463629354.444	 29	 0.282493	 -1.602594	 0.581892	 2.454361	 -0.868169	 -0.300228	 -0.012348	 0.865803	 -0.437251	 0.242990	 2
1463629354.454	 29	 0.428316	 -1.832535	 0.759662	 2.427011	 -0.866633	 -0.312838	 -0.012600	 0.862759	 -0.438011	 0.252260	 2
1463629354.464	 29	 0.351338	 -1.972814	 0.891181	 2.397003	 -0.863735	 -0.326586	 -0.012702	 0.859469	 -0.438413	 0.262577	 2
1463629354.474	 29	 0.278282	 -1.730243	 1.017703	 2.368139	 -0.859046	 -0.340647	 -0.012067	 0.856460	 -0.438224	 0.272564	 2
1463629354.484	 29	 0.249293	 -1.151018	 1.091554	 2.344125	 -0.853285	 -0.355110	 -0.009961	 0.854133	 -0.437786	 0.280536	 2
1463629354.494	 29	 -0.059830	 -0.427651	 1.127623	 2.328872	 -0.845489	 -0.367300	 -0.006458	 0.853228	 -0.436347	 0.285589	 2
1463629354.504	 29	 -0.524978	 -0.145717	 1.096995	 2.322038	 -0.834574	 -0.374241	 -0.002660	 0.853906	 -0.432995	 0.288708	 2
1463629354.514	 29	 -0.840864	 -0.438661	 0.907314	 2.317660	 -0.822198	 -0.375508	 -0.000413	 0.855093	 -0.428259	 0.292251	 2
1463629354.524	 29	 -0.733391	 -0.734454	 0.642514	 2.311976	 -0.811586	 -0.373963	 -0.000003	 0.855788	 -0.423807	 0.296674	 2
1463629354.534	 29	 -0.130086	 -0.446646	 0.387353	 2.305382	 -0.806247	 -0.375193	 0.000283	 0.855563	 -0.421865	 0.300070	 2
1463629354.554	 30	 0.019475	 1.756951	 -0.312833	 2.321466	 -0.808922	 -0.378782	 0.004643	 0.857559	 -0.423443	 0.292004	 2
1463629354.564	 30	 -0.609035	 1.853961	 -0.682672	 2.348240	 -0.810102	 -0.368016	 0.005429	 0.861262	 -0.422302	 0.282593	 2
1463629354.574	 30	 -1.093388	 1.180392	 -0.920256	 2.375706	 -0.809180	 -0.349080	 0.003222	 0.865267	 -0.419230	 0.274860	 2
1463629354.584	 30	 -1.288165	 0.288542	 -1.073935	 2.397932	 -0.807094	 -0.325508	 -0.001947	 0.868622	 -0.415156	 0.270441	 2
1463629354.594	 30	 -0.997055	 -0.672679	 -1.064099	 2.409643	 -0.806188	 -0.303292	 -0.009010	 0.870284	 -0.411812	 0.270067	 2
1463629354.604	 30	 -0.353862	 -1.476026	 -0.995110	 2.408205	 -0.809023	 -0.287303	 -0.016798	 0.869539	 -0.410804	 0.273604	 2
1463629354.614	 30	 0.414605	 -1.766844	 -0.893668	 2.396522	 -0.816836	 -0.279556	 -0.024053	 0.866603	 -0.412848	 0.279245	 2
1463629354.624	 30	 1.169662	 -1.504570	 -0.795489	 2.379673	 -0.829606	 -0.280720	 -0.029514	 0.862192	 -0.418043	 0.284595	 2
1463629354.634	 30	 1.802041	 -0.967854	 -0.742712	 2.361910	 -0.846774	 -0.289750	 -0.032759	 0.857004	 -0.426065	 0.287991	 2
1463629354.644	 30	 2.280841	 -0.516988	 -0.563638	 2.342888	 -0.866406	 -0.306712	 -0.033569	 0.851326	 -0.436118	 0.289685	 2
1463629354.654	 30	 2.522439	 -0.314645	 -0.430638	 2.321639	 -0.886848	 -0.329928	 -0.032644	 0.845268	 -0.447264	 0.290536	 2
1463629354.664	 30	 2.401275	 -0.398638	 -0.475127	 2.299122	 -0.906720	 -0.354055	 -0.031814	 0.839112	 -0.458188	 0.291448	 2
1463629354.674	 30	 2.018719	 -0.599680	 -0.632465	 2.277881	 -0.925140	 -0.373978	 -0.032434	 0.833303	 -0.467848	 0.292699	 2
1463629354.684	 30	 1.511863	 -0.869823	 -0.835192	 2.259682	 -0.941695	 -0.386674	 -0.035160	 0.828122	 -0.475685	 0.294451	 2
1463629354.694	 30	 1.027346	 -1.144380	 -1.050944	 2.245304	 -0.956638	 -0.391089	 -0.040178	 0.823608	 -0.481670	 0.296731	 2
1463629354.704	 30	 0.698217	 -1.314875	 -1.227647	 2.234401	 -0.970725	 -0.388757	 -0.047012	 0.819577	 -0.486321	 0.299291	 2
1463629354.714	 30	 0.550518	 -1.309950	 -1.341418	 2.226387	 -0.984663	 -0.382477	 -0.054756	 0.815848	 -0.490320	 0.301629	 2
1463629354.734	 31	 0.708644	 -0.550301	 -1.392211	 2.219150	 -1.014233	 -0.369347	 -0.068720	 0.809186	 -0.498953	 0.302557	 2
1463629354.744	 31	 0.911846	 -0.001049	 -1.397395	 2.220303	 -1.030468	 -0.366414	 -0.073361	 0.806335	 -0.504463	 0.299931	 2
1463629354.754	 31	 1.130525	 0.371096	 -1.325496	 2.222649	 -1.047787	 -0.367073	 -0.076485	 0.803530	 -0.510924	 0.295714	 2
1463629354.764	 31	 1.331756	 0.569676	 -1.141024	 2.222576	 -1.065001	 -0.373224	 -0.077993	 0.800542	 -0.518018	 0.291044	 2
1463629354.774	 31	 1.450564	 0.579458	 -1.064166	 2.219532	 -1.082189	 -0.383428	 -0.078673	 0.797252	 -0.525504	 0.286436	 2
1463629354.784	 31	 1.439485	 0.295264	 -1.097621	 2.213695	 -1.099603	 -0.394345	 -0.079916	 0.793529	 -0.532972	 0.282604	 2
1463629354.794	 31	 1.292151	 -0.182820	 -1.082669	 2.204682	 -1.116329	 -0.403775	 -0.082513	 0.789425	 -0.539769	 0.280444	 2
1463629354.804	 31	 1.085323	 -0.652863	 -1.009573	 2.192704	 -1.131341	 -0.411038	 -0.086451	 0.785147	 -0.545455	 0.280266	 2
1463629354.814	 31	 0.946135	 -0.874728	 -0.860153	 2.178381	 -1.144355	 -0.417558	 -0.090929	 0.780897	 -0.550167	 0.281508	 2
1463629354.824	 31	 0.856517	 -0.870376	 -0.589695	 2.161719	 -1.154785	 -0.426161	 -0.094702	 0.776919	 -0.554118	 0.283517	 2
1463629354.834	 31	 0.757847	 -0.772198	 -0.291640	 2.143323	 -1.162142	 -0.437498	 -0.097226	 0.773426	 -0.557291	 0.285983	 2
1463629354.844	 31	 0.620881	 -0.592490	 -0.059637	 2.125341	 -1.166607	 -0.450087	 -0.098502	 0.770609	 -0.559682	 0.288472	 2
1463629354.854	 31	 0.438635	 -0.436681	 0.085146	 2.110376	 -1.168619	 -0.461316	 -0.098884	 0.768618	 -0.561221	 0.290654	 2
1463629354.864	 31	 0.277307	 -0.476618	 0.086180	 2.098403	 -1.169429	 -0.469442	 -0.099335	 0.767124	 -0.562072	 0.292793	 2
1463629354.874	 31	 0.201216	 -0.713015	 0.017499	 2.086848	 -1.170093	 -0.474766	 -0.100715	 0.765569	 -0.562489	 0.295579	 2
1463629354.884	 31	 0.187251	 -0.878525	 -0.077706	 2.075892	 -1.171543	 -0.477760	 -0.103031	 0.763830	 -0.562835	 0.298606	 2
1463629354.894	 31	 0.334847	 -1.309309	 -0.021186	 2.058070	 -1.173320	 -0.484168	 -0.106075	 0.761164	 -0.563425	 0.303200	 2
1463629354.904	 31	 0.317449	 -1.634458	 0.015373	 2.035271	 -1.174758	 -0.491855	 -0.109965	 0.757833	 -0.563817	 0.309367	 2
1463629354.914	 31	 0.273393	 -1.743491	 0.069096	 2.011403	 -1.175533	 -0.499054	 -0.114183	 0.754369	 -0.563842	 0.316184	 2
1463629354.924	 31	 0.267105	 -1.805479	 0.171953	 1.986263	 -1.175333	 -0.506877	 -0.118270	 0.750837	 -0.563572	 0.323486	 2
1463629354.934	 31	 0.215175	 -1.847905	 0.313757	 1.960129	 -1.173715	 -0.515266	 -0.122033	 0.747331	 -0.562894	 0.331292	 2
1463629354.944	 31	 0.067171	 -1.925954	 0.491236	 1.934855	 -1.169949	 -0.522046	 -0.125536	 0.744117	 -0.561363	 0.339709	 2
1463629354.954	 31	 -0.123524	 -2.008106	 0.672245	 1.911420	 -1.163870	 -0.525836	 -0.128933	 0.741274	 -0.558764	 0.348815	 2
1463629354.964	 31	 -0.371834	 -1.902538	 0.902397	 1.892535	 -1.154870	 -0.525291	 -0.131759	 0.739271	 -0.554849	 0.358136	 2
1463629354.974	 31	 -0.545180	 -1.689155	 1.070019	 1.878526	 -1.143459	 -0.521425	 -0.133689	 0.738170	 -0.549946	 0.367140	 2
1463629354.984	 31	 -0.656200	 -1.337034	 1.180839	 1.870691	 -1.130654	 -0.514610	 -0.134549	 0.738127	 -0.544475	 0.374983	 2
1463629354.994	 31	 -0.439513	 -1.372545	 1.504745	 1.858549	 -1.115701	 -0.513132	 -0.133924	 0.737859	 -0.539068	 0.383450	 2
1463629355.004	 31	 -0.401161	 -1.189637	 1.808790	 1.843901	 -1.097836	 -0.515350	 -0.131659	 0.737630	 -0.533372	 0.392533	 2
1463629355.014	 31	 -0.465474	 -0.692755	 1.953588	 1.834222	 -1.078121	 -0.517001	 -0.127638	 0.738437	 -0.527375	 0.400369	 2
1463629355.024	 31	 -0.520383	 -0.241609	 2.102142	 1.829918	 -1.056903	 -0.517902	 -0.121961	 0.740340	 -0.521126	 0.406755	 2
1463629355.034	 31	 -0.588912	 0.212146	 2.311587	 1.830451	 -1.033599	 -0.518466	 -0.114482	 0.743362	 -0.514446	 0.411889	 2
1463629355.044	 31	 -0.679444	 0.608880	 2.422644	 1.835739	 -1.008690	 -0.518247	 -0.105583	 0.747417	 -0.507306	 0.415764	 2
1463629355.054	 31	 -1.007407	 1.188676	 2.454341	 1.848976	 -0.982759	 -0.514595	 -0.095700	 0.752999	 -0.499398	 0.417656	 2
1463629355.064	 31	 -1.726542	 1.967506	 2.640503	 1.877776	 -0.953525	 -0.501347	 -0.084760	 0.761754	 -0.488902	 0.416560	 2
1463629355.074	 31	 -1.796242	 1.828620	 3.260091	 1.907107	 -0.918514	 -0.488723	 -0.072094	 0.771336	 -0.476268	 0.415946	 2
1463629355.084	 31	 -1.482875	 1.845822	 3.412059	 1.929230	 -0.881047	 -0.483548	 -0.057894	 0.779914	 -0.463632	 0.416447	 2
1463629355.094	 31	 -0.987433	 1.940832	 3.367064	 1.946673	 -0.845669	 -0.485955	 -0.042661	 0.787345	 -0.452720	 0.416308	 2
1463629355.104	 31	 -0.242194	 1.832793	 3.583380	 1.955569	 -0.811248	 -0.499325	 -0.025419	 0.792834	 -0.443952	 0.416743	 2
1463629355.114	 31	 0.465648	 1.505786	 3.510228	 1.955043	 -0.779476	 -0.522358	 -0.007177	 0.795779	 -0.437874	 0.418270	 2
1463629355.124	 31	 0.957022	 1.194651	 3.191852	 1.948451	 -0.752223	 -0.550164	 0.010402	 0.796564	 -0.434371	 0.420356	 2
1463629355.134	 31	 1.230669	 0.674438	 2.847848	 1.936825	 -0.729233	 -0.579427	 0.026293	 0.795458	 -0.432808	 0.423359	 2
1463629355.144	 31	 1.241414	 0.252201	 2.561399	 1.921978	 -0.708941	 -0.607360	 0.040207	 0.793059	 -0.432126	 0.427443	 2
1463629355.154	 31	 1.126489	 -0.269208	 2.188794	 1.905084	 -0.691336	 -0.631607	 0.051443	 0.789769	 -0.431820	 0.432608	 2
1463629355.164	 31	 1.043412	 -0.858502	 1.854713	 1.884770	 -0.676362	 -0.652516	 0.059841	 0.785394	 -0.431971	 0.439290	 2
1463629355.174	 31	 1.038187	 -1.264805	 1.558959	 1.861111	 -0.663902	 -0.671336	 0.065925	 0.779987	 -0.432798	 0.447168	 2
1463629355.184	 31	 0.951092	 -1.234104	 1.357508	 1.838204	 -0.653164	 -0.688166	 0.070848	 0.774534	 -0.433900	 0.454763	 2
1463629355.194	 31	 0.711606	 -1.068818	 1.319566	 1.818765	 -0.642408	 -0.701799	 0.075280	 0.769797	 -0.434292	 0.461666	 2
1463629355.204	 31	 0.544058	 -0.689057	 1.405557	 1.804255	 -0.630319	 -0.712775	 0.080185	 0.766169	 -0.433572	 0.467516	 2
1463629355.214	 31	 0.570027	 -0.252268	 1.513840	 1.794347	 -0.617107	 -0.723641	 0.086415	 0.763501	 -0.432370	 0.471863	 2
1463629355.224	 31	 0.599881	 0.100511	 1.625570	 1.788017	 -0.602848	 -0.734966	 0.093933	 0.761538	 -0.430854	 0.474976	 2
1463629355.234	 31	 0.584652	 0.322185	 1.827063	 1.784346	 -0.586824	 -0.746515	 0.102677	 0.760062	 -0.428754	 0.477423	 2
1463629355.244	 31	 0.509935	 0.336968	 2.075108	 1.781661	 -0.568263	 -0.757785	 0.112336	 0.758674	 -0.425769	 0.480121	 2
1463629355.254	 31	 0.418801	 0.081276	 2.272820	 1.777714	 -0.547398	 -0.768322	 0.122183	 0.756825	 -0.421981	 0.483963	 2
1463629355.264	 31	 0.342505	 -0.375882	 2.415240	 1.770218	 -0.524806	 -0.778024	 0.131522	 0.753938	 -0.417710	 0.489691	 2
1463629355.274	 31	 0.275190	 -1.009245	 2.610296	 1.757576	 -0.500384	 -0.786952	 0.140104	 0.749557	 -0.413093	 0.497885	 2
1463629355.284	 31	 0.195859	 -1.656955	 3.021672	 1.738581	 -0.472061	 -0.795172	 0.148421	 0.743195	 -0.407649	 0.509367	 2
1463629355.294	 31	 0.073850	 -2.176932	 3.283271	 1.715106	 -0.440284	 -0.801990	 0.156522	 0.735220	 -0.401268	 0.523390	 2
1463629355.304	 31	 -0.121089	 -2.583467	 3.318487	 1.688485	 -0.407270	 -0.805966	 0.163494	 0.726069	 -0.394183	 0.539178	 2
1463629355.314	 31	 -0.230845	 -2.675474	 3.200287	 1.661226	 -0.374874	 -0.807364	 0.169376	 0.716470	 -0.386804	 0.555306	 2
1463629355.324	 31	 -0.408502	 -2.634750	 3.024230	 1.635247	 -0.344005	 -0.806094	 0.174230	 0.707078	 -0.379162	 0.570894	 2
1463629355.334	 31	 -0.650776	 -2.685588	 2.809517	 1.610084	 -0.315093	 -0.801470	 0.177595	 0.697949	 -0.371159	 0.586148	 2
1463629355.344	 31	 -0.936271	 -2.837447	 2.580385	 1.584603	 -0.288502	 -0.793186	 0.179054	 0.688881	 -0.362833	 0.601443	 2
1463629355.354	 31	 -1.270290	 -3.073377	 2.325315	 1.557845	 -0.264589	 -0.780903	 0.178234	 0.679693	 -0.354193	 0.617088	 2
1463629355.364	 31	 -1.645155	 -3.367726	 2.065810	 1.528238	 -0.241159	 -0.764522	 0.175640	 0.669697	 -0.344581	 0.633972	 2
1463629355.374	 31	 -2.045657	 -3.737973	 1.891104	 1.494693	 -0.217563	 -0.743868	 0.171365	 0.658419	 -0.333737	 0.652487	 2
1463629355.384	 31	 -2.456438	 -4.116962	 1.828345	 1.456769	 -0.190427	 -0.718745	 0.166631	 0.645269	 -0.320500	 0.673158	 2
1463629355.394	 31	 -2.819690	 -4.453912	 1.860403	 1.416670	 -0.166618	 -0.689010	 0.159473	 0.631564	 -0.306554	 0.694061	 2
1463629355.404	 31	 -3.070457	 -4.740846	 1.939871	 1.374615	 -0.149466	 -0.655673	 0.149085	 0.617574	 -0.293042	 0.714494	 2
1463629355.414	 31	 -3.216910	 -5.111883	 2.049599	 1.329647	 -0.136659	 -0.619824	 0.136531	 0.602547	 -0.279577	 0.734937	 2
1463629355.424	 31	 -3.272861	 -5.566867	 2.206782	 1.279999	 -0.124352	 -0.582340	 0.123366	 0.585260	 -0.265361	 0.756198	 2
1463629355.434	 31	 -3.269708	 -5.950630	 2.382232	 1.225947	 -0.112351	 -0.543670	 0.109987	 0.565633	 -0.250385	 0.777991	 2
1463629355.444	 31	 -3.239466	 -6.179772	 2.476820	 1.168809	 -0.101276	 -0.504249	 0.096571	 0.544107	 -0.234837	 0.799671	 2
1463629355.454	 31	 -3.269390	 -6.113328	 2.387110	 1.111133	 -0.092860	 -0.464374	 0.082858	 0.521792	 -0.219111	 0.820279	 2
1463629355.464	 31	 -3.374204	 -5.711851	 2.119989	 1.056507	 -0.089160	 -0.424392	 0.068419	 0.500337	 -0.203677	 0.838747	 2
1463629355.474	 31	 -3.409248	 -5.222321	 1.849882	 1.006599	 -0.090253	 -0.385170	 0.053434	 0.480483	 -0.188848	 0.854761	 2
1463629355.484	 31	 -3.272631	 -4.853782	 1.682645	 0.960701	 -0.094335	 -0.347896	 0.038703	 0.461847	 -0.174774	 0.868708	 2
1463629355.494	 31	 -2.995486	 -4.650772	 1.628833	 0.917101	 -0.099272	 -0.313293	 0.025026	 0.443631	 -0.161412	 0.881199	 2
1463629355.504	 31	 -2.649621	 -4.209053	 1.666168	 0.876549	 -0.103459	 -0.281383	 0.013073	 0.426188	 -0.148531	 0.892262	 2
1463629355.514	 31	 -2.069881	 -2.169251	 1.725929	 0.852332	 -0.105044	 -0.253061	 0.004674	 0.415545	 -0.136276	 0.899294	 2
1463629355.524	 31	 -1.049871	 -1.096823	 1.740882	 0.841741	 -0.100773	 -0.231440	 0.001450	 0.410615	 -0.125692	 0.903103	 2
1463629355.534	 31	 0.171302	 -0.609798	 1.779543	 0.835667	 -0.088592	 -0.218648	 0.004000	 0.407379	 -0.117483	 0.905662	 2
1463629355.544	 31	 1.238086	 -0.032223	 2.068714	 0.834318	 -0.067275	 -0.212656	 0.012401	 0.405912	 -0.110521	 0.907120	 2
1463629355.554	 31	 1.955634	 0.566798	 2.533779	 0.838679	 -0.037307	 -0.209859	 0.025695	 0.406632	 -0.103199	 0.907381	 2
1463629355.564	 31	 2.240852	 0.985653	 2.913538	 0.847721	 -0.001540	 -0.207398	 0.041875	 0.409145	 -0.094668	 0.906578	 2
1463629355.574	 31	 2.233993	 0.988892	 3.063901	 0.857822	 0.036124	 -0.204348	 0.058751	 0.411969	 -0.085270	 0.905295	 2
1463629355.584	 31	 2.069233	 0.664007	 3.077233	 0.865207	 0.073289	 -0.200363	 0.074996	 0.413527	 -0.075457	 0.904255	 2
1463629355.594	 31	 1.835910	 0.116515	 3.019816	 0.867407	 0.108701	 -0.195127	 0.089934	 0.412817	 -0.065540	 0.903990	 2
1463629355.604	 31	 1.605605	 -0.644156	 2.900706	 0.862139	 0.141813	 -0.188697	 0.103345	 0.408875	 -0.055904	 0.904995	 2
1463629355.614	 31	 1.420773	 -1.445785	 2.725400	 0.848582	 0.172369	 -0.181446	 0.115282	 0.401353	 -0.046969	 0.907425	 2
1463629355.624	 31	 1.303852	 -2.205081	 2.401755	 0.827081	 0.199786	 -0.174568	 0.125829	 0.390368	 -0.039504	 0.911164	 2
1463629355.634	 31	 1.263069	 -2.838445	 2.021069	 0.799061	 0.223838	 -0.169130	 0.135172	 0.376481	 -0.034036	 0.915878	 2
1463629355.644	 31	 1.364569	 -3.251373	 1.734981	 0.766628	 0.245975	 -0.165666	 0.144095	 0.360485	 -0.030431	 0.921065	 2
1463629355.654	 31	 1.529354	 -3.400449	 1.484902	 0.732516	 0.267395	 -0.164449	 0.153189	 0.343507	 -0.028424	 0.926136	 2
1463629355.664	 31	 1.690376	 -3.237693	 1.260139	 0.699788	 0.288487	 -0.165386	 0.162593	 0.326925	 -0.027682	 0.930547	 2
1463629355.674	 31	 1.894156	 -2.855769	 1.061555	 0.671167	 0.309738	 -0.168593	 0.172525	 0.311961	 -0.027931	 0.933882	 2
1463629355.684	 31	 2.142124	 -2.420460	 0.908911	 0.647614	 0.331968	 -0.174110	 0.183327	 0.298998	 -0.028923	 0.936031	 2
1463629355.694	 31	 2.365767	 -2.011044	 0.842565	 0.629012	 0.355613	 -0.181499	 0.195096	 0.287974	 -0.030331	 0.937064	 2
1463629355.704	 31	 2.505172	 -1.696163	 0.906096	 0.614106	 0.380889	 -0.189245	 0.207675	 0.278410	 -0.031475	 0.937213	 2
1463629355.714	 31	 2.551509	 -1.466829	 1.015468	 0.601585	 0.407431	 -0.196181	 0.220713	 0.269833	 -0.031950	 0.936726	 2
1463629355.724	 31	 2.507357	 -1.367418	 1.065803	 0.590190	 0.434252	 -0.202124	 0.233713	 0.261758	 -0.031931	 0.935864	 2
1463629355.734	 31	 2.354752	 -1.384897	 1.087218	 0.578470	 0.460223	 -0.206806	 0.246108	 0.253653	 -0.031616	 0.934928	 2
1463629355.744	 31	 2.119605	 -1.479785	 1.107566	 0.565252	 0.484539	 -0.209650	 0.257452	 0.245142	 -0.031010	 0.934164	 2
1463629355.754	 31	 1.864647	 -1.668504	 1.087781	 0.549577	 0.506691	 -0.210666	 0.267521	 0.235862	 -0.030330	 0.933746	 2
1463629355.764	 31	 1.658157	 -1.928089	 0.995508	 0.530991	 0.526573	 -0.210665	 0.276381	 0.225537	 -0.030049	 0.933726	 2
1463629355.794	 32	 1.395939	 -2.564933	 0.485628	 0.462592	 0.575182	 -0.213544	 0.297944	 0.189150	 -0.034819	 0.935008	 2
1463629355.784	 32	 1.413421	 -2.397805	 0.658618	 0.486811	 0.560358	 -0.211554	 0.291330	 0.201982	 -0.032199	 0.934502	 2
1463629355.804	 32	 1.426093	 -2.611806	 0.341051	 0.438353	 0.589576	 -0.216895	 0.304438	 0.176131	 -0.038290	 0.935323	 2
1463629355.814	 32	 1.467560	 -2.563697	 0.245219	 0.415007	 0.603932	 -0.221253	 0.310955	 0.163365	 -0.042250	 0.935326	 2
1463629355.824	 32	 1.517933	 -2.467494	 0.184927	 0.392935	 0.618548	 -0.226250	 0.317594	 0.151059	 -0.046425	 0.934965	 2
1463629355.834	 32	 1.581440	 -2.334879	 0.164293	 0.372346	 0.633684	 -0.231531	 0.324450	 0.139342	 -0.050576	 0.934215	 2
1463629355.844	 32	 1.670682	 -2.169428	 0.135214	 0.353628	 0.649589	 -0.237151	 0.331653	 0.128365	 -0.054629	 0.933030	 2
1463629355.854	 32	 1.782044	 -2.054130	 0.092687	 0.336661	 0.666442	 -0.243404	 0.339301	 0.118002	 -0.058708	 0.931399	 2
1463629355.864	 32	 1.902767	 -1.997300	 0.058060	 0.320923	 0.684373	 -0.250366	 0.347437	 0.107976	 -0.062914	 0.929339	 2
1463629355.874	 32	 1.998104	 -1.933657	 0.072743	 0.305965	 0.703374	 -0.257481	 0.356008	 0.098166	 -0.067059	 0.926890	 2
1463629355.884	 32	 2.034127	 -1.788887	 0.103618	 0.292012	 0.723050	 -0.264142	 0.364811	 0.088816	 -0.070853	 0.924124	 2
1463629355.894	 32	 2.002057	 -1.526495	 0.046656	 0.280578	 0.742570	 -0.270919	 0.373554	 0.080593	 -0.074340	 0.921106	 2
1463629355.904	 32	 1.910075	 -1.230458	 -0.088337	 0.272976	 0.761047	 -0.278854	 0.381939	 0.073969	 -0.077790	 0.917932	 2
1463629355.914	 32	 1.798643	 -0.999124	 -0.206712	 0.268868	 0.778161	 -0.288091	 0.389823	 0.068766	 -0.081304	 0.914712	 2
1463629355.924	 32	 1.687430	 -0.789540	 -0.244292	 0.267311	 0.794049	 -0.297789	 0.397218	 0.064683	 -0.084629	 0.911522	 2
1463629355.934	 32	 1.609416	 -0.613582	 -0.212134	 0.267448	 0.809146	 -0.307061	 0.404267	 0.061462	 -0.087464	 0.908373	 2
1463629355.944	 32	 1.583276	 -0.549257	 -0.152691	 0.268064	 0.824003	 -0.315553	 0.411163	 0.058573	 -0.089836	 0.905231	 2
1463629355.954	 32	 1.583344	 -0.582878	 -0.095453	 0.268110	 0.838980	 -0.323332	 0.418025	 0.055503	 -0.091961	 0.902063	 2
1463629355.964	 32	 1.547964	 -0.649505	 -0.057398	 0.267157	 0.853855	 -0.330519	 0.424739	 0.052064	 -0.094012	 0.898915	 2
1463629355.984	 33	 1.282077	 -0.729162	 -0.002536	 0.262205	 0.880753	 -0.342560	 0.436594	 0.044491	 -0.097948	 0.893204	 2
1463629355.994	 33	 1.090202	 -0.706065	 0.024928	 0.258439	 0.891787	 -0.346932	 0.441317	 0.040702	 -0.099684	 0.890868	 2
1463629356.014	 34	 0.764779	 -0.475289	 0.036303	 0.251300	 0.908968	 -0.352726	 0.448537	 0.034437	 -0.102235	 0.887230	 2
1463629356.024	 34	 0.641561	 -0.325204	 0.002537	 0.249707	 0.915494	 -0.355259	 0.451327	 0.032472	 -0.103105	 0.885787	 2
1463629356.034	 34	 0.537208	 -0.251721	 -0.026778	 0.249142	 0.920895	 -0.357877	 0.453677	 0.031057	 -0.103885	 0.884545	 2
1463629356.044	 34	 0.455985	 -0.275951	 -0.027362	 0.248413	 0.925423	 -0.360289	 0.455632	 0.029704	 -0.104691	 0.883491	 2
1463629356.054	 34	 0.397171	 -0.330831	 0.007810	 0.246631	 0.929401	 -0.362005	 0.457281	 0.028100	 -0.105480	 0.882598	 2
1463629356.074	 35	 0.265672	 -0.407854	 0.040211	 0.239922	 0.935817	 -0.363302	 0.459708	 0.024160	 -0.106990	 0.881271	 2
1463629356.084	 35	 0.170673	 -0.372816	 -0.006595	 0.236603	 0.937730	 -0.363966	 0.460361	 0.022341	 -0.107869	 0.880870	 2
1463629356.094	 35	 0.053503	 -0.275063	 -0.067545	 0.234536	 0.938423	 -0.365162	 0.460561	 0.021082	 -0.108807	 0.880682	 2
1463629356.104	 35	 -0.076160	 -0.122924	 -0.114026	 0.234137	 0.937773	 -0.366700	 0.460275	 0.020622	 -0.109636	 0.880739	 2
1463629356.114	 35	 -0.220493	 0.052946	 -0.120725	 0.235281	 0.935696	 -0.367978	 0.459456	 0.021053	 -0.110128	 0.881095	 2
1463629356.134	 36	 -0.363910	 0.146287	 -0.067451	 0.238268	 0.928832	 -0.368219	 0.456664	 0.023051	 -0.110186	 0.882488	 2
1463629356.144	 36	 -0.336432	 0.074014	 -0.049179	 0.238825	 0.925330	 -0.367711	 0.455177	 0.023789	 -0.110161	 0.883240	 2
1463629356.154	 36	 -0.237802	 -0.054987	 -0.051238	 0.238425	 0.922625	 -0.367465	 0.453983	 0.023959	 -0.110394	 0.883820	 2
1463629356.164	 36	 -0.094453	 -0.183252	 -0.080324	 0.237401	 0.921172	 -0.368103	 0.453306	 0.023517	 -0.111043	 0.884099	 2
1463629356.174	 36	 0.029875	 -0.254175	 -0.130025	 0.236495	 0.920906	 -0.370002	 0.453162	 0.022715	 -0.112112	 0.884058	 2
1463629356.194	 37	 0.101601	 -0.137981	 -0.211632	 0.237503	 0.921931	 -0.376635	 0.453735	 0.021546	 -0.114719	 0.883459	 2
1463629356.204	 37	 -0.002033	 0.075998	 -0.226857	 0.240674	 0.921692	 -0.380369	 0.453856	 0.022125	 -0.115671	 0.883258	 2
1463629356.214	 37	 -0.177067	 0.290368	 -0.216944	 0.245488	 0.919884	 -0.383399	 0.453389	 0.023764	 -0.116090	 0.883400	 2
1463629356.224	 37	 -0.365124	 0.435840	 -0.179848	 0.250912	 0.916332	 -0.385146	 0.452194	 0.026163	 -0.115976	 0.883960	 2
1463629356.234	 37	 -0.538566	 0.495264	 -0.122365	 0.255906	 0.911168	 -0.385302	 0.450256	 0.028917	 -0.115422	 0.884935	 2
1463629356.244	 37	 -0.651695	 0.428092	 -0.044205	 0.259178	 0.904936	 -0.383716	 0.447728	 0.031425	 -0.114597	 0.886239	 2
1463629356.254	 37	 -0.686280	 0.260791	 0.045129	 0.259764	 0.898404	 -0.380551	 0.444884	 0.033126	 -0.113704	 0.887723	 2
1463629356.264	 37	 -0.654802	 0.059371	 0.149557	 0.257243	 0.892267	 -0.375921	 0.442001	 0.033716	 -0.112804	 0.889254	 2
1463629356.274	 37	 -0.565450	 -0.101702	 0.267712	 0.251912	 0.887160	 -0.369897	 0.439380	 0.033232	 -0.111788	 0.890699	 2
1463629356.284	 37	 -0.444930	 -0.210795	 0.379684	 0.244440	 0.883410	 -0.362644	 0.437212	 0.031895	 -0.110544	 0.891969	 2
1463629356.294	 37	 -0.324214	 -0.274188	 0.486750	 0.235386	 0.881062	 -0.354298	 0.435559	 0.029923	 -0.109009	 0.893034	 2
1463629356.304	 37	 -0.214012	 -0.294032	 0.581525	 0.225192	 0.880001	 -0.344877	 0.434408	 0.027527	 -0.107111	 0.893901	 2
1463629356.314	 37	 -0.154755	 -0.227805	 0.644505	 0.214817	 0.879777	 -0.334653	 0.433626	 0.025128	 -0.104810	 0.894624	 2
1463629356.324	 37	 -0.171156	 -0.113702	 0.678748	 0.205042	 0.879567	 -0.323822	 0.432897	 0.023120	 -0.102098	 0.895344	 2
1463629356.334	 37	 -0.198246	 0.004618	 0.703532	 0.196062	 0.879076	 -0.312500	 0.432102	 0.021593	 -0.099007	 0.896113	 2
1463629356.344	 37	 -0.213612	 0.114440	 0.734529	 0.187872	 0.878393	 -0.300709	 0.431278	 0.020527	 -0.095541	 0.896911	 2
1463629356.354	 37	 -0.191716	 0.182867	 0.792526	 0.179906	 0.877837	 -0.288182	 0.430533	 0.019699	 -0.091677	 0.897691	 2
1463629356.364	 38	 -0.115392	 0.244812	 0.858516	 0.171914	 0.877959	 -0.274822	 0.430100	 0.018976	 -0.087389	 0.898341	 2
1463629356.384	 38	 0.089085	 0.323422	 0.927807	 0.156423	 0.881200	 -0.246795	 0.430644	 0.017799	 -0.077921	 0.898976	 2
1463629356.394	 38	 0.161649	 0.305277	 0.948322	 0.148466	 0.884079	 -0.232453	 0.431501	 0.017113	 -0.073017	 0.898990	 2
1463629356.404	 38	 0.210508	 0.261481	 0.942160	 0.140093	 0.887417	 -0.218113	 0.432575	 0.016227	 -0.068192	 0.898869	 2
1463629356.414	 38	 0.232664	 0.213503	 0.935126	 0.131313	 0.890951	 -0.203899	 0.433752	 0.015141	 -0.063519	 0.898663	 2
1463629356.424	 38	 0.237750	 0.158199	 0.937764	 0.121864	 0.894493	 -0.189558	 0.434940	 0.013805	 -0.058953	 0.898421	 2
1463629356.444	 39	 0.139882	 -0.011604	 0.949825	 0.100312	 0.900342	 -0.160173	 0.436791	 0.010229	 -0.050195	 0.898103	 2
1463629356.454	 39	 0.022731	 -0.180433	 0.941814	 0.087130	 0.901764	 -0.145099	 0.437042	 0.007539	 -0.046252	 0.898219	 2
1463629356.464	 39	 -0.108479	 -0.374864	 0.917700	 0.072150	 0.901719	 -0.130165	 0.436645	 0.004074	 -0.042817	 0.898605	 2
1463629356.474	 39	 -0.177573	 -0.512135	 0.880789	 0.055958	 0.900631	 -0.115678	 0.435808	 -0.000006	 -0.039868	 0.899156	 2
1463629356.484	 39	 -0.139588	 -0.554157	 0.819302	 0.039849	 0.899463	 -0.102116	 0.434987	 -0.004263	 -0.037302	 0.899654	 2
1463629356.494	 39	 -0.002027	 -0.504131	 0.733308	 0.025075	 0.899309	 -0.089945	 0.434689	 -0.008260	 -0.035041	 0.899861	 2
1463629356.504	 39	 0.153977	 -0.376635	 0.630823	 0.012742	 0.900577	 -0.079423	 0.435101	 -0.011547	 -0.032972	 0.899704	 2
1463629356.514	 39	 0.293181	 -0.205417	 0.539530	 0.000350	 0.894977	 -0.068212	 0.432457	 -0.014597	 -0.030666	 0.901015	 2
1463629356.524	 39	 0.390920	 0.003170	 0.448964	 -0.006071	 0.898657	 -0.060622	 0.434076	 -0.015897	 -0.028616	 0.900281	 2
1463629356.534	 39	 0.420234	 0.192746	 0.349226	 -0.009383	 0.902795	 -0.054525	 0.435942	 -0.016111	 -0.026574	 0.899438	 2
1463629356.544	 39	 0.383208	 0.350564	 0.243375	 -0.009711	 0.906728	 -0.050101	 0.437740	 -0.015334	 -0.024643	 0.898633	 2
