% Gyrometer data recorded with 'snsrlog'
% 
% 
% Label description:
% 	 0: Default Label
% 	 1: still_drop
% 	 2: walk_drop
% 	 3: other
% 	 4: dtw_same
% 	 5: dtw_diff
% 	 6: delete
% 	 7: steal
% 
% Column description:
% 	 1: Seconds.milliseconds since 1970
% 	 2: Number of skipped measurements
% 	 3: Gyro X
% 	 4: Gyro Y
% 	 5: Gyro Z
% 	 6: Roll of the device
% 	 7: Pitch of the device
% 	 8: Yaw of the device
% 	 9: Quaternion X
% 	 10: Quaternion Y
% 	 11: Quaternion Z
% 	 12: Quaternion W
% 	 13: Label used for the current sample
% 
% 
1463623903.366	 0	 0.002085	 -0.047043	 -0.010233	 0.162371	 0.601218	 -0.048057	 0.296902	 0.070347	 0.001133	 0.952312	 1
1463623903.376	 0	 -0.016226	 -0.069482	 -0.031592	 0.161799	 0.601723	 -0.048295	 0.297151	 0.070027	 0.000955	 0.952259	 1
1463623903.386	 0	 -0.040860	 -0.078049	 -0.049571	 0.161285	 0.601960	 -0.048761	 0.297281	 0.069707	 0.000667	 0.952242	 1
1463623903.396	 0	 -0.065416	 -0.077004	 -0.062132	 0.160889	 0.602214	 -0.049384	 0.297423	 0.069420	 0.000323	 0.952219	 1
1463623903.406	 0	 -0.088793	 -0.055737	 -0.073452	 0.160959	 0.602416	 -0.050243	 0.297549	 0.069321	 -0.000067	 0.952187	 1
1463623903.416	 0	 -0.109955	 -0.018501	 -0.083585	 0.161841	 0.602323	 -0.051420	 0.297546	 0.069568	 -0.000500	 0.952169	 1
1463623903.426	 0	 -0.116169	 0.029313	 -0.092678	 0.162485	 0.601042	 -0.052273	 0.296966	 0.069779	 -0.000866	 0.952335	 1
1463623903.436	 0	 -0.097758	 0.087745	 -0.094426	 0.163730	 0.599864	 -0.053206	 0.296440	 0.070262	 -0.001175	 0.952463	 1
1463623903.446	 0	 -0.052509	 0.162369	 -0.084014	 0.165677	 0.599081	 -0.054120	 0.296101	 0.071074	 -0.001356	 0.952508	 1
1463623903.456	 0	 0.009721	 0.225010	 -0.074381	 0.168278	 0.598897	 -0.055015	 0.296047	 0.072185	 -0.001405	 0.952441	 1
1463623903.466	 0	 0.060138	 0.284386	 -0.079597	 0.171558	 0.599254	 -0.056035	 0.296256	 0.073587	 -0.001389	 0.952268	 1
1463623903.476	 0	 0.090155	 0.336215	 -0.107086	 0.175560	 0.599903	 -0.057385	 0.296618	 0.075275	 -0.001409	 0.952024	 1
1463623903.486	 0	 0.091185	 0.371998	 -0.158984	 0.180288	 0.600560	 -0.059309	 0.297007	 0.077221	 -0.001593	 0.951746	 1
1463623903.506	 1	 0.003156	 0.387127	 -0.308349	 0.191475	 0.600459	 -0.065300	 0.297209	 0.081657	 -0.002786	 0.951310	 1
1463623903.516	 1	 -0.041103	 0.382122	 -0.429507	 0.197935	 0.599374	 -0.069962	 0.296899	 0.084070	 -0.004100	 0.951192	 1
1463623903.526	 1	 -0.055293	 0.417440	 -0.551618	 0.205423	 0.597798	 -0.076019	 0.296428	 0.086783	 -0.005954	 0.951085	 1
1463623903.536	 1	 -0.056869	 0.497546	 -0.506097	 0.213610	 0.596151	 -0.082163	 0.295947	 0.089822	 -0.007755	 0.950940	 1
1463623903.546	 1	 -0.021067	 0.519594	 -0.384706	 0.221506	 0.594916	 -0.086953	 0.295613	 0.092912	 -0.008936	 0.950737	 1
1463623903.556	 1	 0.103454	 0.583824	 -0.277551	 0.229243	 0.594893	 -0.090726	 0.295816	 0.096033	 -0.009586	 0.950357	 1
1463623903.566	 1	 0.247224	 0.635417	 -0.145102	 0.236997	 0.596538	 -0.093434	 0.296764	 0.099251	 -0.009622	 0.949730	 1
1463623903.576	 1	 0.370649	 0.655307	 0.007478	 0.244300	 0.599797	 -0.094791	 0.298408	 0.102385	 -0.008970	 0.948889	 1
1463623903.586	 1	 0.455584	 0.641438	 0.182460	 0.250570	 0.604361	 -0.094478	 0.300574	 0.105219	 -0.007582	 0.947906	 1
1463623903.596	 1	 0.460525	 0.606652	 0.407706	 0.255229	 0.609756	 -0.091826	 0.302994	 0.107606	 -0.005262	 0.946883	 1
1463623903.606	 1	 0.349431	 0.643517	 0.606183	 0.258267	 0.614905	 -0.086352	 0.305130	 0.109668	 -0.001861	 0.945973	 1
1463623903.616	 1	 0.125639	 0.882885	 0.670041	 0.262253	 0.618417	 -0.079101	 0.306381	 0.112524	 0.002416	 0.945232	 1
1463623903.626	 1	 -0.144705	 1.069514	 0.629370	 0.268007	 0.619367	 -0.071212	 0.306364	 0.116415	 0.007089	 0.944743	 1
1463623903.636	 1	 -0.399878	 1.130150	 0.527711	 0.274730	 0.617608	 -0.063523	 0.305048	 0.120830	 0.011627	 0.944569	 1
1463623903.646	 1	 -0.630937	 1.139317	 0.378470	 0.282156	 0.613226	 -0.056664	 0.302510	 0.125533	 0.015685	 0.944713	 1
1463623903.656	 1	 -0.825787	 1.148243	 0.210793	 0.290366	 0.606457	 -0.051009	 0.298887	 0.130493	 0.019104	 0.945131	 1
1463623903.666	 1	 -0.961793	 1.209992	 0.017518	 0.299945	 0.597736	 -0.046926	 0.294403	 0.135918	 0.021811	 0.945715	 1
1463623903.676	 1	 -1.040895	 1.376597	 -0.213645	 0.312134	 0.587506	 -0.044970	 0.289300	 0.142308	 0.023736	 0.946304	 1
1463623903.686	 1	 -1.078146	 1.613093	 -0.470101	 0.327939	 0.576070	 -0.045537	 0.283749	 0.150090	 0.024822	 0.946754	 1
1463623903.696	 1	 -1.092852	 1.888785	 -0.739177	 0.347865	 0.563559	 -0.048765	 0.277841	 0.159506	 0.025042	 0.946961	 1
1463623903.706	 1	 -1.082864	 2.194202	 -1.006059	 0.372098	 0.550077	 -0.054621	 0.271659	 0.170671	 0.024391	 0.946825	 1
1463623903.716	 1	 -1.043900	 2.545170	 -1.286626	 0.401017	 0.535723	 -0.063103	 0.265297	 0.183787	 0.022875	 0.946212	 1
1463623903.726	 1	 -0.971516	 2.991560	 -1.595370	 0.435452	 0.520513	 -0.074524	 0.258855	 0.199231	 0.020398	 0.944926	 1
1463623903.736	 1	 -0.919101	 3.633476	 -1.790217	 0.476634	 0.504450	 -0.087898	 0.252315	 0.217723	 0.017513	 0.942670	 1
1463623903.746	 1	 -0.855260	 4.299927	 -1.824004	 0.524423	 0.488045	 -0.101312	 0.245787	 0.239400	 0.015094	 0.939175	 1
1463623903.756	 1	 -0.754942	 4.751676	 -1.822806	 0.576947	 0.471874	 -0.114199	 0.239516	 0.263368	 0.013198	 0.934396	 1
1463623903.766	 1	 -0.727632	 4.806692	 -1.998382	 0.630951	 0.454905	 -0.127396	 0.233174	 0.288019	 0.010868	 0.928739	 1
1463623903.776	 1	 -0.854092	 4.809427	 -2.405443	 0.685273	 0.434409	 -0.141998	 0.225736	 0.312852	 0.006974	 0.922561	 1
1463623903.786	 1	 -1.041619	 4.748639	 -2.796576	 0.739269	 0.409216	 -0.157286	 0.216665	 0.337761	 0.001451	 0.915954	 1
1463623903.796	 1	 -1.262773	 4.517187	 -3.121862	 0.790766	 0.379466	 -0.172028	 0.205897	 0.361899	 -0.005486	 0.909178	 1
1463623903.806	 1	 -1.528698	 4.225850	 -3.363120	 0.838362	 0.345355	 -0.184933	 0.193297	 0.384755	 -0.013452	 0.902451	 1
1463623903.816	 1	 -1.751415	 3.951914	 -3.489755	 0.881797	 0.308015	 -0.195176	 0.179157	 0.406178	 -0.021921	 0.895791	 1
1463623903.826	 1	 -1.884217	 3.883957	 -3.527599	 0.922766	 0.268867	 -0.202737	 0.164043	 0.426760	 -0.030434	 0.888841	 1
1463623903.836	 1	 -1.877542	 4.140501	 -3.495428	 0.964670	 0.229392	 -0.208204	 0.148723	 0.447771	 -0.038656	 0.880845	 1
1463623903.846	 1	 -1.697274	 4.721389	 -3.401003	 1.011128	 0.191129	 -0.212542	 0.134147	 0.470516	 -0.046428	 0.870898	 1
1463623903.856	 1	 -1.354568	 5.593085	 -3.326601	 1.065517	 0.155001	 -0.217114	 0.121164	 0.496180	 -0.053956	 0.858029	 1
1463623903.866	 1	 -0.917265	 6.472248	 -3.357398	 1.129116	 0.120521	 -0.223265	 0.110058	 0.525079	 -0.061922	 0.841632	 1
1463623903.876	 1	 -0.439558	 6.950658	 -3.487128	 1.198481	 0.086679	 -0.231823	 0.100705	 0.555567	 -0.071139	 0.822279	 1
1463623903.886	 1	 -0.005947	 7.040866	 -3.778886	 1.269715	 0.051393	 -0.243046	 0.092404	 0.585987	 -0.082447	 0.800802	 1
1463623903.896	 1	 0.228229	 6.743120	 -4.115147	 1.338480	 0.012996	 -0.255426	 0.084070	 0.614675	 -0.095892	 0.778403	 1
1463623903.906	 1	 0.268092	 6.169676	 -4.413915	 1.401647	 -0.029036	 -0.266683	 0.074724	 0.640531	 -0.110881	 0.756202	 1
1463623903.916	 1	 0.214619	 5.406855	 -4.611319	 1.457261	 -0.073916	 -0.275369	 0.064019	 0.662880	 -0.126700	 0.735145	 1
1463623903.926	 1	 0.160389	 4.639329	 -4.724566	 1.504907	 -0.120595	 -0.281271	 0.052067	 0.681621	 -0.142920	 0.715720	 1
1463623903.936	 1	 0.218892	 4.183612	 -4.768748	 1.547020	 -0.168058	 -0.285392	 0.039567	 0.697650	 -0.159430	 0.697353	 1
1463623903.946	 1	 0.439488	 4.129682	 -4.782895	 1.587453	 -0.215831	 -0.289356	 0.027460	 0.712307	 -0.176495	 0.678760	 1
1463623903.956	 1	 0.838231	 4.373355	 -4.900267	 1.629089	 -0.264768	 -0.294967	 0.016364	 0.726531	 -0.194929	 0.658702	 1
1463623903.966	 1	 1.365697	 4.654761	 -4.895846	 1.672537	 -0.314659	 -0.303682	 0.007064	 0.740432	 -0.215069	 0.636754	 1
1463623903.976	 1	 1.869952	 4.647960	 -4.750027	 1.715179	 -0.364392	 -0.315859	 -0.000098	 0.753138	 -0.236518	 0.613875	 1
1463623903.986	 1	 2.219190	 4.284860	 -4.518782	 1.753530	 -0.413040	 -0.330647	 -0.005560	 0.763667	 -0.258501	 0.591573	 1
1463623903.996	 1	 2.417549	 3.651680	 -4.337761	 1.784920	 -0.460651	 -0.346786	 -0.010322	 0.771404	 -0.280489	 0.571100	 1
1463623904.006	 1	 2.511709	 2.893137	 -4.179380	 1.807978	 -0.507346	 -0.363561	 -0.015146	 0.776179	 -0.302187	 0.553172	 1
1463623904.016	 1	 2.498929	 2.092319	 -4.026857	 1.822425	 -0.552865	 -0.380330	 -0.020528	 0.778154	 -0.323223	 0.538128	 1
1463623904.026	 1	 2.390534	 1.338962	 -3.821903	 1.828806	 -0.596513	 -0.396585	 -0.026645	 0.777712	 -0.343141	 0.526031	 1
1463623904.036	 1	 2.180571	 0.691893	 -3.521288	 1.828417	 -0.637029	 -0.411860	 -0.033301	 0.775433	 -0.361342	 0.516746	 1
1463623904.046	 1	 1.911855	 0.216602	 -3.170603	 1.823268	 -0.673586	 -0.425620	 -0.040247	 0.772010	 -0.377427	 0.509832	 1
1463623904.056	 1	 1.648894	 -0.048272	 -2.695449	 1.815363	 -0.705168	 -0.438130	 -0.046765	 0.768119	 -0.391184	 0.504759	 1
1463623904.066	 1	 1.435081	 -0.168891	 -2.108540	 1.805998	 -0.730607	 -0.450149	 -0.051965	 0.764251	 -0.402506	 0.501207	 1
1463623904.076	 1	 1.296185	 -0.101638	 -1.691058	 1.796556	 -0.750968	 -0.462131	 -0.055714	 0.760733	 -0.411974	 0.498456	 1
1463623904.086	 1	 1.249522	 0.150711	 -1.379232	 1.788786	 -0.767937	 -0.474612	 -0.057950	 0.757910	 -0.420385	 0.495470	 1
1463623904.096	 1	 1.262616	 0.411312	 -1.078508	 1.782645	 -0.781867	 -0.488343	 -0.058472	 0.755767	 -0.428081	 0.492081	 1
1463623904.106	 1	 1.307395	 0.641695	 -0.825234	 1.777636	 -0.793216	 -0.503698	 -0.057370	 0.754153	 -0.435311	 0.488329	 1
1463623904.116	 1	 1.337738	 0.775141	 -0.598315	 1.773114	 -0.802327	 -0.520464	 -0.054956	 0.752868	 -0.442128	 0.484451	 1
1463623904.126	 1	 1.303568	 0.796122	 -0.359091	 1.768504	 -0.809075	 -0.537931	 -0.051576	 0.751746	 -0.448321	 0.480860	 1
1463623904.136	 1	 1.119288	 0.674958	 -0.128409	 1.763900	 -0.813124	 -0.554122	 -0.047836	 0.750769	 -0.453336	 0.478064	 1
1463623904.146	 1	 0.927658	 0.369667	 0.082505	 1.758248	 -0.814705	 -0.568134	 -0.044377	 0.749639	 -0.457032	 0.476648	 1
1463623904.156	 1	 0.661734	 -0.067359	 0.284314	 1.750571	 -0.813702	 -0.579313	 -0.041624	 0.748112	 -0.459230	 0.477184	 1
1463623904.166	 1	 0.288937	 -0.434760	 0.364073	 1.742402	 -0.810925	 -0.585759	 -0.040187	 0.746457	 -0.459769	 0.479374	 1
1463623904.176	 1	 -0.109507	 -0.748370	 0.371019	 1.735162	 -0.807256	 -0.586484	 -0.040378	 0.744944	 -0.458699	 0.482725	 1
1463623904.186	 1	 -0.445937	 -1.014494	 0.351222	 1.728803	 -0.803131	 -0.582102	 -0.042108	 0.743548	 -0.456272	 0.487011	 1
1463623904.196	 1	 -0.714727	 -1.171462	 0.304143	 1.723526	 -0.798991	 -0.573560	 -0.045118	 0.742305	 -0.452827	 0.491828	 1
1463623904.206	 1	 -0.895863	 -1.088169	 0.276653	 1.720501	 -0.794934	 -0.562057	 -0.048730	 0.741519	 -0.448697	 0.496433	 1
1463623904.216	 1	 -0.928581	 -0.822905	 0.322037	 1.720406	 -0.790511	 -0.549578	 -0.051921	 0.741439	 -0.444251	 0.500213	 1
1463623904.226	 1	 -0.888454	 -0.513061	 0.384254	 1.722894	 -0.785527	 -0.537798	 -0.054100	 0.742047	 -0.439849	 0.502964	 1
1463623904.236	 1	 -0.871356	 -0.308668	 0.415848	 1.727372	 -0.780142	 -0.526447	 -0.055568	 0.743191	 -0.435463	 0.504927	 1
1463623904.246	 1	 -0.827073	 -0.215042	 0.437649	 1.732508	 -0.774522	 -0.515772	 -0.056587	 0.744539	 -0.431174	 0.506506	 1
1463623904.256	 1	 -0.767842	 -0.082430	 0.414920	 1.738164	 -0.769096	 -0.505987	 -0.057250	 0.746038	 -0.427165	 0.507622	 1
1463623904.266	 1	 -0.703323	 0.021610	 0.414261	 1.744353	 -0.763826	 -0.497068	 -0.057552	 0.747693	 -0.423425	 0.508286	 1
1463623904.276	 1	 -0.639003	 0.031439	 0.475607	 1.749959	 -0.758172	 -0.489265	 -0.057460	 0.749263	 -0.419815	 0.508978	 1
1463623904.286	 1	 -0.525926	 0.158452	 0.582380	 1.755372	 -0.751746	 -0.483087	 -0.056571	 0.750888	 -0.416351	 0.509527	 1
1463623904.296	 1	 -0.398149	 0.395537	 0.766785	 1.761393	 -0.743896	 -0.479178	 -0.054266	 0.752831	 -0.413006	 0.509633	 1
1463623904.306	 1	 -0.258530	 0.644373	 0.962919	 1.768254	 -0.734341	 -0.477632	 -0.050372	 0.755163	 -0.409709	 0.509245	 1
1463623904.316	 1	 -0.047829	 0.851117	 1.103689	 1.775220	 -0.723539	 -0.479177	 -0.044911	 0.757664	 -0.406760	 0.508404	 1
1463623904.326	 1	 -0.015866	 1.355690	 1.028174	 1.785543	 -0.713278	 -0.481970	 -0.038488	 0.760982	 -0.404328	 0.505908	 1
1463623904.336	 1	 -0.089511	 1.662572	 0.929358	 1.800434	 -0.703822	 -0.483808	 -0.031791	 0.765348	 -0.401934	 0.501679	 1
1463623904.346	 1	 -0.127850	 1.709226	 0.893890	 1.816703	 -0.694823	 -0.485039	 -0.025231	 0.769976	 -0.399476	 0.496909	 1
1463623904.356	 1	 -0.141954	 1.674050	 0.877699	 1.832871	 -0.685899	 -0.486143	 -0.018805	 0.774527	 -0.396926	 0.492142	 1
1463623904.366	 1	 -0.077942	 1.542190	 0.760812	 1.847722	 -0.677974	 -0.487683	 -0.012818	 0.778655	 -0.394730	 0.487566	 1
1463623904.376	 1	 -0.047580	 1.372490	 0.545816	 1.860846	 -0.672027	 -0.489250	 -0.007797	 0.782206	 -0.393143	 0.483252	 1
1463623904.386	 1	 -0.143926	 1.309128	 0.276427	 1.874031	 -0.668395	 -0.489196	 -0.004125	 0.785595	 -0.391918	 0.478773	 1
1463623904.396	 1	 -0.362704	 1.300434	 0.016074	 1.889159	 -0.666732	 -0.485833	 -0.001987	 0.789294	 -0.390563	 0.473784	 1
1463623904.406	 1	 -0.664006	 1.182730	 -0.203011	 1.906096	 -0.666277	 -0.478211	 -0.001568	 0.793307	 -0.388622	 0.468651	 1
1463623904.416	 1	 -1.028438	 0.941530	 -0.317185	 1.923905	 -0.665923	 -0.465716	 -0.002985	 0.797469	 -0.385604	 0.464051	 1
1463623904.426	 1	 -1.351664	 0.735142	 -0.307765	 1.941894	 -0.664338	 -0.449130	 -0.005705	 0.801701	 -0.381243	 0.460322	 1
1463623904.436	 1	 -1.597890	 0.762750	 -0.266997	 1.961267	 -0.661195	 -0.429689	 -0.008949	 0.806304	 -0.375718	 0.456761	 1
1463623904.446	 1	 -1.642524	 0.766384	 -0.223944	 1.981595	 -0.656904	 -0.409276	 -0.012198	 0.811152	 -0.369607	 0.453072	 1
1463623904.456	 1	 -1.240805	 0.387829	 -0.195794	 1.996950	 -0.653160	 -0.392466	 -0.015166	 0.814809	 -0.364523	 0.450533	 1
1463623904.466	 1	 -0.452955	 -0.197644	 -0.237943	 2.001710	 -0.652408	 -0.383679	 -0.017675	 0.815871	 -0.362302	 0.450311	 1
1463623904.476	 1	 0.285819	 -0.297170	 -0.316707	 1.998650	 -0.655629	 -0.383518	 -0.019188	 0.814910	 -0.363444	 0.451068	 1
1463623904.486	 1	 0.697212	 0.048296	 -0.325601	 1.994945	 -0.661188	 -0.388802	 -0.019256	 0.813657	 -0.366676	 0.450711	 1
1463623904.496	 1	 0.907392	 0.582757	 -0.167922	 1.993686	 -0.666626	 -0.397689	 -0.017388	 0.812998	 -0.370686	 0.448691	 1
1463623904.506	 1	 1.094235	 1.249350	 -0.132439	 1.997464	 -0.672082	 -0.409164	 -0.013537	 0.813472	 -0.375301	 0.444105	 1
1463623904.516	 1	 1.326138	 1.698310	 -0.315723	 2.005170	 -0.679735	 -0.422520	 -0.008770	 0.814602	 -0.381118	 0.437145	 1
1463623904.526	 1	 1.472843	 1.852921	 -0.642751	 2.014665	 -0.690918	 -0.436435	 -0.004369	 0.815755	 -0.388290	 0.428667	 1
1463623904.536	 1	 1.265053	 1.723673	 -0.949084	 2.025485	 -0.704695	 -0.447228	 -0.001639	 0.816875	 -0.395670	 0.419712	 1
1463623904.546	 1	 0.779993	 1.569229	 -1.175436	 2.038847	 -0.718724	 -0.451313	 -0.001144	 0.818398	 -0.401690	 0.410935	 1
1463623904.556	 1	 0.482907	 1.431380	 -1.384088	 2.054660	 -0.733013	 -0.449563	 -0.002538	 0.820277	 -0.406613	 0.402251	 1
1463623904.566	 1	 0.415409	 1.158324	 -1.664205	 2.070477	 -0.749038	 -0.444431	 -0.005702	 0.821838	 -0.411542	 0.393933	 1
1463623904.576	 1	 0.437946	 0.963749	 -1.939047	 2.085564	 -0.767477	 -0.437076	 -0.010482	 0.822829	 -0.416994	 0.385951	 1
1463623904.586	 1	 0.482684	 0.817063	 -2.054838	 2.100074	 -0.787514	 -0.428524	 -0.016195	 0.823330	 -0.422888	 0.378195	 1
1463623904.596	 1	 0.503726	 0.701515	 -1.993216	 2.113470	 -0.807444	 -0.419998	 -0.022001	 0.823427	 -0.428818	 0.370945	 1
1463623904.606	 1	 0.406259	 0.676731	 -1.783709	 2.126487	 -0.825441	 -0.411378	 -0.027336	 0.823497	 -0.434084	 0.364249	 1
1463623904.616	 1	 0.278447	 0.672113	 -1.445858	 2.139454	 -0.840104	 -0.403089	 -0.031620	 0.823829	 -0.438237	 0.358126	 1
1463623904.626	 1	 0.189854	 0.496066	 -0.971395	 2.149792	 -0.850460	 -0.396719	 -0.034555	 0.824183	 -0.441138	 0.353448	 1
1463623904.636	 1	 0.170136	 0.143880	 -0.410716	 2.153411	 -0.856461	 -0.394721	 -0.036065	 0.823969	 -0.443091	 0.351348	 1
1463623904.646	 1	 0.180059	 -0.205664	 0.085788	 2.150691	 -0.857729	 -0.396697	 -0.036168	 0.823353	 -0.443862	 0.351807	 1
1463623904.656	 1	 0.161136	 -0.525656	 0.539121	 2.141913	 -0.855043	 -0.402433	 -0.035088	 0.822269	 -0.443719	 0.354620	 1
1463623904.666	 1	 0.078386	 -0.815394	 0.738574	 2.128890	 -0.849552	 -0.409569	 -0.033661	 0.820798	 -0.442735	 0.359365	 1
1463623904.676	 1	 -0.008407	 -0.566036	 0.622285	 2.118317	 -0.843989	 -0.414917	 -0.032391	 0.819700	 -0.441473	 0.363518	 1
1463623904.686	 1	 -0.105230	 -0.365885	 0.458715	 2.115668	 -0.839780	 -0.415230	 -0.031771	 0.819761	 -0.439936	 0.365292	 1
1463623904.696	 1	 -0.229448	 -0.367350	 0.353207	 2.111843	 -0.835557	 -0.415550	 -0.031398	 0.819602	 -0.438377	 0.367549	 1
1463623904.706	 1	 -0.315394	 -0.475696	 0.338026	 2.108261	 -0.831138	 -0.414343	 -0.031540	 0.819478	 -0.436470	 0.370074	 1
1463623904.716	 1	 -0.355232	 -0.526835	 0.310187	 2.104541	 -0.826579	 -0.412338	 -0.031997	 0.819324	 -0.434357	 0.372851	 1
1463623904.726	 1	 -0.346032	 -0.510726	 0.188760	 2.101433	 -0.822859	 -0.409563	 -0.032848	 0.819159	 -0.432414	 0.375390	 1
1463623904.736	 1	 -0.307247	 -0.500511	 -0.000122	 2.099076	 -0.820837	 -0.405896	 -0.034336	 0.818904	 -0.430937	 0.377506	 1
1463623904.746	 1	 -0.269808	 -0.526650	 -0.215976	 2.097400	 -0.820804	 -0.401141	 -0.036634	 0.818506	 -0.429996	 0.379222	 1
1463623904.756	 1	 -0.201323	 -0.517905	 -0.448827	 2.096286	 -0.823099	 -0.395489	 -0.039779	 0.817901	 -0.429750	 0.380488	 1
1463623904.766	 1	 -0.180335	 -0.485922	 -0.576603	 2.096100	 -0.827002	 -0.389066	 -0.043452	 0.817241	 -0.429966	 0.381259	 1
1463623904.776	 1	 -0.215305	 -0.443193	 -0.565244	 2.096620	 -0.830910	 -0.382219	 -0.047144	 0.816687	 -0.430117	 0.381836	 1
1463623904.786	 1	 -0.253745	 -0.452595	 -0.558612	 2.098447	 -0.835046	 -0.374230	 -0.051075	 0.816305	 -0.430168	 0.382091	 1
1463623904.796	 1	 -0.287048	 -0.447626	 -0.620090	 2.099922	 -0.838808	 -0.366120	 -0.055031	 0.815877	 -0.430052	 0.382585	 1
1463623904.806	 1	 -0.283904	 -0.361272	 -0.737614	 2.102853	 -0.843457	 -0.357037	 -0.059290	 0.815558	 -0.430125	 0.382547	 1
1463623904.816	 1	 -0.236801	 -0.247255	 -0.836079	 2.107197	 -0.849172	 -0.347533	 -0.063680	 0.815319	 -0.430568	 0.381852	 1
1463623904.826	 1	 -0.163824	 -0.102260	 -0.905705	 2.112827	 -0.855898	 -0.338204	 -0.067964	 0.815150	 -0.431484	 0.380437	 1
1463623904.836	 1	 -0.087519	 -0.017755	 -0.882334	 2.119088	 -0.863004	 -0.329605	 -0.071893	 0.815029	 -0.432725	 0.378560	 1
1463623904.846	 1	 -0.000872	 0.011892	 -0.865760	 2.124666	 -0.870285	 -0.322309	 -0.075464	 0.814759	 -0.434278	 0.376665	 1
1463623904.856	 1	 0.052615	 0.043603	 -0.871260	 2.130095	 -0.877865	 -0.315709	 -0.078840	 0.814404	 -0.436088	 0.374644	 1
1463623904.866	 1	 0.112531	 0.092214	 -0.890513	 2.135565	 -0.885870	 -0.309612	 -0.082087	 0.813975	 -0.438171	 0.372441	 1
1463623904.876	 1	 0.180961	 0.149248	 -0.923614	 2.147610	 -0.892165	 -0.299104	 -0.085251	 0.814801	 -0.439094	 0.368821	 1
1463623904.886	 1	 0.249026	 0.112771	 -0.939466	 2.152834	 -0.901258	 -0.294033	 -0.088349	 0.814114	 -0.441815	 0.366351	 1
1463623904.896	 1	 0.282817	 0.102532	 -1.017657	 2.157841	 -0.911076	 -0.288916	 -0.091663	 0.813228	 -0.444805	 0.363877	 1
1463623904.906	 1	 0.301917	 0.167657	 -1.122727	 2.164118	 -0.921809	 -0.282885	 -0.095254	 0.812334	 -0.448048	 0.360961	 1
1463623904.916	 1	 0.367351	 0.345232	 -1.249537	 2.172345	 -0.933860	 -0.276272	 -0.098916	 0.811481	 -0.451802	 0.357196	 1
1463623904.926	 1	 0.406440	 0.655304	 -1.449487	 2.184721	 -0.947602	 -0.268154	 -0.102584	 0.810917	 -0.456168	 0.351854	 1
1463623904.936	 1	 0.514030	 0.724233	 -1.580871	 2.199089	 -0.963027	 -0.259404	 -0.106355	 0.810251	 -0.461218	 0.345630	 1
1463623904.946	 1	 0.608171	 0.696075	 -1.758869	 2.214071	 -0.980262	 -0.249771	 -0.110641	 0.809166	 -0.466899	 0.339137	 1
1463623904.956	 1	 0.639033	 0.661210	 -2.007792	 2.231854	 -1.000004	 -0.236796	 -0.116038	 0.807709	 -0.473207	 0.331989	 1
1463623904.966	 1	 0.619984	 0.681764	 -2.261086	 2.252640	 -1.021130	 -0.220263	 -0.122273	 0.806018	 -0.479749	 0.324385	 1
1463623904.976	 1	 0.597668	 0.627339	 -2.441512	 2.277057	 -1.043445	 -0.199325	 -0.129422	 0.804084	 -0.486424	 0.316369	 1
1463623904.986	 1	 0.653539	 0.557382	 -2.532173	 2.303608	 -1.066510	 -0.175421	 -0.137107	 0.801759	 -0.493272	 0.308329	 1
1463623904.996	 1	 0.761648	 0.526193	 -2.682612	 2.332276	 -1.090868	 -0.148874	 -0.145241	 0.798871	 -0.500600	 0.300181	 1
1463623905.006	 1	 0.826162	 0.557635	 -2.867258	 2.365687	 -1.116738	 -0.117690	 -0.153903	 0.795521	 -0.508451	 0.291441	 1
1463623905.016	 1	 0.781105	 0.463491	 -2.814455	 2.403163	 -1.142055	 -0.081753	 -0.162829	 0.791964	 -0.516060	 0.282775	 1
1463623905.026	 1	 0.656911	 0.362775	 -2.526555	 2.441048	 -1.164470	 -0.044556	 -0.171175	 0.788528	 -0.522759	 0.275037	 1
1463623905.036	 1	 0.468542	 0.331409	 -2.088244	 2.477393	 -1.182414	 -0.008778	 -0.178270	 0.785692	 -0.528092	 0.268376	 1
1463623905.046	 1	 0.278863	 0.343724	 -1.493914	 2.508606	 -1.194952	 0.021233	 -0.183419	 0.783792	 -0.531855	 0.262978	 1
1463623905.056	 1	 0.148680	 0.283677	 -0.880526	 2.530562	 -1.202411	 0.041438	 -0.186392	 0.782773	 -0.534189	 0.259166	 1
1463623905.066	 1	 0.070331	 0.194176	 -0.347796	 2.541283	 -1.205796	 0.050785	 -0.187578	 0.782359	 -0.535322	 0.257215	 1
1463623905.076	 1	 0.054105	 0.301041	 0.008239	 2.544789	 -1.206609	 0.051692	 -0.187087	 0.782501	 -0.535856	 0.256027	 1
1463623905.086	 1	 0.128872	 0.311315	 0.281584	 2.541691	 -1.206331	 0.044879	 -0.185219	 0.782815	 -0.536329	 0.255434	 1
1463623905.096	 1	 0.164145	 0.167902	 0.466451	 2.532226	 -1.205166	 0.032565	 -0.182800	 0.783056	 -0.536572	 0.255925	 1
1463623905.106	 1	 0.243904	 0.073313	 0.508573	 2.519019	 -1.204058	 0.017435	 -0.180286	 0.783036	 -0.536878	 0.257125	 1
1463623905.116	 1	 0.296845	 0.030220	 0.454423	 2.505131	 -1.203603	 0.002117	 -0.177963	 0.782740	 -0.537430	 0.258487	 1
1463623905.126	 1	 0.301543	 -0.024730	 0.359018	 2.492311	 -1.203739	 -0.011498	 -0.176101	 0.782248	 -0.538112	 0.259830	 1
1463623905.136	 1	 0.248882	 -0.031573	 0.274151	 2.481695	 -1.204046	 -0.022511	 -0.174694	 0.781750	 -0.538735	 0.260987	 1
1463623905.146	 1	 0.171878	 -0.021108	 0.219500	 2.473660	 -1.204142	 -0.030864	 -0.173608	 0.781401	 -0.539165	 0.261866	 1
1463623905.156	 1	 0.099292	 0.002270	 0.187311	 2.467740	 -1.203842	 -0.037162	 -0.172702	 0.781250	 -0.539361	 0.262511	 1
1463623905.166	 1	 0.035153	 0.006477	 0.154869	 2.463653	 -1.203205	 -0.041604	 -0.171978	 0.781264	 -0.539346	 0.262974	 1
1463623905.176	 1	 -0.014080	 0.012689	 0.111660	 2.461329	 -1.202416	 -0.044197	 -0.171479	 0.781389	 -0.539183	 0.263264	 1
1463623905.186	 1	 -0.022089	 -0.098989	 0.108559	 2.458992	 -1.201583	 -0.046081	 -0.171253	 0.781462	 -0.538909	 0.263755	 1
1463623905.196	 1	 -0.044915	 -0.192470	 0.115348	 2.455593	 -1.200559	 -0.047873	 -0.171321	 0.781435	 -0.538459	 0.264707	 1
1463623905.206	 1	 -0.079330	 -0.236086	 0.100321	 2.452340	 -1.199357	 -0.048882	 -0.171627	 0.781406	 -0.537850	 0.265832	 1
1463623905.216	 1	 -0.115631	 -0.227577	 0.085796	 2.450021	 -1.197970	 -0.048900	 -0.172040	 0.781462	 -0.537118	 0.266879	 1
1463623905.226	 1	 -0.139095	 -0.221155	 0.081797	 2.448362	 -1.196415	 -0.048296	 -0.172494	 0.781595	 -0.536294	 0.267852	 1
1463623905.236	 1	 -0.147635	 -0.225354	 0.086095	 2.446875	 -1.194748	 -0.047490	 -0.172962	 0.781761	 -0.535413	 0.268825	 1
1463623905.246	 1	 -0.135892	 -0.229597	 0.092348	 2.445084	 -1.193094	 -0.046952	 -0.173408	 0.781905	 -0.534547	 0.269842	 1
1463623905.256	 1	 -0.120968	 -0.233889	 0.093244	 2.442978	 -1.191540	 -0.046720	 -0.173832	 0.782005	 -0.533732	 0.270891	 1
1463623905.266	 1	 -0.111406	 -0.244539	 0.095193	 2.440568	 -1.190066	 -0.046710	 -0.174260	 0.782060	 -0.532951	 0.271991	 1
1463623905.276	 1	 -0.108176	 -0.245550	 0.103681	 2.437940	 -1.188579	 -0.046886	 -0.174671	 0.782103	 -0.532171	 0.273128	 1
1463623905.286	 1	 -0.112314	 -0.225266	 0.112432	 2.435330	 -1.187018	 -0.047203	 -0.175008	 0.782178	 -0.531383	 0.274230	 1
1463623905.296	 1	 -0.117470	 -0.195398	 0.122347	 2.432920	 -1.185356	 -0.047608	 -0.175240	 0.782313	 -0.530585	 0.275241	 1
1463623905.306	 1	 -0.115125	 -0.159099	 0.136485	 2.441218	 -1.183587	 -0.038457	 -0.176359	 0.783107	 -0.529371	 0.274604	 1
1463623905.316	 1	 -0.100740	 -0.089670	 0.182834	 2.438536	 -1.181667	 -0.040155	 -0.176120	 0.783385	 -0.528624	 0.275403	 1
1463623905.326	 1	 -0.087775	 -0.035639	 0.158711	 2.436433	 -1.179914	 -0.041952	 -0.175711	 0.783706	 -0.528007	 0.275935	 1
1463623905.336	 1	 -0.069738	 -0.050647	 0.149889	 2.434398	 -1.178363	 -0.043688	 -0.175336	 0.783977	 -0.527466	 0.276436	 1
1463623905.346	 1	 -0.048543	 -0.089996	 0.158911	 2.432868	 -1.178525	 -0.044668	 -0.175380	 0.783809	 -0.527530	 0.276761	 1
1463623905.356	 1	 -0.032559	 -0.108010	 0.174591	 2.429227	 -1.177139	 -0.047440	 -0.175045	 0.783904	 -0.527059	 0.277603	 1
1463623905.366	 1	 -0.014348	 -0.105829	 0.189373	 2.425127	 -1.175770	 -0.050746	 -0.174621	 0.783974	 -0.526630	 0.278485	 1
1463623905.376	 1	 -0.003525	 -0.075007	 0.190631	 2.420935	 -1.174477	 -0.054379	 -0.174103	 0.784036	 -0.526271	 0.279311	 1
1463623905.386	 1	 0.007229	 -0.047411	 0.182226	 2.426414	 -1.174501	 -0.049377	 -0.174626	 0.784358	 -0.526060	 0.278476	 1
1463623905.396	 1	 0.014739	 -0.023108	 0.163203	 2.422862	 -1.173497	 -0.052914	 -0.174019	 0.784428	 -0.525855	 0.279046	 1
1463623905.406	 1	 0.016857	 0.000054	 0.131427	 2.420059	 -1.172694	 -0.055898	 -0.173462	 0.784500	 -0.525717	 0.279448	 1
1463623905.416	 1	 0.013498	 -0.005494	 0.098366	 2.417944	 -1.172092	 -0.058186	 -0.173028	 0.784556	 -0.525621	 0.279742	 1
1463623905.426	 1	 0.004736	 -0.013195	 0.054631	 2.426236	 -1.172868	 -0.050609	 -0.173941	 0.784858	 -0.525583	 0.278397	 1
1463623905.436	 1	 -0.007127	 -0.024984	 0.037572	 2.425393	 -1.172559	 -0.051310	 -0.173840	 0.784881	 -0.525488	 0.278576	 1
1463623905.446	 1	 -0.015796	 -0.048398	 0.032101	 2.424580	 -1.172238	 -0.051724	 -0.173842	 0.784885	 -0.525351	 0.278820	 1
1463623905.456	 1	 -0.015947	 -0.072924	 0.023348	 2.423642	 -1.171940	 -0.051981	 -0.173942	 0.784853	 -0.525189	 0.279153	 1
1463623905.466	 1	 -0.027618	 -0.055863	 0.022540	 2.426348	 -1.170693	 -0.048952	 -0.174231	 0.785285	 -0.524519	 0.279019	 1
1463623905.476	 1	 -0.030776	 -0.055776	 0.033226	 2.425702	 -1.170265	 -0.049053	 -0.174295	 0.785312	 -0.524311	 0.279291	 1
1463623905.486	 1	 -0.031838	 -0.059981	 0.039590	 2.424917	 -1.169780	 -0.049261	 -0.174346	 0.785344	 -0.524083	 0.279597	 1
1463623905.496	 1	 -0.023366	 -0.078051	 0.044677	 2.423850	 -1.169296	 -0.049647	 -0.174400	 0.785352	 -0.523857	 0.279966	 1
1463623905.506	 1	 -0.025460	 -0.062136	 0.037389	 2.424068	 -1.167789	 -0.048855	 -0.174424	 0.785697	 -0.523180	 0.280248	 1
1463623905.516	 1	 -0.028596	 -0.053571	 0.043891	 2.423217	 -1.167303	 -0.049185	 -0.174442	 0.785730	 -0.522964	 0.280548	 1
1463623905.526	 1	 -0.030691	 -0.047167	 0.046100	 2.422377	 -1.166766	 -0.049564	 -0.174431	 0.785782	 -0.522735	 0.280836	 1
1463623905.536	 1	 -0.025318	 -0.036570	 0.042954	 2.421640	 -1.166277	 -0.049944	 -0.174399	 0.785836	 -0.522534	 0.281079	 1
1463623905.546	 1	 -0.024187	 -0.018514	 0.038850	 2.422685	 -1.165188	 -0.048825	 -0.174399	 0.786161	 -0.522045	 0.281076	 1
1463623905.556	 1	 -0.014515	 -0.001547	 0.035726	 2.422241	 -1.164817	 -0.049239	 -0.174295	 0.786229	 -0.521921	 0.281182	 1
1463623905.566	 1	 -0.012334	 0.010131	 0.033685	 2.421893	 -1.164495	 -0.049694	 -0.174158	 0.786302	 -0.521829	 0.281235	 1
1463623905.576	 1	 -0.005894	 0.019669	 0.031586	 2.421613	 -1.164224	 -0.050190	 -0.173994	 0.786374	 -0.521769	 0.281244	 1
1463623905.586	 1	 -0.002668	 0.026051	 0.031611	 2.423548	 -1.163832	 -0.048736	 -0.174001	 0.786619	 -0.521581	 0.280904	 1
1463623905.596	 1	 -0.002662	 0.028170	 0.030564	 2.423344	 -1.163606	 -0.049265	 -0.173812	 0.786694	 -0.521550	 0.280870	 1
1463623905.606	 1	 -0.003738	 0.027117	 0.030557	 2.425094	 -1.163382	 -0.047995	 -0.173821	 0.786886	 -0.521436	 0.280537	 1
1463623905.616	 1	 -0.003762	 0.023926	 0.029453	 2.426889	 -1.163215	 -0.046653	 -0.173855	 0.787063	 -0.521340	 0.280198	 1
1463623905.626	 1	 -0.003762	 0.019715	 0.034736	 2.427763	 -1.163217	 -0.046132	 -0.173833	 0.787140	 -0.521344	 0.279989	 1
1463623905.636	 1	 -0.000540	 0.020804	 0.038974	 2.428484	 -1.163272	 -0.045763	 -0.173798	 0.787195	 -0.521376	 0.279796	 1
1463623905.646	 1	 0.005876	 0.023980	 0.038939	 2.429353	 -1.163368	 -0.045307	 -0.173766	 0.787252	 -0.521425	 0.279563	 1
1463623905.656	 1	 0.010169	 0.031404	 0.036829	 2.430551	 -1.163537	 -0.044626	 -0.173747	 0.787317	 -0.521500	 0.279251	 1
1463623905.666	 1	 0.010178	 0.037763	 0.032614	 2.432319	 -1.163670	 -0.043463	 -0.173764	 0.787429	 -0.521543	 0.278844	 1
1463623905.676	 1	 0.011234	 0.038807	 0.029408	 2.433928	 -1.163731	 -0.042463	 -0.173748	 0.787551	 -0.521567	 0.278465	 1
1463623905.686	 1	 0.005840	 0.034514	 0.020880	 2.435622	 -1.163782	 -0.041324	 -0.173762	 0.787675	 -0.521576	 0.278090	 1
1463623905.696	 1	 0.001498	 0.024913	 0.014426	 2.437134	 -1.163892	 -0.040240	 -0.173811	 0.787763	 -0.521599	 0.277766	 1
1463623905.706	 1	 -0.002816	 0.017468	 0.012257	 2.438096	 -1.164016	 -0.039564	 -0.173845	 0.787806	 -0.521637	 0.277551	 1
1463623905.716	 1	 -0.004985	 0.011087	 0.011146	 2.438669	 -1.164111	 -0.039173	 -0.173863	 0.787827	 -0.521670	 0.277417	 1
1463623905.726	 1	 -0.006028	 0.014297	 0.013314	 2.438908	 -1.164119	 -0.039102	 -0.173831	 0.787852	 -0.521684	 0.277341	 1
1463623905.736	 1	 -0.002802	 0.018550	 0.014390	 2.438927	 -1.164151	 -0.039282	 -0.173759	 0.787862	 -0.521723	 0.277283	 1
1463623905.746	 1	 0.000435	 0.024930	 0.015485	 2.438953	 -1.164202	 -0.039517	 -0.173668	 0.787873	 -0.521778	 0.277207	 1
1463623905.756	 1	 0.000440	 0.027051	 0.014437	 2.439225	 -1.164181	 -0.039557	 -0.173578	 0.787920	 -0.521799	 0.277091	 1
1463623905.766	 1	 0.006861	 0.031289	 0.014417	 2.440023	 -1.164067	 -0.039166	 -0.173507	 0.788025	 -0.521770	 0.276890	 1
1463623905.776	 1	 0.010078	 0.035539	 0.014427	 2.441131	 -1.163801	 -0.038532	 -0.173428	 0.788192	 -0.521674	 0.276646	 1
1463623905.786	 1	 0.012211	 0.035547	 0.015471	 2.442534	 -1.163502	 -0.037646	 -0.173367	 0.788385	 -0.521556	 0.276354	 1
1463623905.796	 1	 0.010082	 0.033470	 0.020797	 2.443695	 -1.163146	 -0.036979	 -0.173275	 0.788579	 -0.521426	 0.276107	 1
1463623905.806	 1	 0.007941	 0.030314	 0.023982	 2.444584	 -1.162776	 -0.036543	 -0.173160	 0.788758	 -0.521298	 0.275908	 1
1463623905.816	 1	 0.004705	 0.022889	 0.025004	 2.445226	 -1.162546	 -0.036269	 -0.173067	 0.788882	 -0.521226	 0.275749	 1
1463623905.826	 1	 0.002648	 0.018985	 0.025953	 2.445784	 -1.162333	 -0.036028	 -0.172985	 0.788992	 -0.521157	 0.275613	 1
1463623905.836	 1	 0.001570	 0.016862	 0.025941	 2.445899	 -1.162218	 -0.036164	 -0.172885	 0.789049	 -0.521141	 0.275544	 1
1463623905.846	 1	 0.002638	 0.018972	 0.023817	 2.446047	 -1.162189	 -0.036281	 -0.172796	 0.789087	 -0.521159	 0.275458	 1
1463623905.856	 1	 0.007990	 0.023204	 0.022742	 2.446103	 -1.162248	 -0.036530	 -0.172692	 0.789101	 -0.521221	 0.275365	 1
1463623905.866	 1	 0.010164	 0.031708	 0.022799	 2.446330	 -1.162332	 -0.036686	 -0.172583	 0.789125	 -0.521295	 0.275226	 1
1463623905.876	 1	 0.012332	 0.037037	 0.024959	 2.446668	 -1.162350	 -0.036812	 -0.172448	 0.789177	 -0.521348	 0.275058	 1
1463623905.886	 1	 0.010211	 0.041294	 0.023948	 2.447480	 -1.162262	 -0.036538	 -0.172332	 0.789288	 -0.521346	 0.274818	 1
1463623905.896	 1	 0.004853	 0.038114	 0.022896	 2.448402	 -1.162097	 -0.036142	 -0.172223	 0.789422	 -0.521307	 0.274574	 1
1463623905.906	 1	 -0.002653	 0.032806	 0.020777	 2.449332	 -1.161973	 -0.035677	 -0.172147	 0.789541	 -0.521275	 0.274340	 1
1463623905.916	 1	 -0.008040	 0.024300	 0.018609	 2.450278	 -1.161837	 -0.035089	 -0.172112	 0.789655	 -0.521222	 0.274134	 1
1463623905.926	 1	 -0.010224	 0.016839	 0.015358	 2.451074	 -1.161728	 -0.034553	 -0.172100	 0.789746	 -0.521175	 0.273970	 1
1463623905.936	 1	 -0.009177	 0.012583	 0.015307	 2.451495	 -1.161653	 -0.034309	 -0.172076	 0.789802	 -0.521148	 0.273875	 1
1463623905.946	 1	 -0.009172	 0.012591	 0.016370	 2.451804	 -1.161686	 -0.034163	 -0.172058	 0.789823	 -0.521167	 0.273788	 1
1463623905.956	 1	 -0.010244	 0.012588	 0.015310	 2.452281	 -1.161740	 -0.033863	 -0.172060	 0.789849	 -0.521188	 0.273672	 1
1463623905.966	 1	 -0.008114	 0.012575	 0.014221	 2.452806	 -1.161800	 -0.033521	 -0.172067	 0.789876	 -0.521210	 0.273548	 1
1463623905.976	 1	 -0.009205	 0.009373	 0.012066	 2.453328	 -1.161802	 -0.033151	 -0.172078	 0.789915	 -0.521205	 0.273438	 1
1463623905.986	 1	 -0.009239	 0.005097	 0.008827	 2.453993	 -1.161721	 -0.032599	 -0.172110	 0.789979	 -0.521156	 0.273327	 1
1463623905.996	 1	 -0.010327	 0.000847	 0.008794	 2.454493	 -1.161626	 -0.032155	 -0.172142	 0.790034	 -0.521101	 0.273254	 1
1463623906.006	 1	 -0.013560	 -0.004467	 0.007704	 2.455129	 -1.161522	 -0.031530	 -0.172208	 0.790093	 -0.521029	 0.273176	 1
1463623906.016	 1	 -0.015744	 -0.012984	 0.005510	 2.455698	 -1.161450	 -0.030894	 -0.172301	 0.790135	 -0.520963	 0.273124	 1
1463623906.026	 1	 -0.015784	 -0.020436	 0.004372	 2.456073	 -1.161433	 -0.030354	 -0.172414	 0.790144	 -0.520915	 0.273118	 1
1463623906.036	 1	 -0.012590	 -0.020461	 0.002210	 2.456245	 -1.161479	 -0.029979	 -0.172524	 0.790123	 -0.520897	 0.273144	 1
1463623906.046	 1	 -0.010421	 -0.015133	 0.004370	 2.456271	 -1.161538	 -0.029788	 -0.172601	 0.790095	 -0.520896	 0.273178	 1
1463623906.056	 1	 -0.008256	 -0.008758	 0.004410	 2.456219	 -1.161562	 -0.029733	 -0.172640	 0.790077	 -0.520894	 0.273210	 1
1463623906.066	 1	 -0.006087	 -0.003431	 0.006571	 2.456047	 -1.161566	 -0.029847	 -0.172640	 0.790062	 -0.520896	 0.273248	 1
1463623906.076	 1	 -0.003937	 -0.000246	 0.006582	 2.456031	 -1.161530	 -0.029865	 -0.172632	 0.790071	 -0.520883	 0.273253	 1
1463623906.086	 1	 -0.003929	 0.000825	 0.007658	 2.455991	 -1.161404	 -0.029921	 -0.172602	 0.790103	 -0.520837	 0.273267	 1
1463623906.096	 1	 -0.002885	 -0.005543	 0.009720	 2.456140	 -1.161284	 -0.029772	 -0.172605	 0.790141	 -0.520783	 0.273258	 1
1463623906.106	 1	 -0.006116	 -0.008746	 0.006518	 2.456665	 -1.161185	 -0.029229	 -0.172668	 0.790191	 -0.520715	 0.273202	 1
1463623906.116	 1	 -0.010421	 -0.014064	 0.004371	 2.457456	 -1.161086	 -0.028376	 -0.172785	 0.790251	 -0.520628	 0.273121	 1
1463623906.126	 1	 -0.015797	 -0.019387	 0.001168	 2.458257	 -1.160992	 -0.027445	 -0.172931	 0.790304	 -0.520533	 0.273056	 1
1463623906.136	 1	 -0.019027	 -0.021534	 -0.003091	 2.459025	 -1.160912	 -0.026494	 -0.173096	 0.790347	 -0.520439	 0.273008	 1
1463623906.146	 1	 -0.017970	 -0.022607	 -0.004178	 2.459633	 -1.160821	 -0.025671	 -0.173250	 0.790382	 -0.520343	 0.272991	 1
1463623906.156	 1	 -0.015812	 -0.018351	 -0.003092	 2.459982	 -1.160707	 -0.025118	 -0.173361	 0.790411	 -0.520253	 0.273008	 1
1463623906.166	 1	 -0.013665	 -0.017278	 -0.000970	 2.460058	 -1.160603	 -0.024841	 -0.173436	 0.790424	 -0.520181	 0.273060	 1
1463623906.176	 1	 -0.012600	 -0.020449	 0.002189	 2.459968	 -1.160465	 -0.024725	 -0.173485	 0.790437	 -0.520103	 0.273138	 1
1463623906.186	 1	 -0.011540	 -0.022571	 0.003226	 2.459932	 -1.160270	 -0.024531	 -0.173543	 0.790466	 -0.519997	 0.273222	 1
1463623906.196	 1	 -0.012613	 -0.023632	 0.003226	 2.459972	 -1.160124	 -0.024251	 -0.173623	 0.790484	 -0.519905	 0.273293	 1
1463623906.206	 1	 -0.012609	 -0.021511	 0.002178	 2.460251	 -1.159971	 -0.023765	 -0.173720	 0.790519	 -0.519802	 0.273324	 1
1463623906.216	 1	 -0.012603	 -0.017278	 -0.000981	 2.460654	 -1.159843	 -0.023192	 -0.173824	 0.790557	 -0.519709	 0.273326	 1
1463623906.226	 1	 -0.013660	 -0.013034	 -0.003066	 2.461175	 -1.159745	 -0.022551	 -0.173928	 0.790598	 -0.519628	 0.273296	 1
1463623906.236	 1	 -0.015777	 -0.006668	 -0.006187	 2.461772	 -1.159648	 -0.021882	 -0.174024	 0.790646	 -0.519550	 0.273243	 1
1463623906.246	 1	 -0.016825	 -0.002410	 -0.006139	 2.462270	 -1.159564	 -0.021327	 -0.174102	 0.790688	 -0.519485	 0.273198	 1
1463623906.256	 1	 -0.018927	 0.001875	 -0.002883	 2.462746	 -1.159367	 -0.020840	 -0.174143	 0.790761	 -0.519382	 0.273156	 1
1463623906.266	 1	 -0.019995	 0.002934	 -0.003929	 2.463138	 -1.159160	 -0.020445	 -0.174168	 0.790833	 -0.519281	 0.273123	 1
1463623906.276	 1	 -0.022124	 0.005060	 -0.004956	 2.463683	 -1.158950	 -0.019920	 -0.174204	 0.790916	 -0.519174	 0.273063	 1
1463623906.286	 1	 -0.022139	 0.002926	 -0.006042	 2.464220	 -1.158822	 -0.019387	 -0.174257	 0.790975	 -0.519098	 0.273002	 1
1463623906.296	 1	 -0.023249	 -0.003476	 -0.009291	 2.464885	 -1.158736	 -0.018675	 -0.174354	 0.791026	 -0.519025	 0.272932	 1
1463623906.306	 1	 -0.025417	 -0.007747	 -0.012510	 2.465541	 -1.158668	 -0.017914	 -0.174475	 0.791067	 -0.518951	 0.272876	 1
1463623906.316	 1	 -0.021157	 -0.008831	 -0.013624	 2.466059	 -1.158666	 -0.017266	 -0.174597	 0.791081	 -0.518907	 0.272839	 1
1463623906.326	 1	 -0.019029	 -0.008853	 -0.015777	 2.466546	 -1.158844	 -0.016642	 -0.174742	 0.791048	 -0.518935	 0.272792	 1
1463623906.336	 1	 -0.014743	 -0.004619	 -0.016843	 2.467060	 -1.158998	 -0.016027	 -0.174874	 0.791024	 -0.518957	 0.272734	 1
1463623906.346	 1	 -0.013666	 -0.000391	 -0.020012	 2.467468	 -1.159204	 -0.015542	 -0.174989	 0.790984	 -0.519007	 0.272679	 1
1463623906.356	 1	 -0.009359	 0.008097	 -0.021036	 2.467894	 -1.159364	 -0.015117	 -0.175069	 0.790964	 -0.519050	 0.272605	 1
1463623906.366	 1	 -0.003960	 0.017684	 -0.016729	 2.468197	 -1.159394	 -0.014910	 -0.175076	 0.790980	 -0.519060	 0.272537	 1
1463623906.376	 1	 0.001427	 0.024087	 -0.011385	 2.468252	 -1.159385	 -0.015030	 -0.175013	 0.791000	 -0.519077	 0.272485	 1
1463623906.386	 1	 0.006809	 0.023099	 0.001350	 2.468101	 -1.159368	 -0.015402	 -0.174903	 0.791016	 -0.519108	 0.272450	 1
1463623906.396	 1	 0.008911	 0.009327	 0.009731	 2.467863	 -1.159267	 -0.015756	 -0.174811	 0.791041	 -0.519096	 0.272461	 1
1463623906.406	 1	 0.006894	 0.032750	 0.012099	 2.467993	 -1.159128	 -0.015928	 -0.174689	 0.791109	 -0.519076	 0.272378	 1
1463623906.416	 1	 0.012367	 0.058293	 0.016552	 2.468153	 -1.159057	 -0.016347	 -0.174472	 0.791186	 -0.519119	 0.272213	 1
1463623906.426	 1	 0.022025	 0.067853	 0.018689	 2.468202	 -1.159061	 -0.017009	 -0.174198	 0.791250	 -0.519215	 0.272021	 1
1463623906.436	 1	 0.028502	 0.081677	 0.020892	 2.468369	 -1.159194	 -0.017704	 -0.173898	 0.791298	 -0.519376	 0.271762	 1
1463623906.446	 1	 0.037086	 0.092281	 0.019846	 2.468756	 -1.159499	 -0.018320	 -0.173597	 0.791326	 -0.519614	 0.271420	 1
1463623906.456	 1	 0.043492	 0.095432	 0.016617	 2.469456	 -1.159948	 -0.018708	 -0.173324	 0.791339	 -0.519904	 0.271000	 1
1463623906.466	 1	 0.038082	 0.088992	 0.005939	 2.470676	 -1.160418	 -0.018550	 -0.173136	 0.791369	 -0.520174	 0.270514	 1
1463623906.476	 1	 0.032646	 0.077234	 -0.004788	 2.472169	 -1.160864	 -0.017992	 -0.173030	 0.791408	 -0.520403	 0.270027	 1
1463623906.486	 1	 0.013329	 0.067613	 -0.019635	 2.473796	 -1.161181	 -0.017134	 -0.172991	 0.791472	 -0.520553	 0.269577	 1
1463623906.496	 1	 -0.009211	 0.055851	 -0.037672	 2.476041	 -1.161437	 -0.015513	 -0.173083	 0.791568	 -0.520630	 0.269086	 1
1463623906.506	 1	 -0.021043	 0.049399	 -0.052554	 2.478556	 -1.161594	 -0.013471	 -0.173259	 0.791688	 -0.520635	 0.268608	 1
1463623906.516	 1	 -0.016776	 0.056771	 -0.061049	 2.480903	 -1.161675	 -0.011589	 -0.173404	 0.791819	 -0.520618	 0.268162	 1
1463623906.526	 1	 -0.011376	 0.072696	 -0.063080	 2.483351	 -1.161817	 -0.009733	 -0.173521	 0.791949	 -0.520637	 0.267663	 1
1463623906.536	 1	 -0.011243	 0.099304	 -0.060702	 2.485677	 -1.162039	 -0.008227	 -0.173542	 0.792072	 -0.520726	 0.267114	 1
1463623906.546	 1	 -0.016487	 0.118466	 -0.060479	 2.488213	 -1.162323	 -0.006724	 -0.173515	 0.792206	 -0.520858	 0.266475	 1
1463623906.556	 1	 -0.016458	 0.128009	 -0.064657	 2.491170	 -1.162715	 -0.004926	 -0.173510	 0.792342	 -0.521030	 0.265737	 1
1463623906.566	 1	 -0.007862	 0.144964	 -0.069904	 2.494224	 -1.163089	 -0.003176	 -0.173458	 0.792498	 -0.521211	 0.264950	 1
1463623906.576	 1	 -0.001007	 0.234364	 -0.059534	 2.497856	 -1.162695	 -0.001355	 -0.173181	 0.792923	 -0.521129	 0.264019	 1
1463623906.586	 1	 -0.052298	 0.179544	 -0.012703	 2.500121	 -1.162858	 -0.001163	 -0.172688	 0.793163	 -0.521364	 0.263157	 1
1463623906.596	 1	 -0.067047	 0.003980	 -0.028077	 2.502073	 -1.163582	 0.000497	 -0.172933	 0.793087	 -0.521601	 0.262753	 1
1463623906.606	 1	 -0.039440	 0.006812	 -0.066663	 2.504323	 -1.163722	 0.002906	 -0.173320	 0.793138	 -0.521535	 0.262477	 1
1463623906.616	 1	 -0.002993	 0.061836	 -0.090980	 2.506524	 -1.164098	 0.004774	 -0.173535	 0.793166	 -0.521630	 0.262059	 1
1463623906.626	 1	 0.024946	 0.103228	 -0.091904	 2.508919	 -1.164812	 0.006376	 -0.173638	 0.793153	 -0.521912	 0.261467	 1
1463623906.636	 1	 0.017626	 0.128833	 -0.084142	 2.511670	 -1.165461	 0.007970	 -0.173636	 0.793204	 -0.522201	 0.260738	 1
1463623906.646	 1	 0.016501	 0.116081	 -0.083188	 2.514651	 -1.166083	 0.009841	 -0.173679	 0.793267	 -0.522463	 0.259992	 1
1463623906.656	 1	 0.039893	 0.107425	 -0.094130	 2.517192	 -1.166813	 0.011396	 -0.173724	 0.793270	 -0.522772	 0.259330	 1
1463623906.666	 1	 0.056005	 0.122337	 -0.084535	 2.519102	 -1.167422	 0.012226	 -0.173631	 0.793285	 -0.523072	 0.258740	 1
1463623906.676	 1	 0.064613	 0.116113	 -0.059082	 2.519918	 -1.167990	 0.011960	 -0.173384	 0.793264	 -0.523403	 0.258300	 1
1463623906.686	 1	 0.061472	 0.099363	 -0.022964	 2.519753	 -1.168149	 0.010804	 -0.172989	 0.793301	 -0.523602	 0.258050	 1
1463623906.696	 1	 0.048668	 0.074098	 0.007820	 2.519829	 -1.168565	 0.010014	 -0.172708	 0.793270	 -0.523876	 0.257778	 1
1463623906.706	 1	 0.037946	 0.051893	 0.021561	 2.519498	 -1.168788	 0.009027	 -0.172431	 0.793253	 -0.524063	 0.257633	 1
1463623906.716	 1	 0.035747	 0.028584	 0.033087	 2.518762	 -1.168909	 0.007865	 -0.172178	 0.793227	 -0.524197	 0.257610	 1
1463623906.726	 1	 0.036775	 0.015855	 0.038287	 2.517831	 -1.169020	 0.006633	 -0.171948	 0.793184	 -0.524320	 0.257647	 1
1463623906.736	 1	 0.043208	 0.016946	 0.044636	 2.516588	 -1.169114	 0.005122	 -0.171687	 0.793129	 -0.524445	 0.257736	 1
1463623906.746	 1	 0.039122	 0.044707	 0.057719	 2.515371	 -1.169128	 0.003396	 -0.171323	 0.793116	 -0.524569	 0.257765	 1
1463623906.756	 1	 0.026468	 0.065055	 0.071874	 2.514262	 -1.168965	 0.001530	 -0.170853	 0.793176	 -0.524650	 0.257729	 1
1463623906.766	 1	 0.016970	 0.077934	 0.083798	 2.513550	 -1.168645	 -0.000126	 -0.170342	 0.793309	 -0.524675	 0.257604	 1
1463623906.776	 1	 0.019137	 0.081150	 0.088069	 2.512751	 -1.168372	 -0.001918	 -0.169806	 0.793430	 -0.524730	 0.257475	 1
1463623906.786	 1	 0.025515	 0.078974	 0.083725	 2.511934	 -1.168346	 -0.003725	 -0.169300	 0.793485	 -0.524883	 0.257327	 1
1463623906.796	 1	 0.031921	 0.087396	 0.074151	 2.511366	 -1.168366	 -0.005345	 -0.168809	 0.793544	 -0.525051	 0.257125	 1
1463623906.806	 1	 0.039390	 0.095807	 0.063502	 2.511019	 -1.168458	 -0.006824	 -0.168325	 0.793600	 -0.525248	 0.256867	 1
1463623906.816	 1	 0.035157	 0.089655	 0.053817	 2.510942	 -1.168521	 -0.008012	 -0.167882	 0.793673	 -0.525419	 0.256579	 1
1463623906.826	 1	 0.023301	 0.070499	 0.047344	 2.510963	 -1.168517	 -0.008900	 -0.167523	 0.793752	 -0.525533	 0.256338	 1
1463623906.836	 1	 0.006094	 0.048168	 0.040890	 2.510879	 -1.168398	 -0.009627	 -0.167242	 0.793833	 -0.525572	 0.256191	 1
1463623906.846	 1	 -0.002531	 0.033272	 0.036562	 2.510766	 -1.168251	 -0.010166	 -0.167038	 0.793902	 -0.525574	 0.256107	 1
1463623906.856	 1	 -0.006810	 0.036430	 0.030231	 2.511061	 -1.168122	 -0.010311	 -0.166886	 0.793985	 -0.525566	 0.255963	 1
1463623906.866	 1	 -0.005748	 0.044852	 0.018575	 2.511304	 -1.168034	 -0.010530	 -0.166724	 0.794058	 -0.525579	 0.255817	 1
1463623906.876	 1	 0.000762	 0.068225	 0.017670	 2.511460	 -1.167969	 -0.010996	 -0.166489	 0.794134	 -0.525626	 0.255638	 1
1463623906.886	 1	 0.007247	 0.085224	 0.017773	 2.511704	 -1.167917	 -0.011597	 -0.166180	 0.794228	 -0.525702	 0.255388	 1
1463623906.896	 1	 0.015846	 0.096905	 0.018873	 2.511689	 -1.168032	 -0.012576	 -0.165810	 0.794277	 -0.525872	 0.255126	 1
1463623906.906	 1	 0.022280	 0.101155	 0.020988	 2.511641	 -1.168229	 -0.013651	 -0.165421	 0.794309	 -0.526083	 0.254845	 1
1463623906.916	 1	 0.028737	 0.113884	 0.018919	 2.511863	 -1.168426	 -0.014586	 -0.165017	 0.794363	 -0.526298	 0.254493	 1
1463623906.926	 1	 0.033050	 0.126604	 0.014736	 2.512253	 -1.168639	 -0.015491	 -0.164583	 0.794431	 -0.526530	 0.254082	 1
1463623906.936	 1	 0.041605	 0.132937	 0.011523	 2.512747	 -1.168930	 -0.016374	 -0.164141	 0.794491	 -0.526797	 0.253627	 1
1463623906.946	 1	 0.043740	 0.135043	 0.009393	 2.513460	 -1.169171	 -0.017087	 -0.163701	 0.794576	 -0.527042	 0.253135	 1
1463623906.956	 1	 0.043715	 0.132894	 0.006174	 2.514375	 -1.169457	 -0.017595	 -0.163295	 0.794659	 -0.527294	 0.252612	 1
1463623906.966	 1	 0.036179	 0.121202	 0.003997	 2.515656	 -1.169754	 -0.017667	 -0.162968	 0.794749	 -0.527525	 0.252057	 1
1463623906.976	 1	 0.030749	 0.104178	 0.000684	 2.517012	 -1.170164	 -0.017487	 -0.162736	 0.794797	 -0.527775	 0.251530	 1
1463623906.986	 1	 0.023261	 0.098899	 0.002827	 2.518442	 -1.170482	 -0.017149	 -0.162533	 0.794867	 -0.527975	 0.251023	 1
1463623906.996	 1	 0.022212	 0.101047	 0.004982	 2.519843	 -1.170833	 -0.016854	 -0.162326	 0.794926	 -0.528191	 0.250513	 1
1463623907.006	 1	 0.028610	 0.097853	 0.007024	 2.520773	 -1.171255	 -0.016999	 -0.162078	 0.794944	 -0.528452	 0.250068	 1
1463623907.016	 1	 0.038166	 0.087188	 0.006837	 2.521308	 -1.171806	 -0.017438	 -0.161833	 0.794902	 -0.528768	 0.249691	 1
1463623907.026	 1	 0.044567	 0.087162	 0.005713	 2.521643	 -1.172355	 -0.018047	 -0.161574	 0.794849	 -0.529088	 0.249349	 1
1463623907.036	 1	 0.048723	 0.082726	 -0.017816	 2.522447	 -1.173053	 -0.018162	 -0.161405	 0.794775	 -0.529444	 0.248937	 1
1463623907.046	 1	 0.057090	 0.076065	 -0.053126	 2.523958	 -1.174025	 -0.017460	 -0.161410	 0.794651	 -0.529863	 0.248437	 1
1463623907.056	 1	 0.056980	 0.084306	 -0.090357	 2.526660	 -1.175180	 -0.015606	 -0.161578	 0.794533	 -0.530309	 0.247754	 1
1463623907.066	 1	 0.053556	 0.071260	 -0.130953	 2.529949	 -1.176528	 -0.013009	 -0.161909	 0.794375	 -0.530787	 0.247020	 1
1463623907.076	 1	 0.008172	 0.147187	 -0.092541	 2.532376	 -1.176698	 -0.011617	 -0.161840	 0.794516	 -0.530880	 0.246411	 1
1463623907.086	 1	 -0.040312	 0.210650	 -0.013712	 2.533738	 -1.175733	 -0.011996	 -0.161206	 0.794970	 -0.530654	 0.245851	 1
1463623907.096	 1	 -0.090156	 0.239836	 0.030688	 2.536904	 -1.175013	 -0.011125	 -0.160622	 0.795478	 -0.530516	 0.244885	 1
1463623907.106	 1	 -0.090378	 0.186710	 0.037645	 2.540964	 -1.174524	 -0.009233	 -0.160236	 0.795951	 -0.530416	 0.243813	 1
1463623907.116	 1	 -0.064712	 0.002369	 0.001602	 2.542135	 -1.173848	 -0.008469	 -0.160146	 0.796211	 -0.530148	 0.243606	 1
1463623907.126	 1	 0.007897	 0.043357	 -0.037016	 2.543137	 -1.173909	 -0.007618	 -0.160227	 0.796249	 -0.530149	 0.243428	 1
1463623907.136	 1	 0.079512	 0.046519	 -0.012032	 2.543230	 -1.174557	 -0.008124	 -0.160081	 0.796129	 -0.530476	 0.243202	 1
1463623907.146	 1	 0.121946	 -0.021577	 0.001880	 2.541002	 -1.176392	 -0.010374	 -0.160005	 0.795553	 -0.531300	 0.243338	 1
1463623907.156	 1	 0.176024	 0.010322	 -0.124054	 2.540681	 -1.178280	 -0.010720	 -0.160187	 0.795043	 -0.532066	 0.243214	 1
1463623907.166	 1	 0.184812	 -0.029320	 -0.013661	 2.538926	 -1.180086	 -0.012403	 -0.160211	 0.794486	 -0.532845	 0.243311	 1
1463623907.176	 1	 0.160524	 -0.044599	 0.069538	 2.535109	 -1.181166	 -0.016110	 -0.159892	 0.794032	 -0.533419	 0.243746	 1
1463623907.186	 1	 0.112316	 -0.095410	 0.083340	 2.530920	 -1.181726	 -0.019761	 -0.159631	 0.793664	 -0.533751	 0.244386	 1
1463623907.196	 1	 0.060932	 -0.143006	 0.099328	 2.526981	 -1.181999	 -0.022628	 -0.159581	 0.793338	 -0.533896	 0.245160	 1
1463623907.206	 1	 0.024802	 -0.148947	 0.145415	 2.522415	 -1.181501	 -0.025946	 -0.159419	 0.793174	 -0.533743	 0.246130	 1
1463623907.216	 1	 0.023987	 -0.153760	 0.214651	 2.516691	 -1.180545	 -0.030488	 -0.159020	 0.793081	 -0.533470	 0.247275	 1
1463623907.226	 1	 0.040423	 -0.137212	 0.303121	 2.509219	 -1.179184	 -0.037032	 -0.158236	 0.793031	 -0.533153	 0.248618	 1
1463623907.236	 1	 0.045151	 -0.115303	 0.392807	 2.500167	 -1.177348	 -0.045523	 -0.157033	 0.793051	 -0.532777	 0.250120	 1
1463623907.256	 2	 0.025110	 -0.130633	 0.470640	 2.479654	 -1.172520	 -0.065103	 -0.154049	 0.793240	 -0.531756	 0.253525	 1
1463623907.266	 2	 -0.018703	 -0.183338	 0.518490	 2.468725	 -1.169348	 -0.075132	 -0.152513	 0.793430	 -0.530957	 0.255526	 1
1463623907.276	 2	 -0.061225	 -0.191349	 0.569942	 2.457335	 -1.165455	 -0.085447	 -0.150860	 0.793740	 -0.529900	 0.257728	 1
1463623907.286	 2	 -0.121836	 -0.165469	 0.594158	 2.446669	 -1.160906	 -0.095139	 -0.149140	 0.794232	 -0.528587	 0.259900	 1
1463623907.296	 2	 -0.186342	 -0.084065	 0.646633	 2.437069	 -1.155545	 -0.104461	 -0.147133	 0.795009	 -0.527012	 0.261862	 1
1463623907.306	 2	 -0.240215	 -0.031234	 0.723263	 2.427989	 -1.149236	 -0.113961	 -0.144737	 0.796068	 -0.525153	 0.263706	 1
1463623907.316	 2	 -0.274064	 -0.034807	 0.803457	 2.418503	 -1.142068	 -0.124019	 -0.142052	 0.797286	 -0.523030	 0.265698	 1
1463623907.326	 2	 -0.280150	 -0.033160	 0.881326	 2.408287	 -1.134232	 -0.134900	 -0.139076	 0.798581	 -0.520735	 0.267884	 1
1463623907.336	 2	 -0.265129	 -0.077346	 0.954321	 2.396842	 -1.125944	 -0.146886	 -0.135853	 0.799840	 -0.518361	 0.270373	 1
1463623907.346	 2	 -0.271925	 -0.215125	 1.019176	 2.383689	 -1.117137	 -0.159558	 -0.132651	 0.800970	 -0.515808	 0.273483	 1
1463623907.356	 2	 -0.310073	 -0.431576	 1.076111	 2.368594	 -1.107612	 -0.172225	 -0.129759	 0.801921	 -0.512902	 0.277521	 1
1463623907.366	 2	 -0.331085	 -0.651131	 1.152051	 2.351341	 -1.097315	 -0.184821	 -0.127229	 0.802648	 -0.509610	 0.282606	 1
1463623907.376	 2	 -0.419669	 -0.728921	 1.242688	 2.333140	 -1.085841	 -0.197230	 -0.124707	 0.803381	 -0.505849	 0.288349	 1
1463623907.386	 2	 -0.480574	 -0.850149	 1.367851	 2.314395	 -1.072886	 -0.209270	 -0.122081	 0.804206	 -0.501509	 0.294684	 1
1463623907.396	 2	 -0.473332	 -0.992940	 1.480495	 2.293593	 -1.058880	 -0.222051	 -0.119343	 0.804842	 -0.496836	 0.301894	 1
1463623907.406	 2	 -0.431479	 -1.031656	 1.585281	 2.271373	 -1.044202	 -0.235793	 -0.116295	 0.805280	 -0.492070	 0.309624	 1
1463623907.416	 2	 -0.348427	 -0.961759	 1.723758	 2.248325	 -1.028805	 -0.251202	 -0.112482	 0.805625	 -0.487362	 0.317483	 1
1463623907.426	 2	 -0.262956	 -0.846008	 1.879692	 2.224592	 -1.012590	 -0.268668	 -0.107672	 0.805903	 -0.482778	 0.325350	 1
1463623907.436	 2	 -0.236247	 -0.532136	 2.051836	 2.202501	 -0.995075	 -0.287493	 -0.101465	 0.806509	 -0.478181	 0.332552	 1
1463623907.446	 2	 -0.209773	 -0.298832	 2.260534	 2.182390	 -0.975921	 -0.307513	 -0.093761	 0.807523	 -0.473446	 0.339064	 1
1463623907.456	 2	 -0.233077	 -0.278413	 2.280111	 2.163650	 -0.955750	 -0.327061	 -0.085514	 0.808628	 -0.468489	 0.345435	 1
1463623907.466	 2	 -0.236448	 -0.428278	 2.146591	 2.145827	 -0.936213	 -0.344255	 -0.077996	 0.809400	 -0.463560	 0.351995	 1
1463623907.476	 2	 -0.204462	 -0.749702	 1.983458	 2.127235	 -0.917990	 -0.359355	 -0.071683	 0.809488	 -0.458860	 0.359220	 1
1463623907.486	 2	 -0.207915	 -1.107278	 1.807507	 2.106790	 -0.901132	 -0.372171	 -0.066928	 0.808716	 -0.454320	 0.367550	 1
1463623907.496	 2	 -0.184771	 -1.349260	 1.742174	 2.085041	 -0.885066	 -0.383483	 -0.063156	 0.807310	 -0.449877	 0.376660	 1
1463623907.506	 2	 -0.164485	 -1.716094	 1.912303	 2.060075	 -0.867994	 -0.395105	 -0.059591	 0.805195	 -0.445161	 0.387222	 1
1463623907.516	 2	 -0.178863	 -2.292551	 2.202280	 2.029114	 -0.848270	 -0.407640	 -0.056123	 0.801959	 -0.439662	 0.400511	 1
1463623907.526	 2	 -0.290573	 -2.419196	 2.439739	 1.996102	 -0.825604	 -0.419349	 -0.052421	 0.798215	 -0.433097	 0.415370	 1
1463623907.536	 2	 -0.247223	 -2.540269	 2.481931	 1.963412	 -0.801669	 -0.430159	 -0.048409	 0.794172	 -0.426126	 0.430539	 1
1463623907.546	 2	 -0.074970	 -3.167769	 2.262506	 1.926182	 -0.779564	 -0.440615	 -0.045775	 0.788441	 -0.419832	 0.447220	 1
1463623907.556	 2	 0.182318	 -3.916173	 1.832325	 1.881542	 -0.761442	 -0.451067	 -0.045629	 0.780117	 -0.414965	 0.465983	 1
1463623907.566	 2	 0.425898	 -4.520825	 1.272513	 1.830743	 -0.748956	 -0.461398	 -0.048324	 0.769278	 -0.412017	 0.485920	 1
1463623907.576	 2	 0.558531	 -5.208388	 0.821603	 1.773681	 -0.741190	 -0.471428	 -0.053793	 0.755926	 -0.410495	 0.507125	 1
1463623907.586	 2	 0.448678	 -5.882140	 0.563704	 1.711075	 -0.735989	 -0.479416	 -0.061946	 0.740255	 -0.409093	 0.529932	 1
1463623907.596	 2	 0.013948	 -6.245209	 0.629123	 1.647363	 -0.730302	 -0.482106	 -0.072042	 0.723396	 -0.405931	 0.553830	 1
1463623907.606	 2	 -0.467788	 -5.900298	 0.915756	 1.589903	 -0.721759	 -0.477926	 -0.082177	 0.707402	 -0.399974	 0.576932	 1
1463623907.616	 2	 -0.913364	 -5.353426	 1.199691	 1.542120	 -0.710515	 -0.467221	 -0.091428	 0.693379	 -0.391471	 0.598012	 1
1463623907.626	 2	 -1.246264	 -5.071142	 1.417303	 1.501456	 -0.697443	 -0.450995	 -0.100174	 0.680744	 -0.380842	 0.617667	 1
1463623907.636	 2	 -1.512648	 -5.123400	 1.583264	 1.463497	 -0.683298	 -0.430440	 -0.109073	 0.668265	 -0.368409	 0.637025	 1
1463623907.646	 2	 -1.698598	 -5.135986	 1.532543	 1.426846	 -0.669882	 -0.406908	 -0.118542	 0.655531	 -0.354969	 0.655914	 1
1463623907.656	 2	 -1.879790	 -4.856658	 1.257490	 1.393164	 -0.659615	 -0.381153	 -0.128932	 0.643086	 -0.341493	 0.673201	 1
1463623907.666	 2	 -2.060763	 -4.249157	 0.916215	 1.365925	 -0.653703	 -0.353819	 -0.139979	 0.632184	 -0.328746	 0.687514	 1
1463623907.676	 2	 -2.056841	 -3.948383	 0.739931	 1.342613	 -0.650627	 -0.326250	 -0.151215	 0.622203	 -0.316652	 0.699807	 1
1463623907.686	 2	 -1.866893	 -3.856330	 0.896867	 1.319560	 -0.647116	 -0.300384	 -0.161432	 0.612184	 -0.304777	 0.711535	 1
1463623907.696	 2	 -1.659599	 -3.809348	 1.445432	 1.296207	 -0.639099	 -0.275545	 -0.169358	 0.602080	 -0.291788	 0.723656	 1
1463623907.706	 2	 -1.478068	 -3.605618	 2.038311	 1.274152	 -0.625128	 -0.250796	 -0.174446	 0.592496	 -0.277144	 0.736008	 1
1463623907.716	 2	 -1.310748	 -3.230578	 2.341955	 1.254873	 -0.607443	 -0.226550	 -0.177237	 0.583977	 -0.261768	 0.747686	 1
1463623907.726	 2	 -1.132302	 -2.888317	 2.530095	 1.238069	 -0.587645	 -0.203476	 -0.178246	 0.576466	 -0.246350	 0.758437	 1
1463623907.736	 2	 -0.958049	 -2.502672	 2.685636	 1.223967	 -0.566038	 -0.181692	 -0.177586	 0.570099	 -0.231071	 0.768152	 1
1463623907.746	 2	 -0.742310	 -2.357644	 2.824722	 1.210911	 -0.542589	 -0.161449	 -0.175411	 0.564303	 -0.215898	 0.777291	 1
1463623907.756	 2	 -0.524912	 -2.452684	 2.860312	 1.195815	 -0.517994	 -0.143378	 -0.172161	 0.557904	 -0.201025	 0.786570	 1
1463623907.766	 2	 -0.433268	 -2.516463	 2.902617	 1.179060	 -0.492890	 -0.126271	 -0.168356	 0.550892	 -0.186222	 0.795924	 1
1463623907.776	 2	 -0.367050	 -2.582992	 2.995209	 1.161316	 -0.467039	 -0.109195	 -0.164065	 0.543448	 -0.171141	 0.805269	 1
1463623907.786	 2	 -0.253998	 -2.661479	 3.071294	 1.142208	 -0.440300	 -0.092470	 -0.159144	 0.535442	 -0.155865	 0.814666	 1
1463623907.796	 2	 -0.126640	 -2.634827	 3.131182	 1.122356	 -0.412764	 -0.076370	 -0.153479	 0.527134	 -0.140611	 0.823895	 1
1463623907.806	 2	 0.000479	 -2.451659	 3.213843	 1.103387	 -0.384294	 -0.060747	 -0.146935	 0.519186	 -0.125433	 0.832540	 1
1463623907.816	 2	 0.202624	 -2.240623	 3.320557	 1.085819	 -0.354355	 -0.045933	 -0.139190	 0.511873	 -0.110388	 0.840492	 1
1463623907.826	 2	 0.491825	 -2.084524	 3.402621	 1.069000	 -0.322581	 -0.032813	 -0.129926	 0.504998	 -0.095731	 0.847898	 1
1463623907.836	 2	 0.798718	 -1.987290	 3.441353	 1.052202	 -0.289074	 -0.021838	 -0.119123	 0.498260	 -0.081669	 0.854914	 1
1463623907.846	 2	 1.045735	 -1.864782	 3.421159	 1.035648	 -0.254466	 -0.012806	 -0.107108	 0.491686	 -0.068327	 0.861455	 1
1463623907.856	 2	 1.230598	 -1.759432	 3.356583	 1.019594	 -0.219437	 -0.005307	 -0.094287	 0.485318	 -0.055737	 0.867450	 1
1463623907.866	 2	 1.395580	 -1.751204	 3.237990	 1.003349	 -0.184532	 0.000691	 -0.080947	 0.478821	 -0.044006	 0.873064	 1
1463623907.876	 2	 1.565136	 -1.877238	 3.087199	 0.985707	 -0.150035	 0.005019	 -0.067211	 0.471644	 -0.033256	 0.878595	 1
1463623907.886	 2	 1.726831	 -2.088319	 2.938884	 0.965742	 -0.115943	 0.007737	 -0.053107	 0.463342	 -0.023482	 0.884275	 1
1463623907.896	 2	 1.865047	 -2.318315	 2.812978	 0.943282	 -0.082155	 0.009200	 -0.038670	 0.453792	 -0.014564	 0.890149	 1
1463623907.906	 2	 1.939434	 -2.554083	 2.745124	 0.918377	 -0.048538	 0.010219	 -0.024017	 0.442973	 -0.006176	 0.896192	 1
1463623907.916	 2	 1.940577	 -2.728824	 2.702989	 0.891527	 -0.015176	 0.011687	 -0.009366	 0.431087	 0.002001	 0.902259	 1
1463623907.926	 2	 1.874598	 -2.839899	 2.613006	 0.863370	 0.017211	 0.013975	 0.004892	 0.418431	 0.009947	 0.908181	 1
1463623907.936	 2	 1.786353	 -2.906357	 2.506580	 0.834345	 0.048171	 0.017136	 0.018546	 0.405234	 0.017588	 0.913856	 1
1463623907.946	 2	 1.682224	 -2.951455	 2.405820	 0.804678	 0.077589	 0.021238	 0.031531	 0.391634	 0.024950	 0.919242	 1
1463623907.956	 2	 1.558924	 -3.003809	 2.323277	 0.774333	 0.105421	 0.026433	 0.043799	 0.377654	 0.032112	 0.924353	 1
1463623907.966	 2	 1.417374	 -3.087942	 2.251254	 0.742912	 0.131576	 0.032979	 0.055277	 0.363148	 0.039190	 0.929264	 1
1463623907.976	 2	 1.278127	 -3.363522	 2.180628	 0.708939	 0.155991	 0.040779	 0.066002	 0.347456	 0.046101	 0.934234	 1
1463623907.986	 2	 1.162309	 -3.589697	 2.038851	 0.672129	 0.178403	 0.049345	 0.075971	 0.330438	 0.052566	 0.939295	 1
1463623907.996	 2	 1.059355	 -3.732498	 1.812477	 0.633544	 0.198398	 0.057777	 0.085117	 0.312558	 0.058149	 0.944289	 1
1463623908.006	 2	 0.939812	 -3.746777	 1.555470	 0.594417	 0.215663	 0.065587	 0.093303	 0.294369	 0.062669	 0.949060	 1
1463623908.016	 2	 0.838200	 -3.583450	 1.303158	 0.556548	 0.230309	 0.072528	 0.100514	 0.276703	 0.066172	 0.953390	 1
1463623908.026	 2	 0.847054	 -3.344586	 1.098545	 0.521178	 0.243352	 0.078216	 0.107189	 0.260135	 0.068747	 0.957139	 1
1463623908.036	 2	 1.004531	 -3.136216	 1.002129	 0.488230	 0.256652	 0.082646	 0.114171	 0.244636	 0.070661	 0.960274	 1
1463623908.046	 2	 1.279721	 -2.916003	 0.973005	 0.457681	 0.271728	 0.085979	 0.122134	 0.230220	 0.072168	 0.962743	 1
1463623908.056	 2	 1.580771	 -2.625819	 0.922990	 0.430197	 0.289158	 0.088035	 0.131325	 0.217206	 0.073263	 0.964473	 1
1463623908.066	 2	 1.831896	 -2.262307	 0.844248	 0.406766	 0.308388	 0.088666	 0.141425	 0.206058	 0.073881	 0.965443	 1
1463623908.076	 2	 2.004109	 -1.899512	 0.781102	 0.387524	 0.328830	 0.088212	 0.152081	 0.196852	 0.074168	 0.965722	 1
1463623908.086	 2	 2.106883	 -1.578828	 0.750150	 0.371340	 0.350816	 0.087435	 0.163403	 0.189094	 0.074478	 0.965399	 1
1463623908.096	 2	 2.150683	 -1.325964	 0.729739	 0.357888	 0.373299	 0.086583	 0.174864	 0.182638	 0.074846	 0.964606	 1
1463623908.106	 2	 2.152552	 -1.127324	 0.695333	 0.346565	 0.395805	 0.085680	 0.186251	 0.177190	 0.075231	 0.963460	 1
1463623908.116	 2	 2.128390	 -0.998964	 0.639185	 0.336833	 0.417988	 0.084560	 0.197427	 0.172473	 0.075509	 0.962068	 1
1463623908.126	 2	 2.055734	 -0.978876	 0.593109	 0.327667	 0.439451	 0.083331	 0.208226	 0.167999	 0.075627	 0.960572	 1
1463623908.136	 2	 1.932669	 -1.046621	 0.588219	 0.317864	 0.459832	 0.082531	 0.218475	 0.163251	 0.075699	 0.959108	 1
1463623908.146	 2	 1.773235	 -1.139724	 0.591937	 0.306784	 0.478812	 0.082542	 0.228018	 0.157976	 0.075812	 0.957760	 1
1463623908.156	 2	 1.597796	 -1.228555	 0.591572	 0.294313	 0.496238	 0.083427	 0.236788	 0.152143	 0.075964	 0.956563	 1
1463623908.166	 2	 1.403111	 -1.340599	 0.609277	 0.280257	 0.511883	 0.085333	 0.244684	 0.145690	 0.076186	 0.955563	 1
1463623908.176	 2	 1.194741	 -1.428005	 0.645448	 0.264586	 0.525600	 0.088534	 0.251627	 0.138650	 0.076594	 0.954774	 1
1463623908.186	 2	 1.007771	 -1.485847	 0.660392	 0.247676	 0.537437	 0.092824	 0.257654	 0.131184	 0.077147	 0.954177	 1
1463623908.196	 2	 0.880631	 -1.505777	 0.647459	 0.230116	 0.547805	 0.097715	 0.262984	 0.123516	 0.077723	 0.953699	 1
1463623908.206	 2	 0.816556	 -1.478254	 0.603511	 0.212639	 0.557249	 0.102642	 0.267886	 0.115922	 0.078190	 0.953250	 1
1463623908.216	 2	 0.810244	 -1.391602	 0.523374	 0.196150	 0.566278	 0.107013	 0.272602	 0.108754	 0.078421	 0.952739	 1
1463623908.226	 2	 0.815757	 -1.285846	 0.442247	 0.181121	 0.575151	 0.110566	 0.277243	 0.102198	 0.078380	 0.952128	 1
1463623908.236	 2	 0.854353	 -1.162261	 0.339682	 0.167741	 0.584087	 0.113153	 0.281902	 0.096320	 0.078042	 0.951401	 1
1463623908.246	 2	 0.920827	 -0.997392	 0.221272	 0.156653	 0.593407	 0.114364	 0.286720	 0.091363	 0.077326	 0.950508	 1
1463623908.256	 2	 0.986554	 -0.780269	 0.121472	 0.148322	 0.603222	 0.114310	 0.291717	 0.087555	 0.076369	 0.949422	 1
1463623908.266	 2	 1.021597	 -0.553087	 0.076388	 0.142674	 0.613379	 0.113531	 0.296796	 0.084926	 0.075434	 0.948161	 1
1463623908.276	 2	 1.035323	 -0.343722	 0.059033	 0.139309	 0.623688	 0.112529	 0.301861	 0.083348	 0.074713	 0.946758	 1
1463623908.286	 2	 1.027485	 -0.172655	 0.031917	 0.137945	 0.633948	 0.111254	 0.306830	 0.082672	 0.074151	 0.945263	 1
1463623908.296	 2	 0.995644	 -0.101594	 -0.008709	 0.137853	 0.643915	 0.109546	 0.311623	 0.082517	 0.073570	 0.943753	 1
1463623908.306	 2	 0.906787	 -0.130318	 -0.045504	 0.137907	 0.653104	 0.107476	 0.316050	 0.082352	 0.072822	 0.942352	 1
1463623908.316	 2	 0.748494	 -0.191654	 -0.060683	 0.137443	 0.660865	 0.105375	 0.319817	 0.081909	 0.071945	 0.941187	 1
1463623908.326	 2	 0.556017	 -0.267717	 -0.067176	 0.136109	 0.666771	 0.103513	 0.322725	 0.081062	 0.070995	 0.940339	 1
1463623908.336	 2	 0.361531	 -0.301366	 -0.092440	 0.134222	 0.670704	 0.101740	 0.324716	 0.079939	 0.069948	 0.939828	 1
1463623908.346	 2	 0.190961	 -0.249930	 -0.108594	 0.132631	 0.672842	 0.100015	 0.325847	 0.078939	 0.068929	 0.939596	 1
1463623908.356	 2	 0.124921	 -0.177804	 -0.162767	 0.132007	 0.673975	 0.097918	 0.326484	 0.078318	 0.067868	 0.939504	 1
1463623908.366	 2	 0.151709	 -0.129179	 -0.193455	 0.132251	 0.675123	 0.095273	 0.327119	 0.078014	 0.066692	 0.939393	 1
1463623908.376	 2	 0.245884	 -0.095230	 -0.167315	 0.132889	 0.677023	 0.092656	 0.328095	 0.077906	 0.065612	 0.939138	 1
1463623908.396	 3	 0.404597	 0.463192	 -0.099555	 0.139046	 0.684551	 0.088804	 0.331586	 0.080235	 0.065004	 0.937757	 1
1463623908.406	 3	 0.426096	 0.551989	 -0.166059	 0.146209	 0.688511	 0.086094	 0.333324	 0.083175	 0.065028	 0.936882	 1
1463623908.416	 3	 0.377929	 0.555030	 -0.206110	 0.153852	 0.692122	 0.082807	 0.334910	 0.086231	 0.064868	 0.936051	 1
1463623908.426	 3	 0.275080	 0.515588	 -0.259936	 0.161571	 0.694721	 0.079030	 0.336045	 0.089223	 0.064473	 0.935391	 1
1463623908.436	 3	 0.164366	 0.381601	 -0.300717	 0.168444	 0.696122	 0.074870	 0.336669	 0.091743	 0.063730	 0.934974	 1
1463623908.446	 3	 0.066189	 0.178546	 -0.327330	 0.173529	 0.696457	 0.070555	 0.336865	 0.093394	 0.062580	 0.934817	 1
