% Gyrometer data recorded with 'snsrlog'
% 
% 
% Label description:
% 	 0: Default Label
% 	 1: still_drop
% 	 2: walk_drop
% 	 3: other
% 	 4: dtw_same
% 	 5: dtw_diff
% 	 6: delete
% 	 7: steal
% 
% Column description:
% 	 1: Seconds.milliseconds since 1970
% 	 2: Number of skipped measurements
% 	 3: Gyro X
% 	 4: Gyro Y
% 	 5: Gyro Z
% 	 6: Roll of the device
% 	 7: Pitch of the device
% 	 8: Yaw of the device
% 	 9: Quaternion X
% 	 10: Quaternion Y
% 	 11: Quaternion Z
% 	 12: Quaternion W
% 	 13: Label used for the current sample
% 
% 
1463571616.596	 0	 -0.350839	 2.134624	 -0.780340	 0.072877	 0.675145	 -0.119247	 0.332438	 0.014591	 -0.044144	 0.941978	 2
1463571616.606	 0	 -0.137989	 2.450001	 -0.765404	 0.102489	 0.672544	 -0.128732	 0.331965	 0.027057	 -0.043772	 0.941887	 2
1463571616.616	 0	 0.124041	 2.926735	 -0.919916	 0.137524	 0.672028	 -0.139874	 0.332676	 0.041720	 -0.043217	 0.941126	 2
1463571616.636	 1	 0.559184	 3.068569	 -1.425424	 0.220325	 0.676409	 -0.173131	 0.337514	 0.074812	 -0.044724	 0.937276	 2
1463571616.646	 1	 0.370455	 2.964135	 -1.529198	 0.262748	 0.677040	 -0.193307	 0.339617	 0.091213	 -0.046942	 0.934953	 2
1463571616.656	 1	 -0.077782	 2.667147	 -1.450258	 0.301876	 0.673362	 -0.211749	 0.339770	 0.106615	 -0.049214	 0.933149	 2
1463571616.666	 1	 -0.627387	 2.433580	 -1.173745	 0.334849	 0.664807	 -0.224934	 0.337399	 0.120416	 -0.050569	 0.932258	 2
1463571616.676	 1	 -1.096679	 2.436312	 -0.840313	 0.363050	 0.652342	 -0.231594	 0.332802	 0.133454	 -0.050191	 0.932156	 2
1463571616.686	 1	 -0.907045	 2.614095	 -0.595185	 0.390976	 0.640743	 -0.234407	 0.328360	 0.146973	 -0.048120	 0.931806	 2
1463571616.696	 1	 -0.298477	 2.470640	 -0.624199	 0.418575	 0.633927	 -0.239127	 0.326252	 0.159638	 -0.046570	 0.930541	 2
1463571616.706	 1	 0.545559	 2.665017	 -0.612687	 0.449733	 0.634398	 -0.247817	 0.327906	 0.172650	 -0.045455	 0.927687	 2
1463571616.716	 1	 1.221411	 3.063127	 -0.735298	 0.487480	 0.640791	 -0.261548	 0.332892	 0.187242	 -0.044750	 0.923104	 2
1463571616.736	 2	 1.482858	 3.440910	 -1.188074	 0.579826	 0.656789	 -0.302670	 0.346326	 0.220906	 -0.045601	 0.910593	 2
1463571616.746	 2	 0.870013	 3.511773	 -1.344075	 0.627649	 0.657995	 -0.323919	 0.350401	 0.238764	 -0.046717	 0.904449	 2
1463571616.756	 2	 -0.076555	 3.784341	 -1.394045	 0.673912	 0.650965	 -0.338999	 0.350302	 0.257861	 -0.046640	 0.899234	 2
1463571616.766	 2	 -0.830833	 3.932452	 -1.515057	 0.718311	 0.636364	 -0.347868	 0.346234	 0.278119	 -0.045585	 0.894815	 2
1463571616.776	 2	 -1.163030	 3.953955	 -1.617475	 0.760851	 0.617425	 -0.353153	 0.339866	 0.298705	 -0.044328	 0.890675	 2
1463571616.786	 2	 -1.034588	 4.145137	 -1.748969	 0.804746	 0.597608	 -0.358564	 0.333263	 0.319951	 -0.043379	 0.885825	 2
1463571616.796	 2	 -0.564557	 4.597887	 -1.900186	 0.854400	 0.579125	 -0.367508	 0.328051	 0.342906	 -0.043065	 0.879172	 2
1463571616.806	 2	 0.087765	 5.174011	 -1.978306	 0.912287	 0.563436	 -0.381609	 0.325298	 0.368113	 -0.043311	 0.869942	 2
1463571616.816	 2	 0.683422	 5.746944	 -2.079408	 0.978581	 0.550031	 -0.400963	 0.324977	 0.395544	 -0.044092	 0.857899	 2
1463571616.826	 2	 0.940415	 6.103142	 -2.284023	 1.050649	 0.535871	 -0.423650	 0.325599	 0.424636	 -0.045607	 0.843558	 2
1463571616.836	 2	 0.837957	 6.142612	 -2.602492	 1.123473	 0.517701	 -0.446169	 0.325185	 0.454223	 -0.048038	 0.828027	 2
1463571616.846	 2	 0.523614	 5.934004	 -3.041857	 1.192966	 0.493407	 -0.465919	 0.322335	 0.483372	 -0.051735	 0.812266	 2
1463571616.856	 2	 0.219532	 5.857316	 -3.472622	 1.259033	 0.462629	 -0.481804	 0.316683	 0.512313	 -0.056631	 0.796266	 2
1463571616.866	 2	 0.107771	 5.896307	 -3.714280	 1.323103	 0.427739	 -0.494280	 0.309244	 0.541136	 -0.062199	 0.779533	 2
1463571616.876	 2	 0.246695	 6.037549	 -3.834607	 1.387465	 0.390996	 -0.505256	 0.301391	 0.569991	 -0.068250	 0.761325	 2
1463571616.886	 2	 0.616257	 6.255333	 -4.013780	 1.453714	 0.352556	 -0.517044	 0.293945	 0.598984	 -0.075417	 0.741031	 2
1463571616.896	 2	 1.111643	 6.473618	 -4.219623	 1.522473	 0.311833	 -0.531046	 0.287306	 0.628067	 -0.084314	 0.718247	 2
1463571616.906	 2	 1.620453	 6.615122	 -4.447612	 1.592971	 0.268136	 -0.547227	 0.281428	 0.656878	 -0.095239	 0.692993	 2
1463571616.916	 2	 2.052459	 6.533530	 -4.670614	 1.662907	 0.220930	 -0.564562	 0.275907	 0.684651	 -0.108308	 0.665881	 2
1463571616.926	 2	 2.339983	 6.117505	 -4.868826	 1.728631	 0.170249	 -0.581463	 0.270130	 0.710270	 -0.123452	 0.638205	 2
1463571616.946	 3	 2.263381	 4.197355	 -4.945709	 1.832207	 0.063619	 -0.606791	 0.255350	 0.750837	 -0.157753	 0.588348	 2
1463571616.956	 3	 2.071690	 2.934105	 -4.686157	 1.865135	 0.011883	 -0.614059	 0.246105	 0.764510	 -0.175508	 0.569345	 2
1463571616.966	 3	 1.833430	 1.779080	 -4.188593	 1.885483	 -0.035006	 -0.619171	 0.236693	 0.773719	 -0.192473	 0.555238	 2
1463571616.976	 3	 1.575263	 0.878745	 -3.632001	 1.896193	 -0.075878	 -0.622844	 0.227664	 0.779456	 -0.207909	 0.545336	 2
1463571616.986	 3	 1.427069	 0.190139	 -3.314192	 1.899444	 -0.112531	 -0.625792	 0.218801	 0.782616	 -0.222350	 0.538701	 2
1463571616.996	 3	 1.341851	 -0.320417	 -3.205230	 1.897021	 -0.147408	 -0.628339	 0.209596	 0.783943	 -0.236546	 0.534368	 2
1463571617.006	 3	 1.258763	 -0.505318	 -3.215819	 1.891896	 -0.181917	 -0.630277	 0.199826	 0.784392	 -0.250604	 0.531033	 2
1463571617.016	 3	 1.221985	 -0.379740	 -3.220725	 1.887299	 -0.216355	 -0.631848	 0.189877	 0.784819	 -0.264356	 0.527372	 2
1463571617.026	 3	 1.257988	 -0.064348	 -3.128580	 1.885315	 -0.250267	 -0.633949	 0.180538	 0.785663	 -0.277685	 0.522523	 2
1463571617.036	 3	 1.315099	 0.258817	 -2.836183	 1.886218	 -0.282077	 -0.637388	 0.172687	 0.786866	 -0.290229	 0.516516	 2
1463571617.046	 3	 1.368299	 0.509883	 -2.367506	 1.889171	 -0.309993	 -0.642742	 0.167020	 0.788135	 -0.301584	 0.509897	 2
1463571617.056	 3	 1.403082	 0.614983	 -1.794516	 1.892797	 -0.332793	 -0.650257	 0.163824	 0.789121	 -0.311500	 0.503405	 2
1463571617.066	 3	 1.437020	 0.542451	 -1.223172	 1.895214	 -0.350254	 -0.660061	 0.162929	 0.789402	 -0.320090	 0.497836	 2
1463571617.076	 3	 1.394859	 0.268305	 -0.763881	 1.894570	 -0.362932	 -0.671358	 0.163541	 0.788648	 -0.327517	 0.493986	 2
1463571617.086	 3	 1.267718	 -0.011031	 -0.468026	 1.891139	 -0.372143	 -0.682810	 0.164762	 0.787098	 -0.333922	 0.491759	 2
1463571617.096	 3	 0.925715	 -0.524322	 -0.253475	 1.883655	 -0.378159	 -0.692176	 0.165397	 0.784641	 -0.338985	 0.492008	 2
1463571617.106	 3	 0.587978	 -0.961706	 -0.129910	 1.872761	 -0.381657	 -0.698523	 0.164981	 0.781525	 -0.342687	 0.494536	 2
1463571617.116	 3	 0.303502	 -1.385716	 -0.047183	 1.858622	 -0.383401	 -0.702155	 0.163440	 0.777764	 -0.345363	 0.499095	 2
1463571617.126	 3	 0.030175	 -1.722421	 0.052245	 1.841601	 -0.383347	 -0.703176	 0.160906	 0.773404	 -0.346980	 0.505529	 2
1463571617.136	 3	 -0.010096	 -1.729174	 0.131399	 1.824132	 -0.382252	 -0.703371	 0.158282	 0.768908	 -0.348046	 0.512437	 2
1463571617.146	 3	 0.197619	 -1.452434	 0.243005	 1.808115	 -0.380567	 -0.705343	 0.156767	 0.764567	 -0.349237	 0.518551	 2
1463571617.156	 3	 0.320370	 -1.188409	 0.473532	 1.794233	 -0.377367	 -0.709814	 0.157041	 0.760483	 -0.350401	 0.523664	 2
1463571617.166	 3	 0.059449	 -0.883322	 0.784517	 1.783310	 -0.370756	 -0.712692	 0.158294	 0.757124	 -0.349779	 0.528547	 2
1463571617.176	 3	 -0.008431	 -0.405193	 1.128469	 1.777236	 -0.360544	 -0.714851	 0.161264	 0.754913	 -0.347384	 0.532377	 2
1463571617.186	 3	 0.258743	 0.081382	 1.452531	 1.775219	 -0.347456	 -0.719731	 0.166874	 0.753385	 -0.344427	 0.534728	 2
1463571617.196	 3	 0.533945	 0.506900	 1.720535	 1.776394	 -0.332169	 -0.728110	 0.175031	 0.752237	 -0.341392	 0.535682	 2
1463571617.206	 3	 0.716436	 0.862451	 1.836291	 1.780745	 -0.315795	 -0.739091	 0.185018	 0.751545	 -0.338381	 0.535207	 2
1463571617.216	 3	 0.729968	 1.000813	 1.854513	 1.787068	 -0.299248	 -0.750784	 0.195616	 0.751173	 -0.335268	 0.533919	 2
1463571617.226	 3	 0.539984	 0.788483	 1.831810	 1.792723	 -0.282600	 -0.761114	 0.205573	 0.750619	 -0.331762	 0.533146	 2
1463571617.236	 3	 0.254173	 0.589483	 1.848433	 1.796879	 -0.265420	 -0.768594	 0.214330	 0.749813	 -0.327422	 0.533515	 2
1463571617.246	 3	 0.098938	 0.617337	 1.959818	 1.801461	 -0.246954	 -0.774413	 0.222878	 0.749112	 -0.322107	 0.534231	 2
1463571617.256	 3	 0.049312	 0.597356	 2.117797	 1.806258	 -0.226863	 -0.779948	 0.231793	 0.748284	 -0.316078	 0.535199	 2
1463571617.266	 3	 -0.041449	 0.536368	 2.177702	 1.810670	 -0.205720	 -0.785060	 0.240743	 0.747213	 -0.309560	 0.536552	 2
1463571617.276	 3	 -0.283515	 0.431073	 2.079713	 1.815065	 -0.184690	 -0.788026	 0.248792	 0.746304	 -0.302451	 0.538198	 2
1463571617.286	 3	 -0.532885	 0.429441	 1.900689	 1.819236	 -0.164709	 -0.788109	 0.255360	 0.745703	 -0.294906	 0.540137	 2
1463571617.296	 3	 -0.432663	 0.497351	 2.065642	 1.823977	 -0.144173	 -0.788342	 0.262173	 0.745123	 -0.287074	 0.541891	 2
1463571617.306	 3	 0.060980	 0.662229	 2.560589	 1.829417	 -0.120500	 -0.793770	 0.271862	 0.743665	 -0.279378	 0.543140	 2
1463571617.316	 3	 0.516021	 1.120918	 2.928583	 1.837986	 -0.093971	 -0.805345	 0.284983	 0.741763	 -0.271812	 0.542853	 2
1463571617.326	 3	 0.608636	 1.736598	 2.945229	 1.852745	 -0.067163	 -0.819216	 0.299698	 0.740933	 -0.263730	 0.540043	 2
1463571617.336	 3	 0.579598	 2.032415	 2.805423	 1.871944	 -0.041606	 -0.832979	 0.314384	 0.741177	 -0.255179	 0.535447	 2
1463571617.346	 3	 0.580271	 1.902168	 2.592118	 1.891026	 -0.018145	 -0.846688	 0.328230	 0.741372	 -0.247156	 0.530611	 2
1463571617.356	 3	 0.446376	 1.593030	 2.296257	 1.907719	 0.002745	 -0.858935	 0.340349	 0.741251	 -0.239878	 0.526467	 2
1463571617.366	 3	 0.309736	 1.179450	 1.970672	 1.920726	 0.020933	 -0.869064	 0.350379	 0.740684	 -0.233526	 0.523534	 2
1463571617.376	 3	 0.234448	 0.619185	 1.682622	 1.928628	 0.036467	 -0.877428	 0.358371	 0.739308	 -0.228511	 0.522280	 2
1463571617.386	 3	 0.214487	 0.133154	 1.533329	 1.931326	 0.050292	 -0.884996	 0.364976	 0.736855	 -0.224826	 0.522773	 2
1463571617.396	 3	 0.179603	 0.066544	 1.427503	 1.932222	 0.063254	 -0.891933	 0.370889	 0.734093	 -0.221620	 0.523865	 2
1463571617.406	 3	 -0.035630	 0.441956	 1.334820	 1.935844	 0.075837	 -0.897034	 0.376297	 0.732383	 -0.217559	 0.524103	 2
1463571617.416	 3	 -0.107177	 0.942623	 1.265498	 1.944372	 0.088174	 -0.900606	 0.381569	 0.732236	 -0.212236	 0.522677	 2
1463571617.426	 3	 0.240147	 1.138639	 1.155590	 1.956135	 0.098788	 -0.906270	 0.387464	 0.732729	 -0.207442	 0.519565	 2
1463571617.436	 3	 0.672618	 1.205520	 0.873217	 1.968778	 0.105355	 -0.915084	 0.393573	 0.733352	 -0.204764	 0.515137	 2
1463571617.446	 3	 1.333194	 0.529221	 0.868633	 1.978304	 0.108505	 -0.928902	 0.400360	 0.732604	 -0.205222	 0.510772	 2
1463571617.456	 3	 1.771064	 0.385129	 1.122460	 1.984054	 0.111738	 -0.948788	 0.408978	 0.729577	 -0.207893	 0.507184	 2
1463571617.466	 3	 1.724866	 1.431129	 0.875747	 1.997312	 0.113255	 -0.969156	 0.418136	 0.728483	 -0.209708	 0.500497	 2
1463571617.476	 3	 1.195039	 2.329666	 0.485863	 2.020796	 0.112881	 -0.983635	 0.425791	 0.731300	 -0.208482	 0.490344	 2
1463571617.486	 3	 1.170395	 1.527774	 0.339001	 2.040422	 0.111082	 -0.995472	 0.431773	 0.733794	 -0.207835	 0.481584	 2
1463571617.496	 3	 1.548906	 0.200535	 0.218910	 2.047013	 0.106774	 -1.009652	 0.436727	 0.732921	 -0.211440	 0.476853	 2
1463571617.506	 3	 1.646203	 -0.502076	 0.025017	 2.044965	 0.099825	 -1.024755	 0.440528	 0.730136	 -0.218114	 0.474619	 2
1463571617.516	 3	 1.445616	 -0.764696	 -0.189899	 2.039022	 0.091871	 -1.037551	 0.442805	 0.727066	 -0.225457	 0.473782	 2
1463571617.526	 3	 1.370105	 -0.947145	 -0.445656	 2.031129	 0.082208	 -1.048156	 0.443637	 0.724264	 -0.233333	 0.473479	 2
1463571617.536	 3	 1.228063	 -0.512646	 -0.721737	 2.024921	 0.070743	 -1.056794	 0.443501	 0.722562	 -0.241016	 0.472358	 2
1463571617.546	 3	 1.036235	 -0.006676	 -0.988194	 2.024112	 0.057716	 -1.062531	 0.442588	 0.722998	 -0.247366	 0.469255	 2
1463571617.556	 3	 0.916833	 0.495832	 -1.555858	 2.027748	 0.041190	 -1.064923	 0.440229	 0.725685	 -0.253216	 0.464178	 2
1463571617.566	 3	 0.844656	 0.970392	 -2.291519	 2.036396	 0.018464	 -1.063234	 0.435637	 0.731205	 -0.259302	 0.456422	 2
1463571617.576	 3	 0.802626	 0.951132	 -2.910540	 2.046333	 -0.009861	 -1.057926	 0.428619	 0.738365	 -0.266378	 0.447376	 2
1463571617.586	 3	 0.743261	 0.320187	 -3.405079	 2.051697	 -0.042547	 -1.049534	 0.418802	 0.745442	 -0.275395	 0.439406	 2
1463571617.596	 3	 0.641796	 -0.698335	 -3.828255	 2.047999	 -0.078665	 -1.038235	 0.405698	 0.751230	 -0.286921	 0.434441	 2
1463571617.606	 3	 0.553153	 -1.373446	 -4.118324	 2.037241	 -0.117346	 -1.024921	 0.389928	 0.755822	 -0.300263	 0.431893	 2
1463571617.616	 3	 0.383538	 -2.099746	 -4.313311	 2.020109	 -0.157584	 -1.009734	 0.371711	 0.759153	 -0.314776	 0.431780	 2
1463571617.626	 3	 0.177704	 -2.716328	 -4.353492	 1.997392	 -0.197985	 -0.993076	 0.351521	 0.761103	 -0.329711	 0.434103	 2
1463571617.636	 3	 -0.054120	 -3.098710	 -4.229272	 1.970820	 -0.237123	 -0.975594	 0.330171	 0.761747	 -0.344229	 0.438446	 2
1463571617.646	 3	 -0.537076	 -2.631924	 -3.857298	 1.947624	 -0.272376	 -0.956303	 0.309265	 0.762600	 -0.355964	 0.442816	 2
1463571617.666	 4	 -1.132892	 -1.778904	 -3.071496	 1.923017	 -0.326617	 -0.911253	 0.272492	 0.767542	 -0.368195	 0.448397	 2
1463571617.676	 4	 -0.867914	 -2.223752	 -3.000141	 1.908853	 -0.351715	 -0.891012	 0.254931	 0.768561	 -0.374084	 0.452090	 2
1463571617.686	 4	 -0.496234	 -2.839596	 -2.998451	 1.887740	 -0.378209	 -0.874690	 0.236979	 0.767242	 -0.381945	 0.457492	 2
1463571617.696	 4	 -0.173053	 -3.311867	 -3.018448	 1.860403	 -0.406152	 -0.862405	 0.218706	 0.763767	 -0.391568	 0.464223	 2
1463571617.706	 4	 0.120878	 -3.364447	 -3.109955	 1.830006	 -0.435989	 -0.853738	 0.200328	 0.758972	 -0.402519	 0.470966	 2
1463571617.716	 4	 0.406825	 -2.891203	 -3.149606	 1.801811	 -0.467277	 -0.848904	 0.183057	 0.754122	 -0.414134	 0.475692	 2
1463571617.726	 4	 0.671999	 -2.282941	 -3.205937	 1.777992	 -0.499694	 -0.847786	 0.167415	 0.749836	 -0.426145	 0.477618	 2
1463571617.736	 4	 0.945137	 -1.724251	 -3.348060	 1.758205	 -0.533842	 -0.850227	 0.153123	 0.746156	 -0.438806	 0.476712	 2
1463571617.746	 4	 1.239092	 -1.251990	 -3.519944	 1.741300	 -0.570110	 -0.856431	 0.139914	 0.742863	 -0.452397	 0.473197	 2
1463571617.756	 4	 1.445246	 -0.973861	 -3.803710	 1.725821	 -0.609093	 -0.865907	 0.127095	 0.739706	 -0.467047	 0.467491	 2
1463571617.766	 4	 1.568279	 -0.908111	 -4.073807	 1.709867	 -0.651061	 -0.877468	 0.113681	 0.736349	 -0.482590	 0.460406	 2
1463571617.776	 4	 1.616166	 -1.027483	 -4.235199	 1.691590	 -0.694791	 -0.890950	 0.099520	 0.732379	 -0.498624	 0.452869	 2
1463571617.786	 4	 1.506222	 -1.177830	 -4.331560	 1.670883	 -0.739328	 -0.905011	 0.084351	 0.727874	 -0.514468	 0.445428	 2
1463571617.806	 5	 0.815075	 -1.108686	 -4.316372	 1.633067	 -0.827728	 -0.925970	 0.051625	 0.719990	 -0.542228	 0.430044	 2
1463571617.816	 5	 0.534329	 -1.099576	 -4.346882	 1.617970	 -0.871266	 -0.931425	 0.034338	 0.716939	 -0.553831	 0.422007	 2
1463571617.826	 5	 0.367820	 -0.978931	 -4.497779	 1.604963	 -0.915954	 -0.934968	 0.016371	 0.714237	 -0.564709	 0.413160	 2
1463571617.836	 5	 0.302555	 -0.630177	 -4.685803	 1.595220	 -0.962395	 -0.938012	 -0.001595	 0.712023	 -0.575318	 0.402530	 2
1463571617.846	 5	 0.263147	 -0.238876	 -4.862998	 1.589306	 -1.010635	 -0.941115	 -0.019154	 0.710317	 -0.585823	 0.389737	 2
1463571617.856	 5	 0.253750	 0.123048	 -4.972519	 1.586811	 -1.060176	 -0.944395	 -0.036139	 0.708948	 -0.596190	 0.375026	 2
1463571617.866	 5	 0.314264	 0.534264	 -5.003325	 1.586993	 -1.110195	 -0.949019	 -0.052013	 0.707739	 -0.606500	 0.358551	 2
1463571617.876	 5	 0.407796	 0.908361	 -5.005986	 1.588742	 -1.160315	 -0.956165	 -0.066520	 0.706509	 -0.616861	 0.340444	 2
1463571617.886	 5	 0.428205	 1.127704	 -4.964689	 1.591329	 -1.210146	 -0.965024	 -0.080014	 0.705138	 -0.627003	 0.321318	 2
1463571617.896	 5	 0.437265	 1.206660	 -4.926732	 1.593973	 -1.259567	 -0.974836	 -0.092956	 0.703497	 -0.636723	 0.301722	 2
1463571617.906	 5	 0.479578	 1.460703	 -4.785122	 1.595748	 -1.307781	 -0.987484	 -0.104707	 0.701626	 -0.646092	 0.281640	 2
1463571617.916	 5	 0.545268	 1.907295	 -4.629134	 1.597217	 -1.354676	 -1.004279	 -0.114606	 0.699784	 -0.655225	 0.260475	 2
1463571617.926	 5	 0.748778	 2.624427	 -4.218177	 1.591196	 -1.398223	 -1.035194	 -0.120875	 0.697955	 -0.664507	 0.238072	 2
1463571617.936	 5	 0.991891	 3.357303	 -3.527123	 1.565051	 -1.435450	 -1.093772	 -0.122151	 0.696198	 -0.673871	 0.215140	 2
1463571617.946	 5	 1.415061	 3.810730	 -2.578060	 1.487090	 -1.463268	 -1.210099	 -0.117971	 0.693972	 -0.683480	 0.193241	 2
1463571617.956	 5	 2.020160	 1.479239	 -0.876358	 1.300488	 -1.473341	 -1.420838	 -0.112941	 0.688660	 -0.692803	 0.181700	 2
1463571617.966	 5	 0.853714	 -2.170740	 1.042719	 1.190220	 -1.463643	 -1.518307	 -0.114342	 0.683420	 -0.695788	 0.189058	 2
1463571617.976	 5	 -1.060927	 -4.143822	 2.016202	 1.254896	 -1.448476	 -1.415233	 -0.121758	 0.682804	 -0.689727	 0.207920	 2
1463571617.986	 5	 -2.423380	 -4.165784	 2.396614	 1.411704	 -1.430897	 -1.213830	 -0.130815	 0.686908	 -0.677144	 0.229175	 2
1463571617.996	 5	 -3.156765	 -2.888110	 2.431941	 1.587467	 -1.408551	 -1.003205	 -0.136822	 0.694713	 -0.661709	 0.246565	 2
1463571618.006	 5	 -3.527982	 -1.084750	 2.210026	 1.753925	 -1.382383	 -0.818320	 -0.138337	 0.705633	 -0.645645	 0.257076	 2
1463571618.016	 5	 -3.774626	 0.587160	 1.802468	 1.919135	 -1.355817	 -0.652338	 -0.136556	 0.719556	 -0.629754	 0.258847	 2
1463571618.026	 5	 -3.875058	 2.141763	 1.267876	 2.063634	 -1.327144	 -0.522000	 -0.130959	 0.734793	 -0.615053	 0.254243	 2
1463571618.036	 5	 -3.608573	 3.446256	 0.712840	 2.197384	 -1.300281	 -0.416116	 -0.122894	 0.750497	 -0.602233	 0.242829	 2
1463571618.046	 5	 -3.016534	 4.426364	 0.291562	 2.315797	 -1.277845	 -0.336623	 -0.112733	 0.764973	 -0.592457	 0.226058	 2
1463571618.056	 5	 -2.460642	 5.067450	 0.039036	 2.420940	 -1.258652	 -0.278104	 -0.100670	 0.777971	 -0.584992	 0.205939	 2
1463571618.066	 5	 -2.072678	 5.336266	 -0.135560	 2.516701	 -1.242361	 -0.232983	 -0.087746	 0.789369	 -0.579117	 0.183901	 2
1463571618.076	 5	 -1.858337	 5.164692	 -0.241336	 2.604241	 -1.227720	 -0.195772	 -0.075156	 0.799275	 -0.573909	 0.161677	 2
1463571618.086	 5	 -1.828248	 4.557054	 -0.272831	 2.681850	 -1.212942	 -0.163498	 -0.064105	 0.807984	 -0.568413	 0.141274	 2
1463571618.096	 5	 -1.859109	 3.691193	 -0.296605	 2.747910	 -1.197276	 -0.134683	 -0.055443	 0.815731	 -0.562255	 0.124010	 2
1463571618.106	 5	 -1.978243	 2.585886	 -0.228053	 2.800039	 -1.180179	 -0.109707	 -0.049531	 0.822757	 -0.555258	 0.110932	 2
1463571618.116	 5	 -2.480658	 0.811081	 0.058220	 2.830998	 -1.158084	 -0.089996	 -0.047358	 0.829885	 -0.545913	 0.105010	 2
1463571618.126	 5	 -2.855946	 -0.765781	 0.411305	 2.838566	 -1.130572	 -0.077214	 -0.048569	 0.837260	 -0.534046	 0.106921	 2
1463571618.136	 5	 -2.908790	 -1.820609	 0.720613	 2.828154	 -1.100839	 -0.071180	 -0.051629	 0.844232	 -0.521041	 0.114559	 2
1463571618.146	 5	 -2.717224	 -2.558875	 0.928419	 2.805237	 -1.072673	 -0.070122	 -0.055773	 0.849936	 -0.508515	 0.126135	 2
1463571618.156	 5	 -2.401480	 -3.117539	 1.019579	 2.773987	 -1.047064	 -0.071724	 -0.060787	 0.854199	 -0.496880	 0.140564	 2
1463571618.166	 5	 -2.101970	 -3.420498	 1.018400	 2.738594	 -1.025323	 -0.073920	 -0.066551	 0.856855	 -0.486691	 0.156532	 2
1463571618.176	 5	 -1.950598	 -3.380132	 0.927886	 2.706184	 -1.009258	 -0.072830	 -0.073241	 0.857927	 -0.478641	 0.171755	 2
1463571618.186	 5	 -1.929440	 -3.120245	 0.840589	 2.675859	 -0.988892	 -0.071114	 -0.078993	 0.859825	 -0.468665	 0.186586	 2
1463571618.196	 5	 -1.967130	 -2.734093	 0.833853	 2.649892	 -0.967709	 -0.068180	 -0.083890	 0.861951	 -0.458287	 0.199939	 2
1463571618.206	 5	 -1.997458	 -2.188047	 0.878631	 2.629383	 -0.946081	 -0.064705	 -0.087493	 0.864435	 -0.447799	 0.211123	 2
1463571618.216	 5	 -1.977660	 -1.435697	 0.938748	 2.615528	 -0.924254	 -0.061593	 -0.089257	 0.867480	 -0.437481	 0.219369	 2
1463571618.226	 5	 -1.863151	 -0.519776	 1.005956	 2.609367	 -0.902878	 -0.059844	 -0.088705	 0.871191	 -0.427796	 0.223939	 2
1463571618.236	 5	 -1.621027	 0.520274	 1.081735	 2.611137	 -0.882922	 -0.060753	 -0.085446	 0.875513	 -0.419328	 0.224366	 2
1463571618.246	 5	 -1.275817	 1.688776	 1.165272	 2.621485	 -0.865363	 -0.065503	 -0.079031	 0.880379	 -0.412635	 0.220043	 2
1463571618.256	 5	 -0.902441	 2.749513	 1.213456	 2.639903	 -0.850806	 -0.074134	 -0.069669	 0.885555	 -0.407876	 0.211129	 2
1463571618.266	 5	 -0.586960	 3.585500	 1.192910	 2.665395	 -0.839320	 -0.085427	 -0.058117	 0.890758	 -0.404791	 0.198286	 2
1463571618.276	 5	 -0.355587	 4.051253	 1.124889	 2.695707	 -0.830577	 -0.097985	 -0.045396	 0.895652	 -0.402904	 0.182795	 2
1463571618.286	 5	 -0.257763	 4.080902	 0.999619	 2.727682	 -0.823819	 -0.110205	 -0.032751	 0.899973	 -0.401592	 0.166430	 2
1463571618.296	 5	 -0.308978	 3.789316	 0.810843	 2.759113	 -0.817781	 -0.120191	 -0.021333	 0.903747	 -0.400114	 0.150648	 2
1463571618.306	 5	 -0.325935	 3.329280	 0.580769	 2.788564	 -0.812417	 -0.127169	 -0.011780	 0.906933	 -0.398453	 0.136267	 2
1463571618.316	 5	 -0.240838	 2.791251	 0.343751	 2.814792	 -0.808547	 -0.131364	 -0.004310	 0.909386	 -0.397091	 0.123765	 2
1463571618.326	 5	 -0.081863	 2.280865	 0.135122	 2.837387	 -0.806780	 -0.133367	 0.001234	 0.911060	 -0.396430	 0.113191	 2
1463571618.336	 5	 0.153446	 1.717674	 -0.137542	 2.856393	 -0.807840	 -0.132849	 0.004682	 0.911894	 -0.396853	 0.104570	 2
1463571618.346	 5	 0.339678	 1.353778	 -0.374886	 2.872967	 -0.811653	 -0.129496	 0.006158	 0.912014	 -0.398364	 0.097462	 2
1463571618.356	 5	 0.372758	 1.386367	 -0.414304	 2.889784	 -0.816294	 -0.125050	 0.007154	 0.911927	 -0.400200	 0.090428	 2
1463571618.366	 5	 0.308724	 1.590948	 -0.389462	 2.908400	 -0.820466	 -0.120601	 0.008577	 0.911942	 -0.401824	 0.082614	 2
1463571618.376	 5	 0.053035	 1.682111	 -0.388519	 2.928881	 -0.822629	 -0.115531	 0.010248	 0.912347	 -0.402510	 0.074187	 2
1463571618.386	 5	 -0.573361	 1.310000	 -0.473920	 2.948836	 -0.819673	 -0.107954	 0.010966	 0.913669	 -0.400794	 0.066734	 2
1463571618.396	 5	 -1.326187	 0.362986	 -0.540123	 2.962902	 -0.809315	 -0.097235	 0.009408	 0.916196	 -0.395656	 0.062866	 2
1463571618.406	 5	 -1.207649	 -0.206295	 -0.380194	 2.968285	 -0.797090	 -0.087753	 0.006719	 0.918758	 -0.389748	 0.062727	 2
1463571618.416	 5	 -0.466080	 0.422286	 -0.082388	 2.973229	 -0.791151	 -0.083968	 0.006222	 0.920057	 -0.386893	 0.061405	 2
1463571618.426	 5	 -0.376137	 1.312759	 0.278948	 2.982893	 -0.787364	 -0.085695	 0.009055	 0.921055	 -0.385169	 0.056756	 2
1463571618.436	 5	 -0.653066	 1.923352	 0.764503	 2.995596	 -0.780652	 -0.093311	 0.015296	 0.922613	 -0.382209	 0.049676	 2
1463571618.446	 5	 -0.752339	 1.943287	 1.272856	 3.005160	 -0.771619	 -0.107809	 0.024189	 0.924379	 -0.378292	 0.042833	 2
1463571618.456	 5	 -0.498472	 1.461650	 1.546459	 3.007655	 -0.763852	 -0.127383	 0.034040	 0.925579	 -0.375071	 0.038302	 2
1463571618.466	 5	 -0.025416	 0.665353	 1.492300	 3.002231	 -0.760266	 -0.147947	 0.042701	 0.925738	 -0.373909	 0.037122	 2
1463571618.476	 5	 0.485088	 -0.152851	 1.219130	 2.989922	 -0.761988	 -0.166395	 0.048847	 0.924767	 -0.375337	 0.039275	 2
1463571618.486	 5	 0.803524	 -0.640565	 0.828144	 2.974517	 -0.767836	 -0.180747	 0.052263	 0.923021	 -0.378709	 0.043365	 2
1463571618.496	 5	 0.848006	 -0.669611	 0.507758	 2.960682	 -0.775229	 -0.190668	 0.053779	 0.921092	 -0.382687	 0.047418	 2
1463571618.506	 5	 0.756015	 -0.284128	 0.533461	 2.950340	 -0.781948	 -0.199641	 0.055508	 0.919359	 -0.386257	 0.050032	 2
1463571618.516	 5	 0.931999	 0.590604	 0.811873	 2.944862	 -0.788939	 -0.212214	 0.059771	 0.917568	 -0.389912	 0.049649	 2
1463571618.526	 5	 1.353704	 1.391469	 0.977650	 2.945228	 -0.799340	 -0.229041	 0.066865	 0.915106	 -0.395023	 0.045458	 2
1463571618.536	 5	 1.547452	 1.154001	 0.870374	 2.945675	 -0.812460	 -0.246227	 0.073914	 0.912039	 -0.401311	 0.040870	 2
1463571618.546	 5	 1.349269	 -0.078468	 0.532376	 2.939061	 -0.825368	 -0.259495	 0.077710	 0.908940	 -0.407643	 0.040201	 2
1463571618.556	 5	 0.608700	 -1.923030	 0.050593	 2.920259	 -0.832538	 -0.264154	 0.075442	 0.906973	 -0.411680	 0.047205	 2
1463571618.566	 5	 0.155414	 -2.757641	 -0.234588	 2.895479	 -0.835452	 -0.262557	 0.069374	 0.905815	 -0.413837	 0.058523	 2
1463571618.576	 5	 -0.033016	 -2.760303	 -0.384310	 2.871198	 -0.836309	 -0.257423	 0.061946	 0.905036	 -0.414851	 0.070507	 2
1463571618.586	 5	 -0.023854	 -2.077280	 -0.501663	 2.853366	 -0.837349	 -0.250577	 0.055056	 0.904367	 -0.415578	 0.079906	 2
1463571618.596	 5	 -0.065465	 -0.338427	 -0.685483	 2.851913	 -0.838636	 -0.241275	 0.050432	 0.904306	 -0.415812	 0.082388	 2
1463571618.606	 5	 0.026221	 1.477889	 -0.986977	 2.872464	 -0.841029	 -0.228250	 0.048605	 0.904979	 -0.415855	 0.075606	 2
1463571618.616	 5	 0.288213	 1.938908	 -1.401681	 2.905149	 -0.846356	 -0.210153	 0.046795	 0.905510	 -0.416824	 0.064178	 2
1463571618.626	 5	 0.639146	 1.235974	 -1.684113	 2.936380	 -0.855256	 -0.187898	 0.042624	 0.905159	 -0.419456	 0.054092	 2
1463571618.636	 5	 0.898415	 0.405917	 -1.786816	 2.960826	 -0.866951	 -0.163716	 0.036116	 0.903881	 -0.423610	 0.047434	 2
1463571618.646	 5	 0.761467	 -0.788203	 -1.798867	 2.975767	 -0.878313	 -0.138466	 0.027271	 0.902276	 -0.427886	 0.045468	 2
1463571618.656	 5	 0.507710	 -1.918713	 -1.740034	 2.979097	 -0.886552	 -0.112403	 0.015822	 0.900905	 -0.430930	 0.049186	 2
1463571618.666	 5	 0.381644	 -2.877676	 -1.440920	 2.970450	 -0.893088	 -0.089469	 0.003315	 0.899396	 -0.433288	 0.057768	 2
1463571618.676	 5	 0.714970	 -2.841244	 -1.122689	 2.954012	 -0.900879	 -0.072472	 -0.008275	 0.897188	 -0.436218	 0.068553	 2
1463571618.686	 5	 1.893075	 -1.234714	 -1.167022	 2.947641	 -0.918367	 -0.059190	 -0.016494	 0.893082	 -0.443509	 0.073703	 2
1463571618.696	 5	 3.165582	 0.300897	 -1.272520	 2.956640	 -0.948893	 -0.047533	 -0.021126	 0.886497	 -0.456718	 0.071311	 2
1463571618.706	 5	 3.966868	 0.801800	 -1.103248	 2.970949	 -0.988369	 -0.039269	 -0.023191	 0.877778	 -0.473970	 0.065730	 2
1463571618.716	 5	 4.201168	 0.227828	 -0.810084	 2.978102	 -1.030988	 -0.035858	 -0.024700	 0.867726	 -0.492513	 0.062223	 2
1463571618.726	 5	 4.060387	 -1.127882	 -0.519863	 2.968832	 -1.072542	 -0.037958	 -0.027819	 0.857097	 -0.510345	 0.064488	 2
1463571618.736	 5	 3.685612	 -2.951276	 -0.282047	 2.936789	 -1.110374	 -0.046029	 -0.034414	 0.846366	 -0.526201	 0.074780	 2
1463571618.746	 5	 3.216628	 -4.572643	 -0.090556	 2.881471	 -1.143174	 -0.060795	 -0.044782	 0.835687	 -0.539466	 0.092726	 2
1463571618.756	 5	 2.733513	 -5.498986	 0.015869	 2.809500	 -1.170468	 -0.081281	 -0.057825	 0.825148	 -0.549945	 0.115530	 2
1463571618.766	 5	 2.334300	 -5.538056	 0.040297	 2.731360	 -1.192936	 -0.105407	 -0.071585	 0.814884	 -0.558062	 0.139306	 2
1463571618.776	 5	 2.055946	 -4.791907	 0.004902	 2.657001	 -1.211963	 -0.131287	 -0.084022	 0.805180	 -0.564677	 0.160516	 2
1463571618.786	 5	 1.864287	 -3.522863	 -0.050895	 2.593445	 -1.228740	 -0.157835	 -0.093517	 0.796490	 -0.570637	 0.176726	 2
1463571618.796	 5	 1.691613	 -2.070970	 -0.111551	 2.544326	 -1.243830	 -0.184053	 -0.099297	 0.789256	 -0.576426	 0.186946	 2
1463571618.806	 5	 1.521665	 -0.713799	 -0.179506	 2.510759	 -1.257541	 -0.208470	 -0.101465	 0.783664	 -0.582205	 0.191347	 2
1463571618.816	 5	 1.382111	 0.295519	 -0.242436	 2.490520	 -1.270229	 -0.230452	 -0.100788	 0.779481	 -0.587983	 0.191120	 2
1463571618.826	 5	 1.293462	 0.798295	 -0.321181	 2.478974	 -1.282449	 -0.249888	 -0.098625	 0.776124	 -0.593722	 0.188147	 2
1463571618.836	 5	 1.279142	 0.803853	 -0.440370	 2.471090	 -1.295010	 -0.266755	 -0.096533	 0.772889	 -0.599454	 0.184333	 2
1463571618.846	 5	 1.333051	 0.384466	 -0.609935	 2.462443	 -1.308814	 -0.281057	 -0.095963	 0.769126	 -0.605289	 0.181280	 2
1463571618.856	 5	 1.488757	 -0.416903	 -0.758363	 2.446900	 -1.324589	 -0.295053	 -0.098057	 0.764203	 -0.611381	 0.180530	 2
1463571618.866	 5	 1.585765	 -1.120209	 -0.755094	 2.419116	 -1.341491	 -0.313713	 -0.102513	 0.758122	 -0.617566	 0.182634	 2
1463571618.876	 5	 1.609236	 -1.514500	 -0.556473	 2.376623	 -1.357505	 -0.342519	 -0.107828	 0.751482	 -0.623444	 0.186990	 2
1463571618.886	 5	 1.554817	 -1.509227	 -0.291641	 2.319615	 -1.371086	 -0.385072	 -0.112474	 0.744901	 -0.628825	 0.192488	 2
1463571618.896	 5	 1.408977	 -1.135194	 -0.106777	 2.256541	 -1.381720	 -0.436649	 -0.115537	 0.739027	 -0.633634	 0.197477	 2
1463571618.906	 5	 1.259914	 -0.616898	 0.170048	 2.191839	 -1.388939	 -0.494906	 -0.116322	 0.734226	 -0.637880	 0.201222	 2
1463571618.916	 5	 1.219014	 -0.227932	 0.696247	 2.115893	 -1.390995	 -0.568919	 -0.114028	 0.730315	 -0.641611	 0.204871	 2
1463571618.926	 5	 1.213030	 -0.070377	 1.152846	 2.029759	 -1.387710	 -0.655594	 -0.109267	 0.726904	 -0.644903	 0.209214	 2
1463571618.936	 5	 1.198352	 -0.041730	 1.723423	 1.937584	 -1.378105	 -0.748764	 -0.102473	 0.723766	 -0.647580	 0.215181	 2
1463571618.946	 5	 1.089907	 0.195189	 2.082536	 1.854865	 -1.362519	 -0.834518	 -0.093519	 0.721270	 -0.649481	 0.221807	 2
1463571618.956	 5	 1.009405	 0.224107	 1.931102	 1.789803	 -1.345686	 -0.903690	 -0.084359	 0.719118	 -0.651023	 0.227863	 2
1463571618.966	 5	 1.076147	 -0.151863	 1.447429	 1.732893	 -1.332210	 -0.961644	 -0.077658	 0.716268	 -0.652962	 0.233604	 2
1463571618.976	 5	 1.217510	 -0.586195	 1.012655	 1.675015	 -1.322749	 -1.016423	 -0.073827	 0.712264	 -0.655690	 0.239374	 2
1463571618.986	 5	 1.310237	 -1.040649	 0.716666	 1.613296	 -1.315960	 -1.070519	 -0.072573	 0.707169	 -0.658995	 0.245705	 2
1463571618.996	 5	 1.311982	 -1.362811	 0.732836	 1.550220	 -1.309001	 -1.122416	 -0.072689	 0.701465	 -0.662282	 0.253072	 2
1463571619.006	 5	 1.189043	 -1.752833	 0.874155	 1.490392	 -1.299961	 -1.167476	 -0.073589	 0.695587	 -0.664894	 0.262030	 2
1463571619.016	 5	 0.873373	 -2.578616	 0.835115	 1.436300	 -1.290392	 -1.199398	 -0.077102	 0.689566	 -0.666211	 0.273344	 2
1463571619.026	 5	 0.358467	 -3.685489	 0.674763	 1.389231	 -1.282616	 -1.212851	 -0.085348	 0.683415	 -0.665529	 0.287628	 2
1463571619.036	 5	 -0.195935	 -4.312986	 0.748354	 1.353857	 -1.275768	 -1.205963	 -0.096951	 0.677723	 -0.662366	 0.304243	 2
1463571619.046	 5	 -0.704354	 -4.365205	 0.968645	 1.335109	 -1.268177	 -1.179725	 -0.109230	 0.673256	 -0.656711	 0.321756	 2
1463571619.056	 5	 -1.090809	 -4.069412	 1.120772	 1.332404	 -1.259988	 -1.138975	 -0.120810	 0.670295	 -0.649158	 0.338678	 2
1463571619.066	 5	 -1.430050	 -3.488748	 1.267678	 1.344514	 -1.251118	 -1.087764	 -0.130810	 0.669056	 -0.640240	 0.354043	 2
1463571619.076	 5	 -1.884079	 -2.594939	 1.429155	 1.376102	 -1.241263	 -1.024585	 -0.138338	 0.670492	 -0.629932	 0.366727	 2
1463571619.086	 5	 -2.381662	 -1.664790	 1.597744	 1.428587	 -1.229695	 -0.948974	 -0.143200	 0.675120	 -0.618110	 0.376358	 2
1463571619.096	 5	 -2.876523	 -0.805114	 1.729417	 1.498873	 -1.215777	 -0.863399	 -0.145781	 0.682831	 -0.604814	 0.383001	 2
1463571619.106	 5	 -3.386868	 -0.036013	 1.831607	 1.583755	 -1.198657	 -0.770228	 -0.146497	 0.693466	 -0.589956	 0.386776	 2
1463571619.116	 5	 -3.790425	 0.464182	 2.002837	 1.675995	 -1.177071	 -0.674549	 -0.145854	 0.706306	 -0.573516	 0.388507	 2
1463571619.126	 5	 -3.952184	 0.689737	 2.386822	 1.764830	 -1.148583	 -0.585016	 -0.143490	 0.720359	 -0.555511	 0.389744	 2
1463571619.136	 5	 -3.700716	 0.625917	 2.634492	 1.837147	 -1.114741	 -0.512229	 -0.139725	 0.733783	 -0.537154	 0.391797	 2
1463571619.146	 5	 -3.292943	 1.252895	 2.723103	 1.895295	 -1.079000	 -0.458286	 -0.133709	 0.746592	 -0.519981	 0.392863	 2
1463571619.156	 5	 -2.928625	 2.994289	 2.906657	 1.953424	 -1.041868	 -0.420497	 -0.122444	 0.761057	 -0.504661	 0.388738	 2
1463571619.166	 5	 -2.662594	 4.823125	 3.228298	 2.017572	 -1.002105	 -0.396962	 -0.104605	 0.778072	 -0.490643	 0.378061	 2
1463571619.176	 5	 -2.396106	 5.502309	 3.418806	 2.081335	 -0.960720	 -0.385587	 -0.082733	 0.795698	 -0.477203	 0.363726	 2
1463571619.186	 5	 -2.102415	 4.686356	 3.368158	 2.132754	 -0.920465	 -0.383449	 -0.061265	 0.810896	 -0.464226	 0.350983	 2
1463571619.196	 5	 -2.060447	 3.167656	 3.110666	 2.168020	 -0.882547	 -0.383923	 -0.043648	 0.822613	 -0.451245	 0.343191	 2
1463571619.206	 5	 -2.239938	 1.669686	 2.689037	 2.190465	 -0.847075	 -0.381072	 -0.031268	 0.831449	 -0.437817	 0.340634	 2
1463571619.216	 5	 -2.582353	 0.349990	 2.144726	 2.204519	 -0.813913	 -0.371111	 -0.024509	 0.838273	 -0.423606	 0.342426	 2
1463571619.226	 5	 -2.926536	 -0.778172	 1.464729	 2.212843	 -0.783798	 -0.352356	 -0.023584	 0.843506	 -0.408756	 0.347649	 2
1463571619.236	 5	 -3.128391	 -1.626764	 0.820198	 2.216766	 -0.757467	 -0.326091	 -0.027777	 0.847301	 -0.393807	 0.355283	 2
1463571619.246	 5	 -3.089475	 -2.243051	 0.333466	 2.216345	 -0.735156	 -0.295851	 -0.035545	 0.849624	 -0.379455	 0.364540	 2
1463571619.256	 5	 -2.728516	 -2.638564	 0.060202	 2.210293	 -0.717216	 -0.266372	 -0.045086	 0.850206	 -0.366657	 0.375073	 2
1463571619.266	 5	 -2.087614	 -2.662376	 -0.030861	 2.199267	 -0.703946	 -0.242237	 -0.054286	 0.849195	 -0.356418	 0.385858	 2
1463571619.276	 5	 -1.372520	 -2.441976	 -0.003063	 2.184956	 -0.695096	 -0.225659	 -0.061796	 0.847035	 -0.349171	 0.395971	 2
1463571619.286	 5	 -0.954618	 -2.013202	 0.184862	 2.169977	 -0.688150	 -0.215602	 -0.067024	 0.844581	 -0.343858	 0.404910	 2
1463571619.296	 5	 -0.864995	 -1.353017	 0.470521	 2.158876	 -0.679980	 -0.209081	 -0.069746	 0.843104	 -0.338836	 0.411706	 2
1463571619.306	 5	 -0.849904	 -0.870345	 0.741321	 2.151880	 -0.669620	 -0.204771	 -0.070280	 0.842768	 -0.333500	 0.416631	 2
1463571619.316	 5	 -0.876236	 -0.701090	 0.896595	 2.146596	 -0.657638	 -0.201552	 -0.069654	 0.842983	 -0.327780	 0.420819	 2
1463571619.326	 5	 -0.946621	 -0.725050	 0.937484	 2.141455	 -0.644770	 -0.198177	 -0.068830	 0.843286	 -0.321660	 0.425048	 2
1463571619.336	 5	 -1.074220	 -0.604681	 0.910940	 2.137974	 -0.631429	 -0.193333	 -0.068220	 0.843906	 -0.315076	 0.428830	 2
1463571619.346	 5	 -1.028368	 -0.393099	 0.918904	 2.136165	 -0.618023	 -0.188446	 -0.067337	 0.844856	 -0.308492	 0.431876	 2
1463571619.356	 5	 -0.769499	 0.231176	 0.868105	 2.138422	 -0.606017	 -0.185476	 -0.065357	 0.846566	 -0.303011	 0.432711	 2
1463571619.366	 5	 -0.316000	 0.939978	 0.818530	 2.145554	 -0.596684	 -0.186449	 -0.061630	 0.849146	 -0.299613	 0.430564	 2
1463571619.376	 5	 0.133586	 1.467181	 0.805666	 2.155947	 -0.590091	 -0.192042	 -0.056126	 0.852239	 -0.298400	 0.426025	 2
1463571619.386	 5	 0.455708	 1.653470	 0.810989	 2.167102	 -0.585514	 -0.201302	 -0.049424	 0.855324	 -0.298760	 0.420381	 2
1463571619.396	 5	 0.649439	 1.566593	 0.789311	 2.176821	 -0.582382	 -0.212697	 -0.042352	 0.857940	 -0.300065	 0.414858	 2
1463571619.406	 5	 0.793428	 1.363737	 0.741407	 2.184054	 -0.580529	 -0.225315	 -0.035410	 0.859866	 -0.302039	 0.410060	 2
1463571619.416	 5	 0.933148	 1.198854	 0.648067	 2.189024	 -0.580209	 -0.238739	 -0.028806	 0.861127	 -0.304724	 0.405922	 2
1463571619.426	 5	 1.107402	 1.185363	 0.471639	 2.193260	 -0.582143	 -0.252621	 -0.022627	 0.861969	 -0.308384	 0.401743	 2
1463571619.436	 5	 1.348001	 1.147750	 0.369012	 2.196424	 -0.586498	 -0.267899	 -0.016565	 0.862320	 -0.313271	 0.397480	 2
1463571619.446	 5	 1.574878	 1.152632	 0.254112	 2.198545	 -0.593081	 -0.284692	 -0.010525	 0.862207	 -0.319322	 0.393093	 2
1463571619.456	 5	 1.847587	 1.159389	 0.122843	 2.199745	 -0.602261	 -0.303169	 -0.004515	 0.861611	 -0.326713	 0.388412	 2
1463571619.466	 5	 2.219450	 1.147758	 -0.010526	 2.199227	 -0.614552	 -0.324259	 0.001594	 0.860322	 -0.335813	 0.383501	 2
1463571619.476	 5	 2.517124	 1.014073	 -0.137990	 2.195995	 -0.629785	 -0.347904	 0.007603	 0.858156	 -0.346516	 0.378731	 2
1463571619.486	 5	 2.600880	 0.821083	 -0.316366	 2.190135	 -0.647114	 -0.372289	 0.012887	 0.855220	 -0.358116	 0.374413	 2
1463571619.496	 5	 2.111210	 0.802943	 -0.522227	 2.185893	 -0.664189	 -0.392314	 0.016560	 0.852590	 -0.368685	 0.369982	 2
1463571619.506	 5	 0.725100	 1.325724	 -0.567089	 2.192606	 -0.675446	 -0.399834	 0.018300	 0.852624	 -0.374471	 0.363962	 2
1463571619.516	 5	 -0.951775	 1.799609	 -0.138826	 2.215333	 -0.674063	 -0.391770	 0.019426	 0.856933	 -0.372255	 0.355970	 2
1463571619.526	 5	 -1.437350	 1.300293	 0.184747	 2.237864	 -0.664651	 -0.378685	 0.020153	 0.862025	 -0.365939	 0.350136	 2
1463571619.536	 5	 -1.063647	 0.894797	 0.446292	 2.253111	 -0.654275	 -0.369870	 0.021484	 0.865865	 -0.360033	 0.346688	 2
1463571619.546	 5	 -0.500111	 0.693976	 0.701694	 2.261179	 -0.645291	 -0.368816	 0.024500	 0.868211	 -0.356089	 0.344688	 2
1463571619.556	 5	 -0.133692	 0.208869	 0.835736	 2.262117	 -0.637716	 -0.373265	 0.028303	 0.869093	 -0.353741	 0.344591	 2
1463571619.566	 5	 -0.028476	 -0.563602	 0.838289	 2.254732	 -0.630951	 -0.379504	 0.031237	 0.868402	 -0.352161	 0.347685	 2
1463571619.586	 6	 0.018249	 -1.524115	 0.847063	 2.222280	 -0.617360	 -0.391798	 0.033999	 0.863749	 -0.349333	 0.361591	 2
1463571619.596	 6	 0.287501	 -1.430462	 0.816814	 2.202831	 -0.611981	 -0.399883	 0.035358	 0.860542	 -0.348972	 0.369371	 2
1463571619.606	 6	 0.556177	 -0.992322	 0.769527	 2.185627	 -0.608583	 -0.410434	 0.037700	 0.857442	 -0.349885	 0.375435	 2
1463571619.616	 6	 0.503421	 -0.448352	 0.812350	 2.173562	 -0.605151	 -0.421291	 0.041070	 0.855241	 -0.350800	 0.379231	 2
1463571619.626	 6	 0.284420	 -0.210159	 1.009376	 2.165552	 -0.599213	 -0.431295	 0.045400	 0.853981	 -0.350513	 0.381832	 2
1463571619.636	 6	 -0.125951	 -0.374509	 1.060445	 2.158396	 -0.590263	 -0.438314	 0.049360	 0.853138	 -0.348475	 0.385076	 2
1463571619.646	 6	 -0.453736	 -0.464362	 0.857836	 2.152683	 -0.580425	 -0.440435	 0.051722	 0.852714	 -0.345126	 0.388705	 2
1463571619.656	 6	 -0.380585	 -0.352623	 0.602456	 2.148486	 -0.572578	 -0.440644	 0.053049	 0.852456	 -0.342164	 0.391699	 2
1463571619.666	 6	 -0.286975	 0.907930	 0.371443	 2.153266	 -0.567438	 -0.440574	 0.055118	 0.853757	 -0.339979	 0.390481	 2
1463571619.676	 6	 -0.682216	 3.287715	 0.132720	 2.182724	 -0.562599	 -0.436233	 0.059429	 0.859897	 -0.336363	 0.379349	 2
1463571619.686	 6	 -0.800963	 4.199159	 -0.217993	 2.228258	 -0.558888	 -0.427766	 0.064261	 0.868869	 -0.331882	 0.361651	 2
1463571619.696	 6	 -0.799091	 3.247313	 -0.498655	 2.269966	 -0.560017	 -0.417094	 0.066238	 0.876498	 -0.329100	 0.345046	 2
1463571619.706	 6	 -0.992051	 1.475066	 -0.760723	 2.296536	 -0.559131	 -0.403342	 0.064738	 0.881543	 -0.325521	 0.335748	 2
1463571619.716	 6	 -0.996312	 -0.175929	 -0.946571	 2.307301	 -0.559071	 -0.387233	 0.059385	 0.883850	 -0.322466	 0.333615	 2
1463571619.726	 6	 -0.626568	 -1.615335	 -0.990894	 2.302212	 -0.561430	 -0.372943	 0.051745	 0.883187	 -0.321200	 0.337837	 2
1463571619.736	 6	 0.094823	 -2.586923	 -0.916692	 2.282763	 -0.567784	 -0.364659	 0.043579	 0.879493	 -0.322912	 0.346873	 2
1463571619.746	 6	 0.940415	 -2.800463	 -0.834386	 2.254728	 -0.579009	 -0.364832	 0.036593	 0.873550	 -0.328181	 0.357587	 2
1463571619.756	 6	 1.683310	 -2.412553	 -0.723208	 2.224631	 -0.594252	 -0.373386	 0.031823	 0.866585	 -0.336524	 0.367110	 2
1463571619.766	 6	 2.370532	 -1.879459	 -0.561169	 2.194879	 -0.612182	 -0.390460	 0.029875	 0.859199	 -0.347431	 0.374400	 2
1463571619.776	 6	 2.993915	 -1.511215	 -0.423555	 2.164026	 -0.632200	 -0.416015	 0.030476	 0.851216	 -0.360709	 0.379989	 2
1463571619.786	 6	 3.259873	 -1.320878	 -0.322852	 2.131686	 -0.652665	 -0.447445	 0.032708	 0.842754	 -0.375236	 0.384570	 2
1463571619.796	 6	 3.039659	 -1.351498	 -0.380903	 2.098940	 -0.671870	 -0.478973	 0.034705	 0.834265	 -0.389234	 0.388965	 2
1463571619.806	 6	 2.408561	 -1.483075	 -0.592982	 2.068329	 -0.689223	 -0.504654	 0.034705	 0.826411	 -0.401282	 0.393463	 2
1463571619.816	 6	 1.538834	 -1.668913	 -0.903670	 2.042309	 -0.704704	 -0.519951	 0.031510	 0.819772	 -0.410419	 0.398167	 2
1463571619.826	 6	 0.823954	 -1.812829	 -1.237697	 2.021330	 -0.719429	 -0.524780	 0.025067	 0.814333	 -0.417001	 0.402918	 2
1463571619.836	 6	 0.461017	 -1.847629	 -1.489578	 2.004047	 -0.734645	 -0.522972	 0.016441	 0.809629	 -0.422242	 0.407361	 2
1463571619.846	 6	 0.428108	 -1.671118	 -1.656040	 1.989383	 -0.751118	 -0.519075	 0.007088	 0.805295	 -0.427348	 0.410882	 2
1463571619.856	 6	 0.633435	 -1.284108	 -1.739487	 1.977054	 -0.769194	 -0.516762	 -0.001652	 0.801223	 -0.433208	 0.412759	 2
1463571619.866	 6	 0.983985	 -0.725653	 -1.736277	 1.966937	 -0.788694	 -0.518720	 -0.008683	 0.797431	 -0.440333	 0.412474	 2
1463571619.876	 6	 1.381716	 -0.170090	 -1.672756	 1.958360	 -0.809214	 -0.526494	 -0.013430	 0.793864	 -0.448901	 0.409985	 2
1463571619.886	 6	 1.699569	 0.148906	 -1.556387	 1.949460	 -0.830037	 -0.539900	 -0.016200	 0.790238	 -0.458594	 0.406144	 2
1463571619.896	 6	 1.896703	 0.170827	 -1.387378	 1.937776	 -0.850136	 -0.557968	 -0.017686	 0.786174	 -0.468815	 0.402281	 2
1463571619.906	 6	 1.955361	 -0.003402	 -1.189146	 1.922204	 -0.868574	 -0.579224	 -0.018511	 0.781553	 -0.478934	 0.399317	 2
1463571619.916	 6	 1.893875	 -0.284912	 -1.019643	 1.902621	 -0.884976	 -0.601906	 -0.019337	 0.776390	 -0.488489	 0.397772	 2
1463571619.926	 6	 1.743634	 -0.588633	 -0.868757	 1.880027	 -0.899198	 -0.624343	 -0.020556	 0.770882	 -0.497144	 0.397702	 2
1463571619.936	 6	 1.561206	 -0.890462	 -0.763401	 1.855225	 -0.911416	 -0.645496	 -0.022420	 0.765148	 -0.504791	 0.399039	 2
1463571619.946	 6	 1.382025	 -1.138440	 -0.710860	 1.829013	 -0.922183	 -0.664895	 -0.025062	 0.759276	 -0.511538	 0.401498	 2
1463571619.956	 6	 1.237179	 -1.317637	 -0.693148	 1.802058	 -0.932016	 -0.682607	 -0.028426	 0.753339	 -0.517572	 0.404711	 2
1463571619.966	 6	 1.145009	 -1.403496	 -0.689948	 1.774739	 -0.941270	 -0.699265	 -0.032269	 0.747382	 -0.523129	 0.408306	 2
1463571619.976	 6	 1.120377	 -1.407801	 -0.706825	 1.747203	 -0.950275	 -0.715846	 -0.036279	 0.741421	 -0.528504	 0.411901	 2
1463571619.986	 6	 1.145946	 -1.373155	 -0.758948	 1.719231	 -0.959448	 -0.733173	 -0.040347	 0.735401	 -0.533972	 0.415249	 2
1463571619.996	 6	 1.204511	 -1.327163	 -0.846422	 1.690424	 -0.969186	 -0.751936	 -0.044472	 0.729242	 -0.539758	 0.418197	 2
1463571620.006	 6	 1.219399	 -1.255597	 -0.945002	 1.661219	 -0.979614	 -0.771827	 -0.048713	 0.723043	 -0.545821	 0.420613	 2
1463571620.016	 6	 1.099790	 -1.177370	 -1.059401	 1.633293	 -0.990766	 -0.790973	 -0.053306	 0.717128	 -0.551794	 0.422385	 2
1463571620.026	 6	 0.835632	 -0.996426	 -1.148138	 1.609643	 -1.002505	 -0.806616	 -0.058337	 0.712073	 -0.557133	 0.423264	 2
1463571620.036	 6	 0.531854	 -0.674478	 -1.169142	 1.592977	 -1.014368	 -0.817334	 -0.063326	 0.708411	 -0.561530	 0.422880	 2
1463571620.046	 6	 0.305169	 -0.320656	 -1.163875	 1.583454	 -1.026071	 -0.823722	 -0.067844	 0.706170	 -0.565107	 0.421159	 2
1463571620.056	 6	 0.214598	 -0.058797	 -1.171308	 1.578683	 -1.037790	 -0.827958	 -0.071810	 0.704874	 -0.568331	 0.418325	 2
1463571620.066	 6	 0.237288	 0.013349	 -1.186821	 1.574977	 -1.049626	 -0.832320	 -0.075483	 0.703806	 -0.571594	 0.415017	 2
1463571620.076	 6	 0.306031	 -0.102922	 -1.205553	 1.569335	 -1.061646	 -0.838099	 -0.079292	 0.702394	 -0.575061	 0.411899	 2
1463571620.086	 6	 0.397719	 -0.372076	 -1.176883	 1.559430	 -1.073497	 -0.845983	 -0.083555	 0.700220	 -0.578685	 0.409677	 2
1463571620.096	 6	 0.518975	 -0.737843	 -1.112068	 1.543568	 -1.084684	 -0.856734	 -0.088355	 0.697018	 -0.582417	 0.408840	 2
1463571620.106	 6	 0.632031	 -1.252539	 -1.053896	 1.520017	 -1.095123	 -0.870713	 -0.094087	 0.692478	 -0.586197	 0.409871	 2
1463571620.116	 6	 0.643316	 -1.872042	 -0.969169	 1.488866	 -1.104605	 -0.886453	 -0.101209	 0.686560	 -0.589646	 0.413172	 2
1463571620.126	 6	 0.457364	 -2.475861	 -0.854869	 1.453445	 -1.112894	 -0.899982	 -0.110040	 0.679715	 -0.592023	 0.418793	 2
1463571620.136	 6	 0.041166	 -2.823514	 -0.709537	 1.420500	 -1.120112	 -0.905835	 -0.120441	 0.672967	 -0.592546	 0.426027	 2
1463571620.146	 6	 -0.519870	 -2.786709	 -0.408028	 1.398249	 -1.125548	 -0.899153	 -0.131248	 0.667684	 -0.590570	 0.433819	 2
1463571620.156	 6	 -1.010211	 -2.358762	 0.031858	 1.391710	 -1.127926	 -0.878726	 -0.140847	 0.664827	 -0.586030	 0.441289	 2
1463571620.166	 6	 -1.283709	 -1.602242	 0.401506	 1.400277	 -1.126933	 -0.849371	 -0.147743	 0.664632	 -0.579967	 0.447296	 2
1463571620.176	 6	 -1.487820	 -0.954328	 0.636320	 1.420930	 -1.123461	 -0.814256	 -0.152212	 0.666738	 -0.573039	 0.451574	 2
1463571620.186	 6	 -1.661063	 -0.476251	 0.784023	 1.450347	 -1.118205	 -0.775045	 -0.155047	 0.670588	 -0.565473	 0.454436	 2
1463571620.196	 6	 -1.807404	 -0.117890	 0.861104	 1.486086	 -1.111596	 -0.733026	 -0.156790	 0.675771	 -0.557425	 0.456101	 2
1463571620.206	 6	 -1.971978	 0.063375	 0.856763	 1.526064	 -1.104226	 -0.688722	 -0.158165	 0.681855	 -0.548942	 0.456859	 2
1463571620.216	 6	 -2.221829	 0.078628	 0.805792	 1.569616	 -1.096562	 -0.640827	 -0.160055	 0.688559	 -0.539772	 0.457073	 2
1463571620.226	 6	 -2.581801	 -0.011616	 0.829402	 1.617215	 -1.087792	 -0.587314	 -0.162865	 0.695881	 -0.529308	 0.457228	 2
1463571620.236	 6	 -2.992347	 0.012298	 0.881159	 1.670244	 -1.077044	 -0.527163	 -0.166472	 0.704141	 -0.517196	 0.457145	 2
1463571620.246	 6	 -3.178130	 0.291768	 1.063359	 1.727172	 -1.063083	 -0.464648	 -0.169595	 0.713510	 -0.503905	 0.456313	 2
1463571620.256	 6	 -2.845879	 1.308182	 1.289471	 1.784605	 -1.045483	 -0.410175	 -0.169404	 0.724228	 -0.491283	 0.453252	 2
1463571620.266	 6	 -2.023886	 2.487331	 1.567188	 1.837698	 -1.025706	 -0.374273	 -0.163644	 0.735932	 -0.481580	 0.446884	 2
1463571620.276	 6	 -1.129680	 3.079669	 1.915550	 1.879830	 -1.004363	 -0.359719	 -0.152720	 0.747182	 -0.474907	 0.439157	 2
1463571620.286	 6	 -0.516326	 2.989694	 2.222706	 1.909236	 -0.981946	 -0.361024	 -0.138845	 0.756917	 -0.470023	 0.432293	 2
1463571620.296	 6	 -0.344177	 2.402788	 2.467266	 1.927860	 -0.958064	 -0.369650	 -0.124416	 0.764871	 -0.465178	 0.427905	 2
1463571620.306	 6	 -0.654794	 1.600557	 2.597857	 1.940342	 -0.932058	 -0.376504	 -0.111538	 0.771510	 -0.458637	 0.426596	 2
1463571620.316	 6	 -1.239731	 0.889712	 2.605927	 1.951549	 -0.903754	 -0.375646	 -0.101342	 0.777614	 -0.449407	 0.427878	 2
1463571620.326	 6	 -1.761000	 0.438311	 2.482637	 1.963919	 -0.874235	 -0.366587	 -0.093855	 0.783632	 -0.437851	 0.430580	 2
1463571620.336	 6	 -2.033756	 0.204042	 2.334691	 1.976904	 -0.844692	 -0.352759	 -0.088273	 0.789527	 -0.425053	 0.433804	 2
1463571620.346	 6	 -2.093297	 0.140465	 2.197134	 1.989529	 -0.815873	 -0.337661	 -0.083667	 0.795178	 -0.411983	 0.436991	 2
1463571620.356	 6	 -2.043655	 0.182620	 2.016980	 2.001822	 -0.788575	 -0.322914	 -0.079602	 0.800568	 -0.399312	 0.439663	 2
1463571620.366	 6	 -1.952593	 0.220071	 1.791660	 2.013868	 -0.763442	 -0.308781	 -0.076108	 0.805650	 -0.387378	 0.441671	 2
1463571620.376	 6	 -1.834245	 0.175413	 1.548286	 2.024979	 -0.740858	 -0.295340	 -0.073363	 0.810237	 -0.376360	 0.443268	 2
1463571620.386	 6	 -1.752783	 -0.032624	 1.347409	 2.034005	 -0.720557	 -0.282335	 -0.071573	 0.814098	 -0.366106	 0.445070	 2
1463571620.396	 6	 -1.654669	 -0.388052	 1.215356	 2.039148	 -0.701817	 -0.269837	 -0.070793	 0.816918	 -0.356329	 0.447955	 2
1463571620.406	 6	 -1.420557	 -0.647069	 1.086213	 2.040051	 -0.685144	 -0.259167	 -0.070609	 0.818595	 -0.347535	 0.451814	 2
1463571620.416	 6	 -1.169267	 -0.708931	 1.017373	 2.038067	 -0.670419	 -0.251060	 -0.070397	 0.819465	 -0.339920	 0.456044	 2
1463571620.426	 6	 -0.962552	 -0.549998	 1.017052	 2.035534	 -0.656803	 -0.245360	 -0.069575	 0.820140	 -0.333234	 0.459874	 2
1463571620.436	 6	 -0.734594	 -0.214325	 1.050163	 2.034315	 -0.643958	 -0.242292	 -0.067648	 0.821098	 -0.327476	 0.462581	 2
1463571620.446	 6	 -0.494428	 0.225505	 1.077743	 2.035590	 -0.631885	 -0.242069	 -0.064348	 0.822620	 -0.322746	 0.463670	 2
1463571620.456	 6	 -0.237244	 0.668344	 1.087085	 2.039589	 -0.620835	 -0.244782	 -0.059677	 0.824735	 -0.319164	 0.463017	 2
1463571620.476	 7	 0.123853	 1.220215	 1.066695	 2.053561	 -0.601677	 -0.257021	 -0.047373	 0.830126	 -0.314804	 0.457761	 2
1463571620.486	 7	 0.249001	 1.344805	 0.991096	 2.062225	 -0.593750	 -0.265090	 -0.040590	 0.833015	 -0.313695	 0.453910	 2
1463571620.496	 7	 0.371242	 1.547970	 0.896003	 2.072021	 -0.587298	 -0.273961	 -0.033679	 0.835978	 -0.313317	 0.449265	 2
1463571620.506	 7	 0.470719	 1.498707	 0.743341	 2.082130	 -0.582609	 -0.283251	 -0.026996	 0.838796	 -0.313677	 0.444184	 2
1463571620.516	 7	 0.536300	 1.549130	 0.535430	 2.092512	 -0.580070	 -0.292133	 -0.020983	 0.841418	 -0.314748	 0.438759	 2
1463571620.526	 7	 0.611478	 1.597397	 0.328467	 2.103919	 -0.579745	 -0.300559	 -0.015550	 0.844008	 -0.316558	 0.432666	 2
1463571620.536	 7	 0.682880	 1.545511	 0.096092	 2.115226	 -0.581823	 -0.308328	 -0.010994	 0.846307	 -0.319135	 0.426377	 2
1463571620.546	 7	 0.753149	 1.485073	 -0.142747	 2.126393	 -0.586366	 -0.315323	 -0.007378	 0.848303	 -0.322492	 0.419914	 2
1463571620.556	 7	 0.829607	 1.384158	 -0.387345	 2.137061	 -0.593441	 -0.321483	 -0.004791	 0.849915	 -0.326654	 0.413424	 2
1463571620.566	 7	 0.943341	 1.219728	 -0.575309	 2.146545	 -0.602889	 -0.327238	 -0.003115	 0.851016	 -0.331655	 0.407145	 2
1463571620.576	 7	 1.145540	 0.908265	 -0.616203	 2.152253	 -0.613855	 -0.334307	 -0.001846	 0.851165	 -0.337501	 0.402005	 2
1463571620.586	 7	 1.524397	 0.617534	 -0.806584	 2.153638	 -0.627956	 -0.343794	 -0.001035	 0.850117	 -0.345052	 0.397793	 2
1463571620.596	 7	 1.679332	 0.580700	 -0.983061	 2.152753	 -0.645072	 -0.354753	 -0.000742	 0.848295	 -0.354046	 0.393760	 2
1463571620.606	 7	 1.141773	 0.897929	 -1.015927	 2.156703	 -0.660837	 -0.361566	 -0.001023	 0.847509	 -0.361638	 0.388517	 2
1463571620.616	 7	 -0.218039	 1.302723	 -0.746670	 2.171462	 -0.668675	 -0.357342	 -0.002051	 0.849549	 -0.363946	 0.381846	 2
1463571620.626	 7	 -1.112482	 0.875879	 -0.274984	 2.189859	 -0.666346	 -0.344332	 -0.003698	 0.853263	 -0.360576	 0.376714	 2
1463571620.636	 7	 -0.855774	 0.372318	 0.203017	 2.200331	 -0.659980	 -0.334954	 -0.004320	 0.855889	 -0.356274	 0.374839	 2
1463571620.646	 7	 -0.172782	 0.278413	 0.583068	 2.203111	 -0.653918	 -0.335129	 -0.002326	 0.857053	 -0.353863	 0.374480	 2
1463571620.656	 7	 0.365508	 -0.017456	 0.774926	 2.199159	 -0.649427	 -0.343096	 0.001447	 0.856783	 -0.353542	 0.375405	 2
1463571620.666	 7	 0.562775	 -0.754900	 0.804713	 2.186768	 -0.645985	 -0.354476	 0.004942	 0.854778	 -0.354322	 0.379192	 2
1463571620.676	 7	 0.436566	 -1.429407	 0.729195	 2.167798	 -0.642597	 -0.364742	 0.006776	 0.851453	 -0.354985	 0.385962	 2
1463571620.686	 7	 0.295128	 -1.778896	 0.732504	 2.145694	 -0.638332	 -0.373070	 0.007439	 0.847517	 -0.354994	 0.394512	 2
1463571620.696	 7	 0.331623	 -1.784947	 0.792878	 2.122644	 -0.633430	 -0.381491	 0.008138	 0.843334	 -0.354830	 0.403507	 2
1463571620.706	 7	 0.548206	 -1.413782	 0.875444	 2.101092	 -0.628622	 -0.392073	 0.009993	 0.839316	 -0.355202	 0.411437	 2
1463571620.716	 7	 0.737907	 -0.695267	 1.031816	 2.084228	 -0.623558	 -0.405674	 0.014007	 0.836164	 -0.356153	 0.416879	 2
1463571620.726	 7	 0.721662	 0.014393	 1.203755	 2.074198	 -0.616980	 -0.420498	 0.020141	 0.834462	 -0.356800	 0.419477	 2
1463571620.736	 7	 0.529121	 0.308000	 1.279569	 2.068767	 -0.608670	 -0.434352	 0.027153	 0.833783	 -0.356579	 0.420618	 2
1463571620.746	 7	 0.111166	 0.307967	 1.106292	 2.066841	 -0.599484	 -0.443451	 0.033048	 0.833898	 -0.354997	 0.421305	 2
1463571620.756	 7	 -0.173861	 -0.117924	 0.782950	 2.065089	 -0.591330	 -0.447141	 0.036451	 0.834025	 -0.352677	 0.422719	 2
1463571620.766	 7	 -0.271799	 -0.754482	 0.525294	 2.058279	 -0.584942	 -0.447752	 0.037217	 0.832994	 -0.350481	 0.426496	 2
1463571620.776	 7	 -0.445470	 1.091750	 0.281808	 2.063882	 -0.580117	 -0.445794	 0.038671	 0.834540	 -0.348104	 0.425289	 2
1463571620.786	 7	 -1.085539	 2.993216	 -0.306673	 2.095989	 -0.576773	 -0.435327	 0.040721	 0.841711	 -0.343974	 0.414182	 2
1463571620.796	 7	 -1.180770	 3.111311	 -0.780075	 2.136793	 -0.576488	 -0.418894	 0.040816	 0.850370	 -0.339686	 0.399774	 2
1463571620.806	 7	 -1.179044	 2.043218	 -0.957353	 2.169947	 -0.577737	 -0.401206	 0.038556	 0.857158	 -0.336041	 0.388419	 2
1463571620.816	 7	 -1.146178	 0.659208	 -0.979044	 2.190108	 -0.579115	 -0.383008	 0.033775	 0.861262	 -0.332726	 0.382597	 2
1463571620.826	 7	 -0.725378	 -0.962028	 -0.849653	 2.192560	 -0.581348	 -0.368446	 0.027375	 0.861767	 -0.330806	 0.383635	 2
1463571620.836	 7	 0.030089	 -2.274278	 -0.657421	 2.176264	 -0.586108	 -0.361928	 0.020730	 0.858282	 -0.331672	 0.391045	 2
1463571620.846	 7	 0.847012	 -2.719290	 -0.532257	 2.148072	 -0.594329	 -0.364651	 0.015180	 0.851968	 -0.335776	 0.401464	 2
1463571620.856	 7	 1.546853	 -2.380427	 -0.455265	 2.116794	 -0.605681	 -0.375759	 0.011739	 0.844578	 -0.342760	 0.411176	 2
1463571620.866	 7	 2.172414	 -1.719132	 -0.386350	 2.087108	 -0.619342	 -0.394518	 0.010952	 0.837180	 -0.352171	 0.418312	 2
1463571620.876	 7	 2.841336	 -1.130382	 -0.330210	 2.058671	 -0.635221	 -0.421439	 0.012885	 0.829754	 -0.364115	 0.422804	 2
1463571620.886	 7	 3.318918	 -0.633390	 -0.244482	 2.030462	 -0.652300	 -0.455763	 0.017202	 0.822183	 -0.378045	 0.425207	 2
1463571620.896	 7	 3.288392	 -0.148865	 -0.176839	 2.005723	 -0.669811	 -0.492445	 0.022600	 0.815257	 -0.392548	 0.425149	 2
1463571620.906	 7	 2.638265	 -0.129436	 -0.254135	 1.985435	 -0.684446	 -0.524059	 0.027262	 0.809517	 -0.404798	 0.424355	 2
1463571620.916	 7	 1.596925	 -0.759061	 -0.523762	 1.966984	 -0.695901	 -0.543964	 0.028232	 0.804543	 -0.413342	 0.425513	 2
1463571620.926	 7	 0.754921	 -1.400221	 -0.836797	 1.949533	 -0.706525	 -0.551581	 0.024568	 0.800009	 -0.418911	 0.428829	 2
1463571620.936	 7	 0.318509	 -1.848589	 -1.094018	 1.932045	 -0.717590	 -0.551637	 0.017658	 0.795505	 -0.422928	 0.433580	 2
1463571620.946	 7	 0.228768	 -2.093861	 -1.365157	 1.913600	 -0.730563	 -0.548553	 0.008663	 0.790632	 -0.426807	 0.438933	 2
1463571620.956	 7	 0.412709	 -2.054506	 -1.583808	 1.894309	 -0.746220	 -0.546289	 -0.001068	 0.785308	 -0.431627	 0.443833	 2
1463571620.966	 7	 0.730551	 -1.764883	 -1.704311	 1.874881	 -0.764188	 -0.547628	 -0.010219	 0.779729	 -0.437848	 0.447445	 2
1463571620.976	 7	 1.067868	 -1.292578	 -1.706051	 1.856339	 -0.783438	 -0.553830	 -0.017806	 0.774252	 -0.445411	 0.449250	 2
1463571620.986	 7	 1.387264	 -0.806113	 -1.669135	 1.838958	 -0.803142	 -0.565294	 -0.023394	 0.769060	 -0.454143	 0.449170	 2
1463571620.996	 7	 1.589594	 -0.503083	 -1.600934	 1.821876	 -0.822795	 -0.581019	 -0.027435	 0.764030	 -0.463645	 0.447815	 2
1463571621.006	 7	 1.675777	 -0.418560	 -1.497519	 1.803957	 -0.841538	 -0.599480	 -0.030527	 0.758977	 -0.473289	 0.446116	 2
1463571621.016	 7	 1.613491	 -0.365479	 -1.389906	 1.785644	 -0.859019	 -0.618933	 -0.033128	 0.754010	 -0.482592	 0.444383	 2
1463571621.026	 7	 1.438721	 -0.447826	 -1.229286	 1.767438	 -0.874501	 -0.637356	 -0.035630	 0.749257	 -0.490919	 0.443107	 2
1463571621.036	 7	 1.269876	 -0.644945	 -1.052734	 1.748383	 -0.887704	 -0.654373	 -0.038287	 0.744504	 -0.498126	 0.442853	 2
1463571621.046	 7	 1.143569	 -0.834022	 -0.923371	 1.728125	 -0.899041	 -0.670246	 -0.041203	 0.739634	 -0.504420	 0.443626	 2
1463571621.056	 7	 1.089937	 -0.967228	 -0.833553	 1.706525	 -0.909093	 -0.685789	 -0.044293	 0.734582	 -0.510163	 0.445154	 2
1463571621.066	 7	 1.105680	 -1.068986	 -0.779218	 1.683258	 -0.918290	 -0.702017	 -0.047407	 0.729262	 -0.515703	 0.447192	 2
1463571621.076	 7	 1.158536	 -1.207137	 -0.741530	 1.657491	 -0.926892	 -0.719652	 -0.050599	 0.723484	 -0.521256	 0.449780	 2
1463571621.086	 7	 1.182439	 -1.333856	 -0.752509	 1.629372	 -0.935191	 -0.738444	 -0.054044	 0.717256	 -0.526846	 0.452831	 2
1463571621.096	 7	 1.147795	 -1.392650	 -0.807109	 1.600161	 -0.943588	 -0.757471	 -0.057897	 0.710819	 -0.532390	 0.456011	 2
1463571621.106	 7	 1.063337	 -1.344172	 -0.902907	 1.571548	 -0.952516	 -0.775911	 -0.062156	 0.704524	 -0.537838	 0.458816	 2
1463571621.116	 7	 0.899222	 -1.184047	 -1.035339	 1.545631	 -0.962409	 -0.792559	 -0.066817	 0.698817	 -0.543062	 0.460733	 2
1463571621.126	 7	 0.673958	 -0.883194	 -1.146747	 1.524766	 -0.973375	 -0.806146	 -0.071683	 0.694204	 -0.547861	 0.461291	 2
1463571621.136	 7	 0.541999	 -0.525889	 -1.209416	 1.509398	 -0.985028	 -0.817353	 -0.076202	 0.690820	 -0.552340	 0.460306	 2
1463571621.146	 7	 0.532830	 -0.211004	 -1.205340	 1.497271	 -0.996754	 -0.828482	 -0.079943	 0.688232	 -0.556836	 0.458126	 2
1463571621.156	 7	 0.557430	 -0.047700	 -1.116642	 1.486525	 -1.007716	 -0.840362	 -0.082817	 0.686058	 -0.561311	 0.455407	 2
1463571621.166	 7	 0.544853	 -0.077828	 -1.023026	 1.475729	 -1.017622	 -0.852452	 -0.085298	 0.683950	 -0.565539	 0.452882	 2
1463571621.176	 7	 0.489419	 -0.322031	 -0.986448	 1.463295	 -1.026980	 -0.864071	 -0.088252	 0.681509	 -0.569407	 0.451147	 2
1463571621.186	 7	 0.420644	 -0.659960	 -0.973008	 1.448372	 -1.036169	 -0.874721	 -0.092234	 0.678514	 -0.572833	 0.450525	 2
1463571621.196	 7	 0.358321	 -1.002039	 -0.942610	 1.430854	 -1.045135	 -0.884497	 -0.097228	 0.674945	 -0.575814	 0.451037	 2
1463571621.206	 7	 0.240090	 -1.483900	 -0.850145	 1.410229	 -1.053380	 -0.892636	 -0.103462	 0.670638	 -0.578047	 0.453214	 2
1463571621.216	 7	 -0.048989	 -1.988643	 -0.755341	 1.388716	 -1.060991	 -0.895983	 -0.111367	 0.665893	 -0.578926	 0.457195	 2
1463571621.226	 7	 -0.460259	 -2.397157	 -0.640459	 1.369525	 -1.068277	 -0.891527	 -0.121088	 0.661207	 -0.577971	 0.462702	 2
1463571621.236	 7	 -0.920951	 -2.506996	 -0.426449	 1.357194	 -1.074702	 -0.877113	 -0.131775	 0.657407	 -0.574862	 0.469025	 2
1463571621.246	 7	 -1.267007	 -2.395081	 -0.094140	 1.353724	 -1.079043	 -0.853435	 -0.142147	 0.654941	 -0.569729	 0.475662	 2
1463571621.256	 7	 -1.550090	 -2.106351	 0.298949	 1.359598	 -1.080248	 -0.821907	 -0.151248	 0.654022	 -0.562808	 0.482314	 2
1463571621.266	 7	 -1.873285	 -1.507907	 0.703795	 1.377868	 -1.077950	 -0.782161	 -0.158308	 0.655424	 -0.554183	 0.488097	 2
1463571621.276	 7	 -2.156751	 -0.776271	 1.011485	 1.409549	 -1.072378	 -0.735368	 -0.162948	 0.659601	 -0.544238	 0.492117	 2
1463571621.286	 7	 -2.372253	 -0.258278	 1.219611	 1.450362	 -1.063954	 -0.684250	 -0.165836	 0.665837	 -0.533314	 0.494708	 2
1463571621.296	 7	 -2.564637	 0.330700	 1.252344	 1.499018	 -1.053943	 -0.630655	 -0.167376	 0.673993	 -0.521956	 0.495258	 2
1463571621.306	 7	 -2.811541	 0.675194	 1.283278	 1.553515	 -1.042435	 -0.574628	 -0.168304	 0.683607	 -0.509997	 0.494226	 2
1463571621.316	 7	 -3.034889	 1.247362	 1.332112	 1.614488	 -1.028881	 -0.516300	 -0.168423	 0.694908	 -0.497353	 0.491300	 2
1463571621.326	 7	 -2.883519	 2.230655	 1.464638	 1.680321	 -1.012425	 -0.462085	 -0.165822	 0.708137	 -0.485162	 0.485451	 2
1463571621.336	 7	 -2.321481	 3.280768	 1.737022	 1.745426	 -0.992521	 -0.420841	 -0.158580	 0.722727	 -0.474771	 0.476561	 2
1463571621.346	 7	 -1.628666	 3.889010	 2.143771	 1.803338	 -0.968961	 -0.396549	 -0.146523	 0.737405	 -0.466283	 0.466202	 2
1463571621.356	 7	 -1.079885	 4.009849	 2.601593	 1.850947	 -0.941893	 -0.387340	 -0.130777	 0.751149	 -0.458866	 0.456196	 2
1463571621.366	 7	 -0.805305	 3.711200	 3.036582	 1.888264	 -0.911355	 -0.388149	 -0.112959	 0.763457	 -0.451321	 0.447976	 2
1463571621.376	 7	 -0.804177	 3.252773	 3.328589	 1.918093	 -0.877916	 -0.393261	 -0.094600	 0.774437	 -0.442778	 0.441865	 2
1463571621.386	 7	 -0.963416	 2.661591	 3.436379	 1.942115	 -0.842660	 -0.398598	 -0.077129	 0.784082	 -0.432893	 0.438031	 2
1463571621.396	 7	 -1.252110	 2.149281	 3.368048	 1.963043	 -0.806823	 -0.401186	 -0.061444	 0.792748	 -0.421653	 0.435871	 2
1463571621.406	 7	 -1.640492	 1.628026	 3.199255	 1.982188	 -0.770901	 -0.399074	 -0.048199	 0.800682	 -0.408922	 0.435164	 2
1463571621.416	 7	 -1.950518	 1.062190	 2.928117	 1.998848	 -0.735802	 -0.392331	 -0.037789	 0.807729	 -0.395079	 0.435956	 2
1463571621.426	 7	 -2.149618	 0.385371	 2.504708	 2.011556	 -0.703197	 -0.381596	 -0.030686	 0.813492	 -0.380922	 0.438392	 2
1463571621.436	 7	 -2.240215	 -0.346174	 2.058529	 2.018752	 -0.674051	 -0.367657	 -0.027054	 0.817599	 -0.367048	 0.442804	 2
1463571621.446	 7	 -2.201956	 -0.955388	 1.666721	 2.020201	 -0.648562	 -0.352009	 -0.026262	 0.820012	 -0.353932	 0.449024	 2
1463571621.456	 7	 -2.070604	 -1.360019	 1.363399	 2.016947	 -0.626525	 -0.336102	 -0.027364	 0.820989	 -0.341876	 0.456454	 2
1463571621.466	 7	 -1.908910	 -1.532085	 1.168553	 2.010718	 -0.607221	 -0.320884	 -0.029405	 0.820978	 -0.330872	 0.464386	 2
1463571621.476	 7	 -1.751265	 -1.499339	 1.054514	 2.003494	 -0.589889	 -0.306784	 -0.031637	 0.820505	 -0.320777	 0.472095	 2
1463571621.486	 7	 -1.618367	 -1.337358	 1.004774	 1.996709	 -0.573806	 -0.293857	 -0.033605	 0.819977	 -0.311369	 0.479123	 2
1463571621.496	 7	 -1.470584	 -0.979556	 0.976975	 1.992086	 -0.558620	 -0.282359	 -0.034857	 0.819861	 -0.302624	 0.484801	 2
1463571621.506	 7	 -1.251842	 -0.488139	 0.922106	 1.990906	 -0.544712	 -0.272779	 -0.035138	 0.820477	 -0.294853	 0.488513	 2
1463571621.516	 7	 -0.947217	 0.127327	 0.848445	 1.994109	 -0.532594	 -0.266000	 -0.034128	 0.822058	 -0.288510	 0.489713	 2
1463571621.526	 7	 -0.617526	 0.640496	 0.758695	 2.001153	 -0.522585	 -0.262385	 -0.031871	 0.824464	 -0.283808	 0.488566	 2
1463571621.536	 7	 -0.347471	 0.958103	 0.664446	 2.010527	 -0.514636	 -0.261443	 -0.028777	 0.827315	 -0.280582	 0.485794	 2
1463571621.546	 7	 -0.148450	 1.141961	 0.578097	 2.021077	 -0.508381	 -0.262365	 -0.025232	 0.830333	 -0.278466	 0.482046	 2
1463571621.556	 7	 0.045037	 1.265368	 0.513615	 2.032196	 -0.503637	 -0.264985	 -0.021327	 0.833370	 -0.277333	 0.477625	 2
1463571621.566	 7	 0.209367	 1.289116	 0.481498	 2.043025	 -0.500046	 -0.269225	 -0.017101	 0.836240	 -0.277008	 0.472946	 2
1463571621.576	 7	 0.324324	 1.261878	 0.438679	 2.053160	 -0.497417	 -0.274617	 -0.012745	 0.838849	 -0.277297	 0.468269	 2
1463571621.586	 7	 0.392011	 1.203625	 0.353352	 2.062602	 -0.495848	 -0.280409	 -0.008591	 0.841189	 -0.278065	 0.463688	 2
1463571621.596	 7	 0.445468	 1.107862	 0.223039	 2.071235	 -0.495630	 -0.286124	 -0.004924	 0.843216	 -0.279325	 0.459282	 2
1463571621.606	 7	 0.515693	 0.977747	 0.056023	 2.078723	 -0.497149	 -0.291572	 -0.001969	 0.844832	 -0.281197	 0.455174	 2
1463571621.616	 7	 0.622188	 0.848556	 -0.115562	 2.084906	 -0.500679	 -0.297067	 0.000317	 0.845990	 -0.283873	 0.451349	 2
1463571621.626	 7	 0.758473	 0.718057	 -0.308735	 2.089669	 -0.506501	 -0.302768	 0.001914	 0.846650	 -0.287506	 0.447795	 2
1463571621.636	 7	 0.933015	 0.573446	 -0.525818	 2.092799	 -0.514975	 -0.308902	 0.002791	 0.846739	 -0.292295	 0.444510	 2
1463571621.646	 7	 1.153189	 0.419802	 -0.796672	 2.093833	 -0.526753	 -0.315679	 0.002795	 0.846104	 -0.298543	 0.441556	 2
1463571621.656	 7	 1.396845	 0.495805	 -1.070921	 2.094627	 -0.542109	 -0.323261	 0.002186	 0.845125	 -0.306380	 0.438052	 2
1463571621.666	 7	 1.638608	 0.602830	 -1.321418	 2.095859	 -0.560972	 -0.331999	 0.001231	 0.843931	 -0.315830	 0.433625	 2
1463571621.676	 7	 1.474151	 0.671649	 -1.431251	 2.098389	 -0.581004	 -0.339460	 -0.000352	 0.842865	 -0.325415	 0.428583	 2
1463571621.686	 7	 0.863990	 0.866707	 -1.327139	 2.104839	 -0.598014	 -0.342025	 -0.002559	 0.842813	 -0.332718	 0.423035	 2
1463571621.696	 7	 -0.233085	 1.743190	 -1.028070	 2.123849	 -0.607863	 -0.335492	 -0.004634	 0.845917	 -0.335299	 0.414702	 2
1463571621.706	 7	 -0.721640	 1.432866	 -0.604662	 2.146292	 -0.610307	 -0.324071	 -0.006329	 0.850270	 -0.333994	 0.406754	 2
1463571621.716	 7	 -0.474952	 0.668292	 -0.189751	 2.159174	 -0.609666	 -0.316350	 -0.007315	 0.852911	 -0.332217	 0.402643	 2
1463571621.726	 7	 -0.104001	 0.265728	 0.181619	 2.163348	 -0.607814	 -0.315087	 -0.006712	 0.853922	 -0.331228	 0.401323	 2
1463571621.736	 7	 0.084460	 -0.031913	 0.427662	 2.162088	 -0.605003	 -0.318151	 -0.004932	 0.853944	 -0.330702	 0.401735	 2
1463571621.746	 7	 0.067114	 -0.389656	 0.516140	 2.156685	 -0.601245	 -0.322371	 -0.003109	 0.853215	 -0.330021	 0.403856	 2
1463571621.756	 7	 -0.013239	 -0.713553	 0.553259	 2.148262	 -0.596771	 -0.326041	 -0.001837	 0.851921	 -0.328949	 0.407455	 2
1463571621.766	 7	 -0.051737	 -1.027653	 0.638064	 2.136814	 -0.591317	 -0.329569	 -0.000868	 0.850064	 -0.327469	 0.412498	 2
1463571621.776	 7	 0.087517	 -1.178788	 0.680207	 2.122523	 -0.585828	 -0.334294	 0.000172	 0.847572	 -0.326246	 0.418551	 2
1463571621.786	 7	 0.360321	 -0.780987	 0.645298	 2.109470	 -0.581704	 -0.341328	 0.002062	 0.845167	 -0.326086	 0.423504	 2
1463571621.796	 7	 0.464272	 -0.274684	 0.690669	 2.100894	 -0.578312	 -0.350129	 0.005244	 0.843606	 -0.326622	 0.426168	 2
1463571621.806	 7	 0.299929	 -0.237466	 0.916256	 2.094111	 -0.572703	 -0.358821	 0.009242	 0.842568	 -0.326279	 0.428410	 2
1463571621.816	 7	 -0.012282	 -0.698281	 1.045775	 2.084641	 -0.564155	 -0.365764	 0.012838	 0.841140	 -0.324445	 0.432498	 2
1463571621.826	 7	 -0.515021	 -1.006675	 0.850116	 2.074432	 -0.554269	 -0.367003	 0.014291	 0.839628	 -0.320881	 0.438014	 2
1463571621.836	 7	 -0.628006	 -0.955311	 0.554231	 2.066298	 -0.545689	 -0.363903	 0.013948	 0.838460	 -0.316872	 0.443150	 2
1463571621.846	 7	 0.061072	 -0.669136	 0.401687	 2.058115	 -0.541163	 -0.364580	 0.014134	 0.836944	 -0.315298	 0.447116	 2
1463571621.856	 7	 0.715191	 0.938917	 0.355536	 2.058143	 -0.540778	 -0.373039	 0.017781	 0.836908	 -0.317034	 0.445823	 2
1463571621.866	 7	 0.254520	 2.855709	 0.045931	 2.080102	 -0.541455	 -0.378070	 0.023201	 0.841651	 -0.318185	 0.435711	 2
1463571621.876	 7	 -0.384825	 2.760708	 -0.405533	 2.111506	 -0.542868	 -0.373965	 0.026093	 0.848345	 -0.317479	 0.422892	 2
1463571621.886	 7	 -0.885849	 1.090171	 -0.700208	 2.133021	 -0.544191	 -0.362408	 0.024247	 0.852904	 -0.315317	 0.415382	 2
1463571621.896	 7	 -1.082017	 -0.718986	 -0.919961	 2.138468	 -0.545851	 -0.346491	 0.017895	 0.854078	 -0.312624	 0.415327	 2
1463571621.906	 7	 -0.868742	 -2.260370	 -1.009699	 2.127639	 -0.549243	 -0.330921	 0.008722	 0.851652	 -0.310809	 0.421913	 2
1463571621.926	 8	 0.057986	 -3.626897	 -0.897274	 2.067157	 -0.565932	 -0.314937	 -0.011744	 0.837169	 -0.313967	 0.447700	 2
1463571621.936	 8	 0.575659	 -3.236352	 -0.805441	 2.031206	 -0.579012	 -0.316257	 -0.020351	 0.827969	 -0.319122	 0.460667	 2
1463571621.946	 8	 1.192199	 -2.470757	 -0.727015	 1.995856	 -0.603587	 -0.326157	 -0.028706	 0.817882	 -0.330493	 0.470127	 2
1463571621.956	 8	 1.849251	 -1.669374	 -0.687977	 1.968328	 -0.616661	 -0.341658	 -0.030642	 0.810543	 -0.338719	 0.476813	 2
1463571621.966	 8	 2.414339	 -1.057701	 -0.739428	 1.943061	 -0.631908	 -0.364388	 -0.030149	 0.803640	 -0.349471	 0.480754	 2
1463571621.976	 8	 2.749031	 -0.604206	 -0.842567	 1.919392	 -0.649001	 -0.392167	 -0.028192	 0.797039	 -0.362080	 0.482527	 2
1463571621.986	 8	 2.610351	 -0.474003	 -0.984026	 1.897496	 -0.666790	 -0.420161	 -0.026353	 0.790820	 -0.374932	 0.483048	 2
1463571621.996	 8	 2.026440	 -0.779116	 -1.200262	 1.876862	 -0.684476	 -0.442255	 -0.026867	 0.784855	 -0.386229	 0.483846	 2
1463571622.006	 8	 1.323233	 -1.261508	 -1.417109	 1.856887	 -0.701912	 -0.455700	 -0.030800	 0.778972	 -0.395233	 0.485844	 2
1463571622.016	 8	 0.732513	 -1.698096	 -1.579090	 1.837384	 -0.719126	 -0.461144	 -0.037857	 0.773092	 -0.402084	 0.489106	 2
1463571622.026	 8	 0.397799	 -2.000838	 -1.661057	 1.817754	 -0.736216	 -0.461560	 -0.046969	 0.767050	 -0.407501	 0.493326	 2
1463571622.036	 8	 0.331198	 -2.075251	 -1.682485	 1.797672	 -0.753322	 -0.460591	 -0.056811	 0.760795	 -0.412394	 0.497891	 2
1463571622.046	 8	 0.473033	 -1.890425	 -1.658553	 1.777596	 -0.770513	 -0.461414	 -0.066101	 0.754518	 -0.417580	 0.501956	 2
1463571622.056	 8	 0.733037	 -1.568498	 -1.601336	 1.757774	 -0.787683	 -0.466083	 -0.073996	 0.748396	 -0.423563	 0.504998	 2
1463571622.066	 8	 1.063576	 -1.243430	 -1.522322	 1.737541	 -0.804610	 -0.475989	 -0.080081	 0.742381	 -0.430616	 0.506979	 2
1463571622.076	 8	 1.352257	 -1.050483	 -1.346124	 1.715479	 -0.820362	 -0.491346	 -0.084330	 0.736241	 -0.438461	 0.508517	 2
1463571622.086	 8	 1.483233	 -1.023085	 -1.181816	 1.691303	 -0.834382	 -0.510350	 -0.087335	 0.729893	 -0.446483	 0.510179	 2
1463571622.096	 8	 1.466028	 -1.151921	 -1.061368	 1.665056	 -0.846798	 -0.530645	 -0.090016	 0.723235	 -0.454147	 0.512424	 2
1463571622.106	 8	 1.339582	 -1.344413	 -0.962943	 1.637349	 -0.857735	 -0.550262	 -0.092993	 0.716313	 -0.461038	 0.515453	 2
1463571622.116	 8	 1.188518	 -1.533802	 -0.886655	 1.608737	 -0.867404	 -0.568335	 -0.096502	 0.709193	 -0.467036	 0.519240	 2
1463571622.136	 9	 1.025254	 -1.837878	 -0.790013	 1.548613	 -0.884021	 -0.601524	 -0.104844	 0.694245	 -0.477106	 0.528585	 2
1463571622.146	 9	 1.017419	 -1.942912	 -0.756817	 1.516607	 -0.891277	 -0.618072	 -0.109380	 0.686307	 -0.481618	 0.533912	 2
1463571622.156	 9	 1.050170	 -2.064877	 -0.695358	 1.482722	 -0.897654	 -0.635477	 -0.113932	 0.677938	 -0.485951	 0.539695	 2
1463571622.166	 9	 1.076336	 -2.224059	 -0.635252	 1.446598	 -0.902975	 -0.653728	 -0.118535	 0.669023	 -0.490053	 0.546082	 2
1463571622.176	 9	 1.056306	 -2.426899	 -0.600730	 1.408351	 -0.907458	 -0.672214	 -0.123452	 0.659520	 -0.493826	 0.553109	 2
1463571622.186	 9	 0.932324	 -2.671353	 -0.626437	 1.368530	 -0.911795	 -0.689549	 -0.129259	 0.649451	 -0.497068	 0.560740	 2
1463571622.196	 9	 0.709796	 -2.760291	 -0.660498	 1.329367	 -0.916452	 -0.704245	 -0.136035	 0.639323	 -0.499572	 0.568496	 2
1463571622.206	 9	 0.422561	 -2.538479	 -0.696432	 1.294675	 -0.921843	 -0.715020	 -0.143345	 0.630136	 -0.501283	 0.575410	 2
1463571622.216	 9	 0.197391	 -2.071019	 -0.713568	 1.266837	 -0.927958	 -0.722346	 -0.150377	 0.622636	 -0.502502	 0.580691	 2
1463571622.226	 9	 0.146949	 -1.480331	 -0.680988	 1.245818	 -0.934090	 -0.728227	 -0.156201	 0.616997	 -0.503714	 0.584113	 2
1463571622.236	 9	 0.337278	 -0.958579	 -0.670330	 1.228368	 -0.939480	 -0.736408	 -0.160171	 0.612582	 -0.505675	 0.585988	 2
1463571622.246	 9	 0.633051	 -0.629256	 -0.751904	 1.210794	 -0.944430	 -0.749521	 -0.162544	 0.608544	 -0.508944	 0.586710	 2
1463571622.256	 9	 0.900015	 -0.563291	 -0.787719	 1.190329	 -0.948689	 -0.767758	 -0.163902	 0.604097	 -0.513323	 0.587114	 2
1463571622.266	 9	 1.069624	 -0.598715	 -0.763948	 1.166977	 -0.951868	 -0.789226	 -0.164707	 0.599073	 -0.518208	 0.587744	 2
1463571622.276	 9	 1.172751	 -0.730479	 -0.705323	 1.141229	 -0.953861	 -0.812459	 -0.165265	 0.593476	 -0.523214	 0.588830	 2
1463571622.286	 9	 1.096954	 -1.112919	 -0.525977	 1.113242	 -0.954206	 -0.834482	 -0.166252	 0.587057	 -0.527440	 0.591212	 2
1463571622.296	 9	 0.591869	 -1.657013	 -0.225031	 1.086684	 -0.953569	 -0.848419	 -0.168949	 0.580317	 -0.529265	 0.595455	 2
1463571622.306	 9	 -0.159866	 -2.019427	 0.095739	 1.067054	 -0.953266	 -0.848553	 -0.173977	 0.574441	 -0.527584	 0.601169	 2
1463571622.316	 9	 -0.554811	 -2.020719	 0.344291	 1.054568	 -0.953197	 -0.838891	 -0.179995	 0.569810	 -0.523551	 0.607299	 2
1463571622.326	 9	 -0.605788	 -1.761059	 0.635973	 1.047480	 -0.951331	 -0.825002	 -0.185043	 0.566286	 -0.518435	 0.613437	 2
1463571622.336	 9	 -0.604026	 -1.374202	 0.888945	 1.045782	 -0.947137	 -0.808975	 -0.188337	 0.564065	 -0.512812	 0.619180	 2
1463571622.346	 9	 -0.786216	 -1.106687	 1.183974	 1.050446	 -0.941210	 -0.788839	 -0.190456	 0.563341	 -0.506229	 0.624584	 2
1463571622.356	 9	 -1.102400	 -0.798913	 1.549819	 1.063611	 -0.933720	 -0.761748	 -0.191797	 0.564579	 -0.497985	 0.629663	 2
1463571622.366	 9	 -1.300369	 -0.403342	 1.750258	 1.084251	 -0.924621	 -0.729645	 -0.192159	 0.567717	 -0.488523	 0.634127	 2
1463571622.376	 9	 -1.525905	 -0.098937	 1.834986	 1.110627	 -0.915167	 -0.694539	 -0.192021	 0.572498	 -0.478449	 0.637543	 2
1463571622.386	 9	 -1.712709	 0.123846	 1.826962	 1.141007	 -0.905786	 -0.656934	 -0.191928	 0.578450	 -0.467810	 0.640089	 2
1463571622.396	 9	 -1.704932	 0.300483	 1.694252	 1.172316	 -0.896790	 -0.620387	 -0.191759	 0.584930	 -0.457514	 0.641690	 2
1463571622.406	 9	 -1.841408	 0.427814	 1.304425	 1.203515	 -0.890456	 -0.585476	 -0.192477	 0.591618	 -0.448117	 0.641975	 2
1463571622.416	 9	 -2.039858	 0.392792	 1.088411	 1.235598	 -0.886846	 -0.549552	 -0.194643	 0.598487	 -0.438979	 0.641268	 2
1463571622.426	 9	 -2.051105	 0.266294	 1.093727	 1.266528	 -0.883015	 -0.513247	 -0.197369	 0.604938	 -0.429570	 0.640753	 2
1463571622.436	 9	 -1.680912	 0.243742	 1.359932	 1.294276	 -0.875997	 -0.480299	 -0.198801	 0.610806	 -0.420216	 0.640947	 2
1463571622.446	 9	 -0.798218	 0.603655	 1.773374	 1.316135	 -0.862580	 -0.457951	 -0.196006	 0.616156	 -0.412134	 0.641934	 2
1463571622.456	 9	 0.132606	 1.571723	 2.027929	 1.335580	 -0.843608	 -0.449391	 -0.187500	 0.622399	 -0.406767	 0.641875	 2
1463571622.466	 9	 0.567381	 2.703969	 2.134861	 1.359674	 -0.821936	 -0.449726	 -0.174354	 0.631084	 -0.403790	 0.638974	 2
1463571622.476	 9	 0.476760	 3.536759	 2.242515	 1.392315	 -0.799170	 -0.450846	 -0.158915	 0.642533	 -0.401165	 0.633218	 2
1463571622.486	 9	 0.292063	 4.170396	 2.276664	 1.432760	 -0.776180	 -0.450395	 -0.142467	 0.656208	 -0.398105	 0.624986	 2
1463571622.496	 9	 0.193899	 4.662818	 2.233076	 1.478722	 -0.753613	 -0.449833	 -0.125297	 0.671399	 -0.394920	 0.614461	 2
1463571622.506	 9	 0.080601	 4.519617	 2.092072	 1.525179	 -0.732217	 -0.449319	 -0.108643	 0.686469	 -0.391482	 0.603074	 2
1463571622.516	 9	 -0.110810	 4.186597	 1.852974	 1.568597	 -0.713107	 -0.447976	 -0.093890	 0.700252	 -0.387728	 0.592029	 2
1463571622.526	 9	 -0.338004	 3.688151	 1.668069	 1.609138	 -0.695972	 -0.444669	 -0.081281	 0.712813	 -0.383397	 0.581634	 2
1463571622.536	 9	 -0.550481	 3.041628	 1.603154	 1.644417	 -0.679627	 -0.439408	 -0.070856	 0.723592	 -0.378180	 0.573039	 2
1463571622.546	 9	 -0.717311	 2.453413	 1.676934	 1.674605	 -0.662539	 -0.432638	 -0.061895	 0.732816	 -0.371853	 0.566459	 2
1463571622.556	 9	 -0.798323	 1.921641	 1.795254	 1.699472	 -0.644101	 -0.425414	 -0.053835	 0.740545	 -0.364580	 0.561940	 2
1463571622.566	 9	 -0.775006	 1.543944	 1.935414	 1.719562	 -0.624204	 -0.419014	 -0.046035	 0.747004	 -0.356742	 0.559108	 2
1463571622.576	 9	 -0.704355	 1.245883	 2.075903	 1.735562	 -0.602919	 -0.414180	 -0.038072	 0.752397	 -0.348613	 0.557600	 2
1463571622.586	 9	 -0.586109	 0.800329	 2.283880	 1.746332	 -0.579937	 -0.411351	 -0.029826	 0.756407	 -0.340223	 0.557860	 2
1463571622.596	 9	 -0.422503	 0.535942	 2.412150	 1.752431	 -0.555607	 -0.410967	 -0.021082	 0.759137	 -0.331867	 0.559582	 2
1463571622.606	 9	 -0.246201	 0.391530	 2.369838	 1.755768	 -0.531572	 -0.412701	 -0.012123	 0.761001	 -0.324090	 0.561868	 2
1463571622.616	 9	 0.018092	 0.383939	 2.016830	 1.757536	 -0.510466	 -0.416634	 -0.003540	 0.762221	 -0.317881	 0.563877	 2
1463571622.626	 9	 0.205746	 0.134738	 1.462944	 1.757224	 -0.495196	 -0.421912	 0.003342	 0.762582	 -0.314054	 0.565533	 2
1463571622.636	 9	 0.380358	 -0.145603	 1.156139	 1.753453	 -0.483811	 -0.428152	 0.008804	 0.761788	 -0.311867	 0.567751	 2
1463571622.646	 9	 0.579599	 -0.299497	 0.988845	 1.747190	 -0.474660	 -0.436061	 0.013799	 0.760164	 -0.310969	 0.570314	 2
1463571622.656	 9	 0.862157	 -0.312361	 0.942568	 1.738996	 -0.466725	 -0.446501	 0.019064	 0.757884	 -0.311269	 0.573027	 2
1463571622.676	 10	 1.243151	 -0.063877	 1.187754	 1.724172	 -0.449136	 -0.476365	 0.033782	 0.753439	 -0.313995	 0.576711	 2
1463571622.686	 10	 1.063764	 -0.157389	 1.273707	 1.716595	 -0.438375	 -0.490782	 0.041552	 0.751030	 -0.314626	 0.578998	 2
1463571622.696	 10	 0.663689	 -0.178157	 1.328154	 1.710479	 -0.426527	 -0.501269	 0.048434	 0.749020	 -0.313771	 0.581524	 2
1463571622.706	 10	 0.148839	 -0.151493	 1.716559	 1.706731	 -0.411098	 -0.506765	 0.055006	 0.747721	 -0.310222	 0.584508	 2
1463571622.716	 10	 -0.315109	 -0.216249	 2.132446	 1.704606	 -0.390536	 -0.507464	 0.061744	 0.746907	 -0.303481	 0.588401	 2
1463571622.726	 10	 -0.612766	 -0.478679	 2.197607	 1.701385	 -0.368010	 -0.504760	 0.067708	 0.745765	 -0.295081	 0.593445	 2
1463571622.736	 10	 -0.776273	 -0.631348	 2.052667	 1.697248	 -0.346294	 -0.499737	 0.072430	 0.744358	 -0.286271	 0.598944	 2
1463571622.746	 10	 -0.797570	 -1.169534	 1.897571	 1.689216	 -0.326082	 -0.493836	 0.075814	 0.741762	 -0.277833	 0.605681	 2
1463571622.756	 10	 -0.806596	 -1.991161	 1.675786	 1.673231	 -0.307959	 -0.487521	 0.077338	 0.736710	 -0.270283	 0.615000	 2
1463571622.766	 10	 -0.925781	 -2.758066	 1.328644	 1.649932	 -0.292948	 -0.479619	 0.076389	 0.729388	 -0.263586	 0.626642	 2
1463571622.776	 10	 -1.088761	 -3.614380	 0.808397	 1.618900	 -0.282809	 -0.469331	 0.072077	 0.719647	 -0.258039	 0.640569	 2
1463571622.786	 10	 -1.186743	 -4.441538	 0.228173	 1.579814	 -0.278787	 -0.457365	 0.064199	 0.707257	 -0.254145	 0.656564	 2
1463571622.796	 10	 -1.343539	 -5.183499	 -0.214328	 1.533473	 -0.280056	 -0.443851	 0.053163	 0.692274	 -0.251424	 0.674327	 2
1463571622.806	 10	 -1.550903	 -5.791254	 -0.650878	 1.481228	 -0.286384	 -0.428717	 0.039150	 0.674955	 -0.249477	 0.693299	 2
1463571622.816	 10	 -1.875186	 -6.291311	 -1.097130	 1.424552	 -0.298327	 -0.411421	 0.021907	 0.655650	 -0.247963	 0.712852	 2
1463571622.826	 10	 -2.310240	 -6.877122	 -1.386549	 1.363486	 -0.315259	 -0.391212	 0.001393	 0.634157	 -0.246078	 0.732999	 2
1463571622.836	 10	 -2.755313	 -7.719900	 -1.474712	 1.296102	 -0.335772	 -0.367737	 -0.022162	 0.609472	 -0.242883	 0.754361	 2
1463571622.846	 10	 -3.017553	 -8.823925	 -1.433677	 1.218967	 -0.358660	 -0.342496	 -0.048127	 0.579949	 -0.238101	 0.777593	 2
1463571622.856	 10	 -3.304700	 -8.768565	 -1.249482	 1.139152	 -0.383027	 -0.316157	 -0.074955	 0.548049	 -0.231513	 0.800266	 2
1463571622.866	 10	 -4.056859	 -6.209864	 -1.014497	 1.083604	 -0.409973	 -0.283516	 -0.101319	 0.524460	 -0.222431	 0.815598	 2
1463571622.876	 10	 -4.142215	 -5.106555	 -0.708271	 1.044759	 -0.437129	 -0.247863	 -0.126260	 0.506567	 -0.211936	 0.826155	 2
1463571622.886	 10	 -3.704769	 -4.126245	 -0.285179	 1.016065	 -0.460194	 -0.213493	 -0.147670	 0.492173	 -0.200950	 0.834013	 2
1463571622.896	 10	 -2.822522	 -3.453075	 -0.088365	 0.992865	 -0.477700	 -0.185259	 -0.164330	 0.480028	 -0.191223	 0.840239	 2
1463571622.906	 10	 -1.769935	 -3.095210	 0.111493	 0.970025	 -0.488500	 -0.165832	 -0.175736	 0.468546	 -0.183452	 0.846125	 2
1463571622.916	 10	 -1.020213	 -2.542221	 0.402130	 0.949184	 -0.492611	 -0.152827	 -0.182410	 0.458447	 -0.176949	 0.851612	 2
1463571622.926	 10	 -0.774615	 -1.737892	 0.827386	 0.935408	 -0.491602	 -0.140687	 -0.185929	 0.451472	 -0.170284	 0.855925	 2
1463571622.936	 10	 -0.866906	 -0.893881	 1.308176	 0.931779	 -0.486974	 -0.125098	 -0.187721	 0.448579	 -0.162288	 0.858604	 2
1463571622.946	 10	 -1.037601	 -0.376215	 1.782349	 0.936416	 -0.479572	 -0.104902	 -0.188661	 0.448884	 -0.152477	 0.860035	 2
1463571622.956	 10	 -1.134557	 -0.277923	 2.243452	 0.944688	 -0.468882	 -0.080607	 -0.188865	 0.450505	 -0.140504	 0.861182	 2
1463571622.966	 10	 -1.124488	 -0.428957	 2.540372	 0.952673	 -0.455389	 -0.054220	 -0.188422	 0.451966	 -0.126934	 0.862619	 2
1463571622.976	 10	 -1.015024	 -0.777032	 2.839922	 0.957615	 -0.438887	 -0.027049	 -0.187107	 0.452245	 -0.111999	 0.864825	 2
1463571622.986	 10	 -0.828085	 -1.192544	 3.111526	 0.958078	 -0.418974	 0.000156	 -0.184585	 0.450835	 -0.095786	 0.868044	 2
1463571622.996	 10	 -0.572629	 -1.618232	 3.181010	 0.953148	 -0.396721	 0.025843	 -0.180900	 0.447442	 -0.079136	 0.872243	 2
1463571623.006	 10	 -0.213163	 -2.037885	 3.098306	 0.942210	 -0.373169	 0.048183	 -0.175992	 0.441882	 -0.063078	 0.877376	 2
1463571623.016	 10	 0.168201	 -2.318454	 2.990062	 0.926100	 -0.348420	 0.066718	 -0.169664	 0.434501	 -0.047991	 0.883244	 2
1463571623.026	 10	 0.490956	 -2.293065	 2.808439	 0.907839	 -0.323229	 0.081636	 -0.162157	 0.426516	 -0.034304	 0.889164	 2
1463571623.036	 10	 0.779182	 -1.954370	 2.696111	 0.890907	 -0.297573	 0.093575	 -0.153555	 0.419384	 -0.022061	 0.894456	 2
1463571623.046	 10	 1.058342	 -1.359653	 2.684294	 0.878442	 -0.270544	 0.103313	 -0.143652	 0.414486	 -0.010965	 0.898580	 2
1463571623.056	 10	 1.280559	 -0.672839	 2.735643	 0.872080	 -0.241801	 0.111563	 -0.132527	 0.412523	 -0.000692	 0.901255	 2
1463571623.066	 10	 1.393745	 -0.083048	 2.857380	 0.871682	 -0.211360	 0.119432	 -0.120507	 0.413362	 0.009347	 0.902509	 2
1463571623.076	 10	 1.418139	 0.210467	 3.008040	 0.874892	 -0.179507	 0.127803	 -0.107970	 0.415876	 0.019718	 0.902774	 2
1463571623.086	 10	 1.387453	 0.139327	 3.158983	 0.878223	 -0.146577	 0.137154	 -0.095174	 0.418456	 0.030800	 0.902711	 2
1463571623.096	 10	 1.360251	 -0.298987	 3.279836	 0.877885	 -0.112845	 0.147522	 -0.082177	 0.419391	 0.042701	 0.903070	 2
1463571623.106	 10	 1.450653	 -1.022678	 3.256328	 0.870581	 -0.078606	 0.157666	 -0.068700	 0.417234	 0.054835	 0.904538	 2
1463571623.116	 10	 1.613835	 -1.782933	 3.060258	 0.855084	 -0.044711	 0.165976	 -0.054633	 0.411419	 0.066176	 0.907398	 2
1463571623.126	 10	 1.797066	 -2.415181	 2.923823	 0.832534	 -0.011048	 0.172499	 -0.039865	 0.402404	 0.076560	 0.911384	 2
1463571623.136	 10	 2.018677	 -2.671499	 2.868351	 0.806168	 0.023385	 0.177837	 -0.024118	 0.391636	 0.086247	 0.915752	 2
1463571623.146	 10	 2.220925	 -2.577236	 2.895177	 0.779806	 0.059175	 0.182601	 -0.007391	 0.380845	 0.095491	 0.919665	 2
1463571623.156	 10	 2.404717	 -2.248510	 2.832690	 0.756122	 0.095991	 0.186806	 0.010007	 0.371246	 0.104213	 0.922614	 2
1463571623.166	 10	 2.498641	 -2.204473	 2.783257	 0.734001	 0.133111	 0.190325	 0.027778	 0.362302	 0.112251	 0.924860	 2
1463571623.176	 10	 2.416144	 -2.294453	 2.808717	 0.710447	 0.170045	 0.195348	 0.045444	 0.352656	 0.120495	 0.926849	 2
1463571623.186	 10	 2.377408	 -2.159942	 2.568377	 0.687545	 0.205210	 0.200368	 0.062416	 0.343232	 0.128017	 0.928390	 2
1463571623.196	 10	 2.443397	 -2.291038	 2.410982	 0.664268	 0.239371	 0.204258	 0.079282	 0.333549	 0.134419	 0.929726	 2
1463571623.206	 10	 2.450075	 -2.466488	 2.419949	 0.638863	 0.273508	 0.208730	 0.096319	 0.322886	 0.140560	 0.930973	 2
1463571623.216	 10	 2.397427	 -2.569268	 2.452489	 0.611712	 0.307356	 0.214657	 0.113254	 0.311486	 0.146774	 0.931991	 2
1463571623.226	 10	 2.262951	 -2.721799	 2.631289	 0.582013	 0.340891	 0.223525	 0.129940	 0.299118	 0.153656	 0.932756	 2
1463571623.236	 10	 2.111480	 -2.746542	 2.678205	 0.550369	 0.373404	 0.235384	 0.146048	 0.286131	 0.161127	 0.933187	 2
1463571623.246	 10	 2.018565	 -2.972944	 2.660921	 0.516570	 0.404410	 0.248791	 0.161622	 0.272377	 0.168416	 0.933448	 2
1463571623.256	 10	 1.941463	 -3.259853	 2.666383	 0.478051	 0.434397	 0.264276	 0.177082	 0.256763	 0.175575	 0.933749	 2
1463571623.276	 11	 1.660947	 -3.075278	 2.485100	 0.398334	 0.488383	 0.299249	 0.205726	 0.225166	 0.189086	 0.933394	 2
1463571623.286	 11	 1.538154	 -2.946394	 2.314715	 0.359790	 0.511665	 0.317634	 0.218458	 0.210299	 0.195242	 0.932701	 2
1463571623.296	 11	 1.465083	 -2.844809	 2.066908	 0.322390	 0.532735	 0.335122	 0.230354	 0.196001	 0.200466	 0.931844	 2
1463571623.306	 11	 1.427985	 -2.802943	 1.811838	 0.286072	 0.552046	 0.350951	 0.241662	 0.182138	 0.204505	 0.930915	 2
1463571623.316	 11	 1.411143	 -2.792809	 1.589334	 0.250520	 0.570024	 0.365228	 0.252555	 0.168560	 0.207453	 0.929929	 2
1463571623.326	 11	 1.473192	 -2.845267	 1.420981	 0.215202	 0.587509	 0.378186	 0.263420	 0.155072	 0.209417	 0.928820	 2
1463571623.336	 11	 1.626867	 -2.967861	 1.298072	 0.179139	 0.605645	 0.390156	 0.274836	 0.141335	 0.210450	 0.927470	 2
1463571623.346	 11	 1.821106	 -3.119025	 1.211844	 0.141683	 0.625091	 0.401590	 0.287115	 0.127173	 0.210637	 0.925756	 2
1463571623.356	 11	 2.004632	 -3.051070	 1.123486	 0.104232	 0.645995	 0.412723	 0.300132	 0.113300	 0.210224	 0.923520	 2
1463571623.366	 11	 2.039505	 -2.829468	 1.042115	 0.068559	 0.667232	 0.423836	 0.313137	 0.100495	 0.209594	 0.920824	 2
1463571623.376	 11	 1.924500	 -2.534647	 1.023479	 0.035033	 0.687333	 0.435643	 0.325366	 0.088905	 0.209198	 0.917861	 2
1463571623.386	 11	 1.762070	 -2.165840	 1.067758	 0.003901	 0.705539	 0.448919	 0.336423	 0.078685	 0.209529	 0.914727	 2
1463571623.396	 11	 1.678661	 -1.800337	 1.128371	 -0.024796	 0.722346	 0.463901	 0.346548	 0.069938	 0.210765	 0.911368	 2
1463571623.406	 11	 1.666369	 -1.500064	 1.169639	 -0.051430	 0.738546	 0.480343	 0.356166	 0.062537	 0.212747	 0.907730	 2
1463571623.416	 11	 1.714035	 -1.312268	 1.125144	 -0.076497	 0.754773	 0.497349	 0.365645	 0.056172	 0.214975	 0.903844	 2
1463571623.426	 11	 1.781282	 -1.210151	 1.007209	 -0.100209	 0.771432	 0.513832	 0.375209	 0.050597	 0.216911	 0.899782	 2
1463571623.436	 11	 1.815031	 -1.169852	 0.858084	 -0.122776	 0.788413	 0.529184	 0.384825	 0.045580	 0.218260	 0.895653	 2
1463571623.446	 11	 1.796234	 -1.164659	 0.686708	 -0.144300	 0.805321	 0.542989	 0.394317	 0.040921	 0.218868	 0.891592	 2
1463571623.456	 11	 1.720958	 -1.132790	 0.504349	 -0.164315	 0.821708	 0.554783	 0.403433	 0.036644	 0.218688	 0.887736	 2
1463571623.466	 11	 1.567280	 -1.013193	 0.360790	 -0.182058	 0.836898	 0.564617	 0.411781	 0.032956	 0.218009	 0.884207	 2
1463571623.476	 11	 1.332199	 -0.791785	 0.290294	 -0.196888	 0.850030	 0.573045	 0.418915	 0.030079	 0.217354	 0.881114	 2
1463571623.486	 11	 1.076011	 -0.556176	 0.262744	 -0.208676	 0.860637	 0.580576	 0.424626	 0.028060	 0.217090	 0.878509	 2
1463571623.496	 11	 0.836223	 -0.452598	 0.222099	 -0.218263	 0.868892	 0.587010	 0.429094	 0.026476	 0.216989	 0.876409	 2
1463571623.506	 11	 0.593636	 -0.479922	 0.169603	 -0.226787	 0.874885	 0.592049	 0.432496	 0.024748	 0.216706	 0.874856	 2
1463571623.516	 11	 0.296303	 -0.562502	 0.102149	 -0.234619	 0.878260	 0.595218	 0.434733	 0.022534	 0.216017	 0.873977	 2
1463571623.526	 11	 -0.053347	 -0.655494	 0.042531	 -0.241688	 0.878473	 0.596196	 0.435574	 0.019691	 0.214882	 0.873907	 2
1463571623.536	 11	 -0.345136	 -0.742983	 0.033600	 -0.248470	 0.875685	 0.595622	 0.435130	 0.016165	 0.213475	 0.874545	 2
1463571623.546	 11	 -0.491370	 -0.770031	 0.058069	 -0.255334	 0.871057	 0.594560	 0.433915	 0.012203	 0.212055	 0.875558	 2
1463571623.556	 11	 -0.443972	 -0.677625	 0.059581	 -0.261777	 0.866363	 0.593667	 0.432619	 0.008448	 0.210817	 0.876542	 2
1463571623.566	 11	 -0.239098	 -0.416921	 0.012264	 -0.266058	 0.863428	 0.592833	 0.431832	 0.005927	 0.209872	 0.877177	 2
1463571623.576	 11	 0.013456	 -0.069629	 0.044204	 -0.267819	 0.862884	 0.593067	 0.431787	 0.005119	 0.209659	 0.877255	 2
1463571623.586	 11	 0.218235	 0.255055	 0.165874	 -0.268061	 0.864193	 0.595717	 0.432358	 0.005793	 0.210614	 0.876741	 2
1463571623.596	 11	 0.370467	 0.486632	 0.334028	 -0.268044	 0.866655	 0.601418	 0.433375	 0.007427	 0.212821	 0.875693	 2
1463571623.606	 11	 0.479418	 0.594937	 0.499280	 -0.268935	 0.869816	 0.610127	 0.434764	 0.009436	 0.216058	 0.874191	 2
1463571623.616	 11	 0.566326	 0.592367	 0.619996	 -0.271484	 0.873488	 0.621275	 0.436523	 0.011351	 0.219924	 0.872325	 2
1463571623.626	 11	 0.630334	 0.538361	 0.678619	 -0.275665	 0.877617	 0.633924	 0.438635	 0.012982	 0.224010	 0.870201	 2
1463571623.636	 11	 0.658738	 0.454230	 0.675457	 -0.280965	 0.882039	 0.646992	 0.440984	 0.014300	 0.227966	 0.867963	 2
1463571623.646	 11	 0.637824	 0.340300	 0.650067	 -0.287155	 0.886395	 0.659779	 0.443405	 0.015195	 0.231579	 0.865755	 2
1463571623.656	 11	 0.576424	 0.223448	 0.645251	 -0.294375	 0.890225	 0.672317	 0.445728	 0.015532	 0.234893	 0.863661	 2
1463571623.666	 11	 0.488546	 0.175583	 0.609335	 -0.301765	 0.893297	 0.684152	 0.447770	 0.015536	 0.237935	 0.861770	 2
1463571623.676	 11	 0.383781	 0.193484	 0.542205	 -0.308085	 0.895521	 0.694648	 0.449352	 0.015574	 0.240732	 0.860167	 2
1463571623.686	 11	 0.296384	 0.246666	 0.507225	 -0.313073	 0.896964	 0.704002	 0.450470	 0.015800	 0.243429	 0.858818	 2
1463571623.696	 11	 0.249730	 0.310619	 0.507160	 -0.317165	 0.897857	 0.712990	 0.451261	 0.016237	 0.246238	 0.857593	 2
1463571623.706	 11	 0.236275	 0.373633	 0.537705	 -0.320824	 0.898474	 0.722239	 0.451887	 0.016873	 0.249288	 0.856370	 2
1463571623.716	 11	 0.223907	 0.417699	 0.595774	 -0.324562	 0.898797	 0.732236	 0.452400	 0.017595	 0.252673	 0.855091	 2
1463571623.726	 11	 0.203809	 0.399100	 0.662919	 -0.329000	 0.898710	 0.743141	 0.452833	 0.018150	 0.256340	 0.853758	 2
1463571623.736	 11	 0.179063	 0.307067	 0.721961	 -0.334833	 0.898152	 0.754858	 0.453256	 0.018207	 0.260099	 0.852394	 2
1463571623.746	 11	 0.136972	 0.188231	 0.744668	 -0.342028	 0.897087	 0.766874	 0.453666	 0.017656	 0.263745	 0.851066	 2
1463571623.756	 11	 0.087052	 0.032913	 0.720211	 -0.350282	 0.895541	 0.778389	 0.454049	 0.016447	 0.267004	 0.849869	 2
1463571623.766	 11	 0.028467	 -0.121556	 0.662798	 -0.359234	 0.893599	 0.788779	 0.454401	 0.014607	 0.269684	 0.848868	 2
1463571623.776	 11	 -0.022318	 -0.229052	 0.632399	 -0.368590	 0.891245	 0.798161	 0.454677	 0.012282	 0.271908	 0.848047	 2
1463571623.786	 11	 -0.025818	 -0.280199	 0.618098	 -0.378362	 0.888692	 0.807227	 0.454959	 0.009666	 0.273936	 0.847277	 2
1463571623.796	 11	 0.026520	 -0.215943	 0.553229	 -0.387334	 0.886649	 0.815706	 0.455357	 0.007363	 0.275816	 0.846476	 2
1463571623.806	 11	 0.119745	 -0.073167	 0.479142	 -0.394501	 0.885628	 0.823523	 0.455924	 0.005892	 0.277657	 0.845580	 2
1463571623.816	 11	 0.219597	 0.067888	 0.463599	 -0.400334	 0.885620	 0.831488	 0.456712	 0.005243	 0.279693	 0.844487	 2
1463571623.826	 11	 0.313057	 0.183673	 0.480915	 -0.405495	 0.886443	 0.840186	 0.457732	 0.005234	 0.282045	 0.843151	 2
1463571623.836	 11	 0.389288	 0.229631	 0.542493	 -0.410986	 0.887771	 0.850140	 0.458996	 0.005497	 0.284753	 0.841551	 2
1463571623.846	 11	 0.455668	 0.198195	 0.634344	 -0.417942	 0.889334	 0.861818	 0.460558	 0.005607	 0.287794	 0.839660	 2
1463571623.856	 11	 0.533524	 0.110357	 0.726636	 -0.427122	 0.891133	 0.875369	 0.462536	 0.005293	 0.291044	 0.837452	 2
1463571623.866	 11	 0.581227	 -0.016902	 0.797508	 -0.438738	 0.893058	 0.890503	 0.464928	 0.004388	 0.294336	 0.834979	 2
1463571623.876	 11	 0.551768	 -0.174053	 0.821881	 -0.452267	 0.894621	 0.906179	 0.467488	 0.002768	 0.297434	 0.832454	 2
1463571623.886	 11	 0.434725	 -0.374320	 0.878587	 -0.467696	 0.895002	 0.921837	 0.469924	 0.000116	 0.300255	 0.830071	 2
1463571623.896	 11	 0.273609	 -0.615108	 0.903328	 -0.485004	 0.893675	 0.936941	 0.472058	 -0.003823	 0.302691	 0.827964	 2
1463571623.906	 11	 0.111277	 -0.810819	 0.836843	 -0.502990	 0.890937	 0.950137	 0.473828	 -0.008814	 0.304424	 0.826278	 2
1463571623.926	 12	 -0.107161	 -0.791479	 0.628969	 -0.533993	 0.883132	 0.968715	 0.475867	 -0.019149	 0.306279	 0.824243	 2
1463571623.936	 12	 -0.127716	 -0.561163	 0.553491	 -0.545515	 0.879141	 0.975483	 0.476274	 -0.023298	 0.307133	 0.823584	 2
1463571623.946	 12	 -0.085653	 -0.371726	 0.439785	 -0.553789	 0.875802	 0.980915	 0.476420	 -0.026264	 0.308081	 0.823055	 2
1463571623.956	 12	 0.006195	 -0.238998	 0.299540	 -0.559820	 0.873886	 0.985221	 0.476726	 -0.028211	 0.308810	 0.822541	 2
1463571623.966	 13	 0.047959	 -0.097557	 0.167272	 -0.563435	 0.873190	 0.988189	 0.477079	 -0.029169	 0.309312	 0.822113	 2
1463571623.986	 13	 -0.031174	 0.205903	 0.034367	 -0.562864	 0.872347	 0.990060	 0.476718	 -0.028706	 0.310392	 0.821932	 2
