% Gyrometer data recorded with 'snsrlog'
% 
% 
% Label description:
% 	 0: Default Label
% 	 1: still_drop
% 	 2: walk_drop
% 	 3: other
% 	 4: dtw_same
% 	 5: dtw_diff
% 	 6: delete
% 	 7: steal
% 
% Column description:
% 	 1: Seconds.milliseconds since 1970
% 	 2: Number of skipped measurements
% 	 3: Gyro X
% 	 4: Gyro Y
% 	 5: Gyro Z
% 	 6: Roll of the device
% 	 7: Pitch of the device
% 	 8: Yaw of the device
% 	 9: Quaternion X
% 	 10: Quaternion Y
% 	 11: Quaternion Z
% 	 12: Quaternion W
% 	 13: Label used for the current sample
% 
% 
1463624353.690	 0	 -1.863805	 1.029425	 -1.257697	 0.375695	 0.794738	 -0.219877	 0.396783	 0.129442	 -0.027556	 0.908322	 1
1463624353.700	 0	 -1.965344	 1.069507	 -1.344898	 0.391317	 0.771769	 -0.226988	 0.387221	 0.137146	 -0.030219	 0.911229	 1
1463624353.710	 0	 -2.042125	 1.094085	 -1.359987	 0.406635	 0.747828	 -0.233431	 0.377193	 0.145030	 -0.032920	 0.914116	 1
1463624353.720	 0	 -2.116695	 1.107196	 -1.342164	 0.421199	 0.723221	 -0.238676	 0.366782	 0.152947	 -0.035464	 0.916963	 1
1463624353.730	 0	 -2.191323	 1.117039	 -1.335028	 0.435066	 0.697901	 -0.242812	 0.355959	 0.160889	 -0.037878	 0.919768	 1
1463624353.740	 0	 -2.228500	 1.154372	 -1.335422	 0.448567	 0.672122	 -0.246127	 0.344854	 0.168912	 -0.040195	 0.922458	 1
1463624353.750	 0	 -2.226902	 1.276597	 -1.347088	 0.462689	 0.646197	 -0.248970	 0.333652	 0.177368	 -0.042366	 0.924890	 1
1463624353.760	 0	 -2.181084	 1.527133	 -1.394181	 0.478980	 0.620386	 -0.251873	 0.322554	 0.186852	 -0.044363	 0.926864	 1
1463624353.770	 0	 -2.102111	 1.831485	 -1.486889	 0.498585	 0.594788	 -0.255467	 0.311707	 0.197792	 -0.046323	 0.928209	 1
1463624353.780	 0	 -2.024258	 2.127307	 -1.582865	 0.521517	 0.569354	 -0.259834	 0.301123	 0.210198	 -0.048338	 0.928873	 1
1463624353.800	 1	 -1.912352	 2.678926	 -1.738570	 0.576126	 0.518463	 -0.269545	 0.280444	 0.239089	 -0.052360	 0.928141	 1
1463624353.810	 1	 -1.850783	 2.940550	 -1.863498	 0.607485	 0.492797	 -0.274991	 0.270307	 0.255421	 -0.054574	 0.926669	 1
1463624353.820	 1	 -1.806309	 3.178536	 -2.027375	 0.641584	 0.466453	 -0.281165	 0.260150	 0.273023	 -0.057215	 0.924395	 1
1463624353.830	 1	 -1.748409	 3.367617	 -2.183853	 0.677775	 0.439358	 -0.288014	 0.249957	 0.291596	 -0.060401	 0.921328	 1
1463624353.840	 1	 -1.663722	 3.543107	 -2.296994	 0.715775	 0.411848	 -0.295249	 0.239869	 0.310996	 -0.064012	 0.917413	 1
1463624353.850	 1	 -1.570581	 3.681512	 -2.387106	 0.755136	 0.384177	 -0.302682	 0.229993	 0.330989	 -0.067991	 0.912648	 1
1463624353.860	 1	 -1.557966	 3.727526	 -2.490167	 0.794996	 0.355849	 -0.309882	 0.220030	 0.351254	 -0.072350	 0.907179	 1
1463624353.870	 1	 -1.627422	 3.601199	 -2.631418	 0.833577	 0.325970	 -0.316365	 0.209446	 0.371102	 -0.077261	 0.901358	 1
1463624353.890	 1	 -1.681406	 3.234653	 -2.891208	 0.903918	 0.261276	 -0.327159	 0.186138	 0.408143	 -0.089120	 0.889286	 1
1463624353.880	 1	 -1.705794	 3.401449	 -2.780736	 0.869805	 0.294197	 -0.321986	 0.198014	 0.390075	 -0.082852	 0.895415	 1
1463624353.900	 1	 -1.566483	 3.207353	 -2.942554	 0.937233	 0.228250	 -0.332346	 0.174423	 0.425728	 -0.095892	 0.882688	 1
1463624353.910	 1	 -1.393445	 3.276728	 -2.986045	 0.970943	 0.195647	 -0.337939	 0.163248	 0.443254	 -0.103100	 0.875355	 1
1463624353.920	 1	 -1.203644	 3.523526	 -3.050413	 1.006481	 0.163471	 -0.344244	 0.152789	 0.461304	 -0.110746	 0.866942	 1
1463624353.930	 1	 -0.917847	 3.984900	 -3.113619	 1.046238	 0.131794	 -0.351841	 0.143407	 0.480823	 -0.118890	 0.856802	 1
1463624353.940	 1	 -0.532658	 4.529550	 -3.239796	 1.091253	 0.100707	 -0.361781	 0.135566	 0.502099	 -0.127895	 0.844489	 1
1463624353.960	 2	 0.191476	 5.240122	 -3.668991	 1.194215	 0.036374	 -0.389952	 0.123669	 0.548594	 -0.150161	 0.813143	 1
1463624353.980	 3	 0.532456	 4.811635	 -4.096924	 1.295213	 -0.035811	 -0.423324	 0.112759	 0.592721	 -0.178083	 0.777337	 1
1463624353.990	 3	 0.603476	 4.362739	 -4.222150	 1.339113	 -0.074897	 -0.439537	 0.106556	 0.611686	 -0.193494	 0.759636	 1
1463624354.000	 3	 0.667789	 3.860585	 -4.360603	 1.377515	 -0.115811	 -0.455072	 0.099604	 0.628238	 -0.209697	 0.742579	 1
1463624354.010	 3	 0.756018	 3.386572	 -4.422268	 1.410462	 -0.157978	 -0.470167	 0.092081	 0.642410	 -0.226551	 0.726295	 1
1463624354.020	 3	 0.871798	 3.032166	 -4.406324	 1.438852	 -0.200410	 -0.485155	 0.084446	 0.654526	 -0.243763	 0.710665	 1
1463624354.030	 3	 1.034873	 2.880531	 -4.277000	 1.464571	 -0.242081	 -0.500487	 0.077358	 0.665243	 -0.261022	 0.695223	 1
1463624354.040	 3	 1.260091	 2.994722	 -4.132955	 1.489764	 -0.282420	 -0.516876	 0.071491	 0.675293	 -0.278255	 0.679296	 1
1463624354.050	 3	 1.568417	 3.371886	 -4.066053	 1.516934	 -0.322110	 -0.535306	 0.067291	 0.685520	 -0.295861	 0.661816	 1
1463624354.060	 3	 1.891492	 3.709640	 -4.000711	 1.546342	 -0.361567	 -0.556227	 0.064879	 0.695956	 -0.314036	 0.642508	 1
1463624354.070	 3	 2.071958	 3.655541	 -3.907933	 1.574963	 -0.400652	 -0.578594	 0.063522	 0.705608	 -0.332416	 0.622560	 1
1463624354.080	 3	 2.114202	 3.315237	 -3.883758	 1.599930	 -0.439845	 -0.600981	 0.062024	 0.713675	 -0.350734	 0.603164	 1
1463624354.090	 3	 2.078979	 2.874893	 -3.899272	 1.620246	 -0.479595	 -0.622559	 0.059640	 0.719979	 -0.368883	 0.584807	 1
1463624354.100	 3	 2.041577	 2.385967	 -3.868326	 1.635390	 -0.519502	 -0.643320	 0.056265	 0.724466	 -0.386730	 0.567823	 1
1463624354.110	 3	 2.063366	 1.949440	 -3.774528	 1.645229	 -0.558858	 -0.664100	 0.052270	 0.727182	 -0.404270	 0.552305	 1
1463624354.120	 3	 2.152146	 1.647085	 -3.632105	 1.650361	 -0.597090	 -0.686033	 0.048241	 0.728380	 -0.421581	 0.537964	 1
1463624354.130	 3	 2.276100	 1.529968	 -3.452029	 1.652003	 -0.633777	 -0.709985	 0.044781	 0.728476	 -0.438689	 0.524281	 1
1463624354.140	 3	 2.397564	 1.537525	 -3.240929	 1.651352	 -0.668529	 -0.736308	 0.042335	 0.727861	 -0.455502	 0.510827	 1
1463624354.150	 3	 2.470342	 1.581812	 -2.971513	 1.649039	 -0.700817	 -0.764804	 0.041102	 0.726761	 -0.471780	 0.497547	 1
1463624354.160	 3	 2.464040	 1.551262	 -2.640290	 1.645094	 -0.729879	 -0.794697	 0.041033	 0.725242	 -0.487125	 0.484819	 1
1463624354.170	 3	 2.341882	 1.371274	 -2.282805	 1.639111	 -0.755245	 -0.824621	 0.041661	 0.723267	 -0.501132	 0.473303	 1
1463624354.190	 4	 1.847149	 0.622879	 -1.550086	 1.619874	 -0.794111	 -0.878760	 0.042788	 0.717887	 -0.523964	 0.456364	 1
1463624354.200	 4	 1.569876	 0.144415	 -1.200422	 1.606202	 -0.807650	 -0.901495	 0.042603	 0.714436	 -0.532693	 0.451668	 1
1463624354.210	 4	 1.321486	 -0.303429	 -0.869909	 1.589953	 -0.817546	 -0.921184	 0.041797	 0.710496	 -0.539797	 0.449519	 1
1463624354.230	 5	 0.942130	 -0.929618	 -0.252159	 1.552154	 -0.827170	 -0.952815	 0.039270	 0.701533	 -0.549859	 0.451624	 1
1463624354.240	 5	 0.754012	 -1.009917	 0.038619	 1.533423	 -0.827288	 -0.964657	 0.038204	 0.697062	 -0.552931	 0.454876	 1
1463624354.260	 6	 0.401546	 -0.864426	 0.598303	 1.503672	 -0.818904	 -0.979680	 0.038174	 0.689664	 -0.555178	 0.463340	 1
1463624354.270	 6	 0.183245	 -0.739731	 0.837964	 1.493998	 -0.810953	 -0.982348	 0.039271	 0.687047	 -0.554337	 0.468118	 1
1463624354.280	 6	 -0.035026	 -0.577023	 1.039610	 1.488429	 -0.801044	 -0.981472	 0.041005	 0.685339	 -0.552188	 0.472988	 1
1463624354.290	 6	 -0.221466	 -0.406302	 1.185634	 1.486714	 -0.789710	 -0.977583	 0.043292	 0.684516	 -0.548938	 0.477735	 1
1463624354.300	 6	 -0.376210	 -0.252073	 1.270480	 1.488242	 -0.777501	 -0.971339	 0.045981	 0.684472	 -0.544834	 0.482224	 1
1463624354.310	 6	 -0.489927	 -0.159146	 1.278730	 1.491951	 -0.765111	 -0.963428	 0.048749	 0.684994	 -0.540181	 0.486426	 1
1463624354.320	 6	 -0.526242	 -0.146443	 1.255717	 1.496391	 -0.752934	 -0.954912	 0.051412	 0.685737	 -0.535345	 0.490436	 1
1463624354.330	 6	 -0.481851	 -0.211678	 1.224882	 1.499880	 -0.741009	 -0.946937	 0.053900	 0.686262	 -0.530657	 0.494511	 1
1463624354.340	 6	 -0.400060	 -0.284315	 1.214968	 1.501791	 -0.729172	 -0.940112	 0.056320	 0.686381	 -0.526262	 0.498756	 1
1463624354.350	 6	 -0.314958	 -0.335673	 1.207355	 1.502211	 -0.717346	 -0.934538	 0.058769	 0.686094	 -0.522177	 0.503142	 1
1463624354.360	 6	 -0.244335	 -0.316552	 1.232496	 1.501908	 -0.705338	 -0.930000	 0.061451	 0.685579	 -0.518296	 0.507518	 1
1463624354.380	 7	 -0.237312	 -0.078359	 1.374266	 1.503366	 -0.679239	 -0.921876	 0.068418	 0.684914	 -0.510118	 0.515744	 1
1463624354.390	 7	 -0.308621	 0.130815	 1.442911	 1.507124	 -0.665210	 -0.917006	 0.072737	 0.685330	 -0.505418	 0.519215	 1
1463624354.400	 7	 -0.412782	 0.435410	 1.456244	 1.514287	 -0.650868	 -0.911087	 0.077642	 0.686663	 -0.500178	 0.521812	 1
1463624354.410	 7	 -0.554689	 0.721470	 1.391932	 1.525366	 -0.637082	 -0.903612	 0.082745	 0.689130	 -0.494425	 0.523256	 1
1463624354.420	 7	 -0.549981	 0.885700	 1.307093	 1.538261	 -0.623946	 -0.896096	 0.087986	 0.692140	 -0.488647	 0.523855	 1
1463624354.440	 8	 -0.417708	 1.105772	 0.761253	 1.566114	 -0.604152	 -0.883893	 0.097460	 0.698981	 -0.479120	 0.521892	 1
1463624354.450	 8	 -0.345391	 1.072589	 0.468296	 1.579456	 -0.598762	 -0.879565	 0.101015	 0.702405	 -0.475924	 0.519538	 1
1463624354.460	 8	 -0.337227	 1.007734	 0.181997	 1.591910	 -0.596140	 -0.875497	 0.103452	 0.705715	 -0.473540	 0.516744	 1
1463624354.470	 8	 -0.294005	 1.072021	 -0.028802	 1.604506	 -0.595924	 -0.871770	 0.105185	 0.709142	 -0.471866	 0.513221	 1
1463624354.480	 8	 -0.196244	 1.124754	 -0.197553	 1.617209	 -0.597345	 -0.869011	 0.106709	 0.712597	 -0.470871	 0.509018	 1
1463624354.490	 8	 -0.082322	 1.151356	 -0.296348	 1.629513	 -0.600100	 -0.867476	 0.108110	 0.715910	 -0.470570	 0.504330	 1
1463624354.500	 8	 0.087634	 1.209358	 -0.296222	 1.641318	 -0.603105	 -0.867701	 0.109942	 0.718978	 -0.470805	 0.499326	 1
1463624354.510	 8	 0.305932	 1.281506	 -0.232440	 1.652247	 -0.605841	 -0.870602	 0.112631	 0.721633	 -0.471670	 0.494052	 1
1463624354.520	 8	 0.379326	 1.381914	 -0.143686	 1.663400	 -0.607778	 -0.874880	 0.116154	 0.724199	 -0.472617	 0.488546	 1
1463624354.530	 8	 0.411874	 1.451328	 -0.092166	 1.675106	 -0.609129	 -0.879590	 0.120176	 0.726812	 -0.473444	 0.482859	 1
1463624354.540	 8	 0.431121	 1.585089	 0.027211	 1.687632	 -0.609660	 -0.884739	 0.124840	 0.729520	 -0.474060	 0.476951	 1
1463624354.550	 8	 0.479733	 1.383726	 0.146410	 1.698779	 -0.609021	 -0.890640	 0.129852	 0.731766	 -0.474571	 0.471634	 1
1463624354.560	 8	 0.430818	 0.968004	 0.147231	 1.706428	 -0.608065	 -0.896328	 0.134069	 0.733154	 -0.475134	 0.467716	 1
1463624354.570	 8	 0.284179	 0.448117	 0.118092	 1.709848	 -0.607320	 -0.900427	 0.136632	 0.733649	 -0.475649	 0.465670	 1
1463624354.580	 8	 0.140247	 -0.006414	 0.155614	 1.709531	 -0.606138	 -0.902751	 0.137800	 0.733375	 -0.475880	 0.465523	 1
1463624354.590	 8	 0.047425	 -0.289590	 0.229456	 1.706517	 -0.604158	 -0.903937	 0.138173	 0.732519	 -0.475807	 0.466831	 1
1463624354.600	 8	 -0.054644	 -0.310747	 0.350579	 1.703113	 -0.600989	 -0.904156	 0.138494	 0.731591	 -0.475204	 0.468801	 1
1463624354.620	 9	 -0.195900	 -0.299614	 0.508580	 1.698566	 -0.591603	 -0.901272	 0.139479	 0.730362	 -0.472204	 0.473434	 1
1463624354.630	 9	 -0.157267	 -0.129691	 0.630234	 1.701076	 -0.586832	 -0.898115	 0.140499	 0.730991	 -0.469935	 0.474419	 1
1463624354.640	 9	 -0.110629	 0.120223	 0.790952	 1.701766	 -0.579240	 -0.897843	 0.143078	 0.730873	 -0.467671	 0.476065	 1
1463624354.650	 9	 -0.078171	 0.356968	 0.889857	 1.704594	 -0.570492	 -0.898197	 0.146761	 0.731162	 -0.465062	 0.477054	 1
1463624354.660	 9	 0.003279	 0.451206	 0.864446	 1.708364	 -0.561710	 -0.899376	 0.150964	 0.731602	 -0.462552	 0.477508	 1
1463624354.670	 9	 0.110852	 0.381083	 0.625192	 1.711310	 -0.554905	 -0.901460	 0.154648	 0.731849	 -0.460870	 0.477577	 1
1463624354.680	 9	 0.334073	 0.388486	 0.123475	 1.713177	 -0.552738	 -0.905097	 0.157121	 0.731914	 -0.460969	 0.476574	 1
1463624354.690	 9	 0.498748	 0.470144	 -0.429264	 1.715108	 -0.556302	 -0.909997	 0.158190	 0.732147	 -0.463006	 0.473880	 1
1463624354.700	 9	 0.544036	 0.496511	 -0.881296	 1.717383	 -0.564767	 -0.915001	 0.157774	 0.732665	 -0.466432	 0.469841	 1
1463624354.710	 9	 0.456212	 0.440477	 -1.163480	 1.719946	 -0.576420	 -0.918773	 0.155934	 0.733470	 -0.470436	 0.465184	 1
1463624354.720	 9	 0.260129	 0.331002	 -1.232066	 1.722714	 -0.589031	 -0.920299	 0.153009	 0.734509	 -0.474156	 0.460718	 1
1463624354.730	 9	 0.013574	 0.212496	 -1.099933	 1.725808	 -0.600447	 -0.919075	 0.149549	 0.735750	 -0.476871	 0.457057	 1
1463624354.740	 9	 -0.179820	 0.136536	 -0.799477	 1.729196	 -0.608961	 -0.915749	 0.146339	 0.737073	 -0.478268	 0.454497	 1
1463624354.750	 9	 -0.235941	 0.117291	 -0.396309	 1.732592	 -0.613517	 -0.911975	 0.144265	 0.738271	 -0.478453	 0.453019	 1
1463624354.760	 9	 -0.173018	 0.144278	 -0.169599	 1.735514	 -0.615318	 -0.909265	 0.143373	 0.739185	 -0.478140	 0.452142	 1
1463624354.770	 9	 -0.138916	 0.279952	 -0.073780	 1.739016	 -0.615968	 -0.907337	 0.143284	 0.740134	 -0.477638	 0.451146	 1
1463624354.780	 9	 -0.195049	 0.402158	 -0.111587	 1.744109	 -0.616608	 -0.905042	 0.143440	 0.741465	 -0.476939	 0.449649	 1
1463624354.790	 9	 -0.322614	 0.382511	 -0.232157	 1.750373	 -0.618038	 -0.901152	 0.143022	 0.743190	 -0.476027	 0.447898	 1
1463624354.800	 9	 -0.523883	 0.157501	 -0.394494	 1.756325	 -0.620693	 -0.894666	 0.141161	 0.745052	 -0.474916	 0.446570	 1
1463624354.810	 9	 -0.701957	 0.005364	 -0.468083	 1.762120	 -0.624972	 -0.885541	 0.137742	 0.747084	 -0.473714	 0.445520	 1
1463624354.820	 9	 -0.828109	 -0.219113	 -0.526624	 1.766996	 -0.628480	 -0.874607	 0.133668	 0.748986	 -0.471967	 0.445421	 1
1463624354.830	 9	 -0.862366	 -0.541712	 -0.438738	 1.769179	 -0.631440	 -0.863069	 0.128899	 0.750284	 -0.470115	 0.446599	 1
1463624354.840	 9	 -0.789203	 -0.857021	 -0.182263	 1.767662	 -0.632325	 -0.852484	 0.124284	 0.750628	 -0.468100	 0.449436	 1
1463624354.850	 9	 -0.577460	 -1.048754	 0.157285	 1.761981	 -0.630412	 -0.844942	 0.120749	 0.749779	 -0.466182	 0.453790	 1
1463624354.860	 9	 -0.381648	 -1.000046	 0.499207	 1.754406	 -0.625660	 -0.840609	 0.118911	 0.748236	 -0.464251	 0.458774	 1
1463624354.870	 9	 -0.254913	 -0.819855	 0.757695	 1.746809	 -0.618260	 -0.838735	 0.118867	 0.746469	 -0.462097	 0.463812	 1
1463624354.880	 9	 -0.178132	 -0.665341	 0.828804	 1.740205	 -0.609756	 -0.838117	 0.119897	 0.744804	 -0.459849	 0.468434	 1
1463624354.890	 9	 -0.152569	 -0.543183	 0.670920	 1.734657	 -0.602469	 -0.837713	 0.120863	 0.743368	 -0.457949	 0.472313	 1
1463624354.900	 9	 -0.178152	 -0.421789	 0.533723	 1.730739	 -0.596609	 -0.836771	 0.121542	 0.742362	 -0.456242	 0.475362	 1
1463624354.910	 9	 -0.195371	 -0.298625	 0.350642	 1.728239	 -0.592324	 -0.835264	 0.121822	 0.741755	 -0.454775	 0.477638	 1
1463624354.920	 9	 -0.206752	 -0.195483	 0.049025	 1.727346	 -0.590717	 -0.833085	 0.121340	 0.741635	 -0.453836	 0.478840	 1
1463624354.930	 9	 -0.169753	 -0.202386	 -0.300932	 1.726658	 -0.592652	 -0.830444	 0.119567	 0.741676	 -0.453814	 0.479243	 1
1463624354.940	 9	 -0.180040	 -0.015012	 -0.426990	 1.727568	 -0.596355	 -0.827728	 0.117547	 0.742141	 -0.454200	 0.478657	 1
1463624354.950	 9	 -0.346992	 0.250178	 -0.592525	 1.731959	 -0.601277	 -0.823087	 0.115202	 0.743565	 -0.454286	 0.476931	 1
1463624354.960	 9	 -0.438617	 0.396243	 -0.727851	 1.739397	 -0.607499	 -0.816597	 0.112433	 0.745821	 -0.454159	 0.474183	 1
1463624354.970	 9	 -0.403874	 0.361536	 -0.806278	 1.746981	 -0.614526	 -0.809922	 0.109361	 0.748093	 -0.454248	 0.471228	 1
1463624354.980	 9	 -0.353565	 0.245842	 -0.899448	 1.753461	 -0.622507	 -0.803611	 0.105864	 0.750054	 -0.454795	 0.468374	 1
1463624354.990	 9	 -0.359727	 0.098841	 -0.932735	 1.758578	 -0.630998	 -0.797171	 0.101842	 0.751661	 -0.455561	 0.465938	 1
1463624355.000	 9	 -0.394650	 0.085767	 -0.843028	 1.763313	 -0.638845	 -0.790450	 0.097839	 0.753144	 -0.456112	 0.463858	 1
1463624355.010	 9	 -0.397902	 0.198345	 -0.720457	 1.769060	 -0.645578	 -0.783729	 0.094428	 0.754816	 -0.456301	 0.461655	 1
1463624355.020	 9	 -0.322119	 0.198149	 -0.716856	 1.774792	 -0.651814	 -0.777681	 0.091430	 0.756417	 -0.456520	 0.459417	 1
1463624355.030	 9	 -0.172832	 0.091168	 -0.888608	 1.778912	 -0.659574	 -0.772895	 0.088049	 0.757553	 -0.457580	 0.457144	 1
1463624355.040	 9	 -0.016173	 0.013514	 -1.119833	 1.781350	 -0.669844	 -0.769411	 0.083967	 0.758201	 -0.459779	 0.454624	 1
1463624355.060	 10	 0.146475	 0.223848	 -1.529610	 1.786473	 -0.697260	 -0.764689	 0.074505	 0.759262	 -0.466754	 0.447338	 1
1463624355.070	 10	 0.124680	 0.284253	 -1.715367	 1.791296	 -0.713837	 -0.761607	 0.069114	 0.760186	 -0.470857	 0.442306	 1
1463624355.080	 10	 0.128027	 0.254100	 -1.911777	 1.796491	 -0.732259	 -0.757706	 0.062922	 0.761085	 -0.475327	 0.436869	 1
1463624355.090	 10	 0.171405	 0.310233	 -2.073628	 1.802262	 -0.752483	 -0.753524	 0.056203	 0.761954	 -0.480266	 0.430828	 1
1463624355.100	 10	 0.229947	 0.325603	 -2.130480	 1.808136	 -0.773598	 -0.749645	 0.049363	 0.762670	 -0.485542	 0.424437	 1
1463624355.110	 10	 0.229015	 0.380685	 -2.161933	 1.814665	 -0.795069	 -0.745588	 0.042530	 0.763368	 -0.490880	 0.417729	 1
1463624355.120	 10	 0.211966	 0.391327	 -2.168080	 1.821963	 -0.816601	 -0.740903	 0.035663	 0.764077	 -0.496106	 0.410844	 1
1463624355.130	 10	 0.251250	 0.357101	 -2.178334	 1.829105	 -0.838473	 -0.736256	 0.028701	 0.764573	 -0.501462	 0.403907	 1
1463624355.140	 10	 0.360881	 0.102298	 -2.216830	 1.833611	 -0.860603	 -0.732524	 0.021381	 0.764353	 -0.507122	 0.397662	 1
1463624355.150	 10	 0.448716	 -0.166973	 -2.352255	 1.834884	 -0.884037	 -0.729596	 0.013151	 0.763268	 -0.513331	 0.392098	 1
1463624355.160	 10	 0.483881	 -0.438885	 -2.579967	 1.833537	 -0.909600	 -0.726520	 0.003519	 0.761401	 -0.520082	 0.387002	 1
1463624355.170	 10	 0.408861	 -0.479142	 -2.881303	 1.832772	 -0.938090	 -0.721383	 -0.007675	 0.759286	 -0.527189	 0.381441	 1
1463624355.180	 10	 0.262779	 -0.157929	 -3.233006	 1.837722	 -0.969244	 -0.712190	 -0.019716	 0.757791	 -0.534255	 0.374080	 1
1463624355.190	 10	 0.194179	 0.267573	 -3.546050	 1.851118	 -1.003394	 -0.698302	 -0.032125	 0.757175	 -0.541428	 0.364019	 1
1463624355.200	 10	 0.286005	 0.517311	 -3.831217	 1.869581	 -1.040285	 -0.682205	 -0.044679	 0.756619	 -0.549217	 0.351983	 1
1463624355.210	 10	 0.468686	 0.525737	 -4.061868	 1.889525	 -1.079767	 -0.665501	 -0.057621	 0.755354	 -0.557874	 0.338964	 1
1463624355.220	 10	 0.605071	 0.365896	 -4.194566	 1.909344	 -1.121041	 -0.647901	 -0.071204	 0.753076	 -0.567104	 0.325882	 1
1463624355.230	 10	 0.679587	 0.175704	 -4.284377	 1.929843	 -1.163365	 -0.627768	 -0.085545	 0.749867	 -0.576481	 0.313132	 1
1463624355.240	 10	 0.767802	 0.142102	 -4.335548	 1.952800	 -1.206396	 -0.604573	 -0.100160	 0.745919	 -0.585969	 0.300355	 1
1463624355.250	 10	 0.926446	 -0.049887	 -4.199101	 1.975583	 -1.248992	 -0.580549	 -0.114587	 0.741046	 -0.595516	 0.288238	 1
1463624355.270	 11	 0.766508	 -0.029306	 -3.919353	 2.033915	 -1.329365	 -0.516537	 -0.142673	 0.730103	 -0.612939	 0.266269	 1
1463624355.280	 11	 0.523852	 0.494060	 -3.568129	 2.090823	 -1.364570	 -0.461727	 -0.154227	 0.726009	 -0.620122	 0.254113	 1
1463624355.300	 11	 0.231279	 1.681850	 -1.524252	 2.231121	 -1.407790	 -0.345083	 -0.162776	 0.723377	 -0.630194	 0.230401	 1
1463624355.310	 12	 0.251054	 1.851906	 -0.507170	 2.267428	 -1.415123	 -0.326990	 -0.159401	 0.724108	 -0.633385	 0.221545	 1
1463624355.320	 12	 0.278035	 1.474694	 0.287340	 2.265369	 -1.416082	 -0.345296	 -0.153621	 0.725063	 -0.635531	 0.216298	 1
1463624355.330	 12	 0.187658	 0.653400	 0.811235	 2.235930	 -1.412069	 -0.383964	 -0.148095	 0.725839	 -0.636232	 0.215484	 1
1463624355.340	 12	 0.082388	 -0.286753	 1.219050	 2.189239	 -1.403704	 -0.430711	 -0.144079	 0.726260	 -0.635357	 0.219339	 1
1463624355.350	 12	 0.094370	 -0.883901	 1.453185	 2.132753	 -1.392467	 -0.480262	 -0.141311	 0.726148	 -0.633539	 0.226646	 1
1463624355.360	 12	 0.178722	 -1.094794	 1.446226	 2.074825	 -1.380665	 -0.528433	 -0.139154	 0.725447	 -0.631689	 0.235228	 1
1463624355.370	 12	 0.167244	 -1.063534	 1.205754	 2.026335	 -1.370160	 -0.566806	 -0.137741	 0.724477	 -0.630051	 0.243305	 1
1463624355.380	 12	 0.100988	 -0.816755	 0.888899	 1.992388	 -1.361894	 -0.592338	 -0.136903	 0.723665	 -0.628673	 0.249675	 1
1463624355.390	 12	 -0.021617	 -0.288047	 0.559171	 1.975514	 -1.356080	 -0.605140	 -0.135938	 0.723512	 -0.627618	 0.253272	 1
1463624355.400	 12	 -0.168193	 0.327184	 0.270956	 1.976801	 -1.352444	 -0.605640	 -0.134326	 0.724385	 -0.626826	 0.253601	 1
1463624355.410	 12	 -0.243811	 0.764069	 0.058264	 1.991034	 -1.350541	 -0.597917	 -0.132131	 0.726022	 -0.626302	 0.251354	 1
1463624355.420	 12	 -0.243572	 0.944821	 -0.096723	 2.011371	 -1.350064	 -0.586448	 -0.129800	 0.727899	 -0.626076	 0.247676	 1
1463624355.430	 12	 -0.162248	 0.856574	 -0.205894	 2.031503	 -1.350889	 -0.575032	 -0.127883	 0.729477	 -0.626193	 0.243705	 1
1463624355.440	 12	 -0.004360	 0.655835	 -0.249636	 2.045230	 -1.352842	 -0.568129	 -0.126632	 0.730312	 -0.626763	 0.240368	 1
1463624355.450	 12	 0.142739	 0.620283	 -0.251292	 2.048348	 -1.360031	 -0.571087	 -0.126513	 0.729432	 -0.629277	 0.236503	 1
1463624355.460	 12	 0.248760	 0.676534	 -0.225048	 2.050640	 -1.363136	 -0.575485	 -0.125024	 0.729354	 -0.630783	 0.233504	 1
1463624355.470	 12	 0.314503	 0.757656	 -0.158788	 2.049132	 -1.366105	 -0.584546	 -0.122998	 0.729145	 -0.632546	 0.230444	 1
1463624355.480	 12	 0.333548	 0.855199	 -0.047207	 2.044916	 -1.368315	 -0.597341	 -0.120269	 0.729001	 -0.634347	 0.227369	 1
1463624355.490	 12	 0.336286	 0.863661	 0.094600	 2.035716	 -1.368938	 -0.615523	 -0.116735	 0.728916	 -0.636023	 0.224787	 1
1463624355.500	 12	 0.370223	 0.719765	 0.212331	 2.023598	 -1.368872	 -0.635691	 -0.113225	 0.728732	 -0.637566	 0.222799	 1
1463624355.510	 12	 0.400325	 0.474553	 0.290785	 2.005902	 -1.368095	 -0.659282	 -0.110062	 0.728227	 -0.639002	 0.221921	 1
1463624355.520	 12	 0.381929	 0.162187	 0.329603	 1.984677	 -1.366757	 -0.683422	 -0.107682	 0.727426	 -0.640191	 0.222285	 1
1463624355.530	 12	 0.300505	 -0.118434	 0.317038	 1.977732	 -1.364718	 -0.690566	 -0.106717	 0.727397	 -0.640110	 0.223079	 1
1463624355.540	 12	 0.163887	 -0.318252	 0.281198	 1.960816	 -1.362823	 -0.705056	 -0.106313	 0.726602	 -0.640370	 0.225110	 1
1463624355.550	 12	 0.014904	 -0.421277	 0.241037	 1.950123	 -1.360694	 -0.711876	 -0.106632	 0.726116	 -0.640059	 0.227399	 1
1463624355.560	 12	 -0.099469	 -0.429715	 0.204653	 1.945347	 -1.358443	 -0.712340	 -0.107327	 0.725972	 -0.639316	 0.229610	 1
1463624355.570	 12	 -0.162339	 -0.387094	 0.183180	 1.970073	 -1.357635	 -0.684131	 -0.109448	 0.727421	 -0.637219	 0.229850	 1
1463624355.580	 12	 -0.181350	 -0.333953	 0.169985	 1.971076	 -1.355346	 -0.679557	 -0.110128	 0.727685	 -0.636179	 0.231564	 1
1463624355.590	 12	 -0.167331	 -0.291549	 0.156402	 1.972413	 -1.353207	 -0.675101	 -0.110706	 0.727968	 -0.635203	 0.233074	 1
1463624355.600	 12	 -0.141627	 -0.258768	 0.140497	 1.973352	 -1.351294	 -0.671408	 -0.111199	 0.728209	 -0.634345	 0.234421	 1
1463624355.610	 12	 -0.102041	 -0.229217	 0.127584	 1.961361	 -1.354998	 -0.680685	 -0.112706	 0.726676	 -0.635684	 0.234832	 1
1463624355.620	 12	 -0.073090	 -0.175273	 0.097992	 1.960921	 -1.353714	 -0.679169	 -0.113023	 0.726761	 -0.635163	 0.235823	 1
1463624355.630	 12	 -0.049284	 -0.084061	 0.071990	 1.960834	 -1.352784	 -0.678147	 -0.113151	 0.726854	 -0.634807	 0.236433	 1
1463624355.640	 12	 -0.021162	 0.014607	 0.049216	 1.961008	 -1.352166	 -0.677885	 -0.113011	 0.726966	 -0.634633	 0.236620	 1
1463624355.650	 12	 0.013170	 0.071799	 0.028050	 1.965467	 -1.358405	 -0.674154	 -0.114763	 0.726193	 -0.635994	 0.234490	 1
1463624355.660	 12	 0.035608	 0.099202	 0.002531	 1.964878	 -1.358446	 -0.675712	 -0.114397	 0.726206	 -0.636152	 0.234198	 1
1463624355.670	 12	 0.054716	 0.094743	 -0.017955	 1.963916	 -1.361145	 -0.677699	 -0.114766	 0.725735	 -0.636997	 0.233180	 1
1463624355.680	 12	 0.073830	 0.066044	 -0.007731	 1.961855	 -1.361525	 -0.680563	 -0.114494	 0.725592	 -0.637306	 0.232912	 1
1463624355.690	 12	 0.082359	 0.039614	 0.019690	 1.951585	 -1.359600	 -0.691212	 -0.113342	 0.725333	 -0.637492	 0.233771	 1
1463624355.700	 12	 0.084530	 0.027021	 0.044067	 1.947583	 -1.359556	 -0.695607	 -0.113011	 0.725122	 -0.637769	 0.233833	 1
1463624355.710	 12	 0.079238	 0.025010	 0.057980	 1.944243	 -1.356849	 -0.699323	 -0.111931	 0.725397	 -0.637362	 0.234607	 1
1463624355.720	 12	 0.069624	 0.017640	 0.064390	 1.940290	 -1.356526	 -0.703565	 -0.111557	 0.725225	 -0.637561	 0.234777	 1
1463624355.730	 12	 0.056784	 0.010245	 0.065499	 1.939330	 -1.355941	 -0.704787	 -0.111247	 0.725278	 -0.637510	 0.234898	 1
1463624355.740	 12	 0.050384	 0.013432	 0.062387	 1.936200	 -1.355540	 -0.708117	 -0.110918	 0.725162	 -0.637632	 0.235083	 1
1463624355.750	 12	 0.045054	 0.025069	 0.050801	 1.936389	 -1.356374	 -0.708279	 -0.111047	 0.725054	 -0.637861	 0.234731	 1
1463624355.760	 12	 0.041894	 0.039916	 0.043506	 1.934141	 -1.356103	 -0.710950	 -0.110715	 0.724984	 -0.637985	 0.234769	 1
1463624355.770	 12	 0.037641	 0.049447	 0.036172	 1.932320	 -1.355889	 -0.713299	 -0.110381	 0.724935	 -0.638109	 0.234740	 1
1463624355.780	 12	 0.034474	 0.061119	 0.030979	 1.930865	 -1.355715	 -0.715386	 -0.110037	 0.724908	 -0.638232	 0.234650	 1
1463624355.790	 12	 0.030218	 0.066428	 0.027848	 1.930290	 -1.357044	 -0.716671	 -0.110151	 0.724693	 -0.638666	 0.234076	 1
1463624355.800	 12	 0.028081	 0.069595	 0.023633	 1.929330	 -1.356916	 -0.718366	 -0.109805	 0.724695	 -0.638781	 0.233919	 1
1463624355.810	 12	 0.024859	 0.064294	 0.024677	 1.928501	 -1.356773	 -0.719893	 -0.109474	 0.724705	 -0.638881	 0.233771	 1
1463624355.820	 12	 0.017322	 0.049432	 0.025670	 1.927803	 -1.356611	 -0.721157	 -0.109190	 0.724719	 -0.638952	 0.233666	 1
1463624355.830	 12	 0.011987	 0.025004	 0.032861	 1.926655	 -1.357373	 -0.722640	 -0.109248	 0.724542	 -0.639242	 0.233394	 1
1463624355.840	 12	 0.004364	 -0.011109	 0.036846	 1.924177	 -1.358024	 -0.725091	 -0.109347	 0.724281	 -0.639546	 0.233326	 1
1463624355.850	 12	 -0.004297	 -0.039791	 0.038778	 1.919745	 -1.358690	 -0.729121	 -0.109505	 0.723877	 -0.639930	 0.233454	 1
1463624355.860	 12	 -0.009734	 -0.060003	 0.036497	 1.916103	 -1.359410	 -0.732139	 -0.109795	 0.723502	 -0.640250	 0.233602	 1
1463624355.870	 12	 -0.014022	 -0.063200	 0.034364	 1.912699	 -1.360033	 -0.734845	 -0.110094	 0.723153	 -0.640524	 0.233790	 1
1463624355.880	 12	 -0.009742	 -0.058985	 0.031163	 1.908613	 -1.360500	 -0.738250	 -0.110313	 0.722789	 -0.640804	 0.234044	 1
1463624355.890	 12	 -0.000056	 -0.039905	 0.026981	 1.901893	 -1.361688	 -0.744390	 -0.110609	 0.722154	 -0.641424	 0.234166	 1
1463624355.900	 12	 0.010697	 -0.019761	 0.022807	 1.898939	 -1.362024	 -0.747061	 -0.110694	 0.721904	 -0.641650	 0.234279	 1
1463624355.910	 12	 0.015047	 0.001459	 0.017636	 1.896387	 -1.362214	 -0.749566	 -0.110667	 0.721714	 -0.641846	 0.234342	 1
1463624355.920	 12	 0.020448	 0.016317	 0.015595	 1.893374	 -1.362293	 -0.752690	 -0.110531	 0.721521	 -0.642063	 0.234404	 1
1463624355.930	 12	 0.017268	 0.019524	 0.016717	 1.891309	 -1.362383	 -0.754947	 -0.110407	 0.721390	 -0.642234	 0.234398	 1
1463624355.940	 12	 0.011924	 0.017411	 0.016742	 1.889122	 -1.362536	 -0.757306	 -0.110305	 0.721241	 -0.642424	 0.234385	 1
1463624355.950	 12	 0.010867	 0.017428	 0.018880	 1.887643	 -1.362671	 -0.758959	 -0.110226	 0.721138	 -0.642566	 0.234349	 1
1463624355.960	 12	 0.010868	 0.017428	 0.018876	 1.886319	 -1.362895	 -0.760457	 -0.110180	 0.721031	 -0.642719	 0.234280	 1
1463624355.970	 12	 0.011956	 0.022735	 0.017847	 1.886082	 -1.363017	 -0.760935	 -0.110121	 0.721011	 -0.642789	 0.234177	 1
1463624355.980	 12	 0.016263	 0.030177	 0.018942	 1.886161	 -1.363126	 -0.761175	 -0.110043	 0.721017	 -0.642846	 0.234040	 1
1463624355.990	 12	 0.019473	 0.032296	 0.018931	 1.886447	 -1.363144	 -0.761262	 -0.109925	 0.721052	 -0.642875	 0.233904	 1
1463624356.000	 12	 0.020507	 0.024857	 0.019917	 1.887119	 -1.363123	 -0.760926	 -0.109823	 0.721116	 -0.642868	 0.233775	 1
1463624356.010	 12	 0.016191	 0.016355	 0.018807	 1.887932	 -1.363094	 -0.760357	 -0.109759	 0.721184	 -0.642840	 0.233674	 1
1463624356.020	 12	 0.011862	 0.005717	 0.016613	 1.888279	 -1.363048	 -0.760159	 -0.109704	 0.721221	 -0.642826	 0.233625	 1
1463624356.030	 12	 0.003251	 -0.010204	 0.017603	 1.888830	 -1.363001	 -0.759571	 -0.109725	 0.721260	 -0.642777	 0.233629	 1
1463624356.040	 12	 -0.003209	 -0.022940	 0.018606	 1.888990	 -1.362877	 -0.759230	 -0.109758	 0.721279	 -0.642718	 0.233717	 1
1463624356.050	 12	 -0.007506	 -0.030357	 0.020705	 1.889374	 -1.362649	 -0.758572	 -0.109803	 0.721322	 -0.642611	 0.233855	 1
1463624356.060	 12	 -0.009618	 -0.028199	 0.023941	 1.889936	 -1.362345	 -0.757728	 -0.109833	 0.721388	 -0.642475	 0.234011	 1
1463624356.070	 12	 -0.008528	 -0.024996	 0.026093	 1.890101	 -1.362081	 -0.757311	 -0.109850	 0.721425	 -0.642376	 0.234162	 1
1463624356.080	 12	 -0.010651	 -0.019693	 0.022962	 1.890803	 -1.361877	 -0.756417	 -0.109885	 0.721489	 -0.642264	 0.234254	 1
1463624356.090	 12	 -0.012785	 -0.017574	 0.020867	 1.891509	 -1.361750	 -0.755541	 -0.109935	 0.721543	 -0.642172	 0.234318	 1
1463624356.100	 12	 -0.014950	 -0.023949	 0.020825	 1.891859	 -1.361619	 -0.754970	 -0.109989	 0.721573	 -0.642095	 0.234412	 1
1463624356.110	 12	 -0.017123	 -0.030340	 0.018652	 1.892069	 -1.361445	 -0.754462	 -0.110052	 0.721597	 -0.642008	 0.234549	 1
1463624356.120	 12	 -0.018235	 -0.038855	 0.017515	 1.892085	 -1.361297	 -0.754058	 -0.110147	 0.721599	 -0.641928	 0.234716	 1
1463624356.130	 12	 -0.020413	 -0.047365	 0.016387	 1.892126	 -1.361267	 -0.753541	 -0.110311	 0.721580	 -0.641862	 0.234876	 1
1463624356.140	 12	 -0.023642	 -0.051626	 0.014242	 1.892010	 -1.361180	 -0.753119	 -0.110474	 0.721556	 -0.641787	 0.235078	 1
1463624356.150	 12	 -0.023664	 -0.054834	 0.012079	 1.891666	 -1.361211	 -0.752882	 -0.110680	 0.721498	 -0.641747	 0.235269	 1
1463624356.160	 12	 -0.024732	 -0.053783	 0.009964	 1.891043	 -1.361253	 -0.752913	 -0.110881	 0.721420	 -0.641725	 0.235472	 1
1463624356.170	 12	 -0.021503	 -0.047419	 0.008927	 1.890796	 -1.361260	 -0.752632	 -0.111064	 0.721374	 -0.641680	 0.235649	 1
1463624356.180	 12	 -0.018258	 -0.037865	 0.007921	 1.890331	 -1.361266	 -0.752660	 -0.111205	 0.721320	 -0.641659	 0.235806	 1
1463624356.190	 12	 -0.017183	 -0.035749	 0.006865	 1.889978	 -1.361204	 -0.752626	 -0.111312	 0.721286	 -0.641621	 0.235962	 1
1463624356.200	 12	 -0.016140	 -0.042128	 0.007862	 1.889389	 -1.361151	 -0.752783	 -0.111428	 0.721233	 -0.641595	 0.236139	 1
1463624356.210	 12	 -0.017227	 -0.048492	 0.009946	 1.888329	 -1.360959	 -0.753334	 -0.111510	 0.721168	 -0.641558	 0.236400	 1
1463624356.220	 12	 -0.018310	 -0.054849	 0.013096	 1.887791	 -1.360667	 -0.753305	 -0.111604	 0.721148	 -0.641459	 0.236687	 1
1463624356.230	 12	 -0.017225	 -0.053766	 0.016295	 1.887479	 -1.360373	 -0.753050	 -0.111706	 0.721141	 -0.641345	 0.236966	 1
1463624356.240	 12	 -0.018243	 -0.044182	 0.017460	 1.887681	 -1.360050	 -0.752364	 -0.111790	 0.721177	 -0.641203	 0.237206	 1
1463624356.260	 13	 -0.018231	 -0.037830	 0.013256	 1.888526	 -1.359602	 -0.750763	 -0.111960	 0.721256	 -0.640959	 0.237543	 1
1463624356.270	 13	 -0.022562	 -0.048478	 0.009998	 1.888525	 -1.359409	 -0.750296	 -0.112069	 0.721259	 -0.640860	 0.237748	 1
1463624356.280	 13	 -0.025852	 -0.065503	 0.007738	 1.888250	 -1.359247	 -0.749922	 -0.112243	 0.721230	 -0.640763	 0.238014	 1
1463624356.290	 13	 -0.028022	 -0.071895	 0.005567	 1.887633	 -1.359060	 -0.749777	 -0.112436	 0.721177	 -0.640669	 0.238337	 1
1463624356.300	 13	 -0.024803	 -0.068715	 0.005571	 1.886882	 -1.358894	 -0.749771	 -0.112628	 0.721113	 -0.640589	 0.238657	 1
1463624356.310	 13	 -0.014045	 -0.051722	 0.006703	 1.886248	 -1.358712	 -0.749804	 -0.112763	 0.721067	 -0.640516	 0.238927	 1
1463624356.320	 13	 -0.005405	 -0.029419	 0.005772	 1.885798	 -1.358475	 -0.749886	 -0.112805	 0.721054	 -0.640447	 0.239131	 1
1463624356.330	 13	 0.000014	 -0.012408	 0.006951	 1.885783	 -1.358231	 -0.749740	 -0.112788	 0.721081	 -0.640374	 0.239253	 1
1463624356.340	 13	 0.000037	 -0.008146	 0.008059	 1.885825	 -1.357977	 -0.749621	 -0.112740	 0.721118	 -0.640305	 0.239349	 1
1463624356.350	 13	 -0.006383	 -0.012373	 0.009144	 1.886043	 -1.357710	 -0.749299	 -0.112705	 0.721167	 -0.640218	 0.239450	 1
1463624356.360	 13	 -0.013905	 -0.021931	 0.008057	 1.886796	 -1.357450	 -0.748356	 -0.112724	 0.721244	 -0.640089	 0.239555	 1
1463624356.370	 13	 -0.021417	 -0.030418	 0.008045	 1.887604	 -1.357187	 -0.747257	 -0.112782	 0.721319	 -0.639943	 0.239691	 1
1463624356.380	 13	 -0.022506	 -0.036781	 0.010128	 1.888145	 -1.356939	 -0.746339	 -0.112864	 0.721370	 -0.639808	 0.239860	 1
1463624356.390	 13	 -0.020367	 -0.035724	 0.010121	 1.888396	 -1.356692	 -0.745699	 -0.112939	 0.721402	 -0.639689	 0.240045	 1
1463624356.400	 13	 -0.014986	 -0.026167	 0.010164	 1.888816	 -1.356466	 -0.744981	 -0.112995	 0.721447	 -0.639575	 0.240188	 1
1463624356.410	 13	 -0.011735	 -0.015540	 0.010236	 1.889090	 -1.356252	 -0.744520	 -0.113008	 0.721486	 -0.639487	 0.240298	 1
1463624356.420	 13	 -0.011714	 -0.010229	 0.009220	 1.889252	 -1.356068	 -0.744240	 -0.113001	 0.721518	 -0.639421	 0.240381	 1
1463624356.430	 13	 -0.012776	 -0.009163	 0.009241	 1.889439	 -1.355842	 -0.743948	 -0.112978	 0.721559	 -0.639345	 0.240472	 1
1463624356.440	 13	 -0.015970	 -0.010194	 0.012458	 1.889617	 -1.355611	 -0.743658	 -0.112955	 0.721600	 -0.639267	 0.240566	 1
1463624356.450	 13	 -0.017019	 -0.009104	 0.015677	 1.889934	 -1.355309	 -0.743230	 -0.112916	 0.721660	 -0.639165	 0.240675	 1
1463624356.460	 13	 -0.013798	 -0.004859	 0.015689	 1.890445	 -1.355058	 -0.742653	 -0.112885	 0.721728	 -0.639068	 0.240747	 1
1463624356.470	 13	 -0.010573	 0.000450	 0.015710	 1.891100	 -1.354862	 -0.741996	 -0.112853	 0.721800	 -0.638981	 0.240776	 1
1463624356.480	 13	 -0.009486	 0.005758	 0.014684	 1.891576	 -1.354685	 -0.741573	 -0.112800	 0.721860	 -0.638916	 0.240790	 1
1463624356.490	 13	 -0.009485	 0.007870	 0.012572	 1.891915	 -1.354547	 -0.741304	 -0.112746	 0.721907	 -0.638871	 0.240793	 1
1463624356.500	 13	 -0.007355	 0.007856	 0.011487	 1.892322	 -1.354425	 -0.740980	 -0.112696	 0.721957	 -0.638828	 0.240784	 1
1463624356.510	 13	 -0.008432	 0.006787	 0.010422	 1.892519	 -1.354249	 -0.740851	 -0.112626	 0.722000	 -0.638783	 0.240805	 1
1463624356.520	 13	 -0.009509	 0.002551	 0.012525	 1.892359	 -1.354056	 -0.741038	 -0.112551	 0.722021	 -0.638752	 0.240858	 1
1463624356.530	 13	 -0.010611	 -0.007005	 0.014579	 1.891888	 -1.353828	 -0.741437	 -0.112487	 0.722023	 -0.638722	 0.240965	 1
1463624356.540	 13	 -0.008486	 -0.011251	 0.016653	 1.891239	 -1.353650	 -0.741960	 -0.112452	 0.722001	 -0.638708	 0.241084	 1
1463624356.550	 13	 -0.005257	 -0.005943	 0.016673	 1.890665	 -1.353587	 -0.742446	 -0.112441	 0.721969	 -0.638720	 0.241154	 1
1463624356.560	 13	 -0.000929	 0.007856	 0.014629	 1.890156	 -1.353603	 -0.742990	 -0.112412	 0.721936	 -0.638760	 0.241159	 1
1463624356.570	 13	 0.002318	 0.020579	 0.010454	 1.889731	 -1.353664	 -0.743585	 -0.112352	 0.721908	 -0.638822	 0.241105	 1
1463624356.580	 13	 0.002359	 0.028032	 0.011587	 1.889600	 -1.353645	 -0.743982	 -0.112244	 0.721918	 -0.638858	 0.241031	 1
1463624356.590	 13	 0.002373	 0.030167	 0.012671	 1.889651	 -1.353599	 -0.744236	 -0.112122	 0.721945	 -0.638881	 0.240944	 1
1463624356.600	 13	 0.001285	 0.024860	 0.013695	 1.889866	 -1.353556	 -0.744292	 -0.112020	 0.721981	 -0.638890	 0.240861	 1
1463624356.610	 13	 -0.004087	 0.019543	 0.011559	 1.890516	 -1.353495	 -0.743865	 -0.111948	 0.722045	 -0.638862	 0.240780	 1
1463624356.620	 13	 -0.010535	 0.011045	 0.010468	 1.891284	 -1.353475	 -0.743233	 -0.111925	 0.722105	 -0.638824	 0.240711	 1
1463624356.630	 13	 -0.012729	 0.000400	 0.008253	 1.892096	 -1.353514	 -0.742461	 -0.111956	 0.722153	 -0.638785	 0.240653	 1
1463624356.640	 13	 -0.014924	 -0.012358	 0.008150	 1.892598	 -1.353543	 -0.741864	 -0.112020	 0.722176	 -0.638748	 0.240654	 1
1463624356.650	 13	 -0.017100	 -0.019813	 0.005965	 1.892691	 -1.353605	 -0.741561	 -0.112119	 0.722160	 -0.638731	 0.240700	 1
1463624356.660	 13	 -0.012829	 -0.019826	 0.005924	 1.892558	 -1.353676	 -0.741465	 -0.112218	 0.722128	 -0.638728	 0.240758	 1
1463624356.670	 13	 -0.006389	 -0.013456	 0.006992	 1.892354	 -1.353694	 -0.741499	 -0.112276	 0.722103	 -0.638725	 0.240816	 1
1463624356.680	 13	 -0.004232	 -0.007096	 0.004899	 1.892194	 -1.353739	 -0.741571	 -0.112315	 0.722080	 -0.638735	 0.240838	 1
1463624356.690	 13	 0.001119	 -0.006034	 0.006992	 1.891799	 -1.353739	 -0.741902	 -0.112321	 0.722052	 -0.638753	 0.240875	 1
1463624356.700	 13	 0.002175	 -0.009220	 0.008020	 1.891422	 -1.353626	 -0.742195	 -0.112301	 0.722040	 -0.638741	 0.240949	 1
1463624356.710	 13	 0.002169	 -0.011340	 0.009068	 1.891060	 -1.353456	 -0.742443	 -0.112276	 0.722037	 -0.638712	 0.241049	 1
1463624356.720	 13	 0.003282	 -0.003874	 0.012328	 1.890856	 -1.353237	 -0.742603	 -0.112217	 0.722055	 -0.638670	 0.241135	 1
1463624356.730	 13	 0.002282	 0.009965	 0.013533	 1.891131	 -1.352990	 -0.742410	 -0.112123	 0.722115	 -0.638606	 0.241167	 1
1463624356.740	 13	 0.001253	 0.019534	 0.012565	 1.891829	 -1.352791	 -0.741909	 -0.112020	 0.722202	 -0.638539	 0.241132	 1
1463624356.750	 13	 -0.000876	 0.023773	 0.009425	 1.892434	 -1.352728	 -0.741552	 -0.111937	 0.722264	 -0.638515	 0.241045	 1
1463624356.760	 13	 -0.005189	 0.017381	 0.006203	 1.893019	 -1.352734	 -0.741163	 -0.111892	 0.722312	 -0.638503	 0.240956	 1
1463624356.770	 13	 -0.004142	 0.013123	 0.006153	 1.893261	 -1.352722	 -0.741055	 -0.111851	 0.722337	 -0.638500	 0.240907	 1
1463624356.780	 13	 -0.003074	 0.012063	 0.007199	 1.893247	 -1.352693	 -0.741182	 -0.111800	 0.722347	 -0.638508	 0.240880	 1
1463624356.790	 13	 0.000149	 0.015252	 0.008265	 1.893062	 -1.352706	 -0.741511	 -0.111745	 0.722341	 -0.638540	 0.240838	 1
1463624356.800	 13	 0.002319	 0.021635	 0.009369	 1.892936	 -1.352738	 -0.741839	 -0.111676	 0.722339	 -0.638580	 0.240769	 1
1463624356.810	 13	 0.002330	 0.024819	 0.008330	 1.892964	 -1.352792	 -0.742054	 -0.111606	 0.722346	 -0.638620	 0.240675	 1
1463624356.820	 13	 0.003483	 0.028005	 0.009332	 1.893183	 -1.352797	 -0.742122	 -0.111513	 0.722376	 -0.638641	 0.240574	 1
1463624356.830	 13	 0.001353	 0.028019	 0.010415	 1.893419	 -1.352823	 -0.742169	 -0.111429	 0.722403	 -0.638666	 0.240465	 1
1463624356.840	 13	 0.001337	 0.025885	 0.009327	 1.894032	 -1.352856	 -0.741843	 -0.111361	 0.722453	 -0.638669	 0.240339	 1
1463624356.850	 13	 -0.001915	 0.016314	 0.008197	 1.894599	 -1.352917	 -0.741479	 -0.111329	 0.722492	 -0.638670	 0.240233	 1
1463624356.870	 14	 -0.010641	 -0.019856	 0.003669	 1.895177	 -1.353014	 -0.740760	 -0.111434	 0.722506	 -0.638639	 0.240226	 1
1463624356.880	 14	 -0.011718	 -0.023036	 0.004712	 1.895253	 -1.353068	 -0.740434	 -0.111544	 0.722488	 -0.638616	 0.240287	 1
1463624356.890	 14	 -0.010607	 -0.012419	 0.002668	 1.895291	 -1.353107	 -0.740221	 -0.111621	 0.722475	 -0.638601	 0.240331	 1
1463624356.900	 14	 -0.005190	 0.003528	 0.003835	 1.895236	 -1.353083	 -0.740255	 -0.111619	 0.722474	 -0.638597	 0.240346	 1
1463624356.910	 14	 0.002316	 0.012007	 0.002783	 1.895092	 -1.353087	 -0.740502	 -0.111577	 0.722470	 -0.638620	 0.240318	 1
1463624356.920	 14	 0.004452	 0.012000	 0.002764	 1.894708	 -1.353088	 -0.740994	 -0.111522	 0.722451	 -0.638657	 0.240300	 1
1463624356.930	 14	 0.002292	 0.006688	 0.002734	 1.894490	 -1.353053	 -0.741291	 -0.111474	 0.722447	 -0.638673	 0.240293	 1
1463624356.940	 14	 -0.000921	 0.002458	 0.004854	 1.894595	 -1.352964	 -0.741220	 -0.111439	 0.722469	 -0.638650	 0.240303	 1
1463624356.950	 14	 -0.006271	 0.000339	 0.003816	 1.894715	 -1.352915	 -0.741105	 -0.111427	 0.722485	 -0.638632	 0.240311	 1
1463624356.960	 14	 -0.011617	 -0.001772	 0.003842	 1.895046	 -1.352838	 -0.740751	 -0.111426	 0.722517	 -0.638590	 0.240326	 1
1463624356.970	 14	 -0.012669	 -0.000690	 0.005993	 1.895219	 -1.352800	 -0.740551	 -0.111431	 0.722532	 -0.638567	 0.240338	 1
1463624356.990	 15	 -0.002994	 0.013107	 0.006036	 1.894558	 -1.352733	 -0.741310	 -0.111348	 0.722506	 -0.638606	 0.240354	 1
1463624357.000	 15	 0.004519	 0.022650	 0.004993	 1.894171	 -1.352783	 -0.741902	 -0.111272	 0.722484	 -0.638667	 0.240290	 1
1463624357.010	 15	 0.009883	 0.029008	 0.003937	 1.893735	 -1.352941	 -0.742616	 -0.111202	 0.722447	 -0.638765	 0.240175	 1
1463624357.020	 15	 0.013077	 0.030038	 0.000720	 1.893497	 -1.353075	 -0.743168	 -0.111120	 0.722429	 -0.638848	 0.240046	 1
1463624357.030	 15	 0.013061	 0.026848	 0.000688	 1.893446	 -1.353199	 -0.743522	 -0.111046	 0.722423	 -0.638916	 0.239916	 1
1463624357.040	 15	 0.004481	 0.017308	 0.001739	 1.893859	 -1.353251	 -0.743322	 -0.111002	 0.722454	 -0.638927	 0.239816	 1
1463624357.050	 15	 -0.001975	 0.004579	 0.003807	 1.894318	 -1.353229	 -0.742956	 -0.110981	 0.722492	 -0.638903	 0.239774	 1
1463624357.060	 15	 -0.009482	 -0.003900	 0.004860	 1.894763	 -1.353100	 -0.742490	 -0.110968	 0.722539	 -0.638843	 0.239798	 1
1463624357.070	 15	 -0.011618	 -0.007062	 0.008047	 1.894754	 -1.353008	 -0.742418	 -0.110968	 0.722548	 -0.638813	 0.239851	 1
1463624357.080	 15	 -0.010519	 -0.001739	 0.009153	 1.894572	 -1.352906	 -0.742542	 -0.110951	 0.722549	 -0.638794	 0.239906	 1
1463624357.090	 15	 -0.005107	 0.012087	 0.011365	 1.894340	 -1.352849	 -0.742843	 -0.110899	 0.722547	 -0.638804	 0.239910	 1
1463624357.100	 15	 0.003508	 0.028016	 0.011437	 1.893900	 -1.352869	 -0.743509	 -0.110805	 0.722528	 -0.638864	 0.239851	 1
1463624357.110	 15	 0.011045	 0.041821	 0.011497	 1.893637	 -1.352943	 -0.744171	 -0.110672	 0.722521	 -0.638946	 0.239713	 1
1463624357.120	 15	 0.016392	 0.046045	 0.009354	 1.893590	 -1.353065	 -0.744699	 -0.110534	 0.722526	 -0.639035	 0.239526	 1
1463624357.130	 15	 0.016348	 0.039640	 0.006095	 1.893653	 -1.353190	 -0.745090	 -0.110411	 0.722536	 -0.639113	 0.239343	 1
1463624357.140	 15	 0.013045	 0.019432	 0.004867	 1.893621	 -1.353287	 -0.745411	 -0.110334	 0.722535	 -0.639172	 0.239224	 1
1463624357.150	 15	 0.003326	 -0.003947	 0.003667	 1.893360	 -1.353331	 -0.745699	 -0.110327	 0.722513	 -0.639202	 0.239214	 1
1463624357.160	 15	 -0.001015	 -0.020938	 0.005677	 1.893196	 -1.353332	 -0.745695	 -0.110381	 0.722493	 -0.639193	 0.239275	 1
1463624357.170	 15	 -0.006364	 -0.022001	 0.003582	 1.892959	 -1.353328	 -0.745697	 -0.110455	 0.722465	 -0.639179	 0.239360	 1
1463624357.180	 15	 -0.004180	 -0.013483	 0.005773	 1.892818	 -1.353303	 -0.745675	 -0.110501	 0.722451	 -0.639163	 0.239425	 1
1463624357.190	 15	 -0.001975	 0.000346	 0.006948	 1.892675	 -1.353251	 -0.745780	 -0.110492	 0.722448	 -0.639156	 0.239458	 1
1463624357.200	 15	 0.004470	 0.009892	 0.005915	 1.892371	 -1.353206	 -0.746163	 -0.110438	 0.722439	 -0.639175	 0.239459	 1
1463624357.210	 15	 0.008753	 0.013070	 0.005907	 1.892155	 -1.353190	 -0.746526	 -0.110370	 0.722436	 -0.639203	 0.239425	 1
1463624357.220	 15	 0.007700	 0.014152	 0.008057	 1.891941	 -1.353159	 -0.746895	 -0.110296	 0.722436	 -0.639228	 0.239394	 1
1463624357.230	 15	 0.006634	 0.013108	 0.010187	 1.892100	 -1.353114	 -0.746894	 -0.110232	 0.722462	 -0.639226	 0.239349	 1
1463624357.240	 15	 0.004483	 0.009924	 0.010174	 1.892293	 -1.353100	 -0.746825	 -0.110191	 0.722483	 -0.639225	 0.239306	 1
1463624357.250	 15	 -0.000904	 0.000359	 0.009063	 1.892877	 -1.353174	 -0.746291	 -0.110220	 0.722512	 -0.639211	 0.239244	 1
1463624357.260	 15	 -0.005227	 -0.007104	 0.004764	 1.893579	 -1.353257	 -0.745552	 -0.110288	 0.722542	 -0.639180	 0.239203	 1
1463624357.270	 15	 -0.009563	 -0.017758	 0.000436	 1.894179	 -1.353389	 -0.744796	 -0.110409	 0.722552	 -0.639153	 0.239190	 1
1463624357.280	 15	 -0.012795	 -0.023075	 -0.000654	 1.894749	 -1.353442	 -0.744004	 -0.110529	 0.722568	 -0.639102	 0.239222	 1
1463624357.290	 15	 -0.013875	 -0.025207	 -0.001731	 1.894902	 -1.353472	 -0.743578	 -0.110643	 0.722559	 -0.639066	 0.239294	 1
1463624357.300	 15	 -0.009582	 -0.022013	 0.000393	 1.894937	 -1.353472	 -0.743291	 -0.110736	 0.722547	 -0.639033	 0.239374	 1
1463624357.310	 15	 -0.002053	 -0.011384	 0.002557	 1.894952	 -1.353469	 -0.743132	 -0.110788	 0.722540	 -0.639014	 0.239420	 1
1463624357.320	 15	 0.004411	 0.001361	 0.002619	 1.894785	 -1.353482	 -0.743284	 -0.110790	 0.722527	 -0.639027	 0.239428	 1
1463624357.330	 15	 0.010830	 0.003485	 0.004715	 1.894818	 -1.353398	 -0.743307	 -0.110746	 0.722545	 -0.639012	 0.239432	 1
1463624357.350	 16	 0.007573	 -0.009245	 0.007823	 1.895107	 -1.353185	 -0.743036	 -0.110686	 0.722597	 -0.638947	 0.239475	 1
1463624357.370	 17	 -0.008501	 -0.023016	 0.008902	 1.895840	 -1.352868	 -0.741954	 -0.110747	 0.722674	 -0.638785	 0.239647	 1
1463624357.380	 17	 -0.010596	 -0.014500	 0.008999	 1.896262	 -1.352746	 -0.741358	 -0.110790	 0.722711	 -0.638709	 0.239719	 1
1463624357.390	 17	 -0.009487	 -0.004938	 0.008012	 1.896395	 -1.352661	 -0.741140	 -0.110801	 0.722728	 -0.638671	 0.239765	 1
1463624357.400	 17	 -0.006247	 0.004609	 0.005940	 1.896196	 -1.352667	 -0.741348	 -0.110791	 0.722714	 -0.638686	 0.239769	 1
1463624357.410	 17	 0.001242	 0.007778	 0.005902	 1.895735	 -1.352747	 -0.741871	 -0.110774	 0.722676	 -0.638742	 0.239746	 1
1463624357.420	 17	 0.009800	 0.010950	 0.006921	 1.895066	 -1.352822	 -0.742641	 -0.110732	 0.722627	 -0.638814	 0.239720	 1
1463624357.430	 17	 0.015152	 0.014125	 0.006901	 1.894494	 -1.352974	 -0.743359	 -0.110701	 0.722574	 -0.638903	 0.239654	 1
1463624357.440	 17	 0.014118	 0.013016	 0.003673	 1.894177	 -1.353117	 -0.743829	 -0.110676	 0.722540	 -0.638975	 0.239578	 1
1463624357.450	 17	 0.004494	 0.009846	 0.002659	 1.894354	 -1.353242	 -0.743780	 -0.110676	 0.722540	 -0.639007	 0.239494	 1
1463624357.460	 17	 -0.001955	 0.000293	 0.002623	 1.894682	 -1.353380	 -0.743494	 -0.110716	 0.722542	 -0.639023	 0.239427	 1
1463624357.470	 17	 -0.007326	 -0.008193	 0.003655	 1.894812	 -1.353480	 -0.743297	 -0.110776	 0.722531	 -0.639029	 0.239415	 1
1463624357.480	 17	 -0.005206	 -0.011391	 0.003605	 1.894740	 -1.353540	 -0.743252	 -0.110834	 0.722511	 -0.639034	 0.239438	 1
1463624357.490	 17	 -0.002008	 -0.012464	 0.003565	 1.894481	 -1.353642	 -0.743385	 -0.110899	 0.722471	 -0.639058	 0.239459	 1
1463624357.500	 17	 -0.000955	 -0.015658	 0.003524	 1.894120	 -1.353749	 -0.743601	 -0.110970	 0.722423	 -0.639089	 0.239491	 1
1463624357.510	 17	 -0.004182	 -0.018863	 0.000323	 1.893654	 -1.353866	 -0.743871	 -0.111056	 0.722365	 -0.639122	 0.239539	 1
1463624357.520	 17	 -0.003113	 -0.019923	 0.001368	 1.893088	 -1.353975	 -0.744228	 -0.111141	 0.722300	 -0.639158	 0.239599	 1
1463624357.530	 17	 0.000100	 -0.017806	 0.001359	 1.892607	 -1.354044	 -0.744519	 -0.111211	 0.722248	 -0.639182	 0.239660	 1
1463624357.540	 17	 0.001168	 -0.017809	 0.001349	 1.892156	 -1.354091	 -0.744788	 -0.111273	 0.722202	 -0.639200	 0.239723	 1
1463624357.550	 17	 0.003297	 -0.018879	 0.001320	 1.891772	 -1.354103	 -0.744989	 -0.111326	 0.722165	 -0.639205	 0.239794	 1
1463624357.560	 17	 0.002215	 -0.022067	 0.001300	 1.891307	 -1.354109	 -0.745243	 -0.111385	 0.722122	 -0.639211	 0.239879	 1
1463624357.570	 17	 0.000081	 -0.022061	 0.001318	 1.891029	 -1.354149	 -0.745301	 -0.111465	 0.722086	 -0.639212	 0.239949	 1
1463624357.580	 17	 -0.000955	 -0.015676	 0.001386	 1.890814	 -1.354157	 -0.745338	 -0.111523	 0.722061	 -0.639206	 0.240013	 1
1463624357.590	 17	 -0.003068	 -0.012563	 0.000507	 1.890427	 -1.354160	 -0.745579	 -0.111560	 0.722028	 -0.639214	 0.240075	 1
1463624357.600	 17	 -0.001995	 -0.010447	 -0.000549	 1.890264	 -1.354158	 -0.745626	 -0.111595	 0.722011	 -0.639210	 0.240119	 1
1463624357.610	 17	 0.000141	 -0.010454	 -0.000567	 1.889838	 -1.354206	 -0.745943	 -0.111631	 0.721970	 -0.639235	 0.240158	 1
1463624357.620	 17	 0.003347	 -0.010456	 0.000470	 1.889471	 -1.354258	 -0.746205	 -0.111670	 0.721933	 -0.639258	 0.240192	 1
1463624357.630	 17	 0.008698	 -0.007281	 0.000451	 1.889126	 -1.354381	 -0.746470	 -0.111722	 0.721887	 -0.639298	 0.240196	 1
1463624357.640	 17	 0.009791	 -0.000910	 -0.000566	 1.888898	 -1.354491	 -0.746683	 -0.111752	 0.721855	 -0.639336	 0.240179	 1
1463624357.650	 17	 0.006585	 0.000148	 -0.002661	 1.889110	 -1.354597	 -0.746497	 -0.111784	 0.721854	 -0.639350	 0.240132	 1
1463624357.660	 17	 0.002261	 -0.009427	 -0.004845	 1.889398	 -1.354670	 -0.746158	 -0.111836	 0.721858	 -0.639342	 0.240115	 1
1463624357.670	 17	 -0.004185	 -0.020029	 -0.002756	 1.889797	 -1.354678	 -0.745590	 -0.111916	 0.721873	 -0.639298	 0.240151	 1
1463624357.680	 17	 -0.008479	 -0.025334	 -0.002769	 1.890080	 -1.354722	 -0.745054	 -0.112032	 0.721870	 -0.639259	 0.240207	 1
1463624357.700	 18	 -0.007388	 -0.022131	 -0.000617	 1.890074	 -1.354750	 -0.744564	 -0.112220	 0.721838	 -0.639206	 0.240358	 1
1463624357.710	 18	 -0.008459	 -0.023192	 -0.000617	 1.889728	 -1.354713	 -0.744656	 -0.112286	 0.721807	 -0.639190	 0.240464	 1
1463624357.720	 18	 -0.005241	 -0.021067	 0.000441	 1.889009	 -1.354680	 -0.745125	 -0.112336	 0.721752	 -0.639198	 0.240583	 1
1463624357.730	 18	 0.000132	 -0.014694	 0.001520	 1.888258	 -1.354645	 -0.745692	 -0.112361	 0.721699	 -0.639216	 0.240683	 1
1463624357.740	 18	 0.007664	 -0.003009	 0.002630	 1.887130	 -1.354635	 -0.746751	 -0.112336	 0.721624	 -0.639278	 0.240754	 1
1463624357.750	 18	 0.013046	 0.004435	 0.004784	 1.885660	 -1.354686	 -0.748242	 -0.112284	 0.721523	 -0.639386	 0.240794	 1
1463624357.760	 18	 0.016256	 0.007601	 0.002654	 1.884566	 -1.354758	 -0.749413	 -0.112233	 0.721446	 -0.639482	 0.240793	 1
1463624357.770	 18	 0.016255	 0.008525	 0.001706	 1.883701	 -1.354860	 -0.750371	 -0.112196	 0.721380	 -0.639572	 0.240769	 1
1463624357.780	 18	 0.014122	 0.009588	 0.000667	 1.883235	 -1.354962	 -0.750950	 -0.112167	 0.721341	 -0.639639	 0.240723	 1
1463624357.800	 19	 0.007699	 0.006408	 -0.000372	 1.882458	 -1.355060	 -0.751886	 -0.112108	 0.721285	 -0.639730	 0.240676	 1
1463624357.810	 19	 0.007719	 0.008551	 0.001778	 1.882015	 -1.355117	 -0.752408	 -0.112079	 0.721253	 -0.639781	 0.240652	 1
1463624357.820	 19	 0.009868	 0.011735	 0.001789	 1.881750	 -1.355162	 -0.752789	 -0.112040	 0.721235	 -0.639822	 0.240613	 1
1463624357.830	 19	 0.010942	 0.013851	 0.000732	 1.881167	 -1.355280	 -0.753517	 -0.112000	 0.721188	 -0.639903	 0.240556	 1
1463624357.840	 19	 0.014161	 0.019145	 -0.001379	 1.880628	 -1.355399	 -0.754241	 -0.111948	 0.721146	 -0.639987	 0.240484	 1
1463624357.850	 19	 0.014154	 0.022297	 -0.006680	 1.880587	 -1.355611	 -0.754516	 -0.111927	 0.721124	 -0.640065	 0.240350	 1
1463624357.860	 19	 0.009857	 0.023312	 -0.015163	 1.880653	 -1.355979	 -0.754700	 -0.111952	 0.721087	 -0.640174	 0.240162	 1
1463624357.870	 19	 0.003425	 0.023277	 -0.022571	 1.881213	 -1.356411	 -0.754374	 -0.112023	 0.721071	 -0.640263	 0.239940	 1
1463624357.880	 19	 0.005589	 0.022268	 -0.014073	 1.881176	 -1.356636	 -0.754617	 -0.112017	 0.721046	 -0.640340	 0.239811	 1
1463624357.890	 19	 0.005630	 0.024450	 -0.006591	 1.880879	 -1.356656	 -0.755147	 -0.111927	 0.721037	 -0.640392	 0.239742	 1
1463624357.900	 19	 0.004586	 0.020275	 0.004039	 1.880114	 -1.356566	 -0.756108	 -0.111797	 0.721013	 -0.640444	 0.239737	 1
1463624357.910	 19	 0.003579	 0.029874	 0.007335	 1.879544	 -1.356463	 -0.756941	 -0.111648	 0.721006	 -0.640489	 0.239705	 1
1463624357.920	 19	 0.003697	 0.044736	 0.021556	 1.878899	 -1.356221	 -0.757984	 -0.111404	 0.721024	 -0.640524	 0.239673	 1
1463624357.930	 19	 0.007028	 0.063942	 0.031299	 1.878431	 -1.355873	 -0.759050	 -0.111063	 0.721079	 -0.640548	 0.239601	 1
1463624357.940	 19	 -0.001338	 0.093804	 0.039110	 1.878904	 -1.355494	 -0.759452	 -0.110650	 0.721215	 -0.640538	 0.239411	 1
1463624357.950	 19	 -0.013983	 0.127880	 0.039537	 1.880788	 -1.355110	 -0.758781	 -0.110171	 0.721461	 -0.640475	 0.239057	 1
1463624357.960	 19	 -0.025528	 0.167287	 0.042134	 1.883514	 -1.354654	 -0.757624	 -0.109575	 0.721791	 -0.640385	 0.238575	 1
1463624357.970	 19	 -0.032843	 0.205556	 0.036158	 1.887162	 -1.354267	 -0.755953	 -0.108892	 0.722193	 -0.640298	 0.237905	 1
1463624357.980	 19	 -0.086926	 0.280152	 0.034123	 1.892761	 -1.353902	 -0.752864	 -0.108104	 0.722746	 -0.640152	 0.236976	 1
1463624357.990	 19	 -0.106896	 0.354585	 0.023263	 1.901092	 -1.353508	 -0.747858	 -0.107128	 0.723521	 -0.639919	 0.235678	 1
1463624358.000	 19	 -0.094291	 0.339424	 -0.008965	 1.909871	 -1.353455	 -0.742488	 -0.106247	 0.724274	 -0.639745	 0.234234	 1
1463624358.010	 19	 -0.070591	 0.199678	 -0.056304	 1.916255	 -1.353939	 -0.738518	 -0.105789	 0.724733	 -0.639731	 0.233054	 1
1463624358.020	 19	 0.011443	 -0.045327	 -0.074224	 1.910668	 -1.355517	 -0.743735	 -0.106164	 0.724111	 -0.640408	 0.232960	 1
1463624358.030	 19	 0.118497	 0.022468	 -0.069196	 1.908976	 -1.356302	 -0.745566	 -0.106281	 0.723888	 -0.640712	 0.232763	 1
1463624358.040	 19	 0.099997	 -0.046670	 -0.077138	 1.905103	 -1.357396	 -0.749318	 -0.106496	 0.723466	 -0.641194	 0.232650	 1
1463624358.050	 19	 0.036869	 -0.104783	 -0.049420	 1.902746	 -1.358118	 -0.750727	 -0.106961	 0.723155	 -0.641397	 0.232844	 1
1463624358.060	 19	 -0.001126	 -0.041687	 -0.017595	 1.902207	 -1.358373	 -0.750623	 -0.107249	 0.723047	 -0.641414	 0.233000	 1
1463624358.070	 19	 -0.034724	 0.068986	 -0.005387	 1.905219	 -1.357765	 -0.748026	 -0.107038	 0.723353	 -0.641134	 0.232917	 1
1463624358.080	 19	 -0.073776	 0.162684	 -0.007373	 1.909493	 -1.357623	 -0.745094	 -0.106686	 0.723716	 -0.640989	 0.232351	 1
1463624358.090	 19	 -0.111894	 0.225555	 -0.006456	 1.916185	 -1.357346	 -0.740402	 -0.106157	 0.724286	 -0.640737	 0.231511	 1
1463624358.100	 19	 -0.137198	 0.282075	 0.003882	 1.924553	 -1.356880	 -0.734583	 -0.105444	 0.725019	 -0.640399	 0.230474	 1
1463624358.110	 19	 -0.146550	 0.331072	 0.009749	 1.934347	 -1.356216	 -0.727845	 -0.104555	 0.725898	 -0.639983	 0.229265	 1
1463624358.120	 19	 -0.146428	 0.352383	 0.015275	 1.943862	 -1.355568	 -0.721684	 -0.103556	 0.726771	 -0.639620	 0.227962	 1
1463624358.130	 19	 -0.163717	 0.286665	 0.039327	 1.953169	 -1.354664	 -0.715297	 -0.102635	 0.727650	 -0.639156	 0.226871	 1
1463624358.140	 19	 -0.141771	 0.219324	 0.002273	 1.961430	 -1.353938	 -0.709205	 -0.102000	 0.728396	 -0.638713	 0.226011	 1
1463624358.160	 20	 -0.111407	 0.154902	 -0.068942	 1.978319	 -1.354932	 -0.695948	 -0.101730	 0.729450	 -0.638327	 0.223815	 1
1463624358.170	 20	 -0.091201	 0.141005	 -0.070313	 1.985125	 -1.355193	 -0.690473	 -0.101631	 0.729886	 -0.638126	 0.223008	 1
1463624358.180	 20	 -0.069934	 0.120770	 -0.065358	 1.990719	 -1.355492	 -0.686032	 -0.101554	 0.730231	 -0.637990	 0.222302	 1
1463624358.190	 20	 -0.059269	 0.119667	 -0.066528	 1.995030	 -1.356016	 -0.682802	 -0.101509	 0.730453	 -0.637982	 0.221616	 1
1463624358.200	 20	 -0.061378	 0.126047	 -0.067516	 2.000123	 -1.356384	 -0.678879	 -0.101422	 0.730752	 -0.637899	 0.220908	 1
1463624358.210	 20	 -0.068843	 0.127133	 -0.067441	 2.005471	 -1.356717	 -0.674702	 -0.101339	 0.731070	 -0.637794	 0.220197	 1
1463624358.220	 20	 -0.073077	 0.136695	 -0.070514	 2.010800	 -1.357234	 -0.670612	 -0.101282	 0.731355	 -0.637746	 0.219414	 1
1463624358.230	 20	 -0.070928	 0.141903	 -0.069215	 2.016580	 -1.357564	 -0.666140	 -0.101168	 0.731701	 -0.637633	 0.218639	 1
1463624358.240	 20	 -0.066605	 0.152535	 -0.068088	 2.022322	 -1.357889	 -0.661792	 -0.101021	 0.732048	 -0.637532	 0.217837	 1
1463624358.250	 20	 -0.062292	 0.161039	 -0.066981	 2.027874	 -1.358210	 -0.657737	 -0.100826	 0.732388	 -0.637455	 0.217012	 1
1463624358.260	 20	 -0.056957	 0.163127	 -0.070205	 2.032388	 -1.358625	 -0.654731	 -0.100605	 0.732648	 -0.637464	 0.216208	 1
1463624358.270	 20	 -0.055812	 0.179078	 -0.070065	 2.037348	 -1.358984	 -0.651423	 -0.100336	 0.732949	 -0.637450	 0.215350	 1
1463624358.280	 20	 -0.062100	 0.202506	 -0.068726	 2.043294	 -1.359270	 -0.647343	 -0.100016	 0.733330	 -0.637384	 0.214396	 1
1463624358.290	 20	 -0.069379	 0.242947	 -0.068287	 2.050396	 -1.359523	 -0.642479	 -0.099607	 0.733798	 -0.637285	 0.213275	 1
1463624358.300	 20	 -0.080941	 0.281267	 -0.068896	 2.058645	 -1.359805	 -0.636862	 -0.099118	 0.734342	 -0.637172	 0.211964	 1
1463624358.310	 20	 -0.090413	 0.304735	 -0.063267	 2.066816	 -1.359955	 -0.631582	 -0.098495	 0.734915	 -0.637058	 0.210606	 1
1463624358.320	 20	 -0.096768	 0.304839	 -0.051487	 2.074609	 -1.359962	 -0.626723	 -0.097802	 0.735493	 -0.636933	 0.209287	 1
1463624358.330	 20	 -0.096813	 0.283666	 -0.037827	 2.081587	 -1.359799	 -0.622516	 -0.097083	 0.736049	 -0.636790	 0.208101	 1
1463624358.340	 20	 -0.092657	 0.249700	 -0.026455	 2.087662	 -1.359643	 -0.618915	 -0.096433	 0.736536	 -0.636667	 0.207051	 1
1463624358.360	 21	 -0.078095	 0.158271	 -0.014642	 2.096590	 -1.359299	 -0.613586	 -0.095462	 0.737270	 -0.636452	 0.205544	 1
1463624358.370	 21	 -0.067565	 0.117904	 -0.003384	 2.098864	 -1.358969	 -0.612476	 -0.095060	 0.737517	 -0.636356	 0.205142	 1
1463624358.380	 21	 -0.058071	 0.081818	 0.011122	 2.100309	 -1.358479	 -0.611859	 -0.094697	 0.737735	 -0.636227	 0.204928	 1
1463624358.390	 21	 -0.041097	 0.045725	 0.027694	 2.100181	 -1.357858	 -0.612465	 -0.094349	 0.737875	 -0.636112	 0.204938	 1
1463624358.400	 21	 -0.024175	 -0.001005	 0.044168	 2.098590	 -1.357194	 -0.614120	 -0.094067	 0.737924	 -0.636025	 0.205165	 1
1463624358.410	 21	 -0.008290	 -0.035022	 0.053308	 2.096384	 -1.356574	 -0.616039	 -0.093894	 0.737912	 -0.635948	 0.205525	 1
1463624358.420	 21	 -0.005083	 -0.038183	 0.058581	 2.094956	 -1.355940	 -0.617097	 -0.093788	 0.737941	 -0.635816	 0.205875	 1
1463624358.430	 21	 -0.008200	 -0.020091	 0.058776	 2.094511	 -1.355331	 -0.617333	 -0.093680	 0.738028	 -0.635653	 0.206117	 1
1463624358.440	 21	 -0.021937	 0.010782	 0.057049	 2.095303	 -1.354824	 -0.616619	 -0.093556	 0.738177	 -0.635477	 0.206180	 1
1463624358.450	 21	 -0.032520	 0.028904	 0.058372	 2.096604	 -1.354385	 -0.615576	 -0.093410	 0.738350	 -0.635310	 0.206141	 1
1463624358.460	 21	 -0.036678	 0.073415	 0.034301	 2.100891	 -1.354319	 -0.611961	 -0.093365	 0.738636	 -0.635120	 0.205723	 1
1463624358.470	 21	 -0.036575	 0.113681	 0.013351	 2.106053	 -1.354447	 -0.607898	 -0.093261	 0.738951	 -0.634979	 0.205074	 1
1463624358.480	 21	 -0.029121	 0.124180	 -0.002610	 2.110529	 -1.354736	 -0.604663	 -0.093112	 0.739200	 -0.634936	 0.204375	 1
1463624358.490	 21	 -0.023799	 0.125197	 -0.006913	 2.114245	 -1.354835	 -0.602211	 -0.092865	 0.739445	 -0.634886	 0.203756	 1
1463624358.500	 21	 -0.013224	 0.098628	 0.000208	 2.115735	 -1.354747	 -0.601770	 -0.092532	 0.739594	 -0.634886	 0.203366	 1
1463624358.510	 21	 0.000485	 0.052940	 0.012456	 2.114659	 -1.354545	 -0.603451	 -0.092199	 0.739603	 -0.634951	 0.203280	 1
1463624358.520	 21	 0.010020	 0.025364	 0.027041	 2.112514	 -1.354213	 -0.605895	 -0.091888	 0.739565	 -0.635009	 0.203380	 1
1463624358.530	 21	 0.023847	 0.008365	 0.035291	 2.110101	 -1.353912	 -0.608432	 -0.091637	 0.739497	 -0.635072	 0.203542	 1
1463624358.540	 21	 0.033430	 -0.004359	 0.044681	 2.107421	 -1.353728	 -0.611138	 -0.091438	 0.739386	 -0.635174	 0.203719	 1
1463624358.550	 21	 0.033438	 -0.004343	 0.046809	 2.105592	 -1.353776	 -0.612996	 -0.091345	 0.739274	 -0.635293	 0.203793	 1
1463624358.560	 21	 0.031304	 0.001992	 0.039421	 2.104605	 -1.353960	 -0.614054	 -0.091317	 0.739185	 -0.635407	 0.203776	 1
1463624358.570	 21	 0.004796	 0.058268	 0.015663	 2.103968	 -1.353835	 -0.615113	 -0.091094	 0.739194	 -0.635451	 0.203706	 1
1463624358.580	 21	 -0.019630	 0.085974	 0.012936	 2.105130	 -1.353643	 -0.614781	 -0.090797	 0.739335	 -0.635417	 0.203430	 1
1463624358.590	 21	 -0.035678	 0.093328	 -0.006040	 2.107250	 -1.353485	 -0.613522	 -0.090547	 0.739526	 -0.635342	 0.203086	 1
1463624358.600	 21	 -0.032601	 0.075167	 -0.015832	 2.110788	 -1.353755	 -0.610796	 -0.090502	 0.739707	 -0.635300	 0.202576	 1
1463624358.610	 21	 -0.016818	 0.037806	 -0.028043	 2.112890	 -1.354060	 -0.609135	 -0.090530	 0.739783	 -0.635312	 0.202250	 1
1463624358.620	 21	 -0.012620	 0.022902	 -0.028218	 2.114162	 -1.354275	 -0.608079	 -0.090573	 0.739820	 -0.635322	 0.202062	 1
1463624358.630	 21	 -0.009385	 0.020842	 -0.017606	 2.114566	 -1.354274	 -0.607848	 -0.090530	 0.739850	 -0.635317	 0.201986	 1
1463624358.640	 21	 -0.001832	 0.029406	 -0.006933	 2.114849	 -1.354228	 -0.607812	 -0.090441	 0.739886	 -0.635314	 0.201904	 1
1463624358.650	 21	 0.006768	 0.034768	 0.002634	 2.115189	 -1.354195	 -0.607823	 -0.090321	 0.739928	 -0.635321	 0.201783	 1
1463624358.660	 21	 0.015293	 0.027343	 0.008885	 2.115850	 -1.354166	 -0.607497	 -0.090224	 0.739986	 -0.635310	 0.201649	 1
1463624358.670	 21	 0.012034	 0.012493	 0.013035	 2.117069	 -1.354217	 -0.606514	 -0.090214	 0.740054	 -0.635280	 0.201498	 1
1463624358.680	 21	 0.004464	 -0.007693	 0.012908	 2.118828	 -1.354295	 -0.604799	 -0.090310	 0.740138	 -0.635208	 0.201372	 1
1463624358.690	 21	 -0.010609	 -0.033191	 0.010665	 2.120802	 -1.354481	 -0.602608	 -0.090543	 0.740199	 -0.635129	 0.201291	 1
1463624358.700	 21	 -0.022490	 -0.055553	 0.002028	 2.123046	 -1.354710	 -0.599878	 -0.090901	 0.740255	 -0.635020	 0.201271	 1
1463624358.710	 21	 -0.030038	 -0.059885	 -0.011807	 2.125596	 -1.354954	 -0.596745	 -0.091315	 0.740318	 -0.634889	 0.201262	 1
1463624358.720	 21	 -0.034313	 -0.050392	 -0.024475	 2.128114	 -1.355248	 -0.593673	 -0.091730	 0.740370	 -0.634778	 0.201233	 1
1463624358.730	 21	 -0.035341	 -0.037663	 -0.029679	 2.130231	 -1.355436	 -0.591114	 -0.092055	 0.740427	 -0.634670	 0.201215	 1
1463624358.740	 21	 -0.031013	 -0.028080	 -0.026429	 2.131303	 -1.355443	 -0.589680	 -0.092247	 0.740467	 -0.634577	 0.201272	 1
1463624358.750	 21	 -0.023435	 -0.017366	 -0.012537	 2.131274	 -1.355311	 -0.589451	 -0.092306	 0.740481	 -0.634516	 0.201387	 1
1463624358.760	 21	 -0.012729	 -0.019449	 -0.001989	 2.129983	 -1.355159	 -0.590507	 -0.092286	 0.740431	 -0.634520	 0.201568	 1
1463624358.771	 21	 -0.003125	 -0.031086	 0.010612	 2.127694	 -1.354999	 -0.592472	 -0.092242	 0.740324	 -0.634567	 0.201830	 1
1463624358.781	 21	 0.003273	 -0.046938	 0.027462	 2.125204	 -1.354849	 -0.594519	 -0.092236	 0.740198	 -0.634617	 0.202139	 1
1463624358.791	 21	 0.009652	 -0.059659	 0.035812	 2.122875	 -1.354862	 -0.596284	 -0.092325	 0.740041	 -0.634692	 0.202438	 1
1463624358.801	 21	 0.010720	 -0.056503	 0.031565	 2.121065	 -1.355056	 -0.597540	 -0.092486	 0.739876	 -0.634790	 0.202661	 1
1463624358.811	 21	 0.011836	 -0.043765	 0.028471	 2.120130	 -1.355304	 -0.598049	 -0.092659	 0.739754	 -0.634867	 0.202784	 1
1463624358.821	 21	 0.010805	 -0.025873	 0.020370	 2.119768	 -1.355622	 -0.598149	 -0.092821	 0.739657	 -0.634949	 0.202808	 1
1463624358.831	 21	 0.005518	 -0.006788	 0.009931	 2.119854	 -1.355965	 -0.597984	 -0.092945	 0.739587	 -0.635033	 0.202744	 1
1463624358.841	 21	 0.000208	 0.004874	 0.002622	 2.120445	 -1.356222	 -0.597435	 -0.093028	 0.739569	 -0.635076	 0.202637	 1
1463624358.850	 21	 -0.001911	 0.012288	 -0.002622	 2.120921	 -1.356456	 -0.597081	 -0.093069	 0.739553	 -0.635128	 0.202515	 1
1463624358.861	 21	 -0.001876	 0.018677	 -0.001498	 2.121256	 -1.356594	 -0.596923	 -0.093056	 0.739551	 -0.635166	 0.202407	 1
1463624358.871	 21	 -0.000787	 0.019769	 0.002766	 2.121505	 -1.356553	 -0.596873	 -0.092985	 0.739582	 -0.635161	 0.202342	 1
1463624358.880	 21	 0.001339	 0.014475	 0.006961	 2.121714	 -1.356455	 -0.596827	 -0.092910	 0.739621	 -0.635139	 0.202303	 1
1463624358.891	 21	 -0.000798	 0.012369	 0.009091	 2.121968	 -1.356364	 -0.596707	 -0.092850	 0.739660	 -0.635113	 0.202270	 1
1463624358.901	 21	 -0.000795	 0.012377	 0.010157	 2.122204	 -1.356267	 -0.596603	 -0.092788	 0.739699	 -0.635087	 0.202239	 1
1463624358.910	 21	 -0.002933	 0.013432	 0.008053	 2.122597	 -1.356222	 -0.596352	 -0.092745	 0.739736	 -0.635067	 0.202185	 1
1463624358.921	 21	 -0.006122	 0.014521	 0.010222	 2.123145	 -1.356108	 -0.595960	 -0.092686	 0.739797	 -0.635021	 0.202135	 1
1463624358.940	 22	 -0.016788	 0.015616	 0.010326	 2.123729	 -1.355671	 -0.595671	 -0.092493	 0.739933	 -0.634896	 0.202118	 1
1463624358.951	 22	 -0.018911	 0.019862	 0.008253	 2.124456	 -1.355514	 -0.595117	 -0.092426	 0.740013	 -0.634830	 0.202063	 1
1463624358.970	 23	 -0.024200	 0.041050	 -0.005362	 2.127087	 -1.355510	 -0.593055	 -0.092353	 0.740184	 -0.634742	 0.201745	 1
1463624358.981	 23	 -0.023034	 0.064425	 -0.008353	 2.128857	 -1.355574	 -0.591835	 -0.092259	 0.740293	 -0.634718	 0.201461	 1
1463624358.991	 23	 -0.017615	 0.083539	 -0.010354	 2.130590	 -1.355596	 -0.590869	 -0.092073	 0.740418	 -0.634707	 0.201121	 1
1463624359.000	 23	 -0.005816	 0.095212	 -0.009282	 2.131775	 -1.355670	 -0.590583	 -0.091822	 0.740509	 -0.634754	 0.200755	 1
1463624359.011	 23	 -0.001500	 0.101612	 -0.004997	 2.132685	 -1.355677	 -0.590665	 -0.091504	 0.740603	 -0.634806	 0.200390	 1
1463624359.021	 23	 -0.003611	 0.103768	 -0.001760	 2.133441	 -1.355616	 -0.590933	 -0.091150	 0.740703	 -0.634850	 0.200040	 1
1463624359.031	 23	 -0.008880	 0.113396	 0.003705	 2.134504	 -1.355509	 -0.590965	 -0.090773	 0.740833	 -0.634871	 0.199662	 1
1463624359.041	 23	 -0.014153	 0.123016	 0.008104	 2.136133	 -1.355381	 -0.590538	 -0.090380	 0.741003	 -0.634866	 0.199226	 1
1463624359.051	 23	 -0.014145	 0.123031	 0.010235	 2.137861	 -1.355291	 -0.590038	 -0.089994	 0.741171	 -0.634869	 0.198766	 1
1463624359.061	 23	 -0.012041	 0.116643	 0.010156	 2.139727	 -1.355204	 -0.589363	 -0.089629	 0.741344	 -0.634861	 0.198310	 1
1463624359.071	 23	 -0.011039	 0.104924	 0.007905	 2.141570	 -1.355158	 -0.588612	 -0.089310	 0.741503	 -0.634856	 0.197876	 1
1463624359.081	 23	 -0.011129	 0.087890	 0.005614	 2.143570	 -1.355133	 -0.587545	 -0.089065	 0.741658	 -0.634833	 0.197479	 1
1463624359.091	 23	 -0.012303	 0.071885	 -0.001988	 2.145764	 -1.355229	 -0.586120	 -0.088922	 0.741791	 -0.634817	 0.197095	 1
1463624359.101	 23	 -0.008154	 0.056896	 -0.013890	 2.148186	 -1.355422	 -0.584318	 -0.088871	 0.741909	 -0.634802	 0.196722	 1
1463624359.111	 23	 -0.003978	 0.047225	 -0.025741	 2.149848	 -1.355720	 -0.583137	 -0.088858	 0.741957	 -0.634845	 0.196408	 1
1463624359.121	 23	 -0.008270	 0.038760	 -0.021520	 2.151365	 -1.355888	 -0.582015	 -0.088836	 0.742020	 -0.634850	 0.196161	 1
1463624359.131	 23	 -0.013600	 0.034567	 -0.015118	 2.152180	 -1.355977	 -0.581514	 -0.088786	 0.742059	 -0.634863	 0.195996	 1
1463624359.141	 23	 -0.007167	 0.038818	 -0.013002	 2.152497	 -1.356051	 -0.581530	 -0.088698	 0.742075	 -0.634900	 0.195855	 1
1463624359.151	 23	 0.011073	 0.052644	 -0.005570	 2.151395	 -1.356218	 -0.583075	 -0.088518	 0.742000	 -0.635050	 0.195734	 1
1463624359.161	 23	 0.032715	 0.101624	 0.010685	 2.149622	 -1.356336	 -0.585718	 -0.088131	 0.741919	 -0.635264	 0.195524	 1
1463624359.171	 23	 0.046843	 0.145278	 0.022692	 2.148307	 -1.356392	 -0.588447	 -0.087550	 0.741899	 -0.635488	 0.195131	 1
1463624359.181	 23	 0.052311	 0.167645	 0.029248	 2.146758	 -1.356460	 -0.591664	 -0.086867	 0.741874	 -0.635754	 0.194667	 1
1463624359.191	 23	 0.048108	 0.175157	 0.036814	 2.145837	 -1.356431	 -0.594407	 -0.086134	 0.741909	 -0.635972	 0.194143	 1
1463624359.201	 23	 0.042716	 0.151873	 0.050500	 2.144529	 -1.356275	 -0.597398	 -0.085401	 0.741943	 -0.636162	 0.193715	 1
1463624359.211	 23	 0.034052	 0.116867	 0.059843	 2.142045	 -1.355896	 -0.601164	 -0.084696	 0.741941	 -0.636314	 0.193531	 1
1463624359.221	 23	 0.024322	 0.092416	 0.057569	 2.140729	 -1.355477	 -0.603545	 -0.084122	 0.742001	 -0.636371	 0.193364	 1
1463624359.231	 23	 0.013417	 0.047735	 0.051918	 2.139618	 -1.355211	 -0.605301	 -0.083755	 0.742023	 -0.636419	 0.193283	 1
1463624359.241	 23	 0.010997	 0.000824	 0.035514	 2.138391	 -1.355235	 -0.606688	 -0.083637	 0.741957	 -0.636508	 0.193291	 1
1463624359.251	 23	 0.009689	 -0.032301	 0.013897	 2.137676	 -1.355515	 -0.607190	 -0.083751	 0.741851	 -0.636605	 0.193328	 1
1463624359.261	 23	 0.005302	 -0.046216	 -0.000053	 2.136929	 -1.355938	 -0.607503	 -0.083983	 0.741705	 -0.636723	 0.193401	 1
1463624359.271	 23	 0.003184	 -0.037747	 -0.006353	 2.136639	 -1.356312	 -0.607391	 -0.084215	 0.741595	 -0.636805	 0.193452	 1
1463624359.281	 23	 0.004326	 -0.023907	 -0.004104	 2.136273	 -1.356563	 -0.607485	 -0.084362	 0.741512	 -0.636869	 0.193496	 1
1463624359.291	 23	 0.007633	 -0.010020	 0.005588	 2.135318	 -1.356700	 -0.608292	 -0.084403	 0.741426	 -0.636945	 0.193559	 1
1463624359.301	 23	 0.007768	 0.009203	 0.016422	 2.134352	 -1.356698	 -0.609311	 -0.084333	 0.741375	 -0.637002	 0.193594	 1
1463624359.311	 23	 0.008934	 0.026250	 0.020834	 2.133511	 -1.356599	 -0.610395	 -0.084172	 0.741360	 -0.637044	 0.193584	 1
1463624359.321	 23	 0.008958	 0.030512	 0.021939	 2.133031	 -1.356466	 -0.611210	 -0.083988	 0.741375	 -0.637066	 0.193535	 1
1463624359.331	 23	 0.009999	 0.023079	 0.023992	 2.132248	 -1.356367	 -0.612266	 -0.083821	 0.741364	 -0.637108	 0.193514	 1
1463624359.341	 23	 0.011052	 0.015668	 0.029242	 2.131172	 -1.356251	 -0.613542	 -0.083660	 0.741337	 -0.637154	 0.193535	 1
1463624359.351	 23	 0.013149	 0.011376	 0.024920	 2.130370	 -1.356140	 -0.614500	 -0.083531	 0.741322	 -0.637182	 0.193554	 1
1463624359.361	 23	 0.019487	 0.004913	 0.016278	 2.129535	 -1.356143	 -0.615433	 -0.083452	 0.741280	 -0.637238	 0.193566	 1
1463624359.371	 23	 0.027986	 -0.000454	 0.012955	 2.128790	 -1.356279	 -0.616230	 -0.083430	 0.741213	 -0.637322	 0.193555	 1
1463624359.391	 24	 0.022721	 0.022894	 0.003625	 2.127207	 -1.356392	 -0.618067	 -0.083284	 0.741113	 -0.637465	 0.193528	 1
1463624359.401	 24	 0.010994	 0.022952	 0.006924	 2.127123	 -1.356452	 -0.618398	 -0.083203	 0.741107	 -0.637510	 0.193438	 1
1463624359.411	 24	 -0.003886	 0.034705	 0.008228	 2.127554	 -1.356406	 -0.618304	 -0.083089	 0.741154	 -0.637506	 0.193320	 1
1463624359.421	 24	 -0.011380	 0.030465	 0.007187	 2.128185	 -1.356410	 -0.617990	 -0.083005	 0.741201	 -0.637504	 0.193185	 1
1463624359.431	 24	 -0.009272	 0.021972	 0.010286	 2.128170	 -1.356443	 -0.618244	 -0.082924	 0.741203	 -0.637536	 0.193102	 1
1463624359.441	 24	 -0.012399	 0.041097	 0.006228	 2.128817	 -1.356372	 -0.617949	 -0.082809	 0.741268	 -0.637515	 0.192973	 1
1463624359.451	 24	 -0.010199	 0.047534	 0.014793	 2.129083	 -1.356389	 -0.618136	 -0.082659	 0.741298	 -0.637549	 0.192811	 1
1463624359.461	 24	 0.006922	 0.043344	 0.030591	 2.127907	 -1.356341	 -0.619766	 -0.082417	 0.741262	 -0.637644	 0.192739	 1
1463624359.471	 24	 0.020877	 0.061376	 0.029572	 2.126613	 -1.356225	 -0.621647	 -0.082102	 0.741238	 -0.637740	 0.192648	 1
1463624359.481	 24	 0.025157	 0.057163	 0.036955	 2.124780	 -1.356202	 -0.624121	 -0.081764	 0.741167	 -0.637897	 0.192544	 1
1463624359.491	 24	 0.036808	 0.022165	 0.055711	 2.121393	 -1.356111	 -0.627861	 -0.081434	 0.741012	 -0.638094	 0.192629	 1
1463624359.501	 24	 0.035731	 0.018985	 0.056756	 2.118722	 -1.355891	 -0.630809	 -0.081136	 0.740919	 -0.638208	 0.192733	 1
1463624359.511	 24	 0.035652	 -0.008578	 0.069288	 2.115459	 -1.355717	 -0.634116	 -0.080905	 0.740773	 -0.638347	 0.192930	 1
1463624359.521	 24	 0.045184	 -0.030882	 0.077522	 2.111765	 -1.355405	 -0.637608	 -0.080708	 0.740620	 -0.638450	 0.193262	 1
1463624359.531	 24	 0.045221	 -0.027652	 0.082879	 2.108147	 -1.355054	 -0.641055	 -0.080493	 0.740479	 -0.638541	 0.193590	 1
1463624359.541	 24	 0.053680	 -0.052073	 0.092167	 2.103996	 -1.354802	 -0.644866	 -0.080340	 0.740279	 -0.638675	 0.193974	 1
1463624359.551	 24	 0.065326	 -0.074421	 0.095051	 2.099260	 -1.354615	 -0.649031	 -0.080261	 0.740023	 -0.638839	 0.194444	 1
1463624359.561	 24	 0.079172	 -0.074509	 0.088531	 2.094477	 -1.354509	 -0.653196	 -0.080219	 0.739746	 -0.639023	 0.194910	 1
1463624359.571	 24	 0.089827	 -0.074571	 0.084170	 2.089133	 -1.354608	 -0.657976	 -0.080186	 0.739397	 -0.639302	 0.195333	 1
1463624359.581	 24	 0.084603	 -0.046930	 0.080206	 2.085133	 -1.354483	 -0.661542	 -0.080113	 0.739173	 -0.639457	 0.195704	 1
1463624359.591	 24	 0.069887	 -0.009564	 0.093469	 2.081865	 -1.354092	 -0.664755	 -0.079863	 0.739056	 -0.639537	 0.195985	 1
1463624359.601	 24	 0.045517	 0.025627	 0.096137	 2.079252	 -1.353626	 -0.667724	 -0.079473	 0.739007	 -0.639600	 0.196123	 1
1463624359.611	 24	 0.027500	 0.053329	 0.095485	 2.077542	 -1.352928	 -0.670005	 -0.078985	 0.739063	 -0.639571	 0.196207	 1
1463624359.621	 24	 0.023282	 0.071362	 0.087163	 2.075947	 -1.352211	 -0.672312	 -0.078445	 0.739133	 -0.639544	 0.196245	 1
1463624359.631	 24	 0.021215	 0.076764	 0.097890	 2.073603	 -1.351392	 -0.675470	 -0.077801	 0.739181	 -0.639546	 0.196316	 1
1463624359.641	 24	 0.024530	 0.080123	 0.122407	 2.070721	 -1.350336	 -0.679237	 -0.077038	 0.739241	 -0.639526	 0.196453	 1
1463624359.651	 24	 0.018331	 0.097385	 0.153530	 2.067739	 -1.349011	 -0.683256	 -0.076138	 0.739349	 -0.639458	 0.196618	 1
1463624359.661	 24	 0.008911	 0.105129	 0.190986	 2.064716	 -1.347444	 -0.687426	 -0.075126	 0.739500	 -0.639343	 0.196815	 1
1463624359.671	 24	 0.006890	 0.084249	 0.244095	 2.060346	 -1.345703	 -0.692839	 -0.074035	 0.739592	 -0.639258	 0.197160	 1
1463624359.681	 24	 0.016558	 0.065352	 0.282199	 2.054961	 -1.343652	 -0.699070	 -0.072876	 0.739662	 -0.639142	 0.197705	 1
1463624359.691	 24	 0.030446	 0.048462	 0.305364	 2.048261	 -1.341580	 -0.706477	 -0.071693	 0.739639	 -0.639096	 0.198368	 1
1463624359.701	 24	 0.046487	 0.037931	 0.326441	 2.040826	 -1.338915	 -0.714532	 -0.070334	 0.739659	 -0.638948	 0.199259	 1
1463624359.721	 25	 0.077460	 0.027341	 0.345257	 2.023649	 -1.333369	 -0.732755	 -0.067493	 0.739526	 -0.638770	 0.201291	 1
1463624359.731	 25	 0.088090	 0.032504	 0.328152	 2.015382	 -1.331466	 -0.741614	 -0.066307	 0.739310	 -0.638909	 0.202038	 1
1463624359.741	 25	 0.094423	 0.035521	 0.306810	 2.006827	 -1.329043	 -0.750762	 -0.064954	 0.739146	 -0.638951	 0.202944	 1
1463624359.751	 25	 0.087957	 0.030153	 0.297224	 1.998766	 -1.326709	 -0.759383	 -0.063660	 0.738984	 -0.638992	 0.203814	 1
1463624359.761	 25	 0.068703	 0.010093	 0.309994	 1.991179	 -1.324228	 -0.767340	 -0.062413	 0.738857	 -0.638957	 0.204765	 1
1463624359.771	 25	 0.042165	 0.017813	 0.336931	 1.986065	 -1.322174	 -0.772837	 -0.061408	 0.738827	 -0.638862	 0.205472	 1
1463624359.781	 25	 0.010456	 0.051154	 0.374811	 1.981814	 -1.319542	 -0.777791	 -0.060153	 0.738951	 -0.638604	 0.206198	 1
1463624359.791	 25	 -0.020277	 0.064289	 0.413561	 1.977633	 -1.316365	 -0.782794	 -0.058693	 0.739157	 -0.638229	 0.207039	 1
1463624359.801	 25	 -0.039423	 0.039151	 0.459322	 1.972677	 -1.312110	 -0.788441	 -0.056913	 0.739453	 -0.637647	 0.208269	 1
1463624359.811	 25	 -0.041764	 -0.041461	 0.503533	 1.966787	 -1.307402	 -0.794334	 -0.055198	 0.739707	 -0.636968	 0.209901	 1
1463624359.821	 25	 -0.025002	 -0.150691	 0.554593	 1.958978	 -1.302285	 -0.801163	 -0.053615	 0.739820	 -0.636254	 0.212067	 1
1463624359.831	 25	 0.000283	 -0.277898	 0.623529	 1.948658	 -1.296643	 -0.809338	 -0.052162	 0.739743	 -0.635515	 0.214894	 1
1463624359.841	 25	 0.049110	 -0.408220	 0.712481	 1.934889	 -1.290348	 -0.819730	 -0.050769	 0.739395	 -0.634807	 0.218489	 1
1463624359.851	 25	 0.091770	 -0.470610	 0.779738	 1.918508	 -1.283463	 -0.831975	 -0.049320	 0.738817	 -0.634150	 0.222646	 1
1463624359.861	 25	 0.107059	 -0.436278	 0.826818	 1.901650	 -1.276133	 -0.844924	 -0.047603	 0.738177	 -0.633519	 0.226898	 1
1463624359.871	 25	 0.082737	 -0.424203	 0.868707	 1.885722	 -1.268279	 -0.857145	 -0.045674	 0.737600	 -0.632775	 0.231206	 1
1463624359.881	 25	 0.038937	 -0.469500	 0.911297	 1.871062	 -1.259854	 -0.867753	 -0.043735	 0.737112	 -0.631807	 0.235738	 1
1463624359.891	 25	 -0.007202	 -0.566834	 0.964081	 1.857006	 -1.250751	 -0.876822	 -0.041932	 0.736649	 -0.630579	 0.240749	 1
1463624359.901	 25	 -0.121661	 -0.746258	 1.109418	 1.843919	 -1.240320	 -0.883370	 -0.040300	 0.736302	 -0.628826	 0.246604	 1
1463624359.921	 26	 -0.331735	 -0.972955	 1.150702	 1.823916	 -1.216179	 -0.885237	 -0.038090	 0.736225	 -0.623404	 0.260557	 1
1463624359.931	 26	 -0.311228	 -0.936743	 1.165781	 1.815141	 -1.204201	 -0.884475	 -0.037215	 0.736187	 -0.620519	 0.267579	 1
1463624359.941	 26	 -0.240075	 -0.893465	 1.295587	 1.804882	 -1.191343	 -0.885749	 -0.035737	 0.735991	 -0.617690	 0.274772	 1
1463624359.951	 26	 -0.193080	 -0.771379	 1.429534	 1.793816	 -1.177271	 -0.888973	 -0.033362	 0.735725	 -0.614867	 0.282019	 1
1463624359.961	 26	 -0.221718	 -0.599267	 1.537961	 1.784541	 -1.162062	 -0.892068	 -0.030076	 0.735696	 -0.611830	 0.288982	 1
1463624359.971	 26	 -0.263071	 -0.401643	 1.639276	 1.777976	 -1.145761	 -0.894267	 -0.025902	 0.736030	 -0.608477	 0.295543	 1
1463624359.981	 26	 -0.278582	 -0.179422	 1.769371	 1.773846	 -1.128234	 -0.896235	 -0.020645	 0.736719	 -0.604846	 0.301630	 1
1463624359.991	 26	 -0.304552	 -0.021111	 2.028984	 1.771224	 -1.108510	 -0.898525	 -0.014070	 0.737698	 -0.600772	 0.307696	 1
1463624360.011	 27	 -0.200306	 0.113316	 2.860622	 1.763960	 -1.057289	 -0.908611	 0.004469	 0.739682	 -0.590732	 0.322314	 1
1463624360.021	 27	 -0.060148	 0.027090	 3.053634	 1.756359	 -1.027468	 -0.918058	 0.015646	 0.739897	 -0.585453	 0.330987	 1
1463624360.031	 27	 -0.063734	 -0.132827	 3.147030	 1.747314	 -0.996652	 -0.927763	 0.026880	 0.739570	 -0.580038	 0.340396	 1
1463624360.041	 27	 -0.218420	 -0.405219	 3.216182	 1.738315	 -0.964807	 -0.934535	 0.037443	 0.738974	 -0.573916	 0.350908	 1
1463624360.051	 27	 -0.355690	 -0.631701	 3.316517	 1.729653	 -0.931883	 -0.938115	 0.047339	 0.738190	 -0.566969	 0.362465	 1
1463624360.061	 27	 -0.343347	 -0.804461	 3.405392	 1.719721	 -0.897808	 -0.940915	 0.057029	 0.736879	 -0.559610	 0.374959	 1
1463624360.071	 27	 -0.295358	 -0.756155	 3.339346	 1.709747	 -0.864131	 -0.943749	 0.066645	 0.735203	 -0.552329	 0.387256	 1
1463624360.081	 27	 -0.279453	 -0.750060	 3.306225	 1.700394	 -0.831033	 -0.946233	 0.076162	 0.733321	 -0.545076	 0.399165	 1
1463624360.091	 27	 -0.222124	 -0.821421	 3.315719	 1.690618	 -0.797989	 -0.948764	 0.085613	 0.731025	 -0.537837	 0.411101	 1
1463624360.101	 27	 -0.176270	 -1.031289	 3.287787	 1.679034	 -0.765068	 -0.951423	 0.094638	 0.728015	 -0.530723	 0.423522	 1
1463624360.111	 27	 -0.184819	 -1.393689	 3.177913	 1.664718	 -0.732988	 -0.953490	 0.102505	 0.724115	 -0.523834	 0.436748	 1
1463624360.121	 27	 -0.208220	 -1.315448	 3.104242	 1.650273	 -0.701771	 -0.954277	 0.109659	 0.719924	 -0.516904	 0.449994	 1
1463624360.131	 27	 -0.113337	 -1.071256	 2.789157	 1.638401	 -0.672751	 -0.955242	 0.116861	 0.716073	 -0.510435	 0.461562	 1
1463624360.141	 27	 -0.028495	 -1.110089	 2.162454	 1.626941	 -0.649484	 -0.956476	 0.122349	 0.712303	 -0.505478	 0.471325	 1
1463624360.151	 27	 0.003194	 -1.689886	 1.424604	 1.611222	 -0.633415	 -0.957455	 0.124248	 0.707707	 -0.502585	 0.480751	 1
1463624360.161	 27	 -0.087913	 -2.589852	 0.780763	 1.587850	 -0.624083	 -0.957088	 0.121473	 0.701544	 -0.501569	 0.491436	 1
1463624360.171	 27	 -0.167472	 -3.393355	 0.243229	 1.556849	 -0.620365	 -0.955231	 0.114342	 0.693723	 -0.502008	 0.503649	 1
1463624360.181	 27	 -0.217016	 -3.862770	 -0.119869	 1.520685	 -0.620871	 -0.952699	 0.104201	 0.684668	 -0.503461	 0.516622	 1
1463624360.191	 27	 -0.246983	 -4.027168	 -0.214925	 1.482285	 -0.623116	 -0.949920	 0.092771	 0.674909	 -0.505158	 0.529817	 1
1463624360.201	 27	 -0.256764	 -3.952762	 -0.078796	 1.444138	 -0.624625	 -0.946983	 0.081594	 0.664912	 -0.506382	 0.542966	 1
1463624360.211	 27	 -0.374718	 -3.590158	 0.154744	 1.409614	 -0.624155	 -0.942701	 0.071611	 0.655560	 -0.506423	 0.555563	 1
1463624360.221	 27	 -0.613044	 -3.118191	 0.313615	 1.381567	 -0.622341	 -0.935476	 0.062836	 0.647791	 -0.504939	 0.566970	 1
1463624360.231	 27	 -0.941270	 -2.828687	 0.355402	 1.359227	 -0.620615	 -0.924260	 0.054240	 0.641592	 -0.502011	 0.577410	 1
1463624360.241	 27	 -1.204501	 -2.747121	 0.349927	 1.340207	 -0.619693	 -0.909604	 0.045149	 0.636345	 -0.498018	 0.587371	 1
1463624360.251	 27	 -1.483017	 -2.920100	 0.291060	 1.321929	 -0.620008	 -0.891906	 0.034891	 0.631309	 -0.493209	 0.597475	 1
1463624360.261	 27	 -1.831386	 -3.427860	 0.239277	 1.301492	 -0.622077	 -0.870453	 0.022350	 0.625612	 -0.487469	 0.608674	 1
1463624360.271	 27	 -2.198836	 -3.936387	 0.220693	 1.278412	 -0.625766	 -0.844718	 0.007340	 0.618980	 -0.480498	 0.621234	 1
1463624360.291	 28	 -2.672356	 -4.583506	 0.261424	 1.226706	 -0.637053	 -0.783117	 -0.028082	 0.603014	 -0.462989	 0.649020	 1
1463624360.301	 28	 -2.742985	 -4.659577	 0.302896	 1.200075	 -0.643879	 -0.749986	 -0.046794	 0.594084	 -0.453005	 0.663069	 1
1463624360.311	 28	 -2.653749	 -4.993624	 0.328852	 1.171151	 -0.651016	 -0.717210	 -0.065771	 0.583883	 -0.442634	 0.677370	 1
1463624360.321	 28	 -2.544796	 -5.151933	 0.542780	 1.139201	 -0.657000	 -0.685155	 -0.084428	 0.572060	 -0.431633	 0.692324	 1
1463624360.331	 28	 -2.332906	 -4.931263	 0.697524	 1.108256	 -0.661302	 -0.654106	 -0.101555	 0.560007	 -0.420164	 0.706782	 1
1463624360.341	 28	 -1.980117	 -4.592843	 0.719982	 1.078356	 -0.664490	 -0.626593	 -0.116685	 0.547989	 -0.409322	 0.720103	 1
1463624360.351	 28	 -1.595318	 -4.142921	 0.877486	 1.050465	 -0.665470	 -0.602697	 -0.129206	 0.536436	 -0.399112	 0.732292	 1
1463624360.361	 28	 -1.236904	 -3.530165	 1.184875	 1.026838	 -0.662700	 -0.581103	 -0.138446	 0.526156	 -0.389057	 0.743389	 1
1463624360.371	 28	 -0.904350	 -2.805126	 1.564940	 1.009446	 -0.655412	 -0.560744	 -0.144048	 0.517915	 -0.378888	 0.753298	 1
1463624360.381	 28	 -0.571928	 -2.135160	 1.977533	 0.998330	 -0.643120	 -0.541158	 -0.145996	 0.511801	 -0.368432	 0.762235	 1
1463624360.391	 28	 -0.262593	 -1.568641	 2.342470	 0.992431	 -0.626028	 -0.522378	 -0.144635	 0.507530	 -0.357683	 0.770427	 1
1463624360.401	 28	 0.001073	 -1.094212	 2.603570	 0.990588	 -0.605070	 -0.504673	 -0.140561	 0.504784	 -0.346812	 0.777919	 1
1463624360.411	 28	 0.174255	 -0.747588	 2.804585	 0.991808	 -0.581267	 -0.487855	 -0.134479	 0.503249	 -0.335830	 0.784777	 1
1463624360.421	 28	 0.290784	 -0.827694	 2.952031	 0.992662	 -0.555365	 -0.471643	 -0.127380	 0.501605	 -0.324507	 0.791746	 1
1463624360.431	 28	 0.294570	 -1.204863	 3.010303	 0.989930	 -0.528569	 -0.455356	 -0.120443	 0.498561	 -0.312608	 0.799504	 1
1463624360.441	 28	 0.215914	 -1.147119	 3.021117	 0.986469	 -0.502085	 -0.438511	 -0.113812	 0.495246	 -0.300375	 0.807188	 1
1463624360.451	 28	 0.311423	 -1.271748	 3.034046	 0.982034	 -0.475348	 -0.422116	 -0.107014	 0.491595	 -0.288103	 0.814787	 1
1463624360.461	 28	 0.464644	 -1.383739	 3.052985	 0.974886	 -0.447634	 -0.407118	 -0.099732	 0.486900	 -0.275966	 0.822693	 1
1463624360.471	 28	 0.523149	 -1.238905	 3.101783	 0.968220	 -0.419276	 -0.392597	 -0.091866	 0.482413	 -0.263845	 0.830195	 1
1463624360.481	 28	 0.584710	 -1.190303	 3.228525	 0.962042	 -0.389816	 -0.377918	 -0.083379	 0.478095	 -0.251384	 0.837424	 1
1463624360.491	 28	 0.714542	 -1.197840	 3.414899	 0.955524	 -0.358379	 -0.363097	 -0.073986	 0.473573	 -0.238371	 0.844650	 1
1463624360.501	 28	 0.884953	 -1.206500	 3.609434	 0.948361	 -0.324500	 -0.348451	 -0.063428	 0.468703	 -0.224838	 0.851905	 1
1463624360.511	 28	 1.055665	 -1.139748	 3.789749	 0.941089	 -0.288213	 -0.334039	 -0.051631	 0.463708	 -0.210843	 0.858984	 1
1463624360.521	 28	 1.211592	 -1.036818	 3.966265	 0.934244	 -0.249656	 -0.319784	 -0.038609	 0.458814	 -0.196400	 0.865694	 1
1463624360.531	 28	 1.368311	 -0.992384	 4.143297	 0.927524	 -0.208836	 -0.305600	 -0.024420	 0.453885	 -0.181468	 0.872045	 1
1463624360.541	 28	 1.519011	 -1.087314	 4.313755	 0.919646	 -0.165824	 -0.291410	 -0.009216	 0.448354	 -0.166026	 0.878253	 1
1463624360.551	 28	 1.667506	 -1.382549	 4.435474	 0.908689	 -0.120940	 -0.277272	 0.006757	 0.441372	 -0.150214	 0.884636	 1
1463624360.561	 28	 1.781177	 -1.765374	 4.491671	 0.893341	 -0.074928	 -0.263183	 0.023151	 0.432362	 -0.134295	 0.891343	 1
1463624360.571	 28	 1.839820	 -2.031199	 4.525988	 0.874396	 -0.028368	 -0.248518	 0.039721	 0.421688	 -0.118230	 0.898122	 1
1463624360.581	 28	 2.018025	 -2.373055	 4.391232	 0.851905	 0.017980	 -0.234615	 0.056488	 0.409374	 -0.102887	 0.904785	 1
1463624360.591	 28	 2.284457	 -2.767473	 4.230707	 0.824534	 0.064628	 -0.222569	 0.073893	 0.394713	 -0.088831	 0.911510	 1
1463624360.601	 28	 2.480695	 -2.872492	 4.055368	 0.794948	 0.111090	 -0.211893	 0.091773	 0.378913	 -0.075985	 0.917730	 1
1463624360.611	 28	 2.666356	 -2.712799	 3.858071	 0.766065	 0.157217	 -0.202452	 0.110115	 0.363313	 -0.064243	 0.922904	 1
1463624360.621	 28	 2.848765	 -2.506790	 3.593025	 0.739140	 0.202726	 -0.194753	 0.128848	 0.348484	 -0.053815	 0.926855	 1
1463624360.641	 29	 3.066598	 -2.304384	 2.845913	 0.689957	 0.289402	 -0.186348	 0.166247	 0.320565	 -0.038090	 0.931745	 1
1463624360.651	 29	 3.101120	 -2.314010	 2.412823	 0.666841	 0.329287	 -0.186176	 0.184214	 0.307057	 -0.033238	 0.933100	 1
1463624360.661	 29	 3.082791	 -2.319398	 2.102795	 0.644222	 0.367014	 -0.187904	 0.201530	 0.293643	 -0.029982	 0.933949	 1
1463624360.671	 29	 3.046138	 -2.241930	 1.917326	 0.622446	 0.403101	 -0.190376	 0.218224	 0.280553	 -0.027622	 0.934294	 1
1463624360.691	 29	 3.020852	 -1.713145	 1.637904	 0.585927	 0.471845	 -0.196551	 0.250252	 0.257479	 -0.024159	 0.933003	 1
1463624360.701	 29	 2.991495	 -1.287318	 1.532347	 0.573798	 0.505324	 -0.200404	 0.265971	 0.248636	 -0.022515	 0.931092	 1
1463624360.681	 29	 3.029477	 -2.037620	 1.777622	 0.602492	 0.437619	 -0.193150	 0.234255	 0.268298	 -0.025781	 0.934064	 1
1463624360.711	 29	 2.996079	 -0.945275	 1.473675	 0.565690	 0.538409	 -0.204593	 0.281535	 0.241550	 -0.020689	 0.928420	 1
1463624360.721	 29	 3.021620	 -0.724206	 1.461655	 0.560238	 0.571707	 -0.208986	 0.297174	 0.235540	 -0.018637	 0.925128	 1
1463624360.731	 29	 3.016388	 -0.510112	 1.502060	 0.556862	 0.605192	 -0.213044	 0.312793	 0.230409	 -0.016141	 0.921310	 1
1463624360.741	 29	 2.989768	 -0.321343	 1.561600	 0.555107	 0.638823	 -0.216335	 0.328310	 0.226022	 -0.013037	 0.917037	 1
1463624360.751	 29	 2.909367	 -0.188018	 1.580592	 0.554493	 0.672072	 -0.218895	 0.343482	 0.222211	 -0.009468	 0.912443	 1
1463624360.761	 29	 2.735452	 -0.156867	 1.552555	 0.554031	 0.703999	 -0.220666	 0.357881	 0.218641	 -0.005700	 0.907791	 1
1463624360.771	 29	 2.474526	 -0.170788	 1.434266	 0.553154	 0.733328	 -0.221855	 0.370978	 0.215169	 -0.002121	 0.903368	 1
1463624360.781	 29	 2.185590	 -0.252592	 1.330510	 0.551189	 0.759633	 -0.222307	 0.382591	 0.211593	 0.001134	 0.899362	 1
1463624360.791	 29	 1.923355	 -0.404029	 1.315398	 0.546733	 0.783427	 -0.221129	 0.392884	 0.207442	 0.004245	 0.895875	 1
1463624360.801	 29	 1.715675	 -0.580702	 1.362456	 0.538918	 0.805492	 -0.217657	 0.402168	 0.202427	 0.007405	 0.892877	 1
1463624360.811	 29	 1.572899	 -0.818021	 1.432897	 0.527056	 0.826489	 -0.211766	 0.410760	 0.196249	 0.010574	 0.890309	 1
1463624360.821	 29	 1.491992	 -1.053459	 1.494290	 0.511176	 0.846924	 -0.203774	 0.418951	 0.188851	 0.013633	 0.888048	 1
1463624360.831	 29	 1.419863	 -1.273822	 1.595288	 0.491200	 0.867080	 -0.193493	 0.426888	 0.180252	 0.016633	 0.886002	 1
1463624360.841	 29	 1.371204	 -1.499444	 1.703385	 0.466367	 0.887078	 -0.180062	 0.434599	 0.170332	 0.019750	 0.884150	 1
1463624360.861	 30	 1.383336	 -1.505975	 1.541223	 0.412254	 0.925835	 -0.151108	 0.449683	 0.149614	 0.025029	 0.880213	 1
1463624360.881	 31	 1.488111	 -0.977801	 1.229760	 0.368891	 0.962766	 -0.127101	 0.464557	 0.133325	 0.029409	 0.874955	 1
1463624360.891	 31	 1.553080	 -0.628304	 1.050201	 0.354677	 0.981025	 -0.118592	 0.472097	 0.127858	 0.031503	 0.871656	 1
1463624360.901	 31	 1.609685	 -0.263704	 0.896434	 0.346164	 0.999206	 -0.112614	 0.479679	 0.124371	 0.033715	 0.867931	 1
1463624360.911	 31	 1.638206	 -0.031447	 0.815217	 0.341743	 1.017390	 -0.108310	 0.487280	 0.122314	 0.036109	 0.863883	 1
1463624360.921	 31	 1.610519	 0.006704	 0.784906	 0.338455	 1.035309	 -0.104352	 0.494744	 0.120717	 0.038557	 0.859750	 1
1463624360.931	 31	 1.510498	 -0.137819	 0.762051	 0.333810	 1.052370	 -0.100056	 0.501823	 0.118712	 0.040691	 0.855818	 1
1463624360.941	 31	 1.362020	 -0.381058	 0.747226	 0.326112	 1.068051	 -0.094852	 0.508311	 0.115764	 0.042270	 0.852310	 1
1463624360.951	 31	 1.195180	 -0.692132	 0.757507	 0.313870	 1.082165	 -0.087885	 0.514128	 0.111488	 0.043232	 0.849337	 1
1463624360.961	 31	 1.018790	 -0.930318	 0.695012	 0.298182	 1.094471	 -0.080117	 0.519224	 0.106139	 0.043407	 0.846910	 1
1463624360.971	 31	 0.830146	 -1.018781	 0.593518	 0.281456	 1.104623	 -0.072580	 0.523460	 0.100482	 0.042960	 0.845013	 1
1463624360.981	 31	 0.690628	 -1.103106	 0.495898	 0.264432	 1.112987	 -0.065704	 0.526996	 0.094681	 0.041951	 0.843535	 1
1463624360.991	 31	 0.591470	 -1.013023	 0.411273	 0.248625	 1.120010	 -0.059762	 0.529995	 0.089258	 0.040717	 0.842307	 1
1463624361.001	 31	 0.546344	 -0.800608	 0.350763	 0.235410	 1.126254	 -0.054623	 0.532653	 0.084786	 0.039735	 0.841138	 1
1463624361.011	 31	 0.565494	 -0.529937	 0.282774	 0.225903	 1.132365	 -0.050749	 0.535238	 0.081570	 0.039165	 0.839841	 1
1463624361.021	 31	 0.619984	 -0.223292	 0.203090	 0.221077	 1.138757	 -0.048749	 0.537924	 0.079824	 0.039052	 0.838297	 1
1463624361.031	 31	 0.684032	 0.066368	 0.131690	 0.221096	 1.145603	 -0.048779	 0.540781	 0.079549	 0.039406	 0.836466	 1
1463624361.041	 31	 0.726176	 0.221152	 0.079475	 0.224582	 1.152811	 -0.050490	 0.543780	 0.080249	 0.040022	 0.834423	 1
1463624361.071	 33	 0.498974	 -0.244791	 0.122945	 0.229501	 1.171840	 -0.054583	 0.551728	 0.080375	 0.040703	 0.829144	 1
1463624361.081	 33	 0.364541	 -0.472995	 0.133715	 0.224370	 1.176013	 -0.053566	 0.553513	 0.078353	 0.039935	 0.828184	 1
1463624361.091	 33	 0.249674	 -0.612032	 0.128093	 0.216934	 1.179000	 -0.051848	 0.554825	 0.075627	 0.038744	 0.827616	 1
1463624361.101	 33	 0.173962	 -0.602217	 0.130975	 0.208719	 1.181148	 -0.049614	 0.555784	 0.072763	 0.037497	 0.827287	 1
1463624361.111	 33	 0.098934	 -0.469895	 0.160569	 0.200485	 1.182598	 -0.046212	 0.556413	 0.070247	 0.036685	 0.827118	 1
1463624361.121	 33	 0.034764	 -0.271889	 0.158708	 0.193647	 1.183423	 -0.042315	 0.556743	 0.068474	 0.036433	 0.827056	 1
1463624361.131	 33	 -0.047768	 -0.122734	 0.159748	 0.188165	 1.183469	 -0.038059	 0.556718	 0.067390	 0.036669	 0.827151	 1
1463624361.141	 33	 -0.121329	 -0.096022	 0.146782	 0.183085	 1.182724	 -0.033615	 0.556355	 0.066550	 0.037062	 0.827446	 1
1463624361.151	 33	 -0.175066	 -0.136621	 0.099979	 0.178410	 1.181322	 -0.029900	 0.555740	 0.065692	 0.037240	 0.827919	 1
1463624361.161	 33	 -0.198084	 -0.220963	 0.047172	 0.174175	 1.179510	 -0.027461	 0.554990	 0.064671	 0.037001	 0.828513	 1
1463624361.181	 34	 -0.112414	 -0.318571	 -0.031217	 0.167432	 1.176326	 -0.026614	 0.553767	 0.062204	 0.035358	 0.829592	 1
1463624361.191	 34	 -0.001205	 -0.299511	 0.002096	 0.164467	 1.176003	 -0.026722	 0.553688	 0.060953	 0.034480	 0.829774	 1
1463624361.201	 34	 0.115581	 -0.258938	 0.070732	 0.160869	 1.176946	 -0.025761	 0.554112	 0.059700	 0.033918	 0.829606	 1
1463624361.211	 34	 0.203884	 -0.165981	 0.162473	 0.163954	 1.180955	 -0.029991	 0.555845	 0.059692	 0.033171	 0.828476	 1
1463624361.221	 34	 0.214629	 -0.034204	 0.295758	 0.165229	 1.187098	 -0.030943	 0.558391	 0.059775	 0.033368	 0.826749	 1
1463624361.231	 34	 0.197296	 0.073852	 0.373654	 0.163269	 1.193923	 -0.027500	 0.561134	 0.059731	 0.034500	 0.824846	 1
1463624361.241	 34	 0.143456	 0.179494	 0.397492	 0.160178	 1.199891	 -0.021857	 0.563476	 0.059878	 0.036176	 0.823165	 1
1463624361.251	 34	 0.074157	 0.236777	 0.347475	 0.156146	 1.203556	 -0.014739	 0.564843	 0.060132	 0.038096	 0.822122	 1
1463624361.261	 34	 -0.020278	 0.227672	 0.226715	 0.153488	 1.204931	 -0.009143	 0.565291	 0.060587	 0.039690	 0.821706	 1
1463624361.271	 34	 -0.095897	 0.159796	 0.076470	 0.152033	 1.204327	 -0.005683	 0.564966	 0.060980	 0.040681	 0.821851	 1
1463624361.281	 34	 -0.179842	 0.128179	 -0.063774	 0.153463	 1.202726	 -0.005761	 0.564282	 0.061583	 0.041001	 0.822260	 1
1463624361.291	 34	 -0.231937	 0.049774	 -0.189810	 0.157400	 1.200299	 -0.009219	 0.563311	 0.062284	 0.040608	 0.822893	 1
1463624361.301	 34	 -0.280497	 0.001490	 -0.267645	 0.164386	 1.196501	 -0.016377	 0.561833	 0.063243	 0.039494	 0.823884	 1
