% Gyrometer data recorded with 'snsrlog'
% 
% 
% Label description:
% 	 0: Default Label
% 	 1: still_drop
% 	 2: walk_drop
% 	 3: other
% 	 4: dtw_same
% 	 5: dtw_diff
% 	 6: delete
% 	 7: steal
% 
% Column description:
% 	 1: Seconds.milliseconds since 1970
% 	 2: Number of skipped measurements
% 	 3: Gyro X
% 	 4: Gyro Y
% 	 5: Gyro Z
% 	 6: Roll of the device
% 	 7: Pitch of the device
% 	 8: Yaw of the device
% 	 9: Quaternion X
% 	 10: Quaternion Y
% 	 11: Quaternion Z
% 	 12: Quaternion W
% 	 13: Label used for the current sample
% 
% 
1463630350.654	 0	 0.216625	 3.474257	 0.919577	 0.363680	 0.241485	 -0.102882	 0.127538	 0.173194	 -0.028449	 0.976181	 2
1463630350.664	 0	 -0.228595	 3.923705	 1.409360	 0.398718	 0.245232	 -0.090048	 0.128611	 0.190959	 -0.019588	 0.972939	 2
1463630350.674	 0	 -0.640632	 4.335451	 1.700272	 0.436731	 0.246949	 -0.072276	 0.127925	 0.210500	 -0.008340	 0.969152	 2
1463630350.684	 0	 -1.008092	 4.512867	 1.669952	 0.476667	 0.246202	 -0.052362	 0.125412	 0.231093	 0.003733	 0.964808	 2
1463630350.694	 0	 -1.276223	 4.575545	 1.258289	 0.517869	 0.242125	 -0.033819	 0.121022	 0.252167	 0.014693	 0.959974	 2
1463630350.704	 0	 -1.459184	 4.437594	 0.495512	 0.559537	 0.233546	 -0.020099	 0.114728	 0.273114	 0.022577	 0.954849	 2
1463630350.714	 0	 -1.629253	 3.994300	 -0.420490	 0.599072	 0.219241	 -0.012860	 0.106413	 0.292628	 0.026174	 0.949926	 2
1463630350.724	 0	 -1.910022	 3.233564	 -1.155172	 0.633056	 0.198558	 -0.010276	 0.095782	 0.309248	 0.025993	 0.945788	 2
1463630350.734	 0	 -2.234926	 2.129554	 -1.577198	 0.656936	 0.172356	 -0.009189	 0.082946	 0.321019	 0.023433	 0.943143	 2
1463630350.754	 1	 -2.675855	 0.262256	 -1.553433	 0.672412	 0.112117	 -0.003262	 0.053429	 0.329303	 0.016947	 0.942559	 2
1463630350.764	 1	 -2.691649	 0.177275	 -1.398485	 0.673557	 0.082102	 0.002338	 0.038348	 0.330215	 0.014664	 0.943013	 2
1463630350.774	 1	 -2.618199	 0.508548	 -1.301189	 0.677159	 0.053238	 0.008525	 0.023689	 0.332134	 0.012859	 0.942847	 2
1463630350.784	 1	 -2.498012	 1.248089	 -1.206895	 0.687286	 0.025823	 0.014905	 0.009645	 0.336972	 0.011366	 0.941397	 2
1463630350.794	 1	 -2.296073	 2.332157	 -1.090924	 0.707657	 0.000574	 0.021404	 -0.003439	 0.346475	 0.010138	 0.937998	 2
1463630350.804	 1	 -1.975986	 3.498456	 -0.881429	 0.739847	 -0.021136	 0.027965	 -0.014907	 0.361351	 0.009215	 0.932265	 2
1463630350.814	 1	 -1.615784	 4.695306	 -0.549436	 0.783976	 -0.037865	 0.035084	 -0.024193	 0.381592	 0.008977	 0.923971	 2
1463630350.824	 1	 -1.298554	 5.761009	 -0.133029	 0.839457	 -0.049068	 0.043408	 -0.031238	 0.406808	 0.009818	 0.912927	 2
1463630350.834	 1	 -0.975767	 6.462583	 0.234114	 0.903034	 -0.054725	 0.052466	 -0.036049	 0.435372	 0.011659	 0.899453	 2
1463630350.844	 1	 -0.596584	 6.896195	 0.340358	 0.971381	 -0.056151	 0.060060	 -0.038825	 0.465679	 0.013444	 0.883999	 2
1463630350.854	 1	 -0.105770	 7.307797	 0.096920	 1.043587	 -0.055948	 0.063002	 -0.039929	 0.497230	 0.013360	 0.866597	 2
1463630350.874	 2	 1.062263	 7.927702	 -0.775011	 1.196857	 -0.058748	 0.047924	 -0.037751	 0.562359	 0.003247	 0.826025	 2
1463630350.884	 2	 1.443072	 8.209938	 -1.155112	 1.277289	 -0.064366	 0.031526	 -0.035223	 0.595318	 -0.006530	 0.802691	 2
1463630350.894	 2	 1.551095	 8.090188	 -1.490751	 1.357790	 -0.074105	 0.013098	 -0.032939	 0.627300	 -0.018167	 0.777869	 2
1463630350.904	 2	 1.399987	 7.218262	 -1.959024	 1.430715	 -0.089601	 -0.004518	 -0.032327	 0.655304	 -0.031078	 0.754033	 2
1463630350.914	 2	 1.061054	 6.580809	 -2.437334	 1.496455	 -0.111432	 -0.018436	 -0.034550	 0.679633	 -0.044630	 0.731378	 2
1463630350.924	 2	 0.853733	 6.375606	 -2.804061	 1.559238	 -0.138252	 -0.028562	 -0.039102	 0.701960	 -0.058684	 0.708717	 2
1463630350.934	 2	 0.868423	 6.186524	 -2.911458	 1.620500	 -0.167441	 -0.036630	 -0.044412	 0.722857	 -0.073151	 0.685678	 2
1463630350.944	 2	 0.988741	 5.794632	 -2.782933	 1.678122	 -0.196333	 -0.044058	 -0.049160	 0.741697	 -0.087550	 0.663177	 2
1463630350.954	 2	 1.148831	 5.395763	 -2.573820	 1.731462	 -0.223878	 -0.051690	 -0.052813	 0.758421	 -0.101686	 0.641614	 2
1463630350.974	 3	 1.350717	 4.602882	 -2.120415	 1.825902	 -0.273775	 -0.068171	 -0.056671	 0.786297	 -0.128561	 0.601662	 2
1463630350.984	 3	 1.423059	 4.085902	 -2.100277	 1.865642	 -0.297700	 -0.076229	 -0.057988	 0.797209	 -0.141488	 0.584017	 2
1463630350.994	 3	 1.817793	 3.311218	 -2.285708	 1.898256	 -0.324151	 -0.086145	 -0.059347	 0.805557	 -0.155803	 0.568578	 2
1463630351.004	 3	 2.155796	 2.282430	 -2.480469	 1.919383	 -0.354019	 -0.098381	 -0.061269	 0.810210	 -0.171815	 0.557033	 2
1463630351.014	 3	 2.235622	 1.465264	 -2.637975	 1.931408	 -0.386180	 -0.111151	 -0.064152	 0.811982	 -0.188588	 0.548638	 2
1463630351.024	 3	 2.087281	 0.670233	 -2.768776	 1.935743	 -0.419324	 -0.122249	 -0.068586	 0.811348	 -0.204993	 0.543128	 2
1463630351.034	 3	 1.875507	 -0.147611	 -2.990892	 1.932816	 -0.453531	 -0.130636	 -0.075154	 0.808413	 -0.220746	 0.540455	 2
1463630351.044	 3	 1.675990	 -0.965433	 -3.351664	 1.922719	 -0.490045	 -0.136005	 -0.084479	 0.803076	 -0.236180	 0.540510	 2
1463630351.054	 3	 1.460076	 -1.601658	 -3.757496	 1.907093	 -0.529529	 -0.138223	 -0.096747	 0.795638	 -0.251462	 0.542556	 2
1463630351.064	 3	 1.183696	 -1.937742	 -4.160010	 1.889039	 -0.572178	 -0.136810	 -0.111892	 0.786772	 -0.266545	 0.545366	 2
1463630351.074	 3	 1.013131	 -1.912659	 -4.143371	 1.871692	 -0.615146	 -0.133381	 -0.128036	 0.777580	 -0.280872	 0.547802	 2
1463630351.084	 3	 1.140073	 -1.853360	 -3.688843	 1.853370	 -0.654936	 -0.132657	 -0.142537	 0.768278	 -0.294319	 0.550281	 2
1463630351.094	 3	 1.442775	 -1.853331	 -2.976352	 1.831122	 -0.688940	 -0.138685	 -0.153570	 0.758789	 -0.306858	 0.553619	 2
1463630351.104	 3	 1.480995	 -2.292471	 -2.503310	 1.803127	 -0.717798	 -0.149505	 -0.162456	 0.748549	 -0.318090	 0.558660	 2
1463630351.114	 3	 0.774705	 -3.783104	 -2.566451	 1.765256	 -0.744591	 -0.155474	 -0.174456	 0.735265	 -0.326064	 0.568008	 2
1463630351.124	 3	 -0.421306	 -4.755746	 -2.679125	 1.725450	 -0.770719	 -0.147528	 -0.191928	 0.720012	 -0.329173	 0.579992	 2
1463630351.134	 3	 -1.303598	 -5.058500	 -2.251152	 1.689473	 -0.792884	 -0.127182	 -0.212015	 0.704695	 -0.327088	 0.592847	 2
1463630351.144	 3	 -1.310739	 -4.768411	 -1.705918	 1.656669	 -0.809692	 -0.104824	 -0.230457	 0.690266	 -0.322369	 0.605393	 2
1463630351.154	 3	 -0.543875	 -4.053129	 -1.322264	 1.623360	 -0.823185	 -0.092363	 -0.244373	 0.676862	 -0.319039	 0.616728	 2
1463630351.164	 3	 0.234111	 -3.114590	 -1.095419	 1.589508	 -0.834600	 -0.092596	 -0.253392	 0.664887	 -0.318581	 0.626278	 2
1463630351.174	 3	 0.632568	 -1.950665	 -1.034770	 1.560885	 -0.845004	 -0.100895	 -0.258648	 0.655601	 -0.320819	 0.632743	 2
1463630351.184	 3	 0.765821	 -0.795392	 -1.100849	 1.541364	 -0.855647	 -0.112450	 -0.261569	 0.649564	 -0.325250	 0.635500	 2
1463630351.194	 3	 0.897555	 0.302123	 -1.212214	 1.531239	 -0.867166	 -0.126233	 -0.262622	 0.646712	 -0.331826	 0.634575	 2
1463630351.204	 3	 1.229435	 1.302219	 -1.329426	 1.527710	 -0.879712	 -0.144654	 -0.261477	 0.646454	 -0.340987	 0.630440	 2
1463630351.214	 3	 1.840784	 2.239047	 -1.404898	 1.526603	 -0.892831	 -0.171996	 -0.257242	 0.648052	 -0.353340	 0.623703	 2
1463630351.224	 3	 2.599929	 2.623304	 -1.497456	 1.521166	 -0.906410	 -0.211848	 -0.249891	 0.649816	 -0.368996	 0.615740	 2
1463630351.234	 3	 3.209387	 2.498505	 -1.593448	 1.505630	 -0.920328	 -0.263524	 -0.240796	 0.649846	 -0.386899	 0.608298	 2
1463630351.244	 3	 3.526097	 2.294854	 -1.681230	 1.481429	 -0.934215	 -0.323206	 -0.231043	 0.648145	 -0.405936	 0.601450	 2
1463630351.254	 3	 3.512429	 1.781187	 -1.825506	 1.449968	 -0.948197	 -0.386279	 -0.222126	 0.644605	 -0.424935	 0.595462	 2
1463630351.264	 3	 3.021459	 0.439212	 -2.128934	 1.409676	 -0.964048	 -0.445548	 -0.217549	 0.637915	 -0.442047	 0.591888	 2
1463630351.274	 3	 2.272801	 -0.822947	 -2.383549	 1.362339	 -0.982454	 -0.496369	 -0.218820	 0.628244	 -0.456196	 0.591027	 2
1463630351.284	 3	 1.297406	 -1.749475	 -2.354903	 1.315487	 -1.002116	 -0.533888	 -0.225238	 0.617469	 -0.466347	 0.592048	 2
1463630351.294	 3	 0.512907	 -2.059546	 -2.016308	 1.275561	 -1.020625	 -0.557062	 -0.234458	 0.607426	 -0.472373	 0.594077	 2
1463630351.304	 3	 0.605248	 -1.633290	 -1.574051	 1.241581	 -1.034962	 -0.576678	 -0.242031	 0.599073	 -0.476892	 0.595908	 2
1463630351.314	 3	 1.147405	 -1.533752	 -1.415850	 1.201347	 -1.045025	 -0.604892	 -0.247130	 0.590180	 -0.482196	 0.598416	 2
1463630351.324	 3	 1.755353	 -1.173743	 -1.393281	 1.153554	 -1.051799	 -0.645433	 -0.249483	 0.580738	 -0.489533	 0.600716	 2
1463630351.334	 3	 2.125327	 -0.828845	 -1.350662	 1.101585	 -1.055236	 -0.694805	 -0.249437	 0.571238	 -0.498414	 0.602537	 2
1463630351.344	 3	 2.127223	 -0.589031	 -1.427313	 1.050064	 -1.057362	 -0.746552	 -0.248570	 0.562166	 -0.507882	 0.603521	 2
1463630351.354	 3	 1.905706	 -0.066808	 -1.664585	 1.003005	 -1.060840	 -0.797997	 -0.247652	 0.554450	 -0.517951	 0.602478	 2
1463630351.364	 3	 1.715350	 0.119496	 -1.717679	 0.960730	 -1.065431	 -0.847616	 -0.246849	 0.548071	 -0.528086	 0.599841	 2
1463630351.374	 3	 1.813098	 0.339529	 -1.550224	 0.920233	 -1.067924	 -0.896823	 -0.245221	 0.542149	 -0.538031	 0.597046	 2
1463630351.384	 3	 2.110293	 1.088666	 -1.234638	 0.885248	 -1.065761	 -0.946700	 -0.240402	 0.537632	 -0.548487	 0.593566	 2
1463630351.394	 3	 2.541194	 1.810559	 -0.808565	 0.857866	 -1.057078	 -0.997057	 -0.231053	 0.534703	 -0.559687	 0.589455	 2
1463630351.404	 3	 2.583853	 2.232720	 -0.510857	 0.838505	 -1.044123	 -1.044041	 -0.218873	 0.532974	 -0.570739	 0.585055	 2
1463630351.414	 3	 2.026704	 2.147724	 -0.430062	 0.827941	 -1.032504	 -1.081955	 -0.207245	 0.532603	 -0.580236	 0.580267	 2
1463630351.424	 3	 1.035882	 1.627050	 -0.468911	 0.824588	 -1.027171	 -1.106452	 -0.199605	 0.533470	 -0.586803	 0.575525	 2
1463630351.434	 3	 0.509075	 1.294114	 -0.245744	 0.827369	 -1.025544	 -1.119056	 -0.194782	 0.535304	 -0.590644	 0.571533	 2
1463630351.444	 3	 0.668445	 1.278315	 0.133199	 0.833190	 -1.021201	 -1.127057	 -0.189219	 0.537172	 -0.593355	 0.568834	 2
1463630351.454	 3	 0.997929	 1.381964	 0.478733	 0.840012	 -1.012098	 -1.135014	 -0.181501	 0.538660	 -0.595968	 0.567208	 2
1463630351.464	 3	 1.053690	 1.216733	 0.743151	 0.847527	 -0.999905	 -1.141342	 -0.172798	 0.539739	 -0.598030	 0.566730	 2
1463630351.474	 3	 0.751358	 0.608930	 0.847769	 0.853928	 -0.988101	 -1.143009	 -0.165829	 0.540118	 -0.598630	 0.567817	 2
1463630351.484	 3	 0.302439	 -0.063466	 0.932813	 0.859194	 -0.978576	 -1.137879	 -0.161921	 0.539921	 -0.597237	 0.570592	 2
1463630351.494	 3	 0.132378	 -0.556992	 1.155643	 0.863433	 -0.969288	 -1.127281	 -0.159884	 0.539047	 -0.594156	 0.575191	 2
1463630351.504	 3	 0.063004	 -0.601265	 1.475564	 0.869133	 -0.958134	 -1.112745	 -0.157734	 0.538077	 -0.589896	 0.581048	 2
1463630351.514	 3	 -0.179440	 -0.446244	 1.780728	 0.880916	 -0.945639	 -1.092249	 -0.154870	 0.538316	 -0.584183	 0.587334	 2
1463630351.524	 3	 -0.401660	 -0.153240	 1.907952	 0.898574	 -0.933332	 -1.067635	 -0.151514	 0.540123	 -0.577539	 0.593093	 2
1463630351.534	 3	 -0.564181	 0.284826	 2.115938	 0.922401	 -0.920283	 -1.039638	 -0.147086	 0.543603	 -0.570078	 0.598225	 2
1463630351.544	 3	 -0.586400	 1.055389	 2.323665	 0.954570	 -0.905484	 -1.009826	 -0.140240	 0.549494	 -0.562252	 0.601882	 2
1463630351.554	 3	 -0.378068	 1.852770	 2.509385	 0.993006	 -0.887597	 -0.981769	 -0.130145	 0.557376	 -0.554715	 0.603892	 2
1463630351.564	 3	 -0.064348	 2.585043	 2.706371	 1.035519	 -0.865873	 -0.957943	 -0.116473	 0.566723	 -0.547791	 0.604305	 2
1463630351.574	 3	 0.253363	 2.970046	 2.977891	 1.079023	 -0.839669	 -0.938604	 -0.099744	 0.576549	 -0.541084	 0.604046	 2
1463630351.584	 3	 0.424667	 3.071615	 3.266166	 1.121561	 -0.809374	 -0.922425	 -0.081017	 0.586192	 -0.533956	 0.603909	 2
1463630351.594	 3	 0.394139	 2.787924	 3.440708	 1.161020	 -0.776717	 -0.907611	 -0.062059	 0.595041	 -0.525937	 0.604537	 2
1463630351.604	 3	 0.183432	 2.131072	 3.565388	 1.194755	 -0.743119	 -0.892093	 -0.044724	 0.602319	 -0.516586	 0.606918	 2
1463630351.614	 3	 -0.174367	 1.465482	 3.745621	 1.223200	 -0.708830	 -0.873699	 -0.029621	 0.608136	 -0.505417	 0.611431	 2
1463630351.624	 3	 -0.658099	 1.006755	 3.946993	 1.248990	 -0.673729	 -0.850629	 -0.016568	 0.613301	 -0.491957	 0.617710	 2
1463630351.634	 3	 -1.234363	 0.553256	 3.952054	 1.272914	 -0.639292	 -0.822164	 -0.006180	 0.618218	 -0.476287	 0.625235	 2
1463630351.644	 3	 -1.691261	 0.790529	 3.633182	 1.298173	 -0.607819	 -0.790547	 0.002074	 0.624083	 -0.459634	 0.631865	 2
1463630351.654	 3	 -1.908992	 1.351131	 2.688522	 1.318147	 -0.585130	 -0.764780	 0.007258	 0.629090	 -0.446315	 0.636393	 2
1463630351.664	 3	 -1.458640	 1.486370	 1.720279	 1.346164	 -0.569886	 -0.740632	 0.011621	 0.637254	 -0.434929	 0.636089	 2
1463630351.674	 3	 -0.739004	 1.191579	 0.814964	 1.366090	 -0.561744	 -0.727421	 0.014791	 0.643242	 -0.428630	 0.634269	 2
1463630351.684	 3	 -0.225458	 0.933898	 0.103626	 1.378330	 -0.559759	 -0.722910	 0.016705	 0.647053	 -0.426616	 0.631698	 2
1463630351.694	 3	 -0.066073	 0.807036	 -0.458468	 1.386592	 -0.563181	 -0.722774	 0.017133	 0.649822	 -0.427355	 0.628336	 2
1463630351.704	 3	 -0.570545	 1.284461	 -0.680903	 1.399403	 -0.570288	 -0.719532	 0.016142	 0.654185	 -0.428013	 0.623367	 2
1463630351.714	 3	 -1.696429	 2.496195	 -0.510618	 1.429471	 -0.578130	 -0.704210	 0.014574	 0.663932	 -0.425034	 0.615084	 2
1463630351.724	 3	 -2.817153	 3.475605	 -0.108072	 1.478673	 -0.583220	 -0.674181	 0.012967	 0.679293	 -0.416885	 0.603821	 2
1463630351.734	 3	 -3.483341	 3.580054	 0.238679	 1.536934	 -0.583693	 -0.633962	 0.010922	 0.696962	 -0.404642	 0.591938	 2
1463630351.744	 3	 -3.534770	 2.557657	 0.327663	 1.589212	 -0.580674	 -0.591351	 0.007375	 0.712491	 -0.391009	 0.582592	 2
1463630351.754	 3	 -3.124522	 1.096071	 0.028063	 1.624870	 -0.578217	 -0.552577	 0.001180	 0.722931	 -0.378940	 0.577732	 2
1463630351.764	 3	 -2.463899	 0.204031	 -0.246035	 1.645994	 -0.578606	 -0.520975	 -0.006470	 0.728977	 -0.369974	 0.575908	 2
1463630351.774	 3	 -1.677258	 0.111119	 0.166161	 1.659030	 -0.576883	 -0.498608	 -0.011667	 0.732662	 -0.363049	 0.575557	 2
1463630351.784	 3	 -0.777587	 0.575911	 0.968369	 1.669564	 -0.568297	 -0.487493	 -0.010944	 0.735822	 -0.357157	 0.575226	 2
1463630351.794	 3	 0.093584	 1.145922	 1.455273	 1.679261	 -0.554682	 -0.487903	 -0.004483	 0.738912	 -0.352902	 0.573977	 2
1463630351.804	 3	 0.680704	 1.775654	 1.556203	 1.690966	 -0.539928	 -0.496364	 0.005656	 0.742551	 -0.350502	 0.570732	 2
1463630351.814	 3	 1.099492	 2.403396	 1.461414	 1.706514	 -0.526431	 -0.510066	 0.017978	 0.747106	 -0.349858	 0.564896	 2
1463630351.824	 3	 1.481820	 3.004561	 1.353905	 1.726010	 -0.514828	 -0.528169	 0.032014	 0.752497	 -0.350840	 0.556448	 2
1463630351.834	 3	 1.840261	 3.545830	 1.483712	 1.749358	 -0.503613	 -0.550708	 0.048301	 0.758583	 -0.352831	 0.545645	 2
1463630351.844	 3	 2.081231	 3.319082	 1.700117	 1.771312	 -0.491303	 -0.576945	 0.066148	 0.763828	 -0.355142	 0.534852	 2
1463630351.854	 3	 2.010271	 2.376130	 1.882732	 1.784752	 -0.477453	 -0.603973	 0.083310	 0.766388	 -0.357128	 0.527417	 2
1463630351.864	 3	 1.505717	 2.420351	 1.616833	 1.797869	 -0.464288	 -0.626363	 0.098424	 0.768739	 -0.357927	 0.520808	 2
1463630351.874	 3	 0.408250	 2.929845	 1.177115	 1.821006	 -0.453449	 -0.637410	 0.110214	 0.774044	 -0.355865	 0.511926	 2
1463630351.884	 3	 -0.430238	 3.111237	 0.771522	 1.852110	 -0.444404	 -0.637030	 0.118355	 0.781868	 -0.350856	 0.501571	 2
1463630351.894	 3	 -0.514463	 2.807225	 0.615956	 1.882733	 -0.436702	 -0.633471	 0.124622	 0.789633	 -0.345399	 0.491579	 2
1463630351.904	 3	 -0.046599	 1.998552	 0.612884	 1.905014	 -0.430344	 -0.633557	 0.130380	 0.795023	 -0.341729	 0.483901	 2
1463630351.914	 3	 0.764828	 1.146572	 0.643719	 1.914938	 -0.426158	 -0.641601	 0.136512	 0.796851	 -0.341499	 0.479345	 2
1463630351.924	 3	 1.507856	 0.882678	 0.487718	 1.917611	 -0.425577	 -0.657529	 0.143486	 0.796369	 -0.344906	 0.475655	 2
1463630351.934	 3	 1.702920	 0.695392	 0.114458	 1.917515	 -0.429340	 -0.675816	 0.149639	 0.795044	 -0.350592	 0.471804	 2
1463630351.944	 3	 1.410529	 0.347748	 -0.275235	 1.915704	 -0.436080	 -0.690729	 0.153261	 0.793565	 -0.356633	 0.468593	 2
1463630351.954	 3	 1.011919	 0.147894	 -0.714849	 1.913555	 -0.445466	 -0.700028	 0.153797	 0.792458	 -0.362290	 0.465942	 2
1463630351.964	 3	 0.682518	 0.137191	 -1.150109	 1.913113	 -0.457865	 -0.704109	 0.151673	 0.792176	 -0.367633	 0.462924	 2
1463630351.974	 3	 0.355289	 0.275061	 -1.483824	 1.915701	 -0.472591	 -0.703381	 0.147513	 0.792946	 -0.372434	 0.459096	 2
1463630351.984	 3	 0.234549	 0.419608	 -1.693514	 1.921201	 -0.488896	 -0.699615	 0.142233	 0.794545	 -0.376881	 0.454345	 2
1463630351.994	 3	 0.344291	 0.725654	 -1.833368	 1.929412	 -0.506879	 -0.695790	 0.136969	 0.796658	 -0.381733	 0.448169	 2
1463630352.004	 3	 0.411532	 1.075222	 -1.709204	 1.940693	 -0.524811	 -0.692906	 0.132719	 0.799261	 -0.386603	 0.440574	 2
1463630352.014	 3	 0.302955	 1.200126	 -1.249884	 1.953675	 -0.538847	 -0.690686	 0.130252	 0.802098	 -0.390181	 0.432933	 2
1463630352.034	 3	 0.404001	 1.666389	 -0.274450	 1.982461	 -0.552930	 -0.691647	 0.132210	 0.807945	 -0.393454	 0.418257	 2
1463630352.044	 3	 0.539138	 2.332970	 0.178196	 2.000694	 -0.554441	 -0.697634	 0.137793	 0.811286	 -0.393997	 0.409384	 2
1463630352.054	 3	 0.376198	 2.560432	 0.531301	 2.022362	 -0.552313	 -0.704638	 0.145504	 0.815214	 -0.393121	 0.399638	 2
1463630352.064	 3	 -0.251041	 2.206484	 0.749819	 2.044297	 -0.545586	 -0.707559	 0.152857	 0.819473	 -0.389645	 0.391504	 2
1463630352.074	 3	 -0.769399	 1.022190	 0.618618	 2.059514	 -0.536521	 -0.704368	 0.156974	 0.822874	 -0.384557	 0.387754	 2
1463630352.024	 3	 0.258933	 1.402771	 -0.750970	 1.967714	 -0.547908	 -0.689569	 0.129921	 0.805056	 -0.392211	 0.425648	 2
1463630352.084	 3	 -0.965787	 -0.438500	 0.197483	 2.062730	 -0.529395	 -0.696565	 0.156312	 0.824260	 -0.380186	 0.389386	 2
1463630352.094	 3	 -1.009071	 -1.582556	 -0.206052	 2.054841	 -0.525685	 -0.685684	 0.151344	 0.823626	 -0.377298	 0.395451	 2
1463630352.104	 3	 -1.065466	 -1.797920	 -0.446296	 2.043129	 -0.524421	 -0.672851	 0.144206	 0.822263	 -0.375138	 0.402938	 2
1463630352.114	 3	 -1.346412	 -0.726044	 -0.446665	 2.039810	 -0.522945	 -0.657578	 0.137711	 0.822699	 -0.371736	 0.407448	 2
1463630352.124	 3	 -1.776246	 0.887646	 -0.154006	 2.054598	 -0.517297	 -0.638931	 0.134287	 0.827110	 -0.364850	 0.405883	 2
1463630352.134	 3	 -1.606930	 0.734471	 0.205454	 2.071450	 -0.508200	 -0.622379	 0.132918	 0.831866	 -0.356969	 0.403614	 2
1463630352.144	 3	 -0.979930	 -0.325406	 0.533308	 2.074837	 -0.498824	 -0.613614	 0.132377	 0.833387	 -0.351429	 0.405512	 2
1463630352.154	 3	 -0.722069	 -0.992801	 0.420407	 2.068661	 -0.490809	 -0.608740	 0.131410	 0.832658	 -0.347805	 0.410418	 2
1463630352.164	 3	 -0.735760	 -0.772753	 -0.334117	 2.063337	 -0.488376	 -0.600841	 0.127852	 0.832134	 -0.345599	 0.414450	 2
1463630352.174	 3	 -0.806256	 0.985417	 -1.098324	 2.074053	 -0.493027	 -0.587934	 0.123075	 0.835029	 -0.344031	 0.411365	 2
1463630352.184	 3	 -0.541504	 1.799424	 -1.236933	 2.097890	 -0.500454	 -0.574720	 0.119670	 0.840444	 -0.342744	 0.402317	 2
1463630352.194	 3	 -0.183047	 0.837331	 -1.466422	 2.114307	 -0.511163	 -0.564062	 0.115210	 0.843947	 -0.343792	 0.395331	 2
1463630352.204	 3	 -0.107960	 -0.234636	 -1.708321	 2.119890	 -0.524784	 -0.553038	 0.107998	 0.845090	 -0.346589	 0.392473	 2
1463630352.214	 3	 -0.125073	 -0.671928	 -1.735688	 2.119680	 -0.538931	 -0.541369	 0.099380	 0.844994	 -0.349798	 0.392110	 2
1463630352.224	 3	 -0.027644	 -0.905565	 -1.647055	 2.117092	 -0.552940	 -0.530488	 0.090709	 0.844290	 -0.353213	 0.392666	 2
1463630352.234	 3	 0.104323	 -1.615939	 -1.431004	 2.107234	 -0.566037	 -0.522270	 0.082093	 0.841988	 -0.357077	 0.395997	 2
1463630352.244	 3	 0.258228	 -2.455714	 -1.449750	 2.088181	 -0.579348	 -0.515912	 0.072505	 0.837671	 -0.361652	 0.402814	 2
1463630352.254	 3	 0.222325	 -2.748606	 -1.812391	 2.064945	 -0.595438	 -0.508576	 0.060918	 0.832237	 -0.367053	 0.411026	 2
1463630352.264	 3	 0.185667	 -2.333708	 -2.400775	 2.046450	 -0.616254	 -0.497831	 0.047405	 0.827403	 -0.373168	 0.417018	 2
1463630352.274	 3	 0.337159	 -1.731236	 -2.861160	 2.034852	 -0.642115	 -0.485543	 0.033080	 0.823482	 -0.380486	 0.419539	 2
1463630352.284	 3	 0.694995	 -1.155037	 -3.194629	 2.028405	 -0.672675	 -0.474822	 0.019035	 0.820011	 -0.389643	 0.418805	 2
1463630352.294	 3	 1.159232	 -0.448085	 -3.494769	 2.026788	 -0.707961	 -0.467345	 0.005939	 0.816842	 -0.401063	 0.414587	 2
1463630352.304	 3	 1.609502	 0.079475	 -3.604620	 2.028697	 -0.746853	 -0.464199	 -0.005657	 0.813738	 -0.414584	 0.407332	 2
1463630352.314	 3	 1.890110	 0.104739	 -3.380886	 2.028772	 -0.785940	 -0.465821	 -0.015728	 0.809929	 -0.428999	 0.399658	 2
1463630352.324	 3	 2.044144	 0.100557	 -3.015644	 2.025154	 -0.822689	 -0.472057	 -0.024114	 0.805416	 -0.443272	 0.392726	 2
1463630352.334	 3	 2.142978	 0.169826	 -2.664159	 2.018697	 -0.856681	 -0.482717	 -0.030684	 0.800549	 -0.457167	 0.386235	 2
1463630352.344	 3	 2.180746	 0.277860	 -2.418357	 2.010470	 -0.888299	 -0.496811	 -0.035763	 0.795585	 -0.470617	 0.379850	 2
1463630352.354	 3	 2.187883	 0.246481	 -2.195966	 2.000070	 -0.918006	 -0.513452	 -0.039974	 0.790447	 -0.483592	 0.373812	 2
1463630352.364	 3	 2.222689	 0.109433	 -1.867159	 1.985098	 -0.944861	 -0.533867	 -0.043208	 0.784889	 -0.495951	 0.368937	 2
1463630352.374	 3	 2.259563	 0.036582	 -1.631558	 1.965587	 -0.969172	 -0.558329	 -0.045522	 0.778955	 -0.507849	 0.365029	 2
1463630352.384	 3	 2.282197	 -0.049547	 -1.472692	 1.942248	 -0.991690	 -0.586093	 -0.047318	 0.772711	 -0.519414	 0.361783	 2
1463630352.394	 3	 2.321584	 0.018530	 -1.309340	 1.915653	 -1.012444	 -0.617495	 -0.048386	 0.766296	 -0.530737	 0.358842	 2
1463630352.404	 3	 2.423259	 -0.055049	 -1.147849	 1.884840	 -1.031409	 -0.653464	 -0.048677	 0.759579	 -0.541970	 0.356285	 2
1463630352.414	 3	 2.383441	 0.037089	 -1.072041	 1.850900	 -1.048853	 -0.692760	 -0.048510	 0.752703	 -0.553016	 0.353917	 2
1463630352.424	 3	 2.168412	 0.075604	 -0.981352	 1.818241	 -1.064376	 -0.731144	 -0.048142	 0.746380	 -0.563155	 0.351362	 2
1463630352.434	 3	 1.868574	 0.019604	 -0.904659	 1.787748	 -1.077816	 -0.766316	 -0.048041	 0.740693	 -0.572022	 0.349078	 2
1463630352.444	 3	 1.517072	 -0.090821	 -0.873851	 1.760863	 -1.089670	 -0.796045	 -0.048675	 0.735762	 -0.579453	 0.347159	 2
1463630352.454	 3	 1.217807	 -0.203607	 -0.854177	 1.737468	 -1.100424	 -0.820400	 -0.050107	 0.731494	 -0.585626	 0.345611	 2
1463630352.464	 3	 0.966195	 -0.386801	 -0.844099	 1.716526	 -1.110366	 -0.840077	 -0.052404	 0.727678	 -0.590744	 0.344615	 2
1463630352.474	 3	 0.737606	 -0.645755	 -0.858373	 1.697109	 -1.119896	 -0.855280	 -0.055846	 0.724106	 -0.594933	 0.344392	 2
1463630352.484	 3	 0.570540	 -0.962511	 -0.898233	 1.677867	 -1.129399	 -0.866874	 -0.060617	 0.720522	 -0.598398	 0.345099	 2
1463630352.494	 3	 0.526638	 -1.298692	 -1.073633	 1.656532	 -1.140152	 -0.877000	 -0.067046	 0.716504	 -0.601690	 0.346548	 2
1463630352.504	 3	 0.532706	 -1.599678	 -1.069026	 1.631268	 -1.151279	 -0.887962	 -0.074574	 0.711862	 -0.604922	 0.348943	 2
1463630352.514	 3	 0.542114	 -1.857187	 -1.081096	 1.602192	 -1.162217	 -0.900098	 -0.082875	 0.706659	 -0.607999	 0.352281	 2
1463630352.524	 3	 0.569546	 -2.022167	 -1.233143	 1.569524	 -1.174184	 -0.913980	 -0.092125	 0.700905	 -0.611209	 0.355906	 2
1463630352.534	 3	 0.569314	 -1.935065	 -1.395392	 1.535182	 -1.187642	 -0.929689	 -0.101909	 0.694952	 -0.614670	 0.358939	 2
1463630352.544	 3	 0.616048	 -1.636298	 -1.537962	 1.501154	 -1.202350	 -0.948101	 -0.111250	 0.689269	 -0.618542	 0.360468	 2
1463630352.554	 3	 0.685410	 -1.588002	 -1.596734	 1.463740	 -1.217604	 -0.971098	 -0.120427	 0.683387	 -0.622806	 0.361376	 2
1463630352.564	 3	 0.600606	 -1.558248	 -1.488077	 1.425294	 -1.231865	 -0.995192	 -0.129378	 0.677612	 -0.626714	 0.362398	 2
1463630352.574	 3	 0.516048	 -1.211873	 -1.425500	 1.390313	 -1.245199	 -1.018286	 -0.137408	 0.672614	 -0.630222	 0.362670	 2
1463630352.584	 3	 0.652079	 -0.933147	 -1.362277	 1.354195	 -1.257514	 -1.045856	 -0.144071	 0.667928	 -0.634050	 0.362073	 2
1463630352.594	 3	 0.882858	 -0.695186	 -1.308784	 1.311616	 -1.268380	 -1.082638	 -0.149357	 0.662969	 -0.638633	 0.360989	 2
1463630352.604	 3	 1.023336	 -0.556226	 -1.303385	 1.262662	 -1.278122	 -1.127689	 -0.153757	 0.657730	 -0.643824	 0.359502	 2
1463630352.614	 3	 1.012782	 -0.781471	 -1.274482	 1.209004	 -1.286843	 -1.176715	 -0.158257	 0.652207	 -0.648977	 0.358342	 2
1463630352.624	 3	 0.575712	 -1.583234	 -1.277071	 1.155161	 -1.295943	 -1.218397	 -0.165597	 0.646363	 -0.652487	 0.359240	 2
1463630352.634	 3	 -0.242744	 -2.310975	 -1.199982	 1.116028	 -1.307192	 -1.236824	 -0.176574	 0.641557	 -0.652776	 0.362092	 2
1463630352.644	 3	 -0.944155	 -2.742660	 -1.024173	 1.098052	 -1.320326	 -1.227913	 -0.190107	 0.638303	 -0.649764	 0.366382	 2
1463630352.654	 3	 -1.311554	 -2.765486	 -0.800573	 1.098865	 -1.333619	 -1.198389	 -0.204140	 0.636333	 -0.644655	 0.371250	 2
1463630352.664	 3	 -1.462871	 -2.488708	 -0.535569	 1.116112	 -1.345433	 -1.154264	 -0.216985	 0.635490	 -0.638524	 0.375975	 2
1463630352.674	 3	 -1.559107	 -2.095960	 -0.243320	 1.150112	 -1.354816	 -1.096948	 -0.227858	 0.635862	 -0.631811	 0.380229	 2
1463630352.684	 3	 -1.767849	 -1.785958	 0.033151	 1.203799	 -1.361655	 -1.023016	 -0.237051	 0.637619	 -0.624294	 0.384064	 2
1463630352.694	 3	 -2.119242	 -1.368399	 0.270301	 1.283753	 -1.366192	 -0.926117	 -0.244906	 0.641295	 -0.615607	 0.387027	 2
1463630352.704	 3	 -2.330657	 -0.708562	 0.532999	 1.388009	 -1.367026	 -0.810641	 -0.250557	 0.647170	 -0.606221	 0.388444	 2
1463630352.714	 3	 -2.337128	 -0.050294	 0.808818	 1.501734	 -1.362617	 -0.692361	 -0.253319	 0.654751	 -0.596896	 0.388389	 2
1463630352.724	 3	 -2.316691	 0.491434	 1.011913	 1.613210	 -1.353236	 -0.582021	 -0.253550	 0.663542	 -0.587841	 0.387126	 2
1463630352.734	 3	 -2.421736	 0.979673	 1.121816	 1.721447	 -1.340018	 -0.479826	 -0.251989	 0.673547	 -0.578834	 0.384430	 2
1463630352.744	 3	 -2.573752	 1.517581	 1.168644	 1.827573	 -1.323445	 -0.384743	 -0.248936	 0.684924	 -0.569703	 0.379932	 2
1463630352.754	 3	 -2.529600	 2.273734	 1.176361	 1.927827	 -1.304575	 -0.302537	 -0.243858	 0.697500	 -0.561216	 0.372911	 2
1463630352.764	 3	 -2.166840	 3.138639	 1.202566	 2.014472	 -1.284835	 -0.242744	 -0.235755	 0.710607	 -0.554540	 0.363238	 2
1463630352.774	 3	 -1.598551	 3.894426	 1.517985	 2.081250	 -1.264151	 -0.211887	 -0.223488	 0.723736	 -0.549998	 0.351798	 2
1463630352.784	 3	 -0.996799	 4.403172	 1.954442	 2.125517	 -1.242486	 -0.210408	 -0.206974	 0.736260	 -0.547261	 0.339983	 2
1463630352.794	 3	 -0.574686	 4.653617	 2.339969	 2.153203	 -1.219973	 -0.229919	 -0.187155	 0.747990	 -0.545582	 0.328367	 2
1463630352.804	 3	 -0.398770	 4.580922	 2.653227	 2.170884	 -1.196204	 -0.260432	 -0.165549	 0.758885	 -0.543890	 0.317602	 2
1463630352.814	 3	 -0.462484	 4.109442	 3.025608	 2.181460	 -1.169733	 -0.295004	 -0.143518	 0.768981	 -0.540959	 0.308925	 2
1463630352.824	 3	 -0.754778	 3.444398	 3.307589	 2.187465	 -1.139262	 -0.327973	 -0.122194	 0.778469	 -0.535802	 0.303267	 2
1463630352.834	 3	 -1.188954	 2.664213	 3.201797	 2.194774	 -1.106471	 -0.351493	 -0.103471	 0.787475	 -0.528274	 0.300171	 2
1463630352.844	 3	 -1.560992	 2.005725	 2.742762	 2.206816	 -1.074587	 -0.362249	 -0.088672	 0.795951	 -0.519171	 0.298432	 2
1463630352.854	 3	 -1.791859	 1.498170	 2.180524	 2.222915	 -1.045525	 -0.362350	 -0.077796	 0.803807	 -0.509416	 0.297218	 2
1463630352.864	 3	 -1.839775	 0.850848	 1.632445	 2.239472	 -1.020323	 -0.355049	 -0.070828	 0.810634	 -0.499751	 0.296825	 2
1463630352.874	 3	 -1.735983	 0.291795	 1.290624	 2.251985	 -0.998664	 -0.345095	 -0.066913	 0.816085	 -0.490683	 0.297922	 2
1463630352.884	 3	 -1.594556	 0.058646	 1.171054	 2.260745	 -0.979142	 -0.335830	 -0.064237	 0.820593	 -0.482270	 0.299862	 2
1463630352.894	 3	 -1.459376	 -0.027801	 1.185060	 2.266387	 -0.960553	 -0.328823	 -0.061674	 0.824511	 -0.474357	 0.302264	 2
1463630352.904	 3	 -1.322382	 0.008371	 1.241755	 2.269870	 -0.942440	 -0.324468	 -0.058683	 0.828063	 -0.466888	 0.304768	 2
1463630352.914	 3	 -1.162561	 0.128537	 1.303295	 2.272052	 -0.924822	 -0.322938	 -0.054959	 0.831367	 -0.459946	 0.307016	 2
1463630352.924	 3	 -0.968649	 0.262205	 1.333758	 2.273290	 -0.908101	 -0.324256	 -0.050472	 0.834395	 -0.453719	 0.308832	 2
1463630352.934	 3	 -0.757814	 0.399767	 1.321479	 2.273940	 -0.892730	 -0.328111	 -0.045351	 0.837109	 -0.448365	 0.310098	 2
1463630352.944	 3	 -0.551613	 0.492390	 1.270455	 2.274112	 -0.879032	 -0.333976	 -0.039850	 0.839459	 -0.443944	 0.310859	 2
1463630352.954	 3	 -0.346569	 0.579581	 1.203403	 2.273907	 -0.867156	 -0.341519	 -0.034113	 0.841433	 -0.440477	 0.311139	 2
1463630352.964	 3	 -0.100953	 0.643490	 1.168821	 2.272845	 -0.857127	 -0.351243	 -0.028036	 0.842961	 -0.438054	 0.311030	 2
1463630352.974	 3	 0.131870	 0.690589	 1.157640	 2.270375	 -0.848743	 -0.363503	 -0.021544	 0.843990	 -0.436653	 0.310725	 2
1463630352.984	 3	 0.348650	 0.756650	 1.114803	 2.267048	 -0.841985	 -0.377831	 -0.014709	 0.844599	 -0.436210	 0.310094	 2
1463630352.994	 3	 0.559884	 0.820237	 1.021900	 2.263294	 -0.837171	 -0.393713	 -0.007735	 0.844800	 -0.436773	 0.309003	 2
1463630353.004	 3	 0.759230	 0.878316	 0.898142	 2.259307	 -0.834534	 -0.410695	 -0.000835	 0.844593	 -0.438359	 0.307413	 2
1463630353.014	 3	 0.925615	 0.971511	 0.763274	 2.255652	 -0.833988	 -0.428425	 0.005971	 0.844087	 -0.440868	 0.305152	 2
1463630353.024	 3	 1.051193	 1.034836	 0.599708	 2.252666	 -0.835473	 -0.446256	 0.012490	 0.843349	 -0.444160	 0.302207	 2
1463630353.034	 3	 1.133745	 1.047055	 0.411529	 2.250317	 -0.838907	 -0.463520	 0.018441	 0.842401	 -0.448083	 0.298734	 2
1463630353.044	 3	 1.195534	 0.988855	 0.184508	 2.248396	 -0.844430	 -0.479619	 0.023490	 0.841211	 -0.452590	 0.294914	 2
1463630353.054	 3	 1.241770	 0.828355	 -0.075302	 2.246308	 -0.852205	 -0.494047	 0.027243	 0.839692	 -0.457664	 0.291066	 2
1463630353.064	 3	 1.249063	 0.575278	 -0.356951	 2.243529	 -0.862241	 -0.506247	 0.029338	 0.837786	 -0.463229	 0.287529	 2
1463630353.074	 3	 1.248477	 0.236066	 -0.639332	 2.239444	 -0.874449	 -0.515885	 0.029502	 0.835431	 -0.469210	 0.284650	 2
1463630353.084	 3	 1.341921	 -0.305497	 -0.920151	 2.231852	 -0.889193	 -0.523798	 0.027461	 0.832257	 -0.475881	 0.283074	 2
1463630353.094	 3	 1.573879	 -1.103930	 -1.219488	 2.216401	 -0.907524	 -0.532013	 0.022701	 0.827473	 -0.483926	 0.283882	 2
1463630353.104	 3	 1.465262	 -1.767887	 -1.446399	 2.195011	 -0.927829	 -0.538551	 0.015155	 0.821574	 -0.492360	 0.287000	 2
1463630353.114	 3	 0.875190	 -1.883960	 -1.557444	 2.176437	 -0.946406	 -0.538018	 0.005669	 0.816316	 -0.498960	 0.290921	 2
1463630353.124	 3	 0.067044	 -1.235193	 -1.595527	 2.171492	 -0.961122	 -0.526270	 -0.004076	 0.813514	 -0.502417	 0.292840	 2
1463630353.134	 3	 -0.814158	 0.326118	 -1.228019	 2.188921	 -0.968861	 -0.504033	 -0.010690	 0.814835	 -0.501971	 0.289751	 2
1463630353.144	 3	 -1.034245	 0.541792	 -0.470602	 2.212600	 -0.968120	 -0.482345	 -0.013439	 0.818223	 -0.498729	 0.285656	 2
1463630353.154	 3	 -0.608363	 0.213630	 0.208987	 2.223631	 -0.963291	 -0.472415	 -0.013602	 0.820479	 -0.495646	 0.284544	 2
1463630353.164	 3	 -0.053528	 0.048219	 0.650237	 2.221718	 -0.957722	 -0.475772	 -0.011362	 0.821090	 -0.494095	 0.285572	 2
1463630353.174	 3	 0.252651	 -0.333347	 0.809222	 2.210715	 -0.952656	 -0.486738	 -0.008357	 0.820338	 -0.493783	 0.288364	 2
1463630353.184	 3	 0.119985	 -1.096511	 0.825657	 2.192955	 -0.947099	 -0.497548	 -0.006949	 0.818620	 -0.493292	 0.294068	 2
1463630353.194	 3	 -0.219165	 -1.787426	 0.894652	 2.171297	 -0.939150	 -0.504139	 -0.007606	 0.816558	 -0.491361	 0.302885	 2
1463630353.204	 3	 -0.236142	 -2.046434	 0.958467	 2.146956	 -0.929834	 -0.509361	 -0.009078	 0.814129	 -0.488762	 0.313406	 2
1463630353.214	 3	 -0.065242	 -1.769495	 0.936110	 2.122665	 -0.921287	 -0.516320	 -0.009966	 0.811444	 -0.486747	 0.323321	 2
1463630353.224	 3	 -0.182200	 -1.001213	 0.937882	 2.105718	 -0.912687	 -0.522408	 -0.009357	 0.809819	 -0.484655	 0.330477	 2
1463630353.234	 3	 -0.592474	 -0.082225	 1.069372	 2.101283	 -0.901317	 -0.524042	 -0.006758	 0.810522	 -0.480942	 0.334220	 2
1463630353.244	 3	 -0.901699	 0.757834	 1.210970	 2.108509	 -0.886961	 -0.522193	 -0.001985	 0.813501	 -0.475615	 0.334668	 2
1463630353.254	 3	 -0.892165	 0.810401	 1.130378	 2.119032	 -0.872115	 -0.519402	 0.003263	 0.817070	 -0.469893	 0.334045	 2
1463630353.264	 3	 -0.590222	 0.550508	 0.614830	 2.127342	 -0.862132	 -0.516693	 0.006702	 0.819668	 -0.465859	 0.333280	 2
1463630353.274	 3	 -0.173047	 0.473548	 0.144744	 2.133314	 -0.858483	 -0.514948	 0.008322	 0.821106	 -0.464238	 0.331962	 2
1463630353.284	 3	 0.192858	 0.913895	 -0.145298	 2.140258	 -0.859860	 -0.515936	 0.009985	 0.822082	 -0.464864	 0.328606	 2
1463630353.294	 3	 0.055687	 1.676196	 -0.389596	 2.156029	 -0.863210	 -0.514706	 0.012290	 0.824243	 -0.465786	 0.321738	 2
1463630353.304	 3	 -0.223377	 2.237746	 -0.653710	 2.182726	 -0.867206	 -0.507522	 0.014534	 0.828016	 -0.465922	 0.311600	 2
1463630353.314	 3	 -0.332362	 2.304257	 -0.766178	 2.214153	 -0.871391	 -0.496701	 0.016330	 0.832361	 -0.465562	 0.300267	 2
1463630353.324	 3	 -0.204749	 1.956314	 -0.734291	 2.242699	 -0.875789	 -0.486476	 0.017654	 0.836064	 -0.465446	 0.289907	 2
1463630353.334	 3	 0.202662	 1.106318	 -0.593344	 2.260232	 -0.881237	 -0.481245	 0.018269	 0.837860	 -0.466580	 0.282771	 2
1463630353.344	 3	 0.735714	 -0.034377	 -0.447670	 2.260810	 -0.888784	 -0.483770	 0.017700	 0.836847	 -0.469762	 0.280532	 2
1463630353.354	 3	 1.143404	 -0.991252	 -0.378060	 2.245914	 -0.898460	 -0.492924	 0.015730	 0.833294	 -0.474781	 0.282766	 2
1463630353.364	 3	 1.341970	 -1.597522	 -0.446179	 2.221643	 -0.909771	 -0.505307	 0.012365	 0.828145	 -0.480881	 0.287710	 2
1463630353.374	 3	 1.513913	 -2.319434	 -0.631310	 2.189442	 -0.923177	 -0.519090	 0.006956	 0.821514	 -0.487896	 0.294999	 2
1463630353.384	 3	 1.479239	 -3.016792	 -0.740876	 2.149556	 -0.937716	 -0.533179	 -0.000769	 0.813515	 -0.495222	 0.304875	 2
1463630353.394	 3	 1.046926	 -3.309758	 -0.687616	 2.108386	 -0.949904	 -0.543703	 -0.009945	 0.805513	 -0.500965	 0.316360	 2
1463630353.404	 3	 0.598744	 -3.284134	 -0.709062	 2.072176	 -0.960274	 -0.547815	 -0.020182	 0.798352	 -0.504868	 0.327620	 2
1463630353.414	 3	 0.378187	 -3.076172	 -0.868272	 2.041749	 -0.969841	 -0.546926	 -0.030856	 0.792039	 -0.507517	 0.337860	 2
1463630353.424	 3	 0.423063	 -2.714682	 -1.015571	 2.014756	 -0.980404	 -0.545555	 -0.041206	 0.786038	 -0.510258	 0.346530	 2
1463630353.434	 3	 0.611701	 -2.247838	 -1.097065	 1.990180	 -0.992554	 -0.546623	 -0.050512	 0.780209	 -0.513802	 0.353171	 2
1463630353.444	 3	 0.799607	 -1.736093	 -1.147227	 1.967756	 -1.005967	 -0.551118	 -0.058389	 0.774637	 -0.518248	 0.357696	 2
1463630353.454	 3	 0.923459	 -1.230531	 -1.195823	 1.948031	 -1.020313	 -0.558382	 -0.064879	 0.769502	 -0.523419	 0.360126	 2
1463630353.464	 3	 1.000322	 -0.750201	 -1.222930	 1.931474	 -1.035212	 -0.567593	 -0.070064	 0.764947	 -0.529085	 0.360579	 2
1463630353.474	 3	 1.087462	 -0.368686	 -1.231862	 1.917100	 -1.050439	 -0.578956	 -0.074055	 0.760851	 -0.535195	 0.359427	 2
1463630353.484	 3	 1.194502	 -0.089142	 -1.214206	 1.903220	 -1.065821	 -0.593103	 -0.077010	 0.756973	 -0.541747	 0.357173	 2
1463630353.494	 3	 1.316208	 0.120263	 -1.182410	 1.888503	 -1.081206	 -0.610670	 -0.079020	 0.753133	 -0.548744	 0.354157	 2
1463630353.504	 3	 1.421447	 0.250850	 -1.172520	 1.872131	 -1.096632	 -0.631675	 -0.080344	 0.749201	 -0.556147	 0.350632	 2
1463630353.514	 3	 1.486820	 0.303885	 -1.166201	 1.853750	 -1.112048	 -0.655549	 -0.081313	 0.745121	 -0.563801	 0.346860	 2
1463630353.524	 3	 1.528261	 0.277076	 -1.179600	 1.832989	 -1.127447	 -0.681831	 -0.082236	 0.740831	 -0.571583	 0.343072	 2
1463630353.534	 3	 1.578747	 0.141667	 -1.204747	 1.808657	 -1.142945	 -0.710723	 -0.083460	 0.736150	 -0.579486	 0.339579	 2
1463630353.544	 3	 1.562916	 -0.057094	 -1.192603	 1.780226	 -1.158083	 -0.741779	 -0.085209	 0.731050	 -0.587266	 0.336785	 2
1463630353.554	 3	 1.517252	 -0.239864	 -1.187512	 1.748821	 -1.172704	 -0.773968	 -0.087519	 0.725717	 -0.594747	 0.334591	 2
1463630353.564	 3	 1.468876	 -0.566029	 -1.157087	 1.713071	 -1.186576	 -0.807469	 -0.090686	 0.719966	 -0.601837	 0.333492	 2
1463630353.574	 3	 1.358593	 -0.900473	 -1.119806	 1.673555	 -1.199488	 -0.841141	 -0.094902	 0.713865	 -0.608324	 0.333665	 2
1463630353.584	 3	 1.196354	 -1.159285	 -1.087763	 1.632680	 -1.211427	 -0.873164	 -0.100077	 0.707714	 -0.614022	 0.334817	 2
1463630353.594	 3	 1.039550	 -1.382081	 -1.073550	 1.591483	 -1.222629	 -0.902922	 -0.106157	 0.701612	 -0.618937	 0.336733	 2
1463630353.614	 4	 0.873307	 -1.750951	 -1.112837	 1.505669	 -1.244101	 -0.959898	 -0.120628	 0.689207	 -0.627224	 0.342101	 2
1463630353.624	 4	 0.852853	 -1.980924	 -1.153166	 1.457713	 -1.254717	 -0.990195	 -0.129112	 0.682490	 -0.630934	 0.345631	 2
1463630353.634	 4	 0.764377	 -2.122670	 -1.228318	 1.407057	 -1.265573	 -1.021343	 -0.138471	 0.675524	 -0.634319	 0.349474	 2
1463630353.644	 4	 0.542326	 -2.064168	 -1.317496	 1.359012	 -1.277179	 -1.049745	 -0.148410	 0.668996	 -0.637134	 0.352815	 2
1463630353.654	 4	 0.246501	 -1.845591	 -1.362977	 1.318917	 -1.289641	 -1.071686	 -0.158440	 0.663567	 -0.639134	 0.355081	 2
1463630353.664	 4	 0.073782	 -1.595047	 -1.350616	 1.285882	 -1.302436	 -1.088777	 -0.168041	 0.659165	 -0.640550	 0.356314	 2
1463630353.674	 4	 0.002643	 -1.358147	 -1.272123	 1.256865	 -1.314774	 -1.104170	 -0.176807	 0.655469	 -0.641699	 0.356823	 2
1463630353.684	 4	 -0.042784	 -1.156995	 -1.125978	 1.231462	 -1.325924	 -1.117959	 -0.184547	 0.652376	 -0.642579	 0.356987	 2
1463630353.694	 4	 -0.027327	 -0.964356	 -0.955929	 1.208720	 -1.335416	 -1.130962	 -0.191109	 0.649749	 -0.643294	 0.357038	 2
1463630353.704	 4	 0.039971	 -0.857045	 -0.797784	 1.186173	 -1.343122	 -1.145123	 -0.196601	 0.647304	 -0.644008	 0.357210	 2
1463630353.714	 4	 0.075301	 -0.947629	 -0.661451	 1.162436	 -1.349243	 -1.160160	 -0.201638	 0.644757	 -0.644579	 0.357979	 2
1463630353.724	 4	 -0.042421	 -1.335772	 -0.552133	 1.139647	 -1.354527	 -1.171015	 -0.207428	 0.641977	 -0.644370	 0.360037	 2
1463630353.734	 4	 -0.459918	 -1.926203	 -0.445284	 1.126555	 -1.360236	 -1.166235	 -0.215264	 0.639334	 -0.642282	 0.363849	 2
1463630353.744	 4	 -1.135645	 -2.334633	 -0.279074	 1.138827	 -1.367260	 -1.130670	 -0.225273	 0.637918	 -0.637332	 0.368945	 2
1463630353.754	 4	 -1.711157	 -2.387459	 -0.023035	 1.184863	 -1.374449	 -1.059262	 -0.236112	 0.638383	 -0.629684	 0.374455	 2
1463630353.764	 4	 -2.023036	 -2.053268	 0.320637	 1.260729	 -1.378962	 -0.959894	 -0.245826	 0.640689	 -0.620393	 0.379737	 2
1463630353.774	 4	 -2.252606	 -1.268090	 0.699762	 1.363296	 -1.378767	 -0.840262	 -0.252664	 0.645370	 -0.610317	 0.383631	 2
1463630353.784	 4	 -2.347357	 -0.393027	 1.061497	 1.481541	 -1.372627	 -0.713675	 -0.255810	 0.652523	 -0.600122	 0.385523	 2
1463630353.794	 4	 -2.332731	 0.234153	 1.312331	 1.597383	 -1.360742	 -0.596304	 -0.255915	 0.661271	 -0.590122	 0.385985	 2
1463630353.804	 4	 -2.326542	 0.740444	 1.462998	 1.702421	 -1.344485	 -0.494796	 -0.253836	 0.671038	 -0.580371	 0.385285	 2
1463630353.814	 4	 -2.373119	 1.466416	 1.232494	 1.802764	 -1.327275	 -0.404855	 -0.250235	 0.681981	 -0.571461	 0.381727	 2
1463630353.824	 4	 -2.323061	 2.009866	 1.098566	 1.897360	 -1.310229	 -0.326723	 -0.245513	 0.693575	 -0.563670	 0.375439	 2
1463630353.834	 4	 -2.181005	 2.357314	 1.254032	 1.979286	 -1.290957	 -0.265336	 -0.239039	 0.705491	 -0.556410	 0.368172	 2
1463630353.844	 4	 -1.924624	 2.726820	 1.417234	 2.046332	 -1.269990	 -0.222814	 -0.230514	 0.717416	 -0.549891	 0.360273	 2
1463630353.854	 4	 -1.559078	 3.096579	 1.659420	 2.097713	 -1.248108	 -0.200444	 -0.219478	 0.729084	 -0.544468	 0.351881	 2
1463630353.864	 4	 -1.210889	 3.277120	 2.055597	 2.132968	 -1.224760	 -0.197542	 -0.205755	 0.740309	 -0.539794	 0.343845	 2
1463630353.874	 4	 -0.984430	 3.171234	 2.505589	 2.153631	 -1.199070	 -0.209768	 -0.189964	 0.750914	 -0.535054	 0.337283	 2
1463630353.884	 4	 -0.883861	 2.877198	 2.919756	 2.163170	 -1.170604	 -0.231425	 -0.172929	 0.760827	 -0.529614	 0.332787	 2
1463630353.894	 4	 -0.909999	 2.517790	 3.215053	 2.166088	 -1.139489	 -0.256722	 -0.155494	 0.770088	 -0.523109	 0.330370	 2
1463630353.904	 4	 -1.056146	 2.192652	 3.347586	 2.167402	 -1.106293	 -0.280480	 -0.138386	 0.778906	 -0.515376	 0.329456	 2
1463630353.914	 4	 -1.242491	 1.867391	 3.300354	 2.169993	 -1.072097	 -0.299506	 -0.122378	 0.787334	 -0.506486	 0.329547	 2
1463630353.924	 4	 -1.367417	 1.555847	 3.116297	 2.174208	 -1.038383	 -0.313444	 -0.107953	 0.795217	 -0.496896	 0.330258	 2
1463630353.934	 4	 -1.414046	 1.183799	 2.834012	 2.178819	 -1.006463	 -0.323066	 -0.095502	 0.802275	 -0.487122	 0.331581	 2
1463630353.944	 4	 -1.392952	 0.730367	 2.503485	 2.182228	 -0.977249	 -0.329132	 -0.085378	 0.808234	 -0.477566	 0.333765	 2
1463630353.954	 4	 -1.348491	 0.242921	 2.185228	 2.183146	 -0.950909	 -0.332432	 -0.077622	 0.812979	 -0.468408	 0.337095	 2
1463630353.964	 4	 -1.295063	 -0.176283	 1.894172	 2.181594	 -0.927327	 -0.333394	 -0.072021	 0.816616	 -0.459722	 0.341478	 2
1463630353.974	 4	 -1.258018	 -0.491898	 1.654313	 2.178161	 -0.906052	 -0.332417	 -0.068160	 0.819376	 -0.451453	 0.346653	 2
1463630353.984	 4	 -1.177240	 -0.654949	 1.496492	 2.173394	 -0.886645	 -0.330501	 -0.065393	 0.821482	 -0.443642	 0.352240	 2
1463630353.994	 4	 -1.017228	 -0.607025	 1.423072	 2.167856	 -0.868795	 -0.329532	 -0.062740	 0.823157	 -0.436535	 0.357650	 2
1463630354.004	 4	 -0.798656	 -0.380423	 1.372121	 2.162606	 -0.852518	 -0.330470	 -0.059576	 0.824629	 -0.430361	 0.362253	 2
1463630354.014	 4	 -0.506741	 0.012927	 1.317820	 2.158781	 -0.838211	 -0.334377	 -0.055324	 0.826090	 -0.425515	 0.365311	 2
1463630354.024	 4	 -0.220226	 0.406176	 1.247579	 2.156863	 -0.826072	 -0.341155	 -0.049980	 0.827608	 -0.422075	 0.366632	 2
1463630354.034	 4	 0.082428	 0.793289	 1.217639	 2.156528	 -0.815918	 -0.351156	 -0.043433	 0.829160	 -0.420025	 0.366315	 2
1463630354.044	 4	 0.360241	 1.114559	 1.191566	 2.157348	 -0.807555	 -0.364352	 -0.035739	 0.830679	 -0.419259	 0.364577	 2
1463630354.054	 4	 0.595081	 1.371112	 1.170593	 2.159067	 -0.800754	 -0.380176	 -0.027131	 0.832120	 -0.419565	 0.361671	 2
1463630354.064	 4	 0.812365	 1.546700	 1.124507	 2.161147	 -0.795508	 -0.398310	 -0.017853	 0.833359	 -0.420851	 0.357879	 2
1463630354.074	 4	 0.981125	 1.660360	 1.026045	 2.163600	 -0.792010	 -0.417815	 -0.008339	 0.834354	 -0.423006	 0.353341	 2
1463630354.084	 4	 1.144227	 1.746034	 0.879413	 2.166412	 -0.790570	 -0.438115	 0.001087	 0.835057	 -0.426025	 0.348110	 2
1463630354.094	 4	 1.297415	 1.799540	 0.693134	 2.169534	 -0.791533	 -0.458886	 0.010190	 0.835424	 -0.429965	 0.342190	 2
1463630354.104	 4	 1.390381	 1.785952	 0.470520	 2.172970	 -0.794935	 -0.479250	 0.018593	 0.835464	 -0.434670	 0.335732	 2
1463630354.114	 4	 1.414692	 1.687560	 0.259438	 2.176411	 -0.800398	 -0.498395	 0.025979	 0.835195	 -0.439857	 0.329091	 2
1463630354.124	 4	 1.467557	 1.461020	 0.135372	 2.178523	 -0.807367	 -0.516786	 0.032381	 0.834475	 -0.445415	 0.322814	 2
1463630354.134	 4	 1.516171	 1.252450	 -0.005541	 2.178224	 -0.815680	 -0.535092	 0.037859	 0.833161	 -0.451420	 0.317221	 2
1463630354.144	 4	 1.501451	 1.062374	 -0.261899	 2.177255	 -0.825842	 -0.551613	 0.041952	 0.831528	 -0.457763	 0.311856	 2
1463630354.154	 4	 1.516463	 0.889865	 -0.576969	 2.176076	 -0.838524	 -0.565820	 0.044368	 0.829599	 -0.464595	 0.306510	 2
1463630354.164	 4	 1.580429	 0.728562	 -0.940313	 2.174707	 -0.854379	 -0.577905	 0.045019	 0.827302	 -0.472176	 0.300990	 2
1463630354.174	 4	 1.771546	 0.337471	 -1.258950	 2.170848	 -0.873820	 -0.589223	 0.043799	 0.824208	 -0.480886	 0.295824	 2
1463630354.184	 4	 2.069755	 -0.720234	 -1.497330	 2.155730	 -0.897073	 -0.602980	 0.039766	 0.818938	 -0.491407	 0.293730	 2
1463630354.194	 4	 1.529508	 -1.221776	 -1.502622	 2.136202	 -0.919229	 -0.612995	 0.033194	 0.813234	 -0.500888	 0.294381	 2
1463630354.204	 4	 0.405977	 -0.360628	 -1.128862	 2.130452	 -0.933483	 -0.611774	 0.027474	 0.810677	 -0.505655	 0.293874	 2
1463630354.214	 4	 -0.668889	 1.571000	 -0.521754	 2.151370	 -0.936875	 -0.599555	 0.026903	 0.813460	 -0.504752	 0.287721	 2
1463630354.224	 4	 -0.834885	 1.692230	 -0.005483	 2.179924	 -0.933091	 -0.586395	 0.029693	 0.818190	 -0.501170	 0.280200	 2
1463630354.234	 4	 -0.324600	 0.723549	 0.383918	 2.192396	 -0.928020	 -0.582881	 0.032660	 0.820649	 -0.498710	 0.277050	 2
1463630354.244	 4	 0.080280	 -0.010281	 0.555809	 2.189972	 -0.923691	 -0.587963	 0.035238	 0.820794	 -0.497934	 0.277699	 2
1463630354.254	 4	 0.216308	 -0.792580	 0.535622	 2.177836	 -0.920361	 -0.595866	 0.036305	 0.819385	 -0.498090	 0.281419	 2
1463630354.264	 4	 0.095753	 -1.618201	 0.451188	 2.158547	 -0.917238	 -0.602174	 0.034887	 0.816916	 -0.498245	 0.288414	 2
1463630354.274	 4	 -0.155215	 -2.072999	 0.408643	 2.136764	 -0.913255	 -0.604631	 0.031509	 0.814170	 -0.497592	 0.297551	 2
1463630354.284	 4	 -0.261119	 -2.098458	 0.375223	 2.115657	 -0.908666	 -0.604489	 0.027426	 0.811525	 -0.496308	 0.307170	 2
1463630354.294	 4	 -0.181253	 -1.649077	 0.335013	 2.097742	 -0.904693	 -0.604481	 0.024050	 0.809196	 -0.495184	 0.315304	 2
1463630354.304	 4	 -0.195435	 -0.854139	 0.387296	 2.086781	 -0.900589	 -0.604873	 0.022612	 0.807913	 -0.493982	 0.320542	 2
1463630354.314	 4	 -0.261631	 -0.155559	 0.624578	 2.082970	 -0.894569	 -0.605759	 0.023672	 0.807959	 -0.492129	 0.323189	 2
1463630354.324	 4	 -0.325586	 0.296628	 0.912835	 2.083331	 -0.885699	 -0.607989	 0.027083	 0.808958	 -0.489476	 0.324449	 2
1463630354.334	 4	 -0.223697	 0.125542	 0.975367	 2.082012	 -0.875784	 -0.612220	 0.031181	 0.809741	 -0.486813	 0.326130	 2
1463630354.344	 4	 -0.001218	 0.235823	 0.433049	 2.081004	 -0.870239	 -0.615791	 0.033899	 0.810099	 -0.485524	 0.326890	 2
1463630354.354	 4	 0.451015	 0.433524	 -0.134969	 2.081748	 -0.871986	 -0.620078	 0.035338	 0.809964	 -0.486805	 0.325162	 2
1463630354.364	 4	 0.455153	 0.659991	 -0.437705	 2.084207	 -0.877660	 -0.624245	 0.036072	 0.809698	 -0.489361	 0.321892	 2
1463630354.374	 4	 -0.021302	 1.316035	 -0.804732	 2.098590	 -0.884352	 -0.620169	 0.036122	 0.811352	 -0.490726	 0.315580	 2
1463630354.384	 4	 -0.471532	 2.001585	 -1.052347	 2.127433	 -0.891056	 -0.606860	 0.035987	 0.815327	 -0.490438	 0.305643	 2
1463630354.394	 4	 -0.525956	 2.174514	 -0.988450	 2.161565	 -0.896607	 -0.590846	 0.036345	 0.820083	 -0.489349	 0.294414	 2
1463630354.404	 4	 -0.145334	 1.403485	 -0.969097	 2.187833	 -0.903068	 -0.578525	 0.036057	 0.823312	 -0.489366	 0.285269	 2
1463630354.414	 4	 0.446013	 0.059603	 -0.951581	 2.195910	 -0.912611	 -0.573371	 0.033508	 0.823318	 -0.491881	 0.281208	 2
1463630354.424	 4	 0.864270	 -0.918586	 -0.883327	 2.187440	 -0.924465	 -0.575087	 0.029129	 0.820546	 -0.496446	 0.281775	 2
1463630354.434	 4	 1.080259	 -1.377869	 -0.769050	 2.169292	 -0.936943	 -0.581694	 0.024119	 0.816245	 -0.501990	 0.284899	 2
1463630354.444	 4	 1.208306	 -1.709208	 -0.647489	 2.144673	 -0.949032	 -0.592008	 0.018963	 0.811018	 -0.507905	 0.289696	 2
1463630354.454	 4	 1.396355	 -2.078076	 -0.689860	 2.113802	 -0.961815	 -0.605642	 0.013193	 0.804745	 -0.514472	 0.295855	 2
1463630354.464	 4	 1.508685	 -3.194636	 -0.905854	 2.072563	 -0.976593	 -0.621166	 0.004703	 0.796627	 -0.521865	 0.304992	 2
1463630354.474	 4	 1.060731	 -4.476033	 -1.198436	 2.021941	 -0.992211	 -0.631419	 -0.008907	 0.786849	 -0.528411	 0.318703	 2
1463630354.484	 4	 0.066715	 -4.931305	 -1.313383	 1.977200	 -1.005465	 -0.626874	 -0.026357	 0.777938	 -0.531399	 0.334265	 2
1463630354.494	 4	 -0.647791	 -4.915659	 -1.204704	 1.942856	 -1.014957	 -0.609130	 -0.045130	 0.770632	 -0.530646	 0.350005	 2
1463630354.504	 4	 -0.627829	 -4.595010	 -1.127290	 1.912461	 -1.023261	 -0.589589	 -0.063143	 0.763692	 -0.528834	 0.364858	 2
1463630354.514	 4	 -0.232249	 -3.748602	 -1.145239	 1.883925	 -1.032967	 -0.576246	 -0.078672	 0.756776	 -0.528239	 0.376914	 2
1463630354.524	 4	 0.284487	 -2.523123	 -1.202283	 1.859911	 -1.044832	 -0.571447	 -0.090433	 0.750593	 -0.529794	 0.384384	 2
1463630354.534	 4	 0.796809	 -1.502300	 -1.321939	 1.837392	 -1.059111	 -0.577409	 -0.098570	 0.744837	 -0.533996	 0.387750	 2
1463630354.544	 4	 1.163804	 -0.842923	 -1.328590	 1.814597	 -1.074781	 -0.592119	 -0.104091	 0.739329	 -0.540105	 0.388387	 2
1463630354.554	 4	 1.407646	 -0.350573	 -1.244068	 1.790651	 -1.090168	 -0.613956	 -0.107388	 0.734086	 -0.547281	 0.387387	 2
1463630354.564	 4	 1.576802	 -0.024413	 -1.226520	 1.765167	 -1.105338	 -0.641514	 -0.109160	 0.728992	 -0.555233	 0.385189	 2
1463630354.574	 4	 1.636269	 0.127608	 -1.212834	 1.738100	 -1.120264	 -0.672820	 -0.110177	 0.723959	 -0.563549	 0.382304	 2
1463630354.594	 5	 1.389877	 0.032595	 -1.067695	 1.682719	 -1.146819	 -0.736152	 -0.111975	 0.714448	 -0.578818	 0.376824	 2
1463630354.604	 5	 1.192930	 -0.140833	 -1.008977	 1.656227	 -1.158211	 -0.764111	 -0.113553	 0.710079	 -0.585109	 0.374887	 2
1463630354.614	 5	 1.016299	 -0.293157	 -0.965160	 1.630858	 -1.168712	 -0.788924	 -0.115791	 0.705930	 -0.590527	 0.373540	 2
1463630354.624	 5	 0.907801	 -0.471291	 -0.932834	 1.605528	 -1.178532	 -0.811806	 -0.118612	 0.701832	 -0.595307	 0.372790	 2
1463630354.634	 5	 0.837243	 -0.717893	 -0.939843	 1.578547	 -1.188063	 -0.833884	 -0.122245	 0.697498	 -0.599645	 0.372799	 2
1463630354.644	 5	 0.747513	 -0.960151	 -0.942382	 1.549932	 -1.197465	 -0.854983	 -0.126797	 0.692905	 -0.603533	 0.373567	 2
1463630354.654	 5	 0.634365	 -1.209615	 -0.921337	 1.520574	 -1.206472	 -0.874204	 -0.132212	 0.688169	 -0.606805	 0.375143	 2
1463630354.664	 5	 0.582596	 -1.520303	 -0.957882	 1.488849	 -1.215510	 -0.892719	 -0.138718	 0.683023	 -0.609633	 0.377604	 2
1463630354.674	 5	 0.581087	 -1.794044	 -1.012638	 1.453029	 -1.224880	 -0.912412	 -0.146310	 0.677255	 -0.612265	 0.380855	 2
1463630354.684	 5	 0.596048	 -1.988959	 -1.044424	 1.413095	 -1.234343	 -0.934188	 -0.154629	 0.670944	 -0.614785	 0.384661	 2
1463630354.694	 5	 0.575832	 -2.173155	 -1.079000	 1.369546	 -1.243813	 -0.957719	 -0.163624	 0.664173	 -0.617109	 0.388945	 2
1463630354.704	 5	 0.474096	 -2.197756	 -1.139092	 1.325281	 -1.253650	 -0.981125	 -0.173168	 0.657353	 -0.619115	 0.393187	 2
1463630354.714	 5	 0.295819	 -1.948654	 -1.181050	 1.285125	 -1.264072	 -1.001986	 -0.182621	 0.651235	 -0.620752	 0.396497	 2
1463630354.724	 5	 0.116776	 -1.459803	 -1.163218	 1.253212	 -1.274784	 -1.018734	 -0.191054	 0.646492	 -0.622098	 0.398171	 2
1463630354.734	 5	 0.054322	 -0.956045	 -1.096173	 1.228459	 -1.285126	 -1.033349	 -0.197871	 0.643077	 -0.623469	 0.398227	 2
1463630354.744	 5	 0.098069	 -0.576910	 -1.010962	 1.206702	 -1.294526	 -1.049070	 -0.203095	 0.640457	 -0.625125	 0.397222	 2
1463630354.754	 5	 0.181072	 -0.275286	 -0.891644	 1.185838	 -1.302533	 -1.067122	 -0.206819	 0.638325	 -0.627106	 0.395608	 2
1463630354.765	 5	 0.265797	 -0.045065	 -0.791124	 1.164994	 -1.309100	 -1.087710	 -0.209235	 0.636518	 -0.629390	 0.393617	 2
1463630354.774	 5	 0.351995	 0.042649	 -0.687679	 1.143006	 -1.314292	 -1.110787	 -0.210755	 0.634789	 -0.631875	 0.391611	 2
1463630354.784	 5	 0.384218	 0.002860	 -0.588148	 1.119878	 -1.318210	 -1.134861	 -0.211896	 0.632966	 -0.634300	 0.390022	 2
1463630354.795	 5	 0.316755	 -0.119683	 -0.500243	 1.098157	 -1.321354	 -1.156436	 -0.213140	 0.631174	 -0.636300	 0.388990	 2
1463630354.805	 5	 0.135729	 -0.338658	 -0.409049	 1.081137	 -1.324335	 -1.171452	 -0.214928	 0.629629	 -0.637476	 0.388584	 2
1463630354.815	 5	 -0.207907	 -1.311335	 -0.328781	 1.067751	 -1.327908	 -1.174483	 -0.219558	 0.627551	 -0.636690	 0.390640	 2
1463630354.825	 5	 -0.870895	 -2.136105	 -0.221976	 1.067647	 -1.333424	 -1.154310	 -0.227947	 0.625577	 -0.632831	 0.395244	 2
1463630354.835	 5	 -1.633671	 -2.419014	 -0.089009	 1.095294	 -1.341330	 -1.101508	 -0.238682	 0.625274	 -0.625777	 0.400583	 2
1463630354.845	 5	 -2.156712	 -2.355673	 0.073867	 1.152467	 -1.349932	 -1.018319	 -0.250148	 0.626840	 -0.616394	 0.405655	 2
1463630354.855	 5	 -2.401467	 -1.998677	 0.362813	 1.234983	 -1.355994	 -0.912279	 -0.260488	 0.630099	 -0.605745	 0.410115	 2
1463630354.865	 5	 -2.561703	 -1.418158	 0.708522	 1.338607	 -1.357080	 -0.790118	 -0.268436	 0.635248	 -0.594399	 0.413632	 2
1463630354.875	 5	 -2.669904	 -0.631750	 1.013064	 1.456469	 -1.352411	 -0.660862	 -0.273404	 0.642567	 -0.582864	 0.415484	 2
1463630354.885	 5	 -2.623253	 0.205027	 1.285819	 1.575758	 -1.341672	 -0.538531	 -0.274965	 0.651888	 -0.571756	 0.415369	 2
1463630354.895	 5	 -2.339586	 0.922313	 1.457348	 1.680133	 -1.326067	 -0.438927	 -0.273173	 0.662266	 -0.561884	 0.413602	 2
1463630354.905	 5	 -2.019039	 1.425801	 1.495478	 1.764384	 -1.308168	 -0.365485	 -0.268840	 0.672828	 -0.553615	 0.410534	 2
1463630354.915	 5	 -1.912990	 1.709703	 1.527038	 1.835634	 -1.289035	 -0.308619	 -0.263102	 0.683497	 -0.546188	 0.406557	 2
1463630354.925	 5	 -1.901582	 2.017692	 1.615066	 1.900211	 -1.268247	 -0.261338	 -0.256255	 0.694641	 -0.538901	 0.401737	 2
1463630354.935	 5	 -1.674601	 2.505207	 1.759372	 1.955929	 -1.246031	 -0.227744	 -0.247358	 0.706223	 -0.532345	 0.395818	 2
1463630354.945	 5	 -1.261984	 2.933033	 1.961190	 1.998766	 -1.223117	 -0.212430	 -0.235748	 0.717723	 -0.527156	 0.389106	 2
1463630354.955	 5	 -0.878078	 3.063935	 2.273465	 2.027663	 -1.199239	 -0.214193	 -0.221694	 0.728652	 -0.522940	 0.382690	 2
1463630354.965	 5	 -0.645519	 2.901594	 2.714353	 2.043743	 -1.172916	 -0.228715	 -0.205791	 0.738849	 -0.518616	 0.377875	 2
1463630354.975	 5	 -0.539426	 2.649009	 3.126726	 2.050483	 -1.143426	 -0.250967	 -0.188578	 0.748385	 -0.513509	 0.375057	 2
1463630354.985	 5	 -0.575522	 2.439611	 3.423505	 2.053051	 -1.111070	 -0.275669	 -0.170625	 0.757481	 -0.507358	 0.373762	 2
1463630354.995	 5	 -0.688712	 2.330147	 3.536443	 2.056145	 -1.076859	 -0.298641	 -0.152527	 0.766370	 -0.500180	 0.373140	 2
1463630355.005	 5	 -0.818513	 2.232290	 3.483374	 2.061827	 -1.042206	 -0.318050	 -0.134874	 0.775055	 -0.492237	 0.372560	 2
1463630355.015	 5	 -0.903159	 2.090791	 3.297352	 2.069719	 -1.008506	 -0.333706	 -0.118273	 0.783298	 -0.483894	 0.371889	 2
1463630355.035	 6	 -0.943086	 1.634197	 2.652928	 2.088409	 -0.948657	 -0.354935	 -0.090176	 0.797527	 -0.467593	 0.370373	 2
1463630355.045	 6	 -0.907023	 1.369356	 2.374117	 2.097034	 -0.922934	 -0.362098	 -0.078758	 0.803341	 -0.460024	 0.369890	 2
1463630355.055	 6	 -0.902894	 1.096318	 2.125349	 2.104446	 -0.899511	 -0.367402	 -0.068976	 0.808356	 -0.452770	 0.369868	 2
1463630355.065	 6	 -0.882113	 0.924581	 1.918944	 2.111070	 -0.878065	 -0.371253	 -0.060488	 0.812767	 -0.445841	 0.370103	 2
1463630355.075	 6	 -0.827844	 0.816750	 1.738420	 2.117100	 -0.858422	 -0.374315	 -0.052937	 0.816694	 -0.439330	 0.370402	 2
1463630355.085	 6	 -0.653635	 0.770486	 1.589397	 2.122131	 -0.840905	 -0.378049	 -0.045888	 0.820082	 -0.433638	 0.370564	 2
1463630355.095	 6	 -0.411864	 0.754151	 1.488024	 2.125398	 -0.825572	 -0.383845	 -0.038936	 0.822824	 -0.429056	 0.370616	 2
1463630355.105	 6	 -0.185858	 0.765720	 1.414758	 2.127106	 -0.812131	 -0.391937	 -0.031847	 0.825000	 -0.425550	 0.370498	 2
1463630355.115	 6	 0.003230	 0.857269	 1.355347	 2.128237	 -0.800282	 -0.401846	 -0.024520	 0.826819	 -0.422952	 0.369974	 2
1463630355.125	 6	 0.160527	 1.003098	 1.288191	 2.129759	 -0.789867	 -0.413239	 -0.016847	 0.828473	 -0.421157	 0.368747	 2
1463630355.135	 6	 0.283515	 1.160337	 1.167086	 2.132430	 -0.781027	 -0.425294	 -0.009045	 0.830079	 -0.420066	 0.366649	 2
1463630355.145	 6	 0.428765	 1.335165	 0.987335	 2.136660	 -0.774374	 -0.437663	 -0.001331	 0.831644	 -0.419831	 0.363466	 2
1463630355.155	 6	 0.589948	 1.498215	 0.803072	 2.142275	 -0.770175	 -0.450505	 0.006257	 0.833114	 -0.420564	 0.359177	 2
1463630355.165	 6	 0.757407	 1.633598	 0.619562	 2.149022	 -0.768497	 -0.463903	 0.013689	 0.834435	 -0.422287	 0.353843	 2
1463630355.175	 6	 0.886001	 1.658606	 0.454553	 2.156045	 -0.769072	 -0.477629	 0.020761	 0.835486	 -0.424851	 0.347899	 2
1463630355.185	 6	 0.979230	 1.627569	 0.319166	 2.162806	 -0.771463	 -0.491432	 0.027370	 0.836226	 -0.428047	 0.341690	 2
1463630355.195	 6	 1.109895	 1.514327	 0.303120	 2.168223	 -0.775085	 -0.506022	 0.033724	 0.836530	 -0.431792	 0.335613	 2
1463630355.205	 6	 1.360400	 1.325387	 0.456913	 2.168658	 -0.778844	 -0.524605	 0.040641	 0.835856	 -0.436281	 0.330684	 2
1463630355.215	 6	 1.481042	 1.220904	 0.324868	 2.167180	 -0.783960	 -0.544550	 0.047352	 0.834636	 -0.441484	 0.325933	 2
1463630355.225	 6	 1.491466	 0.975070	 0.016616	 2.164593	 -0.791497	 -0.562860	 0.052493	 0.832978	 -0.447283	 0.321451	 2
1463630355.235	 6	 1.476825	 0.665095	 -0.346369	 2.161003	 -0.801868	 -0.578392	 0.055489	 0.830914	 -0.453642	 0.317351	 2
1463630355.245	 6	 1.500396	 0.074309	 -0.696313	 2.153766	 -0.815205	 -0.591504	 0.055833	 0.828027	 -0.460732	 0.314611	 2
1463630355.255	 6	 1.522052	 -0.439092	 -1.082822	 2.142666	 -0.831717	 -0.602290	 0.053409	 0.824274	 -0.468623	 0.313229	 2
1463630355.265	 6	 1.563445	 -0.795530	 -1.523461	 2.129295	 -0.851901	 -0.610646	 0.048366	 0.819847	 -0.477380	 0.312442	 2
1463630355.275	 6	 1.682583	 -1.165136	 -1.988347	 2.113839	 -0.876513	 -0.617120	 0.040725	 0.814651	 -0.487271	 0.311852	 2
1463630355.285	 6	 1.294981	 -1.247534	 -2.213812	 2.099333	 -0.902807	 -0.619328	 0.030964	 0.809454	 -0.496849	 0.311395	 2
1463630355.295	 6	 -0.034873	 -0.276939	 -1.791409	 2.102108	 -0.921259	 -0.608034	 0.022098	 0.807918	 -0.501301	 0.308994	 2
1463630355.305	 6	 -1.337712	 1.414604	 -0.796613	 2.132194	 -0.924770	 -0.583792	 0.018862	 0.812338	 -0.498486	 0.302098	 2
1463630355.315	 6	 -1.236177	 0.886284	 -0.128852	 2.160209	 -0.919590	 -0.562730	 0.018575	 0.817389	 -0.493270	 0.297009	 2
1463630355.325	 6	 -0.312999	 0.011115	 0.122473	 2.167549	 -0.915872	 -0.555850	 0.018519	 0.819025	 -0.490873	 0.296477	 2
1463630355.335	 6	 0.328887	 -0.274366	 0.322051	 2.161180	 -0.914789	 -0.561162	 0.019407	 0.818168	 -0.491342	 0.298006	 2
1463630355.345	 6	 0.321386	 -0.852975	 0.464873	 2.147382	 -0.913150	 -0.570041	 0.020065	 0.816220	 -0.492236	 0.301806	 2
1463630355.355	 6	 -0.059917	 -1.576370	 0.438015	 2.129622	 -0.909539	 -0.574665	 0.018525	 0.813913	 -0.491857	 0.308673	 2
1463630355.365	 6	 -0.423419	 -1.895852	 0.382788	 2.112226	 -0.904414	 -0.573278	 0.015047	 0.811824	 -0.490013	 0.317180	 2
1463630355.375	 6	 -0.612978	 -1.791237	 0.358767	 2.097797	 -0.898351	 -0.568269	 0.011111	 0.810258	 -0.487212	 0.325550	 2
1463630355.385	 6	 -0.615890	 -1.521978	 0.380482	 2.086335	 -0.891996	 -0.562545	 0.007720	 0.809141	 -0.484135	 0.332933	 2
1463630355.395	 6	 -0.460536	 -1.232557	 0.459623	 2.076111	 -0.885726	 -0.558916	 0.005483	 0.808156	 -0.481401	 0.339274	 2
1463630355.405	 6	 -0.259411	 -0.799189	 0.606848	 2.066894	 -0.879252	 -0.558873	 0.005014	 0.807312	 -0.479192	 0.344379	 2
1463630355.415	 6	 0.174369	 0.086611	 0.756258	 2.060712	 -0.873120	 -0.564771	 0.007593	 0.806903	 -0.478126	 0.346764	 2
1463630355.425	 6	 0.684607	 1.043035	 0.995183	 2.057779	 -0.867626	 -0.579603	 0.014387	 0.806904	 -0.478830	 0.345574	 2
1463630355.435	 6	 0.570598	 1.306090	 0.996492	 2.058284	 -0.861505	 -0.595501	 0.022614	 0.807480	 -0.479474	 0.342883	 2
1463630355.445	 6	 0.335880	 1.173306	 0.631743	 2.062808	 -0.856900	 -0.606070	 0.029241	 0.808582	 -0.479650	 0.339524	 2
1463630355.455	 6	 -0.144358	 0.062172	 0.337829	 2.064387	 -0.853362	 -0.609098	 0.031821	 0.809157	 -0.478934	 0.338932	 2
1463630355.465	 6	 -0.811641	 -0.774061	 0.182388	 2.063338	 -0.848359	 -0.601835	 0.030012	 0.809588	 -0.476004	 0.342179	 2
1463630355.485	 7	 -1.091079	 0.802831	 -0.577446	 2.091997	 -0.842416	 -0.567899	 0.024604	 0.815548	 -0.467768	 0.339807	 2
1463630355.495	 7	 -0.549632	 0.656611	 -0.574995	 2.109988	 -0.843992	 -0.554046	 0.022723	 0.818579	 -0.465772	 0.335364	 2
1463630355.505	 7	 0.252554	 -0.322275	 -0.301201	 2.111105	 -0.847515	 -0.551825	 0.021141	 0.818401	 -0.466635	 0.334700	 2
1463630355.515	 7	 0.751533	 -1.313163	 -0.045128	 2.094301	 -0.851687	 -0.559626	 0.019281	 0.815034	 -0.469588	 0.338873	 2
1463630355.525	 7	 0.925388	 -1.842856	 0.023032	 2.067953	 -0.855912	 -0.571584	 0.016784	 0.809962	 -0.473342	 0.345871	 2
1463630355.535	 7	 1.037253	 -2.050033	 -0.047012	 2.037543	 -0.860734	 -0.585139	 0.013691	 0.804040	 -0.477595	 0.353886	 2
1463630355.545	 7	 1.143793	 -2.310784	 -0.320004	 2.004729	 -0.867788	 -0.599077	 0.009400	 0.797385	 -0.482646	 0.362135	 2
1463630355.555	 7	 1.051780	 -2.998842	 -0.636808	 1.967381	 -0.877390	 -0.611136	 0.002346	 0.789581	 -0.488118	 0.371882	 2
1463630355.565	 7	 0.562725	 -3.590053	 -0.812837	 1.928266	 -0.887231	 -0.616969	 -0.007860	 0.781301	 -0.492317	 0.383576	 2
1463630355.575	 7	 -0.038524	 -3.833549	 -0.899391	 1.892681	 -0.895896	 -0.613827	 -0.020471	 0.773572	 -0.494168	 0.396189	 2
1463630355.585	 7	 -0.239088	 -3.329142	 -0.945174	 1.863891	 -0.904092	 -0.605836	 -0.033177	 0.766963	 -0.494701	 0.407355	 2
1463630355.595	 7	 0.121656	 -2.334311	 -1.043502	 1.841536	 -0.913844	 -0.601317	 -0.043464	 0.761430	 -0.496306	 0.414748	 2
1463630355.605	 7	 0.733117	 -1.344555	 -1.153653	 1.822118	 -0.926217	 -0.605709	 -0.050507	 0.756414	 -0.500465	 0.418118	 2
1463630355.615	 7	 1.321701	 -0.684410	 -1.258145	 1.802418	 -0.940986	 -0.620041	 -0.054735	 0.751404	 -0.507274	 0.418413	 2
1463630355.625	 7	 1.745074	 -0.452256	 -1.340669	 1.778987	 -0.957480	 -0.642797	 -0.057485	 0.745774	 -0.516082	 0.417343	 2
1463630355.635	 7	 1.948058	 -0.368087	 -1.385349	 1.751871	 -0.974688	 -0.671070	 -0.059626	 0.739593	 -0.525930	 0.415746	 2
1463630355.645	 7	 1.945955	 -0.360642	 -1.386328	 1.722753	 -0.991615	 -0.701749	 -0.061624	 0.733231	 -0.535908	 0.413977	 2
1463630355.655	 7	 1.778067	 -0.421934	 -1.399291	 1.693497	 -1.007925	 -0.731740	 -0.064021	 0.727019	 -0.545337	 0.412252	 2
1463630355.665	 7	 1.455272	 -0.536854	 -1.390090	 1.666177	 -1.023470	 -0.757965	 -0.067279	 0.721287	 -0.553629	 0.410749	 2
1463630355.675	 7	 1.099589	 -0.661872	 -1.319947	 1.642104	 -1.037810	 -0.778731	 -0.071411	 0.716241	 -0.560414	 0.409678	 2
1463630355.685	 7	 0.869407	 -0.875551	 -1.251723	 1.619533	 -1.051012	 -0.795409	 -0.076356	 0.711526	 -0.565976	 0.409355	 2
1463630355.695	 7	 0.761490	 -1.167400	 -1.206605	 1.595510	 -1.063439	 -0.810456	 -0.082158	 0.706579	 -0.570813	 0.410085	 2
1463630355.705	 7	 0.685935	 -1.376464	 -1.172723	 1.569598	 -1.075351	 -0.824789	 -0.088700	 0.701318	 -0.575147	 0.411692	 2
1463630355.715	 7	 0.677027	 -1.500486	 -1.118380	 1.541946	 -1.086577	 -0.839478	 -0.095505	 0.695819	 -0.579164	 0.413864	 2
1463630355.725	 7	 0.719394	 -1.628785	 -1.046405	 1.511458	 -1.096905	 -0.855829	 -0.102368	 0.689920	 -0.583035	 0.416655	 2
1463630355.735	 7	 0.744839	 -1.718794	 -0.981386	 1.478432	 -1.106285	 -0.873814	 -0.109211	 0.683676	 -0.586763	 0.419963	 2
1463630355.745	 7	 0.739417	 -1.776932	 -0.933921	 1.443842	 -1.114865	 -0.892745	 -0.116048	 0.677244	 -0.590287	 0.423599	 2
1463630355.755	 7	 0.680785	 -1.786137	 -0.906852	 1.408991	 -1.122886	 -0.911609	 -0.122926	 0.670824	 -0.593518	 0.427343	 2
1463630355.765	 7	 0.545593	 -1.711313	 -0.910308	 1.376210	 -1.130776	 -0.928691	 -0.129866	 0.664796	 -0.596310	 0.430809	 2
1463630355.775	 7	 0.404071	 -1.584667	 -0.956922	 1.346649	 -1.139091	 -0.943473	 -0.136870	 0.659367	 -0.598719	 0.433633	 2
1463630355.785	 7	 0.279473	 -1.476270	 -1.019840	 1.319789	 -1.148121	 -0.956459	 -0.144005	 0.654461	 -0.600865	 0.435780	 2
1463630355.795	 7	 0.173255	 -1.345351	 -1.049670	 1.295593	 -1.157701	 -0.967850	 -0.151132	 0.650088	 -0.602773	 0.437276	 2
1463630355.805	 7	 0.142826	 -1.278941	 -0.997630	 1.272937	 -1.167061	 -0.978537	 -0.157995	 0.646058	 -0.604470	 0.438477	 2
1463630355.815	 7	 0.193007	 -1.144239	 -0.882777	 1.250265	 -1.175182	 -0.990070	 -0.164176	 0.642134	 -0.606079	 0.439748	 2
1463630355.825	 7	 0.321492	 -0.887774	 -0.812235	 1.227851	 -1.182081	 -1.004069	 -0.169080	 0.638506	 -0.608008	 0.440508	 2
1463630355.835	 7	 0.462180	 -0.769523	 -0.729230	 1.203571	 -1.187637	 -1.021752	 -0.172931	 0.634810	 -0.610363	 0.441099	 2
1463630355.845	 7	 0.546798	 -0.769204	 -0.651097	 1.177530	 -1.191879	 -1.041599	 -0.176208	 0.630931	 -0.612843	 0.441928	 2
1463630355.855	 7	 0.595501	 -0.856518	 -0.644873	 1.149246	 -1.195439	 -1.063068	 -0.179482	 0.626724	 -0.615358	 0.443100	 2
1463630355.865	 7	 0.592883	 -0.939640	 -0.668005	 1.119054	 -1.198946	 -1.085606	 -0.183075	 0.622237	 -0.617865	 0.444464	 2
1463630355.875	 7	 0.488225	 -1.003793	 -0.610140	 1.089870	 -1.202221	 -1.106320	 -0.186919	 0.617840	 -0.619972	 0.446060	 2
1463630355.885	 7	 0.220402	 -1.087305	 -0.500943	 1.065802	 -1.205457	 -1.120734	 -0.191168	 0.614029	 -0.621084	 0.447971	 2
1463630355.895	 7	 -0.371212	 -1.286658	 -0.363361	 1.052958	 -1.209928	 -1.121309	 -0.196663	 0.611501	 -0.620173	 0.450305	 2
1463630355.905	 7	 -1.120805	 -1.526743	 -0.186415	 1.057029	 -1.216591	 -1.101337	 -0.204022	 0.610856	 -0.616375	 0.453114	 2
1463630355.915	 7	 -1.660823	 -1.744554	 0.066714	 1.077081	 -1.224080	 -1.061971	 -0.212734	 0.611740	 -0.609897	 0.456666	 2
1463630355.925	 7	 -1.942753	 -1.856034	 0.419833	 1.109631	 -1.229855	 -1.007887	 -0.221625	 0.613584	 -0.601384	 0.461231	 2
1463630355.935	 7	 -2.118538	 -1.865696	 0.776173	 1.152435	 -1.232464	 -0.942686	 -0.229893	 0.616220	 -0.591295	 0.466682	 2
1463630355.945	 7	 -2.346733	 -1.715308	 1.181351	 1.206313	 -1.231239	 -0.866836	 -0.237103	 0.620014	 -0.579650	 0.472621	 2
1463630355.955	 7	 -2.486775	 -1.343617	 1.485509	 1.270488	 -1.225813	 -0.783368	 -0.242679	 0.625370	 -0.566833	 0.478247	 2
1463630355.965	 7	 -2.340399	 -0.772708	 1.656871	 1.336073	 -1.216561	 -0.703715	 -0.245937	 0.631805	 -0.554328	 0.482760	 2
1463630355.975	 7	 -2.196639	 -0.036227	 1.778641	 1.401018	 -1.203844	 -0.631841	 -0.246390	 0.639517	 -0.542713	 0.485564	 2
1463630355.985	 7	 -2.062727	 0.737801	 1.794269	 1.465765	 -1.188939	 -0.568254	 -0.244216	 0.648710	 -0.532277	 0.486020	 2
1463630355.995	 7	 -1.907424	 1.330654	 1.768592	 1.528085	 -1.172673	 -0.513767	 -0.239991	 0.658883	 -0.523054	 0.484450	 2
1463630356.005	 7	 -1.733258	 1.808936	 1.791776	 1.586776	 -1.155095	 -0.468180	 -0.234008	 0.669676	 -0.514832	 0.481374	 2
1463630356.015	 7	 -1.308581	 2.348034	 1.942302	 1.639095	 -1.135616	 -0.435102	 -0.225424	 0.680859	 -0.507973	 0.477051	 2
1463630356.025	 7	 -0.514327	 2.790699	 2.291207	 1.676984	 -1.113145	 -0.422855	 -0.212832	 0.691461	 -0.503230	 0.472594	 2
1463630356.035	 7	 0.215691	 3.083443	 2.767168	 1.700158	 -1.086989	 -0.430814	 -0.195927	 0.701153	 -0.500288	 0.468732	 2
1463630356.045	 7	 0.570800	 3.110063	 3.207681	 1.714368	 -1.057008	 -0.450201	 -0.176014	 0.710056	 -0.497760	 0.465913	 2
1463630356.055	 7	 0.528554	 2.969512	 3.755608	 1.725838	 -1.022118	 -0.471636	 -0.154398	 0.718632	 -0.493813	 0.464627	 2
1463630356.065	 7	 0.487040	 2.932748	 4.095606	 1.737627	 -0.983056	 -0.492583	 -0.131448	 0.727159	 -0.488304	 0.464243	 2
1463630356.075	 7	 0.522444	 2.772873	 4.063969	 1.748413	 -0.943629	 -0.513734	 -0.108468	 0.734900	 -0.482374	 0.464189	 2
1463630356.085	 7	 0.527199	 2.625402	 3.823824	 1.758705	 -0.906317	 -0.534128	 -0.086500	 0.741697	 -0.476591	 0.463966	 2
1463630356.095	 7	 0.549941	 2.560901	 3.445746	 1.769486	 -0.872549	 -0.553342	 -0.065953	 0.747728	 -0.471359	 0.463005	 2
1463630356.105	 7	 0.654697	 2.583397	 2.923886	 1.780961	 -0.843837	 -0.572171	 -0.046993	 0.753071	 -0.467352	 0.460714	 2
1463630356.115	 7	 0.755886	 2.741099	 2.418235	 1.794064	 -0.820638	 -0.590898	 -0.029448	 0.758030	 -0.464816	 0.456584	 2
1463630356.125	 7	 0.803021	 2.862724	 2.049137	 1.809197	 -0.801684	 -0.609191	 -0.012950	 0.762858	 -0.463292	 0.450821	 2
1463630356.135	 7	 0.862921	 2.881954	 1.791945	 1.825056	 -0.785826	 -0.627326	 0.002678	 0.767388	 -0.462470	 0.444107	 2
1463630356.145	 7	 0.938513	 2.982642	 1.627031	 1.841507	 -0.772155	 -0.645902	 0.017927	 0.771666	 -0.462203	 0.436553	 2
1463630356.155	 7	 0.949279	 3.086123	 1.527719	 1.859292	 -0.759880	 -0.664466	 0.033052	 0.775907	 -0.462129	 0.428152	 2
1463630356.165	 7	 1.006699	 3.083458	 1.478172	 1.877193	 -0.748557	 -0.683374	 0.048051	 0.779864	 -0.462187	 0.419389	 2
1463630356.175	 7	 1.188895	 2.851637	 1.411548	 1.892482	 -0.738455	 -0.704078	 0.062782	 0.782919	 -0.462848	 0.410935	 2
1463630356.185	 7	 1.341386	 2.406329	 1.374104	 1.902487	 -0.729600	 -0.726816	 0.076719	 0.784530	 -0.464308	 0.403787	 2
1463630356.195	 7	 1.372731	 1.896043	 1.274230	 1.907582	 -0.721753	 -0.749752	 0.089296	 0.784891	 -0.466200	 0.398284	 2
1463630356.205	 7	 1.401545	 1.328102	 1.142934	 1.907349	 -0.715297	 -0.772415	 0.100098	 0.783982	 -0.468659	 0.394604	 2
1463630356.215	 7	 1.383759	 0.794686	 1.060325	 1.902184	 -0.709689	 -0.794464	 0.109228	 0.781966	 -0.471506	 0.392785	 2
1463630356.225	 7	 1.348121	 0.311409	 0.991127	 1.892767	 -0.704464	 -0.815613	 0.116857	 0.779038	 -0.474566	 0.392723	 2
1463630356.235	 7	 1.211210	 -0.139739	 0.911386	 1.879950	 -0.699481	 -0.835012	 0.122881	 0.775438	 -0.477618	 0.394307	 2
1463630356.245	 7	 0.975031	 -0.574820	 0.807081	 1.864992	 -0.694639	 -0.851172	 0.127052	 0.771523	 -0.480280	 0.397419	 2
1463630356.255	 7	 0.670524	 -1.240516	 0.701224	 1.846644	 -0.689770	 -0.863200	 0.128786	 0.767114	 -0.482398	 0.402793	 2
1463630356.265	 7	 0.356343	 -1.757797	 0.670371	 1.825337	 -0.684424	 -0.870865	 0.128259	 0.762296	 -0.483741	 0.410425	 2
1463630356.275	 7	 0.078971	 -1.968600	 0.676153	 1.803544	 -0.678235	 -0.874802	 0.126453	 0.757504	 -0.484132	 0.419301	 2
1463630356.285	 7	 -0.206924	 -2.271976	 0.526612	 1.782040	 -0.672288	 -0.874787	 0.123158	 0.752899	 -0.483747	 0.428910	 2
1463630356.295	 7	 -0.511545	 -3.114862	 0.333847	 1.755778	 -0.667740	 -0.870242	 0.116583	 0.747409	 -0.483027	 0.440991	 2
1463630356.305	 7	 -0.700803	 -3.726070	 0.161417	 1.724595	 -0.664637	 -0.862366	 0.107149	 0.740818	 -0.482126	 0.455261	 2
1463630356.315	 7	 -0.640299	 -3.875349	 -0.012087	 1.691180	 -0.663332	 -0.853954	 0.096434	 0.733494	 -0.481516	 0.469924	 2
1463630356.325	 7	 -0.332651	 -3.840728	 -0.246779	 1.656048	 -0.664802	 -0.848429	 0.085456	 0.725400	 -0.482200	 0.483710	 2
1463630356.335	 7	 -0.012264	 -3.872701	 -0.419322	 1.618314	 -0.668473	 -0.847031	 0.074574	 0.716294	 -0.484353	 0.496754	 2
1463630356.345	 7	 0.156708	 -3.798556	 -0.686544	 1.579064	 -0.674650	 -0.848470	 0.063394	 0.706547	 -0.487682	 0.508860	 2
1463630356.355	 7	 -0.006217	 -3.667738	 -0.753183	 1.541744	 -0.682276	 -0.849291	 0.051855	 0.697164	 -0.490902	 0.519892	 2
1463630356.365	 7	 -0.345620	 -3.914629	 -0.469033	 1.505322	 -0.687968	 -0.846298	 0.039825	 0.687853	 -0.492352	 0.531848	 2
1463630356.375	 7	 -0.741095	 -4.362763	 -0.091414	 1.467883	 -0.690347	 -0.838272	 0.027014	 0.677987	 -0.491385	 0.546027	 2
1463630356.385	 7	 -1.145213	 -4.635998	 0.053451	 1.432485	 -0.689874	 -0.823563	 0.013573	 0.668314	 -0.487560	 0.561656	 2
1463630356.395	 7	 -1.434578	 -4.763868	 -0.097580	 1.401864	 -0.686733	 -0.802574	 0.000357	 0.659538	 -0.480963	 0.577653	 2
1463630356.405	 7	 -1.624584	 -5.024569	 -0.337078	 1.365284	 -0.691769	 -0.782774	 -0.016767	 0.648953	 -0.476159	 0.593170	 2
1463630356.415	 7	 -1.743482	 -5.319939	 -0.635073	 1.325717	 -0.701001	 -0.762601	 -0.036143	 0.637169	 -0.471615	 0.608514	 2
1463630356.425	 7	 -1.787982	 -5.418005	 -0.975576	 1.284320	 -0.714274	 -0.743028	 -0.057150	 0.624485	 -0.467466	 0.623079	 2
1463630356.435	 7	 -1.667015	 -5.110816	 -1.246606	 1.243352	 -0.730740	 -0.726133	 -0.078331	 0.611646	 -0.464163	 0.635851	 2
1463630356.445	 7	 -1.390457	 -4.539086	 -1.349204	 1.204913	 -0.748291	 -0.713589	 -0.097939	 0.599425	 -0.461934	 0.646308	 2
1463630356.455	 7	 -0.973880	 -3.872632	 -1.240054	 1.169475	 -0.764216	 -0.706310	 -0.114598	 0.588101	 -0.460718	 0.654786	 2
1463630356.465	 7	 -0.444327	 -3.190069	 -0.917518	 1.137084	 -0.775812	 -0.704610	 -0.127190	 0.577778	 -0.460319	 0.661893	 2
1463630356.475	 7	 0.128599	 -2.555951	 -0.364541	 1.107909	 -0.780544	 -0.707581	 -0.134957	 0.568462	 -0.460225	 0.668454	 2
1463630356.485	 7	 0.636783	 -2.039100	 0.418113	 1.082748	 -0.776275	 -0.712656	 -0.137583	 0.560164	 -0.459493	 0.675392	 2
1463630356.495	 7	 0.933217	 -1.682730	 1.278918	 1.062617	 -0.762736	 -0.716292	 -0.135677	 0.552904	 -0.457112	 0.683328	 2
1463630356.505	 7	 0.919955	 -1.509160	 2.034143	 1.048071	 -0.741952	 -0.715002	 -0.130844	 0.546691	 -0.452296	 0.692414	 2
1463630356.515	 7	 0.600067	 -1.450094	 2.569293	 1.039085	 -0.717258	 -0.706529	 -0.125026	 0.541595	 -0.444706	 0.702340	 2
1463630356.525	 7	 0.046485	 -1.390142	 2.838980	 1.035657	 -0.692286	 -0.690148	 -0.119905	 0.537905	 -0.434524	 0.712370	 2
1463630356.535	 7	 -0.600936	 -1.361248	 2.894977	 1.036966	 -0.669615	 -0.666332	 -0.116640	 0.535646	 -0.422164	 0.721981	 2
1463630356.545	 7	 -1.191462	 -1.352831	 2.790423	 1.041580	 -0.650618	 -0.636740	 -0.115720	 0.534555	 -0.408311	 0.730850	 2
1463630356.555	 7	 -1.613810	 -1.394202	 2.634917	 1.047641	 -0.635140	 -0.603528	 -0.116946	 0.534070	 -0.393617	 0.739025	 2
1463630356.565	 7	 -1.817161	 -1.188167	 2.510713	 1.055421	 -0.621940	 -0.568831	 -0.119218	 0.534323	 -0.378687	 0.746246	 2
1463630356.575	 7	 -1.679932	 -1.011322	 2.458941	 1.064266	 -0.608925	 -0.535509	 -0.121064	 0.535135	 -0.364179	 0.752560	 2
1463630356.585	 7	 -1.244365	 -1.001758	 2.487211	 1.070707	 -0.593795	 -0.506498	 -0.121372	 0.535310	 -0.350553	 0.758831	 2
1463630356.595	 7	 -0.758609	 -0.906866	 2.422050	 1.074019	 -0.576671	 -0.483358	 -0.119850	 0.534673	 -0.338396	 0.765015	 2
1463630356.605	 7	 -0.323144	 -0.910313	 2.709180	 1.075453	 -0.555754	 -0.464114	 -0.116013	 0.533519	 -0.326681	 0.771478	 2
1463630356.615	 7	 0.105802	 -0.998309	 3.068051	 1.074068	 -0.529413	 -0.447507	 -0.109630	 0.531342	 -0.314523	 0.778930	 2
1463630356.625	 7	 0.356270	 -0.726846	 3.202682	 1.073026	 -0.500024	 -0.433217	 -0.101245	 0.529380	 -0.302488	 0.786134	 2
1463630356.635	 7	 0.403827	 -0.425533	 3.264755	 1.074399	 -0.469507	 -0.419658	 -0.091790	 0.528405	 -0.290465	 0.792460	 2
1463630356.645	 7	 0.362578	 -0.269729	 3.172777	 1.077235	 -0.439497	 -0.406380	 -0.082251	 0.528076	 -0.278573	 0.797977	 2
1463630356.655	 7	 0.287248	 -0.104212	 3.086515	 1.081062	 -0.410718	 -0.393298	 -0.073047	 0.528231	 -0.266921	 0.802738	 2
1463630356.665	 7	 0.241083	 0.168364	 2.961562	 1.087023	 -0.383038	 -0.380435	 -0.063992	 0.529336	 -0.255531	 0.806481	 2
1463630356.675	 7	 0.302730	 0.342778	 2.690878	 1.094150	 -0.357220	 -0.369380	 -0.055143	 0.531074	 -0.245191	 0.809198	 2
1463630356.685	 7	 0.500901	 0.270079	 2.426299	 1.099844	 -0.333108	 -0.361521	 -0.046384	 0.532402	 -0.236382	 0.811492	 2
1463630356.695	 7	 0.837428	 -0.016715	 2.321584	 1.101833	 -0.308880	 -0.357383	 -0.037046	 0.532298	 -0.228883	 0.814186	 2
1463630356.705	 7	 1.224439	 -0.577061	 2.355631	 1.097997	 -0.282951	 -0.356826	 -0.026690	 0.529765	 -0.222289	 0.818061	 2
1463630356.715	 7	 1.498546	 -1.377992	 2.461959	 1.085465	 -0.254612	 -0.358472	 -0.015645	 0.523473	 -0.215947	 0.824074	 2
1463630356.725	 7	 1.540588	 -1.564877	 2.521669	 1.069524	 -0.225263	 -0.360218	 -0.004422	 0.515538	 -0.209504	 0.830848	 2
1463630356.735	 7	 1.579482	 -1.547255	 2.620610	 1.053868	 -0.194995	 -0.361252	 0.007142	 0.507470	 -0.202696	 0.837459	 2
1463630356.745	 7	 1.707118	 -1.736099	 2.738173	 1.036954	 -0.163191	 -0.362155	 0.019312	 0.498583	 -0.195631	 0.844258	 2
1463630356.755	 7	 1.815263	 -1.994994	 2.868042	 1.017510	 -0.129654	 -0.362845	 0.032052	 0.488298	 -0.188284	 0.851520	 2
1463630356.765	 7	 1.831029	 -2.132572	 2.970001	 0.995901	 -0.095464	 -0.362642	 0.044799	 0.476820	 -0.180666	 0.859067	 2
1463630356.775	 7	 1.759468	 -2.193778	 3.013704	 0.967049	 -0.070153	 -0.361328	 0.052940	 0.462634	 -0.175025	 0.867487	 2
1463630356.785	 7	 1.621541	 -2.240265	 3.001676	 0.944203	 -0.037385	 -0.357564	 0.064475	 0.450393	 -0.166716	 0.874754	 2
1463630356.795	 7	 1.450425	 -2.262588	 2.934744	 0.921282	 -0.005668	 -0.351985	 0.075330	 0.438099	 -0.158075	 0.881707	 2
1463630356.805	 7	 1.274970	 -2.260773	 2.821182	 0.898224	 0.024046	 -0.344883	 0.085162	 0.425837	 -0.149419	 0.888304	 2
1463630356.815	 7	 1.147492	 -2.254954	 2.692323	 0.875351	 0.052587	 -0.336779	 0.094484	 0.413705	 -0.140759	 0.894487	 2
1463630356.825	 7	 1.084080	 -2.249256	 2.572497	 0.852265	 0.079485	 -0.328193	 0.103165	 0.401567	 -0.132432	 0.900312	 2
1463630356.835	 7	 1.075261	 -2.217052	 2.463100	 0.829193	 0.105192	 -0.319571	 0.111507	 0.389484	 -0.124518	 0.905739	 2
1463630356.845	 7	 1.094263	 -2.185848	 2.373701	 0.806285	 0.130101	 -0.311081	 0.119717	 0.377493	 -0.116999	 0.910757	 2
1463630356.855	 7	 1.123897	 -2.195874	 2.323258	 0.783189	 0.154567	 -0.302616	 0.127904	 0.365419	 -0.109775	 0.915455	 2
1463630356.875	 7	 1.199021	 -2.306931	 2.292795	 0.734660	 0.203251	 -0.285075	 0.144475	 0.340198	 -0.095831	 0.924234	 2
1463630356.865	 7	 1.163014	 -2.258872	 2.305279	 0.759359	 0.178916	 -0.293990	 0.136148	 0.353007	 -0.102738	 0.919943	 2
1463630356.885	 7	 1.222627	 -2.249825	 2.256885	 0.709982	 0.227372	 -0.275896	 0.152846	 0.327431	 -0.089049	 0.928169	 2
1463630356.895	 7	 1.263379	 -2.146241	 2.183957	 0.686119	 0.251115	 -0.266798	 0.161269	 0.315072	 -0.082519	 0.931618	 2
1463630356.905	 7	 1.322070	 -2.074713	 2.097785	 0.662969	 0.274551	 -0.258119	 0.169810	 0.303051	 -0.076385	 0.934607	 2
1463630356.915	 7	 1.377453	 -2.026568	 2.012489	 0.640249	 0.297726	 -0.249872	 0.178461	 0.291236	 -0.070664	 0.937198	 2
1463630356.925	 7	 1.432977	 -1.926497	 1.901032	 0.618368	 0.320553	 -0.242244	 0.187204	 0.279812	 -0.065417	 0.939351	 2
1463630356.935	 7	 1.499148	 -1.801193	 1.753481	 0.597918	 0.342951	 -0.235647	 0.196051	 0.269025	 -0.060781	 0.941008	 2
1463630356.945	 7	 1.559785	 -1.708923	 1.595013	 0.578775	 0.364867	 -0.230299	 0.204971	 0.258794	 -0.056861	 0.942221	 2
1463630356.955	 7	 1.573377	 -1.647259	 1.450525	 0.560587	 0.386121	 -0.225993	 0.213813	 0.248977	 -0.053605	 0.943091	 2
1463630356.965	 7	 1.521096	 -1.567999	 1.358996	 0.543144	 0.406429	 -0.222011	 0.222330	 0.239572	 -0.050718	 0.943717	 2
1463630356.975	 7	 1.462833	 -1.439452	 1.314872	 0.526697	 0.425880	 -0.217782	 0.230491	 0.230753	 -0.047871	 0.944105	 2
1463630356.985	 7	 1.420466	 -1.351225	 1.290484	 0.511089	 0.444731	 -0.213197	 0.238397	 0.222447	 -0.044978	 0.944278	 2
1463630356.995	 7	 1.385213	 -1.343805	 1.272742	 0.495518	 0.463096	 -0.208232	 0.246079	 0.214273	 -0.042093	 0.944331	 2
1463630357.005	 7	 1.325978	 -1.437410	 1.247874	 0.478978	 0.480833	 -0.202830	 0.253447	 0.205782	 -0.039333	 0.944389	 2
1463630357.015	 7	 1.238588	 -1.560145	 1.154766	 0.461343	 0.496796	 -0.197463	 0.260019	 0.196943	 -0.037079	 0.944579	 2
1463630357.025	 7	 1.131546	 -1.731081	 1.007027	 0.442359	 0.511107	 -0.192630	 0.265892	 0.187555	 -0.035578	 0.944912	 2
1463630357.035	 7	 1.038826	 -1.951685	 0.762788	 0.421624	 0.524223	 -0.189053	 0.271329	 0.177289	 -0.035164	 0.945364	 2
1463630357.045	 7	 0.954599	 -2.107017	 0.429558	 0.400384	 0.535227	 -0.188105	 0.276015	 0.166594	 -0.036411	 0.945905	 2
1463630357.055	 7	 0.850847	 -2.124897	 0.122290	 0.380033	 0.544091	 -0.189906	 0.279926	 0.156092	 -0.039157	 0.946437	 2
1463630357.065	 7	 0.701107	 -2.053364	 -0.047329	 0.361004	 0.550962	 -0.193214	 0.283007	 0.146138	 -0.042708	 0.946957	 2
1463630357.075	 7	 0.505158	 -1.914963	 -0.108280	 0.343198	 0.555850	 -0.196534	 0.285137	 0.136892	 -0.046335	 0.947529	 2
1463630357.085	 7	 0.287472	 -1.650843	 -0.148689	 0.327464	 0.558631	 -0.199401	 0.286255	 0.128832	 -0.049682	 0.948152	 2
1463630357.095	 7	 0.093570	 -1.325077	 -0.185534	 0.314747	 0.559385	 -0.201906	 0.286442	 0.122389	 -0.052623	 0.948790	 2
1463630357.115	 7	 0.018658	 -1.039643	 -0.309052	 0.295682	 0.557995	 -0.207547	 0.285591	 0.112629	 -0.058148	 0.949932	 2
1463630357.105	 7	 -0.010172	 -1.113403	 -0.225292	 0.304466	 0.558813	 -0.204342	 0.286041	 0.117202	 -0.055301	 0.949414	 2
1463630357.125	 7	 0.192727	 -1.129394	 -0.441426	 0.287405	 0.558187	 -0.212610	 0.285713	 0.107961	 -0.061719	 0.950212	 2
1463630357.135	 7	 0.451574	 -1.326977	 -0.595790	 0.278662	 0.560325	 -0.220189	 0.286839	 0.102571	 -0.066395	 0.950155	 2
1463630357.145	 7	 0.717194	 -1.475404	 -0.715652	 0.269522	 0.564740	 -0.230136	 0.289095	 0.096479	 -0.072080	 0.949695	 2
1463630357.155	 7	 0.895148	 -1.511201	 -0.739916	 0.260441	 0.571082	 -0.241283	 0.292257	 0.090077	 -0.078188	 0.948872	 2
1463630357.165	 7	 0.949265	 -1.415072	 -0.661687	 0.251789	 0.578467	 -0.252032	 0.295842	 0.083829	 -0.083980	 0.947838	 2
1463630357.175	 7	 0.900642	 -1.234990	 -0.489066	 0.243925	 0.586041	 -0.260977	 0.299418	 0.078179	 -0.088805	 0.946758	 2
1463630357.185	 7	 0.786029	 -1.062834	 -0.262656	 0.236256	 0.593216	 -0.267071	 0.302663	 0.073061	 -0.092299	 0.945800	 2
1463630357.195	 7	 0.627848	 -0.878614	 -0.003782	 0.228517	 0.599559	 -0.269770	 0.305367	 0.068483	 -0.094279	 0.945078	 2
1463630357.205	 7	 0.447485	 -0.645406	 0.254676	 0.220859	 0.604793	 -0.268807	 0.307423	 0.064593	 -0.094616	 0.944652	 2
1463630357.215	 7	 0.286388	 -0.336227	 0.436938	 0.214553	 0.608819	 -0.264949	 0.308888	 0.061890	 -0.093479	 0.944468	 2
1463630357.225	 7	 0.149082	 -0.128665	 0.549838	 0.209483	 0.611708	 -0.259141	 0.309829	 0.060170	 -0.091320	 0.944482	 2
1463630357.235	 7	 0.053803	 0.007980	 0.580715	 0.205400	 0.613631	 -0.252422	 0.310345	 0.059137	 -0.088649	 0.944632	 2
1463630357.245	 7	 0.010276	 0.086552	 0.544524	 0.202283	 0.614931	 -0.245798	 0.310623	 0.058597	 -0.085916	 0.944827	 2
1463630357.255	 7	 0.011238	 0.122212	 0.475572	 0.200018	 0.616008	 -0.239885	 0.310860	 0.058367	 -0.083404	 0.944989	 2
1463630357.265	 7	 0.039613	 0.100242	 0.390926	 0.198305	 0.617133	 -0.235021	 0.311175	 0.058234	 -0.081299	 0.945076	 2
1463630357.275	 7	 0.066920	 0.043475	 0.347529	 0.196517	 0.618426	 -0.230915	 0.311590	 0.057938	 -0.079554	 0.945106	 2
1463630357.285	 7	 0.091388	 -0.016841	 0.400043	 0.193963	 0.619992	 -0.226533	 0.312098	 0.057307	 -0.077782	 0.945125	 2
1463630357.295	 7	 0.144801	 -0.099148	 0.511783	 0.189981	 0.622175	 -0.221022	 0.312814	 0.056139	 -0.075664	 0.945130	 2
1463630357.305	 7	 0.218796	 -0.153544	 0.667300	 0.184379	 0.625303	 -0.213917	 0.313877	 0.054399	 -0.072994	 0.945089	 2
1463630357.315	 7	 0.326007	 -0.182488	 0.825961	 0.177408	 0.629630	 -0.205009	 0.315424	 0.052232	 -0.069627	 0.944951	 2
1463630357.325	 7	 0.452439	 -0.171394	 0.940066	 0.169512	 0.635360	 -0.194722	 0.317586	 0.049783	 -0.065694	 0.944640	 2
1463630357.335	 7	 0.554407	 -0.059905	 0.955136	 0.162249	 0.642171	 -0.184042	 0.320294	 0.047664	 -0.061442	 0.944121	 2
1463630357.345	 7	 0.594941	 0.019030	 0.856402	 0.156268	 0.649408	 -0.174243	 0.323286	 0.046021	 -0.057406	 0.943437	 2
1463630357.355	 7	 0.581166	 0.142625	 0.734043	 0.152392	 0.656406	 -0.165940	 0.326273	 0.045175	 -0.053771	 0.942663	 2
1463630357.365	 7	 0.456483	 0.307811	 0.582131	 0.150553	 0.662170	 -0.158960	 0.328772	 0.045160	 -0.050502	 0.941976	 2
1463630357.375	 7	 0.390931	 0.384155	 0.376654	 0.151626	 0.666836	 -0.154423	 0.330883	 0.046184	 -0.047963	 0.941320	 2
1463630357.385	 7	 0.285556	 0.355608	 0.211047	 0.153636	 0.670322	 -0.151859	 0.332504	 0.047387	 -0.046255	 0.940774	 2
