% Gyrometer data recorded with 'snsrlog'
% 
% 
% Label description:
% 	 0: Default Label
% 	 1: still_drop
% 	 2: walk_drop
% 	 3: other
% 	 4: dtw_same
% 	 5: dtw_diff
% 	 6: delete
% 
% Column description:
% 	 1: Seconds.milliseconds since 1970
% 	 2: Number of skipped measurements
% 	 3: Gyro X
% 	 4: Gyro Y
% 	 5: Gyro Z
% 	 6: Roll of the device
% 	 7: Pitch of the device
% 	 8: Yaw of the device
% 	 9: Quaternion X
% 	 10: Quaternion Y
% 	 11: Quaternion Z
% 	 12: Quaternion W
% 	 13: Label used for the current sample
% 
% 
1462068291.444	 0	 0.137199	 0.452731	 0.328910	 0.090344	 0.519770	 0.002527	 0.256652	 0.043965	 0.012824	 0.965418	 1
1462068291.454	 0	 0.165526	 0.569697	 0.336146	 0.093924	 0.521663	 0.006226	 0.257457	 0.046158	 0.015111	 0.965068	 1
1462068291.464	 0	 0.213639	 0.628771	 0.288318	 0.098492	 0.523937	 0.009488	 0.258440	 0.048773	 0.017325	 0.964640	 1
1462068291.474	 0	 0.269658	 0.586501	 0.202176	 0.103372	 0.526725	 0.011773	 0.259683	 0.051411	 0.019125	 0.964135	 1
1462068291.484	 0	 0.282547	 0.465572	 0.107154	 0.107393	 0.528737	 0.013135	 0.260577	 0.053519	 0.020354	 0.963754	 1
1462068291.494	 0	 0.253689	 0.322336	 -0.002635	 0.110962	 0.531374	 0.013107	 0.261812	 0.055224	 0.020874	 0.963312	 1
1462068291.504	 0	 0.201573	 0.227020	 -0.113908	 0.114098	 0.533427	 0.011800	 0.262805	 0.056554	 0.020710	 0.962968	 1
1462068291.514	 0	 0.147691	 0.179830	 -0.189547	 0.117127	 0.534822	 0.009582	 0.263509	 0.057713	 0.020079	 0.962720	 1
1462068291.524	 0	 0.108868	 0.160452	 -0.227735	 0.118191	 0.532225	 0.007881	 0.262297	 0.058016	 0.019327	 0.963048	 1
1462068291.534	 0	 0.102344	 0.162359	 -0.260699	 0.121344	 0.532939	 0.004827	 0.262701	 0.059129	 0.018291	 0.962890	 1
1462068291.544	 0	 0.119337	 0.162161	 -0.281098	 0.124661	 0.533738	 0.001493	 0.263156	 0.060282	 0.017145	 0.962716	 1
1462068291.554	 0	 0.121321	 0.155557	 -0.311019	 0.128119	 0.534575	 -0.002192	 0.263642	 0.061454	 0.015853	 0.962531	 1
1462068291.564	 0	 0.100660	 0.097094	 -0.316732	 0.131655	 0.533527	 -0.006226	 0.263236	 0.062634	 0.014344	 0.962589	 1
1462068291.574	 0	 0.062830	 -0.008059	 -0.312052	 0.133748	 0.533831	 -0.009946	 0.263485	 0.063148	 0.012839	 0.962509	 1
1462068291.594	 1	 0.009958	 -0.159752	 -0.277833	 0.134938	 0.533583	 -0.016964	 0.263580	 0.062799	 0.009610	 0.962543	 1
1462068291.604	 1	 -0.017368	 -0.148547	 -0.216753	 0.135817	 0.535291	 -0.020175	 0.264499	 0.062775	 0.008238	 0.962306	 1
1462068291.614	 1	 -0.046988	 -0.143770	 -0.156768	 0.135363	 0.534670	 -0.022066	 0.264261	 0.062316	 0.007248	 0.962409	 1
1462068291.634	 2	 -0.110238	 -0.198939	 -0.163125	 0.133339	 0.532586	 -0.025183	 0.263361	 0.060961	 0.005410	 0.962754	 1
1462068291.644	 2	 -0.136699	 -0.192731	 -0.224198	 0.132283	 0.532159	 -0.027267	 0.263221	 0.060184	 0.004253	 0.962847	 1
1462068291.654	 2	 -0.160143	 -0.132495	 -0.287379	 0.132221	 0.530274	 -0.030179	 0.262401	 0.059802	 0.002779	 0.963100	 1
1462068291.664	 2	 -0.193461	 0.053648	 -0.299211	 0.133891	 0.528030	 -0.033352	 0.261414	 0.060227	 0.001393	 0.963345	 1
1462068291.674	 2	 -0.185261	 0.192034	 -0.279877	 0.137056	 0.525750	 -0.036324	 0.260406	 0.061403	 0.000295	 0.963545	 1
1462068291.684	 2	 -0.108074	 0.214552	 -0.223852	 0.140678	 0.525920	 -0.038994	 0.260571	 0.062797	 -0.000514	 0.963410	 1
1462068291.694	 2	 0.001467	 0.293516	 -0.144139	 0.144275	 0.525420	 -0.040825	 0.260390	 0.064301	 -0.000946	 0.963360	 1
1462068291.704	 2	 0.115850	 0.494774	 -0.065462	 0.149208	 0.526174	 -0.041953	 0.260792	 0.066515	 -0.000817	 0.963101	 1
1462068291.714	 2	 0.111343	 0.778725	 0.074703	 0.156052	 0.527342	 -0.041682	 0.261345	 0.069822	 0.000253	 0.962717	 1
1462068291.724	 2	 0.113751	 1.066921	 0.069904	 0.165756	 0.528597	 -0.040929	 0.261916	 0.074565	 0.001936	 0.962204	 1
1462068291.734	 2	 0.112744	 1.168264	 -0.035721	 0.177431	 0.529691	 -0.041263	 0.262439	 0.080113	 0.003354	 0.961611	 1
1462068291.754	 3	 0.086646	 1.070444	 -0.041733	 0.200651	 0.531435	 -0.043113	 0.263304	 0.090988	 0.005601	 0.960396	 1
1462068291.764	 3	 0.056884	 1.068638	 -0.009517	 0.211504	 0.532032	 -0.043447	 0.263572	 0.096140	 0.006902	 0.959812	 1
1462068291.774	 3	 0.028913	 1.024024	 -0.012886	 0.222001	 0.532367	 -0.043653	 0.263702	 0.101140	 0.008205	 0.959252	 1
1462068291.784	 3	 0.001745	 0.944128	 -0.041103	 0.231842	 0.532368	 -0.044046	 0.263680	 0.105807	 0.009315	 0.958744	 1
1462068291.794	 3	 -0.004005	 0.881180	 -0.070415	 0.241207	 0.532134	 -0.044781	 0.263562	 0.110205	 0.010182	 0.958273	 1
1462068291.804	 3	 0.012764	 0.821525	 -0.076445	 0.250013	 0.532022	 -0.045655	 0.263511	 0.114311	 0.010917	 0.957797	 1
1462068291.814	 3	 0.055362	 0.779059	 -0.048435	 0.258299	 0.532286	 -0.046415	 0.263635	 0.118170	 0.011662	 0.957286	 1
1462068291.824	 3	 0.128813	 0.708914	 -0.011360	 0.265872	 0.533282	 -0.046973	 0.264098	 0.121692	 0.012460	 0.956707	 1
1462068291.834	 3	 0.211780	 0.612219	 0.034977	 0.272414	 0.535183	 -0.047310	 0.264985	 0.124721	 0.013293	 0.956060	 1
1462068291.844	 3	 0.298782	 0.470798	 0.075534	 0.277553	 0.538036	 -0.047438	 0.266318	 0.127076	 0.014112	 0.955368	 1
1462068291.854	 3	 0.356982	 0.365334	 0.076178	 0.281518	 0.541573	 -0.047662	 0.267990	 0.128833	 0.014783	 0.954654	 1
1462068291.864	 3	 0.363724	 0.453453	 0.056690	 0.285942	 0.545244	 -0.048169	 0.269738	 0.130764	 0.015398	 0.953890	 1
1462068291.874	 3	 0.371961	 0.589796	 0.087728	 0.291727	 0.548983	 -0.048538	 0.271495	 0.133357	 0.016276	 0.953017	 1
1462068291.884	 3	 0.364084	 0.681706	 0.145137	 0.298205	 0.552895	 -0.048332	 0.273286	 0.136347	 0.017545	 0.952059	 1
1462068291.894	 3	 0.298609	 0.802307	 0.175605	 0.305467	 0.556437	 -0.047517	 0.274845	 0.139800	 0.019196	 0.951077	 1
1462068291.904	 3	 0.194458	 0.912008	 0.154086	 0.313806	 0.559048	 -0.046488	 0.275926	 0.143821	 0.021035	 0.950125	 1
1462068291.914	 3	 0.064296	 0.971500	 0.091827	 0.322935	 0.560319	 -0.045627	 0.276365	 0.148233	 0.022805	 0.949278	 1
1462068291.924	 3	 -0.103407	 0.997012	 0.022119	 0.332511	 0.559881	 -0.044960	 0.275995	 0.152883	 0.024408	 0.948608	 1
1462068291.934	 3	 -0.302291	 0.967360	 -0.040371	 0.341905	 0.557445	 -0.044267	 0.274670	 0.157516	 0.025826	 0.948197	 1
1462068291.944	 3	 -0.522791	 0.867678	 -0.088404	 0.350365	 0.552776	 -0.043265	 0.272270	 0.161822	 0.027058	 0.948130	 1
1462068291.954	 3	 -0.733971	 0.679931	 -0.103233	 0.356805	 0.546033	 -0.041614	 0.268856	 0.165327	 0.028122	 0.948469	 1
1462068291.964	 3	 -0.946122	 0.467052	 -0.063934	 0.360569	 0.537393	 -0.038841	 0.264480	 0.167771	 0.029174	 0.949238	 1
1462068291.974	 3	 -1.096081	 0.253473	 0.050487	 0.361290	 0.527502	 -0.034226	 0.259392	 0.169037	 0.030580	 0.950372	 1
1462068291.984	 3	 -1.139133	 0.117961	 0.119941	 0.359830	 0.517264	 -0.028448	 0.254065	 0.169398	 0.032234	 0.951691	 1
1462068291.994	 3	 -1.095371	 0.158973	 0.073048	 0.358526	 0.507217	 -0.022933	 0.248841	 0.169759	 0.033812	 0.952952	 1
1462068292.004	 3	 -1.036900	 0.250139	 -0.091806	 0.358984	 0.497130	 -0.019273	 0.243717	 0.170702	 0.034728	 0.954074	 1
1462068292.014	 3	 -0.965388	 0.336420	 -0.191807	 0.361210	 0.487341	 -0.017178	 0.238830	 0.172274	 0.035136	 0.955012	 1
1462068292.024	 3	 -0.921970	 0.311430	 -0.246772	 0.363813	 0.477803	 -0.015904	 0.234121	 0.173911	 0.035209	 0.955878	 1
1462068292.034	 3	 -0.893280	 0.351192	 -0.325518	 0.366969	 0.468321	 -0.015482	 0.229499	 0.175706	 0.034930	 0.956681	 1
1462068292.044	 3	 -0.871614	 0.446619	 -0.357858	 0.371328	 0.458869	 -0.015706	 0.224923	 0.178001	 0.034466	 0.957360	 1
1462068292.054	 3	 -0.817541	 0.532116	 -0.279732	 0.376322	 0.450022	 -0.015450	 0.220581	 0.180639	 0.034336	 0.957880	 1
1462068292.064	 3	 -0.737837	 0.656591	 -0.243032	 0.382278	 0.442051	 -0.014875	 0.216610	 0.183750	 0.034523	 0.958188	 1
1462068292.074	 3	 -0.623845	 0.847651	 -0.250773	 0.390169	 0.435056	 -0.014702	 0.213109	 0.187720	 0.034793	 0.958194	 1
1462068292.084	 3	 -0.529000	 1.046260	 -0.251882	 0.400254	 0.429023	 -0.014946	 0.210067	 0.192673	 0.035160	 0.957869	 1
1462068292.094	 3	 -0.506774	 1.212298	 -0.227083	 0.412025	 0.423439	 -0.015131	 0.207205	 0.198429	 0.035745	 0.957295	 1
1462068292.104	 3	 -0.533949	 1.303047	 -0.190832	 0.424788	 0.417843	 -0.014796	 0.204264	 0.204711	 0.036645	 0.956570	 1
1462068292.114	 3	 -0.633489	 1.219500	 -0.165165	 0.436895	 0.411652	 -0.013741	 0.200972	 0.210764	 0.037724	 0.955911	 1
1462068292.124	 3	 -0.837544	 0.919329	 -0.133143	 0.446101	 0.403997	 -0.011518	 0.196902	 0.215578	 0.038877	 0.955638	 1
1462068292.134	 3	 -1.113960	 0.411125	 -0.070453	 0.449969	 0.394210	 -0.007466	 0.191711	 0.218057	 0.040119	 0.956080	 1
1462068292.144	 3	 -1.294983	 -0.005919	 -0.012010	 0.448645	 0.382759	 -0.001788	 0.185643	 0.218219	 0.041457	 0.957183	 1
1462068292.154	 3	 -1.309491	 -0.158875	 0.010140	 0.445021	 0.370936	 0.004379	 0.179385	 0.217288	 0.042793	 0.958528	 1
1462068292.164	 3	 -1.220831	 -0.132619	 0.000021	 0.441491	 0.359682	 0.010151	 0.173437	 0.216309	 0.044037	 0.959787	 1
1462068292.174	 3	 -1.048441	 0.012388	 -0.027841	 0.439518	 0.349682	 0.014936	 0.168160	 0.215933	 0.045097	 0.960761	 1
1462068292.184	 3	 -0.829799	 0.240170	 -0.062795	 0.440108	 0.341436	 0.018438	 0.163803	 0.216628	 0.045948	 0.961316	 1
1462068292.194	 3	 -0.600902	 0.626223	 -0.121944	 0.444640	 0.335042	 0.020404	 0.160409	 0.219054	 0.046574	 0.961309	 1
1462068292.204	 3	 -0.400065	 1.179282	 -0.189952	 0.454828	 0.330257	 0.020808	 0.157824	 0.224046	 0.047057	 0.960563	 1
1462068292.214	 3	 -0.253269	 1.778542	 -0.215495	 0.471374	 0.326739	 0.020124	 0.155821	 0.231982	 0.047630	 0.958976	 1
1462068292.224	 3	 -0.155947	 2.236999	 -0.170512	 0.492980	 0.324306	 0.019274	 0.154236	 0.242298	 0.048613	 0.956629	 1
1462068292.234	 3	 -0.088097	 2.573081	 -0.145594	 0.518171	 0.322687	 0.018429	 0.152946	 0.254290	 0.049946	 0.953651	 1
1462068292.244	 3	 -0.056986	 2.873646	 -0.193159	 0.546562	 0.321251	 0.017172	 0.151708	 0.267730	 0.051325	 0.950090	 1
1462068292.254	 3	 -0.046517	 3.162008	 -0.318459	 0.578168	 0.319321	 0.014925	 0.150281	 0.282578	 0.052382	 0.945950	 1
1462068292.264	 3	 -0.026646	 3.441538	 -0.484421	 0.613024	 0.316580	 0.011275	 0.148601	 0.298806	 0.052869	 0.941190	 1
1462068292.274	 3	 0.011244	 3.716574	 -0.676160	 0.651132	 0.312876	 0.005954	 0.146675	 0.316377	 0.052618	 0.935747	 1
1462068292.284	 3	 0.079235	 4.031994	 -0.860326	 0.692784	 0.308267	 -0.001135	 0.144596	 0.335400	 0.051595	 0.929482	 1
1462068292.294	 3	 0.188109	 4.392182	 -1.014589	 0.738447	 0.303050	 -0.009958	 0.142548	 0.356051	 0.049884	 0.922182	 1
1462068292.304	 3	 0.276384	 4.695957	 -1.183053	 0.787815	 0.297046	 -0.020447	 0.140518	 0.378158	 0.047454	 0.913783	 1
1462068292.314	 3	 0.247286	 4.791485	 -1.368419	 0.838970	 0.289248	 -0.031935	 0.138043	 0.400885	 0.044261	 0.904586	 1
1462068292.324	 3	 0.063013	 4.591589	 -1.580761	 0.888738	 0.278457	 -0.043177	 0.134462	 0.422924	 0.040344	 0.895225	 1
1462068292.334	 3	 -0.366702	 4.086791	 -1.696819	 0.933326	 0.263666	 -0.051705	 0.128886	 0.442821	 0.036236	 0.886558	 1
1462068292.344	 3	 -0.777990	 3.410748	 -1.806105	 0.970475	 0.245302	 -0.056658	 0.121290	 0.459664	 0.032173	 0.879183	 1
1462068292.354	 3	 -1.153922	 2.594777	 -1.983079	 0.998903	 0.223300	 -0.058524	 0.111692	 0.472897	 0.027816	 0.873567	 1
1462068292.364	 3	 -1.438667	 1.891182	 -2.173655	 1.019374	 0.197979	 -0.058197	 0.100356	 0.482800	 0.022926	 0.869659	 1
1462068292.374	 3	 -1.591163	 1.373529	 -2.337008	 1.033986	 0.170262	 -0.056709	 0.087848	 0.490185	 0.017453	 0.867004	 1
1462068292.384	 3	 -1.639949	 1.106726	 -2.480813	 1.045296	 0.140895	 -0.054980	 0.074656	 0.496074	 0.011365	 0.864990	 1
1462068292.394	 3	 -1.589155	 1.119504	 -2.604764	 1.056111	 0.110577	 -0.053828	 0.061255	 0.501618	 0.004624	 0.862905	 1
1462068292.404	 3	 -1.513672	 1.390652	 -2.730790	 1.069217	 0.079550	 -0.053579	 0.047841	 0.508002	 -0.002777	 0.860022	 1
1462068292.414	 3	 -1.424094	 1.685360	 -2.829009	 1.085401	 0.047964	 -0.054132	 0.034499	 0.515557	 -0.010788	 0.856092	 1
1462068292.424	 3	 -1.301190	 1.961433	 -2.843497	 1.104364	 0.016565	 -0.055304	 0.021551	 0.524133	 -0.019196	 0.851147	 1
1462068292.434	 3	 -1.132361	 2.210022	 -2.816010	 1.125866	 -0.013950	 -0.057160	 0.009353	 0.533607	 -0.027887	 0.845221	 1
1462068292.444	 3	 -0.938436	 2.360585	 -2.802442	 1.149078	 -0.043553	 -0.059973	 -0.001981	 0.543623	 -0.036990	 0.838512	 1
1462068292.454	 3	 -0.752447	 2.402769	 -2.777025	 1.172843	 -0.072267	 -0.063775	 -0.012443	 0.553701	 -0.046519	 0.831322	 1
1462068292.464	 3	 -0.599908	 2.362131	 -2.745693	 1.196194	 -0.100149	 -0.068277	 -0.022146	 0.563449	 -0.056339	 0.823930	 1
1462068292.474	 3	 -0.490350	 2.295778	 -2.757922	 1.218760	 -0.127686	 -0.073282	 -0.031356	 0.572726	 -0.066470	 0.816446	 1
1462068292.484	 3	 -0.435385	 2.236662	 -2.820765	 1.240508	 -0.155586	 -0.078513	 -0.040447	 0.581519	 -0.076975	 0.808872	 1
1462068292.494	 3	 -0.482945	 2.182978	 -2.909308	 1.261712	 -0.184439	 -0.083242	 -0.049861	 0.589916	 -0.087728	 0.801135	 1
1462068292.504	 3	 -0.624096	 1.964766	 -2.990042	 1.281424	 -0.214564	 -0.086463	 -0.060074	 0.597484	 -0.098394	 0.793551	 1
1462068292.514	 3	 -0.757403	 1.555462	 -3.018268	 1.297789	 -0.245543	 -0.087874	 -0.071136	 0.603464	 -0.108666	 0.786742	 1
1462068292.524	 3	 -0.864628	 0.994205	 -3.016163	 1.309240	 -0.276847	 -0.087734	 -0.082908	 0.607254	 -0.118385	 0.781252	 1
1462068292.534	 3	 -0.933245	 0.415254	 -2.945283	 1.315228	 -0.307907	 -0.086362	 -0.095180	 0.608677	 -0.127404	 0.777317	 1
1462068292.544	 3	 -0.911672	 -0.132387	 -2.773651	 1.315863	 -0.337533	 -0.084436	 -0.107345	 0.607866	 -0.135538	 0.774987	 1
1462068292.554	 3	 -0.770047	 -0.604548	 -2.558665	 1.311372	 -0.364844	 -0.083138	 -0.118751	 0.605044	 -0.142905	 0.774208	 1
1462068292.564	 3	 -0.585377	 -0.939101	 -2.417376	 1.302571	 -0.390108	 -0.083449	 -0.129204	 0.600626	 -0.149938	 0.774644	 1
1462068292.574	 3	 -0.444758	 -1.085482	 -2.305926	 1.291243	 -0.413860	 -0.085336	 -0.138836	 0.595323	 -0.156852	 0.775702	 1
1462068292.584	 3	 -0.362212	 -1.093481	 -2.202275	 1.279056	 -0.436287	 -0.088231	 -0.147783	 0.589764	 -0.163583	 0.776904	 1
1462068292.594	 3	 -0.343242	 -0.970766	 -2.139484	 1.267526	 -0.457883	 -0.091562	 -0.156289	 0.584494	 -0.170168	 0.777806	 1
1462068292.604	 3	 -0.351469	 -0.714108	 -2.097590	 1.258107	 -0.479015	 -0.095007	 -0.164458	 0.580048	 -0.176721	 0.777990	 1
1462068292.614	 3	 -0.346115	 -0.293691	 -2.055358	 1.252356	 -0.499734	 -0.098515	 -0.172158	 0.577029	 -0.183397	 0.777023	 1
1462068292.624	 3	 -0.290897	 0.265071	 -1.982430	 1.251696	 -0.519724	 -0.102364	 -0.179012	 0.576030	 -0.190390	 0.774530	 1
1462068292.634	 3	 -0.178220	 0.727401	 -1.837363	 1.255684	 -0.538226	 -0.106853	 -0.184627	 0.576940	 -0.197615	 0.770715	 1
1462068292.644	 3	 -0.003441	 0.960214	 -1.636355	 1.261981	 -0.554445	 -0.112353	 -0.188778	 0.578933	 -0.204809	 0.766324	 1
1462068292.654	 3	 0.197058	 0.995075	 -1.441676	 1.268258	 -0.568187	 -0.119294	 -0.191492	 0.581176	 -0.211866	 0.762022	 1
1462068292.664	 3	 0.371030	 0.871134	 -1.307814	 1.272750	 -0.579984	 -0.127770	 -0.193147	 0.582990	 -0.218787	 0.758254	 1
1462068292.674	 3	 0.483353	 0.633152	 -1.225746	 1.274415	 -0.590532	 -0.137415	 -0.194260	 0.583921	 -0.225513	 0.755277	 1
1462068292.684	 3	 0.528941	 0.296261	 -1.169595	 1.272556	 -0.600301	 -0.147612	 -0.195302	 0.583630	 -0.231865	 0.753307	 1
1462068292.694	 3	 0.525228	 -0.064068	 -1.138811	 1.266952	 -0.609675	 -0.157871	 -0.196625	 0.581975	 -0.237737	 0.752412	 1
1462068292.704	 3	 0.517732	 -0.315945	 -1.114446	 1.258447	 -0.618789	 -0.168068	 -0.198249	 0.579257	 -0.243199	 0.752338	 1
1462068292.714	 3	 0.555852	 -0.404120	 -1.084691	 1.248366	 -0.627489	 -0.178617	 -0.199850	 0.576026	 -0.248490	 0.752667	 1
1462068292.724	 3	 0.661017	 -0.322176	 -1.035819	 1.237991	 -0.635383	 -0.190203	 -0.200928	 0.572851	 -0.253896	 0.752998	 1
1462068292.734	 3	 0.809823	 -0.032999	 -0.992859	 1.228932	 -0.642283	 -0.203388	 -0.201044	 0.570405	 -0.259748	 0.752829	 1
1462068292.744	 3	 1.026575	 0.433378	 -0.980814	 1.222669	 -0.648246	 -0.218930	 -0.199796	 0.569309	 -0.266501	 0.751628	 1
1462068292.754	 3	 1.289506	 0.998214	 -1.013018	 1.219831	 -0.653473	 -0.237684	 -0.196910	 0.569860	 -0.274589	 0.749058	 1
1462068292.764	 3	 1.555716	 1.604307	 -1.074707	 1.220781	 -0.658285	 -0.259936	 -0.192331	 0.572171	 -0.284208	 0.744886	 1
1462068292.774	 3	 1.791013	 2.215827	 -1.133946	 1.225883	 -0.662909	 -0.285374	 -0.186121	 0.576287	 -0.295289	 0.738957	 1
1462068292.784	 3	 2.053531	 2.707154	 -1.182816	 1.234039	 -0.667309	 -0.314140	 -0.178304	 0.581750	 -0.307705	 0.731500	 1
1462068292.794	 3	 2.296429	 3.082853	 -1.197421	 1.244139	 -0.671325	 -0.346116	 -0.168950	 0.588075	 -0.321206	 0.722807	 1
1462068292.804	 3	 2.437595	 3.338000	 -1.156843	 1.255808	 -0.674833	 -0.380069	 -0.158375	 0.594952	 -0.335219	 0.713147	 1
1462068292.814	 3	 2.475566	 3.404384	 -1.080883	 1.268347	 -0.677425	 -0.414466	 -0.146955	 0.601963	 -0.348993	 0.703028	 1
1462068292.824	 3	 2.427520	 3.309516	 -0.981142	 1.281131	 -0.677751	 -0.447914	 -0.134687	 0.608776	 -0.361648	 0.693154	 1
1462068292.834	 3	 2.284867	 3.062916	 -0.870285	 1.292515	 -0.679409	 -0.479783	 -0.123492	 0.614734	 -0.373757	 0.683489	 1
1462068292.844	 3	 2.049893	 2.675364	 -0.726902	 1.302169	 -0.681075	 -0.508617	 -0.113411	 0.619710	 -0.384526	 0.674713	 1
1462068292.854	 3	 1.750661	 2.219043	 -0.559086	 1.309916	 -0.682100	 -0.533365	 -0.104609	 0.623657	 -0.393500	 0.667284	 1
1462068292.864	 3	 1.427098	 1.808526	 -0.391699	 1.316202	 -0.682438	 -0.553598	 -0.097167	 0.626765	 -0.400618	 0.661233	 1
1462068292.874	 3	 1.104049	 1.504391	 -0.221194	 1.322087	 -0.682045	 -0.569213	 -0.090924	 0.629437	 -0.405944	 0.656317	 1
1462068292.884	 3	 0.814481	 1.289458	 -0.056545	 1.328315	 -0.680831	 -0.580561	 -0.085608	 0.631967	 -0.409639	 0.652292	 1
1462068292.894	 3	 0.594430	 1.125212	 0.085589	 1.334970	 -0.678803	 -0.588463	 -0.080959	 0.634444	 -0.411998	 0.648987	 1
1462068292.904	 3	 0.442792	 0.996825	 0.213606	 1.341894	 -0.675940	 -0.593863	 -0.076715	 0.636873	 -0.413327	 0.646273	 1
1462068292.914	 3	 0.332745	 0.877755	 0.323229	 1.348665	 -0.672240	 -0.597504	 -0.072736	 0.639157	 -0.413855	 0.644137	 1
1462068292.924	 3	 0.241788	 0.755252	 0.407077	 1.355150	 -0.667884	 -0.599722	 -0.069019	 0.641276	 -0.413733	 0.642515	 1
1462068292.934	 3	 0.142160	 0.628310	 0.462182	 1.361224	 -0.663147	 -0.600606	 -0.065672	 0.643205	 -0.413056	 0.641373	 1
1462068292.944	 3	 0.029646	 0.498101	 0.501384	 1.366866	 -0.658209	 -0.600052	 -0.062805	 0.644942	 -0.411837	 0.640699	 1
1462068292.954	 3	 -0.113946	 0.356144	 0.521562	 1.372154	 -0.653279	 -0.597827	 -0.060562	 0.646513	 -0.410059	 0.640472	 1
1462068292.964	 3	 -0.294893	 0.241708	 0.508218	 1.377423	 -0.648728	 -0.593503	 -0.059156	 0.648024	 -0.407689	 0.640590	 1
1462068292.974	 3	 -0.485075	 0.220764	 0.476641	 1.383574	 -0.644797	 -0.586964	 -0.058537	 0.649764	 -0.404780	 0.640728	 1
1462068292.984	 3	 -0.658995	 0.256123	 0.442248	 1.391182	 -0.641478	 -0.578370	 -0.058545	 0.651923	 -0.401401	 0.640660	 1
1462068292.994	 3	 -0.760279	 0.300885	 0.413705	 1.400043	 -0.638625	 -0.568365	 -0.058965	 0.654450	 -0.397720	 0.640341	 1
1462068293.004	 3	 -0.786828	 0.359196	 0.377177	 1.409685	 -0.636103	 -0.557948	 -0.059524	 0.657219	 -0.394013	 0.639746	 1
1462068293.014	 3	 -0.751374	 0.433338	 0.348783	 1.419761	 -0.633795	 -0.547889	 -0.059995	 0.660137	 -0.390488	 0.638858	 1
1462068293.024	 3	 -0.657928	 0.558588	 0.351266	 1.430323	 -0.631337	 -0.538861	 -0.060010	 0.663240	 -0.387266	 0.637602	 1
1462068293.034	 3	 -0.484224	 0.726184	 0.358774	 1.441309	 -0.628503	 -0.531762	 -0.059195	 0.666536	 -0.384566	 0.635873	 1
1462068293.044	 3	 -0.264597	 0.908472	 0.357492	 1.452569	 -0.625349	 -0.527285	 -0.057361	 0.669996	 -0.382610	 0.633581	 1
1462068293.054	 3	 -0.037585	 1.078982	 0.348576	 1.463895	 -0.621959	 -0.525657	 -0.054493	 0.673552	 -0.381475	 0.630742	 1
1462068293.064	 3	 0.116730	 1.237874	 0.321001	 1.475767	 -0.618620	 -0.526147	 -0.050837	 0.677322	 -0.381011	 0.627281	 1
1462068293.074	 3	 0.131906	 1.313126	 0.290662	 1.487974	 -0.615525	 -0.527510	 -0.046916	 0.681195	 -0.380865	 0.623470	 1
1462068293.084	 3	 -0.005919	 1.303748	 0.261933	 1.501040	 -0.612820	 -0.527676	 -0.043386	 0.685281	 -0.380444	 0.619492	 1
1462068293.094	 3	 -0.240204	 1.213759	 0.224768	 1.514823	 -0.610588	 -0.525332	 -0.040765	 0.689507	 -0.379370	 0.615627	 1
1462068293.104	 3	 -0.505915	 1.055521	 0.146742	 1.530922	 -0.609153	 -0.518702	 -0.039497	 0.694329	 -0.377243	 0.611583	 1
1462068293.114	 3	 -0.695574	 0.962937	 0.063336	 1.545317	 -0.608549	 -0.510673	 -0.039370	 0.698569	 -0.374901	 0.608195	 1
1462068293.124	 3	 -0.769466	 0.922615	 0.046552	 1.559856	 -0.608227	 -0.501438	 -0.039775	 0.702801	 -0.372293	 0.604886	 1
1462068293.134	 3	 -0.756430	 0.935649	 0.089191	 1.574430	 -0.607492	 -0.492150	 -0.040086	 0.707025	 -0.369561	 0.601608	 1
1462068293.144	 3	 -0.674774	 1.007059	 0.142434	 1.589251	 -0.606025	 -0.483586	 -0.039878	 0.711332	 -0.366843	 0.598199	 1
1462068293.154	 3	 -0.512941	 1.112235	 0.191028	 1.603922	 -0.604089	 -0.476849	 -0.038924	 0.715621	 -0.364528	 0.594550	 1
1462068293.164	 3	 -0.299991	 1.185432	 0.250604	 1.617988	 -0.601591	 -0.472684	 -0.036995	 0.719776	 -0.362785	 0.590712	 1
1462068293.174	 3	 -0.095898	 1.205348	 0.292708	 1.630923	 -0.598673	 -0.471102	 -0.034218	 0.723636	 -0.361636	 0.586856	 1
1462068293.184	 3	 0.091703	 1.164327	 0.285364	 1.642261	 -0.595805	 -0.471900	 -0.030897	 0.727046	 -0.361148	 0.583114	 1
1462068293.194	 3	 0.203119	 1.071105	 0.235568	 1.651886	 -0.593453	 -0.474312	 -0.027478	 0.729945	 -0.361243	 0.579593	 1
1462068293.204	 3	 0.204183	 0.894113	 0.176360	 1.659811	 -0.591728	 -0.477034	 -0.024464	 0.732320	 -0.361582	 0.576513	 1
1462068293.214	 3	 0.122539	 0.624648	 0.092498	 1.665535	 -0.590834	 -0.479029	 -0.022395	 0.734016	 -0.361937	 0.574214	 1
1462068293.224	 3	 -0.004224	 0.307324	 -0.009533	 1.669192	 -0.590694	 -0.479413	 -0.021545	 0.735072	 -0.362042	 0.572826	 1
1462068293.234	 3	 -0.145847	 0.014538	 -0.103818	 1.667083	 -0.596583	 -0.480106	 -0.023663	 0.734306	 -0.364105	 0.572418	 1
1462068293.244	 3	 -0.294543	 -0.213279	 -0.192036	 1.667312	 -0.598039	 -0.476815	 -0.025321	 0.734288	 -0.363632	 0.572670	 1
1462068293.254	 3	 -0.438760	 -0.421746	 -0.250271	 1.666551	 -0.600012	 -0.471668	 -0.028015	 0.733941	 -0.362779	 0.573530	 1
1462068293.264	 3	 -0.535186	 -0.681390	 -0.306201	 1.664123	 -0.602425	 -0.465111	 -0.031675	 0.733069	 -0.361633	 0.575177	 1
1462068293.274	 3	 -0.592268	 -0.935061	 -0.402928	 1.659534	 -0.606304	 -0.457722	 -0.036522	 0.731491	 -0.360668	 0.577500	 1
1462068293.284	 3	 -0.668315	 -1.101781	 -0.543432	 1.653669	 -0.610800	 -0.449329	 -0.042168	 0.729470	 -0.359561	 0.580354	 1
1462068293.294	 3	 -0.753629	 -1.195103	 -0.686369	 1.647438	 -0.616707	 -0.439765	 -0.048777	 0.727222	 -0.358521	 0.583294	 1
1462068293.304	 3	 -0.813101	 -1.257500	 -0.807929	 1.641115	 -0.623893	 -0.429245	 -0.056176	 0.724815	 -0.357566	 0.586203	 1
1462068293.314	 3	 -0.814611	 -1.268844	 -0.906073	 1.634755	 -0.632223	 -0.418442	 -0.064062	 0.722272	 -0.356845	 0.588966	 1
1462068293.324	 3	 -0.761375	 -1.236533	 -0.975510	 1.628444	 -0.641331	 -0.408069	 -0.072041	 0.719648	 -0.356452	 0.591488	 1
1462068293.334	 3	 -0.655309	 -1.120093	 -1.009454	 1.622454	 -0.650987	 -0.398827	 -0.079735	 0.717063	 -0.356532	 0.593588	 1
1462068293.344	 3	 -0.498073	 -0.882806	 -0.931881	 1.617491	 -0.660211	 -0.391442	 -0.086427	 0.714818	 -0.357032	 0.595058	 1
1462068293.354	 3	 -0.276944	 -0.602718	 -0.939727	 1.613763	 -0.669437	 -0.386621	 -0.091981	 0.713008	 -0.358321	 0.595621	 1
1462068293.364	 3	 -0.025476	 -0.400802	 -1.008247	 1.610332	 -0.679327	 -0.384980	 -0.096580	 0.711370	 -0.360759	 0.595380	 1
1462068293.374	 3	 0.151893	 -0.141517	 -1.262098	 1.607593	 -0.691456	 -0.385896	 -0.100920	 0.709919	 -0.364664	 0.594012	 1
1462068293.384	 3	 0.203247	 0.296012	 -1.481217	 1.607950	 -0.705739	 -0.387878	 -0.105059	 0.709294	 -0.369685	 0.590929	 1
1462068293.394	 3	 0.053217	 1.002363	 -1.672634	 1.616122	 -0.721987	 -0.388214	 -0.108985	 0.710721	 -0.375232	 0.584978	 1
1462068293.404	 3	 0.080641	 1.348797	 -2.435932	 1.629719	 -0.743923	 -0.387382	 -0.114171	 0.713183	 -0.382515	 0.576209	 1
1462068293.414	 3	 0.214512	 1.401453	 -3.186905	 1.643835	 -0.774197	 -0.387132	 -0.121742	 0.715029	 -0.392611	 0.565481	 1
1462068293.434	 4	 0.291408	 1.803096	 -3.650638	 1.676871	 -0.845567	 -0.386338	 -0.139056	 0.718176	 -0.416479	 0.539844	 1
1462068293.444	 4	 0.230664	 2.057400	 -3.661604	 1.699011	 -0.882610	 -0.383481	 -0.147485	 0.720315	 -0.428655	 0.525023	 1
1462068293.464	 4	 0.159737	 2.459195	 -3.724401	 1.756362	 -0.957003	 -0.370128	 -0.163296	 0.725582	 -0.452604	 0.491951	 1
1462068293.474	 4	 0.220106	 2.597208	 -3.735367	 1.790120	 -0.994054	 -0.360264	 -0.170534	 0.728174	 -0.464514	 0.474244	 1
1462068293.484	 4	 0.330723	 2.738401	 -3.727556	 1.826594	 -1.031078	 -0.349186	 -0.177091	 0.730514	 -0.476653	 0.455840	 1
1462068293.454	 4	 0.164451	 2.310414	 -3.705568	 1.725824	 -0.919481	 -0.377972	 -0.155472	 0.722933	 -0.440576	 0.509008	 1
1462068293.494	 4	 0.448569	 2.521660	 -3.354385	 1.862091	 -1.065544	 -0.338463	 -0.182505	 0.732254	 -0.488271	 0.438278	 1
1462068293.504	 4	 0.626472	 0.854098	 -2.525236	 1.880834	 -1.093681	 -0.332764	 -0.188002	 0.731237	 -0.497636	 0.426973	 1
1462068293.514	 4	 0.746331	 -1.140942	 -1.410873	 1.870082	 -1.111972	 -0.336851	 -0.194391	 0.726294	 -0.503200	 0.426027	 1
1462068293.524	 4	 0.684337	 -1.725302	 -0.470439	 1.843535	 -1.120551	 -0.347880	 -0.199555	 0.720271	 -0.505588	 0.431008	 1
1462068293.534	 4	 0.533763	 -1.394622	 0.187261	 1.816809	 -1.121635	 -0.360806	 -0.201990	 0.715593	 -0.506038	 0.437095	 1
1462068293.544	 4	 0.419462	 -0.824700	 0.556984	 1.795912	 -1.117960	 -0.373260	 -0.201739	 0.712834	 -0.505574	 0.442225	 1
1462068293.554	 4	 0.403897	 -0.355999	 0.648874	 1.780457	 -1.112591	 -0.385328	 -0.199738	 0.711433	 -0.505126	 0.445888	 1
1462068293.564	 4	 0.419436	 -0.153548	 0.558967	 1.767969	 -1.107606	 -0.397209	 -0.197158	 0.710558	 -0.505094	 0.448460	 1
1462068293.584	 5	 0.360182	 -0.515397	 -0.228285	 1.745215	 -1.106603	 -0.415236	 -0.196215	 0.707351	 -0.506628	 0.452197	 1
1462068293.594	 5	 0.318206	 -0.782194	 -0.808046	 1.733770	 -1.113639	 -0.420044	 -0.199603	 0.704250	 -0.508571	 0.453373	 1
1462068293.604	 5	 0.294034	 -1.032783	 -1.492255	 1.722175	 -1.127102	 -0.422095	 -0.206030	 0.699942	 -0.511615	 0.453742	 1
1462068293.614	 5	 0.305680	 -1.146357	 -2.188290	 1.710769	 -1.147497	 -0.422224	 -0.215279	 0.694485	 -0.516049	 0.452812	 1
1462068293.624	 5	 0.343928	 -1.141161	 -2.775810	 1.699849	 -1.174083	 -0.421644	 -0.226615	 0.688120	 -0.521892	 0.450295	 1
1462068293.634	 5	 0.396858	 -1.079708	 -3.226516	 1.688967	 -1.205537	 -0.421517	 -0.239333	 0.681011	 -0.528920	 0.446304	 1
1462068293.644	 5	 0.478292	 -0.948419	 -3.569179	 1.677475	 -1.240740	 -0.423301	 -0.252758	 0.673326	 -0.536999	 0.440883	 1
1462068293.654	 5	 0.663621	 -0.711467	 -3.673033	 1.662007	 -1.277886	 -0.431252	 -0.265852	 0.665186	 -0.546050	 0.434373	 1
1462068293.664	 5	 0.966783	 -0.210774	 -3.440809	 1.637016	 -1.313539	 -0.453588	 -0.276500	 0.657241	 -0.556055	 0.427066	 1
1462068293.674	 5	 1.253932	 0.530102	 -3.245533	 1.598126	 -1.346912	 -0.496956	 -0.283815	 0.649987	 -0.567334	 0.418448	 1
1462068293.684	 5	 1.404407	 1.437788	 -2.979416	 1.545107	 -1.377464	 -0.563462	 -0.287384	 0.644160	 -0.579824	 0.407764	 1
1462068293.694	 5	 1.338571	 2.501531	 -2.547969	 1.484219	 -1.403400	 -0.647941	 -0.286709	 0.640776	 -0.592768	 0.394752	 1
1462068293.704	 5	 1.178203	 3.488331	 -1.911787	 1.425374	 -1.422640	 -0.740522	 -0.281236	 0.640477	 -0.605333	 0.379825	 1
1462068293.714	 5	 1.014718	 4.165442	 -1.154832	 1.376810	 -1.434125	 -0.830152	 -0.271312	 0.642851	 -0.616785	 0.364293	 1
1462068293.724	 5	 0.810188	 4.405560	 -0.540135	 1.347352	 -1.438950	 -0.903993	 -0.258356	 0.647060	 -0.626576	 0.349238	 1
1462068293.734	 5	 0.342572	 3.956304	 -0.053191	 1.348443	 -1.439666	 -0.944836	 -0.244998	 0.652348	 -0.633777	 0.335774	 1
1462068293.744	 5	 -0.241025	 3.100430	 0.196512	 1.393475	 -1.438242	 -0.932593	 -0.234199	 0.658403	 -0.637010	 0.325385	 1
1462068293.764	 6	 -0.522845	 2.150799	 -0.040076	 1.513842	 -1.437497	 -0.861117	 -0.219262	 0.669434	 -0.639237	 0.308477	 1
1462068293.774	 6	 -0.496614	 1.764306	 -0.231475	 1.570145	 -1.439494	 -0.823076	 -0.214711	 0.673689	 -0.639833	 0.301091	 1
1462068293.784	 6	 -0.409343	 1.380129	 -0.372227	 1.618942	 -1.442797	 -0.788685	 -0.211808	 0.676911	 -0.640433	 0.294574	 1
1462068293.794	 6	 -0.269066	 1.086725	 -0.441190	 1.656845	 -1.446878	 -0.762124	 -0.210009	 0.679123	 -0.641242	 0.288959	 1
1462068293.804	 6	 -0.131380	 0.840834	 -0.412704	 1.682651	 -1.450946	 -0.745183	 -0.208805	 0.680495	 -0.642233	 0.284366	 1
1462068293.814	 6	 0.014353	 0.666619	 -0.323938	 1.695156	 -1.454371	 -0.739688	 -0.207758	 0.681206	 -0.643377	 0.280824	 1
1462068293.824	 6	 0.232366	 0.660218	 -0.238504	 1.689468	 -1.457173	 -0.751987	 -0.206300	 0.681287	 -0.645010	 0.277939	 1
1462068293.834	 6	 0.437858	 0.703933	 -0.140770	 1.663761	 -1.459225	 -0.784829	 -0.204087	 0.680820	 -0.647272	 0.275446	 1
1462068293.844	 6	 0.589876	 0.731776	 -0.053376	 1.621794	 -1.460367	 -0.834373	 -0.201219	 0.679941	 -0.650001	 0.273294	 1
1462068293.854	 6	 0.657128	 0.701037	 -0.011618	 1.570639	 -1.460705	 -0.893015	 -0.198076	 0.678791	 -0.652931	 0.271460	 1
1462068293.864	 6	 0.628746	 0.585026	 -0.033765	 1.518678	 -1.460787	 -0.951530	 -0.195263	 0.677505	 -0.655752	 0.269907	 1
1462068293.874	 6	 0.503817	 0.386135	 -0.083553	 1.473744	 -1.461094	 -1.001161	 -0.193332	 0.676253	 -0.658103	 0.268710	 1
1462068293.884	 6	 0.301960	 0.155656	 -0.120161	 1.450002	 -1.460879	 -1.027266	 -0.192253	 0.675596	 -0.659298	 0.268209	 1
1462068293.894	 6	 0.095252	 -0.000101	 -0.121942	 1.435729	 -1.461930	 -1.041943	 -0.192375	 0.675038	 -0.659987	 0.267830	 1
1462068293.904	 6	 -0.067070	 -0.055720	 -0.083744	 1.436861	 -1.462903	 -1.040339	 -0.192886	 0.674985	 -0.659966	 0.267647	 1
1462068293.914	 6	 -0.145837	 -0.048792	 -0.040364	 1.447843	 -1.463574	 -1.028748	 -0.193412	 0.675299	 -0.659536	 0.267535	 1
1462068293.924	 6	 -0.153054	 -0.025140	 -0.008072	 1.479077	 -1.461809	 -0.997239	 -0.193153	 0.676543	 -0.658165	 0.267956	 1
1462068293.934	 6	 -0.175806	 -0.105834	 0.002033	 1.493409	 -1.461947	 -0.982068	 -0.193621	 0.676987	 -0.657532	 0.268050	 1
1462068293.944	 6	 -0.266566	 -0.350132	 0.011207	 1.512488	 -1.462046	 -0.960069	 -0.194836	 0.677404	 -0.656444	 0.268783	 1
1462068293.964	 7	 -0.464904	 -1.034196	 0.057716	 1.553281	 -1.461427	 -0.902868	 -0.200647	 0.677337	 -0.652640	 0.273892	 1
1462068293.974	 7	 -0.485227	 -1.270257	 0.057828	 1.584927	 -1.460852	 -0.858794	 -0.205074	 0.677289	 -0.649693	 0.277712	 1
1462068293.984	 7	 -0.463537	 -1.422421	 0.057288	 1.613471	 -1.460151	 -0.816089	 -0.210048	 0.676931	 -0.646573	 0.282113	 1
1462068293.994	 7	 -0.408387	 -1.495964	 0.058255	 1.636358	 -1.459342	 -0.778144	 -0.215236	 0.676252	 -0.643480	 0.286864	 1
1462068294.004	 7	 -0.332558	 -1.487643	 0.063003	 1.652995	 -1.458367	 -0.746370	 -0.220314	 0.675328	 -0.640530	 0.291746	 1
1462068294.024	 8	 -0.149762	 -1.193582	 0.059885	 1.663793	 -1.456735	 -0.708640	 -0.229059	 0.672917	 -0.635866	 0.300649	 1
1462068294.034	 8	 -0.064140	 -0.907785	 0.051141	 1.660835	 -1.456127	 -0.701717	 -0.232130	 0.671759	 -0.634368	 0.304028	 1
1462068294.044	 8	 -0.003909	 -0.566679	 0.032475	 1.655481	 -1.455732	 -0.700521	 -0.234102	 0.670859	 -0.633490	 0.306325	 1
1462068294.054	 8	 0.023338	 -0.197879	 0.005829	 1.650877	 -1.455618	 -0.702233	 -0.234949	 0.670370	 -0.633192	 0.307361	 1
1462068294.064	 8	 0.024817	 0.136967	 -0.019844	 1.649257	 -1.455786	 -0.704440	 -0.234776	 0.670356	 -0.633371	 0.307154	 1
1462068294.074	 8	 0.004547	 0.374128	 -0.031316	 1.651795	 -1.456079	 -0.705126	 -0.233837	 0.670784	 -0.633826	 0.305996	 1
1462068294.084	 8	 -0.019459	 0.494334	 -0.038514	 1.657962	 -1.456427	 -0.703668	 -0.232482	 0.671505	 -0.634386	 0.304282	 1
1462068294.094	 8	 -0.039696	 0.511336	 -0.048837	 1.666441	 -1.456856	 -0.700296	 -0.231062	 0.672339	 -0.634935	 0.302372	 1
1462068294.114	 9	 -0.051248	 0.348434	 -0.076897	 1.684933	 -1.458086	 -0.690197	 -0.228979	 0.673776	 -0.635770	 0.298984	 1
1462068294.124	 9	 -0.049671	 0.231424	 -0.077999	 1.692773	 -1.458809	 -0.684935	 -0.228488	 0.674234	 -0.636018	 0.297796	 1
1462068294.134	 9	 -0.045951	 0.108096	 -0.069587	 1.699106	 -1.459464	 -0.679955	 -0.228361	 0.674507	 -0.636125	 0.297047	 1
1462068294.144	 9	 0.006130	 0.107560	 -0.122268	 1.702318	 -1.460438	 -0.677663	 -0.228419	 0.674571	 -0.636337	 0.296400	 1
1462068294.154	 9	 0.088624	 0.261860	 -0.224929	 1.700632	 -1.462576	 -0.681592	 -0.228304	 0.674440	 -0.637133	 0.295074	 1
1462068294.164	 9	 0.078477	 0.308186	 -0.147675	 1.697797	 -1.464476	 -0.687535	 -0.227803	 0.674408	 -0.638044	 0.293563	 1
1462068294.174	 9	 0.011667	 0.243768	 0.035618	 1.697828	 -1.464598	 -0.690166	 -0.226945	 0.674693	 -0.638456	 0.292677	 1
1462068294.184	 9	 -0.053798	 0.120972	 0.089399	 1.701912	 -1.463691	 -0.687605	 -0.226219	 0.675139	 -0.638373	 0.292389	 1
1462068294.194	 9	 -0.096273	 -0.004887	 0.023587	 1.709667	 -1.463143	 -0.680062	 -0.226119	 0.675505	 -0.638043	 0.292343	 1
1462068294.204	 9	 -0.109868	 -0.109621	 -0.050807	 1.719132	 -1.463331	 -0.669687	 -0.226664	 0.675684	 -0.637634	 0.292398	 1
1462068294.214	 9	 -0.113545	 -0.209596	 -0.051705	 1.728316	 -1.463718	 -0.658614	 -0.227598	 0.675708	 -0.637133	 0.292709	 1
1462068294.224	 9	 -0.121430	 -0.330539	 -0.012263	 1.736630	 -1.463738	 -0.647233	 -0.228802	 0.675625	 -0.636418	 0.293518	 1
1462068294.234	 9	 -0.119722	 -0.437821	 0.008039	 1.743579	 -1.463482	 -0.636098	 -0.230275	 0.675411	 -0.635526	 0.294787	 1
1462068294.244	 9	 -0.099778	 -0.499644	 -0.002302	 1.748460	 -1.463280	 -0.626283	 -0.231977	 0.675033	 -0.634598	 0.296315	 1
1462068294.254	 9	 -0.055940	 -0.464821	 -0.022609	 1.750351	 -1.463336	 -0.619573	 -0.233658	 0.674523	 -0.633833	 0.297788	 1
1462068294.264	 9	 -0.011513	 -0.315044	 -0.031194	 1.749128	 -1.463588	 -0.617175	 -0.234931	 0.674016	 -0.633385	 0.298887	 1
1462068294.274	 9	 0.022473	 -0.131075	 -0.022318	 1.746208	 -1.463856	 -0.618281	 -0.235565	 0.673664	 -0.633262	 0.299442	 1
1462068294.284	 9	 0.024382	 0.047602	 -0.022803	 1.744306	 -1.464124	 -0.620244	 -0.235587	 0.673565	 -0.633387	 0.299383	 1
1462068294.294	 9	 -0.002792	 0.183696	 -0.040484	 1.746011	 -1.464481	 -0.620088	 -0.235209	 0.673740	 -0.633638	 0.298754	 1
1462068294.304	 9	 -0.036719	 0.251687	 -0.065134	 1.752069	 -1.465004	 -0.616388	 -0.234696	 0.674119	 -0.633906	 0.297733	 1
1462068294.314	 9	 -0.063276	 0.287839	 -0.077356	 1.761495	 -1.465627	 -0.609723	 -0.234145	 0.674630	 -0.634150	 0.296487	 1
1462068294.324	 9	 -0.082416	 0.305948	 -0.081284	 1.773294	 -1.466267	 -0.600892	 -0.233576	 0.675229	 -0.634359	 0.295122	 1
1462068294.334	 9	 -0.098418	 0.306003	 -0.080078	 1.786937	 -1.466862	 -0.590272	 -0.233014	 0.675892	 -0.634514	 0.293712	 1
1462068294.344	 9	 -0.102760	 0.282685	 -0.070665	 1.801078	 -1.467353	 -0.578966	 -0.232496	 0.676557	 -0.634610	 0.292379	 1
1462068294.354	 9	 -0.091184	 0.230684	 -0.049935	 1.813674	 -1.467666	 -0.568770	 -0.232042	 0.677153	 -0.634655	 0.291263	 1
1462068294.364	 9	 -0.051928	 0.156326	 -0.020064	 1.814027	 -1.468015	 -0.570099	 -0.231583	 0.677292	 -0.634967	 0.290624	 1
1462068294.374	 9	 0.005527	 0.089412	 0.016115	 1.815872	 -1.467914	 -0.569298	 -0.231238	 0.677487	 -0.635041	 0.290282	 1
1462068294.384	 9	 0.068415	 0.054293	 0.038687	 1.810659	 -1.467711	 -0.575143	 -0.230854	 0.677443	 -0.635242	 0.290248	 1
1462068294.394	 9	 0.117575	 0.065877	 0.042630	 1.800312	 -1.467539	 -0.586160	 -0.230360	 0.677244	 -0.635610	 0.290301	 1
1462068294.404	 9	 0.136784	 0.078530	 0.031895	 1.804102	 -1.469335	 -0.583298	 -0.230656	 0.677131	 -0.636025	 0.289419	 1
1462068294.414	 9	 0.119632	 0.071059	 0.021317	 1.792301	 -1.469384	 -0.595906	 -0.230157	 0.676867	 -0.636501	 0.289389	 1
1462068294.424	 9	 0.090722	 0.055151	 0.016092	 1.783168	 -1.469427	 -0.605693	 -0.229765	 0.676663	 -0.636876	 0.289351	 1
1462068294.434	 9	 0.072380	 0.025315	 0.001053	 1.776002	 -1.469528	 -0.613232	 -0.229529	 0.676474	 -0.637165	 0.289345	 1
1462068294.444	 9	 0.059323	 -0.008787	 -0.017276	 1.796037	 -1.470211	 -0.593360	 -0.230076	 0.676963	 -0.636741	 0.288699	 1
1462068294.454	 9	 0.049480	 -0.037663	 -0.043037	 1.791404	 -1.470679	 -0.597697	 -0.230223	 0.676707	 -0.636935	 0.288752	 1
1462068294.464	 9	 0.036532	 -0.045264	 -0.069639	 1.788414	 -1.471390	 -0.600253	 -0.230523	 0.676441	 -0.637112	 0.288747	 1
1462068294.474	 9	 0.034450	 -0.020909	 -0.085381	 1.786458	 -1.472268	 -0.601918	 -0.230846	 0.676192	 -0.637314	 0.288626	 1
1462068294.484	 9	 0.035782	 0.041855	 -0.088006	 1.820398	 -1.473053	 -0.568391	 -0.231612	 0.677059	 -0.636580	 0.287599	 1
1462068294.494	 9	 0.041518	 0.121653	 -0.081984	 1.819464	 -1.473965	 -0.570343	 -0.231516	 0.676977	 -0.636955	 0.287038	 1
1462068294.504	 9	 0.040793	 0.190818	 -0.078137	 1.819087	 -1.474831	 -0.572484	 -0.231165	 0.677006	 -0.637411	 0.286241	 1
1462068294.514	 9	 0.034624	 0.240821	 -0.078684	 1.819703	 -1.475690	 -0.574166	 -0.230650	 0.677124	 -0.637913	 0.285255	 1
1462068294.524	 9	 0.020910	 0.275975	 -0.078244	 1.831802	 -1.476875	 -0.564787	 -0.230313	 0.677537	 -0.638237	 0.283819	 1
1462068294.534	 9	 0.009311	 0.296297	 -0.067296	 1.835360	 -1.477595	 -0.564156	 -0.229600	 0.677829	 -0.638719	 0.282614	 1
1462068294.544	 9	 -0.005530	 0.297561	 -0.044757	 1.837494	 -1.477024	 -0.564989	 -0.228470	 0.678336	 -0.638952	 0.281783	 1
1462068294.554	 9	 -0.118223	 0.120627	 0.004668	 1.847397	 -1.476923	 -0.556952	 -0.228004	 0.678832	 -0.638928	 0.281019	 1
1462068294.564	 9	 -0.341805	 -0.276025	 0.071133	 1.873181	 -1.475558	 -0.529254	 -0.228792	 0.679569	 -0.637662	 0.281475	 1
1462068294.574	 9	 -0.465898	 -0.593439	 0.104430	 1.908155	 -1.473239	 -0.488914	 -0.230730	 0.680356	 -0.635427	 0.283041	 1
1462068294.584	 9	 -0.489482	 -0.844370	 0.106566	 1.939954	 -1.470394	 -0.449018	 -0.233457	 0.680868	 -0.632731	 0.285600	 1
1462068294.594	 9	 -0.395181	 -0.975578	 0.091735	 1.965612	 -1.467912	 -0.413665	 -0.236742	 0.680959	 -0.630026	 0.288644	 1
1462068294.604	 9	 -0.223429	 -0.965649	 0.063688	 1.977048	 -1.466206	 -0.392345	 -0.239964	 0.680474	 -0.627841	 0.291870	 1
1462068294.614	 9	 -0.040385	 -0.832305	 0.045217	 1.973918	 -1.465414	 -0.386720	 -0.242656	 0.679522	 -0.626425	 0.294889	 1
1462068294.624	 9	 0.095055	 -0.625300	 0.044898	 1.959790	 -1.465266	 -0.394101	 -0.244535	 0.678363	 -0.625758	 0.297410	 1
1462068294.634	 9	 0.139765	 -0.433886	 0.058014	 1.941322	 -1.465253	 -0.407866	 -0.245644	 0.677298	 -0.625545	 0.299367	 1
1462068294.644	 9	 0.103154	 -0.279535	 0.060834	 1.925921	 -1.465099	 -0.420162	 -0.246258	 0.676534	 -0.625456	 0.300771	 1
1462068294.654	 9	 0.053854	 -0.099625	 0.062938	 1.916698	 -1.464736	 -0.427949	 -0.246412	 0.676186	 -0.625399	 0.301547	 1
1462068294.664	 9	 0.013390	 0.124980	 0.068664	 1.913128	 -1.464188	 -0.432229	 -0.245935	 0.676295	 -0.625464	 0.301554	 1
1462068294.674	 9	 -0.038995	 0.329364	 0.071022	 1.916179	 -1.463431	 -0.432033	 -0.244844	 0.676898	 -0.625616	 0.300775	 1
1462068294.684	 9	 -0.124848	 0.455112	 0.069742	 1.927016	 -1.462435	 -0.425489	 -0.243405	 0.677947	 -0.625700	 0.299402	 1
1462068294.694	 9	 -0.244600	 0.400213	 0.077734	 1.947054	 -1.460975	 -0.409634	 -0.242133	 0.679343	 -0.625384	 0.297925	 1
1462068294.704	 9	 -0.343460	 0.216841	 0.124848	 1.972742	 -1.458736	 -0.386448	 -0.241414	 0.680877	 -0.624444	 0.296979	 1
1462068294.714	 9	 -0.344822	 0.062352	 0.234262	 1.994763	 -1.455469	 -0.365225	 -0.240953	 0.682357	 -0.623057	 0.296868	 1
1462068294.724	 9	 -0.238858	 0.005671	 0.380953	 2.003819	 -1.451208	 -0.356270	 -0.240133	 0.683642	 -0.621635	 0.297555	 1
1462068294.734	 9	 -0.087410	 0.100852	 0.513740	 1.997409	 -1.446311	 -0.363358	 -0.238481	 0.684701	 -0.620563	 0.298685	 1
1462068294.744	 9	 0.034539	 0.356041	 0.552354	 1.982114	 -1.441252	 -0.381696	 -0.235666	 0.685774	 -0.620096	 0.299427	 1
1462068294.754	 9	 0.104727	 0.468221	 0.356687	 1.967913	 -1.437796	 -0.400635	 -0.232685	 0.686660	 -0.620326	 0.299253	 1
1462068294.764	 9	 0.067817	 0.336605	 0.086146	 1.961564	 -1.436690	 -0.410897	 -0.230843	 0.687150	 -0.620825	 0.298517	 1
1462068294.774	 9	 -0.068738	 0.085401	 -0.142010	 1.967746	 -1.437414	 -0.406173	 -0.230735	 0.687363	 -0.621030	 0.297683	 1
1462068294.784	 9	 -0.192715	 -0.095773	 -0.241733	 1.985230	 -1.438828	 -0.387944	 -0.231937	 0.687531	 -0.620727	 0.296994	 1
1462068294.794	 9	 -0.229249	 -0.153064	 -0.236619	 2.006862	 -1.440108	 -0.364660	 -0.233554	 0.687731	 -0.620144	 0.296479	 1
1462068294.804	 9	 -0.200265	 -0.145457	 -0.202696	 2.026799	 -1.441107	 -0.343060	 -0.235050	 0.687915	 -0.619562	 0.296088	 1
1462068294.814	 9	 -0.179152	 -0.190226	 -0.207559	 2.044544	 -1.442098	 -0.323425	 -0.236548	 0.687984	 -0.619032	 0.295842	 1
1462068294.824	 9	 -0.198124	 -0.320325	 -0.261893	 2.063719	 -1.443383	 -0.301212	 -0.238560	 0.687862	 -0.618397	 0.295838	 1
1462068294.834	 9	 -0.207314	 -0.401625	 -0.329712	 2.086045	 -1.445126	 -0.274804	 -0.241141	 0.687555	 -0.617683	 0.295951	 1
1462068294.844	 9	 -0.174310	 -0.374447	 -0.381969	 2.109741	 -1.447400	 -0.247017	 -0.243882	 0.687100	 -0.617129	 0.295917	 1
1462068294.854	 9	 -0.121516	 -0.264021	 -0.386730	 2.132849	 -1.450001	 -0.220755	 -0.246332	 0.686607	 -0.616873	 0.295566	 1
1462068294.864	 9	 -0.053392	 -0.110754	 -0.344332	 2.152377	 -1.452619	 -0.199575	 -0.248124	 0.686163	 -0.616971	 0.294893	 1
1462068294.874	 9	 0.010576	 0.051168	 -0.283700	 2.166968	 -1.455075	 -0.184986	 -0.249125	 0.685822	 -0.617406	 0.293930	 1
1462068294.884	 9	 0.044556	 0.192946	 -0.226191	 2.177667	 -1.457271	 -0.175836	 -0.249396	 0.685641	 -0.618089	 0.292684	 1
1462068294.894	 9	 0.050391	 0.267649	 -0.189311	 2.186526	 -1.459175	 -0.169485	 -0.249209	 0.685611	 -0.618868	 0.291265	 1
1462068294.904	 9	 0.032280	 0.263504	 -0.179577	 2.178770	 -1.459916	 -0.179782	 -0.248226	 0.685556	 -0.619636	 0.290600	 1
1462068294.914	 9	 0.003157	 0.201867	 -0.184160	 2.189645	 -1.461480	 -0.171074	 -0.248148	 0.685614	 -0.620217	 0.289286	 1
1462068294.924	 9	 -0.022821	 0.115864	 -0.174077	 2.201792	 -1.462829	 -0.160240	 -0.248356	 0.685642	 -0.620589	 0.288242	 1
1462068294.934	 9	 -0.152738	 -0.117177	 -0.095182	 2.216055	 -1.463149	 -0.145456	 -0.249060	 0.685767	 -0.620336	 0.287882	 1
1462068294.944	 9	 -0.350242	 -0.464552	 0.030131	 2.234698	 -1.461293	 -0.122850	 -0.250696	 0.686164	 -0.618806	 0.288806	 1
1462068294.954	 9	 -0.347246	 -0.578820	 0.114303	 2.249067	 -1.458271	 -0.102644	 -0.252653	 0.686581	 -0.616700	 0.290610	 1
1462068294.964	 9	 -0.177879	 -0.428207	 0.124887	 2.252504	 -1.455887	 -0.094374	 -0.254015	 0.686731	 -0.615145	 0.292358	 1
1462068294.974	 9	 -0.039162	 -0.167298	 0.079214	 2.249671	 -1.454733	 -0.094859	 -0.254518	 0.686715	 -0.614475	 0.293365	 1
1462068294.984	 9	 0.000283	 0.094911	 0.025891	 2.248171	 -1.454420	 -0.096678	 -0.254299	 0.686818	 -0.614448	 0.293371	 1
1462068294.994	 9	 -0.046814	 0.315010	 -0.002558	 2.252717	 -1.454204	 -0.094747	 -0.253528	 0.687302	 -0.614671	 0.292437	 1
1462068295.004	 9	 -0.128130	 0.503448	 -0.010754	 2.264809	 -1.453600	 -0.087195	 -0.252303	 0.688286	 -0.614899	 0.290695	 1
1462068295.014	 9	 -0.210672	 0.655747	 -0.016079	 2.284078	 -1.452485	 -0.074040	 -0.250722	 0.689750	 -0.615046	 0.288273	 1
1462068295.024	 9	 -0.278605	 0.743080	 -0.027464	 2.309050	 -1.450917	 -0.056195	 -0.248949	 0.691568	 -0.615079	 0.285368	 1
1462068295.034	 9	 -0.318096	 0.755838	 -0.044054	 2.337483	 -1.449093	 -0.035187	 -0.247196	 0.693546	 -0.615004	 0.282237	 1
1462068295.044	 9	 -0.331313	 0.679208	 -0.056375	 2.366675	 -1.447152	 -0.012868	 -0.245684	 0.695484	 -0.614800	 0.279217	 1
1462068295.054	 9	 -0.315970	 0.527164	 -0.043003	 2.392878	 -1.445159	 0.007805	 -0.244551	 0.697203	 -0.614445	 0.276693	 1
1462068295.064	 9	 -0.283629	 0.336969	 -0.003489	 2.413042	 -1.443095	 0.024249	 -0.243822	 0.698615	 -0.613915	 0.274947	 1
1462068295.074	 9	 -0.235099	 0.178691	 0.043640	 2.425987	 -1.441025	 0.035141	 -0.243394	 0.699708	 -0.613267	 0.273994	 1
1462068295.084	 9	 -0.173530	 0.070359	 0.090056	 2.431862	 -1.439081	 0.040105	 -0.243088	 0.700514	 -0.612612	 0.273669	 1
1462068295.094	 9	 -0.124791	 -0.036925	 0.129132	 2.431591	 -1.437269	 0.039926	 -0.242882	 0.701063	 -0.611961	 0.273904	 1
1462068295.104	 9	 -0.084547	 -0.133562	 0.166250	 2.426201	 -1.435525	 0.035593	 -0.242792	 0.701392	 -0.611281	 0.274657	 1
1462068295.114	 9	 -0.052870	 -0.228204	 0.185358	 2.390571	 -1.435432	 0.002178	 -0.241960	 0.700557	 -0.611539	 0.276941	 1
1462068295.124	 9	 -0.029793	 -0.307032	 0.178029	 2.379796	 -1.433924	 -0.005776	 -0.242257	 0.700484	 -0.610811	 0.278467	 1
1462068295.134	 9	 -0.013056	 -0.346709	 0.140212	 2.369379	 -1.432742	 -0.012864	 -0.242786	 0.700248	 -0.610125	 0.280099	 1
1462068295.144	 9	 0.013540	 -0.315304	 0.081656	 2.360802	 -1.432109	 -0.018219	 -0.243435	 0.699886	 -0.609614	 0.281549	 1
1462068295.154	 9	 0.040381	 -0.229637	 0.023551	 2.375414	 -1.434581	 -0.001309	 -0.245250	 0.699126	 -0.609881	 0.281283	 1
1462068295.164	 9	 0.057807	 -0.128871	 -0.007636	 2.371211	 -1.434979	 -0.003999	 -0.245648	 0.698743	 -0.609883	 0.281883	 1
1462068295.174	 9	 0.063580	 -0.035300	 -0.008947	 2.367929	 -1.435490	 -0.006736	 -0.245766	 0.698461	 -0.610044	 0.282131	 1
1462068295.184	 9	 0.056497	 0.038185	 0.001391	 2.365203	 -1.435918	 -0.009700	 -0.245624	 0.698310	 -0.610276	 0.282125	 1
1462068295.194	 9	 0.039686	 0.093668	 0.013748	 2.401456	 -1.434504	 0.025379	 -0.246634	 0.699524	 -0.609310	 0.280321	 1
1462068295.204	 9	 0.012109	 0.130964	 0.012204	 2.401020	 -1.434552	 0.023692	 -0.246183	 0.699656	 -0.609509	 0.279954	 1
1462068295.224	 10	 -0.053273	 0.100058	 -0.022685	 2.406869	 -1.434201	 0.027216	 -0.245587	 0.700148	 -0.609612	 0.279021	 1
1462068295.234	 10	 -0.065204	 0.085022	 -0.049391	 2.429333	 -1.434568	 0.048698	 -0.246309	 0.700519	 -0.609515	 0.277662	 1
1462068295.244	 10	 -0.070627	 0.086987	 -0.073838	 2.437327	 -1.434478	 0.055909	 -0.246389	 0.700768	 -0.609467	 0.277069	 1
1462068295.254	 10	 -0.068442	 0.110273	 -0.088561	 2.446363	 -1.434492	 0.063981	 -0.246466	 0.701019	 -0.609469	 0.276360	 1
1462068295.264	 10	 -0.056575	 0.145270	 -0.097931	 2.455888	 -1.434642	 0.072226	 -0.246471	 0.701270	 -0.609559	 0.275519	 1
1462068295.274	 10	 -0.045722	 0.186706	 -0.099742	 2.461384	 -1.432586	 0.076078	 -0.245912	 0.702198	 -0.608967	 0.274963	 1
1462068295.284	 10	 -0.044426	 0.230352	 -0.094019	 2.470877	 -1.432834	 0.083439	 -0.245634	 0.702517	 -0.609213	 0.273848	 1
1462068295.294	 10	 -0.051627	 0.282532	 -0.088142	 2.480888	 -1.433003	 0.090840	 -0.245203	 0.702924	 -0.609492	 0.272569	 1
1462068295.304	 10	 -0.066215	 0.347538	 -0.076752	 2.491478	 -1.432997	 0.098185	 -0.244557	 0.703466	 -0.609787	 0.271085	 1
1462068295.314	 10	 -0.092562	 0.406237	 -0.059955	 2.497913	 -1.429857	 0.100820	 -0.243196	 0.705009	 -0.609078	 0.269894	 1
1462068295.324	 10	 -0.121077	 0.456423	 -0.044319	 2.509811	 -1.429228	 0.108347	 -0.242163	 0.705895	 -0.609280	 0.268043	 1
1462068295.334	 10	 -0.158225	 0.486426	 -0.028795	 2.522514	 -1.428203	 0.116321	 -0.241009	 0.706953	 -0.609377	 0.266067	 1
1462068295.344	 10	 -0.193387	 0.489792	 -0.018866	 2.536003	 -1.426815	 0.124998	 -0.239836	 0.708140	 -0.609341	 0.264045	 1
1462068295.354	 10	 -0.211594	 0.470734	 -0.013542	 2.543564	 -1.424681	 0.127946	 -0.238382	 0.709463	 -0.609074	 0.262422	 1
1462068295.364	 10	 -0.204304	 0.423988	 -0.003383	 2.556131	 -1.422983	 0.136220	 -0.237341	 0.710664	 -0.608863	 0.260600	 1
1462068295.374	 10	 -0.163029	 0.342046	 0.007219	 2.565957	 -1.421495	 0.142466	 -0.236442	 0.711676	 -0.608666	 0.259108	 1
1462068295.384	 10	 -0.106937	 0.238747	 0.012164	 2.572296	 -1.420418	 0.146200	 -0.235752	 0.712399	 -0.608535	 0.258058	 1
1462068295.394	 10	 -0.058304	 0.140697	 0.006561	 2.564872	 -1.422103	 0.137276	 -0.234977	 0.711953	 -0.609434	 0.257873	 1
1462068295.404	 10	 -0.029891	 0.057636	 0.004475	 2.566652	 -1.421776	 0.138288	 -0.234767	 0.712168	 -0.609392	 0.257570	 1
1462068295.414	 10	 -0.009927	 -0.010476	 0.006865	 2.566923	 -1.421623	 0.138517	 -0.234753	 0.712225	 -0.609338	 0.257553	 1
1462068295.424	 10	 0.005864	 -0.065749	 0.017936	 2.565532	 -1.421559	 0.137647	 -0.234862	 0.712169	 -0.609263	 0.257788	 1
1462068295.434	 10	 0.021722	 -0.109339	 0.028042	 2.557399	 -1.423194	 0.130549	 -0.234957	 0.711431	 -0.609826	 0.258406	 1
1462068295.444	 10	 0.035528	 -0.130592	 0.036251	 2.552997	 -1.423267	 0.127386	 -0.235180	 0.711210	 -0.609744	 0.259003	 1
1462068295.454	 10	 0.039829	 -0.115783	 0.026759	 2.548642	 -1.423434	 0.124217	 -0.235397	 0.710965	 -0.609704	 0.259573	 1
1462068295.464	 10	 0.015425	 -0.064839	 0.001867	 2.546438	 -1.423581	 0.122790	 -0.235575	 0.710800	 -0.609684	 0.259910	 1
1462068295.474	 10	 -0.030216	 0.017013	 -0.025778	 2.569759	 -1.422864	 0.145947	 -0.236639	 0.711319	 -0.609171	 0.258725	 1
1462068295.484	 10	 -0.076860	 0.106293	 -0.053317	 2.575658	 -1.422560	 0.151062	 -0.236636	 0.711573	 -0.609095	 0.258204	 1
1462068295.494	 10	 -0.109626	 0.184995	 -0.067220	 2.584604	 -1.422037	 0.158415	 -0.236487	 0.712024	 -0.609012	 0.257292	 1
1462068295.504	 10	 -0.125473	 0.227512	 -0.077344	 2.595335	 -1.421390	 0.167047	 -0.236244	 0.712589	 -0.608933	 0.256136	 1
1462068295.514	 10	 -0.130800	 0.233871	 -0.082567	 2.606724	 -1.420697	 0.176205	 -0.235990	 0.713186	 -0.608850	 0.254904	 1
1462068295.524	 10	 -0.127560	 0.240259	 -0.080404	 2.617979	 -1.420000	 0.185181	 -0.235717	 0.713783	 -0.608777	 0.253657	 1
1462068295.534	 10	 -0.121102	 0.240340	 -0.066605	 2.628409	 -1.419278	 0.193290	 -0.235389	 0.714381	 -0.608710	 0.252436	 1
1462068295.544	 10	 -0.105117	 0.214909	 -0.045647	 2.626058	 -1.418735	 0.188907	 -0.234503	 0.714774	 -0.608784	 0.251968	 1
1462068295.554	 10	 -0.080731	 0.163934	 -0.025019	 2.632286	 -1.418122	 0.193422	 -0.234181	 0.715227	 -0.608717	 0.251144	 1
1462068295.564	 10	 -0.051037	 0.115001	 -0.014009	 2.636372	 -1.417694	 0.196263	 -0.233926	 0.715545	 -0.608679	 0.250567	 1
1462068295.574	 10	 -0.019200	 0.073460	 -0.009344	 2.638590	 -1.417515	 0.197678	 -0.233746	 0.715715	 -0.608694	 0.250212	 1
1462068295.584	 10	 0.002088	 0.056392	 -0.006475	 2.629915	 -1.417785	 0.188527	 -0.233130	 0.715610	 -0.608928	 0.250518	 1
1462068295.594	 10	 0.012754	 0.048968	 0.000823	 2.630143	 -1.417889	 0.188242	 -0.232965	 0.715638	 -0.609029	 0.250345	 1
1462068295.604	 10	 0.012740	 0.041561	 0.006083	 2.629868	 -1.417980	 0.187527	 -0.232799	 0.715658	 -0.609121	 0.250221	 1
1462068295.624	 11	 0.005328	 0.056480	 0.006291	 2.632723	 -1.416940	 0.189374	 -0.232522	 0.716135	 -0.608833	 0.249811	 1
1462068295.634	 11	 -0.003221	 0.057538	 0.002113	 2.633108	 -1.416917	 0.189182	 -0.232335	 0.716213	 -0.608894	 0.249616	 1
1462068295.644	 11	 -0.009659	 0.051167	 0.001044	 2.633817	 -1.416846	 0.189360	 -0.232178	 0.716304	 -0.608927	 0.249419	 1
1462068295.654	 11	 -0.024613	 0.048030	 0.002216	 2.634344	 -1.416149	 0.189420	 -0.231994	 0.716587	 -0.608721	 0.249281	 1
1462068295.664	 11	 -0.028819	 0.044892	 0.004431	 2.635502	 -1.415886	 0.190122	 -0.231876	 0.716735	 -0.608669	 0.249092	 1
1462068295.674	 11	 -0.023557	 0.026817	 0.007415	 2.636249	 -1.415630	 0.190564	 -0.231790	 0.716859	 -0.608605	 0.248970	 1
1462068295.684	 11	 -0.014042	 0.009754	 0.005042	 2.636580	 -1.415457	 0.190768	 -0.231751	 0.716933	 -0.608553	 0.248922	 1
1462068295.694	 11	 -0.006614	 0.007561	 -0.001437	 2.639135	 -1.414828	 0.193224	 -0.231814	 0.717169	 -0.608308	 0.248781	 1
1462068295.704	 11	 -0.005582	 0.002234	 -0.002563	 2.642248	 -1.414361	 0.196262	 -0.231928	 0.717354	 -0.608117	 0.248610	 1
1462068295.714	 11	 -0.007687	 0.009689	 -0.002478	 2.646061	 -1.413899	 0.199957	 -0.232066	 0.717548	 -0.607927	 0.248385	 1
1462068295.724	 11	 -0.015082	 0.030938	 -0.008610	 2.647095	 -1.413819	 0.200750	 -0.232031	 0.717610	 -0.607918	 0.248259	 1
1462068295.734	 11	 -0.022475	 0.055356	 -0.017911	 2.649965	 -1.413582	 0.203124	 -0.231996	 0.717767	 -0.607868	 0.247960	 1
1462068295.744	 11	 -0.026737	 0.060648	 -0.023154	 2.651822	 -1.413722	 0.204405	 -0.231900	 0.717804	 -0.607977	 0.247677	 1
1462068295.754	 11	 -0.015054	 0.047846	 -0.023373	 2.651357	 -1.414036	 0.203493	 -0.231732	 0.717751	 -0.608154	 0.247554	 1
1462068295.764	 11	 0.001943	 0.027605	 -0.020506	 2.648276	 -1.414336	 0.200156	 -0.231490	 0.717659	 -0.608323	 0.247633	 1
1462068295.774	 11	 0.013575	 0.001006	 -0.016587	 2.645755	 -1.414604	 0.197609	 -0.231360	 0.717555	 -0.608447	 0.247751	 1
1462068295.784	 11	 0.017798	 -0.014908	 -0.009308	 2.644171	 -1.414673	 0.196157	 -0.231325	 0.717504	 -0.608469	 0.247874	 1
1462068295.794	 11	 0.016717	 -0.020200	 -0.006148	 2.643575	 -1.414595	 0.195758	 -0.231358	 0.717502	 -0.608421	 0.247970	 1
1462068295.804	 11	 0.009242	 -0.015960	 -0.011372	 2.645077	 -1.414446	 0.197425	 -0.231490	 0.717543	 -0.608332	 0.247945	 1
1462068295.814	 11	 -0.001308	 0.018051	 -0.019495	 2.650296	 -1.414228	 0.202484	 -0.231705	 0.717674	 -0.608228	 0.247620	 1
1462068295.824	 11	 -0.015234	 0.010617	 -0.023710	 2.654122	 -1.414320	 0.206172	 -0.231870	 0.717691	 -0.608249	 0.247365	 1
1462068295.834	 11	 -0.017407	 0.006338	 -0.027997	 2.657874	 -1.414324	 0.209861	 -0.232053	 0.717725	 -0.608230	 0.247141	 1
1462068295.844	 11	 -0.013134	 0.007390	 -0.028028	 2.661467	 -1.414455	 0.213388	 -0.232233	 0.717717	 -0.608260	 0.246919	 1
1462068295.854	 11	 -0.017356	 0.012760	 -0.022614	 2.664233	 -1.414534	 0.216054	 -0.232353	 0.717723	 -0.608282	 0.246734	 1
1462068295.864	 11	 -0.014141	 0.015942	 -0.022614	 2.667353	 -1.414463	 0.219032	 -0.232469	 0.717785	 -0.608251	 0.246522	 1
1462068295.874	 11	 -0.008834	 0.013769	 -0.026945	 2.670077	 -1.414430	 0.221588	 -0.232556	 0.717834	 -0.608241	 0.246323	 1
1462068295.884	 11	 -0.007895	 -0.010722	 -0.030379	 2.671669	 -1.414616	 0.223264	 -0.232684	 0.717775	 -0.608289	 0.246255	 1
1462068295.894	 11	 -0.007962	 -0.022446	 -0.033685	 2.673279	 -1.414794	 0.225082	 -0.232855	 0.717704	 -0.608320	 0.246224	 1
1462068295.904	 11	 -0.001612	 -0.036271	 -0.030670	 2.673886	 -1.414929	 0.226074	 -0.233034	 0.717619	 -0.608319	 0.246304	 1
1462068295.914	 11	 -0.002633	 -0.026695	 -0.030571	 2.674972	 -1.415003	 0.227506	 -0.233221	 0.717562	 -0.608297	 0.246347	 1
1462068295.924	 11	 -0.002630	 -0.026687	 -0.029504	 2.676427	 -1.414986	 0.229229	 -0.233396	 0.717546	 -0.608248	 0.246350	 1
1462068295.934	 11	 0.000521	 -0.036277	 -0.030686	 2.677713	 -1.415100	 0.230890	 -0.233607	 0.717474	 -0.608237	 0.246390	 1
1462068295.944	 11	 -0.000555	 -0.036289	 -0.032809	 2.679636	 -1.415241	 0.233204	 -0.233859	 0.717395	 -0.608229	 0.246400	 1
1462068295.954	 11	 -0.011142	 -0.013959	 -0.037837	 2.681799	 -1.415227	 0.235567	 -0.234048	 0.717389	 -0.608186	 0.246343	 1
1462068295.964	 11	 -0.011139	 -0.016063	 -0.034658	 2.683288	 -1.415251	 0.237280	 -0.234211	 0.717364	 -0.608158	 0.246329	 1
1462068295.974	 11	 -0.016404	 -0.002213	 -0.033415	 2.684635	 -1.415196	 0.238711	 -0.234312	 0.717380	 -0.608119	 0.246283	 1
1462068295.984	 11	 -0.017483	 -0.011721	 -0.024967	 2.685842	 -1.415116	 0.240027	 -0.234413	 0.717400	 -0.608068	 0.246252	 1
1462068295.994	 11	 -0.011108	 -0.021283	 -0.020847	 2.686657	 -1.415038	 0.241051	 -0.234529	 0.717406	 -0.608008	 0.246273	 1
1462068296.004	 11	 -0.014284	 -0.015955	 -0.020769	 2.687768	 -1.415016	 0.242328	 -0.234649	 0.717400	 -0.607973	 0.246264	 1
1462068296.014	 11	 -0.006897	 -0.031948	 -0.023115	 2.689171	 -1.415173	 0.244032	 -0.234840	 0.717322	 -0.607987	 0.246274	 1
1462068296.024	 11	 -0.011179	 -0.027743	 -0.031566	 2.691337	 -1.415333	 0.246514	 -0.235079	 0.717245	 -0.607996	 0.246247	 1
1462068296.034	 11	 -0.004818	 -0.033111	 -0.035935	 2.693297	 -1.415489	 0.248805	 -0.235312	 0.717167	 -0.608003	 0.246237	 1
1462068296.044	 11	 -0.005862	 -0.032014	 -0.031653	 2.694606	 -1.415654	 0.250438	 -0.235507	 0.717082	 -0.608018	 0.246260	 1
1462068296.054	 11	 -0.000554	 -0.041572	 -0.027524	 2.695186	 -1.415795	 0.251443	 -0.235697	 0.716989	 -0.608016	 0.246354	 1
1462068296.064	 11	 0.003694	 -0.047952	 -0.025488	 2.695679	 -1.415941	 0.252422	 -0.235904	 0.716887	 -0.608009	 0.246471	 1
1462068296.074	 11	 0.005814	 -0.055366	 -0.020245	 2.695733	 -1.416031	 0.253033	 -0.236111	 0.716792	 -0.607974	 0.246635	 1
1462068296.084	 11	 0.004732	 -0.057498	 -0.021319	 2.695480	 -1.416133	 0.253372	 -0.236314	 0.716688	 -0.607940	 0.246826	 1
1462068296.094	 11	 0.002608	 -0.054309	 -0.022336	 2.695931	 -1.416113	 0.254388	 -0.236540	 0.716630	 -0.607860	 0.246974	 1
1462068296.104	 11	 -0.001631	 -0.045802	 -0.024349	 2.696640	 -1.415971	 0.255595	 -0.236751	 0.716621	 -0.607742	 0.247090	 1
1462068296.114	 11	 -0.004795	 -0.039395	 -0.022128	 2.697174	 -1.415835	 0.256557	 -0.236927	 0.716617	 -0.607635	 0.247194	 1
1462068296.124	 11	 -0.010093	 -0.031926	 -0.020944	 2.697713	 -1.415668	 0.257460	 -0.237080	 0.716631	 -0.607524	 0.247280	 1
1462068296.134	 11	 -0.010073	 -0.026615	 -0.021958	 2.698279	 -1.415470	 0.258336	 -0.237214	 0.716661	 -0.607409	 0.247347	 1
1462068296.144	 11	 -0.008981	 -0.020244	 -0.022973	 2.699344	 -1.415357	 0.259636	 -0.237351	 0.716676	 -0.607332	 0.247363	 1
1462068296.154	 11	 -0.006824	 -0.017044	 -0.020828	 2.699903	 -1.415232	 0.260395	 -0.237449	 0.716695	 -0.607257	 0.247396	 1
1462068296.164	 11	 -0.003602	 -0.015960	 -0.016579	 2.699992	 -1.415084	 0.260668	 -0.237513	 0.716722	 -0.607178	 0.247451	 1
1462068296.174	 11	 0.000690	 -0.015926	 -0.010219	 2.699951	 -1.414918	 0.260808	 -0.237569	 0.716754	 -0.607093	 0.247511	 1
1462068296.184	 11	 0.003882	 -0.021223	 -0.006031	 2.699533	 -1.414806	 0.260602	 -0.237617	 0.716764	 -0.607027	 0.247601	 1
1462068296.194	 11	 -0.000418	 -0.026537	 -0.007108	 2.699554	 -1.414693	 0.260879	 -0.237705	 0.716770	 -0.606952	 0.247680	 1
1462068296.204	 11	 -0.000473	 -0.037181	 -0.008271	 2.699398	 -1.414681	 0.261077	 -0.237823	 0.716731	 -0.606905	 0.247796	 1
1462068296.214	 11	 -0.000456	 -0.037150	 -0.004007	 2.699217	 -1.414679	 0.261283	 -0.237952	 0.716685	 -0.606857	 0.247924	 1
1462068296.224	 11	 -0.002540	 -0.026507	 -0.003890	 2.699271	 -1.414661	 0.261636	 -0.238062	 0.716655	 -0.606813	 0.248012	 1
1462068296.234	 11	 -0.003550	 -0.012692	 -0.005885	 2.699571	 -1.414657	 0.262089	 -0.238132	 0.716640	 -0.606791	 0.248042	 1
1462068296.244	 11	 -0.002475	 -0.014792	 -0.001650	 2.699109	 -1.414689	 0.261767	 -0.238159	 0.716611	 -0.606788	 0.248109	 1
1462068296.254	 11	 0.000701	 -0.022232	 0.000386	 2.698113	 -1.414746	 0.260972	 -0.238178	 0.716563	 -0.606789	 0.248224	 1
1462068296.264	 11	 0.004927	 -0.034979	 0.004495	 2.696890	 -1.414809	 0.260065	 -0.238227	 0.716499	 -0.606780	 0.248385	 1
1462068296.274	 11	 0.007018	 -0.046662	 0.007565	 2.695876	 -1.414813	 0.259494	 -0.238330	 0.716440	 -0.606732	 0.248575	 1
1462068296.284	 11	 0.006983	 -0.053052	 0.006440	 2.694896	 -1.414822	 0.259029	 -0.238462	 0.716370	 -0.606676	 0.248785	 1
1462068296.294	 11	 0.008045	 -0.053063	 0.005364	 2.694326	 -1.414874	 0.258978	 -0.238619	 0.716288	 -0.606634	 0.248972	 1
1462068296.304	 11	 0.005887	 -0.056262	 0.003220	 2.694319	 -1.414954	 0.259519	 -0.238818	 0.716197	 -0.606596	 0.249137	 1
1462068296.314	 11	 0.004816	 -0.055211	 0.001106	 2.694040	 -1.415047	 0.259782	 -0.239000	 0.716101	 -0.606565	 0.249314	 1
1462068296.324	 11	 0.005847	 -0.058443	 -0.004264	 2.694101	 -1.415207	 0.260419	 -0.239217	 0.715980	 -0.606553	 0.249482	 1
1462068296.334	 11	 0.006864	 -0.068027	 -0.005429	 2.693891	 -1.415334	 0.260864	 -0.239445	 0.715859	 -0.606520	 0.249689	 1
1462068296.344	 11	 0.014271	 -0.080821	 -0.006680	 2.693353	 -1.415606	 0.261121	 -0.239712	 0.715673	 -0.606526	 0.249953	 1
1462068296.354	 11	 0.019626	 -0.078695	 -0.004577	 2.692682	 -1.415909	 0.261246	 -0.239973	 0.715475	 -0.606544	 0.250224	 1
1462068296.364	 11	 0.026086	 -0.070173	 -0.000292	 2.691854	 -1.416173	 0.261158	 -0.240204	 0.715296	 -0.606555	 0.250488	 1
1462068296.374	 11	 0.019734	 -0.051078	 -0.009650	 2.691276	 -1.416278	 0.261115	 -0.240368	 0.715195	 -0.606531	 0.250679	 1
1462068296.384	 11	 0.014398	 -0.048950	 -0.011715	 2.691101	 -1.416321	 0.261436	 -0.240538	 0.715120	 -0.606486	 0.250838	 1
1462068296.394	 11	 0.014411	 -0.046815	 -0.010628	 2.690600	 -1.416338	 0.261420	 -0.240685	 0.715054	 -0.606434	 0.251011	 1
1462068296.404	 11	 0.011243	 -0.040415	 -0.009474	 2.690493	 -1.416381	 0.261740	 -0.240834	 0.714988	 -0.606397	 0.251146	 1
1462068296.414	 11	 0.011263	 -0.034049	 -0.011546	 2.690337	 -1.416425	 0.261940	 -0.240954	 0.714930	 -0.606370	 0.251261	 1
1462068296.424	 11	 0.007021	 -0.026606	 -0.013569	 2.689874	 -1.416467	 0.261774	 -0.241037	 0.714878	 -0.606350	 0.251375	 1
1462068296.434	 11	 0.003838	 -0.023398	 -0.012444	 2.689857	 -1.416439	 0.262008	 -0.241125	 0.714857	 -0.606308	 0.251453	 1
1462068296.444	 11	 -0.001469	 -0.019112	 -0.010224	 2.689589	 -1.416384	 0.261957	 -0.241185	 0.714847	 -0.606262	 0.251535	 1
1462068296.454	 11	 -0.000402	 -0.018060	 -0.011286	 2.689205	 -1.416316	 0.261779	 -0.241235	 0.714842	 -0.606212	 0.251620	 1
1462068296.464	 11	 -0.000385	 -0.016974	 -0.008075	 2.688263	 -1.416214	 0.261029	 -0.241248	 0.714848	 -0.606155	 0.251731	 1
1462068296.474	 11	 -0.000382	 -0.019078	 -0.004895	 2.687294	 -1.416139	 0.260256	 -0.241262	 0.714843	 -0.606107	 0.251845	 1
1462068296.484	 11	 0.004956	 -0.021199	 -0.001761	 2.686273	 -1.416090	 0.259458	 -0.241285	 0.714827	 -0.606066	 0.251970	 1
1462068296.494	 11	 0.004976	 -0.022217	 0.004627	 2.684477	 -1.416020	 0.257889	 -0.241265	 0.714813	 -0.606021	 0.252138	 1
1462068296.504	 11	 0.002864	 -0.021117	 0.008922	 2.682719	 -1.415900	 0.256343	 -0.241239	 0.714817	 -0.605958	 0.252301	 1
1462068296.514	 11	 0.002886	 -0.020022	 0.013197	 2.681256	 -1.415820	 0.255076	 -0.241226	 0.714811	 -0.605911	 0.252442	 1
1462068296.524	 11	 0.001817	 -0.020019	 0.013207	 2.680108	 -1.415685	 0.254110	 -0.241222	 0.714826	 -0.605844	 0.252563	 1
1462068296.534	 11	 0.003930	 -0.025336	 0.014205	 2.679042	 -1.415632	 0.253274	 -0.241244	 0.714810	 -0.605801	 0.252692	 1
1462068296.544	 11	 0.006015	 -0.034923	 0.013031	 2.677827	 -1.415659	 0.252376	 -0.241292	 0.714756	 -0.605778	 0.252854	 1
1462068296.554	 11	 0.004932	 -0.039167	 0.014067	 2.676487	 -1.415652	 0.251400	 -0.241349	 0.714706	 -0.605737	 0.253037	 1
1462068296.564	 11	 0.005986	 -0.040249	 0.011915	 2.675511	 -1.415713	 0.250822	 -0.241441	 0.714632	 -0.605716	 0.253209	 1
1462068296.574	 11	 0.003864	 -0.034948	 0.008785	 2.674872	 -1.415708	 0.250532	 -0.241531	 0.714588	 -0.605674	 0.253350	 1
1462068296.584	 11	 0.002814	 -0.028585	 0.005654	 2.674763	 -1.415745	 0.250705	 -0.241627	 0.714542	 -0.605652	 0.253440	 1
1462068296.594	 11	 0.001761	 -0.024335	 0.004636	 2.674839	 -1.415693	 0.251012	 -0.241711	 0.714531	 -0.605603	 0.253507	 1
1462068296.604	 11	 -0.001440	 -0.023269	 0.003607	 2.674887	 -1.415663	 0.251284	 -0.241793	 0.714514	 -0.605563	 0.253574	 1
1462068296.614	 11	 -0.001456	 -0.027516	 0.004633	 2.674508	 -1.415663	 0.251165	 -0.241865	 0.714480	 -0.605532	 0.253673	 1
1462068296.624	 11	 -0.001467	 -0.030700	 0.005669	 2.674061	 -1.415665	 0.251015	 -0.241947	 0.714441	 -0.605498	 0.253787	 1
1462068296.634	 11	 -0.000390	 -0.029631	 0.006735	 2.673315	 -1.415653	 0.250562	 -0.242010	 0.714405	 -0.605461	 0.253917	 1
1462068296.644	 11	 -0.000393	 -0.029639	 0.005669	 2.672613	 -1.415684	 0.250154	 -0.242079	 0.714355	 -0.605439	 0.254043	 1
1462068296.654	 11	 0.000681	 -0.027523	 0.004613	 2.671769	 -1.415758	 0.249596	 -0.242138	 0.714291	 -0.605436	 0.254173	 1
1462068296.664	 11	 0.001769	 -0.023272	 0.004644	 2.671080	 -1.415764	 0.249154	 -0.242189	 0.714255	 -0.605411	 0.254286	 1
1462068296.674	 11	 0.000728	 -0.017951	 0.004703	 2.670284	 -1.415765	 0.248543	 -0.242212	 0.714228	 -0.605393	 0.254385	 1
1462068296.684	 11	 -0.001366	 -0.009435	 0.004801	 2.669687	 -1.415724	 0.248063	 -0.242219	 0.714223	 -0.605366	 0.254454	 1
1462068296.694	 11	 -0.003409	 -0.006196	 0.005984	 2.668836	 -1.415616	 0.247292	 -0.242196	 0.714243	 -0.605320	 0.254528	 1
1462068296.704	 11	 -0.002352	 -0.008326	 0.005955	 2.668439	 -1.415539	 0.246966	 -0.242196	 0.714258	 -0.605285	 0.254573	 1
1462068296.714	 11	 -0.003458	 -0.015777	 0.004830	 2.667897	 -1.415491	 0.246567	 -0.242215	 0.714252	 -0.605252	 0.254647	 1
1462068296.724	 11	 -0.003474	 -0.021080	 0.006913	 2.667092	 -1.415499	 0.245965	 -0.242244	 0.714220	 -0.605234	 0.254752	 1
1462068296.734	 11	 -0.004579	 -0.027474	 0.004732	 2.666364	 -1.415530	 0.245503	 -0.242301	 0.714173	 -0.605216	 0.254872	 1
1462068296.744	 11	 -0.005652	 -0.031703	 0.007898	 2.665769	 -1.415545	 0.245207	 -0.242376	 0.714128	 -0.605188	 0.254994	 1
1462068296.754	 11	 -0.005650	 -0.029591	 0.005786	 2.665251	 -1.415536	 0.244977	 -0.242451	 0.714093	 -0.605151	 0.255110	 1
1462068296.764	 11	 -0.005673	 -0.032798	 0.003624	 2.664904	 -1.415534	 0.244939	 -0.242542	 0.714054	 -0.605113	 0.255222	 1
1462068296.774	 11	 -0.005685	 -0.033877	 0.001483	 2.664408	 -1.415565	 0.244790	 -0.242640	 0.713999	 -0.605083	 0.255353	 1
1462068296.784	 11	 -0.003550	 -0.032828	 0.000409	 2.663797	 -1.415554	 0.244512	 -0.242725	 0.713958	 -0.605041	 0.255488	 1
1462068296.794	 11	 -0.000339	 -0.032822	 0.002513	 2.663010	 -1.415574	 0.244052	 -0.242800	 0.713907	 -0.605011	 0.255629	 1
1462068296.804	 11	 -0.000314	 -0.027504	 0.002563	 2.662347	 -1.415532	 0.243676	 -0.242865	 0.713881	 -0.604963	 0.255753	 1
1462068296.814	 11	 -0.001363	 -0.024302	 0.003669	 2.661533	 -1.415370	 0.243120	 -0.242904	 0.713897	 -0.604874	 0.255881	 1
1462068296.824	 11	 -0.004570	 -0.025356	 0.003688	 2.660992	 -1.415238	 0.242829	 -0.242957	 0.713906	 -0.604796	 0.255990	 1
1462068296.834	 11	 -0.005643	 -0.026417	 0.003688	 2.660676	 -1.415129	 0.242772	 -0.243027	 0.713908	 -0.604724	 0.256089	 1
1462068296.844	 11	 -0.003511	 -0.025375	 0.001548	 2.660035	 -1.415134	 0.242395	 -0.243086	 0.713870	 -0.604697	 0.256204	 1
1462068296.854	 11	 -0.000335	 -0.031759	 0.002527	 2.659286	 -1.415164	 0.241940	 -0.243152	 0.713820	 -0.604675	 0.256333	 1
1462068296.864	 11	 0.003904	 -0.038154	 0.002431	 2.658170	 -1.415209	 0.241193	 -0.243225	 0.713753	 -0.604652	 0.256504	 1
1462068296.874	 11	 0.007086	 -0.043475	 0.003421	 2.656652	 -1.415305	 0.240104	 -0.243300	 0.713660	 -0.604643	 0.256713	 1
1462068296.884	 11	 0.010351	 -0.043453	 0.005580	 2.654650	 -1.415342	 0.238535	 -0.243347	 0.713582	 -0.604615	 0.256952	 1
1462068296.894	 11	 0.009302	 -0.042364	 0.008799	 2.652590	 -1.415353	 0.236912	 -0.243392	 0.713510	 -0.604577	 0.257195	 1
1462068296.904	 11	 0.006122	 -0.035988	 0.006755	 2.651103	 -1.415326	 0.235799	 -0.243443	 0.713463	 -0.604529	 0.257390	 1
1462068296.914	 11	 0.001873	 -0.031720	 0.006833	 2.650152	 -1.415252	 0.235176	 -0.243504	 0.713441	 -0.604466	 0.257544	 1
1462068296.924	 11	 -0.000225	 -0.023212	 0.005865	 2.649174	 -1.415182	 0.234453	 -0.243537	 0.713426	 -0.604414	 0.257677	 1
1462068296.934	 11	 0.000866	 -0.018954	 0.006963	 2.647721	 -1.415097	 0.233200	 -0.243525	 0.713418	 -0.604366	 0.257820	 1
1462068296.944	 11	 -0.000183	 -0.017864	 0.010181	 2.646525	 -1.414991	 0.232183	 -0.243518	 0.713423	 -0.604312	 0.257943	 1
1462068296.954	 11	 -0.000204	 -0.023175	 0.011199	 2.644783	 -1.414878	 0.230658	 -0.243494	 0.713420	 -0.604254	 0.258108	 1
1462068296.964	 11	 -0.000216	 -0.027414	 0.013293	 2.643163	 -1.414770	 0.229306	 -0.243495	 0.713410	 -0.604191	 0.258281	 1
1462068296.974	 11	 -0.002357	 -0.031640	 0.016469	 2.641916	 -1.414710	 0.228355	 -0.243529	 0.713384	 -0.604140	 0.258441	 1
1462068296.984	 11	 -0.001295	 -0.031650	 0.015394	 2.641110	 -1.414628	 0.227850	 -0.243587	 0.713368	 -0.604076	 0.258579	 1
1462068296.994	 11	 -0.002365	 -0.030599	 0.013280	 2.640846	 -1.414585	 0.227880	 -0.243675	 0.713344	 -0.604024	 0.258684	 1
1462068297.004	 11	 -0.005569	 -0.027429	 0.009073	 2.640843	 -1.414506	 0.228148	 -0.243767	 0.713337	 -0.603959	 0.258769	 1
1462068297.014	 11	 -0.007707	 -0.025318	 0.005913	 2.640884	 -1.414401	 0.228436	 -0.243852	 0.713341	 -0.603888	 0.258845	 1
1462068297.024	 11	 -0.007731	 -0.029581	 0.004807	 2.640713	 -1.414360	 0.228551	 -0.243942	 0.713318	 -0.603837	 0.258942	 1
1462068297.034	 11	 -0.007738	 -0.028540	 0.001619	 2.640599	 -1.414355	 0.228734	 -0.244041	 0.713283	 -0.603797	 0.259038	 1
1462068297.044	 11	 -0.007745	 -0.028556	 -0.000513	 2.640191	 -1.414371	 0.228624	 -0.244126	 0.713238	 -0.603767	 0.259150	 1
1462068297.054	 11	 -0.005517	 -0.027483	 0.000651	 2.639385	 -1.414347	 0.228094	 -0.244179	 0.713206	 -0.603729	 0.259278	 1
1462068297.064	 11	 0.000876	 -0.030686	 0.001633	 2.638322	 -1.414368	 0.227335	 -0.244231	 0.713154	 -0.603705	 0.259427	 1
1462068297.074	 11	 0.001932	 -0.032816	 0.001605	 2.637376	 -1.414311	 0.226715	 -0.244292	 0.713125	 -0.603649	 0.259580	 1
1462068297.084	 11	 0.000869	 -0.033862	 0.003737	 2.636179	 -1.414257	 0.225862	 -0.244346	 0.713092	 -0.603593	 0.259751	 1
1462068297.094	 11	 -0.002313	 -0.029598	 0.003806	 2.635207	 -1.414119	 0.225200	 -0.244395	 0.713091	 -0.603509	 0.259904	 1
1462068297.104	 11	 -0.002299	 -0.028519	 0.005948	 2.634002	 -1.414101	 0.224285	 -0.244431	 0.713052	 -0.603474	 0.260058	 1
1462068297.124	 12	 -0.002287	 -0.026392	 0.005970	 2.631321	 -1.414005	 0.222151	 -0.244473	 0.712995	 -0.603387	 0.260374	 1
1462068297.134	 12	 -0.003348	 -0.025326	 0.005991	 2.630148	 -1.413965	 0.221238	 -0.244499	 0.712967	 -0.603348	 0.260518	 1
1462068297.144	 12	 -0.003329	 -0.022127	 0.007087	 2.628935	 -1.413895	 0.220257	 -0.244511	 0.712951	 -0.603301	 0.260657	 1
1462068297.154	 12	 -0.002246	 -0.017884	 0.006052	 2.628160	 -1.413781	 0.219661	 -0.244525	 0.712960	 -0.603242	 0.260758	 1
1462068297.164	 12	 -0.003298	 -0.014690	 0.006092	 2.627392	 -1.413681	 0.219042	 -0.244531	 0.712967	 -0.603191	 0.260850	 1
1462068297.174	 12	 -0.005433	 -0.014683	 0.006111	 2.627180	 -1.413530	 0.218972	 -0.244560	 0.712997	 -0.603118	 0.260911	 1
1462068297.184	 12	 -0.006482	 -0.012537	 0.008272	 2.626794	 -1.413440	 0.218704	 -0.244576	 0.713008	 -0.603072	 0.260971	 1
1462068297.194	 12	 -0.007558	 -0.014662	 0.008261	 2.626141	 -1.413395	 0.218193	 -0.244587	 0.713000	 -0.603042	 0.261052	 1
1462068297.204	 12	 -0.006510	 -0.018920	 0.008213	 2.625546	 -1.413371	 0.217775	 -0.244616	 0.712982	 -0.603015	 0.261139	 1
1462068297.214	 12	 -0.002279	 -0.024274	 0.004927	 2.625310	 -1.413445	 0.217761	 -0.244687	 0.712929	 -0.603015	 0.261216	 1
1462068297.224	 12	 -0.003253	 -0.024254	 0.002943	 2.625159	 -1.413522	 0.217854	 -0.244770	 0.712873	 -0.603013	 0.261294	 1
1462068297.234	 12	 0.000944	 -0.035998	 -0.001467	 2.624708	 -1.413662	 0.217767	 -0.244884	 0.712779	 -0.603022	 0.261423	 1
1462068297.244	 12	 0.004162	 -0.030705	 -0.003578	 2.624695	 -1.413725	 0.218079	 -0.245004	 0.712719	 -0.603003	 0.261519	 1
1462068297.254	 12	 0.004192	 -0.024323	 -0.003519	 2.624744	 -1.413791	 0.218386	 -0.245102	 0.712666	 -0.602994	 0.261591	 1
1462068297.264	 12	 0.002083	 -0.017942	 -0.004506	 2.624699	 -1.413711	 0.218537	 -0.245165	 0.712668	 -0.602938	 0.261656	 1
1462068297.274	 12	 -0.000013	 -0.010482	 -0.003352	 2.624545	 -1.413622	 0.218514	 -0.245197	 0.712680	 -0.602889	 0.261708	 1
1462068297.284	 12	 -0.002098	 0.000161	 -0.003234	 2.624560	 -1.413448	 0.218560	 -0.245198	 0.712732	 -0.602820	 0.261724	 1
1462068297.294	 12	 -0.004190	 0.007628	 -0.001013	 2.624434	 -1.413226	 0.218379	 -0.245158	 0.712809	 -0.602745	 0.261724	 1
1462068297.304	 12	 -0.005253	 0.008695	 -0.000992	 2.624179	 -1.413073	 0.218042	 -0.245105	 0.712866	 -0.602701	 0.261719	 1
1462068297.314	 12	 -0.005244	 0.008710	 0.001141	 2.623714	 -1.412962	 0.217500	 -0.245045	 0.712908	 -0.602673	 0.261727	 1
1462068297.324	 12	 -0.007388	 0.006589	 0.001141	 2.623253	 -1.412904	 0.216980	 -0.244995	 0.712930	 -0.602663	 0.261737	 1
1462068297.334	 12	 -0.008440	 0.007671	 0.003293	 2.622317	 -1.412849	 0.215988	 -0.244920	 0.712947	 -0.602658	 0.261774	 1
1462068297.344	 12	 -0.006311	 0.006600	 0.003265	 2.621858	 -1.412769	 0.215471	 -0.244868	 0.712976	 -0.602639	 0.261785	 1
1462068297.354	 12	 -0.006310	 0.006600	 0.003266	 2.621285	 -1.412735	 0.214839	 -0.244814	 0.712989	 -0.602639	 0.261800	 1
1462068297.364	 12	 -0.004084	 0.006659	 0.005442	 2.620923	 -1.412665	 0.214418	 -0.244768	 0.713016	 -0.602624	 0.261805	 1
1462068297.374	 12	 -0.003030	 0.006633	 0.002235	 2.620854	 -1.412636	 0.214281	 -0.244738	 0.713033	 -0.602622	 0.261790	 1
1462068297.384	 12	 -0.000890	 0.007690	 0.002227	 2.620573	 -1.412618	 0.213925	 -0.244695	 0.713045	 -0.602627	 0.261784	 1
1462068297.394	 12	 -0.001962	 0.006630	 0.002226	 2.620458	 -1.412620	 0.213743	 -0.244665	 0.713052	 -0.602638	 0.261770	 1
1462068297.404	 12	 -0.000908	 0.006603	 -0.000981	 2.620681	 -1.412610	 0.213905	 -0.244655	 0.713065	 -0.602640	 0.261740	 1
1462068297.414	 12	 -0.004099	 0.008740	 -0.000933	 2.620843	 -1.412616	 0.213982	 -0.244634	 0.713074	 -0.602652	 0.261705	 1
1462068297.424	 12	 -0.006223	 0.009818	 0.000161	 2.620890	 -1.412617	 0.213947	 -0.244607	 0.713084	 -0.602663	 0.261677	 1
1462068297.434	 12	 -0.005151	 0.009822	 0.001218	 2.620689	 -1.412624	 0.213648	 -0.244562	 0.713092	 -0.602680	 0.261659	 1
1462068297.444	 12	 -0.006232	 0.007690	 0.000142	 2.620901	 -1.412602	 0.213771	 -0.244540	 0.713112	 -0.602682	 0.261621	 1
1462068297.454	 12	 -0.006272	 -0.000819	 0.000063	 2.620799	 -1.412607	 0.213659	 -0.244531	 0.713111	 -0.602686	 0.261623	 1
1462068297.464	 12	 -0.006282	 -0.004003	 0.001100	 2.620327	 -1.412626	 0.213230	 -0.244522	 0.713096	 -0.602691	 0.261662	 1
1462068297.474	 12	 -0.007325	 -0.000793	 0.003270	 2.620244	 -1.412548	 0.213162	 -0.244518	 0.713118	 -0.602661	 0.261674	 1
1462068297.484	 12	 -0.005195	 -0.001864	 0.003242	 2.620012	 -1.412529	 0.212947	 -0.244509	 0.713120	 -0.602654	 0.261693	 1
1462068297.494	 12	 -0.000939	 -0.001900	 0.000007	 2.620080	 -1.412557	 0.213030	 -0.244520	 0.713110	 -0.602662	 0.261692	 1
1462068297.504	 12	 -0.003097	 -0.005100	 -0.002135	 2.619943	 -1.412566	 0.212942	 -0.244531	 0.713100	 -0.602660	 0.261715	 1
1462068297.514	 12	 -0.004163	 -0.004041	 -0.003182	 2.620296	 -1.412560	 0.213343	 -0.244567	 0.713099	 -0.602648	 0.261710	 1
1462068297.524	 12	 -0.002998	 -0.001824	 -0.004108	 2.620703	 -1.412571	 0.213782	 -0.244602	 0.713095	 -0.602645	 0.261696	 1
1462068297.534	 12	 0.000209	 -0.000770	 -0.004126	 2.620653	 -1.412579	 0.213747	 -0.244605	 0.713090	 -0.602646	 0.261703	 1
1462068297.544	 12	 0.003428	 0.000307	 -0.000946	 2.620120	 -1.412598	 0.213217	 -0.244578	 0.713079	 -0.602657	 0.261733	 1
1462068297.554	 12	 0.006599	 -0.007141	 0.000024	 2.619369	 -1.412602	 0.212515	 -0.244554	 0.713065	 -0.602659	 0.261789	 1
1462068297.564	 12	 0.006592	 -0.010317	 0.002127	 2.618509	 -1.412595	 0.211755	 -0.244542	 0.713048	 -0.602651	 0.261867	 1
1462068297.574	 12	 0.005531	 -0.007138	 0.000035	 2.617905	 -1.412593	 0.211239	 -0.244540	 0.713032	 -0.602644	 0.261927	 1
1462068297.584	 12	 0.003422	 -0.000758	 -0.000953	 2.617689	 -1.412571	 0.211052	 -0.244537	 0.713034	 -0.602633	 0.261949	 1
1462068297.594	 12	 -0.001867	 0.010943	 -0.002929	 2.617768	 -1.412506	 0.211052	 -0.244509	 0.713065	 -0.602619	 0.261923	 1
1462068297.604	 12	 -0.003985	 0.015196	 -0.003936	 2.617993	 -1.412416	 0.211132	 -0.244464	 0.713114	 -0.602602	 0.261871	 1
1462068297.614	 12	 -0.003959	 0.016298	 0.001404	 2.617561	 -1.412389	 0.210554	 -0.244386	 0.713137	 -0.602615	 0.261852	 1
1462068297.624	 12	 -0.002936	 0.007778	 0.000251	 2.617137	 -1.412322	 0.210033	 -0.244323	 0.713167	 -0.602606	 0.261849	 1
1462068297.634	 12	 -0.001872	 0.003551	 0.004467	 2.616551	 -1.412235	 0.209406	 -0.244271	 0.713195	 -0.602584	 0.261874	 1
1462068297.644	 12	 -0.004017	 0.000374	 0.005522	 2.615947	 -1.412135	 0.208786	 -0.244225	 0.713223	 -0.602554	 0.261907	 1
1462068297.654	 12	 -0.005094	 -0.001751	 0.005512	 2.615385	 -1.412076	 0.208240	 -0.244196	 0.713236	 -0.602535	 0.261945	 1
1462068297.664	 12	 -0.002969	 -0.002828	 0.004417	 2.615475	 -1.412095	 0.208346	 -0.244208	 0.713228	 -0.602539	 0.261944	 1
1462068297.674	 12	 -0.004048	 -0.002848	 0.001229	 2.615590	 -1.412157	 0.208483	 -0.244226	 0.713206	 -0.602559	 0.261942	 1
1462068297.684	 12	 -0.002990	 -0.003923	 0.000143	 2.616032	 -1.412222	 0.208960	 -0.244267	 0.713185	 -0.602574	 0.261924	 1
1462068297.694	 12	 0.000293	 -0.003808	 -0.001903	 2.616603	 -1.412267	 0.209569	 -0.244315	 0.713171	 -0.602581	 0.261902	 1
1462068297.704	 12	 -0.001846	 -0.003810	 -0.002951	 2.617060	 -1.412254	 0.210056	 -0.244351	 0.713176	 -0.602568	 0.261887	 1
1462068297.714	 12	 -0.003996	 -0.006994	 -0.002962	 2.617714	 -1.412218	 0.210767	 -0.244405	 0.713186	 -0.602541	 0.261870	 1
1462068297.724	 12	 -0.007222	 -0.010191	 -0.005095	 2.618331	 -1.412188	 0.211478	 -0.244470	 0.713190	 -0.602512	 0.261865	 1
1462068297.734	 12	 -0.006159	 -0.011258	 -0.005115	 2.618545	 -1.412200	 0.211810	 -0.244525	 0.713173	 -0.602500	 0.261888	 1
1462068297.744	 12	 -0.004035	 -0.013392	 -0.005152	 2.618411	 -1.412206	 0.211805	 -0.244564	 0.713154	 -0.602486	 0.261934	 1
1462068297.754	 12	 -0.001930	 -0.019781	 -0.005230	 2.617991	 -1.412251	 0.211583	 -0.244614	 0.713112	 -0.602481	 0.262015	 1
1462068297.764	 12	 -0.000860	 -0.021888	 -0.002060	 2.617307	 -1.412234	 0.211124	 -0.244655	 0.713084	 -0.602451	 0.262121	 1
1462068297.774	 12	 -0.002970	 -0.017620	 -0.000935	 2.616574	 -1.412105	 0.210587	 -0.244676	 0.713095	 -0.602383	 0.262227	 1
1462068297.784	 12	 -0.004009	 -0.012291	 0.000191	 2.616158	 -1.411963	 0.210317	 -0.244696	 0.713119	 -0.602315	 0.262300	 1
1462068297.794	 12	 -0.003972	 -0.002733	 -0.001852	 2.615940	 -1.411896	 0.210153	 -0.244699	 0.713132	 -0.602285	 0.262332	 1
1462068297.804	 12	 -0.008195	 0.005796	 -0.000669	 2.615932	 -1.411838	 0.210115	 -0.244684	 0.713155	 -0.602267	 0.262326	 1
1462068297.814	 12	 -0.008174	 0.011107	 -0.001686	 2.615843	 -1.411827	 0.209931	 -0.244645	 0.713169	 -0.602276	 0.262303	 1
1462068297.824	 12	 -0.004976	 0.010033	 -0.001723	 2.615495	 -1.411842	 0.209485	 -0.244591	 0.713173	 -0.602298	 0.262292	 1
1462068297.834	 12	 -0.001797	 0.002601	 0.001378	 2.615096	 -1.411896	 0.209046	 -0.244558	 0.713157	 -0.602326	 0.262299	 1
1462068297.844	 12	 0.001446	 -0.004705	 0.000292	 2.614597	 -1.411968	 0.208589	 -0.244551	 0.713124	 -0.602353	 0.262336	 1
1462068297.854	 12	 0.002489	 -0.008971	 -0.000822	 2.614260	 -1.411999	 0.208339	 -0.244565	 0.713100	 -0.602356	 0.262380	 1
1462068297.864	 12	 0.001423	 -0.006856	 -0.002925	 2.614440	 -1.411999	 0.208596	 -0.244602	 0.713093	 -0.602344	 0.262393	 1
1462068297.874	 12	 -0.001766	 -0.000495	 -0.007101	 2.614950	 -1.411966	 0.209123	 -0.244634	 0.713106	 -0.602325	 0.262371	 1
1462068297.884	 12	 -0.001745	 0.004816	 -0.008118	 2.615859	 -1.412026	 0.210000	 -0.244677	 0.713098	 -0.602343	 0.262309	 1
1462068297.894	 12	 -0.002813	 0.003763	 -0.007054	 2.616515	 -1.412081	 0.210619	 -0.244704	 0.713091	 -0.602363	 0.262259	 1
1462068297.904	 12	 -0.002832	 0.000564	 -0.008149	 2.616771	 -1.412150	 0.210868	 -0.244720	 0.713072	 -0.602388	 0.262239	 1
1462068297.914	 12	 -0.001783	 -0.002638	 -0.009253	 2.616954	 -1.412241	 0.211087	 -0.244749	 0.713040	 -0.602416	 0.262236	 1
1462068297.924	 12	 -0.003923	 -0.003695	 -0.009245	 2.617778	 -1.412281	 0.211948	 -0.244810	 0.713030	 -0.602418	 0.262200	 1
1462068297.934	 12	 -0.004994	 -0.003700	 -0.010302	 2.618569	 -1.412316	 0.212793	 -0.244876	 0.713019	 -0.602418	 0.262171	 1
1462068297.944	 12	 -0.003926	 -0.003703	 -0.010311	 2.618779	 -1.412350	 0.213059	 -0.244910	 0.713003	 -0.602421	 0.262174	 1
1462068297.954	 12	 -0.002840	 -0.000508	 -0.009224	 2.619049	 -1.412362	 0.213357	 -0.244935	 0.712998	 -0.602420	 0.262167	 1
1462068297.974	 12	 -0.003869	 0.004837	 -0.005966	 2.618899	 -1.412287	 0.213191	 -0.244916	 0.713023	 -0.602395	 0.262174	 1
1462068297.964	 12	 -0.001754	 0.001632	 -0.007081	 2.619049	 -1.412355	 0.213365	 -0.244937	 0.712999	 -0.602416	 0.262170	 1
1462068297.984	 12	 -0.004943	 0.001664	 -0.003854	 2.618495	 -1.412192	 0.212779	 -0.244885	 0.713051	 -0.602364	 0.262199	 1
1462068297.994	 12	 -0.003868	 0.000620	 -0.000674	 2.617987	 -1.412127	 0.212282	 -0.244857	 0.713066	 -0.602342	 0.262233	 1
1462068298.004	 12	 -0.004847	 0.000826	 0.001546	 2.617455	 -1.412069	 0.211748	 -0.244822	 0.713080	 -0.602326	 0.262264	 1
1462068298.014	 12	 -0.001640	 0.002936	 0.000472	 2.617157	 -1.412031	 0.211426	 -0.244795	 0.713093	 -0.602317	 0.262275	 1
1462068298.024	 12	 -0.003788	 0.000807	 -0.000594	 2.617062	 -1.412047	 0.211317	 -0.244786	 0.713089	 -0.602326	 0.262275	 1
1462068298.034	 12	 -0.001673	 -0.002398	 -0.001709	 2.617224	 -1.412072	 0.211494	 -0.244802	 0.713080	 -0.602332	 0.262270	 1
1462068298.044	 12	 0.000449	 -0.002428	 -0.004925	 2.617198	 -1.412173	 0.211493	 -0.244816	 0.713044	 -0.602367	 0.262274	 1
1462068298.054	 12	 0.003661	 0.000746	 -0.005989	 2.617335	 -1.412226	 0.211638	 -0.244830	 0.713027	 -0.602384	 0.262267	 1
1462068298.064	 12	 0.003676	 0.002880	 -0.004903	 2.617205	 -1.412342	 0.211485	 -0.244822	 0.712992	 -0.602432	 0.262262	 1
1462068298.074	 12	 0.004721	 0.001783	 -0.009185	 2.617083	 -1.412401	 0.211344	 -0.244812	 0.712974	 -0.602457	 0.262260	 1
1462068298.084	 12	 0.004733	 0.000750	 -0.004931	 2.616750	 -1.412417	 0.211007	 -0.244794	 0.712966	 -0.602467	 0.262277	 1
1462068298.094	 12	 0.004727	 -0.001370	 -0.003884	 2.616516	 -1.412449	 0.210785	 -0.244787	 0.712953	 -0.602479	 0.262292	 1
1462068298.104	 12	 0.003650	 -0.003494	 -0.003894	 2.616160	 -1.412487	 0.210465	 -0.244782	 0.712933	 -0.602492	 0.262320	 1
1462068298.114	 12	 0.002579	 -0.002443	 -0.006006	 2.616347	 -1.412517	 0.210678	 -0.244804	 0.712921	 -0.602498	 0.262317	 1
1462068298.124	 12	 0.000440	 -0.003500	 -0.005997	 2.616479	 -1.412485	 0.210845	 -0.244822	 0.712929	 -0.602480	 0.262321	 1
1462068298.134	 12	 0.000436	 -0.002452	 -0.008118	 2.616669	 -1.412500	 0.211066	 -0.244844	 0.712922	 -0.602480	 0.262320	 1
1462068298.144	 12	 -0.001698	 -0.002446	 -0.008099	 2.616758	 -1.412483	 0.211195	 -0.244863	 0.712923	 -0.602468	 0.262328	 1
1462068298.154	 12	 -0.001679	 0.000753	 -0.007003	 2.616792	 -1.412494	 0.211248	 -0.244872	 0.712917	 -0.602469	 0.262331	 1
1462068298.164	 12	 -0.005893	 0.010354	 -0.004745	 2.616573	 -1.412423	 0.210967	 -0.244833	 0.712946	 -0.602453	 0.262327	 1
1462068298.174	 12	 -0.006859	 0.014775	 -0.003562	 2.616062	 -1.412309	 0.210332	 -0.244753	 0.712994	 -0.602431	 0.262323	 1
1462068298.184	 12	 -0.007911	 0.017969	 -0.003522	 2.615922	 -1.412212	 0.210030	 -0.244681	 0.713043	 -0.602417	 0.262287	 1
1462068298.194	 12	 -0.007912	 0.015857	 -0.001409	 2.616044	 -1.412110	 0.209999	 -0.244627	 0.713096	 -0.602398	 0.262239	 1
1462068298.204	 12	 -0.006835	 0.017981	 -0.001399	 2.616126	 -1.412075	 0.209915	 -0.244570	 0.713128	 -0.602405	 0.262186	 1
1462068298.214	 12	 -0.004694	 0.020094	 -0.002463	 2.616000	 -1.412088	 0.209604	 -0.244498	 0.713145	 -0.602436	 0.262136	 1
1462068298.224	 12	 -0.004684	 0.021166	 -0.001387	 2.615942	 -1.412161	 0.209350	 -0.244429	 0.713146	 -0.602489	 0.262077	 1
1462068298.234	 12	 -0.003625	 0.020091	 -0.002473	 2.616440	 -1.412239	 0.209645	 -0.244390	 0.713150	 -0.602541	 0.261985	 1
1462068298.254	 13	 -0.000473	 0.008389	 -0.001544	 2.616855	 -1.412483	 0.209826	 -0.244345	 0.713103	 -0.602659	 0.261880	 1
1462068298.264	 13	 -0.000472	 0.009444	 -0.002600	 2.616781	 -1.412627	 0.209700	 -0.244332	 0.713063	 -0.602720	 0.261862	 1
1462068298.274	 13	 0.004844	 0.005174	 -0.002686	 2.616725	 -1.412757	 0.209584	 -0.244316	 0.713027	 -0.602777	 0.261841	 1
1462068298.284	 13	 0.005872	 -0.002283	 -0.003830	 2.616558	 -1.412870	 0.209420	 -0.244315	 0.712989	 -0.602821	 0.261847	 1
1462068298.294	 13	 0.005858	 -0.004418	 -0.004916	 2.616730	 -1.412953	 0.209626	 -0.244342	 0.712960	 -0.602846	 0.261843	 1
1462068298.304	 13	 0.002675	 -0.001210	 -0.003792	 2.616811	 -1.412952	 0.209731	 -0.244355	 0.712958	 -0.602842	 0.261846	 1
1462068298.314	 13	 -0.001563	 0.006241	 -0.004752	 2.617326	 -1.412938	 0.210196	 -0.244365	 0.712973	 -0.602839	 0.261803	 1
1462068298.324	 13	 -0.002522	 0.013875	 -0.003555	 2.617683	 -1.412923	 0.210436	 -0.244342	 0.712995	 -0.602845	 0.261749	 1
1462068298.334	 13	 -0.003572	 0.019181	 -0.005628	 2.617667	 -1.412973	 0.210250	 -0.244284	 0.713000	 -0.602886	 0.261697	 1
1462068298.344	 13	 -0.000371	 0.018116	 -0.004600	 2.617794	 -1.412998	 0.210200	 -0.244229	 0.713015	 -0.602918	 0.261635	 1
1462068298.354	 13	 -0.000377	 0.015996	 -0.003553	 2.617729	 -1.413033	 0.209982	 -0.244173	 0.713021	 -0.602951	 0.261591	 1
1462068298.364	 13	 0.000687	 0.011769	 0.000662	 2.617586	 -1.413019	 0.209720	 -0.244122	 0.713039	 -0.602963	 0.261563	 1
1462068298.374	 13	 0.002818	 0.007539	 0.004867	 2.617269	 -1.413017	 0.209310	 -0.244071	 0.713049	 -0.602977	 0.261553	 1
1462068298.384	 13	 0.001738	 0.006463	 0.002735	 2.617117	 -1.413064	 0.209084	 -0.244040	 0.713041	 -0.603005	 0.261537	 1
1462068298.394	 13	 -0.000387	 0.007540	 0.003828	 2.617345	 -1.413133	 0.209241	 -0.244031	 0.713029	 -0.603039	 0.261500	 1
1462068298.404	 13	 -0.002525	 0.007539	 0.002780	 2.617745	 -1.413187	 0.209564	 -0.244030	 0.713025	 -0.603065	 0.261452	 1
1462068298.414	 13	 -0.005743	 0.007518	 -0.001456	 2.618484	 -1.413242	 0.210219	 -0.244044	 0.713024	 -0.603090	 0.261384	 1
1462068298.424	 13	 -0.005748	 0.006454	 -0.001466	 2.619106	 -1.413285	 0.210771	 -0.244056	 0.713024	 -0.603110	 0.261327	 1
1462068298.434	 13	 -0.002571	 0.002182	 -0.002600	 2.619411	 -1.413312	 0.211046	 -0.244064	 0.713022	 -0.603122	 0.261300	 1
1462068298.444	 13	 -0.004730	 -0.002074	 -0.003687	 2.620253	 -1.413326	 0.211896	 -0.244114	 0.713023	 -0.603119	 0.261255	 1
1462068298.454	 13	 -0.006892	 -0.005282	 -0.006896	 2.621291	 -1.413359	 0.212981	 -0.244189	 0.713016	 -0.603116	 0.261211	 1
1462068298.474	 14	 -0.006928	 -0.009567	 -0.011200	 2.622751	 -1.413507	 0.214634	 -0.244348	 0.712957	 -0.603134	 0.261182	 1
1462068298.484	 14	 -0.004740	 -0.010477	 -0.013313	 2.623372	 -1.413559	 0.215367	 -0.244425	 0.712931	 -0.603134	 0.261180	 1
1462068298.494	 14	 -0.001550	 -0.014726	 -0.011248	 2.623288	 -1.413659	 0.215426	 -0.244478	 0.712881	 -0.603153	 0.261223	 1
1462068298.504	 14	 0.002698	 -0.018994	 -0.011324	 2.622754	 -1.413691	 0.215084	 -0.244519	 0.712843	 -0.603144	 0.261309	 1
1462068298.514	 14	 0.004841	 -0.018985	 -0.009210	 2.622385	 -1.413756	 0.214918	 -0.244575	 0.712794	 -0.603145	 0.261387	 1
1462068298.534	 15	 0.003824	 -0.009402	 -0.008045	 2.621825	 -1.413853	 0.214643	 -0.244652	 0.712723	 -0.603149	 0.261500	 1
1462068298.544	 15	 0.001734	 -0.000878	 -0.006881	 2.621541	 -1.413829	 0.214395	 -0.244648	 0.712724	 -0.603138	 0.261527	 1
1462068298.554	 15	 -0.004618	 0.010833	 -0.007781	 2.621664	 -1.413739	 0.214448	 -0.244624	 0.712763	 -0.603112	 0.261503	 1
1462068298.564	 15	 -0.006724	 0.014054	 -0.004535	 2.621520	 -1.413636	 0.214169	 -0.244562	 0.712811	 -0.603092	 0.261475	 1
1462068298.574	 15	 -0.005679	 0.006628	 -0.001414	 2.620928	 -1.413533	 0.213501	 -0.244495	 0.712849	 -0.603069	 0.261489	 1
1462068298.594	 16	 -0.002522	 -0.007171	 0.003760	 2.619958	 -1.413421	 0.212593	 -0.244457	 0.712869	 -0.603027	 0.261566	 1
1462068298.604	 16	 -0.004675	 -0.009308	 0.001627	 2.620180	 -1.413402	 0.212895	 -0.244496	 0.712867	 -0.603008	 0.261579	 1
1462068298.614	 16	 -0.007862	 -0.006107	 0.001683	 2.620949	 -1.413399	 0.213721	 -0.244559	 0.712868	 -0.602993	 0.261554	 1
1462068298.624	 16	 -0.004682	 -0.007211	 -0.002619	 2.621928	 -1.413427	 0.214762	 -0.244636	 0.712859	 -0.602987	 0.261517	 1
1462068298.634	 16	 -0.003633	 -0.008301	 -0.005837	 2.622996	 -1.413460	 0.215899	 -0.244722	 0.712849	 -0.602981	 0.261478	 1
1462068298.644	 16	 -0.000466	 -0.013644	 -0.008046	 2.623851	 -1.413551	 0.216873	 -0.244817	 0.712813	 -0.602992	 0.261463	 1
1462068298.654	 16	 0.002696	 -0.021107	 -0.009209	 2.624351	 -1.413669	 0.217570	 -0.244922	 0.712755	 -0.603007	 0.261490	 1
1462068298.664	 16	 0.007036	 -0.020981	 -0.009198	 2.624322	 -1.413786	 0.217756	 -0.245004	 0.712690	 -0.603023	 0.261552	 1
1462068298.674	 16	 0.008108	 -0.019921	 -0.009196	 2.623916	 -1.413818	 0.217576	 -0.245065	 0.712649	 -0.603009	 0.261641	 1
1462068298.684	 16	 0.003904	 -0.007137	 -0.007974	 2.623791	 -1.413794	 0.217542	 -0.245089	 0.712644	 -0.602989	 0.261676	 1
1462068298.694	 16	 0.004995	 -0.002878	 -0.006877	 2.623193	 -1.413710	 0.217000	 -0.245071	 0.712660	 -0.602954	 0.261730	 1
1462068298.704	 16	 0.003959	 0.000347	 -0.002573	 2.622172	 -1.413613	 0.215996	 -0.245015	 0.712680	 -0.602925	 0.261795	 1
1462068298.714	 16	 0.000776	 0.001443	 0.000664	 2.621138	 -1.413503	 0.214965	 -0.244952	 0.712707	 -0.602892	 0.261857	 1
1462068298.724	 16	 -0.000264	 0.003604	 0.004957	 2.619936	 -1.413384	 0.213737	 -0.244869	 0.712738	 -0.602861	 0.261921	 1
1462068298.734	 16	 0.000796	 0.000425	 0.007051	 2.618711	 -1.413244	 0.212508	 -0.244791	 0.712773	 -0.602820	 0.261993	 1
1462068298.744	 16	 -0.000262	 0.001500	 0.008137	 2.618144	 -1.413135	 0.211923	 -0.244747	 0.712806	 -0.602786	 0.262023	 1
1462068298.754	 16	 -0.003439	 0.006828	 0.008214	 2.617499	 -1.413008	 0.211226	 -0.244684	 0.712847	 -0.602751	 0.262049	 1
1462068298.764	 16	 -0.004500	 0.008950	 0.007178	 2.617238	 -1.412916	 0.210877	 -0.244633	 0.712886	 -0.602730	 0.262041	 1
1462068298.774	 16	 -0.006629	 0.011076	 0.006150	 2.617498	 -1.412849	 0.211027	 -0.244603	 0.712923	 -0.602717	 0.261996	 1
1462068298.784	 16	 -0.004495	 0.011070	 0.006131	 2.617743	 -1.412801	 0.211156	 -0.244572	 0.712955	 -0.602712	 0.261950	 1
1462068298.794	 16	 -0.004527	 0.007848	 0.001838	 2.617778	 -1.412793	 0.211099	 -0.244541	 0.712969	 -0.602721	 0.261921	 1
1462068298.804	 16	 -0.000230	 0.004759	 -0.000324	 2.617916	 -1.412894	 0.211179	 -0.244534	 0.712945	 -0.602765	 0.261891	 1
1462068298.814	 16	 0.001867	 -0.000589	 -0.003590	 2.618147	 -1.413057	 0.211405	 -0.244556	 0.712895	 -0.602825	 0.261870	 1
1462068298.824	 16	 0.003978	 -0.003802	 -0.005770	 2.618582	 -1.413217	 0.211870	 -0.244601	 0.712843	 -0.602877	 0.261848	 1
1462068298.834	 16	 0.006125	 0.001487	 -0.008937	 2.619279	 -1.413383	 0.212566	 -0.244650	 0.712796	 -0.602933	 0.261802	 1
1462068298.844	 16	 0.008254	 0.000417	 -0.008966	 2.619727	 -1.413583	 0.213009	 -0.244685	 0.712736	 -0.603005	 0.261767	 1
1462068298.854	 16	 0.010393	 0.000418	 -0.007920	 2.620202	 -1.413797	 0.213479	 -0.244723	 0.712671	 -0.603082	 0.261730	 1
1462068298.864	 16	 0.007224	 0.003650	 -0.003599	 2.619733	 -1.413898	 0.212984	 -0.244695	 0.712638	 -0.603127	 0.261743	 1
1462068298.874	 16	 0.007198	 -0.002725	 -0.002592	 2.619210	 -1.413978	 0.212477	 -0.244677	 0.712606	 -0.603159	 0.261773	 1
1462068298.884	 16	 0.006134	 -0.004826	 0.000596	 2.618347	 -1.414023	 0.211674	 -0.244654	 0.712577	 -0.603176	 0.261836	 1
1462068298.894	 16	 0.002940	 -0.006913	 0.004869	 2.617033	 -1.413971	 0.210424	 -0.244602	 0.712574	 -0.603159	 0.261930	 1
1462068298.904	 16	 0.005082	 -0.007960	 0.008038	 2.615393	 -1.413971	 0.208874	 -0.244544	 0.712549	 -0.603162	 0.262047	 1
1462068298.914	 16	 0.001915	 -0.002617	 0.010248	 2.613812	 -1.413919	 0.207328	 -0.244466	 0.712547	 -0.603152	 0.262146	 1
1462068298.924	 16	 -0.000209	 0.000573	 0.009231	 2.613259	 -1.413869	 0.206769	 -0.244431	 0.712559	 -0.603138	 0.262177	 1
1462068298.934	 16	 -0.002332	 0.003762	 0.008213	 2.612963	 -1.413839	 0.206434	 -0.244399	 0.712571	 -0.603135	 0.262183	 1
1462068298.944	 16	 -0.000252	 -0.000561	 -0.000372	 2.613224	 -1.413926	 0.206690	 -0.244417	 0.712546	 -0.603166	 0.262163	 1
1462068298.954	 16	 -0.000239	 0.004734	 -0.003521	 2.613896	 -1.413992	 0.207322	 -0.244444	 0.712536	 -0.603190	 0.262111	 1
1462068298.964	 16	 -0.000164	 0.010138	 -0.004495	 2.614790	 -1.414003	 0.208134	 -0.244464	 0.712550	 -0.603197	 0.262037	 1
1462068298.974	 16	 -0.001216	 0.014389	 -0.005513	 2.615963	 -1.414028	 0.209163	 -0.244479	 0.712570	 -0.603215	 0.261928	 1
1462068298.984	 16	 -0.003343	 0.017571	 -0.007597	 2.617067	 -1.414046	 0.210103	 -0.244482	 0.712593	 -0.603233	 0.261818	 1
1462068298.994	 16	 -0.000138	 0.017569	 -0.006559	 2.617769	 -1.414100	 0.210633	 -0.244463	 0.712603	 -0.603270	 0.261725	 1
1462068299.004	 16	 0.003038	 0.011185	 -0.005581	 2.618080	 -1.414194	 0.210825	 -0.244443	 0.712590	 -0.603318	 0.261668	 1
1462068299.014	 16	 0.009405	 0.002664	 -0.004650	 2.617919	 -1.414361	 0.210620	 -0.244430	 0.712540	 -0.603388	 0.261656	 1
1462068299.024	 16	 0.010428	 -0.005857	 -0.005803	 2.617459	 -1.414489	 0.210199	 -0.244426	 0.712491	 -0.603434	 0.261687	 1
1462068299.034	 16	 0.011476	 -0.009059	 -0.006908	 2.616899	 -1.414654	 0.209729	 -0.244439	 0.712421	 -0.603489	 0.261737	 1
1462068299.044	 16	 0.011491	 -0.004812	 -0.007934	 2.616879	 -1.414711	 0.209769	 -0.244463	 0.712396	 -0.603503	 0.261754	 1
1462068299.054	 16	 0.008304	 -0.001611	 -0.007876	 2.616758	 -1.414703	 0.209678	 -0.244467	 0.712393	 -0.603497	 0.261770	 1
1462068299.064	 16	 0.004059	 0.002664	 -0.006732	 2.616743	 -1.414658	 0.209658	 -0.244461	 0.712408	 -0.603481	 0.261771	 1
1462068299.074	 16	 0.001954	 0.007996	 -0.005598	 2.616486	 -1.414638	 0.209346	 -0.244426	 0.712419	 -0.603483	 0.261769	 1
1462068299.084	 16	 0.003051	 0.013319	 -0.004491	 2.616029	 -1.414598	 0.208778	 -0.244359	 0.712442	 -0.603486	 0.261763	 1
1462068299.094	 16	 0.003065	 0.014398	 -0.002349	 2.615533	 -1.414571	 0.208147	 -0.244282	 0.712463	 -0.603498	 0.261750	 1
1462068299.104	 16	 0.000926	 0.008068	 0.004006	 2.614737	 -1.414546	 0.207255	 -0.244203	 0.712475	 -0.603509	 0.261765	 1
1462068299.114	 16	 -0.000138	 0.007023	 0.006138	 2.613869	 -1.414486	 0.206321	 -0.244128	 0.712495	 -0.603502	 0.261796	 1
1462068299.124	 16	 -0.002298	 0.000655	 0.007164	 2.613131	 -1.414414	 0.205566	 -0.244077	 0.712514	 -0.603484	 0.261834	 1
1462068299.134	 16	 -0.004387	 -0.003492	 0.010384	 2.612764	 -1.414389	 0.205218	 -0.244062	 0.712516	 -0.603476	 0.261861	 1
1462068299.144	 16	 -0.007629	 -0.011992	 0.010333	 2.612331	 -1.414318	 0.204873	 -0.244065	 0.712525	 -0.603441	 0.261915	 1
1462068299.154	 16	 -0.004471	 -0.019463	 0.008104	 2.612123	 -1.414288	 0.204837	 -0.244113	 0.712512	 -0.603409	 0.261979	 1
1462068299.164	 16	 -0.007686	 -0.025804	 0.012336	 2.611880	 -1.414191	 0.204806	 -0.244169	 0.712515	 -0.603348	 0.262061	 1
1462068299.174	 16	 -0.006643	 -0.030070	 0.011221	 2.611073	 -1.414154	 0.204306	 -0.244232	 0.712482	 -0.603301	 0.262199	 1
1462068299.184	 16	 -0.006621	 -0.022647	 0.008092	 2.611132	 -1.414073	 0.204601	 -0.244314	 0.712480	 -0.603239	 0.262271	 1
1462068299.194	 16	 -0.008786	 -0.023751	 0.001706	 2.611420	 -1.414006	 0.205115	 -0.244405	 0.712476	 -0.603182	 0.262327	 1
1462068299.204	 16	 -0.007732	 -0.024833	 -0.000446	 2.611734	 -1.414046	 0.205681	 -0.244515	 0.712435	 -0.603161	 0.262384	 1
1462068299.214	 16	 -0.001300	 -0.015310	 -0.004676	 2.611560	 -1.414105	 0.205688	 -0.244574	 0.712393	 -0.603161	 0.262445	 1
1462068299.224	 16	 0.001933	 -0.006826	 -0.006757	 2.611668	 -1.414201	 0.205887	 -0.244619	 0.712352	 -0.603184	 0.262462	 1
1462068299.234	 16	 0.001952	 0.000588	 -0.010951	 2.611697	 -1.414268	 0.205938	 -0.244632	 0.712328	 -0.603206	 0.262464	 1
1462068299.244	 16	 0.003049	 0.005911	 -0.009844	 2.611816	 -1.414281	 0.206020	 -0.244627	 0.712329	 -0.603214	 0.262446	 1
1462068299.254	 16	 0.002003	 0.007009	 -0.005561	 2.611256	 -1.414217	 0.205404	 -0.244572	 0.712351	 -0.603203	 0.262463	 1
1462068299.264	 16	 -0.000133	 0.003847	 -0.002373	 2.610295	 -1.414139	 0.204410	 -0.244502	 0.712372	 -0.603187	 0.262509	 1
1462068299.274	 16	 0.001981	 -0.000414	 -0.002430	 2.609645	 -1.414161	 0.203763	 -0.244470	 0.712359	 -0.603200	 0.262544	 1
1462068299.284	 16	 0.003055	 0.002758	 -0.004541	 2.609451	 -1.414197	 0.203552	 -0.244455	 0.712347	 -0.603218	 0.262548	 1
1462068299.294	 16	 0.002099	 0.016645	 -0.005424	 2.609496	 -1.414295	 0.203480	 -0.244423	 0.712331	 -0.603269	 0.262505	 1
1462068299.304	 16	 -0.006294	 0.045405	 -0.002951	 2.609996	 -1.414116	 0.203607	 -0.244305	 0.712438	 -0.603247	 0.262374	 1
1462068299.314	 16	 -0.015870	 0.050760	 -0.001751	 2.610825	 -1.413808	 0.203938	 -0.244152	 0.712606	 -0.603189	 0.262193	 1
1462068299.324	 16	 -0.016983	 0.041190	 -0.001830	 2.611753	 -1.413595	 0.204436	 -0.244035	 0.712735	 -0.603158	 0.262023	 1
1462068299.334	 16	 -0.011791	 0.013495	 -0.005331	 2.612333	 -1.413561	 0.204828	 -0.243998	 0.712774	 -0.603164	 0.261936	 1
1462068299.344	 16	 0.003084	 0.004895	 -0.011935	 2.612527	 -1.413807	 0.204997	 -0.244016	 0.712700	 -0.603258	 0.261906	 1
1462068299.354	 16	 0.014870	 0.022872	 -0.021463	 2.613557	 -1.414082	 0.205845	 -0.244026	 0.712643	 -0.603375	 0.261782	 1
1462068299.364	 16	 0.010586	 0.024966	 -0.027801	 2.615551	 -1.414396	 0.207590	 -0.244067	 0.712589	 -0.603508	 0.261584	 1
1462068299.374	 16	 0.011651	 0.027067	 -0.030988	 2.616899	 -1.414728	 0.208697	 -0.244076	 0.712524	 -0.603652	 0.261422	 1
1462068299.384	 16	 0.018023	 0.024882	 -0.036393	 2.618490	 -1.415044	 0.210045	 -0.244097	 0.712465	 -0.603788	 0.261248	 1
1462068299.394	 16	 0.027943	 0.127712	 -0.079220	 2.622791	 -1.415634	 0.213495	 -0.244065	 0.712415	 -0.604083	 0.260732	 1
1462068299.404	 16	 0.026945	 0.163703	 -0.103393	 2.634807	 -1.416109	 0.223841	 -0.244149	 0.712562	 -0.604382	 0.259557	 1
1462068299.414	 16	 -0.009553	 0.120186	 -0.105613	 2.643920	 -1.416742	 0.231692	 -0.244228	 0.712579	 -0.604714	 0.258659	 1
1462068299.424	 16	 -0.024549	 0.097987	 -0.092900	 2.650876	 -1.416918	 0.237709	 -0.244279	 0.712685	 -0.604853	 0.257993	 1
1462068299.434	 16	 -0.013853	 0.085345	 -0.071794	 2.655035	 -1.417052	 0.241050	 -0.244219	 0.712770	 -0.604981	 0.257517	 1
1462068299.444	 16	 -0.008515	 0.064216	 -0.057072	 2.655718	 -1.417396	 0.241114	 -0.244053	 0.712738	 -0.605185	 0.257281	 1
1462068299.454	 16	 0.017034	 0.039767	 -0.044732	 2.655725	 -1.418034	 0.240753	 -0.243956	 0.712576	 -0.605471	 0.257148	 1
1462068299.464	 16	 0.032011	 0.049280	 -0.046905	 2.657477	 -1.418526	 0.242070	 -0.243920	 0.712481	 -0.605700	 0.256907	 1
1462068299.474	 16	 0.023453	 0.051379	 -0.054271	 2.660435	 -1.418886	 0.244544	 -0.243924	 0.712442	 -0.605878	 0.256591	 1
1462068299.484	 16	 -0.007422	 0.062147	 -0.048573	 2.664687	 -1.419034	 0.248215	 -0.243951	 0.712491	 -0.605982	 0.256183	 1
1462068299.494	 16	 -0.012775	 0.051588	 -0.040098	 2.667667	 -1.418998	 0.250692	 -0.243929	 0.712582	 -0.606015	 0.255873	 1
1462068299.504	 16	 -0.009515	 0.049574	 -0.023091	 2.667975	 -1.419037	 0.250547	 -0.243786	 0.712627	 -0.606086	 0.255718	 1
1462068299.514	 16	 -0.003148	 0.028397	 -0.007356	 2.667217	 -1.419108	 0.249462	 -0.243633	 0.712639	 -0.606158	 0.255658	 1
1462068299.524	 16	 0.005300	 0.001841	 0.000851	 2.664490	 -1.419548	 0.246690	 -0.243493	 0.712485	 -0.606346	 0.255775	 1
1462068299.534	 16	 0.005268	 -0.007709	 0.003959	 2.663830	 -1.419675	 0.246089	 -0.243486	 0.712432	 -0.606390	 0.255824	 1
1462068299.544	 16	 0.006339	 -0.008761	 0.006072	 2.663236	 -1.419755	 0.245580	 -0.243489	 0.712392	 -0.606413	 0.255879	 1
1462068299.554	 16	 0.006378	 -0.000251	 0.006150	 2.663355	 -1.419731	 0.245718	 -0.243500	 0.712398	 -0.606401	 0.255879	 1
1462068299.564	 16	 0.001167	 0.025301	 0.007498	 2.664483	 -1.419621	 0.246651	 -0.243485	 0.712465	 -0.606378	 0.255764	 1
1462068299.574	 16	 -0.006112	 0.060470	 0.014282	 2.665937	 -1.419376	 0.247555	 -0.243354	 0.712620	 -0.606347	 0.255528	 1
1462068299.584	 16	 -0.013496	 0.079631	 0.013458	 2.668260	 -1.419154	 0.249091	 -0.243186	 0.712802	 -0.606350	 0.255172	 1
1462068299.594	 16	 -0.019826	 0.098766	 0.009426	 2.671536	 -1.418935	 0.251403	 -0.243007	 0.713010	 -0.606371	 0.254712	 1
1462068299.604	 16	 -0.034673	 0.121125	 0.006563	 2.675389	 -1.418704	 0.254062	 -0.242775	 0.713252	 -0.606414	 0.254151	 1
1462068299.614	 16	 -0.049620	 0.119035	 -0.002876	 2.678543	 -1.418521	 0.256012	 -0.242507	 0.713476	 -0.606481	 0.253622	 1
1462068299.624	 16	 -0.049767	 0.097676	 -0.014797	 2.681744	 -1.418464	 0.258198	 -0.242313	 0.713635	 -0.606570	 0.253144	 1
1462068299.634	 16	 -0.046847	 0.051805	 -0.032302	 2.683394	 -1.418686	 0.259243	 -0.242196	 0.713645	 -0.606721	 0.252867	 1
1462068299.644	 16	 -0.035616	 -0.050381	 -0.038679	 2.686544	 -1.418503	 0.262655	 -0.242449	 0.713689	 -0.606603	 0.252783	 1
1462068299.654	 16	 -0.020097	 -0.177852	 -0.010159	 2.686987	 -1.418370	 0.264585	 -0.242998	 0.713554	 -0.606363	 0.253213	 1
1462068299.664	 16	 0.009526	 -0.269093	 0.033496	 2.682969	 -1.418273	 0.263049	 -0.243664	 0.713263	 -0.606032	 0.254183	 1
1462068299.674	 16	 0.050002	 -0.306266	 0.057313	 2.671819	 -1.418759	 0.254873	 -0.244150	 0.712681	 -0.605897	 0.255668	 1
1462068299.684	 16	 0.085453	 -0.297507	 0.106110	 2.661187	 -1.419018	 0.247176	 -0.244641	 0.712174	 -0.605682	 0.257116	 1
1462068299.694	 16	 0.120023	 -0.257829	 0.164796	 2.646432	 -1.419301	 0.234993	 -0.244787	 0.711670	 -0.605554	 0.258669	 1
1462068299.704	 16	 0.131180	 -0.217964	 0.239673	 2.627413	 -1.419378	 0.218024	 -0.244513	 0.711253	 -0.605457	 0.260295	 1
1462068299.714	 16	 0.128529	 -0.158950	 0.309517	 2.609590	 -1.418670	 0.201676	 -0.244048	 0.711153	 -0.605150	 0.261717	 1
1462068299.724	 16	 0.128147	 -0.075456	 0.382769	 2.584108	 -1.417865	 0.176886	 -0.242885	 0.711085	 -0.605002	 0.263320	 1
1462068299.734	 16	 0.116097	 0.040892	 0.435113	 2.556892	 -1.416589	 0.149251	 -0.241187	 0.711245	 -0.604884	 0.264717	 1
1462068299.744	 16	 0.072886	 0.148508	 0.443951	 2.531592	 -1.414798	 0.122367	 -0.239112	 0.711687	 -0.604751	 0.265714	 1
1462068299.754	 16	 0.001269	 0.132690	 0.433770	 2.509936	 -1.412435	 0.098936	 -0.237084	 0.712339	 -0.604423	 0.266528	 1
1462068299.764	 16	 -0.094645	 -0.069084	 0.438056	 2.490766	 -1.409252	 0.079594	 -0.235642	 0.713060	 -0.603577	 0.267792	 1
1462068299.774	 16	 -0.139835	 -0.369981	 0.426099	 2.472270	 -1.405563	 0.063822	 -0.235178	 0.713574	 -0.602178	 0.269973	 1
1462068299.784	 16	 -0.101589	 -0.622258	 0.413826	 2.451644	 -1.402043	 0.048631	 -0.235542	 0.713645	 -0.600536	 0.273108	 1
1462068299.794	 16	 -0.036193	 -0.785182	 0.413872	 2.427881	 -1.398980	 0.032101	 -0.236387	 0.713262	 -0.598899	 0.276945	 1
1462068299.804	 16	 0.033970	 -0.869183	 0.445518	 2.399758	 -1.396156	 0.012276	 -0.237354	 0.712539	 -0.597321	 0.281353	 1
1462068299.814	 16	 0.133373	 -0.849155	 0.460826	 2.368298	 -1.393800	 -0.010919	 -0.238148	 0.711538	 -0.596032	 0.285913	 1
1462068299.824	 16	 0.174038	 -0.821652	 0.456465	 2.335468	 -1.391731	 -0.035914	 -0.238726	 0.710396	 -0.594989	 0.290405	 1
1462068299.834	 16	 0.149242	 -0.868434	 0.448785	 2.303759	 -1.389491	 -0.059470	 -0.239431	 0.709221	 -0.593865	 0.294963	 1
1462068299.844	 16	 0.085680	 -0.976894	 0.427014	 2.274658	 -1.386910	 -0.079429	 -0.240554	 0.708026	 -0.592449	 0.299727	 1
1462068299.854	 16	 0.030478	 -1.134208	 0.418570	 2.247766	 -1.383952	 -0.095674	 -0.242240	 0.706755	 -0.590648	 0.304881	 1
1462068299.864	 16	 -0.035037	 -1.261313	 0.464851	 2.221611	 -1.380343	 -0.109731	 -0.244326	 0.705442	 -0.588407	 0.310539	 1
1462068299.874	 16	 -0.143257	 -1.230324	 0.587579	 2.197037	 -1.375206	 -0.122054	 -0.246220	 0.704506	 -0.585599	 0.316419	 1
1462068299.884	 16	 -0.190474	 -1.174945	 0.724923	 2.172966	 -1.368493	 -0.134563	 -0.247530	 0.704013	 -0.582386	 0.322367	 1
1462068299.894	 16	 -0.170319	 -1.294381	 0.836607	 2.146006	 -1.360760	 -0.149318	 -0.248601	 0.703498	 -0.578887	 0.328905	 1
1462068299.904	 16	 -0.123319	 -1.581089	 0.919856	 2.114375	 -1.352404	 -0.166306	 -0.250003	 0.702515	 -0.575033	 0.336613	 1
1462068299.914	 16	 -0.057074	 -1.880442	 1.027333	 2.077040	 -1.343431	 -0.186033	 -0.251819	 0.700884	 -0.570812	 0.345721	 1
1462068299.924	 16	 -0.060982	 -1.904028	 1.146513	 2.037942	 -1.333345	 -0.206504	 -0.253475	 0.699082	 -0.566248	 0.355525	 1
1462068299.934	 16	 -0.067699	 -1.669770	 1.326734	 2.000814	 -1.321485	 -0.226886	 -0.254019	 0.697786	 -0.561487	 0.365105	 1
1462068299.944	 16	 0.043503	 -1.474792	 1.418170	 1.963875	 -1.308652	 -0.249365	 -0.253359	 0.696736	 -0.556993	 0.374335	 1
1462068299.954	 16	 0.181387	 -1.265126	 1.492458	 1.926077	 -1.295550	 -0.274869	 -0.251631	 0.695667	 -0.553074	 0.383195	 1
1462068299.964	 16	 0.207727	 -0.949813	 1.569766	 1.891197	 -1.281588	 -0.300455	 -0.248665	 0.695037	 -0.549506	 0.391322	 1
1462068299.974	 16	 0.084371	 -0.477645	 1.656232	 1.865180	 -1.266424	 -0.321311	 -0.244421	 0.695512	 -0.545967	 0.398047	 1
1462068299.984	 16	 0.133504	 -0.289126	 1.711912	 1.844623	 -1.250291	 -0.339839	 -0.239082	 0.696733	 -0.542518	 0.403828	 1
1462068299.994	 16	 0.481682	 -0.675237	 1.703156	 1.815256	 -1.234806	 -0.364961	 -0.233870	 0.696566	 -0.539732	 0.410841	 1
1462068300.004	 16	 0.681502	 -1.125278	 1.765437	 1.776237	 -1.219318	 -0.395543	 -0.229204	 0.694682	 -0.537228	 0.419844	 1
1462068300.014	 16	 0.536726	 -1.230706	 1.982067	 1.739222	 -1.201505	 -0.421911	 -0.224600	 0.692682	 -0.533764	 0.429934	 1
1462068300.024	 16	 0.355850	 -0.895259	 2.258532	 1.710972	 -1.180524	 -0.441533	 -0.218840	 0.691871	 -0.529275	 0.439649	 1
1462068300.034	 16	 0.306622	 -0.455103	 2.507116	 1.690624	 -1.156590	 -0.457551	 -0.211131	 0.692444	 -0.524301	 0.448390	 1
1462068300.044	 16	 0.393098	 -0.298344	 2.598412	 1.673293	 -1.131229	 -0.473210	 -0.202130	 0.693479	 -0.519376	 0.456594	 1
1462068300.054	 16	 0.521240	 -0.418610	 2.492798	 1.654673	 -1.106362	 -0.489758	 -0.193150	 0.693870	 -0.514842	 0.464946	 1
1462068300.064	 16	 0.745519	 -0.910715	 2.045040	 1.630520	 -1.085246	 -0.508202	 -0.186010	 0.692335	 -0.511412	 0.473845	 1
1462068300.074	 16	 1.014832	 -1.551076	 1.558209	 1.597727	 -1.068861	 -0.529601	 -0.181513	 0.688136	 -0.509359	 0.483814	 1
1462068300.084	 16	 1.329618	 -2.053303	 1.071202	 1.555680	 -1.057062	 -0.555541	 -0.179314	 0.681273	 -0.509001	 0.494603	 1
1462068300.094	 16	 1.475845	 -2.492895	 0.793003	 1.506946	 -1.048043	 -0.584260	 -0.178867	 0.672368	 -0.509688	 0.506109	 1
1462068300.104	 16	 1.390980	 -2.772930	 0.716533	 1.456538	 -1.039551	 -0.611076	 -0.179753	 0.662427	 -0.510123	 0.518318	 1
1462068300.114	 16	 1.344889	 -2.818508	 0.719708	 1.407505	 -1.030571	 -0.635288	 -0.181052	 0.652238	 -0.510126	 0.530639	 1
1462068300.124	 16	 1.291488	 -2.686788	 0.821580	 1.361361	 -1.020446	 -0.657335	 -0.181958	 0.642281	 -0.509792	 0.542659	 1
1462068300.134	 17	 1.048283	 -2.437359	 1.091393	 1.322484	 -1.007985	 -0.673638	 -0.182007	 0.633488	 -0.508298	 0.554256	 1
1462068300.154	 17	 0.194289	 -2.165895	 1.512739	 1.274698	 -0.978191	 -0.678165	 -0.181363	 0.620984	 -0.499639	 0.576061	 1
1462068300.164	 17	 -0.084741	 -2.397801	 1.394711	 1.258279	 -0.964544	 -0.669957	 -0.182762	 0.615634	 -0.493237	 0.586779	 1
1462068300.184	 18	 -0.237054	 -3.371032	 0.743261	 1.212916	 -0.946781	 -0.653357	 -0.192008	 0.600663	 -0.480783	 0.609249	 1
1462068300.194	 18	 -0.407452	 -3.965003	 0.462119	 1.181989	 -0.943238	 -0.644352	 -0.200695	 0.590278	 -0.474345	 0.621522	 1
1462068300.204	 18	 -0.545818	 -4.473794	 0.353079	 1.147045	 -0.941871	 -0.633795	 -0.211468	 0.578219	 -0.467193	 0.634567	 1
1462068300.214	 18	 -0.564062	 -4.748978	 0.385847	 1.109193	 -0.940982	 -0.622357	 -0.223152	 0.564835	 -0.459262	 0.648261	 1
1462068300.224	 18	 -0.493837	 -4.639011	 0.471520	 1.071550	 -0.939397	 -0.611155	 -0.234212	 0.551220	 -0.451033	 0.661718	 1
1462068300.234	 18	 -0.445209	 -4.467397	 0.689044	 1.036157	 -0.936028	 -0.599079	 -0.244052	 0.537927	 -0.442240	 0.674905	 1
1462068300.244	 18	 -0.439079	 -4.076151	 0.962272	 1.005881	 -0.930214	 -0.584736	 -0.252135	 0.525785	 -0.432718	 0.687556	 1
1462068300.254	 18	 -0.535649	 -3.547096	 1.277107	 0.983333	 -0.922960	 -0.566858	 -0.258657	 0.515617	 -0.422561	 0.699054	 1
1462068300.274	 19	 -0.941214	 -2.258934	 2.156958	 0.971485	 -0.901938	 -0.512834	 -0.266255	 0.504202	 -0.398683	 0.718290	 1
1462068300.284	 19	 -1.207168	 -1.645713	 2.715979	 0.983138	 -0.886949	 -0.474733	 -0.267414	 0.503345	 -0.384100	 0.726362	 1
1462068300.294	 19	 -1.452628	 -0.980486	 3.267845	 1.006274	 -0.868327	 -0.429738	 -0.266777	 0.505958	 -0.367630	 0.733270	 1
1462068300.304	 19	 -1.592791	 -0.333081	 3.751486	 1.038681	 -0.845437	 -0.380349	 -0.264170	 0.511784	 -0.349596	 0.738968	 1
1462068300.314	 19	 -1.576458	 0.196305	 4.010987	 1.076082	 -0.818745	 -0.330851	 -0.259717	 0.519978	 -0.330912	 0.743416	 1
1462068300.324	 19	 -1.390247	 0.289506	 4.031548	 1.111747	 -0.789495	 -0.285607	 -0.254024	 0.528636	 -0.312463	 0.747250	 1
1462068300.334	 19	 -1.072298	 -0.063405	 3.895473	 1.138993	 -0.758962	 -0.247276	 -0.247826	 0.535498	 -0.294689	 0.751653	 1
1462068300.344	 19	 -0.661804	 -0.664764	 3.710452	 1.154599	 -0.727894	 -0.216774	 -0.241356	 0.539289	 -0.277840	 0.757443	 1
1462068300.354	 19	 -0.151031	 -1.329748	 3.592175	 1.157754	 -0.695952	 -0.194138	 -0.234253	 0.539537	 -0.261940	 0.765123	 1
1462068300.364	 19	 0.421519	 -1.885634	 3.583083	 1.149743	 -0.662089	 -0.178789	 -0.225791	 0.536504	 -0.246880	 0.774746	 1
1462068300.374	 19	 0.987076	 -2.150819	 3.617256	 1.134270	 -0.625773	 -0.169671	 -0.215373	 0.531295	 -0.232762	 0.785596	 1
1462068300.384	 19	 1.478350	 -2.131538	 3.687761	 1.115158	 -0.586764	 -0.165316	 -0.202732	 0.525055	 -0.219564	 0.796874	 1
1462068300.394	 19	 1.869984	 -1.928314	 3.709689	 1.095824	 -0.545676	 -0.164441	 -0.188044	 0.518834	 -0.207405	 0.807734	 1
1462068300.404	 19	 2.192077	 -1.723095	 3.685347	 1.077212	 -0.503123	 -0.166191	 -0.171705	 0.512816	 -0.196245	 0.817939	 1
1462068300.414	 19	 2.417966	 -1.474650	 3.569524	 1.060061	 -0.460149	 -0.170051	 -0.154246	 0.507169	 -0.186217	 0.827231	 1
1462068300.424	 19	 2.472881	 -1.287277	 3.469543	 1.044799	 -0.417557	 -0.174665	 -0.136361	 0.501932	 -0.176970	 0.835554	 1
1462068300.434	 19	 2.406794	 -1.233165	 3.424794	 1.030878	 -0.375596	 -0.178449	 -0.118644	 0.496798	 -0.167826	 0.843178	 1
1462068300.444	 19	 2.267899	 -1.252034	 3.406645	 1.017637	 -0.334425	 -0.180588	 -0.101444	 0.491501	 -0.158398	 0.850321	 1
1462068300.454	 19	 2.074326	 -1.327092	 3.391646	 1.004552	 -0.294316	 -0.180594	 -0.085051	 0.485867	 -0.148484	 0.857118	 1
1462068300.464	 19	 1.855840	 -1.460740	 3.353937	 0.990928	 -0.255705	 -0.178310	 -0.069740	 0.479674	 -0.138071	 0.863705	 1
1462068300.474	 19	 1.686255	 -1.595931	 3.269960	 0.976258	 -0.218708	 -0.174297	 -0.055450	 0.472793	 -0.127402	 0.870150	 1
1462068300.484	 19	 1.569307	 -1.787419	 3.070965	 0.959817	 -0.183895	 -0.169627	 -0.042207	 0.464995	 -0.117065	 0.876524	 1
1462068300.504	 20	 1.503097	 -2.233727	 2.514258	 0.919643	 -0.122153	 -0.161748	 -0.018735	 0.445932	 -0.099259	 0.889349	 1
1462068300.514	 20	 1.643290	 -2.440815	 2.321404	 0.895956	 -0.093697	 -0.159803	 -0.007542	 0.434657	 -0.092082	 0.895844	 1
1462068300.524	 20	 1.910006	 -2.600791	 2.222741	 0.870297	 -0.064709	 -0.159779	 0.004383	 0.422322	 -0.085922	 0.902354	 1
1462068300.534	 20	 2.223161	 -2.755684	 2.256940	 0.843107	 -0.033752	 -0.161335	 0.017619	 0.409030	 -0.080398	 0.908801	 1
1462068300.544	 20	 2.451340	 -2.638775	 2.337039	 0.816125	 -0.000417	 -0.163395	 0.032193	 0.395524	 -0.074988	 0.914823	 1
1462068300.554	 20	 2.487605	 -2.197424	 2.345093	 0.792963	 0.033775	 -0.165055	 0.047353	 0.383522	 -0.069529	 0.919693	 1
1462068300.564	 20	 2.397564	 -1.769048	 2.273129	 0.774371	 0.067136	 -0.165889	 0.062236	 0.373499	 -0.064044	 0.923322	 1
1462068300.574	 20	 2.312166	 -1.653903	 2.130000	 0.757765	 0.099005	 -0.166427	 0.076520	 0.364330	 -0.058889	 0.926251	 1
1462068300.584	 20	 2.171092	 -1.747545	 1.920402	 0.740684	 0.128648	 -0.167038	 0.089844	 0.354928	 -0.054422	 0.928974	 1
1462068300.594	 20	 1.950518	 -1.944203	 1.699880	 0.721837	 0.155312	 -0.167409	 0.101761	 0.344768	 -0.050685	 0.931778	 1
1462068300.604	 20	 1.712789	 -2.184189	 1.511076	 0.700557	 0.178875	 -0.167182	 0.112139	 0.333590	 -0.047567	 0.934816	 1
1462068300.614	 20	 1.545820	 -2.401647	 1.377286	 0.676890	 0.200034	 -0.166354	 0.121307	 0.321394	 -0.044939	 0.938068	 1
1462068300.624	 20	 1.458062	 -2.576718	 1.253859	 0.651328	 0.219556	 -0.165320	 0.129701	 0.308356	 -0.042823	 0.941414	 1
1462068300.634	 20	 1.440041	 -2.692269	 1.152759	 0.624450	 0.238125	 -0.164429	 0.137704	 0.294689	 -0.041235	 0.944720	 1
1462068300.644	 20	 1.476025	 -2.682374	 1.065145	 0.597390	 0.256345	 -0.163910	 0.145645	 0.280879	 -0.040108	 0.947779	 1
1462068300.654	 20	 1.570751	 -2.639875	 0.950679	 0.571083	 0.274631	 -0.164223	 0.153785	 0.267313	 -0.039530	 0.950437	 1
1462068300.664	 20	 1.638456	 -2.615841	 0.772331	 0.545262	 0.292799	 -0.165961	 0.162085	 0.253825	 -0.039826	 0.952741	 1
1462068300.674	 20	 1.566926	 -2.456457	 0.575139	 0.521169	 0.309517	 -0.168836	 0.169872	 0.241102	 -0.040925	 0.954641	 1
1462068300.684	 20	 1.455039	 -2.320853	 0.455874	 0.498977	 0.324159	 -0.172128	 0.176741	 0.229329	 -0.042509	 0.956224	 1
1462068300.694	 20	 1.361028	 -2.311268	 0.419478	 0.476999	 0.338061	 -0.175089	 0.183200	 0.217694	 -0.044156	 0.957652	 1
1462068300.704	 20	 1.252345	 -2.293748	 0.430237	 0.454730	 0.351307	 -0.177156	 0.189220	 0.206012	 -0.045623	 0.958996	 1
1462068300.714	 20	 1.149055	 -2.230821	 0.412538	 0.432751	 0.363696	 -0.178509	 0.194748	 0.194566	 -0.046951	 0.960215	 1
1462068300.724	 20	 1.073355	 -2.188295	 0.379489	 0.411118	 0.375243	 -0.179499	 0.199834	 0.183359	 -0.048284	 0.961309	 1
1462068300.734	 20	 0.989197	 -2.108692	 0.322345	 0.390130	 0.385879	 -0.180413	 0.204480	 0.172515	 -0.049721	 0.962265	 1
1462068300.744	 20	 0.893522	 -1.989637	 0.274195	 0.370228	 0.395451	 -0.181240	 0.208623	 0.162259	 -0.051208	 0.963082	 1
1462068300.754	 20	 0.810809	 -1.882990	 0.280171	 0.351323	 0.404172	 -0.181628	 0.212337	 0.152575	 -0.052544	 0.963781	 1
1462068300.764	 20	 0.767512	 -1.809273	 0.307878	 0.332948	 0.412487	 -0.181365	 0.215812	 0.143239	 -0.053619	 0.964382	 1
1462068300.774	 20	 0.765837	 -1.713529	 0.309849	 0.315318	 0.420729	 -0.180791	 0.219245	 0.134302	 -0.054536	 0.964842	 1
1462068300.784	 20	 0.791978	 -1.565017	 0.266241	 0.299142	 0.429048	 -0.180472	 0.222770	 0.126037	 -0.055471	 0.965097	 1
1462068300.794	 20	 0.814979	 -1.390019	 0.206921	 0.284898	 0.437447	 -0.180705	 0.226414	 0.118640	 -0.056509	 0.965126	 1
1462068300.804	 20	 0.825357	 -1.194619	 0.169216	 0.272711	 0.445844	 -0.181329	 0.230132	 0.112194	 -0.057552	 0.964956	 1
1462068300.814	 20	 0.829653	 -0.956437	 0.161803	 0.262844	 0.454262	 -0.182036	 0.233922	 0.106859	 -0.058407	 0.964598	 1
1462068300.824	 20	 0.811708	 -0.721047	 0.200385	 0.255194	 0.462651	 -0.182351	 0.237737	 0.102642	 -0.058850	 0.964097	 1
1462068300.834	 20	 0.781013	 -0.501334	 0.271972	 0.249379	 0.470920	 -0.181802	 0.241501	 0.099423	 -0.058692	 0.963508	 1
1462068300.844	 20	 0.747252	 -0.239188	 0.326927	 0.245716	 0.478988	 -0.180465	 0.245193	 0.097353	 -0.057926	 0.962833	 1
1462068300.854	 20	 0.689955	 -0.070928	 0.479264	 0.243226	 0.486851	 -0.177555	 0.248745	 0.096061	 -0.056286	 0.962149	 1
1462068300.864	 20	 0.688879	 0.091281	 0.553255	 0.241784	 0.494816	 -0.173405	 0.252316	 0.095435	 -0.053922	 0.961416	 1
1462068300.874	 20	 0.699755	 0.209723	 0.463673	 0.241961	 0.502778	 -0.169888	 0.255958	 0.095521	 -0.051662	 0.960569	 1
1462068300.884	 20	 0.656686	 0.191228	 0.389272	 0.242765	 0.510264	 -0.167263	 0.259428	 0.095829	 -0.049784	 0.959706	 1
1462068300.894	 20	 0.573375	 -0.029931	 0.365559	 0.241905	 0.516932	 -0.164760	 0.262469	 0.095376	 -0.048237	 0.959003	 1
1462068300.904	 20	 0.476701	 -0.335367	 0.301744	 0.238224	 0.522567	 -0.162545	 0.264963	 0.093596	 -0.047277	 0.958540	 1
1462068300.914	 20	 0.377151	 -0.548462	 0.210038	 0.232411	 0.527018	 -0.161015	 0.266878	 0.090773	 -0.047019	 0.958293	 1
1462068300.924	 20	 0.305049	 -0.615777	 0.138633	 0.225886	 0.530486	 -0.160115	 0.268337	 0.087583	 -0.047234	 0.958172	 1
1462068300.934	 20	 0.295562	 -0.556484	 0.097703	 0.219900	 0.533584	 -0.159680	 0.269653	 0.084610	 -0.047633	 0.958050	 1
1462068300.944	 20	 0.329274	 -0.419409	 0.093356	 0.215194	 0.536896	 -0.159436	 0.271110	 0.082215	 -0.047944	 0.957832	 1
1462068300.954	 20	 0.380370	 -0.228045	 0.102152	 0.212311	 0.540690	 -0.159213	 0.272839	 0.080666	 -0.047995	 0.957470	 1
1462068300.964	 20	 0.428428	 -0.011066	 0.121871	 0.211501	 0.545019	 -0.158919	 0.274870	 0.080093	 -0.047700	 0.956952	 1
1462068300.984	 21	 0.466995	 0.388403	 0.222237	 0.215550	 0.554714	 -0.157058	 0.279503	 0.081781	 -0.045650	 0.955566	 1
1462068300.994	 21	 0.452537	 0.456808	 0.262432	 0.219104	 0.559746	 -0.155306	 0.281902	 0.083462	 -0.043999	 0.954793	 1
1462068301.004	 21	 0.402157	 0.412261	 0.259259	 0.222325	 0.564373	 -0.153367	 0.284087	 0.085033	 -0.042325	 0.954082	 1
1462068301.014	 21	 0.340832	 0.297662	 0.271494	 0.225805	 0.564016	 -0.151924	 0.283928	 0.086916	 -0.041165	 0.954011	 1
1462068301.024	 21	 0.265257	 0.136015	 0.244004	 0.226379	 0.567345	 -0.149734	 0.285424	 0.087330	 -0.039825	 0.953583	 1
1462068301.034	 21	 0.222596	 -0.045015	 0.196863	 0.225426	 0.570059	 -0.147951	 0.286615	 0.086992	 -0.038936	 0.953293	 1
1462068301.044	 21	 0.218558	 -0.205751	 0.177284	 0.222929	 0.572587	 -0.146438	 0.287700	 0.085890	 -0.038412	 0.953088	 1
1462068301.054	 21	 0.219053	 -0.314349	 0.162396	 0.219465	 0.570767	 -0.145168	 0.286716	 0.084513	 -0.038419	 0.953507	 1
1462068301.064	 21	 0.215594	 -0.355930	 0.147118	 0.215317	 0.573217	 -0.143981	 0.287750	 0.082584	 -0.038297	 0.953369	 1
1462068301.074	 21	 0.211229	 -0.365583	 0.134277	 0.211108	 0.575582	 -0.142922	 0.288748	 0.080614	 -0.038254	 0.953238	 1
1462068301.084	 21	 0.200425	 -0.383719	 0.122479	 0.206796	 0.577840	 -0.141960	 0.289698	 0.078588	 -0.038285	 0.953118	 1
1462068301.104	 22	 0.143466	 -0.439107	 0.088349	 0.197925	 0.580233	 -0.140546	 0.290609	 0.074451	 -0.038758	 0.953153	 1
1462068301.114	 22	 0.137965	 -0.449936	 0.059521	 0.193174	 0.581708	 -0.140065	 0.291199	 0.072187	 -0.039137	 0.953132	 1
