% Gyrometer data recorded with 'snsrlog'
% 
% 
% Label description:
% 	 0: Default Label
% 	 1: still_drop
% 	 2: walk_drop
% 	 3: other
% 	 4: dtw_same
% 	 5: dtw_diff
% 	 6: delete
% 	 7: steal
% 
% Column description:
% 	 1: Seconds.milliseconds since 1970
% 	 2: Number of skipped measurements
% 	 3: Gyro X
% 	 4: Gyro Y
% 	 5: Gyro Z
% 	 6: Roll of the device
% 	 7: Pitch of the device
% 	 8: Yaw of the device
% 	 9: Quaternion X
% 	 10: Quaternion Y
% 	 11: Quaternion Z
% 	 12: Quaternion W
% 	 13: Label used for the current sample
% 
% 
1463623498.845	 0	 -0.358823	 1.872565	 -0.795128	 0.113252	 0.680653	 0.133500	 0.328959	 0.075460	 0.081623	 0.937779	 1
1463623498.855	 0	 -0.337924	 1.804176	 -0.832190	 0.138250	 0.677015	 0.123097	 0.326652	 0.085404	 0.080774	 0.937806	 1
1463623498.865	 0	 -0.276154	 1.898500	 -0.707156	 0.162503	 0.673007	 0.114188	 0.324191	 0.095265	 0.080440	 0.937739	 1
1463623498.875	 0	 -0.217004	 2.024468	 -0.473097	 0.186306	 0.669805	 0.107970	 0.322035	 0.105380	 0.081268	 0.937328	 1
1463623498.885	 0	 -0.163193	 2.139900	 -0.227366	 0.209355	 0.667500	 0.104832	 0.320176	 0.115654	 0.083412	 0.936565	 1
1463623498.895	 0	 -0.095629	 2.271946	 -0.031691	 0.232097	 0.666229	 0.104209	 0.318649	 0.126190	 0.086697	 0.935427	 1
1463623498.905	 0	 -0.018573	 2.448050	 0.083313	 0.255605	 0.665995	 0.105041	 0.317441	 0.137307	 0.090813	 0.933880	 1
1463623498.915	 0	 0.075366	 2.611100	 0.165010	 0.280349	 0.666867	 0.106649	 0.316582	 0.149106	 0.095532	 0.931889	 1
1463623498.925	 0	 0.199112	 2.769713	 0.233618	 0.306302	 0.669102	 0.108701	 0.316195	 0.161510	 0.100727	 0.929403	 1
1463623498.935	 0	 0.321079	 3.048133	 0.249001	 0.334895	 0.672644	 0.110540	 0.316214	 0.175064	 0.106337	 0.926312	 1
1463623498.945	 0	 0.445142	 3.349677	 0.227280	 0.367026	 0.677329	 0.111537	 0.316547	 0.190059	 0.112223	 0.922541	 1
1463623498.955	 0	 0.598731	 3.606202	 0.169713	 0.402765	 0.683195	 0.111079	 0.317255	 0.206396	 0.118150	 0.918036	 1
1463623498.965	 0	 0.789128	 3.809963	 0.037797	 0.442283	 0.690252	 0.108058	 0.318448	 0.223933	 0.123680	 0.912769	 1
1463623498.975	 0	 0.930857	 3.945207	 -0.175331	 0.485702	 0.697794	 0.101447	 0.319945	 0.242516	 0.128351	 0.906833	 1
1463623498.985	 0	 0.928544	 3.957715	 -0.504515	 0.532203	 0.703951	 0.090728	 0.321082	 0.261680	 0.131637	 0.900612	 1
1463623498.995	 0	 0.793463	 3.935016	 -0.902145	 0.581159	 0.706801	 0.076005	 0.321130	 0.281205	 0.133237	 0.894454	 1
1463623499.015	 1	 0.315353	 3.717561	 -1.454202	 0.680462	 0.699704	 0.041536	 0.316531	 0.320132	 0.132746	 0.883007	 1
1463623499.025	 1	 0.128494	 3.421949	 -1.666347	 0.726597	 0.690565	 0.024058	 0.312326	 0.338168	 0.130847	 0.878051	 1
1463623499.035	 1	 0.014424	 3.175033	 -1.880804	 0.770027	 0.678413	 0.006469	 0.307233	 0.355167	 0.127793	 0.873575	 1
1463623499.045	 1	 -0.009431	 3.075466	 -2.126648	 0.812345	 0.663690	 -0.011939	 0.301506	 0.371747	 0.123531	 0.869274	 1
1463623499.055	 1	 0.041127	 3.210140	 -2.455156	 0.856326	 0.646268	 -0.032278	 0.295192	 0.388998	 0.117904	 0.864662	 1
1463623499.065	 1	 0.113679	 3.440834	 -2.733936	 0.903282	 0.626312	 -0.054352	 0.288354	 0.407532	 0.111143	 0.859312	 1
1463623499.075	 1	 0.184329	 3.645592	 -2.923418	 0.952354	 0.604271	 -0.077104	 0.281128	 0.427104	 0.103593	 0.853123	 1
1463623499.085	 1	 0.250743	 3.866240	 -3.123372	 1.003305	 0.580113	 -0.100139	 0.273515	 0.447660	 0.095312	 0.845994	 1
1463623499.095	 1	 0.288172	 4.072954	 -3.349847	 1.055846	 0.553349	 -0.123077	 0.265324	 0.469153	 0.086234	 0.837891	 1
1463623499.105	 1	 0.341246	 4.228348	 -3.606778	 1.109397	 0.523627	 -0.145781	 0.256488	 0.491365	 0.076165	 0.828839	 1
1463623499.115	 1	 0.366105	 4.319704	 -3.905623	 1.163194	 0.490424	 -0.167962	 0.246837	 0.514032	 0.064899	 0.818921	 1
1463623499.125	 1	 0.363796	 4.332220	 -4.233741	 1.216120	 0.453259	 -0.189066	 0.236142	 0.536775	 0.052298	 0.808316	 1
1463623499.135	 1	 0.393153	 4.306046	 -4.604060	 1.267657	 0.411833	 -0.209079	 0.224345	 0.559366	 0.038125	 0.797073	 1
1463623499.145	 1	 0.496909	 4.226380	 -4.987247	 1.317521	 0.366053	 -0.228428	 0.211582	 0.581589	 0.022074	 0.785175	 1
1463623499.155	 1	 0.691232	 4.118602	 -5.103979	 1.365261	 0.317856	 -0.247327	 0.198691	 0.602983	 0.004571	 0.772602	 1
1463623499.165	 1	 0.951061	 4.120872	 -4.979394	 1.411773	 0.270141	 -0.265894	 0.186784	 0.623543	 -0.013376	 0.759030	 1
1463623499.175	 1	 1.258999	 4.176936	 -4.897359	 1.458015	 0.223101	 -0.284811	 0.176138	 0.643505	 -0.031792	 0.744222	 1
1463623499.185	 1	 1.565431	 4.250136	 -4.946239	 1.504204	 0.175362	 -0.304448	 0.166405	 0.662984	 -0.051175	 0.728109	 1
1463623499.195	 1	 1.838577	 4.326224	 -5.050223	 1.550311	 0.125943	 -0.324546	 0.157203	 0.682002	 -0.071715	 0.710646	 1
1463623499.205	 1	 2.098368	 4.285362	 -5.153047	 1.595423	 0.074628	 -0.344874	 0.148393	 0.700184	 -0.093436	 0.692092	 1
1463623499.225	 2	 2.392698	 3.448593	 -5.287024	 1.673132	 -0.033219	 -0.384362	 0.130845	 0.730705	 -0.140058	 0.655235	 1
1463623499.235	 2	 2.252687	 2.677244	 -5.229037	 1.700937	 -0.088038	 -0.401180	 0.121162	 0.741590	 -0.163713	 0.639189	 1
1463623499.245	 2	 1.859884	 1.853084	 -5.075554	 1.720069	 -0.141452	 -0.413588	 0.110096	 0.749330	 -0.186036	 0.625919	 1
1463623499.255	 2	 1.430597	 1.182452	 -4.886219	 1.732212	 -0.192564	 -0.421201	 0.097618	 0.754548	 -0.206411	 0.615242	 1
1463623499.265	 2	 1.072347	 0.678264	 -4.742848	 1.739374	 -0.241549	 -0.424839	 0.083952	 0.757896	 -0.224999	 0.606564	 1
1463623499.275	 2	 0.822420	 0.324478	 -4.642716	 1.743227	 -0.289017	 -0.425592	 0.069365	 0.759881	 -0.242238	 0.599241	 1
1463623499.285	 2	 0.714490	 0.205371	 -4.537374	 1.745608	 -0.335246	 -0.424868	 0.054454	 0.761022	 -0.258551	 0.592479	 1
1463623499.295	 2	 0.773001	 0.301708	 -4.429346	 1.748464	 -0.380413	 -0.424391	 0.040054	 0.761870	 -0.274453	 0.585343	 1
1463623499.305	 2	 0.968663	 0.477736	 -4.277007	 1.752279	 -0.424554	 -0.425780	 0.026861	 0.762568	 -0.290423	 0.577427	 1
1463623499.315	 2	 1.234575	 0.522469	 -4.014597	 1.755556	 -0.466868	 -0.430241	 0.015394	 0.762750	 -0.306534	 0.569221	 1
1463623499.325	 2	 1.514205	 0.447723	 -3.648973	 1.756415	 -0.506345	 -0.438478	 0.005933	 0.762013	 -0.322597	 0.561456	 1
1463623499.335	 2	 1.788475	 0.311787	 -3.216730	 1.753647	 -0.542204	 -0.450955	 -0.001359	 0.760181	 -0.338418	 0.554614	 1
1463623499.345	 2	 2.034837	 0.123969	 -2.763410	 1.746421	 -0.574012	 -0.467832	 -0.006516	 0.757177	 -0.353848	 0.549028	 1
1463623499.355	 2	 2.179465	 -0.078955	 -2.380752	 1.734805	 -0.601989	 -0.488313	 -0.009999	 0.753118	 -0.368727	 0.544752	 1
1463623499.365	 2	 2.144037	 -0.325986	 -2.139748	 1.719513	 -0.627004	 -0.510267	 -0.012848	 0.748216	 -0.382777	 0.541746	 1
1463623499.385	 3	 1.690443	 -0.924409	 -1.976174	 1.681252	 -0.672027	 -0.550861	 -0.020341	 0.736694	 -0.407659	 0.539150	 1
1463623499.395	 3	 1.347299	 -1.110056	 -1.901377	 1.660426	 -0.692564	 -0.566723	 -0.025763	 0.730602	 -0.417958	 0.539321	 1
1463623499.405	 3	 1.088486	 -1.179023	 -1.689810	 1.640376	 -0.710990	 -0.579922	 -0.031483	 0.724809	 -0.426722	 0.539971	 1
1463623499.415	 3	 0.696924	 -1.272793	 -1.285481	 1.621497	 -0.725381	 -0.589429	 -0.037062	 0.719435	 -0.433167	 0.541670	 1
1463623499.425	 3	 0.374851	 -1.173742	 -0.810688	 1.605837	 -0.734852	 -0.594867	 -0.041801	 0.715017	 -0.437048	 0.544052	 1
1463623499.435	 3	 0.274989	 -1.121129	 -0.489600	 1.592172	 -0.740544	 -0.598446	 -0.045504	 0.711209	 -0.439335	 0.546897	 1
1463623499.445	 3	 0.319352	 -1.259347	 -0.171544	 1.577203	 -0.743153	 -0.602469	 -0.048287	 0.707126	 -0.440817	 0.550747	 1
1463623499.455	 3	 0.441858	 -1.317289	 0.274057	 1.560385	 -0.741597	 -0.608041	 -0.049483	 0.702647	 -0.441518	 0.555788	 1
1463623499.465	 3	 0.631438	 -1.145049	 0.781312	 1.543160	 -0.734928	 -0.615609	 -0.048264	 0.698155	 -0.441393	 0.561625	 1
1463623499.475	 3	 0.860085	 -0.788264	 1.232393	 1.527491	 -0.723397	 -0.626001	 -0.043976	 0.694148	 -0.440854	 0.567338	 1
1463623499.485	 3	 0.932385	 -0.461528	 1.583308	 1.514726	 -0.707905	 -0.637213	 -0.037326	 0.690883	 -0.439647	 0.572711	 1
1463623499.495	 3	 0.897109	 -0.172944	 1.763217	 1.505532	 -0.690108	 -0.647725	 -0.029282	 0.688473	 -0.437780	 0.577491	 1
1463623499.505	 3	 0.788302	 0.008656	 1.827669	 1.499664	 -0.671412	 -0.656691	 -0.020698	 0.686840	 -0.435338	 0.581639	 1
1463623499.515	 3	 0.421374	 -0.103660	 1.738163	 1.495897	 -0.653335	 -0.661822	 -0.013183	 0.685650	 -0.431995	 0.585739	 1
1463623499.525	 3	 -0.237604	 -0.142602	 1.382244	 1.495653	 -0.638550	 -0.659649	 -0.008601	 0.685409	 -0.427403	 0.589463	 1
1463623499.535	 3	 -0.804691	 0.090283	 1.000346	 1.501433	 -0.628222	 -0.650192	 -0.006864	 0.686961	 -0.421847	 0.591678	 1
1463623499.545	 3	 -0.860160	 0.438300	 0.861255	 1.511679	 -0.620016	 -0.638678	 -0.005706	 0.689873	 -0.416228	 0.592281	 1
1463623499.555	 3	 -0.515062	 0.715181	 0.901326	 1.522915	 -0.611485	 -0.630545	 -0.003112	 0.693105	 -0.411481	 0.591843	 1
1463623499.565	 3	 -0.030779	 0.834476	 0.973888	 1.532428	 -0.602014	 -0.628176	 0.001421	 0.695838	 -0.408128	 0.590964	 1
1463623499.575	 3	 0.345809	 0.785699	 0.999997	 1.538934	 -0.591922	 -0.630945	 0.007328	 0.697659	 -0.406077	 0.590187	 1
1463623499.585	 3	 0.438028	 0.633502	 1.023356	 1.542987	 -0.581683	 -0.635849	 0.013524	 0.698714	 -0.404590	 0.589850	 1
1463623499.595	 3	 0.241072	 0.403114	 1.147621	 1.545868	 -0.570506	 -0.639090	 0.019230	 0.699386	 -0.402329	 0.590441	 1
1463623499.605	 3	 -0.097438	 0.106343	 1.447286	 1.547832	 -0.556945	 -0.638546	 0.024271	 0.699760	 -0.398251	 0.592573	 1
1463623499.615	 3	 -0.216941	 0.097066	 1.732799	 1.550207	 -0.540308	 -0.635800	 0.029709	 0.700207	 -0.392589	 0.595568	 1
1463623499.625	 3	 -0.101577	 0.313982	 1.771115	 1.553887	 -0.522530	 -0.633847	 0.036068	 0.700980	 -0.386758	 0.598117	 1
1463623499.635	 3	 -0.050287	 0.510088	 1.554012	 1.558897	 -0.506416	 -0.632938	 0.042433	 0.702137	 -0.381644	 0.599625	 1
1463623499.645	 3	 -0.150769	 0.706214	 1.278548	 1.566169	 -0.492931	 -0.631438	 0.048058	 0.704026	 -0.377025	 0.599908	 1
1463623499.655	 3	 -0.234139	 0.883375	 1.034731	 1.575782	 -0.482015	 -0.628927	 0.052824	 0.706695	 -0.372758	 0.599035	 1
1463623499.665	 3	 -0.164909	 1.027392	 0.828710	 1.586605	 -0.473195	 -0.626847	 0.057191	 0.709764	 -0.369168	 0.597227	 1
1463623499.675	 3	 0.038294	 1.081549	 0.605766	 1.597356	 -0.466521	 -0.626825	 0.061492	 0.712796	 -0.366804	 0.594639	 1
1463623499.685	 3	 0.302187	 1.100477	 0.389427	 1.607119	 -0.462178	 -0.629607	 0.065783	 0.715489	 -0.365982	 0.591443	 1
1463623499.695	 3	 0.539332	 1.039218	 0.251440	 1.615291	 -0.459621	 -0.635106	 0.070135	 0.717644	 -0.366536	 0.587979	 1
1463623499.705	 3	 0.743709	 0.936446	 0.242310	 1.621392	 -0.457554	 -0.642983	 0.074797	 0.719091	 -0.367983	 0.584724	 1
1463623499.715	 3	 0.912686	 0.941885	 0.327216	 1.626348	 -0.455040	 -0.652863	 0.080130	 0.720080	 -0.369892	 0.581587	 1
1463623499.725	 3	 1.061221	 1.057633	 0.508179	 1.631488	 -0.451057	 -0.664528	 0.086652	 0.720962	 -0.371824	 0.578319	 1
1463623499.735	 3	 1.198184	 1.203245	 0.695916	 1.637334	 -0.445259	 -0.677898	 0.094545	 0.721848	 -0.373613	 0.574813	 1
1463623499.745	 3	 1.288867	 1.402060	 0.721489	 1.644652	 -0.438927	 -0.692430	 0.103319	 0.722995	 -0.375443	 0.570654	 1
1463623499.755	 3	 1.397886	 1.544402	 0.593973	 1.653235	 -0.433681	 -0.708019	 0.112352	 0.724388	 -0.377774	 0.565619	 1
1463623499.765	 3	 1.563613	 1.617424	 0.317177	 1.662102	 -0.431042	 -0.725058	 0.121101	 0.725778	 -0.381228	 0.559684	 1
1463623499.775	 3	 1.674034	 1.597266	 -0.070844	 1.670646	 -0.432323	 -0.743241	 0.128915	 0.727074	 -0.386150	 0.552840	 1
1463623499.785	 3	 1.606743	 1.288903	 -0.526077	 1.677133	 -0.438052	 -0.760709	 0.134621	 0.727966	 -0.392301	 0.545933	 1
1463623499.795	 3	 1.331670	 0.922841	 -1.101534	 1.681153	 -0.449090	 -0.775032	 0.136960	 0.728593	 -0.399326	 0.539381	 1
1463623499.805	 3	 1.039925	 0.541741	 -1.557620	 1.682798	 -0.464782	 -0.785531	 0.135901	 0.729031	 -0.406847	 0.533404	 1
1463623499.815	 3	 0.812257	 0.477600	 -1.840793	 1.684110	 -0.483418	 -0.792958	 0.132682	 0.729694	 -0.414404	 0.527458	 1
1463623499.825	 3	 0.649217	 0.636681	 -1.970048	 1.687556	 -0.503552	 -0.798127	 0.128591	 0.731083	 -0.421619	 0.520788	 1
1463623499.835	 3	 0.671740	 0.813804	 -1.883335	 1.693029	 -0.523429	 -0.802936	 0.124904	 0.732940	 -0.428486	 0.513418	 1
1463623499.845	 3	 0.830124	 1.051234	 -1.785520	 1.699529	 -0.542300	 -0.809359	 0.122396	 0.734846	 -0.435356	 0.505456	 1
1463623499.855	 3	 1.054570	 1.542246	 -1.746670	 1.709018	 -0.561020	 -0.818228	 0.121537	 0.737265	 -0.442558	 0.495794	 1
1463623499.865	 3	 1.270218	 1.976924	 -1.706135	 1.721606	 -0.579753	 -0.829608	 0.122364	 0.740184	 -0.450118	 0.484303	 1
1463623499.875	 3	 1.450236	 2.328704	 -1.671390	 1.736494	 -0.598546	 -0.843153	 0.124592	 0.743377	 -0.457967	 0.471310	 1
1463623499.885	 3	 1.598384	 2.702986	 -1.626567	 1.753875	 -0.617397	 -0.858433	 0.128142	 0.746862	 -0.465941	 0.456810	 1
1463623499.895	 3	 1.748409	 3.024070	 -1.583321	 1.773430	 -0.636299	 -0.875396	 0.132955	 0.750503	 -0.473992	 0.440907	 1
1463623499.905	 3	 1.865550	 3.196043	 -1.581675	 1.794028	 -0.655624	 -0.893732	 0.138555	 0.754019	 -0.482179	 0.423984	 1
1463623499.915	 3	 1.917678	 3.213521	 -1.643780	 1.814548	 -0.675826	 -0.912567	 0.144206	 0.757200	 -0.490486	 0.406541	 1
1463623499.925	 3	 1.771772	 3.155606	 -1.768809	 1.835349	 -0.697202	 -0.929803	 0.149107	 0.760261	 -0.498542	 0.388878	 1
1463623499.935	 3	 1.250929	 2.811481	 -1.912420	 1.857573	 -0.719053	 -0.940775	 0.151985	 0.763752	 -0.505222	 0.371933	 1
1463623499.945	 3	 0.699115	 1.748755	 -2.013422	 1.876267	 -0.740538	 -0.943594	 0.151091	 0.766917	 -0.510472	 0.358370	 1
1463623499.955	 3	 0.238691	 0.521612	 -2.016570	 1.886977	 -0.760823	 -0.939681	 0.146016	 0.768948	 -0.514785	 0.349850	 1
1463623499.965	 3	 -0.238902	 -0.126194	 -1.925718	 1.894047	 -0.779035	 -0.929592	 0.138297	 0.770644	 -0.517736	 0.344863	 1
1463623499.975	 3	 -0.704506	 -0.289028	 -1.541637	 1.902344	 -0.792797	 -0.914104	 0.130202	 0.772837	 -0.518465	 0.342001	 1
1463623499.985	 3	 -0.993108	 -0.358970	 -1.036735	 1.911914	 -0.800687	 -0.895967	 0.123221	 0.775418	 -0.517041	 0.340899	 1
1463623499.995	 3	 -1.025385	 -0.572531	 -0.579097	 1.919310	 -0.803664	 -0.878664	 0.117494	 0.777630	 -0.514512	 0.341707	 1
1463623500.005	 3	 -0.819742	 -0.930133	 -0.234646	 1.920626	 -0.803587	 -0.865163	 0.112602	 0.778635	 -0.512097	 0.344680	 1
1463623500.015	 3	 -0.444046	 -1.096694	 -0.024183	 1.915360	 -0.802369	 -0.857478	 0.108639	 0.778190	 -0.510696	 0.349010	 1
1463623500.025	 3	 0.017709	 -0.971220	 0.011332	 1.906220	 -0.801885	 -0.856135	 0.105932	 0.776674	 -0.510808	 0.353031	 1
1463623500.035	 3	 0.530886	 -0.671546	 -0.110779	 1.894946	 -0.803863	 -0.861286	 0.104432	 0.774341	 -0.512893	 0.355572	 1
1463623500.045	 3	 1.004813	 -0.225809	 -0.347357	 1.883616	 -0.809349	 -0.872244	 0.104041	 0.771584	 -0.517023	 0.355698	 1
1463623500.055	 3	 1.348924	 0.330661	 -0.620141	 1.874408	 -0.818459	 -0.887488	 0.104665	 0.768892	 -0.522805	 0.352881	 1
1463623500.065	 3	 1.508164	 0.862965	 -0.926711	 1.869209	 -0.830927	 -0.904590	 0.105938	 0.766736	 -0.529575	 0.347049	 1
1463623500.075	 3	 1.555444	 1.238817	 -1.292379	 1.868199	 -0.846906	 -0.921483	 0.107092	 0.765226	 -0.536939	 0.338610	 1
1463623500.085	 3	 1.567354	 1.421692	 -1.736270	 1.870291	 -0.866994	 -0.937093	 0.107270	 0.764170	 -0.544887	 0.328078	 1
1463623500.095	 3	 1.523638	 1.415905	 -2.258167	 1.874473	 -0.891840	 -0.950212	 0.105556	 0.763381	 -0.553416	 0.315972	 1
1463623500.105	 3	 1.434576	 1.304903	 -2.787042	 1.880265	 -0.921591	 -0.959768	 0.101385	 0.762745	 -0.562407	 0.302719	 1
1463623500.115	 3	 1.276637	 1.301322	 -3.051075	 1.888743	 -0.954295	 -0.965305	 0.095530	 0.762397	 -0.571255	 0.288604	 1
1463623500.125	 3	 1.081288	 1.317607	 -3.084393	 1.900545	 -0.987065	 -0.966947	 0.089174	 0.762417	 -0.579288	 0.274216	 1
1463623500.135	 3	 0.904663	 1.290778	 -3.188615	 1.915943	 -1.019940	 -0.964118	 0.082208	 0.762750	 -0.586542	 0.259661	 1
1463623500.145	 3	 0.782308	 1.162447	 -3.480763	 1.935093	 -1.054567	 -0.955858	 0.073833	 0.763205	 -0.593436	 0.244744	 1
1463623500.155	 3	 0.697098	 0.872468	 -3.901564	 1.958002	 -1.092536	 -0.940654	 0.063037	 0.763492	 -0.600356	 0.229521	 1
1463623500.165	 3	 0.528759	 0.471155	 -4.161747	 1.985519	 -1.132616	 -0.916395	 0.049728	 0.763550	 -0.606957	 0.214759	 1
1463623500.175	 3	 0.308713	 0.040474	 -4.239508	 2.019488	 -1.172549	 -0.880860	 0.034406	 0.763497	 -0.612699	 0.201216	 1
1463623500.185	 3	 0.233687	 -0.345669	 -4.130543	 2.058933	 -1.210849	 -0.835675	 0.017935	 0.763067	 -0.617708	 0.189322	 1
1463623500.195	 3	 0.334438	 -0.542351	 -3.785823	 2.099835	 -1.246886	 -0.786797	 0.001596	 0.761784	 -0.622597	 0.179039	 1
1463623500.205	 3	 0.421769	 -0.420951	 -3.436949	 2.142547	 -1.279025	 -0.737213	 -0.012885	 0.760038	 -0.627180	 0.169769	 1
1463623500.215	 3	 0.440397	 -0.218002	 -3.017444	 2.188370	 -1.307364	 -0.686655	 -0.025257	 0.758126	 -0.631404	 0.161050	 1
1463623500.225	 3	 0.474303	 -0.064048	 -2.454650	 2.233673	 -1.331087	 -0.638978	 -0.035053	 0.756190	 -0.635202	 0.153184	 1
1463623500.235	 3	 0.420220	 -0.038474	 -1.590674	 2.267429	 -1.348081	 -0.603913	 -0.041738	 0.754400	 -0.638242	 0.147597	 1
1463623500.245	 3	 0.221446	 -0.148756	 -0.452801	 2.278480	 -1.355603	 -0.591370	 -0.044744	 0.753263	 -0.639814	 0.145709	 1
1463623500.255	 3	 -0.066727	 -0.148667	 0.615471	 2.265326	 -1.352769	 -0.603247	 -0.043796	 0.753194	 -0.639546	 0.147516	 1
1463623500.265	 3	 -0.429810	 -0.093560	 1.027333	 2.249266	 -1.343101	 -0.618518	 -0.040806	 0.754434	 -0.637478	 0.150952	 1
1463623500.275	 3	 -0.547551	 0.081020	 1.000141	 2.240154	 -1.331763	 -0.628220	 -0.037233	 0.756351	 -0.634692	 0.153988	 1
1463623500.285	 3	 -0.501614	 0.277110	 0.778821	 2.237885	 -1.321955	 -0.632913	 -0.033730	 0.758320	 -0.632118	 0.155691	 1
1463623500.295	 3	 -0.400544	 0.443913	 0.501329	 2.241196	 -1.314820	 -0.633660	 -0.030621	 0.760076	 -0.630114	 0.155894	 1
1463623500.305	 3	 -0.279217	 0.587426	 0.246891	 2.248672	 -1.310487	 -0.631645	 -0.027957	 0.761528	 -0.628775	 0.154710	 1
1463623500.315	 3	 -0.140767	 0.670868	 0.075940	 2.257733	 -1.308512	 -0.629058	 -0.025607	 0.762601	 -0.628105	 0.152535	 1
1463623500.325	 3	 0.004066	 0.649860	 0.024393	 2.264603	 -1.308080	 -0.628800	 -0.023442	 0.763208	 -0.628040	 0.150097	 1
1463623500.335	 3	 0.130454	 0.502872	 0.046437	 2.266268	 -1.308424	 -0.632745	 -0.021498	 0.763305	 -0.628457	 0.148142	 1
1463623500.345	 3	 0.198696	 0.275048	 0.038015	 2.256587	 -1.331512	 -0.645787	 -0.025299	 0.757896	 -0.636176	 0.142245	 1
1463623500.355	 3	 0.203814	 0.050201	 -0.018476	 2.251122	 -1.332849	 -0.652493	 -0.024831	 0.757310	 -0.636977	 0.141861	 1
1463623500.365	 3	 0.168681	 -0.125472	 -0.057106	 2.245859	 -1.334361	 -0.657032	 -0.025169	 0.756677	 -0.637676	 0.142043	 1
1463623500.375	 3	 0.137113	 -0.260426	 -0.052758	 2.240324	 -1.335695	 -0.660374	 -0.026006	 0.756047	 -0.638232	 0.142748	 1
1463623500.385	 3	 0.111865	 -0.423102	 -0.041199	 2.206144	 -1.334583	 -0.690086	 -0.025422	 0.754185	 -0.639621	 0.146435	 1
1463623500.395	 3	 0.119819	 -0.591849	 0.012582	 2.196828	 -1.335290	 -0.693974	 -0.027121	 0.753408	 -0.639985	 0.148525	 1
1463623500.405	 3	 0.135686	 -0.675456	 0.076677	 2.184217	 -1.335548	 -0.700134	 -0.028907	 0.752499	 -0.640342	 0.151236	 1
1463623500.415	 3	 0.136084	 -0.610410	 0.099660	 2.170818	 -1.335543	 -0.707384	 -0.030470	 0.751585	 -0.640695	 0.153954	 1
1463623500.435	 4	 0.103521	 -0.228808	 0.048057	 2.164925	 -1.335861	 -0.706092	 -0.032928	 0.751046	 -0.640589	 0.156500	 1
1463623500.445	 4	 0.079922	 -0.009797	 0.025788	 2.160553	 -1.336089	 -0.709946	 -0.032943	 0.750723	 -0.640881	 0.156848	 1
1463623500.455	 4	 0.054974	 0.160317	 -0.004449	 2.181472	 -1.338809	 -0.690895	 -0.034120	 0.751501	 -0.640501	 0.154401	 1
1463623500.465	 4	 0.029859	 0.263277	 -0.033034	 2.183251	 -1.339231	 -0.691559	 -0.033412	 0.751566	 -0.640700	 0.153414	 1
1463623500.475	 4	 -0.005280	 0.302537	 -0.060073	 2.187407	 -1.339690	 -0.690321	 -0.032666	 0.751772	 -0.640802	 0.152133	 1
1463623500.485	 4	 -0.038248	 0.338692	 -0.074370	 2.193525	 -1.340091	 -0.687416	 -0.031903	 0.752108	 -0.640793	 0.150662	 1
1463623500.495	 4	 -0.059447	 0.358994	 -0.065511	 2.175379	 -1.345621	 -0.708354	 -0.031327	 0.749984	 -0.643612	 0.149352	 1
1463623500.505	 4	 -0.036942	 0.366480	 -0.050716	 2.181978	 -1.345809	 -0.705343	 -0.030382	 0.750391	 -0.643542	 0.147798	 1
1463623500.515	 4	 0.028176	 0.357892	 -0.035377	 2.186278	 -1.346192	 -0.704625	 -0.029370	 0.750621	 -0.643659	 0.146318	 1
1463623500.525	 4	 0.116910	 0.352648	 0.010695	 2.186537	 -1.346763	 -0.707980	 -0.028178	 0.750575	 -0.644065	 0.144995	 1
1463623500.535	 4	 0.227282	 0.395329	 0.074077	 2.181682	 -1.347428	 -0.716832	 -0.026597	 0.750215	 -0.644820	 0.143794	 1
1463623500.545	 4	 0.332578	 0.516528	 0.109458	 2.172753	 -1.348350	 -0.730973	 -0.024423	 0.749577	 -0.645969	 0.142341	 1
1463623500.555	 4	 0.356512	 0.597428	 0.128121	 2.162447	 -1.349331	 -0.747486	 -0.021834	 0.748852	 -0.647282	 0.140607	 1
1463623500.565	 4	 0.294693	 0.609343	 0.133021	 2.150758	 -1.351194	 -0.765583	 -0.019359	 0.747872	 -0.648919	 0.138624	 1
1463623500.575	 4	 0.177100	 0.563972	 0.135754	 2.145442	 -1.351202	 -0.776958	 -0.016834	 0.747608	 -0.649656	 0.136916	 1
1463623500.585	 4	 0.046744	 0.513445	 0.155603	 2.144143	 -1.350373	 -0.783657	 -0.014522	 0.747723	 -0.649887	 0.135448	 1
1463623500.595	 4	 -0.027705	 0.540484	 0.187409	 2.145609	 -1.348785	 -0.787551	 -0.012150	 0.748137	 -0.649747	 0.134062	 1
1463623500.605	 4	 -0.052699	 0.636602	 0.230085	 2.154303	 -1.346554	 -0.785205	 -0.009587	 0.749110	 -0.649056	 0.132169	 1
1463623500.615	 4	 -0.093749	 0.712625	 0.283372	 2.157689	 -1.343833	 -0.788893	 -0.006355	 0.749843	 -0.648600	 0.130434	 1
1463623500.625	 4	 -0.190204	 0.627804	 0.281291	 2.163302	 -1.340571	 -0.789967	 -0.003234	 0.750804	 -0.647827	 0.128855	 1
1463623500.635	 4	 -0.331070	 0.213088	 0.237094	 2.171065	 -1.336828	 -0.785451	 -0.001390	 0.751982	 -0.646556	 0.128399	 1
1463623500.645	 4	 -0.374732	 -0.380865	 0.156197	 2.165893	 -1.340877	 -0.787778	 -0.003301	 0.750911	 -0.647771	 0.128509	 1
1463623500.655	 4	 -0.320023	 -0.922005	 0.064358	 2.167678	 -1.338264	 -0.777782	 -0.005761	 0.751484	 -0.646433	 0.131769	 1
1463623500.665	 4	 -0.251687	 -1.295087	 -0.020706	 2.164871	 -1.336782	 -0.768195	 -0.009864	 0.751532	 -0.645385	 0.136313	 1
1463623500.675	 4	 -0.233448	 -1.479329	 -0.046026	 2.159580	 -1.335837	 -0.758779	 -0.014850	 0.751281	 -0.644445	 0.141587	 1
1463623500.685	 4	 -0.268707	 -1.490899	 -0.042631	 2.155105	 -1.334872	 -0.748017	 -0.020069	 0.751043	 -0.643371	 0.146987	 1
1463623500.695	 4	 -0.320353	 -1.360929	 -0.034577	 2.152615	 -1.333486	 -0.736166	 -0.024942	 0.750982	 -0.642084	 0.152093	 1
1463623500.705	 4	 -0.333074	 -1.125755	 -0.023752	 2.152806	 -1.331862	 -0.723698	 -0.029122	 0.751133	 -0.640685	 0.156443	 1
1463623500.715	 4	 -0.329542	 -0.848006	 -0.002015	 2.155117	 -1.330121	 -0.711895	 -0.032347	 0.751463	 -0.639312	 0.159802	 1
1463623500.725	 4	 -0.319745	 -0.593722	 0.013055	 2.159412	 -1.328273	 -0.700740	 -0.034671	 0.751975	 -0.637978	 0.162224	 1
1463623500.735	 4	 -0.285698	 -0.374845	 -0.004388	 2.164993	 -1.326612	 -0.690598	 -0.036265	 0.752569	 -0.636790	 0.163780	 1
1463623500.745	 4	 -0.229479	 -0.199699	 -0.029892	 2.171235	 -1.325438	 -0.681691	 -0.037320	 0.753146	 -0.635845	 0.164561	 1
1463623500.755	 4	 -0.149940	 -0.057598	 -0.055907	 2.177057	 -1.324874	 -0.674729	 -0.037944	 0.753604	 -0.635223	 0.164722	 1
1463623500.765	 4	 -0.030510	 0.204232	 -0.124806	 2.168909	 -1.322835	 -0.683645	 -0.036635	 0.753496	 -0.635233	 0.165472	 1
1463623500.775	 4	 0.017400	 0.405124	 -0.123354	 2.175280	 -1.324085	 -0.680889	 -0.035980	 0.753727	 -0.635473	 0.163633	 1
1463623500.785	 4	 -0.063676	 0.226150	 0.097365	 2.178754	 -1.323547	 -0.680340	 -0.034941	 0.754106	 -0.635338	 0.162632	 1
1463623500.795	 4	 -0.009238	 0.004741	 0.094831	 2.177686	 -1.322363	 -0.681927	 -0.034371	 0.754278	 -0.635115	 0.162828	 1
1463623500.805	 4	 0.127345	 -0.075661	 -0.086250	 2.177432	 -1.330891	 -0.681738	 -0.036768	 0.752582	 -0.637494	 0.160841	 1
1463623500.815	 4	 0.151521	 -0.094327	 -0.156974	 2.174824	 -1.333004	 -0.683457	 -0.037510	 0.751989	 -0.638175	 0.160742	 1
1463623500.825	 4	 0.071736	 -0.102071	 -0.083880	 2.173107	 -1.334431	 -0.684215	 -0.038150	 0.751584	 -0.638603	 0.160786	 1
1463623500.835	 4	 -0.038045	 -0.138407	 -0.005461	 2.172732	 -1.334557	 -0.683285	 -0.038652	 0.751512	 -0.638556	 0.161192	 1
1463623500.845	 4	 -0.134275	 -0.213331	 0.037310	 2.173937	 -1.333701	 -0.680064	 -0.039253	 0.751715	 -0.638080	 0.161983	 1
1463623500.855	 4	 -0.181362	 -0.277783	 0.080882	 2.166125	 -1.327732	 -0.684838	 -0.038369	 0.752337	 -0.636650	 0.164905	 1
1463623500.865	 4	 -0.173692	 -0.272170	 0.124563	 2.166695	 -1.325786	 -0.681396	 -0.038967	 0.752696	 -0.635832	 0.166276	 1
1463623500.875	 4	 -0.160636	 -0.240121	 0.149261	 2.166343	 -1.323658	 -0.679191	 -0.039346	 0.753038	 -0.635044	 0.167646	 1
1463623500.885	 4	 -0.125397	 -0.202220	 0.109873	 2.165970	 -1.321885	 -0.677392	 -0.039672	 0.753316	 -0.634387	 0.168803	 1
1463623500.895	 4	 -0.063659	 -0.183693	 0.045455	 2.174262	 -1.328545	 -0.667470	 -0.042529	 0.752502	 -0.635600	 0.167163	 1
1463623500.905	 4	 -0.008372	 -0.188446	 -0.000899	 2.172941	 -1.328353	 -0.666924	 -0.043104	 0.752418	 -0.635472	 0.167882	 1
1463623500.915	 4	 0.024540	 -0.209942	 -0.018438	 2.170643	 -1.328578	 -0.667173	 -0.043800	 0.752186	 -0.635507	 0.168611	 1
1463623500.925	 4	 0.051361	 -0.166528	 -0.034254	 2.167998	 -1.329079	 -0.668014	 -0.044456	 0.751882	 -0.635661	 0.169213	 1
1463623500.935	 4	 0.058176	 -0.065580	 -0.048346	 2.178342	 -1.332544	 -0.657118	 -0.046171	 0.751818	 -0.635955	 0.167925	 1
1463623500.945	 4	 0.041583	 0.041848	 -0.054662	 2.178193	 -1.333261	 -0.657450	 -0.046281	 0.751669	 -0.636183	 0.167697	 1
1463623500.955	 4	 0.014156	 0.102614	 -0.046397	 2.179543	 -1.333781	 -0.657001	 -0.046155	 0.751668	 -0.636324	 0.167204	 1
1463623500.965	 4	 -0.002886	 0.100615	 -0.035610	 2.181490	 -1.334101	 -0.656065	 -0.045971	 0.751744	 -0.636381	 0.166691	 1
1463623500.975	 4	 0.001263	 0.059236	 -0.017887	 2.176429	 -1.332936	 -0.661645	 -0.045181	 0.751683	 -0.636402	 0.167107	 1
1463623500.985	 4	 -0.008682	 -0.042585	 0.017488	 2.176269	 -1.332834	 -0.661666	 -0.045197	 0.751690	 -0.636371	 0.167185	 1
1463623500.995	 4	 -0.012305	 -0.155115	 0.045248	 2.174540	 -1.332434	 -0.662128	 -0.045469	 0.751636	 -0.636258	 0.167788	 1
1463623501.005	 4	 0.013018	 -0.226365	 0.057154	 2.170940	 -1.332018	 -0.663652	 -0.045932	 0.751450	 -0.636186	 0.168760	 1
1463623501.015	 4	 0.053610	 -0.222240	 0.057913	 2.156990	 -1.332073	 -0.675147	 -0.046070	 0.750521	 -0.636855	 0.170325	 1
1463623501.025	 4	 0.097752	 -0.140469	 0.058289	 2.151038	 -1.332074	 -0.679577	 -0.046304	 0.750115	 -0.637096	 0.171147	 1
1463623501.035	 4	 0.140049	 -0.001223	 0.063480	 2.144791	 -1.332261	 -0.685610	 -0.046082	 0.749684	 -0.637520	 0.171519	 1
1463623501.045	 4	 0.176995	 0.154881	 0.044361	 2.139008	 -1.332750	 -0.692751	 -0.045382	 0.749257	 -0.638134	 0.171284	 1
1463623501.055	 4	 0.212834	 0.308847	 0.020944	 2.142727	 -1.334620	 -0.692207	 -0.044903	 0.749204	 -0.638684	 0.169585	 1
1463623501.065	 4	 0.154053	 0.270901	 0.044549	 2.138692	 -1.335292	 -0.699474	 -0.043652	 0.748896	 -0.639393	 0.168601	 1
1463623501.075	 4	 0.090273	 0.070304	 0.077342	 2.134739	 -1.335232	 -0.704770	 -0.042917	 0.748689	 -0.639737	 0.168403	 1
1463623501.085	 4	 0.066851	 -0.152907	 0.088258	 2.129351	 -1.334884	 -0.709318	 -0.042843	 0.748397	 -0.639911	 0.169055	 1
1463623501.095	 4	 0.064842	 -0.345503	 0.075785	 2.120189	 -1.337545	 -0.715518	 -0.044187	 0.747258	 -0.640952	 0.169801	 1
1463623501.105	 4	 0.074886	 -0.460558	 0.054377	 2.111913	 -1.337408	 -0.719538	 -0.045300	 0.746667	 -0.641074	 0.171640	 1
1463623501.115	 4	 0.067189	 -0.496800	 0.040252	 2.103527	 -1.337404	 -0.723091	 -0.046661	 0.746026	 -0.641187	 0.173631	 1
1463623501.125	 4	 0.053515	 -0.453164	 0.038646	 2.095909	 -1.337358	 -0.726095	 -0.047971	 0.745440	 -0.641257	 0.175521	 1
1463623501.135	 4	 0.034759	 -0.355238	 0.039713	 2.096028	 -1.337169	 -0.722394	 -0.049260	 0.745395	 -0.640884	 0.176713	 1
1463623501.145	 4	 0.017164	 -0.246636	 0.048337	 2.091580	 -1.336867	 -0.724152	 -0.049946	 0.745099	 -0.640850	 0.177887	 1
1463623501.155	 4	 -0.009271	 -0.199716	 0.054332	 2.088413	 -1.336384	 -0.725305	 -0.050396	 0.744933	 -0.640747	 0.178825	 1
1463623501.165	 4	 -0.053264	 -0.242201	 0.044728	 2.086724	 -1.335756	 -0.724684	 -0.050993	 0.744879	 -0.640484	 0.179821	 1
1463623501.175	 4	 -0.060890	 -0.284693	 0.050797	 2.077217	 -1.335562	 -0.731173	 -0.051568	 0.744222	 -0.640775	 0.181333	 1
1463623501.185	 4	 -0.034249	 -0.304875	 0.065298	 2.074503	 -1.334818	 -0.730867	 -0.052341	 0.744099	 -0.640483	 0.182640	 1
1463623501.195	 4	 0.004076	 -0.318864	 0.058440	 2.070345	 -1.334252	 -0.731899	 -0.053129	 0.743846	 -0.640322	 0.184008	 1
1463623501.205	 4	 0.035991	 -0.319148	 0.030384	 2.068379	 -1.337895	 -0.730783	 -0.055203	 0.742990	 -0.641108	 0.184119	 1
1463623501.215	 4	 0.048886	 -0.273680	 -0.001278	 2.063658	 -1.338054	 -0.732660	 -0.056064	 0.742578	 -0.641191	 0.185228	 1
1463623501.225	 4	 0.061954	 -0.192048	 -0.032605	 2.059874	 -1.338546	 -0.734379	 -0.056779	 0.742189	 -0.641370	 0.185948	 1
1463623501.235	 4	 0.005587	 -0.187315	 0.010560	 2.057185	 -1.338774	 -0.735281	 -0.057372	 0.741924	 -0.641435	 0.186595	 1
1463623501.245	 4	 -0.149168	 -0.225906	 0.053113	 2.058044	 -1.337796	 -0.732169	 -0.057973	 0.742086	 -0.640919	 0.187538	 1
1463623501.255	 4	 -0.238935	 -0.164710	 -0.051046	 2.064796	 -1.336913	 -0.723287	 -0.058858	 0.742617	 -0.640054	 0.188114	 1
1463623501.265	 4	 -0.221518	 -0.005871	 -0.144598	 2.090381	 -1.336939	 -0.697336	 -0.060334	 0.744238	 -0.638390	 0.186891	 1
1463623501.275	 4	 -0.164511	 0.104442	 -0.163251	 2.101102	 -1.337439	 -0.687177	 -0.060833	 0.744836	 -0.637902	 0.186011	 1
1463623501.285	 4	 -0.150719	 0.070510	 -0.143438	 2.110665	 -1.337963	 -0.678252	 -0.061252	 0.745352	 -0.637507	 0.185158	 1
1463623501.295	 4	 -0.160846	 -0.073819	 -0.103128	 2.118595	 -1.338116	 -0.669764	 -0.061931	 0.745795	 -0.637007	 0.184867	 1
1463623501.305	 4	 -0.133659	 -0.240555	 -0.054819	 2.111638	 -1.338858	 -0.674220	 -0.062687	 0.745147	 -0.637406	 0.185850	 1
1463623501.315	 4	 -0.077451	 -0.325717	 -0.042246	 2.112790	 -1.338747	 -0.669827	 -0.063927	 0.745137	 -0.637003	 0.186849	 1
1463623501.325	 4	 -0.048332	 -0.240888	 -0.066223	 2.113309	 -1.338979	 -0.666486	 -0.065069	 0.745033	 -0.636770	 0.187660	 1
1463623501.335	 4	 -0.031451	 -0.042162	 -0.082639	 2.115411	 -1.339484	 -0.663354	 -0.065703	 0.745030	 -0.636682	 0.187745	 1
1463623501.345	 4	 -0.001620	 0.158879	 -0.067163	 2.115359	 -1.339817	 -0.664374	 -0.065429	 0.744995	 -0.636867	 0.187355	 1
1463623501.355	 4	 0.039884	 0.345023	 -0.048740	 2.118449	 -1.340419	 -0.664258	 -0.064651	 0.745163	 -0.637121	 0.186087	 1
1463623501.365	 4	 0.088995	 0.565135	 -0.036462	 2.121609	 -1.341158	 -0.666232	 -0.063108	 0.745376	 -0.637607	 0.184092	 1
1463623501.375	 4	 0.151857	 0.759678	 -0.024541	 2.124414	 -1.342110	 -0.670687	 -0.060809	 0.745585	 -0.638361	 0.181382	 1
1463623501.385	 4	 0.227262	 0.885157	 0.002622	 2.123807	 -1.342965	 -0.680017	 -0.057755	 0.745642	 -0.639415	 0.178409	 1
1463623501.395	 4	 0.297120	 0.948061	 0.051624	 2.122048	 -1.344098	 -0.691426	 -0.054372	 0.745589	 -0.640681	 0.175122	 1
1463623501.405	 4	 0.383803	 0.957738	 0.101050	 2.116162	 -1.345228	 -0.707285	 -0.050657	 0.745281	 -0.642206	 0.171935	 1
1463623501.415	 4	 0.441429	 0.924877	 0.139676	 2.106469	 -1.346314	 -0.726824	 -0.046794	 0.744729	 -0.643923	 0.168978	 1
1463623501.425	 4	 0.458534	 0.910120	 0.164968	 2.094674	 -1.347229	 -0.748262	 -0.042873	 0.744054	 -0.645693	 0.166212	 1
1463623501.435	 4	 0.428783	 0.923097	 0.182400	 2.083234	 -1.347832	 -0.769413	 -0.038876	 0.743436	 -0.647357	 0.163466	 1
1463623501.445	 4	 0.361538	 0.924323	 0.177668	 2.073963	 -1.348101	 -0.788422	 -0.034893	 0.742988	 -0.648794	 0.160677	 1
1463623501.455	 4	 0.260919	 0.873287	 0.146202	 2.068404	 -1.348115	 -0.803232	 -0.031201	 0.742788	 -0.649885	 0.157930	 1
1463623501.465	 4	 0.135470	 0.791389	 0.095375	 2.068038	 -1.348002	 -0.811957	 -0.028046	 0.742908	 -0.650535	 0.155261	 1
1463623501.475	 4	 0.020480	 0.664783	 0.044041	 2.072005	 -1.347736	 -0.815081	 -0.025518	 0.743300	 -0.650763	 0.152845	 1
1463623501.485	 4	 -0.046627	 0.478732	 0.027973	 2.077936	 -1.347331	 -0.814413	 -0.023720	 0.743810	 -0.650686	 0.150970	 1
1463623501.495	 4	 -0.081626	 0.265338	 0.067857	 2.082743	 -1.346484	 -0.812759	 -0.022527	 0.744295	 -0.650408	 0.149955	 1
1463623501.505	 4	 -0.095255	 0.073049	 0.091737	 2.093011	 -1.346745	 -0.803818	 -0.022593	 0.744917	 -0.649921	 0.148967	 1
1463623501.515	 4	 -0.086263	 -0.077827	 0.116899	 2.093650	 -1.345368	 -0.802724	 -0.022400	 0.745189	 -0.649501	 0.149464	 1
1463623501.525	 4	 -0.067343	 -0.166986	 0.150009	 2.091777	 -1.343764	 -0.803101	 -0.022409	 0.745328	 -0.649106	 0.150482	 1
1463623501.535	 4	 -0.031089	 -0.175580	 0.152811	 2.088311	 -1.342242	 -0.804852	 -0.022446	 0.745346	 -0.648818	 0.151626	 1
1463623501.545	 4	 0.016021	 -0.189178	 0.202298	 2.082348	 -1.345510	 -0.809068	 -0.023749	 0.744388	 -0.649883	 0.151573	 1
1463623501.555	 4	 0.030223	 -0.142226	 0.229256	 2.074943	 -1.343677	 -0.815044	 -0.023403	 0.744203	 -0.649797	 0.152897	 1
1463623501.565	 4	 0.047769	 -0.046516	 0.234256	 2.067770	 -1.341800	 -0.821636	 -0.022738	 0.744040	 -0.649759	 0.153949	 1
1463623501.575	 4	 0.084608	 0.080923	 0.222332	 2.060829	 -1.340152	 -0.829257	 -0.021678	 0.743860	 -0.649867	 0.154517	 1
1463623501.585	 4	 0.124572	 0.197651	 0.201750	 2.051311	 -1.339465	 -0.840627	 -0.020344	 0.743354	 -0.650480	 0.154554	 1
1463623501.595	 4	 0.162335	 0.265776	 0.224436	 2.043885	 -1.338243	 -0.850845	 -0.018603	 0.743073	 -0.650904	 0.154337	 1
1463623501.605	 4	 0.191273	 0.284897	 0.232888	 2.035350	 -1.337017	 -0.862523	 -0.016680	 0.742708	 -0.651439	 0.154056	 1
1463623501.615	 4	 0.197543	 0.267766	 0.219885	 2.026577	 -1.335905	 -0.874394	 -0.014800	 0.742295	 -0.652024	 0.153766	 1
1463623501.625	 4	 0.186434	 0.199499	 0.189534	 2.013409	 -1.333283	 -0.889953	 -0.012533	 0.741775	 -0.652528	 0.154339	 1
1463623501.635	 4	 0.152793	 0.105787	 0.160179	 2.005708	 -1.332434	 -0.899185	 -0.011366	 0.741358	 -0.653001	 0.154430	 1
1463623501.645	 4	 0.119283	 0.028130	 0.144828	 1.998891	 -1.331631	 -0.906677	 -0.010572	 0.740986	 -0.653362	 0.154746	 1
1463623501.655	 4	 0.098799	 0.000396	 0.125564	 1.992880	 -1.330881	 -0.912902	 -0.010001	 0.740656	 -0.653646	 0.155161	 1
1463623501.665	 4	 0.087399	 0.065393	 0.135837	 1.992446	 -1.331274	 -0.914040	 -0.009842	 0.740574	 -0.653820	 0.154833	 1
1463623501.675	 4	 0.059319	 0.201783	 0.158666	 1.989018	 -1.330149	 -0.919268	 -0.008682	 0.740488	 -0.653959	 0.154727	 1
1463623501.685	 4	 0.008814	 0.339265	 0.176372	 1.988600	 -1.328696	 -0.922900	 -0.007028	 0.740668	 -0.653917	 0.154125	 1
1463623501.695	 4	 -0.021682	 0.418208	 0.196556	 1.990007	 -1.326862	 -0.925566	 -0.005017	 0.741033	 -0.653721	 0.153278	 1
1463623501.705	 4	 -0.018258	 0.488207	 0.169431	 1.995662	 -1.327325	 -0.924787	 -0.003599	 0.741399	 -0.653776	 0.151300	 1
1463623501.715	 4	 0.014678	 0.493118	 0.126560	 1.998216	 -1.326108	 -0.927281	 -0.001467	 0.741760	 -0.653697	 0.149899	 1
1463623501.725	 4	 0.066594	 0.421634	 0.116917	 1.998780	 -1.325254	 -0.931253	 0.000453	 0.741919	 -0.653805	 0.148645	 1
1463623501.735	 4	 0.118461	 0.335297	 0.112464	 1.996651	 -1.324660	 -0.937136	 0.002121	 0.741838	 -0.654111	 0.147688	 1
1463623501.745	 4	 0.143725	 0.253376	 0.120010	 1.989757	 -1.324188	 -0.946902	 0.003632	 0.741378	 -0.654737	 0.147190	 1
1463623501.755	 4	 0.138129	 0.190705	 0.129068	 1.984612	 -1.323596	 -0.954322	 0.004880	 0.741061	 -0.655165	 0.146845	 1
1463623501.765	 4	 0.101498	 0.135349	 0.107556	 1.980244	 -1.322993	 -0.960371	 0.005877	 0.740802	 -0.655490	 0.146663	 1
1463623501.775	 4	 0.054014	 0.059660	 0.064635	 1.977455	 -1.322558	 -0.964061	 0.006465	 0.740642	 -0.655676	 0.146618	 1
1463623501.785	 4	 0.007581	 -0.006563	 0.007963	 1.976678	 -1.320772	 -0.964960	 0.007098	 0.740807	 -0.655363	 0.147151	 1
1463623501.795	 4	 -0.025895	 -0.056742	 -0.031645	 1.977278	 -1.320907	 -0.963871	 0.006850	 0.740838	 -0.655310	 0.147245	 1
1463623501.805	 4	 -0.033616	 -0.113063	 -0.027839	 1.977962	 -1.321072	 -0.962152	 0.006386	 0.740873	 -0.655216	 0.147505	 1
1463623501.815	 4	 -0.040088	 -0.153239	 0.002751	 1.977976	 -1.320963	 -0.960649	 0.005867	 0.740893	 -0.655082	 0.148025	 1
1463623501.825	 4	 -0.035869	 -0.194485	 0.037515	 1.974050	 -1.319854	 -0.962640	 0.005664	 0.740736	 -0.655003	 0.149162	 1
1463623501.835	 4	 -0.020923	 -0.248298	 0.102961	 1.971209	 -1.318913	 -0.963125	 0.005207	 0.740640	 -0.654846	 0.150340	 1
1463623501.845	 4	 -0.030578	 -0.231490	 0.070163	 1.968446	 -1.318073	 -0.963517	 0.004709	 0.740535	 -0.654703	 0.151489	 1
1463623501.855	 4	 -0.058432	 -0.238984	 0.052218	 1.967158	 -1.317357	 -0.962418	 0.004104	 0.740529	 -0.654470	 0.152542	 1
1463623501.865	 4	 -0.066022	 -0.250796	 0.034056	 1.964292	 -1.316869	 -0.962673	 0.003413	 0.740370	 -0.654391	 0.153667	 1
1463623501.875	 4	 -0.078918	 -0.246704	 0.006497	 1.964325	 -1.316465	 -0.960081	 0.002590	 0.740426	 -0.654105	 0.154626	 1
1463623501.885	 4	 -0.099224	 -0.247753	 0.000269	 1.965115	 -1.316093	 -0.956705	 0.001715	 0.740537	 -0.653763	 0.155550	 1
1463623501.895	 4	 -0.118395	 -0.237083	 -0.002662	 1.966784	 -1.315662	 -0.952492	 0.000835	 0.740724	 -0.653341	 0.156438	 1
1463623501.905	 4	 -0.120484	 -0.226444	 -0.003625	 1.970205	 -1.315989	 -0.946680	 -0.000303	 0.740952	 -0.652955	 0.156970	 1
1463623501.915	 4	 -0.118521	 -0.277375	 0.014002	 1.971800	 -1.315438	 -0.942369	 -0.001209	 0.741146	 -0.652497	 0.157952	 1
1463623501.925	 4	 -0.107207	 -0.399446	 0.052201	 1.971451	 -1.314618	 -0.938964	 -0.002330	 0.741220	 -0.652048	 0.159438	 1
1463623501.935	 4	 -0.085383	 -0.543987	 0.076244	 1.968536	 -1.313593	 -0.936728	 -0.003790	 0.741114	 -0.651641	 0.161554	 1
1463623501.945	 4	 -0.059212	 -0.654697	 0.073888	 1.959899	 -1.314838	 -0.938911	 -0.006184	 0.740259	 -0.652067	 0.163668	 1
1463623501.965	 5	 -0.032601	 -0.636973	 0.035454	 1.947624	 -1.313616	 -0.937573	 -0.010298	 0.739386	 -0.651642	 0.169012	 1
1463623501.975	 5	 -0.028655	 -0.456368	 0.008325	 1.943361	 -1.313373	 -0.936730	 -0.011923	 0.739049	 -0.651495	 0.170935	 1
1463623501.985	 5	 -0.030853	 -0.228853	 -0.006592	 1.944418	 -1.313126	 -0.932885	 -0.012923	 0.739147	 -0.651119	 0.171871	 1
1463623501.995	 5	 -0.024700	 -0.054451	 -0.008220	 1.944520	 -1.313111	 -0.931814	 -0.013280	 0.739150	 -0.651024	 0.172186	 1
1463623502.005	 5	 -0.012439	 0.045583	 0.004328	 1.945319	 -1.313050	 -0.931245	 -0.013211	 0.739223	 -0.650967	 0.172095	 1
1463623502.015	 5	 0.005911	 0.079651	 0.016208	 1.945839	 -1.312923	 -0.931486	 -0.012913	 0.739285	 -0.650964	 0.171862	 1
1463623502.025	 5	 0.017738	 0.095608	 0.021601	 1.946535	 -1.311668	 -0.931762	 -0.012193	 0.739504	 -0.650722	 0.171892	 1
1463623502.035	 5	 0.024222	 0.101008	 0.035450	 1.946270	 -1.311460	 -0.933075	 -0.011728	 0.739515	 -0.650788	 0.171625	 1
1463623502.045	 5	 0.006049	 0.087296	 0.044006	 1.946106	 -1.311106	 -0.934186	 -0.011260	 0.739551	 -0.650806	 0.171431	 1
1463623502.055	 5	 -0.015418	 0.041792	 0.067216	 1.946229	 -1.310496	 -0.934633	 -0.010864	 0.739640	 -0.650714	 0.171423	 1
1463623502.065	 5	 -0.030665	 -0.026195	 0.072031	 1.948255	 -1.310369	 -0.932586	 -0.010922	 0.739819	 -0.650522	 0.171378	 1
1463623502.075	 5	 -0.061986	 -0.093214	 0.057825	 1.948513	 -1.309597	 -0.931525	 -0.010990	 0.739931	 -0.650265	 0.171860	 1
1463623502.085	 5	 -0.091141	 -0.151745	 0.041548	 1.949452	 -1.308863	 -0.929131	 -0.011342	 0.740091	 -0.649906	 0.172510	 1
1463623502.095	 5	 -0.107375	 -0.193234	 0.033843	 1.950778	 -1.308142	 -0.925852	 -0.011900	 0.740277	 -0.649473	 0.173301	 1
1463623502.105	 5	 -0.103223	 -0.217736	 0.030365	 1.950119	 -1.308535	 -0.924216	 -0.012842	 0.740160	 -0.649412	 0.173959	 1
1463623502.115	 5	 -0.080846	 -0.227353	 0.033278	 1.950421	 -1.307912	 -0.921555	 -0.013534	 0.740248	 -0.649047	 0.174897	 1
1463623502.125	 5	 -0.050902	 -0.215726	 0.035257	 1.949758	 -1.307373	 -0.919964	 -0.014171	 0.740247	 -0.648785	 0.175820	 1
1463623502.135	 5	 -0.019834	 -0.195563	 0.041569	 1.948164	 -1.306904	 -0.919529	 -0.014702	 0.740162	 -0.648632	 0.176691	 1
1463623502.145	 5	 0.004805	 -0.177556	 0.041514	 1.944389	 -1.307077	 -0.921456	 -0.015268	 0.739821	 -0.648812	 0.177411	 1
1463623502.155	 5	 0.013359	 -0.167006	 0.033012	 1.941784	 -1.306797	 -0.922403	 -0.015675	 0.739632	 -0.648815	 0.178151	 1
1463623502.165	 5	 0.002704	 -0.156400	 0.024677	 1.939626	 -1.306575	 -0.922996	 -0.016087	 0.739471	 -0.648803	 0.178823	 1
1463623502.175	 5	 -0.015449	 -0.154257	 0.019526	 1.938178	 -1.306345	 -0.922899	 -0.016520	 0.739369	 -0.648733	 0.179459	 1
1463623502.185	 5	 -0.027201	 -0.152141	 0.013250	 1.937130	 -1.306326	 -0.922397	 -0.017040	 0.739274	 -0.648675	 0.180015	 1
1463623502.195	 5	 -0.032537	 -0.150021	 0.010118	 1.936280	 -1.306233	 -0.921697	 -0.017545	 0.739202	 -0.648584	 0.180584	 1
1463623502.205	 5	 -0.031459	 -0.146850	 0.008005	 1.935019	 -1.306154	 -0.921414	 -0.018034	 0.739096	 -0.648530	 0.181165	 1
1463623502.215	 5	 -0.021802	 -0.139411	 0.011190	 1.933151	 -1.305961	 -0.921801	 -0.018436	 0.738954	 -0.648507	 0.181788	 1
1463623502.225	 5	 -0.013203	 -0.129842	 0.014403	 1.931217	 -1.305743	 -0.922373	 -0.018784	 0.738810	 -0.648494	 0.182382	 1
1463623502.235	 5	 -0.004640	 -0.127718	 0.017545	 1.929446	 -1.305629	 -0.922851	 -0.019145	 0.738667	 -0.648496	 0.182916	 1
1463623502.245	 5	 -0.004652	 -0.134070	 0.021748	 1.927675	 -1.305500	 -0.923301	 -0.019513	 0.738524	 -0.648493	 0.183462	 1
1463623502.255	 5	 -0.014297	 -0.143615	 0.021740	 1.925693	 -1.305539	 -0.923842	 -0.019968	 0.738343	 -0.648531	 0.184007	 1
1463623502.265	 5	 -0.031407	 -0.147858	 0.016515	 1.923955	 -1.305628	 -0.924048	 -0.020484	 0.738174	 -0.648551	 0.184555	 1
1463623502.275	 5	 -0.046310	 -0.135104	 0.009299	 1.922962	 -1.305684	 -0.923567	 -0.021001	 0.738070	 -0.648509	 0.185061	 1
1463623502.285	 5	 -0.048295	 -0.100045	 0.003243	 1.922269	 -1.305851	 -0.923051	 -0.021469	 0.737980	 -0.648489	 0.185433	 1
1463623502.295	 5	 -0.027788	 -0.051194	 0.001385	 1.921574	 -1.305989	 -0.923026	 -0.021747	 0.737899	 -0.648509	 0.185656	 1
1463623502.305	 5	 0.010879	 -0.001302	 0.003640	 1.920866	 -1.306200	 -0.923588	 -0.021835	 0.737814	 -0.648598	 0.185672	 1
1463623502.315	 5	 0.044132	 0.033708	 0.004740	 1.919713	 -1.306407	 -0.925052	 -0.021734	 0.737698	 -0.648766	 0.185560	 1
1463623502.325	 5	 0.059134	 0.045380	 0.006848	 1.918573	 -1.306564	 -0.926730	 -0.021535	 0.737591	 -0.648943	 0.185389	 1
1463623502.335	 5	 0.049480	 0.036893	 0.005785	 1.918215	 -1.306714	 -0.927603	 -0.021376	 0.737549	 -0.649052	 0.185192	 1
1463623502.345	 5	 0.024809	 0.017768	 -0.001641	 1.918733	 -1.306835	 -0.927403	 -0.021320	 0.737580	 -0.649064	 0.185030	 1
1463623502.355	 5	 0.002275	 -0.001363	 -0.009086	 1.919520	 -1.307000	 -0.926685	 -0.021382	 0.737625	 -0.649042	 0.184923	 1
1463623502.365	 5	 -0.016976	 -0.008758	 -0.010056	 1.920759	 -1.307161	 -0.925376	 -0.021513	 0.737706	 -0.648968	 0.184842	 1
1463623502.375	 5	 -0.029787	 -0.006623	 -0.014191	 1.921646	 -1.307375	 -0.924368	 -0.021664	 0.737751	 -0.648930	 0.184778	 1
1463623502.385	 5	 -0.029778	 -0.005561	 -0.014182	 1.922057	 -1.307513	 -0.923825	 -0.021775	 0.737767	 -0.648914	 0.184761	 1
1463623502.395	 5	 -0.014817	 -0.007688	 -0.007936	 1.921503	 -1.307559	 -0.924240	 -0.021816	 0.737715	 -0.648956	 0.184817	 1
1463623502.405	 5	 -0.003042	 -0.006615	 -0.001631	 1.920382	 -1.307574	 -0.925242	 -0.021815	 0.737620	 -0.649040	 0.184901	 1
1463623502.415	 5	 0.008720	 -0.005565	 0.001475	 1.919001	 -1.307610	 -0.926537	 -0.021797	 0.737502	 -0.649152	 0.184978	 1
1463623502.425	 5	 0.015130	 -0.005578	 0.002486	 1.917632	 -1.307635	 -0.927852	 -0.021764	 0.737387	 -0.649264	 0.185049	 1
1463623502.435	 5	 0.016161	 -0.017252	 0.006632	 1.916434	 -1.307617	 -0.928930	 -0.021750	 0.737290	 -0.649347	 0.185147	 1
1463623502.445	 5	 0.012871	 -0.039549	 0.010718	 1.915184	 -1.307556	 -0.929853	 -0.021796	 0.737191	 -0.649406	 0.185325	 1
1463623502.455	 5	 0.006352	 -0.066106	 0.012659	 1.913883	 -1.307458	 -0.930566	 -0.021925	 0.737090	 -0.649437	 0.185603	 1
1463623502.465	 5	 0.001950	 -0.095861	 0.014551	 1.912844	 -1.307382	 -0.930739	 -0.022174	 0.737005	 -0.649426	 0.185953	 1
1463623502.475	 5	 -0.007642	 -0.090635	 0.003033	 1.911705	 -1.307372	 -0.930891	 -0.022486	 0.736902	 -0.649425	 0.186326	 1
1463623502.485	 5	 0.003934	 -0.117332	 -0.006913	 1.910377	 -1.307735	 -0.931133	 -0.022942	 0.736737	 -0.649509	 0.186627	 1
1463623502.495	 5	 0.001757	 -0.132170	 -0.000642	 1.908726	 -1.308111	 -0.931478	 -0.023470	 0.736542	 -0.649601	 0.187010	 1
1463623502.505	 5	 -0.005700	 -0.124749	 -0.006906	 1.907334	 -1.308398	 -0.931582	 -0.023975	 0.736379	 -0.649655	 0.187402	 1
1463623502.515	 5	 -0.020388	 -0.062033	 -0.017922	 1.907452	 -1.308687	 -0.930604	 -0.024388	 0.736344	 -0.649625	 0.187588	 1
1463623502.525	 5	 -0.033971	 -0.000306	 -0.018298	 1.908830	 -1.308959	 -0.929050	 -0.024599	 0.736422	 -0.649554	 0.187503	 1
1463623502.535	 5	 -0.020109	 -0.000371	 -0.021622	 1.909777	 -1.309453	 -0.928099	 -0.024797	 0.736440	 -0.649580	 0.187314	 1
1463623502.545	 5	 0.000984	 -0.044130	 -0.033941	 1.909319	 -1.310054	 -0.928183	 -0.025105	 0.736326	 -0.649709	 0.187274	 1
1463623502.555	 5	 -0.000176	 -0.053794	 -0.046812	 1.908577	 -1.310699	 -0.928342	 -0.025492	 0.736182	 -0.649850	 0.187300	 1
1463623502.565	 5	 -0.011782	 -0.031384	 -0.041175	 1.907991	 -1.311215	 -0.928490	 -0.025791	 0.736067	 -0.649965	 0.187312	 1
1463623502.575	 5	 -0.004228	 -0.022829	 -0.031570	 1.907143	 -1.311666	 -0.929039	 -0.026007	 0.735941	 -0.650100	 0.187309	 1
1463623502.585	 5	 0.009602	 -0.034557	 -0.029668	 1.905964	 -1.312111	 -0.929862	 -0.026229	 0.735788	 -0.650255	 0.187341	 1
1463623502.595	 5	 0.013866	 -0.038802	 -0.026549	 1.904711	 -1.312539	 -0.930718	 -0.026457	 0.735631	 -0.650409	 0.187394	 1
1463623502.605	 5	 0.011731	 -0.039860	 -0.026543	 1.903563	 -1.313055	 -0.931465	 -0.026719	 0.735472	 -0.650571	 0.187416	 1
1463623502.615	 5	 0.012756	 -0.048381	 -0.027700	 1.902503	 -1.313580	 -0.932049	 -0.027016	 0.735318	 -0.650721	 0.187457	 1
1463623502.625	 5	 0.017021	 -0.048401	 -0.028806	 1.901821	 -1.314060	 -0.932239	 -0.027320	 0.735199	 -0.650830	 0.187500	 1
1463623502.635	 5	 0.015995	 -0.038832	 -0.029775	 1.901416	 -1.314461	 -0.932250	 -0.027575	 0.735114	 -0.650908	 0.187524	 1
1463623502.645	 5	 0.011739	 -0.034581	 -0.031831	 1.900880	 -1.314879	 -0.932440	 -0.027812	 0.735017	 -0.651006	 0.187532	 1
1463623502.655	 5	 0.008508	 -0.039897	 -0.032921	 1.900692	 -1.315356	 -0.932252	 -0.028094	 0.734940	 -0.651085	 0.187518	 1
1463623502.665	 5	 0.006323	 -0.046311	 -0.038292	 1.900408	 -1.315859	 -0.932072	 -0.028412	 0.734851	 -0.651168	 0.187528	 1
1463623502.675	 5	 -0.004324	 -0.040961	 -0.038149	 1.900725	 -1.316135	 -0.931312	 -0.028675	 0.734837	 -0.651159	 0.187576	 1
1463623502.685	 5	 -0.023239	 0.002869	 -0.015189	 1.901851	 -1.315886	 -0.930113	 -0.028671	 0.734955	 -0.651011	 0.187628	 1
1463623502.695	 5	 -0.038227	 -0.022491	 0.001756	 1.902071	 -1.315972	 -0.929694	 -0.028780	 0.734959	 -0.650993	 0.187657	 1
1463623502.705	 5	 -0.033135	 -0.064084	 -0.011468	 1.901954	 -1.316222	 -0.929201	 -0.029079	 0.734911	 -0.650996	 0.187785	 1
1463623502.715	 5	 -0.007622	 -0.074891	 -0.024580	 1.901172	 -1.316462	 -0.929176	 -0.029418	 0.734809	 -0.651033	 0.188007	 1
1463623502.725	 5	 0.011741	 -0.043031	 -0.023387	 1.900999	 -1.316724	 -0.928836	 -0.029683	 0.734756	 -0.651053	 0.188102	 1
1463623502.735	 5	 0.016190	 -0.011079	 -0.015671	 1.900954	 -1.317074	 -0.928725	 -0.029849	 0.734708	 -0.651114	 0.188049	 1
1463623502.745	 5	 0.009898	 0.014454	 -0.017514	 1.901427	 -1.317422	 -0.928360	 -0.029939	 0.734706	 -0.651160	 0.187888	 1
1463623502.755	 5	 -0.001685	 0.053791	 -0.024511	 1.902933	 -1.317766	 -0.927309	 -0.029944	 0.734790	 -0.651155	 0.187573	 1
1463623502.765	 5	 -0.001568	 0.082480	 -0.028509	 1.904770	 -1.318043	 -0.926253	 -0.029822	 0.734913	 -0.651141	 0.187158	 1
1463623502.775	 5	 -0.001544	 0.092014	 -0.033749	 1.906070	 -1.318311	 -0.925839	 -0.029635	 0.734996	 -0.651178	 0.186734	 1
1463623502.785	 5	 -0.011075	 0.106942	 -0.032461	 1.908257	 -1.318584	 -0.924685	 -0.029434	 0.735150	 -0.651160	 0.186224	 1
1463623502.795	 5	 -0.012025	 0.114547	 -0.011071	 1.911084	 -1.318859	 -0.923005	 -0.029218	 0.735354	 -0.651103	 0.185648	 1
1463623502.805	 5	 -0.029080	 0.115685	 -0.007719	 1.913432	 -1.319061	 -0.921779	 -0.028968	 0.735529	 -0.651066	 0.185123	 1
1463623502.815	 5	 -0.034373	 0.130538	 -0.014997	 1.915892	 -1.319225	 -0.920520	 -0.028682	 0.735718	 -0.651020	 0.184578	 1
1463623502.825	 5	 -0.020452	 0.134797	 -0.008689	 1.918052	 -1.319510	 -0.919678	 -0.028379	 0.735870	 -0.651033	 0.183972	 1
1463623502.835	 5	 0.000859	 0.122015	 -0.002602	 1.918881	 -1.319793	 -0.920079	 -0.028050	 0.735917	 -0.651142	 0.183451	 1
1463623502.845	 5	 0.020082	 0.113540	 0.009935	 1.918926	 -1.320168	 -0.921174	 -0.027750	 0.735890	 -0.651322	 0.182965	 1
1463623502.855	 5	 0.025704	 0.149898	 0.038991	 1.919777	 -1.320399	 -0.921776	 -0.027324	 0.735947	 -0.651437	 0.182386	 1
1463623502.865	 5	 0.037753	 0.201044	 0.056406	 1.920538	 -1.320429	 -0.922977	 -0.026644	 0.736029	 -0.651563	 0.181706	 1
1463623502.875	 5	 0.036995	 0.262771	 0.061243	 1.921662	 -1.320339	 -0.924434	 -0.025714	 0.736161	 -0.651691	 0.180845	 1
1463623502.885	 5	 0.040243	 0.281831	 0.050728	 1.923145	 -1.320259	 -0.925860	 -0.024680	 0.736322	 -0.651821	 0.179858	 1
1463623502.895	 5	 0.047425	 0.226451	 0.043761	 1.922676	 -1.319763	 -0.928818	 -0.023588	 0.736377	 -0.651977	 0.179216	 1
1463623502.905	 5	 0.033352	 0.139657	 0.096368	 1.921227	 -1.318984	 -0.931964	 -0.022657	 0.736380	 -0.652077	 0.178960	 1
1463623502.915	 5	 0.002250	 0.036120	 0.179869	 1.918689	 -1.317686	 -0.935197	 -0.021884	 0.736347	 -0.652066	 0.179233	 1
1463623502.925	 5	 -0.033010	 -0.056660	 0.278424	 1.915264	 -1.315441	 -0.938292	 -0.021152	 0.736343	 -0.651837	 0.180165	 1
1463623502.935	 5	 -0.042557	 -0.040698	 0.275463	 1.913579	 -1.312354	 -0.939575	 -0.020253	 0.736573	 -0.651290	 0.181304	 1
1463623502.945	 5	 -0.046634	 0.038767	 0.231479	 1.913787	 -1.309592	 -0.939631	 -0.019290	 0.736921	 -0.650719	 0.182046	 1
1463623502.955	 5	 -0.058236	 0.098114	 0.196963	 1.915212	 -1.307302	 -0.939134	 -0.018286	 0.737317	 -0.650206	 0.182377	 1
1463623502.965	 5	 -0.058325	 0.114832	 0.155555	 1.917022	 -1.305457	 -0.938480	 -0.017355	 0.737695	 -0.649774	 0.182481	 1
1463623502.975	 5	 -0.049945	 0.080777	 0.156226	 1.918032	 -1.304098	 -0.938419	 -0.016620	 0.737947	 -0.649490	 0.182539	 1
1463623502.985	 5	 -0.032923	 0.034234	 0.198275	 1.917452	 -1.302237	 -0.939469	 -0.015833	 0.738123	 -0.649187	 0.182975	 1
1463623502.995	 5	 -0.020787	 0.042300	 0.288835	 1.915350	 -1.299656	 -0.942015	 -0.014759	 0.738252	 -0.648859	 0.183706	 1
1463623503.005	 5	 -0.006179	 0.165915	 0.327159	 1.913096	 -1.296578	 -0.945681	 -0.013163	 0.738426	 -0.648532	 0.184282	 1
1463623503.015	 5	 0.041277	 0.322749	 0.266391	 1.911606	 -1.293968	 -0.950175	 -0.011159	 0.738615	 -0.648387	 0.184167	 1
1463623503.025	 5	 0.091572	 0.440957	 0.160477	 1.910956	 -1.292464	 -0.955167	 -0.009048	 0.738750	 -0.648527	 0.183246	 1
1463623503.035	 5	 0.130844	 0.441508	 0.105787	 1.910145	 -1.291799	 -0.960697	 -0.007057	 0.738773	 -0.648889	 0.181954	 1
1463623503.045	 5	 0.155865	 0.298006	 0.127680	 1.907250	 -1.291179	 -0.967261	 -0.005375	 0.738599	 -0.649347	 0.181082	 1
1463623503.055	 5	 0.163501	 0.063270	 0.175508	 1.898837	 -1.291030	 -0.977141	 -0.004414	 0.737878	 -0.650190	 0.181023	 1
1463623503.065	 5	 0.129456	 -0.170367	 0.210932	 1.890779	 -1.289528	 -0.984291	 -0.003916	 0.737320	 -0.650517	 0.182132	 1
1463623503.075	 5	 0.070189	 -0.283009	 0.200808	 1.883126	 -1.287847	 -0.989528	 -0.003934	 0.736803	 -0.650642	 0.183768	 1
1463623503.085	 5	 0.002642	 -0.326619	 0.173281	 1.877412	 -1.286177	 -0.992178	 -0.004278	 0.736450	 -0.650541	 0.185526	 1
1463623503.095	 5	 -0.068010	 -0.354226	 0.151258	 1.873993	 -1.284547	 -0.992105	 -0.004889	 0.736293	 -0.650201	 0.187313	 1
1463623503.105	 5	 -0.109744	 -0.372238	 0.143993	 1.872199	 -1.282863	 -0.990178	 -0.005637	 0.736287	 -0.649679	 0.189121	 1
1463623503.115	 5	 -0.109860	 -0.418846	 0.170205	 1.870086	 -1.280980	 -0.988091	 -0.006482	 0.736266	 -0.649099	 0.191159	 1
1463623503.125	 5	 -0.137544	 -0.472431	 0.249879	 1.867303	 -1.278408	 -0.986219	 -0.007242	 0.736245	 -0.648394	 0.193586	 1
1463623503.135	 5	 -0.203746	 -0.531358	 0.310656	 1.865195	 -1.275063	 -0.983019	 -0.008020	 0.736355	 -0.647404	 0.196431	 1
1463623503.145	 5	 -0.295283	 -0.567562	 0.414495	 1.864406	 -1.270577	 -0.977990	 -0.008675	 0.736694	 -0.645998	 0.199731	 1
1463623503.155	 5	 -0.380263	 -0.590852	 0.541844	 1.864846	 -1.264658	 -0.971408	 -0.009043	 0.737287	 -0.644134	 0.203511	 1
1463623503.165	 5	 -0.460171	 -0.687396	 0.689782	 1.865510	 -1.257155	 -0.963814	 -0.009206	 0.738054	 -0.641814	 0.208006	 1
1463623503.175	 5	 -0.560782	 -0.882723	 0.847639	 1.865523	 -1.247801	 -0.955026	 -0.009428	 0.738926	 -0.638941	 0.213669	 1
1463623503.185	 5	 -0.623580	 -1.121438	 0.904581	 1.864604	 -1.237486	 -0.944871	 -0.010151	 0.739778	 -0.635657	 0.220376	 1
1463623503.195	 5	 -0.597946	 -1.371217	 0.938270	 1.860341	 -1.226802	 -0.935481	 -0.011535	 0.740278	 -0.632297	 0.228156	 1
1463623503.205	 5	 -0.610312	 -1.509405	 0.944552	 1.854086	 -1.216059	 -0.926308	 -0.013440	 0.740516	 -0.628871	 0.236594	 1
1463623503.215	 5	 -0.636697	 -1.452904	 0.951702	 1.848465	 -1.205152	 -0.916548	 -0.015299	 0.740791	 -0.625276	 0.245000	 1
1463623503.225	 5	 -0.604115	 -1.321214	 0.937723	 1.843623	 -1.194438	 -0.907194	 -0.016817	 0.741103	 -0.621710	 0.252901	 1
1463623503.235	 5	 -0.548379	 -1.104935	 1.010656	 1.838755	 -1.183442	 -0.899836	 -0.017503	 0.741417	 -0.618276	 0.260247	 1
1463623503.245	 5	 -0.556599	 -0.711352	 1.160400	 1.836270	 -1.171221	 -0.893642	 -0.016617	 0.742131	 -0.614692	 0.266684	 1
1463623503.255	 5	 -0.611881	 -0.202000	 1.415009	 1.838133	 -1.156691	 -0.888049	 -0.013433	 0.743616	 -0.610644	 0.271971	 1
1463623503.265	 5	 -0.603370	 -0.002061	 1.708814	 1.841503	 -1.139275	 -0.884153	 -0.008243	 0.745557	 -0.606100	 0.276983	 1
1463623503.275	 5	 -0.381362	 -0.369437	 1.885708	 1.837700	 -1.120215	 -0.885617	 -0.002699	 0.746607	 -0.601832	 0.283495	 1
1463623503.285	 5	 -0.181266	 -1.009669	 1.974993	 1.823483	 -1.100802	 -0.892000	 0.001701	 0.746062	 -0.598185	 0.292513	 1
1463623503.295	 5	 -0.095191	 -1.397413	 2.075080	 1.802868	 -1.080635	 -0.900316	 0.005225	 0.744385	 -0.594738	 0.303561	 1
1463623503.305	 5	 0.102600	 -1.614555	 2.425170	 1.777471	 -1.057957	 -0.911481	 0.009303	 0.741792	 -0.591297	 0.316268	 1
1463623503.315	 5	 0.316164	 -1.658179	 2.509232	 1.747659	 -1.034011	 -0.926605	 0.014067	 0.738098	 -0.588429	 0.329796	 1
1463623503.325	 5	 0.040478	 -0.882769	 2.842839	 1.726993	 -1.007179	 -0.937624	 0.021071	 0.735602	 -0.584378	 0.341977	 1
1463623503.335	 5	 -0.220896	 0.381285	 3.243749	 1.722981	 -0.975879	 -0.943235	 0.032514	 0.735815	 -0.578278	 0.350876	 1
1463623503.345	 5	 0.017001	 0.848120	 3.474094	 1.724490	 -0.941885	 -0.951177	 0.047322	 0.736742	 -0.571796	 0.357800	 1
1463623503.355	 5	 0.260495	 0.492713	 3.403655	 1.720971	 -0.908200	 -0.963366	 0.062151	 0.736312	 -0.566199	 0.365241	 1
1463623503.365	 5	 0.214195	 -0.264343	 3.124177	 1.711380	 -0.877068	 -0.974714	 0.074113	 0.734374	 -0.561270	 0.374405	 1
1463623503.375	 5	 -0.113777	 -0.639076	 2.944497	 1.701726	 -0.847517	 -0.980308	 0.083445	 0.732285	 -0.555689	 0.384716	 1
1463623503.385	 5	 -0.224889	 -1.235310	 2.815222	 1.689103	 -0.818951	 -0.982601	 0.090459	 0.729468	 -0.549850	 0.396683	 1
1463623503.395	 5	 -0.236880	 -1.611845	 2.661550	 1.673259	 -0.791954	 -0.983428	 0.095590	 0.725801	 -0.544263	 0.409699	 1
1463623503.405	 5	 -0.178783	 -1.862843	 2.540409	 1.654531	 -0.766131	 -0.984115	 0.099568	 0.721263	 -0.539096	 0.423369	 1
1463623503.415	 5	 -0.134007	 -1.885028	 2.286161	 1.635460	 -0.742515	 -0.984514	 0.102681	 0.716422	 -0.534454	 0.436526	 1
1463623503.425	 5	 -0.076667	 -1.872892	 1.929811	 1.616514	 -0.722275	 -0.984831	 0.104717	 0.711463	 -0.530635	 0.448644	 1
1463623503.435	 5	 -0.107255	 -1.947730	 1.571284	 1.597575	 -0.705674	 -0.984419	 0.105305	 0.706471	 -0.527555	 0.459887	 1
1463623503.445	 5	 -0.275703	 -2.117423	 1.277022	 1.578546	 -0.692185	 -0.981755	 0.104055	 0.701538	 -0.524710	 0.470846	 1
1463623503.455	 5	 -0.513070	 -2.290320	 1.099497	 1.559776	 -0.680847	 -0.975942	 0.101081	 0.696779	 -0.521594	 0.481893	 1
1463623503.465	 5	 -0.889172	 -2.597793	 1.081793	 1.541159	 -0.670237	 -0.965565	 0.096378	 0.692170	 -0.517469	 0.493798	 1
1463623503.475	 5	 -1.268344	 -2.949403	 1.140484	 1.522090	 -0.659477	 -0.950104	 0.089951	 0.687510	 -0.511944	 0.507102	 1
1463623503.485	 5	 -1.625738	 -3.222159	 1.224188	 1.502764	 -0.648372	 -0.929833	 0.082058	 0.682769	 -0.504932	 0.521667	 1
1463623503.495	 5	 -1.859571	 -3.322930	 1.313744	 1.483984	 -0.636915	 -0.906055	 0.073387	 0.678058	 -0.496648	 0.536836	 1
1463623503.505	 5	 -1.961751	 -3.361161	 1.427249	 1.465543	 -0.624875	 -0.880433	 0.064557	 0.673223	 -0.487434	 0.552279	 1
1463623503.515	 5	 -1.968446	 -3.309117	 1.561012	 1.447441	 -0.611952	 -0.854274	 0.056136	 0.668201	 -0.477554	 0.567714	 1
1463623503.525	 5	 -1.961965	 -3.179464	 1.695382	 1.430251	 -0.598064	 -0.827961	 0.048426	 0.663152	 -0.467082	 0.582854	 1
1463623503.535	 5	 -1.954036	 -2.978471	 1.841061	 1.414717	 -0.583137	 -0.801451	 0.041611	 0.658324	 -0.455981	 0.597461	 1
1463623503.545	 5	 -1.947044	 -2.790948	 2.035648	 1.400940	 -0.566731	 -0.774706	 0.035852	 0.653765	 -0.444143	 0.611591	 1
1463623503.555	 5	 -1.918884	 -2.667076	 2.261431	 1.388240	 -0.548407	 -0.747797	 0.031177	 0.649282	 -0.431500	 0.625514	 1
1463623503.565	 5	 -1.884756	 -2.644187	 2.497947	 1.375679	 -0.528007	 -0.720819	 0.027474	 0.644598	 -0.418054	 0.639508	 1
1463623503.575	 5	 -1.845114	 -2.806412	 2.730560	 1.361520	 -0.505543	 -0.693739	 0.024396	 0.639158	 -0.403810	 0.654080	 1
1463623503.585	 5	 -1.780760	 -3.121133	 2.917842	 1.343969	 -0.481356	 -0.666751	 0.021577	 0.632351	 -0.388928	 0.669628	 1
1463623503.595	 5	 -1.690593	 -3.556662	 3.030238	 1.321582	 -0.456173	 -0.640138	 0.018649	 0.623651	 -0.373698	 0.686339	 1
1463623503.605	 5	 -1.636631	 -3.936055	 3.095513	 1.294396	 -0.430705	 -0.613707	 0.015407	 0.613007	 -0.358238	 0.704025	 1
1463623503.615	 5	 -1.687946	 -4.013047	 3.164517	 1.265306	 -0.405349	 -0.586347	 0.011973	 0.601384	 -0.342232	 0.721853	 1
1463623503.625	 5	 -1.789625	 -3.671978	 3.221865	 1.238616	 -0.380426	 -0.557309	 0.008770	 0.590362	 -0.325454	 0.738563	 1
1463623503.635	 5	 -1.779094	 -3.067498	 3.274291	 1.217099	 -0.355767	 -0.527455	 0.006513	 0.581049	 -0.308167	 0.753241	 1
1463623503.645	 5	 -1.595596	 -2.483405	 3.371916	 1.200638	 -0.330352	 -0.498478	 0.005962	 0.573466	 -0.290783	 0.765863	 1
1463623503.655	 5	 -1.293153	 -2.071537	 3.528716	 1.187421	 -0.303000	 -0.471548	 0.007553	 0.566954	 -0.273498	 0.776985	 1
1463623503.665	 5	 -0.947338	 -1.775430	 3.726693	 1.175940	 -0.272932	 -0.447007	 0.011417	 0.560938	 -0.256293	 0.787104	 1
1463623503.675	 5	 -0.598716	 -1.572843	 3.936563	 1.165411	 -0.239825	 -0.424845	 0.017543	 0.555112	 -0.239121	 0.796470	 1
1463623503.685	 5	 -0.290928	 -1.400172	 4.111341	 1.155355	 -0.203969	 -0.404778	 0.025650	 0.549298	 -0.221978	 0.805195	 1
1463623503.695	 5	 -0.067581	 -1.213792	 4.235825	 1.146179	 -0.166023	 -0.386223	 0.035329	 0.543689	 -0.204820	 0.813144	 1
1463623503.705	 5	 0.059006	 -1.104349	 4.271977	 1.137555	 -0.127061	 -0.368593	 0.045916	 0.538216	 -0.187707	 0.820354	 1
1463623503.715	 5	 0.039587	 -1.257403	 4.132173	 1.127514	 -0.088893	 -0.351276	 0.056303	 0.532187	 -0.170928	 0.827279	 1
1463623503.725	 5	 -0.144238	 -1.661771	 3.737810	 1.113087	 -0.054814	 -0.333615	 0.064731	 0.524590	 -0.155200	 0.834583	 1
1463623503.735	 5	 -0.201515	 -1.990509	 3.410192	 1.094704	 -0.024504	 -0.316184	 0.071596	 0.515546	 -0.140720	 0.842190	 1
1463623503.745	 5	 -0.248476	 -2.417992	 3.110341	 1.071892	 0.002501	 -0.299230	 0.077180	 0.504789	 -0.127526	 0.850275	 1
1463623503.755	 5	 -0.278338	 -2.947767	 2.938347	 1.043488	 0.027045	 -0.282235	 0.081699	 0.491744	 -0.115253	 0.859203	 1
1463623503.765	 5	 -0.223208	 -3.387967	 2.832523	 1.009974	 0.050251	 -0.265363	 0.085776	 0.476484	 -0.103696	 0.868823	 1
1463623503.775	 5	 -0.099067	 -3.688940	 2.740183	 0.972734	 0.072624	 -0.249088	 0.089871	 0.459504	 -0.092907	 0.878719	 1
1463623503.785	 5	 0.076948	 -3.886596	 2.688852	 0.933051	 0.094791	 -0.233661	 0.094397	 0.441286	 -0.082827	 0.888536	 1
1463623503.795	 5	 0.260127	 -3.962682	 2.684418	 0.891947	 0.117337	 -0.218865	 0.099610	 0.422241	 -0.073222	 0.898014	 1
1463623503.805	 5	 0.437848	 -3.851442	 2.695629	 0.851192	 0.140456	 -0.204423	 0.105599	 0.403176	 -0.063883	 0.906762	 1
1463623503.815	 5	 0.678024	 -3.601233	 2.682011	 0.812434	 0.164443	 -0.190673	 0.112590	 0.384832	 -0.054846	 0.914451	 1
1463623503.825	 5	 1.014073	 -3.342125	 2.614353	 0.776259	 0.189726	 -0.178614	 0.120928	 0.367435	 -0.046478	 0.920982	 1
1463623503.835	 5	 1.364910	 -3.065412	 2.487048	 0.742952	 0.216367	 -0.168942	 0.130696	 0.351094	 -0.039103	 0.926349	 1
1463623503.845	 5	 1.628295	 -2.747216	 2.324654	 0.712944	 0.243826	 -0.161516	 0.141537	 0.336057	 -0.032737	 0.930570	 1
1463623503.855	 5	 1.762637	 -2.401071	 2.150854	 0.686630	 0.271246	 -0.155731	 0.152875	 0.322605	 -0.027200	 0.933710	 1
1463623503.865	 5	 1.843776	 -2.234637	 1.960925	 0.662830	 0.298027	 -0.151237	 0.164291	 0.310250	 -0.022475	 0.936081	 1
1463623503.875	 5	 1.924840	 -2.311755	 1.772993	 0.639039	 0.324221	 -0.148172	 0.175757	 0.297800	 -0.018792	 0.938121	 1
1463623503.885	 5	 1.942053	 -2.375709	 1.614514	 0.614705	 0.349506	 -0.146067	 0.187015	 0.285042	 -0.016030	 0.939957	 1
1463623503.895	 5	 1.906851	 -2.498787	 1.495374	 0.589463	 0.373783	 -0.144264	 0.197902	 0.271869	 -0.013928	 0.941662	 1
1463623503.905	 5	 1.876207	 -2.535945	 1.346082	 0.563660	 0.396525	 -0.142829	 0.208169	 0.258471	 -0.012556	 0.943239	 1
1463623503.915	 5	 1.860730	 -2.497867	 1.164317	 0.538531	 0.418075	 -0.142304	 0.218035	 0.245353	 -0.011973	 0.944521	 1
1463623503.925	 5	 1.823121	 -2.399107	 0.981183	 0.514539	 0.438849	 -0.142746	 0.227678	 0.232696	 -0.012069	 0.945447	 1
1463623503.935	 5	 1.749572	 -2.278524	 0.859314	 0.491890	 0.458446	 -0.143660	 0.236831	 0.220676	 -0.012608	 0.946073	 1
1463623503.945	 5	 1.665803	 -2.146547	 0.837823	 0.470386	 0.477123	 -0.144125	 0.245506	 0.209298	 -0.013112	 0.946440	 1
1463623503.955	 5	 1.612075	 -2.049166	 0.897812	 0.449396	 0.495471	 -0.143391	 0.253905	 0.198331	 -0.013206	 0.946585	 1
1463623503.965	 5	 1.547505	 -2.046965	 1.028418	 0.427766	 0.513872	 -0.140777	 0.262151	 0.187315	 -0.012667	 0.946588	 1
1463623503.975	 5	 1.452019	 -2.043562	 1.165699	 0.404685	 0.531943	 -0.135650	 0.270033	 0.176002	 -0.011355	 0.946560	 1
1463623503.985	 5	 1.378814	 -1.989841	 1.210532	 0.381183	 0.549440	 -0.128906	 0.277556	 0.164801	 -0.009587	 0.946420	 1
1463623503.995	 5	 1.324474	 -1.924148	 1.154065	 0.357976	 0.566159	 -0.121697	 0.284739	 0.153918	 -0.007822	 0.946135	 1
1463623504.005	 5	 1.257814	 -1.935398	 1.042636	 0.334986	 0.581795	 -0.114853	 0.291499	 0.143212	 -0.006478	 0.945768	 1
1463623504.015	 5	 1.178118	 -1.970226	 0.901259	 0.311975	 0.596151	 -0.108742	 0.297757	 0.132519	 -0.005760	 0.945382	 1
1463623504.025	 5	 1.057846	 -1.998651	 0.746441	 0.289104	 0.608897	 -0.103558	 0.303356	 0.121888	 -0.005738	 0.945032	 1
1463623504.035	 5	 0.895095	 -1.995994	 0.607202	 0.266609	 0.619665	 -0.099179	 0.308097	 0.111447	 -0.006316	 0.944784	 1
1463623504.045	 5	 0.716566	 -1.983383	 0.514021	 0.244421	 0.628375	 -0.095188	 0.311907	 0.101214	 -0.007278	 0.944678	 1
1463623504.055	 5	 0.550007	 -1.963007	 0.469833	 0.222301	 0.635228	 -0.091102	 0.314850	 0.091131	 -0.008386	 0.944719	 1
1463623504.065	 5	 0.416768	 -1.890626	 0.423707	 0.200717	 0.640505	 -0.086957	 0.317059	 0.081392	 -0.009537	 0.944859	 1
1463623504.075	 5	 0.355087	 -1.778279	 0.344292	 0.180454	 0.644777	 -0.083334	 0.318830	 0.072245	 -0.010825	 0.944992	 1
1463623504.085	 5	 0.388634	 -1.584561	 0.230700	 0.162627	 0.648915	 -0.080909	 0.320595	 0.064072	 -0.012334	 0.944966	 1
1463623504.095	 5	 0.505537	 -1.356077	 0.104982	 0.148044	 0.653797	 -0.080142	 0.322776	 0.057153	 -0.014107	 0.944643	 1
1463623504.105	 5	 0.669333	 -1.162641	 0.005175	 0.136415	 0.660048	 -0.080913	 0.325656	 0.051347	 -0.016105	 0.943956	 1
1463623504.115	 5	 0.813959	 -0.979622	 -0.072182	 0.127398	 0.667715	 -0.082903	 0.329237	 0.046538	 -0.018231	 0.942924	 1
1463623504.125	 5	 0.892480	 -0.801576	 -0.128760	 0.120706	 0.676288	 -0.085751	 0.333267	 0.042655	 -0.020371	 0.941647	 1
1463623504.135	 5	 0.861055	 -0.630639	 -0.183381	 0.116182	 0.684794	 -0.089248	 0.337286	 0.039682	 -0.022475	 0.940297	 1
1463623504.145	 5	 0.728265	 -0.464648	 -0.227574	 0.113632	 0.692153	 -0.093191	 0.340783	 0.037587	 -0.024505	 0.939071	 1
1463623504.155	 5	 0.553815	 -0.327081	 -0.248222	 0.112642	 0.697812	 -0.097233	 0.343495	 0.036249	 -0.026375	 0.938084	 1
1463623504.165	 5	 0.413401	 -0.230945	 -0.248236	 0.112626	 0.701961	 -0.101125	 0.345506	 0.035435	 -0.028058	 0.937327	 1
1463623504.175	 5	 0.340094	 -0.161593	 -0.248019	 0.113277	 0.705192	 -0.104875	 0.347092	 0.034981	 -0.029588	 0.936711	 1
1463623504.185	 5	 0.329713	 -0.119909	 -0.224093	 0.114261	 0.708205	 -0.108385	 0.348576	 0.034727	 -0.030953	 0.936126	 1
1463623504.195	 5	 0.357676	 -0.074254	 -0.223912	 0.115630	 0.711439	 -0.111821	 0.350166	 0.034652	 -0.032203	 0.935492	 1
1463623504.205	 5	 0.350550	 -0.001903	 -0.223177	 0.117695	 0.714715	 -0.115323	 0.351789	 0.034882	 -0.033357	 0.934834	 1
1463623504.215	 5	 0.285832	 0.045372	 -0.183806	 0.120098	 0.717505	 -0.118385	 0.353184	 0.035361	 -0.034258	 0.934258	 1
1463623504.225	 5	 0.208918	 -0.010433	 -0.136762	 0.121721	 0.719597	 -0.120688	 0.354228	 0.035631	 -0.034965	 0.933826	 1
1463623504.235	 5	 0.132673	 -0.136558	 -0.106365	 0.121843	 0.720978	 -0.122436	 0.354904	 0.035324	 -0.035706	 0.933553	 1
1463623504.245	 5	 0.075458	 -0.262010	 -0.121955	 0.120603	 0.721703	 -0.124073	 0.355247	 0.034426	 -0.036662	 0.933419	 1
1463623504.255	 5	 0.052444	 -0.335799	 -0.186387	 0.118932	 0.722059	 -0.126415	 0.355421	 0.033216	 -0.038038	 0.933341	 1
1463623504.265	 5	 0.058620	 -0.342556	 -0.235528	 0.117507	 0.722354	 -0.129486	 0.355581	 0.031993	 -0.039713	 0.933253	 1
1463623504.275	 5	 0.077995	 -0.302240	 -0.241716	 0.116553	 0.722792	 -0.132807	 0.355817	 0.030939	 -0.041415	 0.933125	 1
1463623504.285	 5	 0.104024	 -0.239344	 -0.211517	 0.116033	 0.723494	 -0.135879	 0.356180	 0.030121	 -0.042913	 0.932945	 1
1463623504.295	 5	 0.126893	 -0.183746	 -0.162173	 0.115734	 0.724502	 -0.138394	 0.356680	 0.029490	 -0.044100	 0.932719	 1
1463623504.305	 5	 0.146576	 -0.129162	 -0.107483	 0.115527	 0.725778	 -0.140240	 0.357295	 0.029010	 -0.044947	 0.932458	 1
1463623504.315	 5	 0.141724	 -0.092418	 -0.029298	 0.115098	 0.727146	 -0.141091	 0.357933	 0.028599	 -0.045367	 0.932206	 1
1463623504.325	 5	 0.137537	 -0.074291	 -0.026938	 0.115440	 0.732033	 -0.142120	 0.360225	 0.028362	 -0.045592	 0.931319	 1
1463623504.335	 5	 0.115126	 -0.036264	 -0.072217	 0.115640	 0.733180	 -0.143127	 0.360777	 0.028224	 -0.045980	 0.931091	 1
1463623504.345	 5	 0.064982	 -0.026603	 -0.080217	 0.116170	 0.733870	 -0.144324	 0.361126	 0.028224	 -0.046414	 0.930934	 1
1463623504.355	 5	 -0.000137	 -0.035942	 -0.074408	 0.116547	 0.733950	 -0.145369	 0.361186	 0.028208	 -0.046829	 0.930890	 1
1463623504.365	 5	 -0.072684	 -0.040922	 -0.059955	 0.118316	 0.736543	 -0.147242	 0.362457	 0.028576	 -0.047276	 0.930362	 1
1463623504.385	 6	 -0.144033	 -0.040438	 -0.022027	 0.117743	 0.733933	 -0.147827	 0.361242	 0.028321	 -0.047758	 0.930818	 1
1463623504.395	 6	 -0.143692	 0.010796	 0.002959	 0.117595	 0.732489	 -0.147660	 0.360566	 0.028347	 -0.047765	 0.931078	 1
1463623504.405	 6	 -0.114470	 0.067369	 0.040541	 0.118907	 0.733478	 -0.147851	 0.361059	 0.028879	 -0.047578	 0.930881	 1
1463623504.415	 6	 -0.081972	 0.122985	 0.096195	 0.119162	 0.732697	 -0.146611	 0.360685	 0.029256	 -0.046986	 0.931044	 1
1463623504.425	 6	 -0.071889	 0.176549	 0.153091	 0.119488	 0.732132	 -0.144643	 0.360401	 0.029788	 -0.046034	 0.931185	 1
1463623504.445	 7	 -0.106734	 0.164687	 0.261980	 0.120063	 0.730807	 -0.139221	 0.359716	 0.031090	 -0.043459	 0.931530	 1
1463623504.455	 7	 -0.108937	 0.158242	 0.252347	 0.119230	 0.730041	 -0.135592	 0.359286	 0.031387	 -0.041949	 0.931756	 1
1463623504.465	 7	 -0.103892	 0.172460	 0.161846	 0.119157	 0.729215	 -0.132949	 0.358859	 0.031862	 -0.040764	 0.931957	 1
1463623504.475	 7	 -0.087011	 0.168772	 0.104124	 0.119735	 0.728441	 -0.131275	 0.358484	 0.032464	 -0.039910	 0.932117	 1
1463623504.485	 7	 -0.085922	 0.208842	 0.059747	 0.117430	 0.727152	 -0.127819	 0.357784	 0.032061	 -0.038763	 0.932449	 1
1463623504.495	 7	 -0.080684	 0.226576	 0.014039	 0.119380	 0.726353	 -0.127366	 0.357443	 0.033083	 -0.038234	 0.932565	 1
1463623504.505	 7	 -0.068909	 0.258242	 -0.014545	 0.121846	 0.725627	 -0.127360	 0.357152	 0.034263	 -0.037819	 0.932651	 1
1463623504.515	 7	 -0.035700	 0.298447	 -0.030446	 0.124926	 0.725149	 -0.127647	 0.356993	 0.035667	 -0.037423	 0.932676	 1
1463623504.525	 7	 -0.005661	 0.323938	 -0.021938	 0.127007	 0.724504	 -0.127094	 0.356721	 0.036763	 -0.036819	 0.932761	 1
1463623504.535	 7	 0.043461	 0.313309	 -0.001149	 0.130267	 0.724790	 -0.127214	 0.356916	 0.038250	 -0.036282	 0.932648	 1
1463623504.545	 7	 0.095657	 0.280294	 0.014075	 0.133178	 0.725652	 -0.127225	 0.357369	 0.039570	 -0.035731	 0.932440	 1
1463623504.555	 7	 0.118774	 0.186776	 0.034319	 0.135215	 0.726821	 -0.127048	 0.357945	 0.040503	 -0.035234	 0.932198	 1
