% Gyrometer data recorded with 'snsrlog'
% 
% 
% Label description:
% 	 0: Default Label
% 	 1: still_drop
% 	 2: walk_drop
% 	 3: other
% 	 4: dtw_same
% 	 5: dtw_diff
% 	 6: delete
% 	 7: steal
% 
% Column description:
% 	 1: Seconds.milliseconds since 1970
% 	 2: Number of skipped measurements
% 	 3: Gyro X
% 	 4: Gyro Y
% 	 5: Gyro Z
% 	 6: Roll of the device
% 	 7: Pitch of the device
% 	 8: Yaw of the device
% 	 9: Quaternion X
% 	 10: Quaternion Y
% 	 11: Quaternion Z
% 	 12: Quaternion W
% 	 13: Label used for the current sample
% 
% 
1463571436.304	 0	 -0.946276	 0.522339	 0.673333	 0.330243	 0.249949	 -0.040445	 0.126227	 0.160571	 0.000694	 0.978920	 2
1463571436.314	 0	 -0.902381	 0.452871	 0.791669	 0.332426	 0.243758	 -0.029915	 0.122345	 0.162410	 0.005471	 0.979094	 2
1463571436.324	 0	 -0.774731	 0.304122	 0.864843	 0.333248	 0.238868	 -0.018912	 0.119052	 0.163554	 0.010502	 0.979268	 2
1463571436.334	 0	 -0.578126	 0.111193	 0.886914	 0.332338	 0.235807	 -0.008201	 0.116683	 0.163780	 0.015441	 0.979450	 2
1463571436.344	 0	 -0.351852	 -0.095916	 0.872359	 0.329596	 0.234789	 0.001694	 0.115400	 0.163022	 0.020045	 0.979645	 2
1463571436.354	 0	 -0.142590	 -0.277555	 0.843269	 0.325149	 0.235720	 0.010615	 0.115182	 0.161350	 0.024234	 0.979853	 2
1463571436.364	 0	 -0.010858	 -0.373928	 0.807121	 0.319713	 0.237956	 0.018696	 0.115702	 0.159140	 0.028057	 0.980051	 2
1463571436.374	 0	 0.031573	 -0.399824	 0.773472	 0.313942	 0.240651	 0.026251	 0.116512	 0.156739	 0.031633	 0.980233	 2
1463571436.384	 0	 -0.019471	 -0.338186	 0.745714	 0.308580	 0.242935	 0.033632	 0.117148	 0.154538	 0.035111	 0.980388	 2
1463571436.394	 0	 -0.127845	 -0.225227	 0.731722	 0.304215	 0.244199	 0.041155	 0.117270	 0.152839	 0.038638	 0.980508	 2
1463571436.404	 0	 -0.241397	 -0.099311	 0.742409	 0.300986	 0.244359	 0.049077	 0.116811	 0.151719	 0.042344	 0.980583	 2
1463571436.414	 0	 -0.320921	 -0.003241	 0.757850	 0.298723	 0.243681	 0.057422	 0.115896	 0.151093	 0.046255	 0.980612	 2
1463571436.424	 1	 -0.359143	 0.035189	 0.761738	 0.296959	 0.242550	 0.065992	 0.114737	 0.150715	 0.050274	 0.980608	 2
1463571436.444	 1	 -0.369314	 -0.039625	 0.707842	 0.292936	 0.239759	 0.082646	 0.112225	 0.149661	 0.058015	 0.980633	 2
1463571436.454	 1	 -0.373996	 -0.102577	 0.678521	 0.290208	 0.238167	 0.090492	 0.110939	 0.148741	 0.061599	 0.980701	 2
1463571436.464	 1	 -0.388203	 -0.161138	 0.664245	 0.286919	 0.236380	 0.098195	 0.109596	 0.147527	 0.065072	 0.980811	 2
1463571436.474	 1	 -0.406287	 -0.152543	 0.668746	 0.283530	 0.234393	 0.105935	 0.108164	 0.146253	 0.068550	 0.980924	 2
1463571436.484	 1	 -0.402848	 -0.114161	 0.682928	 0.280482	 0.232374	 0.113809	 0.106705	 0.145143	 0.072114	 0.980993	 2
1463571436.504	 2	 -0.292082	 -0.118047	 0.631836	 0.274771	 0.229446	 0.128815	 0.104401	 0.143070	 0.078982	 0.981016	 2
1463571436.514	 2	 -0.223009	 -0.131436	 0.573559	 0.272046	 0.228729	 0.135292	 0.103696	 0.142052	 0.081972	 0.980994	 2
1463571436.524	 2	 -0.159566	 -0.211773	 0.521103	 0.268875	 0.228475	 0.141050	 0.103297	 0.140788	 0.084616	 0.980994	 2
1463571436.534	 2	 -0.100580	 -0.334622	 0.471487	 0.264689	 0.228633	 0.146153	 0.103197	 0.139003	 0.086912	 0.981058	 2
1463571436.544	 2	 -0.045846	 -0.451098	 0.418770	 0.259443	 0.229179	 0.150599	 0.103389	 0.136675	 0.088856	 0.981191	 2
1463571436.554	 2	 0.012104	 -0.560177	 0.360765	 0.253271	 0.230110	 0.154329	 0.103871	 0.133868	 0.090421	 0.981384	 2
1463571436.564	 2	 0.070222	 -0.671512	 0.295363	 0.243362	 0.236261	 0.157932	 0.107111	 0.129388	 0.092016	 0.981488	 2
1463571436.574	 2	 0.100686	 -0.718877	 0.229645	 0.235729	 0.237771	 0.160155	 0.108065	 0.125809	 0.092778	 0.981777	 2
1463571436.584	 2	 0.111286	 -0.694785	 0.182884	 0.228293	 0.239260	 0.161827	 0.109040	 0.122298	 0.093274	 0.982066	 2
1463571436.594	 2	 0.148996	 -0.600392	 0.161053	 0.221680	 0.240963	 0.163164	 0.110107	 0.119181	 0.093655	 0.982294	 2
1463571436.604	 2	 0.207779	 -0.410302	 0.164561	 0.212224	 0.248465	 0.165461	 0.114110	 0.114919	 0.094617	 0.982253	 2
1463571436.614	 2	 0.270860	 -0.179509	 0.188540	 0.209546	 0.251342	 0.166755	 0.115579	 0.113777	 0.095234	 0.982154	 2
1463571436.624	 2	 0.335803	 0.005439	 0.198222	 0.208843	 0.254876	 0.168059	 0.117278	 0.113631	 0.095997	 0.981895	 2
1463571436.634	 2	 0.396039	 0.112628	 0.190169	 0.209476	 0.259013	 0.169189	 0.119218	 0.114152	 0.096780	 0.981524	 2
1463571436.644	 2	 0.448194	 0.098520	 0.172531	 0.210349	 0.263644	 0.170034	 0.121405	 0.114794	 0.097462	 0.981114	 2
1463571436.654	 2	 0.490397	 0.006832	 0.159587	 0.210501	 0.268681	 0.170647	 0.123839	 0.115082	 0.098005	 0.980722	 2
1463571436.664	 2	 0.531499	 -0.090187	 0.144471	 0.209728	 0.274078	 0.171022	 0.126508	 0.114915	 0.098389	 0.980362	 2
1463571436.674	 2	 0.573855	 -0.164725	 0.149804	 0.208171	 0.279897	 0.171300	 0.129428	 0.114373	 0.098690	 0.980014	 2
1463571436.684	 2	 0.599462	 -0.188009	 0.176008	 0.206186	 0.286068	 0.171748	 0.132531	 0.113646	 0.099058	 0.979647	 2
1463571436.694	 2	 0.600742	 -0.153882	 0.189104	 0.204342	 0.292342	 0.172394	 0.135667	 0.113005	 0.099528	 0.979244	 2
1463571436.704	 2	 0.573169	 -0.094435	 0.162187	 0.203090	 0.298385	 0.172920	 0.138665	 0.112640	 0.099965	 0.978821	 2
1463571436.714	 2	 0.512405	 -0.028761	 0.100447	 0.202605	 0.303808	 0.173016	 0.141345	 0.112598	 0.100213	 0.978417	 2
1463571436.724	 2	 0.439686	 0.026010	 -0.002855	 0.202962	 0.308344	 0.172313	 0.143591	 0.112880	 0.100091	 0.978070	 2
1463571436.734	 2	 0.395356	 0.021931	 -0.143187	 0.203843	 0.312080	 0.170363	 0.145489	 0.113298	 0.099363	 0.977816	 2
1463571436.744	 2	 0.401783	 -0.068560	 -0.298621	 0.204509	 0.315437	 0.166841	 0.147302	 0.113478	 0.097837	 0.977677	 2
1463571436.754	 2	 0.456057	 -0.196414	 -0.453753	 0.204515	 0.318902	 0.161608	 0.149296	 0.113205	 0.095431	 0.977644	 2
1463571436.764	 2	 0.525523	 -0.285898	 -0.591608	 0.204001	 0.322743	 0.154757	 0.151590	 0.112556	 0.092212	 0.977675	 2
1463571436.774	 2	 0.592168	 -0.314574	 -0.705426	 0.203517	 0.327005	 0.146529	 0.154162	 0.111813	 0.088340	 0.977716	 2
1463571436.784	 2	 0.674072	 -0.282611	 -0.811352	 0.203643	 0.331801	 0.137018	 0.157037	 0.111261	 0.083912	 0.977711	 2
1463571436.794	 2	 0.791478	 -0.180636	 -0.928659	 0.205173	 0.337415	 0.126059	 0.160335	 0.111273	 0.078928	 0.977590	 2
1463571436.804	 2	 0.915575	 -0.047580	 -1.010565	 0.208417	 0.344054	 0.113819	 0.164146	 0.112003	 0.073512	 0.977296	 2
1463571436.814	 2	 0.950783	 0.189392	 -1.025719	 0.213993	 0.351207	 0.101027	 0.168172	 0.113787	 0.068064	 0.976800	 2
1463571436.824	 2	 0.809452	 0.494423	 -0.967296	 0.222424	 0.357425	 0.088793	 0.171643	 0.116949	 0.063114	 0.976155	 2
1463571436.834	 2	 0.565631	 0.739571	 -0.847790	 0.233020	 0.361569	 0.078141	 0.173980	 0.121241	 0.059049	 0.975472	 2
1463571436.844	 2	 0.331942	 0.895132	 -0.757981	 0.244783	 0.363504	 0.069065	 0.175148	 0.126197	 0.055757	 0.974827	 2
1463571436.854	 2	 0.180778	 0.926833	 -0.700950	 0.256929	 0.363774	 0.061160	 0.175459	 0.131424	 0.052986	 0.974235	 2
1463571436.864	 2	 0.153794	 0.859925	 -0.698140	 0.268361	 0.363458	 0.053519	 0.175521	 0.136320	 0.050248	 0.973696	 2
1463571436.874	 2	 0.222737	 0.994814	 -0.696420	 0.280575	 0.363479	 0.045764	 0.175772	 0.141584	 0.047548	 0.973035	 2
1463571436.884	 2	 0.397275	 1.360059	 -0.713724	 0.296079	 0.364796	 0.037445	 0.176657	 0.148386	 0.044960	 0.971984	 2
1463571436.894	 2	 0.607593	 1.880176	 -0.773596	 0.316936	 0.367821	 0.027931	 0.178400	 0.157651	 0.042414	 0.970320	 2
1463571436.904	 2	 0.726826	 2.377734	 -0.901093	 0.343603	 0.371705	 0.016697	 0.180655	 0.169528	 0.039673	 0.968014	 2
1463571436.914	 2	 0.697742	 2.692451	 -1.074827	 0.374622	 0.374766	 0.003656	 0.182695	 0.183292	 0.036455	 0.965245	 2
1463571436.924	 2	 0.538410	 2.791452	 -1.273948	 0.407754	 0.375519	 -0.010874	 0.183871	 0.197912	 0.032561	 0.962269	 2
1463571436.934	 2	 0.278688	 2.668282	 -1.496643	 0.440570	 0.372764	 -0.026507	 0.183657	 0.212308	 0.027778	 0.959387	 2
1463571436.944	 2	 -0.058534	 2.405993	 -1.721023	 0.471189	 0.365687	 -0.042674	 0.181660	 0.225706	 0.022032	 0.956855	 2
1463571436.954	 2	 -0.417398	 2.057813	 -1.918305	 0.498317	 0.354050	 -0.058718	 0.177716	 0.237620	 0.015402	 0.954838	 2
1463571436.964	 2	 -0.701329	 1.714050	 -2.062909	 0.521562	 0.338563	 -0.074242	 0.172098	 0.247934	 0.008063	 0.953334	 2
1463571436.974	 2	 -0.830847	 1.480849	 -2.152410	 0.541765	 0.320764	 -0.089330	 0.165513	 0.257014	 0.000219	 0.952129	 2
1463571436.984	 2	 -0.787721	 1.406823	 -2.222749	 0.560591	 0.302333	 -0.104613	 0.158815	 0.265545	 -0.008067	 0.950894	 2
1463571436.994	 2	 -0.579283	 1.499625	 -2.248212	 0.579904	 0.284819	 -0.120757	 0.152834	 0.274290	 -0.016733	 0.949277	 2
1463571437.014	 2	 -0.186433	 2.270806	 -1.968719	 0.627128	 0.256197	 -0.153095	 0.144558	 0.295735	 -0.032859	 0.943697	 2
1463571437.004	 2	 -0.322723	 1.803028	 -2.141342	 0.601563	 0.269521	 -0.137390	 0.148170	 0.284080	 -0.025255	 0.946946	 2
1463571437.024	 2	 -0.132809	 2.740038	 -1.922189	 0.657081	 0.243551	 -0.168149	 0.141466	 0.309486	 -0.039839	 0.939478	 2
1463571437.034	 2	 -0.198243	 3.133657	 -1.937140	 0.690887	 0.230127	 -0.182566	 0.138240	 0.325127	 -0.046490	 0.934356	 2
1463571437.044	 2	 -0.344265	 3.397864	 -1.936608	 0.727152	 0.215195	 -0.195589	 0.134412	 0.342073	 -0.052721	 0.928515	 2
1463571437.054	 2	 -0.454627	 3.558547	 -1.970388	 0.764779	 0.198744	 -0.207281	 0.129962	 0.359783	 -0.058690	 0.922075	 2
1463571437.064	 2	 -0.462945	 3.690782	 -2.072464	 0.803490	 0.181000	 -0.218635	 0.125170	 0.378025	 -0.064874	 0.914998	 2
1463571437.074	 2	 -0.352768	 3.879683	 -2.232595	 0.843816	 0.162300	 -0.230845	 0.120466	 0.396921	 -0.071748	 0.907080	 2
1463571437.084	 2	 -0.151298	 4.238098	 -2.447364	 0.887306	 0.142780	 -0.244928	 0.116243	 0.417072	 -0.079663	 0.897882	 2
1463571437.094	 2	 0.074088	 4.781772	 -2.772522	 0.935870	 0.121681	 -0.261652	 0.112534	 0.439283	 -0.089024	 0.886815	 2
1463571437.104	 2	 0.285530	 5.411828	 -3.218252	 0.990569	 0.097548	 -0.281395	 0.109044	 0.464010	 -0.100292	 0.873353	 2
1463571437.114	 2	 0.477389	 5.980103	 -3.684636	 1.050877	 0.069359	 -0.303791	 0.105501	 0.490980	 -0.113631	 0.857261	 2
1463571437.124	 2	 0.644980	 6.341388	 -4.103709	 1.114932	 0.036850	 -0.327948	 0.101770	 0.519301	 -0.128886	 0.838665	 2
1463571437.134	 2	 0.620602	 6.493780	 -4.512397	 1.179849	 -0.000696	 -0.351904	 0.097093	 0.547760	 -0.145650	 0.818119	 2
1463571437.144	 2	 0.481861	 6.521759	 -4.816802	 1.244782	 -0.043378	 -0.373380	 0.090865	 0.575985	 -0.163192	 0.795835	 2
1463571437.154	 2	 0.405135	 6.238867	 -4.990355	 1.306767	 -0.089508	 -0.391792	 0.083357	 0.602567	 -0.181076	 0.772771	 2
1463571437.164	 2	 0.431838	 5.909119	 -5.130073	 1.364871	 -0.138120	 -0.407801	 0.074962	 0.626991	 -0.199385	 0.749339	 2
1463571437.174	 2	 0.587658	 5.508321	 -5.188447	 1.418612	 -0.188119	 -0.422528	 0.066289	 0.648956	 -0.218228	 0.725836	 2
1463571437.184	 2	 0.864264	 5.081165	 -5.166056	 1.467395	 -0.238434	 -0.437275	 0.057979	 0.668199	 -0.237694	 0.702602	 2
1463571437.194	 2	 1.136775	 4.713387	 -5.170785	 1.511299	 -0.289012	 -0.452688	 0.050156	 0.684826	 -0.257867	 0.679708	 2
1463571437.204	 2	 1.325924	 4.434209	 -5.311447	 1.551499	 -0.341115	 -0.468356	 0.042268	 0.699372	 -0.278862	 0.656756	 2
1463571437.214	 2	 1.383028	 4.146612	 -5.639678	 1.588348	 -0.396565	 -0.483153	 0.033245	 0.712032	 -0.300814	 0.633574	 2
1463571437.224	 2	 1.303536	 3.968032	 -6.096794	 1.623295	 -0.456755	 -0.495417	 0.022169	 0.723226	 -0.323599	 0.609701	 2
1463571437.234	 2	 1.235542	 3.964909	 -6.554509	 1.658648	 -0.521874	 -0.504367	 0.009059	 0.733449	 -0.347055	 0.584400	 2
1463571437.244	 2	 1.314734	 4.139243	 -6.975617	 1.696211	 -0.591717	 -0.510708	 -0.005370	 0.742887	 -0.371393	 0.556918	 2
1463571437.254	 2	 1.579465	 4.170237	 -6.994687	 1.734461	 -0.663288	 -0.516651	 -0.019468	 0.750876	 -0.396306	 0.527965	 2
1463571437.264	 2	 1.918289	 3.977237	 -6.631745	 1.769969	 -0.732960	 -0.524229	 -0.031960	 0.756639	 -0.421048	 0.499194	 2
1463571437.274	 2	 2.343081	 3.573112	 -5.867592	 1.798243	 -0.797125	 -0.536604	 -0.041623	 0.759638	 -0.444961	 0.472469	 2
1463571437.284	 2	 2.830001	 2.961491	 -4.797905	 1.813783	 -0.852825	 -0.557927	 -0.047559	 0.759526	 -0.467643	 0.449632	 2
1463571437.294	 2	 3.259150	 2.274909	 -3.675125	 1.812776	 -0.898765	 -0.591015	 -0.049731	 0.756386	 -0.488918	 0.431702	 2
1463571437.304	 2	 3.481900	 1.678827	 -2.769253	 1.796294	 -0.935730	 -0.634708	 -0.049108	 0.750939	 -0.508665	 0.418257	 2
1463571437.314	 2	 3.478124	 1.002917	 -2.109408	 1.766928	 -0.965122	 -0.685322	 -0.047263	 0.743801	 -0.526668	 0.408837	 2
1463571437.324	 2	 3.282846	 0.261493	 -1.760774	 1.727409	 -0.989011	 -0.738362	 -0.046063	 0.735346	 -0.542840	 0.403076	 2
1463571437.334	 2	 2.930890	 -0.447311	 -1.670519	 1.681512	 -1.009694	 -0.789685	 -0.046870	 0.726086	 -0.557206	 0.400156	 2
1463571437.344	 2	 2.430420	 -1.065316	 -1.732660	 1.633204	 -1.028987	 -0.835594	 -0.050520	 0.716609	 -0.569651	 0.399270	 2
1463571437.354	 2	 1.860646	 -1.482825	 -1.748636	 1.586501	 -1.047297	 -0.873632	 -0.056770	 0.707603	 -0.579908	 0.399727	 2
1463571437.364	 2	 1.363151	 -1.672585	 -1.570220	 1.543836	 -1.063529	 -0.903831	 -0.064332	 0.699510	 -0.587882	 0.401176	 2
1463571437.374	 2	 1.009693	 -1.651212	 -1.112929	 1.506258	 -1.075462	 -0.927640	 -0.071404	 0.692513	 -0.593607	 0.403681	 2
1463571437.384	 2	 0.783920	 -1.437211	 -0.441804	 1.474867	 -1.080966	 -0.946245	 -0.076316	 0.686764	 -0.597180	 0.407317	 2
1463571437.394	 2	 0.665620	 -1.134629	 0.314469	 1.450177	 -1.078989	 -0.960512	 -0.078098	 0.682269	 -0.598821	 0.412097	 2
1463571437.404	 2	 0.593568	 -0.944188	 1.025601	 1.431247	 -1.069725	 -0.970901	 -0.076856	 0.678737	 -0.598746	 0.418225	 2
1463571437.414	 2	 0.503751	 -0.978328	 1.561078	 1.416094	 -1.054703	 -0.977304	 -0.073721	 0.675681	 -0.597136	 0.425967	 2
1463571437.424	 2	 0.351573	 -1.209097	 1.943930	 1.403104	 -1.035764	 -0.979127	 -0.070019	 0.672716	 -0.594061	 0.435479	 2
1463571437.434	 2	 0.145918	 -1.591600	 2.208601	 1.391120	 -1.014240	 -0.975750	 -0.066763	 0.669582	 -0.589478	 0.446900	 2
1463571437.444	 2	 -0.094916	 -2.081318	 2.341493	 1.378758	 -0.991565	 -0.967178	 -0.064859	 0.666001	 -0.583472	 0.460214	 2
1463571437.454	 2	 -0.317284	 -2.474543	 2.441018	 1.365823	 -0.968425	 -0.953993	 -0.064388	 0.661960	 -0.576182	 0.475055	 2
1463571437.464	 2	 -0.504400	 -2.663407	 2.575176	 1.353421	 -0.944555	 -0.937011	 -0.064629	 0.657740	 -0.567695	 0.490840	 2
1463571437.474	 2	 -1.127562	 -3.020705	 2.480292	 1.343954	 -0.921765	 -0.912792	 -0.066691	 0.653900	 -0.557441	 0.507175	 2
1463571437.484	 2	 -2.650370	 -3.810232	 1.820103	 1.342129	 -0.907445	 -0.869437	 -0.075957	 0.651491	 -0.543662	 0.523662	 2
1463571437.494	 2	 -3.443530	 -4.067433	 1.526202	 1.347196	 -0.899735	 -0.811426	 -0.090575	 0.650273	 -0.527016	 0.539625	 2
1463571437.504	 2	 -3.221465	 -3.577034	 1.772892	 1.354766	 -0.890508	 -0.753762	 -0.103874	 0.649457	 -0.509800	 0.554545	 2
1463571437.514	 2	 -2.633553	 -2.656222	 2.265526	 1.364497	 -0.875476	 -0.703724	 -0.112026	 0.649490	 -0.493183	 0.567789	 2
1463571437.524	 2	 -2.044142	 -1.772424	 2.641635	 1.375822	 -0.854670	 -0.662849	 -0.114746	 0.650570	 -0.477604	 0.579212	 2
1463571437.534	 2	 -1.613538	 -1.194139	 2.625149	 1.387205	 -0.831825	 -0.630034	 -0.114193	 0.652288	 -0.463521	 0.588751	 2
1463571437.544	 2	 -1.277629	 -0.777110	 2.334086	 1.397306	 -0.810431	 -0.604116	 -0.112346	 0.654136	 -0.451416	 0.596412	 2
1463571437.554	 2	 -0.995176	 -0.306324	 1.954464	 1.407437	 -0.792057	 -0.584132	 -0.109774	 0.656380	 -0.441575	 0.601770	 2
1463571437.564	 2	 -0.844940	 0.131308	 1.642829	 1.418958	 -0.776503	 -0.568212	 -0.106701	 0.659291	 -0.433565	 0.604956	 2
1463571437.574	 2	 -0.968706	 0.461602	 1.525483	 1.433763	 -0.762581	 -0.552417	 -0.103579	 0.663238	 -0.426049	 0.606522	 2
1463571437.584	 2	 -1.173160	 0.831734	 1.735334	 1.453633	 -0.747574	 -0.534138	 -0.099941	 0.668693	 -0.417631	 0.606998	 2
1463571437.594	 2	 -1.114906	 1.269630	 2.448699	 1.477692	 -0.726372	 -0.515395	 -0.093516	 0.675650	 -0.407452	 0.607235	 2
1463571437.604	 2	 -0.726711	 1.868237	 3.016809	 1.504097	 -0.698230	 -0.501387	 -0.082753	 0.683832	 -0.396612	 0.606816	 2
1463571437.614	 2	 -0.427073	 2.224945	 3.339380	 1.531007	 -0.665777	 -0.492897	 -0.068735	 0.692556	 -0.385828	 0.605622	 2
1463571437.624	 2	 -0.427112	 2.235420	 3.317096	 1.557381	 -0.632471	 -0.486641	 -0.054030	 0.701192	 -0.374985	 0.603984	 2
1463571437.634	 2	 -0.651219	 1.765228	 3.069547	 1.580664	 -0.601097	 -0.479398	 -0.041206	 0.708781	 -0.363907	 0.602912	 2
1463571437.644	 2	 -0.904677	 0.977969	 2.794790	 1.597781	 -0.572297	 -0.469914	 -0.031429	 0.714390	 -0.352482	 0.603669	 2
1463571437.654	 2	 -1.084117	 0.101731	 2.453550	 1.607002	 -0.546547	 -0.458565	 -0.024926	 0.717524	 -0.341097	 0.606787	 2
1463571437.664	 3	 -1.245945	 -0.661810	 2.113204	 1.608775	 -0.524177	 -0.445528	 -0.021536	 0.718312	 -0.330035	 0.612079	 2
1463571437.684	 3	 -1.164077	 -0.804786	 1.937442	 1.603555	 -0.484797	 -0.417915	 -0.018587	 0.717038	 -0.308776	 0.624635	 2
1463571437.694	 3	 -0.623693	 -0.018626	 2.176651	 1.604706	 -0.463442	 -0.409940	 -0.013841	 0.717615	 -0.299344	 0.628673	 2
1463571437.704	 3	 0.177789	 1.181247	 2.370544	 1.613096	 -0.440117	 -0.410506	 -0.004296	 0.720493	 -0.291911	 0.629015	 2
1463571437.714	 3	 1.093013	 2.473831	 2.341564	 1.630142	 -0.416948	 -0.421356	 0.010096	 0.725957	 -0.287609	 0.624633	 2
1463571437.724	 3	 1.893110	 3.351853	 2.300138	 1.653866	 -0.395203	 -0.441552	 0.028300	 0.733136	 -0.286354	 0.616208	 2
1463571437.744	 4	 2.922140	 3.808054	 1.824356	 1.707412	 -0.359660	 -0.502146	 0.070376	 0.747520	 -0.291228	 0.592830	 2
1463571437.754	 4	 3.079755	 3.387826	 1.434333	 1.730342	 -0.349037	 -0.536722	 0.090196	 0.752668	 -0.296782	 0.580754	 2
1463571437.764	 4	 2.809102	 3.130467	 1.036766	 1.751083	 -0.342700	 -0.569322	 0.107659	 0.756870	 -0.302927	 0.569028	 2
1463571437.774	 4	 2.095019	 3.047221	 0.562616	 1.773321	 -0.340347	 -0.594406	 0.121328	 0.761631	 -0.307896	 0.557133	 2
1463571437.784	 4	 1.912668	 2.725839	 0.172210	 1.794884	 -0.341801	 -0.614645	 0.131947	 0.766336	 -0.312620	 0.545516	 2
1463571437.794	 4	 2.346713	 2.455510	 -0.116529	 1.811951	 -0.348673	 -0.637537	 0.141297	 0.769585	 -0.320046	 0.534176	 2
1463571437.804	 4	 2.968338	 2.504392	 -0.311192	 1.826949	 -0.358235	 -0.665853	 0.151695	 0.771769	 -0.329780	 0.522118	 2
1463571437.814	 4	 3.539995	 2.642169	 -0.294638	 1.840748	 -0.370089	 -0.700165	 0.163637	 0.773005	 -0.341677	 0.508864	 2
1463571437.824	 4	 3.816678	 2.829407	 -0.177005	 1.854467	 -0.382447	 -0.738588	 0.177132	 0.773599	 -0.354435	 0.494515	 2
1463571437.834	 4	 3.565463	 2.770137	 0.054835	 1.868204	 -0.393058	 -0.776486	 0.191076	 0.773846	 -0.366060	 0.480262	 2
1463571437.844	 4	 2.750133	 2.289713	 0.356943	 1.880334	 -0.399332	 -0.808253	 0.203742	 0.773831	 -0.374542	 0.468394	 2
1463571437.854	 4	 1.715930	 1.281953	 0.453554	 1.887483	 -0.401156	 -0.830151	 0.213019	 0.773286	 -0.379507	 0.461114	 2
1463571437.864	 4	 0.831247	 -0.246438	 0.391615	 1.884358	 -0.400480	 -0.842215	 0.217282	 0.771239	 -0.382393	 0.460168	 2
1463571437.874	 4	 0.267436	 -1.773233	 0.239505	 1.868306	 -0.398958	 -0.847154	 0.216555	 0.766918	 -0.384765	 0.465721	 2
1463571437.884	 4	 -0.012921	 -2.682077	 0.054441	 1.842951	 -0.398122	 -0.847916	 0.212202	 0.760830	 -0.387384	 0.475439	 2
1463571437.894	 4	 -0.106867	 -2.720711	 -0.177437	 1.815803	 -0.398971	 -0.846623	 0.206176	 0.754485	 -0.390192	 0.485792	 2
1463571437.904	 4	 -0.025895	 -2.007632	 -0.521081	 1.794075	 -0.403326	 -0.844995	 0.199962	 0.749564	 -0.393416	 0.493349	 2
1463571437.914	 4	 0.181619	 -0.903810	 -0.905889	 1.782528	 -0.411961	 -0.844412	 0.194767	 0.747229	 -0.397195	 0.495934	 2
1463571437.924	 4	 0.335794	 -0.150779	 -1.137890	 1.779466	 -0.423360	 -0.845115	 0.190843	 0.747003	 -0.401312	 0.494483	 2
1463571437.934	 4	 0.451545	 -0.184843	 -1.241528	 1.777415	 -0.436167	 -0.846870	 0.187055	 0.746983	 -0.406016	 0.492116	 2
1463571437.944	 4	 0.577903	 -0.705888	 -1.319949	 1.770494	 -0.450006	 -0.849904	 0.182401	 0.745682	 -0.411775	 0.491050	 2
1463571437.954	 4	 0.610320	 -1.231985	 -1.399730	 1.757742	 -0.464731	 -0.853624	 0.176456	 0.742925	 -0.418436	 0.491770	 2
1463571437.964	 4	 0.548263	 -1.492386	 -1.399481	 1.741713	 -0.479574	 -0.857041	 0.169579	 0.739386	 -0.425242	 0.493680	 2
1463571437.974	 4	 0.561309	 -1.495152	 -1.335675	 1.724949	 -0.493790	 -0.860714	 0.162737	 0.735607	 -0.431862	 0.495877	 2
1463571437.984	 4	 0.631255	 -1.365654	 -1.343605	 1.708613	 -0.507935	 -0.865437	 0.156292	 0.731841	 -0.438569	 0.497633	 2
1463571437.994	 4	 0.597126	 -1.105228	 -1.379251	 1.694424	 -0.522130	 -0.870323	 0.150264	 0.728603	 -0.445054	 0.498483	 2
1463571438.004	 4	 0.628037	 -0.916632	 -1.613299	 1.682425	 -0.538246	 -0.875287	 0.144030	 0.726002	 -0.451849	 0.498006	 2
1463571438.014	 4	 0.684508	 -0.907226	 -1.908963	 1.670431	 -0.557144	 -0.880863	 0.137003	 0.723494	 -0.459473	 0.496660	 2
1463571438.024	 4	 0.774089	 -0.440631	 -2.211275	 1.661199	 -0.579191	 -0.887293	 0.129774	 0.721759	 -0.467868	 0.493277	 2
1463571438.034	 4	 0.862618	 -0.589313	 -2.584314	 1.651963	 -0.604583	 -0.894808	 0.121715	 0.720096	 -0.477288	 0.488715	 2
1463571438.044	 4	 0.929362	 -1.058074	 -2.956945	 1.637554	 -0.633973	 -0.903413	 0.111326	 0.717272	 -0.488135	 0.484615	 2
1463571438.054	 4	 0.930729	 -1.456673	 -3.214318	 1.618176	 -0.665962	 -0.912861	 0.098937	 0.713325	 -0.499799	 0.481228	 2
1463571438.074	 5	 0.791337	 -1.563796	 -3.522106	 1.572460	 -0.734864	 -0.932488	 0.070193	 0.704053	 -0.523489	 0.474702	 2
1463571438.084	 5	 0.912410	 -0.945684	 -3.598407	 1.552872	 -0.770649	 -0.944871	 0.056723	 0.700252	 -0.535371	 0.468837	 2
1463571438.094	 5	 1.179869	 -0.144353	 -3.577292	 1.537310	 -0.806211	 -0.961880	 0.045819	 0.697361	 -0.547657	 0.460065	 2
1463571438.104	 5	 1.496863	 0.486110	 -3.503928	 1.534578	 -0.852335	 -0.976924	 0.033868	 0.697808	 -0.560972	 0.444103	 2
1463571438.114	 5	 1.743424	 0.594965	 -3.353724	 1.518895	 -0.885514	 -1.005342	 0.027450	 0.694860	 -0.574191	 0.432113	 2
1463571438.124	 5	 1.792217	 0.049282	 -3.048024	 1.496043	 -0.915726	 -1.037438	 0.021082	 0.690512	 -0.587098	 0.421977	 2
1463571438.134	 5	 1.458434	 -1.011722	 -2.530636	 1.464716	 -0.940939	 -1.067427	 0.012999	 0.684578	 -0.598133	 0.416438	 2
1463571438.144	 5	 0.817146	 -2.269305	 -1.818431	 1.428041	 -0.959604	 -1.088586	 0.002376	 0.677623	 -0.605754	 0.416993	 2
1463571438.154	 5	 0.073607	 -3.542049	 -1.038333	 1.389202	 -0.971397	 -1.096579	 -0.011050	 0.670027	 -0.609156	 0.424112	 2
1463571438.164	 5	 -0.657837	 -4.748805	 -0.247069	 1.350266	 -0.976705	 -1.089801	 -0.027116	 0.661848	 -0.608092	 0.437546	 2
1463571438.174	 5	 -1.293221	 -5.656508	 0.460880	 1.313215	 -0.976577	 -1.068667	 -0.045233	 0.653180	 -0.602682	 0.456163	 2
1463571438.184	 5	 -1.823845	 -6.111989	 0.944052	 1.280402	 -0.973123	 -1.035559	 -0.064491	 0.644421	 -0.593578	 0.477732	 2
1463571438.194	 5	 -2.296196	 -6.274374	 1.240804	 1.253452	 -0.968462	 -0.992483	 -0.084433	 0.635983	 -0.581399	 0.500372	 2
1463571438.204	 5	 -2.633975	 -5.888959	 1.450892	 1.234759	 -0.963417	 -0.941673	 -0.103939	 0.628570	 -0.566817	 0.522318	 2
1463571438.214	 5	 -2.373669	 -4.973147	 1.415583	 1.223203	 -0.958113	 -0.892741	 -0.120443	 0.622535	 -0.552386	 0.541123	 2
1463571438.224	 5	 -1.999469	 -4.415332	 1.193705	 1.211734	 -0.953592	 -0.851104	 -0.134729	 0.616572	 -0.539540	 0.557300	 2
1463571438.234	 5	 -1.650096	 -3.451263	 0.955574	 1.202023	 -0.950323	 -0.817172	 -0.146474	 0.611353	 -0.528788	 0.570242	 2
1463571438.244	 5	 -1.526025	 -2.216109	 0.900976	 1.201190	 -0.947467	 -0.786986	 -0.154791	 0.608771	 -0.519600	 0.579184	 2
1463571438.254	 5	 -1.754180	 -0.843121	 0.937054	 1.215827	 -0.944778	 -0.754455	 -0.159893	 0.610420	 -0.510852	 0.583826	 2
1463571438.264	 5	 -1.904481	 0.269263	 1.002002	 1.245204	 -0.941978	 -0.718333	 -0.162446	 0.616068	 -0.502181	 0.584710	 2
1463571438.274	 5	 -1.326269	 1.096247	 1.312668	 1.278847	 -0.934917	 -0.687779	 -0.160818	 0.623435	 -0.494674	 0.583750	 2
1463571438.284	 5	 -0.549088	 1.955150	 1.705028	 1.311554	 -0.921479	 -0.668582	 -0.153675	 0.631573	 -0.489032	 0.581677	 2
1463571438.294	 5	 0.118329	 2.722031	 1.977057	 1.343548	 -0.902961	 -0.660400	 -0.141475	 0.640486	 -0.485226	 0.578202	 2
1463571438.304	 5	 0.727905	 3.126288	 2.088482	 1.372345	 -0.881527	 -0.662460	 -0.125780	 0.649221	 -0.483169	 0.573793	 2
1463571438.314	 5	 1.269544	 3.411361	 2.164219	 1.397224	 -0.858368	 -0.673726	 -0.107435	 0.657276	 -0.482736	 0.568693	 2
1463571438.324	 5	 1.483672	 3.523771	 2.204966	 1.420115	 -0.834337	 -0.690057	 -0.087573	 0.664769	 -0.483044	 0.563099	 2
1463571438.334	 5	 1.463661	 3.402162	 2.147523	 1.442165	 -0.810805	 -0.706903	 -0.067914	 0.671716	 -0.483187	 0.557419	 2
1463571438.344	 5	 1.767575	 3.350411	 1.881152	 1.460108	 -0.789022	 -0.728503	 -0.048272	 0.677316	 -0.484578	 0.551450	 2
1463571438.354	 5	 1.128213	 3.238508	 1.445518	 1.481696	 -0.772424	 -0.744580	 -0.031495	 0.683478	 -0.485452	 0.544244	 2
1463571438.364	 5	 0.762099	 2.972999	 1.205372	 1.505026	 -0.759239	 -0.754597	 -0.017605	 0.689822	 -0.485243	 0.537006	 2
1463571438.374	 5	 0.797794	 2.894849	 1.149981	 1.527480	 -0.747324	 -0.764343	 -0.004488	 0.695772	 -0.485018	 0.529754	 2
1463571438.384	 5	 0.986807	 2.713148	 1.397098	 1.546968	 -0.733967	 -0.776403	 0.009227	 0.700763	 -0.484812	 0.523262	 2
1463571438.394	 5	 1.122637	 2.457051	 1.777207	 1.562649	 -0.716892	 -0.790881	 0.024181	 0.704517	 -0.484101	 0.518379	 2
1463571438.404	 5	 0.749481	 1.828539	 2.077284	 1.575408	 -0.696707	 -0.802334	 0.038438	 0.707313	 -0.481656	 0.515984	 2
1463571438.414	 5	 0.103399	 0.944361	 2.212165	 1.584662	 -0.675043	 -0.806080	 0.049602	 0.709191	 -0.476754	 0.517004	 2
1463571438.424	 5	 -0.370064	 0.142335	 2.451818	 1.589911	 -0.650965	 -0.803119	 0.058232	 0.710078	 -0.469452	 0.521548	 2
1463571438.434	 5	 -0.659248	 -0.848378	 2.560219	 1.587900	 -0.625786	 -0.796419	 0.064199	 0.709091	 -0.460975	 0.529690	 2
1463571438.444	 5	 -0.872452	 -1.252264	 3.099725	 1.581175	 -0.596076	 -0.786814	 0.069673	 0.706711	 -0.450532	 0.541042	 2
1463571438.454	 5	 -0.880099	 -0.791206	 3.314037	 1.577578	 -0.563088	 -0.776454	 0.076781	 0.704962	 -0.438719	 0.551959	 2
1463571438.464	 5	 -0.763875	 -0.012967	 3.169994	 1.579977	 -0.530842	 -0.767402	 0.085403	 0.704745	 -0.427050	 0.560062	 2
1463571438.474	 5	 -0.507690	 1.108752	 2.926682	 1.591090	 -0.500850	 -0.761218	 0.096022	 0.706880	 -0.416226	 0.563787	 2
1463571438.484	 5	 -0.199285	 2.357782	 2.513577	 1.612606	 -0.474492	 -0.759026	 0.108786	 0.711868	 -0.406801	 0.562070	 2
1463571438.494	 5	 0.051796	 3.231419	 2.085755	 1.642609	 -0.452715	 -0.760309	 0.122722	 0.719167	 -0.398906	 0.555529	 2
1463571438.504	 5	 0.174837	 3.554309	 1.780749	 1.676196	 -0.434444	 -0.763828	 0.136773	 0.727330	 -0.392098	 0.546391	 2
1463571438.514	 5	 0.153250	 3.462359	 1.559468	 1.709601	 -0.418695	 -0.767766	 0.149907	 0.735345	 -0.385836	 0.536588	 2
1463571438.524	 5	 0.060407	 3.051723	 1.510628	 1.739982	 -0.403907	 -0.771255	 0.161806	 0.742451	 -0.379670	 0.527670	 2
1463571438.534	 5	 -0.123176	 2.326173	 1.559829	 1.764336	 -0.388587	 -0.773526	 0.172126	 0.747910	 -0.373252	 0.521235	 2
1463571438.544	 5	 -0.343117	 1.546816	 1.654673	 1.781429	 -0.372045	 -0.773997	 0.180676	 0.751494	 -0.366412	 0.518030	 2
1463571438.554	 5	 -0.444132	 1.055671	 1.793795	 1.793277	 -0.353909	 -0.773565	 0.188319	 0.753674	 -0.359156	 0.517223	 2
1463571438.564	 5	 -0.454610	 0.807536	 1.599740	 1.801830	 -0.336456	 -0.772950	 0.195007	 0.755013	 -0.352298	 0.517507	 2
1463571438.574	 5	 -0.441776	 0.835137	 1.304669	 1.810336	 -0.322046	 -0.771614	 0.200414	 0.756547	 -0.346217	 0.517305	 2
1463571438.584	 5	 -0.202571	 1.022426	 1.121017	 1.820333	 -0.310122	 -0.771813	 0.205844	 0.758430	 -0.341172	 0.515766	 2
1463571438.594	 5	 -0.031099	 0.850818	 0.700149	 1.828715	 -0.301963	 -0.773405	 0.210342	 0.759948	 -0.337899	 0.513868	 2
1463571438.604	 5	 -0.183975	 0.942687	 0.253649	 1.837848	 -0.298258	 -0.773060	 0.212864	 0.762108	 -0.335561	 0.511155	 2
1463571438.614	 5	 -0.501067	 1.407161	 -0.065391	 1.851834	 -0.297001	 -0.768856	 0.213969	 0.766043	 -0.332561	 0.506753	 2
1463571438.624	 5	 -0.599166	 1.650129	 -0.334046	 1.870068	 -0.298009	 -0.762018	 0.214059	 0.771423	 -0.329242	 0.500685	 2
1463571438.634	 5	 -0.344568	 1.297582	 -0.299044	 1.885894	 -0.299699	 -0.756773	 0.214130	 0.776013	 -0.326841	 0.495103	 2
1463571438.644	 5	 -0.241950	 0.539922	 -0.162044	 1.894221	 -0.301096	 -0.753795	 0.213924	 0.778457	 -0.325713	 0.492090	 2
1463571438.664	 6	 -1.526537	 -0.810314	 0.713698	 1.890924	 -0.287060	 -0.736776	 0.210853	 0.778747	 -0.316820	 0.498718	 2
1463571438.674	 6	 -2.075448	 -0.560890	 0.859348	 1.888434	 -0.272962	 -0.720273	 0.208141	 0.779139	 -0.307861	 0.504818	 2
1463571438.684	 6	 -2.363617	 0.942572	 0.676549	 1.898980	 -0.258672	 -0.699887	 0.205919	 0.783197	 -0.296419	 0.506296	 2
1463571438.694	 6	 -2.123353	 1.864312	 0.424054	 1.921142	 -0.246685	 -0.680078	 0.204787	 0.790239	 -0.284727	 0.502508	 2
1463571438.704	 6	 -2.344569	 2.565461	 -0.219742	 1.951140	 -0.239066	 -0.658046	 0.202365	 0.799618	 -0.273322	 0.494928	 2
1463571438.714	 6	 -2.284417	 1.523244	 -0.764976	 1.975577	 -0.236160	 -0.633379	 0.196537	 0.807970	 -0.263711	 0.488890	 2
1463571438.724	 6	 -1.914879	 0.327936	 -0.882695	 1.986737	 -0.236055	 -0.610715	 0.188835	 0.812874	 -0.257064	 0.487335	 2
1463571438.734	 6	 -1.114355	 0.156259	 -0.912578	 1.991795	 -0.238967	 -0.594373	 0.182032	 0.815717	 -0.253744	 0.486913	 2
1463571438.744	 6	 -0.263085	 0.564960	 -0.677456	 1.998459	 -0.243914	 -0.586713	 0.178401	 0.818173	 -0.253210	 0.484407	 2
1463571438.754	 6	 0.570669	 0.362529	 -0.095101	 2.002142	 -0.247820	 -0.588903	 0.178705	 0.818978	 -0.254934	 0.482025	 2
1463571438.764	 6	 1.578478	 0.358912	 0.546205	 2.002627	 -0.249741	 -0.602933	 0.183988	 0.817877	 -0.259012	 0.479727	 2
1463571438.784	 7	 3.023373	 0.213289	 0.702792	 1.990479	 -0.256917	 -0.659466	 0.203414	 0.809735	 -0.276465	 0.475940	 2
1463571438.794	 7	 3.147546	 1.254060	 0.097516	 1.991740	 -0.267113	 -0.690158	 0.213220	 0.807219	 -0.287469	 0.469357	 2
1463571438.804	 7	 3.004230	 3.114234	 -0.850573	 2.010665	 -0.285365	 -0.716665	 0.221760	 0.809396	 -0.298443	 0.454567	 2
1463571438.814	 7	 2.041227	 4.247425	 -1.764186	 2.048139	 -0.309617	 -0.731171	 0.226867	 0.816896	 -0.306648	 0.432643	 2
1463571438.824	 7	 0.994661	 1.038499	 -1.895773	 2.067537	 -0.332342	 -0.733228	 0.224759	 0.821417	 -0.313534	 0.420064	 2
1463571438.834	 7	 0.424569	 -1.162589	 -1.752492	 2.061168	 -0.350467	 -0.729172	 0.217333	 0.820932	 -0.320263	 0.419844	 2
1463571438.844	 7	 0.395545	 -2.027941	 -1.851947	 2.044629	 -0.368264	 -0.723804	 0.207733	 0.818352	 -0.327596	 0.424060	 2
1463571438.854	 7	 0.456937	 -2.243809	 -2.260546	 2.024492	 -0.389419	 -0.717863	 0.196257	 0.814997	 -0.336263	 0.429173	 2
1463571438.864	 7	 0.289859	 -1.789921	 -2.951876	 2.008884	 -0.415824	 -0.708309	 0.182465	 0.812857	 -0.345448	 0.432014	 2
1463571438.874	 7	 0.070831	 -1.229811	 -3.683331	 2.001724	 -0.448213	 -0.693247	 0.166092	 0.812798	 -0.354703	 0.431230	 2
1463571438.884	 7	 0.052937	 -1.255331	 -4.128903	 1.997741	 -0.485287	 -0.674967	 0.147554	 0.813246	 -0.364603	 0.428864	 2
1463571438.894	 7	 0.346785	 -1.877990	 -4.363347	 1.984746	 -0.537603	 -0.659655	 0.124089	 0.810769	 -0.381095	 0.426640	 2
1463571438.904	 7	 0.730416	 -2.255161	 -4.591882	 1.970475	 -0.582175	 -0.645345	 0.102731	 0.807439	 -0.394717	 0.426248	 2
1463571438.914	 7	 0.994520	 -2.080839	 -4.939997	 1.955787	 -0.630546	 -0.633365	 0.080889	 0.803196	 -0.409799	 0.424732	 2
1463571438.924	 7	 1.089540	 -1.571891	 -5.266475	 1.945811	 -0.682779	 -0.621671	 0.058781	 0.799144	 -0.425687	 0.420362	 2
1463571438.934	 7	 1.063785	 -0.805089	 -5.138684	 1.943581	 -0.735185	 -0.609816	 0.038101	 0.796001	 -0.441067	 0.412785	 2
1463571438.944	 7	 1.112460	 -0.568355	 -4.448422	 1.944297	 -0.782464	 -0.600408	 0.020554	 0.793069	 -0.454977	 0.404493	 2
1463571438.954	 7	 1.355732	 -0.885836	 -3.543334	 1.938036	 -0.822202	 -0.598015	 0.006403	 0.788760	 -0.467667	 0.398879	 2
1463571438.964	 7	 1.572512	 -0.951931	 -2.890393	 1.924295	 -0.855954	 -0.603438	 -0.004769	 0.783223	 -0.479700	 0.395509	 2
1463571438.974	 7	 1.561012	 -0.567087	 -2.480656	 1.910278	 -0.885548	 -0.612884	 -0.013369	 0.777941	 -0.490899	 0.391978	 2
1463571438.984	 7	 1.401064	 -0.122960	 -2.169257	 1.900128	 -0.911398	 -0.622985	 -0.019786	 0.773742	 -0.500832	 0.387427	 2
1463571438.994	 7	 1.342345	 -0.213518	 -2.067275	 1.890599	 -0.935380	 -0.633167	 -0.025564	 0.769832	 -0.510014	 0.382873	 2
1463571439.004	 7	 1.289366	 -0.902720	 -2.229852	 1.875385	 -0.960069	 -0.643132	 -0.033222	 0.764779	 -0.519083	 0.380212	 2
1463571439.014	 7	 1.073449	 -1.744405	 -2.661043	 1.854985	 -0.987648	 -0.649348	 -0.044725	 0.758417	 -0.527928	 0.379600	 2
1463571439.024	 7	 0.788030	 -2.677703	 -3.286451	 1.830704	 -1.020050	 -0.649158	 -0.061378	 0.750651	 -0.536465	 0.380737	 2
1463571439.034	 7	 0.523383	 -3.517366	 -3.898379	 1.803557	 -1.057835	 -0.642220	 -0.083213	 0.741401	 -0.544595	 0.383166	 2
1463571439.044	 7	 0.442353	 -4.181522	 -4.434603	 1.772395	 -1.100797	 -0.631843	 -0.109235	 0.730349	 -0.552578	 0.386414	 2
1463571439.064	 8	 0.718731	 -4.282738	 -5.665709	 1.694154	 -1.205057	 -0.620303	 -0.168939	 0.702469	 -0.570924	 0.389927	 2
1463571439.074	 8	 0.869852	 -3.720124	 -5.902652	 1.648760	 -1.264467	 -0.627489	 -0.198898	 0.687156	 -0.581706	 0.387136	 2
1463571439.084	 8	 1.058810	 -3.281513	 -5.331099	 1.588794	 -1.320098	 -0.654634	 -0.225640	 0.671803	 -0.592190	 0.383508	 2
1463571439.094	 8	 1.118342	 -2.725479	 -4.166893	 1.507675	 -1.364631	 -0.708279	 -0.247002	 0.657673	 -0.601044	 0.381054	 2
1463571439.104	 8	 0.984495	 -1.652036	 -2.866167	 1.417361	 -1.395205	 -0.780318	 -0.261351	 0.646797	 -0.607964	 0.379116	 2
1463571439.114	 8	 0.731697	 -0.469478	 -1.820239	 1.339243	 -1.413919	 -0.851955	 -0.268745	 0.640195	 -0.613461	 0.376287	 2
1463571439.124	 8	 0.520233	 0.307859	 -0.902069	 1.286963	 -1.423338	 -0.906290	 -0.270841	 0.637238	 -0.617530	 0.373135	 2
1463571439.134	 8	 0.541892	 0.682028	 -0.191109	 1.251709	 -1.425149	 -0.948073	 -0.269102	 0.636255	 -0.620693	 0.370816	 2
1463571439.144	 8	 0.664675	 0.762628	 0.265784	 1.223009	 -1.421529	 -0.984821	 -0.265034	 0.635936	 -0.623407	 0.369737	 2
1463571439.164	 9	 1.014166	 0.434613	 0.788306	 1.159073	 -1.403460	 -1.060584	 -0.254410	 0.633994	 -0.628177	 0.372453	 2
1463571439.174	 9	 1.230799	 0.558233	 0.909067	 1.124280	 -1.390539	 -1.101144	 -0.247795	 0.632367	 -0.630895	 0.375075	 2
1463571439.184	 9	 1.423140	 0.600305	 0.921639	 1.087371	 -1.376049	 -1.145005	 -0.240311	 0.630298	 -0.634260	 0.377743	 2
1463571439.194	 9	 1.453159	 0.181295	 0.647841	 1.045249	 -1.362523	 -1.190893	 -0.234318	 0.627079	 -0.637775	 0.380933	 2
1463571439.204	 9	 1.447091	 -0.342359	 0.009958	 0.991401	 -1.353377	 -1.244204	 -0.231539	 0.622364	 -0.641707	 0.383751	 2
1463571439.214	 9	 1.409967	 -0.675428	 -0.613092	 0.920721	 -1.348924	 -1.310095	 -0.232278	 0.615998	 -0.646287	 0.385886	 2
1463571439.224	 9	 1.227736	 -0.586565	 -1.192584	 0.840884	 -1.348829	 -1.385499	 -0.235048	 0.609389	 -0.651516	 0.385909	 2
1463571439.234	 9	 0.806976	 -0.175672	 -1.755280	 0.757490	 -1.353918	 -1.467962	 -0.239109	 0.603867	 -0.657101	 0.382609	 2
1463571439.244	 9	 0.186870	 0.289973	 -2.328520	 0.671640	 -1.365592	 -1.557600	 -0.244423	 0.600419	 -0.662505	 0.375288	 2
1463571439.254	 9	 -0.609095	 0.584831	 -2.910344	 0.575232	 -1.385025	 -1.661222	 -0.251717	 0.599290	 -0.667067	 0.364021	 2
1463571439.264	 9	 -1.351287	 0.664281	 -3.400853	 0.450626	 -1.411470	 -1.794397	 -0.261463	 0.600191	 -0.670244	 0.349543	 2
1463571439.274	 9	 -1.842224	 0.457199	 -3.701182	 0.263278	 -1.440615	 -1.989018	 -0.273603	 0.602056	 -0.671939	 0.333419	 2
1463571439.284	 9	 -2.129658	 0.175999	 -3.726875	 -0.029142	 -1.465769	 -2.285790	 -0.287440	 0.604138	 -0.672119	 0.317256	 2
1463571439.294	 9	 -2.337742	 0.267147	 -3.562219	 -0.441495	 -1.479896	 -2.702214	 -0.301187	 0.606837	 -0.671091	 0.301119	 2
1463571439.304	 9	 -2.515556	 0.777206	 -3.259643	 -0.892073	 -1.478607	 3.122212	 -0.312868	 0.610915	 -0.669429	 0.284188	 2
1463571439.314	 9	 -2.747664	 1.310690	 -2.682475	 -1.258431	 -1.466010	 2.742152	 -0.321343	 0.616982	 -0.667023	 0.266744	 2
1463571439.324	 9	 -3.234419	 1.583259	 -1.960574	 -1.545059	 -1.449923	 2.438365	 -0.326913	 0.625761	 -0.662657	 0.249874	 2
1463571439.334	 9	 -3.863544	 1.705714	 -1.169555	 -1.801194	 -1.432329	 2.163088	 -0.330172	 0.637767	 -0.655373	 0.233936	 2
1463571439.344	 9	 -4.299281	 1.653146	 -0.381850	 -2.036425	 -1.412442	 1.908276	 -0.331320	 0.652402	 -0.645240	 0.219693	 2
1463571439.354	 9	 -4.401262	 1.454822	 0.241730	 -2.241235	 -1.389474	 1.685233	 -0.330878	 0.668238	 -0.633100	 0.207755	 2
1463571439.364	 9	 -4.032539	 1.432425	 0.675273	 -2.402425	 -1.365230	 1.506553	 -0.328699	 0.683654	 -0.620810	 0.197913	 2
1463571439.374	 9	 -3.345485	 1.582605	 0.981891	 -2.520240	 -1.343495	 1.370152	 -0.324224	 0.697491	 -0.610265	 0.189637	 2
1463571439.384	 9	 -2.597533	 1.621129	 1.169706	 -2.606454	 -1.326416	 1.264691	 -0.317881	 0.709237	 -0.602076	 0.182865	 2
1463571439.394	 9	 -2.111466	 1.232911	 1.219413	 -2.675831	 -1.312834	 1.179060	 -0.311474	 0.718994	 -0.595218	 0.178178	 2
1463571439.404	 9	 -1.822349	 0.614491	 1.125880	 -2.736500	 -1.300567	 1.108243	 -0.306681	 0.727063	 -0.588545	 0.175903	 2
1463571439.414	 9	 -1.546925	 0.102940	 0.950331	 -2.788062	 -1.289205	 1.052409	 -0.303848	 0.733503	 -0.582094	 0.175547	 2
1463571439.424	 9	 -1.033908	 -0.182576	 0.946405	 -2.832432	 -1.281084	 1.007425	 -0.301799	 0.738230	 -0.576746	 0.176912	 2
1463571439.434	 9	 -0.421328	 -0.440394	 0.988763	 -2.873003	 -1.278442	 0.968918	 -0.299727	 0.741014	 -0.573213	 0.180248	 2
1463571439.444	 9	 -0.042579	 -0.907421	 0.981119	 -2.913408	 -1.279706	 0.934827	 -0.298414	 0.742110	 -0.570717	 0.185753	 2
1463571439.454	 9	 0.066307	 -1.606292	 1.014167	 -2.960153	 -1.282271	 0.900860	 -0.298683	 0.742107	 -0.567845	 0.193953	 2
1463571439.464	 9	 0.008709	 -2.308904	 1.050761	 -3.016421	 -1.284137	 0.864622	 -0.300870	 0.741449	 -0.563680	 0.204929	 2
1463571439.474	 9	 -0.119247	 -2.597100	 1.151507	 -3.079804	 -1.284423	 0.825054	 -0.303948	 0.740665	 -0.558376	 0.217367	 2
1463571439.484	 9	 -0.471676	 -2.804282	 1.332761	 3.132035	 -1.281040	 0.779379	 -0.307237	 0.740579	 -0.551346	 0.230575	 2
1463571439.494	 9	 -0.846987	 -2.776218	 1.384249	 3.059511	 -1.272834	 0.732942	 -0.310697	 0.741458	 -0.542563	 0.243584	 2
1463571439.504	 9	 -1.171283	 -2.432506	 1.276235	 2.996598	 -1.260507	 0.693540	 -0.313994	 0.743285	 -0.532925	 0.254806	 2
1463571439.514	 9	 -1.454754	 -1.946061	 1.066880	 2.949374	 -1.244924	 0.665692	 -0.317107	 0.746031	 -0.523022	 0.263304	 2
1463571439.524	 9	 -1.591788	 -1.183513	 0.856687	 2.919229	 -1.227690	 0.648559	 -0.319428	 0.749687	 -0.513724	 0.268370	 2
1463571439.534	 9	 -1.544875	 -0.178424	 0.726016	 2.904580	 -1.210707	 0.637634	 -0.319825	 0.754298	 -0.506114	 0.269435	 2
1463571439.544	 9	 -1.357281	 0.951228	 0.668818	 2.902750	 -1.195407	 0.628561	 -0.317478	 0.759817	 -0.500926	 0.266383	 2
1463571439.554	 9	 -1.106735	 2.014244	 0.688251	 2.910711	 -1.182425	 0.618134	 -0.312019	 0.766134	 -0.498336	 0.259509	 2
1463571439.564	 9	 -0.815206	 2.711301	 0.713515	 2.924522	 -1.172171	 0.605327	 -0.304050	 0.772706	 -0.497958	 0.250033	 2
1463571439.574	 9	 -0.512604	 3.046650	 0.732118	 2.940466	 -1.164908	 0.590265	 -0.294516	 0.778908	 -0.499246	 0.239406	 2
1463571439.584	 9	 -0.246457	 3.127833	 0.741214	 2.956258	 -1.160451	 0.573478	 -0.284181	 0.784403	 -0.501686	 0.228614	 2
1463571439.594	 9	 -0.023712	 3.065488	 0.740826	 2.970729	 -1.158367	 0.555604	 -0.273592	 0.789080	 -0.504852	 0.218230	 2
1463571439.604	 9	 0.185955	 2.958399	 0.725215	 2.983594	 -1.158495	 0.537056	 -0.262992	 0.792906	 -0.508609	 0.208455	 2
1463571439.614	 9	 0.388882	 2.826463	 0.654011	 2.995710	 -1.160822	 0.519064	 -0.252657	 0.795827	 -0.512954	 0.199254	 2
1463571439.624	 9	 0.557147	 2.646248	 0.511255	 3.008344	 -1.165196	 0.503456	 -0.243003	 0.797801	 -0.517826	 0.190578	 2
1463571439.634	 9	 0.717248	 2.393091	 0.280498	 3.022948	 -1.171426	 0.492606	 -0.234607	 0.798756	 -0.523122	 0.182459	 2
1463571439.644	 9	 1.002885	 2.140967	 -0.050459	 3.041637	 -1.180527	 0.489040	 -0.227854	 0.798343	 -0.529302	 0.174844	 2
1463571439.654	 9	 1.432469	 2.094712	 -0.388213	 3.067289	 -1.193945	 0.494181	 -0.222387	 0.796262	 -0.537179	 0.167182	 2
1463571439.664	 9	 1.807521	 2.369701	 -0.596743	 3.101933	 -1.211480	 0.506857	 -0.217004	 0.792835	 -0.546989	 0.158507	 2
1463571439.674	 9	 1.855968	 2.746614	 -0.669327	 -3.137581	 -1.230350	 0.524993	 -0.210802	 0.788996	 -0.557757	 0.148171	 2
1463571439.684	 9	 1.296229	 2.571166	 -0.595746	 -3.091642	 -1.244851	 0.545395	 -0.204732	 0.786122	 -0.566754	 0.137433	 2
1463571439.694	 9	 0.405838	 2.010166	 -0.288406	 -3.057675	 -1.251149	 0.558694	 -0.199705	 0.785290	 -0.571744	 0.128629	 2
1463571439.704	 9	 -0.744114	 2.169027	 0.179231	 -3.040043	 -1.246310	 0.555276	 -0.193796	 0.788056	 -0.571824	 0.120115	 2
1463571439.714	 9	 -0.917685	 1.581985	 0.704964	 -3.040999	 -1.237647	 0.534903	 -0.186869	 0.792315	 -0.569569	 0.113609	 2
1463571439.724	 9	 -0.583807	 -0.046541	 1.260283	 -3.070974	 -1.231828	 0.499120	 -0.181706	 0.795503	 -0.566576	 0.114669	 2
1463571439.734	 9	 -0.130073	 -1.391152	 1.561418	 -3.125188	 -1.230068	 0.453343	 -0.178936	 0.796898	 -0.563714	 0.123137	 2
1463571439.744	 9	 0.189950	 -1.671418	 1.323687	 3.101285	 -1.231144	 0.410961	 -0.177943	 0.796731	 -0.561807	 0.133900	 2
1463571439.754	 9	 0.226405	 -0.949055	 0.775895	 3.062940	 -1.232955	 0.382784	 -0.177405	 0.796078	 -0.561067	 0.141390	 2
1463571439.764	 9	 0.027988	 0.145716	 0.299691	 3.049984	 -1.233485	 0.370365	 -0.176077	 0.796102	 -0.561018	 0.143097	 2
1463571439.774	 9	 -0.211358	 0.982625	 0.035661	 3.055774	 -1.231781	 0.368133	 -0.173623	 0.797196	 -0.560996	 0.140059	 2
1463571439.784	 9	 -0.171862	 1.652673	 0.047947	 3.070661	 -1.229765	 0.368073	 -0.169497	 0.798799	 -0.561464	 0.133974	 2
1463571439.804	 10	 -0.260009	 -0.164439	 0.973940	 3.057172	 -1.226196	 0.331788	 -0.158885	 0.801913	 -0.561300	 0.128973	 2
1463571439.814	 10	 -0.668599	 -2.264114	 1.086916	 3.011254	 -1.219544	 0.301979	 -0.159917	 0.803122	 -0.556933	 0.138737	 2
1463571439.824	 10	 -1.290177	 -3.098705	 0.883133	 2.960954	 -1.206907	 0.280103	 -0.165155	 0.804850	 -0.549276	 0.152434	 2
1463571439.834	 10	 -1.786146	 -3.079559	 0.389918	 2.925049	 -1.189448	 0.275000	 -0.172841	 0.807382	 -0.539474	 0.165008	 2
1463571439.844	 10	 -1.548162	 0.385586	 0.033219	 2.922691	 -1.172800	 0.282336	 -0.176337	 0.811213	 -0.531782	 0.167471	 2
1463571439.854	 10	 -0.907588	 6.324105	 -0.241090	 2.981190	 -1.162911	 0.291162	 -0.164375	 0.817783	 -0.531972	 0.145662	 2
1463571439.864	 10	 -0.775111	 7.496242	 -1.061566	 3.077208	 -1.155981	 0.313868	 -0.148204	 0.824093	 -0.535135	 0.111971	 2
1463571439.874	 10	 -0.835766	 4.667108	 -1.955960	 -3.111320	 -1.148059	 0.356994	 -0.140988	 0.827743	 -0.536588	 0.083895	 2
1463571439.884	 10	 -0.695353	 1.121641	 -2.694643	 -3.037652	 -1.138749	 0.416395	 -0.146453	 0.828726	 -0.535795	 0.068474	 2
1463571439.894	 10	 -0.151402	 -1.147719	 -3.301336	 -2.978231	 -1.131453	 0.489522	 -0.161457	 0.826906	 -0.535010	 0.062635	 2
1463571439.904	 10	 0.603819	 -1.596074	 -3.661654	 -2.917758	 -1.128548	 0.573995	 -0.180409	 0.822253	 -0.536433	 0.059931	 2
1463571439.914	 10	 1.262560	 -1.027321	 -3.727109	 -2.847363	 -1.129805	 0.664951	 -0.198525	 0.815374	 -0.540961	 0.055806	 2
1463571439.924	 10	 1.564933	 -0.709432	 -3.476330	 -2.772875	 -1.132512	 0.755637	 -0.214631	 0.807382	 -0.547259	 0.050757	 2
1463571439.934	 10	 1.697194	 -0.698684	 -2.967947	 -2.704701	 -1.135641	 0.838546	 -0.228604	 0.799198	 -0.553920	 0.046852	 2
1463571439.944	 10	 1.921642	 -0.631575	 -2.423606	 -2.643671	 -1.140709	 0.913014	 -0.240185	 0.790868	 -0.561121	 0.044515	 2
1463571439.954	 10	 2.179856	 -0.442057	 -1.852842	 -2.587156	 -1.148999	 0.980533	 -0.248976	 0.782334	 -0.569279	 0.043421	 2
1463571439.964	 10	 2.387398	 -0.130119	 -1.287958	 -2.533213	 -1.160720	 1.041862	 -0.254642	 0.773777	 -0.578419	 0.043112	 2
1463571439.974	 10	 2.576588	 0.165672	 -0.757169	 -2.480358	 -1.175841	 1.098250	 -0.257206	 0.765298	 -0.588456	 0.043399	 2
1463571439.984	 10	 2.795958	 0.259798	 -0.449132	 -2.425334	 -1.193802	 1.154895	 -0.257770	 0.756563	 -0.599325	 0.044461	 2
1463571439.994	 10	 3.033454	 0.121136	 -0.408783	 -2.363436	 -1.212811	 1.219461	 -0.258142	 0.747086	 -0.610794	 0.046435	 2
1463571440.004	 10	 3.292929	 -0.113272	 -0.361001	 -2.292127	 -1.232237	 1.295854	 -0.258929	 0.736629	 -0.622793	 0.049627	 2
1463571440.014	 10	 3.540917	 -0.431549	 -0.149772	 -2.212223	 -1.252469	 1.383897	 -0.259902	 0.725317	 -0.635117	 0.054710	 2
1463571440.024	 10	 3.659465	 -1.099935	 0.130732	 -2.127966	 -1.273661	 1.481840	 -0.261476	 0.713470	 -0.647012	 0.062971	 2
1463571440.034	 10	 3.544276	 -1.981405	 0.120335	 -2.042234	 -1.292538	 1.589548	 -0.265481	 0.701353	 -0.657339	 0.074359	 2
1463571440.044	 10	 3.248695	 -2.671557	 -0.127573	 -1.957875	 -1.305877	 1.703329	 -0.272694	 0.689244	 -0.665536	 0.087425	 2
1463571440.054	 10	 2.866523	 -2.898095	 -0.426899	 -1.877753	 -1.312653	 1.815970	 -0.282105	 0.677484	 -0.671862	 0.100164	 2
1463571440.064	 10	 2.442938	 -2.659448	 -0.689562	 -1.805693	 -1.313419	 1.918848	 -0.292117	 0.666550	 -0.676813	 0.110916	 2
1463571440.074	 10	 2.040445	 -2.123238	 -0.831340	 -1.743123	 -1.309856	 2.007037	 -0.301251	 0.656786	 -0.680994	 0.118860	 2
1463571440.084	 10	 1.672016	 -1.514695	 -0.811812	 -1.690900	 -1.304261	 2.078398	 -0.308564	 0.648512	 -0.684692	 0.124168	 2
1463571440.094	 10	 1.436409	 -0.856085	 -0.727963	 -1.644999	 -1.298234	 2.136643	 -0.313566	 0.641604	 -0.688360	 0.127207	 2
1463571440.104	 10	 1.359774	 -0.204333	 -0.645562	 -1.598974	 -1.292307	 2.188232	 -0.316058	 0.635594	 -0.692593	 0.128230	 2
1463571440.114	 10	 1.402925	 0.302198	 -0.593265	 -1.549147	 -1.286312	 2.238172	 -0.316439	 0.629943	 -0.697654	 0.127736	 2
1463571440.124	 10	 1.574399	 0.646612	 -0.551054	 -1.492964	 -1.279938	 2.290792	 -0.315228	 0.624085	 -0.703689	 0.126376	 2
1463571440.134	 10	 1.854662	 0.711322	 -0.461237	 -1.429205	 -1.273133	 2.349944	 -0.313097	 0.617475	 -0.710642	 0.125226	 2
1463571440.144	 10	 2.152495	 0.382843	 -0.316614	 -1.360374	 -1.265988	 2.416855	 -0.311123	 0.609803	 -0.718014	 0.125689	 2
1463571440.154	 10	 2.404312	 -0.189150	 -0.183448	 -1.291070	 -1.258210	 2.490018	 -0.310428	 0.600984	 -0.725185	 0.128679	 2
1463571440.164	 10	 2.573272	 -0.849669	 -0.117528	 -1.225500	 -1.249166	 2.566232	 -0.311640	 0.591086	 -0.731771	 0.134197	 2
1463571440.174	 10	 2.557728	 -1.419802	 -0.129093	 -1.168972	 -1.238615	 2.639520	 -0.314956	 0.580545	 -0.737382	 0.141552	 2
1463571440.184	 10	 2.325152	 -1.789840	 -0.209377	 -1.126115	 -1.227084	 2.703081	 -0.320074	 0.570151	 -0.741689	 0.149591	 2
1463571440.194	 10	 1.978122	 -1.917664	 -0.375936	 -1.098278	 -1.214978	 2.752928	 -0.326477	 0.560481	 -0.744715	 0.157078	 2
1463571440.204	 10	 1.689842	 -2.002325	 -0.579906	 -1.083345	 -1.202197	 2.789828	 -0.333846	 0.551513	 -0.746773	 0.163433	 2
1463571440.214	 10	 1.667505	 -2.516206	 -0.757147	 -1.078688	 -1.188098	 2.820534	 -0.343350	 0.542118	 -0.747852	 0.170107	 2
1463571440.224	 10	 1.734323	 -2.692026	 -0.921360	 -1.078745	 -1.172214	 2.849379	 -0.354224	 0.531833	 -0.748569	 0.176985	 2
1463571440.234	 10	 1.785521	 -2.606810	 -1.029721	 -1.079917	 -1.154964	 2.876830	 -0.365159	 0.521006	 -0.749398	 0.183343	 2
1463571440.244	 10	 1.856501	 -2.258213	 -1.037753	 -1.078637	 -1.137110	 2.904205	 -0.375008	 0.509987	 -0.750724	 0.188936	 2
1463571440.254	 10	 1.911033	 -1.640760	 -0.938695	 -1.071072	 -1.119530	 2.932527	 -0.382412	 0.499274	 -0.753038	 0.193446	 2
1463571440.264	 10	 1.777661	 -1.106210	 -0.760972	 -1.058808	 -1.103597	 2.959828	 -0.387227	 0.489623	 -0.756002	 0.196941	 2
1463571440.274	 10	 1.267971	 -0.940688	 -0.582340	 -1.050258	 -1.091144	 2.980176	 -0.390955	 0.482077	 -0.758215	 0.199663	 2
1463571440.284	 10	 0.388419	 -1.095606	 -0.447166	 -1.054827	 -1.083882	 2.986806	 -0.395431	 0.477712	 -0.758148	 0.201589	 2
1463571440.294	 10	 -0.675190	 -1.339477	 -0.332533	 -1.077626	 -1.082668	 2.975457	 -0.401540	 0.477236	 -0.754999	 0.202453	 2
1463571440.304	 10	 -1.582074	 -1.402876	 -0.201598	 -1.116946	 -1.086857	 2.946924	 -0.408794	 0.480514	 -0.749085	 0.202153	 2
1463571440.314	 10	 -2.031549	 -1.101731	 -0.070188	 -1.163558	 -1.093998	 2.907580	 -0.415393	 0.486377	 -0.742067	 0.200558	 2
1463571440.324	 10	 -2.136977	 -0.889410	 0.271618	 -1.210001	 -1.103610	 2.866023	 -0.420534	 0.493614	 -0.734740	 0.199131	 2
1463571440.334	 10	 -2.410269	 -0.892293	 0.789799	 -1.258721	 -1.117408	 2.821301	 -0.424402	 0.502633	 -0.726465	 0.198724	 2
1463571440.344	 10	 -2.739413	 -1.022202	 1.369099	 -1.315258	 -1.136662	 2.769757	 -0.427536	 0.513861	 -0.716347	 0.200018	 2
1463571440.354	 10	 -3.020138	 -0.919546	 1.771094	 -1.380483	 -1.159602	 2.708747	 -0.429523	 0.526977	 -0.704933	 0.202174	 2
1463571440.364	 10	 -3.453781	 -0.598903	 2.103976	 -1.458413	 -1.184527	 2.631736	 -0.429955	 0.542230	 -0.692494	 0.203903	 2
1463571440.374	 10	 -3.985529	 -0.055680	 2.729672	 -1.555235	 -1.212552	 2.530375	 -0.427663	 0.560693	 -0.678733	 0.205059	 2
1463571440.384	 10	 -4.418141	 1.409049	 3.306593	 -1.669706	 -1.242459	 2.398182	 -0.419646	 0.582940	 -0.665276	 0.203682	 2
1463571440.394	 10	 -4.741428	 3.094707	 3.739675	 -1.803317	 -1.270751	 2.229607	 -0.404674	 0.608517	 -0.653229	 0.198088	 2
1463571440.404	 10	 -4.913805	 4.397398	 3.931281	 -1.959163	 -1.292999	 2.024182	 -0.383962	 0.636001	 -0.642365	 0.188264	 2
1463571440.414	 10	 -4.766535	 4.980643	 4.044133	 -2.131461	 -1.306756	 1.794747	 -0.359755	 0.663299	 -0.632105	 0.176224	 2
1463571440.424	 10	 -4.159816	 4.760906	 3.908915	 -2.302228	 -1.312314	 1.567665	 -0.334795	 0.687953	 -0.622505	 0.164684	 2
1463571440.444	 11	 -2.437161	 3.198599	 2.864772	 -2.562356	 -1.308720	 1.220521	 -0.293319	 0.722756	 -0.607873	 0.148586	 2
1463571440.454	 11	 -2.329560	 1.258171	 2.706164	 -2.672299	 -1.302543	 1.086591	 -0.279232	 0.735001	 -0.600283	 0.146508	 2
1463571440.464	 11	 -2.732278	 -0.097474	 2.606466	 -2.793413	 -1.288997	 0.958892	 -0.270848	 0.746552	 -0.588873	 0.150098	 2
1463571440.474	 11	 -2.838396	 -1.841831	 2.412110	 -2.912920	 -1.268718	 0.848385	 -0.267725	 0.757102	 -0.574429	 0.158590	 2
1463571440.484	 11	 -2.598756	 -3.234123	 2.065616	 -3.022227	 -1.246273	 0.764441	 -0.270044	 0.765095	 -0.558575	 0.172337	 2
1463571440.494	 11	 -2.322627	 -3.672517	 1.711694	 -3.114825	 -1.223651	 0.704720	 -0.275271	 0.770891	 -0.542807	 0.187920	 2
1463571440.504	 11	 -1.890779	 -3.302361	 1.449200	 3.094271	 -1.203423	 0.662260	 -0.280601	 0.775013	 -0.528813	 0.202423	 2
1463571440.514	 11	 -1.379400	 -2.459349	 1.303386	 3.036484	 -1.187377	 0.629067	 -0.284025	 0.778039	 -0.517772	 0.214236	 2
1463571440.524	 11	 -0.920927	 -1.510967	 1.146223	 2.993526	 -1.175666	 0.601472	 -0.285003	 0.780469	 -0.509986	 0.222611	 2
1463571440.534	 11	 -0.600693	 -0.731941	 1.046239	 2.962109	 -1.167323	 0.577251	 -0.283904	 0.782657	 -0.504876	 0.227917	 2
1463571440.544	 11	 -0.489798	 -0.241379	 0.977367	 2.938220	 -1.160475	 0.554998	 -0.281453	 0.784937	 -0.501268	 0.231060	 2
1463571440.554	 11	 -0.539324	 -0.038678	 0.895489	 2.919533	 -1.153463	 0.535417	 -0.278637	 0.787431	 -0.498057	 0.232924	 2
1463571440.564	 11	 -0.631598	 -0.059347	 0.794852	 2.904395	 -1.145651	 0.519281	 -0.276217	 0.790035	 -0.494634	 0.234275	 2
1463571440.574	 11	 -0.666550	 -0.154552	 0.705813	 2.891158	 -1.137483	 0.506212	 -0.274459	 0.792504	 -0.490979	 0.235686	 2
1463571440.584	 11	 -0.656064	 -0.163356	 0.669403	 2.879130	 -1.129376	 0.494777	 -0.272974	 0.794847	 -0.487330	 0.237093	 2
1463571440.594	 11	 -0.574537	 -0.067923	 0.662121	 2.868034	 -1.121828	 0.483588	 -0.271285	 0.797090	 -0.484016	 0.238286	 2
1463571440.604	 11	 -0.383143	 0.065056	 0.596681	 2.858666	 -1.115902	 0.472783	 -0.269266	 0.799028	 -0.481571	 0.239039	 2
1463571440.614	 11	 -0.119004	 0.206581	 0.565857	 2.850359	 -1.112502	 0.461638	 -0.266812	 0.800441	 -0.480372	 0.239475	 2
1463571440.624	 11	 0.154900	 0.356804	 0.564870	 2.842041	 -1.111680	 0.448752	 -0.263648	 0.801374	 -0.480469	 0.239664	 2
1463571440.634	 11	 0.448289	 0.290418	 0.622446	 2.831010	 -1.113549	 0.433138	 -0.260055	 0.801592	 -0.481681	 0.240427	 2
1463571440.644	 11	 0.586232	 0.422330	 0.535080	 2.820155	 -1.117058	 0.416859	 -0.256187	 0.801441	 -0.483707	 0.241016	 2
1463571440.654	 11	 0.698450	 0.657455	 0.296494	 2.814778	 -1.122263	 0.404146	 -0.252468	 0.801003	 -0.486729	 0.240311	 2
1463571440.664	 11	 0.831136	 0.749629	 0.007375	 2.815133	 -1.129534	 0.396421	 -0.249399	 0.800039	 -0.490734	 0.238575	 2
1463571440.674	 11	 1.035495	 0.673356	 -0.307383	 2.820126	 -1.139522	 0.394146	 -0.247405	 0.798184	 -0.495785	 0.236411	 2
1463571440.684	 11	 1.334131	 0.453181	 -0.627497	 2.828152	 -1.153164	 0.397312	 -0.246834	 0.794979	 -0.502067	 0.234543	 2
1463571440.694	 11	 1.616113	 0.291813	 -0.911749	 2.839091	 -1.170478	 0.405784	 -0.247577	 0.790389	 -0.509582	 0.233062	 2
1463571440.704	 11	 1.963830	 0.329486	 -1.002885	 2.851885	 -1.191248	 0.416294	 -0.248505	 0.784714	 -0.518475	 0.231632	 2
1463571440.714	 11	 2.277769	 0.394293	 -1.032725	 2.865342	 -1.215408	 0.426596	 -0.248965	 0.778073	 -0.528802	 0.230191	 2
1463571440.724	 11	 1.922044	 0.327197	 -1.041975	 2.881743	 -1.238098	 0.440147	 -0.249658	 0.771678	 -0.538458	 0.228576	 2
1463571440.734	 11	 0.585840	 0.646915	 -0.908001	 2.906691	 -1.250253	 0.461338	 -0.250874	 0.768295	 -0.544051	 0.225376	 2
1463571440.744	 11	 -1.215400	 1.428746	 -0.452343	 2.941821	 -1.242911	 0.484794	 -0.250541	 0.771393	 -0.542921	 0.217759	 2
1463571440.754	 11	 -1.258628	 1.373769	 0.015391	 2.965962	 -1.230052	 0.495283	 -0.248490	 0.776387	 -0.539664	 0.210330	 2
1463571440.764	 11	 -0.650551	 1.196391	 0.441146	 2.972830	 -1.221488	 0.489531	 -0.244707	 0.780264	 -0.537673	 0.205463	 2
1463571440.774	 11	 -0.119352	 0.907559	 0.720523	 2.966174	 -1.217997	 0.471679	 -0.239638	 0.782742	 -0.537285	 0.203010	 2
1463571440.784	 11	 0.196546	 -0.013224	 0.743309	 2.948031	 -1.217906	 0.449575	 -0.235859	 0.783549	 -0.537341	 0.204170	 2
1463571440.794	 11	 0.231025	 -0.863901	 0.493165	 2.923974	 -1.219238	 0.431617	 -0.235260	 0.782798	 -0.536901	 0.208848	 2
1463571440.804	 11	 -0.012424	 -0.878195	 0.477034	 2.902996	 -1.218649	 0.418911	 -0.235921	 0.782249	 -0.535533	 0.213618	 2
1463571440.814	 11	 -0.073073	 -0.579614	 0.705216	 2.879591	 -1.216359	 0.401024	 -0.235198	 0.782490	 -0.533777	 0.217882	 2
1463571440.824	 11	 0.019741	 -0.244953	 0.837545	 2.855596	 -1.214042	 0.378892	 -0.232931	 0.783114	 -0.532457	 0.221281	 2
1463571440.834	 11	 0.219826	 0.023084	 0.919295	 2.830612	 -1.212983	 0.352600	 -0.229272	 0.783676	 -0.532066	 0.224036	 2
1463571440.844	 11	 0.312676	 0.087149	 0.844479	 2.806857	 -1.213109	 0.326347	 -0.225307	 0.783949	 -0.532374	 0.226362	 2
1463571440.854	 11	 0.046023	 -0.021314	 0.740281	 2.786536	 -1.211818	 0.304401	 -0.222076	 0.784465	 -0.532070	 0.228470	 2
1463571440.864	 11	 -0.528879	 -0.539489	 0.627494	 2.770123	 -1.205963	 0.290970	 -0.220972	 0.785749	 -0.529408	 0.231295	 2
1463571440.874	 11	 -0.795320	 -1.241789	 0.476204	 2.753893	 -1.196922	 0.285276	 -0.222674	 0.787068	 -0.524581	 0.236128	 2
1463571440.884	 11	 -0.234813	 -0.688667	 0.415722	 2.739117	 -1.191361	 0.279733	 -0.224124	 0.787508	 -0.521315	 0.240481	 2
1463571440.894	 11	 -0.019863	 1.697181	 0.379566	 2.739633	 -1.189968	 0.268931	 -0.219670	 0.789162	 -0.522092	 0.237460	 2
1463571440.904	 11	 -0.687916	 3.477913	 0.144039	 2.771360	 -1.184524	 0.269292	 -0.211293	 0.794330	 -0.523235	 0.224987	 2
1463571440.914	 11	 -1.366469	 2.933433	 0.028712	 2.812347	 -1.172941	 0.278724	 -0.203951	 0.801074	 -0.521689	 0.211010	 2
1463571440.924	 11	 -1.598389	 0.920946	 -0.083914	 2.839469	 -1.158115	 0.292418	 -0.202023	 0.806621	 -0.516881	 0.203430	 2
1463571440.934	 11	 -1.218776	 -0.875141	 -0.175339	 2.846966	 -1.145724	 0.305833	 -0.205250	 0.809433	 -0.511123	 0.203578	 2
1463571440.944	 11	 -0.303421	 -2.023699	 -0.225969	 2.837015	 -1.140966	 0.314529	 -0.211203	 0.808802	 -0.507205	 0.209702	 2
1463571440.954	 11	 0.722822	 -2.163237	 -0.425909	 2.819333	 -1.146670	 0.319280	 -0.217733	 0.804837	 -0.507178	 0.218176	 2
1463571440.964	 11	 1.468123	 -1.612277	 -0.709698	 2.806015	 -1.161003	 0.323968	 -0.223356	 0.798881	 -0.511141	 0.225027	 2
1463571440.974	 11	 2.093809	 -1.043380	 -0.768469	 2.795908	 -1.181882	 0.325883	 -0.227254	 0.791664	 -0.518403	 0.229960	 2
1463571440.984	 11	 2.645459	 -0.414006	 -0.731180	 2.785753	 -1.207999	 0.321171	 -0.228750	 0.783583	 -0.528490	 0.233173	 2
1463571440.994	 11	 3.034177	 0.164977	 -0.817637	 2.777687	 -1.238382	 0.312252	 -0.228277	 0.774834	 -0.540940	 0.234319	 2
1463571441.004	 11	 3.174612	 0.438836	 -0.983636	 2.773943	 -1.271211	 0.304189	 -0.227131	 0.765580	 -0.554639	 0.233826	 2
1463571441.014	 11	 3.046532	 0.345495	 -1.146451	 2.775202	 -1.304084	 0.301409	 -0.226628	 0.756091	 -0.568155	 0.232737	 2
1463571441.034	 12	 2.072753	 -0.742091	 -1.326075	 2.799029	 -1.359666	 0.331205	 -0.232009	 0.738151	 -0.589139	 0.232855	 2
1463571441.044	 12	 1.555481	 -1.350062	 -1.331492	 2.821908	 -1.379845	 0.366862	 -0.238498	 0.730211	 -0.595430	 0.235318	 2
1463571441.054	 12	 1.240597	 -1.858244	 -1.281256	 2.850343	 -1.396178	 0.413516	 -0.246885	 0.722673	 -0.599586	 0.239351	 2
1463571441.064	 12	 1.165217	 -2.071207	 -1.198386	 2.880451	 -1.410778	 0.464713	 -0.255971	 0.715154	 -0.602710	 0.244486	 2
1463571441.074	 12	 1.245817	 -1.988172	 -1.155685	 2.914307	 -1.425413	 0.519460	 -0.264717	 0.707459	 -0.605842	 0.249766	 2
1463571441.084	 12	 1.382543	 -1.722777	 -1.170392	 2.958931	 -1.440984	 0.582615	 -0.272567	 0.699539	 -0.609640	 0.254346	 2
1463571441.094	 12	 1.532571	 -1.319437	 -1.224431	 3.023858	 -1.457601	 0.662424	 -0.279214	 0.691466	 -0.614416	 0.257696	 2
1463571441.104	 12	 1.679362	 -0.884518	 -1.325041	 3.127147	 -1.474878	 0.776211	 -0.284603	 0.683287	 -0.620348	 0.259400	 2
1463571441.124	 13	 1.836551	 -0.608300	 -1.305721	 -2.760808	 -1.506156	 1.185745	 -0.292953	 0.666455	 -0.634072	 0.260707	 2
1463571441.134	 13	 1.822005	 -0.509473	 -1.323859	 -2.419160	 -1.514928	 1.533244	 -0.296612	 0.658002	 -0.641072	 0.260925	 2
1463571441.144	 13	 1.803654	 -0.538269	 -1.342085	 -2.018440	 -1.515165	 1.939870	 -0.300337	 0.649485	 -0.647941	 0.261035	 2
1463571441.154	 13	 1.734072	 -0.519650	 -1.149468	 -1.681609	 -1.508414	 2.282496	 -0.303600	 0.641306	 -0.654359	 0.261472	 2
1463571441.164	 13	 1.721718	 -0.703158	 -1.086057	 -1.435609	 -1.497201	 2.535447	 -0.306910	 0.633128	 -0.660319	 0.262553	 2
1463571441.174	 13	 1.702965	 -1.104748	 -1.031014	 -1.267554	 -1.483191	 2.714144	 -0.311298	 0.624524	 -0.665510	 0.264877	 2
1463571441.184	 13	 1.644016	 -1.420160	 -0.988673	 -1.154579	 -1.468001	 2.841160	 -0.316661	 0.615615	 -0.669877	 0.268345	 2
1463571441.194	 13	 1.545933	 -1.605117	 -1.012987	 -1.082784	 -1.452091	 2.929182	 -0.322881	 0.606617	 -0.673521	 0.272274	 2
1463571441.204	 13	 1.469825	 -1.601292	 -1.102879	 -1.038378	 -1.435458	 2.990239	 -0.329530	 0.597633	 -0.676832	 0.275941	 2
1463571441.214	 13	 1.430580	 -1.403550	 -1.277614	 -1.012296	 -1.417461	 3.031355	 -0.336143	 0.588676	 -0.680376	 0.278490	 2
1463571441.224	 13	 1.359603	 -1.132443	 -1.468442	 -0.999579	 -1.398053	 3.056422	 -0.342468	 0.579871	 -0.684359	 0.279497	 2
1463571441.244	 14	 0.935189	 -0.636405	 -1.438815	 -1.002129	 -1.360617	 3.070158	 -0.353482	 0.564690	 -0.692172	 0.277622	 2
1463571441.254	 14	 0.770076	 -0.464724	 -1.298297	 -1.008829	 -1.345082	 3.068488	 -0.357870	 0.558840	 -0.695364	 0.275854	 2
1463571441.264	 14	 0.750072	 -0.281916	 -1.178122	 -1.012516	 -1.330889	 3.068073	 -0.361347	 0.553618	 -0.698508	 0.273900	 2
1463571441.274	 14	 0.873935	 -0.126255	 -1.076504	 -1.009226	 -1.317131	 3.073122	 -0.363801	 0.548480	 -0.702020	 0.272005	 2
1463571441.284	 14	 1.084548	 -0.079782	 -1.036341	 -0.998426	 -1.302816	 3.085147	 -0.365532	 0.542844	 -0.706094	 0.270442	 2
1463571441.294	 14	 1.305179	 -0.327503	 -1.080001	 -0.984555	 -1.287074	 3.102074	 -0.367576	 0.536148	 -0.710454	 0.269610	 2
1463571441.304	 14	 1.332616	 -0.913047	 -0.999361	 -0.973951	 -1.270929	 3.120955	 -0.371176	 0.528410	 -0.714069	 0.270401	 2
1463571441.314	 14	 0.944628	 -1.718303	 -0.730641	 -0.975444	 -1.258310	 3.135207	 -0.377225	 0.521056	 -0.715130	 0.273480	 2
1463571441.324	 14	 0.377882	 -2.442992	 -0.424445	 -0.993595	 -1.251258	 3.140122	 -0.385961	 0.515099	 -0.712810	 0.278584	 2
1463571441.334	 14	 -0.064620	 -2.606576	 -0.134358	 -1.022061	 -1.249371	 3.137635	 -0.395703	 0.510907	 -0.708080	 0.284632	 2
1463571441.344	 14	 -0.319520	 -2.137870	 0.154649	 -1.050559	 -1.251320	 3.131661	 -0.403946	 0.508692	 -0.702748	 0.290182	 2
1463571441.354	 14	 -0.535672	 -1.307331	 0.634261	 -1.071281	 -1.258113	 3.125904	 -0.408712	 0.509196	 -0.697669	 0.294842	 2
1463571441.364	 14	 -0.603637	 -0.698767	 1.071084	 -1.081399	 -1.269498	 3.123873	 -0.409956	 0.512039	 -0.693032	 0.299098	 2
1463571441.374	 14	 -0.728583	 -0.753565	 1.383930	 -1.088240	 -1.284237	 3.124039	 -0.410048	 0.516022	 -0.687870	 0.304001	 2
1463571441.384	 14	 -0.989933	 -1.047867	 1.761813	 -1.100001	 -1.303291	 3.122095	 -0.410522	 0.521079	 -0.680889	 0.310385	 2
1463571441.394	 14	 -1.268600	 -0.948346	 1.879202	 -1.119157	 -1.325454	 3.112594	 -0.410858	 0.527440	 -0.672747	 0.316882	 2
1463571441.404	 14	 -1.634322	 -0.677977	 1.907283	 -1.151266	 -1.349098	 3.087333	 -0.410776	 0.535238	 -0.664112	 0.322085	 2
1463571441.424	 15	 -2.758140	 -0.227204	 2.158927	 -1.311978	 -1.402768	 2.931002	 -0.409643	 0.557487	 -0.643401	 0.327775	 2
1463571441.434	 15	 -3.126980	 0.303444	 2.436714	 -1.479287	 -1.431449	 2.760376	 -0.407587	 0.572299	 -0.631138	 0.328650	 2
1463571441.444	 15	 -2.854604	 1.317547	 2.906320	 -1.708914	 -1.458661	 2.518411	 -0.401135	 0.588892	 -0.620099	 0.328289	 2
1463571441.454	 15	 -2.196430	 2.367371	 3.470949	 -2.012306	 -1.484162	 2.192247	 -0.388529	 0.606244	 -0.611746	 0.327536	 2
1463571441.464	 15	 -1.665195	 2.929949	 3.822195	 -2.469928	 -1.503041	 1.704904	 -0.371290	 0.623412	 -0.605533	 0.326851	 2
1463571441.474	 15	 -1.594751	 2.722026	 4.072232	 -3.085207	 -1.502555	 1.060085	 -0.352732	 0.640016	 -0.599095	 0.327177	 2
1463571441.484	 15	 -1.935335	 2.029224	 4.320271	 2.739325	 -1.476406	 0.577677	 -0.335317	 0.656449	 -0.589987	 0.329473	 2
1463571441.504	 16	 -2.326833	 -0.027410	 4.655178	 2.381867	 -1.387204	 0.201084	 -0.307535	 0.686734	 -0.562122	 0.343276	 2
1463571441.514	 16	 -2.182549	 -1.117984	 4.661891	 2.295309	 -1.338058	 0.121409	 -0.297604	 0.698472	 -0.544940	 0.355821	 2
1463571441.524	 16	 -1.885273	 -1.936242	 4.441733	 2.226028	 -1.290775	 0.068002	 -0.290050	 0.707160	 -0.527259	 0.371206	 2
1463571441.534	 16	 -1.575882	 -2.120447	 4.099479	 2.168871	 -1.247152	 0.030321	 -0.283790	 0.713439	 -0.510416	 0.387225	 2
1463571441.544	 16	 -1.282145	 -1.754914	 3.730504	 2.123820	 -1.207743	 0.002326	 -0.277487	 0.718519	 -0.495415	 0.401616	 2
1463571441.554	 16	 -1.062535	 -1.170013	 3.514487	 2.089113	 -1.171517	 -0.020770	 -0.270182	 0.723395	 -0.482355	 0.413564	 2
1463571441.564	 16	 -0.937564	 -0.372436	 3.400389	 2.064810	 -1.136821	 -0.041014	 -0.261118	 0.729044	 -0.470907	 0.422561	 2
1463571441.574	 16	 -0.853606	 0.309484	 3.307954	 2.050258	 -1.103401	 -0.058941	 -0.250452	 0.735660	 -0.460851	 0.428595	 2
1463571441.584	 16	 -0.835425	 0.814261	 3.254941	 2.042847	 -1.070456	 -0.075193	 -0.238555	 0.743075	 -0.451561	 0.432463	 2
1463571441.594	 16	 -0.735488	 1.079901	 3.112665	 2.040127	 -1.038888	 -0.090185	 -0.226161	 0.750698	 -0.443049	 0.434755	 2
1463571441.604	 16	 -0.493482	 1.193694	 2.915517	 2.038018	 -1.009844	 -0.106359	 -0.213605	 0.757746	 -0.435752	 0.436250	 2
1463571441.624	 17	 -0.017748	 0.992057	 2.290291	 2.027657	 -0.963199	 -0.140332	 -0.191507	 0.767623	 -0.425068	 0.439769	 2
1463571441.634	 17	 0.313986	 1.072000	 2.154926	 2.021961	 -0.944518	 -0.160487	 -0.180301	 0.771539	 -0.422127	 0.440486	 2
1463571441.644	 17	 0.617444	 0.990781	 2.077990	 2.013276	 -0.928089	 -0.183993	 -0.168883	 0.774466	 -0.420540	 0.441392	 2
1463571441.654	 17	 0.833582	 0.866925	 2.099468	 2.001317	 -0.912412	 -0.210306	 -0.157149	 0.776517	 -0.419672	 0.442947	 2
1463571441.674	 18	 1.479497	 0.363060	 1.960199	 1.964793	 -0.885190	 -0.272581	 -0.133378	 0.777005	 -0.421102	 0.448494	 2
1463571441.685	 18	 1.548765	 -0.065103	 1.906586	 1.939522	 -0.873175	 -0.306169	 -0.122357	 0.775111	 -0.422810	 0.453281	 2
1463571441.694	 18	 1.481245	 -0.519573	 1.836868	 1.911069	 -0.860930	 -0.337964	 -0.112610	 0.772059	 -0.424130	 0.459737	 2
1463571441.704	 18	 1.295455	 -0.925907	 1.756904	 1.882112	 -0.848403	 -0.365866	 -0.104368	 0.768356	 -0.424731	 0.467268	 2
1463571441.715	 18	 1.268463	 -1.567014	 1.633939	 1.848517	 -0.836129	 -0.391527	 -0.098023	 0.763075	 -0.424952	 0.476995	 2
1463571441.725	 18	 0.967647	 -1.538488	 1.632561	 1.816935	 -0.823221	 -0.412856	 -0.092683	 0.757785	 -0.424311	 0.486962	 2
1463571441.734	 18	 0.648759	 -1.123127	 1.726595	 1.792957	 -0.808394	 -0.428809	 -0.087123	 0.753989	 -0.422309	 0.495546	 2
1463571441.745	 18	 0.420270	 -1.046032	 2.144949	 1.773675	 -0.789656	 -0.441545	 -0.080478	 0.751303	 -0.418620	 0.503810	 2
1463571441.755	 18	 0.252929	 -1.111777	 2.544389	 1.755093	 -0.766144	 -0.452204	 -0.072840	 0.748813	 -0.413055	 0.513186	 2
1463571441.764	 18	 0.316415	 -1.506276	 2.876946	 1.734241	 -0.739216	 -0.462614	 -0.064521	 0.745628	 -0.406420	 0.524117	 2
1463571441.775	 18	 0.562882	 -1.773874	 3.182447	 1.708490	 -0.709018	 -0.475445	 -0.055044	 0.740986	 -0.399450	 0.536982	 2
1463571441.785	 18	 0.783186	 -1.774553	 3.031316	 1.681168	 -0.679151	 -0.489928	 -0.045177	 0.735399	 -0.393283	 0.549977	 2
1463571441.795	 18	 0.981044	 -1.407212	 2.432987	 1.656907	 -0.654236	 -0.504976	 -0.036004	 0.729950	 -0.389189	 0.560722	 2
1463571441.805	 18	 0.984575	 -1.412607	 1.984220	 1.634461	 -0.634349	 -0.519435	 -0.028310	 0.724445	 -0.386768	 0.569902	 2
1463571441.815	 18	 0.675188	 -1.937213	 1.825365	 1.610434	 -0.616167	 -0.530040	 -0.022837	 0.718087	 -0.383951	 0.580010	 2
1463571441.825	 18	 0.161168	 -2.617691	 1.649790	 1.583530	 -0.599354	 -0.534279	 -0.020586	 0.710516	 -0.379819	 0.592014	 2
1463571441.835	 18	 -0.481196	 -3.148564	 1.515234	 1.568623	 -0.564863	 -0.523226	 -0.015118	 0.706296	 -0.365983	 0.605784	 2
1463571441.845	 18	 -1.105080	 -3.416649	 1.402009	 1.541502	 -0.549967	 -0.511482	 -0.018846	 0.697968	 -0.357670	 0.620127	 2
1463571441.855	 18	 -1.720915	 -3.368591	 1.326820	 1.517327	 -0.537253	 -0.492574	 -0.025098	 0.690227	 -0.347675	 0.634098	 2
1463571441.865	 18	 -2.301254	 -3.131547	 1.366051	 1.498508	 -0.525147	 -0.466544	 -0.032860	 0.683867	 -0.335456	 0.647083	 2
1463571441.875	 18	 -2.739165	 -2.819154	 1.439914	 1.485213	 -0.513085	 -0.434949	 -0.041401	 0.679007	 -0.321292	 0.658793	 2
1463571441.885	 18	 -2.969406	 -2.635739	 1.558728	 1.475485	 -0.500554	 -0.400024	 -0.050148	 0.675085	 -0.305709	 0.669543	 2
1463571441.895	 18	 -2.669688	 -2.569582	 1.709138	 1.465361	 -0.486680	 -0.366770	 -0.057732	 0.670937	 -0.290026	 0.679996	 2
1463571441.905	 18	 -2.259709	 -2.464113	 1.898387	 1.453745	 -0.470941	 -0.337946	 -0.063181	 0.666313	 -0.275027	 0.690214	 2
1463571441.915	 18	 -1.696780	 -2.265668	 2.063723	 1.440838	 -0.453088	 -0.314712	 -0.065978	 0.661354	 -0.261106	 0.700058	 2
1463571441.925	 18	 -1.115901	 -1.826316	 2.162935	 1.428641	 -0.433587	 -0.297701	 -0.065840	 0.656797	 -0.248779	 0.708796	 2
1463571441.935	 18	 -0.576849	 -1.180710	 2.233524	 1.419728	 -0.412697	 -0.286425	 -0.062762	 0.653553	 -0.238117	 0.715703	 2
1463571441.945	 18	 -0.024515	 -0.405629	 2.270031	 1.415886	 -0.390576	 -0.280902	 -0.056666	 0.652268	 -0.229271	 0.720257	 2
1463571441.955	 18	 0.468095	 0.331733	 2.361062	 1.417448	 -0.367029	 -0.280849	 -0.047611	 0.653028	 -0.222080	 0.722473	 2
1463571441.965	 18	 0.739584	 0.878484	 2.624898	 1.423948	 -0.340797	 -0.283984	 -0.035972	 0.655555	 -0.215259	 0.722922	 2
1463571441.975	 18	 0.835952	 1.110434	 2.968327	 1.433329	 -0.311116	 -0.288258	 -0.022399	 0.658992	 -0.207705	 0.722555	 2
1463571441.985	 18	 0.801278	 0.974416	 3.261481	 1.442438	 -0.278406	 -0.292315	 -0.007859	 0.662118	 -0.198958	 0.722464	 2
1463571441.995	 18	 0.602639	 0.498273	 3.523089	 1.448245	 -0.243234	 -0.294656	 0.006639	 0.663802	 -0.188649	 0.723695	 2
1463571442.005	 18	 0.333244	 -0.389161	 3.654660	 1.446925	 -0.206693	 -0.294149	 0.020005	 0.662674	 -0.176806	 0.727463	 2
1463571442.015	 18	 0.214412	 -1.543309	 3.588469	 1.434926	 -0.170528	 -0.291728	 0.031730	 0.657457	 -0.164514	 0.734629	 2
1463571442.025	 18	 0.336995	 -2.717602	 3.335613	 1.410941	 -0.136369	 -0.289620	 0.042022	 0.647600	 -0.153318	 0.745213	 2
1463571442.035	 18	 0.551740	 -3.687948	 2.936776	 1.376371	 -0.105530	 -0.289189	 0.051079	 0.633504	 -0.144289	 0.758449	 2
1463571442.045	 18	 0.659397	 -4.373057	 2.374201	 1.334083	 -0.079454	 -0.290096	 0.058475	 0.616195	 -0.137782	 0.773240	 2
1463571442.055	 18	 0.528982	 -4.778370	 1.724647	 1.287072	 -0.059799	 -0.290873	 0.063257	 0.596894	 -0.133633	 0.788580	 2
1463571442.065	 18	 0.230756	 -4.937265	 1.253633	 1.238040	 -0.045943	 -0.289685	 0.065216	 0.576710	 -0.130712	 0.803783	 2
1463571442.075	 18	 -0.018533	 -4.875479	 1.019779	 1.189146	 -0.035850	 -0.286298	 0.065203	 0.556455	 -0.128097	 0.818351	 2
1463571442.085	 18	 0.003526	 -4.654911	 0.937444	 1.142083	 -0.027211	 -0.282370	 0.064719	 0.536692	 -0.125660	 0.831855	 2
1463571442.095	 18	 0.384192	 -4.277318	 0.946169	 1.098245	 -0.017572	 -0.280689	 0.065588	 0.517836	 -0.123855	 0.843922	 2
1463571442.105	 18	 0.906346	 -3.640831	 1.072240	 1.060129	 -0.004819	 -0.282630	 0.069151	 0.500841	 -0.122724	 0.854000	 2
1463571442.115	 18	 1.424991	 -2.939686	 1.312979	 1.029061	 0.012477	 -0.287567	 0.075889	 0.486260	 -0.121695	 0.861964	 2
1463571442.125	 18	 1.930373	 -2.370087	 1.595241	 1.004208	 0.034971	 -0.294861	 0.085847	 0.473726	 -0.120423	 0.868166	 2
1463571442.135	 18	 2.363239	 -1.994040	 1.851820	 0.983899	 0.062269	 -0.304094	 0.098629	 0.462514	 -0.118902	 0.873050	 2
1463571442.145	 18	 2.651241	 -1.760316	 2.077429	 0.966554	 0.093563	 -0.314179	 0.113516	 0.451981	 -0.116913	 0.877017	 2
1463571442.155	 18	 2.799985	 -1.587246	 2.242937	 0.951393	 0.127510	 -0.324252	 0.129667	 0.441892	 -0.114409	 0.880244	 2
1463571442.165	 18	 2.788288	 -1.471312	 2.384798	 0.937751	 0.162979	 -0.333267	 0.146311	 0.432102	 -0.111198	 0.882902	 2
1463571442.175	 18	 2.652250	 -1.451971	 2.503397	 0.924519	 0.198852	 -0.340190	 0.162682	 0.422326	 -0.107132	 0.885267	 2
1463571442.185	 18	 2.485026	 -1.607847	 2.501271	 0.909947	 0.234169	 -0.345104	 0.178309	 0.411932	 -0.102603	 0.887688	 2
1463571442.195	 18	 2.264580	 -1.870706	 2.392036	 0.892752	 0.267574	 -0.348427	 0.192656	 0.400510	 -0.098241	 0.890407	 2
1463571442.205	 18	 1.976104	 -2.113897	 2.327273	 0.872509	 0.298656	 -0.349436	 0.205421	 0.388045	 -0.093889	 0.893537	 2
1463571442.225	 18	 1.381024	 -2.728678	 2.084794	 0.821113	 0.351247	 -0.344189	 0.225132	 0.359741	 -0.085895	 0.901401	 2
1463571442.215	 18	 1.683083	 -2.402921	 2.247198	 0.848786	 0.326591	 -0.347895	 0.216230	 0.374518	 -0.089689	 0.897183	 2
1463571442.235	 18	 1.120514	 -3.030435	 1.875355	 0.789804	 0.372050	 -0.339084	 0.232065	 0.343854	 -0.082923	 0.906109	 2
1463571442.245	 18	 0.882860	 -3.249200	 1.679265	 0.755789	 0.387664	 -0.332964	 0.236552	 0.327381	 -0.081050	 0.911205	 2
1463571442.255	 18	 0.664955	 -3.366871	 1.497773	 0.720373	 0.396816	 -0.326127	 0.238108	 0.311005	 -0.080395	 0.916579	 2
1463571442.265	 18	 0.481056	 -3.531294	 1.336892	 0.682755	 0.406665	 -0.318481	 0.239867	 0.293568	 -0.079591	 0.921926	 2
1463571442.275	 18	 0.391531	 -3.818379	 1.165431	 0.643565	 0.402007	 -0.311292	 0.235154	 0.276783	 -0.081722	 0.928124	 2
1463571442.285	 18	 0.417059	 -4.127237	 0.971496	 0.601905	 0.402408	 -0.305432	 0.232830	 0.258034	 -0.083803	 0.933909	 2
1463571442.295	 18	 0.455613	 -4.198637	 0.821279	 0.558238	 0.409671	 -0.300446	 0.233702	 0.237448	 -0.085450	 0.938989	 2
1463571442.305	 18	 0.474084	 -4.049409	 0.726589	 0.515467	 0.417525	 -0.296052	 0.234989	 0.217072	 -0.087270	 0.943421	 2
1463571442.315	 18	 0.494730	 -3.489205	 0.691123	 0.477179	 0.425122	 -0.291879	 0.236403	 0.198748	 -0.088795	 0.946957	 2
1463571442.325	 18	 0.612969	 -2.845108	 0.676903	 0.445660	 0.433291	 -0.287989	 0.238441	 0.183508	 -0.089667	 0.949437	 2
1463571442.335	 18	 0.826457	 -2.384109	 0.679334	 0.419334	 0.443123	 -0.284759	 0.241578	 0.170492	 -0.090123	 0.951026	 2
1463571442.345	 18	 1.023113	 -1.934219	 0.756411	 0.397470	 0.454996	 -0.281614	 0.245907	 0.159409	 -0.089947	 0.951855	 2
1463571442.355	 18	 1.156965	 -1.513383	 0.908369	 0.379512	 0.468705	 -0.277399	 0.251220	 0.150173	 -0.088683	 0.952088	 2
1463571442.365	 18	 1.263316	 -1.257405	 1.049440	 0.363826	 0.483912	 -0.271770	 0.257270	 0.142100	 -0.086404	 0.951921	 2
1463571442.375	 18	 1.384575	 -1.142658	 1.081424	 0.349266	 0.500366	 -0.265636	 0.263961	 0.134567	 -0.083716	 0.951424	 2
1463571442.385	 18	 1.498041	 -1.007388	 1.007092	 0.336143	 0.517696	 -0.260176	 0.271205	 0.127605	 -0.081176	 0.950566	 2
1463571442.395	 18	 1.581535	 -0.817359	 0.845072	 0.325557	 0.535367	 -0.256303	 0.278835	 0.121651	 -0.079107	 0.949312	 2
1463571442.405	 18	 1.588913	 -0.680464	 0.658707	 0.317486	 0.552707	 -0.254432	 0.286536	 0.116668	 -0.077742	 0.947756	 2
1463571442.415	 18	 1.540772	 -0.603561	 0.537279	 0.310917	 0.569229	 -0.253741	 0.293975	 0.112310	 -0.076850	 0.946076	 2
1463571442.425	 18	 1.455123	 -0.532104	 0.383088	 0.305652	 0.584614	 -0.254295	 0.300989	 0.108483	 -0.076498	 0.944344	 2
1463571442.435	 18	 1.272650	 -0.416606	 0.249334	 0.302074	 0.598083	 -0.255861	 0.307215	 0.105453	 -0.076567	 0.942675	 2
1463571442.445	 18	 1.002864	 -0.345843	 0.218237	 0.299270	 0.609008	 -0.257204	 0.312261	 0.103023	 -0.076653	 0.941278	 2
1463571442.455	 18	 0.647081	 -0.460493	 0.251172	 0.295414	 0.616450	 -0.257299	 0.315576	 0.100579	 -0.076640	 0.940437	 2
1463571442.465	 18	 0.284571	 -0.641056	 0.283519	 0.293033	 0.617687	 -0.258122	 0.316100	 0.099228	 -0.077293	 0.940351	 2
1463571442.475	 18	 -0.100295	 -0.816220	 0.320411	 0.283176	 0.618550	 -0.254440	 0.315942	 0.095103	 -0.077044	 0.940851	 2
1463571442.485	 18	 -0.486027	 -0.917201	 0.319632	 0.271239	 0.615655	 -0.249333	 0.313899	 0.090520	 -0.076763	 0.942009	 2
1463571442.495	 18	 -0.766899	 -0.928354	 0.281475	 0.258635	 0.609608	 -0.243624	 0.310343	 0.085940	 -0.076528	 0.943634	 2
1463571442.505	 18	 -0.919415	 -0.879239	 0.245958	 0.246479	 0.601652	 -0.237937	 0.305918	 0.081676	 -0.076331	 0.945472	 2
1463571442.515	 18	 -0.898964	 -0.765096	 0.154121	 0.235776	 0.593204	 -0.233177	 0.301358	 0.077953	 -0.076331	 0.947249	 2
1463571442.525	 18	 -0.730613	 -0.514212	 0.058005	 0.228243	 0.585786	 -0.230124	 0.297465	 0.075371	 -0.076543	 0.948670	 2
1463571442.535	 18	 -0.528048	 -0.148540	 0.110801	 0.224350	 0.580365	 -0.227517	 0.294667	 0.074292	 -0.076262	 0.949651	 2
1463571442.545	 18	 -0.323873	 -0.004217	 0.294743	 0.222132	 0.577215	 -0.223727	 0.292957	 0.074014	 -0.075005	 0.950301	 2
1463571442.555	 18	 -0.101296	 -0.103945	 0.565778	 0.218018	 0.576766	 -0.217548	 0.292366	 0.072993	 -0.072701	 0.950741	 2
1463571442.565	 18	 0.076427	 -0.164585	 0.782148	 0.211803	 0.578699	 -0.209038	 0.292751	 0.071155	 -0.069436	 0.951006	 2
1463571442.575	 18	 0.148252	 -0.136788	 0.830806	 0.205210	 0.581757	 -0.199699	 0.293646	 0.069195	 -0.065766	 0.951136	 2
1463571442.585	 18	 0.125840	 -0.106145	 0.793984	 0.199103	 0.584700	 -0.190605	 0.294531	 0.067449	 -0.062156	 0.951230	 2
1463571442.595	 18	 0.095454	 -0.161807	 0.732983	 0.192903	 0.587128	 -0.181960	 0.295204	 0.065633	 -0.058812	 0.951361	 2
1463571442.605	 18	 0.104111	 -0.261622	 0.612613	 0.186439	 0.589326	 -0.174609	 0.295822	 0.063521	 -0.056143	 0.951474	 2
1463571442.615	 18	 0.117305	 -0.353579	 0.550894	 0.179573	 0.591477	 -0.168212	 0.296452	 0.061085	 -0.053996	 0.951561	 2
1463571442.625	 18	 0.095750	 -0.386589	 0.536920	 0.172261	 0.593433	 -0.162020	 0.297000	 0.058423	 -0.052029	 0.951667	 2
1463571442.635	 18	 0.056425	 -0.346113	 0.529113	 0.165245	 0.594984	 -0.155852	 0.297379	 0.055923	 -0.050056	 0.951805	 2
1463571442.645	 18	 0.001014	 -0.346856	 0.550903	 0.158216	 0.596020	 -0.149420	 0.297522	 0.053484	 -0.047989	 0.952007	 2
1463571442.655	 18	 -0.085760	 -0.436839	 0.574268	 0.150231	 0.596280	 -0.142506	 0.297278	 0.050699	 -0.045872	 0.952340	 2
1463571442.665	 18	 -0.208286	 -0.645793	 0.604298	 0.140125	 0.595417	 -0.135078	 0.296460	 0.047026	 -0.043873	 0.952877	 2
1463571442.675	 18	 -0.309018	 -0.775961	 0.654055	 0.128076	 0.593405	 -0.126935	 0.295063	 0.042569	 -0.041857	 0.953611	 2
1463571442.685	 18	 -0.339362	 -0.704124	 0.721065	 0.115754	 0.590930	 -0.118046	 0.293455	 0.038094	 -0.039524	 0.954395	 2
1463571442.695	 18	 -0.315399	 -0.686442	 0.822268	 0.103453	 0.588584	 -0.108117	 0.291925	 0.033756	 -0.036665	 0.955142	 2
1463571442.705	 18	 -0.189072	 -0.801907	 0.791318	 0.090125	 0.587064	 -0.098084	 0.290808	 0.028899	 -0.033860	 0.955745	 2
1463571442.715	 18	 0.064772	 -0.696403	 0.629159	 0.078250	 0.587560	 -0.090052	 0.290743	 0.024377	 -0.031734	 0.955964	 2
1463571442.725	 18	 0.375639	 -0.063322	 0.493795	 0.072111	 0.591028	 -0.083962	 0.292233	 0.022240	 -0.029634	 0.955629	 2
1463571442.735	 18	 0.582403	 0.492020	 0.303193	 0.074044	 0.596587	 -0.080229	 0.294870	 0.023572	 -0.027437	 0.954852	 2
1463571442.745	 18	 0.739159	 0.596797	 0.148268	 0.078923	 0.603772	 -0.078654	 0.298341	 0.025958	 -0.025789	 0.953758	 2
1463571442.755	 18	 0.811509	 0.661569	 0.016086	 0.085529	 0.611771	 -0.078856	 0.302235	 0.028876	 -0.024690	 0.952476	 2
1463571442.765	 18	 0.779900	 0.613009	 -0.092798	 0.092889	 0.619621	 -0.080562	 0.306083	 0.031918	 -0.024168	 0.951163	 2
1463571442.775	 18	 0.680407	 0.362054	 -0.125174	 0.098611	 0.626537	 -0.082917	 0.309474	 0.034090	 -0.024206	 0.949988	 2
