% Gyrometer data recorded with 'snsrlog'
% 
% 
% Label description:
% 	 0: Default Label
% 	 1: still_drop
% 	 2: walk_drop
% 	 3: other
% 	 4: dtw_same
% 	 5: dtw_diff
% 	 6: delete
% 
% Column description:
% 	 1: Seconds.milliseconds since 1970
% 	 2: Number of skipped measurements
% 	 3: Gyro X
% 	 4: Gyro Y
% 	 5: Gyro Z
% 	 6: Roll of the device
% 	 7: Pitch of the device
% 	 8: Yaw of the device
% 	 9: Quaternion X
% 	 10: Quaternion Y
% 	 11: Quaternion Z
% 	 12: Quaternion W
% 	 13: Label used for the current sample
% 
% 
1461599092.897	 0	 -0.156939	 3.102753	 -1.867359	 0.429321	 0.360604	 -0.032056	 0.178547	 0.206727	 0.022789	 0.961699	 0
1461599092.907	 0	 -0.716409	 3.517968	 -1.890597	 0.468765	 0.347264	 -0.047515	 0.173424	 0.224694	 0.017353	 0.958716	 0
1461599092.917	 0	 -1.257027	 4.060955	 -1.887232	 0.511873	 0.328438	 -0.059540	 0.165520	 0.244927	 0.012959	 0.955220	 0
1461599092.927	 0	 -1.705484	 4.684513	 -1.882854	 0.559889	 0.305117	 -0.068024	 0.155254	 0.267969	 0.009663	 0.950787	 0
1461599092.937	 0	 -2.057108	 5.033282	 -1.891468	 0.610901	 0.278211	 -0.073011	 0.143021	 0.292793	 0.007198	 0.945392	 0
1461599092.947	 0	 -2.206533	 5.318223	 -1.966381	 0.663952	 0.249090	 -0.075757	 0.129603	 0.318708	 0.004932	 0.938938	 0
1461599092.957	 0	 -2.142195	 5.648479	 -2.012893	 0.720119	 0.219606	 -0.077398	 0.116028	 0.345978	 0.002590	 0.931037	 0
1461599092.977	 1	 -1.848756	 4.472658	 -1.967773	 0.823438	 0.163839	 -0.078776	 0.090637	 0.395581	 -0.003245	 0.913942	 0
1461599092.987	 2	 -1.819801	 3.523415	 -1.878808	 0.860568	 0.137552	 -0.077875	 0.078610	 0.413396	 -0.006652	 0.907127	 0
1461599093.007	 2	 -1.916445	 2.296038	 -1.913900	 0.913756	 0.084766	 -0.071594	 0.053774	 0.439109	 -0.013410	 0.896723	 0
1461599093.017	 2	 -1.791784	 2.238543	 -2.164909	 0.935860	 0.057006	 -0.069600	 0.041107	 0.449698	 -0.018194	 0.892048	 0
1461599093.037	 3	 -1.259921	 3.558332	 -2.556920	 0.994694	 -0.000133	 -0.073176	 0.017394	 0.476779	 -0.032180	 0.878262	 0
1461599093.047	 4	 -0.910339	 4.102208	 -2.511206	 1.034704	 -0.026934	 -0.078091	 0.007609	 0.494616	 -0.040579	 0.868131	 0
1461599093.067	 4	 -0.483260	 3.977793	 -2.041818	 1.115582	 -0.071818	 -0.088620	 -0.006998	 0.529802	 -0.056542	 0.846206	 0
1461599093.077	 4	 -0.318935	 3.725425	 -2.015756	 1.152997	 -0.091589	 -0.093860	 -0.012792	 0.545721	 -0.064215	 0.835405	 0
1461599093.087	 4	 0.067226	 3.345795	 -2.142016	 1.186762	 -0.111100	 -0.101651	 -0.017607	 0.559922	 -0.073060	 0.825130	 0
1461599093.097	 4	 0.586182	 2.981556	 -2.438745	 1.215765	 -0.131425	 -0.114514	 -0.021201	 0.572049	 -0.084315	 0.815599	 0
1461599093.107	 4	 0.984793	 2.695094	 -2.765676	 1.241004	 -0.153744	 -0.132173	 -0.024060	 0.582587	 -0.098125	 0.806464	 0
1461599093.117	 4	 1.095809	 2.366165	 -2.905056	 1.262149	 -0.177727	 -0.151838	 -0.026874	 0.591426	 -0.113207	 0.797920	 0
1461599093.127	 4	 0.890571	 2.224842	 -2.822520	 1.281231	 -0.202156	 -0.169718	 -0.030208	 0.599355	 -0.127699	 0.789654	 0
1461599093.137	 4	 0.534723	 2.213240	 -2.659665	 1.300385	 -0.226353	 -0.183509	 -0.034404	 0.607173	 -0.140541	 0.781284	 0
1461599093.147	 4	 0.193432	 2.425336	 -2.590774	 1.321740	 -0.250764	 -0.193114	 -0.039554	 0.615667	 -0.151913	 0.772213	 0
1461599093.157	 4	 -0.033296	 2.733736	 -2.542234	 1.346582	 -0.275604	 -0.199443	 -0.045365	 0.625274	 -0.162323	 0.761988	 0
1461599093.167	 4	 -0.095915	 2.880947	 -2.361271	 1.373950	 -0.299430	 -0.203800	 -0.050933	 0.635585	 -0.171874	 0.750931	 0
1461599093.177	 4	 0.025420	 2.964023	 -2.003458	 1.402186	 -0.320121	 -0.207617	 -0.055144	 0.645999	 -0.180423	 0.739656	 0
1461599093.187	 4	 0.350544	 2.998978	 -1.598843	 1.430378	 -0.336497	 -0.213098	 -0.056953	 0.656279	 -0.188344	 0.728410	 0
1461599093.197	 4	 0.743013	 2.917064	 -1.296083	 1.456886	 -0.349206	 -0.221727	 -0.056302	 0.665904	 -0.196238	 0.717560	 0
1461599093.207	 4	 1.068703	 2.836339	 -1.149397	 1.481302	 -0.359891	 -0.233549	 -0.053843	 0.674742	 -0.204544	 0.707097	 0
1461599093.217	 4	 1.244373	 2.770751	 -1.176049	 1.504244	 -0.370498	 -0.247435	 -0.050611	 0.682966	 -0.213447	 0.696732	 0
1461599093.227	 4	 1.255806	 2.599506	 -1.318423	 1.525476	 -0.382557	 -0.261746	 -0.047749	 0.690438	 -0.222851	 0.686551	 0
1461599093.237	 4	 1.182472	 2.331712	 -1.462023	 1.544356	 -0.396416	 -0.275279	 -0.045879	 0.696923	 -0.232454	 0.676874	 0
1461599093.247	 4	 1.159725	 2.072989	 -1.507928	 1.560592	 -0.411236	 -0.288209	 -0.044705	 0.702371	 -0.242056	 0.667897	 0
1461599093.257	 4	 1.222091	 1.911439	 -1.466279	 1.574649	 -0.426014	 -0.301394	 -0.043547	 0.707006	 -0.251630	 0.659491	 0
1461599093.267	 4	 1.408309	 1.919240	 -1.342067	 1.587531	 -0.439926	 -0.316138	 -0.041553	 0.711227	 -0.261344	 0.651252	 0
1461599093.277	 4	 1.753859	 1.978831	 -1.198512	 1.599348	 -0.452620	 -0.334233	 -0.037958	 0.715119	 -0.271643	 0.642941	 0
1461599093.287	 4	 2.151267	 1.997414	 -1.115473	 1.609330	 -0.464633	 -0.356695	 -0.032698	 0.718436	 -0.282972	 0.634592	 0
1461599093.297	 4	 2.458807	 1.983160	 -1.050074	 1.617336	 -0.476322	 -0.382968	 -0.026131	 0.721103	 -0.295232	 0.626232	 0
1461599093.307	 4	 2.614599	 1.864575	 -0.912919	 1.623078	 -0.487118	 -0.411569	 -0.018667	 0.723009	 -0.307742	 0.618227	 0
1461599093.317	 4	 2.664694	 1.661853	 -0.687169	 1.626279	 -0.496008	 -0.441188	 -0.010514	 0.724069	 -0.319769	 0.611033	 0
1461599093.327	 4	 2.676591	 1.332219	 -0.524081	 1.626064	 -0.503033	 -0.471267	 -0.002080	 0.724012	 -0.331187	 0.605076	 0
1461599093.337	 4	 2.656406	 1.065829	 -0.452846	 1.622712	 -0.509154	 -0.501364	 0.006130	 0.722923	 -0.342220	 0.600192	 0
1461599093.347	 4	 2.652518	 0.861076	 -0.382246	 1.617091	 -0.514440	 -0.531480	 0.014197	 0.721070	 -0.352928	 0.596069	 0
1461599093.357	 4	 2.708810	 0.549520	 -0.348333	 1.608238	 -0.519145	 -0.562257	 0.022052	 0.718167	 -0.363625	 0.592897	 0
1461599093.367	 4	 2.722349	 0.172592	 -0.252843	 1.595330	 -0.522803	 -0.593581	 0.029611	 0.713968	 -0.374187	 0.591064	 0
1461599093.377	 4	 2.478275	 -0.118061	 -0.097821	 1.580127	 -0.524624	 -0.623083	 0.036587	 0.709013	 -0.383702	 0.590538	 0
1461599093.397	 5	 1.348230	 -1.081053	 0.266482	 1.546762	 -0.521905	 -0.665418	 0.045939	 0.698193	 -0.396136	 0.594553	 0
1461599093.417	 6	 -0.767536	 -1.393593	 0.753062	 1.516512	 -0.510143	 -0.663839	 0.043638	 0.688782	 -0.392966	 0.607661	 0
1461599093.427	 6	 -0.722161	 -0.651925	 0.817120	 1.512585	 -0.502679	 -0.654228	 0.042256	 0.687549	 -0.387990	 0.612335	 0
1461599093.437	 6	 0.196385	 0.428914	 1.070700	 1.514748	 -0.492770	 -0.652785	 0.045753	 0.687917	 -0.384663	 0.613769	 0
1461599093.447	 6	 1.385466	 1.544741	 1.418168	 1.522093	 -0.478903	 -0.664209	 0.056089	 0.689384	 -0.383983	 0.611687	 0
1461599093.457	 6	 2.598221	 2.596703	 1.622024	 1.534139	 -0.462103	 -0.689219	 0.073057	 0.691563	 -0.386345	 0.605921	 0
1461599093.467	 6	 3.699980	 3.648088	 1.555072	 1.551517	 -0.445180	 -0.726919	 0.095506	 0.694391	 -0.392021	 0.595835	 0
1461599093.477	 6	 4.469505	 4.472392	 1.134000	 1.574286	 -0.432309	 -0.774309	 0.121027	 0.697809	 -0.400981	 0.581060	 0
1461599093.487	 6	 4.876908	 4.863008	 0.603338	 1.600278	 -0.425703	 -0.827129	 0.147070	 0.701280	 -0.412415	 0.562575	 0
1461599093.497	 6	 5.029414	 4.668699	 0.270882	 1.625191	 -0.424523	 -0.882138	 0.172012	 0.703692	 -0.425284	 0.542552	 0
1461599093.507	 6	 4.949337	 3.796425	 0.222963	 1.643089	 -0.425430	 -0.936910	 0.194845	 0.703513	 -0.438512	 0.524225	 0
1461599093.517	 6	 4.569591	 2.857032	 0.038480	 1.652659	 -0.428017	 -0.988288	 0.214161	 0.700951	 -0.451539	 0.508837	 0
1461599093.527	 6	 3.556157	 1.410014	 -0.294416	 1.653107	 -0.433270	 -1.030287	 0.227220	 0.696908	 -0.463528	 0.497827	 0
1461599093.537	 6	 2.356954	 0.087650	 -0.526484	 1.644828	 -0.440226	 -1.059033	 0.232990	 0.692222	 -0.473502	 0.492281	 0
1461599093.547	 6	 1.359880	 -0.795306	 -0.365089	 1.631454	 -0.445585	 -1.076210	 0.233969	 0.687466	 -0.480727	 0.491478	 0
1461599093.557	 6	 0.819604	 -1.386704	 -0.001397	 1.614519	 -0.447032	 -1.086401	 0.232891	 0.682253	 -0.485598	 0.494457	 0
1461599093.567	 6	 0.564290	 -1.709106	 0.317554	 1.595075	 -0.444801	 -1.093360	 0.231256	 0.676371	 -0.489004	 0.499918	 0
1461599093.577	 6	 0.342337	 -1.869761	 0.514092	 1.574788	 -0.440138	 -1.097827	 0.229341	 0.670230	 -0.491269	 0.506803	 0
1461599093.587	 6	 0.146042	 -1.918633	 0.588884	 1.554773	 -0.434362	 -1.099924	 0.227053	 0.664213	 -0.492625	 0.514382	 0
1461599093.597	 6	 0.006064	 -1.723637	 0.581260	 1.536776	 -0.428484	 -1.100160	 0.224677	 0.658825	 -0.493245	 0.521708	 0
1461599093.607	 6	 -0.062120	 -1.308102	 0.653929	 1.522907	 -0.422236	 -1.099286	 0.223087	 0.654522	 -0.493013	 0.527988	 0
1461599093.617	 6	 -0.054213	 -0.705730	 0.854500	 1.514710	 -0.414304	 -1.098172	 0.223402	 0.651486	 -0.491667	 0.532842	 0
1461599093.627	 6	 0.093333	 -0.099838	 1.010191	 1.512332	 -0.404499	 -1.098099	 0.226129	 0.649621	 -0.489482	 0.535972	 0
1461599093.637	 6	 0.223201	 0.259483	 1.037982	 1.513588	 -0.394013	 -1.099576	 0.230474	 0.648447	 -0.487122	 0.537690	 0
1461599093.647	 6	 0.260135	 0.461963	 0.960679	 1.516980	 -0.384040	 -1.101750	 0.235379	 0.647812	 -0.484811	 0.538418	 0
1461599093.657	 6	 0.187987	 0.452563	 0.808815	 1.520987	 -0.375444	 -1.103569	 0.239837	 0.647548	 -0.482658	 0.538704	 0
1461599093.667	 6	 0.105558	 0.313302	 0.634318	 1.524230	 -0.368627	 -1.104544	 0.243227	 0.647402	 -0.480801	 0.539019	 0
1461599093.677	 6	 0.093178	 0.074030	 0.488321	 1.525322	 -0.363379	 -1.105232	 0.245473	 0.646914	 -0.479517	 0.539730	 0
1461599093.687	 6	 -0.014893	 -0.107377	 0.362880	 1.524549	 -0.359381	 -1.105331	 0.246661	 0.646158	 -0.478619	 0.540890	 0
1461599093.697	 6	 -0.376709	 -0.176880	 0.166086	 1.524037	 -0.357337	 -1.102399	 0.246276	 0.646106	 -0.477366	 0.542233	 0
1461599093.707	 6	 -1.039522	 -0.429970	 -0.094807	 1.523657	 -0.357938	 -1.093296	 0.243041	 0.647197	 -0.475094	 0.544383	 0
1461599093.717	 6	 -1.962985	 -0.627934	 -0.486138	 1.524066	 -0.362551	 -1.075136	 0.235694	 0.650084	 -0.471276	 0.547483	 0
1461599093.727	 6	 -2.964415	 -0.875349	 -0.834620	 1.526684	 -0.371430	 -1.046526	 0.223966	 0.655205	 -0.465420	 0.551298	 0
1461599093.737	 6	 -3.831910	 -1.621665	 -0.991744	 1.526546	 -0.382533	 -1.007775	 0.207400	 0.660656	 -0.457605	 0.557779	 0
1461599093.747	 6	 -3.741694	 -2.130576	 -1.318060	 1.521982	 -0.396535	 -0.966999	 0.188032	 0.664936	 -0.450318	 0.565436	 0
1461599093.757	 6	 -3.079639	 -2.615095	 -1.716270	 1.510532	 -0.414392	 -0.932481	 0.167762	 0.666552	 -0.446262	 0.573075	 0
1461599093.767	 6	 -2.063952	 -2.804838	 -2.096699	 1.492594	 -0.436110	 -0.908426	 0.148100	 0.665328	 -0.446490	 0.579700	 0
1461599093.777	 6	 -0.951432	 -2.647902	 -2.152884	 1.470391	 -0.458576	 -0.897072	 0.131347	 0.661670	 -0.450585	 0.584733	 0
1461599093.787	 6	 -0.087987	 -2.435292	 -2.112596	 1.445822	 -0.480009	 -0.896558	 0.117876	 0.656372	 -0.457417	 0.588261	 0
1461599093.797	 6	 0.572796	 -2.521212	 -1.960350	 1.417608	 -0.499332	 -0.904369	 0.106875	 0.649306	 -0.466075	 0.591399	 0
1461599093.807	 6	 1.111760	 -3.099176	 -1.800965	 1.380703	 -0.515650	 -0.919054	 0.096905	 0.639076	 -0.476192	 0.596181	 0
1461599093.827	 7	 1.896500	 -2.276527	 -2.150778	 1.302118	 -0.546403	 -0.966348	 0.081060	 0.616463	 -0.500648	 0.602291	 0
1461599093.837	 7	 1.946269	 -1.687203	 -2.412168	 1.268199	 -0.563430	 -0.996218	 0.075148	 0.606946	 -0.514408	 0.601127	 0
1461599093.847	 7	 1.668328	 -1.386896	 -2.620106	 1.237687	 -0.582367	 -1.025642	 0.068870	 0.598928	 -0.527940	 0.598182	 0
1461599093.857	 7	 1.161121	 -0.928651	 -2.702016	 1.212627	 -0.603315	 -1.051409	 0.061868	 0.593158	 -0.540196	 0.593738	 0
1461599093.867	 7	 0.391971	 0.071853	 -2.474988	 1.199968	 -0.625006	 -1.069492	 0.055489	 0.591591	 -0.549600	 0.587266	 0
1461599093.877	 7	 -0.544491	 1.473639	 -2.127667	 1.207681	 -0.646673	 -1.075631	 0.051171	 0.596360	 -0.554765	 0.577904	 0
1461599093.897	 8	 -1.576868	 2.575212	 -2.736162	 1.261751	 -0.700039	 -1.064762	 0.042662	 0.617957	 -0.559305	 0.550897	 0
1461599093.907	 8	 -1.779953	 2.569237	 -3.348328	 1.293895	 -0.735636	 -1.054913	 0.035172	 0.630414	 -0.562045	 0.534272	 0
1461599093.917	 8	 -1.887907	 2.343042	 -3.929268	 1.325901	 -0.777046	 -1.043533	 0.025033	 0.642604	 -0.565682	 0.516176	 0
1461599093.927	 8	 -1.941539	 2.022652	 -4.424165	 1.355937	 -0.823378	 -1.030716	 0.012108	 0.653750	 -0.570166	 0.497369	 0
1461599093.937	 8	 -2.318358	 2.607405	 -4.608346	 1.393956	 -0.872653	 -1.011810	 -0.001539	 0.665926	 -0.574066	 0.476433	 0
1461599093.957	 9	 -3.022132	 4.488214	 -4.551678	 1.536977	 -0.969216	 -0.931874	 -0.022929	 0.699933	 -0.575090	 0.422894	 0
1461599093.967	 9	 -2.561931	 4.565355	 -4.581610	 1.624840	 -1.014801	 -0.881564	 -0.031534	 0.716422	 -0.575485	 0.393144	 0
1461599093.977	 9	 -1.810283	 4.302297	 -4.179219	 1.709582	 -1.056049	 -0.834136	 -0.038368	 0.729782	 -0.577196	 0.364406	 0
1461599093.987	 9	 -1.102033	 4.129839	 -2.448732	 1.782696	 -1.083022	 -0.797775	 -0.039540	 0.740081	 -0.578622	 0.340459	 0
1461599093.997	 9	 -0.885031	 4.859974	 -0.533981	 1.849910	 -1.090141	 -0.774030	 -0.031244	 0.750143	 -0.577674	 0.320315	 0
1461599094.017	 10	 -0.931158	 6.157270	 0.284209	 2.000226	 -1.079447	 -0.737884	 0.001410	 0.773446	 -0.570483	 0.276275	 0
1461599094.027	 10	 -0.751237	 5.974761	 0.123211	 2.072325	 -1.074380	 -0.724488	 0.018158	 0.783683	 -0.566871	 0.253314	 0
1461599094.037	 10	 -0.702518	 5.870776	 -0.115846	 2.142628	 -1.071228	 -0.711341	 0.033716	 0.792772	 -0.563407	 0.230106	 0
1461599094.047	 10	 -1.144888	 6.526601	 -0.499158	 2.224684	 -1.068670	 -0.689631	 0.048749	 0.802498	 -0.558543	 0.204085	 0
1461599094.057	 10	 -1.639916	 7.466459	 -1.043496	 2.328999	 -1.065506	 -0.653290	 0.063781	 0.813853	 -0.551124	 0.172735	 0
1461599094.067	 10	 -1.469285	 7.636748	 -1.545371	 2.443923	 -1.063943	 -0.609569	 0.077659	 0.824604	 -0.543110	 0.137946	 0
1461599094.077	 10	 -0.732986	 5.999305	 -1.763119	 2.544659	 -1.067060	 -0.569747	 0.087757	 0.831812	 -0.537655	 0.106373	 0
1461599094.087	 10	 -0.066277	 3.083412	 -1.861068	 2.613348	 -1.074874	 -0.534789	 0.090202	 0.835078	 -0.535875	 0.085716	 0
1461599094.097	 10	 0.302827	 0.707141	 -2.028141	 2.656114	 -1.086575	 -0.500210	 0.085267	 0.835820	 -0.537110	 0.075154	 0
1461599094.117	 11	 0.913584	 -0.853659	 -1.701609	 2.700587	 -1.114394	 -0.438490	 0.067233	 0.833521	 -0.544028	 0.068966	 0
1461599094.127	 11	 1.342406	 -0.506717	 -1.353611	 2.710719	 -1.131889	 -0.420428	 0.059957	 0.830338	 -0.549939	 0.067166	 0
1461599094.137	 11	 0.793681	 -0.188758	 -0.704285	 2.716809	 -1.144941	 -0.411081	 0.055913	 0.827688	 -0.554555	 0.065383	 0
1461599094.147	 11	 -0.367699	 -0.401536	 0.284348	 2.713769	 -1.143928	 -0.410875	 0.055128	 0.827837	 -0.554237	 0.066840	 0
1461599094.157	 11	 -0.924030	 -0.264121	 1.114305	 2.699521	 -1.132421	 -0.422696	 0.057741	 0.829758	 -0.550555	 0.071113	 0
1461599094.167	 11	 -0.904965	 0.430843	 1.327364	 2.685573	 -1.118331	 -0.440818	 0.063526	 0.831997	 -0.546140	 0.074002	 0
1461599094.177	 11	 -0.747998	 1.097703	 1.094537	 2.680794	 -1.106064	 -0.456561	 0.070639	 0.834104	 -0.542099	 0.073555	 0
1461599094.187	 11	 -0.518715	 1.652293	 0.662871	 2.687316	 -1.097424	 -0.466344	 0.077802	 0.835927	 -0.538834	 0.069507	 0
1461599094.197	 11	 -0.275746	 1.977849	 0.187389	 2.703915	 -1.093085	 -0.469161	 0.084097	 0.837337	 -0.536556	 0.062468	 0
1461599094.207	 11	 -0.087969	 2.063859	 -0.196054	 2.727401	 -1.092356	 -0.465916	 0.089137	 0.838324	 -0.535157	 0.053608	 0
1461599094.227	 11	 -0.151810	 1.249238	 -0.793511	 2.782612	 -1.095210	 -0.440786	 0.092947	 0.840058	 -0.533210	 0.036744	 0
1461599094.217	 11	 -0.046764	 1.800758	 -0.526050	 2.754624	 -1.093661	 -0.456528	 0.092294	 0.839119	 -0.534209	 0.044511	 0
1461599094.237	 11	 -0.294461	 0.629879	 -1.044224	 2.810068	 -1.096050	 -0.418659	 0.090850	 0.841342	 -0.531911	 0.030983	 0
1461599094.247	 11	 -0.260678	 0.296239	 -1.277827	 2.837971	 -1.097180	 -0.391340	 0.086628	 0.842685	 -0.530738	 0.026352	 0
1461599094.257	 11	 -0.041693	 0.266635	 -1.457991	 2.867718	 -1.100199	 -0.360799	 0.081316	 0.843592	 -0.530354	 0.021563	 0
1461599094.337	 18	 -0.765180	 0.102975	 0.906383	 2.953072	 -1.204405	 -0.330268	 0.082276	 0.818035	 -0.569023	 -0.016195	 0
1461599094.347	 18	 -1.486285	 1.869655	 0.764973	 2.953721	 -1.189186	 -0.344731	 0.089687	 0.821515	 -0.562764	 -0.019105	 0
1461599094.357	 18	 -1.298040	 3.214552	 0.615985	 2.973722	 -1.174516	 -0.355032	 0.100761	 0.824699	 -0.555777	 -0.028804	 0
1461599094.367	 18	 -0.936795	 2.863673	 0.630889	 2.993748	 -1.163410	 -0.366547	 0.111958	 0.826686	 -0.550018	 -0.039189	 0
1461599094.377	 18	 -0.570769	 1.264111	 0.646923	 2.998329	 -1.155912	 -0.380180	 0.119457	 0.827772	 -0.546423	 -0.044093	 0
1461599094.387	 18	 -0.184528	 -0.531585	 0.611929	 2.984324	 -1.152180	 -0.394346	 0.121809	 0.828192	 -0.545448	 -0.041787	 0
1461599094.397	 18	 0.350096	 -1.399309	 0.559767	 2.958242	 -1.153214	 -0.409069	 0.120687	 0.827533	 -0.547165	 -0.035122	 0
1461599094.407	 18	 1.123724	 -1.231043	 0.608951	 2.927821	 -1.161045	 -0.427946	 0.119367	 0.824868	 -0.551837	 -0.028627	 0
1461599094.417	 18	 1.937873	 -0.877531	 0.698939	 2.893362	 -1.176444	 -0.455049	 0.119289	 0.819748	 -0.559655	 -0.023864	 0
1461599094.427	 18	 2.536075	 -0.765384	 0.711826	 2.852716	 -1.197742	 -0.490444	 0.119724	 0.812617	 -0.570014	 -0.020097	 0
1461599094.437	 18	 2.700600	 -0.731793	 0.717101	 2.805550	 -1.221224	 -0.533039	 0.120244	 0.804494	 -0.581422	 -0.016710	 0
1461599094.447	 18	 1.725343	 -1.562284	 0.935279	 2.749576	 -1.237602	 -0.579054	 0.119839	 0.797975	 -0.590564	 -0.010395	 0
1461599094.457	 18	 -0.242490	 -3.035961	 1.086841	 2.691416	 -1.235537	 -0.612180	 0.116174	 0.796631	 -0.593188	 0.003349	 0
1461599094.477	 19	 -0.814559	 -3.183287	 -0.098940	 2.627514	 -1.213144	 -0.607252	 0.099286	 0.801596	 -0.588556	 0.034477	 0
1461599094.487	 19	 -0.194974	 -2.555482	 -0.689991	 2.617983	 -1.212971	 -0.588493	 0.088991	 0.802332	 -0.588575	 0.043851	 0
1461599094.497	 19	 0.242695	 -2.100102	 -0.931492	 2.614816	 -1.218712	 -0.568405	 0.078964	 0.801758	 -0.590296	 0.049985	 0
1461599094.507	 19	 0.489538	 -1.843105	 -0.886488	 2.611488	 -1.227078	 -0.551787	 0.069823	 0.800309	 -0.592989	 0.054717	 0
1461599094.517	 19	 0.641193	 -1.750714	 -0.698308	 2.603372	 -1.236117	 -0.541664	 0.061747	 0.798249	 -0.596208	 0.059347	 0
1461599094.527	 19	 0.757395	 -1.701881	 -0.517686	 2.589092	 -1.245255	 -0.538623	 0.054618	 0.795698	 -0.599789	 0.064301	 0
1461599094.537	 19	 0.829874	 -1.607519	 -0.383153	 2.570245	 -1.254363	 -0.541253	 0.048323	 0.792807	 -0.603585	 0.069337	 0
1461599094.547	 19	 0.845174	 -1.402511	 -0.267342	 2.548875	 -1.263047	 -0.548345	 0.043031	 0.789792	 -0.607368	 0.074034	 0
1461599094.557	 19	 0.816261	 -1.048640	 -0.175339	 2.527648	 -1.270947	 -0.558570	 0.039076	 0.786887	 -0.610927	 0.077788	 0
1461599094.567	 19	 0.791309	 -0.528900	 -0.089288	 2.508721	 -1.278063	 -0.571387	 0.036909	 0.784206	 -0.614225	 0.079913	 0
1461599094.577	 19	 0.791326	 0.063241	 0.017470	 2.492222	 -1.284454	 -0.587712	 0.036929	 0.781739	 -0.617340	 0.080075	 0
1461599094.587	 19	 0.806083	 0.611744	 0.125824	 2.477647	 -1.290165	 -0.607910	 0.039121	 0.779444	 -0.620321	 0.078349	 0
1461599094.597	 19	 1.067613	 0.832384	 0.150113	 2.460114	 -1.296813	 -0.634587	 0.042633	 0.776691	 -0.623888	 0.075478	 0
1461599094.607	 19	 1.702694	 0.327202	 -0.028508	 2.428719	 -1.308377	 -0.672352	 0.044872	 0.772081	 -0.629688	 0.073277	 0
1461599094.617	 19	 2.301854	 -0.742966	 -0.250441	 2.373465	 -1.325757	 -0.724738	 0.043456	 0.765082	 -0.638200	 0.073904	 0
1461599094.627	 19	 2.536309	 -1.883289	 -0.320645	 2.290944	 -1.345305	 -0.793030	 0.038026	 0.756492	 -0.648159	 0.078505	 0
1461599094.637	 19	 2.421428	 -2.780019	 -0.235268	 2.184575	 -1.362691	 -0.875615	 0.029651	 0.747409	 -0.657991	 0.086884	 0
1461599094.647	 19	 2.047980	 -3.371097	 -0.053139	 2.065476	 -1.374911	 -0.964065	 0.019517	 0.738797	 -0.666431	 0.098328	 0
1461599094.657	 19	 1.553621	 -3.607399	 0.163191	 1.947040	 -1.380656	 -1.048291	 0.009028	 0.731191	 -0.672874	 0.111891	 0
1461599094.667	 19	 1.070704	 -3.692610	 0.393626	 1.841866	 -1.380295	 -1.117836	 -0.001037	 0.724810	 -0.677175	 0.126820	 0
1461599094.677	 19	 0.767806	 -3.861248	 0.636666	 1.746097	 -1.373723	 -1.176211	 -0.010240	 0.719006	 -0.679897	 0.143757	 0
1461599094.687	 19	 1.023347	 -3.628375	 1.021280	 1.657888	 -1.365404	 -1.228375	 -0.018729	 0.713105	 -0.682209	 0.160378	 0
1461599094.697	 19	 1.458723	 -3.347433	 1.217274	 1.561805	 -1.353810	 -1.291751	 -0.025019	 0.705979	 -0.685365	 0.176757	 0
1461599094.707	 19	 1.797670	 -3.002564	 1.242057	 1.468967	 -1.339861	 -1.355873	 -0.029442	 0.698212	 -0.689003	 0.192115	 0
1461599094.717	 19	 1.931981	 -2.626067	 1.293416	 1.372045	 -1.324283	 -1.427535	 -0.032517	 0.689095	 -0.693918	 0.206320	 0
1461599094.727	 19	 1.882675	 -2.169009	 1.233087	 1.289611	 -1.307541	 -1.489134	 -0.034135	 0.680242	 -0.698728	 0.218825	 0
1461599094.737	 19	 1.662981	 -1.749643	 1.039605	 1.224208	 -1.291785	 -1.537817	 -0.034978	 0.672310	 -0.703019	 0.229217	 0
1461599094.747	 19	 1.356915	 -1.456268	 0.744455	 1.173605	 -1.278893	 -1.574713	 -0.035904	 0.665621	 -0.706594	 0.237457	 0
1461599094.757	 19	 1.038295	 -1.296149	 0.402346	 1.133362	 -1.269888	 -1.602896	 -0.037642	 0.660156	 -0.709464	 0.243800	 0
1461599094.767	 19	 0.794979	 -1.257306	 0.087229	 1.098690	 -1.264712	 -1.626039	 -0.040539	 0.655622	 -0.711811	 0.248678	 0
1461599094.777	 19	 0.685151	 -1.298828	 -0.109367	 1.065342	 -1.262039	 -1.647574	 -0.044460	 0.651502	 -0.713917	 0.252768	 0
1461599094.787	 19	 0.702892	 -1.333352	 -0.169526	 1.030882	 -1.259979	 -1.669865	 -0.048830	 0.647307	 -0.716059	 0.256650	 0
1461599094.797	 19	 0.772320	 -1.320788	 -0.168948	 0.995051	 -1.257438	 -1.693606	 -0.053153	 0.642852	 -0.718370	 0.260501	 0
1461599094.807	 19	 0.843891	 -1.308215	 -0.166256	 0.958107	 -1.254187	 -1.718678	 -0.057315	 0.638116	 -0.720869	 0.264330	 0
1461599094.817	 19	 0.918418	 -1.310860	 -0.207429	 0.919548	 -1.250438	 -1.745480	 -0.061465	 0.633070	 -0.723593	 0.268064	 0
1461599094.827	 19	 1.038752	 -1.301133	 -0.284055	 0.878053	 -1.246234	 -1.775478	 -0.065666	 0.627580	 -0.726702	 0.271541	 0
1461599094.837	 19	 1.213418	 -1.304386	 -0.368736	 0.832354	 -1.241199	 -1.809983	 -0.069901	 0.621433	 -0.730379	 0.274738	 0
1461599094.847	 19	 1.410913	 -1.226807	 -0.444337	 0.782804	 -1.234851	 -1.849103	 -0.073939	 0.614555	 -0.734722	 0.277558	 0
1461599094.867	 20	 1.448927	 -0.658567	 -0.684505	 0.684249	 -1.220359	 -1.934648	 -0.079957	 0.600494	 -0.744778	 0.279856	 0
1461599094.877	 20	 1.141620	 -0.365676	 -0.753708	 0.643464	 -1.215231	 -1.973525	 -0.082064	 0.594990	 -0.749323	 0.278867	 0
1461599094.887	 20	 0.689751	 -0.271504	 -0.710530	 0.612127	 -1.212970	 -2.003971	 -0.084153	 0.591266	 -0.752612	 0.277304	 0
1461599094.897	 20	 0.246115	 -0.298121	 -0.600338	 0.590000	 -1.213637	 -2.024491	 -0.086621	 0.589273	 -0.754396	 0.275938	 0
1461599094.907	 20	 -0.012606	 -0.264639	 -0.488001	 0.575070	 -1.216162	 -2.037440	 -0.089142	 0.588521	 -0.755093	 0.274830	 0
1461599094.917	 20	 -0.037512	 -0.220049	 -0.362675	 0.564403	 -1.218682	 -2.046388	 -0.091228	 0.588201	 -0.755402	 0.273980	 0
1461599094.927	 20	 0.119897	 -0.270153	 -0.168411	 0.555682	 -1.219241	 -2.052979	 -0.092738	 0.587475	 -0.755805	 0.273919	 0
1461599094.937	 20	 0.288220	 -0.320906	 0.087565	 0.549451	 -1.216977	 -2.056258	 -0.093519	 0.586099	 -0.756367	 0.275047	 0
1461599094.947	 20	 0.200473	 -0.103145	 0.306705	 0.550056	 -1.213527	 -2.053707	 -0.093103	 0.585035	 -0.756657	 0.276654	 0
1461599094.957	 20	 -0.310015	 0.400136	 0.420278	 0.563972	 -1.212744	 -2.041655	 -0.091157	 0.586175	 -0.755766	 0.277323	 0
1461599094.967	 20	 -1.087849	 0.890540	 0.410299	 0.594266	 -1.217875	 -2.017622	 -0.088223	 0.590783	 -0.752923	 0.276222	 0
1461599094.977	 20	 -1.784231	 1.264458	 0.356961	 0.640351	 -1.228993	 -1.981139	 -0.084938	 0.598661	 -0.748093	 0.273401	 0
1461599094.987	 20	 -2.285338	 1.609303	 0.333626	 0.701929	 -1.243875	 -1.932043	 -0.081201	 0.608933	 -0.741725	 0.269166	 0
1461599094.997	 20	 -2.705913	 2.026516	 0.348631	 0.782134	 -1.260749	 -1.867801	 -0.076533	 0.621225	 -0.734022	 0.263503	 0
1461599095.007	 20	 -3.068919	 2.430800	 0.364079	 0.884345	 -1.278139	 -1.785210	 -0.070761	 0.635270	 -0.725042	 0.256396	 0
1461599095.017	 20	 -3.344827	 2.776089	 0.346248	 1.009452	 -1.294477	 -1.682932	 -0.064073	 0.650601	 -0.714954	 0.247900	 0
1461599095.027	 20	 -3.463517	 2.948777	 0.351020	 1.154611	 -1.307620	 -1.562665	 -0.056754	 0.666478	 -0.704075	 0.238463	 0
1461599095.037	 20	 -3.378711	 2.749255	 0.445409	 1.309436	 -1.315047	 -1.431706	 -0.049482	 0.681813	 -0.692831	 0.229495	 0
1461599095.047	 20	 -3.134960	 2.259335	 0.599658	 1.457787	 -1.315524	 -1.303092	 -0.042964	 0.695641	 -0.681731	 0.222441	 0
1461599095.057	 20	 -2.794160	 1.954438	 0.786757	 1.588256	 -1.309497	 -1.188873	 -0.036763	 0.707745	 -0.671198	 0.217343	 0
1461599095.067	 20	 -2.391080	 2.041103	 0.873578	 1.697099	 -1.299098	 -1.096744	 -0.029720	 0.718345	 -0.661712	 0.212685	 0
1461599095.077	 20	 -1.958480	 2.410514	 0.801842	 1.786701	 -1.287429	 -1.027563	 -0.021314	 0.727664	 -0.653670	 0.206801	 0
1461599095.087	 21	 -1.601802	 2.809394	 0.656439	 1.862790	 -1.276487	 -0.976532	 -0.011647	 0.735945	 -0.647037	 0.198977	 0
1461599095.107	 21	 -1.334252	 3.142151	 0.450448	 1.995526	 -1.257161	 -0.901392	 0.009084	 0.750656	 -0.635765	 0.179547	 0
1461599095.117	 21	 -1.408971	 3.379429	 0.433057	 2.060334	 -1.247162	 -0.867948	 0.019979	 0.757871	 -0.629936	 0.168559	 0
1461599095.127	 21	 -1.591414	 3.635058	 0.409315	 2.129160	 -1.235819	 -0.833132	 0.031562	 0.765564	 -0.623260	 0.156405	 0
1461599095.137	 21	 -1.781937	 3.384843	 0.295674	 2.199326	 -1.223372	 -0.795688	 0.042335	 0.773499	 -0.615691	 0.144331	 0
1461599095.147	 21	 -1.960442	 2.561968	 0.126510	 2.265366	 -1.210246	 -0.755081	 0.050209	 0.781269	 -0.607475	 0.134433	 0
1461599095.157	 21	 -2.135847	 1.465957	 -0.012185	 2.323160	 -1.196249	 -0.711820	 0.054168	 0.788715	 -0.598798	 0.128201	 0
1461599095.167	 21	 -2.297368	 0.530037	 -0.069578	 2.371711	 -1.180815	 -0.667498	 0.054709	 0.795919	 -0.589677	 0.125702	 0
1461599095.177	 21	 -2.338904	 0.073003	 -0.042562	 2.412052	 -1.164068	 -0.625361	 0.053458	 0.802870	 -0.580321	 0.125573	 0
1461599095.187	 21	 -2.246138	 -0.019150	 0.047428	 2.445293	 -1.146691	 -0.589044	 0.052141	 0.809407	 -0.571142	 0.126248	 0
1461599095.197	 21	 -2.017550	 0.025912	 0.046923	 2.472932	 -1.130197	 -0.558635	 0.051039	 0.815301	 -0.562647	 0.126920	 0
1461599095.207	 21	 -1.711885	 0.141839	 0.022959	 2.496348	 -1.115886	 -0.533929	 0.050335	 0.820359	 -0.555296	 0.126981	 0
1461599095.217	 21	 -1.430554	 0.246618	 0.065181	 2.515645	 -1.103523	 -0.514810	 0.050188	 0.824625	 -0.549042	 0.126599	 0
1461599095.227	 21	 -1.163567	 0.426338	 0.168973	 2.531095	 -1.092699	 -0.501691	 0.051024	 0.828183	 -0.543783	 0.125737	 0
1461599095.237	 21	 -0.890672	 0.697766	 0.307672	 2.543483	 -1.083238	 -0.494741	 0.053240	 0.831106	 -0.539460	 0.124139	 0
1461599095.247	 21	 -0.585573	 1.012676	 0.442232	 2.553387	 -1.075453	 -0.494107	 0.057053	 0.833348	 -0.536195	 0.121537	 0
1461599095.257	 21	 -0.287135	 1.312375	 0.529815	 2.561607	 -1.069639	 -0.498890	 0.062294	 0.834899	 -0.534021	 0.117831	 0
1461599095.267	 21	 -0.079499	 1.407771	 0.568328	 2.568272	 -1.065556	 -0.507258	 0.068299	 0.835852	 -0.532729	 0.113521	 0
1461599095.277	 21	 -0.030670	 1.351265	 0.569508	 2.573612	 -1.062188	 -0.516798	 0.074311	 0.836498	 -0.531784	 0.109335	 0
1461599095.287	 21	 -0.047098	 1.312588	 0.509609	 2.579241	 -1.058977	 -0.525449	 0.080000	 0.837121	 -0.530804	 0.105243	 0
1461599095.297	 21	 0.002732	 1.349811	 0.382696	 2.586439	 -1.056650	 -0.532522	 0.085285	 0.837672	 -0.529981	 0.100762	 0
1461599095.307	 21	 0.109049	 1.405717	 0.214965	 2.595752	 -1.055978	 -0.537839	 0.090099	 0.838032	 -0.529577	 0.095571	 0
1461599095.317	 21	 0.251204	 1.374239	 0.038650	 2.606445	 -1.057378	 -0.541508	 0.094222	 0.838074	 -0.529790	 0.089872	 0
1461599095.327	 21	 0.428274	 1.256700	 -0.111061	 2.617079	 -1.061055	 -0.544098	 0.097486	 0.837660	 -0.530803	 0.084085	 0
1461599095.337	 21	 0.643917	 1.130891	 -0.212159	 2.626399	 -1.067093	 -0.546703	 0.100012	 0.836664	 -0.532765	 0.078435	 0
1461599095.347	 21	 0.893174	 1.056565	 -0.240599	 2.633487	 -1.075492	 -0.550852	 0.102198	 0.834975	 -0.535779	 0.072896	 0
1461599095.357	 21	 1.133024	 0.990007	 -0.228386	 2.637608	 -1.086027	 -0.557617	 0.104321	 0.832556	 -0.539824	 0.067510	 0
1461599095.367	 21	 1.301418	 0.917412	 -0.197490	 2.638680	 -1.098094	 -0.566923	 0.106403	 0.829541	 -0.544652	 0.062406	 0
1461599095.377	 21	 1.390053	 0.910935	 -0.174875	 2.637729	 -1.110989	 -0.578161	 0.108557	 0.826152	 -0.549901	 0.057416	 0
1461599095.387	 21	 1.362939	 0.807939	 -0.161742	 2.635587	 -1.123843	 -0.590042	 0.110610	 0.822675	 -0.555154	 0.052682	 0
1461599095.397	 21	 1.609290	 -0.203656	 -0.076316	 2.623215	 -1.137511	 -0.605150	 0.110916	 0.818563	 -0.561293	 0.051012	 0
1461599095.407	 21	 2.057826	 -1.726041	 0.201894	 2.584557	 -1.154041	 -0.632425	 0.108030	 0.812484	 -0.570154	 0.055888	 0
1461599095.417	 21	 0.672276	 -1.644958	 0.555757	 2.542652	 -1.161224	 -0.658054	 0.105002	 0.808347	 -0.575711	 0.064082	 0
1461599095.427	 21	 -0.885627	 0.997239	 0.685563	 2.540982	 -1.152081	 -0.662922	 0.108336	 0.809925	 -0.572737	 0.065244	 0
1461599095.437	 21	 -0.750147	 2.782747	 0.699932	 2.563195	 -1.141385	 -0.665649	 0.117914	 0.812652	 -0.567775	 0.057654	 0
1461599095.447	 21	 -0.443287	 2.561635	 0.840147	 2.581831	 -1.132729	 -0.675077	 0.128724	 0.814344	 -0.563788	 0.049176	 0
1461599095.457	 21	 -0.128418	 1.154090	 0.913832	 2.583418	 -1.126150	 -0.690481	 0.136733	 0.814697	 -0.561693	 0.045547	 0
1461599095.467	 21	 0.185713	 -0.473955	 0.794700	 2.566653	 -1.122606	 -0.708136	 0.139915	 0.813792	 -0.562004	 0.048154	 0
1461599095.477	 21	 0.395736	 -1.493788	 0.609662	 2.538310	 -1.121897	 -0.725253	 0.139038	 0.812005	 -0.564172	 0.055007	 0
1461599095.487	 21	 0.551318	 -1.590438	 0.398518	 2.508287	 -1.123401	 -0.740569	 0.136438	 0.809782	 -0.567212	 0.062517	 0
1461599095.497	 21	 0.855879	 -1.109893	 0.199975	 2.482026	 -1.128057	 -0.755929	 0.134161	 0.807020	 -0.571083	 0.067711	 0
1461599095.507	 21	 1.208953	 -0.798201	 0.056989	 2.457065	 -1.136290	 -0.774045	 0.132455	 0.803442	 -0.576145	 0.070665	 0
1461599095.517	 21	 1.516319	 -0.520847	 0.000408	 2.430611	 -1.147273	 -0.796453	 0.131244	 0.799048	 -0.582313	 0.072175	 0
1461599095.527	 21	 1.738721	 0.078949	 -0.067353	 2.405047	 -1.160297	 -0.823547	 0.131463	 0.794059	 -0.589160	 0.071254	 0
1461599095.537	 21	 0.913778	 0.516488	 -0.052901	 2.391504	 -1.169872	 -0.843048	 0.132864	 0.790641	 -0.593756	 0.068470	 0
1461599095.547	 21	 -0.510194	 -0.165094	 0.131137	 2.393925	 -1.167771	 -0.841437	 0.133457	 0.791193	 -0.592882	 0.068518	 0
1461599095.557	 21	 -0.970540	 -1.081189	 0.046688	 2.397873	 -1.160421	 -0.827291	 0.130805	 0.793534	 -0.589805	 0.072968	 0
1461599095.567	 21	 -0.742922	 -1.231742	 -0.234859	 2.401038	 -1.155470	 -0.810484	 0.126251	 0.795592	 -0.587392	 0.077876	 0
1461599095.577	 21	 -0.373531	 -1.238704	 -0.458752	 2.402671	 -1.154767	 -0.795236	 0.120829	 0.796722	 -0.586456	 0.081871	 0
1461599095.587	 21	 -0.039063	 -1.258740	 -0.592940	 2.401372	 -1.157725	 -0.782904	 0.114831	 0.796871	 -0.586971	 0.085293	 0
1461599095.597	 21	 0.210563	 -1.233274	 -0.647099	 2.397368	 -1.163138	 -0.773745	 0.108723	 0.796241	 -0.588545	 0.088282	 0
1461599095.607	 21	 0.430329	 -1.147577	 -0.767580	 2.392174	 -1.170885	 -0.766671	 0.102538	 0.794984	 -0.591000	 0.090581	 0
1461599095.617	 21	 0.469706	 -1.259494	 -0.930960	 2.387878	 -1.180415	 -0.758164	 0.095621	 0.793469	 -0.593887	 0.092535	 0
1461599095.627	 21	 0.377453	 -1.452889	 -1.089689	 2.385823	 -1.190562	 -0.745123	 0.087431	 0.792087	 -0.596625	 0.094824	 0
1461599095.637	 21	 0.281506	 -1.355416	 -1.180668	 2.388097	 -1.200750	 -0.727619	 0.078776	 0.790995	 -0.598964	 0.096761	 0
1461599095.647	 21	 0.258821	 -0.991337	 -1.145110	 2.394758	 -1.210562	 -0.708794	 0.071038	 0.790121	 -0.600963	 0.097500	 0
1461599095.657	 21	 0.310410	 -0.575696	 -1.009537	 2.403470	 -1.219804	 -0.692285	 0.065005	 0.789269	 -0.602857	 0.096916	 0
1461599095.677	 22	 0.766827	 -0.080599	 -0.607112	 2.409689	 -1.238198	 -0.680896	 0.058194	 0.786165	 -0.608084	 0.093760	 0
1461599095.687	 22	 1.173602	 0.028040	 -0.422068	 2.398769	 -1.249239	 -0.692451	 0.056862	 0.783045	 -0.612487	 0.092018	 0
1461599095.697	 22	 1.602665	 0.087884	 -0.209963	 2.374002	 -1.261972	 -0.719325	 0.056748	 0.778546	 -0.618434	 0.090467	 0
1461599095.707	 22	 1.938289	 -0.012307	 0.043031	 2.332364	 -1.275245	 -0.763177	 0.057576	 0.772775	 -0.625655	 0.089781	 0
1461599095.717	 22	 2.165276	 -0.256086	 0.251939	 2.273033	 -1.287861	 -0.823111	 0.058721	 0.765973	 -0.633751	 0.090534	 0
1461599095.727	 22	 2.341152	 -0.630098	 0.374771	 2.196683	 -1.299249	 -0.896999	 0.059422	 0.758310	 -0.642487	 0.092985	 0
1461599095.737	 22	 2.854715	 -1.239068	 0.355041	 2.095414	 -1.310833	 -0.990911	 0.058655	 0.748955	 -0.652793	 0.097400	 0
1461599095.747	 22	 3.469651	 -1.997914	 0.242443	 1.957390	 -1.323096	 -1.114841	 0.055384	 0.736989	 -0.665548	 0.104045	 0
1461599095.757	 22	 3.718914	 -2.711792	 0.169686	 1.788497	 -1.332153	 -1.262713	 0.049564	 0.723237	 -0.679488	 0.112998	 0
1461599095.767	 22	 3.512410	 -3.278084	 0.170480	 1.610091	 -1.334935	 -1.413938	 0.041544	 0.709129	 -0.692836	 0.124049	 0
1461599095.777	 22	 2.892114	 -3.592931	 0.210256	 1.450898	 -1.331550	 -1.541511	 0.031979	 0.696280	 -0.703923	 0.136617	 0
1461599095.787	 22	 2.021938	 -3.487983	 0.249722	 1.333566	 -1.325124	 -1.626155	 0.021986	 0.686249	 -0.711509	 0.149444	 0
1461599095.797	 22	 1.169835	 -2.913240	 0.251839	 1.261994	 -1.319261	 -1.668812	 0.013069	 0.679712	 -0.715547	 0.160667	 0
1461599095.807	 22	 0.542089	 -2.249097	 0.206999	 1.215847	 -1.314972	 -1.691602	 0.005743	 0.675274	 -0.717784	 0.169580	 0
1461599095.817	 22	 0.229379	 -1.737148	 0.129225	 1.189126	 -1.312535	 -1.700074	 -0.000156	 0.672633	 -0.718653	 0.176357	 0
1461599095.827	 22	 0.167611	 -1.419503	 0.052786	 1.169366	 -1.311229	 -1.705131	 -0.005111	 0.670694	 -0.719139	 0.181610	 0
1461599095.837	 22	 0.285570	 -1.245877	 -0.010571	 1.148099	 -1.310203	 -1.713872	 -0.009483	 0.668627	 -0.719916	 0.185926	 0
1461599095.847	 22	 0.534304	 -1.185292	 -0.062264	 1.119617	 -1.308685	 -1.731008	 -0.013510	 0.665827	 -0.721447	 0.189752	 0
1461599095.857	 22	 0.865872	 -1.223753	 -0.098547	 1.080296	 -1.305955	 -1.759208	 -0.017433	 0.661849	 -0.724023	 0.193502	 0
1461599095.867	 22	 1.203779	 -1.278166	 -0.131837	 1.029776	 -1.301494	 -1.798455	 -0.021339	 0.656531	 -0.727715	 0.197339	 0
1461599095.877	 22	 1.447085	 -1.250423	 -0.167802	 0.972052	 -1.295300	 -1.845272	 -0.025077	 0.650165	 -0.732281	 0.201050	 0
1461599095.887	 22	 1.546802	 -1.112776	 -0.213217	 0.913210	 -1.287930	 -1.894496	 -0.028410	 0.643348	 -0.737280	 0.204243	 0
1461599095.897	 22	 1.525188	 -0.904585	 -0.260116	 0.857982	 -1.280122	 -1.942075	 -0.031170	 0.636644	 -0.742306	 0.206626	 0
1461599095.907	 22	 1.438622	 -0.670633	 -0.300882	 0.808544	 -1.272444	 -1.986107	 -0.033295	 0.630396	 -0.747122	 0.208089	 0
1461599095.917	 22	 1.338194	 -0.438728	 -0.336217	 0.765178	 -1.265137	 -2.026322	 -0.034765	 0.624716	 -0.751654	 0.208655	 0
1461599095.927	 22	 1.254750	 -0.236565	 -0.359188	 0.727119	 -1.258177	 -2.063301	 -0.035604	 0.619554	 -0.755938	 0.208428	 0
1461599095.937	 22	 1.187765	 -0.150508	 -0.399368	 0.692533	 -1.251564	 -2.097999	 -0.036153	 0.614755	 -0.760027	 0.207673	 0
1461599095.947	 22	 1.133508	 -0.282737	 -0.468335	 0.658242	 -1.245426	 -2.131676	 -0.037234	 0.610063	 -0.763958	 0.206892	 0
1461599095.957	 22	 1.081559	 -0.618005	 -0.521093	 0.621758	 -1.239689	 -2.164685	 -0.039658	 0.605228	 -0.767714	 0.206737	 0
1461599095.967	 22	 0.963455	 -1.004731	 -0.509809	 0.583997	 -1.234387	 -2.195002	 -0.043689	 0.600330	 -0.771074	 0.207702	 0
1461599095.977	 22	 0.735411	 -1.230008	 -0.426790	 0.549134	 -1.230074	 -2.219362	 -0.048795	 0.595903	 -0.773657	 0.209699	 0
1461599095.987	 22	 0.453351	 -1.165625	 -0.316093	 0.521331	 -1.227318	 -2.236128	 -0.053913	 0.592520	 -0.775267	 0.212072	 0
1461599095.997	 22	 0.199152	 -0.870352	 -0.182175	 0.502948	 -1.226138	 -2.245531	 -0.057980	 0.590441	 -0.775997	 0.214115	 0
1461599096.007	 22	 0.017585	 -0.560412	 -0.049819	 0.493886	 -1.226013	 -2.248452	 -0.060606	 0.589513	 -0.776069	 0.215682	 0
1461599096.017	 22	 -0.085033	 -0.441433	 0.035311	 0.490546	 -1.226499	 -2.247168	 -0.062394	 0.589272	 -0.775726	 0.217062	 0
1461599096.027	 22	 -0.153484	 -0.550122	 0.126552	 0.489755	 -1.227196	 -2.242593	 -0.064212	 0.589269	 -0.775056	 0.218922	 0
1461599096.037	 22	 -0.356905	 -0.750023	 0.198934	 0.491123	 -1.228903	 -2.233683	 -0.066711	 0.589684	 -0.773765	 0.221608	 0
1461599096.047	 22	 -0.832016	 -0.828121	 0.237515	 0.497990	 -1.233935	 -2.217710	 -0.069975	 0.591534	 -0.771176	 0.224675	 0
1461599096.057	 22	 -1.522098	 -0.768476	 0.263262	 0.515513	 -1.244427	 -2.190821	 -0.073770	 0.595893	 -0.766618	 0.227524	 0
1461599096.067	 22	 -2.204043	 -0.580050	 0.303991	 0.548179	 -1.260542	 -2.149728	 -0.077659	 0.603064	 -0.759927	 0.229771	 0
1461599096.077	 22	 -2.713039	 -0.165461	 0.361306	 0.600264	 -1.280475	 -2.092213	 -0.080679	 0.612684	 -0.751522	 0.230919	 0
1461599096.087	 22	 -3.082422	 0.479141	 0.366257	 0.675881	 -1.302332	 -2.016758	 -0.081835	 0.624367	 -0.741962	 0.230132	 0
1461599096.097	 22	 -3.372664	 1.247200	 0.267224	 0.778411	 -1.325077	 -1.921594	 -0.080810	 0.637862	 -0.731619	 0.226574	 0
1461599096.107	 22	 -3.569029	 2.042338	 0.127126	 0.911709	 -1.347305	 -1.803534	 -0.077524	 0.652783	 -0.720798	 0.219807	 0
1461599096.117	 22	 -3.635695	 2.715984	 0.006083	 1.078608	 -1.366840	 -1.658989	 -0.072153	 0.668533	 -0.709728	 0.210102	 0
1461599096.127	 22	 -3.479119	 2.947858	 -0.076252	 1.270270	 -1.381064	 -1.493413	 -0.065657	 0.683941	 -0.698856	 0.198784	 0
1461599096.137	 22	 -3.133197	 2.754334	 -0.075736	 1.465681	 -1.388406	 -1.323217	 -0.059303	 0.697831	 -0.688664	 0.187768	 0
1461599096.147	 22	 -2.681977	 2.639834	 0.010926	 1.644177	 -1.388999	 -1.168676	 -0.052846	 0.709813	 -0.679579	 0.177608	 0
1461599096.157	 22	 -2.231602	 2.788136	 0.109632	 1.795346	 -1.384670	 -1.042751	 -0.045315	 0.720104	 -0.671809	 0.167541	 0
1461599096.167	 22	 -1.836864	 3.114378	 0.229662	 1.919081	 -1.377326	 -0.947547	 -0.036061	 0.729046	 -0.665274	 0.156851	 0
1461599096.177	 22	 -1.539798	 3.544113	 0.354702	 2.020911	 -1.368109	 -0.878703	 -0.024720	 0.737007	 -0.659665	 0.145091	 0
1461599096.187	 22	 -1.371123	 3.918789	 0.462231	 2.108079	 -1.357600	 -0.828813	 -0.011475	 0.744321	 -0.654507	 0.132197	 0
1461599096.197	 22	 -1.302884	 4.072266	 0.533405	 2.185476	 -1.346101	 -0.791006	 0.002832	 0.751158	 -0.649354	 0.118715	 0
1461599096.207	 22	 -1.298990	 3.948198	 0.586571	 2.254504	 -1.333696	 -0.761128	 0.017189	 0.757555	 -0.643948	 0.105573	 0
1461599096.217	 22	 -1.398550	 3.644399	 0.600597	 2.317316	 -1.320216	 -0.734809	 0.030741	 0.763708	 -0.638016	 0.093488	 0
1461599096.227	 22	 -1.733523	 3.263154	 0.546678	 2.379894	 -1.304735	 -0.704892	 0.042871	 0.770260	 -0.630893	 0.082679	 0
1461599096.237	 22	 -2.254878	 2.593489	 0.392582	 2.446108	 -1.285989	 -0.665012	 0.052458	 0.777885	 -0.621851	 0.073786	 0
1461599096.247	 22	 -2.748796	 1.657621	 0.208060	 2.511606	 -1.263683	 -0.616405	 0.058377	 0.786594	 -0.610947	 0.067868	 0
1461599096.267	 23	 -3.154959	 -0.084058	 -0.031618	 2.616449	 -1.211557	 -0.516141	 0.059709	 0.805313	 -0.586134	 0.065972	 0
1461599096.277	 23	 -3.004140	 -0.469469	 -0.023729	 2.651247	 -1.185042	 -0.474621	 0.057432	 0.814041	 -0.573905	 0.068345	 0
1461599096.287	 23	 -2.749754	 -0.804475	 -0.063165	 2.675834	 -1.160177	 -0.439993	 0.054159	 0.821824	 -0.562573	 0.071995	 0
1461599096.297	 23	 -2.309259	 -0.826244	 -0.100242	 2.693180	 -1.138790	 -0.411745	 0.050527	 0.828310	 -0.552808	 0.075851	 0
1461599096.307	 23	 -1.809820	 -0.642280	 -0.050656	 2.705193	 -1.121639	 -0.390816	 0.047579	 0.833362	 -0.544980	 0.079000	 0
1461599096.317	 23	 -1.328798	 -0.378790	 0.104275	 2.711948	 -1.108235	 -0.378290	 0.046040	 0.837092	 -0.539013	 0.081382	 0
1461599096.327	 23	 -0.884977	 -0.104374	 0.284144	 2.714115	 -1.098216	 -0.373950	 0.046173	 0.839631	 -0.534793	 0.082967	 0
1461599096.337	 23	 -0.507439	 0.139439	 0.470699	 2.712233	 -1.091016	 -0.376967	 0.047923	 0.841158	 -0.532087	 0.083905	 0
1461599096.347	 23	 -0.180179	 0.395835	 0.611982	 2.707535	 -1.086232	 -0.385982	 0.051127	 0.841843	 -0.530669	 0.084126	 0
1461599096.357	 23	 0.026183	 0.638317	 0.692374	 2.701868	 -1.083255	 -0.398990	 0.055517	 0.841940	 -0.530177	 0.083467	 0
1461599096.367	 23	 0.056786	 0.796660	 0.686121	 2.697246	 -1.080791	 -0.412839	 0.060473	 0.841907	 -0.529903	 0.082087	 0
1461599096.377	 23	 0.067594	 0.914978	 0.579485	 2.695286	 -1.078717	 -0.425112	 0.065421	 0.841909	 -0.529638	 0.079956	 0
1461599096.387	 23	 0.140263	 1.068905	 0.421486	 2.696843	 -1.077792	 -0.434984	 0.070124	 0.841843	 -0.529605	 0.076821	 0
1461599096.397	 23	 0.249238	 1.232258	 0.257930	 2.702020	 -1.078504	 -0.442685	 0.074632	 0.841598	 -0.529988	 0.072498	 0
1461599096.407	 23	 0.374665	 1.265785	 0.091957	 2.709746	 -1.081045	 -0.448297	 0.078672	 0.841083	 -0.530894	 0.067386	 0
1461599096.417	 23	 0.522954	 1.149442	 -0.051097	 2.718123	 -1.085523	 -0.452243	 0.081908	 0.840188	 -0.532459	 0.062159	 0
1461599096.427	 23	 0.707423	 0.975862	 -0.152369	 2.725453	 -1.092050	 -0.455460	 0.084276	 0.838793	 -0.534831	 0.057267	 0
1461599096.437	 23	 0.940275	 0.837593	 -0.204708	 2.730724	 -1.100892	 -0.459291	 0.086029	 0.836754	 -0.538202	 0.052733	 0
1461599096.447	 23	 1.174842	 0.790127	 -0.201863	 2.733529	 -1.111975	 -0.465038	 0.087601	 0.834020	 -0.542583	 0.048375	 0
1461599096.457	 23	 1.339597	 0.863152	 -0.185566	 2.734837	 -1.124685	 -0.472885	 0.089397	 0.830745	 -0.547679	 0.043803	 0
1461599096.467	 23	 1.411858	 1.056239	 -0.223832	 2.737215	 -1.138378	 -0.481345	 0.091577	 0.827193	 -0.553072	 0.038433	 0
1461599096.477	 23	 1.263168	 1.283632	 -0.314208	 2.743942	 -1.151668	 -0.487410	 0.094023	 0.823872	 -0.558008	 0.031963	 0
1461599096.487	 23	 0.884061	 1.520301	 -0.391834	 2.758083	 -1.162114	 -0.487962	 0.096708	 0.821531	 -0.561371	 0.024418	 0
1461599096.497	 23	 1.105612	 1.083555	 -0.247555	 2.768790	 -1.172571	 -0.490235	 0.099174	 0.818986	 -0.564897	 0.017824	 0
1461599096.507	 23	 0.373449	 0.069525	 0.133058	 2.764891	 -1.178672	 -0.497423	 0.100145	 0.817098	 -0.567495	 0.016468	 0
1461599096.517	 23	 -0.692398	 0.817948	 0.385902	 2.767090	 -1.172776	 -0.500722	 0.102957	 0.818392	 -0.565149	 0.015526	 0
1461599096.527	 23	 -0.766185	 1.966257	 0.595462	 2.779147	 -1.163562	 -0.506416	 0.109989	 0.820410	 -0.561001	 0.010376	 0
1461599096.537	 23	 -0.624390	 1.991782	 0.799091	 2.788904	 -1.154728	 -0.518182	 0.118786	 0.821909	 -0.557078	 0.004418	 0
1461599096.547	 23	 -0.433857	 1.125107	 0.899141	 2.787927	 -1.147134	 -0.534409	 0.126256	 0.822733	 -0.554228	 0.001478	 0
1461599096.557	 23	 -0.198557	 -0.093652	 0.866567	 2.773903	 -1.141595	 -0.552111	 0.130455	 0.822889	 -0.553014	 0.003221	 0
1461599096.567	 23	 0.054123	 -0.983078	 0.787882	 2.749645	 -1.138510	 -0.570032	 0.131577	 0.822360	 -0.553475	 0.008746	 0
1461599096.577	 23	 0.378231	 -1.158412	 0.648077	 2.721903	 -1.138459	 -0.587807	 0.131198	 0.821038	 -0.555385	 0.015224	 0
1461599096.587	 23	 0.860803	 -0.784211	 0.523729	 2.695396	 -1.142754	 -0.607091	 0.131014	 0.818572	 -0.558906	 0.019960	 0
1461599096.597	 23	 1.421768	 -0.360844	 0.464167	 2.668715	 -1.152157	 -0.631391	 0.131829	 0.814601	 -0.564402	 0.022305	 0
1461599096.607	 23	 1.829724	 -0.252885	 0.409397	 2.638928	 -1.165531	 -0.661067	 0.133009	 0.809355	 -0.571582	 0.023408	 0
1461599096.617	 23	 2.162062	 -0.283451	 0.288986	 2.604647	 -1.181943	 -0.695191	 0.133778	 0.803113	 -0.580114	 0.024104	 0
1461599096.627	 23	 2.323584	 -0.212413	 0.030326	 2.569834	 -1.201080	 -0.730216	 0.133770	 0.796269	 -0.589489	 0.023748	 0
1461599096.637	 23	 1.295569	 -0.585235	 0.124266	 2.539732	 -1.214961	 -0.757890	 0.132916	 0.791146	 -0.596510	 0.024439	 0
1461599096.647	 23	 -0.729836	 -1.759509	 0.472017	 2.520395	 -1.210136	 -0.762906	 0.130175	 0.791541	 -0.596250	 0.031680	 0
1461599096.657	 23	 -1.175047	 -2.250505	 0.199556	 2.510010	 -1.198989	 -0.750582	 0.124627	 0.794404	 -0.592983	 0.041980	 0
1461599096.667	 23	 -0.698824	 -2.061436	 -0.229136	 2.503814	 -1.192988	 -0.734268	 0.117607	 0.796463	 -0.590977	 0.050619	 0
1461599096.677	 23	 -0.169850	 -1.657796	 -0.528400	 2.500073	 -1.193394	 -0.719411	 0.110495	 0.797128	 -0.590928	 0.056409	 0
1461599096.687	 23	 0.218319	 -1.398097	 -0.640202	 2.496315	 -1.198184	 -0.707870	 0.103751	 0.796656	 -0.592404	 0.060265	 0
1461599096.697	 23	 0.444383	 -1.306455	 -0.525150	 2.488542	 -1.204778	 -0.702042	 0.097701	 0.795351	 -0.594829	 0.063641	 0
1461599096.707	 23	 0.500265	 -1.361798	 -0.360958	 2.475387	 -1.211111	 -0.701825	 0.092316	 0.793622	 -0.597562	 0.067537	 0
1461599096.717	 23	 0.442567	 -1.592522	 -0.373260	 2.459844	 -1.216946	 -0.702131	 0.086499	 0.791863	 -0.600202	 0.072312	 0
1461599096.727	 23	 0.334816	 -1.889171	 -0.549867	 2.445935	 -1.222915	 -0.697586	 0.079191	 0.790300	 -0.602573	 0.077848	 0
1461599096.737	 23	 0.273772	 -1.984116	 -0.760175	 2.436108	 -1.229652	 -0.686989	 0.070534	 0.788909	 -0.604722	 0.083423	 0
1461599096.747	 23	 0.270922	 -1.772571	 -0.923374	 2.431954	 -1.237464	 -0.671864	 0.061568	 0.787600	 -0.606769	 0.087907	 0
1461599096.757	 23	 0.320616	 -1.394305	 -0.954432	 2.432463	 -1.246008	 -0.655574	 0.053413	 0.786281	 -0.608826	 0.090780	 0
1461599096.767	 23	 0.444179	 -1.085403	 -0.841795	 2.432991	 -1.254813	 -0.642869	 0.046639	 0.784728	 -0.611118	 0.092532	 0
1461599096.777	 23	 0.661291	 -0.918734	 -0.651363	 2.427755	 -1.263945	 -0.638354	 0.041253	 0.782595	 -0.614011	 0.093989	 0
1461599096.787	 23	 0.991399	 -0.782148	 -0.456866	 2.412568	 -1.274041	 -0.645670	 0.037188	 0.779528	 -0.617932	 0.095464	 0
1461599096.807	 24	 1.793327	 -0.461284	 -0.180567	 2.344154	 -1.299419	 -0.705188	 0.032988	 0.769764	 -0.629960	 0.097597	 0
1461599096.817	 24	 2.334028	 -0.420445	 -0.050608	 2.282368	 -1.314820	 -0.764838	 0.032411	 0.762640	 -0.638445	 0.098582	 0
1461599096.827	 24	 2.916628	 -0.754279	 0.057381	 2.188601	 -1.331724	 -0.854893	 0.031837	 0.753372	 -0.649061	 0.100681	 0
1461599096.837	 24	 3.257477	 -1.419381	 0.147340	 2.057865	 -1.347449	 -0.976506	 0.029906	 0.742253	 -0.661132	 0.105215	 0
1461599096.847	 24	 3.262444	 -2.232573	 0.214335	 1.895907	 -1.358489	 -1.121507	 0.025746	 0.730062	 -0.673482	 0.113003	 0
1461599096.857	 24	 3.000901	 -2.980143	 0.275734	 1.723473	 -1.363118	 -1.269100	 0.019056	 0.717855	 -0.684838	 0.123764	 0
1461599096.867	 24	 2.567595	 -3.478428	 0.322830	 1.561931	 -1.361942	 -1.399702	 0.010272	 0.706382	 -0.694438	 0.136658	 0
1461599096.877	 24	 2.064538	 -3.575782	 0.334832	 1.427186	 -1.356811	 -1.501008	 0.000585	 0.696278	 -0.701852	 0.150334	 0
1461599096.887	 24	 1.547038	 -3.329644	 0.333104	 1.325579	 -1.350312	 -1.570359	 -0.008895	 0.688022	 -0.707017	 0.163321	 0
1461599096.897	 24	 1.082700	 -2.890160	 0.320988	 1.253754	 -1.344083	 -1.613417	 -0.017404	 0.681659	 -0.710272	 0.174791	 0
1461599096.907	 24	 0.747610	 -2.393907	 0.269907	 1.199609	 -1.338619	 -1.643184	 -0.024644	 0.676507	 -0.712540	 0.184437	 0
1461599096.917	 24	 0.567593	 -2.001728	 0.156824	 1.158360	 -1.334565	 -1.664110	 -0.030890	 0.672413	 -0.714107	 0.192242	 0
1461599096.927	 24	 0.521179	 -1.765455	 0.012351	 1.121359	 -1.331926	 -1.683502	 -0.036700	 0.668772	 -0.715513	 0.198593	 0
1461599096.937	 24	 0.588429	 -1.648571	 -0.122498	 1.082342	 -1.330183	 -1.706458	 -0.042423	 0.665048	 -0.717157	 0.203954	 0
1461599096.947	 24	 0.756805	 -1.609421	 -0.229110	 1.037011	 -1.328504	 -1.736508	 -0.048171	 0.660789	 -0.719353	 0.208732	 0
1461599096.967	 25	 1.309601	 -1.551982	 -0.298401	 0.920336	 -1.321096	 -1.824139	 -0.059181	 0.649367	 -0.726269	 0.217610	 0
1461599096.977	 25	 1.544117	 -1.398304	 -0.278763	 0.854295	 -1.313864	 -1.877421	 -0.063723	 0.642257	 -0.730952	 0.221708	 0
1461599096.987	 25	 1.642573	 -1.114604	 -0.278046	 0.790774	 -1.304826	 -1.930836	 -0.067163	 0.634870	 -0.736065	 0.225029	 0
1461599096.997	 25	 1.614278	 -0.762603	 -0.296905	 0.734180	 -1.295061	 -1.980709	 -0.069393	 0.627795	 -0.741239	 0.227207	 0
1461599097.007	 25	 1.521980	 -0.385060	 -0.339482	 0.685801	 -1.285454	 -2.026070	 -0.070433	 0.621383	 -0.746274	 0.228030	 0
1461599097.017	 25	 1.411143	 -0.070396	 -0.406995	 0.644375	 -1.276523	 -2.067827	 -0.070521	 0.615699	 -0.751116	 0.227521	 0
1461599097.027	 25	 1.301330	 0.040838	 -0.512646	 0.606606	 -1.268598	 -2.107646	 -0.070391	 0.610561	 -0.755745	 0.226073	 0
1461599097.037	 25	 1.218050	 -0.094852	 -0.630417	 0.568525	 -1.261623	 -2.147115	 -0.070993	 0.605604	 -0.760174	 0.224364	 0
1461599097.047	 25	 1.061490	 -0.431972	 -0.687611	 0.529213	 -1.255709	 -2.184824	 -0.073107	 0.600751	 -0.764154	 0.223207	 0
1461599097.057	 25	 0.759523	 -0.688138	 -0.640472	 0.492765	 -1.251576	 -2.216477	 -0.076579	 0.596566	 -0.767175	 0.222908	 0
1461599097.067	 25	 0.403682	 -0.679693	 -0.499812	 0.464531	 -1.249712	 -2.238851	 -0.080324	 0.593693	 -0.768959	 0.223111	 0
1461599097.077	 25	 0.162084	 -0.469188	 -0.316701	 0.446640	 -1.249429	 -2.252147	 -0.083199	 0.592147	 -0.769773	 0.223359	 0
1461599097.087	 25	 0.142435	 -0.266755	 -0.130269	 0.437044	 -1.248977	 -2.258959	 -0.084776	 0.591212	 -0.770230	 0.223667	 0
1461599097.097	 25	 0.292874	 -0.173575	 0.019560	 0.431637	 -1.246780	 -2.262667	 -0.085268	 0.590035	 -0.770901	 0.224276	 0
1461599097.107	 25	 0.450285	 -0.153024	 0.130286	 0.427750	 -1.242583	 -2.265121	 -0.085100	 0.588306	 -0.771939	 0.225311	 0
1461599097.117	 25	 0.468820	 -0.150256	 0.226069	 0.425868	 -1.237406	 -2.265520	 -0.084548	 0.586380	 -0.773046	 0.226738	 0
1461599097.127	 25	 0.228055	 -0.124544	 0.300876	 0.428282	 -1.233420	 -2.261533	 -0.083886	 0.585154	 -0.773568	 0.228363	 0
1461599097.137	 25	 -0.337970	 -0.005728	 0.322897	 0.438292	 -1.233690	 -2.250481	 -0.083314	 0.585928	 -0.772663	 0.229651	 0
1461599097.147	 25	 -1.092955	 0.150418	 0.282964	 0.458375	 -1.240522	 -2.230428	 -0.083041	 0.589653	 -0.769724	 0.230083	 0
1461599097.157	 25	 -1.817472	 0.225464	 0.218564	 0.489005	 -1.254074	 -2.200343	 -0.083431	 0.596292	 -0.764675	 0.229669	 0
1461599097.167	 25	 -2.438921	 0.403617	 0.187266	 0.533040	 -1.273107	 -2.157735	 -0.084171	 0.605479	 -0.757717	 0.228417	 0
1461599097.177	 25	 -2.948152	 0.821997	 0.180672	 0.596753	 -1.296038	 -2.098702	 -0.084165	 0.617013	 -0.749166	 0.225745	 0
1461599097.187	 25	 -3.304278	 1.333631	 0.188533	 0.686219	 -1.320779	 -2.018536	 -0.082710	 0.630437	 -0.739403	 0.221340	 0
1461599097.197	 25	 -3.514139	 1.868150	 0.184677	 0.806359	 -1.345016	 -1.912757	 -0.079541	 0.645136	 -0.728840	 0.215091	 0
1461599097.207	 25	 -3.600343	 2.371483	 0.183717	 0.961245	 -1.366439	 -1.777310	 -0.074590	 0.660564	 -0.717804	 0.206999	 0
1461599097.217	 25	 -3.463190	 2.616563	 0.300971	 1.146829	 -1.381570	 -1.614398	 -0.068088	 0.675777	 -0.706727	 0.198057	 0
1461599097.227	 25	 -3.129528	 2.551487	 0.555375	 1.342841	 -1.387304	 -1.441211	 -0.060503	 0.689726	 -0.696096	 0.189914	 0
1461599097.237	 25	 -2.757567	 2.433360	 0.843056	 1.523643	 -1.383547	 -1.282310	 -0.051968	 0.702077	 -0.686162	 0.183218	 0
1461599097.247	 25	 -2.461499	 2.372173	 1.031746	 1.675753	 -1.372862	 -1.151614	 -0.042617	 0.713081	 -0.676879	 0.177578	 0
1461599097.257	 25	 -2.224958	 2.470812	 1.089221	 1.799569	 -1.358395	 -1.049993	 -0.032551	 0.723080	 -0.668202	 0.172053	 0
1461599097.267	 25	 -2.057226	 2.768910	 1.050036	 1.903047	 -1.342358	 -0.971461	 -0.021531	 0.732440	 -0.660049	 0.165539	 0
1461599097.277	 25	 -1.934109	 3.175073	 0.934444	 1.994659	 -1.326121	 -0.908791	 -0.009488	 0.741434	 -0.652271	 0.157251	 0
1461599097.287	 25	 -1.810137	 3.570302	 0.778243	 2.078956	 -1.310536	 -0.857639	 0.003434	 0.750062	 -0.644835	 0.146912	 0
1461599097.297	 25	 -1.699625	 3.836789	 0.610305	 2.158058	 -1.295988	 -0.814793	 0.016791	 0.758220	 -0.637682	 0.134845	 0
1461599097.307	 25	 -1.676401	 3.918510	 0.448867	 2.234186	 -1.282223	 -0.776280	 0.029989	 0.765979	 -0.630533	 0.121680	 0
1461599097.317	 25	 -1.782186	 3.574098	 0.286719	 2.308159	 -1.268440	 -0.737601	 0.041828	 0.773532	 -0.622947	 0.108793	 0
1461599097.327	 25	 -1.957171	 2.589571	 0.121348	 2.376124	 -1.253934	 -0.696420	 0.050372	 0.780896	 -0.614774	 0.098576	 0
1461599097.337	 25	 -2.169112	 1.226593	 -0.032301	 2.433926	 -1.238227	 -0.652019	 0.054179	 0.788102	 -0.606065	 0.092980	 0
1461599097.347	 25	 -2.342149	 0.120457	 -0.099705	 2.480483	 -1.220929	 -0.606460	 0.053856	 0.795221	 -0.596889	 0.091904	 0
1461599097.357	 25	 -2.403072	 -0.404332	 -0.036915	 2.516944	 -1.202131	 -0.564230	 0.051589	 0.802184	 -0.587437	 0.093581	 0
1461599097.367	 25	 -2.409119	 -0.641813	 0.066439	 2.544828	 -1.182062	 -0.527733	 0.048865	 0.808929	 -0.577829	 0.096749	 0
1461599097.377	 25	 -2.161801	 -0.514541	 0.116626	 2.566531	 -1.162827	 -0.498159	 0.046609	 0.815042	 -0.568827	 0.099847	 0
1461599097.387	 25	 -1.835664	 -0.443663	 0.195444	 2.581962	 -1.145738	 -0.476287	 0.045051	 0.820185	 -0.561009	 0.102641	 0
1461599097.397	 25	 -1.496140	 -0.290574	 0.322870	 2.591308	 -1.130769	 -0.462257	 0.044471	 0.824356	 -0.554430	 0.105196	 0
1461599097.407	 25	 -1.170757	 0.017964	 0.466786	 2.596590	 -1.117863	 -0.455683	 0.045404	 0.827673	 -0.549056	 0.106929	 0
1461599097.417	 25	 -0.897458	 0.379756	 0.599927	 2.599685	 -1.106686	 -0.455429	 0.048027	 0.830325	 -0.544695	 0.107520	 0
1461599097.427	 25	 -0.648650	 0.789171	 0.690029	 2.602408	 -1.097146	 -0.460049	 0.052290	 0.832453	 -0.541211	 0.106671	 0
1461599097.437	 25	 -0.437897	 1.102511	 0.716688	 2.605749	 -1.089313	 -0.467977	 0.057811	 0.834117	 -0.538522	 0.104407	 0
1461599097.447	 25	 -0.324513	 1.193347	 0.674981	 2.609656	 -1.082828	 -0.476933	 0.063689	 0.835446	 -0.536365	 0.101426	 0
1461599097.457	 25	 -0.280219	 1.173278	 0.565701	 2.614536	 -1.077317	 -0.484770	 0.069198	 0.836610	 -0.534466	 0.098192	 0
1461599097.467	 25	 -0.232710	 1.200680	 0.403546	 2.621556	 -1.072951	 -0.490300	 0.074117	 0.837680	 -0.532793	 0.094495	 0
1461599097.477	 25	 -0.146602	 1.276802	 0.228720	 2.631326	 -1.070129	 -0.493499	 0.078527	 0.838609	 -0.531475	 0.090013	 0
1461599097.487	 25	 -0.014800	 1.295495	 0.073211	 2.642977	 -1.069145	 -0.494988	 0.082407	 0.839269	 -0.530689	 0.084892	 0
1461599097.497	 25	 0.170168	 1.241978	 -0.045066	 2.654798	 -1.070301	 -0.495841	 0.085714	 0.839471	 -0.530677	 0.079517	 0
1461599097.507	 25	 0.394786	 1.193915	 -0.128467	 2.665751	 -1.073781	 -0.497061	 0.088577	 0.839090	 -0.531603	 0.074034	 0
1461599097.517	 25	 0.644336	 1.208697	 -0.189119	 2.675771	 -1.079752	 -0.499319	 0.091246	 0.838049	 -0.533560	 0.068271	 0
1461599097.527	 25	 0.891985	 1.246055	 -0.217572	 2.684761	 -1.088141	 -0.503149	 0.093935	 0.836328	 -0.536535	 0.062136	 0
1461599097.537	 25	 1.129014	 1.261393	 -0.206703	 2.691957	 -1.098696	 -0.509199	 0.096749	 0.833917	 -0.540469	 0.055806	 0
1461599097.547	 25	 1.331061	 1.297293	 -0.161235	 2.696884	 -1.111018	 -0.518089	 0.099861	 0.830856	 -0.545225	 0.049350	 0
1461599097.557	 25	 1.430511	 1.327950	 -0.146895	 2.700359	 -1.124447	 -0.528944	 0.103206	 0.827354	 -0.550461	 0.042743	 0
1461599097.567	 25	 1.208446	 1.116649	 -0.187427	 2.704023	 -1.136892	 -0.538132	 0.106050	 0.824110	 -0.555207	 0.036638	 0
1461599097.577	 25	 0.820956	 0.185045	 -0.180998	 2.704576	 -1.145730	 -0.542978	 0.106799	 0.821831	 -0.558623	 0.033593	 0
1461599097.587	 25	 1.313334	 -1.939963	 0.029408	 2.680151	 -1.156387	 -0.554485	 0.102937	 0.818335	 -0.564131	 0.038576	 0
1461599097.597	 25	 0.560558	 -2.163306	 0.460189	 2.640515	 -1.162544	 -0.572231	 0.097913	 0.815177	 -0.568799	 0.048655	 0
1461599097.607	 25	 -0.223292	 0.624731	 0.773253	 2.626249	 -1.157850	 -0.586133	 0.100353	 0.815183	 -0.568126	 0.051371	 0
1461599097.617	 25	 -0.023273	 2.880935	 0.893754	 2.634367	 -1.152910	 -0.603949	 0.110801	 0.815531	 -0.566307	 0.043921	 0
1461599097.627	 25	 0.050566	 3.097090	 0.956936	 2.646936	 -1.148728	 -0.624742	 0.123581	 0.815475	 -0.564439	 0.033701	 0
1461599097.637	 25	 0.071392	 1.914860	 0.888203	 2.651033	 -1.144988	 -0.645173	 0.133735	 0.815038	 -0.563116	 0.026982	 0
1461599097.647	 25	 0.068097	 0.276332	 0.661964	 2.643116	 -1.142199	 -0.661341	 0.138599	 0.814433	 -0.562852	 0.026196	 0
1461599097.657	 25	 0.000052	 -0.851342	 0.453831	 2.627115	 -1.139935	 -0.672091	 0.138890	 0.813943	 -0.563292	 0.030130	 0
1461599097.667	 25	 0.057378	 -1.032205	 0.323757	 2.609836	 -1.138414	 -0.679639	 0.137379	 0.813458	 -0.564061	 0.035338	 0
1461599097.677	 25	 0.431187	 -0.720795	 0.296756	 2.592695	 -1.139618	 -0.689692	 0.136390	 0.812201	 -0.565852	 0.039218	 0
1461599097.687	 25	 0.967705	 -0.589101	 0.340204	 2.570943	 -1.144920	 -0.706960	 0.136166	 0.809499	 -0.569564	 0.042030	 0
1461599097.697	 25	 1.485518	 -0.584916	 0.393286	 2.541237	 -1.154116	 -0.733054	 0.136312	 0.805231	 -0.575357	 0.044576	 0
1461599097.707	 25	 2.040584	 -0.275384	 0.327387	 2.505333	 -1.167540	 -0.768066	 0.137084	 0.799389	 -0.583168	 0.045837	 0
1461599097.717	 25	 1.804888	 0.031206	 0.269412	 2.471546	 -1.181778	 -0.804579	 0.138518	 0.793380	 -0.591028	 0.045253	 0
1461599097.727	 25	 -0.096929	 -0.526378	 0.638879	 2.451748	 -1.181211	 -0.822387	 0.139847	 0.791785	 -0.592637	 0.047965	 0
1461599097.737	 25	 -0.939075	 -1.304881	 0.453524	 2.443179	 -1.171454	 -0.819276	 0.138362	 0.793564	 -0.590021	 0.054649	 0
1461599097.747	 25	 -0.674761	 -1.479927	 0.036078	 2.437736	 -1.164617	 -0.809217	 0.134364	 0.795330	 -0.587897	 0.061428	 0
1461599097.757	 25	 -0.159963	 -1.351847	 -0.280546	 2.431881	 -1.163814	 -0.800480	 0.129355	 0.795864	 -0.587744	 0.066519	 0
1461599097.767	 25	 0.192017	 -1.281535	 -0.414081	 2.424074	 -1.167275	 -0.794932	 0.124040	 0.795322	 -0.589167	 0.070424	 0
1461599097.777	 25	 0.353390	 -1.256281	 -0.386475	 2.413489	 -1.172356	 -0.792676	 0.118822	 0.794156	 -0.591364	 0.074073	 0
1461599097.787	 25	 0.369072	 -1.180110	 -0.289984	 2.401076	 -1.177233	 -0.793121	 0.114161	 0.792777	 -0.593664	 0.077687	 0
1461599097.797	 25	 0.282097	 -1.121947	 -0.224740	 2.388888	 -1.181114	 -0.794036	 0.109970	 0.791542	 -0.595616	 0.081299	 0
1461599097.807	 25	 0.147644	 -1.119425	 -0.224612	 2.378588	 -1.183951	 -0.793124	 0.105852	 0.790654	 -0.597030	 0.084952	 0
1461599097.817	 25	 0.011787	 -1.140709	 -0.281178	 2.371119	 -1.186098	 -0.788883	 0.101423	 0.790165	 -0.597909	 0.088646	 0
1461599097.827	 25	 -0.046538	 -1.003838	 -0.350803	 2.367226	 -1.188147	 -0.781749	 0.096941	 0.789975	 -0.598424	 0.091817	 0
1461599097.837	 25	 0.012305	 -0.699163	 -0.407097	 2.366576	 -1.190827	 -0.774014	 0.093041	 0.789828	 -0.598940	 0.093737	 0
1461599097.847	 25	 0.184507	 -0.325843	 -0.485054	 2.368337	 -1.195026	 -0.767593	 0.090015	 0.789439	 -0.599881	 0.093949	 0
1461599097.857	 25	 0.458997	 0.036340	 -0.590650	 2.371283	 -1.201712	 -0.763887	 0.087822	 0.788509	 -0.601685	 0.092286	 0
1461599097.867	 25	 0.830235	 0.316385	 -0.690393	 2.373008	 -1.211605	 -0.764719	 0.086281	 0.786707	 -0.604758	 0.088971	 0
1461599097.877	 25	 1.304003	 0.596277	 -0.769714	 2.370589	 -1.225330	 -0.772898	 0.085434	 0.783669	 -0.609498	 0.084115	 0
1461599097.887	 25	 1.741421	 0.759106	 -0.726179	 2.360378	 -1.242248	 -0.791470	 0.085422	 0.779269	 -0.615887	 0.078268	 0
1461599097.897	 25	 2.067097	 0.676247	 -0.580579	 2.337709	 -1.260667	 -0.822860	 0.085980	 0.773623	 -0.623559	 0.072723	 0
1461599097.907	 25	 2.255198	 0.358973	 -0.401858	 2.299706	 -1.279016	 -0.867348	 0.086446	 0.767024	 -0.632053	 0.068634	 0
1461599097.917	 25	 2.380388	 -0.133952	 -0.270052	 2.244606	 -1.296443	 -0.924782	 0.086127	 0.759675	 -0.641118	 0.066659	 0
1461599097.927	 25	 2.729470	 -1.237958	 -0.272707	 2.163944	 -1.314063	 -0.999082	 0.083111	 0.751040	 -0.651458	 0.068080	 0
1461599097.937	 25	 3.197794	 -2.818058	 -0.318132	 2.040114	 -1.332476	 -1.101619	 0.075023	 0.740106	 -0.664079	 0.074924	 0
1461599097.947	 25	 3.323368	 -3.847569	 -0.258462	 1.876675	 -1.347315	 -1.232135	 0.063272	 0.727575	 -0.677630	 0.086307	 0
1461599097.957	 25	 3.140299	 -4.338261	 -0.089843	 1.695161	 -1.355072	 -1.374642	 0.049918	 0.714692	 -0.690397	 0.100375	 0
1461599097.967	 25	 2.769214	 -4.453694	 0.122273	 1.521378	 -1.355073	 -1.507080	 0.036374	 0.702417	 -0.701329	 0.115865	 0
1461599097.977	 25	 2.324972	 -4.220238	 0.308427	 1.370855	 -1.349409	 -1.617235	 0.023634	 0.691112	 -0.710309	 0.131407	 0
1461599097.987	 25	 1.842237	 -3.724408	 0.432346	 1.254115	 -1.340462	 -1.697385	 0.012606	 0.681390	 -0.717114	 0.145930	 0
1461599097.997	 25	 1.353666	 -3.040886	 0.475999	 1.171143	 -1.330904	 -1.749591	 0.003731	 0.673618	 -0.721882	 0.158464	 0
1461599098.007	 25	 0.922751	 -2.294210	 0.451529	 1.116578	 -1.322465	 -1.780280	 -0.002852	 0.667886	 -0.724947	 0.168442	 0
1461599098.017	 25	 0.608429	 -1.676913	 0.380078	 1.081957	 -1.315820	 -1.797265	 -0.007531	 0.663868	 -0.726815	 0.175960	 0
1461599098.027	 25	 0.419869	 -1.302644	 0.287152	 1.058524	 -1.310881	 -1.807227	 -0.011107	 0.660978	 -0.727994	 0.181685	 0
1461599098.037	 25	 0.361550	 -1.141510	 0.190044	 1.038894	 -1.307190	 -1.815422	 -0.014329	 0.658574	 -0.728936	 0.186353	 0
1461599098.047	 25	 0.429718	 -1.102930	 0.110943	 1.017493	 -1.303996	 -1.826124	 -0.017563	 0.656063	 -0.730058	 0.190494	 0
1461599098.057	 25	 0.589558	 -1.113315	 0.063626	 0.991107	 -1.300444	 -1.841988	 -0.020849	 0.653008	 -0.731667	 0.194446	 0
1461599098.067	 25	 0.786722	 -1.153385	 0.044485	 0.958897	 -1.295917	 -1.863588	 -0.024149	 0.649198	 -0.733885	 0.198420	 0
1461599098.077	 25	 0.999715	 -1.230732	 0.024858	 0.920688	 -1.290090	 -1.890753	 -0.027544	 0.644516	 -0.736755	 0.202564	 0
1461599098.087	 25	 1.228410	 -1.362458	 -0.007134	 0.876131	 -1.282790	 -1.923361	 -0.031238	 0.638837	 -0.740314	 0.206994	 0
1461599098.097	 25	 1.444062	 -1.544139	 -0.039478	 0.825630	 -1.273852	 -1.960457	 -0.035445	 0.632091	 -0.744526	 0.211863	 0
1461599098.107	 25	 1.603143	 -1.754146	 -0.040686	 0.771670	 -1.263228	 -1.999177	 -0.040245	 0.624408	 -0.749173	 0.217337	 0
1461599098.117	 25	 1.681304	 -1.959361	 -0.000646	 0.717456	 -1.251058	 -2.036094	 -0.045625	 0.616037	 -0.753946	 0.223568	 0
1461599098.127	 25	 1.646685	 -2.108795	 0.059014	 0.666324	 -1.237974	 -2.068149	 -0.051456	 0.607403	 -0.758478	 0.230487	 0
1461599098.137	 25	 1.441937	 -2.124799	 0.116067	 0.621702	 -1.225323	 -2.092851	 -0.057494	 0.599212	 -0.762318	 0.237720	 0
1461599098.147	 25	 1.036613	 -1.897760	 0.166471	 0.587631	 -1.215006	 -2.108144	 -0.063176	 0.592502	 -0.764956	 0.244527	 0
1461599098.157	 25	 0.536324	 -1.438600	 0.213467	 0.566887	 -1.208355	 -2.113598	 -0.067746	 0.588101	 -0.766147	 0.250133	 0
1461599098.167	 25	 0.098004	 -0.947855	 0.241034	 0.558707	 -1.205418	 -2.110977	 -0.070875	 0.586081	 -0.766065	 0.254225	 0
1461599098.177	 25	 -0.146275	 -0.696156	 0.236977	 0.558015	 -1.204991	 -2.103815	 -0.073126	 0.585604	 -0.765201	 0.257269	 0
1461599098.187	 25	 -0.180839	 -0.755859	 0.203683	 0.558044	 -1.205408	 -2.096028	 -0.075505	 0.585445	 -0.764120	 0.260140	 0
1461599098.197	 25	 -0.153211	 -0.977427	 0.168342	 0.554952	 -1.205814	 -2.089503	 -0.078702	 0.584913	 -0.763074	 0.263441	 0
1461599098.207	 25	 -0.245850	 -1.131623	 0.134676	 0.550006	 -1.206852	 -2.082977	 -0.082772	 0.584308	 -0.761823	 0.267131	 0
1461599098.217	 25	 -0.563606	 -1.044807	 0.097751	 0.548031	 -1.210299	 -2.073506	 -0.087212	 0.584682	 -0.759848	 0.270502	 0
1461599098.227	 25	 -1.067794	 -0.675480	 0.075736	 0.555129	 -1.217840	 -2.057551	 -0.091225	 0.587193	 -0.756653	 0.272687	 0
1461599098.247	 26	 -1.992708	 0.454208	 0.160379	 0.613405	 -1.244593	 -1.996277	 -0.094934	 0.599978	 -0.746406	 0.271832	 0
1461599098.257	 26	 -2.358656	 1.098170	 0.224977	 0.668994	 -1.261517	 -1.947526	 -0.093921	 0.609752	 -0.739706	 0.268731	 0
1461599098.267	 26	 -2.729348	 1.884524	 0.269626	 0.747592	 -1.279857	 -1.882844	 -0.090446	 0.621805	 -0.732019	 0.263298	 0
1461599098.277	 26	 -3.056569	 2.652311	 0.264699	 0.852674	 -1.298700	 -1.799163	 -0.084482	 0.635962	 -0.723384	 0.255209	 0
1461599098.287	 26	 -3.274701	 3.269590	 0.229712	 0.984520	 -1.316447	 -1.694972	 -0.076535	 0.651565	 -0.713950	 0.244704	 0
1461599098.307	 27	 -2.988740	 4.016683	 0.405762	 1.303310	 -1.337434	 -1.444816	 -0.055163	 0.682932	 -0.694571	 0.219389	 0
1461599098.317	 27	 -2.686882	 4.044881	 0.602693	 1.462096	 -1.337167	 -1.323315	 -0.042197	 0.696894	 -0.685466	 0.206625	 0
1461599098.327	 27	 -2.508387	 3.769812	 0.730734	 1.607186	 -1.331015	 -1.213720	 -0.029143	 0.709557	 -0.676495	 0.195025	 0
1461599098.337	 27	 -2.401755	 3.310984	 0.717010	 1.735285	 -1.321336	 -1.117051	 -0.017320	 0.721050	 -0.667527	 0.184919	 0
1461599098.347	 27	 -2.298224	 2.911399	 0.658036	 1.846573	 -1.309694	 -1.033034	 -0.007035	 0.731503	 -0.658663	 0.176116	 0
1461599098.357	 27	 -2.190284	 2.740709	 0.630996	 1.943530	 -1.296593	 -0.961231	 0.002465	 0.741146	 -0.649986	 0.167971	 0
1461599098.367	 27	 -2.064737	 2.684820	 0.601673	 2.028402	 -1.282545	 -0.900961	 0.011729	 0.750106	 -0.641572	 0.159963	 0
1461599098.377	 27	 -1.918571	 2.527379	 0.510477	 2.102398	 -1.268521	 -0.850558	 0.020446	 0.758310	 -0.633568	 0.152116	 0
1461599098.387	 27	 -1.769165	 2.197233	 0.365423	 2.166343	 -1.255470	 -0.807467	 0.027852	 0.765643	 -0.626118	 0.144884	 0
1461599098.397	 27	 -1.710912	 1.525063	 0.246756	 2.220700	 -1.243229	 -0.768356	 0.033052	 0.772173	 -0.619058	 0.139365	 0
1461599098.407	 27	 -1.774189	 0.393008	 0.169630	 2.263855	 -1.230871	 -0.730059	 0.034710	 0.778013	 -0.612025	 0.137536	 0
1461599098.417	 27	 -1.933375	 -0.749065	 0.139073	 2.296094	 -1.217463	 -0.690629	 0.032489	 0.783399	 -0.604630	 0.140187	 0
1461599098.427	 27	 -2.133716	 -1.359049	 0.130879	 2.322071	 -1.202465	 -0.649522	 0.027772	 0.788741	 -0.596538	 0.145805	 0
1461599098.437	 27	 -2.290365	 -1.345530	 0.171801	 2.346742	 -1.185727	 -0.608107	 0.022608	 0.794374	 -0.587662	 0.152027	 0
1461599098.447	 27	 -2.359915	 -0.998020	 0.250244	 2.371581	 -1.167377	 -0.569258	 0.018510	 0.800356	 -0.578211	 0.157353	 0
1461599098.457	 27	 -2.119534	 -0.247950	 0.231684	 2.397595	 -1.149741	 -0.535977	 0.016452	 0.806283	 -0.569232	 0.160038	 0
1461599098.467	 27	 -1.796314	 0.404136	 0.228543	 2.423836	 -1.134288	 -0.509904	 0.016575	 0.811764	 -0.561451	 0.159804	 0
1461599098.477	 27	 -1.510305	 0.846912	 0.240831	 2.449104	 -1.120707	 -0.490238	 0.018383	 0.816750	 -0.554760	 0.157552	 0
1461599098.487	 27	 -1.265908	 1.068551	 0.249291	 2.472425	 -1.108873	 -0.475703	 0.021200	 0.821175	 -0.549050	 0.154160	 0
1461599098.497	 27	 -1.082199	 1.098879	 0.252237	 2.493153	 -1.098440	 -0.464813	 0.024383	 0.825060	 -0.544103	 0.150445	 0
1461599098.507	 27	 -0.911792	 1.033437	 0.243750	 2.510861	 -1.089299	 -0.456716	 0.027545	 0.828398	 -0.539834	 0.146893	 0
1461599098.517	 27	 -0.746802	 0.957321	 0.227750	 2.525787	 -1.081565	 -0.450893	 0.030561	 0.831190	 -0.536261	 0.143572	 0
1461599098.527	 27	 -0.625476	 0.890986	 0.222879	 2.538363	 -1.074931	 -0.446882	 0.033449	 0.833541	 -0.533242	 0.140513	 0
1461599098.537	 27	 -0.564703	 0.899143	 0.198979	 2.550072	 -1.069005	 -0.443672	 0.036273	 0.835656	 -0.530538	 0.137453	 0
1461599098.547	 27	 -0.539738	 1.044298	 0.131904	 2.563218	 -1.063625	 -0.440091	 0.039193	 0.837745	 -0.527969	 0.133772	 0
1461599098.557	 27	 -0.524476	 1.212503	 0.012905	 2.579364	 -1.058921	 -0.435028	 0.042126	 0.839901	 -0.525481	 0.129082	 0
1461599098.567	 27	 -0.458288	 1.336783	 -0.129327	 2.598328	 -1.055327	 -0.428273	 0.044858	 0.842006	 -0.523236	 0.123441	 0
1461599098.577	 27	 -0.318495	 1.430212	 -0.242646	 2.618926	 -1.053359	 -0.420781	 0.047401	 0.843837	 -0.521536	 0.117016	 0
1461599098.587	 27	 -0.117692	 1.507975	 -0.291630	 2.639615	 -1.053260	 -0.414081	 0.049977	 0.845195	 -0.520613	 0.110041	 0
1461599098.597	 27	 0.131580	 1.627532	 -0.277767	 2.659404	 -1.055199	 -0.409646	 0.052957	 0.845940	 -0.520639	 0.102546	 0
1461599098.607	 27	 0.397365	 1.813337	 -0.215472	 2.678046	 -1.059202	 -0.408485	 0.056728	 0.846011	 -0.521668	 0.094391	 0
1461599098.617	 27	 0.655930	 2.027036	 -0.123014	 2.695491	 -1.065179	 -0.411112	 0.061528	 0.845392	 -0.523659	 0.085483	 0
1461599098.627	 27	 0.901495	 2.184530	 -0.012847	 2.711182	 -1.072954	 -0.417743	 0.067340	 0.844070	 -0.526528	 0.076021	 0
1461599098.637	 27	 1.227430	 2.195989	 0.085669	 2.723508	 -1.083022	 -0.428795	 0.073835	 0.841840	 -0.530502	 0.066486	 0
1461599098.647	 27	 1.954877	 1.815867	 0.175980	 2.726761	 -1.098314	 -0.447058	 0.080210	 0.837744	 -0.537010	 0.058057	 0
1461599098.657	 27	 3.260343	 0.740006	 0.187641	 2.709727	 -1.124002	 -0.477815	 0.084662	 0.830082	 -0.548625	 0.052981	 0
1461599098.667	 27	 4.195190	 -0.598786	 0.165978	 2.665019	 -1.159643	 -0.523986	 0.085646	 0.818677	 -0.565369	 0.052829	 0
1461599098.677	 27	 2.356234	 -1.540234	 0.427946	 2.609463	 -1.184525	 -0.569313	 0.083924	 0.809493	 -0.578186	 0.058121	 0
1461599098.687	 27	 -1.069368	 0.001672	 0.757744	 2.594756	 -1.177774	 -0.579834	 0.085167	 0.810131	 -0.576675	 0.062285	 0
1461599098.697	 27	 -1.489555	 2.091870	 0.762735	 2.613203	 -1.160816	 -0.576994	 0.092387	 0.814604	 -0.569591	 0.058741	 0
1461599098.707	 27	 -0.991885	 3.047879	 0.792876	 2.639583	 -1.147177	 -0.579861	 0.103450	 0.818212	 -0.563350	 0.049645	 0
1461599098.717	 27	 -0.372432	 2.861546	 0.868878	 2.658232	 -1.138473	 -0.591956	 0.115152	 0.819897	 -0.559369	 0.040188	 0
1461599098.727	 27	 0.154992	 2.019643	 0.854320	 2.663875	 -1.134819	 -0.610580	 0.124995	 0.819686	 -0.558013	 0.033339	 0
1461599098.737	 27	 0.432658	 1.062573	 0.698053	 2.658772	 -1.134734	 -0.630477	 0.131734	 0.818347	 -0.558624	 0.029889	 0
1461599098.747	 27	 0.583774	 0.555723	 0.387213	 2.650756	 -1.137328	 -0.646307	 0.135499	 0.816613	 -0.560344	 0.028245	 0
1461599098.757	 27	 0.925541	 0.836768	 0.120412	 2.646062	 -1.143768	 -0.659504	 0.138394	 0.814262	 -0.563196	 0.025207	 0
1461599098.767	 27	 1.346492	 1.294952	 -0.034591	 2.644877	 -1.154696	 -0.673886	 0.141896	 0.810889	 -0.567402	 0.019480	 0
1461599098.777	 27	 1.726630	 1.376502	 -0.075510	 2.642152	 -1.169418	 -0.691943	 0.145680	 0.806387	 -0.573028	 0.012498	 0
1461599098.787	 27	 1.984085	 0.958974	 -0.051828	 2.631835	 -1.186602	 -0.714979	 0.148696	 0.800918	 -0.579981	 0.006501	 0
1461599098.797	 27	 2.000468	 -0.113011	 -0.026775	 2.609225	 -1.204284	 -0.741539	 0.149220	 0.795058	 -0.587877	 0.004056	 0
1461599098.807	 27	 0.888994	 -2.977098	 0.286637	 2.566587	 -1.214450	 -0.764862	 0.143779	 0.791015	 -0.594544	 0.011854	 0
1461599098.817	 27	 -0.938590	 -6.027745	 0.544866	 2.509103	 -1.206960	 -0.768052	 0.129541	 0.791663	 -0.596020	 0.035338	 0
1461599098.827	 27	 -1.177162	 -5.929001	 0.278224	 2.459647	 -1.195199	 -0.755624	 0.112513	 0.793558	 -0.594848	 0.061342	 0
1461599098.837	 27	 -0.709247	 -4.605713	 -0.097210	 2.423720	 -1.188825	 -0.740923	 0.097453	 0.794281	 -0.594127	 0.081451	 0
1461599098.847	 27	 -0.184783	 -3.029701	 -0.507022	 2.401904	 -1.189170	 -0.727469	 0.085548	 0.793873	 -0.594647	 0.094032	 0
1461599098.857	 27	 0.126744	 -1.678710	 -0.792379	 2.394431	 -1.194560	 -0.714111	 0.076768	 0.793020	 -0.596054	 0.099726	 0
1461599098.867	 27	 0.278227	 -0.797155	 -1.048738	 2.398777	 -1.203093	 -0.698818	 0.070027	 0.792139	 -0.597904	 0.100611	 0
1461599098.877	 27	 0.306902	 -0.233679	 -1.216398	 2.412867	 -1.213286	 -0.679900	 0.064424	 0.791443	 -0.599821	 0.098395	 0
1461599098.887	 27	 0.314900	 0.176228	 -1.302177	 2.434385	 -1.224080	 -0.657823	 0.059735	 0.790943	 -0.601649	 0.094128	 0
1461599098.897	 27	 0.304689	 0.502763	 -1.305445	 2.461449	 -1.234843	 -0.633635	 0.055981	 0.790583	 -0.603348	 0.088402	 0
1461599098.907	 27	 0.255074	 0.776834	 -1.225727	 2.492302	 -1.244653	 -0.608480	 0.053294	 0.790416	 -0.604745	 0.081766	 0
1461599098.917	 27	 0.233932	 1.196607	 -1.136376	 2.527030	 -1.253424	 -0.583301	 0.052080	 0.790426	 -0.605849	 0.073907	 0
1461599098.927	 27	 0.266914	 1.719898	 -0.977259	 2.564593	 -1.261270	 -0.560405	 0.052903	 0.790473	 -0.606790	 0.064496	 0
1461599098.937	 27	 0.443490	 2.459846	 -0.657511	 2.600857	 -1.268541	 -0.546068	 0.056908	 0.790167	 -0.607922	 0.053180	 0
1461599098.947	 27	 0.803393	 3.418894	 -0.117773	 2.628533	 -1.275967	 -0.550272	 0.065667	 0.788841	 -0.609792	 0.039641	 0
1461599098.957	 27	 1.101101	 4.032048	 0.219990	 2.645174	 -1.284179	 -0.574075	 0.078677	 0.786195	 -0.612467	 0.024342	 0
1461599098.967	 27	 0.699033	 3.051926	 -0.162910	 2.667533	 -1.292013	 -0.586182	 0.088913	 0.783910	 -0.614387	 0.010441	 0
1461599098.977	 27	 0.280161	 1.984653	 -0.104182	 2.688437	 -1.295866	 -0.587356	 0.095132	 0.782936	 -0.614784	 0.001204	 0
1461599098.987	 27	 0.168315	 1.487803	 0.270514	 2.696485	 -1.296882	 -0.595653	 0.100679	 0.782264	 -0.614740	 -0.004677	 0
1461599098.997	 27	 0.168047	 0.926327	 0.871710	 2.681990	 -1.295200	 -0.621975	 0.106805	 0.781367	 -0.614827	 -0.006797	 0
1461599099.007	 27	 0.316352	 0.033021	 1.388593	 2.640754	 -1.291697	 -0.667696	 0.112604	 0.779838	 -0.615756	 -0.004099	 0
1461599099.017	 27	 0.812021	 -1.213072	 1.651912	 2.572687	 -1.289187	 -0.729525	 0.116159	 0.776899	 -0.618806	 0.003829	 0
1461599099.027	 27	 1.604073	 -2.809253	 1.719686	 2.471782	 -1.290704	 -0.809429	 0.115367	 0.771394	 -0.625563	 0.017688	 0
1461599099.037	 27	 2.228102	 -3.883123	 1.583829	 2.343607	 -1.295313	 -0.904567	 0.110332	 0.763400	 -0.635430	 0.035716	 0
1461599099.047	 27	 2.604974	 -4.110306	 1.355690	 2.200995	 -1.300809	 -1.010094	 0.103129	 0.753627	 -0.646874	 0.054445	 0
1461599099.057	 27	 2.775898	 -3.891150	 1.138825	 2.053570	 -1.305186	 -1.121925	 0.095535	 0.742835	 -0.658724	 0.071775	 0
1461599099.067	 27	 2.843050	 -3.539462	 0.968859	 1.906523	 -1.307207	 -1.236631	 0.088306	 0.731520	 -0.670429	 0.087213	 0
1461599099.077	 27	 2.835982	 -3.127630	 0.849125	 1.764235	 -1.306184	 -1.350537	 0.081894	 0.720022	 -0.681706	 0.100693	 0
1461599099.087	 27	 2.742826	 -2.696978	 0.796392	 1.631850	 -1.301703	 -1.458692	 0.076613	 0.708690	 -0.692286	 0.112381	 0
1461599099.097	 27	 2.549829	 -2.220888	 0.808897	 1.515332	 -1.293733	 -1.555337	 0.072794	 0.697939	 -0.701845	 0.122454	 0
1461599099.117	 28	 1.900981	 -1.088390	 0.805901	 1.348351	 -1.271251	 -1.697919	 0.070590	 0.680049	 -0.716744	 0.137214	 0
1461599099.127	 28	 1.680117	 -0.788366	 0.728552	 1.293118	 -1.259770	 -1.747090	 0.071315	 0.673029	 -0.722323	 0.142110	 0
1461599099.137	 28	 1.765910	 -0.910007	 0.709621	 1.240566	 -1.247808	 -1.793282	 0.071804	 0.665871	 -0.727916	 0.146963	 0
1461599099.147	 28	 1.807413	 -0.920884	 0.693172	 1.188751	 -1.234935	 -1.838135	 0.072050	 0.658310	 -0.733717	 0.151975	 0
1461599099.157	 28	 1.597316	 -0.607010	 0.623319	 1.145779	 -1.222464	 -1.876279	 0.072852	 0.651399	 -0.738932	 0.156047	 0
1461599099.167	 28	 1.221429	 -0.116355	 0.517121	 1.117274	 -1.211932	 -1.904084	 0.074756	 0.646121	 -0.742874	 0.158359	 0
1461599099.177	 28	 0.860475	 0.364752	 0.420296	 1.102822	 -1.203771	 -1.922276	 0.077883	 0.642652	 -0.745457	 0.158828	 0
1461599099.187	 28	 0.593133	 0.564720	 0.313645	 1.097093	 -1.197732	 -1.934192	 0.081512	 0.640486	 -0.747082	 0.158119	 0
1461599099.197	 28	 0.465417	 0.318255	 0.155796	 1.092570	 -1.193750	 -1.943390	 0.084038	 0.638921	 -0.748299	 0.157374	 0
1461599099.207	 28	 0.630117	 -0.334682	 -0.054208	 1.078348	 -1.191073	 -1.957070	 0.083926	 0.636659	 -0.750185	 0.157620	 0
1461599099.217	 28	 0.825395	 -1.069575	 -0.259913	 1.049400	 -1.189048	 -1.978541	 0.080501	 0.633040	 -0.753249	 0.159363	 0
1461599099.237	 29	 0.387641	 -1.220359	 -0.402448	 0.987742	 -1.189026	 -2.017379	 0.069432	 0.626592	 -0.758704	 0.164106	 0
1461599099.247	 29	 0.037956	 -1.403073	 -0.365934	 0.966686	 -1.191456	 -2.025874	 0.063353	 0.625151	 -0.759847	 0.166750	 0
1461599099.257	 29	 -0.182380	 -1.985071	 -0.336392	 0.946428	 -1.195090	 -2.027978	 0.055208	 0.624261	 -0.760222	 0.171212	 0
1461599099.267	 29	 -0.023249	 -2.638586	 -0.335333	 0.918449	 -1.198303	 -2.031479	 0.044688	 0.622525	 -0.760854	 0.177668	 0
1461599099.277	 29	 0.494573	 -3.092747	 -0.272662	 0.876646	 -1.198427	 -2.044014	 0.032617	 0.618515	 -0.762786	 0.185828	 0
1461599099.287	 29	 1.069835	 -2.464252	 -0.200416	 0.828258	 -1.193853	 -2.066835	 0.022488	 0.612416	 -0.766216	 0.193270	 0
1461599099.297	 29	 1.673550	 -0.997630	 -0.409440	 0.781485	 -1.185738	 -2.102495	 0.017693	 0.605284	 -0.771301	 0.195993	 0
1461599099.307	 29	 2.033815	 0.121645	 -0.507673	 0.737967	 -1.174922	 -2.148172	 0.017581	 0.597532	 -0.777773	 0.194206	 0
1461599099.317	 29	 1.487679	 0.775751	 -0.144063	 0.713474	 -1.163895	 -2.181804	 0.020993	 0.591559	 -0.782996	 0.191140	 0
1461599099.327	 29	 -0.132039	 0.516255	 0.231049	 0.717699	 -1.160479	 -2.184326	 0.024301	 0.590897	 -0.783737	 0.189752	 0
1461599099.337	 29	 -1.890327	 -0.429383	 0.387832	 0.745132	 -1.169050	 -2.152460	 0.023251	 0.596454	 -0.779023	 0.191898	 0
1461599099.347	 29	 -3.087641	 -1.137061	 0.438565	 0.789834	 -1.186441	 -2.093354	 0.017942	 0.606382	 -0.770227	 0.196800	 0
1461599099.357	 29	 -3.793558	 -1.376360	 0.594888	 0.853922	 -1.207254	 -2.010031	 0.010824	 0.618924	 -0.758610	 0.203290	 0
1461599099.367	 29	 -4.035465	 -0.951470	 0.713919	 0.939321	 -1.226838	 -1.907247	 0.004716	 0.632805	 -0.745414	 0.209508	 0
1461599099.377	 29	 -3.994108	 -0.019526	 0.614589	 1.043127	 -1.243419	 -1.794395	 0.001535	 0.647334	 -0.731881	 0.212855	 0
1461599099.387	 29	 -3.703989	 1.379916	 0.255266	 1.160169	 -1.257377	 -1.681647	 0.002331	 0.662161	 -0.719060	 0.210924	 0
1461599099.397	 29	 -3.132583	 2.554347	 -0.218374	 1.279466	 -1.269797	 -1.580788	 0.006798	 0.676296	 -0.708121	 0.202837	 0
1461599099.407	 29	 -2.475492	 2.803760	 -0.319824	 1.388882	 -1.279115	 -1.495500	 0.012889	 0.688347	 -0.699298	 0.192338	 0
1461599099.417	 29	 -1.879138	 2.547530	 -0.065224	 1.481850	 -1.283339	 -1.426107	 0.019677	 0.697869	 -0.692224	 0.182807	 0
1461599099.427	 29	 -1.559886	 2.010335	 0.346908	 1.557927	 -1.281654	 -1.369102	 0.026493	 0.705311	 -0.686104	 0.176343	 0
1461599099.437	 29	 -1.714972	 1.451450	 0.656392	 1.628249	 -1.275474	 -1.312333	 0.032562	 0.712247	 -0.679518	 0.172915	 0
1461599099.447	 29	 -2.163831	 0.765280	 1.041853	 1.700319	 -1.264215	 -1.246775	 0.037352	 0.719788	 -0.671238	 0.173057	 0
1461599099.457	 29	 -2.655519	 0.058944	 1.415775	 1.772538	 -1.246883	 -1.173241	 0.040725	 0.728168	 -0.660854	 0.177155	 0
1461599099.467	 29	 -3.085262	 -0.505125	 1.632749	 1.841419	 -1.224460	 -1.096336	 0.042613	 0.737264	 -0.648570	 0.184347	 0
1461599099.487	 30	 -3.375598	 -0.746930	 1.904797	 1.956567	 -1.168368	 -0.955930	 0.044810	 0.756093	 -0.620507	 0.203190	 0
1461599099.497	 30	 -3.280750	 -0.376604	 1.969231	 2.002693	 -1.137274	 -0.900204	 0.047328	 0.765297	 -0.605998	 0.211771	 0
1461599099.507	 30	 -3.126364	 0.188050	 2.014706	 2.043947	 -1.105390	 -0.854788	 0.051736	 0.774324	 -0.591639	 0.218424	 0
1461599099.517	 30	 -2.935318	 0.876658	 2.007727	 2.083218	 -1.073549	 -0.818426	 0.058320	 0.783285	 -0.577591	 0.222378	 0
1461599099.527	 30	 -2.598949	 1.606307	 1.998798	 2.120712	 -1.042630	 -0.791666	 0.067238	 0.791938	 -0.564292	 0.223356	 0
1461599099.537	 30	 -2.110455	 2.304058	 1.906185	 2.156209	 -1.014356	 -0.775307	 0.078437	 0.799853	 -0.552483	 0.221009	 0
1461599099.547	 30	 -1.708704	 2.706428	 1.820105	 2.189342	 -0.988965	 -0.767023	 0.091010	 0.806875	 -0.542110	 0.216304	 0
1461599099.557	 30	 -1.306818	 2.856135	 1.799881	 2.218831	 -0.966234	 -0.765689	 0.104382	 0.812806	 -0.533125	 0.210305	 0
1461599099.567	 30	 -0.939948	 2.741803	 1.875555	 2.241978	 -0.945236	 -0.771389	 0.118259	 0.817371	 -0.525463	 0.204470	 0
1461599099.577	 30	 -0.687762	 2.661700	 1.785221	 2.261112	 -0.926468	 -0.780967	 0.131961	 0.820872	 -0.518923	 0.198680	 0
1461599099.587	 30	 -0.610441	 2.604529	 1.706215	 2.279025	 -0.909314	 -0.791349	 0.145168	 0.823845	 -0.512873	 0.192788	 0
1461599099.597	 30	 -0.534046	 2.491728	 1.729013	 2.295356	 -0.892663	 -0.802711	 0.158162	 0.826370	 -0.507010	 0.187185	 0
1461599099.607	 30	 -0.372643	 2.266239	 1.793718	 2.307955	 -0.876687	 -0.816540	 0.170994	 0.828106	 -0.501741	 0.182364	 0
1461599099.617	 30	 -0.211181	 2.016603	 1.901894	 2.315891	 -0.861185	 -0.833296	 0.183711	 0.828936	 -0.497182	 0.178675	 0
1461599099.627	 30	 -0.050458	 1.823452	 2.025523	 2.319850	 -0.845934	 -0.852884	 0.196529	 0.828928	 -0.493255	 0.175940	 0
1461599099.637	 30	 0.159560	 1.702236	 2.115288	 2.320432	 -0.831280	 -0.875334	 0.209544	 0.828064	 -0.490086	 0.173831	 0
1461599099.647	 30	 0.418631	 1.608227	 2.163314	 2.318103	 -0.817924	 -0.900726	 0.222739	 0.826283	 -0.487927	 0.171960	 0
1461599099.657	 30	 0.624246	 1.499433	 2.204208	 2.313277	 -0.805723	 -0.928477	 0.236002	 0.823674	 -0.486676	 0.170324	 0
1461599099.667	 30	 0.776994	 1.281137	 2.230688	 2.305578	 -0.794215	 -0.957862	 0.249046	 0.820310	 -0.486198	 0.169350	 0
1461599099.677	 30	 1.013501	 0.961425	 2.239508	 2.293896	 -0.783789	 -0.988993	 0.261533	 0.816043	 -0.486826	 0.169335	 0
1461599099.687	 30	 1.410187	 0.718410	 2.182636	 2.277650	 -0.775734	 -1.023100	 0.273465	 0.810579	 -0.489227	 0.169810	 0
1461599099.697	 30	 1.830037	 0.405161	 2.130238	 2.256292	 -0.770450	 -1.060904	 0.284822	 0.803751	 -0.493713	 0.170609	 0
1461599099.707	 30	 2.058788	 -0.409434	 2.387107	 2.225668	 -0.764938	 -1.102484	 0.295270	 0.795305	 -0.499997	 0.174093	 0
1461599099.717	 30	 2.148900	 -1.298152	 2.486761	 2.184394	 -0.757612	 -1.146711	 0.304292	 0.785216	 -0.507875	 0.181397	 0
1461599099.727	 30	 2.094772	 -2.558654	 2.447793	 2.133087	 -0.748828	 -1.189508	 0.310222	 0.773962	 -0.517182	 0.193051	 0
1461599099.737	 30	 1.858768	 -3.857244	 2.070076	 2.071910	 -0.739781	 -1.227295	 0.311281	 0.761919	 -0.527945	 0.209421	 0
1461599099.747	 30	 1.357032	 -4.673338	 1.385828	 2.008132	 -0.732757	 -1.254972	 0.306757	 0.750540	 -0.538944	 0.228317	 0
1461599099.757	 30	 0.435187	 -4.817582	 1.069586	 1.950737	 -0.725357	 -1.269040	 0.298600	 0.741344	 -0.547400	 0.248194	 0
1461599099.767	 30	 -0.285940	 -4.792822	 1.112331	 1.900383	 -0.714582	 -1.272653	 0.289327	 0.733844	 -0.552582	 0.269101	 0
1461599099.777	 30	 -0.729630	 -4.894213	 1.031049	 1.856569	 -0.703378	 -1.267433	 0.278712	 0.727885	 -0.555341	 0.289999	 0
1461599099.787	 30	 -0.621564	 -5.129812	 0.850974	 1.815433	 -0.695734	 -1.258023	 0.266227	 0.722550	 -0.557702	 0.309860	 0
1461599099.797	 30	 -0.113574	 -5.165872	 0.629854	 1.766463	 -0.689958	 -1.255551	 0.253450	 0.714660	 -0.562314	 0.329890	 0
1461599099.807	 30	 0.303914	 -5.046473	 0.543135	 1.713116	 -0.684870	 -1.259513	 0.241409	 0.704733	 -0.568431	 0.349225	 0
1461599099.827	 30	 0.259448	 -4.979342	 0.832975	 1.613420	 -0.670699	 -1.266412	 0.219887	 0.684354	 -0.578150	 0.386073	 0
1461599099.817	 30	 0.494319	 -5.021949	 0.628031	 1.659593	 -0.679518	 -1.265742	 0.230040	 0.693954	 -0.574688	 0.367754	 0
1461599099.837	 30	 -0.231477	 -5.028775	 1.153302	 1.565819	 -0.659211	 -1.264311	 0.209242	 0.673981	 -0.580492	 0.406198	 0
1461599099.847	 30	 -0.790256	 -5.165574	 1.423335	 1.519796	 -0.645793	 -1.255582	 0.197526	 0.663798	 -0.580679	 0.427981	 0
1461599099.857	 30	 -1.219662	 -5.204239	 1.637735	 1.476913	 -0.630812	 -1.240227	 0.185201	 0.654101	 -0.578483	 0.450787	 0
1461599099.867	 30	 -1.583067	 -5.034776	 1.832181	 1.438072	 -0.614794	 -1.219480	 0.172858	 0.645033	 -0.574073	 0.473806	 0
1461599099.877	 30	 -1.924225	 -4.630692	 1.975329	 1.405302	 -0.598329	 -1.193793	 0.161085	 0.637175	 -0.567415	 0.496085	 0
1461599099.887	 30	 -2.182689	 -4.264751	 2.025747	 1.378264	 -0.582258	 -1.164301	 0.149860	 0.630582	 -0.558947	 0.517191	 0
1461599099.907	 31	 -2.434791	 -3.989586	 2.174380	 1.331813	 -0.551455	 -1.098996	 0.127883	 0.618735	 -0.538597	 0.557428	 0
1461599099.927	 31	 -2.294178	 -3.540874	 2.652661	 1.292073	 -0.516262	 -1.030836	 0.109557	 0.606928	 -0.514245	 0.595976	 0
1461599099.917	 31	 -2.420206	 -3.787101	 2.381830	 1.311096	 -0.534954	 -1.064771	 0.117904	 0.612896	 -0.526882	 0.576934	 0
1461599099.937	 31	 -2.088829	 -3.200395	 2.899167	 1.274940	 -0.495083	 -0.998136	 0.103283	 0.600880	 -0.500928	 0.614285	 0
1461599099.947	 31	 -1.844646	 -2.701100	 3.061551	 1.260972	 -0.471899	 -0.967377	 0.099405	 0.595260	 -0.487235	 0.631178	 0
1461599099.957	 31	 -1.596203	 -2.186016	 3.202730	 1.250452	 -0.446938	 -0.938850	 0.097928	 0.590279	 -0.473354	 0.646466	 0
1461599099.967	 31	 -1.337594	 -1.590854	 3.390394	 1.244081	 -0.419747	 -0.912473	 0.099091	 0.586211	 -0.459172	 0.660074	 0
1461599099.977	 31	 -1.036554	 -1.011044	 3.531717	 1.242037	 -0.390160	 -0.888690	 0.103037	 0.583165	 -0.444812	 0.671896	 0
1461599099.987	 31	 -0.657290	 -0.700490	 3.535568	 1.241734	 -0.359097	 -0.868684	 0.109100	 0.580367	 -0.431020	 0.682270	 0
1461599099.997	 31	 -0.213682	 -0.486394	 3.464423	 1.241504	 -0.327205	 -0.853443	 0.116915	 0.577254	 -0.418418	 0.691401	 0
1461599100.007	 31	 0.223378	 -0.352685	 3.452270	 1.240949	 -0.294176	 -0.842892	 0.126474	 0.573596	 -0.406991	 0.699536	 0
1461599100.017	 31	 0.552456	 -0.305488	 3.493540	 1.239675	 -0.259704	 -0.835827	 0.137449	 0.569216	 -0.396319	 0.707129	 0
1461599100.027	 31	 0.781533	 -0.147762	 3.482356	 1.238888	 -0.224344	 -0.831262	 0.149567	 0.564614	 -0.386138	 0.713960	 0
1461599100.037	 31	 0.884443	 -0.043884	 3.474966	 1.238897	 -0.188683	 -0.828056	 0.162313	 0.560023	 -0.376167	 0.720088	 0
1461599100.047	 31	 0.871991	 -0.060077	 3.583632	 1.238962	 -0.152283	 -0.824794	 0.175298	 0.555218	 -0.365846	 0.726058	 0
1461599100.057	 31	 0.755920	 -0.178440	 3.788167	 1.238171	 -0.114403	 -0.820053	 0.188244	 0.549880	 -0.354546	 0.732457	 0
1461599100.067	 31	 0.579581	 -0.429359	 4.022901	 1.235219	 -0.074913	 -0.812901	 0.200740	 0.543606	 -0.342009	 0.739747	 0
1461599100.087	 32	 0.357439	 -1.617804	 4.318584	 1.214387	 0.007763	 -0.792178	 0.223071	 0.525156	 -0.314805	 0.758517	 0
1461599100.097	 32	 0.415269	 -2.661751	 4.266802	 1.190195	 0.049178	 -0.780429	 0.232006	 0.510547	 -0.302154	 0.770855	 0
1461599100.107	 32	 0.531388	 -3.705551	 4.112200	 1.154772	 0.089443	 -0.768927	 0.239242	 0.491434	 -0.291326	 0.785102	 0
1461599100.117	 32	 0.639233	 -4.351475	 3.819626	 1.111435	 0.127378	 -0.757912	 0.245006	 0.469127	 -0.282450	 0.800071	 0
1461599100.127	 32	 0.699843	 -4.606894	 3.530032	 1.064223	 0.162381	 -0.747230	 0.249633	 0.445290	 -0.275176	 0.814665	 0
1461599100.147	 33	 0.715950	 -4.122035	 3.516285	 0.971942	 0.228945	 -0.722053	 0.258392	 0.398422	 -0.260383	 0.840651	 0
1461599100.157	 33	 0.866986	 -3.783143	 3.522379	 0.929477	 0.260935	 -0.707702	 0.263077	 0.376549	 -0.252433	 0.851633	 0
1461599100.167	 33	 1.155489	 -3.379660	 3.397836	 0.890486	 0.289640	 -0.694448	 0.267492	 0.356415	 -0.245454	 0.860912	 0
1461599100.177	 33	 1.527942	 -2.968630	 3.174583	 0.856497	 0.319061	 -0.684099	 0.273661	 0.337782	 -0.239107	 0.868240	 0
1461599100.187	 33	 1.902017	 -2.622836	 2.902763	 0.827349	 0.351186	 -0.677487	 0.282390	 0.320150	 -0.233362	 0.873672	 0
1461599100.197	 33	 2.156518	 -2.347432	 2.702738	 0.802011	 0.384205	 -0.673744	 0.292547	 0.303527	 -0.228380	 0.877571	 0
1461599100.207	 33	 2.248255	 -2.248657	 2.573894	 0.778539	 0.417310	 -0.671129	 0.303222	 0.287463	 -0.223829	 0.880524	 0
1461599100.217	 33	 2.191714	 -2.353734	 2.434860	 0.754234	 0.450370	 -0.668470	 0.313859	 0.270980	 -0.219622	 0.883079	 0
1461599100.237	 34	 1.805961	 -2.575677	 2.034361	 0.700325	 0.509440	 -0.660562	 0.331556	 0.237280	 -0.213032	 0.887911	 0
1461599100.247	 34	 1.482273	 -2.560405	 1.663239	 0.672544	 0.532695	 -0.656376	 0.337815	 0.221257	 -0.211330	 0.890093	 0
1461599100.257	 34	 1.127431	 -2.439084	 1.382899	 0.645427	 0.551144	 -0.651752	 0.342169	 0.206502	 -0.210406	 0.892192	 0
1461599100.267	 34	 0.782897	 -2.320734	 1.283621	 0.618619	 0.565811	 -0.645479	 0.344879	 0.192875	 -0.209519	 0.894404	 0
1461599100.277	 34	 0.479834	 -2.143893	 1.346522	 0.591665	 0.577851	 -0.636245	 0.346278	 0.180183	 -0.207898	 0.896886	 0
1461599100.287	 34	 0.280730	 -1.939136	 1.487644	 0.564946	 0.588473	 -0.623821	 0.346938	 0.168411	 -0.205116	 0.899555	 0
1461599100.297	 34	 0.201708	 -1.821067	 1.603468	 0.538209	 0.598561	 -0.608947	 0.347311	 0.157158	 -0.201373	 0.902289	 0
1461599100.307	 34	 0.252097	 -1.798648	 1.635210	 0.511269	 0.608764	 -0.593194	 0.347809	 0.145956	 -0.197298	 0.904875	 0
1461599100.317	 34	 0.386416	 -1.808794	 1.610500	 0.484336	 0.619551	 -0.577826	 0.348755	 0.134608	 -0.193357	 0.907118	 0
1461599100.327	 34	 0.590236	 -1.776717	 1.569590	 0.458049	 0.631478	 -0.563461	 0.350486	 0.123221	 -0.189657	 0.908849	 0
1461599100.337	 34	 0.787115	 -1.631884	 1.527659	 0.433371	 0.644820	 -0.550195	 0.353200	 0.112191	 -0.186060	 0.909970	 0
1461599100.347	 34	 0.818511	 -1.298113	 1.512373	 0.411442	 0.658529	 -0.537061	 0.356471	 0.102392	 -0.182084	 0.910654	 0
1461599100.357	 34	 0.697423	 -0.727640	 1.515539	 0.393956	 0.671210	 -0.522996	 0.359765	 0.095009	 -0.177122	 0.911137	 0
1461599100.367	 34	 0.568495	 -0.214761	 1.493724	 0.381391	 0.682411	 -0.508098	 0.362902	 0.090307	 -0.171154	 0.911511	 0
1461599100.377	 34	 0.561317	 -0.204718	 1.555694	 0.369428	 0.693223	 -0.492195	 0.365957	 0.086185	 -0.164721	 0.911874	 0
1461599100.387	 34	 0.534570	 -0.205817	 1.539931	 0.356710	 0.703823	 -0.475785	 0.368917	 0.081908	 -0.158274	 0.912217	 0
1461599100.397	 34	 0.497888	 -0.143163	 1.364982	 0.345207	 0.713441	 -0.460507	 0.371665	 0.078176	 -0.152287	 0.912449	 0
1461599100.407	 34	 0.508965	 -0.257057	 1.064347	 0.335180	 0.721994	 -0.448447	 0.374240	 0.074714	 -0.147661	 0.912447	 0
1461599100.417	 34	 0.529581	 -0.630332	 0.786793	 0.324270	 0.729736	 -0.439934	 0.376565	 0.070328	 -0.144947	 0.912274	 0
1461599100.437	 35	 0.551716	 -1.252362	 0.381151	 0.297320	 0.743074	 -0.431403	 0.380261	 0.057962	 -0.144704	 0.911648	 0
1461599100.447	 35	 0.541162	 -1.561796	 0.240880	 0.281482	 0.749106	 -0.429943	 0.381751	 0.050274	 -0.146428	 0.911207	 0
1461599100.457	 35	 0.446129	 -1.733329	 0.162311	 0.264044	 0.754161	 -0.429324	 0.382697	 0.041829	 -0.148970	 0.910824	 0
1461599100.477	 36	 0.051599	 -1.175157	 0.118718	 0.232801	 0.758862	 -0.427538	 0.382398	 0.027377	 -0.153685	 0.910716	 0
1461599100.497	 37	 -0.454800	 -0.114902	 0.331225	 0.217833	 0.754782	 -0.419748	 0.379328	 0.022518	 -0.153351	 0.912188	 0
1461599100.507	 37	 -0.644333	 0.107692	 0.442588	 0.213654	 0.749813	 -0.412405	 0.376699	 0.022569	 -0.151220	 0.913631	 0
1461599100.517	 37	 -0.777798	 0.083705	 0.454185	 0.208815	 0.743474	 -0.404089	 0.373393	 0.022630	 -0.148862	 0.915372	 0
1461599100.527	 37	 -0.861502	 0.068344	 0.355654	 0.204650	 0.735989	 -0.396698	 0.369627	 0.022922	 -0.146871	 0.917213	 0
1461599100.537	 37	 -0.885370	 -0.166221	 0.267353	 0.199579	 0.727921	 -0.390489	 0.365539	 0.022611	 -0.145606	 0.919059	 0
1461599100.557	 38	 -0.827727	 -0.975527	 0.158073	 0.179772	 0.711878	 -0.381295	 0.356719	 0.016847	 -0.146186	 0.922549	 0
1461599100.567	 38	 -0.825592	 -1.158842	 0.107323	 0.166318	 0.703973	 -0.377866	 0.352102	 0.012057	 -0.147559	 0.924178	 0
1461599100.577	 38	 -0.836475	 -1.175013	 0.073163	 0.152734	 0.695861	 -0.375122	 0.347371	 0.007074	 -0.149223	 0.925752	 0
1461599100.587	 38	 -0.872970	 -1.035213	 0.122741	 0.140044	 0.687501	 -0.372164	 0.342578	 0.002535	 -0.150587	 0.927339	 0
1461599100.597	 38	 -0.968186	 -0.708815	 0.212934	 0.129454	 0.678434	 -0.368098	 0.337607	 -0.000804	 -0.151062	 0.929086	 0
1461599100.607	 38	 -1.124807	 -0.289607	 0.316249	 0.122158	 0.668079	 -0.362726	 0.332285	 -0.002305	 -0.150398	 0.931108	 0
1461599100.617	 38	 -1.283303	 0.203894	 0.396824	 0.118833	 0.656168	 -0.356038	 0.326532	 -0.001634	 -0.148507	 0.933445	 0
1461599100.627	 38	 -1.384751	 0.636068	 0.403861	 0.119885	 0.643111	 -0.348935	 0.320552	 0.001212	 -0.145745	 0.935951	 0
1461599100.637	 38	 -1.381199	 0.941272	 0.398144	 0.124458	 0.629794	 -0.341932	 0.314673	 0.005677	 -0.142475	 0.938429	 0
1461599100.647	 38	 -1.214942	 1.060424	 0.469211	 0.130553	 0.617787	 -0.334505	 0.309469	 0.010775	 -0.138703	 0.940677	 0
1461599100.657	 38	 -0.854020	 1.001769	 0.593414	 0.136032	 0.609081	 -0.326166	 0.305719	 0.015404	 -0.134423	 0.942459	 0
1461599100.677	 39	 -0.037285	 0.722855	 0.742506	 0.142096	 0.604718	 -0.307942	 0.303901	 0.021414	 -0.125149	 0.944205	 0
1461599100.687	 39	 0.196630	 0.561376	 0.716586	 0.143286	 0.607212	 -0.299472	 0.305049	 0.023060	 -0.120828	 0.944359	 0
1461599100.697	 39	 0.359329	 0.458620	 0.692898	 0.143554	 0.611359	 -0.291608	 0.306918	 0.024055	 -0.116843	 0.944230	 0
1461599100.707	 39	 0.551576	 0.505794	 0.675676	 0.144142	 0.617300	 -0.284247	 0.309647	 0.024998	 -0.112948	 0.943788	 0
1461599100.717	 39	 0.710165	 0.666790	 0.647018	 0.146439	 0.624938	 -0.277483	 0.313267	 0.026543	 -0.108976	 0.943018	 0
1461599100.737	 40	 0.816609	 0.832421	 0.649764	 0.154827	 0.642501	 -0.264686	 0.321738	 0.031197	 -0.100625	 0.940950	 0
1461599100.747	 40	 0.777985	 0.761510	 0.682479	 0.158617	 0.651357	 -0.257902	 0.325950	 0.033423	 -0.096314	 0.939874	 0
1461599100.757	 40	 0.728894	 0.527724	 0.691389	 0.160244	 0.659757	 -0.250748	 0.329823	 0.034751	 -0.092201	 0.938887	 0
1461599100.767	 40	 0.687262	 0.085280	 0.676976	 0.157907	 0.667731	 -0.243638	 0.333311	 0.034267	 -0.088796	 0.938000	 0
1461599100.777	 40	 0.666523	 -0.446623	 0.655155	 0.150412	 0.675344	 -0.236572	 0.336412	 0.031412	 -0.086314	 0.937225	 0
1461599100.787	 40	 0.705667	 -0.904665	 0.575949	 0.138418	 0.683062	 -0.230248	 0.339401	 0.026347	 -0.084968	 0.936426	 0
1461599100.797	 40	 0.761688	 -1.185076	 0.504643	 0.123765	 0.691144	 -0.224833	 0.342480	 0.019893	 -0.084530	 0.935503	 0
1461599100.807	 40	 0.830672	 -1.482139	 0.490608	 0.106540	 0.699784	 -0.219741	 0.345731	 0.012183	 -0.084718	 0.934422	 0
1461599100.817	 40	 0.877639	 -1.716181	 0.502942	 0.086100	 0.708926	 -0.214246	 0.349093	 0.003054	 -0.085327	 0.933190	 0
1461599100.827	 40	 0.861914	 -1.670280	 0.519492	 0.065425	 0.717986	 -0.208418	 0.352424	 -0.006070	 -0.085909	 0.931869	 0
1461599100.837	 40	 0.822763	 -1.450394	 0.611403	 0.045511	 0.726632	 -0.201183	 0.355624	 -0.014518	 -0.085797	 0.930570	 0
1461599100.847	 40	 0.775599	 -1.084014	 0.661051	 0.028041	 0.734716	 -0.192793	 0.358708	 -0.021540	 -0.084805	 0.929340	 0
1461599100.857	 40	 0.784074	 -0.595210	 0.601580	 0.015196	 0.742608	 -0.184524	 0.361930	 -0.026377	 -0.083105	 0.928119	 0
1461599100.867	 40	 0.864324	 -0.232484	 0.492352	 0.007456	 0.751074	 -0.177675	 0.365631	 -0.029086	 -0.081175	 0.926757	 0
1461599100.877	 40	 0.828318	 0.102247	 0.435035	 0.003983	 0.761534	 -0.171827	 0.370420	 -0.030047	 -0.078925	 0.925017	 0
1461599100.887	 40	 0.831122	 0.083591	 0.357036	 0.001422	 0.769845	 -0.166631	 0.374240	 -0.030591	 -0.076864	 0.923635	 0
1461599100.897	 40	 0.788780	 -0.051517	 0.335898	 -0.002055	 0.777882	 -0.161938	 0.377889	 -0.031618	 -0.075228	 0.922248	 0
1461599100.907	 40	 0.641502	 -0.070083	 0.356191	 -0.006309	 0.784707	 -0.156932	 0.380957	 -0.032878	 -0.073631	 0.921069	 0
1461599100.917	 40	 0.504790	 -0.080422	 0.341295	 -0.009007	 0.790906	 -0.153062	 0.383777	 -0.033596	 -0.072285	 0.919979	 0
