% Gyrometer data recorded with 'snsrlog'
% 
% 
% Label description:
% 	 0: Default Label
% 	 1: still_drop
% 	 2: walk_drop
% 	 3: other
% 	 4: dtw_same
% 	 5: dtw_diff
% 	 6: delete
% 
% Column description:
% 	 1: Seconds.milliseconds since 1970
% 	 2: Number of skipped measurements
% 	 3: Gyro X
% 	 4: Gyro Y
% 	 5: Gyro Z
% 	 6: Roll of the device
% 	 7: Pitch of the device
% 	 8: Yaw of the device
% 	 9: Quaternion X
% 	 10: Quaternion Y
% 	 11: Quaternion Z
% 	 12: Quaternion W
% 	 13: Label used for the current sample
% 
% 
1462095742.684	 0	 -1.572300	 0.870024	 -0.543803	 0.276719	 0.361642	 0.144537	 0.167858	 0.148177	 0.095088	 0.969962	 2
1462095742.694	 0	 -1.349300	 0.852430	 -0.533119	 0.285719	 0.346524	 0.143350	 0.160159	 0.152102	 0.094304	 0.970732	 2
1462095742.704	 0	 -0.904205	 0.751277	 -0.661564	 0.294582	 0.334916	 0.140111	 0.154338	 0.155892	 0.092673	 0.971231	 2
1462095742.714	 0	 -0.413159	 0.662759	 -0.789226	 0.303393	 0.327571	 0.134104	 0.150830	 0.159557	 0.089931	 0.971444	 2
1462095742.724	 0	 -0.007153	 0.806911	 -0.840445	 0.313440	 0.324118	 0.125998	 0.149360	 0.163762	 0.086504	 0.971283	 2
1462095742.734	 0	 0.247492	 0.924411	 -0.814925	 0.325370	 0.323354	 0.117115	 0.149221	 0.168878	 0.083026	 0.970732	 2
1462095742.754	 1	 0.211900	 1.166023	 -0.658897	 0.351002	 0.323919	 0.100511	 0.149919	 0.180075	 0.076935	 0.969112	 2
1462095742.764	 2	 -0.064915	 1.229172	 -0.569572	 0.365091	 0.321977	 0.094680	 0.148975	 0.186445	 0.075000	 0.968204	 2
1462095742.784	 2	 -0.602033	 1.355626	 -0.802450	 0.393983	 0.308963	 0.085264	 0.142513	 0.199645	 0.071385	 0.966818	 2
1462095742.794	 2	 -0.587360	 1.571269	 -1.126694	 0.411292	 0.299268	 0.077631	 0.137990	 0.207429	 0.067982	 0.966080	 2
1462095742.814	 3	 -0.136057	 2.401233	 -1.336053	 0.459425	 0.282673	 0.056604	 0.130732	 0.229219	 0.059342	 0.962729	 2
1462095742.824	 3	 0.219395	 2.765031	 -1.479640	 0.489983	 0.277183	 0.042625	 0.128873	 0.243024	 0.053976	 0.959905	 2
1462095742.844	 4	 0.824652	 3.802617	 -1.596752	 0.567035	 0.272291	 0.007709	 0.129238	 0.277646	 0.041633	 0.951040	 2
1462095742.854	 4	 0.923712	 4.400426	 -1.548356	 0.614601	 0.271120	 -0.011024	 0.130464	 0.298997	 0.035673	 0.944620	 2
1462095742.864	 4	 0.888114	 4.921300	 -1.456872	 0.667378	 0.269530	 -0.028949	 0.131631	 0.322689	 0.030450	 0.936813	 2
1462095742.874	 4	 0.746887	 5.429865	 -1.345399	 0.724817	 0.266755	 -0.045083	 0.132233	 0.348487	 0.026246	 0.927568	 2
1462095742.884	 4	 0.663773	 5.494658	 -1.390967	 0.783812	 0.262332	 -0.060188	 0.132213	 0.374861	 0.022364	 0.917332	 2
1462095742.894	 4	 0.670707	 5.478902	 -1.507342	 0.842474	 0.256144	 -0.075721	 0.131824	 0.400838	 0.017927	 0.906438	 2
1462095742.904	 4	 0.725759	 5.685505	 -1.595422	 0.902724	 0.248647	 -0.091751	 0.131317	 0.427252	 0.013084	 0.894450	 2
1462095742.914	 4	 0.861121	 6.007306	 -1.752405	 0.966005	 0.239807	 -0.109003	 0.130894	 0.454650	 0.007576	 0.880967	 2
1462095742.924	 4	 1.128909	 6.374241	 -1.938896	 1.033491	 0.229535	 -0.128633	 0.130903	 0.483389	 0.000947	 0.865563	 2
1462095742.934	 4	 1.450372	 6.505557	 -2.034261	 1.103262	 0.218451	 -0.150907	 0.131846	 0.512473	 -0.006852	 0.848493	 2
1462095742.944	 4	 1.749966	 6.480973	 -2.076531	 1.173393	 0.206714	 -0.175341	 0.133805	 0.541021	 -0.015629	 0.830150	 2
1462095742.954	 4	 1.990985	 6.286119	 -2.155046	 1.242055	 0.193639	 -0.201525	 0.136477	 0.568300	 -0.025463	 0.811025	 2
1462095742.964	 4	 2.104422	 5.976685	 -2.245240	 1.307572	 0.178471	 -0.228408	 0.139311	 0.593769	 -0.036249	 0.791655	 2
1462095742.974	 4	 2.055831	 5.730269	 -2.364344	 1.369763	 0.160551	 -0.254337	 0.141574	 0.617576	 -0.047593	 0.772199	 2
1462095742.984	 4	 1.945908	 5.652721	 -2.542090	 1.429979	 0.139363	 -0.278279	 0.142772	 0.640406	 -0.059265	 0.752319	 2
1462095742.994	 4	 1.894037	 5.711805	 -2.775557	 1.489634	 0.114460	 -0.300325	 0.142818	 0.662821	 -0.071472	 0.731549	 2
1462095743.004	 4	 2.007789	 5.834058	 -3.031193	 1.549795	 0.085921	 -0.321591	 0.142202	 0.685067	 -0.084627	 0.709436	 2
1462095743.014	 4	 2.281127	 5.880088	 -3.319834	 1.610174	 0.053204	 -0.343365	 0.141277	 0.706892	 -0.099466	 0.685894	 2
1462095743.024	 4	 2.593229	 5.486194	 -3.536172	 1.667080	 0.016696	 -0.366112	 0.140277	 0.726900	 -0.116294	 0.662129	 2
1462095743.034	 4	 2.754437	 4.748382	 -3.718160	 1.716517	 -0.023021	 -0.388754	 0.138769	 0.743859	 -0.134814	 0.639720	 2
1462095743.044	 4	 2.604724	 3.787417	 -3.997568	 1.756013	 -0.066095	 -0.408542	 0.135339	 0.757339	 -0.154385	 0.619909	 2
1462095743.054	 4	 2.162020	 2.706031	 -4.280875	 1.784620	 -0.111890	 -0.422638	 0.128727	 0.767375	 -0.174000	 0.603563	 2
1462095743.064	 4	 1.577297	 1.635452	 -4.598014	 1.802623	 -0.159737	 -0.429509	 0.118199	 0.774238	 -0.192954	 0.591061	 2
1462095743.084	 5	 0.641007	 0.084716	 -5.268262	 1.815814	 -0.262789	 -0.423548	 0.085425	 0.780913	 -0.229201	 0.574756	 2
1462095743.094	 5	 0.385725	 -0.239566	 -5.208308	 1.816524	 -0.314720	 -0.414725	 0.065987	 0.781859	 -0.245985	 0.569064	 2
1462095743.104	 5	 0.280119	 -0.305782	 -4.848843	 1.816776	 -0.363490	 -0.404981	 0.047075	 0.782037	 -0.261257	 0.563867	 2
1462095743.114	 5	 0.323201	 -0.228556	 -4.302829	 1.817456	 -0.407367	 -0.396452	 0.030197	 0.781781	 -0.274977	 0.558833	 2
1462095743.124	 5	 0.463606	 -0.086907	 -3.780510	 1.818588	 -0.446141	 -0.390564	 0.016004	 0.781263	 -0.287492	 0.553823	 2
1462095743.134	 5	 0.601986	 0.304860	 -3.528681	 1.822226	 -0.482265	 -0.386809	 0.003855	 0.781148	 -0.299566	 0.547771	 2
1462095743.144	 5	 0.746708	 0.691227	 -3.285484	 1.829064	 -0.516447	 -0.385059	 -0.006364	 0.781670	 -0.311459	 0.540320	 2
1462095743.154	 5	 0.856583	 1.013159	 -3.141698	 1.838506	 -0.549180	 -0.384826	 -0.015038	 0.782679	 -0.323247	 0.531694	 2
1462095743.164	 5	 1.044397	 1.235977	 -3.140194	 1.849834	 -0.582014	 -0.385980	 -0.022768	 0.783915	 -0.335458	 0.521945	 2
1462095743.174	 5	 1.313755	 1.105386	 -3.145886	 1.859218	 -0.615792	 -0.389972	 -0.029867	 0.784350	 -0.348704	 0.512161	 2
1462095743.184	 5	 1.387763	 0.878248	 -3.050594	 1.865276	 -0.649243	 -0.395391	 -0.036787	 0.783736	 -0.362083	 0.503290	 2
1462095743.194	 5	 1.317080	 0.679756	 -2.877041	 1.869230	 -0.681124	 -0.400843	 -0.043538	 0.782504	 -0.374783	 0.495308	 2
1462095743.204	 5	 1.166243	 0.425400	 -2.666008	 1.871227	 -0.710671	 -0.405392	 -0.050270	 0.780782	 -0.386299	 0.488494	 2
1462095743.214	 5	 1.025152	 0.182870	 -2.433634	 1.871208	 -0.737614	 -0.409040	 -0.056948	 0.778625	 -0.396543	 0.482964	 2
1462095743.224	 5	 0.909618	 -0.061942	 -2.212162	 1.869119	 -0.762028	 -0.412142	 -0.063498	 0.776069	 -0.405632	 0.478693	 2
1462095743.234	 5	 0.831415	 -0.304792	 -1.998457	 1.864565	 -0.784120	 -0.415114	 -0.069925	 0.773057	 -0.413728	 0.475734	 2
1462095743.244	 5	 0.794049	 -0.495574	 -1.775031	 1.857605	 -0.803970	 -0.418574	 -0.076030	 0.769651	 -0.421003	 0.473934	 2
1462095743.254	 5	 0.785662	 -0.690357	 -1.505001	 1.847835	 -0.821296	 -0.423196	 -0.081575	 0.765841	 -0.427504	 0.473364	 2
1462095743.264	 5	 0.765706	 -0.885853	 -1.191181	 1.835085	 -0.835614	 -0.429147	 -0.086407	 0.761668	 -0.433108	 0.474145	 2
1462095743.274	 5	 0.738357	 -1.082242	 -0.857055	 1.819365	 -0.846612	 -0.436395	 -0.090455	 0.757175	 -0.437723	 0.476343	 2
1462095743.294	 6	 0.666925	 -1.457481	 -0.123483	 1.779548	 -0.857597	 -0.454044	 -0.096015	 0.747379	 -0.443618	 0.485190	 2
1462095743.304	 6	 0.663651	 -1.543189	 0.229581	 1.756431	 -0.857479	 -0.464404	 -0.097255	 0.742245	 -0.444994	 0.491522	 2
1462095743.314	 6	 0.693847	 -1.486989	 0.511202	 1.732670	 -0.854269	 -0.475865	 -0.097274	 0.737199	 -0.445688	 0.498435	 2
1462095743.324	 6	 0.627558	 -1.251156	 0.737784	 1.710823	 -0.848506	 -0.487338	 -0.096051	 0.732741	 -0.445762	 0.505135	 2
1462095743.335	 6	 0.554997	 -0.967617	 0.940352	 1.692749	 -0.840405	 -0.497578	 -0.093667	 0.729251	 -0.445079	 0.511199	 2
1462095743.344	 6	 0.528331	 -0.683143	 1.143594	 1.678063	 -0.830187	 -0.507284	 -0.090003	 0.726649	 -0.443865	 0.516589	 2
1462095743.355	 6	 0.507431	 -0.561183	 1.379379	 1.665351	 -0.817532	 -0.516780	 -0.085136	 0.724598	 -0.442043	 0.521831	 2
1462095743.365	 6	 0.385942	 -0.535213	 1.391336	 1.654043	 -0.803971	 -0.524754	 -0.080171	 0.722786	 -0.439689	 0.527093	 2
1462095743.375	 6	 0.121999	 -0.355987	 1.359066	 1.646839	 -0.790540	 -0.529091	 -0.075631	 0.721804	 -0.436626	 0.531636	 2
1462095743.385	 6	 -0.300674	 -0.143103	 1.357267	 1.645628	 -0.776871	 -0.527964	 -0.071655	 0.722165	 -0.432274	 0.535241	 2
1462095743.394	 6	 -0.946812	 0.247698	 1.305781	 1.653457	 -0.763075	 -0.518702	 -0.068641	 0.724655	 -0.425985	 0.537309	 2
1462095743.404	 6	 -1.639963	 0.694420	 1.173161	 1.672270	 -0.749691	 -0.499955	 -0.066976	 0.729784	 -0.417559	 0.537191	 2
1462095743.415	 6	 -1.857846	 0.967673	 1.072090	 1.696954	 -0.736740	 -0.476823	 -0.066037	 0.736366	 -0.408186	 0.535526	 2
1462095743.424	 6	 -1.552932	 1.129519	 1.073073	 1.721304	 -0.723956	 -0.456726	 -0.064340	 0.742985	 -0.399575	 0.533078	 2
1462095743.434	 6	 -0.903704	 1.245202	 1.300833	 1.740941	 -0.710059	 -0.445267	 -0.060198	 0.748717	 -0.392663	 0.530673	 2
1462095743.445	 6	 -0.276088	 1.555372	 1.498618	 1.756921	 -0.694975	 -0.443158	 -0.053004	 0.753828	 -0.387625	 0.527902	 2
1462095743.455	 6	 0.129784	 2.300884	 1.505218	 1.775123	 -0.680212	 -0.447576	 -0.043092	 0.759617	 -0.384334	 0.522889	 2
1462095743.465	 6	 0.372851	 2.753868	 1.441240	 1.796844	 -0.666589	 -0.455438	 -0.031608	 0.766209	 -0.382216	 0.515593	 2
1462095743.475	 6	 0.670193	 2.792346	 1.294065	 1.818107	 -0.654994	 -0.466669	 -0.019588	 0.772454	 -0.381432	 0.507387	 2
1462095743.485	 6	 1.058344	 2.401901	 1.143175	 1.833882	 -0.646013	 -0.482055	 -0.007820	 0.777025	 -0.382348	 0.499982	 2
1462095743.495	 6	 1.292378	 2.106889	 1.037144	 1.844536	 -0.639125	 -0.500642	 0.003590	 0.780048	 -0.384615	 0.493542	 2
1462095743.505	 6	 1.288729	 1.882707	 0.922119	 1.852653	 -0.633457	 -0.519382	 0.014223	 0.782231	 -0.387232	 0.487814	 2
1462095743.524	 6	 1.510644	 1.535541	 0.513033	 1.863201	 -0.628696	 -0.557491	 0.032676	 0.784540	 -0.394673	 0.477141	 2
1462095743.515	 6	 1.370191	 1.679942	 0.714897	 1.858988	 -0.629858	 -0.538030	 0.023862	 0.783754	 -0.390461	 0.482390	 2
1462095743.535	 6	 1.647399	 1.481820	 0.347215	 1.866085	 -0.629689	 -0.577956	 0.040973	 0.784807	 -0.399813	 0.471751	 2
1462095743.545	 6	 1.751543	 1.492319	 0.223843	 1.868183	 -0.632319	 -0.599381	 0.048996	 0.784719	 -0.405680	 0.466089	 2
1462095743.555	 6	 1.823672	 1.512401	 0.089116	 1.870521	 -0.636394	 -0.621185	 0.056777	 0.784542	 -0.412038	 0.459887	 2
1462095743.564	 6	 2.093828	 1.420336	 -0.030261	 1.870502	 -0.642412	 -0.645227	 0.064350	 0.783614	 -0.419539	 0.453646	 2
1462095743.575	 6	 2.219511	 1.626035	 -0.067809	 1.870381	 -0.649528	 -0.671297	 0.072343	 0.782483	 -0.427763	 0.446660	 2
1462095743.585	 6	 2.227506	 1.970559	 -0.076396	 1.873141	 -0.656824	 -0.697775	 0.081047	 0.781879	 -0.435903	 0.438275	 2
1462095743.595	 6	 2.260708	 2.253113	 -0.113489	 1.878569	 -0.664559	 -0.724584	 0.090341	 0.781711	 -0.443988	 0.428533	 2
1462095743.605	 6	 2.251015	 2.349995	 -0.251052	 1.885510	 -0.673450	 -0.751182	 0.099560	 0.781709	 -0.452141	 0.417836	 2
1462095743.625	 7	 1.680301	 1.845712	 -0.939258	 1.900334	 -0.698317	 -0.794093	 0.112126	 0.781893	 -0.467971	 0.396326	 2
1462095743.635	 7	 1.122764	 1.492514	 -1.175355	 1.909036	 -0.713127	 -0.804862	 0.113866	 0.782635	 -0.474226	 0.386816	 2
1462095743.655	 8	 0.371539	 0.955077	 -0.787995	 1.926417	 -0.735037	 -0.811273	 0.113870	 0.784966	 -0.481289	 0.373126	 2
1462095743.665	 8	 0.228518	 1.177443	 -0.249668	 1.936601	 -0.739552	 -0.812534	 0.115455	 0.786638	 -0.482347	 0.367712	 2
1462095743.675	 8	 0.222174	 1.531192	 0.420846	 1.948296	 -0.738070	 -0.816626	 0.120331	 0.788580	 -0.481940	 0.362485	 2
1462095743.685	 8	 0.117942	 1.845859	 0.942642	 1.961818	 -0.730933	 -0.822701	 0.128113	 0.790869	 -0.479947	 0.357442	 2
1462095743.695	 8	 -0.240362	 2.360412	 1.205268	 1.981231	 -0.719761	 -0.827082	 0.137792	 0.794376	 -0.475882	 0.351449	 2
1462095743.705	 8	 -0.508740	 2.443390	 1.245678	 2.005047	 -0.706466	 -0.828244	 0.147769	 0.798862	 -0.470102	 0.344945	 2
1462095743.715	 8	 -0.543330	 1.889423	 1.255745	 2.025247	 -0.692881	 -0.828901	 0.156662	 0.802702	 -0.464239	 0.340014	 2
1462095743.725	 8	 -0.661900	 1.190947	 1.251344	 2.038591	 -0.678862	 -0.829063	 0.163795	 0.805384	 -0.458561	 0.338008	 2
1462095743.735	 8	 -1.056386	 0.564804	 1.283056	 2.048027	 -0.663277	 -0.825660	 0.168967	 0.807724	 -0.451992	 0.338726	 2
1462095743.755	 8	 -1.533308	 -0.973031	 1.256912	 2.049306	 -0.626875	 -0.809432	 0.172878	 0.810288	 -0.436745	 0.350428	 2
1462095743.765	 8	 -1.704663	 -1.370834	 1.039418	 2.043274	 -0.609616	 -0.797511	 0.171557	 0.810634	 -0.429224	 0.359455	 2
1462095743.775	 8	 -2.106050	 -1.439495	 1.089168	 2.037710	 -0.591178	 -0.781834	 0.169165	 0.811328	 -0.420463	 0.369245	 2
1462095743.745	 8	 -1.397183	 -0.246318	 1.348816	 2.051907	 -0.645291	 -0.818629	 0.172033	 0.809482	 -0.444390	 0.343017	 2
1462095743.785	 8	 -2.403160	 -1.156103	 1.180719	 2.035677	 -0.570141	 -0.762781	 0.166871	 0.812930	 -0.409719	 0.378720	 2
1462095743.795	 8	 -1.877259	 -0.819880	 1.263464	 2.034887	 -0.549807	 -0.747604	 0.166190	 0.814373	 -0.399697	 0.386550	 2
1462095743.805	 8	 -0.888325	 -0.627410	 1.217211	 2.030916	 -0.533651	 -0.742171	 0.167675	 0.814273	 -0.393219	 0.392712	 2
1462095743.815	 8	 -0.035167	 -0.434991	 1.109260	 2.024411	 -0.522423	 -0.745557	 0.170899	 0.812820	 -0.390434	 0.397088	 2
1462095743.825	 8	 0.530801	 -0.282022	 1.018363	 2.016492	 -0.514798	 -0.755036	 0.175327	 0.810474	 -0.390295	 0.400078	 2
1462095743.835	 8	 0.708256	 0.173383	 0.821758	 2.011165	 -0.509828	 -0.766480	 0.180308	 0.808406	 -0.391299	 0.401065	 2
1462095743.845	 9	 0.601881	 0.983824	 0.481721	 2.014256	 -0.507307	 -0.775946	 0.185445	 0.808161	 -0.392018	 0.398507	 2
1462095743.865	 9	 0.435012	 2.150757	 -0.736922	 2.050153	 -0.516171	 -0.782278	 0.192607	 0.814532	 -0.393006	 0.380771	 2
1462095743.875	 9	 0.733110	 1.387948	 -1.084474	 2.065425	 -0.529396	 -0.783463	 0.192501	 0.817194	 -0.396481	 0.371404	 2
1462095743.885	 9	 0.891523	 0.763711	 -1.299485	 2.073488	 -0.544489	 -0.785402	 0.190810	 0.818321	 -0.401455	 0.364385	 2
1462095743.895	 9	 0.831547	 0.188257	 -1.475906	 2.076463	 -0.561205	 -0.786062	 0.187154	 0.818547	 -0.407246	 0.359312	 2
1462095743.905	 9	 0.597097	 -0.319268	 -1.595821	 2.075649	 -0.578132	 -0.783946	 0.181525	 0.818282	 -0.412945	 0.356286	 2
1462095743.915	 9	 0.269499	 -0.929363	 -1.670058	 2.070151	 -0.594925	 -0.778707	 0.173659	 0.817396	 -0.418426	 0.355846	 2
1462095743.925	 9	 -0.063658	 -1.572535	 -1.761600	 2.061595	 -0.610286	 -0.768854	 0.163618	 0.816305	 -0.422782	 0.357955	 2
1462095743.935	 9	 -0.306858	 -2.159508	 -1.840614	 2.048984	 -0.625268	 -0.755714	 0.151433	 0.814630	 -0.426642	 0.362522	 2
1462095743.955	 10	 -0.674517	 -2.472449	 -1.875495	 2.020082	 -0.653568	 -0.722510	 0.123782	 0.810609	 -0.432319	 0.375090	 2
1462095743.965	 10	 -0.779885	 -2.386215	 -1.906814	 2.007613	 -0.667484	 -0.703550	 0.109443	 0.808797	 -0.434253	 0.381174	 2
1462095743.975	 10	 -0.787992	 -2.239890	 -1.972524	 1.997087	 -0.681921	 -0.683879	 0.095067	 0.807139	 -0.435972	 0.386544	 2
1462095743.985	 10	 -0.732610	 -1.985237	 -2.034583	 1.988992	 -0.697279	 -0.664303	 0.080980	 0.805670	 -0.437785	 0.390747	 2
1462095743.995	 10	 -0.597913	 -1.643723	 -2.113575	 1.983774	 -0.713828	 -0.645571	 0.067510	 0.804438	 -0.439964	 0.393388	 2
1462095744.005	 10	 -0.383213	 -1.264542	 -2.246202	 1.981657	 -0.732341	 -0.628419	 0.054788	 0.803428	 -0.442971	 0.394053	 2
1462095744.015	 10	 -0.176071	 -1.146843	 -2.358816	 1.980485	 -0.752820	 -0.612992	 0.042404	 0.802211	 -0.446939	 0.393579	 2
1462095744.025	 10	 -0.012351	 -1.176927	 -2.480953	 1.978609	 -0.775073	 -0.598866	 0.029879	 0.800480	 -0.451753	 0.392757	 2
1462095744.035	 10	 0.143916	 -1.172157	 -2.640002	 1.976124	 -0.799362	 -0.585690	 0.017015	 0.798225	 -0.457412	 0.391562	 2
1462095744.045	 10	 0.282559	 -1.058840	 -2.797887	 1.974262	 -0.825704	 -0.573229	 0.003995	 0.795667	 -0.463848	 0.389542	 2
1462095744.055	 10	 0.411857	 -0.917607	 -2.923459	 1.973482	 -0.853818	 -0.561470	 -0.008989	 0.792891	 -0.470963	 0.386570	 2
1462095744.065	 10	 0.563731	 -0.769812	 -3.015061	 1.973515	 -0.883405	 -0.550782	 -0.021751	 0.789853	 -0.478731	 0.382721	 2
1462095744.075	 10	 0.728201	 -0.484468	 -3.054337	 1.975019	 -0.914155	 -0.541718	 -0.033813	 0.786705	 -0.487163	 0.377655	 2
1462095744.085	 10	 0.882398	 -0.223678	 -2.963729	 1.977564	 -0.944987	 -0.534963	 -0.044682	 0.783504	 -0.496029	 0.371591	 2
1462095744.095	 10	 1.041855	 -0.062162	 -2.773908	 1.979511	 -0.974913	 -0.531456	 -0.054120	 0.780127	 -0.505130	 0.365125	 2
1462095744.105	 10	 1.124319	 -0.246411	 -2.481125	 1.977771	 -1.002844	 -0.531547	 -0.062497	 0.776244	 -0.514052	 0.359569	 2
1462095744.115	 10	 0.999131	 -1.145783	 -2.031192	 1.967112	 -1.026755	 -0.533782	 -0.071231	 0.771251	 -0.521660	 0.357728	 2
1462095744.135	 11	 0.369377	 -2.551574	 -0.925068	 1.919165	 -1.056167	 -0.537005	 -0.091134	 0.758753	 -0.529367	 0.368455	 2
1462095744.145	 11	 0.120610	 -2.293220	 -0.453694	 1.895807	 -1.062076	 -0.536562	 -0.099233	 0.753602	 -0.529949	 0.376020	 2
1462095744.165	 12	 0.018088	 -2.005692	 -0.006769	 1.855893	 -1.064474	 -0.535599	 -0.110874	 0.745590	 -0.528376	 0.390667	 2
1462095744.175	 12	 0.134569	 -2.221744	 0.021113	 1.832487	 -1.064570	 -0.537711	 -0.116297	 0.741079	 -0.527491	 0.398786	 2
1462095744.185	 12	 0.302834	 -2.496864	 -0.008490	 1.803603	 -1.065182	 -0.542913	 -0.122180	 0.735489	 -0.526994	 0.407929	 2
1462095744.195	 12	 0.470752	 -2.575596	 -0.090617	 1.770504	 -1.066758	 -0.551331	 -0.128314	 0.729000	 -0.527099	 0.417445	 2
1462095744.205	 12	 0.586391	 -2.381207	 -0.225167	 1.736652	 -1.069637	 -0.562075	 -0.134262	 0.722242	 -0.527930	 0.426181	 2
1462095744.215	 12	 0.659930	 -2.022185	 -0.407909	 1.704744	 -1.074147	 -0.574272	 -0.139771	 0.715738	 -0.529566	 0.433294	 2
1462095744.225	 12	 0.701689	 -1.573011	 -0.638560	 1.676344	 -1.080709	 -0.587358	 -0.144796	 0.709809	 -0.532095	 0.438269	 2
1462095744.235	 12	 0.709208	 -1.098593	 -0.921967	 1.652293	 -1.089810	 -0.600793	 -0.149482	 0.704618	 -0.535571	 0.440831	 2
1462095744.245	 12	 0.712303	 -0.621280	 -1.247939	 1.632724	 -1.101917	 -0.614476	 -0.153989	 0.700193	 -0.540069	 0.440843	 2
1462095744.255	 12	 0.742725	 -0.191207	 -1.623613	 1.616687	 -1.117545	 -0.629088	 -0.158504	 0.696362	 -0.545752	 0.438305	 2
1462095744.265	 12	 0.796198	 0.187408	 -2.045795	 1.602769	 -1.137213	 -0.645544	 -0.163270	 0.692862	 -0.552766	 0.433283	 2
1462095744.275	 12	 0.852700	 0.518249	 -2.454592	 1.589825	 -1.160964	 -0.664556	 -0.168379	 0.689521	 -0.561087	 0.425900	 2
1462095744.285	 12	 0.895768	 0.665561	 -2.803167	 1.575860	 -1.188277	 -0.686712	 -0.174034	 0.686045	 -0.570425	 0.416737	 2
1462095744.295	 12	 0.897836	 0.428516	 -3.076094	 1.557306	 -1.218372	 -0.712093	 -0.181008	 0.681841	 -0.580162	 0.407112	 2
1462095744.305	 12	 0.842199	 -0.131003	 -3.253470	 1.530482	 -1.250283	 -0.740730	 -0.190134	 0.676388	 -0.589575	 0.398435	 2
1462095744.315	 12	 0.704725	 -0.714986	 -3.317389	 1.494943	 -1.282870	 -0.771939	 -0.201504	 0.669803	 -0.598045	 0.391283	 2
1462095744.325	 12	 0.415633	 -1.158592	 -3.298751	 1.455224	 -1.315307	 -0.802216	 -0.214723	 0.662814	 -0.605029	 0.385372	 2
1462095744.345	 13	 -0.637326	 -1.800962	 -2.984358	 1.401548	 -1.378335	 -0.824252	 -0.246009	 0.650669	 -0.611990	 0.376268	 2
1462095744.355	 13	 -1.266879	 -1.569616	 -2.431053	 1.423259	 -1.405687	 -0.785340	 -0.261577	 0.647686	 -0.611117	 0.372313	 2
1462095744.365	 13	 -1.746180	 -0.880914	 -1.670175	 1.504112	 -1.426013	 -0.692652	 -0.273926	 0.648196	 -0.607824	 0.367909	 2
1462095744.375	 13	 -2.016671	 -0.035468	 -0.917116	 1.641477	 -1.436964	 -0.551467	 -0.281808	 0.652147	 -0.603124	 0.362671	 2
1462095744.385	 13	 -2.274605	 0.679960	 -0.341228	 1.814649	 -1.438209	 -0.381963	 -0.285772	 0.659010	 -0.597493	 0.356430	 2
1462095744.395	 13	 -2.677382	 1.140440	 0.073685	 2.001912	 -1.429867	 -0.203448	 -0.287282	 0.668444	 -0.590496	 0.349236	 2
1462095744.405	 13	 -3.064619	 1.442026	 0.290884	 2.179240	 -1.412857	 -0.038003	 -0.287561	 0.679897	 -0.582000	 0.341065	 2
1462095744.415	 13	 -3.265015	 1.714921	 0.294103	 2.330648	 -1.390053	 0.098904	 -0.287188	 0.692412	 -0.572784	 0.331674	 2
1462095744.425	 13	 -3.336512	 2.086148	 0.122329	 2.459296	 -1.364446	 0.209761	 -0.286367	 0.705339	 -0.563733	 0.320461	 2
1462095744.435	 13	 -3.254566	 2.503960	 -0.163318	 2.572795	 -1.338288	 0.301443	 -0.285116	 0.718177	 -0.555603	 0.306979	 2
1462095744.445	 13	 -2.899559	 2.943930	 -0.509754	 2.675483	 -1.314239	 0.378082	 -0.283323	 0.730116	 -0.549375	 0.291283	 2
1462095744.465	 14	 -1.951735	 3.365558	 -1.238801	 2.864811	 -1.278402	 0.506849	 -0.278964	 0.748877	 -0.544220	 0.255317	 2
1462095744.475	 14	 -1.611086	 3.366189	 -1.453848	 2.955614	 -1.265214	 0.566589	 -0.277169	 0.755651	 -0.544297	 0.236454	 2
1462095744.485	 14	 -1.427436	 3.223644	 -1.529245	 3.041429	 -1.252889	 0.622370	 -0.275676	 0.761255	 -0.544993	 0.217890	 2
1462095744.495	 14	 -1.362652	 2.888778	 -1.479632	 3.116331	 -1.240059	 0.670154	 -0.274541	 0.766124	 -0.545320	 0.200769	 2
1462095744.505	 14	 -1.362838	 2.503722	 -1.337204	 -3.101957	 -1.226361	 0.711428	 -0.274069	 0.770446	 -0.544984	 0.185182	 2
1462095744.515	 14	 -1.361512	 2.222810	 -1.206609	 -3.048036	 -1.211921	 0.744500	 -0.273819	 0.774510	 -0.543943	 0.171123	 2
1462095744.525	 14	 -1.375100	 2.043220	 -1.190044	 -3.000636	 -1.196973	 0.772971	 -0.273899	 0.778304	 -0.542471	 0.157947	 2
1462095744.535	 14	 -1.542593	 1.859441	 -1.226531	 -2.957633	 -1.180311	 0.798712	 -0.274600	 0.782114	 -0.540207	 0.145154	 2
1462095744.545	 14	 -1.890484	 1.431634	 -1.253062	 -2.921708	 -1.160239	 0.820770	 -0.276529	 0.786312	 -0.536190	 0.133210	 2
1462095744.555	 14	 -2.338188	 0.652116	 -1.272403	 -2.896971	 -1.135674	 0.838366	 -0.280641	 0.791029	 -0.529442	 0.123307	 2
1462095744.565	 14	 -2.726785	 -0.332281	 -1.213169	 -2.886565	 -1.107033	 0.850891	 -0.287357	 0.796147	 -0.519581	 0.116665	 2
1462095744.575	 14	 -2.855182	 -1.062940	 -0.966264	 -2.889935	 -1.076921	 0.857270	 -0.295462	 0.801409	 -0.507515	 0.113464	 2
1462095744.585	 14	 -2.643116	 -1.294158	 -0.498129	 -2.903563	 -1.049015	 0.856263	 -0.302725	 0.806563	 -0.495033	 0.112945	 2
1462095744.595	 14	 -2.202847	 -0.961659	 0.062788	 -2.921977	 -1.026272	 0.847336	 -0.306962	 0.811517	 -0.484063	 0.113569	 2
1462095744.605	 14	 -1.767955	 -0.293008	 0.481937	 -2.939230	 -1.008772	 0.832618	 -0.307574	 0.816340	 -0.475492	 0.113551	 2
1462095744.615	 14	 -1.434131	 0.405152	 0.676298	 -2.951279	 -0.995219	 0.815489	 -0.305239	 0.821021	 -0.469319	 0.111777	 2
1462095744.625	 14	 -1.211798	 0.929953	 0.680311	 -2.957037	 -0.984114	 0.798885	 -0.301201	 0.825456	 -0.464982	 0.108131	 2
1462095744.635	 14	 -1.061296	 1.242584	 0.584926	 -2.957199	 -0.974465	 0.784502	 -0.296521	 0.829530	 -0.461886	 0.103038	 2
1462095744.645	 14	 -0.940725	 1.340263	 0.463288	 -2.953618	 -0.965843	 0.772732	 -0.291891	 0.833158	 -0.459559	 0.097224	 2
1462095744.655	 14	 -0.796210	 1.292317	 0.363533	 -2.948201	 -0.958374	 0.763369	 -0.287678	 0.836247	 -0.457792	 0.091428	 2
1462095744.665	 14	 -0.598468	 1.169107	 0.320166	 -2.942496	 -0.952616	 0.755616	 -0.283848	 0.838739	 -0.456636	 0.086203	 2
1462095744.675	 14	 -0.356038	 0.990692	 0.308935	 -2.937563	 -0.949140	 0.748942	 -0.280356	 0.840567	 -0.456212	 0.081970	 2
1462095744.685	 14	 -0.118710	 0.845406	 0.317240	 -2.933597	 -0.948060	 0.743040	 -0.277103	 0.841759	 -0.456566	 0.078757	 2
1462095744.695	 14	 0.109307	 0.788201	 0.294473	 -2.929621	 -0.949198	 0.738133	 -0.273986	 0.842367	 -0.457764	 0.076169	 2
1462095744.705	 14	 0.335507	 0.803285	 0.266000	 -2.924556	 -0.952497	 0.734576	 -0.270909	 0.842398	 -0.459918	 0.073820	 2
1462095744.715	 14	 0.665649	 0.930615	 0.211022	 -2.916987	 -0.958608	 0.732908	 -0.267679	 0.841701	 -0.463460	 0.071360	 2
1462095744.725	 14	 1.076952	 1.108426	 0.109979	 -2.905109	 -0.968367	 0.734419	 -0.264276	 0.839997	 -0.468903	 0.068502	 2
1462095744.735	 14	 1.519407	 1.180182	 -0.082911	 -2.887932	 -0.981957	 0.741020	 -0.261161	 0.837023	 -0.476355	 0.065372	 2
1462095744.745	 14	 1.938755	 1.147402	 -0.326664	 -2.865072	 -0.998978	 0.754480	 -0.258896	 0.832631	 -0.485613	 0.062275	 2
1462095744.755	 14	 2.295636	 1.176867	 -0.519202	 -2.836204	 -1.018783	 0.774937	 -0.257363	 0.826942	 -0.496417	 0.059164	 2
1462095744.765	 14	 2.581812	 1.487250	 -0.576357	 -2.799992	 -1.040791	 0.800965	 -0.255506	 0.820293	 -0.508710	 0.055226	 2
1462095744.775	 14	 2.820506	 2.036900	 -0.512572	 -2.755079	 -1.064725	 0.830896	 -0.252082	 0.812986	 -0.522536	 0.049640	 2
1462095744.785	 14	 2.921060	 2.692422	 -0.425284	 -2.700578	 -1.089588	 0.864147	 -0.246526	 0.805299	 -0.537553	 0.041892	 2
1462095744.795	 14	 2.631605	 3.298632	 -0.402202	 -2.637303	 -1.112153	 0.899608	 -0.239012	 0.797924	 -0.552451	 0.031433	 2
1462095744.805	 14	 1.781198	 3.111712	 -0.414655	 -2.576557	 -1.127390	 0.931208	 -0.231360	 0.792238	 -0.564304	 0.019816	 2
1462095744.815	 14	 0.904453	 2.103670	 -0.439849	 -2.531933	 -1.134298	 0.954241	 -0.226237	 0.788745	 -0.571479	 0.010464	 2
1462095744.825	 14	 -0.298445	 0.930871	 -0.436025	 -2.511750	 -1.132040	 0.963068	 -0.224466	 0.788204	 -0.573001	 0.004450	 2
1462095744.835	 14	 -1.410475	 0.216456	 -0.399952	 -2.515646	 -1.120078	 0.954835	 -0.225114	 0.791098	 -0.568760	 0.000545	 2
1462095744.845	 14	 -1.706202	 -0.019105	 -0.149115	 -2.531697	 -1.105090	 0.936787	 -0.225932	 0.795614	 -0.562094	 -0.002023	 2
1462095744.855	 14	 -1.478438	 0.071743	 -0.142793	 -2.546459	 -1.091581	 0.919789	 -0.226315	 0.799804	 -0.555946	 -0.004285	 2
1462095744.865	 14	 -1.083525	 0.226593	 -0.043543	 -2.555817	 -1.081149	 0.907116	 -0.226131	 0.803005	 -0.551365	 -0.006631	 2
1462095744.875	 14	 -0.556522	 0.210847	 0.197913	 -2.562626	 -1.076199	 0.896666	 -0.224882	 0.805039	 -0.548887	 -0.007984	 2
1462095744.885	 14	 -0.121456	 -0.159945	 0.283396	 -2.569735	 -1.075803	 0.889205	 -0.223912	 0.805970	 -0.547926	 -0.007263	 2
1462095744.895	 14	 0.214863	 -0.518821	 0.212117	 -2.576445	 -1.078279	 0.886583	 -0.224163	 0.805861	 -0.548012	 -0.004678	 2
1462095744.905	 14	 0.415187	 -0.684288	 0.062824	 -2.580903	 -1.081922	 0.888985	 -0.225574	 0.804972	 -0.548758	 -0.001345	 2
1462095744.915	 14	 0.659175	 -0.481317	 -0.009884	 -2.580645	 -1.086948	 0.895637	 -0.227103	 0.803352	 -0.550498	 0.001595	 2
1462095744.925	 14	 0.977379	 0.239907	 -0.014469	 -2.570807	 -1.094408	 0.906396	 -0.227091	 0.800855	 -0.554125	 0.002441	 2
1462095744.935	 14	 1.229694	 1.173606	 0.066626	 -2.549312	 -1.104492	 0.919871	 -0.224270	 0.797626	 -0.559906	 0.000098	 2
1462095744.945	 14	 1.115312	 1.476939	 0.195138	 -2.523834	 -1.115064	 0.931914	 -0.219506	 0.794484	 -0.566212	 -0.003995	 2
1462095744.955	 14	 0.594291	 0.594870	 0.377975	 -2.511484	 -1.123009	 0.935804	 -0.215715	 0.792704	 -0.570135	 -0.005771	 2
1462095744.965	 14	 -0.069407	 -0.918375	 0.587088	 -2.524813	 -1.126903	 0.926971	 -0.215117	 0.793025	 -0.569940	 -0.002016	 2
1462095744.975	 14	 -0.606434	 -2.217630	 0.728881	 -2.561846	 -1.126866	 0.907238	 -0.217807	 0.795121	 -0.565944	 0.007075	 2
1462095744.985	 14	 -0.918157	 -2.930295	 0.743081	 -2.612619	 -1.123527	 0.881874	 -0.222706	 0.798184	 -0.559401	 0.019357	 2
1462095744.995	 14	 -0.838366	 -3.003565	 0.498711	 -2.662246	 -1.118510	 0.860495	 -0.228978	 0.800908	 -0.552346	 0.032086	 2
1462095745.005	 14	 -0.240940	 -1.824423	 0.391511	 -2.695959	 -1.116449	 0.847960	 -0.233631	 0.802137	 -0.547956	 0.041682	 2
1462095745.015	 14	 0.570495	 0.455169	 0.464275	 -2.701368	 -1.121803	 0.842837	 -0.232037	 0.801558	 -0.549326	 0.043638	 2
1462095745.025	 14	 0.840199	 1.356870	 0.393582	 -2.689926	 -1.130939	 0.841839	 -0.226730	 0.800093	 -0.553876	 0.040813	 2
1462095745.035	 14	 0.817150	 1.233629	 0.110209	 -2.672682	 -1.139206	 0.846555	 -0.222207	 0.798252	 -0.558608	 0.037087	 2
1462095745.045	 14	 0.721334	 0.715145	 -0.291311	 -2.652908	 -1.145002	 0.858788	 -0.220384	 0.796103	 -0.562582	 0.033952	 2
1462095745.055	 14	 0.567691	 0.016321	 -0.797384	 -2.631587	 -1.147153	 0.880065	 -0.222389	 0.793680	 -0.565325	 0.031977	 2
1462095745.065	 14	 0.388582	 -0.613619	 -1.348422	 -2.608262	 -1.144879	 0.910758	 -0.228427	 0.791018	 -0.566708	 0.030880	 2
1462095745.075	 14	 0.242420	 -1.074301	 -1.866200	 -2.582374	 -1.138162	 0.949953	 -0.238029	 0.788061	 -0.566917	 0.030109	 2
1462095745.085	 14	 0.568725	 -0.685716	 -2.123339	 -2.548491	 -1.130454	 0.996947	 -0.248634	 0.784160	 -0.567875	 0.028145	 2
1462095745.095	 14	 1.375918	 0.369472	 -1.931909	 -2.498222	 -1.128410	 1.051192	 -0.255972	 0.778289	 -0.572883	 0.023430	 2
1462095745.105	 14	 1.890436	 0.713585	 -1.499421	 -2.441232	 -1.132386	 1.106753	 -0.260066	 0.771138	 -0.580835	 0.018494	 2
1462095745.115	 14	 2.198939	 0.667333	 -1.152968	 -2.384075	 -1.140005	 1.162227	 -0.262624	 0.763366	 -0.589979	 0.015032	 2
1462095745.125	 14	 2.427882	 0.468396	 -0.773138	 -2.327973	 -1.150715	 1.217906	 -0.264145	 0.755177	 -0.599793	 0.013546	 2
1462095745.135	 14	 2.516605	 0.056269	 -0.514502	 -2.275457	 -1.163159	 1.273539	 -0.265623	 0.746892	 -0.609414	 0.014545	 2
1462095745.145	 14	 2.614927	 -0.260991	 -0.370169	 -2.223765	 -1.176266	 1.331725	 -0.267502	 0.738380	 -0.618816	 0.017448	 2
1462095745.155	 14	 2.732407	 -0.377164	 -0.209211	 -2.170069	 -1.190015	 1.393645	 -0.269317	 0.729575	 -0.628269	 0.021603	 2
1462095745.165	 14	 2.667091	 -0.600922	 0.002428	 -2.116768	 -1.204254	 1.456549	 -0.270829	 0.720901	 -0.637357	 0.027009	 2
1462095745.175	 14	 2.392562	 -0.987431	 0.126981	 -2.070211	 -1.217462	 1.515817	 -0.272946	 0.712993	 -0.644975	 0.033886	 2
1462095745.185	 14	 2.074384	 -1.287152	 0.174922	 -2.031780	 -1.228892	 1.569620	 -0.275885	 0.706016	 -0.650915	 0.041693	 2
1462095745.195	 14	 1.779547	 -1.553447	 0.148367	 -2.000942	 -1.238303	 1.618063	 -0.279763	 0.699848	 -0.655320	 0.050012	 2
1462095745.205	 14	 1.516747	 -1.789215	 0.090910	 -1.977200	 -1.245688	 1.661477	 -0.284664	 0.694334	 -0.658353	 0.058634	 2
1462095745.215	 14	 1.299438	 -1.908961	 0.063978	 -1.959609	 -1.251524	 1.699926	 -0.290232	 0.689390	 -0.660283	 0.067323	 2
1462095745.225	 14	 1.150065	 -1.930611	 0.098116	 -1.946489	 -1.256789	 1.734073	 -0.295881	 0.684923	 -0.661482	 0.076001	 2
1462095745.235	 14	 1.081097	 -1.852710	 0.105836	 -1.934771	 -1.261712	 1.766073	 -0.301289	 0.680712	 -0.662372	 0.084377	 2
1462095745.245	 14	 1.081298	 -1.789075	 0.080848	 -1.921907	 -1.266327	 1.798469	 -0.306480	 0.676480	 -0.663252	 0.092426	 2
1462095745.255	 14	 1.121598	 -1.778052	 0.003865	 -1.906460	 -1.270307	 1.833259	 -0.311753	 0.671981	 -0.664235	 0.100216	 2
1462095745.265	 14	 1.188428	 -1.782140	 -0.092674	 -1.887618	 -1.273398	 1.871639	 -0.317307	 0.667056	 -0.665382	 0.107795	 2
1462095745.275	 14	 1.259004	 -1.703001	 -0.151169	 -1.864721	 -1.275814	 1.913656	 -0.322833	 0.661734	 -0.666818	 0.115066	 2
1462095745.285	 14	 1.296022	 -1.518294	 -0.186008	 -1.837856	 -1.277684	 1.958130	 -0.327894	 0.656209	 -0.668621	 0.121747	 2
1462095745.295	 14	 1.305726	 -1.251525	 -0.209189	 -1.807447	 -1.278962	 2.003699	 -0.332175	 0.650681	 -0.670826	 0.127538	 2
1462095745.305	 14	 1.318819	 -0.941193	 -0.237322	 -1.773199	 -1.279594	 2.050093	 -0.335487	 0.645218	 -0.673534	 0.132266	 2
1462095745.315	 14	 1.333014	 -0.617091	 -0.272797	 -1.734969	 -1.279436	 2.097294	 -0.337796	 0.639819	 -0.676807	 0.135861	 2
1462095745.325	 14	 1.342856	 -0.303675	 -0.316860	 -1.693184	 -1.278331	 2.144903	 -0.339142	 0.634493	 -0.680641	 0.138308	 2
1462095745.335	 14	 1.370744	 -0.010523	 -0.361269	 -1.648001	 -1.276196	 2.192963	 -0.339585	 0.629190	 -0.685049	 0.139681	 2
1462095745.345	 14	 1.429643	 0.262620	 -0.365634	 -1.599181	 -1.273261	 2.241963	 -0.339081	 0.623847	 -0.690061	 0.140199	 2
1462095745.355	 14	 1.524924	 0.513689	 -0.319366	 -1.545970	 -1.269959	 2.292891	 -0.337488	 0.618404	 -0.695722	 0.140173	 2
1462095745.365	 14	 1.582399	 0.669139	 -0.273658	 -1.489790	 -1.266303	 2.345055	 -0.335027	 0.612884	 -0.701832	 0.139862	 2
1462095745.375	 14	 1.564457	 0.701188	 -0.261480	 -1.434286	 -1.261989	 2.395925	 -0.332259	 0.607391	 -0.707983	 0.139426	 2
1462095745.385	 14	 1.467733	 0.599008	 -0.310614	 -1.383529	 -1.256673	 2.442591	 -0.329854	 0.602025	 -0.713763	 0.138943	 2
1462095745.395	 14	 1.288924	 0.349768	 -0.431807	 -1.341992	 -1.250019	 2.481890	 -0.328613	 0.596872	 -0.718739	 0.138461	 2
1462095745.405	 14	 1.087207	 0.009004	 -0.569639	 -1.312095	 -1.242070	 2.512400	 -0.329068	 0.591962	 -0.722649	 0.138106	 2
1462095745.415	 14	 0.914149	 -0.409101	 -0.654087	 -1.293306	 -1.233379	 2.535421	 -0.331365	 0.587242	 -0.725419	 0.138247	 2
1462095745.425	 14	 0.726160	 -0.963176	 -0.574476	 -1.285285	 -1.225359	 2.552601	 -0.335577	 0.582841	 -0.726749	 0.139712	 2
1462095745.435	 14	 0.551067	 -1.443482	 -0.290731	 -1.285936	 -1.220196	 2.566199	 -0.341100	 0.579129	 -0.726450	 0.143287	 2
1462095745.445	 14	 0.482260	 -1.550878	 -0.021494	 -1.289151	 -1.218008	 2.579251	 -0.346599	 0.576067	 -0.725275	 0.148296	 2
1462095745.455	 14	 0.463626	 -1.372797	 0.180689	 -1.290279	 -1.218000	 2.593286	 -0.351043	 0.573532	 -0.724020	 0.153703	 2
1462095745.465	 14	 0.401806	 -1.052254	 0.356864	 -1.288187	 -1.219826	 2.607621	 -0.353928	 0.571662	 -0.722986	 0.158835	 2
1462095745.475	 14	 0.193776	 -0.721809	 0.519483	 -1.285761	 -1.223712	 2.618749	 -0.355252	 0.570939	 -0.721909	 0.163316	 2
1462095745.485	 14	 -0.127510	 -0.376517	 0.629937	 -1.286865	 -1.229668	 2.622524	 -0.355233	 0.571796	 -0.720452	 0.166757	 2
1462095745.495	 14	 -0.511983	 -0.013520	 0.663306	 -1.293919	 -1.237106	 2.616121	 -0.354061	 0.574347	 -0.718549	 0.168681	 2
1462095745.515	 15	 -1.930246	 -0.140117	 0.819421	 -1.360839	 -1.257956	 2.545578	 -0.352029	 0.586518	 -0.709524	 0.169255	 2
1462095745.525	 15	 -2.767176	 -0.501789	 0.914998	 -1.440055	 -1.271142	 2.466822	 -0.352998	 0.596783	 -0.700458	 0.169115	 2
1462095745.535	 15	 -3.431901	 -0.718785	 0.936884	 -1.552870	 -1.282924	 2.356114	 -0.355325	 0.609262	 -0.688560	 0.168612	 2
1462095745.545	 15	 -3.839969	 -0.722553	 0.839155	 -1.689785	 -1.289809	 2.221035	 -0.358238	 0.622997	 -0.674983	 0.167148	 2
1462095745.555	 15	 -4.010887	 -0.517791	 0.552661	 -1.835176	 -1.288397	 2.075927	 -0.361550	 0.636938	 -0.660838	 0.163967	 2
1462095745.565	 15	 -4.024399	 0.197508	 0.330296	 -1.968194	 -1.278844	 1.937326	 -0.363608	 0.650758	 -0.647583	 0.157924	 2
1462095745.575	 15	 -4.141591	 0.978021	 0.258647	 -2.083302	 -1.263196	 1.808471	 -0.363299	 0.665017	 -0.635340	 0.148692	 2
1462095745.585	 15	 -4.305133	 1.353074	 0.283810	 -2.184630	 -1.242676	 1.688295	 -0.361396	 0.679857	 -0.623123	 0.137496	 2
1462095745.595	 15	 -4.363128	 1.436764	 0.360763	 -2.273712	 -1.218675	 1.578703	 -0.358701	 0.694845	 -0.610489	 0.125804	 2
1462095745.605	 15	 -4.183671	 1.628300	 0.445178	 -2.347722	 -1.193115	 1.482777	 -0.355050	 0.709372	 -0.598106	 0.114015	 2
1462095745.615	 15	 -3.732767	 2.097955	 0.563922	 -2.402513	 -1.169024	 1.402321	 -0.349403	 0.722792	 -0.587479	 0.101771	 2
1462095745.625	 15	 -3.147629	 2.815492	 0.598543	 -2.436351	 -1.148178	 1.336730	 -0.341141	 0.734696	 -0.579706	 0.088238	 2
1462095745.635	 15	 -2.592072	 3.474781	 0.509251	 -2.450058	 -1.130779	 1.285038	 -0.330653	 0.744794	 -0.575007	 0.072917	 2
1462095745.645	 15	 -2.330909	 3.514608	 0.386916	 -2.452525	 -1.115130	 1.242808	 -0.319667	 0.753420	 -0.571780	 0.056914	 2
1462095745.655	 15	 -2.298768	 2.950048	 0.283333	 -2.455458	 -1.099320	 1.204747	 -0.310193	 0.761241	 -0.567886	 0.042397	 2
1462095745.665	 15	 -2.367968	 1.957020	 0.161724	 -2.464255	 -1.082365	 1.169567	 -0.303550	 0.768559	 -0.562340	 0.030781	 2
1462095745.675	 15	 -2.472867	 0.596429	 0.087097	 -2.484461	 -1.063723	 1.135955	 -0.300868	 0.775708	 -0.554248	 0.023765	 2
1462095745.685	 15	 -2.359082	 -0.558447	 0.014611	 -2.512856	 -1.044790	 1.106401	 -0.301748	 0.782294	 -0.544528	 0.021305	 2
1462095745.695	 15	 -2.249241	 -1.638908	 -0.064608	 -2.548111	 -1.025920	 1.081507	 -0.305898	 0.788204	 -0.533501	 0.023171	 2
1462095745.705	 15	 -2.159936	 -2.306762	 -0.162190	 -2.587137	 -1.006877	 1.061182	 -0.312448	 0.793467	 -0.521536	 0.028042	 2
1462095745.715	 15	 -2.085163	 -2.438492	 -0.256788	 -2.624971	 -0.987599	 1.045140	 -0.319987	 0.798136	 -0.509357	 0.033805	 2
1462095745.725	 15	 -2.042310	 -2.145338	 -0.294932	 -2.658188	 -0.968218	 1.032099	 -0.327157	 0.802423	 -0.497581	 0.038722	 2
1462095745.735	 15	 -2.026784	 -1.608979	 -0.247446	 -2.685419	 -0.948925	 1.020224	 -0.332939	 0.806626	 -0.486582	 0.041766	 2
1462095745.745	 15	 -2.019500	 -1.026719	 -0.180277	 -2.706634	 -0.929860	 1.008452	 -0.336972	 0.810916	 -0.476493	 0.042651	 2
1462095745.755	 15	 -1.954366	 -0.370406	 -0.144896	 -2.720947	 -0.911237	 0.997240	 -0.339288	 0.815205	 -0.467581	 0.041134	 2
1462095745.765	 15	 -1.807256	 0.243130	 -0.108495	 -2.728101	 -0.893868	 0.986877	 -0.339899	 0.819313	 -0.460219	 0.037325	 2
1462095745.775	 15	 -1.583026	 0.686300	 -0.066890	 -2.729425	 -0.878487	 0.977606	 -0.339173	 0.823038	 -0.454477	 0.031946	 2
1462095745.785	 15	 -1.285712	 0.994334	 -0.003732	 -2.726487	 -0.865910	 0.969382	 -0.337368	 0.826222	 -0.450417	 0.025783	 2
1462095745.795	 15	 -0.933546	 1.151307	 0.077792	 -2.720686	 -0.856778	 0.962212	 -0.334727	 0.828744	 -0.448062	 0.019537	 2
1462095745.805	 15	 -0.568014	 1.171289	 0.194160	 -2.713733	 -0.851459	 0.955843	 -0.331478	 0.830583	 -0.447281	 0.013930	 2
1462095745.815	 15	 -0.247991	 1.028818	 0.330729	 -2.707564	 -0.849761	 0.949722	 -0.327857	 0.831857	 -0.447696	 0.009583	 2
1462095745.825	 15	 0.023324	 0.766089	 0.437827	 -2.703670	 -0.851125	 0.943756	 -0.324257	 0.832662	 -0.448868	 0.006956	 2
1462095745.835	 15	 0.263261	 0.466816	 0.479846	 -2.702205	 -0.854996	 0.938549	 -0.321063	 0.832984	 -0.450575	 0.006110	 2
1462095745.845	 15	 0.485208	 0.266995	 0.441950	 -2.701776	 -0.860846	 0.935070	 -0.318464	 0.832744	 -0.452852	 0.006555	 2
1462095745.855	 15	 0.675857	 0.248887	 0.368716	 -2.700307	 -0.868189	 0.933810	 -0.316280	 0.831937	 -0.455843	 0.007422	 2
1462095745.865	 15	 0.891669	 0.367856	 0.288011	 -2.696040	 -0.877043	 0.935060	 -0.314212	 0.830525	 -0.459820	 0.008065	 2
1462095745.875	 15	 1.150837	 0.624998	 0.211413	 -2.687336	 -0.887801	 0.939217	 -0.311945	 0.828401	 -0.465164	 0.008015	 2
1462095745.885	 15	 1.472996	 1.100114	 0.151215	 -2.671847	 -0.900951	 0.946708	 -0.308945	 0.825446	 -0.472387	 0.006568	 2
1462095745.895	 15	 1.935130	 1.859684	 0.065801	 -2.645566	 -0.917389	 0.959063	 -0.304582	 0.821307	 -0.482365	 0.002753	 2
1462095745.905	 15	 2.589954	 2.795878	 -0.079330	 -2.603636	 -0.938162	 0.979522	 -0.298502	 0.815338	 -0.496088	 -0.004164	 2
1462095745.915	 15	 3.427248	 3.742054	 -0.240877	 -2.541913	 -0.964125	 1.012210	 -0.290598	 0.806772	 -0.514267	 -0.014182	 2
1462095745.925	 15	 4.132907	 4.359109	 -0.373434	 -2.459957	 -0.994016	 1.059829	 -0.281234	 0.795388	 -0.536254	 -0.026380	 2
1462095745.935	 15	 3.997426	 3.919158	 -0.375283	 -2.370880	 -1.022133	 1.116399	 -0.272158	 0.782951	 -0.558096	 -0.038031	 2
1462095745.945	 15	 2.217348	 1.673436	 -0.129161	 -2.310871	 -1.040269	 1.158652	 -0.266841	 0.774210	 -0.572235	 -0.044071	 2
1462095745.955	 15	 -0.973427	 -0.713495	 0.314438	 -2.320048	 -1.039981	 1.151775	 -0.266877	 0.775354	 -0.570781	 -0.042568	 2
1462095745.965	 15	 -2.225293	 -0.621564	 0.458347	 -2.356703	 -1.029101	 1.117290	 -0.266723	 0.781819	 -0.562062	 -0.041290	 2
1462095745.975	 15	 -2.340853	 -0.419490	 0.410077	 -2.392762	 -1.015197	 1.080333	 -0.265837	 0.788991	 -0.552365	 -0.041447	 2
1462095745.985	 15	 -2.144267	 -0.156201	 0.422539	 -2.423491	 -1.001557	 1.046821	 -0.264384	 0.795642	 -0.543383	 -0.042299	 2
1462095745.995	 15	 -1.692136	 0.210572	 0.434805	 -2.445602	 -0.990532	 1.018978	 -0.261916	 0.801104	 -0.536372	 -0.044025	 2
1462095746.005	 15	 -1.036368	 0.162328	 0.354043	 -2.459479	 -0.983648	 0.999679	 -0.259512	 0.804778	 -0.531900	 -0.045469	 2
1462095746.015	 15	 -0.239163	 -0.358247	 0.171735	 -2.469040	 -0.981553	 0.991623	 -0.259298	 0.806301	 -0.529792	 -0.044316	 2
1462095746.025	 15	 0.568433	 -0.269324	 0.000338	 -2.469041	 -0.984713	 0.995146	 -0.259978	 0.805444	 -0.530907	 -0.042539	 2
1462095746.035	 15	 1.210490	 -0.100180	 -0.029257	 -2.459899	 -0.992782	 1.007853	 -0.260748	 0.802582	 -0.534995	 -0.040663	 2
1462095746.045	 15	 1.643140	 0.311330	 0.130670	 -2.443941	 -1.005247	 1.024716	 -0.260221	 0.798512	 -0.541417	 -0.039125	 2
1462095746.055	 15	 1.922739	 1.388404	 0.193678	 -2.415973	 -1.020628	 1.045009	 -0.256898	 0.793451	 -0.550273	 -0.040470	 2
1462095746.065	 15	 1.806795	 2.501235	 0.040915	 -2.373191	 -1.034981	 1.068334	 -0.250613	 0.787870	 -0.560588	 -0.046860	 2
1462095746.075	 15	 1.086939	 1.873261	 -0.164353	 -2.334444	 -1.043321	 1.088177	 -0.245299	 0.783504	 -0.568353	 -0.054083	 2
1462095746.085	 15	 0.025947	 -0.582294	 -0.255765	 -2.326884	 -1.043574	 1.095670	 -0.246014	 0.782351	 -0.569559	 -0.054837	 2
1462095746.095	 15	 -0.820329	 -3.332119	 -0.212171	 -2.358405	 -1.037575	 1.090058	 -0.254325	 0.784494	 -0.563728	 -0.045822	 2
1462095746.105	 15	 -1.430115	 -5.104634	 -0.093332	 -2.419430	 -1.027214	 1.074479	 -0.267869	 0.788857	 -0.552360	 -0.029129	 2
1462095746.115	 15	 -1.398211	 -4.439175	 0.163036	 -2.483564	 -1.016491	 1.055467	 -0.280480	 0.793446	 -0.540030	 -0.011949	 2
1462095746.125	 15	 -0.826266	 -1.805893	 0.510815	 -2.523552	 -1.011178	 1.037819	 -0.285430	 0.796781	 -0.532601	 -0.002235	 2
1462095746.135	 15	 -0.272088	 0.646040	 0.631119	 -2.534489	 -1.011424	 1.023982	 -0.282762	 0.798724	 -0.531116	 -0.001486	 2
1462095746.145	 15	 0.093869	 2.098993	 0.494378	 -2.523449	 -1.014676	 1.015723	 -0.275782	 0.799406	 -0.533706	 -0.007227	 2
1462095746.155	 15	 0.379371	 2.682153	 0.211694	 -2.498471	 -1.018873	 1.014713	 -0.267715	 0.798823	 -0.538463	 -0.016353	 2
1462095746.165	 15	 0.701246	 2.574307	 -0.302612	 -2.463890	 -1.022739	 1.024340	 -0.261280	 0.796667	 -0.544383	 -0.026495	 2
1462095746.175	 15	 1.076297	 1.831681	 -0.914944	 -2.423382	 -1.025348	 1.047720	 -0.258843	 0.792669	 -0.550833	 -0.035470	 2
1462095746.185	 15	 1.473912	 0.872214	 -1.499648	 -2.380672	 -1.026298	 1.084850	 -0.261434	 0.786903	 -0.557396	 -0.041781	 2
1462095746.195	 15	 2.078759	 0.551016	 -1.986431	 -2.330729	 -1.026537	 1.136497	 -0.267573	 0.778940	 -0.565216	 -0.046768	 2
1462095746.205	 15	 2.888879	 0.846266	 -2.305137	 -2.265441	 -1.027653	 1.203968	 -0.274739	 0.768071	 -0.576052	 -0.052432	 2
1462095746.215	 15	 3.591612	 1.030773	 -2.391602	 -2.185980	 -1.029658	 1.284907	 -0.281818	 0.754464	 -0.589869	 -0.058455	 2
1462095746.225	 15	 3.909748	 0.479955	 -2.244962	 -2.104473	 -1.031308	 1.372115	 -0.289564	 0.739468	 -0.604531	 -0.062317	 2
1462095746.235	 15	 3.815217	 -0.670832	 -1.838135	 -2.035751	 -1.032576	 1.456440	 -0.299052	 0.724907	 -0.617512	 -0.061287	 2
1462095746.245	 15	 3.411042	 -1.865474	 -1.150855	 -1.988308	 -1.035488	 1.529987	 -0.309804	 0.712350	 -0.627388	 -0.054435	 2
1462095746.255	 15	 2.855772	 -2.715449	 -0.223519	 -1.963706	 -1.042996	 1.587974	 -0.320191	 0.702775	 -0.633879	 -0.042212	 2
1462095746.265	 15	 2.287139	 -2.978503	 0.672093	 -1.957226	 -1.056505	 1.629468	 -0.328363	 0.696330	 -0.637652	 -0.026483	 2
1462095746.275	 15	 1.817340	 -2.702863	 1.091198	 -1.960062	 -1.073262	 1.658272	 -0.333940	 0.692132	 -0.639790	 -0.010296	 2
1462095746.285	 15	 1.475350	 -2.061089	 1.010624	 -1.962995	 -1.088916	 1.680215	 -0.337469	 0.688973	 -0.641420	 0.003382	 2
1462095746.295	 15	 1.298863	 -1.459533	 0.731068	 -1.961083	 -1.101445	 1.700429	 -0.339801	 0.685986	 -0.643250	 0.013747	 2
1462095746.305	 15	 1.226074	 -0.750389	 0.369547	 -1.950951	 -1.110395	 1.722175	 -0.341110	 0.682698	 -0.645868	 0.020534	 2
1462095746.315	 15	 1.232790	 -0.170041	 0.026385	 -1.931502	 -1.115829	 1.747175	 -0.341575	 0.678876	 -0.649522	 0.023986	 2
1462095746.325	 15	 1.292194	 0.159023	 -0.186355	 -1.904994	 -1.118838	 1.775687	 -0.341613	 0.674482	 -0.654010	 0.025406	 2
1462095746.335	 15	 1.348657	 0.459040	 -0.299157	 -1.873184	 -1.120412	 1.806745	 -0.341099	 0.669679	 -0.659191	 0.025488	 2
1462095746.345	 15	 1.396388	 0.676480	 -0.362561	 -1.837356	 -1.120945	 1.839549	 -0.340008	 0.664579	 -0.664925	 0.024590	 2
1462095746.355	 15	 1.455589	 0.780567	 -0.358910	 -1.798980	 -1.120911	 1.873694	 -0.338502	 0.659243	 -0.671024	 0.023281	 2
1462095746.365	 15	 1.524064	 0.753271	 -0.281960	 -1.759414	 -1.121079	 1.909096	 -0.336731	 0.653733	 -0.677310	 0.022289	 2
1462095746.375	 15	 1.540536	 0.569699	 -0.215603	 -1.720895	 -1.121395	 1.944910	 -0.335183	 0.648177	 -0.683398	 0.022050	 2
1462095746.385	 15	 1.516591	 0.206348	 -0.169750	 -1.685972	 -1.121623	 1.980258	 -0.334536	 0.642679	 -0.688855	 0.022989	 2
1462095746.395	 15	 1.471622	 -0.309094	 -0.131524	 -1.656797	 -1.121704	 2.014559	 -0.335405	 0.637298	 -0.693327	 0.025535	 2
1462095746.405	 15	 1.441450	 -0.868075	 -0.077846	 -1.633991	 -1.121849	 2.047976	 -0.338037	 0.632009	 -0.696705	 0.029963	 2
1462095746.415	 15	 1.440537	 -1.358843	 0.007119	 -1.616551	 -1.122476	 2.081125	 -0.342185	 0.626755	 -0.699122	 0.036267	 2
1462095746.425	 15	 1.461839	 -1.675157	 0.104172	 -1.602424	 -1.123845	 2.114663	 -0.347279	 0.621475	 -0.700873	 0.044085	 2
1462095746.435	 15	 1.484046	 -1.779987	 0.177606	 -1.589227	 -1.125827	 2.148847	 -0.352612	 0.616142	 -0.702322	 0.052697	 2
1462095746.445	 15	 1.477787	 -1.776545	 0.209666	 -1.575945	 -1.128055	 2.183281	 -0.357821	 0.610792	 -0.703643	 0.061514	 2
1462095746.455	 15	 1.446035	 -1.700050	 0.185076	 -1.562419	 -1.129981	 2.217315	 -0.362821	 0.605453	 -0.704896	 0.070063	 2
1462095746.465	 15	 1.419071	 -1.476051	 0.115989	 -1.547597	 -1.131113	 2.250762	 -0.367332	 0.600108	 -0.706318	 0.077793	 2
1462095746.475	 15	 1.415306	 -1.054555	 0.010170	 -1.529217	 -1.131048	 2.284021	 -0.370785	 0.594702	 -0.708368	 0.084043	 2
1462095746.485	 15	 1.408756	 -0.519461	 -0.125474	 -1.505973	 -1.129399	 2.316944	 -0.372764	 0.589246	 -0.711367	 0.088280	 2
1462095746.495	 15	 1.379407	 -0.050386	 -0.280718	 -1.478793	 -1.125914	 2.348812	 -0.373422	 0.583770	 -0.715249	 0.090487	 2
1462095746.505	 15	 1.290641	 0.289955	 -0.465419	 -1.450254	 -1.120368	 2.378081	 -0.373263	 0.578359	 -0.719671	 0.090827	 2
1462095746.515	 15	 1.107240	 0.487958	 -0.662343	 -1.423905	 -1.112754	 2.402407	 -0.372883	 0.573235	 -0.724122	 0.089487	 2
1462095746.525	 15	 0.862354	 0.513067	 -0.818775	 -1.402925	 -1.103561	 2.420068	 -0.372837	 0.568651	 -0.728066	 0.086882	 2
1462095746.535	 15	 0.643696	 0.375942	 -0.895948	 -1.388343	 -1.093658	 2.431695	 -0.373500	 0.564654	 -0.731196	 0.083757	 2
1462095746.545	 15	 0.533852	 0.127710	 -0.850408	 -1.379123	 -1.084095	 2.439935	 -0.375014	 0.561083	 -0.733469	 0.081072	 2
1462095746.555	 15	 0.489441	 -0.135923	 -0.702202	 -1.373367	 -1.075823	 2.447266	 -0.377158	 0.557822	 -0.735031	 0.079474	 2
1462095746.565	 15	 0.457443	 -0.310843	 -0.489333	 -1.369761	 -1.069567	 2.454544	 -0.379514	 0.554973	 -0.736012	 0.079126	 2
1462095746.575	 15	 0.480156	 -0.180829	 -0.298615	 -1.365049	 -1.065259	 2.462628	 -0.381150	 0.552500	 -0.736996	 0.079411	 2
1462095746.585	 15	 0.582347	 0.324048	 -0.157324	 -1.354225	 -1.062236	 2.472979	 -0.380799	 0.550160	 -0.738939	 0.079276	 2
1462095746.595	 15	 0.568158	 1.092610	 -0.075445	 -1.335380	 -1.059999	 2.484268	 -0.377499	 0.548160	 -0.742292	 0.077569	 2
1462095746.605	 15	 0.281856	 1.600654	 0.052206	 -1.313874	 -1.059252	 2.491747	 -0.371737	 0.547372	 -0.746114	 0.074227	 2
1462095746.615	 15	 -0.319880	 1.720614	 0.217360	 -1.298567	 -1.061361	 2.489675	 -0.364911	 0.548886	 -0.748783	 0.069917	 2
1462095746.625	 15	 -1.044964	 1.519409	 0.339035	 -1.296181	 -1.066729	 2.474230	 -0.358386	 0.553237	 -0.749162	 0.065149	 2
1462095746.635	 15	 -1.568588	 1.101187	 0.389793	 -1.307878	 -1.074283	 2.447091	 -0.353247	 0.559744	 -0.747147	 0.060619	 2
1462095746.645	 15	 -1.835661	 0.596699	 0.382095	 -1.330895	 -1.082457	 2.412701	 -0.349963	 0.567264	 -0.743305	 0.056882	 2
1462095746.655	 15	 -2.103372	 -0.037595	 0.367866	 -1.365629	 -1.090558	 2.371991	 -0.348985	 0.575455	 -0.737636	 0.054346	 2
1462095746.665	 15	 -2.536561	 -0.693668	 0.363402	 -1.415916	 -1.098506	 2.321490	 -0.350551	 0.584829	 -0.729573	 0.053028	 2
1462095746.675	 15	 -2.973125	 -0.896959	 0.314155	 -1.480284	 -1.105315	 2.259325	 -0.353552	 0.595580	 -0.719446	 0.051804	 2
1462095746.685	 15	 -3.330453	 -0.539351	 0.202294	 -1.551301	 -1.109421	 2.187203	 -0.355987	 0.607399	 -0.708487	 0.048839	 2
1462095746.695	 15	 -3.734604	 0.081034	 0.080497	 -1.625243	 -1.109855	 2.105616	 -0.356798	 0.620321	 -0.697171	 0.043015	 2
1462095746.705	 15	 -4.273520	 0.832904	 -0.004799	 -1.701273	 -1.106125	 2.013509	 -0.355352	 0.634726	 -0.685356	 0.033687	 2
1462095746.715	 15	 -4.825212	 1.685926	 0.066559	 -1.778206	 -1.098593	 1.910883	 -0.350896	 0.650926	 -0.672855	 0.020819	 2
1462095746.725	 15	 -5.256649	 2.584215	 0.268380	 -1.852289	 -1.088152	 1.800857	 -0.342645	 0.668624	 -0.659934	 0.004779	 2
1462095746.735	 15	 -5.566962	 3.372567	 0.465992	 -1.921062	 -1.075040	 1.686905	 -0.330703	 0.687206	 -0.646676	 -0.013895	 2
1462095746.745	 15	 -5.690202	 4.075708	 0.575921	 -1.981457	 -1.059055	 1.573389	 -0.315595	 0.705795	 -0.633273	 -0.034901	 2
1462095746.755	 15	 -5.233246	 4.600599	 0.540591	 -2.026182	 -1.041462	 1.470104	 -0.298270	 0.722549	 -0.621011	 -0.057464	 2
1462095746.765	 15	 -3.945397	 4.500636	 0.330216	 -2.047804	 -1.025534	 1.391664	 -0.281296	 0.734801	 -0.612101	 -0.079195	 2
1462095746.775	 15	 -2.757604	 3.757653	 0.143504	 -2.052982	 -1.013252	 1.338917	 -0.267166	 0.742495	 -0.606487	 -0.097450	 2
1462095746.785	 15	 -2.140985	 2.695513	 0.008886	 -2.055367	 -1.003090	 1.300977	 -0.256856	 0.747839	 -0.601964	 -0.111361	 2
1462095746.795	 15	 -1.847108	 1.514330	 -0.098451	 -2.062850	 -0.993499	 1.270491	 -0.250581	 0.752415	 -0.597066	 -0.120803	 2
1462095746.805	 15	 -1.637303	 0.129418	 -0.172847	 -2.079160	 -0.984010	 1.244852	 -0.248614	 0.756931	 -0.591223	 -0.125307	 2
1462095746.815	 15	 -1.419481	 -1.369293	 -0.243044	 -2.106846	 -0.974774	 1.223955	 -0.251569	 0.761622	 -0.584211	 -0.123865	 2
1462095746.825	 15	 -1.445802	 -2.034320	 -0.437643	 -2.140895	 -0.964289	 1.206427	 -0.257823	 0.766385	 -0.576163	 -0.119233	 2
1462095746.835	 15	 -1.797514	 -1.692920	 -0.728751	 -2.173868	 -0.949112	 1.187833	 -0.264461	 0.771507	 -0.566786	 -0.116578	 2
1462095746.845	 15	 -1.967628	 -1.213758	 -0.869887	 -2.202209	 -0.931083	 1.169420	 -0.270379	 0.776586	 -0.557030	 -0.116309	 2
1462095746.855	 15	 -2.000664	 -0.740452	 -0.883313	 -2.224790	 -0.911956	 1.151715	 -0.275010	 0.781402	 -0.547550	 -0.118195	 2
1462095746.865	 15	 -1.888098	 -0.496433	 -0.775446	 -2.243087	 -0.893754	 1.135302	 -0.278499	 0.785825	 -0.538788	 -0.120930	 2
1462095746.875	 15	 -1.718716	 -0.489204	 -0.590345	 -2.259688	 -0.877675	 1.120038	 -0.281230	 0.789931	 -0.530785	 -0.123230	 2
1462095746.885	 15	 -1.534834	 -0.642047	 -0.325862	 -2.277078	 -0.864516	 1.105172	 -0.283398	 0.793909	 -0.523440	 -0.124113	 2
1462095746.895	 15	 -1.374831	 -0.681836	 -0.028146	 -2.295360	 -0.854414	 1.089850	 -0.284679	 0.797859	 -0.516785	 -0.123747	 2
1462095746.905	 15	 -1.214119	 -0.604344	 0.309022	 -2.314043	 -0.847686	 1.073481	 -0.284654	 0.801785	 -0.511009	 -0.122406	 2
1462095746.915	 15	 -1.081416	 -0.348154	 0.636374	 -2.331705	 -0.844146	 1.055456	 -0.282794	 0.805665	 -0.506278	 -0.120893	 2
1462095746.925	 15	 -0.919985	 -0.027877	 0.866022	 -2.346970	 -0.843327	 1.036502	 -0.279195	 0.809307	 -0.502727	 -0.119740	 2
1462095746.935	 15	 -0.750849	 0.242356	 0.944865	 -2.358850	 -0.844364	 1.018126	 -0.274469	 0.812479	 -0.500325	 -0.119246	 2
1462095746.945	 15	 -0.603406	 0.343471	 0.867787	 -2.367830	 -0.846114	 1.001755	 -0.269625	 0.815097	 -0.498708	 -0.119204	 2
1462095746.955	 15	 -0.482457	 0.363976	 0.664430	 -2.374098	 -0.847451	 0.988590	 -0.265491	 0.817118	 -0.497531	 -0.119565	 2
1462095746.965	 15	 -0.366750	 0.418411	 0.444382	 -2.377300	 -0.848053	 0.979009	 -0.262225	 0.818521	 -0.496736	 -0.120476	 2
1462095746.975	 15	 -0.243182	 0.545238	 0.236662	 -2.376677	 -0.848052	 0.972991	 -0.259606	 0.819269	 -0.496451	 -0.122226	 2
1462095746.985	 15	 -0.131130	 0.739989	 0.004097	 -2.371610	 -0.847355	 0.970656	 -0.257559	 0.819319	 -0.496727	 -0.125066	 2
1462095746.995	 15	 -0.044233	 1.043033	 0.027476	 -2.362494	 -0.846881	 0.969985	 -0.255132	 0.818868	 -0.497693	 -0.129092	 2
1462095747.005	 15	 0.015075	 1.443283	 0.243836	 -2.350603	 -0.848214	 0.968028	 -0.251043	 0.818217	 -0.499517	 -0.134092	 2
1462095747.015	 15	 0.094709	 1.826693	 0.492902	 -2.336032	 -0.851767	 0.964245	 -0.244976	 0.817382	 -0.502253	 -0.140053	 2
1462095747.025	 15	 0.253972	 2.095242	 0.775375	 -2.319496	 -0.858283	 0.959241	 -0.237150	 0.816245	 -0.506054	 -0.146335	 2
1462095747.035	 15	 0.518985	 2.327813	 1.125868	 -2.301108	 -0.868943	 0.953545	 -0.227476	 0.814620	 -0.511282	 -0.152443	 2
1462095747.045	 15	 0.923403	 2.550822	 1.387665	 -2.279351	 -0.884326	 0.949374	 -0.216261	 0.812067	 -0.518393	 -0.158262	 2
1462095747.055	 15	 1.442708	 2.623264	 1.466947	 -2.252218	 -0.903900	 0.950497	 -0.204540	 0.808069	 -0.527625	 -0.163707	 2
1462095747.065	 15	 1.977944	 2.102352	 1.425467	 -2.222086	 -0.926644	 0.959763	 -0.194204	 0.802687	 -0.538536	 -0.167204	 2
1462095747.075	 15	 2.210780	 1.136961	 1.276973	 -2.194978	 -0.950247	 0.976175	 -0.186983	 0.796841	 -0.549696	 -0.167079	 2
1462095747.085	 15	 1.844914	 0.224958	 1.061717	 -2.176726	 -0.970765	 0.993108	 -0.182974	 0.792034	 -0.558875	 -0.163897	 2
1462095747.095	 15	 1.148743	 -1.007474	 0.820776	 -2.174323	 -0.985464	 1.003601	 -0.182338	 0.789640	 -0.564215	 -0.157742	 2
1462095747.105	 15	 0.275395	 -2.540850	 0.662774	 -2.196057	 -0.994157	 1.004198	 -0.186284	 0.790479	 -0.564777	 -0.146521	 2
1462095747.115	 15	 -0.874997	 -1.851493	 0.656824	 -2.231102	 -0.995822	 0.988120	 -0.189318	 0.794314	 -0.560838	 -0.136692	 2
1462095747.125	 15	 -1.561373	 0.137412	 0.666386	 -2.258381	 -0.992081	 0.960192	 -0.186810	 0.799168	 -0.555249	 -0.134652	 2
1462095747.135	 15	 -1.712358	 1.544523	 0.745806	 -2.272667	 -0.986713	 0.927878	 -0.179226	 0.803675	 -0.550069	 -0.139311	 2
1462095747.145	 15	 -1.463471	 1.834039	 0.729281	 -2.279422	 -0.982363	 0.897950	 -0.170157	 0.807255	 -0.545973	 -0.145945	 2
1462095747.155	 15	 -1.017145	 1.535107	 0.608577	 -2.282261	 -0.979812	 0.874946	 -0.162289	 0.809670	 -0.543209	 -0.151727	 2
1462095747.165	 15	 -0.502058	 1.075648	 0.526279	 -2.282709	 -0.979803	 0.860033	 -0.156371	 0.810893	 -0.542025	 -0.155594	 2
1462095747.175	 15	 -0.006031	 0.597532	 0.503656	 -2.282003	 -0.982825	 0.852293	 -0.152268	 0.811077	 -0.542453	 -0.157205	 2
1462095747.185	 15	 0.445685	 0.217485	 0.492989	 -2.279933	 -0.988733	 0.851136	 -0.149722	 0.810294	 -0.544431	 -0.156851	 2
1462095747.195	 15	 0.772751	 0.028876	 0.576845	 -2.276650	 -0.997479	 0.854310	 -0.147863	 0.808744	 -0.547742	 -0.155075	 2
1462095747.205	 15	 1.027557	 0.145613	 0.643921	 -2.270615	 -1.008547	 0.860369	 -0.145792	 0.806487	 -0.552191	 -0.152999	 2
1462095747.215	 15	 1.228399	 0.431011	 0.626710	 -2.258790	 -1.020958	 0.869947	 -0.143130	 0.803380	 -0.557697	 -0.151879	 2
1462095747.225	 15	 1.240355	 0.510457	 0.586847	 -2.243727	 -1.033532	 0.881596	 -0.140259	 0.799888	 -0.563559	 -0.151351	 2
1462095747.235	 15	 0.889750	 0.216411	 0.524283	 -2.232956	 -1.043958	 0.890458	 -0.137968	 0.797202	 -0.568172	 -0.150379	 2
1462095747.245	 15	 0.305463	 -0.327702	 0.497663	 -2.233909	 -1.050697	 0.891527	 -0.136858	 0.796385	 -0.570234	 -0.147898	 2
1462095747.255	 15	 -0.290391	 -0.903102	 0.551851	 -2.249055	 -1.054026	 0.882724	 -0.136777	 0.797680	 -0.569571	 -0.143486	 2
1462095747.265	 15	 -0.981327	 -1.244486	 0.570676	 -2.278487	 -1.053302	 0.862656	 -0.137300	 0.801216	 -0.565920	 -0.137608	 2
1462095747.275	 15	 -1.560672	 -1.226742	 0.583346	 -2.316194	 -1.048033	 0.833516	 -0.137546	 0.806475	 -0.559692	 -0.132001	 2
1462095747.285	 15	 -1.858547	 -1.172507	 0.754835	 -2.359051	 -1.040764	 0.797721	 -0.136760	 0.812742	 -0.552060	 -0.126401	 2
1462095747.295	 15	 -1.739970	 -0.739580	 0.807922	 -2.398928	 -1.033017	 0.761826	 -0.134885	 0.818827	 -0.544506	 -0.121824	 2
1462095747.305	 15	 -0.737142	 0.670852	 0.931680	 -2.418633	 -1.031618	 0.735411	 -0.129719	 0.821992	 -0.541114	 -0.121232	 2
1462095747.315	 15	 0.355420	 1.940231	 0.708038	 -2.411056	 -1.037487	 0.725013	 -0.122063	 0.821236	 -0.542991	 -0.125830	 2
1462095747.325	 15	 1.261218	 2.579181	 0.156163	 -2.377982	 -1.047330	 0.734718	 -0.114739	 0.816933	 -0.548974	 -0.134473	 2
1462095747.335	 15	 1.656262	 2.208931	 -0.432628	 -2.330593	 -1.056414	 0.761899	 -0.110529	 0.810692	 -0.556594	 -0.144104	 2
1462095747.345	 15	 1.498863	 0.985028	 -0.453304	 -2.291073	 -1.063397	 0.792211	 -0.109973	 0.805081	 -0.563282	 -0.149877	 2
1462095747.355	 15	 1.106021	 -0.153270	 -0.204693	 -2.270195	 -1.069206	 0.814748	 -0.111634	 0.801439	 -0.567982	 -0.150433	 2
1462095747.365	 15	 0.818909	 -1.008245	 -0.004456	 -2.265434	 -1.074472	 0.829453	 -0.114799	 0.799518	 -0.570998	 -0.146811	 2
1462095747.375	 15	 0.916972	 -1.493469	 0.005095	 -2.267528	 -1.080057	 0.842914	 -0.119320	 0.798108	 -0.573580	 -0.140686	 2
1462095747.385	 15	 1.812188	 -1.633253	 -0.135089	 -2.259891	 -1.089162	 0.869829	 -0.125447	 0.794690	 -0.578690	 -0.133599	 2
1462095747.395	 15	 2.885057	 -1.584059	 -0.104539	 -2.234407	 -1.104671	 0.916513	 -0.132329	 0.787975	 -0.587988	 -0.125912	 2
1462095747.405	 15	 3.476482	 -1.427400	 0.030318	 -2.194102	 -1.124864	 0.977730	 -0.138747	 0.778864	 -0.600184	 -0.117894	 2
1462095747.415	 15	 3.510431	 -1.500625	 0.066643	 -2.146937	 -1.145367	 1.045811	 -0.144898	 0.769042	 -0.612845	 -0.109544	 2
1462095747.425	 15	 3.208580	 -1.976625	 -0.133390	 -2.101151	 -1.162079	 1.116021	 -0.152600	 0.759758	 -0.624039	 -0.100282	 2
1462095747.435	 15	 2.919707	 -2.473444	 -0.265521	 -2.060654	 -1.174457	 1.185608	 -0.162364	 0.751302	 -0.633335	 -0.089833	 2
1462095747.445	 15	 2.703934	 -2.819940	 -0.173079	 -2.026292	 -1.185198	 1.252474	 -0.173034	 0.743496	 -0.641251	 -0.077909	 2
1462095747.455	 15	 2.469106	 -2.942721	 -0.038957	 -1.997634	 -1.195362	 1.314872	 -0.183636	 0.736328	 -0.647972	 -0.065050	 2
1462095747.465	 15	 2.217181	 -2.798876	 0.041310	 -1.972650	 -1.204766	 1.372256	 -0.193495	 0.729763	 -0.653653	 -0.052375	 2
1462095747.475	 15	 1.990284	 -2.495001	 0.052508	 -1.949056	 -1.213013	 1.425004	 -0.202224	 0.723720	 -0.658535	 -0.040831	 2
1462095747.485	 15	 1.825469	 -2.147732	 0.059306	 -1.924922	 -1.220214	 1.474612	 -0.209753	 0.718019	 -0.662957	 -0.030654	 2
1462095747.495	 15	 1.669330	 -1.764385	 0.057838	 -1.899605	 -1.226523	 1.521288	 -0.215931	 0.712649	 -0.667100	 -0.021986	 2
1462095747.505	 15	 1.497885	 -1.419624	 0.009250	 -1.873611	 -1.231529	 1.564817	 -0.221016	 0.707653	 -0.670937	 -0.014893	 2
1462095747.515	 15	 1.349707	 -1.138577	 -0.015620	 -1.847762	 -1.235369	 1.604989	 -0.225198	 0.703058	 -0.674472	 -0.009137	 2
1462095747.525	 15	 1.248232	 -0.943542	 -0.002264	 -1.822219	 -1.238622	 1.642449	 -0.228593	 0.698791	 -0.677804	 -0.004267	 2
1462095747.535	 15	 1.227017	 -0.914775	 -0.003943	 -1.796618	 -1.241509	 1.679152	 -0.231706	 0.694633	 -0.681027	 0.000315	 2
1462095747.545	 15	 1.289409	 -1.030934	 -0.009830	 -1.770051	 -1.244089	 1.717726	 -0.235119	 0.690276	 -0.684259	 0.005207	 2
1462095747.555	 15	 1.404912	 -1.206749	 -0.007143	 -1.741624	 -1.246552	 1.759983	 -0.239069	 0.685511	 -0.687607	 0.010807	 2
1462095747.565	 15	 1.531311	 -1.362154	 0.027612	 -1.710716	 -1.248999	 1.806580	 -0.243498	 0.680267	 -0.691122	 0.017193	 2
1462095747.575	 15	 1.642574	 -1.445280	 0.196392	 -1.677115	 -1.252425	 1.857016	 -0.247784	 0.674694	 -0.694831	 0.024517	 2
1462095747.585	 15	 1.687172	 -1.401699	 0.357339	 -1.641042	 -1.257169	 1.909927	 -0.251398	 0.669049	 -0.698652	 0.032531	 2
1462095747.595	 15	 1.702621	 -1.392385	 0.474525	 -1.602758	 -1.262469	 1.964642	 -0.254445	 0.663405	 -0.702484	 0.040832	 2
1462095747.605	 15	 1.669870	 -1.327363	 0.480744	 -1.563311	 -1.267528	 2.020235	 -0.257243	 0.657806	 -0.706187	 0.049171	 2
1462095747.615	 15	 1.621174	 -1.186259	 0.412141	 -1.522542	 -1.271398	 2.075668	 -0.259701	 0.652259	 -0.709850	 0.056799	 2
1462095747.625	 15	 1.548377	 -1.088395	 0.237834	 -1.482188	 -1.273191	 2.129480	 -0.262240	 0.646727	 -0.713405	 0.063462	 2
1462095747.635	 15	 1.497583	 -1.071475	 0.057255	 -1.443747	 -1.272549	 2.180893	 -0.265251	 0.641113	 -0.716813	 0.069250	 2
1462095747.645	 15	 1.531729	 -1.069473	 0.053779	 -1.405651	 -1.270727	 2.231994	 -0.268437	 0.635330	 -0.720205	 0.074839	 2
1462095747.655	 15	 1.617553	 -0.954137	 0.299230	 -1.363629	 -1.269965	 2.286382	 -0.270696	 0.629484	 -0.723826	 0.080935	 2
1462095747.665	 15	 1.627213	 -0.693065	 0.809944	 -1.314764	 -1.272695	 2.345520	 -0.270691	 0.624129	 -0.727635	 0.087960	 2
1462095747.675	 15	 1.407643	 -0.276098	 1.458390	 -1.259846	 -1.281019	 2.406999	 -0.267409	 0.620306	 -0.731106	 0.095899	 2
1462095747.685	 15	 0.995687	 0.178856	 1.987368	 -1.201791	 -1.294951	 2.466680	 -0.260798	 0.618761	 -0.733695	 0.103970	 2
1462095747.695	 15	 0.627034	 0.317913	 2.240195	 -1.143621	 -1.312419	 2.523773	 -0.252487	 0.619129	 -0.735112	 0.111980	 2
1462095747.705	 15	 0.386358	 -0.076614	 2.299367	 -1.087940	 -1.330984	 2.580688	 -0.244961	 0.620365	 -0.735226	 0.120766	 2
1462095747.715	 15	 0.215514	 -0.643266	 2.411750	 -1.033775	 -1.350517	 2.641616	 -0.239295	 0.621971	 -0.733905	 0.131432	 2
1462095747.725	 15	 0.094451	 -1.025326	 2.478523	 -0.976491	 -1.370670	 2.709860	 -0.235005	 0.623793	 -0.731470	 0.143550	 2
1462095747.735	 15	 0.056857	 -1.261691	 2.429758	 -0.911264	 -1.390190	 2.788489	 -0.231675	 0.625535	 -0.728422	 0.156314	 2
1462095747.745	 15	 0.088739	 -1.642356	 2.310836	 -0.836636	 -1.407628	 2.879770	 -0.229856	 0.626698	 -0.724997	 0.169692	 2
1462095747.755	 15	 -0.029420	 -1.978567	 2.247988	 -0.753829	 -1.423561	 2.983202	 -0.229769	 0.627477	 -0.720861	 0.183954	 2
1462095747.765	 15	 -0.451952	 -1.580007	 2.329979	 -0.661767	 -1.441094	 3.093479	 -0.229048	 0.629698	 -0.715634	 0.197196	 2
1462095747.775	 15	 -0.857054	 -0.825661	 2.346920	 -0.545453	 -1.460703	 -3.061837	 -0.226110	 0.633964	 -0.709673	 0.208156	 2
1462095747.785	 15	 -1.414077	 -0.033604	 2.222723	 -0.406847	 -1.482271	 -2.920607	 -0.221034	 0.640740	 -0.703046	 0.215227	 2
1462095747.795	 15	 -1.837778	 0.366000	 2.008451	 -0.215959	 -1.505425	 -2.732109	 -0.215192	 0.649452	 -0.695453	 0.219657	 2
1462095747.805	 15	 -1.964421	 0.319899	 1.613727	 0.073740	 -1.526240	 -2.445639	 -0.210487	 0.658396	 -0.687595	 0.222314	 2
1462095747.815	 15	 -2.049475	 -0.034122	 1.308497	 0.615263	 -1.541271	 -1.904617	 -0.207919	 0.666870	 -0.679416	 0.224605	 2
1462095747.825	 15	 -2.163862	 -0.458769	 1.225609	 1.474205	 -1.541292	 -1.041740	 -0.207398	 0.674954	 -0.670478	 0.227774	 2
1462095747.835	 15	 -2.428910	 -0.605278	 1.302223	 2.023955	 -1.523980	 -0.485983	 -0.207676	 0.683458	 -0.660440	 0.231463	 2
1462095747.845	 15	 -2.684436	 -0.657229	 1.514985	 2.257151	 -1.497359	 -0.246639	 -0.207635	 0.692919	 -0.649086	 0.235455	 2
1462095747.855	 15	 -2.640333	 -0.499948	 1.954093	 2.336243	 -1.465833	 -0.160335	 -0.206583	 0.702580	 -0.636875	 0.241028	 2
1462095747.865	 15	 -2.589755	 0.602641	 2.362508	 2.361590	 -1.431520	 -0.138435	 -0.200609	 0.713514	 -0.625305	 0.244227	 2
1462095747.875	 15	 -2.579404	 1.343536	 2.745526	 2.367983	 -1.394424	 -0.143759	 -0.190598	 0.725558	 -0.613879	 0.245746	 2
1462095747.885	 15	 -2.579479	 1.998609	 3.023392	 2.370284	 -1.355201	 -0.160283	 -0.177282	 0.738420	 -0.602476	 0.245619	 2
1462095747.895	 15	 -2.562628	 2.351948	 3.353722	 2.369990	 -1.313987	 -0.183879	 -0.161497	 0.751632	 -0.590815	 0.244759	 2
1462095747.905	 15	 -2.528273	 2.332015	 3.698544	 2.365119	 -1.270565	 -0.213519	 -0.143974	 0.764697	 -0.578583	 0.244442	 2
1462095747.915	 15	 -2.635882	 2.125967	 3.988517	 2.358272	 -1.224524	 -0.243809	 -0.125778	 0.777446	 -0.565245	 0.245470	 2
1462095747.925	 15	 -2.788867	 1.600758	 4.249271	 2.350143	 -1.175448	 -0.271364	 -0.107901	 0.789744	 -0.550308	 0.248643	 2
1462095747.935	 15	 -2.720949	 0.766106	 4.608601	 2.333760	 -1.123899	 -0.300018	 -0.090777	 0.800680	 -0.534160	 0.255625	 2
1462095747.945	 15	 -2.373264	 0.121804	 4.782889	 2.308308	 -1.072172	 -0.331712	 -0.074076	 0.809507	 -0.518111	 0.266032	 2
1462095747.955	 15	 -1.936210	 -0.193198	 4.495857	 2.280693	 -1.024174	 -0.361898	 -0.058560	 0.816066	 -0.503491	 0.277676	 2
1462095747.965	 15	 -1.464898	 -0.271895	 3.954943	 2.255919	 -0.982612	 -0.388252	 -0.044677	 0.820701	 -0.491148	 0.288492	 2
1462095747.975	 15	 -1.027138	 -0.181745	 3.363669	 2.234761	 -0.948086	 -0.411295	 -0.032420	 0.823807	 -0.481300	 0.297728	 2
1462095747.985	 15	 -0.704914	 0.186445	 2.639572	 2.220477	 -0.920901	 -0.430037	 -0.021716	 0.826167	 -0.473840	 0.304061	 2
1462095747.995	 15	 -0.549589	 0.249611	 2.173069	 2.211720	 -0.899524	 -0.444464	 -0.012716	 0.828125	 -0.468041	 0.308196	 2
1462095748.005	 15	 -0.492057	 0.122904	 2.030708	 2.203200	 -0.879900	 -0.457473	 -0.004576	 0.829643	 -0.462739	 0.312321	 2
1462095748.015	 15	 -0.428055	 -0.056428	 1.967734	 2.193554	 -0.861261	 -0.469963	 0.002929	 0.830656	 -0.457784	 0.316917	 2
1462095748.025	 15	 -0.360038	 -0.317427	 1.938069	 2.181710	 -0.843273	 -0.482351	 0.009811	 0.831046	 -0.453134	 0.322391	 2
1462095748.035	 15	 -0.319947	 -0.486046	 2.022478	 2.167554	 -0.824984	 -0.495231	 0.016536	 0.830898	 -0.448558	 0.328832	 2
1462095748.045	 15	 -0.239540	 -0.483502	 2.112391	 2.152668	 -0.806106	 -0.508978	 0.023700	 0.830471	 -0.444026	 0.335554	 2
1462095748.055	 15	 -0.171961	 -0.415582	 2.118829	 2.138063	 -0.787307	 -0.523310	 0.031242	 0.829841	 -0.439741	 0.342077	 2
1462095748.065	 15	 -0.235406	 -0.336301	 2.172342	 2.124913	 -0.767935	 -0.536755	 0.038969	 0.829300	 -0.435187	 0.348360	 2
1462095748.075	 15	 -0.286559	 -0.233736	 2.068231	 2.114329	 -0.748573	 -0.548549	 0.046643	 0.829022	 -0.430396	 0.353986	 2
1462095748.095	 16	 -0.272818	 0.249996	 1.458733	 2.103802	 -0.716072	 -0.566101	 0.060271	 0.829475	 -0.421919	 0.361002	 2
1462095748.105	 16	 -0.355889	 0.284461	 1.191205	 2.103781	 -0.703725	 -0.570638	 0.065427	 0.830313	 -0.418213	 0.362489	 2
1462095748.115	 16	 -0.387756	 0.198526	 1.061726	 2.104166	 -0.692320	 -0.573544	 0.069741	 0.831159	 -0.414537	 0.363964	 2
1462095748.125	 16	 -0.367827	 0.024018	 0.912853	 2.103571	 -0.682248	 -0.575644	 0.073164	 0.831722	 -0.411230	 0.365752	 2
1462095748.135	 16	 -0.360947	 -0.243691	 0.813318	 2.100950	 -0.673231	 -0.577044	 0.075603	 0.831836	 -0.408258	 0.368318	 2
1462095748.155	 17	 -0.555282	 -1.035787	 0.921676	 2.086561	 -0.654085	 -0.577783	 0.078106	 0.830423	 -0.401880	 0.377874	 2
1462095748.165	 17	 -0.700384	 -1.267120	 0.936773	 2.075219	 -0.642559	 -0.576280	 0.078314	 0.829050	 -0.397784	 0.385111	 2
1462095748.175	 17	 -0.696114	 -1.375570	 0.797177	 2.063416	 -0.631819	 -0.573552	 0.077757	 0.827510	 -0.393753	 0.392606	 2
1462095748.185	 17	 -0.595091	 -1.734701	 0.595790	 2.048839	 -0.623208	 -0.570449	 0.075967	 0.825232	 -0.390527	 0.400885	 2
1462095748.195	 17	 -0.529703	 -2.176739	 0.387547	 2.030179	 -0.616820	 -0.567029	 0.072687	 0.821925	 -0.388182	 0.410452	 2
1462095748.205	 17	 -0.638108	 -2.527297	 0.110262	 2.008961	 -0.612570	 -0.561374	 0.067448	 0.817935	 -0.386198	 0.421051	 2
1462095748.215	 17	 -0.740430	 -2.906926	 -0.213174	 1.985984	 -0.610765	 -0.552699	 0.059994	 0.813400	 -0.384424	 0.432434	 2
1462095748.235	 18	 -0.681259	 -3.689749	 -0.776236	 1.929810	 -0.616134	 -0.530962	 0.038885	 0.801162	 -0.382897	 0.458277	 2
1462095748.245	 18	 -0.685619	 -4.060740	 -0.895818	 1.896917	 -0.622112	 -0.519526	 0.026251	 0.793401	 -0.382882	 0.472469	 2
1462095748.255	 18	 -0.832575	 -4.679270	 -0.887505	 1.859027	 -0.628209	 -0.506880	 0.012165	 0.784121	 -0.382331	 0.488702	 2
1462095748.265	 18	 -0.942248	 -5.020871	 -0.956872	 1.817849	 -0.634765	 -0.492826	 -0.003200	 0.773593	 -0.381175	 0.506211	 2
1462095748.275	 18	 -0.949141	 -5.273593	 -1.048688	 1.774240	 -0.642658	 -0.478435	 -0.019522	 0.761897	 -0.379879	 0.524236	 2
1462095748.295	 19	 -0.890991	 -5.411837	 -1.021705	 1.682240	 -0.660520	 -0.451359	 -0.052918	 0.735602	 -0.376701	 0.560522	 2
1462095748.305	 19	 -0.818537	 -5.540903	 -0.896711	 1.634483	 -0.669096	 -0.439727	 -0.069024	 0.721246	 -0.374639	 0.578520	 2
1462095748.315	 19	 -0.780764	 -5.634098	 -0.679426	 1.584624	 -0.676110	 -0.429319	 -0.084464	 0.705874	 -0.371824	 0.596954	 2
1462095748.325	 19	 -0.818423	 -5.380755	 -0.520073	 1.536458	 -0.681744	 -0.419061	 -0.098942	 0.690566	 -0.368194	 0.614623	 2
1462095748.335	 19	 -0.850057	 -5.178735	 -0.395355	 1.491122	 -0.686523	 -0.408455	 -0.112577	 0.675682	 -0.363886	 0.631163	 2
1462095748.345	 19	 -0.827680	 -5.149507	 -0.169337	 1.446203	 -0.689703	 -0.398018	 -0.125341	 0.660573	 -0.358781	 0.647464	 2
1462095748.355	 19	 -0.959177	 -4.841098	 0.211958	 1.404302	 -0.689981	 -0.386155	 -0.136768	 0.646054	 -0.352224	 0.663209	 2
1462095748.365	 19	 -1.323351	 -4.006390	 0.766435	 1.372710	 -0.686158	 -0.369092	 -0.146287	 0.634407	 -0.343233	 0.676993	 2
1462095748.375	 19	 -1.582313	 -3.127613	 1.426982	 1.353850	 -0.676963	 -0.346326	 -0.153163	 0.626618	 -0.331575	 0.688439	 2
1462095748.385	 19	 -1.466973	 -2.776108	 1.837435	 1.340415	 -0.663184	 -0.322463	 -0.157538	 0.620651	 -0.318547	 0.698929	 2
1462095748.395	 19	 -1.172315	 -2.817879	 1.916545	 1.325254	 -0.647532	 -0.301503	 -0.160380	 0.614280	 -0.305745	 0.709548	 2
1462095748.405	 19	 -0.952086	 -2.917816	 1.864672	 1.307009	 -0.631867	 -0.283561	 -0.162553	 0.606942	 -0.293642	 0.720397	 2
1462095748.415	 19	 -0.882882	 -2.938350	 1.847892	 1.287357	 -0.616472	 -0.266829	 -0.164446	 0.599055	 -0.281838	 0.731203	 2
1462095748.425	 19	 -0.895522	 -2.915866	 1.863132	 1.267816	 -0.601249	 -0.249892	 -0.166225	 0.591057	 -0.269928	 0.741727	 2
1462095748.435	 19	 -0.881341	 -2.891096	 1.911198	 1.248551	 -0.585975	 -0.232654	 -0.167806	 0.583018	 -0.257834	 0.751966	 2
1462095748.445	 19	 -0.736799	 -2.898039	 2.038833	 1.228698	 -0.569607	 -0.216035	 -0.168616	 0.574734	 -0.245560	 0.762201	 2
1462095748.455	 19	 -0.461593	 -2.847570	 2.215954	 1.207953	 -0.551123	 -0.201235	 -0.167924	 0.566225	 -0.233300	 0.772504	 2
1462095748.465	 19	 -0.099242	 -2.682191	 2.433885	 1.186938	 -0.529679	 -0.189014	 -0.165094	 0.557811	 -0.221233	 0.782718	 2
1462095748.475	 19	 0.286543	 -2.289363	 2.638808	 1.167406	 -0.504997	 -0.179569	 -0.159772	 0.550184	 -0.209574	 0.792369	 2
1462095748.485	 19	 0.686372	 -1.809795	 2.783667	 1.151277	 -0.477480	 -0.173196	 -0.151878	 0.544105	 -0.198743	 0.800864	 2
1462095748.495	 19	 1.063588	 -1.334748	 2.882853	 1.138334	 -0.447418	 -0.169818	 -0.141634	 0.539456	 -0.188787	 0.808261	 2
1462095748.505	 19	 1.419010	 -0.904743	 2.922127	 1.128373	 -0.415395	 -0.169520	 -0.129328	 0.536110	 -0.179870	 0.814560	 2
1462095748.515	 19	 1.716496	 -0.536293	 2.956004	 1.121221	 -0.381698	 -0.171817	 -0.115270	 0.533909	 -0.171838	 0.819833	 2
1462095748.525	 19	 1.926454	 -0.125439	 2.935618	 1.117342	 -0.346978	 -0.176141	 -0.099885	 0.532954	 -0.164608	 0.823946	 2
1462095748.535	 19	 2.077003	 0.197821	 2.839266	 1.116595	 -0.312255	 -0.182248	 -0.083717	 0.533130	 -0.158272	 0.826870	 2
1462095748.545	 19	 2.121228	 0.410498	 2.704442	 1.118124	 -0.278357	 -0.189631	 -0.067352	 0.534038	 -0.152734	 0.828818	 2
1462095748.555	 19	 1.970345	 0.421792	 2.587561	 1.120643	 -0.246037	 -0.196629	 -0.051671	 0.535098	 -0.147418	 0.830222	 2
1462095748.565	 19	 1.678743	 0.171365	 2.550468	 1.122017	 -0.215388	 -0.201500	 -0.037346	 0.535430	 -0.141566	 0.831793	 2
1462095748.575	 19	 1.292349	 -0.325025	 2.584383	 1.119896	 -0.186177	 -0.202909	 -0.024792	 0.534100	 -0.134560	 0.834276	 2
1462095748.585	 19	 0.863058	 -0.870178	 2.623547	 1.112981	 -0.158408	 -0.200092	 -0.014255	 0.530631	 -0.126127	 0.838045	 2
1462095748.595	 19	 0.541414	 -1.390589	 2.598058	 1.101298	 -0.132345	 -0.193827	 -0.005567	 0.525098	 -0.116715	 0.842982	 2
1462095748.605	 19	 0.415334	 -2.057480	 2.546057	 1.083506	 -0.107649	 -0.185876	 0.001888	 0.516948	 -0.107021	 0.849299	 2
1462095748.615	 19	 0.415158	 -2.848155	 2.635685	 1.057460	 -0.082739	 -0.176892	 0.008949	 0.505190	 -0.096985	 0.857495	 2
1462095748.625	 19	 0.611724	 -2.963123	 2.555103	 1.028521	 -0.057638	 -0.168582	 0.016397	 0.492053	 -0.087395	 0.866012	 2
1462095748.635	 19	 0.985631	 -2.975978	 2.400390	 0.999002	 -0.032254	 -0.163225	 0.024934	 0.478485	 -0.079251	 0.874156	 2
1462095748.655	 19	 1.721209	 -3.090246	 2.340700	 0.937821	 0.022924	 -0.161094	 0.046550	 0.449597	 -0.066607	 0.889527	 2
1462095748.665	 20	 1.833414	 -3.489780	 2.585393	 0.904011	 0.053973	 -0.160461	 0.059187	 0.433262	 -0.060322	 0.897297	 2
1462095748.675	 20	 1.779779	 -3.734769	 2.807391	 0.866889	 0.086729	 -0.156815	 0.072087	 0.415234	 -0.052866	 0.905312	 2
1462095748.685	 20	 1.766366	 -3.840227	 2.779882	 0.828133	 0.119394	 -0.151503	 0.084857	 0.396333	 -0.045225	 0.913057	 2
1462095748.695	 20	 1.791141	 -3.887168	 2.623624	 0.788555	 0.149894	 -0.145924	 0.096872	 0.377004	 -0.038429	 0.920330	 2
1462095748.705	 20	 1.815912	 -3.904602	 2.429263	 0.748713	 0.176898	 -0.140626	 0.107603	 0.357568	 -0.032912	 0.927083	 2
1462095748.715	 20	 1.781089	 -3.885695	 2.235768	 0.708722	 0.204184	 -0.135451	 0.118723	 0.337925	 -0.027856	 0.933239	 2
1462095748.725	 20	 1.732848	 -3.804754	 2.084538	 0.669262	 0.231112	 -0.130024	 0.129868	 0.318466	 -0.023167	 0.938710	 2
1462095748.735	 20	 1.706532	 -3.630026	 1.968093	 0.631090	 0.256817	 -0.124335	 0.140620	 0.299622	 -0.018910	 0.943449	 2
1462095748.745	 20	 1.716678	 -3.397083	 1.827360	 0.595058	 0.281538	 -0.118727	 0.151125	 0.281789	 -0.015102	 0.947380	 2
1462095748.755	 20	 1.736472	 -3.124020	 1.649615	 0.561648	 0.305321	 -0.113784	 0.161450	 0.265173	 -0.011921	 0.950513	 2
1462095748.765	 20	 1.740040	 -2.651122	 1.448292	 0.532497	 0.327966	 -0.109816	 0.171506	 0.250550	 -0.009348	 0.952745	 2
1462095748.785	 21	 1.700618	 -1.651917	 1.351357	 0.489687	 0.371159	 -0.102511	 0.190984	 0.228758	 -0.004183	 0.954556	 2
1462095748.795	 21	 1.742059	 -1.214036	 1.323098	 0.474986	 0.392625	 -0.098354	 0.200693	 0.221150	 -0.001025	 0.954366	 2
1462095748.805	 21	 1.893387	 -0.916608	 1.184933	 0.464055	 0.414675	 -0.095585	 0.210860	 0.215198	 0.001784	 0.953533	 2
1462095748.815	 21	 2.082812	 -0.666274	 1.021486	 0.456556	 0.437617	 -0.095059	 0.221692	 0.210610	 0.003891	 0.952093	 2
1462095748.825	 21	 2.236385	 -0.376036	 0.919471	 0.452613	 0.461535	 -0.096413	 0.233159	 0.207437	 0.005547	 0.950040	 2
1462095748.835	 21	 2.330792	 -0.014945	 0.883641	 0.452609	 0.486185	 -0.098766	 0.245032	 0.205936	 0.007253	 0.947363	 2
1462095748.845	 21	 2.362711	 0.386207	 0.920135	 0.456677	 0.511369	 -0.101303	 0.257115	 0.206247	 0.009462	 0.944068	 2
1462095748.855	 21	 2.296471	 0.725468	 1.035774	 0.463909	 0.536603	 -0.102800	 0.269042	 0.208108	 0.012647	 0.940291	 2
1462095748.865	 21	 2.124924	 0.901331	 1.163598	 0.472420	 0.561100	 -0.102465	 0.280358	 0.210790	 0.016870	 0.936313	 2
1462095748.875	 21	 1.914147	 0.974602	 1.208745	 0.481053	 0.584112	 -0.100470	 0.290736	 0.213797	 0.021797	 0.932356	 2
1462095748.885	 21	 1.702155	 0.857968	 1.173270	 0.488457	 0.605150	 -0.097683	 0.300061	 0.216431	 0.026746	 0.928658	 2
1462095748.895	 21	 1.504453	 0.637829	 1.097274	 0.493636	 0.624104	 -0.094573	 0.308366	 0.218188	 0.031302	 0.925378	 2
1462095748.905	 21	 1.382023	 0.354351	 0.971008	 0.496303	 0.641255	 -0.091874	 0.315890	 0.218820	 0.035080	 0.922551	 2
1462095748.915	 21	 1.367132	 0.066950	 0.787283	 0.497067	 0.657247	 -0.090818	 0.323070	 0.218380	 0.037663	 0.920064	 2
1462095748.925	 21	 1.380770	 -0.256902	 0.575262	 0.496124	 0.672348	 -0.092133	 0.330114	 0.216810	 0.038766	 0.917886	 2
1462095748.935	 21	 1.377515	 -0.550852	 0.373257	 0.493604	 0.686492	 -0.095796	 0.336988	 0.214164	 0.038405	 0.916023	 2
1462095748.945	 21	 1.345206	 -0.725110	 0.237631	 0.490043	 0.699690	 -0.101066	 0.343601	 0.210797	 0.037003	 0.914403	 2
1462095748.965	 22	 1.281246	 -0.724625	 -0.014393	 0.484057	 0.723593	 -0.115420	 0.355995	 0.203963	 0.032320	 0.911385	 2
1462095748.975	 22	 1.181671	 -0.522637	 -0.068132	 0.483764	 0.734013	 -0.123633	 0.361524	 0.201630	 0.029800	 0.909812	 2
1462095748.985	 22	 1.077883	 -0.326864	 -0.100577	 0.485463	 0.743350	 -0.131688	 0.366501	 0.200263	 0.027595	 0.908191	 2
1462095748.995	 22	 0.936420	 -0.201166	 -0.131214	 0.488438	 0.751388	 -0.139400	 0.370831	 0.199593	 0.025641	 0.906636	 2
1462095749.005	 22	 0.725089	 -0.184787	 -0.157998	 0.491339	 0.757579	 -0.146279	 0.374246	 0.199150	 0.023840	 0.905379	 2
1462095749.015	 22	 0.468284	 -0.308654	 -0.182492	 0.492509	 0.761448	 -0.151898	 0.376516	 0.198321	 0.022005	 0.904666	 2
1462095749.025	 22	 0.226177	 -0.498382	 -0.189610	 0.490882	 0.763060	 -0.156067	 0.377663	 0.196671	 0.020017	 0.904594	 2
1462095749.035	 22	 0.037570	 -0.656376	 -0.199030	 0.486696	 0.762843	 -0.158969	 0.377889	 0.194246	 0.017886	 0.905068	 2
1462095749.045	 22	 -0.052894	 -0.795741	 -0.240038	 0.480851	 0.761458	 -0.161525	 0.377567	 0.191229	 0.015451	 0.905890	 2
1462095749.055	 22	 -0.071710	 -0.928723	 -0.251770	 0.473740	 0.759658	 -0.164146	 0.377062	 0.187656	 0.012698	 0.906889	 2
1462095749.065	 22	 0.016071	 -1.102304	 -0.245623	 0.465187	 0.758431	 -0.167097	 0.376836	 0.183318	 0.009597	 0.907908	 2
1462095749.075	 22	 0.155449	 -1.190999	 -0.246596	 0.455983	 0.758410	 -0.170833	 0.377201	 0.178435	 0.006163	 0.908759	 2
1462095749.085	 22	 0.288050	 -1.111806	 -0.272592	 0.447883	 0.759582	 -0.175685	 0.378170	 0.173743	 0.002568	 0.909282	 2
1462095749.095	 22	 0.340326	 -0.911804	 -0.245608	 0.441814	 0.761477	 -0.180864	 0.379465	 0.169849	 -0.000713	 0.909482	 2
1462095749.105	 22	 0.324468	 -0.704977	 -0.184928	 0.437350	 0.763634	 -0.185345	 0.380803	 0.166791	 -0.003346	 0.909483	 2
1462095749.115	 22	 0.246757	 -0.494727	 -0.117284	 0.434109	 0.765513	 -0.188596	 0.381905	 0.164543	 -0.005222	 0.909421	 2
1462095749.125	 22	 0.154021	 -0.256116	 -0.104664	 0.432565	 0.766676	 -0.190929	 0.382612	 0.163298	 -0.006443	 0.909341	 2
1462095749.135	 22	 0.097406	 -0.041106	 -0.105368	 0.433049	 0.767209	 -0.192932	 0.383015	 0.163090	 -0.007199	 0.909202	 2
1462095749.145	 22	 0.089595	 0.075176	 -0.060521	 0.434547	 0.767715	 -0.194368	 0.383364	 0.163453	 -0.007505	 0.908988	 2
1462095749.155	 22	 0.089056	 0.183697	 -0.056310	 0.436966	 0.768302	 -0.195582	 0.383735	 0.164271	 -0.007524	 0.908684	 2
1462095749.165	 22	 0.094690	 0.256981	 -0.068466	 0.440352	 0.768864	 -0.196978	 0.384113	 0.165493	 -0.007442	 0.908303	 2
1462095749.175	 22	 0.079946	 0.285853	 -0.053148	 0.444039	 0.769386	 -0.198232	 0.384464	 0.166881	 -0.007240	 0.907902	 2
1462095749.185	 22	 0.025598	 0.267171	 -0.011284	 0.447167	 0.769657	 -0.198768	 0.384641	 0.168175	 -0.006850	 0.907591	 2
1462095749.195	 22	 -0.048044	 0.219920	 0.043271	 0.449119	 0.769523	 -0.198232	 0.384542	 0.169175	 -0.006248	 0.907452	 2
1462095749.205	 22	 -0.146074	 0.182517	 0.125841	 0.449635	 0.768896	 -0.196232	 0.384095	 0.169847	 -0.005316	 0.907521	 2
1462095749.215	 22	 -0.238645	 0.179065	 0.199086	 0.448962	 0.767745	 -0.192645	 0.383275	 0.170329	 -0.003956	 0.907785	 2
1462095749.225	 22	 -0.353724	 0.157575	 0.269163	 0.447061	 0.765915	 -0.187568	 0.382023	 0.170591	 -0.002234	 0.908269	 2
1462095749.235	 22	 -0.475209	 0.177225	 0.289587	 0.444469	 0.763150	 -0.181311	 0.380252	 0.170834	 -0.000215	 0.908969	 2
1462095749.255	 23	 -0.675899	 0.165046	 0.289090	 0.438251	 0.754467	 -0.167086	 0.375151	 0.171385	 0.004068	 0.910973	 2
1462095749.265	 23	 -0.687976	 0.077999	 0.307569	 0.433996	 0.749503	 -0.159341	 0.372269	 0.171273	 0.006232	 0.912164	 2
1462095749.275	 23	 -0.623315	 -0.023159	 0.317788	 0.428837	 0.744983	 -0.151754	 0.369604	 0.170661	 0.008226	 0.913346	 2
1462095749.285	 23	 -0.512342	 -0.045651	 0.341125	 0.423536	 0.741420	 -0.144585	 0.367410	 0.169816	 0.010128	 0.914369	 2
1462095749.295	 23	 -0.377669	 -0.038284	 0.384783	 0.418511	 0.739192	 -0.137694	 0.365847	 0.168937	 0.012115	 0.915134	 2
1462095749.305	 23	 -0.248473	 -0.053299	 0.419754	 0.413571	 0.738302	 -0.131069	 0.364918	 0.167946	 0.014149	 0.915657	 2
1462095749.315	 23	 -0.163241	 -0.098158	 0.436851	 0.387234	 0.753142	 -0.110347	 0.370181	 0.158756	 0.020325	 0.915068	 2
1462095749.325	 23	 -0.161169	 -0.118312	 0.445171	 0.381663	 0.753343	 -0.103892	 0.369821	 0.157388	 0.022268	 0.915405	 2
1462095749.335	 23	 -0.197675	 -0.155517	 0.433420	 0.375769	 0.753225	 -0.097371	 0.369325	 0.155902	 0.024153	 0.915811	 2
1462095749.355	 24	 -0.300907	 -0.319030	 0.430665	 0.361635	 0.751409	 -0.084054	 0.367656	 0.151978	 0.027481	 0.917048	 2
1462095749.365	 24	 -0.319327	 -0.411221	 0.470467	 0.352688	 0.750034	 -0.076646	 0.366597	 0.149303	 0.029113	 0.917860	 2
1462095749.375	 24	 -0.289207	 -0.402438	 0.520377	 0.343176	 0.748944	 -0.068755	 0.365659	 0.146433	 0.030900	 0.918638	 2
1462095749.385	 24	 -0.201004	 -0.311802	 0.587596	 0.334121	 0.748690	 -0.060376	 0.365079	 0.143815	 0.033074	 0.919206	 2
1462095749.395	 24	 -0.032822	 -0.220474	 0.640350	 0.314464	 0.759510	 -0.044056	 0.369235	 0.137330	 0.037826	 0.918355	 2
1462095749.405	 24	 0.160632	 -0.173049	 0.658290	 0.307030	 0.762585	 -0.035891	 0.370232	 0.135309	 0.040433	 0.918142	 2
1462095749.415	 24	 0.323782	 -0.182194	 0.636535	 0.300168	 0.767241	 -0.028571	 0.372016	 0.133353	 0.042860	 0.917597	 2
1462095749.425	 24	 0.409239	 -0.151712	 0.621154	 0.293843	 0.772834	 -0.021853	 0.374271	 0.131518	 0.045157	 0.916834	 2
1462095749.435	 24	 0.433823	 -0.092660	 0.560741	 0.288567	 0.778623	 -0.015806	 0.376647	 0.130052	 0.047336	 0.915960	 2
1462095749.445	 24	 0.397734	 0.021683	 0.473661	 0.284717	 0.784011	 -0.010761	 0.378878	 0.129079	 0.049280	 0.915075	 2
1462095749.455	 24	 0.233036	 0.333483	 0.282962	 0.284968	 0.787595	 -0.007287	 0.380285	 0.129749	 0.051155	 0.914293	 2
1462095749.465	 24	 0.099295	 0.410225	 0.104727	 0.287915	 0.789283	 -0.005859	 0.380886	 0.131318	 0.052481	 0.913743	 2
1462095749.475	 24	 -0.050269	 0.455715	 0.010534	 0.292066	 0.789246	 -0.005393	 0.380729	 0.133305	 0.053482	 0.913463	 2
1462095749.495	 25	 -0.410238	 0.382351	 0.015117	 0.299193	 0.784165	 -0.003498	 0.378086	 0.137068	 0.055352	 0.913892	 2
