% Gyrometer data recorded with 'snsrlog'
% 
% 
% Label description:
% 	 0: Default Label
% 	 1: still_drop
% 	 2: walk_drop
% 	 3: other
% 	 4: dtw_same
% 	 5: dtw_diff
% 	 6: delete
% 	 7: steal
% 
% Column description:
% 	 1: Seconds.milliseconds since 1970
% 	 2: Number of skipped measurements
% 	 3: Gyro X
% 	 4: Gyro Y
% 	 5: Gyro Z
% 	 6: Roll of the device
% 	 7: Pitch of the device
% 	 8: Yaw of the device
% 	 9: Quaternion X
% 	 10: Quaternion Y
% 	 11: Quaternion Z
% 	 12: Quaternion W
% 	 13: Label used for the current sample
% 
% 
1463624194.597	 0	 -1.834651	 0.353462	 -0.161522	 0.262566	 0.730087	 -0.128909	 0.361059	 0.099231	 -0.013013	 0.927157	 1
1463624194.607	 0	 -1.719573	 0.530845	 -0.148084	 0.264667	 0.712778	 -0.124720	 0.352876	 0.101863	 -0.011947	 0.930032	 1
1463624194.617	 0	 -1.550574	 0.650210	 -0.193207	 0.268816	 0.696925	 -0.121466	 0.345394	 0.105180	 -0.010862	 0.932482	 1
1463624194.627	 0	 -1.370209	 0.765700	 -0.327988	 0.275267	 0.682524	 -0.120129	 0.338675	 0.109154	 -0.010197	 0.934495	 1
1463624194.637	 0	 -1.203665	 0.995211	 -0.585217	 0.285793	 0.669160	 -0.122038	 0.332623	 0.114443	 -0.010336	 0.936033	 1
1463624194.647	 0	 -1.071608	 1.227375	 -0.930579	 0.301321	 0.656182	 -0.128240	 0.327036	 0.121379	 -0.011706	 0.937111	 1
1463624194.657	 0	 -1.007714	 1.415695	 -1.189429	 0.320842	 0.643003	 -0.137873	 0.321632	 0.129703	 -0.014159	 0.937832	 1
1463624194.667	 0	 -1.005301	 1.571206	 -1.304171	 0.342755	 0.629345	 -0.148894	 0.316188	 0.139033	 -0.017053	 0.938298	 1
1463624194.677	 0	 -1.059405	 1.661580	 -1.330569	 0.365510	 0.614972	 -0.159770	 0.310497	 0.148912	 -0.019960	 0.938626	 1
1463624194.687	 0	 -1.181740	 1.725914	 -1.308656	 0.388187	 0.599451	 -0.169540	 0.304276	 0.159087	 -0.022631	 0.938933	 1
1463624194.697	 0	 -1.339237	 1.760926	 -1.237684	 0.410118	 0.582606	 -0.177418	 0.297358	 0.169369	 -0.024831	 0.939296	 1
1463624194.707	 0	 -1.520175	 1.780255	 -1.138945	 0.430857	 0.564406	 -0.182916	 0.289650	 0.179607	 -0.026411	 0.939759	 1
1463624194.717	 0	 -1.734262	 1.789015	 -1.044278	 0.450273	 0.544678	 -0.185840	 0.281016	 0.189756	 -0.027322	 0.940360	 1
1463624194.727	 0	 -1.955958	 1.792270	 -0.978371	 0.468440	 0.523243	 -0.186370	 0.271354	 0.199804	 -0.027662	 0.941106	 1
1463624194.737	 0	 -2.174252	 1.848606	 -0.924790	 0.485940	 0.500135	 -0.184797	 0.260684	 0.209946	 -0.027488	 0.941919	 1
1463624194.747	 0	 -2.446502	 1.989259	 -0.852902	 0.503530	 0.475084	 -0.180697	 0.248812	 0.220569	 -0.026546	 0.942729	 1
1463624194.757	 0	 -2.704874	 2.146750	 -0.800162	 0.521677	 0.448081	 -0.174097	 0.235703	 0.231831	 -0.024819	 0.943442	 1
1463624194.767	 0	 -2.928707	 2.186915	 -0.778655	 0.539957	 0.419331	 -0.165503	 0.221470	 0.243397	 -0.022597	 0.944033	 1
1463624194.777	 0	 -3.100843	 2.108804	 -0.766160	 0.557239	 0.389219	 -0.155267	 0.206293	 0.254605	 -0.020131	 0.944571	 1
1463624194.787	 0	 -3.259414	 1.982638	 -0.774480	 0.573147	 0.357917	 -0.143721	 0.190276	 0.265175	 -0.017585	 0.945076	 1
1463624194.797	 0	 -3.299138	 1.984437	 -0.835933	 0.589019	 0.325361	 -0.131761	 0.173511	 0.275613	 -0.015255	 0.945356	 1
1463624194.807	 0	 -3.114101	 1.971114	 -0.984743	 0.605551	 0.293818	 -0.121192	 0.157329	 0.285956	 -0.013615	 0.945141	 1
1463624194.817	 0	 -2.747564	 2.040715	 -1.212162	 0.623666	 0.263909	 -0.113919	 0.142337	 0.296514	 -0.013411	 0.944267	 1
1463624194.827	 0	 -2.300833	 2.359053	 -1.427308	 0.645434	 0.236286	 -0.110608	 0.129021	 0.308273	 -0.014733	 0.942393	 1
1463624194.837	 0	 -1.835196	 2.994901	 -1.558666	 0.673614	 0.211482	 -0.110757	 0.117651	 0.322612	 -0.017122	 0.939035	 1
1463624194.847	 0	 -1.360672	 3.900081	 -1.653491	 0.710867	 0.189686	 -0.113946	 0.108364	 0.340815	 -0.020241	 0.933645	 1
1463624194.857	 0	 -0.938305	 4.829913	 -1.743369	 0.757959	 0.170458	 -0.119872	 0.101024	 0.363231	 -0.024010	 0.925895	 1
1463624194.867	 0	 -0.618165	 5.580296	 -1.832960	 0.813311	 0.152738	 -0.127898	 0.095133	 0.389103	 -0.028407	 0.915828	 1
1463624194.877	 0	 -0.327990	 6.100905	 -1.939350	 0.874562	 0.135803	 -0.137675	 0.090381	 0.417274	 -0.033503	 0.903655	 1
1463624194.887	 0	 -0.021293	 6.355959	 -2.137879	 0.939201	 0.118790	 -0.149844	 0.086599	 0.446503	 -0.039845	 0.889690	 1
1463624194.897	 0	 0.231822	 6.391599	 -2.400863	 1.004716	 0.100503	 -0.164510	 0.083386	 0.475643	 -0.047816	 0.874371	 1
1463624194.907	 0	 0.415814	 6.290968	 -2.709275	 1.069470	 0.079747	 -0.181150	 0.080216	 0.504018	 -0.057531	 0.858033	 1
1463624194.917	 0	 0.575586	 6.035105	 -3.019987	 1.131745	 0.055924	 -0.199297	 0.076801	 0.530936	 -0.069028	 0.841096	 1
1463624194.927	 0	 0.733519	 5.798766	 -3.279344	 1.191034	 0.029146	 -0.218470	 0.073138	 0.556219	 -0.082116	 0.823728	 1
1463624194.937	 0	 0.911915	 5.785030	 -3.487783	 1.249053	 -0.000170	 -0.238405	 0.069466	 0.580572	 -0.096522	 0.805477	 1
1463624194.947	 0	 1.142733	 6.003199	 -3.670008	 1.308047	 -0.031771	 -0.259190	 0.066112	 0.604836	 -0.112135	 0.785639	 1
1463624194.957	 0	 1.466261	 6.424197	 -3.858613	 1.370054	 -0.065691	 -0.281391	 0.063496	 0.629670	 -0.129110	 0.763423	 1
1463624194.967	 0	 1.873328	 6.889783	 -4.025149	 1.435807	 -0.102018	 -0.305596	 0.062036	 0.655143	 -0.147638	 0.738338	 1
1463624194.977	 0	 2.292034	 7.029489	 -4.097835	 1.502868	 -0.140502	 -0.331688	 0.061836	 0.680127	 -0.167594	 0.710996	 1
1463624194.987	 0	 2.620471	 6.754075	 -4.103258	 1.566985	 -0.180574	 -0.358954	 0.062624	 0.702996	 -0.188567	 0.682874	 1
1463624194.997	 0	 2.799747	 6.063355	 -4.090996	 1.624186	 -0.222248	 -0.386085	 0.063492	 0.722492	 -0.210157	 0.655598	 1
1463624195.007	 0	 2.825114	 4.998484	 -3.961512	 1.670778	 -0.264330	 -0.411947	 0.063800	 0.737634	 -0.231671	 0.630995	 1
1463624195.017	 0	 2.727527	 3.763780	 -3.687593	 1.704819	 -0.304932	 -0.435872	 0.063297	 0.748146	 -0.252293	 0.610426	 1
1463624195.027	 0	 2.602453	 2.555990	 -3.380146	 1.726239	 -0.342892	 -0.458068	 0.061980	 0.754361	 -0.271681	 0.594380	 1
1463624195.037	 0	 2.520715	 1.650837	 -3.269557	 1.737292	 -0.379369	 -0.479188	 0.059627	 0.757243	 -0.290356	 0.581998	 1
1463624195.047	 0	 2.486094	 1.079944	 -3.246858	 1.741334	 -0.415623	 -0.499920	 0.056301	 0.757933	 -0.308833	 0.571831	 1
1463624195.057	 0	 2.436739	 0.773976	 -3.218368	 1.740992	 -0.451579	 -0.520503	 0.052350	 0.757270	 -0.327044	 0.562889	 1
1463624195.067	 0	 2.402847	 0.757670	 -3.134030	 1.739126	 -0.486759	 -0.541140	 0.048380	 0.756107	 -0.344781	 0.554154	 1
1463624195.077	 0	 2.436192	 0.930815	 -3.004817	 1.737526	 -0.520776	 -0.562643	 0.045108	 0.754946	 -0.362087	 0.544899	 1
1463624195.087	 0	 2.524946	 1.254268	 -2.806480	 1.737319	 -0.553121	 -0.585809	 0.043224	 0.754090	 -0.378977	 0.534656	 1
1463624195.097	 0	 2.647317	 1.677714	 -2.592584	 1.739351	 -0.583562	 -0.611167	 0.043204	 0.753744	 -0.395490	 0.523059	 1
1463624195.107	 0	 2.799467	 2.074527	 -2.372801	 1.743425	 -0.612180	 -0.639088	 0.045175	 0.753822	 -0.411728	 0.510089	 1
1463624195.117	 0	 2.967031	 2.341569	 -2.147965	 1.748247	 -0.638970	 -0.669892	 0.049028	 0.753952	 -0.427760	 0.496159	 1
1463624195.127	 0	 3.058831	 2.374915	 -1.912921	 1.751904	 -0.663814	 -0.703157	 0.054232	 0.753654	 -0.443450	 0.482096	 1
1463624195.137	 0	 3.086754	 2.238069	 -1.705548	 1.752989	 -0.686628	 -0.737905	 0.060092	 0.752630	 -0.458565	 0.468673	 1
1463624195.147	 0	 3.011311	 1.913214	 -1.505419	 1.750363	 -0.707432	 -0.773237	 0.065934	 0.750683	 -0.472961	 0.456547	 1
1463624195.157	 0	 2.650069	 1.344039	 -1.231537	 1.743704	 -0.725159	 -0.806395	 0.070924	 0.747897	 -0.485784	 0.446804	 1
1463624195.167	 0	 2.079764	 0.578639	 -0.967254	 1.733354	 -0.738972	 -0.833362	 0.073875	 0.744551	 -0.496024	 0.440621	 1
1463624195.177	 0	 1.659880	 -0.144057	 -0.766762	 1.718842	 -0.749761	 -0.855266	 0.074787	 0.740529	 -0.504334	 0.437802	 1
1463624195.187	 0	 1.205424	 -0.796938	 -0.486453	 1.700881	 -0.757188	 -0.872190	 0.073987	 0.735978	 -0.510700	 0.438233	 1
1463624195.197	 0	 0.782015	 -1.241113	 -0.160777	 1.681443	 -0.760637	 -0.883703	 0.072062	 0.731301	 -0.514847	 0.441518	 1
1463624195.207	 0	 0.534544	 -1.492209	 0.167296	 1.661419	 -0.760401	 -0.891930	 0.069973	 0.726560	 -0.517324	 0.446755	 1
1463624195.217	 0	 0.302328	 -1.680563	 0.500083	 1.641299	 -0.756522	 -0.897389	 0.068071	 0.721790	 -0.518264	 0.453639	 1
1463624195.227	 0	 0.097019	 -1.764188	 0.765402	 1.622060	 -0.749604	 -0.899952	 0.066398	 0.717178	 -0.517765	 0.461699	 1
1463624195.237	 0	 -0.049245	 -1.753500	 1.006571	 1.604216	 -0.740127	 -0.900263	 0.065188	 0.712802	 -0.516075	 0.470458	 1
1463624195.247	 0	 -0.146067	 -1.655846	 1.233199	 1.588221	 -0.728351	 -0.898998	 0.064735	 0.708739	 -0.513392	 0.479507	 1
1463624195.257	 0	 -0.261702	 -1.486769	 1.474509	 1.574754	 -0.714175	 -0.896131	 0.065251	 0.705151	 -0.509651	 0.488631	 1
1463624195.267	 0	 -0.369437	 -1.193559	 1.676408	 1.564997	 -0.697908	 -0.891573	 0.066900	 0.702355	 -0.504845	 0.497346	 1
1463624195.277	 0	 -0.418484	 -0.865732	 1.835487	 1.559036	 -0.679954	 -0.886067	 0.069809	 0.700396	 -0.499224	 0.505320	 1
1463624195.287	 0	 -0.421877	 -0.570100	 1.973619	 1.556169	 -0.660607	 -0.880347	 0.073930	 0.699113	 -0.493038	 0.512531	 1
1463624195.297	 0	 -0.408767	 -0.332497	 2.036464	 1.555685	 -0.640389	 -0.874780	 0.079006	 0.698355	 -0.486512	 0.519003	 1
1463624195.307	 0	 -0.446036	 -0.236279	 1.942831	 1.556519	 -0.620692	 -0.869098	 0.084175	 0.697931	 -0.479957	 0.524832	 1
1463624195.317	 0	 -0.570153	 -0.272189	 1.634506	 1.557904	 -0.603494	 -0.862271	 0.088185	 0.697794	 -0.473643	 0.530066	 1
1463624195.327	 0	 -0.681258	 -0.337116	 1.143553	 1.559104	 -0.590956	 -0.854125	 0.090041	 0.697881	 -0.468139	 0.534510	 1
1463624195.337	 0	 -0.713213	 -0.291398	 0.835186	 1.560867	 -0.582093	 -0.845528	 0.090569	 0.698319	 -0.463411	 0.537956	 1
1463624195.347	 0	 -0.808680	 -0.335242	 0.764203	 1.562768	 -0.574434	 -0.836110	 0.090412	 0.698896	 -0.458742	 0.541226	 1
1463624195.357	 0	 -0.809119	 -0.185586	 1.013922	 1.565563	 -0.565328	 -0.826134	 0.090761	 0.699680	 -0.453457	 0.544598	 1
1463624195.367	 0	 -0.407236	 0.483295	 1.451478	 1.571885	 -0.551870	 -0.819964	 0.094745	 0.701061	 -0.447818	 0.546805	 1
1463624195.377	 0	 -0.082023	 1.109638	 1.712389	 1.582367	 -0.535193	 -0.818334	 0.102332	 0.703210	 -0.442257	 0.547204	 1
1463624195.387	 0	 -0.021142	 1.406752	 1.641086	 1.595904	 -0.518379	 -0.818460	 0.111190	 0.706074	 -0.436865	 0.546119	 1
1463624195.397	 0	 -0.108166	 1.330196	 1.316074	 1.609830	 -0.504336	 -0.818046	 0.118912	 0.709184	 -0.431966	 0.544356	 1
1463624195.407	 0	 -0.277391	 0.981939	 1.038275	 1.621593	 -0.493250	 -0.816015	 0.124517	 0.711939	 -0.427510	 0.543023	 1
1463624195.417	 0	 -0.469527	 0.650595	 0.883394	 1.630769	 -0.483901	 -0.811695	 0.128116	 0.714223	 -0.423040	 0.542688	 1
1463624195.427	 0	 -0.476206	 0.562593	 0.918868	 1.638684	 -0.474721	 -0.806920	 0.131190	 0.716210	 -0.418535	 0.542827	 1
1463624195.437	 0	 -0.337655	 0.660810	 1.025152	 1.646500	 -0.464493	 -0.803484	 0.135044	 0.718034	 -0.414050	 0.542912	 1
1463624195.447	 0	 -0.094960	 0.885348	 1.139165	 1.655068	 -0.453294	 -0.802677	 0.140289	 0.719830	 -0.409891	 0.542359	 1
1463624195.457	 0	 0.184014	 1.093953	 1.270832	 1.664470	 -0.441091	 -0.805162	 0.147189	 0.721545	 -0.406205	 0.541022	 1
1463624195.467	 0	 0.443434	 1.207080	 1.429494	 1.673327	 -0.427392	 -0.811112	 0.155689	 0.722726	 -0.402975	 0.539480	 1
1463624195.477	 0	 0.591396	 1.189977	 1.624147	 1.682157	 -0.412374	 -0.819074	 0.165307	 0.723589	 -0.399809	 0.537815	 1
1463624195.487	 0	 0.586686	 0.973020	 1.771375	 1.689105	 -0.395722	 -0.827719	 0.175291	 0.723691	 -0.396405	 0.537036	 1
1463624195.497	 0	 0.498703	 0.696308	 1.712015	 1.693825	 -0.379087	 -0.835556	 0.184493	 0.723163	 -0.392926	 0.537221	 1
1463624195.507	 0	 0.470477	 0.540681	 1.507252	 1.696832	 -0.364102	 -0.842689	 0.192532	 0.722262	 -0.389891	 0.537824	 1
1463624195.517	 0	 0.498981	 0.454793	 1.262145	 1.699254	 -0.351640	 -0.849725	 0.199578	 0.721319	 -0.387650	 0.538139	 1
1463624195.527	 0	 0.384422	 0.592591	 1.004379	 1.702392	 -0.341523	 -0.855718	 0.205609	 0.720794	 -0.385773	 0.537922	 1
1463624195.537	 0	 0.275014	 0.679425	 0.761014	 1.707724	 -0.333809	 -0.860010	 0.210661	 0.721183	 -0.383945	 0.536753	 1
1463624195.547	 0	 0.137015	 0.546526	 0.565945	 1.712660	 -0.327985	 -0.862756	 0.214460	 0.721756	 -0.382319	 0.535637	 1
1463624195.557	 0	 -0.023252	 0.399189	 0.424223	 1.716781	 -0.323502	 -0.863595	 0.216979	 0.722413	 -0.380679	 0.534904	 1
1463624195.567	 0	 -0.121462	 0.231928	 0.346787	 1.719640	 -0.319790	 -0.863101	 0.218524	 0.722935	 -0.379057	 0.534722	 1
1463624195.577	 0	 -0.143806	 0.195031	 0.392432	 1.721878	 -0.315883	 -0.862208	 0.219866	 0.723318	 -0.377329	 0.534876	 1
1463624195.587	 0	 -0.107666	 0.280961	 0.522940	 1.724543	 -0.310877	 -0.861738	 0.221784	 0.723680	 -0.375310	 0.535016	 1
1463624195.597	 0	 -0.060170	 0.434704	 0.475997	 1.728464	 -0.305713	 -0.861852	 0.224191	 0.724297	 -0.373250	 0.534619	 1
1463624195.607	 0	 -0.013123	 0.530863	 0.115189	 1.733636	 -0.303491	 -0.861939	 0.225887	 0.725487	 -0.371977	 0.533177	 1
1463624195.617	 0	 0.082512	 0.497494	 -0.487044	 1.738703	 -0.306767	 -0.861975	 0.225813	 0.727095	 -0.372470	 0.530668	 1
1463624195.627	 0	 0.191194	 0.383498	 -1.202046	 1.742895	 -0.317153	 -0.861856	 0.223292	 0.729038	 -0.375314	 0.527053	 1
1463624195.637	 0	 0.298610	 0.303771	 -1.738736	 1.745977	 -0.333529	 -0.861730	 0.218682	 0.731108	 -0.380206	 0.522592	 1
1463624195.647	 0	 0.425284	 0.534810	 -2.094719	 1.750476	 -0.354080	 -0.862056	 0.213198	 0.733730	 -0.386388	 0.516614	 1
1463624195.657	 0	 0.490652	 0.956738	 -2.259753	 1.758664	 -0.376874	 -0.862777	 0.207885	 0.737301	 -0.392987	 0.508657	 1
1463624195.667	 0	 0.472460	 1.438261	 -2.307336	 1.771724	 -0.400353	 -0.863079	 0.203205	 0.742028	 -0.399201	 0.498739	 1
1463624195.677	 0	 0.433668	 1.850714	 -2.354317	 1.789491	 -0.424150	 -0.862495	 0.199111	 0.747810	 -0.404852	 0.487062	 1
1463624195.687	 0	 0.436625	 2.123205	 -2.471172	 1.810795	 -0.448862	 -0.861015	 0.195209	 0.754302	 -0.410288	 0.473905	 1
1463624195.697	 0	 0.528539	 2.017907	 -2.580594	 1.832347	 -0.474871	 -0.859302	 0.190978	 0.760599	 -0.416136	 0.460268	 1
1463624195.707	 0	 0.697841	 1.557310	 -2.666287	 1.849526	 -0.502090	 -0.858448	 0.185896	 0.765527	 -0.423050	 0.447706	 1
1463624195.717	 0	 0.803977	 1.072274	 -2.774037	 1.861504	 -0.530646	 -0.858255	 0.179639	 0.768984	 -0.431048	 0.436567	 1
1463624195.727	 0	 0.730219	 0.761532	 -2.973453	 1.870496	 -0.560722	 -0.856834	 0.171852	 0.771673	 -0.439530	 0.426381	 1
1463624195.737	 0	 0.563058	 0.668158	 -3.303253	 1.879807	 -0.593201	 -0.852225	 0.162209	 0.774447	 -0.448071	 0.416116	 1
1463624195.747	 0	 0.448940	 0.733113	 -3.632041	 1.891456	 -0.628465	 -0.844266	 0.150986	 0.777617	 -0.456645	 0.404958	 1
1463624195.757	 0	 0.423283	 0.869136	 -3.805337	 1.905930	 -0.665583	 -0.834068	 0.139038	 0.781035	 -0.465228	 0.392702	 1
1463624195.767	 0	 0.422682	 1.081771	 -3.671203	 1.923170	 -0.702634	 -0.823020	 0.127517	 0.784493	 -0.473568	 0.379529	 1
1463624195.777	 0	 0.426509	 1.287135	 -3.218524	 1.942342	 -0.737331	 -0.812629	 0.117544	 0.787758	 -0.481335	 0.365975	 1
1463624195.787	 0	 0.463756	 1.358033	 -2.521186	 1.961206	 -0.764942	 -0.804681	 0.110709	 0.790581	 -0.487491	 0.353663	 1
1463624195.797	 0	 0.552722	 1.201018	 -1.697456	 1.976234	 -0.784579	 -0.801152	 0.107155	 0.792516	 -0.492225	 0.343731	 1
1463624195.807	 0	 0.625228	 0.946217	 -0.871295	 1.984875	 -0.796805	 -0.803066	 0.106431	 0.793279	 -0.495928	 0.336803	 1
1463624195.817	 0	 0.633189	 0.947969	 -0.480214	 1.990542	 -0.804325	 -0.808249	 0.107678	 0.793559	 -0.498848	 0.331392	 1
1463624195.827	 0	 0.676648	 0.891417	 -0.487513	 1.995418	 -0.811340	 -0.814152	 0.109173	 0.793668	 -0.501746	 0.326224	 1
1463624195.837	 0	 0.737820	 0.839309	 -0.607900	 1.998921	 -0.820107	 -0.820647	 0.110052	 0.793404	 -0.505335	 0.320991	 1
1463624195.847	 0	 0.740974	 0.872959	 -0.659837	 2.003177	 -0.829144	 -0.826579	 0.110825	 0.793251	 -0.508846	 0.315508	 1
1463624195.857	 0	 0.703584	 0.863505	 -0.658533	 2.007830	 -0.838135	 -0.832090	 0.111557	 0.793159	 -0.512226	 0.309963	 1
1463624195.867	 0	 0.631278	 0.729388	 -0.701782	 2.012183	 -0.847112	 -0.836579	 0.111820	 0.793051	 -0.515436	 0.304784	 1
1463624195.877	 0	 0.565108	 0.574734	 -0.787906	 2.016035	 -0.856501	 -0.839551	 0.111240	 0.792899	 -0.518550	 0.300071	 1
1463624195.887	 0	 0.494873	 0.445766	 -0.853506	 2.019668	 -0.866307	 -0.841087	 0.109920	 0.792742	 -0.521575	 0.295698	 1
1463624195.897	 0	 0.376503	 0.206015	 -0.815273	 2.022271	 -0.875562	 -0.841215	 0.107941	 0.792519	 -0.524273	 0.292234	 1
1463624195.907	 0	 0.215432	 -0.036800	 -0.776697	 2.023795	 -0.883715	 -0.839476	 0.105265	 0.792288	 -0.526417	 0.289971	 1
1463624195.917	 0	 0.084213	 -0.198558	 -0.842071	 2.025337	 -0.891574	 -0.835390	 0.101753	 0.792180	 -0.528133	 0.288397	 1
1463624195.927	 0	 0.041580	 -0.285687	 -0.993849	 2.027357	 -0.900309	 -0.829352	 0.097342	 0.792145	 -0.529814	 0.286928	 1
1463624195.937	 0	 0.074779	 -0.325472	 -1.186346	 2.029965	 -0.910827	 -0.822069	 0.092078	 0.792076	 -0.531840	 0.285104	 1
1463624195.947	 0	 0.179611	 -0.411623	 -1.290373	 2.031657	 -0.922860	 -0.815008	 0.086223	 0.791687	 -0.534408	 0.283204	 1
1463624195.957	 0	 0.324671	 -0.357350	 -1.374264	 2.032180	 -0.936558	 -0.809449	 0.080170	 0.790869	 -0.537744	 0.280946	 1
1463624195.967	 0	 0.518405	 -0.149135	 -1.477392	 2.033219	 -0.951627	 -0.805586	 0.074531	 0.789873	 -0.541702	 0.277677	 1
1463624195.977	 0	 0.676467	 0.186836	 -1.577955	 2.035861	 -0.968399	 -0.803501	 0.069539	 0.788811	 -0.546345	 0.272851	 1
1463624195.987	 0	 0.696871	 0.685440	 -1.601203	 2.042857	 -0.985876	 -0.801731	 0.065676	 0.788175	 -0.551083	 0.266034	 1
1463624195.997	 0	 0.608980	 1.177991	 -1.476489	 2.055513	 -1.002258	 -0.799310	 0.063477	 0.788293	 -0.555233	 0.257450	 1
1463624196.007	 0	 0.483465	 1.337106	 -1.292736	 2.071758	 -1.016537	 -0.795882	 0.062542	 0.788971	 -0.558542	 0.248283	 1
1463624196.017	 0	 0.395447	 1.019035	 -1.042343	 2.085720	 -1.028168	 -0.792532	 0.061810	 0.789514	 -0.561173	 0.240690	 1
1463624196.027	 0	 0.378805	 0.742709	 -0.873182	 2.095845	 -1.037948	 -0.790073	 0.060912	 0.789687	 -0.563498	 0.234849	 1
1463624196.037	 0	 0.423067	 0.696049	 -0.689625	 2.103111	 -1.046416	 -0.789682	 0.060419	 0.789559	 -0.565768	 0.229897	 1
1463624196.047	 0	 0.462460	 0.692431	 -0.439547	 2.107728	 -1.053065	 -0.792439	 0.060943	 0.789214	 -0.567931	 0.225569	 1
1463624196.057	 0	 0.409294	 0.601195	 -0.282201	 2.110350	 -1.057934	 -0.796641	 0.061977	 0.788797	 -0.569773	 0.222073	 1
1463624196.067	 0	 0.303171	 0.477271	 -0.253654	 2.112741	 -1.061834	 -0.799747	 0.062787	 0.788496	 -0.571201	 0.219228	 1
1463624196.077	 0	 0.217763	 0.434225	 -0.210681	 2.115508	 -1.064977	 -0.801511	 0.063390	 0.788362	 -0.572240	 0.216813	 1
1463624196.087	 0	 0.199920	 0.675072	 -0.152864	 2.119955	 -1.067436	 -0.803272	 0.064667	 0.788486	 -0.573018	 0.213914	 1
1463624196.097	 0	 0.221014	 1.064378	 -0.140899	 2.127644	 -1.069771	 -0.805505	 0.067098	 0.788940	 -0.573695	 0.209631	 1
1463624196.107	 0	 0.261051	 1.388821	 -0.119045	 2.138148	 -1.072173	 -0.808552	 0.070646	 0.789624	 -0.574364	 0.203984	 1
1463624196.117	 0	 0.297139	 1.530546	 -0.067950	 2.149582	 -1.074415	 -0.812687	 0.074942	 0.790341	 -0.575032	 0.197693	 1
1463624196.127	 0	 0.342959	 1.532397	 -0.087515	 2.160589	 -1.076799	 -0.817671	 0.079421	 0.790917	 -0.575805	 0.191285	 1
1463624196.137	 0	 0.386027	 1.459318	 -0.173831	 2.171305	 -1.080190	 -0.822322	 0.083417	 0.791302	 -0.576822	 0.184820	 1
1463624196.147	 0	 0.469632	 1.508245	 -0.140000	 2.180876	 -1.084035	 -0.828235	 0.087468	 0.791422	 -0.578103	 0.178319	 1
1463624196.157	 0	 0.555460	 1.690017	 0.027206	 2.188526	 -1.087066	 -0.837959	 0.092701	 0.791259	 -0.579517	 0.171682	 1
1463624196.167	 0	 0.562565	 1.829237	 0.307670	 2.195156	 -1.088497	 -0.850798	 0.099313	 0.791016	 -0.580707	 0.164958	 1
1463624196.177	 0	 0.438730	 1.887175	 0.766499	 2.199415	 -1.086156	 -0.867139	 0.107651	 0.790816	 -0.581114	 0.159149	 1
1463624196.187	 0	 0.238244	 1.931792	 1.557324	 2.199461	 -1.077025	 -0.888883	 0.118760	 0.790729	 -0.580117	 0.155266	 1
1463624196.197	 0	 0.042622	 1.820529	 2.414865	 2.193086	 -1.059580	 -0.917390	 0.132985	 0.790508	 -0.577592	 0.154272	 1
1463624196.207	 0	 -0.111683	 1.532838	 2.867546	 2.182416	 -1.036488	 -0.948312	 0.148539	 0.790025	 -0.574001	 0.155948	 1
1463624196.217	 0	 -0.171847	 1.184300	 3.181358	 2.168414	 -1.010065	 -0.979579	 0.164275	 0.789069	 -0.569918	 0.159926	 1
1463624196.237	 1	 -0.043369	 0.171828	 3.684515	 2.125224	 -0.949323	 -1.045371	 0.195212	 0.784317	 -0.562026	 0.175687	 1
1463624196.247	 1	 0.057838	 -0.191016	 3.264611	 2.099918	 -0.920366	 -1.075620	 0.208313	 0.780662	 -0.559228	 0.185570	 1
1463624196.257	 1	 -0.061360	 -0.665851	 2.566353	 2.077345	 -0.896450	 -1.097377	 0.217455	 0.777289	 -0.557113	 0.195349	 1
1463624196.267	 1	 -0.200616	 -1.052881	 2.087568	 2.056668	 -0.876386	 -1.111477	 0.223062	 0.774378	 -0.555329	 0.205408	 1
1463624196.277	 1	 -0.147720	 -1.041049	 1.687557	 2.038162	 -0.859646	 -1.121794	 0.226861	 0.771730	 -0.553963	 0.214689	 1
1463624196.287	 1	 0.063493	 -0.914059	 1.244608	 2.021749	 -0.847527	 -1.130961	 0.229446	 0.769140	 -0.553581	 0.222094	 1
1463624196.297	 1	 0.326779	 -0.696046	 0.907564	 2.006789	 -0.839802	 -1.140856	 0.231408	 0.766433	 -0.554360	 0.227410	 1
1463624196.307	 1	 0.535532	 -0.388610	 0.706112	 1.993697	 -0.835001	 -1.152162	 0.233539	 0.763667	 -0.555912	 0.230724	 1
1463624196.317	 1	 0.646188	 -0.061757	 0.502498	 1.983523	 -0.832433	 -1.164050	 0.236012	 0.761109	 -0.557813	 0.232069	 1
1463624196.327	 1	 0.627933	 0.108920	 0.270843	 1.976421	 -0.831981	 -1.174687	 0.238208	 0.759025	 -0.559773	 0.231933	 1
1463624196.337	 1	 0.505498	 0.121575	 0.059940	 1.971766	 -0.833126	 -1.182750	 0.239612	 0.757523	 -0.561554	 0.231088	 1
1463624196.347	 1	 0.261906	 -0.029891	 -0.098147	 1.968846	 -0.834957	 -1.186931	 0.239817	 0.756687	 -0.562851	 0.230459	 1
1463624196.357	 1	 -0.092655	 -0.244273	 -0.176987	 1.967607	 -0.836506	 -1.185951	 0.238627	 0.756663	 -0.563278	 0.230730	 1
1463624196.367	 1	 -0.396045	 -0.342024	 -0.139019	 1.968375	 -0.836626	 -1.180564	 0.236767	 0.757393	 -0.562594	 0.231919	 1
1463624196.377	 1	 -0.524059	 -0.337347	 -0.132532	 1.970610	 -0.835881	 -1.172886	 0.234712	 0.758558	 -0.561247	 0.233456	 1
1463624196.387	 1	 -0.507968	 -0.304553	 -0.150485	 1.973481	 -0.835224	 -1.164939	 0.232699	 0.759824	 -0.559813	 0.234793	 1
1463624196.397	 1	 -0.491944	 -0.431991	 -0.263716	 1.975602	 -0.835334	 -1.156895	 0.230201	 0.761004	 -0.558649	 0.236202	 1
1463624196.407	 1	 -0.632491	 -1.193770	 -0.352710	 1.973331	 -0.836158	 -1.146841	 0.225489	 0.761875	 -0.557925	 0.239625	 1
1463624196.417	 1	 -0.909110	 -2.415719	 -0.298792	 1.962399	 -0.835904	 -1.133577	 0.217464	 0.762014	 -0.557454	 0.247565	 1
1463624196.427	 1	 -1.239852	 -3.669823	 0.138972	 1.939927	 -0.831643	 -1.117199	 0.206275	 0.760908	 -0.556643	 0.261952	 1
1463624196.437	 1	 -0.946612	 -2.758743	 0.342062	 1.921542	 -0.824773	 -1.102536	 0.197711	 0.759944	 -0.554747	 0.275048	 1
1463624196.447	 1	 -0.263930	 -1.812595	 -0.325442	 1.906054	 -0.824425	 -1.095952	 0.191022	 0.758424	 -0.555244	 0.282856	 1
1463624196.467	 2	 0.264762	 -0.115428	 -2.505460	 1.900129	 -0.857458	 -1.084929	 0.174856	 0.758445	 -0.562708	 0.278471	 1
1463624196.477	 2	 0.001281	 0.323331	 -3.268564	 1.913795	 -0.887089	 -1.070182	 0.163823	 0.761171	 -0.567073	 0.268716	 1
1463624196.487	 2	 -0.235690	 0.513724	 -3.509854	 1.936143	 -0.919016	 -1.047791	 0.151663	 0.765088	 -0.570529	 0.257167	 1
1463624196.497	 2	 -0.122365	 0.514819	 -3.459674	 1.961025	 -0.950746	 -1.023445	 0.139604	 0.768786	 -0.573853	 0.245301	 1
1463624196.507	 2	 0.224413	 0.373464	 -3.305210	 1.982239	 -0.982116	 -1.002602	 0.128035	 0.771130	 -0.578109	 0.233999	 1
1463624196.517	 2	 0.443630	 0.305091	 -3.111655	 1.999608	 -1.012586	 -0.985774	 0.117270	 0.772246	 -0.583097	 0.223345	 1
1463624196.527	 2	 0.519489	 0.259690	 -3.034937	 2.016053	 -1.042289	 -0.969557	 0.106798	 0.772775	 -0.588199	 0.213157	 1
1463624196.537	 2	 0.583663	 0.390521	 -3.154710	 2.034717	 -1.072730	 -0.952408	 0.096502	 0.773026	 -0.593475	 0.202252	 1
1463624196.547	 2	 0.494102	 0.091968	 -3.586210	 2.058129	 -1.105852	 -0.928080	 0.084181	 0.773236	 -0.598784	 0.190991	 1
1463624196.557	 2	 0.431057	 -0.306964	 -4.208581	 2.088608	 -1.143463	 -0.891934	 0.068305	 0.773244	 -0.604332	 0.179475	 1
1463624196.567	 2	 0.368410	 -0.411303	 -4.826102	 2.132635	 -1.185597	 -0.839569	 0.049322	 0.773081	 -0.610008	 0.166742	 1
1463624196.577	 2	 0.264259	 -0.261360	 -5.164844	 2.198606	 -1.229467	 -0.765771	 0.028905	 0.772964	 -0.615237	 0.152234	 1
1463624196.587	 2	 0.221101	 -0.031324	 -5.288087	 2.291388	 -1.272101	 -0.667108	 0.008456	 0.772667	 -0.619948	 0.136305	 1
1463624196.597	 2	 0.057352	 0.055649	 -5.241090	 2.419012	 -1.310156	 -0.534746	 -0.011713	 0.772343	 -0.623699	 0.119787	 1
1463624196.607	 2	 0.059514	 0.303155	 -4.990483	 2.582528	 -1.340911	 -0.368595	 -0.030515	 0.771787	 -0.626728	 0.103077	 1
1463624196.617	 2	 0.104329	 0.523942	 -4.447412	 2.770330	 -1.362548	 -0.181129	 -0.046716	 0.770810	 -0.629393	 0.086799	 1
1463624196.627	 2	 -0.071687	 0.510355	 -3.606185	 2.955174	 -1.373024	 0.002143	 -0.059820	 0.770040	 -0.631015	 0.072665	 1
1463624196.637	 2	 -0.254109	 0.441777	 -2.430765	 3.097645	 -1.374023	 0.142808	 -0.069045	 0.769994	 -0.631249	 0.062181	 1
1463624196.647	 2	 -0.264030	 0.515070	 -0.982691	 -3.113361	 -1.371446	 0.211414	 -0.072765	 0.770508	 -0.630788	 0.055942	 1
1463624196.657	 2	 -0.181264	 0.602744	 0.139652	 -3.102965	 -1.369349	 0.216068	 -0.071365	 0.771282	 -0.630230	 0.053305	 1
1463624196.667	 2	 -0.038277	 0.594576	 0.684001	 -3.125079	 -1.368760	 0.187305	 -0.067258	 0.771878	 -0.629999	 0.052749	 1
1463624196.677	 2	 0.101522	 0.409630	 0.903807	 3.120500	 -1.369417	 0.144145	 -0.062429	 0.772069	 -0.630182	 0.053688	 1
1463624196.687	 2	 0.222932	 0.077885	 0.966806	 3.074754	 -1.370942	 0.095761	 -0.058158	 0.771790	 -0.630721	 0.056118	 1
1463624196.697	 2	 0.316168	 -0.285133	 0.959419	 3.023792	 -1.372990	 0.045760	 -0.054966	 0.771075	 -0.631524	 0.059995	 1
1463624196.717	 3	 0.460102	 -0.889507	 0.837439	 2.914122	 -1.377965	 -0.052010	 -0.052186	 0.768523	 -0.633709	 0.071149	 1
1463624196.727	 3	 0.514522	 -1.028700	 0.732291	 2.859574	 -1.380918	 -0.097359	 -0.052262	 0.766753	 -0.635095	 0.077540	 1
1463624196.747	 4	 0.481228	 -0.618959	 0.460362	 2.768176	 -1.386949	 -0.172855	 -0.052982	 0.763086	 -0.638082	 0.088001	 1
1463624196.757	 4	 0.311736	 -0.250274	 0.338442	 2.739049	 -1.388934	 -0.199088	 -0.052487	 0.761871	 -0.639219	 0.090537	 1
1463624196.767	 4	 0.101880	 0.151559	 0.224643	 2.723541	 -1.389312	 -0.215304	 -0.051311	 0.761472	 -0.639692	 0.091219	 1
1463624196.777	 4	 -0.085030	 0.447966	 0.102203	 2.721634	 -1.388418	 -0.221197	 -0.049575	 0.761805	 -0.639584	 0.090156	 1
1463624196.787	 4	 -0.246171	 0.554944	 -0.024355	 2.731243	 -1.386461	 -0.216864	 -0.047934	 0.762719	 -0.638907	 0.088088	 1
1463624196.797	 4	 -0.324489	 0.543888	 -0.119882	 2.833029	 -1.399738	 -0.121772	 -0.052807	 0.760463	 -0.642440	 0.078601	 1
1463624196.807	 4	 -0.297344	 0.464685	 -0.177341	 2.852209	 -1.397251	 -0.107247	 -0.051991	 0.761607	 -0.641448	 0.076138	 1
1463624196.817	 4	 -0.195624	 0.333361	 -0.205027	 2.870295	 -1.395643	 -0.092602	 -0.051661	 0.762413	 -0.640761	 0.074044	 1
1463624196.827	 4	 -0.074622	 0.198952	 -0.210529	 2.885552	 -1.395181	 -0.079458	 -0.051757	 0.762778	 -0.640500	 0.072463	 1
1463624196.837	 4	 0.037094	 0.131516	 -0.223988	 2.954026	 -1.411009	 -0.012994	 -0.055796	 0.758318	 -0.646018	 0.067095	 1
1463624196.847	 4	 0.107349	 0.102517	 -0.234461	 2.968315	 -1.412335	 0.000369	 -0.056291	 0.757990	 -0.646477	 0.065956	 1
1463624196.867	 5	 0.081505	 0.064209	 -0.247382	 2.998060	 -1.415195	 0.029088	 -0.057627	 0.757211	 -0.647476	 0.063914	 1
1463624196.877	 5	 0.000221	 0.044088	 -0.268177	 3.014809	 -1.415828	 0.045444	 -0.058408	 0.757062	 -0.647683	 0.062859	 1
1463624196.887	 5	 -0.197989	 -0.050606	 -0.352593	 3.036375	 -1.414779	 0.067575	 -0.059793	 0.757422	 -0.647232	 0.061867	 1
1463624196.897	 5	 -0.380156	 0.052792	 -0.394807	 3.063038	 -1.411745	 0.094469	 -0.061351	 0.758408	 -0.646064	 0.060457	 1
1463624196.907	 5	 -0.424414	 0.310015	 -0.289715	 3.087099	 -1.407749	 0.116375	 -0.061919	 0.759742	 -0.644633	 0.058356	 1
1463624196.917	 5	 -0.416696	 0.456845	 -0.132814	 3.102802	 -1.403676	 0.127909	 -0.061293	 0.761152	 -0.643235	 0.056035	 1
1463624196.927	 5	 -0.448480	 0.423614	 -0.034797	 3.111284	 -1.399304	 0.132035	 -0.060203	 0.762668	 -0.641710	 0.054045	 1
1463624196.937	 5	 -0.463737	 0.335560	 -0.009905	 3.116268	 -1.394674	 0.133496	 -0.059237	 0.764245	 -0.640050	 0.052513	 1
1463624196.947	 5	 -0.409235	 0.355576	 -0.014456	 3.120973	 -1.390404	 0.134804	 -0.058306	 0.765695	 -0.638519	 0.051038	 1
1463624196.957	 5	 -0.322216	 0.476582	 -0.013022	 3.126559	 -1.386966	 0.135989	 -0.057042	 0.766899	 -0.637332	 0.049196	 1
1463624196.967	 5	 -0.230463	 0.679618	 0.008318	 3.132798	 -1.384424	 0.136014	 -0.055113	 0.767859	 -0.636530	 0.046748	 1
1463624196.977	 5	 -0.144535	 0.988114	 0.049873	 3.139879	 -1.382786	 0.133989	 -0.052116	 0.768594	 -0.636136	 0.043343	 1
1463624196.987	 5	 -0.092537	 1.337179	 0.098497	 -3.135315	 -1.381762	 0.129418	 -0.047839	 0.769197	 -0.636036	 0.038791	 1
1463624196.997	 5	 -0.087405	 1.701306	 0.151931	 -3.126444	 -1.380925	 0.122058	 -0.042205	 0.769788	 -0.636046	 0.033015	 1
1463624197.007	 5	 -0.142137	 2.044331	 0.204625	 -3.116937	 -1.379725	 0.111760	 -0.035243	 0.770509	 -0.635921	 0.026049	 1
1463624197.017	 5	 -0.253838	 2.317185	 0.237978	 -3.106628	 -1.377558	 0.099302	 -0.027212	 0.771505	 -0.635385	 0.018060	 1
1463624197.027	 5	 -0.386182	 2.553578	 0.222147	 -3.094946	 -1.374258	 0.085835	 -0.018380	 0.772783	 -0.634337	 0.009195	 1
1463624197.037	 5	 -0.479280	 2.797861	 0.136772	 -3.076789	 -1.369735	 0.076412	 -0.009090	 0.774314	 -0.632736	 -0.000923	 1
1463624197.047	 5	 -0.468171	 2.948360	 0.067736	 -3.053247	 -1.365032	 0.070643	 0.000459	 0.775731	 -0.630949	 -0.011992	 1
1463624197.057	 5	 -0.370945	 2.968318	 0.072404	 -3.028515	 -1.361116	 0.065557	 0.010107	 0.776728	 -0.629323	 -0.023308	 1
1463624197.067	 5	 -0.200433	 2.828198	 0.179389	 -3.007953	 -1.358834	 0.057184	 0.019747	 0.777085	 -0.628166	 -0.033999	 1
1463624197.077	 5	 0.033670	 2.432963	 0.479546	 -3.000426	 -1.359114	 0.038816	 0.029255	 0.776628	 -0.627830	 -0.042682	 1
1463624197.087	 5	 0.142224	 1.927003	 1.006774	 -3.019415	 -1.361539	 -0.001646	 0.039063	 0.775607	 -0.628178	 -0.047959	 1
1463624197.097	 5	 0.060466	 1.252405	 1.376357	 -3.066257	 -1.363747	 -0.064165	 0.048609	 0.774682	 -0.628540	 -0.049425	 1
1463624197.107	 5	 -0.102804	 0.425802	 1.285892	 -3.123628	 -1.363746	 -0.129306	 0.055808	 0.774374	 -0.628456	 -0.047677	 1
1463624197.117	 5	 -0.172329	 -0.433893	 0.923598	 3.109233	 -1.362033	 -0.178473	 0.059084	 0.774648	 -0.628116	 -0.043580	 1
1463624197.127	 5	 -0.137887	 -1.136123	 0.756900	 3.063596	 -1.360141	 -0.215151	 0.059042	 0.775079	 -0.627992	 -0.037327	 1
1463624197.137	 5	 -0.170050	 -1.484110	 0.864781	 3.011613	 -1.357740	 -0.253795	 0.057838	 0.775556	 -0.627947	 -0.029161	 1
1463624197.147	 5	 -0.307659	 -1.545821	 0.952797	 2.955986	 -1.353609	 -0.294975	 0.056659	 0.776326	 -0.627456	 -0.020182	 1
1463624197.157	 5	 -0.399802	 -1.552716	 1.137912	 2.897025	 -1.347562	 -0.339488	 0.056013	 0.777342	 -0.626488	 -0.010663	 1
1463624197.167	 5	 -0.403545	 -1.454908	 1.423414	 2.830562	 -1.339936	 -0.392412	 0.056630	 0.778274	 -0.625365	 -0.000516	 1
1463624197.177	 5	 -0.371174	 -1.260502	 1.550701	 2.762576	 -1.331165	 -0.448859	 0.058506	 0.778991	 -0.624228	 0.009485	 1
1463624197.187	 5	 -0.312218	 -1.142095	 1.475620	 2.700903	 -1.322143	 -0.500398	 0.060698	 0.779493	 -0.623180	 0.018810	 1
1463624197.197	 5	 -0.186331	 -1.051847	 1.358130	 2.646298	 -1.313925	 -0.545717	 0.062720	 0.779634	 -0.622486	 0.027363	 1
1463624197.207	 5	 -0.015127	 -0.952397	 1.354367	 2.593763	 -1.306706	 -0.589958	 0.064916	 0.779231	 -0.622360	 0.035389	 1
1463624197.217	 5	 0.128767	 -0.838364	 1.443700	 2.539844	 -1.299799	 -0.636877	 0.067751	 0.778296	 -0.622739	 0.043141	 1
1463624197.227	 5	 0.240522	 -0.749771	 1.532009	 2.484351	 -1.292623	 -0.686552	 0.071285	 0.776927	 -0.623479	 0.050760	 1
1463624197.237	 5	 0.341051	 -0.725422	 1.556939	 2.428482	 -1.285198	 -0.737155	 0.075157	 0.775173	 -0.624545	 0.058328	 1
1463624197.247	 5	 0.408341	 -0.789665	 1.378839	 2.376017	 -1.278389	 -0.783920	 0.078478	 0.773147	 -0.625920	 0.065645	 1
1463624197.257	 5	 0.433155	 -0.963781	 0.846253	 2.333628	 -1.274367	 -0.818592	 0.079582	 0.771094	 -0.627595	 0.072150	 1
1463624197.267	 5	 0.464719	 -1.060307	 0.309001	 2.302741	 -1.274327	 -0.839998	 0.078127	 0.769103	 -0.629601	 0.077325	 1
1463624197.277	 5	 0.463817	 -1.015545	 0.028064	 2.278918	 -1.276784	 -0.854046	 0.075365	 0.767178	 -0.631769	 0.081401	 1
1463624197.287	 5	 0.346517	 -0.835775	 -0.163210	 2.262709	 -1.280116	 -0.861722	 0.072291	 0.765638	 -0.633613	 0.084298	 1
1463624197.297	 5	 0.130023	 -0.631368	 -0.370444	 2.257949	 -1.283814	 -0.859584	 0.068972	 0.764866	 -0.634712	 0.085810	 1
1463624197.307	 5	 -0.101591	 -0.597016	 -0.420330	 2.262574	 -1.286761	 -0.848741	 0.065505	 0.764912	 -0.634904	 0.086698	 1
1463624197.317	 5	 -0.285562	 -0.803918	 -0.278907	 2.268564	 -1.287662	 -0.834758	 0.061816	 0.765458	 -0.634351	 0.088605	 1
1463624197.327	 5	 -0.446194	 -1.030121	 -0.149591	 2.273313	 -1.286363	 -0.819606	 0.057861	 0.766362	 -0.633160	 0.091927	 1
1463624197.337	 5	 -0.579943	 -1.165346	 -0.077213	 2.278201	 -1.283538	 -0.802670	 0.053650	 0.767582	 -0.631424	 0.096138	 1
1463624197.347	 5	 -0.717121	 -1.107117	 -0.023254	 2.284869	 -1.279378	 -0.783779	 0.049572	 0.769172	 -0.629125	 0.100593	 1
1463624197.357	 5	 -0.852925	 -0.998776	 0.048211	 2.294544	 -1.273767	 -0.763168	 0.046107	 0.771220	 -0.626196	 0.104750	 1
1463624197.367	 5	 -0.969131	 -1.271167	 0.133015	 2.303062	 -1.266642	 -0.741878	 0.042344	 0.773511	 -0.622749	 0.109874	 1
1463624197.377	 5	 -0.960433	 -1.709229	 0.156573	 2.306482	 -1.258944	 -0.721511	 0.037440	 0.775598	 -0.619206	 0.116750	 1
1463624197.387	 5	 -0.816140	 -2.043174	 0.072277	 2.304205	 -1.252460	 -0.703145	 0.031214	 0.777035	 -0.616158	 0.124867	 1
1463624197.397	 5	 -0.634220	 -2.034189	 -0.081628	 2.299667	 -1.248221	 -0.686205	 0.024277	 0.777804	 -0.613826	 0.132850	 1
1463624197.407	 5	 -0.450633	 -1.688960	 -0.215365	 2.296509	 -1.246323	 -0.670674	 0.017734	 0.778124	 -0.612215	 0.139287	 1
1463624197.417	 5	 -0.283430	 -1.253855	 -0.282047	 2.295444	 -1.246184	 -0.657451	 0.012297	 0.778176	 -0.611244	 0.143778	 1
1463624197.427	 5	 -0.135946	 -0.952482	 -0.317828	 2.295199	 -1.247369	 -0.646992	 0.007865	 0.777975	 -0.610856	 0.146794	 1
1463624197.437	 5	 -0.019120	 -0.825368	 -0.342175	 2.294415	 -1.249584	 -0.638878	 0.003934	 0.777498	 -0.610951	 0.149066	 1
1463624197.447	 5	 0.064337	 -0.780927	 -0.340357	 2.292303	 -1.252457	 -0.632778	 0.000223	 0.776767	 -0.611395	 0.151090	 1
1463624197.457	 5	 0.106145	 -0.777545	 -0.296993	 2.288543	 -1.255450	 -0.628587	 -0.003277	 0.775873	 -0.612011	 0.153144	 1
1463624197.467	 5	 0.113668	 -0.848122	 -0.199665	 2.282220	 -1.257910	 -0.626546	 -0.006600	 0.774882	 -0.612606	 0.155655	 1
1463624197.477	 5	 0.095675	 -0.927941	 -0.067031	 2.272780	 -1.259341	 -0.626909	 -0.009700	 0.773852	 -0.613041	 0.158870	 1
1463624197.487	 5	 0.054436	 -0.960873	 0.068373	 2.260923	 -1.259500	 -0.629326	 -0.012440	 0.772880	 -0.613219	 0.162677	 1
1463624197.497	 5	 -0.013349	 -0.949198	 0.184175	 2.248215	 -1.258326	 -0.632660	 -0.014758	 0.772089	 -0.613046	 0.166837	 1
1463624197.507	 5	 -0.088523	 -0.914154	 0.292797	 2.235568	 -1.255805	 -0.636249	 -0.016618	 0.771545	 -0.612478	 0.171211	 1
1463624197.517	 5	 -0.140289	 -0.879303	 0.384162	 2.223066	 -1.252135	 -0.640074	 -0.018044	 0.771206	 -0.611584	 0.175731	 1
1463624197.527	 5	 -0.145368	 -0.872496	 0.440755	 2.210086	 -1.247821	 -0.644547	 -0.019188	 0.770917	 -0.610554	 0.180397	 1
1463624197.537	 5	 -0.117471	 -0.846997	 0.448210	 2.196676	 -1.243453	 -0.649679	 -0.020179	 0.770565	 -0.609573	 0.185048	 1
1463624197.547	 5	 -0.068201	 -0.768780	 0.400549	 2.183596	 -1.239600	 -0.655117	 -0.021070	 0.770110	 -0.608792	 0.189363	 1
1463624197.557	 5	 -0.025224	 -0.636568	 0.316144	 2.172144	 -1.236624	 -0.660124	 -0.021848	 0.769612	 -0.608261	 0.192973	 1
1463624197.567	 5	 0.005095	 -0.477818	 0.227889	 2.162985	 -1.234558	 -0.664339	 -0.022467	 0.769141	 -0.607956	 0.195722	 1
1463624197.577	 5	 0.020500	 -0.313573	 0.149351	 2.156333	 -1.233256	 -0.667632	 -0.022877	 0.768756	 -0.607820	 0.197598	 1
1463624197.587	 5	 0.020888	 -0.171567	 0.078197	 2.152253	 -1.232579	 -0.669791	 -0.023107	 0.768497	 -0.607788	 0.198678	 1
1463624197.597	 5	 0.012592	 -0.071982	 0.020579	 2.150437	 -1.232378	 -0.670717	 -0.023250	 0.768362	 -0.607800	 0.199144	 1
1463624197.607	 5	 -0.001189	 -0.017995	 -0.020363	 2.150287	 -1.232484	 -0.670579	 -0.023377	 0.768327	 -0.607816	 0.199217	 1
1463624197.617	 5	 -0.014082	 -0.016007	 -0.044745	 2.151047	 -1.232756	 -0.669633	 -0.023582	 0.768343	 -0.607810	 0.199146	 1
1463624197.627	 5	 -0.021732	 -0.051108	 -0.048202	 2.151853	 -1.233051	 -0.668343	 -0.023911	 0.768356	 -0.607778	 0.199155	 1
1463624197.637	 5	 -0.026212	 -0.099986	 -0.043289	 2.152315	 -1.233289	 -0.666947	 -0.024371	 0.768343	 -0.607714	 0.199343	 1
1463624197.647	 5	 -0.023273	 -0.164794	 -0.032195	 2.151968	 -1.233440	 -0.665731	 -0.024983	 0.768267	 -0.607633	 0.199808	 1
1463624197.657	 5	 -0.015951	 -0.203047	 -0.024088	 2.150851	 -1.233559	 -0.664842	 -0.025695	 0.768123	 -0.607565	 0.200478	 1
1463624197.667	 5	 -0.013793	 -0.206175	 -0.014544	 2.149380	 -1.233625	 -0.664194	 -0.026409	 0.767955	 -0.607500	 0.201223	 1
1463624197.677	 5	 -0.012579	 -0.185876	 -0.001577	 2.147843	 -1.233601	 -0.663786	 -0.027026	 0.767799	 -0.607432	 0.201944	 1
1463624197.687	 5	 -0.011239	 -0.148560	 0.012555	 2.138622	 -1.243034	 -0.670987	 -0.029599	 0.765304	 -0.610784	 0.200942	 1
1463624197.697	 5	 -0.013135	 -0.108049	 0.024672	 2.137427	 -1.242778	 -0.671007	 -0.029887	 0.765229	 -0.610694	 0.201457	 1
1463624197.707	 5	 -0.017223	 -0.078184	 0.034578	 2.136463	 -1.242426	 -0.671127	 -0.030041	 0.765196	 -0.610589	 0.201877	 1
1463624197.717	 5	 -0.023499	 -0.062117	 0.047571	 2.135648	 -1.241937	 -0.671303	 -0.030091	 0.765202	 -0.610452	 0.202257	 1
1463624197.727	 5	 -0.029790	 -0.058823	 0.061470	 2.122360	 -1.249282	 -0.683356	 -0.031540	 0.762759	 -0.613581	 0.201798	 1
1463624197.737	 5	 -0.020224	 -0.064194	 0.058140	 2.121272	 -1.248639	 -0.683778	 -0.031538	 0.762768	 -0.613422	 0.202247	 1
1463624197.757	 6	 -0.022175	 -0.041711	 0.077549	 2.119390	 -1.247315	 -0.684807	 -0.031362	 0.762823	 -0.613119	 0.202984	 1
1463624197.767	 6	 -0.028510	 -0.056408	 0.102999	 2.109310	 -1.254264	 -0.693973	 -0.032869	 0.760749	 -0.615857	 0.202237	 1
1463624197.777	 6	 -0.029571	 -0.065886	 0.115709	 2.107669	 -1.253137	 -0.695024	 -0.032664	 0.760794	 -0.615619	 0.202827	 1
1463624197.787	 6	 -0.019980	 -0.071210	 0.118773	 2.105791	 -1.252001	 -0.696280	 -0.032452	 0.760818	 -0.615396	 0.203446	 1
1463624197.797	 6	 -0.009231	 -0.042631	 0.104025	 2.103838	 -1.251027	 -0.697771	 -0.032217	 0.760809	 -0.615243	 0.203980	 1
1463624197.807	 6	 0.004668	 -0.041623	 0.101715	 2.100376	 -1.259051	 -0.700829	 -0.034338	 0.759140	 -0.617743	 0.202288	 1
1463624197.817	 6	 0.004647	 -0.038522	 0.087819	 2.103462	 -1.266557	 -0.697702	 -0.036642	 0.758104	 -0.619576	 0.200150	 1
1463624197.827	 6	 -0.000746	 -0.040740	 0.071794	 2.106865	 -1.273350	 -0.694167	 -0.038796	 0.757193	 -0.621181	 0.198210	 1
1463624197.837	 6	 -0.011483	 -0.022920	 0.030439	 2.109954	 -1.278792	 -0.690983	 -0.040534	 0.756476	 -0.622444	 0.196633	 1
1463624197.847	 6	 -0.021138	 0.000216	 -0.009761	 2.110429	 -1.278699	 -0.690428	 -0.040570	 0.756528	 -0.622374	 0.196649	 1
1463624197.857	 6	 -0.028628	 0.012856	 -0.029828	 2.111739	 -1.278787	 -0.689173	 -0.040662	 0.756615	 -0.622301	 0.196522	 1
1463624197.867	 6	 -0.028696	 0.002188	 -0.034189	 2.113211	 -1.278929	 -0.687692	 -0.040803	 0.756705	 -0.622225	 0.196389	 1
1463624197.877	 6	 -0.025553	 -0.018007	 -0.030159	 2.107579	 -1.282367	 -0.692857	 -0.041546	 0.755648	 -0.623573	 0.196028	 1
1463624197.887	 6	 -0.019192	 -0.033920	 -0.021836	 2.108317	 -1.282463	 -0.691784	 -0.041748	 0.755680	 -0.623510	 0.196059	 1
1463624197.897	 6	 -0.010663	 -0.044505	 -0.011351	 2.108495	 -1.282513	 -0.691155	 -0.041943	 0.755676	 -0.623466	 0.196175	 1
1463624197.907	 6	 -0.000997	 -0.041297	 -0.003949	 2.100764	 -1.284254	 -0.698137	 -0.042198	 0.754756	 -0.624471	 0.196467	 1
1463624197.917	 6	 0.006577	 -0.026395	 0.001448	 2.095622	 -1.285564	 -0.702794	 -0.042410	 0.754119	 -0.625179	 0.196612	 1
1463624197.927	 6	 0.007775	 -0.005090	 0.006960	 2.091952	 -1.286664	 -0.706246	 -0.042562	 0.753640	 -0.625742	 0.196629	 1
1463624197.937	 6	 0.005733	 0.012998	 0.007137	 2.090508	 -1.287915	 -0.707748	 -0.042796	 0.753312	 -0.626199	 0.196377	 1
1463624197.947	 6	 0.003665	 0.024711	 0.008321	 2.089306	 -1.289173	 -0.709142	 -0.042997	 0.753005	 -0.626653	 0.196064	 1
1463624197.957	 6	 -0.000587	 0.027907	 0.007312	 2.088707	 -1.290382	 -0.709993	 -0.043201	 0.752755	 -0.627051	 0.195707	 1
1463624197.967	 6	 -0.003764	 0.029002	 0.010538	 2.087593	 -1.291552	 -0.711347	 -0.043368	 0.752471	 -0.627477	 0.195395	 1
1463624197.977	 6	 -0.004826	 0.027948	 0.011595	 2.086599	 -1.292587	 -0.712586	 -0.043502	 0.752221	 -0.627856	 0.195108	 1
1463624197.987	 6	 -0.003758	 0.025824	 0.012623	 2.085535	 -1.293679	 -0.713870	 -0.043658	 0.751956	 -0.628253	 0.194819	 1
1463624197.997	 6	 -0.001639	 0.020506	 0.013613	 2.084306	 -1.294728	 -0.715273	 -0.043810	 0.751685	 -0.628646	 0.194564	 1
1463624198.007	 6	 0.002627	 0.019421	 0.012492	 2.083028	 -1.295710	 -0.716714	 -0.043945	 0.751422	 -0.629022	 0.194333	 1
1463624198.017	 6	 0.004751	 0.016223	 0.012436	 2.081941	 -1.296589	 -0.717948	 -0.044069	 0.751191	 -0.629354	 0.194121	 1
1463624198.027	 6	 0.003670	 0.010923	 0.014522	 2.081353	 -1.297257	 -0.718665	 -0.044173	 0.751035	 -0.629590	 0.193940	 1
1463624198.037	 6	 0.001528	 0.008802	 0.014515	 2.080943	 -1.297833	 -0.719177	 -0.044271	 0.750906	 -0.629785	 0.193781	 1
1463624198.047	 6	 -0.002758	 0.004560	 0.014506	 2.080941	 -1.298363	 -0.719244	 -0.044395	 0.750816	 -0.629933	 0.193621	 1
1463624198.057	 6	 -0.007029	 0.003509	 0.014528	 2.080660	 -1.298843	 -0.719550	 -0.044503	 0.750712	 -0.630085	 0.193503	 1
1463624198.067	 6	 -0.009150	 0.006699	 0.013506	 2.080512	 -1.299253	 -0.719742	 -0.044593	 0.750631	 -0.630210	 0.193390	 1
1463624198.077	 6	 -0.010194	 0.010956	 0.013550	 2.080354	 -1.299678	 -0.719990	 -0.044668	 0.750548	 -0.630344	 0.193259	 1
1463624198.087	 6	 -0.010176	 0.012035	 0.015686	 2.079722	 -1.300134	 -0.720715	 -0.044724	 0.750424	 -0.630522	 0.193147	 1
1463624198.097	 6	 -0.006962	 0.012040	 0.017785	 2.078869	 -1.300543	 -0.721663	 -0.044752	 0.750292	 -0.630704	 0.193060	 1
1463624198.107	 6	 -0.003747	 0.013100	 0.018829	 2.077699	 -1.300953	 -0.722925	 -0.044762	 0.750137	 -0.630908	 0.192992	 1
1463624198.117	 6	 -0.000557	 0.009899	 0.018767	 2.076766	 -1.301339	 -0.723947	 -0.044782	 0.750003	 -0.631089	 0.192917	 1
1463624198.127	 6	 -0.000560	 0.006723	 0.020865	 2.075982	 -1.301678	 -0.724808	 -0.044802	 0.749888	 -0.631245	 0.192850	 1
1463624198.137	 6	 -0.003778	 0.003533	 0.019793	 2.075217	 -1.302023	 -0.725609	 -0.044840	 0.749773	 -0.631396	 0.192792	 1
1463624198.147	 6	 -0.005929	 0.000341	 0.018711	 2.074904	 -1.302379	 -0.725944	 -0.044914	 0.749689	 -0.631516	 0.192709	 1
1463624198.157	 6	 -0.008085	 -0.002859	 0.016564	 2.074713	 -1.302726	 -0.726115	 -0.045008	 0.749615	 -0.631620	 0.192634	 1
1463624198.167	 6	 -0.009149	 -0.002856	 0.016567	 2.074684	 -1.303131	 -0.726116	 -0.045130	 0.749542	 -0.631727	 0.192537	 1
1463624198.177	 6	 -0.009147	 -0.002856	 0.016562	 2.074722	 -1.303464	 -0.726052	 -0.045236	 0.749487	 -0.631810	 0.192455	 1
1463624198.187	 6	 -0.008073	 -0.001795	 0.016557	 2.074683	 -1.303781	 -0.726078	 -0.045328	 0.749429	 -0.631896	 0.192377	 1
1463624198.197	 6	 -0.008075	 -0.001803	 0.015486	 2.074807	 -1.304112	 -0.725947	 -0.045431	 0.749381	 -0.631974	 0.192284	 1
1463624198.207	 6	 -0.010231	 -0.005003	 0.013338	 2.074809	 -1.304431	 -0.725891	 -0.045542	 0.749325	 -0.632053	 0.192216	 1
1463624198.217	 6	 -0.010248	 -0.008202	 0.012238	 2.074835	 -1.304745	 -0.725779	 -0.045664	 0.749271	 -0.632126	 0.192158	 1
1463624198.227	 6	 -0.012390	 -0.010323	 0.012234	 2.074525	 -1.304919	 -0.725965	 -0.045741	 0.749215	 -0.632183	 0.192169	 1
1463624198.237	 6	 -0.011332	 -0.014566	 0.014314	 2.074203	 -1.305055	 -0.726133	 -0.045818	 0.749164	 -0.632228	 0.192201	 1
1463624198.247	 6	 -0.012407	 -0.016691	 0.014301	 2.073667	 -1.305192	 -0.726489	 -0.045893	 0.749097	 -0.632286	 0.192253	 1
1463624198.257	 6	 -0.009213	 -0.018828	 0.014250	 2.073301	 -1.305351	 -0.726648	 -0.045994	 0.749039	 -0.632335	 0.192297	 1
1463624198.267	 6	 -0.008146	 -0.015671	 0.010004	 2.073005	 -1.305506	 -0.726762	 -0.046089	 0.748986	 -0.632380	 0.192330	 1
1463624198.277	 6	 -0.004943	 -0.014625	 0.008917	 2.073000	 -1.305682	 -0.726618	 -0.046194	 0.748952	 -0.632413	 0.192331	 1
1463624198.287	 6	 -0.007062	 -0.013539	 0.011075	 2.072690	 -1.305733	 -0.726790	 -0.046242	 0.748917	 -0.632436	 0.192379	 1
1463624198.297	 6	 -0.009189	 -0.016686	 0.016392	 2.072370	 -1.305708	 -0.726948	 -0.046277	 0.748894	 -0.632437	 0.192456	 1
1463624198.307	 6	 -0.007067	 -0.024099	 0.021632	 2.071798	 -1.305666	 -0.727289	 -0.046318	 0.748854	 -0.632445	 0.192573	 1
1463624198.317	 6	 -0.007082	 -0.027290	 0.021601	 2.071339	 -1.305541	 -0.727485	 -0.046354	 0.748836	 -0.632421	 0.192717	 1
1463624198.327	 6	 -0.004933	 -0.024106	 0.021610	 2.071227	 -1.305459	 -0.727365	 -0.046412	 0.748837	 -0.632385	 0.192818	 1
1463624198.337	 6	 -0.004932	 -0.016721	 0.013148	 2.071614	 -1.305576	 -0.726819	 -0.046527	 0.748841	 -0.632372	 0.192815	 1
1463624198.347	 6	 -0.007066	 -0.009330	 0.004706	 2.072327	 -1.305703	 -0.726014	 -0.046639	 0.748869	 -0.632345	 0.192769	 1
1463624198.357	 6	 -0.012392	 -0.001914	 -0.001577	 2.073131	 -1.305880	 -0.725184	 -0.046745	 0.748897	 -0.632330	 0.192683	 1
1463624198.367	 6	 -0.017729	 0.001262	 -0.005766	 2.074021	 -1.305985	 -0.724290	 -0.046828	 0.748944	 -0.632293	 0.192604	 1
1463624198.377	 6	 -0.015562	 0.009750	 -0.007839	 2.074775	 -1.306130	 -0.723604	 -0.046888	 0.748975	 -0.632283	 0.192500	 1
1463624198.387	 6	 -0.003900	 -0.014681	 0.001423	 2.074537	 -1.306216	 -0.723732	 -0.046939	 0.748940	 -0.632312	 0.192526	 1
1463624198.397	 6	 -0.010210	 0.003428	 0.002711	 2.074171	 -1.306316	 -0.724098	 -0.046946	 0.748896	 -0.632366	 0.192521	 1
1463624198.407	 6	 -0.013474	 -0.015663	 0.008955	 2.073723	 -1.306370	 -0.724398	 -0.046990	 0.748851	 -0.632398	 0.192579	 1
1463624198.417	 6	 -0.012417	 -0.016746	 0.006802	 2.073105	 -1.306526	 -0.724820	 -0.047072	 0.748774	 -0.632466	 0.192636	 1
1463624198.427	 6	 -0.007086	 -0.017834	 0.005674	 2.072763	 -1.306986	 -0.724972	 -0.047253	 0.748665	 -0.632594	 0.192594	 1
1463624198.437	 6	 -0.007091	 -0.015738	 0.001427	 2.072671	 -1.307202	 -0.724897	 -0.047371	 0.748617	 -0.632642	 0.192595	 1
1463624198.447	 6	 -0.010314	 -0.018935	 -0.000709	 2.072575	 -1.307385	 -0.724796	 -0.047491	 0.748574	 -0.632678	 0.192614	 1
1463624198.457	 6	 -0.013548	 -0.025315	 -0.001808	 2.072453	 -1.307536	 -0.724660	 -0.047623	 0.748533	 -0.632702	 0.192662	 1
1463624198.467	 6	 -0.012512	 -0.030653	 -0.004000	 2.072295	 -1.307715	 -0.724497	 -0.047784	 0.748483	 -0.632730	 0.192725	 1
1463624198.477	 6	 -0.013593	 -0.033841	 -0.004021	 2.072088	 -1.307787	 -0.724341	 -0.047928	 0.748447	 -0.632729	 0.192833	 1
1463624198.487	 6	 -0.010393	 -0.032803	 -0.006171	 2.071908	 -1.307860	 -0.724166	 -0.048071	 0.748413	 -0.632727	 0.192936	 1
1463624198.497	 6	 -0.010365	 -0.030645	 -0.001888	 2.071668	 -1.307850	 -0.724076	 -0.048178	 0.748389	 -0.632710	 0.193057	 1
1463624198.507	 6	 -0.008198	 -0.027430	 0.002387	 2.071274	 -1.307765	 -0.724165	 -0.048245	 0.748368	 -0.632687	 0.193199	 1
1463624198.517	 6	 -0.004983	 -0.027417	 0.005557	 2.070936	 -1.307714	 -0.724219	 -0.048317	 0.748345	 -0.632670	 0.193322	 1
1463624198.527	 6	 -0.002847	 -0.025311	 0.003425	 2.070702	 -1.307729	 -0.724193	 -0.048405	 0.748319	 -0.632666	 0.193414	 1
1463624198.537	 6	 -0.002853	 -0.023215	 -0.000818	 2.070506	 -1.307735	 -0.724149	 -0.048486	 0.748298	 -0.632658	 0.193499	 1
1463624198.547	 6	 -0.009251	 -0.021076	 -0.001808	 2.070640	 -1.307694	 -0.723796	 -0.048564	 0.748310	 -0.632617	 0.193572	 1
1463624198.557	 6	 -0.015637	 -0.017866	 -0.001723	 2.070641	 -1.307664	 -0.723579	 -0.048636	 0.748310	 -0.632588	 0.193648	 1
1463624198.567	 6	 -0.013477	 -0.014667	 0.000420	 2.070442	 -1.307648	 -0.723592	 -0.048690	 0.748294	 -0.632580	 0.193723	 1
1463624198.577	 6	 -0.010302	 -0.011533	 0.000577	 2.070294	 -1.307687	 -0.723587	 -0.048749	 0.748272	 -0.632586	 0.193769	 1
1463624198.587	 6	 -0.002822	 -0.010484	 0.001587	 2.069999	 -1.307754	 -0.723756	 -0.048798	 0.748236	 -0.632613	 0.193808	 1
1463624198.597	 6	 0.003586	 -0.010496	 0.002597	 2.069540	 -1.307805	 -0.724099	 -0.048830	 0.748191	 -0.632649	 0.193858	 1
1463624198.607	 6	 0.002514	 -0.012613	 0.003652	 2.068974	 -1.307798	 -0.724540	 -0.048842	 0.748149	 -0.632676	 0.193932	 1
1463624198.617	 6	 0.002489	 -0.017931	 0.003603	 2.068569	 -1.307761	 -0.724784	 -0.048868	 0.748122	 -0.632680	 0.194016	 1
1463624198.627	 6	 0.001405	 -0.022175	 0.004639	 2.068404	 -1.307691	 -0.724751	 -0.048913	 0.748117	 -0.632654	 0.194107	 1
1463624198.637	 6	 -0.000736	 -0.024288	 0.005704	 2.068353	 -1.307633	 -0.724576	 -0.048978	 0.748118	 -0.632621	 0.194197	 1
1463624198.647	 6	 -0.003933	 -0.023214	 0.005742	 2.068366	 -1.307527	 -0.724334	 -0.049035	 0.748131	 -0.632569	 0.194297	 1
1463624198.657	 6	 -0.007120	 -0.020014	 0.005798	 2.068605	 -1.307465	 -0.723892	 -0.049107	 0.748154	 -0.632516	 0.194364	 1
1463624198.667	 6	 -0.011368	 -0.015746	 0.005874	 2.068787	 -1.307463	 -0.723534	 -0.049183	 0.748164	 -0.632485	 0.194410	 1
1463624198.677	 6	 -0.009207	 -0.008323	 0.003792	 2.068853	 -1.307438	 -0.723350	 -0.049224	 0.748170	 -0.632462	 0.194449	 1
1463624198.687	 6	 -0.005965	 -0.001935	 0.005954	 2.068563	 -1.307438	 -0.723590	 -0.049225	 0.748148	 -0.632478	 0.194482	 1
1463624198.697	 6	 -0.000608	 0.001247	 0.007003	 2.067942	 -1.307456	 -0.724202	 -0.049198	 0.748099	 -0.632527	 0.194516	 1
1463624198.707	 6	 0.005800	 0.000179	 0.009068	 2.067292	 -1.307478	 -0.724856	 -0.049165	 0.748048	 -0.632581	 0.194547	 1
1463624198.717	 6	 0.010055	 -0.001969	 0.007945	 2.066557	 -1.307518	 -0.725577	 -0.049139	 0.747987	 -0.632643	 0.194582	 1
1463624198.727	 6	 0.010061	 -0.000905	 0.007954	 2.066009	 -1.307598	 -0.726130	 -0.049129	 0.747934	 -0.632705	 0.194592	 1
1463624198.737	 6	 0.008981	 -0.001981	 0.005821	 2.065599	 -1.307644	 -0.726536	 -0.049120	 0.747896	 -0.632746	 0.194604	 1
1463624198.747	 6	 0.003666	 0.003345	 0.004850	 2.065461	 -1.307671	 -0.726709	 -0.049106	 0.747882	 -0.632767	 0.194594	 1
1463624198.757	 6	 0.001547	 0.005487	 0.005954	 2.065388	 -1.307703	 -0.726837	 -0.049090	 0.747873	 -0.632786	 0.194572	 1
1463624198.767	 6	 0.000487	 0.008665	 0.003860	 2.065385	 -1.307759	 -0.726918	 -0.049077	 0.747865	 -0.632809	 0.194532	 1
1463624198.777	 6	 0.001560	 0.009725	 0.003859	 2.065140	 -1.307837	 -0.727251	 -0.049052	 0.747836	 -0.632855	 0.194498	 1
1463624198.787	 6	 0.001552	 0.008654	 0.002783	 2.064927	 -1.307907	 -0.727547	 -0.049028	 0.747810	 -0.632897	 0.194465	 1
1463624198.797	 6	 0.001544	 0.006526	 0.002763	 2.064574	 -1.308000	 -0.727962	 -0.049011	 0.747770	 -0.632954	 0.194441	 1
1463624198.807	 6	 0.004722	 0.002254	 0.001629	 2.064003	 -1.308077	 -0.728551	 -0.048994	 0.747716	 -0.633017	 0.194448	 1
1463624198.817	 6	 0.006851	 -0.000929	 0.003712	 2.063510	 -1.308203	 -0.729044	 -0.049001	 0.747659	 -0.633086	 0.194442	 1
1463624198.827	 6	 0.009001	 0.000144	 0.005834	 2.062844	 -1.308289	 -0.729714	 -0.048986	 0.747596	 -0.633157	 0.194456	 1
1463624198.837	 6	 0.007916	 -0.001996	 0.003690	 2.062271	 -1.308415	 -0.730274	 -0.048994	 0.747532	 -0.633231	 0.194459	 1
1463624198.847	 6	 0.002573	 -0.003052	 0.002660	 2.061913	 -1.308555	 -0.730609	 -0.049022	 0.747481	 -0.633291	 0.194449	 1
1463624198.857	 6	 -0.000644	 -0.003073	 -0.001578	 2.061685	 -1.308740	 -0.730794	 -0.049077	 0.747432	 -0.633352	 0.194426	 1
1463624198.867	 6	 0.000418	 -0.000980	 -0.005832	 2.061635	 -1.308959	 -0.730822	 -0.049144	 0.747391	 -0.633411	 0.194377	 1
1463624198.877	 6	 0.000426	 0.002195	 -0.007936	 2.061494	 -1.309179	 -0.730955	 -0.049202	 0.747343	 -0.633478	 0.194329	 1
1463624198.887	 6	 0.003633	 0.002193	 -0.006899	 2.061240	 -1.309328	 -0.731214	 -0.049228	 0.747299	 -0.633536	 0.194302	 1
1463624198.897	 6	 0.005764	 0.001122	 -0.006927	 2.060790	 -1.309434	 -0.731674	 -0.049229	 0.747248	 -0.633597	 0.194296	 1
1463624198.907	 6	 0.005768	 0.000073	 -0.004804	 2.060431	 -1.309509	 -0.732032	 -0.049230	 0.747209	 -0.633643	 0.194297	 1
1463624198.917	 6	 0.008969	 -0.000992	 -0.003776	 2.060198	 -1.309545	 -0.732261	 -0.049228	 0.747186	 -0.633669	 0.194302	 1
1463624198.927	 6	 0.012172	 -0.003106	 -0.000626	 2.059851	 -1.309565	 -0.732592	 -0.049221	 0.747157	 -0.633698	 0.194321	 1
1463624198.937	 6	 0.012165	 -0.005225	 0.000422	 2.059500	 -1.309515	 -0.732919	 -0.049195	 0.747140	 -0.633708	 0.194362	 1
1463624198.947	 6	 0.012158	 -0.008401	 0.002525	 2.059063	 -1.309460	 -0.733300	 -0.049176	 0.747116	 -0.633720	 0.194419	 1
1463624198.957	 6	 0.006834	 -0.007306	 0.004715	 2.058692	 -1.309313	 -0.733603	 -0.049139	 0.747112	 -0.633702	 0.194502	 1
1463624198.967	 6	 0.002584	 -0.004094	 0.005849	 2.058402	 -1.309150	 -0.733854	 -0.049090	 0.747118	 -0.633676	 0.194574	 1
1463624198.977	 6	 -0.000597	 0.000170	 0.005917	 2.058089	 -1.309061	 -0.734150	 -0.049053	 0.747110	 -0.633674	 0.194621	 1
1463624198.987	 6	 0.000557	 0.019304	 0.005020	 2.058040	 -1.309001	 -0.734345	 -0.048979	 0.747120	 -0.633676	 0.194593	 1
1463624198.997	 6	 0.002763	 0.034189	 0.005139	 2.058015	 -1.309030	 -0.734684	 -0.048869	 0.747121	 -0.633716	 0.194488	 1
1463624199.007	 6	 0.009183	 0.036304	 0.006168	 2.057566	 -1.309098	 -0.735491	 -0.048729	 0.747086	 -0.633802	 0.194381	 1
1463624199.017	 6	 0.016629	 0.029907	 0.007109	 2.056822	 -1.309202	 -0.736555	 -0.048597	 0.747022	 -0.633914	 0.194294	 1
1463624199.027	 6	 0.019796	 0.021396	 0.008068	 2.055872	 -1.309310	 -0.737748	 -0.048483	 0.746940	 -0.634035	 0.194242	 1
1463624199.037	 6	 0.019786	 0.018212	 0.009103	 2.055195	 -1.309400	 -0.738640	 -0.048390	 0.746881	 -0.634128	 0.194187	 1
1463624199.047	 6	 0.012286	 0.013965	 0.006996	 2.055016	 -1.309463	 -0.738992	 -0.048333	 0.746861	 -0.634175	 0.194126	 1
1463624199.057	 6	 0.004805	 0.015020	 0.002806	 2.055096	 -1.309578	 -0.739076	 -0.048310	 0.746851	 -0.634215	 0.194038	 1
1463624199.067	 6	 0.001610	 0.018205	 0.000729	 2.055425	 -1.309699	 -0.738937	 -0.048292	 0.746860	 -0.634241	 0.193927	 1
1463624199.077	 6	 0.001616	 0.020325	 -0.000318	 2.055518	 -1.309811	 -0.739042	 -0.048255	 0.746852	 -0.634282	 0.193829	 1
1463624199.087	 6	 0.003737	 0.018183	 -0.001423	 2.055444	 -1.309899	 -0.739311	 -0.048203	 0.746837	 -0.634329	 0.193748	 1
1463624199.097	 6	 0.002645	 0.011811	 -0.000406	 2.055143	 -1.309956	 -0.739733	 -0.048158	 0.746808	 -0.634378	 0.193711	 1
1463624199.107	 6	 0.003695	 0.007553	 -0.000456	 2.054527	 -1.310073	 -0.740418	 -0.048130	 0.746745	 -0.634459	 0.193692	 1
1463624199.117	 6	 0.003686	 0.004369	 0.000581	 2.053838	 -1.310125	 -0.741134	 -0.048096	 0.746687	 -0.634526	 0.193708	 1
1463624199.127	 6	 0.004778	 0.005460	 0.004846	 2.053067	 -1.310134	 -0.741941	 -0.048042	 0.746630	 -0.634588	 0.193737	 1
1463624199.137	 6	 0.006927	 0.005476	 0.008025	 2.052258	 -1.310131	 -0.742804	 -0.047976	 0.746573	 -0.634651	 0.193766	 1
1463624199.147	 6	 0.011195	 0.003351	 0.010100	 2.051501	 -1.310133	 -0.743612	 -0.047915	 0.746519	 -0.634712	 0.193792	 1
1463624199.157	 6	 0.011167	 -0.000920	 0.007929	 2.050928	 -1.310118	 -0.744208	 -0.047870	 0.746480	 -0.634752	 0.193821	 1
1463624199.167	 6	 0.011146	 -0.005174	 0.007888	 2.050573	 -1.310139	 -0.744546	 -0.047863	 0.746450	 -0.634781	 0.193840	 1
1463624199.177	 6	 0.005808	 -0.001998	 0.003700	 2.050333	 -1.310164	 -0.744766	 -0.047864	 0.746428	 -0.634804	 0.193853	 1
1463624199.187	 6	 0.000504	 0.005456	 0.002750	 2.050299	 -1.310197	 -0.744839	 -0.047857	 0.746421	 -0.634818	 0.193834	 1
1463624199.197	 6	 -0.000535	 0.012889	 0.000696	 2.050280	 -1.310254	 -0.744966	 -0.047832	 0.746412	 -0.634845	 0.193785	 1
1463624199.207	 6	 0.000567	 0.018219	 0.002867	 2.050155	 -1.310298	 -0.745256	 -0.047776	 0.746400	 -0.634881	 0.193728	 1
1463624199.217	 6	 0.005925	 0.022458	 0.002859	 2.049840	 -1.310396	 -0.745787	 -0.047706	 0.746365	 -0.634951	 0.193650	 1
1463624199.227	 6	 0.013383	 0.020299	 0.001708	 2.049018	 -1.310503	 -0.746812	 -0.047615	 0.746292	 -0.635058	 0.193603	 1
1463624199.237	 6	 0.015512	 0.016061	 0.004847	 2.048096	 -1.310609	 -0.747915	 -0.047527	 0.746212	 -0.635170	 0.193568	 1
1463624199.247	 6	 0.016550	 0.010732	 0.003722	 2.047547	 -1.310728	 -0.748610	 -0.047476	 0.746155	 -0.635255	 0.193520	 1
1463624199.257	 6	 0.014395	 0.006483	 0.003700	 2.047184	 -1.310809	 -0.749071	 -0.047443	 0.746117	 -0.635312	 0.193486	 1
1463624199.267	 6	 0.007985	 0.004383	 0.004800	 2.047281	 -1.310870	 -0.749056	 -0.047435	 0.746116	 -0.635328	 0.193438	 1
1463624199.277	 6	 0.001562	 0.001204	 0.003760	 2.047647	 -1.310879	 -0.748724	 -0.047445	 0.746142	 -0.635307	 0.193405	 1
1463624199.287	 6	 -0.003779	 0.001213	 0.002740	 2.047868	 -1.310850	 -0.748513	 -0.047445	 0.746164	 -0.635284	 0.193397	 1
1463624199.297	 6	 -0.005909	 0.001227	 0.003823	 2.048192	 -1.310856	 -0.748199	 -0.047461	 0.746186	 -0.635263	 0.193375	 1
1463624199.307	 6	 -0.002701	 0.003337	 0.002748	 2.048174	 -1.310887	 -0.748237	 -0.047462	 0.746180	 -0.635275	 0.193361	 1
1463624199.317	 6	 0.000512	 0.005454	 0.002739	 2.047891	 -1.310950	 -0.748554	 -0.047451	 0.746150	 -0.635315	 0.193348	 1
1463624199.327	 6	 0.005855	 0.005445	 0.003758	 2.047245	 -1.311033	 -0.749250	 -0.047421	 0.746090	 -0.635388	 0.193346	 1
1463624199.337	 6	 0.006913	 0.002258	 0.004785	 2.046544	 -1.311093	 -0.749977	 -0.047390	 0.746030	 -0.635457	 0.193360	 1
1463624199.347	 6	 0.011186	 0.002253	 0.005814	 2.045969	 -1.311079	 -0.750584	 -0.047342	 0.745991	 -0.635499	 0.193386	 1
1463624199.357	 6	 0.007976	 0.001191	 0.004766	 2.045470	 -1.311091	 -0.751110	 -0.047308	 0.745953	 -0.635541	 0.193401	 1
1463624199.367	 6	 0.009048	 0.003307	 0.003710	 2.045184	 -1.311115	 -0.751434	 -0.047284	 0.745929	 -0.635571	 0.193398	 1
1463624199.377	 6	 0.002636	 0.003311	 0.001634	 2.045358	 -1.311119	 -0.751313	 -0.047276	 0.745942	 -0.635565	 0.193371	 1
1463624199.387	 6	 -0.000561	 0.005441	 0.000615	 2.045661	 -1.311100	 -0.751064	 -0.047267	 0.745969	 -0.635543	 0.193343	 1
1463624199.397	 6	 -0.003737	 0.010769	 0.000692	 2.046026	 -1.311113	 -0.750796	 -0.047254	 0.745996	 -0.635529	 0.193288	 1
1463624199.407	 6	 -0.003713	 0.015031	 0.001797	 2.046233	 -1.311077	 -0.750725	 -0.047205	 0.746020	 -0.635518	 0.193243	 1
1463624199.417	 6	 -0.000506	 0.015029	 0.002835	 2.046164	 -1.311066	 -0.750941	 -0.047143	 0.746020	 -0.635534	 0.193203	 1
1463624199.427	 6	 0.000542	 0.009714	 0.003842	 2.045795	 -1.311110	 -0.751408	 -0.047099	 0.745988	 -0.635582	 0.193180	 1
1463624199.437	 6	 0.002658	 0.006509	 0.002728	 2.045416	 -1.311156	 -0.751850	 -0.047067	 0.745955	 -0.635628	 0.193168	 1
1463624199.447	 6	 0.003722	 0.005442	 0.002708	 2.044944	 -1.311241	 -0.752382	 -0.047044	 0.745907	 -0.635690	 0.193152	 1
1463624199.457	 6	 -0.001604	 0.005473	 0.004885	 2.044730	 -1.311274	 -0.752651	 -0.047020	 0.745888	 -0.635719	 0.193138	 1
1463624199.467	 6	 -0.001607	 0.004409	 0.004874	 2.044530	 -1.311323	 -0.752885	 -0.047011	 0.745865	 -0.635749	 0.193125	 1
1463624199.477	 6	 -0.002705	 0.001190	 0.000589	 2.044445	 -1.311417	 -0.752984	 -0.047028	 0.745844	 -0.635781	 0.193099	 1
1463624199.487	 6	 -0.003789	 -0.000950	 -0.001555	 2.044466	 -1.311572	 -0.752955	 -0.047077	 0.745820	 -0.635818	 0.193058	 1
1463624199.497	 6	 -0.000604	 -0.003103	 -0.003737	 2.044395	 -1.311777	 -0.752988	 -0.047147	 0.745780	 -0.635873	 0.193019	 1
1463624199.507	 6	 0.000456	 -0.003122	 -0.005879	 2.044114	 -1.311978	 -0.753225	 -0.047205	 0.745725	 -0.635940	 0.192993	 1
1463624199.517	 6	 0.002550	 -0.006343	 -0.006891	 2.043626	 -1.312185	 -0.753642	 -0.047264	 0.745653	 -0.636022	 0.192986	 1
1463624199.527	 6	 0.002541	 -0.008471	 -0.006911	 2.043315	 -1.312317	 -0.753865	 -0.047318	 0.745606	 -0.636070	 0.192995	 1
1463624199.537	 6	 0.002561	 -0.006328	 -0.004760	 2.043010	 -1.312383	 -0.754089	 -0.047350	 0.745572	 -0.636101	 0.193020	 1
1463624199.547	 6	 0.003641	 -0.005253	 -0.002627	 2.042786	 -1.312371	 -0.754261	 -0.047355	 0.745556	 -0.636109	 0.193052	 1
1463624199.557	 6	 0.004716	 -0.006297	 0.000552	 2.042436	 -1.312356	 -0.754549	 -0.047354	 0.745531	 -0.636125	 0.193095	 1
1463624199.567	 6	 0.004703	 -0.011592	 0.003701	 2.042232	 -1.312263	 -0.754658	 -0.047351	 0.745530	 -0.636107	 0.193162	 1
1463624199.577	 6	 0.001499	 -0.012638	 0.004786	 2.042140	 -1.312105	 -0.754636	 -0.047343	 0.745546	 -0.636062	 0.193246	 1
1463624199.587	 6	 -0.001680	 -0.007310	 0.004865	 2.042488	 -1.311900	 -0.754218	 -0.047329	 0.745604	 -0.635978	 0.193305	 1
1463624199.597	 6	 -0.002712	 0.001195	 0.003888	 2.042705	 -1.311799	 -0.753992	 -0.047315	 0.745636	 -0.635935	 0.193324	 1
1463624199.607	 6	 -0.003738	 0.009708	 0.003976	 2.042615	 -1.311736	 -0.754149	 -0.047267	 0.745642	 -0.635932	 0.193324	 1
1463624199.617	 6	 -0.001587	 0.013948	 0.002932	 2.042444	 -1.311720	 -0.754448	 -0.047205	 0.745635	 -0.635953	 0.193297	 1
1463624199.627	 6	 -0.000508	 0.016071	 0.002942	 2.042219	 -1.311756	 -0.754818	 -0.047150	 0.745616	 -0.635993	 0.193254	 1
1463624199.637	 6	 0.002679	 0.011815	 0.003940	 2.041838	 -1.311797	 -0.755326	 -0.047094	 0.745584	 -0.636043	 0.193223	 1
1463624199.647	 6	 0.004824	 0.012879	 0.004997	 2.041471	 -1.311816	 -0.755819	 -0.047032	 0.745557	 -0.636087	 0.193198	 1
1463624199.657	 6	 0.009084	 0.011795	 0.003882	 2.041309	 -1.311912	 -0.756119	 -0.046999	 0.745533	 -0.636137	 0.193137	 1
1463624199.667	 6	 0.010156	 0.012855	 0.003882	 2.041109	 -1.312005	 -0.756463	 -0.046961	 0.745506	 -0.636189	 0.193076	 1
1463624199.677	 6	 0.008015	 0.010813	 0.001765	 2.041054	 -1.312116	 -0.756647	 -0.046942	 0.745487	 -0.636234	 0.193008	 1
1463624199.687	 6	 0.003718	 0.007612	 -0.001425	 2.041356	 -1.312183	 -0.756442	 -0.046942	 0.745500	 -0.636238	 0.192942	 1
1463624199.697	 6	 -0.001638	 0.004429	 -0.002475	 2.041611	 -1.312265	 -0.756245	 -0.046958	 0.745507	 -0.636246	 0.192888	 1
1463624199.707	 6	 -0.004854	 0.001248	 -0.002478	 2.041900	 -1.312352	 -0.755973	 -0.046992	 0.745514	 -0.636248	 0.192843	 1
1463624199.717	 6	 -0.006998	 -0.000873	 -0.002479	 2.042082	 -1.312401	 -0.755777	 -0.047022	 0.745519	 -0.636246	 0.192824	 1
1463624199.727	 6	 -0.010219	 -0.006175	 -0.001435	 2.042066	 -1.312437	 -0.755715	 -0.047060	 0.745510	 -0.636249	 0.192840	 1
1463624199.737	 6	 -0.008122	 -0.011523	 -0.004701	 2.041998	 -1.312497	 -0.755657	 -0.047121	 0.745492	 -0.636257	 0.192867	 1
1463624199.747	 6	 -0.007068	 -0.013661	 -0.005795	 2.041805	 -1.312541	 -0.755694	 -0.047181	 0.745467	 -0.636268	 0.192915	 1
1463624199.757	 6	 -0.005982	 -0.012578	 -0.002597	 2.041585	 -1.312563	 -0.755764	 -0.047231	 0.745444	 -0.636275	 0.192969	 1
1463624199.767	 6	 -0.002762	 -0.011501	 0.000583	 2.041312	 -1.312532	 -0.755901	 -0.047258	 0.745426	 -0.636274	 0.193036	 1
1463624199.777	 6	 -0.003839	 -0.013626	 0.000573	 2.041076	 -1.312476	 -0.755997	 -0.047281	 0.745415	 -0.636263	 0.193109	 1
1463624199.787	 6	 -0.004912	 -0.015742	 0.001628	 2.040942	 -1.312464	 -0.755962	 -0.047334	 0.745403	 -0.636254	 0.193173	 1
1463624199.797	 6	 -0.005982	 -0.013635	 -0.001540	 2.041092	 -1.312463	 -0.755663	 -0.047397	 0.745410	 -0.636228	 0.193213	 1
1463624199.807	 6	 -0.007027	 -0.008321	 -0.002548	 2.041110	 -1.312482	 -0.755530	 -0.047446	 0.745406	 -0.636220	 0.193243	 1
1463624199.817	 6	 -0.008067	 -0.001944	 -0.003545	 2.041102	 -1.312523	 -0.755482	 -0.047478	 0.745397	 -0.636226	 0.193250	 1
1463624199.847	 8	 0.000495	 0.000286	 -0.004675	 2.040994	 -1.312677	 -0.755629	 -0.047503	 0.745365	 -0.636277	 0.193202	 1
1463624199.857	 8	 0.001547	 -0.001852	 -0.005770	 2.041073	 -1.312728	 -0.755537	 -0.047526	 0.745362	 -0.636283	 0.193187	 1
1463624199.867	 8	 -0.002721	 -0.001839	 -0.005733	 2.041372	 -1.312796	 -0.755220	 -0.047569	 0.745372	 -0.636277	 0.193158	 1
1463624199.877	 8	 -0.002737	 -0.005030	 -0.005763	 2.041694	 -1.312844	 -0.754856	 -0.047616	 0.745386	 -0.636262	 0.193140	 1
1463624199.887	 8	 -0.003799	 -0.002907	 -0.006799	 2.041879	 -1.312886	 -0.754626	 -0.047655	 0.745392	 -0.636254	 0.193134	 1
1463624199.897	 8	 -0.005943	 -0.005029	 -0.006800	 2.042091	 -1.312911	 -0.754352	 -0.047697	 0.745402	 -0.636239	 0.193135	 1
1463624199.917	 9	 -0.001657	 -0.005011	 -0.002574	 2.041973	 -1.312930	 -0.754346	 -0.047742	 0.745387	 -0.636241	 0.193176	 1
1463624199.927	 9	 -0.001648	 -0.003940	 -0.001497	 2.042004	 -1.312892	 -0.754271	 -0.047749	 0.745394	 -0.636225	 0.193198	 1
1463624199.937	 9	 -0.000547	 0.001391	 0.000675	 2.041891	 -1.312832	 -0.754376	 -0.047729	 0.745396	 -0.636217	 0.193223	 1
1463624199.947	 9	 -0.002686	 0.000334	 0.000684	 2.042029	 -1.312766	 -0.754241	 -0.047716	 0.745417	 -0.636190	 0.193233	 1
1463624199.957	 9	 -0.003763	 -0.000735	 -0.000382	 2.042038	 -1.312735	 -0.754216	 -0.047714	 0.745422	 -0.636180	 0.193246	 1
1463624199.967	 9	 -0.003763	 -0.001791	 0.000675	 2.041920	 -1.312688	 -0.754304	 -0.047705	 0.745421	 -0.636174	 0.193275	 1
1463624199.977	 9	 -0.003743	 0.001407	 0.001771	 2.041845	 -1.312648	 -0.754371	 -0.047692	 0.745422	 -0.636168	 0.193292	 1
1463624199.987	 9	 -0.000514	 0.004650	 0.001748	 2.041886	 -1.312634	 -0.754370	 -0.047676	 0.745428	 -0.636166	 0.193281	 1
1463624199.997	 9	 0.002697	 0.006768	 0.001740	 2.041681	 -1.312634	 -0.754639	 -0.047641	 0.745415	 -0.636187	 0.193272	 1
1463624200.007	 9	 0.004843	 0.011001	 -0.000372	 2.041638	 -1.312679	 -0.754788	 -0.047612	 0.745406	 -0.636212	 0.193228	 1
1463624200.017	 9	 0.002700	 0.008880	 -0.000373	 2.041486	 -1.312738	 -0.755033	 -0.047586	 0.745388	 -0.636246	 0.193191	 1
1463624200.027	 9	 0.000566	 0.008886	 -0.000354	 2.041473	 -1.312770	 -0.755132	 -0.047562	 0.745384	 -0.636264	 0.193155	 1
1463624200.037	 9	 -0.000483	 0.011032	 0.001807	 2.041431	 -1.312714	 -0.755270	 -0.047508	 0.745392	 -0.636262	 0.193143	 1
1463624200.047	 9	 0.000594	 0.013156	 0.001817	 2.041485	 -1.312695	 -0.755345	 -0.047458	 0.745402	 -0.636266	 0.193104	 1
1463624200.057	 9	 0.002728	 0.012093	 0.002854	 2.041442	 -1.312699	 -0.755517	 -0.047408	 0.745402	 -0.636282	 0.193064	 1
1463624200.067	 9	 0.005910	 0.008885	 0.001731	 2.041322	 -1.312760	 -0.755738	 -0.047382	 0.745385	 -0.636316	 0.193022	 1
1463624200.077	 9	 0.003767	 0.007820	 0.000673	 2.041298	 -1.312797	 -0.755846	 -0.047360	 0.745379	 -0.636336	 0.192986	 1
1463624200.087	 9	 0.000570	 0.008893	 0.000710	 2.041442	 -1.312845	 -0.755790	 -0.047349	 0.745384	 -0.636346	 0.192937	 1
1463624200.097	 9	 -0.002630	 0.009959	 -0.000318	 2.041614	 -1.312859	 -0.755715	 -0.047326	 0.745396	 -0.636346	 0.192893	 1
1463624200.107	 9	 -0.001548	 0.013146	 -0.000298	 2.041663	 -1.312879	 -0.755779	 -0.047292	 0.745399	 -0.636359	 0.192849	 1
1463624200.117	 9	 -0.002619	 0.012085	 -0.000298	 2.041594	 -1.312932	 -0.755957	 -0.047263	 0.745388	 -0.636388	 0.192804	 1
1463624200.127	 9	 -0.000488	 0.012071	 -0.001383	 2.041475	 -1.313011	 -0.756182	 -0.047240	 0.745369	 -0.636427	 0.192755	 1
1463624200.137	 9	 0.001647	 0.012064	 -0.001402	 2.041360	 -1.313078	 -0.756410	 -0.047211	 0.745352	 -0.636463	 0.192707	 1
1463624200.147	 9	 0.003788	 0.013121	 -0.001411	 2.041146	 -1.313188	 -0.756747	 -0.047185	 0.745321	 -0.636519	 0.192649	 1
1463624200.157	 9	 0.002720	 0.012068	 -0.000346	 2.041008	 -1.313229	 -0.757008	 -0.047143	 0.745307	 -0.636551	 0.192607	 1
1463624200.167	 9	 0.002712	 0.007973	 -0.000426	 2.040849	 -1.313293	 -0.757249	 -0.047123	 0.745287	 -0.636587	 0.192571	 1
1463624200.177	 9	 0.000557	 0.002668	 0.000608	 2.040878	 -1.313357	 -0.757261	 -0.047128	 0.745280	 -0.636605	 0.192540	 1
1463624200.187	 9	 -0.000501	 0.003743	 0.001693	 2.040927	 -1.313369	 -0.757243	 -0.047122	 0.745282	 -0.636607	 0.192524	 1
1463624200.197	 9	 -0.001568	 0.003746	 0.001702	 2.040999	 -1.313366	 -0.757208	 -0.047111	 0.745289	 -0.636605	 0.192509	 1
1463624200.207	 9	 -0.001573	 0.002682	 0.001693	 2.040920	 -1.313348	 -0.757324	 -0.047088	 0.745287	 -0.636610	 0.192506	 1
1463624200.227	 10	 0.002684	 -0.001570	 0.003748	 2.040495	 -1.313294	 -0.757736	 -0.047054	 0.745264	 -0.636625	 0.192548	 1
1463624200.237	 10	 0.002719	 0.005875	 0.003817	 2.040361	 -1.313226	 -0.757918	 -0.047010	 0.745267	 -0.636622	 0.192559	 1
1463624200.257	 11	 0.003854	 0.021811	 0.001824	 2.040226	 -1.313217	 -0.758397	 -0.046871	 0.745267	 -0.636663	 0.192459	 1
1463624200.267	 11	 0.001736	 0.026065	 0.000816	 2.040520	 -1.313279	 -0.758366	 -0.046807	 0.745284	 -0.636683	 0.192343	 1
1463624200.277	 11	 0.001750	 0.028200	 0.001901	 2.040800	 -1.313272	 -0.758369	 -0.046715	 0.745312	 -0.636688	 0.192239	 1
1463624200.287	 11	 0.004939	 0.023951	 0.003965	 2.040845	 -1.313269	 -0.758582	 -0.046621	 0.745322	 -0.636709	 0.192155	 1
1463624200.297	 11	 0.004922	 0.017592	 0.007103	 2.040921	 -1.313284	 -0.758711	 -0.046552	 0.745330	 -0.636727	 0.192082	 1
1463624200.307	 11	 0.002743	 0.009081	 0.005976	 2.040802	 -1.313331	 -0.758957	 -0.046513	 0.745316	 -0.636759	 0.192035	 1
1463624200.317	 11	 -0.001544	 0.004905	 0.004869	 2.040911	 -1.313377	 -0.758912	 -0.046508	 0.745318	 -0.636769	 0.191996	 1
1463624200.327	 11	 -0.006899	 0.001722	 0.003820	 2.041007	 -1.313421	 -0.758833	 -0.046519	 0.745318	 -0.636775	 0.191974	 1
1463624200.337	 11	 -0.009037	 0.000664	 0.003828	 2.041002	 -1.313467	 -0.758828	 -0.046536	 0.745310	 -0.636786	 0.191965	 1
1463624200.347	 11	 -0.003706	 -0.000416	 0.003770	 2.040970	 -1.313535	 -0.758848	 -0.046558	 0.745296	 -0.636805	 0.191952	 1
1463624200.357	 11	 -0.001594	 -0.003629	 0.001590	 2.040649	 -1.313633	 -0.759137	 -0.046581	 0.745256	 -0.636850	 0.191952	 1
1463624200.367	 11	 -0.001628	 -0.011075	 0.001520	 2.040341	 -1.313750	 -0.759353	 -0.046633	 0.745212	 -0.636893	 0.191967	 1
1463624200.377	 11	 -0.005935	 -0.017459	 -0.000634	 2.040089	 -1.313832	 -0.759427	 -0.046709	 0.745176	 -0.636915	 0.192014	 1
1463624200.387	 11	 -0.007015	 -0.019591	 -0.001712	 2.040053	 -1.313948	 -0.759260	 -0.046816	 0.745150	 -0.636928	 0.192049	 1
1463624200.397	 11	 -0.004879	 -0.017486	 -0.003843	 2.040049	 -1.314020	 -0.759075	 -0.046907	 0.745133	 -0.636928	 0.192090	 1
1463624200.407	 11	 -0.004860	 -0.014287	 -0.002748	 2.040158	 -1.314062	 -0.758816	 -0.046981	 0.745131	 -0.636917	 0.192120	 1
1463624200.417	 11	 -0.002727	 -0.016406	 -0.000654	 2.039982	 -1.314022	 -0.758829	 -0.047021	 0.745121	 -0.636904	 0.192192	 1
1463624200.427	 11	 -0.004858	 -0.017448	 0.001487	 2.039877	 -1.313909	 -0.758758	 -0.047048	 0.745128	 -0.636866	 0.192285	 1
1463624200.437	 11	 -0.009126	 -0.016379	 0.000469	 2.039958	 -1.313765	 -0.758499	 -0.047077	 0.745153	 -0.636806	 0.192377	 1
1463624200.447	 11	 -0.008029	 -0.010000	 0.000520	 2.040163	 -1.313647	 -0.758170	 -0.047100	 0.745184	 -0.636749	 0.192437	 1
1463624200.457	 11	 -0.006917	 -0.000431	 0.000599	 2.040382	 -1.313627	 -0.757923	 -0.047117	 0.745203	 -0.636726	 0.192440	 1
1463624200.467	 11	 -0.005838	 0.003805	 -0.001502	 2.040652	 -1.313585	 -0.757675	 -0.047111	 0.745230	 -0.636697	 0.192430	 1
1463624200.477	 11	 -0.005837	 0.002833	 -0.001552	 2.040878	 -1.313550	 -0.757471	 -0.047105	 0.745253	 -0.636674	 0.192420	 1
1463624200.487	 11	 -0.007992	 -0.001415	 -0.001573	 2.040996	 -1.313546	 -0.757335	 -0.047117	 0.745262	 -0.636663	 0.192421	 1
1463624200.497	 11	 -0.005867	 -0.003549	 -0.001611	 2.041159	 -1.313525	 -0.757132	 -0.047134	 0.745276	 -0.636642	 0.192430	 1
1463624200.507	 11	 -0.004796	 -0.003545	 -0.000555	 2.041357	 -1.313509	 -0.756894	 -0.047156	 0.745292	 -0.636619	 0.192437	 1
1463624200.517	 11	 -0.006934	 -0.002490	 -0.002658	 2.041679	 -1.313522	 -0.756542	 -0.047188	 0.745312	 -0.636597	 0.192425	 1
1463624200.527	 11	 -0.004800	 -0.002497	 -0.002677	 2.042062	 -1.313539	 -0.756132	 -0.047224	 0.745337	 -0.636570	 0.192408	 1
1463624200.537	 11	 -0.005868	 -0.003549	 -0.001612	 2.042230	 -1.313555	 -0.755926	 -0.047252	 0.745346	 -0.636559	 0.192407	 1
1463624200.547	 11	 -0.005882	 -0.005685	 -0.002698	 2.042318	 -1.313557	 -0.755781	 -0.047279	 0.745350	 -0.636547	 0.192420	 1
1463624200.557	 11	 -0.006955	 -0.006745	 -0.002698	 2.042539	 -1.313519	 -0.755484	 -0.047308	 0.745371	 -0.636514	 0.192442	 1
1463624200.567	 11	 -0.008017	 -0.006734	 -0.001622	 2.042568	 -1.313447	 -0.755371	 -0.047320	 0.745383	 -0.636486	 0.192487	 1
1463624200.577	 11	 -0.004801	 -0.003553	 -0.001620	 2.042558	 -1.313434	 -0.755321	 -0.047338	 0.745383	 -0.636477	 0.192510	 1
1463624200.587	 11	 -0.002637	 0.000710	 0.000532	 2.042493	 -1.313428	 -0.755367	 -0.047340	 0.745379	 -0.636479	 0.192521	 1
1463624200.597	 11	 -0.002632	 0.001774	 0.000542	 2.042340	 -1.313413	 -0.755528	 -0.047324	 0.745370	 -0.636487	 0.192531	 1
1463624200.607	 11	 -0.002616	 0.006021	 -0.000484	 2.042471	 -1.313365	 -0.755450	 -0.047298	 0.745389	 -0.636470	 0.192520	 1
1463624200.617	 11	 -0.003673	 0.008151	 -0.000455	 2.042767	 -1.313338	 -0.755232	 -0.047277	 0.745417	 -0.636449	 0.192486	 1
1463624200.627	 11	 -0.005788	 0.009317	 0.001688	 2.043011	 -1.313272	 -0.755070	 -0.047241	 0.745447	 -0.636422	 0.192465	 1
1463624200.637	 11	 -0.006855	 0.009320	 0.001698	 2.043198	 -1.313210	 -0.754967	 -0.047202	 0.745473	 -0.636401	 0.192446	 1
1463624200.647	 11	 -0.004717	 0.009322	 0.002745	 2.043349	 -1.313162	 -0.754902	 -0.047164	 0.745494	 -0.636386	 0.192423	 1
1463624200.657	 11	 -0.002576	 0.011435	 0.001680	 2.043353	 -1.313154	 -0.754998	 -0.047125	 0.745498	 -0.636394	 0.192393	 1
1463624200.667	 11	 -0.001514	 0.009312	 0.002716	 2.043285	 -1.313169	 -0.755158	 -0.047091	 0.745493	 -0.636411	 0.192363	 1
1463624200.677	 11	 0.000607	 0.008226	 0.000556	 2.043311	 -1.313230	 -0.755220	 -0.047077	 0.745487	 -0.636433	 0.192317	 1
1463624200.687	 11	 0.001665	 0.007151	 -0.000529	 2.043198	 -1.313278	 -0.755401	 -0.047060	 0.745472	 -0.636460	 0.192289	 1
1463624200.697	 11	 0.000602	 0.007162	 0.000545	 2.043122	 -1.313336	 -0.755545	 -0.047047	 0.745459	 -0.636487	 0.192255	 1
1463624200.707	 11	 -0.000459	 0.008229	 0.000565	 2.042994	 -1.313331	 -0.755744	 -0.047012	 0.745452	 -0.636502	 0.192241	 1
1463624200.717	 11	 -0.000469	 0.006101	 0.000545	 2.042953	 -1.313307	 -0.755848	 -0.046979	 0.745454	 -0.636505	 0.192229	 1
1463624200.727	 11	 0.000613	 0.009289	 0.000566	 2.042909	 -1.313271	 -0.755972	 -0.046937	 0.745459	 -0.636507	 0.192216	 1
1463624200.737	 11	 0.000637	 0.012495	 0.002728	 2.042810	 -1.313191	 -0.756169	 -0.046872	 0.745467	 -0.636503	 0.192213	 1
1463624200.747	 11	 -0.001472	 0.017820	 0.002796	 2.042865	 -1.313148	 -0.756277	 -0.046802	 0.745482	 -0.636504	 0.192169	 1
1463624200.757	 11	 0.003889	 0.023122	 0.002799	 2.042831	 -1.313115	 -0.756527	 -0.046710	 0.745490	 -0.636518	 0.192111	 1
1463624200.767	 11	 0.003893	 0.023130	 0.003865	 2.042869	 -1.313101	 -0.756721	 -0.046621	 0.745501	 -0.636534	 0.192039	 1
1463624200.777	 11	 0.003864	 0.017804	 0.002749	 2.042863	 -1.313125	 -0.756929	 -0.046552	 0.745501	 -0.636560	 0.191969	 1
1463624200.787	 11	 0.001717	 0.014703	 0.001639	 2.042842	 -1.313192	 -0.757109	 -0.046511	 0.745492	 -0.636594	 0.191901	 1
1463624200.797	 11	 -0.000422	 0.013646	 0.001647	 2.042953	 -1.313265	 -0.757131	 -0.046489	 0.745491	 -0.636618	 0.191833	 1
1463624200.807	 11	 -0.003628	 0.012591	 0.001665	 2.042976	 -1.313327	 -0.757231	 -0.046462	 0.745486	 -0.636643	 0.191776	 1
1463624200.817	 11	 -0.002580	 0.009389	 0.000560	 2.042993	 -1.313393	 -0.757311	 -0.046446	 0.745478	 -0.636668	 0.191726	 1
1463624200.827	 11	 -0.000465	 0.005128	 0.000501	 2.042867	 -1.313435	 -0.757492	 -0.046431	 0.745463	 -0.636693	 0.191703	 1
1463624200.837	 11	 0.001644	 0.000859	 -0.000623	 2.042818	 -1.313468	 -0.757564	 -0.046429	 0.745455	 -0.636708	 0.191690	 1
1463624200.847	 11	 0.004850	 0.000857	 0.000415	 2.042813	 -1.313458	 -0.757586	 -0.046420	 0.745456	 -0.636707	 0.191687	 1
1463624200.857	 11	 0.003795	 0.001940	 0.002566	 2.042969	 -1.313411	 -0.757464	 -0.046402	 0.745476	 -0.636687	 0.191681	 1
1463624200.867	 11	 0.004865	 0.000888	 0.004679	 2.043024	 -1.313338	 -0.757451	 -0.046368	 0.745493	 -0.636668	 0.191685	 1
1463624200.877	 11	 0.004863	 -0.000167	 0.005735	 2.043085	 -1.313244	 -0.757406	 -0.046338	 0.745514	 -0.636641	 0.191702	 1
1463624200.887	 11	 0.003815	 0.003035	 0.006840	 2.043150	 -1.313135	 -0.757379	 -0.046296	 0.745537	 -0.636613	 0.191716	 1
1463624200.897	 11	 0.000643	 0.009426	 0.006927	 2.043317	 -1.313038	 -0.757305	 -0.046243	 0.745568	 -0.636585	 0.191704	 1
1463624200.907	 11	 -0.000403	 0.015796	 0.004864	 2.043442	 -1.312934	 -0.757326	 -0.046165	 0.745597	 -0.636563	 0.191679	 1
1463624200.917	 11	 -0.000368	 0.023242	 0.004933	 2.043739	 -1.312872	 -0.757245	 -0.046083	 0.745634	 -0.636546	 0.191611	 1
1463624200.927	 11	 0.002831	 0.025336	 0.001727	 2.043855	 -1.312898	 -0.757379	 -0.046004	 0.745644	 -0.636568	 0.191518	 1
1463624200.937	 11	 0.002822	 0.023209	 0.001707	 2.043860	 -1.313002	 -0.757611	 -0.045946	 0.745633	 -0.636617	 0.191414	 1
1463624200.947	 11	 0.002794	 0.017904	 -0.000506	 2.043856	 -1.313084	 -0.757806	 -0.045898	 0.745623	 -0.636657	 0.191331	 1
1463624200.957	 11	 -0.000424	 0.013667	 0.000548	 2.044012	 -1.313099	 -0.757798	 -0.045855	 0.745636	 -0.636663	 0.191271	 1
1463624200.967	 11	 -0.001515	 0.009408	 -0.000549	 2.044278	 -1.313170	 -0.757644	 -0.045848	 0.745646	 -0.636673	 0.191201	 1
1463624200.977	 11	 -0.006846	 0.010487	 -0.000493	 2.044529	 -1.313232	 -0.757492	 -0.045843	 0.745656	 -0.636680	 0.191140	 1
1463624200.987	 11	 -0.004712	 0.009425	 0.000544	 2.044657	 -1.313299	 -0.757453	 -0.045837	 0.745656	 -0.636696	 0.191086	 1
1463624200.997	 11	 -0.003638	 0.011541	 -0.000512	 2.044914	 -1.313373	 -0.757307	 -0.045830	 0.745665	 -0.636707	 0.191016	 1
1463624201.007	 11	 -0.000443	 0.008356	 0.001562	 2.044890	 -1.313403	 -0.757426	 -0.045802	 0.745661	 -0.636725	 0.190979	 1
1463624201.017	 11	 -0.001516	 0.006239	 0.002616	 2.044815	 -1.313459	 -0.757572	 -0.045788	 0.745647	 -0.636752	 0.190945	 1
1463624201.027	 11	 -0.005818	 -0.000138	 0.001528	 2.044855	 -1.313519	 -0.757534	 -0.045807	 0.745641	 -0.636765	 0.190926	 1
1463624201.037	 11	 -0.009047	 -0.003343	 -0.001672	 2.045071	 -1.313602	 -0.757278	 -0.045857	 0.745642	 -0.636766	 0.190904	 1
1463624201.047	 11	 -0.006907	 -0.002286	 -0.001681	 2.045125	 -1.313719	 -0.757183	 -0.045909	 0.745625	 -0.636788	 0.190883	 1
1463624201.057	 11	 -0.002643	 -0.003362	 -0.001729	 2.044983	 -1.313807	 -0.757278	 -0.045945	 0.745599	 -0.636817	 0.190882	 1
1463624201.067	 11	 0.000553	 -0.005492	 -0.000710	 2.044664	 -1.313802	 -0.757545	 -0.045945	 0.745576	 -0.636834	 0.190916	 1
1463624201.077	 11	 0.001595	 -0.010813	 -0.000769	 2.044455	 -1.313825	 -0.757653	 -0.045978	 0.745554	 -0.636845	 0.190954	 1
1463624201.087	 11	 -0.001626	 -0.014003	 -0.001836	 2.044327	 -1.313782	 -0.757642	 -0.046010	 0.745549	 -0.636830	 0.191017	 1
1463624201.097	 11	 -0.005883	 -0.009751	 -0.003891	 2.044540	 -1.313772	 -0.757312	 -0.046062	 0.745563	 -0.636801	 0.191045	 1
1463624201.107	 11	 -0.007972	 -0.000152	 -0.005945	 2.044779	 -1.313778	 -0.757035	 -0.046092	 0.745579	 -0.636781	 0.191043	 1
1463624201.117	 11	 -0.010079	 0.007284	 -0.007989	 2.045085	 -1.313768	 -0.756762	 -0.046093	 0.745603	 -0.636760	 0.191018	 1
1463624201.127	 11	 -0.010057	 0.013650	 -0.010061	 2.045423	 -1.313815	 -0.756519	 -0.046089	 0.745622	 -0.636756	 0.190957	 1
1463624201.137	 11	 -0.004706	 0.023153	 -0.017481	 2.046241	 -1.314058	 -0.755895	 -0.046131	 0.745646	 -0.636778	 0.190784	 1
1463624201.147	 11	 -0.004725	 0.031555	 -0.032325	 2.047790	 -1.314498	 -0.754634	 -0.046235	 0.745691	 -0.636806	 0.190489	 1
1463624201.157	 11	 -0.010080	 0.042084	 -0.049234	 2.050100	 -1.315002	 -0.752705	 -0.046364	 0.745782	 -0.636805	 0.190104	 1
1463624201.167	 11	 -0.027095	 0.061228	 -0.056370	 2.053787	 -1.315384	 -0.749574	 -0.046467	 0.745995	 -0.636691	 0.189622	 1
1463624201.177	 11	 -0.051759	 0.045270	 -0.066964	 2.058330	 -1.315897	 -0.745484	 -0.046693	 0.746243	 -0.636542	 0.189090	 1
1463624201.187	 11	 -0.071148	 0.003876	 -0.062919	 2.062554	 -1.316320	 -0.741336	 -0.047018	 0.746473	 -0.636359	 0.188720	 1
1463624201.197	 11	 -0.097870	 -0.005609	 -0.061709	 2.067794	 -1.316419	 -0.735989	 -0.047375	 0.746824	 -0.636004	 0.188438	 1
1463624201.207	 11	 -0.139742	 -0.075549	 -0.042812	 2.070901	 -1.316434	 -0.732067	 -0.047856	 0.747021	 -0.635712	 0.188520	 1
1463624201.217	 11	 -0.156641	 -0.282755	 -0.022211	 2.071864	 -1.316127	 -0.728656	 -0.048738	 0.747083	 -0.635333	 0.189327	 1
1463624201.227	 11	 -0.215601	 -0.552856	 -0.038065	 2.071833	 -1.315745	 -0.723665	 -0.050504	 0.747022	 -0.634757	 0.191025	 1
1463624201.237	 11	 -0.214919	 -1.535661	 -0.041888	 2.067239	 -1.314950	 -0.715222	 -0.054889	 0.746495	 -0.633610	 0.195629	 1
1463624201.247	 11	 -0.051791	 -1.683866	 -0.172578	 2.055934	 -1.315702	 -0.709235	 -0.060913	 0.745068	 -0.632886	 0.201540	 1
1463624201.257	 11	 0.006427	 -1.249737	 -0.271359	 2.046482	 -1.317947	 -0.704851	 -0.066171	 0.743574	 -0.632729	 0.205848	 1
1463624201.267	 11	 -0.140631	 -0.928529	 -0.331035	 2.045529	 -1.320366	 -0.695712	 -0.070553	 0.742739	 -0.632384	 0.208450	 1
1463624201.277	 11	 -0.358040	 -0.857751	 -0.343431	 2.053627	 -1.321950	 -0.678246	 -0.074926	 0.742671	 -0.631267	 0.210543	 1
1463624201.287	 11	 -0.443780	 -0.711762	 -0.340260	 2.067603	 -1.322951	 -0.656102	 -0.079024	 0.743113	 -0.629733	 0.212072	 1
1463624201.297	 11	 -0.412249	 -0.592693	 -0.335164	 2.082533	 -1.323857	 -0.634334	 -0.082668	 0.743650	 -0.628270	 0.213137	 1
1463624201.307	 11	 -0.363902	 -0.532139	 -0.325429	 2.096490	 -1.324846	 -0.614314	 -0.086001	 0.744106	 -0.626995	 0.213980	 1
1463624201.317	 11	 -0.336713	 -0.442716	 -0.303519	 2.109829	 -1.325777	 -0.595719	 -0.088991	 0.744539	 -0.625848	 0.214609	 1
1463624201.327	 11	 -0.332631	 -0.279792	 -0.275394	 2.123821	 -1.326463	 -0.577949	 -0.091415	 0.745102	 -0.624767	 0.214787	 1
1463624201.337	 11	 -0.346491	 -0.061618	 -0.262586	 2.139975	 -1.326877	 -0.560090	 -0.093137	 0.745925	 -0.623716	 0.214240	 1
1463624201.347	 11	 -0.338069	 0.140441	 -0.262910	 2.158230	 -1.327210	 -0.542244	 -0.094193	 0.746969	 -0.622763	 0.212910	 1
1463624201.357	 11	 -0.286245	 0.248936	 -0.241037	 2.176202	 -1.327564	 -0.526088	 -0.094727	 0.748036	 -0.622004	 0.211139	 1
1463624201.367	 11	 -0.178200	 0.273347	 -0.204449	 2.190783	 -1.328117	 -0.513871	 -0.094902	 0.748869	 -0.621578	 0.209355	 1
1463624201.377	 11	 -0.037358	 0.225439	 -0.153898	 2.199576	 -1.329044	 -0.507304	 -0.094854	 0.749271	 -0.621592	 0.207894	 1
1463624201.387	 11	 0.101199	 0.123483	 -0.077187	 2.201197	 -1.330229	 -0.507191	 -0.094679	 0.749171	 -0.622018	 0.207058	 1
1463624201.397	 11	 0.201290	 0.019445	 -0.009752	 2.196303	 -1.331481	 -0.512670	 -0.094454	 0.748647	 -0.622733	 0.206905	 1
1463624201.407	 11	 0.259794	 -0.053830	 0.029556	 2.187111	 -1.332747	 -0.521740	 -0.094233	 0.747845	 -0.623621	 0.207231	 1
1463624201.417	 11	 0.261916	 -0.070732	 0.046432	 2.176374	 -1.333912	 -0.532053	 -0.094017	 0.746963	 -0.624534	 0.207759	 1
1463624201.427	 11	 0.209722	 -0.045097	 0.037511	 2.167132	 -1.334846	 -0.541003	 -0.093796	 0.746221	 -0.625308	 0.208197	 1
1463624201.437	 11	 0.135187	 0.014475	 0.008873	 2.161387	 -1.335572	 -0.546880	 -0.093584	 0.745743	 -0.625865	 0.208333	 1
1463624201.447	 11	 0.062868	 0.091060	 -0.019626	 2.159593	 -1.336130	 -0.549458	 -0.093324	 0.745558	 -0.626214	 0.208064	 1
1463624201.457	 11	 -0.000912	 0.154972	 -0.032331	 2.161207	 -1.336452	 -0.549255	 -0.092976	 0.745647	 -0.626362	 0.207450	 1
1463624201.467	 11	 -0.053000	 0.196619	 -0.030424	 2.165204	 -1.336478	 -0.547062	 -0.092548	 0.745954	 -0.626328	 0.206640	 1
1463624201.477	 11	 -0.086954	 0.228708	 -0.019172	 2.170732	 -1.336214	 -0.543669	 -0.092017	 0.746424	 -0.626156	 0.205702	 1
1463624201.487	 11	 -0.092121	 0.249065	 -0.000820	 2.176502	 -1.335739	 -0.540236	 -0.091374	 0.746961	 -0.625928	 0.204732	 1
1463624201.497	 11	 -0.057754	 0.278884	 0.018342	 2.181183	 -1.335224	 -0.538197	 -0.090544	 0.747457	 -0.625779	 0.203740	 1
1463624201.507	 11	 0.004318	 0.323311	 0.009689	 2.184378	 -1.335039	 -0.538111	 -0.089530	 0.747818	 -0.625859	 0.202616	 1
1463624201.517	 11	 0.075936	 0.370769	 -0.017137	 2.186242	 -1.335455	 -0.539881	 -0.088388	 0.747995	 -0.626245	 0.201268	 1
1463624201.527	 11	 0.133636	 0.402367	 -0.036529	 2.186856	 -1.336404	 -0.543327	 -0.087141	 0.748002	 -0.626900	 0.199741	 1
1463624201.537	 11	 0.149626	 0.413888	 -0.054679	 2.187090	 -1.337682	 -0.547307	 -0.085896	 0.747921	 -0.627686	 0.198110	 1
1463624201.547	 11	 0.137423	 0.328722	 -0.070286	 2.187402	 -1.339028	 -0.550655	 -0.084880	 0.747803	 -0.628429	 0.196630	 1
1463624201.557	 11	 0.090996	 0.226647	 -0.084687	 2.188315	 -1.340313	 -0.552262	 -0.084311	 0.747682	 -0.629006	 0.195485	 1
1463624201.567	 11	 0.003325	 0.153848	 -0.038773	 2.190415	 -1.340856	 -0.551869	 -0.083932	 0.747753	 -0.629217	 0.194698	 1
1463624201.577	 11	 -0.043885	 0.107125	 -0.047323	 2.193809	 -1.340997	 -0.549610	 -0.083744	 0.747958	 -0.629181	 0.194107	 1
1463624201.587	 11	 -0.059280	 0.037803	 -0.083027	 2.198182	 -1.341254	 -0.545676	 -0.083903	 0.748161	 -0.629059	 0.193649	 1
1463624201.597	 11	 -0.053103	 0.020503	 -0.119478	 2.203106	 -1.341821	 -0.540853	 -0.084298	 0.748310	 -0.628969	 0.193194	 1
1463624201.607	 11	 -0.046720	 0.040476	 -0.149189	 2.206881	 -1.343065	 -0.537200	 -0.084781	 0.748245	 -0.629149	 0.192647	 1
1463624201.617	 11	 -0.012211	 0.111678	 -0.143499	 2.212382	 -1.344124	 -0.532526	 -0.085057	 0.748341	 -0.629251	 0.191819	 1
1463624201.627	 11	 0.023301	 0.144801	 -0.108329	 2.216305	 -1.345158	 -0.529914	 -0.085050	 0.748375	 -0.629480	 0.190938	 1
1463624201.637	 11	 0.056687	 0.170562	 -0.062553	 2.218229	 -1.346048	 -0.529634	 -0.084763	 0.748347	 -0.629803	 0.190106	 1
1463624201.647	 11	 0.087872	 0.177219	 -0.011594	 2.211636	 -1.345711	 -0.537895	 -0.083668	 0.748144	 -0.630209	 0.190047	 1
1463624201.657	 11	 0.106089	 0.165704	 0.021179	 2.209362	 -1.346207	 -0.541960	 -0.082985	 0.747987	 -0.630648	 0.189503	 1
1463624201.667	 11	 0.099705	 0.145722	 0.049824	 2.206215	 -1.346488	 -0.546747	 -0.082256	 0.747825	 -0.631055	 0.189105	 1
1463624201.677	 11	 0.084732	 0.129889	 0.060465	 2.202788	 -1.346524	 -0.551594	 -0.081535	 0.747692	 -0.631384	 0.188849	 1
1463624201.687	 11	 0.062238	 0.140354	 0.027716	 2.203691	 -1.346842	 -0.552242	 -0.081085	 0.747734	 -0.631576	 0.188233	 1
1463624201.697	 11	 0.052536	 0.140205	 0.003286	 2.202904	 -1.347114	 -0.554487	 -0.080561	 0.747691	 -0.631836	 0.187755	 1
1463624201.707	 11	 0.037593	 0.141298	 0.001295	 2.202826	 -1.347352	 -0.556010	 -0.080075	 0.747692	 -0.632046	 0.187248	 1
1463624201.717	 11	 0.023805	 0.152038	 0.010041	 2.203171	 -1.347452	 -0.557188	 -0.079551	 0.747750	 -0.632200	 0.186724	 1
1463624201.727	 11	 0.012134	 0.153253	 0.026140	 2.204366	 -1.347233	 -0.557578	 -0.078973	 0.747924	 -0.632219	 0.186204	 1
1463624201.737	 11	 0.010053	 0.151248	 0.042126	 2.204561	 -1.346984	 -0.558934	 -0.078343	 0.748050	 -0.632279	 0.185760	 1
1463624201.747	 11	 0.024067	 0.160935	 0.062325	 2.203987	 -1.346639	 -0.561151	 -0.077610	 0.748159	 -0.632359	 0.185354	 1
1463624201.757	 11	 0.042336	 0.171656	 0.081450	 2.202338	 -1.346241	 -0.564580	 -0.076750	 0.748225	 -0.632496	 0.184979	 1
1463624201.767	 11	 0.063795	 0.177072	 0.103698	 2.196966	 -1.345536	 -0.571771	 -0.075585	 0.748156	 -0.632748	 0.184879	 1
1463624201.777	 11	 0.074217	 0.111208	 0.118981	 2.192789	 -1.345024	 -0.577426	 -0.074663	 0.748092	 -0.632963	 0.184772	 1
1463624201.787	 11	 0.051645	 0.077238	 0.118861	 2.188522	 -1.344378	 -0.582635	 -0.073903	 0.748030	 -0.633097	 0.184872	 1
1463624201.797	 11	 0.034573	 0.092057	 0.102095	 2.185384	 -1.343717	 -0.586746	 -0.073193	 0.748031	 -0.633169	 0.184901	 1
1463624201.807	 11	 0.034566	 0.106810	 0.083045	 2.185239	 -1.343603	 -0.588080	 -0.072711	 0.748091	 -0.633254	 0.184560	 1
1463624201.817	 11	 0.036576	 0.093923	 0.066921	 2.183174	 -1.343236	 -0.591213	 -0.072101	 0.748092	 -0.633362	 0.184428	 1
1463624201.827	 11	 0.027903	 0.071558	 0.059328	 2.181338	 -1.342916	 -0.593891	 -0.071599	 0.748086	 -0.633450	 0.184342	 1
1463624201.837	 11	 0.010726	 0.053496	 0.055046	 2.180009	 -1.342546	 -0.595843	 -0.071196	 0.748111	 -0.633475	 0.184310	 1
1463624201.847	 11	 -0.002176	 0.034381	 0.053913	 2.180059	 -1.342349	 -0.596247	 -0.070979	 0.748172	 -0.633457	 0.184211	 1
1463624201.857	 11	 -0.008700	 0.008872	 0.053730	 2.180160	 -1.342097	 -0.596357	 -0.070842	 0.748238	 -0.633398	 0.184198	 1
1463624201.867	 11	 -0.013073	 -0.011340	 0.051447	 2.179542	 -1.341832	 -0.596934	 -0.070754	 0.748257	 -0.633352	 0.184310	 1
1463624201.877	 11	 -0.015233	 -0.017708	 0.052471	 2.178921	 -1.341455	 -0.597406	 -0.070679	 0.748296	 -0.633265	 0.184483	 1
1463624201.887	 11	 -0.016226	 -0.010190	 0.062141	 2.177682	 -1.341029	 -0.598567	 -0.070528	 0.748312	 -0.633205	 0.184681	 1
1463624201.897	 11	 -0.016245	 -0.019717	 0.068447	 2.176080	 -1.340540	 -0.599996	 -0.070376	 0.748316	 -0.633139	 0.184946	 1
1463624201.907	 11	 -0.014134	 -0.022930	 0.066264	 2.175076	 -1.340246	 -0.600811	 -0.070314	 0.748313	 -0.633094	 0.185134	 1
1463624201.918	 11	 -0.005660	 -0.029399	 0.057601	 2.174467	 -1.340191	 -0.601199	 -0.070347	 0.748282	 -0.633093	 0.185252	 1
1463624201.928	 11	 -0.002514	 -0.029508	 0.043713	 2.174514	 -1.340253	 -0.600923	 -0.070451	 0.748264	 -0.633087	 0.185307	 1
1463624201.937	 11	 -0.004721	 -0.029633	 0.025610	 2.174866	 -1.340409	 -0.600318	 -0.070606	 0.748243	 -0.633088	 0.185329	 1
1463624201.947	 11	 -0.009027	 -0.027577	 0.013942	 2.175220	 -1.340381	 -0.599705	 -0.070716	 0.748260	 -0.633036	 0.185398	 1
1463624201.957	 11	 -0.016510	 -0.027578	 0.010809	 2.175744	 -1.340262	 -0.598918	 -0.070815	 0.748305	 -0.632947	 0.185479	 1
1463624201.968	 11	 -0.027222	 -0.037112	 0.011879	 2.176033	 -1.340073	 -0.598275	 -0.070916	 0.748349	 -0.632843	 0.185620	 1
1463624201.977	 11	 -0.039031	 -0.051968	 0.011842	 2.176646	 -1.339912	 -0.597161	 -0.071097	 0.748400	 -0.632715	 0.185782	 1
1463624201.987	 11	 -0.043420	 -0.072211	 0.005297	 2.176918	 -1.339871	 -0.596169	 -0.071372	 0.748398	 -0.632620	 0.186004	 1
1463624201.998	 11	 -0.040312	 -0.085047	 -0.003377	 2.176876	 -1.339854	 -0.595332	 -0.071694	 0.748368	 -0.632536	 0.186288	 1
1463624202.007	 11	 -0.040330	 -0.088246	 -0.004472	 2.176968	 -1.339768	 -0.594302	 -0.072029	 0.748358	 -0.632418	 0.186600	 1
1463624202.017	 11	 -0.042427	 -0.085010	 0.000906	 2.176793	 -1.339576	 -0.593562	 -0.072312	 0.748355	 -0.632287	 0.186945	 1
1463624202.028	 11	 -0.053118	 -0.095561	 0.008361	 2.176746	 -1.339301	 -0.592627	 -0.072607	 0.748374	 -0.632118	 0.187324	 1
1463624202.037	 11	 -0.074561	 -0.115715	 0.007293	 2.178284	 -1.338965	 -0.589944	 -0.073040	 0.748492	 -0.631825	 0.187677	 1
1463624202.047	 11	 -0.110988	 -0.128516	 -0.012762	 2.183202	 -1.338665	 -0.583735	 -0.073735	 0.748789	 -0.631335	 0.187868	 1
1463624202.057	 11	 -0.164635	 -0.155240	 -0.053047	 2.191193	 -1.338424	 -0.574208	 -0.074721	 0.749237	 -0.630666	 0.187938	 1
1463624202.067	 11	 -0.234183	 -0.165900	 -0.084514	 2.202041	 -1.337407	 -0.561480	 -0.075821	 0.749997	 -0.629577	 0.188119	 1
1463624202.077	 11	 -0.311512	 -0.073944	 -0.048881	 2.212443	 -1.336148	 -0.549785	 -0.076628	 0.750804	 -0.628497	 0.188185	 1
1463624202.087	 11	 -0.374234	 -0.078595	 0.017700	 2.223594	 -1.333973	 -0.537660	 -0.077154	 0.751865	 -0.627129	 0.188296	 1
1463624202.097	 11	 -0.428753	 -0.305151	 -0.005249	 2.234715	 -1.331367	 -0.523794	 -0.078263	 0.752955	 -0.625458	 0.189038	 1
1463624202.107	 11	 -0.390845	 -0.371568	 -0.055225	 2.245409	 -1.329540	 -0.508874	 -0.080111	 0.753789	 -0.623905	 0.190073	 1
1463624202.117	 11	 -0.298676	 -0.240414	 -0.125143	 2.255669	 -1.328353	 -0.495558	 -0.081657	 0.754496	 -0.622683	 0.190611	 1
1463624202.127	 11	 -0.200431	 -0.194185	 -0.163936	 2.264738	 -1.328126	 -0.484113	 -0.083102	 0.754942	 -0.621894	 0.190799	 1
1463624202.137	 11	 -0.092415	 -0.141356	 -0.168648	 2.271245	 -1.328656	 -0.475818	 -0.084332	 0.755093	 -0.621543	 0.190809	 1
1463624202.147	 11	 -0.017369	 -0.089292	 -0.145365	 2.270269	 -1.329632	 -0.475487	 -0.084981	 0.754758	 -0.621778	 0.191074	 1
1463624202.157	 11	 0.027477	 -0.104140	 -0.121381	 2.272089	 -1.330715	 -0.472639	 -0.085736	 0.754558	 -0.621926	 0.191045	 1
1463624202.167	 11	 0.052806	 -0.167998	 -0.116867	 2.272180	 -1.331913	 -0.470965	 -0.086610	 0.754215	 -0.622150	 0.191281	 1
1463624202.177	 11	 0.068598	 -0.205344	 -0.126944	 2.271448	 -1.333277	 -0.469688	 -0.087628	 0.753770	 -0.622427	 0.191668	 1
1463624202.187	 11	 0.087627	 -0.233150	 -0.140157	 2.267927	 -1.335210	 -0.470858	 -0.088722	 0.753031	 -0.622994	 0.192224	 1
1463624202.197	 11	 0.142963	 -0.274722	 -0.130368	 2.264946	 -1.337072	 -0.471257	 -0.089924	 0.752327	 -0.623486	 0.192829	 1
1463624202.207	 11	 0.237102	 -0.233459	 -0.122277	 2.258642	 -1.339340	 -0.475048	 -0.090982	 0.751359	 -0.624279	 0.193537	 1
1463624202.217	 11	 0.323802	 -0.178407	 -0.122520	 2.250132	 -1.342221	 -0.481919	 -0.091724	 0.750178	 -0.625456	 0.193970	 1
1463624202.227	 11	 0.384772	 -0.173104	 -0.104835	 2.235650	 -1.345624	 -0.494817	 -0.092218	 0.748579	 -0.627095	 0.194621	 1
1463624202.237	 11	 0.420135	 -0.146579	 -0.099568	 2.222462	 -1.348951	 -0.506768	 -0.092676	 0.747085	 -0.628668	 0.195068	 1
1463624202.257	 12	 0.408776	 -0.094185	 -0.065943	 2.194278	 -1.355229	 -0.533271	 -0.093192	 0.744151	 -0.631834	 0.195807	 1
1463624202.267	 12	 0.397345	 -0.055626	 -0.033509	 2.180052	 -1.357318	 -0.547179	 -0.093036	 0.742943	 -0.633151	 0.196215	 1
1463624202.277	 12	 0.390168	 -0.017111	 -0.005378	 2.165155	 -1.359634	 -0.562144	 -0.092783	 0.741671	 -0.634602	 0.196457	 1
1463624202.287	 12	 0.402223	 0.029825	 0.018400	 2.149457	 -1.361730	 -0.578397	 -0.092280	 0.740431	 -0.636075	 0.196610	 1
1463624202.297	 12	 0.413036	 0.037432	 0.045021	 2.132439	 -1.363630	 -0.596150	 -0.091623	 0.739174	 -0.637575	 0.196789	 1
1463624202.307	 12	 0.437866	 0.074788	 0.072864	 2.114426	 -1.364965	 -0.615226	 -0.090678	 0.737994	 -0.639003	 0.197023	 1
1463624202.317	 12	 0.439095	 0.091950	 0.093262	 2.094925	 -1.366461	 -0.636078	 -0.089628	 0.736711	 -0.640586	 0.197165	 1
1463624202.327	 12	 0.391047	 0.061463	 0.123238	 2.075794	 -1.367451	 -0.656347	 -0.088571	 0.735532	 -0.641998	 0.197452	 1
1463624202.337	 12	 0.287372	 -0.002848	 0.159778	 2.059013	 -1.367638	 -0.673662	 -0.087650	 0.734599	 -0.643019	 0.198008	 1
1463624202.347	 12	 0.161336	 -0.073319	 0.217775	 2.047660	 -1.365832	 -0.684752	 -0.086724	 0.734295	 -0.643159	 0.199089	 1
1463624202.357	 12	 0.025958	 -0.121154	 0.313362	 2.037698	 -1.363491	 -0.693824	 -0.085937	 0.734124	 -0.643036	 0.200453	 1
1463624202.377	 13	 -0.137510	 -0.268652	 0.441304	 2.025755	 -1.356018	 -0.701868	 -0.084698	 0.734611	 -0.641443	 0.204263	 1
1463624202.387	 13	 -0.168464	 -0.395110	 0.590669	 2.017873	 -1.350347	 -0.706224	 -0.084002	 0.734991	 -0.640125	 0.207294	 1
1463624202.397	 13	 -0.170362	 -0.500127	 0.775151	 2.006237	 -1.343048	 -0.713255	 -0.083037	 0.735339	 -0.638539	 0.211304	 1
1463624202.407	 13	 -0.173938	 -0.523111	 0.977463	 1.991373	 -1.333904	 -0.723162	 -0.081478	 0.735711	 -0.636701	 0.216108	 1
1463624202.417	 13	 -0.197642	 -0.520460	 1.186584	 1.974874	 -1.322772	 -0.734810	 -0.079170	 0.736201	 -0.634555	 0.221540	 1
1463624202.427	 13	 -0.232210	 -0.565581	 1.403880	 1.957244	 -1.309422	 -0.747348	 -0.076176	 0.736814	 -0.632002	 0.227763	 1
1463624202.437	 13	 -0.219327	 -0.654056	 1.528705	 1.938411	 -1.294591	 -0.760324	 -0.072881	 0.737355	 -0.629194	 0.234757	 1
1463624202.447	 13	 -0.159894	 -0.708605	 1.510628	 1.918775	 -1.279723	 -0.773504	 -0.069670	 0.737615	 -0.626485	 0.242046	 1
1463624202.457	 13	 -0.106913	 -0.726317	 1.436464	 1.899471	 -1.265596	 -0.786110	 -0.066717	 0.737594	 -0.624009	 0.249231	 1
1463624202.467	 13	 -0.073993	 -0.664494	 1.321650	 1.881792	 -1.252487	 -0.797506	 -0.063952	 0.737424	 -0.621779	 0.255942	 1
1463624202.477	 13	 -0.100800	 -0.581342	 1.190503	 1.867494	 -1.240583	 -0.806257	 -0.061436	 0.737309	 -0.619680	 0.261911	 1
1463624202.487	 13	 -0.190588	 -0.569744	 1.140236	 1.856939	 -1.229121	 -0.811413	 -0.059187	 0.737417	 -0.617377	 0.267504	 1
1463624202.497	 13	 -0.258948	 -0.580199	 1.137537	 1.848944	 -1.217515	 -0.813786	 -0.057101	 0.737725	 -0.614767	 0.273061	 1
1463624202.507	 13	 -0.266835	 -0.653694	 1.119869	 1.841393	 -1.205919	 -0.815116	 -0.055242	 0.737998	 -0.612040	 0.278775	 1
1463624202.517	 13	 -0.206961	 -0.793741	 1.045573	 1.832206	 -1.195050	 -0.816848	 -0.053941	 0.737909	 -0.609501	 0.284760	 1
1463624202.527	 13	 -0.083858	 -0.898691	 0.996631	 1.819922	 -1.185029	 -0.820610	 -0.053079	 0.737271	 -0.607385	 0.291028	 1
1463624202.537	 13	 0.073232	 -0.875560	 1.023188	 1.804365	 -1.175285	 -0.827801	 -0.052006	 0.736126	 -0.605785	 0.297385	 1
1463624202.547	 13	 0.202596	 -0.687981	 1.128252	 1.787196	 -1.164976	 -0.838376	 -0.049962	 0.734769	 -0.604580	 0.303482	 1
1463624202.557	 13	 0.298677	 -0.391173	 1.322015	 1.770268	 -1.153125	 -0.851693	 -0.046305	 0.733515	 -0.603538	 0.309117	 1
1463624202.567	 13	 0.357043	 0.011275	 1.540708	 1.755618	 -1.139162	 -0.866741	 -0.040597	 0.732661	 -0.602452	 0.314024	 1
1463624202.577	 13	 0.413128	 0.412553	 1.750711	 1.743998	 -1.123169	 -0.883072	 -0.032799	 0.732271	 -0.601289	 0.318049	 1
1463624202.597	 14	 0.421473	 0.923976	 2.169979	 1.729245	 -1.084894	 -0.916813	 -0.012054	 0.732597	 -0.598166	 0.324583	 1
1463624202.607	 14	 0.377566	 1.038595	 2.264150	 1.725797	 -1.063287	 -0.932253	 -0.000154	 0.733154	 -0.595957	 0.327598	 1
1463624202.617	 14	 0.337114	 1.041006	 2.286905	 1.724267	 -1.041286	 -0.946204	 0.011924	 0.733802	 -0.593441	 0.330485	 1
1463624202.627	 14	 0.334027	 0.877947	 2.240653	 1.722095	 -1.019431	 -0.959279	 0.023457	 0.734117	 -0.590826	 0.333836	 1
1463624202.638	 14	 0.293144	 0.795388	 1.986589	 1.720487	 -0.999540	 -0.970835	 0.033944	 0.734278	 -0.588395	 0.336860	 1
1463624202.648	 14	 0.185532	 0.643457	 1.672778	 1.720404	 -0.982573	 -0.979297	 0.042760	 0.734523	 -0.586062	 0.339380	 1
1463624202.657	 14	 0.228855	 0.235856	 1.510875	 1.717410	 -0.967652	 -0.987108	 0.049795	 0.734135	 -0.584138	 0.342563	 1
1463624202.668	 14	 0.249543	 -0.072082	 1.442818	 1.710636	 -0.953506	 -0.995152	 0.055557	 0.732976	 -0.582549	 0.346838	 1
1463624202.678	 14	 0.173603	 -0.127004	 1.465349	 1.704018	 -0.939471	 -1.001825	 0.060834	 0.731777	 -0.580780	 0.351420	 1
1463624202.687	 14	 0.089878	 0.018592	 1.708295	 1.699418	 -0.923362	 -1.007157	 0.066920	 0.730892	 -0.578275	 0.356252	 1
1463624202.698	 14	 0.161782	 0.344610	 1.960091	 1.697135	 -0.904642	 -1.013274	 0.074852	 0.730294	 -0.575255	 0.360761	 1
1463624202.708	 14	 0.313081	 0.646030	 2.078813	 1.696330	 -0.884589	 -1.021777	 0.084530	 0.729740	 -0.572303	 0.364424	 1
1463624202.717	 14	 0.427817	 0.696251	 2.157147	 1.695371	 -0.863917	 -1.032144	 0.095044	 0.728914	 -0.569549	 0.367785	 1
1463624202.728	 14	 0.417644	 0.511596	 2.502956	 1.692760	 -0.840811	 -1.043118	 0.106123	 0.727533	 -0.566433	 0.372274	 1
1463624202.738	 14	 0.368341	 0.618398	 3.129982	 1.690516	 -0.811688	 -1.053980	 0.119282	 0.725860	 -0.561897	 0.378378	 1
1463624202.747	 14	 0.266186	 0.880400	 3.430657	 1.691446	 -0.778505	 -1.063945	 0.134341	 0.724429	 -0.556012	 0.384715	 1
1463624202.758	 14	 0.211108	 0.942475	 3.461555	 1.694884	 -0.744477	 -1.072771	 0.149904	 0.723216	 -0.549428	 0.390661	 1
1463624202.768	 14	 0.238636	 0.744977	 3.372083	 1.697029	 -0.711290	 -1.081634	 0.164769	 0.721482	 -0.543026	 0.396784	 1
1463624202.777	 14	 0.305334	 0.007406	 3.038516	 1.693654	 -0.680481	 -1.090520	 0.177295	 0.718466	 -0.537595	 0.404185	 1
1463624202.788	 14	 0.178185	 -1.066887	 2.394432	 1.681368	 -0.655233	 -1.097261	 0.184796	 0.713861	 -0.533904	 0.413762	 1
1463624202.798	 14	 -0.175957	 -1.984937	 1.644005	 1.662996	 -0.636931	 -1.098594	 0.186464	 0.708688	 -0.531412	 0.424962	 1
1463624202.808	 14	 -0.364927	 -2.987210	 0.932921	 1.637608	 -0.625600	 -1.095519	 0.182432	 0.702693	 -0.530336	 0.437818	 1
1463624202.818	 14	 -0.260410	 -4.267473	 0.287035	 1.600256	 -0.621049	 -1.092109	 0.172861	 0.694332	 -0.531806	 0.452996	 1
1463624202.828	 14	 -0.191277	 -5.414360	 -0.021587	 1.549779	 -0.620867	 -1.089813	 0.158665	 0.682846	 -0.535417	 0.471037	 1
1463624202.838	 14	 -0.438063	 -5.881981	 -0.070683	 1.494538	 -0.621609	 -1.085355	 0.142063	 0.669964	 -0.538664	 0.490722	 1
1463624202.848	 14	 -0.805598	 -5.908045	 -0.146592	 1.440003	 -0.623645	 -1.076931	 0.123828	 0.657063	 -0.540618	 0.510556	 1
1463624202.858	 14	 -1.265831	 -5.256050	 -0.185543	 1.393492	 -0.627184	 -1.063223	 0.105509	 0.646114	 -0.540455	 0.528501	 1
1463624202.868	 14	 -1.562412	 -4.225460	 -0.311920	 1.358954	 -0.632837	 -1.045733	 0.088501	 0.638275	 -0.538580	 0.542867	 1
1463624202.878	 14	 -1.804245	 -3.619063	 -0.390498	 1.333588	 -0.640352	 -1.025665	 0.072524	 0.632868	 -0.535574	 0.554417	 1
1463624202.888	 14	 -2.051813	 -3.548715	 -0.469752	 1.311909	 -0.649611	 -1.002901	 0.056095	 0.628428	 -0.531695	 0.565006	 1
1463624202.898	 14	 -2.296515	 -3.813086	 -0.504186	 1.290076	 -0.660385	 -0.977420	 0.038269	 0.623807	 -0.527005	 0.575904	 1
1463624202.908	 14	 -2.512926	 -4.232446	 -0.485954	 1.266275	 -0.672203	 -0.949242	 0.018773	 0.618339	 -0.521380	 0.587764	 1
1463624202.918	 14	 -2.664860	 -4.626930	 -0.384923	 1.240022	 -0.684399	 -0.918820	 -0.002079	 0.611701	 -0.514721	 0.600733	 1
1463624202.928	 14	 -2.704820	 -4.884972	 -0.197271	 1.212046	 -0.695857	 -0.886905	 -0.023379	 0.603917	 -0.506945	 0.614609	 1
1463624202.938	 14	 -2.630629	 -4.905269	 -0.032912	 1.183504	 -0.706196	 -0.854904	 -0.044206	 0.595289	 -0.498378	 0.628726	 1
1463624202.948	 14	 -2.456962	 -4.675697	 0.160615	 1.156272	 -0.715013	 -0.823908	 -0.063580	 0.586431	 -0.489358	 0.642328	 1
1463624202.958	 14	 -2.104998	 -4.305371	 0.475396	 1.131189	 -0.720599	 -0.795098	 -0.080275	 0.577635	 -0.480085	 0.655296	 1
1463624202.968	 14	 -1.570719	 -3.821120	 0.880240	 1.108239	 -0.721096	 -0.770052	 -0.093111	 0.568990	 -0.470892	 0.667714	 1
1463624202.978	 14	 -0.908200	 -3.285249	 1.268461	 1.087121	 -0.715527	 -0.750186	 -0.101393	 0.560560	 -0.462220	 0.679592	 1
1463624202.988	 14	 -0.280122	 -2.752968	 1.587674	 1.067706	 -0.704257	 -0.735721	 -0.105276	 0.552450	 -0.454345	 0.690859	 1
1463624202.998	 14	 0.182535	 -2.198079	 1.877631	 1.051103	 -0.688106	 -0.725107	 -0.105314	 0.545072	 -0.447043	 0.701397	 1
1463624203.008	 14	 0.435620	 -1.688657	 2.119964	 1.038716	 -0.668330	 -0.716065	 -0.102370	 0.538916	 -0.439857	 0.711066	 1
1463624203.018	 14	 0.527625	 -1.339817	 2.300391	 1.030032	 -0.646316	 -0.707079	 -0.097574	 0.533852	 -0.432455	 0.720044	 1
1463624203.028	 14	 0.468485	 -1.157313	 2.509363	 1.024443	 -0.622737	 -0.696459	 -0.091812	 0.529669	 -0.424277	 0.728705	 1
1463624203.038	 14	 0.360302	 -1.084079	 2.590918	 1.020513	 -0.598690	 -0.684153	 -0.085875	 0.525962	 -0.415380	 0.737190	 1
1463624203.048	 14	 0.202414	 -1.038177	 2.550090	 1.017564	 -0.575565	 -0.670505	 -0.080403	 0.522631	 -0.406077	 0.745314	 1
1463624203.058	 14	 0.008206	 -0.980636	 2.486239	 1.015657	 -0.554007	 -0.655515	 -0.075666	 0.519771	 -0.396478	 0.752940	 1
1463624203.068	 14	 -0.203983	 -0.952276	 2.497942	 1.014768	 -0.533658	 -0.638687	 -0.071660	 0.517351	 -0.386322	 0.760242	 1
1463624203.078	 14	 -0.419902	 -0.870201	 2.581583	 1.015393	 -0.513863	 -0.619519	 -0.068160	 0.515519	 -0.375298	 0.767297	 1
1463624203.088	 14	 -0.639629	 -0.730336	 2.712690	 1.018235	 -0.494162	 -0.597751	 -0.064932	 0.514534	 -0.363217	 0.774023	 1
1463624203.098	 14	 -0.854120	 -0.627577	 2.862589	 1.023106	 -0.474279	 -0.573372	 -0.061936	 0.514338	 -0.349984	 0.780469	 1
1463624203.108	 14	 -1.052086	 -0.637640	 3.008096	 1.028844	 -0.454067	 -0.546540	 -0.059303	 0.514501	 -0.335564	 0.786872	 1
1463624203.118	 14	 -1.192101	 -0.782087	 3.126271	 1.033779	 -0.433442	 -0.517877	 -0.057128	 0.514395	 -0.320117	 0.793511	 1
1463624203.128	 14	 -1.249797	 -1.078186	 3.192227	 1.035975	 -0.412449	 -0.488384	 -0.055453	 0.513276	 -0.303984	 0.800667	 1
1463624203.138	 14	 -1.203433	 -1.456733	 3.224537	 1.033694	 -0.390978	 -0.459096	 -0.054150	 0.510440	 -0.287516	 0.808612	 1
1463624203.148	 14	 -1.015623	 -1.614252	 3.139372	 1.028053	 -0.369338	 -0.431667	 -0.052672	 0.506356	 -0.271505	 0.816771	 1
1463624203.158	 14	 -0.664447	 -1.752051	 3.052968	 1.019308	 -0.347078	 -0.407664	 -0.050331	 0.501109	 -0.256541	 0.824950	 1
1463624203.168	 14	 -0.193091	 -1.821522	 3.050349	 1.007724	 -0.322894	 -0.387782	 -0.046314	 0.494727	 -0.242695	 0.833186	 1
1463624203.178	 14	 0.288905	 -1.746787	 3.137438	 0.994895	 -0.295780	 -0.371682	 -0.040055	 0.487775	 -0.229710	 0.841252	 1
1463624203.188	 14	 0.708618	 -1.586275	 3.294076	 0.982310	 -0.265284	 -0.358377	 -0.031429	 0.480802	 -0.217160	 0.848931	 1
1463624203.198	 14	 1.021940	 -1.394281	 3.495629	 0.970742	 -0.231413	 -0.346596	 -0.020677	 0.474083	 -0.204551	 0.856140	 1
1463624203.208	 14	 1.232853	 -1.161847	 3.659017	 0.960897	 -0.194878	 -0.335512	 -0.008256	 0.467932	 -0.191696	 0.862684	 1
1463624203.218	 14	 1.348269	 -0.999670	 3.775690	 0.952495	 -0.156600	 -0.324568	 0.005243	 0.462270	 -0.178541	 0.868563	 1
1463624203.228	 14	 1.385919	 -0.979201	 3.826709	 0.944265	 -0.117532	 -0.313419	 0.019190	 0.456602	 -0.165138	 0.874000	 1
1463624203.238	 14	 1.358527	 -1.106955	 3.799114	 0.934752	 -0.078700	 -0.301928	 0.032984	 0.450358	 -0.151681	 0.879251	 1
1463624203.248	 14	 1.287554	 -1.360633	 3.696124	 0.922549	 -0.041030	 -0.290065	 0.046136	 0.442979	 -0.138427	 0.884578	 1
1463624203.258	 14	 1.217155	 -1.671099	 3.536116	 0.906913	 -0.005153	 -0.278015	 0.058406	 0.434169	 -0.125674	 0.890108	 1
1463624203.268	 14	 1.195811	 -1.968061	 3.351293	 0.887795	 0.028874	 -0.266197	 0.069908	 0.423889	 -0.113687	 0.895827	 1
1463624203.278	 14	 1.206008	 -2.155427	 3.185333	 0.866117	 0.061340	 -0.254813	 0.080905	 0.412515	 -0.102514	 0.901541	 1
1463624203.288	 14	 1.231797	 -2.250969	 3.074446	 0.842973	 0.092744	 -0.243673	 0.091654	 0.400507	 -0.091955	 0.907049	 1
1463624203.298	 14	 1.281245	 -2.353633	 3.017640	 0.818517	 0.123663	 -0.232546	 0.102382	 0.387910	 -0.081804	 0.912333	 1
1463624203.308	 14	 1.331730	 -2.478498	 2.979803	 0.792476	 0.154369	 -0.221263	 0.113183	 0.374595	 -0.071971	 0.917436	 1
1463624203.318	 14	 1.347211	 -2.559640	 2.943743	 0.765081	 0.184680	 -0.209537	 0.123945	 0.360704	 -0.062374	 0.922301	 1
1463624203.328	 14	 1.337308	 -2.583351	 2.896715	 0.736822	 0.214331	 -0.197178	 0.134543	 0.346507	 -0.052965	 0.926836	 1
1463624203.338	 14	 1.336043	 -2.570000	 2.830773	 0.708164	 0.243174	 -0.184299	 0.144951	 0.332241	 -0.043798	 0.930960	 1
1463624203.348	 14	 1.351786	 -2.552598	 2.743405	 0.679267	 0.271211	 -0.171213	 0.155223	 0.317976	 -0.035005	 0.934651	 1
1463624203.358	 14	 1.393177	 -2.509901	 2.634735	 0.650407	 0.298507	 -0.158258	 0.165440	 0.303823	 -0.026709	 0.937874	 1
1463624203.368	 14	 1.460093	 -2.452674	 2.486543	 0.621980	 0.324959	 -0.145916	 0.175608	 0.289942	 -0.019114	 0.940601	 1
1463624203.378	 14	 1.550212	 -2.413940	 2.291083	 0.594095	 0.350607	 -0.134778	 0.185798	 0.276328	 -0.012469	 0.942850	 1
1463624203.388	 14	 1.654003	 -2.377723	 2.047520	 0.566975	 0.375164	 -0.125468	 0.195916	 0.263034	 -0.007077	 0.944659	 1
1463624203.398	 14	 1.746066	 -2.317200	 1.777640	 0.541050	 0.398618	 -0.118356	 0.205949	 0.250204	 -0.003046	 0.946030	 1
1463624203.408	 14	 1.821178	 -2.249017	 1.530362	 0.516440	 0.421888	 -0.113331	 0.216258	 0.237834	 -0.000161	 0.946925	 1
1463624203.418	 14	 1.880553	 -2.178188	 1.348258	 0.493074	 0.444745	 -0.109903	 0.226627	 0.225932	 0.001790	 0.947413	 1
1463624203.428	 14	 1.949933	 -2.083461	 1.238762	 0.470888	 0.467718	 -0.107411	 0.237196	 0.214501	 0.003202	 0.947479	 1
1463624203.438	 14	 2.007864	 -1.954430	 1.161658	 0.450114	 0.490833	 -0.105481	 0.247916	 0.203689	 0.004297	 0.947117	 1
1463624203.448	 14	 2.039269	 -1.793410	 1.085082	 0.431025	 0.513927	 -0.103966	 0.258677	 0.193648	 0.005184	 0.946340	 1
1463624203.458	 14	 2.039820	 -1.598382	 0.992039	 0.414017	 0.536712	 -0.102929	 0.269337	 0.184566	 0.005882	 0.945176	 1
1463624203.468	 14	 2.012730	 -1.378831	 0.896268	 0.399386	 0.558903	 -0.102395	 0.279751	 0.176588	 0.006431	 0.943671	 1
1463624203.478	 14	 1.989984	 -1.150721	 0.809065	 0.387290	 0.580500	 -0.102361	 0.289908	 0.169779	 0.006900	 0.941850	 1
1463624203.488	 14	 1.989674	 -0.924736	 0.731238	 0.377795	 0.601744	 -0.102912	 0.299921	 0.164132	 0.007326	 0.939710	 1
1463624203.498	 14	 2.004245	 -0.716832	 0.659508	 0.370830	 0.622837	 -0.104137	 0.309882	 0.159575	 0.007719	 0.937256	 1
1463624203.508	 14	 2.005827	 -0.541910	 0.581190	 0.366189	 0.643716	 -0.106138	 0.319766	 0.155981	 0.008035	 0.934535	 1
1463624203.518	 14	 1.979345	 -0.433915	 0.502493	 0.363326	 0.664145	 -0.108927	 0.329460	 0.153088	 0.008194	 0.931640	 1
1463624203.528	 14	 1.919373	 -0.417250	 0.429633	 0.361318	 0.683829	 -0.112359	 0.338819	 0.150490	 0.008111	 0.928703	 1
1463624203.538	 14	 1.819468	 -0.509894	 0.374221	 0.358919	 0.702481	 -0.116123	 0.347692	 0.147672	 0.007700	 0.925875	 1
1463624203.548	 14	 1.661639	 -0.694649	 0.353626	 0.354731	 0.719677	 -0.119576	 0.355847	 0.144132	 0.006968	 0.923337	 1
1463624203.558	 14	 1.492042	 -0.917383	 0.371148	 0.347769	 0.735326	 -0.122056	 0.363203	 0.139555	 0.006014	 0.921180	 1
1463624203.568	 14	 1.352502	 -1.109306	 0.396156	 0.338012	 0.749676	 -0.123387	 0.369869	 0.133975	 0.004909	 0.919360	 1
1463624203.578	 14	 1.245373	 -1.186719	 0.384645	 0.326676	 0.762965	 -0.124003	 0.375987	 0.127872	 0.003682	 0.917752	 1
1463624203.588	 14	 1.166358	 -1.159287	 0.317526	 0.315467	 0.775270	 -0.124741	 0.381646	 0.121875	 0.002272	 0.916236	 1
1463624203.598	 14	 1.083402	 -1.037264	 0.243715	 0.305666	 0.786605	 -0.126071	 0.386879	 0.116476	 0.000722	 0.914744	 1
1463624203.608	 14	 0.997387	 -0.893882	 0.180786	 0.297417	 0.796903	 -0.127626	 0.391636	 0.111807	 -0.000757	 0.913301	 1
1463624203.618	 14	 0.930355	 -0.723550	 0.028420	 0.291912	 0.806159	 -0.130620	 0.395986	 0.108170	 -0.002468	 0.911860	 1
1463624203.638	 15	 0.704333	 -0.363082	 -0.076032	 0.288740	 0.821004	 -0.139412	 0.403147	 0.104090	 -0.005924	 0.909177	 1
1463624203.648	 15	 0.604203	 -0.383545	 -0.005010	 0.287204	 0.826949	 -0.142336	 0.405970	 0.102441	 -0.007091	 0.908099	 1
1463624203.658	 15	 0.531271	 -0.496824	 0.038267	 0.283930	 0.832291	 -0.144215	 0.408455	 0.100246	 -0.008187	 0.907220	 1
1463624203.668	 15	 0.483754	 -0.634790	 0.060844	 0.278844	 0.837188	 -0.145452	 0.410694	 0.097388	 -0.009405	 0.906509	 1
1463624203.678	 15	 0.470362	 -0.767625	 0.071448	 0.272179	 0.841919	 -0.146373	 0.412829	 0.093890	 -0.010829	 0.905892	 1
1463624203.688	 15	 0.473021	 -0.888831	 0.078823	 0.264156	 0.846669	 -0.147136	 0.414949	 0.089812	 -0.012476	 0.905315	 1
1463624203.698	 15	 0.450360	 -0.955651	 0.095451	 0.255070	 0.851330	 -0.147599	 0.416999	 0.085326	 -0.014231	 0.904781	 1
1463624203.708	 15	 0.364263	 -0.945287	 0.169834	 0.245061	 0.855473	 -0.146933	 0.418755	 0.080694	 -0.015723	 0.904370	 1
1463624203.718	 15	 0.298486	 -0.907482	 0.222981	 0.234289	 0.859034	 -0.144870	 0.420183	 0.076051	 -0.016803	 0.904091	 1
1463624203.738	 16	 0.121330	 -0.655122	 0.190636	 0.215454	 0.863650	 -0.139970	 0.421912	 0.068313	 -0.018251	 0.903875	 1
1463624203.748	 16	 0.045806	 -0.560607	 0.139951	 0.208019	 0.864593	 -0.137857	 0.422196	 0.065348	 -0.018806	 0.903950	 1
1463624203.758	 16	 -0.005445	 -0.519380	 0.084295	 0.201683	 0.864836	 -0.136409	 0.422199	 0.062777	 -0.019475	 0.904117	 1
1463624203.768	 16	 -0.019598	 -0.563080	 0.065894	 0.195382	 0.864789	 -0.135332	 0.422081	 0.060158	 -0.020320	 0.904331	 1
1463624203.778	 16	 -0.012512	 -0.649213	 0.071425	 0.188269	 0.864767	 -0.134242	 0.421966	 0.057172	 -0.021330	 0.904556	 1
1463624203.788	 16	 0.010820	 -0.683290	 0.075168	 0.180621	 0.864943	 -0.133113	 0.421930	 0.053943	 -0.022423	 0.904744	 1
1463624203.798	 16	 0.057856	 -0.657972	 0.065402	 0.173229	 0.865504	 -0.132175	 0.422073	 0.050769	 -0.023528	 0.904833	 1
1463624203.808	 16	 0.142472	 -0.576462	 0.046240	 0.166867	 0.866756	 -0.131716	 0.422548	 0.047928	 -0.024598	 0.904738	 1
1463624203.818	 16	 0.251906	 -0.436530	 0.026340	 0.162185	 0.869011	 -0.131800	 0.423507	 0.045687	 -0.025511	 0.904380	 1
1463624203.828	 16	 0.368877	 -0.293338	 0.019194	 0.159329	 0.872402	 -0.132352	 0.425007	 0.044121	 -0.026196	 0.903735	 1
1463624203.838	 16	 0.454876	 -0.176459	 0.037650	 0.157749	 0.876762	 -0.132938	 0.426959	 0.043079	 -0.026581	 0.902853	 1
1463624203.848	 16	 0.474407	 -0.126370	 0.059262	 0.156637	 0.881537	 -0.133253	 0.429094	 0.042287	 -0.026724	 0.901873	 1
1463624203.858	 16	 0.392669	 -0.050458	 0.079869	 0.157286	 0.888856	 -0.134270	 0.432406	 0.042017	 -0.026679	 0.900304	 1
1463624203.868	 16	 0.269101	 -0.019110	 0.099355	 0.156499	 0.891974	 -0.133511	 0.433775	 0.041681	 -0.026354	 0.899671	 1
1463624203.878	 16	 0.157864	 -0.064585	 0.090308	 0.155175	 0.893940	 -0.132470	 0.434616	 0.041220	 -0.026076	 0.899294	 1
1463624203.888	 16	 0.066696	 -0.129475	 0.052131	 0.153463	 0.894901	 -0.131703	 0.435008	 0.040572	 -0.026056	 0.899134	 1
1463624203.898	 16	 0.036395	 -0.196582	 0.026192	 0.151321	 0.895324	 -0.131313	 0.435161	 0.039675	 -0.026326	 0.899093	 1
1463624203.908	 16	 0.042034	 -0.115906	 0.006644	 0.149752	 0.895739	 -0.131181	 0.435324	 0.038979	 -0.026589	 0.899037	 1
1463624203.918	 16	 0.073369	 0.014408	 -0.051033	 0.150143	 0.896310	 -0.131898	 0.435598	 0.038973	 -0.026799	 0.898898	 1
1463624203.928	 16	 0.090853	 0.151129	 -0.110661	 0.152666	 0.897040	 -0.133641	 0.435993	 0.039693	 -0.026997	 0.898669	 1
1463624203.938	 16	 0.066627	 0.262502	 -0.162702	 0.157058	 0.897555	 -0.136207	 0.436335	 0.041082	 -0.027166	 0.898435	 1
1463624203.948	 16	 0.003759	 0.317692	 -0.204272	 0.162588	 0.897456	 -0.139347	 0.436432	 0.042886	 -0.027375	 0.898298	 1
1463624203.958	 16	 -0.078532	 0.325098	 -0.242920	 0.168606	 0.896492	 -0.142882	 0.436161	 0.044866	 -0.027701	 0.898322	 1
