% Gyrometer data recorded with 'snsrlog'
% 
% 
% Label description:
% 	 0: Default Label
% 	 1: still_drop
% 	 2: walk_drop
% 	 3: other
% 	 4: dtw_same
% 	 5: dtw_diff
% 	 6: delete
% 
% Column description:
% 	 1: Seconds.milliseconds since 1970
% 	 2: Number of skipped measurements
% 	 3: Gyro X
% 	 4: Gyro Y
% 	 5: Gyro Z
% 	 6: Roll of the device
% 	 7: Pitch of the device
% 	 8: Yaw of the device
% 	 9: Quaternion X
% 	 10: Quaternion Y
% 	 11: Quaternion Z
% 	 12: Quaternion W
% 	 13: Label used for the current sample
% 
% 
1461766016.280	 1	 0.005569	 -2.909490	 -0.075167	 -0.010466	 0.064516	 -0.020526	 0.032197	 -0.005561	 -0.010426	 0.999412	 5
1461766016.290	 1	 0.458875	 -2.469420	 -0.661188	 -0.036381	 0.068108	 -0.025569	 0.033806	 -0.018613	 -0.013394	 0.999165	 5
1461766016.300	 1	 0.844862	 -1.526831	 -1.059701	 -0.053446	 0.076120	 -0.035100	 0.037563	 -0.027364	 -0.018547	 0.998747	 5
1461766016.310	 1	 1.028453	 -0.703372	 -0.954522	 -0.061472	 0.086656	 -0.044664	 0.042598	 -0.031661	 -0.023629	 0.998311	 5
1461766016.320	 1	 1.034352	 -0.494974	 -0.522066	 -0.066072	 0.097472	 -0.050378	 0.047844	 -0.034206	 -0.026751	 0.997910	 5
1461766016.330	 1	 0.899431	 -0.663247	 -0.167558	 -0.071906	 0.107009	 -0.052176	 0.052490	 -0.037275	 -0.027953	 0.997534	 5
1461766016.340	 1	 0.697175	 -1.136970	 -0.013538	 -0.081955	 0.114516	 -0.052011	 0.056096	 -0.042372	 -0.028282	 0.997125	 5
1461766016.350	 1	 0.524075	 -1.644783	 -0.001836	 -0.097323	 0.120095	 -0.051494	 0.058670	 -0.050082	 -0.028585	 0.996610	 5
1461766016.360	 1	 0.429927	 -1.883083	 -0.046930	 -0.115809	 0.124627	 -0.051373	 0.060665	 -0.059337	 -0.029193	 0.995965	 5
1461766016.370	 1	 0.303923	 -1.722743	 0.012145	 -0.133596	 0.127964	 -0.051064	 0.062075	 -0.068218	 -0.029686	 0.995295	 5
1461766016.380	 1	 0.192423	 -1.556030	 0.222491	 -0.149752	 0.129969	 -0.049184	 0.062901	 -0.076218	 -0.029325	 0.994673	 5
1461766016.390	 1	 -0.004208	 -1.470877	 0.591617	 -0.165297	 0.129690	 -0.044210	 0.062742	 -0.083788	 -0.027330	 0.994131	 5
1461766016.400	 1	 -0.239754	 -1.304434	 1.007667	 -0.179962	 0.126330	 -0.035532	 0.061264	 -0.090783	 -0.023329	 0.993711	 5
1461766016.410	 1	 -0.495382	 -0.730716	 1.257159	 -0.190380	 0.119889	 -0.024315	 0.058480	 -0.095594	 -0.017774	 0.993542	 5
1461766016.420	 1	 -0.836931	 -0.013274	 1.197535	 -0.193367	 0.110212	 -0.013612	 0.054164	 -0.096757	 -0.012081	 0.993760	 5
1461766016.430	 1	 -1.160962	 0.433205	 1.033989	 -0.190940	 0.097484	 -0.005106	 0.048258	 -0.095336	 -0.007183	 0.994249	 5
1461766016.440	 1	 -1.363177	 0.691032	 0.865495	 -0.185117	 0.082827	 0.001397	 0.041289	 -0.092318	 -0.003132	 0.994868	 5
1461766016.460	 2	 -1.506003	 0.373824	 0.480112	 -0.173449	 0.051442	 0.007815	 0.025960	 -0.086486	 0.001664	 0.995913	 5
1461766016.470	 2	 -1.379254	 -0.002046	 0.327370	 -0.172679	 0.036825	 0.009004	 0.018731	 -0.086134	 0.002897	 0.996103	 5
1461766016.480	 2	 -1.171580	 -0.393245	 0.147137	 -0.175489	 0.024430	 0.008791	 0.012553	 -0.087571	 0.003308	 0.996074	 5
1461766016.490	 2	 -0.966407	 -0.891604	 0.002164	 -0.183175	 0.014361	 0.007311	 0.007485	 -0.091431	 0.002983	 0.995779	 5
1461766016.500	 2	 -0.781159	 -1.135305	 -0.088043	 -0.194113	 0.006395	 0.005131	 0.003431	 -0.096895	 0.002243	 0.995286	 5
1461766016.510	 2	 -0.692007	 -1.115366	 -0.235709	 -0.205400	 -0.000155	 0.001819	 0.000016	 -0.102520	 0.000913	 0.994731	 5
1461766016.520	 2	 -0.680666	 -1.049688	 -0.414245	 -0.216009	 -0.006043	 -0.003224	 -0.003178	 -0.107789	 -0.001277	 0.994168	 5
1461766016.530	 2	 -0.677745	 -0.987992	 -0.558640	 -0.226188	 -0.011504	 -0.009824	 -0.006269	 -0.112822	 -0.004232	 0.993586	 5
1461766016.540	 2	 -0.659237	 -0.840806	 -0.641627	 -0.235083	 -0.016548	 -0.017433	 -0.009239	 -0.117191	 -0.007686	 0.993037	 5
1461766016.550	 2	 -0.636276	 -0.736534	 -0.627002	 -0.242769	 -0.021297	 -0.025138	 -0.012091	 -0.120937	 -0.011186	 0.992523	 5
1461766016.560	 2	 -0.596683	 -0.794451	 -0.530901	 -0.250604	 -0.025827	 -0.032041	 -0.014812	 -0.124743	 -0.014279	 0.991976	 5
1461766016.570	 2	 -0.574657	 -0.980804	 -0.406001	 -0.260047	 -0.030296	 -0.037757	 -0.017464	 -0.129336	 -0.016752	 0.991306	 5
1461766016.580	 2	 -0.621505	 -1.260795	 -0.314411	 -0.272086	 -0.035275	 -0.042528	 -0.020353	 -0.135201	 -0.018671	 0.990433	 5
1461766016.590	 2	 -0.671635	 -1.474492	 -0.322358	 -0.286573	 -0.040758	 -0.047415	 -0.023547	 -0.142249	 -0.020548	 0.989337	 5
1461766016.600	 2	 -0.663475	 -1.551125	 -0.326339	 -0.302180	 -0.046215	 -0.052503	 -0.026784	 -0.149824	 -0.022466	 0.988094	 5
1461766016.610	 2	 -0.575660	 -1.550823	 -0.249301	 -0.317929	 -0.051126	 -0.056959	 -0.029734	 -0.157461	 -0.024063	 0.986784	 5
1461766016.620	 2	 -0.412888	 -1.541842	 -0.118480	 -0.333504	 -0.054949	 -0.059853	 -0.032042	 -0.165033	 -0.024938	 0.985452	 5
1461766016.630	 2	 -0.268788	 -1.622347	 -0.014973	 -0.349499	 -0.057669	 -0.061216	 -0.033696	 -0.172839	 -0.025115	 0.984053	 5
1461766016.640	 2	 -0.156225	 -1.762882	 0.011515	 -0.366847	 -0.059434	 -0.061759	 -0.034829	 -0.181327	 -0.024927	 0.982490	 5
1461766016.650	 2	 -0.045751	 -1.843221	 -0.022168	 -0.385110	 -0.060073	 -0.062136	 -0.035405	 -0.190273	 -0.024731	 0.980781	 5
1461766016.660	 2	 0.039810	 -2.000078	 -0.057411	 -0.404633	 -0.059683	 -0.062502	 -0.035490	 -0.199838	 -0.024602	 0.978877	 5
1461766016.670	 2	 0.061583	 -2.339620	 -0.083141	 -0.427084	 -0.058820	 -0.062962	 -0.035391	 -0.210822	 -0.024519	 0.976576	 5
1461766016.680	 2	 0.013213	 -2.838543	 -0.115072	 -0.454189	 -0.058104	 -0.063804	 -0.035466	 -0.224035	 -0.024528	 0.973627	 5
1461766016.690	 2	 -0.041960	 -3.432021	 -0.135035	 -0.487026	 -0.057777	 -0.065123	 -0.035864	 -0.239972	 -0.024621	 0.969805	 5
1461766016.700	 2	 -0.030085	 -4.108279	 -0.103064	 -0.526442	 -0.057556	 -0.066319	 -0.036390	 -0.259020	 -0.024515	 0.964875	 5
1461766016.720	 3	 0.318440	 -5.538080	 0.141709	 -0.626452	 -0.055405	 -0.064120	 -0.036211	 -0.307008	 -0.021953	 0.950764	 5
1461766016.730	 3	 0.632231	 -6.177600	 0.374954	 -0.686317	 -0.052977	 -0.058276	 -0.034730	 -0.335476	 -0.018518	 0.941226	 5
1461766016.740	 3	 0.991178	 -6.743885	 0.605290	 -0.751950	 -0.049869	 -0.048193	 -0.032028	 -0.366400	 -0.013252	 0.929812	 5
1461766016.750	 3	 1.360952	 -7.004287	 0.779761	 -0.820855	 -0.046141	 -0.033943	 -0.027919	 -0.398479	 -0.006354	 0.916731	 5
1461766016.760	 3	 1.608708	 -7.040552	 0.865725	 -0.890448	 -0.042350	 -0.016595	 -0.022681	 -0.430390	 0.001631	 0.902357	 5
1461766016.770	 3	 1.669834	 -6.998009	 0.890101	 -0.959819	 -0.039410	 0.002048	 -0.017005	 -0.461627	 0.010005	 0.886855	 5
1461766016.780	 3	 1.574418	 -6.884811	 0.914366	 -1.028219	 -0.038252	 0.020468	 -0.011620	 -0.491815	 0.018313	 0.870430	 5
1461766016.790	 3	 1.399750	 -6.856254	 0.968375	 -1.096093	 -0.039526	 0.037720	 -0.007040	 -0.521144	 0.026388	 0.853031	 5
1461766016.800	 3	 1.267792	 -6.866793	 1.074936	 -1.164077	 -0.043435	 0.053895	 -0.003325	 -0.549888	 0.034436	 0.834522	 5
1461766016.810	 3	 1.223919	 -6.808001	 1.244256	 -1.231629	 -0.050117	 0.069703	 -0.000320	 -0.577804	 0.042899	 0.815047	 5
1461766016.820	 3	 1.208928	 -6.535278	 1.445156	 -1.296981	 -0.059746	 0.085498	 0.002017	 -0.604180	 0.052069	 0.795142	 5
1461766016.830	 4	 1.116255	 -5.979492	 1.634445	 -1.357310	 -0.072409	 0.100462	 0.003358	 -0.627959	 0.061752	 0.775786	 5
1461766016.850	 4	 0.773257	 -4.502253	 1.919750	 -1.456761	 -0.105373	 0.124277	 0.002056	 -0.665896	 0.081265	 0.741603	 5
1461766016.860	 4	 0.563989	 -3.690551	 2.004794	 -1.494771	 -0.124550	 0.132352	 -0.000686	 -0.679940	 0.090618	 0.727647	 5
1461766016.870	 4	 0.326650	 -2.910994	 2.046088	 -1.525091	 -0.144649	 0.137490	 -0.004802	 -0.690920	 0.099337	 0.716058	 5
1461766016.880	 4	 0.097275	 -2.241112	 2.073502	 -1.548736	 -0.165241	 0.139732	 -0.010203	 -0.699298	 0.107301	 0.706658	 5
1461766016.890	 4	 -0.111479	 -1.748702	 2.129992	 -1.567383	 -0.186376	 0.139381	 -0.016809	 -0.705720	 0.114635	 0.698954	 5
1461766016.900	 4	 -0.294404	 -1.457212	 2.211033	 -1.583086	 -0.208257	 0.136718	 -0.024541	 -0.710922	 0.121516	 0.692259	 5
1461766016.910	 4	 -0.421573	 -1.342391	 2.299535	 -1.597660	 -0.230947	 0.132225	 -0.033171	 -0.715523	 0.128153	 0.685932	 5
1461766016.920	 4	 -0.459943	 -1.393863	 2.372928	 -1.612702	 -0.254338	 0.126679	 -0.042288	 -0.720059	 0.134812	 0.679377	 5
1461766016.930	 4	 -0.382644	 -1.541760	 2.396457	 -1.629158	 -0.278043	 0.121198	 -0.051282	 -0.724855	 0.141774	 0.672202	 5
1461766016.940	 4	 -0.216028	 -1.716873	 2.369930	 -1.647132	 -0.301603	 0.116812	 -0.059589	 -0.729972	 0.149238	 0.664318	 5
1461766016.950	 4	 -0.034387	 -1.862349	 2.329693	 -1.666326	 -0.324841	 0.113883	 -0.067015	 -0.735328	 0.157250	 0.655800	 5
1461766016.960	 4	 0.099714	 -1.919288	 2.305614	 -1.686057	 -0.347874	 0.112041	 -0.073765	 -0.740687	 0.165699	 0.646904	 5
1461766016.970	 4	 0.161023	 -1.837398	 2.329289	 -1.705245	 -0.371082	 0.110549	 -0.080316	 -0.745661	 0.174430	 0.638055	 5
1461766016.980	 4	 0.131301	 -1.625242	 2.385876	 -1.722875	 -0.394743	 0.108442	 -0.087213	 -0.749877	 0.183187	 0.629699	 5
1461766016.990	 4	 0.016654	 -1.351915	 2.483205	 -1.738556	 -0.419059	 0.104721	 -0.094951	 -0.753158	 0.191704	 0.622082	 5
1461766017.000	 4	 -0.142680	 -1.083487	 2.620310	 -1.752585	 -0.444328	 0.098662	 -0.103889	 -0.755529	 0.199881	 0.615167	 5
1461766017.010	 4	 -0.292496	 -0.817354	 2.738128	 -1.765166	 -0.470480	 0.090210	 -0.114023	 -0.757021	 0.207691	 0.608920	 5
1461766017.020	 4	 -0.433966	 -0.561082	 2.819545	 -1.776370	 -0.497136	 0.079521	 -0.125174	 -0.757655	 0.215045	 0.603362	 5
1461766017.030	 4	 -0.573613	 -0.333852	 2.856980	 -1.786570	 -0.523881	 0.066618	 -0.137175	 -0.757547	 0.221813	 0.598418	 5
1461766017.040	 4	 -0.670949	 -0.117974	 2.812943	 -1.795744	 -0.550074	 0.052044	 -0.149631	 -0.756760	 0.227914	 0.594121	 5
1461766017.050	 4	 -0.729026	 0.111089	 2.696214	 -1.803537	 -0.575022	 0.036476	 -0.162127	 -0.755309	 0.233246	 0.590610	 5
1461766017.060	 4	 -0.797764	 0.383479	 2.538477	 -1.809432	 -0.598280	 0.020169	 -0.174511	 -0.753131	 0.237650	 0.588101	 5
1461766017.070	 4	 -0.921761	 0.690156	 2.391073	 -1.813355	 -0.619716	 0.002628	 -0.186959	 -0.750205	 0.240886	 0.586696	 5
1461766017.080	 4	 -1.094515	 1.023942	 2.295501	 -1.815451	 -0.639641	 -0.016883	 -0.199832	 -0.746482	 0.242836	 0.586398	 5
1461766017.090	 4	 -1.300067	 1.365721	 2.262104	 -1.815989	 -0.658599	 -0.038991	 -0.213488	 -0.741896	 0.243512	 0.587124	 5
1461766017.100	 4	 -1.505599	 1.678011	 2.268931	 -1.815436	 -0.677053	 -0.063936	 -0.228077	 -0.736459	 0.243035	 0.588679	 5
1461766017.110	 4	 -1.694251	 1.929790	 2.298494	 -1.814375	 -0.695286	 -0.091800	 -0.243611	 -0.730240	 0.241526	 0.590820	 5
1461766017.120	 4	 -1.832145	 2.098327	 2.309789	 -1.813355	 -0.713366	 -0.122029	 -0.259809	 -0.723401	 0.239226	 0.593263	 5
1461766017.140	 5	 -1.992582	 2.308867	 2.237476	 -1.811961	 -0.748164	 -0.187185	 -0.292911	 -0.708328	 0.232670	 0.598615	 5
1461766017.150	 5	 -2.041013	 2.272413	 2.177876	 -1.812609	 -0.764610	 -0.221472	 -0.309358	 -0.700501	 0.228658	 0.601091	 5
1461766017.160	 5	 -2.083462	 2.153985	 2.110001	 -1.815324	 -0.780260	 -0.256715	 -0.325485	 -0.692887	 0.224365	 0.603015	 5
1461766017.170	 5	 -2.096411	 1.965179	 2.029490	 -1.820616	 -0.795020	 -0.292611	 -0.341112	 -0.685716	 0.219978	 0.604191	 5
1461766017.180	 5	 -2.100997	 1.754943	 1.930589	 -1.828607	 -0.808680	 -0.328922	 -0.356107	 -0.679123	 0.215564	 0.604576	 5
1461766017.190	 5	 -2.073610	 1.546647	 1.818639	 -1.839091	 -0.821108	 -0.365247	 -0.370351	 -0.673170	 0.211209	 0.604213	 5
1461766017.200	 5	 -2.004214	 1.427511	 1.698627	 -1.850806	 -0.832268	 -0.400904	 -0.383768	 -0.667642	 0.206909	 0.603460	 5
1461766017.210	 5	 -1.906985	 1.323215	 1.582773	 -1.862896	 -0.842277	 -0.435372	 -0.396333	 -0.662404	 0.202709	 0.602537	 5
1461766017.220	 5	 -1.758707	 1.176273	 1.473538	 -1.875169	 -0.851333	 -0.467974	 -0.407915	 -0.657535	 0.198848	 0.601426	 5
1461766017.230	 5	 -1.574188	 1.023873	 1.359674	 -1.887200	 -0.859592	 -0.497977	 -0.418379	 -0.653078	 0.195509	 0.600187	 5
1461766017.240	 5	 -1.388568	 0.877860	 1.246926	 -1.898693	 -0.867155	 -0.525113	 -0.427715	 -0.649033	 0.192736	 0.598890	 5
1461766017.260	 6	 -1.055987	 0.584452	 0.962070	 -1.919787	 -0.879687	 -0.570764	 -0.443018	 -0.642428	 0.188564	 0.596210	 5
1461766017.270	 6	 -0.911155	 0.445511	 0.781534	 -1.929254	 -0.884174	 -0.589222	 -0.448934	 -0.640046	 0.186930	 0.594858	 5
1461766017.280	 6	 -0.756752	 0.301208	 0.598733	 -1.937820	 -0.887377	 -0.604596	 -0.453669	 -0.638340	 0.185548	 0.593530	 5
1461766017.290	 6	 -0.612818	 0.188939	 0.429110	 -1.945167	 -0.889395	 -0.616893	 -0.457294	 -0.637222	 0.184367	 0.592317	 5
1461766017.300	 6	 -0.467629	 0.100207	 0.278880	 -1.951175	 -0.890483	 -0.626138	 -0.459889	 -0.636611	 0.183435	 0.591252	 5
1461766017.310	 6	 -0.355424	 0.031784	 0.129125	 -1.955811	 -0.890593	 -0.632761	 -0.461593	 -0.636428	 0.182590	 0.590383	 5
1461766017.320	 6	 -0.287888	 -0.004595	 -0.019942	 -1.959326	 -0.889620	 -0.637268	 -0.462529	 -0.636665	 0.181690	 0.589672	 5
1461766017.330	 6	 -0.267009	 0.012427	 -0.157449	 -1.961775	 -0.887446	 -0.640491	 -0.462937	 -0.637181	 0.180451	 0.589175	 5
1461766017.340	 6	 -0.272409	 0.101958	 -0.280198	 -1.962896	 -0.884099	 -0.642928	 -0.463003	 -0.637778	 0.178674	 0.589019	 5
1461766017.350	 6	 -0.309516	 0.241702	 -0.385150	 -1.962554	 -0.879622	 -0.645121	 -0.462917	 -0.638279	 0.176185	 0.589293	 5
1461766017.360	 6	 -0.353872	 0.405069	 -0.462110	 -1.960692	 -0.874207	 -0.647429	 -0.462826	 -0.638535	 0.172939	 0.590049	 5
1461766017.380	 7	 -0.456233	 0.728031	 -0.555198	 -1.952975	 -0.861313	 -0.653262	 -0.462962	 -0.638076	 0.164345	 0.592887	 5
1461766017.390	 7	 -0.495137	 0.870503	 -0.578046	 -1.947399	 -0.854192	 -0.656913	 -0.463251	 -0.637320	 0.159165	 0.594885	 5
1461766017.400	 7	 -0.506414	 0.963115	 -0.571757	 -1.940949	 -0.846994	 -0.660866	 -0.463663	 -0.636240	 0.153659	 0.597163	 5
1461766017.410	 7	 -0.504978	 1.011232	 -0.536152	 -1.934048	 -0.840072	 -0.665012	 -0.464190	 -0.634900	 0.148096	 0.599581	 5
1461766017.420	 7	 -0.492940	 1.020177	 -0.471162	 -1.927070	 -0.833763	 -0.669356	 -0.464869	 -0.633328	 0.142692	 0.602022	 5
1461766017.440	 8	 -0.455639	 0.864965	 -0.299212	 -1.915168	 -0.823681	 -0.678721	 -0.466703	 -0.629995	 0.133138	 0.606274	 5
1461766017.450	 8	 -0.440031	 0.710240	 -0.215527	 -1.911306	 -0.819967	 -0.683709	 -0.467803	 -0.628557	 0.129268	 0.607755	 5
1461766017.460	 8	 -0.413924	 0.534077	 -0.150250	 -1.909171	 -0.817005	 -0.688731	 -0.468939	 -0.627449	 0.126081	 0.608693	 5
1461766017.470	 8	 -0.365387	 0.390575	 -0.118970	 -1.908270	 -0.814568	 -0.693352	 -0.469969	 -0.626680	 0.123510	 0.609218	 5
1461766017.480	 8	 -0.295590	 0.251078	 -0.113415	 -1.908139	 -0.812457	 -0.697103	 -0.470741	 -0.626270	 0.121510	 0.609446	 5
1461766017.490	 8	 -0.233189	 0.123334	 -0.103424	 -1.908701	 -0.810627	 -0.699995	 -0.471257	 -0.626203	 0.120045	 0.609407	 5
1461766017.500	 8	 -0.179153	 0.022292	 -0.081388	 -1.909834	 -0.809163	 -0.702206	 -0.471597	 -0.626381	 0.119066	 0.609152	 5
1461766017.510	 8	 -0.135659	 -0.065829	 -0.042087	 -1.911547	 -0.808181	 -0.703949	 -0.471851	 -0.626729	 0.118555	 0.608697	 5
1461766017.520	 8	 -0.099518	 -0.140009	 0.010196	 -1.913830	 -0.807785	 -0.705413	 -0.472098	 -0.627174	 0.118493	 0.608058	 5
1461766017.530	 8	 -0.071825	 -0.203456	 0.072244	 -1.916673	 -0.808048	 -0.706751	 -0.472400	 -0.627659	 0.118861	 0.607252	 5
1461766017.540	 8	 -0.051543	 -0.257285	 0.137644	 -1.920113	 -0.808999	 -0.708126	 -0.472809	 -0.628147	 0.119630	 0.606277	 5
1461766017.550	 8	 -0.031176	 -0.282488	 0.190520	 -1.923895	 -0.810550	 -0.709506	 -0.473311	 -0.628589	 0.120715	 0.605211	 5
1461766017.560	 8	 -0.009696	 -0.281249	 0.223384	 -1.927650	 -0.812520	 -0.710784	 -0.473859	 -0.628943	 0.121992	 0.604158	 5
1461766017.570	 8	 -0.002069	 -0.270441	 0.250062	 -1.931328	 -0.814790	 -0.712073	 -0.474467	 -0.629195	 0.123367	 0.603138	 5
1461766017.580	 8	 -0.000708	 -0.229840	 0.276006	 -1.934774	 -0.817310	 -0.713488	 -0.475170	 -0.629282	 0.124750	 0.602208	 5
1461766017.590	 8	 0.007132	 -0.162759	 0.289351	 -1.937613	 -0.819993	 -0.714914	 -0.475941	 -0.629142	 0.126051	 0.601475	 5
1461766017.600	 8	 0.002265	 -0.114460	 0.304677	 -1.910956	 -0.827522	 -0.695120	 -0.472862	 -0.623930	 0.128671	 0.608734	 5
1461766017.610	 8	 -0.019749	 -0.074673	 0.326496	 -1.893254	 -0.833531	 -0.682214	 -0.471166	 -0.620099	 0.130781	 0.613495	 5
1461766017.620	 8	 -0.057869	 -0.037113	 0.357018	 -1.895427	 -0.836694	 -0.684529	 -0.472361	 -0.619446	 0.131815	 0.613014	 5
1461766017.630	 8	 -0.115232	 -0.011158	 0.392929	 -1.898010	 -0.840009	 -0.687779	 -0.473844	 -0.618655	 0.132720	 0.612473	 5
1461766017.640	 8	 -0.183356	 -0.002204	 0.426645	 -1.901332	 -0.843435	 -0.692181	 -0.475647	 -0.617784	 0.133496	 0.611786	 5
1461766017.650	 8	 -0.251585	 0.003396	 0.437948	 -1.905423	 -0.846807	 -0.697673	 -0.477715	 -0.616892	 0.134106	 0.610940	 5
1461766017.660	 8	 -0.325192	 0.019478	 0.425950	 -1.910184	 -0.849818	 -0.704214	 -0.479984	 -0.616032	 0.134424	 0.609959	 5
1461766017.670	 8	 -0.329297	 0.050368	 0.430536	 -1.914974	 -0.852756	 -0.711146	 -0.482347	 -0.615092	 0.134610	 0.609002	 5
1461766017.680	 8	 -0.298220	 0.097963	 0.406196	 -1.919046	 -0.855610	 -0.717678	 -0.484611	 -0.614038	 0.134722	 0.608243	 5
1461766017.690	 8	 -0.258691	 0.141161	 0.365755	 -1.922137	 -0.858217	 -0.723509	 -0.486671	 -0.612907	 0.134718	 0.607740	 5
1461766017.700	 8	 -0.217059	 0.165316	 0.340039	 -1.924409	 -0.860664	 -0.728621	 -0.488529	 -0.611734	 0.134675	 0.607440	 5
1461766017.710	 8	 -0.167938	 0.174718	 0.336501	 -1.925999	 -0.863196	 -0.733003	 -0.490220	 -0.610504	 0.134723	 0.607305	 5
1461766017.720	 8	 -0.130545	 0.170468	 0.352122	 -1.927212	 -0.865963	 -0.736874	 -0.491816	 -0.609221	 0.134927	 0.607257	 5
1461766017.730	 8	 -0.118822	 0.145098	 0.378428	 -1.928554	 -0.869023	 -0.740626	 -0.493415	 -0.607926	 0.135315	 0.607172	 5
1461766017.740	 8	 -0.120969	 0.122937	 0.401687	 -1.930259	 -0.872308	 -0.744524	 -0.495067	 -0.606641	 0.135837	 0.606995	 5
1461766017.750	 8	 -0.117832	 0.098555	 0.414222	 -1.932274	 -0.875740	 -0.748518	 -0.496746	 -0.605383	 0.136465	 0.606738	 5
1461766017.760	 8	 -0.097476	 0.069979	 0.417860	 -1.909344	 -0.873029	 -0.733056	 -0.493142	 -0.602913	 0.134447	 0.612560	 5
1461766017.770	 8	 -0.064606	 0.043133	 0.396009	 -1.911289	 -0.876577	 -0.736237	 -0.494615	 -0.601818	 0.135334	 0.612255	 5
1461766017.780	 8	 -0.021094	 0.018314	 0.364492	 -1.912904	 -0.879982	 -0.738658	 -0.495849	 -0.600841	 0.136318	 0.611998	 5
1461766017.790	 8	 0.030941	 -0.013938	 0.338160	 -1.914173	 -0.883286	 -0.740226	 -0.496827	 -0.599992	 0.137438	 0.611787	 5
1461766017.800	 8	 0.087493	 -0.043875	 0.319056	 -1.890400	 -0.877353	 -0.721837	 -0.491847	 -0.598749	 0.134911	 0.617564	 5
1461766017.810	 8	 0.127845	 -0.075991	 0.306682	 -1.890870	 -0.880666	 -0.721586	 -0.492360	 -0.598111	 0.136386	 0.617449	 5
1461766017.820	 8	 0.151102	 -0.113367	 0.295474	 -1.891357	 -0.883964	 -0.720873	 -0.492728	 -0.597595	 0.138003	 0.617296	 5
1461766017.830	 8	 0.157298	 -0.139069	 0.273866	 -1.891942	 -0.887121	 -0.719902	 -0.492985	 -0.597207	 0.139669	 0.617091	 5
1461766017.840	 8	 0.148743	 -0.153025	 0.241614	 -1.873875	 -0.878164	 -0.704354	 -0.487893	 -0.597707	 0.136591	 0.621329	 5
1461766017.850	 8	 0.131470	 -0.163881	 0.204362	 -1.874697	 -0.880621	 -0.703330	 -0.488003	 -0.597589	 0.138058	 0.621031	 5
1461766017.860	 8	 0.129182	 -0.157825	 0.158610	 -1.875440	 -0.882641	 -0.702207	 -0.488004	 -0.597582	 0.139367	 0.620745	 5
1461766017.870	 8	 0.139707	 -0.138088	 0.097954	 -1.875702	 -0.884137	 -0.700693	 -0.487821	 -0.597653	 0.140478	 0.620571	 5
1461766017.880	 8	 0.157664	 -0.122658	 0.032930	 -1.875378	 -0.885071	 -0.698636	 -0.487408	 -0.597817	 0.141397	 0.620528	 5
1461766017.900	 9	 0.218317	 -0.048285	 -0.100127	 -1.872143	 -0.885304	 -0.692267	 -0.485778	 -0.598303	 0.142677	 0.621044	 5
1461766017.910	 9	 0.232187	 0.010721	 -0.171104	 -1.868944	 -0.884515	 -0.688081	 -0.484601	 -0.598524	 0.142897	 0.621700	 5
1461766017.930	 10	 0.176788	 0.086977	 -0.238121	 -1.861287	 -0.881455	 -0.679845	 -0.482081	 -0.598902	 0.142433	 0.623399	 5
1461766017.940	 10	 0.117107	 0.101006	 -0.234274	 -1.857946	 -0.879571	 -0.676794	 -0.481032	 -0.599068	 0.141856	 0.624182	 5
1461766017.960	 11	 -0.019475	 0.091943	 -0.219314	 -1.853732	 -0.875447	 -0.673902	 -0.479638	 -0.599478	 0.140164	 0.625241	 5
1461766017.970	 11	 -0.063219	 0.074044	 -0.220293	 -1.842939	 -0.867314	 -0.666187	 -0.476425	 -0.599965	 0.136882	 0.627952	 5
1461766017.980	 11	 -0.080434	 0.050640	 -0.227821	 -1.842547	 -0.864940	 -0.666428	 -0.476038	 -0.600373	 0.135804	 0.628091	 5
1461766017.990	 11	 -0.075255	 0.035578	 -0.249322	 -1.842285	 -0.862390	 -0.666588	 -0.475581	 -0.600883	 0.134715	 0.628183	 5
1461766018.000	 11	 -0.063684	 0.022586	 -0.276187	 -1.841920	 -0.859621	 -0.666453	 -0.474996	 -0.601484	 0.133609	 0.628287	 5
1461766018.010	 11	 -0.059607	 0.005354	 -0.304093	 -1.841573	 -0.856598	 -0.666122	 -0.474298	 -0.602199	 0.132472	 0.628371	 5
1461766018.020	 11	 -0.060843	 -0.014984	 -0.322389	 -1.841368	 -0.853359	 -0.665723	 -0.473522	 -0.603025	 0.131308	 0.628407	 5
1461766018.030	 11	 -0.064180	 -0.037366	 -0.330029	 -1.841384	 -0.850022	 -0.665311	 -0.472707	 -0.603947	 0.130161	 0.628374	 5
1461766018.040	 11	 -0.058893	 -0.050123	 -0.326996	 -1.841524	 -0.846693	 -0.664872	 -0.471876	 -0.604910	 0.129055	 0.628301	 5
1461766018.050	 11	 -0.052418	 -0.044739	 -0.315279	 -1.841621	 -0.843472	 -0.664361	 -0.471046	 -0.605848	 0.128003	 0.628235	 5
1461766018.060	 11	 -0.043796	 -0.045666	 -0.292982	 -1.841673	 -0.840482	 -0.663789	 -0.470247	 -0.606727	 0.127047	 0.628179	 5
1461766018.070	 11	 -0.025548	 -0.049743	 -0.261206	 -1.841670	 -0.837797	 -0.663145	 -0.469492	 -0.607531	 0.126219	 0.628134	 5
1461766018.080	 11	 0.001955	 -0.037241	 -0.223610	 -1.841421	 -0.835520	 -0.662329	 -0.468784	 -0.608197	 0.125542	 0.628153	 5
1461766018.090	 11	 0.035283	 -0.014748	 -0.188520	 -1.840776	 -0.833694	 -0.661188	 -0.468095	 -0.608705	 0.125048	 0.628274	 5
1461766018.100	 11	 0.091962	 -0.016806	 -0.155994	 -1.839634	 -0.832325	 -0.659438	 -0.467347	 -0.609087	 0.124805	 0.628510	 5
1461766018.110	 11	 0.152947	 -0.005102	 -0.130838	 -1.837846	 -0.831366	 -0.656965	 -0.466503	 -0.609334	 0.124798	 0.628898	 5
1461766018.120	 11	 0.207502	 0.011846	 -0.118366	 -1.835386	 -0.830707	 -0.653731	 -0.465532	 -0.609472	 0.124989	 0.629445	 5
1461766018.130	 11	 0.259912	 0.029834	 -0.110129	 -1.832209	 -0.830276	 -0.649766	 -0.464431	 -0.609497	 0.125334	 0.630166	 5
1461766018.140	 11	 0.307908	 0.020155	 -0.105308	 -1.828538	 -0.829999	 -0.645116	 -0.463185	 -0.609485	 0.125842	 0.630992	 5
1461766018.150	 11	 0.346408	 0.034955	 -0.102309	 -1.824374	 -0.829849	 -0.639918	 -0.461831	 -0.609408	 0.126463	 0.631934	 5
1461766018.160	 11	 0.374242	 0.050850	 -0.099206	 -1.819766	 -0.829805	 -0.634260	 -0.460391	 -0.609266	 0.127173	 0.632979	 5
1461766018.170	 11	 0.395569	 0.046539	 -0.098366	 -1.814864	 -0.829809	 -0.628269	 -0.458879	 -0.609089	 0.127946	 0.634090	 5
1461766018.180	 11	 0.396643	 0.049711	 -0.100477	 -1.809909	 -0.829791	 -0.622220	 -0.457351	 -0.608907	 0.128724	 0.635211	 5
1461766018.190	 11	 0.391318	 0.052910	 -0.101467	 -1.804959	 -0.829731	 -0.616213	 -0.455829	 -0.608719	 0.129480	 0.636331	 5
1461766018.200	 11	 0.377494	 0.053017	 -0.106676	 -1.787325	 -0.832621	 -0.600919	 -0.452984	 -0.605882	 0.131452	 0.640651	 5
1461766018.210	 11	 0.369008	 0.059447	 -0.115064	 -1.772293	 -0.835148	 -0.587618	 -0.450537	 -0.603464	 0.133282	 0.644270	 5
1461766018.220	 11	 0.351952	 0.053194	 -0.113898	 -1.759409	 -0.837647	 -0.575979	 -0.448477	 -0.601336	 0.135082	 0.647314	 5
1461766018.230	 11	 0.331658	 0.030014	 -0.100071	 -1.748073	 -0.839818	 -0.565472	 -0.446606	 -0.599507	 0.136763	 0.649947	 5
1461766018.250	 12	 0.306033	 -0.008959	 -0.071414	 -1.729548	 -0.843679	 -0.547436	 -0.443422	 -0.596589	 0.139956	 0.654119	 5
1461766018.270	 13	 0.297338	 -0.050362	 -0.074911	 -1.713977	 -0.845783	 -0.531211	 -0.440206	 -0.594585	 0.142613	 0.657532	 5
1461766018.280	 13	 0.297201	 -0.075928	 -0.084738	 -1.707301	 -0.846236	 -0.523662	 -0.438554	 -0.593943	 0.143797	 0.658957	 5
1461766018.290	 13	 0.291768	 -0.087694	 -0.099718	 -1.701507	 -0.846461	 -0.516676	 -0.436954	 -0.593511	 0.144915	 0.660164	 5
1461766018.300	 13	 0.276761	 -0.098319	 -0.107140	 -1.696711	 -0.846712	 -0.510428	 -0.435513	 -0.593233	 0.146025	 0.661121	 5
1461766018.310	 13	 0.254382	 -0.101360	 -0.098439	 -1.692421	 -0.847182	 -0.504664	 -0.434237	 -0.592961	 0.147170	 0.661949	 5
1461766018.320	 13	 0.226737	 -0.096875	 -0.080027	 -1.688984	 -0.847819	 -0.499739	 -0.433193	 -0.592748	 0.148287	 0.662574	 5
1461766018.330	 13	 0.198080	 -0.088069	 -0.053040	 -1.685718	 -0.848723	 -0.495213	 -0.432327	 -0.592443	 0.149410	 0.663161	 5
1461766018.340	 13	 0.173696	 -0.079268	 -0.025025	 -1.682630	 -0.849826	 -0.491077	 -0.431616	 -0.592066	 0.150515	 0.663710	 5
1461766018.350	 13	 0.170696	 -0.058860	 -0.001352	 -1.679289	 -0.851070	 -0.486956	 -0.430970	 -0.591568	 0.151614	 0.664323	 5
1461766018.360	 13	 0.178332	 -0.042767	 0.017923	 -1.675461	 -0.852313	 -0.482591	 -0.430292	 -0.590960	 0.152690	 0.665057	 5
1461766018.370	 13	 0.200810	 -0.040609	 0.028409	 -1.671210	 -0.853353	 -0.477829	 -0.429481	 -0.590338	 0.153736	 0.665892	 5
1461766018.380	 13	 0.227533	 -0.040615	 0.035638	 -1.666797	 -0.854294	 -0.472799	 -0.428583	 -0.589739	 0.154805	 0.666753	 5
1461766018.390	 13	 0.244616	 -0.042768	 0.036535	 -1.662405	 -0.855142	 -0.467600	 -0.427614	 -0.589200	 0.155904	 0.667595	 5
1461766018.400	 13	 0.260567	 -0.054525	 0.033089	 -1.658191	 -0.855860	 -0.462401	 -0.426602	 -0.588745	 0.156998	 0.668387	 5
1461766018.410	 13	 0.258420	 -0.060874	 0.035180	 -1.654535	 -0.856542	 -0.457506	 -0.425630	 -0.588416	 0.158100	 0.669036	 5
1461766018.420	 13	 0.240286	 -0.062921	 0.037450	 -1.651132	 -0.857156	 -0.452906	 -0.424710	 -0.588121	 0.159136	 0.669635	 5
1461766018.430	 13	 0.233902	 -0.070254	 0.049162	 -1.648128	 -0.857988	 -0.448613	 -0.423910	 -0.587844	 0.160234	 0.670123	 5
1461766018.440	 13	 0.219102	 -0.061523	 0.072821	 -1.645474	 -0.859064	 -0.444716	 -0.423266	 -0.587547	 0.161362	 0.670520	 5
1461766018.450	 13	 0.211694	 -0.071936	 0.099435	 -1.642914	 -0.860352	 -0.440893	 -0.422696	 -0.587218	 0.162561	 0.670878	 5
1461766018.460	 13	 0.209668	 -0.067521	 0.119744	 -1.640361	 -0.861765	 -0.437106	 -0.422173	 -0.586855	 0.163794	 0.671225	 5
1461766018.470	 13	 0.217171	 -0.072760	 0.132417	 -1.637697	 -0.863174	 -0.433175	 -0.421619	 -0.586485	 0.165052	 0.671588	 5
1461766018.480	 13	 0.235277	 -0.081323	 0.131109	 -1.634864	 -0.864350	 -0.428947	 -0.420932	 -0.586171	 0.166292	 0.671987	 5
1461766018.490	 13	 0.233165	 -0.069687	 0.120569	 -1.631990	 -0.865208	 -0.424751	 -0.420175	 -0.585903	 0.167402	 0.672419	 5
1461766018.500	 13	 0.232059	 -0.066601	 0.104610	 -1.629048	 -0.865776	 -0.420532	 -0.419341	 -0.585677	 0.168404	 0.672886	 5
1461766018.510	 13	 0.228825	 -0.060335	 0.086568	 -1.626239	 -0.866139	 -0.416479	 -0.418491	 -0.585503	 0.169308	 0.673340	 5
1461766018.520	 13	 0.210758	 -0.027465	 0.064639	 -1.623466	 -0.866267	 -0.412693	 -0.417653	 -0.585333	 0.170048	 0.673821	 5
1461766018.530	 13	 0.184160	 0.002278	 0.048085	 -1.620775	 -0.866274	 -0.409373	 -0.416913	 -0.585117	 0.170608	 0.674326	 5
1461766018.540	 13	 0.156473	 0.018279	 0.043139	 -1.618428	 -0.866387	 -0.406669	 -0.416354	 -0.584865	 0.171071	 0.674772	 5
1461766018.550	 13	 0.126680	 0.033285	 0.046731	 -1.616274	 -0.866617	 -0.404414	 -0.415942	 -0.584558	 0.171464	 0.675192	 5
1461766018.560	 13	 0.096870	 0.039822	 0.055574	 -1.614262	 -0.867004	 -0.402516	 -0.415668	 -0.584191	 0.171823	 0.675587	 5
1461766018.570	 13	 0.076632	 0.036783	 0.067442	 -1.612296	 -0.867525	 -0.400804	 -0.415481	 -0.583773	 0.172175	 0.675974	 5
1461766018.580	 13	 0.068138	 0.037934	 0.074984	 -1.610279	 -0.868138	 -0.399119	 -0.415334	 -0.583311	 0.172540	 0.676369	 5
1461766018.590	 13	 0.070208	 0.019877	 0.077991	 -1.608273	 -0.868734	 -0.397361	 -0.415160	 -0.582872	 0.172926	 0.676756	 5
1461766018.600	 13	 0.083977	 0.000655	 0.071292	 -1.606076	 -0.869187	 -0.395228	 -0.414855	 -0.582476	 0.173350	 0.677175	 5
1461766018.610	 13	 0.105184	 -0.020756	 0.059176	 -1.603838	 -0.869433	 -0.392774	 -0.414404	 -0.582175	 0.173803	 0.677594	 5
1461766018.620	 13	 0.131716	 -0.036932	 0.037469	 -1.601323	 -0.869398	 -0.389796	 -0.413746	 -0.581946	 0.174280	 0.678070	 5
1461766018.630	 13	 0.152948	 -0.044591	 0.014823	 -1.598671	 -0.869193	 -0.386483	 -0.412956	 -0.581774	 0.174784	 0.678569	 5
1461766018.650	 14	 0.164600	 -0.045861	 -0.011953	 -1.593407	 -0.868293	 -0.379613	 -0.411165	 -0.581590	 0.175720	 0.679572	 5
1461766018.660	 14	 0.158283	 -0.030934	 -0.010701	 -1.590915	 -0.867810	 -0.376405	 -0.410315	 -0.581502	 0.176131	 0.680055	 5
1461766018.670	 14	 0.149863	 -0.011724	 -0.006193	 -1.588506	 -0.867447	 -0.373460	 -0.409568	 -0.581362	 0.176514	 0.680526	 5
1461766018.680	 14	 0.137188	 0.005417	 0.004729	 -1.586166	 -0.867200	 -0.370772	 -0.408923	 -0.581166	 0.176865	 0.680990	 5
1461766018.690	 14	 0.120220	 0.017252	 0.015639	 -1.583938	 -0.867082	 -0.368376	 -0.408391	 -0.580920	 0.177185	 0.681435	 5
1461766018.700	 14	 0.110713	 0.023777	 0.030696	 -1.581822	 -0.867024	 -0.366211	 -0.407933	 -0.580653	 0.177471	 0.681863	 5
1461766018.710	 14	 0.106490	 0.024920	 0.039263	 -1.579748	 -0.867091	 -0.364131	 -0.407532	 -0.580356	 0.177781	 0.682274	 5
1461766018.720	 14	 0.117170	 0.025951	 0.038106	 -1.577547	 -0.867146	 -0.361915	 -0.407101	 -0.580045	 0.178107	 0.682711	 5
1461766018.730	 14	 0.122503	 0.030140	 0.030628	 -1.575305	 -0.867001	 -0.359647	 -0.406602	 -0.579771	 0.178376	 0.683171	 5
1461766018.740	 14	 0.116017	 0.025785	 0.013582	 -1.573269	 -0.866716	 -0.357539	 -0.406090	 -0.579561	 0.178585	 0.683599	 5
1461766018.750	 14	 0.111670	 0.025647	 -0.007708	 -1.571299	 -0.866189	 -0.355504	 -0.405524	 -0.579408	 0.178701	 0.684034	 5
1461766018.760	 14	 0.103091	 0.032973	 -0.027825	 -1.569517	 -0.865490	 -0.353696	 -0.404957	 -0.579306	 0.178719	 0.684452	 5
1461766018.770	 14	 0.084960	 0.047804	 -0.043524	 -1.567877	 -0.864704	 -0.352198	 -0.404442	 -0.579206	 0.178631	 0.684863	 5
1461766018.780	 14	 0.069024	 0.066954	 -0.049615	 -1.566119	 -0.863608	 -0.350863	 -0.403893	 -0.579095	 0.178359	 0.685352	 5
1461766018.790	 14	 0.056289	 0.083990	 -0.052548	 -1.564461	 -0.862838	 -0.349829	 -0.403517	 -0.578891	 0.178116	 0.685809	 5
1461766018.800	 14	 0.044610	 0.093622	 -0.049163	 -1.562900	 -0.862180	 -0.349020	 -0.403230	 -0.578650	 0.177854	 0.686249	 5
1461766018.810	 14	 0.031873	 0.104328	 -0.044693	 -1.561435	 -0.861597	 -0.348447	 -0.403024	 -0.578380	 0.177557	 0.686674	 5
1461766018.820	 14	 0.012723	 0.112926	 -0.040184	 -1.560075	 -0.861118	 -0.348148	 -0.402918	 -0.578069	 0.177223	 0.687084	 5
1461766018.830	 14	 -0.007589	 0.101319	 -0.035854	 -1.558920	 -0.860693	 -0.348089	 -0.402879	 -0.577770	 0.176866	 0.687451	 5
1461766018.840	 14	 -0.018301	 0.097058	 -0.041131	 -1.558103	 -0.860243	 -0.348319	 -0.402885	 -0.577533	 0.176469	 0.687749	 5
1461766018.850	 14	 -0.030111	 0.083253	 -0.043291	 -1.557294	 -0.859688	 -0.348544	 -0.402859	 -0.577320	 0.176040	 0.688052	 5
1461766018.860	 14	 -0.037656	 0.069428	 -0.046552	 -1.556702	 -0.859187	 -0.348884	 -0.402862	 -0.577148	 0.175633	 0.688299	 5
1461766018.870	 14	 -0.035567	 0.065117	 -0.054073	 -1.556123	 -0.858583	 -0.349180	 -0.402821	 -0.577010	 0.175209	 0.688546	 5
1461766018.880	 14	 -0.029160	 0.069319	 -0.059421	 -1.555371	 -0.857924	 -0.349335	 -0.402738	 -0.576852	 0.174781	 0.688836	 5
1461766018.890	 14	 -0.022731	 0.074616	 -0.060493	 -1.554524	 -0.857327	 -0.349419	 -0.402661	 -0.576662	 0.174378	 0.689142	 5
1461766018.910	 15	 -0.008708	 0.081166	 -0.032841	 -1.552570	 -0.856571	 -0.349333	 -0.402584	 -0.576157	 0.173758	 0.689766	 5
1461766018.920	 15	 0.001018	 0.086629	 -0.009425	 -1.551439	 -0.856504	 -0.349134	 -0.402605	 -0.575820	 0.173576	 0.690081	 5
1461766018.930	 15	 0.010675	 0.077202	 0.013851	 -1.550172	 -0.856635	 -0.348727	 -0.402636	 -0.575439	 0.173506	 0.690398	 5
1461766018.940	 15	 0.027741	 0.060261	 0.030596	 -1.548877	 -0.856877	 -0.348086	 -0.402636	 -0.575073	 0.173548	 0.690693	 5
1461766018.950	 15	 0.041549	 0.036899	 0.040914	 -1.547710	 -0.857189	 -0.347277	 -0.402597	 -0.574770	 0.173699	 0.690930	 5
1461766018.960	 15	 0.049988	 0.015603	 0.040640	 -1.546719	 -0.857467	 -0.346363	 -0.402502	 -0.574556	 0.173909	 0.691110	 5
1461766018.970	 15	 0.053088	 -0.003575	 0.037231	 -1.545972	 -0.857621	 -0.345458	 -0.402353	 -0.574450	 0.174124	 0.691231	 5
1461766018.980	 15	 0.049784	 -0.023789	 0.034933	 -1.545421	 -0.857688	 -0.344563	 -0.402163	 -0.574426	 0.174345	 0.691305	 5
1461766018.990	 15	 0.044377	 -0.036559	 0.031655	 -1.545149	 -0.857679	 -0.343803	 -0.401966	 -0.574487	 0.174550	 0.691318	 5
1461766019.000	 15	 0.042225	 -0.036586	 0.027400	 -1.545134	 -0.857562	 -0.343223	 -0.401766	 -0.574621	 0.174708	 0.691282	 5
1461766019.010	 15	 0.039097	 -0.017463	 0.023332	 -1.545029	 -0.857427	 -0.342667	 -0.401576	 -0.574724	 0.174833	 0.691277	 5
1461766019.020	 15	 0.030649	 0.001705	 0.023574	 -1.544863	 -0.857264	 -0.342300	 -0.401436	 -0.574772	 0.174872	 0.691307	 5
1461766019.030	 15	 0.018962	 0.012376	 0.023763	 -1.544580	 -0.857075	 -0.342041	 -0.401331	 -0.574764	 0.174841	 0.691384	 5
1461766019.040	 15	 0.010490	 0.026227	 0.023955	 -1.544329	 -0.856909	 -0.341957	 -0.401280	 -0.574727	 0.174763	 0.691464	 5
1461766019.050	 15	 0.002024	 0.043253	 0.022044	 -1.544026	 -0.856744	 -0.342003	 -0.401270	 -0.574645	 0.174630	 0.691570	 5
1461766019.060	 15	 -0.002269	 0.040057	 0.019909	 -1.543749	 -0.856531	 -0.342124	 -0.401266	 -0.574568	 0.174461	 0.691680	 5
1461766019.070	 15	 -0.006515	 0.047491	 0.016805	 -1.543432	 -0.856280	 -0.342263	 -0.401259	 -0.574480	 0.174265	 0.691806	 5
1461766019.080	 15	 0.001953	 0.035740	 0.013412	 -1.543206	 -0.855990	 -0.342388	 -0.401229	 -0.574434	 0.174078	 0.691909	 5
1461766019.090	 15	 0.008242	 0.019695	 0.003603	 -1.542961	 -0.855574	 -0.342324	 -0.401108	 -0.574445	 0.173911	 0.692012	 5
1461766019.100	 15	 0.012375	 0.003617	 -0.011518	 -1.542887	 -0.855016	 -0.342269	 -0.400933	 -0.574541	 0.173726	 0.692080	 5
1461766019.110	 15	 0.015031	 -0.005522	 -0.029505	 -1.542894	 -0.854319	 -0.342157	 -0.400694	 -0.574703	 0.173531	 0.692133	 5
1461766019.120	 15	 0.005392	 -0.000285	 -0.044302	 -1.542974	 -0.853469	 -0.342162	 -0.400435	 -0.574898	 0.173258	 0.692189	 5
1461766019.130	 15	 -0.006363	 0.000774	 -0.049527	 -1.543153	 -0.852588	 -0.342320	 -0.400204	 -0.575103	 0.172941	 0.692232	 5
1461766019.140	 15	 -0.025495	 0.017841	 -0.050273	 -1.543399	 -0.851814	 -0.342722	 -0.400068	 -0.575260	 0.172590	 0.692267	 5
1461766019.160	 16	 -0.051953	 0.059443	 -0.044335	 -1.543530	 -0.850522	 -0.343985	 -0.400037	 -0.575308	 0.171742	 0.692456	 5
1461766019.170	 16	 -0.055096	 0.067994	 -0.039968	 -1.543436	 -0.849984	 -0.344773	 -0.400111	 -0.575224	 0.171268	 0.692600	 5
1461766019.190	 17	 -0.046525	 0.064864	 -0.028353	 -1.543054	 -0.849158	 -0.346217	 -0.400314	 -0.574966	 0.170412	 0.692908	 5
1461766019.200	 17	 -0.049754	 0.054277	 -0.023096	 -1.542861	 -0.848862	 -0.346852	 -0.400425	 -0.574831	 0.170053	 0.693045	 5
1461766019.210	 17	 -0.053026	 0.034123	 -0.016861	 -1.543075	 -0.848657	 -0.347643	 -0.400573	 -0.574787	 0.169753	 0.693069	 5
1461766019.220	 17	 -0.059484	 0.021388	 -0.015859	 -1.543308	 -0.848449	 -0.348388	 -0.400706	 -0.574760	 0.169471	 0.693084	 5
1461766019.230	 17	 -0.065984	 0.005409	 -0.022348	 -1.543600	 -0.848138	 -0.349104	 -0.400795	 -0.574779	 0.169176	 0.693089	 5
1461766019.240	 17	 -0.061741	 0.005347	 -0.029848	 -1.543893	 -0.847792	 -0.349783	 -0.400863	 -0.574813	 0.168882	 0.693093	 5
1461766019.250	 17	 -0.054235	 0.018039	 -0.037256	 -1.543932	 -0.847421	 -0.350296	 -0.400896	 -0.574798	 0.168587	 0.693158	 5
1461766019.260	 17	 -0.045642	 0.032872	 -0.042524	 -1.543586	 -0.846932	 -0.350574	 -0.400861	 -0.574718	 0.168255	 0.693325	 5
1461766019.270	 17	 -0.028439	 0.056250	 -0.039259	 -1.543046	 -0.846525	 -0.350771	 -0.400842	 -0.574572	 0.167941	 0.693533	 5
1461766019.280	 17	 -0.017672	 0.064824	 -0.026482	 -1.542214	 -0.846282	 -0.350777	 -0.400841	 -0.574331	 0.167690	 0.693794	 5
1461766019.290	 17	 -0.007986	 0.067049	 -0.009491	 -1.541379	 -0.846256	 -0.350720	 -0.400887	 -0.574058	 0.167533	 0.694032	 5
1461766019.300	 17	 -0.001490	 0.066145	 0.014959	 -1.540685	 -0.846448	 -0.350718	 -0.401002	 -0.573779	 0.167460	 0.694213	 5
1461766019.310	 17	 0.004913	 0.053471	 0.029708	 -1.539907	 -0.846801	 -0.350532	 -0.401118	 -0.573476	 0.167488	 0.694389	 5
1461766019.320	 17	 0.013399	 0.036481	 0.036935	 -1.539405	 -0.847118	 -0.350379	 -0.401211	 -0.573270	 0.167547	 0.694492	 5
1461766019.330	 17	 0.018626	 0.018343	 0.031391	 -1.539058	 -0.847386	 -0.350165	 -0.401259	 -0.573139	 0.167643	 0.694549	 5
1461766019.340	 17	 0.013177	 0.007611	 0.016415	 -1.539040	 -0.847482	 -0.350112	 -0.401273	 -0.573125	 0.167690	 0.694541	 5
1461766019.350	 17	 0.007752	 -0.000969	 0.004655	 -1.539122	 -0.847359	 -0.350117	 -0.401231	 -0.573177	 0.167663	 0.694530	 5
1461766019.360	 17	 -0.001909	 -0.004205	 -0.004889	 -1.539482	 -0.847064	 -0.350351	 -0.401180	 -0.573313	 0.167554	 0.694472	 5
1461766019.370	 17	 -0.017910	 -0.003089	 -0.003679	 -1.540006	 -0.846799	 -0.350804	 -0.401188	 -0.573457	 0.167413	 0.694384	 5
1461766019.380	 17	 -0.031716	 0.007618	 0.000799	 -1.540448	 -0.846583	 -0.351353	 -0.401244	 -0.573543	 0.167238	 0.694322	 5
1461766019.400	 18	 -0.040172	 0.024661	 0.001018	 -1.540986	 -0.846093	 -0.352583	 -0.401406	 -0.573580	 0.166753	 0.694315	 5
1461766019.410	 18	 -0.036941	 0.034195	 -0.003190	 -1.540946	 -0.845841	 -0.353057	 -0.401470	 -0.573521	 0.166495	 0.694388	 5
1461766019.420	 18	 -0.032661	 0.035255	 -0.002157	 -1.540845	 -0.845603	 -0.353465	 -0.401525	 -0.573451	 0.166252	 0.694472	 5
1461766019.430	 18	 -0.026249	 0.034197	 0.000971	 -1.540650	 -0.845438	 -0.353764	 -0.401578	 -0.573356	 0.166053	 0.694568	 5
1461766019.440	 18	 -0.013411	 0.034214	 0.008315	 -1.540317	 -0.845317	 -0.353879	 -0.401603	 -0.573241	 0.165905	 0.694684	 5
1461766019.450	 18	 0.001513	 0.027812	 0.011319	 -1.539922	 -0.845252	 -0.353819	 -0.401599	 -0.573129	 0.165825	 0.694798	 5
1461766019.460	 18	 0.017536	 0.022518	 0.020718	 -1.539322	 -0.845253	 -0.353444	 -0.401542	 -0.572995	 0.165835	 0.694938	 5
1461766019.470	 18	 0.030357	 0.019343	 0.028034	 -1.538733	 -0.845367	 -0.352971	 -0.401489	 -0.572863	 0.165920	 0.695057	 5
1461766019.480	 18	 0.044193	 0.009744	 0.029951	 -1.538124	 -0.845492	 -0.352333	 -0.401394	 -0.572755	 0.166062	 0.695168	 5
1461766019.490	 18	 0.050529	 -0.004104	 0.029764	 -1.537656	 -0.845617	 -0.351661	 -0.401277	 -0.572702	 0.166243	 0.695235	 5
1461766019.500	 18	 0.052598	 -0.020045	 0.032790	 -1.537381	 -0.845709	 -0.350985	 -0.401134	 -0.572724	 0.166455	 0.695249	 5
1461766019.510	 18	 0.055767	 -0.025384	 0.031642	 -1.537277	 -0.845808	 -0.350351	 -0.400991	 -0.572795	 0.166687	 0.695217	 5
1461766019.520	 18	 0.059979	 -0.028660	 0.021975	 -1.537158	 -0.845719	 -0.349668	 -0.400779	 -0.572909	 0.166871	 0.695202	 5
1461766019.530	 18	 0.064186	 -0.031945	 0.011242	 -1.537051	 -0.845521	 -0.348939	 -0.400520	 -0.573057	 0.167036	 0.695190	 5
1461766019.540	 18	 0.062011	 -0.029901	 -0.000452	 -1.537062	 -0.845146	 -0.348308	 -0.400226	 -0.573261	 0.167131	 0.695168	 5
1461766019.550	 18	 0.051323	 -0.027786	 -0.005677	 -1.537219	 -0.844753	 -0.347849	 -0.399964	 -0.573484	 0.167189	 0.695120	 5
1461766019.560	 18	 0.033223	 -0.014998	 -0.008604	 -1.537575	 -0.844385	 -0.347721	 -0.399788	 -0.573706	 0.167180	 0.695041	 5
1461766019.570	 18	 0.007675	 -0.001093	 -0.007192	 -1.538061	 -0.844068	 -0.347965	 -0.399723	 -0.573889	 0.167086	 0.694950	 5
1461766019.580	 18	 -0.023240	 0.004335	 -0.003680	 -1.538790	 -0.843858	 -0.348636	 -0.399792	 -0.574050	 0.166927	 0.694816	 5
1461766019.590	 18	 -0.059477	 0.011913	 0.000966	 -1.539856	 -0.843750	 -0.349833	 -0.400014	 -0.574202	 0.166688	 0.694619	 5
1461766019.600	 18	 -0.086152	 0.010948	 0.004385	 -1.541035	 -0.843723	 -0.351328	 -0.400337	 -0.574317	 0.166396	 0.694408	 5
1461766019.610	 18	 -0.095734	 0.015236	 0.005571	 -1.542159	 -0.843703	 -0.352897	 -0.400689	 -0.574397	 0.166070	 0.694217	 5
1461766019.620	 18	 -0.089349	 0.013076	 0.003361	 -1.542917	 -0.843666	 -0.354175	 -0.400982	 -0.574412	 0.165765	 0.694109	 5
1461766019.630	 18	 -0.068056	 0.002372	 0.002007	 -1.543348	 -0.843558	 -0.355028	 -0.401159	 -0.574411	 0.165519	 0.694065	 5
1461766019.640	 18	 -0.035025	 -0.004150	 -0.004741	 -1.543345	 -0.843363	 -0.355293	 -0.401178	 -0.574396	 0.165360	 0.694105	 5
1461766019.650	 18	 0.005471	 -0.013867	 -0.009451	 -1.542860	 -0.843104	 -0.354880	 -0.401022	 -0.574362	 0.165319	 0.694233	 5
1461766019.660	 18	 0.040646	 -0.021435	 -0.013029	 -1.542097	 -0.842821	 -0.353951	 -0.400735	 -0.574339	 0.165392	 0.694400	 5
1461766019.670	 18	 0.067280	 -0.033201	 -0.012309	 -1.541164	 -0.842501	 -0.352621	 -0.400335	 -0.574345	 0.165559	 0.694586	 5
1461766019.680	 18	 0.087530	 -0.039639	 -0.012550	 -1.540226	 -0.842146	 -0.351082	 -0.399865	 -0.574397	 0.165786	 0.694760	 5
1461766019.690	 18	 0.098186	 -0.039700	 -0.016914	 -1.539420	 -0.841674	 -0.349540	 -0.399348	 -0.574518	 0.166001	 0.694906	 5
1461766019.700	 18	 0.099242	 -0.037614	 -0.022241	 -1.538677	 -0.841124	 -0.348045	 -0.398817	 -0.574666	 0.166186	 0.695044	 5
1461766019.730	 20	 0.043754	 -0.020565	 -0.038672	 -1.538231	 -0.839213	 -0.345580	 -0.397574	 -0.575378	 0.166308	 0.695138	 5
1461766019.740	 20	 0.015994	 -0.020503	 -0.040568	 -1.538659	 -0.838548	 -0.345605	 -0.397347	 -0.575651	 0.166159	 0.695077	 5
1461766019.750	 20	 -0.009604	 -0.015127	 -0.042433	 -1.539227	 -0.837897	 -0.345937	 -0.397201	 -0.575911	 0.165937	 0.694999	 5
1461766019.760	 20	 -0.026675	 -0.007687	 -0.049682	 -1.539805	 -0.837192	 -0.346453	 -0.397091	 -0.576147	 0.165634	 0.694938	 5
1461766019.770	 20	 -0.032009	 0.000768	 -0.059157	 -1.540252	 -0.836315	 -0.346993	 -0.396948	 -0.576367	 0.165238	 0.694932	 5
1461766019.780	 20	 -0.030949	 0.007078	 -0.068708	 -1.540518	 -0.835340	 -0.347464	 -0.396770	 -0.576557	 0.164797	 0.694980	 5
1461766019.790	 20	 -0.022428	 0.009128	 -0.076230	 -1.540462	 -0.834330	 -0.347666	 -0.396531	 -0.576695	 0.164374	 0.695102	 5
1461766019.800	 20	 -0.012779	 0.018668	 -0.077296	 -1.540249	 -0.833372	 -0.347738	 -0.396284	 -0.576794	 0.163982	 0.695254	 5
1461766019.810	 20	 -0.006364	 0.019723	 -0.076280	 -1.539913	 -0.832484	 -0.347713	 -0.396038	 -0.576856	 0.163623	 0.695427	 5
1461766019.820	 20	 -0.005317	 0.010189	 -0.071051	 -1.539520	 -0.831684	 -0.347572	 -0.395790	 -0.576903	 0.163324	 0.695599	 5
1461766019.830	 20	 0.001051	 -0.001496	 -0.066953	 -1.539234	 -0.830968	 -0.347388	 -0.395546	 -0.576980	 0.163089	 0.695729	 5
1461766019.840	 20	 0.007433	 -0.011046	 -0.061768	 -1.539003	 -0.830350	 -0.347121	 -0.395303	 -0.577073	 0.162927	 0.695829	 5
1461766019.850	 20	 0.014889	 -0.016368	 -0.059749	 -1.538794	 -0.829818	 -0.346785	 -0.395064	 -0.577170	 0.162822	 0.695908	 5
1461766019.860	 20	 0.024481	 -0.021696	 -0.057751	 -1.538442	 -0.829217	 -0.346235	 -0.394754	 -0.577274	 0.162741	 0.696017	 5
1461766019.870	 20	 0.034091	 -0.023825	 -0.054657	 -1.538027	 -0.828660	 -0.345554	 -0.394424	 -0.577372	 0.162707	 0.696131	 5
1461766019.880	 20	 0.034114	 -0.026950	 -0.046159	 -1.537639	 -0.828180	 -0.344850	 -0.394108	 -0.577469	 0.162713	 0.696228	 5
1461766019.890	 20	 0.028835	 -0.022616	 -0.037545	 -1.537358	 -0.827857	 -0.344272	 -0.393867	 -0.577548	 0.162750	 0.696290	 5
1461766019.900	 20	 0.024583	 -0.021521	 -0.035365	 -1.537068	 -0.827530	 -0.343738	 -0.393639	 -0.577615	 0.162768	 0.696359	 5
1461766019.920	 20	 0.046998	 -0.011042	 -0.049321	 -1.535841	 -0.826476	 -0.342135	 -0.392958	 -0.577707	 0.162729	 0.696676	 5
1461766019.910	 20	 0.032042	 -0.019457	 -0.041807	 -1.536569	 -0.827044	 -0.343027	 -0.393327	 -0.577675	 0.162753	 0.696488	 5
1461766019.930	 20	 0.063018	 0.001585	 -0.062133	 -1.534910	 -0.825834	 -0.341075	 -0.392535	 -0.577715	 0.162698	 0.696916	 5
1461766019.940	 20	 0.081133	 0.001480	 -0.069752	 -1.533839	 -0.825134	 -0.339803	 -0.392043	 -0.577726	 0.162695	 0.697183	 5
1461766019.950	 20	 0.085144	 0.001210	 -0.066396	 -1.532842	 -0.824517	 -0.338523	 -0.391569	 -0.577748	 0.162738	 0.697422	 5
1461766019.960	 20	 0.079792	 -0.007239	 -0.060030	 -1.532197	 -0.824029	 -0.337480	 -0.391172	 -0.577822	 0.162811	 0.697567	 5
1461766019.970	 20	 0.068057	 -0.014575	 -0.049335	 -1.531910	 -0.823695	 -0.336708	 -0.390872	 -0.577937	 0.162911	 0.697616	 5
1461766019.980	 20	 0.055220	 -0.023027	 -0.046100	 -1.531888	 -0.823412	 -0.336146	 -0.390626	 -0.578093	 0.163007	 0.697602	 5
1461766019.990	 20	 0.038104	 -0.028321	 -0.049194	 -1.532105	 -0.823075	 -0.335826	 -0.390414	 -0.578296	 0.163047	 0.697543	 5
1461766020.000	 20	 0.027409	 -0.031491	 -0.050193	 -1.532484	 -0.822723	 -0.335687	 -0.390236	 -0.578523	 0.163051	 0.697454	 5
1461766020.010	 20	 0.019924	 -0.030439	 -0.054379	 -1.532835	 -0.822325	 -0.335584	 -0.390057	 -0.578742	 0.163021	 0.697379	 5
1461766020.020	 20	 0.021009	 -0.026190	 -0.054346	 -1.533144	 -0.821891	 -0.335486	 -0.389872	 -0.578952	 0.162969	 0.697320	 5
1461766020.030	 20	 0.025306	 -0.020878	 -0.053266	 -1.533274	 -0.821479	 -0.335269	 -0.389674	 -0.579118	 0.162931	 0.697302	 5
1461766020.040	 20	 0.026411	 -0.013428	 -0.052137	 -1.533235	 -0.821114	 -0.334968	 -0.389480	 -0.579233	 0.162906	 0.697321	 5
1461766020.050	 20	 0.024299	 -0.012328	 -0.047841	 -1.533145	 -0.820789	 -0.334660	 -0.389300	 -0.579324	 0.162886	 0.697350	 5
1461766020.060	 20	 0.021114	 -0.011232	 -0.044602	 -1.533098	 -0.820542	 -0.334407	 -0.389156	 -0.579404	 0.162881	 0.697365	 5
1461766020.080	 21	 0.036046	 -0.015508	 -0.041569	 -1.532745	 -0.819960	 -0.333619	 -0.388780	 -0.579545	 0.162891	 0.697455	 5
1461766020.090	 21	 0.053076	 -0.019859	 -0.048150	 -1.532306	 -0.819574	 -0.332845	 -0.388474	 -0.579617	 0.162946	 0.697554	 5
1461766020.100	 21	 0.069046	 -0.025248	 -0.051533	 -1.531746	 -0.819220	 -0.331830	 -0.388119	 -0.579686	 0.163071	 0.697665	 5
1461766020.110	 21	 0.078629	 -0.029531	 -0.051654	 -1.531254	 -0.818772	 -0.330763	 -0.387714	 -0.579807	 0.163197	 0.697760	 5
1461766020.120	 21	 0.083737	 -0.033999	 -0.051732	 -1.530854	 -0.818351	 -0.329688	 -0.387306	 -0.579956	 0.163353	 0.697826	 5
1461766020.130	 21	 0.083752	 -0.032915	 -0.048522	 -1.530615	 -0.817965	 -0.328722	 -0.386929	 -0.580132	 0.163514	 0.697851	 5
1461766020.140	 21	 0.076305	 -0.031794	 -0.043115	 -1.530500	 -0.817666	 -0.327875	 -0.386602	 -0.580313	 0.163686	 0.697842	 5
1461766020.150	 21	 0.061387	 -0.030651	 -0.037643	 -1.530616	 -0.817423	 -0.327299	 -0.386351	 -0.580511	 0.163828	 0.697782	 5
1461766020.160	 21	 0.041104	 -0.033762	 -0.034296	 -1.530940	 -0.817161	 -0.326988	 -0.386155	 -0.580734	 0.163910	 0.697687	 5
1461766020.170	 21	 0.014441	 -0.031543	 -0.031910	 -1.531444	 -0.816947	 -0.326996	 -0.386050	 -0.580949	 0.163933	 0.697560	 5
1461766020.180	 21	 -0.009025	 -0.026179	 -0.034851	 -1.532005	 -0.816701	 -0.327240	 -0.386001	 -0.581144	 0.163873	 0.697439	 5
1461766020.190	 21	 -0.019656	 -0.016583	 -0.035734	 -1.532467	 -0.816422	 -0.327577	 -0.385976	 -0.581293	 0.163750	 0.697357	 5
1461766020.200	 21	 -0.015349	 -0.005981	 -0.038869	 -1.532645	 -0.816110	 -0.327774	 -0.385924	 -0.581376	 0.163611	 0.697349	 5
1461766020.210	 21	 -0.007868	 0.001397	 -0.045258	 -1.532579	 -0.815773	 -0.327800	 -0.385834	 -0.581412	 0.163475	 0.697401	 5
1461766020.230	 22	 0.003939	 0.012026	 -0.042059	 -1.531957	 -0.815191	 -0.327493	 -0.385619	 -0.581365	 0.163266	 0.697608	 5
1461766020.240	 22	 0.013570	 0.012046	 -0.035745	 -1.531501	 -0.814971	 -0.327191	 -0.385502	 -0.581305	 0.163210	 0.697736	 5
1461766020.250	 22	 0.022120	 0.008877	 -0.029451	 -1.530963	 -0.814838	 -0.326739	 -0.385374	 -0.581230	 0.163219	 0.697867	 5
1461766020.260	 22	 0.032784	 0.002504	 -0.024271	 -1.530403	 -0.814754	 -0.326158	 -0.385225	 -0.581162	 0.163285	 0.697990	 5
1461766020.270	 22	 0.042368	 -0.007051	 -0.018046	 -1.529926	 -0.814701	 -0.325513	 -0.385060	 -0.581130	 0.163401	 0.698081	 5
1461766020.280	 22	 0.055121	 -0.021949	 -0.014030	 -1.529491	 -0.814644	 -0.324716	 -0.384847	 -0.581142	 0.163576	 0.698147	 5
1461766020.290	 22	 0.060419	 -0.031523	 -0.012033	 -1.529194	 -0.814583	 -0.323879	 -0.384610	 -0.581211	 0.163790	 0.698170	 5
1461766020.299	 22	 0.056933	 -0.040227	 -0.013203	 -1.529036	 -0.814471	 -0.323089	 -0.384359	 -0.581329	 0.163998	 0.698161	 5
1461766020.310	 22	 0.051575	 -0.040250	 -0.018485	 -1.529022	 -0.814259	 -0.322419	 -0.384101	 -0.581493	 0.164158	 0.698130	 5
1461766020.320	 22	 0.045167	 -0.034968	 -0.025842	 -1.528983	 -0.813951	 -0.321810	 -0.383833	 -0.581654	 0.164259	 0.698119	 5
1461766020.329	 22	 0.034513	 -0.027522	 -0.029943	 -1.529006	 -0.813643	 -0.321354	 -0.383604	 -0.581808	 0.164319	 0.698103	 5
1461766020.340	 22	 0.021756	 -0.011576	 -0.036077	 -1.529088	 -0.813334	 -0.321130	 -0.383438	 -0.581937	 0.164309	 0.698088	 5
1461766020.350	 22	 0.005813	 0.001242	 -0.034752	 -1.529164	 -0.813100	 -0.321112	 -0.383355	 -0.582011	 0.164251	 0.698085	 5
1461766020.360	 22	 -0.012253	 0.013034	 -0.029153	 -1.529343	 -0.812973	 -0.321381	 -0.383380	 -0.582046	 0.164149	 0.698067	 5
1461766020.370	 22	 -0.026032	 0.019572	 -0.012982	 -1.529518	 -0.813043	 -0.321808	 -0.383511	 -0.582012	 0.164057	 0.698045	 5
1461766020.380	 22	 -0.035564	 0.019733	 0.005224	 -1.529621	 -0.813253	 -0.322259	 -0.383698	 -0.581922	 0.163990	 0.698033	 5
1461766020.389	 22	 -0.034492	 0.013411	 0.013684	 -1.529656	 -0.813523	 -0.322642	 -0.383889	 -0.581810	 0.163954	 0.698030	 5
1461766020.400	 22	 -0.021731	 0.006962	 0.009250	 -1.529541	 -0.813650	 -0.322788	 -0.383979	 -0.581718	 0.163924	 0.698064	 5
1461766020.410	 22	 -0.000435	 0.003647	 0.000507	 -1.529219	 -0.813657	 -0.322623	 -0.383960	 -0.581636	 0.163922	 0.698143	 5
1461766020.420	 22	 0.022967	 -0.002888	 -0.011482	 -1.528714	 -0.813457	 -0.322132	 -0.383798	 -0.581591	 0.163929	 0.698268	 5
1461766020.430	 22	 0.044063	 -0.010553	 -0.017079	 -1.528183	 -0.813202	 -0.321424	 -0.383557	 -0.581590	 0.163989	 0.698387	 5
1461766020.440	 22	 0.056836	 -0.014868	 -0.020429	 -1.527654	 -0.812926	 -0.320570	 -0.383268	 -0.581621	 0.164093	 0.698496	 5
1461766020.449	 22	 0.060032	 -0.015942	 -0.020467	 -1.527265	 -0.812690	 -0.319772	 -0.382996	 -0.581682	 0.164217	 0.698565	 5
1461766020.460	 22	 0.052546	 -0.019112	 -0.020431	 -1.527046	 -0.812475	 -0.319105	 -0.382754	 -0.581774	 0.164336	 0.698593	 5
1461766020.470	 22	 0.040800	 -0.021198	 -0.019282	 -1.527016	 -0.812280	 -0.318633	 -0.382559	 -0.581890	 0.164430	 0.698581	 5
1461766020.479	 22	 0.028026	 -0.015828	 -0.016989	 -1.527110	 -0.812121	 -0.318362	 -0.382424	 -0.582005	 0.164489	 0.698545	 5
1461766020.490	 22	 0.011008	 -0.006182	 -0.013553	 -1.527288	 -0.812030	 -0.318334	 -0.382373	 -0.582089	 0.164502	 0.698500	 5
1461766020.500	 22	 -0.004953	 -0.000778	 -0.008034	 -1.527484	 -0.811982	 -0.318474	 -0.382383	 -0.582140	 0.164474	 0.698459	 5
1461766020.509	 22	 -0.013451	 0.002484	 -0.001535	 -1.527718	 -0.811974	 -0.318740	 -0.382439	 -0.582172	 0.164424	 0.698413	 5
1461766020.520	 22	 -0.015559	 0.003592	 0.003823	 -1.527881	 -0.812037	 -0.318991	 -0.382518	 -0.582169	 0.164388	 0.698381	 5
1461766020.529	 22	 -0.014486	 0.004653	 0.003823	 -1.527958	 -0.812045	 -0.319182	 -0.382570	 -0.582158	 0.164339	 0.698373	 5
1461766020.539	 22	 -0.009165	 0.001446	 0.003745	 -1.527951	 -0.811993	 -0.319261	 -0.382578	 -0.582150	 0.164293	 0.698386	 5
1461766020.549	 22	 -0.003878	 -0.002877	 -0.003803	 -1.527829	 -0.811871	 -0.319194	 -0.382531	 -0.582143	 0.164252	 0.698427	 5
1461766020.559	 22	 0.004655	 0.001307	 -0.010235	 -1.527587	 -0.811630	 -0.319013	 -0.382424	 -0.582139	 0.164188	 0.698505	 5
1461766020.569	 22	 0.011056	 0.008665	 -0.019816	 -1.527288	 -0.811307	 -0.318784	 -0.382283	 -0.582139	 0.164102	 0.698602	 5
1461766020.579	 22	 0.013190	 0.012876	 -0.025126	 -1.526885	 -0.810980	 -0.318502	 -0.382134	 -0.582113	 0.164013	 0.698726	 5
1461766020.589	 22	 0.011088	 0.020321	 -0.026104	 -1.526434	 -0.810677	 -0.318250	 -0.382005	 -0.582060	 0.163913	 0.698864	 5
1461766020.599	 22	 0.012955	 0.018096	 -0.023976	 -1.526073	 -0.810464	 -0.318049	 -0.381911	 -0.582012	 0.163843	 0.698971	 5
1461766020.610	 22	 0.006586	 0.023449	 -0.021738	 -1.525702	 -0.810334	 -0.317922	 -0.381865	 -0.581931	 0.163773	 0.699081	 5
1461766020.620	 22	 0.011889	 0.013883	 -0.018674	 -1.525433	 -0.810263	 -0.317741	 -0.381812	 -0.581885	 0.163761	 0.699151	 5
1461766020.630	 22	 0.006569	 0.011818	 -0.012250	 -1.525207	 -0.810257	 -0.317626	 -0.381795	 -0.581829	 0.163756	 0.699208	 5
1461766020.640	 22	 0.005518	 0.010796	 -0.006920	 -1.525097	 -0.810316	 -0.317593	 -0.381813	 -0.581786	 0.163767	 0.699231	 5
1461766020.650	 22	 0.010875	 0.010819	 -0.001637	 -1.524863	 -0.810350	 -0.317442	 -0.381799	 -0.581727	 0.163786	 0.699284	 5
1461766020.659	 22	 0.015125	 0.003392	 0.002521	 -1.524587	 -0.810399	 -0.317193	 -0.381764	 -0.581669	 0.163837	 0.699339	 5
1461766020.670	 22	 0.017294	 0.009775	 0.003628	 -1.524326	 -0.810465	 -0.316927	 -0.381728	 -0.581616	 0.163902	 0.699388	 5
1461766020.680	 22	 0.009835	 0.012980	 0.002657	 -1.524135	 -0.810504	 -0.316788	 -0.381715	 -0.581568	 0.163927	 0.699428	 5
1461766020.689	 22	 -0.001891	 0.018310	 -0.000388	 -1.523964	 -0.810522	 -0.316776	 -0.381731	 -0.581507	 0.163905	 0.699475	 5
1461766020.700	 22	 -0.005102	 0.017248	 -0.001436	 -1.523860	 -0.810544	 -0.316850	 -0.381768	 -0.581453	 0.163867	 0.699510	 5
1461766020.710	 22	 -0.009371	 0.017261	 -0.001398	 -1.523708	 -0.810533	 -0.316938	 -0.381803	 -0.581385	 0.163803	 0.699562	 5
1461766020.720	 22	 -0.005124	 0.009827	 0.001693	 -1.523568	 -0.810559	 -0.316964	 -0.381830	 -0.581326	 0.163776	 0.699603	 5
1461766020.730	 22	 0.001308	 0.014078	 0.003808	 -1.523293	 -0.810572	 -0.316853	 -0.381824	 -0.581248	 0.163767	 0.699672	 5
1461766020.740	 22	 0.005582	 0.014074	 0.004836	 -1.522897	 -0.810618	 -0.316681	 -0.381820	 -0.581134	 0.163767	 0.699769	 5
1461766020.749	 22	 0.021263	 0.002276	 0.004711	 -1.522460	 -0.810652	 -0.316269	 -0.381747	 -0.581053	 0.163839	 0.699859	 5
1461766020.760	 22	 0.032990	 -0.003054	 0.007756	 -1.522002	 -0.810698	 -0.315701	 -0.381634	 -0.580993	 0.163966	 0.699942	 5
1461766020.770	 22	 0.043643	 -0.011555	 0.012913	 -1.521490	 -0.810785	 -0.314976	 -0.381492	 -0.580936	 0.164151	 0.700023	 5
1461766020.779	 22	 0.043653	 -0.010484	 0.013988	 -1.521110	 -0.810858	 -0.314288	 -0.381346	 -0.580921	 0.164344	 0.700070	 5
1461766020.790	 22	 0.043643	 -0.012611	 0.013967	 -1.520740	 -0.810876	 -0.313639	 -0.381193	 -0.580912	 0.164506	 0.700122	 5
1461766020.800	 22	 0.043591	 -0.024304	 0.014922	 -1.520575	 -0.810856	 -0.313030	 -0.381024	 -0.580973	 0.164681	 0.700122	 5
1461766020.810	 22	 0.040378	 -0.023262	 0.010694	 -1.520385	 -0.810752	 -0.312446	 -0.380838	 -0.581038	 0.164815	 0.700139	 5
1461766020.819	 22	 0.036109	 -0.017978	 0.004383	 -1.520261	 -0.810573	 -0.311956	 -0.380651	 -0.581121	 0.164903	 0.700151	 5
1461766020.829	 22	 0.031847	 -0.008462	 -0.005086	 -1.520125	 -0.810317	 -0.311552	 -0.380465	 -0.581197	 0.164933	 0.700181	 5
1461766020.840	 22	 0.024417	 0.007452	 -0.013402	 -1.520037	 -0.809978	 -0.311336	 -0.380306	 -0.581271	 0.164878	 0.700220	 5
1461766020.850	 22	 0.009500	 0.015974	 -0.017458	 -1.519996	 -0.809648	 -0.311326	 -0.380204	 -0.581320	 0.164763	 0.700261	 5
1461766020.859	 22	 -0.006460	 0.024545	 -0.015109	 -1.520007	 -0.809377	 -0.311521	 -0.380177	 -0.581337	 0.164606	 0.700299	 5
1461766020.870	 22	 -0.014941	 0.032054	 -0.009638	 -1.520030	 -0.809172	 -0.311861	 -0.380210	 -0.581318	 0.164423	 0.700339	 5
1461766020.880	 22	 -0.011741	 0.030988	 -0.008612	 -1.519937	 -0.808993	 -0.312110	 -0.380235	 -0.581272	 0.164258	 0.700403	 5
1461766020.889	 22	 -0.003247	 0.024557	 -0.011944	 -1.519757	 -0.808784	 -0.312213	 -0.380215	 -0.581228	 0.164118	 0.700483	 5
1461766020.899	 22	 0.007380	 0.017064	 -0.014239	 -1.519543	 -0.808567	 -0.312166	 -0.380153	 -0.581202	 0.164021	 0.700561	 5
1461766020.910	 22	 0.024394	 0.005304	 -0.015563	 -1.519348	 -0.808368	 -0.311968	 -0.380050	 -0.581208	 0.163987	 0.700620	 5
1461766020.919	 22	 0.019755	 -0.003205	 -0.015393	 -1.519204	 -0.808174	 -0.311691	 -0.379921	 -0.581246	 0.163991	 0.700657	 5
1461766020.929	 22	 0.017580	 -0.011708	 -0.015454	 -1.519220	 -0.808000	 -0.311514	 -0.379815	 -0.581318	 0.163998	 0.700653	 5
1461766020.939	 22	 0.011181	 -0.010626	 -0.015388	 -1.519350	 -0.807813	 -0.311437	 -0.379724	 -0.581413	 0.163987	 0.700626	 5
1461766020.949	 22	 0.000550	 -0.002086	 -0.015216	 -1.519485	 -0.807661	 -0.311487	 -0.379681	 -0.581479	 0.163944	 0.700605	 5
1461766020.959	 22	 -0.004724	 0.008589	 -0.011874	 -1.519649	 -0.807536	 -0.311686	 -0.379687	 -0.581522	 0.163864	 0.700585	 5
1461766020.969	 22	 -0.011086	 0.011845	 -0.005393	 -1.519683	 -0.807502	 -0.311852	 -0.379722	 -0.581508	 0.163800	 0.700592	 5
1461766020.979	 22	 -0.014232	 0.018283	 0.001089	 -1.519733	 -0.807570	 -0.312096	 -0.379810	 -0.581467	 0.163747	 0.700591	 5
1461766020.989	 22	 -0.016355	 0.017256	 0.005362	 -1.519762	 -0.807702	 -0.312357	 -0.379924	 -0.581403	 0.163706	 0.700592	 5
1461766020.999	 22	 -0.009988	 0.007680	 0.007350	 -1.519683	 -0.807820	 -0.312448	 -0.379993	 -0.581336	 0.163698	 0.700612	 5
1461766021.009	 22	 -0.000420	 -0.000850	 0.008253	 -1.519594	 -0.807906	 -0.312412	 -0.380016	 -0.581296	 0.163723	 0.700627	 5
1461766021.019	 22	 0.008055	 -0.011535	 0.004883	 -1.519470	 -0.807977	 -0.312215	 -0.379991	 -0.581277	 0.163792	 0.700640	 5
1461766021.029	 22	 0.021875	 -0.019052	 0.000429	 -1.519357	 -0.807973	 -0.311882	 -0.379902	 -0.581301	 0.163886	 0.700646	 5
1461766021.039	 22	 0.036813	 -0.016993	 -0.002879	 -1.519099	 -0.807902	 -0.311341	 -0.379744	 -0.581326	 0.164002	 0.700683	 5
1461766021.049	 22	 0.040035	 -0.011692	 -0.003924	 -1.518850	 -0.807794	 -0.310794	 -0.379573	 -0.581363	 0.164111	 0.700721	 5
1461766021.059	 22	 0.027240	 -0.006360	 -0.006960	 -1.518855	 -0.807742	 -0.310532	 -0.379480	 -0.581424	 0.164186	 0.700703	 5
1461766021.069	 22	 0.005925	 0.003245	 -0.010948	 -1.519024	 -0.807692	 -0.310577	 -0.379464	 -0.581484	 0.164186	 0.700662	 5
1461766021.079	 22	 -0.024101	 0.015058	 -0.009257	 -1.519447	 -0.807741	 -0.311083	 -0.379591	 -0.581527	 0.164105	 0.700576	 5
1461766021.089	 22	 -0.047512	 0.026850	 -0.005745	 -1.520000	 -0.807880	 -0.311951	 -0.379841	 -0.581530	 0.163953	 0.700473	 5
1461766021.099	 22	 -0.068800	 0.033340	 0.000898	 -1.520655	 -0.808120	 -0.313107	 -0.380197	 -0.581496	 0.163753	 0.700356	 5
1461766021.109	 22	 -0.076224	 0.038719	 0.006344	 -1.521206	 -0.808401	 -0.314294	 -0.380584	 -0.581410	 0.163536	 0.700267	 5
1461766021.119	 22	 -0.073000	 0.041915	 0.008479	 -1.521650	 -0.808696	 -0.315426	 -0.380967	 -0.581295	 0.163323	 0.700204	 5
1461766021.129	 22	 -0.065538	 0.041878	 0.006283	 -1.521863	 -0.808918	 -0.316343	 -0.381285	 -0.581154	 0.163117	 0.700196	 5
1461766021.139	 22	 -0.052715	 0.047143	 0.004091	 -1.521886	 -0.809135	 -0.317081	 -0.381564	 -0.580981	 0.162936	 0.700230	 5
1461766021.149	 22	 -0.042040	 0.052390	 -0.001280	 -1.521849	 -0.809299	 -0.317734	 -0.381807	 -0.580812	 0.162756	 0.700279	 5
1461766021.159	 22	 -0.037716	 0.071461	 -0.009665	 -1.521683	 -0.809437	 -0.318359	 -0.382044	 -0.580609	 0.162551	 0.700366	 5
1461766021.169	 22	 -0.049379	 0.094834	 -0.017868	 -1.521579	 -0.809581	 -0.319236	 -0.382352	 -0.580378	 0.162272	 0.700454	 5
1461766021.179	 22	 -0.082364	 0.118307	 -0.020556	 -1.521792	 -0.809800	 -0.320712	 -0.382830	 -0.580129	 0.161870	 0.700492	 5
1461766021.189	 22	 -0.128111	 0.151391	 -0.023041	 -1.522345	 -0.810197	 -0.322949	 -0.383555	 -0.579820	 0.161326	 0.700477	 5
1461766021.199	 22	 -0.173816	 0.190880	 -0.022269	 -1.523165	 -0.810655	 -0.325972	 -0.384506	 -0.579441	 0.160578	 0.700441	 5
1461766021.209	 22	 -0.228070	 0.237754	 -0.033076	 -1.524191	 -0.811163	 -0.329838	 -0.385699	 -0.578960	 0.159593	 0.700408	 5
1461766021.219	 22	 -0.275955	 0.283492	 -0.051409	 -1.525043	 -0.811556	 -0.334270	 -0.387033	 -0.578328	 0.158337	 0.700479	 5
1461766021.229	 22	 -0.319586	 0.313372	 -0.055005	 -1.525918	 -0.811933	 -0.339264	 -0.388522	 -0.577594	 0.156885	 0.700587	 5
1461766021.249	 22	 -0.390973	 0.352802	 -0.073200	 -1.527073	 -0.810991	 -0.350135	 -0.391282	 -0.576060	 0.152982	 0.701177	 5
1461766021.259	 23	 -0.366850	 0.353725	 -0.085915	 -1.527497	 -0.810319	 -0.355653	 -0.392635	 -0.575257	 0.150904	 0.701531	 5
1461766021.269	 23	 -0.319899	 0.354633	 -0.088447	 -1.527503	 -0.809586	 -0.360527	 -0.393814	 -0.574442	 0.148946	 0.701956	 5
1461766021.279	 23	 -0.255736	 0.382104	 -0.087684	 -1.526650	 -0.808819	 -0.364517	 -0.394790	 -0.573505	 0.147118	 0.702559	 5
1461766021.289	 23	 -0.202216	 0.401222	 -0.069854	 -1.524897	 -0.808161	 -0.367677	 -0.395624	 -0.572392	 0.145438	 0.703347	 5
1461766021.299	 23	 -0.188237	 0.389773	 -0.029583	 -1.522968	 -0.807838	 -0.370472	 -0.396466	 -0.571222	 0.143964	 0.704127	 5
1461766021.309	 23	 -0.199728	 0.384984	 0.038681	 -1.521138	 -0.808135	 -0.373314	 -0.397497	 -0.569956	 0.142700	 0.704828	 5
1461766021.319	 23	 -0.226136	 0.370791	 0.124040	 -1.519607	 -0.809270	 -0.376387	 -0.398824	 -0.568583	 0.141695	 0.705391	 5
1461766021.329	 23	 -0.266420	 0.347143	 0.220089	 -1.518643	 -0.811351	 -0.379976	 -0.400539	 -0.567118	 0.140939	 0.705749	 5
1461766021.339	 23	 -0.303488	 0.331948	 0.309795	 -1.518236	 -0.814380	 -0.384042	 -0.402631	 -0.565561	 0.140445	 0.705906	 5
1461766021.349	 23	 -0.322465	 0.316607	 0.386552	 -1.518210	 -0.818227	 -0.388414	 -0.405024	 -0.563908	 0.140195	 0.705910	 5
1461766021.359	 23	 -0.340241	 0.338413	 0.452987	 -1.518267	 -0.822760	 -0.393006	 -0.407671	 -0.562092	 0.140116	 0.705850	 5
1461766021.369	 23	 -0.361294	 0.355874	 0.505555	 -1.518311	 -0.827876	 -0.397857	 -0.410557	 -0.560089	 0.140141	 0.705765	 5
1461766021.379	 23	 -0.409954	 0.404249	 0.556520	 -1.518445	 -0.833499	 -0.403302	 -0.413743	 -0.557878	 0.140147	 0.705655	 5
1461766021.389	 23	 -0.472366	 0.432850	 0.661774	 -1.518846	 -0.840030	 -0.409631	 -0.417411	 -0.555373	 0.140203	 0.705459	 5
1461766021.399	 23	 -0.502515	 0.445986	 0.847601	 -1.519559	 -0.848244	 -0.416511	 -0.421688	 -0.552490	 0.140702	 0.705079	 5
1461766021.409	 23	 -0.458058	 0.460377	 1.085246	 -1.519804	 -0.858701	 -0.422919	 -0.426500	 -0.549041	 0.142029	 0.704613	 5
1461766021.419	 23	 -0.348310	 0.436376	 1.339851	 -1.519044	 -0.871640	 -0.427775	 -0.431650	 -0.545006	 0.144525	 0.704101	 5
1461766021.429	 23	 -0.174817	 0.369491	 1.573251	 -1.516877	 -0.886895	 -0.429992	 -0.436828	 -0.540514	 0.148417	 0.703561	 5
1461766021.439	 23	 0.013599	 0.326785	 1.773708	 -1.512709	 -0.904140	 -0.428980	 -0.441843	 -0.535561	 0.153652	 0.703094	 5
1461766021.449	 23	 0.193526	 0.323206	 1.939433	 -1.506055	 -0.923006	 -0.424611	 -0.446624	 -0.530101	 0.160020	 0.702790	 5
1461766021.459	 23	 0.358755	 0.387600	 2.085668	 -1.496181	 -0.943230	 -0.416862	 -0.451201	 -0.523958	 0.167246	 0.702791	 5
1461766021.469	 23	 0.492477	 0.559512	 2.232113	 -1.482057	 -0.964704	 -0.405857	 -0.455731	 -0.516785	 0.174979	 0.703296	 5
1461766021.479	 23	 0.592462	 0.768123	 2.438876	 -1.463109	 -0.987853	 -0.391573	 -0.460470	 -0.508316	 0.183192	 0.704289	 5
1461766021.489	 23	 0.676807	 1.005919	 2.703598	 -1.438588	 -1.013225	 -0.373667	 -0.465672	 -0.498271	 0.191942	 0.705715	 5
1461766021.509	 23	 0.886342	 1.477705	 3.311516	 -1.368101	 -1.071162	 -0.322238	 -0.477583	 -0.472959	 0.211406	 0.709600	 5
1461766021.519	 24	 1.042259	 1.679570	 3.637095	 -1.317872	 -1.103569	 -0.283950	 -0.484070	 -0.457516	 0.222459	 0.711946	 5
1461766021.529	 24	 1.201639	 1.794546	 3.862719	 -1.254917	 -1.136922	 -0.233722	 -0.490509	 -0.440572	 0.234353	 0.714406	 5
1461766021.539	 24	 1.316365	 1.808897	 3.981219	 -1.178567	 -1.169565	 -0.170020	 -0.496605	 -0.422776	 0.246827	 0.716743	 5
1461766021.549	 24	 1.380424	 1.765527	 4.039940	 -1.088289	 -1.200282	 -0.091780	 -0.502281	 -0.404608	 0.259670	 0.718733	 5
1461766021.559	 24	 1.407707	 1.683410	 4.020820	 -0.983656	 -1.227832	 0.001645	 -0.507474	 -0.386424	 0.272636	 0.720289	 5
1461766021.579	 25	 1.373548	 1.475046	 3.728226	 -0.738826	 -1.268430	 0.226850	 -0.516102	 -0.351526	 0.297596	 0.722153	 5
1461766021.589	 25	 1.326232	 1.329181	 3.541838	 -0.605735	 -1.280308	 0.351710	 -0.519490	 -0.335260	 0.309332	 0.722526	 5
1461766021.599	 25	 1.266938	 1.154447	 3.329707	 -0.473170	 -1.286693	 0.477448	 -0.522284	 -0.320108	 0.320536	 0.722500	 5
1461766021.609	 25	 1.196060	 1.003226	 3.128554	 -0.346014	 -1.288206	 0.599040	 -0.524565	 -0.306059	 0.331188	 0.722131	 5
1461766021.619	 25	 1.109272	 0.866990	 2.934073	 -0.227952	 -1.285777	 0.712631	 -0.526456	 -0.293074	 0.341275	 0.721445	 5
1461766021.629	 25	 1.007712	 0.745868	 2.764374	 -0.120756	 -1.280450	 0.816335	 -0.528095	 -0.281099	 0.350826	 0.720431	 5
1461766021.639	 25	 0.909626	 0.646319	 2.637476	 -0.024023	 -1.273068	 0.910413	 -0.529598	 -0.269988	 0.359935	 0.719082	 5
1461766021.649	 25	 0.841658	 0.575584	 2.536162	 0.063524	 -1.263994	 0.995926	 -0.530991	 -0.259514	 0.368705	 0.717467	 5
1461766021.659	 25	 0.818467	 0.521510	 2.403706	 0.141469	 -1.253317	 1.072209	 -0.532147	 -0.249584	 0.377069	 0.715784	 5
1461766021.669	 25	 0.806900	 0.468249	 2.241316	 0.209110	 -1.241348	 1.138464	 -0.532961	 -0.240241	 0.384937	 0.714185	 5
1461766021.679	 25	 0.794332	 0.413002	 2.098099	 0.267318	 -1.228573	 1.195612	 -0.533459	 -0.231495	 0.392346	 0.712668	 5
1461766021.699	 26	 0.807101	 0.394088	 1.842029	 0.361264	 -1.201307	 1.287344	 -0.533676	 -0.215118	 0.405820	 0.710088	 5
1461766021.709	 26	 0.820683	 0.431481	 1.723959	 0.398935	 -1.187221	 1.323346	 -0.533485	 -0.207289	 0.411780	 0.709128	 5
1461766021.719	 26	 0.831313	 0.494643	 1.638127	 0.432416	 -1.172943	 1.354371	 -0.533226	 -0.199452	 0.417218	 0.708391	 5
1461766021.729	 26	 0.831233	 0.540896	 1.562889	 0.462593	 -1.158599	 1.381439	 -0.532940	 -0.191614	 0.422221	 0.707805	 5
1461766021.739	 26	 0.825727	 0.580675	 1.472717	 0.489632	 -1.144389	 1.404794	 -0.532630	 -0.183853	 0.426771	 0.707368	 5
1461766021.749	 26	 0.813635	 0.596941	 1.364266	 0.513469	 -1.130531	 1.424497	 -0.532270	 -0.176290	 0.430843	 0.707097	 5
1461766021.759	 26	 0.790600	 0.574785	 1.233172	 0.533892	 -1.117283	 1.440679	 -0.531806	 -0.169131	 0.434464	 0.706978	 5
1461766021.769	 26	 0.749214	 0.534377	 1.071160	 0.550669	 -1.105016	 1.453309	 -0.531227	 -0.162583	 0.437579	 0.707028	 5
1461766021.779	 26	 0.691702	 0.482200	 0.893193	 0.563901	 -1.094056	 1.462590	 -0.530564	 -0.156789	 0.440140	 0.707245	 5
1461766021.789	 26	 0.623439	 0.420421	 0.706704	 0.573793	 -1.084599	 1.468830	 -0.529838	 -0.151836	 0.442142	 0.707621	 5
1461766021.799	 26	 0.539191	 0.354512	 0.530974	 0.580774	 -1.076764	 1.472541	 -0.529103	 -0.147762	 0.443613	 0.708113	 5
1461766021.809	 26	 0.449725	 0.291996	 0.380899	 0.585478	 -1.070530	 1.474394	 -0.528420	 -0.144523	 0.444621	 0.708659	 5
1461766021.819	 26	 0.373360	 0.254230	 0.275702	 0.588678	 -1.065614	 1.475059	 -0.527828	 -0.141934	 0.445270	 0.709215	 5
1461766021.829	 26	 0.306837	 0.239011	 0.203667	 0.591151	 -1.061691	 1.475117	 -0.527372	 -0.139771	 0.445642	 0.709750	 5
1461766021.839	 26	 0.248918	 0.228107	 0.143322	 0.593161	 -1.058623	 1.474793	 -0.527058	 -0.137953	 0.445782	 0.710251	 5
1461766021.849	 26	 0.201766	 0.229996	 0.091527	 0.594860	 -1.056274	 1.474109	 -0.526882	 -0.136389	 0.445692	 0.710740	 5
1461766021.859	 26	 0.150387	 0.230920	 0.051484	 0.596433	 -1.054591	 1.473264	 -0.526859	 -0.135048	 0.445407	 0.711192	 5
1461766021.869	 26	 0.127887	 0.224497	 0.036700	 0.597951	 -1.053291	 1.472398	 -0.526922	 -0.133848	 0.445032	 0.711607	 5
1461766021.879	 26	 0.143677	 0.168167	 0.048827	 0.599094	 -1.051900	 1.471576	 -0.526874	 -0.132763	 0.444794	 0.711995	 5
1461766021.889	 26	 0.205222	 0.089317	 0.053952	 0.599124	 -1.050048	 1.470354	 -0.526486	 -0.131815	 0.444824	 0.712439	 5
1461766021.899	 26	 0.302029	 0.028373	 0.049345	 0.597563	 -1.047474	 1.468066	 -0.525626	 -0.130915	 0.445075	 0.713082	 5
1461766021.909	 26	 0.374329	 -0.023994	 0.043965	 0.594619	 -1.044255	 1.464800	 -0.524351	 -0.130040	 0.445501	 0.713914	 5
1461766021.919	 26	 0.409344	 -0.058207	 0.033750	 0.590790	 -1.040703	 1.460953	 -0.522824	 -0.129225	 0.446029	 0.714853	 5
1461766021.929	 26	 0.400645	 -0.069019	 0.006015	 0.586489	 -1.037249	 1.456738	 -0.521232	 -0.128522	 0.446515	 0.715838	 5
1461766021.939	 26	 0.339665	 -0.052243	 -0.051914	 0.582060	 -1.034460	 1.452270	 -0.519794	 -0.128025	 0.446768	 0.716814	 5
1461766021.949	 26	 0.190664	 0.101826	 -0.133379	 0.578870	 -1.033121	 1.447929	 -0.519005	 -0.127601	 0.446374	 0.717706	 5
1461766021.959	 26	 0.091415	 0.115820	 -0.150502	 0.577105	 -1.033058	 1.444353	 -0.518823	 -0.127286	 0.445564	 0.718397	 5
1461766021.969	 26	 0.131411	 0.013462	 -0.168855	 0.574073	 -1.032954	 1.440448	 -0.518368	 -0.127329	 0.444973	 0.719083	 5
1461766021.979	 26	 0.141028	 0.040873	 -0.198525	 0.570385	 -1.032797	 1.435765	 -0.517805	 -0.127391	 0.444282	 0.719905	 5
1461766021.989	 26	 0.125262	 0.067721	 -0.169363	 0.567317	 -1.032689	 1.431484	 -0.517367	 -0.127353	 0.443562	 0.720670	 5
1461766022.009	 27	 0.210098	 0.124321	 -0.103497	 0.562957	 -1.031143	 1.423752	 -0.516474	 -0.126424	 0.442281	 0.722260	 5
1461766022.019	 27	 0.243291	 0.121263	 -0.071842	 0.560944	 -1.029571	 1.419984	 -0.515838	 -0.125670	 0.441825	 0.723124	 5
1461766022.029	 27	 0.256143	 0.109709	 -0.046483	 0.559110	 -1.027694	 1.416520	 -0.515138	 -0.124832	 0.441505	 0.723964	 5
1461766022.039	 27	 0.260244	 0.067212	 -0.038388	 0.557100	 -1.025694	 1.413236	 -0.514350	 -0.124068	 0.441322	 0.724766	 5
1461766022.049	 27	 0.253450	 0.000089	 -0.057071	 0.554333	 -1.023787	 1.409798	 -0.513427	 -0.123571	 0.441252	 0.725548	 5
1461766022.059	 27	 0.227265	 -0.083125	 -0.102380	 0.550433	 -1.022263	 1.405952	 -0.512382	 -0.123510	 0.441226	 0.726312	 5
1461766022.069	 27	 0.202154	 -0.156839	 -0.157201	 0.545260	 -1.021233	 1.401533	 -0.511228	 -0.123927	 0.441194	 0.727074	 5
1461766022.079	 27	 0.167477	 -0.219910	 -0.215037	 0.538929	 -1.020757	 1.396492	 -0.510012	 -0.124790	 0.441091	 0.727842	 5
1461766022.089	 27	 0.121153	 -0.264856	 -0.271537	 0.531663	 -1.020929	 1.390968	 -0.508805	 -0.126084	 0.440889	 0.728586	 5
1461766022.099	 27	 0.078280	 -0.265068	 -0.318060	 0.523939	 -1.021709	 1.385024	 -0.507701	 -0.127637	 0.440500	 0.729321	 5
1461766022.109	 27	 0.025945	 -0.252340	 -0.344130	 0.516251	 -1.023052	 1.379008	 -0.506777	 -0.129342	 0.439937	 0.730002	 5
1461766022.119	 27	 -0.012347	 -0.221418	 -0.348837	 0.508996	 -1.024794	 1.373206	 -0.506059	 -0.131072	 0.439244	 0.730609	 5
1461766022.129	 27	 -0.044212	 -0.193636	 -0.344038	 0.502296	 -1.026774	 1.367710	 -0.505521	 -0.132753	 0.438465	 0.731145	 5
1461766022.139	 27	 -0.070848	 -0.188207	 -0.339493	 0.495961	 -1.028977	 1.362515	 -0.505118	 -0.134447	 0.437651	 0.731602	 5
1461766022.149	 27	 -0.074101	 -0.199890	 -0.338507	 0.489635	 -1.031233	 1.357418	 -0.504734	 -0.136179	 0.436858	 0.732020	 5
1461766022.159	 27	 -0.057712	 -0.249892	 -0.339842	 0.482762	 -1.033381	 1.352143	 -0.504223	 -0.138032	 0.436163	 0.732440	 5
1461766022.169	 27	 -0.023922	 -0.328675	 -0.336607	 0.474887	 -1.035232	 1.346586	 -0.503435	 -0.140090	 0.435685	 0.732876	 5
1461766022.179	 27	 0.030291	 -0.383002	 -0.325868	 0.464443	 -1.036722	 1.339257	 -0.502118	 -0.142535	 0.435282	 0.733547	 5
1461766022.189	 27	 0.072951	 -0.400048	 -0.312543	 0.455183	 -1.037557	 1.333135	 -0.500791	 -0.144654	 0.435168	 0.734107	 5
1461766022.209	 27	 0.097294	 -0.278335	 -0.239151	 0.438717	 -1.038128	 1.321819	 -0.498208	 -0.148050	 0.434995	 0.735289	 5
1461766022.219	 28	 0.057329	 -0.189628	 -0.196413	 0.432921	 -1.038381	 1.317558	 -0.497340	 -0.149198	 0.434814	 0.735751	 5
1461766022.229	 28	 0.013076	 -0.105163	 -0.153677	 0.428966	 -1.038850	 1.314412	 -0.496858	 -0.150012	 0.434536	 0.736075	 5
1461766022.249	 29	 -0.023899	 -0.082228	 -0.085998	 0.424387	 -1.040060	 1.310858	 -0.496499	 -0.151178	 0.434097	 0.736338	 5
1461766022.259	 29	 0.000375	 -0.140788	 -0.084623	 0.421897	 -1.040463	 1.309399	 -0.496192	 -0.151854	 0.434089	 0.736410	 5
1461766022.269	 29	 0.025522	 -0.231338	 -0.094211	 0.418290	 -1.040671	 1.307596	 -0.495610	 -0.152798	 0.434274	 0.736498	 5
1461766022.279	 29	 0.044263	 -0.325037	 -0.100575	 0.413453	 -1.040710	 1.305485	 -0.494733	 -0.154068	 0.434686	 0.736580	 5
1461766022.289	 29	 0.053520	 -0.391075	 -0.109796	 0.407659	 -1.040661	 1.303135	 -0.493640	 -0.155606	 0.435263	 0.736650	 5
1461766022.299	 29	 0.050099	 -0.422043	 -0.128172	 0.401212	 -1.040677	 1.300485	 -0.492448	 -0.157333	 0.435872	 0.736720	 5
1461766022.309	 29	 0.042595	 -0.416797	 -0.140846	 0.395336	 -1.041780	 1.298304	 -0.491680	 -0.159287	 0.436277	 0.736574	 5
1461766022.319	 29	 0.031067	 -0.375256	 -0.137162	 0.389045	 -1.042000	 1.295505	 -0.490599	 -0.160982	 0.436743	 0.736649	 5
1461766022.329	 29	 0.008954	 -0.320872	 -0.126871	 0.383583	 -1.042364	 1.293012	 -0.489721	 -0.162490	 0.437086	 0.736700	 5
1461766022.339	 29	 -0.021677	 -0.262209	 -0.116467	 0.378995	 -1.042939	 1.290896	 -0.489070	 -0.163831	 0.437307	 0.736704	 5
1461766022.349	 29	 -0.048125	 -0.219518	 -0.106253	 0.374714	 -1.045222	 1.288739	 -0.489024	 -0.165550	 0.437075	 0.736488	 5
1461766022.359	 29	 -0.078967	 -0.199200	 -0.103664	 0.371509	 -1.046274	 1.287350	 -0.488768	 -0.166698	 0.437124	 0.736370	 5
1461766022.369	 29	 -0.103682	 -0.212091	 -0.131279	 0.368078	 -1.047629	 1.285768	 -0.488574	 -0.167971	 0.437094	 0.736227	 5
1461766022.379	 29	 -0.120986	 -0.228273	 -0.169646	 0.363971	 -1.049299	 1.283594	 -0.488384	 -0.169438	 0.436946	 0.736105	 5
1461766022.389	 29	 -0.119155	 -0.265743	 -0.201996	 0.356045	 -1.051258	 1.278251	 -0.487725	 -0.171621	 0.436503	 0.736299	 5
1461766022.399	 29	 -0.094851	 -0.295776	 -0.226999	 0.350139	 -1.052964	 1.274781	 -0.487274	 -0.173443	 0.436309	 0.736285	 5
1461766022.409	 29	 -0.050140	 -0.298216	 -0.251924	 0.343436	 -1.054385	 1.270542	 -0.486631	 -0.175287	 0.436086	 0.736405	 5
1461766022.419	 29	 0.000163	 -0.254864	 -0.266879	 0.336459	 -1.055399	 1.265566	 -0.485871	 -0.176937	 0.435742	 0.736717	 5
1461766022.429	 29	 0.025114	 -0.183548	 -0.249381	 0.330071	 -1.056052	 1.260518	 -0.485137	 -0.178252	 0.435299	 0.737146	 5
1461766022.439	 29	 0.023581	 -0.091765	 -0.206949	 0.325106	 -1.056522	 1.256157	 -0.484597	 -0.179159	 0.434799	 0.737576	 5
1461766022.449	 29	 0.010341	 0.002219	 -0.159065	 0.321943	 -1.056930	 1.252756	 -0.484346	 -0.179617	 0.434228	 0.737965	 5
1461766022.459	 29	 -0.008396	 0.073781	 -0.125197	 0.320357	 -1.057388	 1.250229	 -0.484376	 -0.179720	 0.433587	 0.738297	 5
1461766022.469	 29	 -0.030603	 0.116395	 -0.124608	 0.319529	 -1.058017	 1.248035	 -0.484597	 -0.179671	 0.432851	 0.738596	 5
1461766022.479	 29	 -0.045678	 0.113032	 -0.154349	 0.318461	 -1.058877	 1.245482	 -0.484873	 -0.179689	 0.431994	 0.738913	 5
1461766022.489	 29	 -0.047028	 0.081942	 -0.188731	 0.316576	 -1.059897	 1.242283	 -0.485083	 -0.179896	 0.431064	 0.739267	 5
1461766022.499	 29	 -0.046252	 0.035014	 -0.206227	 0.313878	 -1.060970	 1.238631	 -0.485178	 -0.180308	 0.430153	 0.739635	 5
1461766022.509	 29	 -0.040137	 -0.027743	 -0.204724	 0.312366	 -1.061538	 1.236523	 -0.485227	 -0.180514	 0.429627	 0.739858	 5
1461766022.519	 29	 -0.026452	 -0.085068	 -0.184061	 0.308556	 -1.062408	 1.232983	 -0.485012	 -0.181308	 0.429068	 0.740129	 5
1461766022.539	 30	 0.007730	 -0.155761	 -0.092285	 0.303837	 -1.062789	 1.230059	 -0.484390	 -0.182451	 0.429054	 0.740264	 5
1461766022.549	 30	 0.037858	 -0.144855	 -0.043411	 0.303355	 -1.062205	 1.230647	 -0.484042	 -0.182611	 0.429504	 0.740191	 5
1461766022.559	 30	 -0.005120	 -0.018891	 0.001841	 0.304674	 -1.061552	 1.232227	 -0.483969	 -0.182324	 0.429898	 0.740081	 5
1461766022.569	 30	 -0.019702	 0.012381	 0.054487	 0.306912	 -1.061242	 1.234256	 -0.484164	 -0.181901	 0.430169	 0.739900	 5
1461766022.579	 30	 0.067474	 -0.074954	 0.073164	 0.306928	 -1.059934	 1.234981	 -0.483676	 -0.181706	 0.430693	 0.739962	 5
1461766022.589	 30	 0.136387	 -0.150853	 0.048409	 0.305078	 -1.058371	 1.234629	 -0.482801	 -0.181870	 0.431319	 0.740128	 5
1461766022.599	 30	 0.105393	 -0.133974	 0.016860	 0.302685	 -1.057248	 1.233734	 -0.482000	 -0.182228	 0.431787	 0.740289	 5
1461766022.609	 30	 0.045851	 -0.069076	 -0.004404	 0.300390	 -1.057083	 1.232407	 -0.481572	 -0.182712	 0.431881	 0.740394	 5
1461766022.629	 31	 -0.061650	 0.036148	 -0.057909	 0.299315	 -1.057761	 1.231155	 -0.481676	 -0.182996	 0.431543	 0.740453	 5
1461766022.639	 31	 -0.084942	 0.072406	 -0.054171	 0.299424	 -1.058716	 1.230541	 -0.482067	 -0.183073	 0.431102	 0.740437	 5
1461766022.649	 31	 -0.063514	 0.071434	 -0.033051	 0.299746	 -1.058842	 1.230082	 -0.482220	 -0.182878	 0.430830	 0.740544	 5
1461766022.659	 31	 -0.006935	 0.048104	 -0.000722	 0.300273	 -1.059105	 1.230044	 -0.482423	 -0.182746	 0.430637	 0.740556	 5
1461766022.669	 31	 0.068811	 0.010934	 0.037706	 0.300691	 -1.058542	 1.230294	 -0.482306	 -0.182496	 0.430739	 0.740635	 5
1461766022.679	 31	 0.141276	 -0.035869	 0.066476	 0.299437	 -1.056858	 1.229508	 -0.481557	 -0.182304	 0.431081	 0.740970	 5
1461766022.689	 31	 0.189197	 -0.073103	 0.084896	 0.299224	 -1.054902	 1.230010	 -0.480825	 -0.181963	 0.431703	 0.741167	 5
1461766022.699	 31	 0.197636	 -0.095450	 0.086746	 0.298751	 -1.052748	 1.230504	 -0.479973	 -0.181659	 0.432422	 0.741375	 5
1461766022.709	 31	 0.164528	 -0.097509	 0.082752	 0.298302	 -1.050822	 1.231109	 -0.479190	 -0.181437	 0.433131	 0.741522	 5
1461766022.719	 31	 0.103578	 -0.097547	 0.053431	 0.295840	 -1.050179	 1.229944	 -0.478552	 -0.181892	 0.433414	 0.741658	 5
1461766022.729	 31	 0.035107	 -0.092387	 0.003985	 0.294932	 -1.049636	 1.229961	 -0.478175	 -0.182083	 0.433743	 0.741661	 5
1461766022.739	 31	 -0.017377	 -0.096802	 -0.039296	 0.293526	 -1.049774	 1.229431	 -0.477964	 -0.182516	 0.433856	 0.741625	 5
1461766022.749	 31	 -0.040981	 -0.095908	 -0.072120	 0.291682	 -1.050321	 1.228416	 -0.477836	 -0.183108	 0.433814	 0.741586	 5
1461766022.759	 31	 -0.038832	 -0.084295	 -0.082701	 0.286746	 -1.051032	 1.224557	 -0.477355	 -0.184213	 0.433423	 0.741850	 5
1461766022.779	 32	 0.025576	 -0.020528	 -0.063484	 0.283388	 -1.051486	 1.221846	 -0.477027	 -0.184937	 0.433131	 0.742051	 5
1461766022.789	 32	 0.061090	 0.031579	 -0.050520	 0.282410	 -1.051128	 1.220508	 -0.476821	 -0.184883	 0.432937	 0.742311	 5
1461766022.799	 32	 0.067789	 0.074274	 -0.026741	 0.280446	 -1.050724	 1.217996	 -0.476494	 -0.184902	 0.432550	 0.742741	 5
1461766022.809	 32	 0.049837	 0.099980	 -0.009293	 0.280923	 -1.050234	 1.217449	 -0.476486	 -0.184461	 0.432327	 0.742986	 5
1461766022.819	 32	 0.026326	 0.093660	 -0.010213	 0.281585	 -1.049949	 1.217103	 -0.476566	 -0.184054	 0.432095	 0.743171	 5
1461766022.839	 33	 0.010931	 0.013789	 -0.030012	 0.280317	 -1.049808	 1.214817	 -0.476456	 -0.183942	 0.431575	 0.743571	 5
1461766022.849	 33	 0.025583	 -0.040557	 -0.038105	 0.279323	 -1.049711	 1.213980	 -0.476286	 -0.184086	 0.431519	 0.743677	 5
1461766022.859	 33	 0.046672	 -0.090646	 -0.043023	 0.276501	 -1.049270	 1.211963	 -0.475717	 -0.184535	 0.431524	 0.743927	 5
1461766022.869	 33	 0.065683	 -0.127972	 -0.048868	 0.273197	 -1.048812	 1.209821	 -0.475049	 -0.185131	 0.431600	 0.744161	 5
1461766022.879	 33	 0.075222	 -0.141829	 -0.049084	 0.269631	 -1.048249	 1.207613	 -0.474296	 -0.185781	 0.431731	 0.744403	 5
1461766022.889	 33	 0.080681	 -0.118423	 -0.045719	 0.266687	 -1.047764	 1.205830	 -0.473664	 -0.186323	 0.431856	 0.744598	 5
1461766022.899	 33	 0.071353	 -0.066221	 -0.037694	 0.264467	 -1.047395	 1.204313	 -0.473203	 -0.186691	 0.431886	 0.744781	 5
1461766022.909	 33	 0.041777	 -0.012857	 -0.024153	 0.263027	 -1.047082	 1.203085	 -0.472902	 -0.186852	 0.431828	 0.744966	 5
1461766022.919	 33	 0.011051	 0.024541	 -0.012882	 0.262291	 -1.046798	 1.202212	 -0.472729	 -0.186843	 0.431730	 0.745135	 5
1461766022.929	 33	 -0.002801	 0.028829	 -0.013789	 0.261615	 -1.046320	 1.201302	 -0.472508	 -0.186751	 0.431640	 0.745350	 5
1461766022.939	 33	 0.001312	 0.005323	 -0.026834	 0.260736	 -1.045593	 1.200326	 -0.472165	 -0.186652	 0.431619	 0.745604	 5
1461766022.949	 33	 0.022435	 -0.029950	 -0.042269	 0.258986	 -1.044825	 1.198783	 -0.471673	 -0.186734	 0.431600	 0.745907	 5
1461766022.959	 33	 0.057438	 -0.069466	 -0.050406	 0.256108	 -1.043902	 1.196514	 -0.470953	 -0.187025	 0.431603	 0.746287	 5
1461766022.969	 33	 0.095717	 -0.093037	 -0.058424	 0.252606	 -1.042893	 1.193871	 -0.470104	 -0.187440	 0.431626	 0.746704	 5
1461766022.979	 33	 0.113897	 -0.078263	 -0.066974	 0.249410	 -1.041901	 1.191394	 -0.469311	 -0.187786	 0.431634	 0.747112	 5
1461766022.989	 33	 0.101314	 -0.022985	 -0.075945	 0.246795	 -1.041269	 1.188981	 -0.468759	 -0.188029	 0.431461	 0.747497	 5
1461766022.999	 33	 0.059985	 0.039880	 -0.077133	 0.245244	 -1.041009	 1.186969	 -0.468526	 -0.188068	 0.431119	 0.747830	 5
1461766023.009	 33	 0.011159	 0.097449	 -0.078305	 0.244504	 -1.041246	 1.185193	 -0.468614	 -0.187992	 0.430586	 0.748102	 5
1461766023.019	 33	 -0.023881	 0.133726	 -0.076598	 0.244321	 -1.041788	 1.183590	 -0.468910	 -0.187828	 0.429930	 0.748335	 5
1461766023.029	 33	 -0.036645	 0.139112	 -0.072175	 0.244312	 -1.042390	 1.182061	 -0.469256	 -0.187633	 0.429251	 0.748556	 5
1461766023.039	 33	 -0.015420	 0.107199	 -0.064134	 0.243738	 -1.042808	 1.180262	 -0.469444	 -0.187536	 0.428636	 0.748815	 5
1461766023.049	 33	 0.027036	 0.051821	 -0.056496	 0.242498	 -1.042899	 1.178311	 -0.469392	 -0.187567	 0.428181	 0.749100	 5
1461766023.059	 33	 0.068460	 -0.002437	 -0.041380	 0.240622	 -1.042591	 1.176299	 -0.469074	 -0.187716	 0.427923	 0.749409	 5
1461766023.069	 33	 0.091732	 -0.053495	 -0.032469	 0.238509	 -1.041907	 1.174574	 -0.468550	 -0.187923	 0.427895	 0.749701	 5
1461766023.079	 33	 0.102329	 -0.070532	 -0.030590	 0.236419	 -1.041194	 1.173105	 -0.467997	 -0.188175	 0.427961	 0.749945	 5
1461766023.089	 33	 0.091736	 -0.050321	 -0.034573	 0.234942	 -1.040430	 1.172039	 -0.467520	 -0.188279	 0.428044	 0.750170	 5
1461766023.109	 34	 0.057996	 0.019066	 -0.013383	 0.233853	 -1.039416	 1.170832	 -0.467052	 -0.188140	 0.428026	 0.750506	 5
1461766023.119	 34	 0.064557	 0.038316	 0.003790	 0.233747	 -1.038964	 1.170368	 -0.466918	 -0.187952	 0.427958	 0.750675	 5
1461766023.129	 34	 0.081689	 0.038372	 0.018561	 0.233868	 -1.038332	 1.170113	 -0.466751	 -0.187682	 0.427947	 0.750853	 5
1461766023.139	 34	 0.105112	 0.020280	 0.026712	 0.233562	 -1.037601	 1.169638	 -0.466479	 -0.187494	 0.427970	 0.751056	 5
1461766023.149	 34	 0.117805	 -0.001049	 0.024269	 0.233139	 -1.036843	 1.169231	 -0.466166	 -0.187360	 0.428051	 0.751238	 5
1461766023.159	 34	 0.104832	 -0.030834	 0.018772	 0.232107	 -1.036321	 1.168509	 -0.465833	 -0.187442	 0.428112	 0.751388	 5
1461766023.169	 34	 0.087633	 -0.048930	 0.010222	 0.230525	 -1.036110	 1.167498	 -0.465517	 -0.187746	 0.428138	 0.751494	 5
1461766023.179	 34	 0.064789	 -0.051081	 -0.007443	 0.228906	 -1.036148	 1.166440	 -0.465283	 -0.188118	 0.428111	 0.751562	 5
1461766023.189	 34	 0.038061	 -0.050033	 -0.019994	 0.227127	 -1.036378	 1.165211	 -0.465097	 -0.188561	 0.428022	 0.751616	 5
1461766023.199	 34	 0.010293	 -0.041550	 -0.034597	 0.225432	 -1.036840	 1.163956	 -0.465012	 -0.189027	 0.427863	 0.751642	 5
1461766023.209	 34	 -0.000343	 -0.030906	 -0.037605	 0.223935	 -1.037237	 1.162768	 -0.464942	 -0.189416	 0.427695	 0.751683	 5
1461766023.219	 34	 0.007255	 -0.012770	 -0.026847	 0.222712	 -1.037418	 1.161720	 -0.464842	 -0.189679	 0.427554	 0.751759	 5
1461766023.229	 34	 0.018044	 0.003230	 -0.016136	 0.222130	 -1.037389	 1.161097	 -0.464767	 -0.189746	 0.427460	 0.751842	 5
1461766023.239	 34	 0.019119	 -0.003086	 -0.006613	 0.221658	 -1.037229	 1.160631	 -0.464655	 -0.189773	 0.427422	 0.751926	 5
1461766023.249	 34	 0.029811	 -0.004137	 -0.000323	 0.220886	 -1.037016	 1.159982	 -0.464477	 -0.189858	 0.427395	 0.752030	 5
1461766023.259	 34	 0.042677	 0.003316	 0.006026	 0.220185	 -1.036718	 1.159349	 -0.464284	 -0.189897	 0.427372	 0.752152	 5
1461766023.269	 34	 0.042670	 -0.000917	 0.009181	 0.219469	 -1.036331	 1.158718	 -0.464057	 -0.189920	 0.427368	 0.752288	 5
1461766023.279	 34	 0.039360	 -0.020086	 0.004766	 0.218577	 -1.036017	 1.158059	 -0.463821	 -0.190021	 0.427382	 0.752401	 5
1461766023.289	 34	 0.039173	 -0.046787	 -0.010405	 0.217180	 -1.035732	 1.157134	 -0.463511	 -0.190258	 0.427407	 0.752517	 5
1461766023.299	 34	 0.040134	 -0.057528	 -0.024371	 0.215581	 -1.035512	 1.156085	 -0.463193	 -0.190560	 0.427421	 0.752629	 5
1461766023.309	 34	 0.037980	 -0.060721	 -0.025449	 0.214095	 -1.035224	 1.155148	 -0.462865	 -0.190828	 0.427463	 0.752739	 5
1461766023.319	 34	 0.038022	 -0.061700	 -0.013735	 0.212845	 -1.034884	 1.154481	 -0.462543	 -0.191057	 0.427560	 0.752824	 5
1461766023.329	 34	 0.039187	 -0.049927	 -0.002979	 0.211867	 -1.034571	 1.154028	 -0.462268	 -0.191239	 0.427669	 0.752884	 5
1461766023.339	 34	 0.040357	 -0.030761	 0.000385	 0.211111	 -1.034313	 1.153643	 -0.462054	 -0.191368	 0.427744	 0.752941	 5
1461766023.349	 34	 0.029798	 -0.005218	 -0.001418	 0.210559	 -1.034134	 1.153221	 -0.461914	 -0.191433	 0.427743	 0.753011	 5
1461766023.359	 34	 0.008490	 0.007564	 -0.007509	 0.210252	 -1.034067	 1.152872	 -0.461858	 -0.191451	 0.427694	 0.753068	 5
1461766023.369	 34	 -0.005378	 0.012885	 -0.012668	 0.210227	 -1.034040	 1.152681	 -0.461861	 -0.191409	 0.427633	 0.753111	 5
1461766023.379	 34	 -0.008692	 -0.002074	 -0.023435	 0.210066	 -1.034018	 1.152419	 -0.461844	 -0.191403	 0.427575	 0.753156	 5
1461766023.389	 34	 -0.002424	 -0.023428	 -0.032214	 0.209344	 -1.034074	 1.151812	 -0.461768	 -0.191549	 0.427503	 0.753207	 5
1461766023.399	 34	 0.007114	 -0.038340	 -0.031370	 0.208535	 -1.034023	 1.151243	 -0.461632	 -0.191710	 0.427485	 0.753260	 5
1461766023.409	 34	 0.010290	 -0.048940	 -0.025102	 0.207648	 -1.034051	 1.150737	 -0.461500	 -0.191934	 0.427494	 0.753278	 5
1461766023.419	 34	 0.007164	 -0.047736	 -0.006945	 0.206966	 -1.034169	 1.150491	 -0.461419	 -0.192165	 0.427538	 0.753244	 5
1461766023.429	 34	 -0.004487	 -0.050707	 0.018706	 0.206658	 -1.034163	 1.150710	 -0.461331	 -0.192330	 0.427693	 0.753168	 5
1461766023.439	 34	 -0.013013	 -0.059098	 0.031491	 0.206498	 -1.034116	 1.151224	 -0.461231	 -0.192496	 0.427931	 0.753051	 5
1461766023.449	 34	 -0.007762	 -0.071925	 0.024931	 0.206003	 -1.033985	 1.151544	 -0.461048	 -0.192722	 0.428188	 0.752959	 5
1461766023.459	 34	 0.013474	 -0.085894	 0.013957	 0.204860	 -1.033645	 1.151345	 -0.460704	 -0.193020	 0.428435	 0.752953	 5
1461766023.469	 34	 0.034753	 -0.088187	 -0.000107	 0.203274	 -1.033107	 1.150730	 -0.460235	 -0.193338	 0.428661	 0.753030	 5
1461766023.479	 34	 0.048634	 -0.080838	 -0.007622	 0.201413	 -1.032488	 1.149777	 -0.459712	 -0.193660	 0.428835	 0.753167	 5
1461766023.489	 34	 0.051969	 -0.051082	 -0.009509	 0.199764	 -1.031935	 1.148776	 -0.459262	 -0.193910	 0.428931	 0.753322	 5
1461766023.499	 34	 0.040384	 -0.017026	 -0.011225	 0.198506	 -1.031616	 1.147811	 -0.458974	 -0.194081	 0.428911	 0.753466	 5
1461766023.509	 34	 0.015945	 0.005383	 -0.010806	 0.197722	 -1.031627	 1.147061	 -0.458883	 -0.194207	 0.428806	 0.753549	 5
1461766023.519	 34	 -0.006368	 0.022499	 -0.006191	 0.197498	 -1.031791	 1.146669	 -0.458931	 -0.194244	 0.428682	 0.753581	 5
1461766023.529	 34	 -0.014878	 0.024682	 -0.001834	 0.197621	 -1.031962	 1.146560	 -0.459027	 -0.194216	 0.428584	 0.753585	 5
1461766023.539	 34	 0.003240	 0.022478	 -0.005210	 0.197767	 -1.031983	 1.146472	 -0.459075	 -0.194146	 0.428514	 0.753614	 5
1461766023.549	 34	 0.027761	 0.013926	 -0.001240	 0.197810	 -1.031714	 1.146331	 -0.459003	 -0.194028	 0.428496	 0.753698	 5
1461766023.559	 34	 0.049049	 -0.002055	 0.003755	 0.197697	 -1.031277	 1.146190	 -0.458840	 -0.193927	 0.428543	 0.753797	 5
1461766023.569	 34	 0.061852	 -0.004205	 0.005754	 0.197516	 -1.030847	 1.146038	 -0.458665	 -0.193851	 0.428600	 0.753890	 5
1461766023.579	 34	 0.054411	 -0.002018	 0.011168	 0.197374	 -1.030536	 1.145935	 -0.458535	 -0.193802	 0.428646	 0.753955	 5
1461766023.589	 34	 0.028817	 0.002314	 0.011431	 0.197614	 -1.030488	 1.146152	 -0.458549	 -0.193748	 0.428681	 0.753941	 5
1461766023.599	 34	 -0.004305	 -0.003985	 0.009529	 0.197816	 -1.030799	 1.146378	 -0.458679	 -0.193804	 0.428667	 0.753855	 5
1461766023.609	 34	 -0.032202	 -0.030532	 0.004196	 0.197866	 -1.031411	 1.146662	 -0.458877	 -0.194006	 0.428659	 0.753687	 5
1461766023.619	 34	 -0.043132	 -0.078420	 -0.003616	 0.197238	 -1.032027	 1.146724	 -0.458952	 -0.194414	 0.428723	 0.753501	 5
1461766023.629	 34	 -0.035884	 -0.117860	 -0.012572	 0.196011	 -1.032525	 1.146606	 -0.458875	 -0.194976	 0.428875	 0.753315	 5
1461766023.639	 34	 -0.025296	 -0.131751	 -0.017057	 0.194483	 -1.032841	 1.146350	 -0.458683	 -0.195574	 0.429076	 0.753163	 5
1461766023.649	 34	 -0.017749	 -0.121090	 -0.010629	 0.193066	 -1.032962	 1.146171	 -0.458439	 -0.196097	 0.429314	 0.753040	 5
1461766023.659	 34	 -0.006841	 -0.085897	 0.006657	 0.192391	 -1.032838	 1.146431	 -0.458225	 -0.196379	 0.429587	 0.752941	 5
1461766023.669	 34	 -0.005525	 -0.046436	 0.021935	 0.192497	 -1.032627	 1.147095	 -0.458109	 -0.196437	 0.429848	 0.752848	 5
1461766023.679	 34	 0.000018	 -0.015497	 0.037096	 0.192974	 -1.032390	 1.147861	 -0.458053	 -0.196373	 0.430067	 0.752773	 5
1461766023.689	 34	 0.006562	 0.005827	 0.046830	 0.193769	 -1.032021	 1.148751	 -0.458007	 -0.196183	 0.430282	 0.752728	 5
1461766023.699	 34	 0.004425	 0.004770	 0.046838	 0.194384	 -1.031658	 1.149461	 -0.457943	 -0.196022	 0.430470	 0.752701	 5
1461766023.709	 34	 0.003257	 -0.012285	 0.041361	 0.194886	 -1.031339	 1.150160	 -0.457871	 -0.195912	 0.430672	 0.752659	 5
1461766023.719	 34	 0.010580	 -0.041050	 0.037832	 0.194908	 -1.030895	 1.150657	 -0.457671	 -0.195904	 0.430929	 0.752635	 5
1461766023.729	 34	 0.025415	 -0.058160	 0.031148	 0.194558	 -1.030414	 1.150976	 -0.457396	 -0.195985	 0.431210	 0.752620	 5
1461766023.739	 34	 0.039254	 -0.058264	 0.022499	 0.193881	 -1.029924	 1.150990	 -0.457077	 -0.196118	 0.431453	 0.752640	 5
1461766023.749	 34	 0.031816	 -0.045532	 0.015222	 0.193415	 -1.029459	 1.151062	 -0.456806	 -0.196191	 0.431665	 0.752664	 5
1461766023.759	 34	 0.011707	 -0.016698	 0.023126	 0.193604	 -1.029219	 1.151518	 -0.456718	 -0.196162	 0.431834	 0.752628	 5
1461766023.769	 34	 -0.007332	 0.003701	 0.041600	 0.194384	 -1.029050	 1.152376	 -0.456743	 -0.196022	 0.432007	 0.752550	 5
1461766023.779	 34	 -0.010457	 0.013338	 0.049178	 0.195295	 -1.028970	 1.153316	 -0.456820	 -0.195873	 0.432166	 0.752450	 5
1461766023.789	 34	 0.009817	 0.015381	 0.045822	 0.196019	 -1.028729	 1.154032	 -0.456822	 -0.195703	 0.432311	 0.752410	 5
1461766023.799	 34	 0.027865	 0.003556	 0.035963	 0.196470	 -1.028328	 1.154532	 -0.456730	 -0.195544	 0.432464	 0.752419	 5
1461766023.809	 34	 0.030906	 -0.024163	 0.028218	 0.196579	 -1.027789	 1.154893	 -0.456530	 -0.195447	 0.432666	 0.752450	 5
1461766023.819	 34	 0.025480	 -0.044349	 0.029143	 0.196428	 -1.027352	 1.155227	 -0.456312	 -0.195468	 0.432900	 0.752442	 5
1461766023.829	 34	 0.017966	 -0.057060	 0.033352	 0.196172	 -1.027069	 1.155614	 -0.456119	 -0.195580	 0.433152	 0.752385	 5
1461766023.839	 34	 0.006181	 -0.063439	 0.029132	 0.195809	 -1.026935	 1.155979	 -0.455958	 -0.195765	 0.433395	 0.752294	 5
1461766023.849	 34	 0.001961	 -0.054902	 0.031378	 0.195368	 -1.026837	 1.156250	 -0.455802	 -0.195967	 0.433614	 0.752210	 5
1461766023.859	 34	 -0.000123	 -0.041100	 0.027260	 0.195001	 -1.026742	 1.156468	 -0.455668	 -0.196131	 0.433796	 0.752144	 5
1461766023.869	 34	 0.006348	 -0.025180	 0.025220	 0.194875	 -1.026455	 1.156738	 -0.455514	 -0.196166	 0.433974	 0.752125	 5
1461766023.879	 34	 0.019266	 -0.003929	 0.027437	 0.195013	 -1.025932	 1.157060	 -0.455329	 -0.196053	 0.434152	 0.752164	 5
1461766023.889	 34	 0.033224	 0.015159	 0.025361	 0.195273	 -1.025241	 1.157289	 -0.455121	 -0.195830	 0.434296	 0.752265	 5
1461766023.899	 34	 0.047129	 0.025716	 0.020010	 0.195662	 -1.024432	 1.157489	 -0.454903	 -0.195521	 0.434420	 0.752406	 5
1461766023.909	 34	 0.061071	 0.036342	 0.024251	 0.196160	 -1.023625	 1.157683	 -0.454710	 -0.195170	 0.434516	 0.752558	 5
1461766023.919	 34	 0.066404	 0.032102	 0.028427	 0.196564	 -1.022917	 1.157810	 -0.454537	 -0.194864	 0.434592	 0.752698	 5
1461766023.929	 34	 0.063169	 0.017289	 0.037909	 0.197015	 -1.022327	 1.158126	 -0.454398	 -0.194615	 0.434708	 0.752779	 5
1461766023.939	 34	 0.056739	 0.005661	 0.045315	 0.197271	 -1.021842	 1.158442	 -0.454253	 -0.194465	 0.434850	 0.752823	 5
1461766023.949	 34	 0.041737	 -0.000731	 0.037924	 0.197457	 -1.021537	 1.158753	 -0.454156	 -0.194387	 0.434977	 0.752828	 5
1461766023.959	 34	 0.025323	 -0.003961	 0.020155	 0.197510	 -1.021401	 1.158935	 -0.454103	 -0.194373	 0.435056	 0.752819	 5
1461766023.969	 34	 0.018977	 0.016198	 0.010805	 0.197667	 -1.021300	 1.159031	 -0.454092	 -0.194310	 0.435074	 0.752831	 5
1461766023.979	 34	 0.018035	 0.049120	 0.003659	 0.198053	 -1.021293	 1.159022	 -0.454174	 -0.194160	 0.434984	 0.752872	 5
1461766023.989	 34	 0.009620	 0.076786	 0.001859	 0.198865	 -1.021291	 1.159115	 -0.454341	 -0.193876	 0.434835	 0.752931	 5
1461766023.999	 34	 -0.007383	 0.094897	 -0.001021	 0.200244	 -1.021654	 1.159515	 -0.454730	 -0.193541	 0.434610	 0.752912	 5
1461766024.009	 34	 -0.026552	 0.104520	 -0.001829	 0.201791	 -1.022002	 1.159977	 -0.455142	 -0.193154	 0.434374	 0.752899	 5
1461766024.019	 34	 -0.041506	 0.098215	 0.002507	 0.203307	 -1.022409	 1.160452	 -0.455568	 -0.192797	 0.434138	 0.752869	 5
1461766024.029	 34	 -0.042624	 0.082310	 0.008764	 0.204735	 -1.022883	 1.161020	 -0.455989	 -0.192511	 0.433946	 0.752798	 5
1461766024.039	 34	 -0.035291	 0.047241	 0.015835	 0.205843	 -1.023208	 1.161580	 -0.456289	 -0.192306	 0.433848	 0.752725	 5
1461766024.049	 34	 -0.022697	 -0.001688	 0.020599	 0.206443	 -1.023420	 1.162128	 -0.456440	 -0.192260	 0.433881	 0.752626	 5
1461766024.059	 34	 0.000549	 -0.053847	 0.024174	 0.206226	 -1.023398	 1.162418	 -0.456357	 -0.192402	 0.434043	 0.752546	 5
1461766024.069	 34	 0.029191	 -0.087987	 0.021474	 0.205403	 -1.023157	 1.162503	 -0.456086	 -0.192669	 0.434304	 0.752492	 5
1461766024.079	 34	 0.040873	 -0.095507	 0.015973	 0.204331	 -1.022771	 1.162444	 -0.455724	 -0.192958	 0.434592	 0.752470	 5
1461766024.089	 34	 0.030303	 -0.072091	 0.014150	 0.203355	 -1.022550	 1.162320	 -0.455447	 -0.193240	 0.434806	 0.752443	 5
1461766024.099	 34	 -0.000453	 -0.033691	 0.016905	 0.202786	 -1.022497	 1.162283	 -0.455309	 -0.193432	 0.434930	 0.752405	 5
1461766024.109	 34	 -0.036832	 -0.001591	 0.020806	 0.202647	 -1.022774	 1.162371	 -0.455366	 -0.193576	 0.434948	 0.752323	 5
1461766024.119	 34	 -0.054921	 0.010155	 0.020004	 0.202450	 -1.023241	 1.162295	 -0.455494	 -0.193754	 0.434885	 0.752237	 5
1461766024.129	 34	 -0.052888	 -0.001639	 0.008150	 0.201944	 -1.023586	 1.161951	 -0.455538	 -0.193955	 0.434812	 0.752200	 5
1461766024.139	 34	 -0.039169	 -0.023056	 -0.006026	 0.200910	 -1.023815	 1.161251	 -0.455461	 -0.194244	 0.434745	 0.752211	 5
1461766024.149	 34	 -0.022205	 -0.041238	 -0.012741	 0.199370	 -1.023928	 1.160222	 -0.455266	 -0.194618	 0.434690	 0.752265	 5
1461766024.159	 34	 0.006600	 -0.042397	 -0.014071	 0.197752	 -1.023729	 1.159147	 -0.454949	 -0.194931	 0.434687	 0.752377	 5
1461766024.169	 34	 0.017251	 -0.043526	 -0.018441	 0.196096	 -1.023448	 1.158007	 -0.454602	 -0.195222	 0.434682	 0.752514	 5
1461766024.179	 34	 0.021582	 -0.025504	 -0.024707	 0.194618	 -1.023167	 1.156873	 -0.454293	 -0.195448	 0.434639	 0.752666	 5
1461766024.189	 34	 0.021689	 0.003160	 -0.031904	 0.193473	 -1.023005	 1.155754	 -0.454097	 -0.195583	 0.434505	 0.752827	 5
1461766024.199	 34	 0.014339	 0.026597	 -0.029492	 0.192626	 -1.022961	 1.154676	 -0.454003	 -0.195646	 0.434299	 0.752986	 5
1461766024.209	 34	 0.003784	 0.046876	 -0.023884	 0.192209	 -1.023083	 1.153831	 -0.454038	 -0.195642	 0.434055	 0.753107	 5
1461766024.219	 34	 -0.007917	 0.058580	 -0.027938	 0.192026	 -1.023323	 1.153062	 -0.454158	 -0.195599	 0.433767	 0.753212	 5
1461766024.229	 34	 -0.022912	 0.054308	 -0.036375	 0.191802	 -1.023693	 1.152233	 -0.454320	 -0.195589	 0.433443	 0.753303	 5
1461766024.239	 34	 -0.039054	 0.034075	 -0.046016	 0.191196	 -1.024236	 1.151192	 -0.454482	 -0.195720	 0.433097	 0.753370	 5
1461766024.249	 34	 -0.045613	 0.008503	 -0.054725	 0.190071	 -1.024953	 1.149883	 -0.454618	 -0.196030	 0.432740	 0.753413	 5
1461766024.259	 34	 -0.041468	 -0.013878	 -0.059234	 0.188661	 -1.025638	 1.148495	 -0.454690	 -0.196420	 0.432423	 0.753450	 5
1461766024.269	 34	 -0.040797	 -0.024448	 -0.063541	 0.187293	 -1.026258	 1.147240	 -0.454736	 -0.196808	 0.432158	 0.753473	 5
1461766024.279	 34	 -0.039704	 -0.023350	 -0.058212	 0.185932	 -1.026802	 1.146005	 -0.454755	 -0.197178	 0.431911	 0.753506	 5
1461766024.289	 34	 -0.034286	 -0.022163	 -0.039065	 0.184907	 -1.027253	 1.145137	 -0.454778	 -0.197482	 0.431742	 0.753509	 5
1461766024.299	 34	 -0.018179	 -0.018866	 -0.017860	 0.184237	 -1.027507	 1.144637	 -0.454772	 -0.197685	 0.431664	 0.753505	 5
1461766024.309	 34	 0.004294	 -0.020930	 0.000043	 0.183900	 -1.027440	 1.144498	 -0.454690	 -0.197764	 0.431700	 0.753513	 5
1461766024.319	 34	 0.034151	 -0.034770	 0.010311	 0.183469	 -1.027098	 1.144411	 -0.454484	 -0.197819	 0.431822	 0.753553	 5
1461766024.329	 34	 0.054389	 -0.044389	 0.012176	 0.182962	 -1.026592	 1.144354	 -0.454203	 -0.197869	 0.431999	 0.753608	 5
1461766024.339	 34	 0.055438	 -0.044423	 0.007904	 0.182443	 -1.026134	 1.144298	 -0.453934	 -0.197936	 0.432172	 0.753653	 5
1461766024.349	 34	 0.036229	 -0.038038	 0.000669	 0.181863	 -1.025919	 1.144114	 -0.453752	 -0.198058	 0.432269	 0.753675	 5
1461766024.359	 34	 0.003149	 -0.028443	 -0.009612	 0.181259	 -1.026161	 1.143811	 -0.453736	 -0.198278	 0.432252	 0.753636	 5
1461766024.369	 34	 -0.033154	 -0.025206	 -0.017792	 0.180843	 -1.026605	 1.143615	 -0.453822	 -0.198503	 0.432200	 0.753555	 5
1461766024.379	 34	 -0.052401	 -0.025218	 -0.027216	 0.180363	 -1.027173	 1.143338	 -0.453946	 -0.198765	 0.432110	 0.753462	 5
1461766024.389	 34	 -0.048165	 -0.023180	 -0.037891	 0.179866	 -1.027708	 1.142977	 -0.454064	 -0.199005	 0.431998	 0.753393	 5
1461766024.399	 34	 -0.040737	 -0.028551	 -0.042268	 0.179277	 -1.028138	 1.142539	 -0.454132	 -0.199237	 0.431896	 0.753349	 5
1461766024.409	 34	 -0.037566	 -0.041270	 -0.034953	 0.178650	 -1.028473	 1.142167	 -0.454152	 -0.199473	 0.431843	 0.753305	 5
1461766024.419	 34	 -0.029022	 -0.048664	 -0.024438	 0.178017	 -1.028767	 1.141919	 -0.454144	 -0.199730	 0.431845	 0.753241	 5
1461766024.429	 34	 -0.016198	 -0.052887	 -0.014996	 0.177440	 -1.028988	 1.141791	 -0.454110	 -0.199974	 0.431891	 0.753170	 5
1461766024.439	 34	 -0.011267	 -0.068705	 -0.007704	 0.176518	 -1.029069	 1.141532	 -0.453965	 -0.200283	 0.431990	 0.753118	 5
1461766024.449	 34	 -0.004911	 -0.074082	 -0.013139	 0.175379	 -1.029183	 1.141130	 -0.453800	 -0.200649	 0.432078	 0.753070	 5
1461766024.459	 34	 -0.008157	 -0.078374	 -0.019546	 0.173949	 -1.029236	 1.140476	 -0.453575	 -0.201053	 0.432148	 0.753058	 5
1461766024.469	 34	 -0.025260	 -0.077322	 -0.027916	 0.172212	 -1.029419	 1.139541	 -0.453359	 -0.201541	 0.432159	 0.753051	 5
1461766024.479	 34	 -0.053060	 -0.077341	 -0.041531	 0.170237	 -1.029856	 1.138352	 -0.453207	 -0.202125	 0.432088	 0.753027	 5
1461766024.489	 34	 -0.075472	 -0.065683	 -0.056150	 0.168162	 -1.030470	 1.136955	 -0.453117	 -0.202744	 0.431932	 0.753004	 5
1461766024.499	 34	 -0.071147	 -0.050837	 -0.060314	 0.166228	 -1.031004	 1.135513	 -0.453035	 -0.203279	 0.431740	 0.753019	 5
1461766024.509	 34	 -0.040173	 -0.046668	 -0.059481	 0.164191	 -1.031222	 1.133921	 -0.452835	 -0.203740	 0.431566	 0.753114	 5
1461766024.519	 34	 0.009016	 -0.023439	 -0.062893	 0.162024	 -1.031083	 1.132025	 -0.452511	 -0.204092	 0.431365	 0.753329	 5
1461766024.529	 34	 0.046574	 0.025330	 -0.069162	 0.160249	 -1.030663	 1.130023	 -0.452184	 -0.204204	 0.431080	 0.753658	 5
1461766024.549	 35	 0.007569	 0.132822	 -0.075287	 0.158291	 -1.030618	 1.125943	 -0.452163	 -0.204008	 0.429992	 0.754345	 5
1461766024.559	 35	 -0.038187	 0.170108	 -0.085204	 0.157554	 -1.031636	 1.123529	 -0.452613	 -0.203992	 0.429085	 0.754595	 5
1461766024.569	 35	 -0.074509	 0.184907	 -0.112459	 0.157822	 -1.032452	 1.121719	 -0.453146	 -0.203683	 0.428211	 0.754856	 5
1461766024.579	 35	 -0.101404	 0.174049	 -0.153891	 0.157483	 -1.033618	 1.119260	 -0.453741	 -0.203541	 0.427173	 0.755125	 5
1461766024.589	 35	 -0.114493	 0.153538	 -0.200862	 0.156216	 -1.035023	 1.115949	 -0.454309	 -0.203614	 0.425987	 0.755434	 5
1461766024.599	 35	 -0.120003	 0.159565	 -0.251914	 0.154092	 -1.036562	 1.111674	 -0.454843	 -0.203822	 0.424609	 0.755832	 5
1461766024.609	 35	 -0.139224	 0.199671	 -0.302530	 0.151466	 -1.038310	 1.106436	 -0.455447	 -0.204049	 0.422950	 0.756337	 5
1461766024.619	 35	 -0.177948	 0.261299	 -0.351731	 0.148617	 -1.040477	 1.100303	 -0.456249	 -0.204255	 0.420938	 0.756920	 5
1461766024.629	 35	 -0.227838	 0.352616	 -0.393077	 0.145953	 -1.043166	 1.093417	 -0.457360	 -0.204339	 0.418518	 0.757568	 5
1461766024.639	 35	 -0.281967	 0.450327	 -0.434327	 0.143657	 -1.046431	 1.085832	 -0.458832	 -0.204254	 0.415661	 0.758274	 5
1461766024.649	 35	 -0.339478	 0.521356	 -0.489651	 0.141356	 -1.050321	 1.077357	 -0.460626	 -0.204103	 0.412372	 0.759022	 5
1461766024.659	 35	 -0.399343	 0.567741	 -0.570762	 0.138361	 -1.054891	 1.067484	 -0.462671	 -0.204037	 0.408611	 0.759830	 5
1461766024.669	 35	 -0.479749	 0.577853	 -0.675478	 0.133840	 -1.060311	 1.055668	 -0.464925	 -0.204277	 0.404340	 0.760674	 5
1461766024.679	 35	 -0.583885	 0.540124	 -0.786827	 0.127146	 -1.066820	 1.041678	 -0.467381	 -0.205058	 0.399594	 0.761467	 5
1461766024.689	 35	 -0.697925	 0.438611	 -0.897618	 0.117520	 -1.074530	 1.025383	 -0.469965	 -0.206646	 0.394497	 0.762104	 5
1461766024.699	 35	 -0.806857	 0.294489	 -1.015245	 0.104199	 -1.083376	 1.006482	 -0.472570	 -0.209223	 0.389144	 0.762542	 5
1461766024.709	 35	 -0.876763	 0.056623	 -1.137281	 0.085979	 -1.092996	 0.984541	 -0.474921	 -0.213040	 0.383734	 0.762767	 5
1461766024.729	 36	 -0.868487	 -0.453737	 -1.403214	 0.030950	 -1.112206	 0.929215	 -0.477756	 -0.224751	 0.373208	 0.762858	 5
1461766024.739	 36	 -0.877188	 -0.589866	 -1.551480	 -0.005464	 -1.121119	 0.894955	 -0.478311	 -0.232131	 0.367780	 0.762936	 5
1461766024.749	 36	 -0.907035	 -0.633171	 -1.687015	 -0.046890	 -1.129664	 0.856024	 -0.478636	 -0.240127	 0.361915	 0.763063	 5
1461766024.759	 36	 -0.949732	 -0.552923	 -1.785013	 -0.091733	 -1.137810	 0.812941	 -0.479024	 -0.248247	 0.355433	 0.763267	 5
1461766024.769	 36	 -0.974980	 -0.404558	 -1.869739	 -0.138697	 -1.145317	 0.766150	 -0.479618	 -0.256067	 0.348215	 0.763638	 5
1461766024.779	 36	 -0.960019	 -0.309661	 -1.977694	 -0.188294	 -1.151683	 0.715370	 -0.480213	 -0.263660	 0.340297	 0.764249	 5
1461766024.789	 36	 -0.873972	 -0.285319	 -2.106108	 -0.241241	 -1.156075	 0.660630	 -0.480402	 -0.271258	 0.331865	 0.765179	 5
1461766024.799	 36	 -0.683472	 -0.276281	 -2.249429	 -0.297032	 -1.157292	 0.602743	 -0.479722	 -0.278845	 0.323048	 0.766650	 5
1461766024.809	 36	 -0.443833	 -0.250426	 -2.400482	 -0.354055	 -1.154501	 0.543235	 -0.477907	 -0.286283	 0.313885	 0.768845	 5
1461766024.819	 36	 -0.322081	 -0.275747	 -2.615996	 -0.412712	 -1.148086	 0.481923	 -0.475097	 -0.293920	 0.304184	 0.771600	 5
1461766024.829	 36	 -0.395934	 -0.302118	 -2.908683	 -0.475389	 -1.139231	 0.416370	 -0.471845	 -0.302336	 0.293402	 0.774513	 5
1461766024.839	 36	 -0.579868	 -0.160968	 -3.172208	 -0.541224	 -1.128707	 0.346010	 -0.468829	 -0.311221	 0.281004	 0.777417	 5
1461766024.849	 36	 -0.795005	 0.077705	 -3.347162	 -0.607202	 -1.116962	 0.272605	 -0.466524	 -0.319894	 0.266913	 0.780244	 5
1461766024.859	 36	 -0.943987	 0.279260	 -3.480407	 -0.671677	 -1.103713	 0.198050	 -0.464811	 -0.328199	 0.251416	 0.782960	 5
1461766024.869	 36	 -0.953105	 0.477361	 -3.593587	 -0.732470	 -1.088015	 0.125002	 -0.463163	 -0.335993	 0.234880	 0.785761	 5
1461766024.879	 36	 -0.815105	 0.807451	 -3.633281	 -0.785202	 -1.069035	 0.056445	 -0.461189	 -0.342377	 0.217260	 0.789228	 5
1461766024.889	 36	 -0.677350	 0.513180	 -3.529577	 -0.831798	 -1.048468	 -0.003859	 -0.458554	 -0.348873	 0.200700	 0.792298	 5
1461766024.899	 36	 -0.549872	 0.318948	 -3.714740	 -0.876445	 -1.024672	 -0.059828	 -0.454756	 -0.356405	 0.184314	 0.795110	 5
1461766024.909	 36	 -0.360570	 0.346733	 -3.913296	 -0.916809	 -0.997037	 -0.111349	 -0.449726	 -0.364199	 0.167423	 0.798170	 5
1461766024.919	 36	 -0.130091	 0.419820	 -4.008410	 -0.950530	 -0.966078	 -0.156744	 -0.443454	 -0.371644	 0.150228	 0.801662	 5
1461766024.929	 36	 0.027743	 0.470833	 -4.096702	 -0.978383	 -0.932666	 -0.196621	 -0.436162	 -0.378755	 0.132870	 0.805390	 5
1461766024.939	 36	 0.112200	 0.652234	 -4.274797	 -1.001530	 -0.896798	 -0.233346	 -0.428071	 -0.385425	 0.114698	 0.809350	 5
1461766024.949	 36	 0.079783	 0.664252	 -4.390571	 -1.021721	 -0.859307	 -0.268318	 -0.419560	 -0.391892	 0.095761	 0.813154	 5
1461766024.959	 36	 -0.111475	 0.789871	 -4.598757	 -1.040801	 -0.820627	 -0.304010	 -0.411141	 -0.398293	 0.075585	 0.816463	 5
1461766024.969	 36	 -0.211999	 0.794001	 -4.656461	 -1.058513	 -0.781252	 -0.339708	 -0.402859	 -0.404582	 0.054560	 0.819171	 5
1461766024.979	 36	 -0.208426	 0.898007	 -4.686431	 -1.073162	 -0.741347	 -0.373619	 -0.394412	 -0.410369	 0.033175	 0.821545	 5
1461766024.989	 36	 -0.044858	 0.946562	 -4.671417	 -1.083929	 -0.700587	 -0.404132	 -0.385249	 -0.415634	 0.011921	 0.823826	 5
1461766024.999	 36	 0.246504	 0.977391	 -4.702443	 -1.090692	 -0.658280	 -0.430273	 -0.374765	 -0.420560	 -0.008919	 0.826197	 5
1461766025.009	 36	 0.610824	 1.098345	 -4.742857	 -1.092801	 -0.613895	 -0.451640	 -0.362510	 -0.424950	 -0.029348	 0.828941	 5
1461766025.019	 36	 0.906344	 1.352341	 -4.798486	 -1.089811	 -0.567594	 -0.469240	 -0.348571	 -0.428304	 -0.049694	 0.832216	 5
1461766025.029	 36	 1.115097	 1.759783	 -4.849800	 -1.081274	 -0.519809	 -0.484606	 -0.333245	 -0.429999	 -0.070406	 0.836117	 5
1461766025.039	 36	 1.244133	 2.221820	 -4.884992	 -1.067082	 -0.471166	 -0.498729	 -0.316798	 -0.429644	 -0.091581	 0.840629	 5
1461766025.049	 36	 1.201205	 3.223646	 -5.061804	 -1.043717	 -0.421419	 -0.514497	 -0.299370	 -0.425296	 -0.114847	 0.846352	 5
1461766025.059	 36	 1.321301	 3.154739	 -4.835418	 -1.017841	 -0.372754	 -0.529899	 -0.281548	 -0.419716	 -0.137581	 0.851845	 5
1461766025.069	 36	 1.374730	 3.540313	 -4.738508	 -0.988620	 -0.325356	 -0.544766	 -0.263266	 -0.412544	 -0.159691	 0.857320	 5
1461766025.079	 36	 1.492751	 3.772932	 -4.587099	 -0.955795	 -0.278858	 -0.559602	 -0.244387	 -0.403657	 -0.181412	 0.862801	 5
1461766025.089	 36	 1.865585	 3.946202	 -4.157099	 -0.919688	 -0.233942	 -0.571121	 -0.224511	 -0.393466	 -0.201011	 0.868547	 5
1461766025.099	 36	 2.315584	 4.052355	 -3.564268	 -0.880629	 -0.191099	 -0.577047	 -0.203460	 -0.382185	 -0.217240	 0.874840	 5
1461766025.109	 36	 2.616774	 4.076889	 -2.993282	 -0.840092	 -0.150715	 -0.578114	 -0.181803	 -0.370180	 -0.230102	 0.881457	 5
1461766025.119	 36	 2.720843	 4.041564	 -2.542634	 -0.799312	 -0.112911	 -0.576370	 -0.160246	 -0.357688	 -0.240348	 0.888039	 5
1461766025.129	 36	 2.662674	 3.911931	 -2.255578	 -0.759597	 -0.077542	 -0.573963	 -0.139387	 -0.345114	 -0.248908	 0.894154	 5
1461766025.139	 36	 2.524699	 3.759924	 -2.152412	 -0.721559	 -0.044022	 -0.572681	 -0.119433	 -0.332732	 -0.256743	 0.899504	 5
1461766025.149	 36	 2.367713	 3.532581	 -2.178739	 -0.685596	 -0.011654	 -0.573627	 -0.100350	 -0.320835	 -0.264555	 0.903884	 5
1461766025.159	 36	 2.161071	 3.195742	 -2.217376	 -0.652764	 0.019434	 -0.577211	 -0.082426	 -0.309963	 -0.272564	 0.907104	 5
1461766025.169	 36	 1.910277	 2.959369	 -2.206734	 -0.622512	 0.048461	 -0.583238	 -0.065933	 -0.299869	 -0.280715	 0.909357	 5
1461766025.179	 36	 1.624378	 2.929811	 -2.144837	 -0.592769	 0.074756	 -0.591301	 -0.050848	 -0.289611	 -0.288905	 0.911084	 5
1461766025.189	 36	 1.243477	 3.092233	 -2.048353	 -0.561465	 0.097354	 -0.601373	 -0.037306	 -0.278162	 -0.297120	 0.912663	 5
1461766025.199	 36	 0.743754	 3.350127	 -1.888133	 -0.527406	 0.114817	 -0.613439	 -0.025763	 -0.264808	 -0.305273	 0.914342	 5
1461766025.209	 36	 0.264923	 3.679728	 -1.658152	 -0.489867	 0.126514	 -0.626703	 -0.016257	 -0.249127	 -0.313033	 0.916342	 5
1461766025.219	 36	 -0.035049	 4.059556	 -1.207655	 -0.448629	 0.132823	 -0.638552	 -0.008234	 -0.231039	 -0.319356	 0.919002	 5
1461766025.229	 36	 -0.203933	 4.196128	 -0.630468	 -0.405752	 0.134516	 -0.646363	 -0.001424	 -0.211530	 -0.323209	 0.922382	 5
1461766025.239	 36	 -0.254969	 4.025620	 -0.110452	 -0.364478	 0.133082	 -0.649485	 0.004276	 -0.192243	 -0.324507	 0.926131	 5
1461766025.249	 36	 -0.220557	 3.638113	 0.147820	 -0.327135	 0.130539	 -0.649271	 0.009162	 -0.174531	 -0.324102	 0.929738	 5
1461766025.259	 36	 -0.088701	 3.352326	 0.099250	 -0.293136	 0.128944	 -0.648498	 0.013983	 -0.158452	 -0.323445	 0.932781	 5
1461766025.269	 36	 0.096053	 3.224607	 0.015455	 -0.260645	 0.129348	 -0.648038	 0.019458	 -0.143336	 -0.322981	 0.935286	 5
1461766025.279	 36	 0.184377	 2.970985	 -0.015384	 -0.230215	 0.131010	 -0.647727	 0.025173	 -0.129342	 -0.322575	 0.937327	 5
1461766025.289	 36	 0.246556	 2.580443	 -0.017428	 -0.203448	 0.133293	 -0.647401	 0.030583	 -0.117134	 -0.322142	 0.938919	 5
1461766025.299	 36	 0.359908	 2.180166	 -0.021073	 -0.180747	 0.136550	 -0.646953	 0.035799	 -0.106968	 -0.321668	 0.940110	 5
1461766025.309	 36	 0.518338	 1.847715	 -0.040467	 -0.161543	 0.141313	 -0.646500	 0.041158	 -0.098666	 -0.321226	 0.940949	 5
1461766025.319	 36	 0.680364	 1.551820	 -0.004132	 -0.145427	 0.147687	 -0.645686	 0.046794	 -0.092053	 -0.320646	 0.941553	 5
1461766025.329	 36	 0.745647	 1.301168	 0.071833	 -0.132080	 0.154915	 -0.644128	 0.052416	 -0.086851	 -0.319732	 0.942062	 5
1461766025.339	 36	 0.637509	 1.193283	 0.111204	 -0.120282	 0.161494	 -0.642219	 0.057490	 -0.082258	 -0.318623	 0.942554	 5
1461766025.349	 36	 0.361382	 1.227269	 0.139503	 -0.108484	 0.165695	 -0.640384	 0.061426	 -0.077292	 -0.317466	 0.943116	 5
1461766025.359	 36	 0.003803	 1.394615	 0.191067	 -0.095328	 0.166459	 -0.638508	 0.063941	 -0.071144	 -0.316178	 0.943865	 5
1461766025.369	 36	 -0.336308	 1.597420	 0.299294	 -0.080296	 0.163685	 -0.636029	 0.065081	 -0.063538	 -0.314500	 0.944890	 5
1461766025.379	 36	 -0.571680	 1.770677	 0.482004	 -0.063461	 0.158202	 -0.631999	 0.065240	 -0.054604	 -0.312022	 0.946258	 5
1461766025.389	 36	 -0.746393	 1.506177	 0.604692	 -0.048285	 0.150827	 -0.626528	 0.064236	 -0.046111	 -0.308930	 0.947792	 5
1461766025.399	 36	 -0.778567	 1.004386	 0.623750	 -0.037914	 0.142708	 -0.620563	 0.062104	 -0.039768	 -0.305782	 0.949241	 5
1461766025.409	 36	 -0.536822	 0.730879	 0.553023	 -0.030889	 0.136381	 -0.614943	 0.060271	 -0.035305	 -0.302913	 0.950455	 5
1461766025.419	 36	 -0.150419	 0.658374	 0.391251	 -0.024715	 0.133757	 -0.610634	 0.060027	 -0.031846	 -0.300688	 0.951299	 5
1461766025.429	 36	 0.217681	 0.506542	 0.283254	 -0.019622	 0.135010	 -0.607555	 0.061434	 -0.029517	 -0.299062	 0.951796	 5
1461766025.439	 36	 0.422635	 0.306919	 0.265757	 -0.016458	 0.138821	 -0.604774	 0.063761	 -0.028490	 -0.297618	 0.952127	 5
1461766025.459	 37	 0.278103	 0.349733	 0.097958	 -0.011739	 0.146188	 -0.601029	 0.068022	 -0.027208	 -0.295626	 0.952490	 5
1461766025.469	 37	 0.115395	 0.565304	 -0.014788	 -0.006604	 0.147739	 -0.600902	 0.069521	 -0.024987	 -0.295375	 0.952521	 5
1461766025.479	 37	 -0.021960	 0.675936	 -0.067982	 0.000044	 0.147841	 -0.601496	 0.070545	 -0.021857	 -0.295424	 0.952507	 5
1461766025.489	 37	 -0.097693	 0.681497	 -0.065139	 0.007002	 0.147006	 -0.602190	 0.071168	 -0.018444	 -0.295518	 0.952504	 5
1461766025.509	 38	 0.017256	 0.341231	 -0.006426	 0.017362	 0.146048	 -0.602703	 0.072238	 -0.013387	 -0.295404	 0.952543	 5
1461766025.519	 38	 0.133852	 -0.042106	 -0.019535	 0.018019	 0.147073	 -0.602868	 0.072823	 -0.013232	 -0.295444	 0.952489	 5
1461766025.529	 38	 0.229359	 -0.588192	 -0.043566	 0.013648	 0.149159	 -0.603290	 0.073166	 -0.015638	 -0.295773	 0.952324	 5
1461766025.539	 38	 0.246003	 -1.114873	 -0.063532	 0.003881	 0.151636	 -0.603911	 0.072894	 -0.020678	 -0.296392	 0.952056	 5
1461766025.549	 38	 0.124020	 -1.403868	 -0.070488	 -0.009750	 0.153247	 -0.604621	 0.071629	 -0.027430	 -0.297206	 0.951728	 5
1461766025.559	 38	 -0.018076	 -0.986510	 -0.069630	 -0.020823	 0.153439	 -0.605339	 0.070062	 -0.032753	 -0.297938	 0.951447	 5
1461766025.569	 38	 -0.174117	 -0.391205	 -0.029694	 -0.026154	 0.152107	 -0.605808	 0.068625	 -0.035108	 -0.298354	 0.951337	 5
1461766025.579	 38	 -0.361478	 0.094906	 0.046801	 -0.026329	 0.148982	 -0.605633	 0.067115	 -0.034722	 -0.298292	 0.951479	 5
1461766025.589	 38	 -0.537784	 0.413130	 0.150413	 -0.023041	 0.143978	 -0.604511	 0.065241	 -0.032379	 -0.297675	 0.951885	 5
1461766025.599	 38	 -0.610562	 0.507695	 0.254240	 -0.018355	 0.137938	 -0.602314	 0.063094	 -0.029184	 -0.296512	 0.952496	 5
