% Gyrometer data recorded with 'snsrlog'
% 
% 
% Label description:
% 	 0: Default Label
% 	 1: still_drop
% 	 2: walk_drop
% 	 3: other
% 	 4: dtw_same
% 	 5: dtw_diff
% 	 6: delete
% 
% Column description:
% 	 1: Seconds.milliseconds since 1970
% 	 2: Number of skipped measurements
% 	 3: Gyro X
% 	 4: Gyro Y
% 	 5: Gyro Z
% 	 6: Roll of the device
% 	 7: Pitch of the device
% 	 8: Yaw of the device
% 	 9: Quaternion X
% 	 10: Quaternion Y
% 	 11: Quaternion Z
% 	 12: Quaternion W
% 	 13: Label used for the current sample
% 
% 
1462074442.073	 0	 -0.825267	 1.453646	 1.523754	 0.064736	 0.157449	 -0.177198	 0.081148	 0.025181	 -0.085628	 0.992698	 2
1462074442.083	 0	 -0.511973	 1.526605	 1.590979	 0.077406	 0.152629	 -0.160816	 0.079036	 0.032337	 -0.077087	 0.993361	 2
1462074442.093	 0	 -0.129147	 1.513363	 1.533169	 0.090177	 0.151650	 -0.144943	 0.078731	 0.039346	 -0.068721	 0.993746	 2
1462074442.103	 0	 0.283037	 1.507522	 1.334491	 0.103142	 0.154791	 -0.131097	 0.080416	 0.046226	 -0.061242	 0.993804	 2
1462074442.113	 0	 0.662833	 1.519025	 1.021155	 0.116647	 0.161683	 -0.120615	 0.083971	 0.053136	 -0.055273	 0.993514	 2
1462074442.123	 0	 0.949128	 1.473721	 0.610054	 0.130470	 0.171346	 -0.114485	 0.088962	 0.059958	 -0.051311	 0.992904	 2
1462074442.133	 0	 1.136926	 1.632529	 0.145224	 0.146073	 0.182583	 -0.113379	 0.094893	 0.067399	 -0.049631	 0.991962	 2
1462074442.143	 0	 1.118045	 1.930718	 -0.396442	 0.165342	 0.193456	 -0.117725	 0.100916	 0.076386	 -0.050392	 0.990677	 2
1462074442.153	 0	 0.816248	 2.449743	 -0.960233	 0.190323	 0.200925	 -0.127646	 0.105666	 0.087978	 -0.053661	 0.989048	 2
1462074442.163	 0	 0.354845	 3.096455	 -1.288044	 0.222344	 0.203065	 -0.140865	 0.108250	 0.103009	 -0.058362	 0.987049	 2
1462074442.173	 0	 -0.077734	 3.544856	 -1.377090	 0.259595	 0.200029	 -0.154409	 0.108646	 0.120767	 -0.063211	 0.984691	 2
1462074442.183	 0	 -0.323848	 3.693936	 -1.452426	 0.298878	 0.193436	 -0.167649	 0.107563	 0.139672	 -0.068079	 0.981981	 2
1462074442.203	 1	 -0.400852	 3.491799	 -1.787231	 0.378166	 0.173859	 -0.196886	 0.103263	 0.177961	 -0.079928	 0.975335	 2
1462074442.213	 1	 -0.477651	 3.072745	 -1.817106	 0.412639	 0.162686	 -0.212168	 0.100702	 0.194613	 -0.086745	 0.971833	 2
1462074442.223	 1	 -0.692101	 2.615103	 -1.797116	 0.442019	 0.149499	 -0.226051	 0.097054	 0.208990	 -0.093468	 0.968591	 2
1462074442.243	 2	 -1.370881	 2.444386	 -2.145562	 0.493226	 0.112085	 -0.251915	 0.084507	 0.234983	 -0.108067	 0.962270	 2
1462074442.253	 2	 -1.741657	 2.974688	 -2.355880	 0.522629	 0.086413	 -0.264057	 0.075343	 0.250370	 -0.115995	 0.958219	 2
1462074442.263	 2	 -1.922463	 3.880743	 -2.741273	 0.559923	 0.056637	 -0.276894	 0.065070	 0.269810	 -0.124830	 0.952568	 2
1462074442.273	 2	 -1.811619	 4.976151	 -3.004880	 0.607412	 0.024868	 -0.291348	 0.055147	 0.294146	 -0.134826	 0.944594	 2
1462074442.283	 2	 -1.441441	 6.065377	 -2.989441	 0.665653	 -0.005471	 -0.306399	 0.047302	 0.323283	 -0.145109	 0.933913	 2
1462074442.303	 3	 -0.386954	 6.744971	 -2.424247	 0.798197	 -0.052749	 -0.336114	 0.041018	 0.387045	 -0.164171	 0.906400	 2
1462074442.313	 3	 -0.067511	 5.972087	 -1.952496	 0.859594	 -0.068987	 -0.349227	 0.041473	 0.415552	 -0.171985	 0.892198	 2
1462074442.323	 3	 -0.111266	 4.859182	 -1.434919	 0.910334	 -0.081469	 -0.358557	 0.042336	 0.438730	 -0.177647	 0.879867	 2
1462074442.333	 3	 -0.630280	 3.658590	 -1.174065	 0.949645	 -0.094073	 -0.362050	 0.041085	 0.456742	 -0.181089	 0.870003	 2
1462074442.343	 3	 -1.352015	 2.466221	 -1.181008	 0.977552	 -0.110294	 -0.359033	 0.035829	 0.469987	 -0.182872	 0.862778	 2
1462074442.363	 4	 -2.553549	 0.959314	 -1.781396	 1.007318	 -0.159030	 -0.339511	 0.012711	 0.485946	 -0.185280	 0.854029	 2
1462074442.373	 4	 -2.816819	 1.062069	 -2.091481	 1.019622	 -0.190821	 -0.326451	 -0.003104	 0.492848	 -0.187065	 0.849763	 2
1462074442.383	 4	 -2.731065	 1.607512	 -2.375974	 1.036569	 -0.225019	 -0.314461	 -0.019245	 0.501458	 -0.190092	 0.843822	 2
1462074442.393	 4	 -2.398287	 2.473377	 -2.376143	 1.061436	 -0.258189	 -0.304505	 -0.033616	 0.512973	 -0.194120	 0.835491	 2
1462074442.403	 4	 -1.922869	 3.340107	 -2.199564	 1.094758	 -0.287705	 -0.296855	 -0.044894	 0.527515	 -0.198762	 0.824746	 2
1462074442.423	 5	 -0.823452	 4.724710	 -1.638859	 1.181876	 -0.332176	 -0.289828	 -0.056502	 0.563540	 -0.209412	 0.797105	 2
1462074442.443	 6	 0.357976	 5.135114	 -1.035710	 1.281031	 -0.356213	 -0.296864	 -0.053507	 0.602695	 -0.221411	 0.764770	 2
1462074442.453	 6	 0.946571	 4.997541	 -0.995221	 1.327508	 -0.363644	 -0.307935	 -0.047822	 0.620598	 -0.228891	 0.748452	 2
1462074442.463	 6	 1.411482	 4.835390	 -1.167037	 1.370417	 -0.371645	 -0.324188	 -0.040806	 0.636874	 -0.238194	 0.732114	 2
1462074442.473	 6	 1.746434	 4.596183	 -1.456738	 1.409580	 -0.382242	 -0.344509	 -0.033534	 0.651466	 -0.249437	 0.715715	 2
1462074442.483	 6	 1.969066	 4.129221	 -1.811526	 1.443431	 -0.396462	 -0.367695	 -0.026928	 0.663845	 -0.262463	 0.699784	 2
1462074442.493	 6	 2.076835	 3.517959	 -2.164525	 1.470406	 -0.414816	 -0.392501	 -0.021815	 0.673545	 -0.276996	 0.684934	 2
1462074442.503	 6	 2.016807	 2.763319	 -2.409755	 1.489810	 -0.436427	 -0.417178	 -0.018650	 0.680437	 -0.292200	 0.671771	 2
1462074442.513	 6	 1.758962	 2.049502	 -2.532452	 1.502327	 -0.460095	 -0.439528	 -0.017791	 0.684860	 -0.307018	 0.660599	 2
1462074442.523	 6	 1.394458	 1.439270	 -2.494458	 1.509819	 -0.484225	 -0.458018	 -0.019045	 0.687510	 -0.320514	 0.651335	 2
1462074442.533	 6	 1.070986	 0.789718	 -2.288796	 1.512481	 -0.506991	 -0.472593	 -0.021854	 0.688511	 -0.332157	 0.644319	 2
1462074442.543	 6	 0.850984	 0.035388	 -1.969908	 1.508924	 -0.526952	 -0.484352	 -0.025647	 0.687473	 -0.341877	 0.640189	 2
1462074442.553	 6	 0.662628	 -0.577522	 -1.643585	 1.499659	 -0.543664	 -0.493903	 -0.030048	 0.684604	 -0.349753	 0.638817	 2
1462074442.563	 6	 0.481457	 -0.953879	 -1.401451	 1.487011	 -0.557761	 -0.501383	 -0.034872	 0.680648	 -0.356057	 0.639316	 2
1462074442.573	 6	 0.341458	 -1.123606	 -1.249407	 1.472999	 -0.570205	 -0.507133	 -0.040000	 0.676242	 -0.361218	 0.640795	 2
1462074442.583	 6	 0.315317	 -1.105681	 -1.134976	 1.458988	 -0.581423	 -0.512304	 -0.044940	 0.671833	 -0.365763	 0.642525	 2
1462074442.593	 6	 0.387544	 -1.018103	 -1.055923	 1.445332	 -0.591656	 -0.518200	 -0.049270	 0.667563	 -0.370201	 0.644115	 2
1462074442.603	 6	 0.471619	 -0.877640	 -1.012718	 1.432170	 -0.601196	 -0.525231	 -0.052933	 0.663492	 -0.374762	 0.645391	 2
1462074442.613	 6	 0.550215	 -0.583634	 -0.919011	 1.420951	 -0.609833	 -0.533258	 -0.055622	 0.660090	 -0.379398	 0.645945	 2
1462074442.623	 6	 0.667004	 -0.220723	 -0.694972	 1.412608	 -0.616341	 -0.542341	 -0.056662	 0.657661	 -0.383845	 0.645705	 2
1462074442.633	 6	 0.812716	 0.090631	 -0.382141	 1.406822	 -0.619685	 -0.552650	 -0.055650	 0.656094	 -0.387898	 0.644965	 2
1462074442.653	 7	 1.074366	 0.381625	 0.396295	 1.399324	 -0.614351	 -0.576072	 -0.047433	 0.654243	 -0.393848	 0.643894	 2
1462074442.663	 7	 1.176660	 0.372438	 0.637247	 1.395858	 -0.606542	 -0.588655	 -0.041056	 0.653310	 -0.395786	 0.644092	 2
1462074442.673	 7	 1.246638	 0.397598	 0.761566	 1.392275	 -0.597210	 -0.601820	 -0.033942	 0.652249	 -0.397536	 0.644503	 2
1462074442.683	 7	 1.243548	 0.487270	 0.952133	 1.389692	 -0.586127	 -0.614718	 -0.026060	 0.651379	 -0.398786	 0.644978	 2
1462074442.693	 7	 1.093956	 0.472432	 1.192028	 1.388604	 -0.572930	 -0.625702	 -0.017707	 0.650815	 -0.398906	 0.645756	 2
1462074442.703	 7	 0.764101	 0.464608	 1.446347	 1.389443	 -0.557823	 -0.632714	 -0.009541	 0.650691	 -0.397265	 0.647063	 2
1462074442.713	 7	 0.233130	 0.381618	 1.667614	 1.393068	 -0.541187	 -0.633823	 -0.002172	 0.651330	 -0.393298	 0.648908	 2
1462074442.723	 7	 -0.835547	 -0.014483	 1.761691	 1.398900	 -0.524952	 -0.624266	 0.001978	 0.652677	 -0.385912	 0.651983	 2
1462074442.733	 7	 -1.830149	 -0.267643	 1.796770	 1.407543	 -0.509960	 -0.601984	 0.001987	 0.655035	 -0.374599	 0.656202	 2
1462074442.743	 7	 -2.695463	 -0.617734	 1.717917	 1.417295	 -0.496645	 -0.571067	 -0.001360	 0.657864	 -0.360774	 0.661102	 2
1462074442.753	 7	 -3.274350	 -0.779135	 1.521093	 1.427734	 -0.485807	 -0.532970	 -0.008014	 0.660982	 -0.345126	 0.666279	 2
1462074442.763	 7	 -3.262889	 -1.004109	 1.449625	 1.436556	 -0.475931	 -0.493846	 -0.015786	 0.663528	 -0.329272	 0.671611	 2
1462074442.773	 7	 -2.628094	 -1.204350	 1.374026	 1.439937	 -0.465872	 -0.460316	 -0.022613	 0.664228	 -0.315073	 0.677509	 2
1462074442.783	 7	 -1.666306	 -0.542858	 1.459199	 1.442493	 -0.454148	 -0.437076	 -0.025561	 0.664722	 -0.303756	 0.682073	 2
1462074442.793	 7	 -0.617702	 1.051601	 1.604521	 1.453727	 -0.439706	 -0.425309	 -0.022420	 0.668320	 -0.295577	 0.682261	 2
1462074442.803	 7	 0.213237	 2.428657	 1.749715	 1.475932	 -0.422607	 -0.423513	 -0.013445	 0.675740	 -0.289993	 0.677568	 2
1462074442.813	 7	 1.084185	 2.617051	 1.827014	 1.499340	 -0.403917	 -0.431161	 -0.000617	 0.683502	 -0.286902	 0.671202	 2
1462074442.823	 7	 1.824629	 2.339484	 1.838242	 1.516843	 -0.384444	 -0.448006	 0.014749	 0.689048	 -0.286393	 0.665563	 2
1462074442.833	 7	 2.053191	 2.262350	 1.707642	 1.531914	 -0.366047	 -0.468783	 0.030727	 0.693475	 -0.287312	 0.660000	 2
1462074442.843	 7	 2.218142	 2.364372	 1.469490	 1.547265	 -0.350079	 -0.491389	 0.046518	 0.697700	 -0.289371	 0.653694	 2
1462074442.853	 7	 2.639862	 2.565943	 1.275857	 1.563694	 -0.336558	 -0.517905	 0.062987	 0.701912	 -0.293217	 0.646046	 2
1462074442.863	 7	 3.222580	 2.433733	 1.173635	 1.577930	 -0.324580	 -0.550397	 0.080737	 0.704884	 -0.299291	 0.638000	 2
1462074442.873	 7	 3.700769	 2.175555	 0.965639	 1.588471	 -0.314718	 -0.588395	 0.099181	 0.706092	 -0.307693	 0.630018	 2
1462074442.883	 7	 3.882706	 1.778051	 0.492487	 1.594873	 -0.309277	 -0.629048	 0.116415	 0.705630	 -0.318333	 0.622253	 2
1462074442.893	 7	 3.762546	 1.266502	 -0.135764	 1.596690	 -0.310006	 -0.668999	 0.130536	 0.703767	 -0.330810	 0.615009	 2
1462074442.903	 7	 3.527294	 0.729223	 -0.691846	 1.593738	 -0.316540	 -0.706575	 0.140988	 0.700730	 -0.344560	 0.608587	 2
1462074442.913	 7	 3.294541	 0.306312	 -1.023075	 1.586673	 -0.326744	 -0.741654	 0.148496	 0.696755	 -0.358857	 0.603078	 2
1462074442.923	 7	 3.103913	 0.006344	 -1.104139	 1.576563	 -0.338085	 -0.774849	 0.154271	 0.692041	 -0.373043	 0.598430	 2
1462074442.933	 7	 2.997750	 -0.170377	 -1.022795	 1.564463	 -0.348549	 -0.806890	 0.159410	 0.686740	 -0.386668	 0.594528	 2
1462074442.943	 7	 2.929387	 -0.252544	 -0.940901	 1.551165	 -0.357719	 -0.838415	 0.164404	 0.681012	 -0.399767	 0.591084	 2
1462074442.953	 7	 2.794965	 -0.243640	 -0.940713	 1.537827	 -0.366348	 -0.868983	 0.169069	 0.675298	 -0.412352	 0.587668	 2
1462074442.963	 7	 2.578969	 -0.112145	 -0.935477	 1.525926	 -0.374712	 -0.897661	 0.173320	 0.670141	 -0.424110	 0.583954	 2
1462074442.973	 7	 2.373872	 0.101983	 -0.971132	 1.516600	 -0.383063	 -0.924183	 0.177270	 0.665923	 -0.434931	 0.579618	 2
1462074442.983	 7	 2.247427	 0.246760	 -1.004920	 1.509277	 -0.391735	 -0.949323	 0.180988	 0.662444	 -0.445173	 0.574659	 2
1462074442.993	 7	 2.190920	 0.280765	 -1.031822	 1.502614	 -0.400506	 -0.973896	 0.184553	 0.659220	 -0.455126	 0.569411	 2
1462074443.003	 7	 2.140584	 0.271095	 -1.065578	 1.495792	 -0.409496	 -0.998024	 0.187787	 0.656024	 -0.464929	 0.564102	 2
1462074443.013	 7	 2.111312	 0.272459	 -1.182544	 1.488919	 -0.419239	 -1.022111	 0.190661	 0.652914	 -0.474815	 0.558482	 2
1462074443.023	 7	 1.884400	 -0.001040	 -1.295018	 1.480488	 -0.430267	 -1.044794	 0.192184	 0.649679	 -0.484672	 0.553242	 2
1462074443.033	 7	 1.379207	 -0.490325	 -1.355921	 1.469209	 -0.442135	 -1.062861	 0.191138	 0.646248	 -0.493623	 0.549697	 2
1462074443.043	 7	 0.738723	 -1.072457	 -1.514560	 1.454880	 -0.455767	 -1.074576	 0.186575	 0.642856	 -0.501434	 0.548169	 2
1462074443.063	 7	 -0.310969	 -1.889250	 -1.783725	 1.419323	 -0.489788	 -1.080703	 0.167477	 0.636690	 -0.514069	 0.549827	 2
1462074443.073	 7	 -0.654731	 -1.986555	 -1.700639	 1.401208	 -0.507776	 -1.077327	 0.155294	 0.634147	 -0.518579	 0.552102	 2
1462074443.053	 7	 0.152913	 -1.572049	 -1.709143	 1.437858	 -0.471914	 -1.080118	 0.178369	 0.639652	 -0.508257	 0.548366	 2
1462074443.093	 8	 -0.614882	 -1.795312	 -1.567053	 1.368411	 -0.541941	 -1.068040	 0.131436	 0.629780	 -0.525666	 0.556576	 2
1462074443.103	 8	 -0.327517	 -1.728128	 -1.573193	 1.351399	 -0.558155	 -1.067256	 0.120773	 0.626984	 -0.529872	 0.558158	 2
1462074443.113	 8	 0.027339	 -1.611107	 -1.573063	 1.333029	 -0.573601	 -1.070729	 0.111288	 0.623455	 -0.535017	 0.559174	 2
1462074443.133	 8	 0.708134	 -1.030760	 -1.204831	 1.297504	 -0.598166	 -1.090105	 0.098581	 0.615436	 -0.547017	 0.558831	 2
1462074443.123	 8	 0.409853	 -1.342653	 -1.506752	 1.314408	 -0.587762	 -1.078887	 0.103578	 0.619480	 -0.541061	 0.559257	 2
1462074443.143	 8	 0.813011	 -0.887466	 -0.763185	 1.281431	 -0.604341	 -1.102391	 0.095634	 0.611108	 -0.552363	 0.558835	 2
1462074443.153	 8	 0.627663	 -0.830590	 -0.475417	 1.267349	 -0.607370	 -1.112350	 0.093633	 0.607081	 -0.556354	 0.559602	 2
1462074443.163	 8	 0.117241	 -0.699083	 -0.440974	 1.257148	 -0.610720	 -1.117020	 0.090953	 0.604440	 -0.558718	 0.560547	 2
1462074443.173	 8	 -0.571667	 -0.413586	 -0.657195	 1.253931	 -0.617659	 -1.114645	 0.086739	 0.604538	 -0.559395	 0.560435	 2
1462074443.183	 8	 -1.055367	 -0.631828	 -0.733881	 1.253243	 -0.627549	 -1.106295	 0.080311	 0.605949	 -0.558783	 0.560480	 2
1462074443.193	 8	 -1.284263	 -0.982026	 -0.717028	 1.251295	 -0.638272	 -1.094480	 0.072154	 0.607178	 -0.557381	 0.561654	 2
1462074443.203	 8	 -1.349273	 -1.172370	 -0.737417	 1.247656	 -0.649419	 -1.081449	 0.062980	 0.607932	 -0.555744	 0.563561	 2
1462074443.213	 8	 -1.350081	 -1.065392	 -0.799295	 1.244538	 -0.661135	 -1.068468	 0.053733	 0.608792	 -0.554168	 0.565139	 2
1462074443.223	 8	 -1.391364	 -0.864306	 -0.953731	 1.243349	 -0.674047	 -1.055542	 0.044566	 0.610221	 -0.552737	 0.565797	 2
1462074443.233	 8	 -1.501421	 -0.591121	 -1.313656	 1.244864	 -0.690328	 -1.042649	 0.034852	 0.612654	 -0.551824	 0.564740	 2
1462074443.243	 8	 -1.684256	 -0.336033	 -1.705088	 1.249647	 -0.710757	 -1.029075	 0.024220	 0.616279	 -0.551390	 0.561768	 2
1462074443.253	 8	 -1.916698	 -0.204059	 -2.080182	 1.257486	 -0.735446	 -1.013822	 0.012253	 0.620948	 -0.551231	 0.557152	 2
1462074443.263	 8	 -2.077815	 -0.355045	 -2.431886	 1.265948	 -0.764005	 -0.996965	 -0.001557	 0.625806	 -0.551369	 0.551685	 2
1462074443.273	 8	 -2.207935	 -0.339593	 -2.700247	 1.275180	 -0.795607	 -0.978710	 -0.016793	 0.630694	 -0.551749	 0.545451	 2
1462074443.283	 8	 -2.288850	 -0.237609	 -3.042835	 1.286644	 -0.830355	 -0.959281	 -0.033015	 0.635884	 -0.552503	 0.537869	 2
1462074443.293	 8	 -2.272588	 -0.061976	 -3.456989	 1.300009	 -0.868871	 -0.939958	 -0.050129	 0.641194	 -0.554136	 0.528480	 2
1462074443.303	 8	 -2.134881	 0.269863	 -3.841972	 1.315647	 -0.910722	 -0.922053	 -0.067405	 0.646589	 -0.556975	 0.516874	 2
1462074443.313	 8	 -1.906339	 0.810283	 -4.174648	 1.334558	 -0.955234	 -0.906801	 -0.083852	 0.652225	 -0.561290	 0.502518	 2
1462074443.323	 8	 -1.632121	 1.481824	 -4.447885	 1.357674	 -1.001752	 -0.894599	 -0.098746	 0.658228	 -0.567135	 0.485121	 2
1462074443.333	 8	 -1.281190	 2.402490	 -4.510582	 1.386729	 -1.048842	 -0.885796	 -0.110845	 0.664896	 -0.574452	 0.464361	 2
1462074443.343	 8	 -0.775971	 2.896924	 -4.179994	 1.418382	 -1.092557	 -0.882040	 -0.119003	 0.671492	 -0.582741	 0.441984	 2
1462074443.353	 8	 -0.128626	 2.538723	 -3.594261	 1.442374	 -1.129732	 -0.885395	 -0.124358	 0.676165	 -0.591121	 0.421797	 2
1462074443.363	 8	 0.525008	 2.035837	 -2.864983	 1.451100	 -1.158929	 -0.900023	 -0.127366	 0.678142	 -0.599466	 0.405637	 2
1462074443.373	 8	 0.983874	 1.992994	 -2.281076	 1.443075	 -1.181723	 -0.930144	 -0.127807	 0.677869	 -0.608522	 0.392250	 2
1462074443.383	 8	 1.226285	 2.342332	 -2.117940	 1.428925	 -1.201218	 -0.969462	 -0.125876	 0.677213	 -0.618042	 0.378896	 2
1462074443.393	 8	 0.963486	 2.594453	 -2.217751	 1.417608	 -1.221346	 -1.008955	 -0.123318	 0.677252	 -0.627369	 0.364047	 2
1462074443.403	 8	 -0.019562	 2.086961	 -2.195796	 1.423812	 -1.242782	 -1.026343	 -0.123225	 0.679135	 -0.633548	 0.349583	 2
1462074443.413	 8	 -0.845428	 1.220329	 -2.207327	 1.449553	 -1.265450	 -1.014424	 -0.127280	 0.682364	 -0.635939	 0.337285	 2
1462074443.423	 8	 -1.459785	 0.989687	 -1.847094	 1.494470	 -1.286795	 -0.977306	 -0.133329	 0.686688	 -0.635509	 0.326820	 2
1462074443.433	 8	 -2.056046	 1.544359	 -0.549300	 1.575770	 -1.295429	 -0.907830	 -0.134612	 0.694662	 -0.631037	 0.317987	 2
1462074443.443	 8	 -2.169280	 1.445362	 -0.459711	 1.668145	 -1.298696	 -0.827337	 -0.134853	 0.703474	 -0.625190	 0.309962	 2
1462074443.453	 8	 -2.097756	 1.191577	 -0.959341	 1.760859	 -1.303719	 -0.744223	 -0.137049	 0.711440	 -0.619797	 0.301533	 2
1462074443.463	 8	 -2.226459	 0.766339	 -1.422587	 1.859592	 -1.311391	 -0.651386	 -0.142168	 0.718550	 -0.614651	 0.292708	 2
1462074443.473	 8	 -2.929681	 -0.612767	 -1.652041	 1.976516	 -1.317185	 -0.528353	 -0.152566	 0.725422	 -0.606943	 0.286544	 2
1462074443.483	 8	 -3.399778	 -2.668152	 -1.762993	 2.100227	 -1.317681	 -0.378673	 -0.170015	 0.730980	 -0.595613	 0.286372	 2
1462074443.493	 8	 -3.182204	 -4.566795	 -1.688767	 2.200635	 -1.314087	 -0.232064	 -0.193304	 0.733082	 -0.582312	 0.293492	 2
1462074443.503	 8	 -2.203302	 -5.403746	 -1.424783	 2.256883	 -1.310487	 -0.119436	 -0.217613	 0.730870	 -0.569975	 0.305943	 2
1462074443.513	 8	 -0.655767	 -4.863361	 -1.229668	 2.266992	 -1.313729	 -0.056081	 -0.238387	 0.724359	 -0.562360	 0.319729	 2
1462074443.523	 8	 0.748766	 -3.328857	 -1.141291	 2.245426	 -1.325204	 -0.039934	 -0.252276	 0.715743	 -0.561149	 0.330425	 2
1462074443.533	 8	 1.402324	 -2.253115	 -0.964318	 2.204121	 -1.341431	 -0.057057	 -0.260740	 0.706607	 -0.564376	 0.337936	 2
1462074443.543	 8	 1.353507	 -1.305515	 -0.408340	 2.151527	 -1.354007	 -0.094973	 -0.264713	 0.699236	 -0.568211	 0.343703	 2
1462074443.553	 8	 0.715606	 -0.299261	 0.077645	 2.111844	 -1.359084	 -0.130112	 -0.264791	 0.695700	 -0.570707	 0.346670	 2
1462074443.563	 8	 -0.187426	 0.485636	 0.439184	 2.104781	 -1.356248	 -0.140404	 -0.262628	 0.696569	 -0.570632	 0.346696	 2
1462074443.573	 8	 -0.981659	 1.130045	 0.685498	 2.130366	 -1.346692	 -0.124203	 -0.259012	 0.701353	 -0.568025	 0.344042	 2
1462074443.583	 8	 -1.485738	 1.636482	 0.796912	 2.176255	 -1.332610	 -0.092607	 -0.254344	 0.708838	 -0.563777	 0.339137	 2
1462074443.593	 8	 -1.745072	 2.112454	 0.766298	 2.232004	 -1.316285	 -0.055694	 -0.248790	 0.717918	 -0.558938	 0.332091	 2
1462074443.603	 8	 -1.818294	 2.545588	 0.623891	 2.292609	 -1.299607	 -0.018170	 -0.242585	 0.727772	 -0.554289	 0.322900	 2
1462074443.613	 8	 -1.695486	 2.953298	 0.428383	 2.354045	 -1.284250	 0.016017	 -0.235698	 0.737672	 -0.550585	 0.311677	 2
1462074443.623	 8	 -1.468840	 3.230705	 0.199852	 2.414356	 -1.271370	 0.045902	 -0.228368	 0.747009	 -0.548195	 0.298845	 2
1462074443.633	 8	 -1.227181	 3.314344	 -0.048730	 2.473388	 -1.261416	 0.073129	 -0.221142	 0.755374	 -0.547055	 0.285021	 2
1462074443.653	 9	 -0.729814	 3.080481	 -0.562540	 2.587971	 -1.250107	 0.127461	 -0.209268	 0.768293	 -0.547609	 0.257016	 2
1462074443.663	 9	 -0.308222	 3.040512	 -0.770143	 2.643835	 -1.250172	 0.154048	 -0.204185	 0.772507	 -0.550086	 0.242790	 2
1462074443.673	 9	 0.152207	 2.787299	 -0.887347	 2.695264	 -1.254382	 0.178081	 -0.199584	 0.774923	 -0.554118	 0.229378	 2
1462074443.683	 9	 0.678309	 2.370610	 -0.934173	 2.739416	 -1.263143	 0.198378	 -0.195661	 0.775272	 -0.559710	 0.217703	 2
1462074443.693	 9	 1.242871	 1.904322	 -0.911455	 2.773722	 -1.276805	 0.213220	 -0.192383	 0.773422	 -0.566906	 0.208384	 2
1462074443.713	 10	 2.353527	 1.974231	 -0.795780	 2.820415	 -1.318840	 0.224183	 -0.184617	 0.764325	 -0.586844	 0.193231	 2
1462074443.723	 10	 2.998329	 2.811456	 -0.659318	 2.837405	 -1.347921	 0.215339	 -0.177003	 0.757703	 -0.600587	 0.183987	 2
1462074443.733	 10	 3.685922	 4.376888	 -0.555885	 2.853594	 -1.383235	 0.191668	 -0.164040	 0.749989	 -0.617710	 0.170417	 2
1462074443.743	 10	 3.750660	 6.620405	 -0.626162	 2.887487	 -1.421644	 0.164828	 -0.144275	 0.742360	 -0.637096	 0.148977	 2
1462074443.753	 10	 1.139228	 9.214646	 -0.495089	 2.980397	 -1.442898	 0.172600	 -0.117485	 0.741044	 -0.650669	 0.116970	 2
1462074443.763	 10	 -1.726987	 9.696353	 -0.202407	 3.104625	 -1.431596	 0.198936	 -0.086988	 0.749507	 -0.651480	 0.079032	 2
1462074443.773	 10	 -2.483624	 6.917787	 -0.125756	 -3.092421	 -1.407620	 0.207430	 -0.063082	 0.759703	 -0.645395	 0.048335	 2
1462074443.783	 10	 -2.021420	 2.643763	 0.146980	 -3.066900	 -1.385864	 0.195455	 -0.051280	 0.767499	 -0.638107	 0.033695	 2
1462074443.793	 10	 -1.104070	 -1.105832	 0.466460	 -3.093737	 -1.372693	 0.170508	 -0.050744	 0.771827	 -0.632809	 0.035505	 2
1462074443.803	 10	 -0.211055	 -3.623127	 0.717688	 3.125451	 -1.368626	 0.136635	 -0.057983	 0.772673	 -0.630219	 0.049390	 2
1462074443.813	 10	 0.362323	 -4.667337	 0.691255	 3.045103	 -1.370611	 0.100460	 -0.069312	 0.770817	 -0.629501	 0.069031	 2
1462074443.823	 10	 0.578536	 -4.502298	 0.656804	 2.962466	 -1.375127	 0.063219	 -0.081063	 0.767519	 -0.629612	 0.089065	 2
1462074443.833	 10	 0.535147	 -3.501499	 0.633449	 2.886695	 -1.379191	 0.024607	 -0.090276	 0.764193	 -0.629811	 0.105818	 2
1462074443.843	 10	 0.391864	 -1.993810	 0.651924	 2.824433	 -1.381486	 -0.014431	 -0.095115	 0.761808	 -0.629978	 0.117175	 2
1462074443.853	 10	 0.302121	 -0.252023	 0.706215	 2.777787	 -1.382172	 -0.054872	 -0.094469	 0.760719	 -0.630447	 0.122145	 2
1462074443.863	 10	 0.201228	 1.241293	 0.666635	 2.748989	 -1.381824	 -0.093519	 -0.088823	 0.760848	 -0.631345	 0.120935	 2
1462074443.873	 10	 -0.257160	 1.188871	 0.585943	 2.735737	 -1.378473	 -0.120562	 -0.082396	 0.762245	 -0.631138	 0.117725	 2
1462074443.883	 10	 -1.187050	 -0.436048	 0.541618	 2.729288	 -1.367633	 -0.127459	 -0.080732	 0.765449	 -0.627229	 0.118968	 2
1462074443.893	 10	 -1.961075	 -2.418448	 0.398821	 2.724475	 -1.349480	 -0.112494	 -0.086191	 0.770011	 -0.619280	 0.127066	 2
1462074443.903	 10	 -2.231245	 -3.405180	 0.184168	 2.720727	 -1.328346	 -0.082993	 -0.096701	 0.774735	 -0.609115	 0.139331	 2
1462074443.913	 10	 -1.584224	 -2.621243	 -0.132834	 2.721780	 -1.311963	 -0.051378	 -0.107142	 0.778064	 -0.600594	 0.149744	 2
1462074443.923	 10	 -0.331187	 -0.109218	 -0.390006	 2.735266	 -1.307558	 -0.029463	 -0.111248	 0.779189	 -0.597976	 0.151370	 2
1462074443.933	 10	 0.222600	 1.543384	 -0.493487	 2.761622	 -1.310625	 -0.015046	 -0.109223	 0.779435	 -0.599551	 0.145220	 2
1462074443.943	 10	 -0.025339	 1.294947	 -0.825092	 2.800902	 -1.313917	 0.010398	 -0.107585	 0.779844	 -0.601166	 0.137364	 2
1462074443.953	 10	 -0.620203	 0.094946	 -1.392735	 2.855297	 -1.313212	 0.062479	 -0.111528	 0.780865	 -0.600364	 0.131812	 2
1462074443.963	 10	 -0.937430	 -0.865301	 -1.933922	 2.923218	 -1.309167	 0.139485	 -0.121136	 0.782037	 -0.597708	 0.128410	 2
1462074443.973	 10	 -0.758556	 -1.395411	 -2.214313	 2.994440	 -1.304763	 0.226738	 -0.133991	 0.782355	 -0.594943	 0.126530	 2
1462074443.983	 10	 0.505287	 -0.932793	 -2.150672	 3.063438	 -1.308402	 0.309722	 -0.145793	 0.779773	 -0.596002	 0.124419	 2
1462074443.993	 10	 2.016146	 -0.373149	 -1.807983	 3.128980	 -1.326002	 0.382346	 -0.153564	 0.773037	 -0.603315	 0.121826	 2
1462074444.003	 10	 2.806474	 -0.548323	 -1.444543	 -3.091744	 -1.352246	 0.451266	 -0.159251	 0.763487	 -0.614071	 0.121010	 2
1462074444.013	 10	 3.149634	 -1.116270	 -1.156534	 -3.030365	 -1.381922	 0.523807	 -0.165009	 0.752375	 -0.625685	 0.123374	 2
1462074444.023	 10	 3.455423	 -1.633528	 -0.933805	 -2.961454	 -1.413915	 0.609139	 -0.171355	 0.739928	 -0.637627	 0.128748	 2
1462074444.033	 10	 3.752331	 -1.976509	 -0.736021	 -2.867141	 -1.448077	 0.723550	 -0.177903	 0.726131	 -0.649984	 0.136402	 2
1462074444.043	 10	 3.897143	 -2.205290	 -0.545442	 -2.709152	 -1.482495	 0.904043	 -0.184372	 0.711366	 -0.662373	 0.145697	 2
1462074444.053	 10	 3.825958	 -2.326832	 -0.321078	 -2.394813	 -1.512863	 1.242279	 -0.190498	 0.696388	 -0.674070	 0.156154	 2
1462074444.063	 10	 3.535696	 -2.302941	 -0.077466	 -1.749276	 -1.529995	 1.911748	 -0.195928	 0.682080	 -0.684421	 0.167175	 2
1462074444.073	 10	 3.066678	 -2.145755	 0.141233	 -1.028144	 -1.524734	 2.655425	 -0.200415	 0.669287	 -0.692957	 0.178046	 2
1462074444.083	 10	 2.509983	 -1.934840	 0.253553	 -0.652470	 -1.508475	 3.051542	 -0.204132	 0.658473	 -0.699531	 0.188147	 2
1462074444.093	 10	 1.960880	 -1.764682	 0.175722	 -0.485882	 -1.491894	 -3.046591	 -0.207757	 0.649606	 -0.704322	 0.196925	 2
1462074444.103	 10	 1.519503	 -1.659096	 -0.109340	 -0.423302	 -1.477194	 -2.966881	 -0.212167	 0.642166	 -0.707818	 0.203964	 2
1462074444.113	 10	 1.202943	 -1.494898	 -0.474875	 -0.421567	 -1.463994	 -2.949632	 -0.217548	 0.635641	 -0.710629	 0.208901	 2
1462074444.123	 10	 1.012863	 -1.252034	 -0.794952	 -0.452963	 -1.451395	 -2.967985	 -0.223406	 0.629712	 -0.713270	 0.211658	 2
1462074444.133	 10	 0.921588	 -0.980905	 -0.990932	 -0.496447	 -1.438704	 -3.001236	 -0.229142	 0.624171	 -0.716031	 0.212611	 2
1462074444.143	 10	 0.925710	 -0.743039	 -1.042042	 -0.536569	 -1.425585	 -3.033698	 -0.234250	 0.618825	 -0.719067	 0.212429	 2
1462074444.153	 10	 0.984256	 -0.605512	 -0.974129	 -0.565250	 -1.412122	 -3.056312	 -0.238573	 0.613488	 -0.722358	 0.211932	 2
1462074444.163	 10	 1.052107	 -0.587714	 -0.839203	 -0.581533	 -1.398676	 -3.066881	 -0.242271	 0.608067	 -0.725742	 0.211796	 2
1462074444.173	 10	 1.106943	 -0.627200	 -0.688709	 -0.587720	 -1.385556	 -3.066916	 -0.245542	 0.602553	 -0.729071	 0.212356	 2
1462074444.183	 10	 1.183600	 -0.742690	 -0.596664	 -0.587953	 -1.372477	 -3.059945	 -0.248733	 0.596794	 -0.732335	 0.213668	 2
1462074444.193	 10	 1.293935	 -0.893932	 -0.580914	 -0.586122	 -1.358732	 -3.049304	 -0.252250	 0.590505	 -0.735636	 0.215669	 2
1462074444.203	 10	 1.430010	 -0.964875	 -0.628587	 -0.584071	 -1.343720	 -3.037408	 -0.256063	 0.583547	 -0.739180	 0.217986	 2
1462074444.213	 10	 1.569758	 -0.908435	 -0.709211	 -0.582110	 -1.327108	 -3.025825	 -0.259826	 0.575949	 -0.743185	 0.220109	 2
1462074444.223	 10	 1.660771	 -0.805863	 -0.754877	 -0.579650	 -1.309259	 -3.014684	 -0.263248	 0.567922	 -0.747625	 0.221859	 2
1462074444.233	 10	 1.603805	 -0.666358	 -0.754148	 -0.577426	 -1.291488	 -3.005065	 -0.266211	 0.560031	 -0.752127	 0.223164	 2
1462074444.243	 10	 1.394432	 -0.518665	 -0.712583	 -0.576687	 -1.275342	 -2.998526	 -0.268691	 0.552959	 -0.756244	 0.223913	 2
1462074444.253	 10	 1.111469	 -0.366457	 -0.665007	 -0.578112	 -1.261735	 -2.995783	 -0.270751	 0.547106	 -0.759712	 0.224067	 2
1462074444.263	 10	 0.822787	 -0.270817	 -0.646683	 -0.582680	 -1.250716	 -2.997553	 -0.272622	 0.542508	 -0.762476	 0.223590	 2
1462074444.273	 10	 0.616793	 -0.281870	 -0.640729	 -0.590420	 -1.241670	 -3.002852	 -0.274657	 0.538808	 -0.764604	 0.222779	 2
1462074444.283	 10	 0.521119	 -0.417827	 -0.653950	 -0.600887	 -1.233541	 -3.010070	 -0.277201	 0.535436	 -0.766276	 0.222010	 2
1462074444.293	 10	 0.525651	 -0.793475	 -0.678801	 -0.614919	 -1.225480	 -3.017593	 -0.281068	 0.531748	 -0.767430	 0.222027	 2
1462074444.303	 10	 0.558381	 -1.237809	 -0.777007	 -0.633975	 -1.216624	 -3.025883	 -0.286760	 0.527312	 -0.768125	 0.222922	 2
1462074444.313	 10	 0.518342	 -1.721313	 -0.879208	 -0.659605	 -1.207188	 -3.036298	 -0.294521	 0.522240	 -0.768178	 0.224557	 2
1462074444.323	 10	 0.431950	 -2.130827	 -0.917437	 -0.691013	 -1.197925	 -3.048130	 -0.304192	 0.516823	 -0.767345	 0.227033	 2
1462074444.333	 10	 0.269185	 -2.270552	 -0.890676	 -0.725728	 -1.189695	 -3.061120	 -0.314820	 0.511643	 -0.765675	 0.229895	 2
1462074444.343	 10	 0.063108	 -2.133242	 -0.813000	 -0.760872	 -1.183167	 -3.075676	 -0.325117	 0.507366	 -0.763469	 0.232364	 2
1462074444.353	 10	 0.034275	 -1.808752	 -0.665852	 -0.791643	 -1.178052	 -3.088327	 -0.334128	 0.503877	 -0.761216	 0.234556	 2
1462074444.363	 10	 0.226129	 -1.311481	 -0.510491	 -0.812401	 -1.172950	 -3.095181	 -0.340804	 0.500622	 -0.759843	 0.236367	 2
1462074444.373	 10	 0.551300	 -0.833725	 -0.352210	 -0.820092	 -1.166885	 -3.093318	 -0.344800	 0.497055	 -0.759864	 0.238026	 2
1462074444.383	 10	 0.764401	 -0.612796	 -0.161238	 -0.817685	 -1.160384	 -3.083609	 -0.346933	 0.493155	 -0.760786	 0.240084	 2
1462074444.393	 10	 0.701248	 -0.632109	 0.083192	 -0.811299	 -1.155471	 -3.069922	 -0.348336	 0.489642	 -0.761503	 0.242950	 2
1462074444.403	 10	 0.327767	 -0.866119	 0.369891	 -0.807401	 -1.154567	 -3.056963	 -0.350102	 0.487505	 -0.760830	 0.246789	 2
1462074444.413	 10	 -0.361095	 -1.248915	 0.692055	 -0.812158	 -1.160154	 -3.049598	 -0.353197	 0.487791	 -0.757632	 0.251603	 2
1462074444.423	 10	 -1.211188	 -1.471290	 1.070404	 -0.828111	 -1.174043	 -3.051343	 -0.357507	 0.491452	 -0.751409	 0.256999	 2
1462074444.433	 10	 -1.948136	 -1.257731	 1.474206	 -0.851494	 -1.196152	 -3.062120	 -0.361415	 0.498826	 -0.742814	 0.262258	 2
1462074444.443	 10	 -2.444078	 -0.775415	 1.782491	 -0.878150	 -1.224328	 -3.080997	 -0.363503	 0.509354	 -0.733037	 0.266609	 2
1462074444.453	 10	 -2.769095	 -0.375356	 1.963829	 -0.908825	 -1.256210	 -3.108516	 -0.363844	 0.522035	 -0.722665	 0.269911	 2
1462074444.464	 10	 -3.036359	 -0.091060	 2.045536	 -0.948395	 -1.290257	 3.134951	 -0.363075	 0.536162	 -0.711766	 0.272207	 2
1462074444.473	 10	 -3.269531	 0.213066	 2.088764	 -1.002712	 -1.325491	 3.077352	 -0.361348	 0.551451	 -0.700431	 0.273361	 2
1462074444.483	 10	 -3.409797	 0.705619	 2.192619	 -1.075846	 -1.361269	 2.996506	 -0.357971	 0.567854	 -0.689030	 0.273195	 2
1462074444.494	 10	 -3.444926	 1.462323	 2.390737	 -1.171127	 -1.397251	 2.886614	 -0.351608	 0.585472	 -0.678173	 0.271435	 2
1462074444.504	 10	 -3.482250	 2.188341	 2.609905	 -1.307043	 -1.432832	 2.728600	 -0.341882	 0.604309	 -0.667906	 0.268007	 2
1462074444.513	 10	 -3.548156	 2.597804	 2.726194	 -1.534917	 -1.465094	 2.473742	 -0.329940	 0.623897	 -0.657692	 0.263313	 2
1462074444.524	 10	 -3.433751	 2.839173	 2.762614	 -1.918168	 -1.487372	 2.060940	 -0.316689	 0.643344	 -0.647550	 0.257866	 2
1462074444.533	 10	 -2.841120	 3.095203	 2.814190	 -2.399871	 -1.494088	 1.547324	 -0.301667	 0.661247	 -0.638825	 0.252292	 2
1462074444.543	 10	 -1.936717	 3.149373	 2.876094	 -2.823294	 -1.489715	 1.090943	 -0.284771	 0.676290	 -0.632622	 0.247644	 2
1462074444.554	 10	 -1.066836	 2.791003	 2.796977	 3.136731	 -1.481425	 0.737446	 -0.267518	 0.687793	 -0.628810	 0.244892	 2
1462074444.563	 10	 -0.429491	 2.009059	 2.442041	 2.897348	 -1.472551	 0.474577	 -0.252396	 0.695618	 -0.626636	 0.244416	 2
1462074444.573	 10	 -0.057522	 0.746082	 1.941063	 2.721368	 -1.464486	 0.286788	 -0.241942	 0.699931	 -0.624961	 0.246952	 2
1462074444.584	 10	 0.048466	 -0.809558	 1.455663	 2.589633	 -1.457510	 0.158396	 -0.237680	 0.701168	 -0.622650	 0.253334	 2
1462074444.593	 10	 -0.132974	 -2.119656	 1.126389	 2.490838	 -1.450159	 0.077289	 -0.239241	 0.700456	 -0.618684	 0.263352	 2
1462074444.603	 10	 -0.549087	 -2.896874	 0.997020	 2.422709	 -1.440368	 0.036216	 -0.244691	 0.699331	 -0.612486	 0.275541	 2
1462074444.614	 10	 -1.034498	 -3.095362	 1.003662	 2.383378	 -1.426891	 0.027620	 -0.251881	 0.699012	 -0.604052	 0.288199	 2
1462074444.623	 10	 -1.337554	 -2.702509	 1.080297	 2.363313	 -1.410338	 0.036006	 -0.258552	 0.700028	 -0.594405	 0.299657	 2
1462074444.633	 10	 -1.363224	 -1.852249	 1.129997	 2.352773	 -1.392689	 0.046489	 -0.262869	 0.702370	 -0.585160	 0.308488	 2
1462074444.644	 10	 -1.160670	 -0.751075	 1.111836	 2.346848	 -1.376128	 0.050938	 -0.263819	 0.705797	 -0.577758	 0.313761	 2
1462074444.654	 10	 -0.854268	 0.237738	 1.041635	 2.343332	 -1.362013	 0.047251	 -0.261507	 0.709892	 -0.572796	 0.315552	 2
1462074444.664	 10	 -0.483043	 0.729540	 0.955586	 2.337897	 -1.350922	 0.034963	 -0.257069	 0.713866	 -0.570026	 0.315250	 2
1462074444.674	 10	 -0.059814	 0.493582	 0.855919	 2.322119	 -1.343451	 0.012837	 -0.252522	 0.716352	 -0.568811	 0.315479	 2
1462074444.684	 10	 0.163354	 0.122327	 0.791904	 2.297267	 -1.338335	 -0.014846	 -0.248854	 0.717344	 -0.568241	 0.317161	 2
1462074444.694	 10	 0.186346	 0.060217	 0.743167	 2.270899	 -1.333838	 -0.042441	 -0.245690	 0.717816	 -0.567775	 0.319387	 2
1462074444.704	 10	 0.122034	 0.313855	 0.639511	 2.251557	 -1.329578	 -0.064809	 -0.242401	 0.718622	 -0.567494	 0.320585	 2
1462074444.714	 10	 0.118792	 0.606768	 0.549543	 2.239004	 -1.325834	 -0.083288	 -0.238641	 0.719848	 -0.567636	 0.320404	 2
1462074444.724	 10	 0.202546	 0.790940	 0.459938	 2.229230	 -1.323129	 -0.101128	 -0.234489	 0.721120	 -0.568392	 0.319267	 2
1462074444.734	 10	 0.324411	 0.875322	 0.411703	 2.218416	 -1.321546	 -0.121124	 -0.230051	 0.722140	 -0.569773	 0.317725	 2
1462074444.744	 10	 0.416193	 0.959422	 0.312570	 2.207313	 -1.321184	 -0.142241	 -0.225520	 0.722881	 -0.571729	 0.315768	 2
1462074444.754	 10	 0.462000	 1.067753	 0.162907	 2.198644	 -1.322224	 -0.161915	 -0.221097	 0.723445	 -0.574208	 0.313095	 2
1462074444.764	 10	 0.465177	 1.215328	 -0.019059	 2.194757	 -1.324741	 -0.178054	 -0.216884	 0.723960	 -0.577145	 0.309430	 2
1462074444.774	 10	 0.443717	 1.370191	 -0.232715	 2.197625	 -1.328807	 -0.188843	 -0.212976	 0.724516	 -0.580478	 0.304571	 2
1462074444.784	 10	 0.445456	 1.466482	 -0.447118	 2.207065	 -1.334618	 -0.194025	 -0.209531	 0.724993	 -0.584207	 0.298638	 2
1462074444.794	 10	 0.547214	 1.407988	 -0.551927	 2.217557	 -1.341993	 -0.197967	 -0.206516	 0.725045	 -0.588354	 0.292406	 2
1462074444.804	 10	 0.704880	 1.378556	 -0.586612	 2.222980	 -1.350601	 -0.206397	 -0.203591	 0.724454	 -0.593008	 0.286460	 2
1462074444.814	 10	 0.774649	 1.823910	 -0.746137	 2.232159	 -1.360782	 -0.214311	 -0.200032	 0.723885	 -0.598444	 0.279004	 2
1462074444.824	 10	 0.936487	 2.569872	 -0.921787	 2.248544	 -1.373158	 -0.221742	 -0.194872	 0.723592	 -0.605187	 0.268677	 2
1462074444.834	 10	 1.312372	 3.694725	 -1.124548	 2.269393	 -1.389069	 -0.234949	 -0.186864	 0.723325	 -0.614167	 0.254327	 2
1462074444.844	 10	 1.756049	 5.197736	 -1.367011	 2.294324	 -1.409736	 -0.258466	 -0.174644	 0.722899	 -0.626083	 0.234384	 2
1462074444.854	 10	 1.631670	 5.454157	 -1.551116	 2.333528	 -1.432609	 -0.275149	 -0.160582	 0.722356	 -0.638694	 0.210914	 2
1462074444.864	 10	 -0.028219	 4.470667	 -1.294295	 2.431474	 -1.445874	 -0.223616	 -0.150115	 0.724366	 -0.645537	 0.189848	 2
1462074444.874	 10	 -1.298140	 3.224284	 -0.611683	 2.567863	 -1.441522	 -0.122362	 -0.142324	 0.730671	 -0.644801	 0.173479	 2
1462074444.884	 10	 -0.827611	 1.472252	 -0.165279	 2.642134	 -1.434197	 -0.066712	 -0.137975	 0.735346	 -0.642672	 0.164934	 2
1462074444.894	 10	 -0.100366	 -0.288768	 0.172230	 2.647796	 -1.431437	 -0.062304	 -0.137495	 0.736378	 -0.641698	 0.164521	 2
1462074444.904	 10	 0.382445	 -1.195712	 0.557116	 2.599295	 -1.431539	 -0.100761	 -0.138920	 0.734947	 -0.641599	 0.170013	 2
1462074444.914	 10	 0.589489	 -1.142688	 0.765762	 2.521868	 -1.432260	 -0.167032	 -0.139548	 0.732621	 -0.642216	 0.177067	 2
1462074444.924	 10	 0.350473	 -1.036656	 0.916971	 2.442572	 -1.430286	 -0.236391	 -0.139331	 0.730882	 -0.642269	 0.184088	 2
1462074444.934	 10	 -0.154936	 -0.954257	 0.928532	 2.385735	 -1.423921	 -0.284033	 -0.139050	 0.730693	 -0.640643	 0.190603	 2
1462074444.944	 10	 -0.539413	 -0.986358	 0.893214	 2.354948	 -1.414307	 -0.305278	 -0.139336	 0.731860	 -0.637388	 0.196734	 2
1462074444.954	 10	 -0.523378	 -0.720795	 0.852915	 2.333807	 -1.404270	 -0.318380	 -0.139324	 0.733394	 -0.633936	 0.202107	 2
1462074444.964	 10	 -0.359194	 -0.005023	 0.767556	 2.317089	 -1.395802	 -0.333420	 -0.137418	 0.734995	 -0.631553	 0.205037	 2
1462074444.974	 10	 -0.372940	 0.313535	 0.689642	 2.308303	 -1.388194	 -0.345150	 -0.134337	 0.736891	 -0.629693	 0.205990	 2
1462074444.984	 10	 -0.483029	 0.116356	 0.881669	 2.299343	 -1.379128	 -0.356280	 -0.131186	 0.739057	 -0.627314	 0.207513	 2
1462074444.994	 10	 -0.936130	 -0.163942	 1.059922	 2.293768	 -1.366189	 -0.360990	 -0.128499	 0.742093	 -0.623253	 0.210573	 2
1462074445.004	 10	 -1.493330	 -0.135144	 0.992570	 2.307564	 -1.349396	 -0.344932	 -0.126728	 0.746802	 -0.616935	 0.213583	 2
1462074445.014	 10	 -1.601339	 0.264246	 0.729720	 2.336120	 -1.332532	 -0.317220	 -0.124966	 0.752420	 -0.610134	 0.214439	 2
1462074445.024	 10	 -0.645770	 1.407820	 0.556191	 2.357970	 -1.321628	 -0.305466	 -0.120633	 0.756828	 -0.606512	 0.211668	 2
1462074445.034	 10	 0.139121	 2.406672	 0.303934	 2.367729	 -1.319215	 -0.318670	 -0.112202	 0.759231	 -0.607626	 0.204375	 2
1462074445.044	 10	 -0.527065	 2.271387	 -0.140210	 2.401128	 -1.317044	 -0.308235	 -0.105615	 0.762560	 -0.607653	 0.195206	 2
1462074445.054	 10	 -1.038695	 1.966594	 -0.429545	 2.455694	 -1.312435	 -0.273052	 -0.101700	 0.767148	 -0.605509	 0.185743	 2
1462074445.064	 10	 -1.322056	 1.327725	 -0.347761	 2.511117	 -1.304811	 -0.231320	 -0.099786	 0.772143	 -0.601758	 0.178113	 2
1462074445.074	 10	 -1.291454	 0.699926	 -0.225978	 2.553629	 -1.295366	 -0.195878	 -0.099355	 0.776707	 -0.597284	 0.173511	 2
1462074445.084	 10	 -0.971966	 0.156120	 -0.284977	 2.584490	 -1.287790	 -0.166794	 -0.100438	 0.780014	 -0.593488	 0.171062	 2
1462074445.094	 10	 -0.064966	 -0.202779	 -0.421974	 2.600604	 -1.286797	 -0.148550	 -0.102650	 0.780740	 -0.592374	 0.170294	 2
1462074445.104	 10	 1.401045	 -0.215841	 -0.750325	 2.599233	 -1.299053	 -0.147647	 -0.104977	 0.777127	 -0.596854	 0.169763	 2
1462074445.114	 10	 2.436965	 -0.215029	 -1.099315	 2.586481	 -1.323314	 -0.158670	 -0.107692	 0.769735	 -0.606184	 0.168673	 2
1462074445.124	 10	 2.943473	 -0.260467	 -1.146779	 2.560583	 -1.353470	 -0.182730	 -0.110482	 0.760206	 -0.617883	 0.167637	 2
1462074445.134	 10	 3.146328	 -0.391648	 -0.967520	 2.511421	 -1.384867	 -0.229385	 -0.112794	 0.749636	 -0.630292	 0.167496	 2
1462074445.144	 10	 3.087573	 -0.829032	 -0.731282	 2.428275	 -1.414210	 -0.306672	 -0.115347	 0.738687	 -0.642152	 0.169343	 2
1462074445.154	 10	 2.949069	 -1.346680	 -0.595278	 2.301815	 -1.439822	 -0.422034	 -0.119013	 0.727621	 -0.652890	 0.173604	 2
1462074445.164	 10	 2.723857	 -1.828709	 -0.569027	 2.128850	 -1.461290	 -0.579082	 -0.124247	 0.716588	 -0.662441	 0.179545	 2
1462074445.174	 10	 2.304923	 -2.229116	 -0.512620	 1.916573	 -1.476654	 -0.770905	 -0.131040	 0.706228	 -0.670160	 0.186962	 2
1462074445.184	 10	 1.827456	 -2.329753	 -0.503005	 1.695247	 -1.486108	 -0.969781	 -0.138766	 0.697133	 -0.675890	 0.194736	 2
1462074445.194	 10	 1.434360	 -2.168122	 -0.520459	 1.488709	 -1.491640	 -1.154773	 -0.146568	 0.689403	 -0.680103	 0.201747	 2
1462074445.204	 10	 1.186094	 -1.835758	 -0.549309	 1.299568	 -1.494771	 -1.325086	 -0.153736	 0.682782	 -0.683467	 0.207477	 2
1462074445.214	 10	 1.015094	 -1.191935	 -0.571671	 1.128177	 -1.496424	 -1.483202	 -0.159267	 0.677290	 -0.686574	 0.211018	 2
1462074445.224	 10	 0.932425	 -0.401356	 -0.561463	 0.974131	 -1.496617	 -1.631687	 -0.162223	 0.672951	 -0.689883	 0.211855	 2
1462074445.234	 10	 0.953460	 0.247078	 -0.603571	 0.827606	 -1.495365	 -1.779596	 -0.162864	 0.669313	 -0.693748	 0.210262	 2
1462074445.244	 10	 1.020245	 0.663308	 -0.673817	 0.681892	 -1.492555	 -1.931497	 -0.162013	 0.665890	 -0.698244	 0.206875	 2
1462074445.254	 10	 1.105216	 0.860403	 -0.740932	 0.539679	 -1.487839	 -2.082429	 -0.160429	 0.662359	 -0.703241	 0.202473	 2
1462074445.264	 10	 1.199009	 0.877841	 -0.791677	 0.406433	 -1.480902	 -2.225042	 -0.158707	 0.658469	 -0.708610	 0.197742	 2
1462074445.274	 10	 1.267526	 0.731633	 -0.832002	 0.287435	 -1.471908	 -2.352399	 -0.157411	 0.654128	 -0.714139	 0.193246	 2
1462074445.284	 10	 1.288578	 0.466535	 -0.859164	 0.184561	 -1.461381	 -2.461227	 -0.157039	 0.649359	 -0.719570	 0.189449	 2
1462074445.294	 10	 1.252037	 0.189016	 -0.862494	 0.097807	 -1.450078	 -2.551116	 -0.157723	 0.644359	 -0.724666	 0.186506	 2
1462074445.304	 10	 1.199908	 -0.025483	 -0.835261	 0.025876	 -1.438495	 -2.623871	 -0.159221	 0.639307	 -0.729358	 0.184318	 2
1462074445.314	 10	 1.166195	 -0.197358	 -0.789673	 -0.032961	 -1.426738	 -2.681693	 -0.161266	 0.634233	 -0.733700	 0.182828	 2
1462074445.324	 10	 1.177374	 -0.339709	 -0.761254	 -0.082247	 -1.414598	 -2.728436	 -0.163751	 0.629020	 -0.737850	 0.181924	 2
1462074445.334	 10	 1.237705	 -0.454674	 -0.750060	 -0.124417	 -1.401692	 -2.766843	 -0.166577	 0.623501	 -0.741999	 0.181487	 2
1462074445.344	 10	 1.330006	 -0.566653	 -0.754037	 -0.161155	 -1.387711	 -2.798700	 -0.169723	 0.617529	 -0.746275	 0.181454	 2
1462074445.354	 10	 1.428640	 -0.685102	 -0.767721	 -0.193783	 -1.372528	 -2.825258	 -0.173243	 0.611019	 -0.750724	 0.181815	 2
1462074445.364	 10	 1.485730	 -0.779039	 -0.791473	 -0.223462	 -1.356478	 -2.847828	 -0.177140	 0.604090	 -0.755252	 0.182456	 2
1462074445.374	 10	 1.491813	 -0.824982	 -0.817532	 -0.250954	 -1.340053	 -2.867640	 -0.181304	 0.596959	 -0.759747	 0.183176	 2
1462074445.384	 10	 1.431083	 -0.798262	 -0.824215	 -0.276224	 -1.323906	 -2.885313	 -0.185504	 0.589937	 -0.764063	 0.183768	 2
1462074445.394	 10	 1.330253	 -0.698898	 -0.803229	 -0.298568	 -1.308595	 -2.900882	 -0.189419	 0.583310	 -0.768106	 0.184072	 2
1462074445.404	 10	 1.198564	 -0.596120	 -0.763824	 -0.317906	 -1.294495	 -2.914532	 -0.192908	 0.577253	 -0.771806	 0.184065	 2
1462074445.414	 10	 1.026861	 -0.586980	 -0.746258	 -0.336243	 -1.281941	 -2.927570	 -0.196318	 0.571846	 -0.775008	 0.183888	 2
1462074445.424	 10	 0.827782	 -0.695019	 -0.764713	 -0.356588	 -1.271089	 -2.941906	 -0.200244	 0.567070	 -0.777553	 0.183698	 2
1462074445.434	 10	 0.573252	 -0.795438	 -0.781550	 -0.380161	 -1.262303	 -2.958478	 -0.204879	 0.563074	 -0.779293	 0.183507	 2
1462074445.444	 10	 0.282082	 -0.779520	 -0.757551	 -0.405829	 -1.256089	 -2.977132	 -0.209790	 0.560170	 -0.780172	 0.183109	 2
1462074445.454	 10	 0.067332	 -0.669847	 -0.681123	 -0.431036	 -1.252200	 -2.996288	 -0.214384	 0.558344	 -0.780388	 0.182444	 2
1462074445.464	 10	 0.018982	 -0.571349	 -0.611577	 -0.453716	 -1.249349	 -3.013978	 -0.218407	 0.557056	 -0.780374	 0.181669	 2
1462074445.474	 10	 0.159136	 -0.735444	 -0.596206	 -0.474788	 -1.245642	 -3.029119	 -0.222580	 0.555336	 -0.780498	 0.181338	 2
1462074445.484	 10	 0.285992	 -1.229226	 -0.581656	 -0.497385	 -1.240544	 -3.041472	 -0.228227	 0.552646	 -0.780539	 0.182355	 2
1462074445.494	 10	 0.150031	 -1.875672	 -0.458596	 -0.524207	 -1.236341	 -3.051758	 -0.236082	 0.549706	 -0.779571	 0.185359	 2
1462074445.504	 10	 -0.229773	 -2.528862	 -0.190664	 -0.556284	 -1.236034	 -3.060671	 -0.246136	 0.547643	 -0.776629	 0.190662	 2
1462074445.514	 10	 -0.777225	 -3.085960	 0.206448	 -0.593428	 -1.241870	 -3.068640	 -0.257934	 0.547330	 -0.771073	 0.198357	 2
1462074445.524	 10	 -1.494565	 -3.052938	 0.656358	 -0.633830	 -1.255661	 -3.078463	 -0.269698	 0.549901	 -0.762841	 0.207231	 2
1462074445.534	 10	 -2.275617	 -2.552352	 1.168725	 -0.675069	 -1.278431	 -3.093606	 -0.279207	 0.556366	 -0.752321	 0.215671	 2
1462074445.544	 10	 -2.931675	 -2.256289	 1.688758	 -0.718567	 -1.309870	 -3.114761	 -0.286477	 0.566423	 -0.739508	 0.224106	 2
1462074445.554	 10	 -3.365523	 -2.085582	 1.879567	 -0.774713	 -1.346436	 3.132547	 -0.292712	 0.578640	 -0.724953	 0.232248	 2
1462074445.564	 10	 -3.616541	 -1.682797	 1.880172	 -0.855386	 -1.384592	 3.068603	 -0.297880	 0.592074	 -0.709638	 0.239019	 2
1462074445.574	 10	 -3.692840	 -0.889132	 1.878629	 -0.971353	 -1.422014	 2.962310	 -0.300616	 0.606477	 -0.694665	 0.243427	 2
1462074445.584	 10	 -3.607975	 0.341371	 1.899998	 -1.140460	 -1.456494	 2.791707	 -0.299232	 0.621828	 -0.681199	 0.244455	 2
1462074445.594	 10	 -3.487211	 1.918712	 1.949860	 -1.405587	 -1.485545	 2.510090	 -0.292308	 0.638400	 -0.670014	 0.241003	 2
1462074445.604	 10	 -3.384089	 3.267303	 2.128836	 -1.845229	 -1.504929	 2.039575	 -0.279794	 0.656227	 -0.660745	 0.233446	 2
1462074445.614	 10	 -3.233876	 4.159750	 2.346854	 -2.429317	 -1.506761	 1.414580	 -0.262890	 0.674615	 -0.652618	 0.223321	 2
1462074445.624	 10	 -2.996677	 4.492455	 2.561037	 -2.893867	 -1.490638	 0.904269	 -0.243225	 0.692572	 -0.645049	 0.212361	 2
1462074445.634	 10	 -2.629649	 4.058012	 2.788266	 3.105699	 -1.466094	 0.577120	 -0.222954	 0.708882	 -0.637573	 0.203172	 2
1462074445.644	 10	 -2.163283	 3.056643	 2.905977	 2.921530	 -1.439607	 0.358168	 -0.204364	 0.722541	 -0.630063	 0.197968	 2
1462074445.654	 10	 -1.670985	 1.839949	 2.822160	 2.788521	 -1.414295	 0.202027	 -0.188984	 0.733082	 -0.622847	 0.197325	 2
1462074445.664	 10	 -1.263520	 0.470872	 2.518116	 2.686813	 -1.391541	 0.090559	 -0.178199	 0.740494	 -0.616005	 0.201124	 2
1462074445.674	 10	 -0.915778	 -0.833636	 2.146985	 2.603552	 -1.372087	 0.011074	 -0.172499	 0.744984	 -0.609547	 0.209033	 2
1462074445.684	 10	 -0.628611	 -1.875109	 1.795881	 2.529753	 -1.356020	 -0.047615	 -0.171175	 0.746948	 -0.603536	 0.220253	 2
1462074445.694	 10	 -0.468353	 -2.470350	 1.473481	 2.464455	 -1.342736	 -0.090424	 -0.173019	 0.747106	 -0.597898	 0.233269	 2
1462074445.704	 10	 -0.488874	 -2.573903	 1.265939	 2.409784	 -1.330667	 -0.120119	 -0.176381	 0.746564	 -0.592311	 0.246372	 2
1462074445.714	 10	 -0.618732	 -2.249354	 1.233853	 2.366412	 -1.317989	 -0.140607	 -0.179443	 0.746412	 -0.586492	 0.258257	 2
1462074445.724	 10	 -0.766210	 -1.658244	 1.285400	 2.334218	 -1.303819	 -0.155066	 -0.180983	 0.747293	 -0.580448	 0.268103	 2
1462074445.734	 10	 -0.860474	 -0.885296	 1.353096	 2.312760	 -1.288322	 -0.166085	 -0.180262	 0.749453	 -0.574506	 0.275260	 2
1462074445.744	 10	 -0.881162	 -0.102124	 1.393602	 2.300574	 -1.272132	 -0.175801	 -0.177097	 0.752810	 -0.569019	 0.279519	 2
1462074445.754	 10	 -0.860633	 0.449432	 1.338873	 2.295789	 -1.256218	 -0.184268	 -0.172254	 0.756915	 -0.564127	 0.281369	 2
1462074445.764	 10	 -0.816033	 0.719733	 1.230161	 2.296072	 -1.241311	 -0.191008	 -0.166773	 0.761250	 -0.559777	 0.281665	 2
1462074445.774	 10	 -0.722149	 0.807988	 1.118260	 2.298262	 -1.227754	 -0.197092	 -0.161240	 0.765399	 -0.555950	 0.281221	 2
1462074445.784	 10	 -0.576302	 0.840661	 0.989402	 2.300521	 -1.216023	 -0.203557	 -0.155872	 0.769088	 -0.552812	 0.280369	 2
1462074445.794	 10	 -0.388837	 0.877425	 0.854892	 2.302083	 -1.206502	 -0.211129	 -0.150680	 0.772182	 -0.550551	 0.279148	 2
1462074445.804	 10	 -0.195716	 0.967480	 0.737880	 2.302925	 -1.199170	 -0.220324	 -0.145464	 0.774731	 -0.549239	 0.277431	 2
1462074445.814	 10	 -0.003463	 1.095861	 0.625496	 2.303415	 -1.193968	 -0.231218	 -0.140084	 0.776808	 -0.548896	 0.275064	 2
1462074445.824	 10	 0.187720	 1.215806	 0.522634	 2.303438	 -1.190837	 -0.243982	 -0.134497	 0.778422	 -0.549510	 0.272046	 2
1462074445.834	 10	 0.342488	 1.299763	 0.429347	 2.303002	 -1.189517	 -0.258257	 -0.128793	 0.779610	 -0.550934	 0.268500	 2
1462074445.844	 10	 0.458585	 1.330643	 0.334835	 2.302271	 -1.189741	 -0.273340	 -0.123157	 0.780411	 -0.552979	 0.264586	 2
1462074445.854	 10	 0.551972	 1.307276	 0.230425	 2.301271	 -1.191350	 -0.288576	 -0.117814	 0.780828	 -0.555495	 0.260487	 2
1462074445.864	 10	 0.658002	 1.276193	 0.093861	 2.300107	 -1.194574	 -0.303641	 -0.112917	 0.780809	 -0.558523	 0.256201	 2
1462074445.874	 10	 0.808588	 1.233953	 -0.096483	 2.298693	 -1.200001	 -0.318519	 -0.108629	 0.780217	 -0.562258	 0.251649	 2
1462074445.884	 10	 0.988849	 1.191252	 -0.338247	 2.297224	 -1.208343	 -0.333000	 -0.105137	 0.778909	 -0.566922	 0.246671	 2
1462074445.894	 10	 1.196871	 1.113700	 -0.534748	 2.294349	 -1.219567	 -0.348162	 -0.102418	 0.776789	 -0.572543	 0.241463	 2
1462074445.904	 10	 1.471006	 1.010553	 -0.713946	 2.287719	 -1.233815	 -0.366249	 -0.100346	 0.773665	 -0.579289	 0.236217	 2
1462074445.914	 10	 1.780241	 0.872292	 -0.880986	 2.275055	 -1.251304	 -0.389204	 -0.098965	 0.769341	 -0.587289	 0.231109	 2
1462074445.924	 10	 2.094105	 0.771578	 -1.001890	 2.254001	 -1.271665	 -0.419648	 -0.098039	 0.763809	 -0.596513	 0.226176	 2
1462074445.934	 10	 2.437171	 0.759009	 -1.129688	 2.222071	 -1.294850	 -0.460811	 -0.097316	 0.757041	 -0.607051	 0.221150	 2
1462074445.944	 10	 2.593159	 0.860114	 -1.204709	 2.179244	 -1.319668	 -0.513743	 -0.096458	 0.749477	 -0.618455	 0.215624	 2
1462074445.954	 10	 2.261652	 1.168464	 -1.205348	 2.136034	 -1.342967	 -0.569330	 -0.095068	 0.742597	 -0.629161	 0.208969	 2
1462074445.964	 10	 0.454269	 2.349214	 -0.889803	 2.139076	 -1.357204	 -0.585908	 -0.091633	 0.740705	 -0.635055	 0.199161	 2
1462074445.974	 10	 -1.173279	 2.807568	 -0.383247	 2.214680	 -1.355728	 -0.537732	 -0.085199	 0.746189	 -0.633320	 0.186680	 2
1462074445.984	 10	 -0.987418	 1.679888	 -0.343137	 2.283501	 -1.351550	 -0.487872	 -0.081145	 0.751348	 -0.630362	 0.177585	 2
1462074445.994	 10	 -0.233302	 0.077311	 -0.146134	 2.308715	 -1.350336	 -0.466867	 -0.080835	 0.753010	 -0.629148	 0.174970	 2
1462074446.004	 10	 0.256338	 -1.119579	 0.152865	 2.292554	 -1.350815	 -0.474705	 -0.083076	 0.751788	 -0.629330	 0.178484	 2
1462074446.014	 10	 0.374547	 -1.865559	 0.440111	 2.252530	 -1.350333	 -0.498268	 -0.086722	 0.749253	 -0.629629	 0.186190	 2
1462074446.024	 10	 0.261565	 -2.271841	 0.689899	 2.202892	 -1.347176	 -0.526702	 -0.090960	 0.746484	 -0.629185	 0.196505	 2
1462074446.034	 10	 0.025861	 -2.373182	 0.846610	 2.156061	 -1.340994	 -0.550467	 -0.095284	 0.744203	 -0.627577	 0.207920	 2
1462074446.044	 10	 -0.059256	 -2.139595	 0.902813	 2.115847	 -1.333133	 -0.569012	 -0.098969	 0.742453	 -0.625330	 0.218933	 2
1462074446.054	 10	 0.165400	 -1.573333	 0.905060	 2.076702	 -1.325757	 -0.591443	 -0.100924	 0.740672	 -0.623796	 0.228251	 2
1462074446.064	 10	 0.469349	 -0.662068	 0.846948	 2.037682	 -1.319973	 -0.622342	 -0.100087	 0.738811	 -0.623818	 0.234505	 2
1462074446.074	 10	 0.578910	 0.232597	 0.767992	 2.005023	 -1.315379	 -0.656359	 -0.096437	 0.737459	 -0.624998	 0.237131	 2
1462074446.084	 10	 0.436246	 0.690933	 0.845971	 1.981486	 -1.309980	 -0.686978	 -0.090960	 0.737023	 -0.626130	 0.237667	 2
1462074446.094	 10	 -0.064304	 0.693194	 1.101870	 1.971005	 -1.300824	 -0.705431	 -0.084761	 0.738086	 -0.625532	 0.238232	 2
1462074446.104	 10	 -0.736500	 0.160040	 1.230653	 1.975549	 -1.287339	 -0.703836	 -0.079979	 0.740723	 -0.622090	 0.240702	 2
1462074446.114	 10	 -1.207252	 -0.116864	 0.990247	 1.994421	 -1.273111	 -0.683311	 -0.077613	 0.744487	 -0.616642	 0.243859	 2
1462074446.124	 10	 -1.260690	 0.175244	 0.622545	 2.022443	 -1.261185	 -0.654628	 -0.076306	 0.748778	 -0.611005	 0.245322	 2
1462074446.134	 10	 -0.545960	 0.829264	 0.311206	 2.045492	 -1.254319	 -0.637263	 -0.073868	 0.752109	 -0.607845	 0.243722	 2
1462074446.144	 10	 0.581867	 1.435863	 0.081089	 2.047537	 -1.254548	 -0.648967	 -0.068907	 0.752734	 -0.609395	 0.239333	 2
1462074446.154	 10	 0.567534	 1.419424	 -0.284496	 2.047025	 -1.259241	 -0.664706	 -0.064456	 0.752402	 -0.612541	 0.233515	 2
1462074446.164	 10	 -0.049356	 1.411792	 -0.559491	 2.065324	 -1.264120	 -0.660261	 -0.061881	 0.753533	 -0.613962	 0.226737	 2
1462074446.174	 10	 -0.486930	 1.267660	 -0.664665	 2.099727	 -1.267879	 -0.638073	 -0.060729	 0.756026	 -0.613601	 0.219614	 2
1462074446.184	 10	 -0.514870	 0.994447	 -0.657372	 2.136132	 -1.270679	 -0.611096	 -0.060532	 0.758631	 -0.612594	 0.213409	 2
1462074446.194	 10	 -0.156038	 0.608273	 -0.670484	 2.162315	 -1.274860	 -0.591192	 -0.061157	 0.759981	 -0.612528	 0.208562	 2
1462074446.204	 10	 0.305814	 0.095414	 -0.657962	 2.171743	 -1.281391	 -0.583714	 -0.062780	 0.759434	 -0.613999	 0.205730	 2
1462074446.214	 10	 0.756614	 -0.291736	 -0.621794	 2.163487	 -1.290238	 -0.590077	 -0.065173	 0.757026	 -0.617024	 0.204809	 2
1462074446.224	 10	 1.171400	 -0.365277	 -0.621827	 2.140168	 -1.301270	 -0.610579	 -0.067514	 0.753138	 -0.621579	 0.204610	 2
1462074446.234	 10	 1.619098	 -0.437115	 -0.666892	 2.101342	 -1.314682	 -0.646560	 -0.069713	 0.747818	 -0.627729	 0.204609	 2
1462074446.244	 10	 2.163772	 -0.790864	 -0.680255	 2.037005	 -1.330368	 -0.705886	 -0.072319	 0.740464	 -0.635737	 0.205721	 2
1462074446.254	 10	 2.458929	 -1.362682	 -0.651910	 1.943263	 -1.346239	 -0.789737	 -0.076143	 0.731245	 -0.644839	 0.208963	 2
1462074446.264	 10	 2.426910	 -1.833611	 -0.630435	 1.829612	 -1.359886	 -0.888382	 -0.081483	 0.721215	 -0.653716	 0.214160	 2
1462074446.274	 10	 2.270112	 -2.037415	 -0.637361	 1.706820	 -1.370666	 -0.993380	 -0.087826	 0.711172	 -0.661837	 0.220210	 2
1462074446.284	 10	 2.072504	 -2.078291	 -0.633889	 1.581700	 -1.378597	 -1.099776	 -0.094613	 0.701491	 -0.669109	 0.226389	 2
1462074446.294	 10	 1.799714	 -2.011379	 -0.610642	 1.462262	 -1.383852	 -1.200683	 -0.101450	 0.692562	 -0.675347	 0.232320	 2
1462074446.304	 10	 1.448490	 -1.829378	 -0.588838	 1.357233	 -1.387249	 -1.288365	 -0.108074	 0.684820	 -0.680358	 0.237602	 2
1462074446.314	 10	 1.095850	 -1.473130	 -0.593110	 1.271415	 -1.389963	 -1.359643	 -0.114033	 0.678583	 -0.684214	 0.241603	 2
1462074446.324	 10	 0.822473	 -1.020625	 -0.638742	 1.202688	 -1.392955	 -1.417942	 -0.118963	 0.673809	 -0.687299	 0.243823	 2
1462074446.334	 10	 0.681351	 -0.551769	 -0.722674	 1.144073	 -1.396669	 -1.470686	 -0.122752	 0.670133	 -0.690126	 0.244087	 2
1462074446.344	 10	 0.673492	 -0.101472	 -0.818597	 1.087294	 -1.400857	 -1.526127	 -0.125336	 0.667068	 -0.693192	 0.242480	 2
1462074446.354	 10	 0.763445	 0.267732	 -0.910798	 1.025518	 -1.404967	 -1.590659	 -0.126762	 0.664172	 -0.696829	 0.239242	 2
1462074446.364	 10	 0.895714	 0.537016	 -0.977652	 0.954903	 -1.408286	 -1.667017	 -0.127279	 0.661110	 -0.701122	 0.234865	 2
1462074446.374	 10	 1.022683	 0.796889	 -1.024299	 0.875980	 -1.410276	 -1.754390	 -0.126896	 0.657823	 -0.706036	 0.229518	 2
1462074446.384	 10	 1.144238	 1.036600	 -1.066823	 0.790922	 -1.410604	 -1.850497	 -0.125619	 0.654322	 -0.711504	 0.223260	 2
1462074446.394	 10	 1.276857	 1.134808	 -1.110760	 0.700441	 -1.408940	 -1.953533	 -0.123833	 0.650431	 -0.717466	 0.216442	 2
1462074446.404	 10	 1.410710	 1.042621	 -1.155414	 0.605589	 -1.404938	 -2.060588	 -0.122190	 0.645910	 -0.723812	 0.209679	 2
1462074446.414	 10	 1.547881	 0.747292	 -1.197724	 0.508125	 -1.398376	 -2.167946	 -0.121405	 0.640559	 -0.730408	 0.203592	 2
1462074446.424	 10	 1.672331	 0.231935	 -1.225984	 0.409841	 -1.389031	 -2.271554	 -0.122285	 0.634152	 -0.737106	 0.198929	 2
1462074446.434	 10	 1.687777	 -0.343486	 -1.220815	 0.315826	 -1.377550	 -2.365186	 -0.125222	 0.626934	 -0.743523	 0.196081	 2
1462074446.444	 10	 1.604615	 -0.810955	 -1.182876	 0.230133	 -1.365064	 -2.445432	 -0.129976	 0.619401	 -0.749320	 0.194855	 2
1462074446.454	 10	 1.466924	 -1.093034	 -1.122488	 0.154492	 -1.352487	 -2.512211	 -0.135912	 0.611987	 -0.754366	 0.194760	 2
1462074446.464	 10	 1.339741	 -1.180528	 -1.065709	 0.088590	 -1.340216	 -2.567817	 -0.142284	 0.604923	 -0.758767	 0.195183	 2
1462074446.474	 10	 1.268530	 -1.168197	 -1.007424	 0.031370	 -1.328023	 -2.614600	 -0.148570	 0.598154	 -0.762769	 0.195760	 2
1462074446.484	 10	 1.220734	 -1.157100	 -0.963208	 -0.018814	 -1.315760	 -2.654424	 -0.154686	 0.591569	 -0.766510	 0.196419	 2
1462074446.494	 10	 1.156799	 -1.164122	 -0.930744	 -0.063696	 -1.303635	 -2.688842	 -0.160756	 0.585173	 -0.769971	 0.197164	 2
1462074446.504	 10	 1.040697	 -1.131748	 -0.913445	 -0.104547	 -1.292166	 -2.719396	 -0.166773	 0.579153	 -0.773066	 0.197833	 2
1462074446.514	 10	 0.867205	 -1.042889	 -0.903647	 -0.142155	 -1.281982	 -2.747453	 -0.172608	 0.573790	 -0.775690	 0.198181	 2
1462074446.524	 10	 0.668121	 -0.940210	 -0.905222	 -0.177584	 -1.273459	 -2.774380	 -0.178227	 0.569255	 -0.777790	 0.198059	 2
1462074446.534	 10	 0.480672	 -0.860952	 -0.904984	 -0.211749	 -1.266547	 -2.800948	 -0.183699	 0.565519	 -0.779382	 0.197501	 2
1462074446.544	 10	 0.302017	 -0.751728	 -0.875768	 -0.244339	 -1.261159	 -2.826877	 -0.188922	 0.562563	 -0.780501	 0.196594	 2
1462074446.554	 10	 0.140152	 -0.501940	 -0.816614	 -0.273665	 -1.257300	 -2.851685	 -0.193319	 0.560511	 -0.781272	 0.195112	 2
1462074446.564	 10	 0.056479	 -0.209676	 -0.735365	 -0.298117	 -1.254491	 -2.874452	 -0.196462	 0.559226	 -0.781930	 0.193013	 2
1462074446.574	 10	 0.108683	 -0.054094	 -0.673624	 -0.318064	 -1.251585	 -2.894650	 -0.198604	 0.558138	 -0.782755	 0.190613	 2
1462074446.584	 10	 0.270116	 -0.291128	 -0.587711	 -0.335306	 -1.247489	 -2.910684	 -0.200887	 0.556452	 -0.783760	 0.189011	 2
1462074446.594	 10	 0.418123	 -0.890769	 -0.495464	 -0.353096	 -1.242101	 -2.921805	 -0.204800	 0.553724	 -0.784588	 0.189389	 2
1462074446.604	 10	 0.425436	 -1.667723	 -0.417496	 -0.375110	 -1.236496	 -2.929599	 -0.211337	 0.550173	 -0.784677	 0.192168	 2
1462074446.614	 10	 0.282888	 -2.578991	 -0.294712	 -0.403775	 -1.232219	 -2.934939	 -0.221169	 0.546229	 -0.783341	 0.197723	 2
1462074446.624	 10	 -0.008143	 -3.314161	 -0.148746	 -0.439163	 -1.230768	 -2.939324	 -0.233836	 0.542575	 -0.780178	 0.205561	 2
1462074446.634	 10	 -0.442664	 -4.002519	 0.087362	 -0.481114	 -1.233760	 -2.943024	 -0.249065	 0.539806	 -0.774637	 0.215667	 2
1462074446.644	 10	 -1.142873	 -4.311811	 0.420967	 -0.528783	 -1.243643	 -2.948318	 -0.265669	 0.539157	 -0.766226	 0.227215	 2
1462074446.654	 10	 -2.088573	 -4.035732	 0.854878	 -0.580550	 -1.263202	 -2.959277	 -0.281541	 0.542360	 -0.754725	 0.238687	 2
1462074446.664	 10	 -3.034951	 -3.431168	 1.265207	 -0.638102	 -1.292917	 -2.981882	 -0.295203	 0.550169	 -0.740452	 0.248799	 2
1462074446.674	 10	 -3.762388	 -3.006027	 1.662369	 -0.707704	 -1.330787	 -3.021871	 -0.306751	 0.561774	 -0.723816	 0.257691	 2
1462074446.684	 10	 -4.065179	 -2.540105	 1.988004	 -0.795178	 -1.373215	 -3.084077	 -0.316140	 0.575618	 -0.705721	 0.265853	 2
1462074446.694	 10	 -3.949813	 -1.627905	 2.275783	 -0.900919	 -1.416239	 3.110920	 -0.321690	 0.590530	 -0.688078	 0.272653	 2
1462074446.704	 10	 -3.569635	 -0.175586	 2.497008	 -1.027324	 -1.457348	 2.989142	 -0.321362	 0.606182	 -0.672810	 0.276762	 2
1462074446.714	 10	 -3.223439	 1.635492	 2.602502	 -1.210129	 -1.495162	 2.793770	 -0.314084	 0.622911	 -0.660961	 0.276520	 2
1462074446.724	 10	 -3.062736	 3.173640	 2.544009	 -1.628664	 -1.525915	 2.346130	 -0.300918	 0.640894	 -0.652036	 0.271205	 2
1462074446.734	 10	 -2.919948	 3.839816	 2.504203	 -2.559928	 -1.533710	 1.376939	 -0.284658	 0.659136	 -0.644514	 0.262890	 2
1462074446.744	 10	 -2.683064	 3.797947	 2.546513	 3.086222	 -1.512613	 0.700678	 -0.267394	 0.676410	 -0.637397	 0.254350	 2
1462074446.754	 10	 -2.403610	 3.196150	 2.687687	 2.826111	 -1.483084	 0.406181	 -0.250811	 0.691905	 -0.629966	 0.248000	 2
1462074446.764	 10	 -2.036277	 2.391421	 2.894416	 2.675586	 -1.452430	 0.228655	 -0.235318	 0.705248	 -0.622187	 0.245222	 2
1462074446.774	 10	 -1.683569	 1.365153	 2.906307	 2.568318	 -1.422539	 0.104049	 -0.222100	 0.716046	 -0.614177	 0.246448	 2
1462074446.784	 10	 -1.318911	 0.505844	 2.772574	 2.484778	 -1.394776	 0.012280	 -0.211589	 0.724272	 -0.606366	 0.250959	 2
1462074446.794	 10	 -0.988200	 -0.227513	 2.540126	 2.414599	 -1.369935	 -0.058692	 -0.203599	 0.730126	 -0.599135	 0.257879	 2
1462074446.804	 10	 -0.750368	 -0.872085	 2.193145	 2.355668	 -1.348423	 -0.111589	 -0.198438	 0.733864	 -0.592482	 0.266517	 2
1462074446.814	 10	 -0.617641	 -1.352969	 1.788919	 2.307671	 -1.330293	 -0.148129	 -0.196026	 0.735937	 -0.586329	 0.276022	 2
1462074446.824	 10	 -0.607236	 -1.585130	 1.459479	 2.270250	 -1.314786	 -0.170766	 -0.195738	 0.737020	 -0.580446	 0.285606	 2
1462074446.834	 10	 -0.691662	 -1.469109	 1.290771	 2.243179	 -1.300331	 -0.183051	 -0.196226	 0.738039	 -0.574576	 0.294374	 2
1462074446.844	 10	 -0.760072	 -1.020240	 1.266768	 2.225002	 -1.285751	 -0.190023	 -0.195939	 0.739707	 -0.568804	 0.301500	 2
1462074446.854	 10	 -0.800183	 -0.492417	 1.288015	 2.214027	 -1.270762	 -0.194987	 -0.194158	 0.742251	 -0.563318	 0.306659	 2
1462074446.864	 10	 -0.807335	 0.004506	 1.315082	 2.208639	 -1.255440	 -0.199415	 -0.190864	 0.745596	 -0.558182	 0.309984	 2
1462074446.874	 10	 -0.766974	 0.414950	 1.316419	 2.207160	 -1.240209	 -0.204341	 -0.186265	 0.749504	 -0.553518	 0.311716	 2
1462074446.884	 10	 -0.695487	 0.669734	 1.278734	 2.207841	 -1.225575	 -0.210160	 -0.180826	 0.753623	 -0.549383	 0.312302	 2
1462074446.894	 10	 -0.611072	 0.766697	 1.190443	 2.209475	 -1.212058	 -0.216408	 -0.175173	 0.757604	 -0.545768	 0.312231	 2
1462074446.904	 10	 -0.520696	 0.791135	 1.076913	 2.211486	 -1.199944	 -0.222685	 -0.169680	 0.761265	 -0.542658	 0.311780	 2
1462074446.914	 10	 -0.411422	 0.760119	 0.950979	 2.213246	 -1.189443	 -0.229087	 -0.164531	 0.764478	 -0.540095	 0.311128	 2
1462074446.924	 10	 -0.269957	 0.749365	 0.845202	 2.213919	 -1.180636	 -0.236417	 -0.159664	 0.767171	 -0.538172	 0.310367	 2
1462074446.934	 10	 -0.106681	 0.830083	 0.748613	 2.213690	 -1.173557	 -0.245373	 -0.154766	 0.769426	 -0.537033	 0.309236	 2
1462074446.944	 10	 0.074950	 0.960693	 0.645934	 2.212911	 -1.168345	 -0.256288	 -0.149645	 0.771292	 -0.536810	 0.307489	 2
1462074446.954	 10	 0.263897	 1.053042	 0.550295	 2.211178	 -1.165041	 -0.269425	 -0.144320	 0.772718	 -0.537527	 0.305196	 2
1462074446.964	 10	 0.428998	 1.078358	 0.441451	 2.208135	 -1.163595	 -0.284428	 -0.139022	 0.773632	 -0.539081	 0.302585	 2
1462074446.974	 10	 0.548030	 1.086608	 0.307271	 2.204520	 -1.163924	 -0.300176	 -0.133978	 0.774092	 -0.541321	 0.299672	 2
1462074446.984	 10	 0.644511	 1.100998	 0.130714	 2.201395	 -1.166157	 -0.315517	 -0.129388	 0.774160	 -0.544180	 0.296317	 2
1462074446.994	 10	 0.753634	 1.106616	 -0.076941	 2.199050	 -1.170618	 -0.330096	 -0.125396	 0.773796	 -0.547724	 0.292427	 2
1462074447.004	 10	 0.900027	 1.091944	 -0.280847	 2.196614	 -1.177526	 -0.344626	 -0.122022	 0.772881	 -0.552061	 0.288087	 2
1462074447.014	 10	 1.099618	 1.047298	 -0.489759	 2.192740	 -1.187193	 -0.360288	 -0.119273	 0.771233	 -0.557366	 0.283403	 2
1462074447.024	 10	 1.344543	 0.907663	 -0.725527	 2.185660	 -1.200015	 -0.378117	 -0.117371	 0.768591	 -0.563782	 0.278642	 2
1462074447.034	 10	 1.686244	 0.721791	 -0.991343	 2.172663	 -1.216716	 -0.400186	 -0.116535	 0.764575	 -0.571623	 0.274027	 2
1462074447.044	 10	 2.081202	 0.728379	 -1.243043	 2.152278	 -1.237565	 -0.429336	 -0.116319	 0.759145	 -0.581175	 0.269081	 2
1462074447.054	 10	 2.505696	 1.099821	 -1.477751	 2.124034	 -1.262448	 -0.469496	 -0.115583	 0.752578	 -0.592720	 0.262584	 2
1462074447.064	 10	 2.572833	 1.472574	 -1.676296	 2.091812	 -1.289744	 -0.517692	 -0.114162	 0.745653	 -0.605356	 0.253993	 2
1462074447.074	 10	 1.758759	 1.744000	 -1.683734	 2.074923	 -1.314531	 -0.552671	 -0.112836	 0.740599	 -0.615955	 0.243682	 2
1462074447.084	 10	 -0.481284	 2.633092	 -1.134799	 2.119809	 -1.326564	 -0.531181	 -0.110080	 0.742278	 -0.619384	 0.230802	 2
1462074447.094	 10	 -1.419163	 2.090073	 -0.713908	 2.204629	 -1.325685	 -0.467759	 -0.107294	 0.748562	 -0.616595	 0.218983	 2
1462074447.104	 10	 -0.916251	 0.790821	 -0.444752	 2.262458	 -1.323148	 -0.419621	 -0.106994	 0.752811	 -0.613696	 0.212614	 2
1462074447.114	 10	 -0.140768	 -0.074313	 -0.042841	 2.277155	 -1.322103	 -0.405490	 -0.107581	 0.753861	 -0.612648	 0.211619	 2
1462074447.124	 10	 0.438105	 -0.491513	 0.301004	 2.258155	 -1.322427	 -0.421025	 -0.107626	 0.752598	 -0.613383	 0.213949	 2
1462074447.134	 10	 0.520786	 -0.865005	 0.604814	 2.221001	 -1.321586	 -0.451399	 -0.107425	 0.750407	 -0.614404	 0.218760	 2
1462074447.144	 10	 0.257012	 -1.309391	 0.819325	 2.180809	 -1.317320	 -0.480623	 -0.107806	 0.748471	 -0.614164	 0.225769	 2
1462074447.154	 10	 -0.082383	 -1.875437	 0.947036	 2.144202	 -1.309678	 -0.500527	 -0.109707	 0.746987	 -0.612142	 0.235066	 2
1462074447.164	 10	 -0.128429	 -2.035872	 1.098348	 2.107681	 -1.299955	 -0.517273	 -0.112142	 0.745549	 -0.609224	 0.245819	 2
1462074447.174	 10	 0.106083	 -1.473400	 1.168683	 2.069784	 -1.289989	 -0.539387	 -0.112823	 0.744029	 -0.606942	 0.255564	 2
1462074447.184	 10	 0.372067	 -0.639063	 1.047305	 2.034724	 -1.281877	 -0.567432	 -0.110847	 0.742602	 -0.606284	 0.262059	 2
1462074447.194	 10	 0.196536	 -0.228575	 0.967392	 2.009268	 -1.274265	 -0.590674	 -0.107831	 0.741890	 -0.605826	 0.266358	 2
1462074447.204	 10	 -0.174826	 -0.581603	 1.122942	 1.992906	 -1.264244	 -0.603129	 -0.105341	 0.742105	 -0.603853	 0.271193	 2
1462074447.214	 10	 -0.869826	 -0.319949	 1.282766	 1.991637	 -1.249918	 -0.599863	 -0.102881	 0.744205	 -0.599373	 0.276274	 2
1462074447.224	 10	 -1.524335	 0.341130	 0.951441	 2.016923	 -1.234506	 -0.574866	 -0.100353	 0.749079	 -0.592837	 0.278125	 2
1462074447.234	 10	 -1.435554	 0.999078	 0.488921	 2.056230	 -1.222286	 -0.542069	 -0.097750	 0.755060	 -0.586664	 0.275963	 2
1462074447.244	 10	 -0.203148	 1.444199	 0.180721	 2.079773	 -1.217411	 -0.531429	 -0.093577	 0.758658	 -0.584868	 0.271314	 2
1462074447.254	 10	 0.583948	 1.669860	 -0.209838	 2.086388	 -1.220609	 -0.541608	 -0.088623	 0.759422	 -0.587503	 0.265075	 2
1462074447.264	 10	 0.324491	 1.749632	 -0.607563	 2.100485	 -1.227242	 -0.545146	 -0.084878	 0.760192	 -0.590584	 0.257128	 2
1462074447.274	 10	 -0.203367	 1.708824	 -0.728041	 2.130311	 -1.232949	 -0.531796	 -0.082627	 0.762324	 -0.591888	 0.248402	 2
1462074447.284	 10	 -0.238511	 1.634189	 -0.620788	 2.163421	 -1.236946	 -0.514251	 -0.080537	 0.764870	 -0.592337	 0.240052	 2
1462074447.294	 10	 0.079610	 1.400576	 -0.586298	 2.188170	 -1.241749	 -0.503759	 -0.078406	 0.766411	 -0.593593	 0.232625	 2
1462074447.304	 10	 0.382913	 0.735231	 -0.545039	 2.199497	 -1.248129	 -0.501520	 -0.077453	 0.766318	 -0.595800	 0.227555	 2
1462074447.314	 10	 0.640349	 0.033149	 -0.454698	 2.195859	 -1.255345	 -0.507369	 -0.078058	 0.764642	 -0.598603	 0.225620	 2
1462074447.324	 10	 0.972221	 -0.472614	 -0.396216	 2.177031	 -1.263790	 -0.523385	 -0.079680	 0.761411	 -0.602309	 0.226117	 2
1462074447.334	 10	 1.298504	 -0.701660	 -0.461937	 2.145883	 -1.274259	 -0.549107	 -0.081973	 0.756801	 -0.607169	 0.227768	 2
1462074447.344	 10	 1.629949	 -0.761434	 -0.503747	 2.103130	 -1.286562	 -0.585852	 -0.084371	 0.751029	 -0.613231	 0.229749	 2
1462074447.354	 10	 2.295640	 -0.966076	 -0.587116	 2.038679	 -1.301612	 -0.643670	 -0.086765	 0.743265	 -0.621375	 0.232212	 2
1462074447.364	 10	 2.823423	 -1.666028	 -0.680288	 1.940661	 -1.318729	 -0.729760	 -0.090655	 0.732708	 -0.631535	 0.236823	 2
1462074447.374	 10	 2.854460	 -2.313957	 -0.694048	 1.817679	 -1.334115	 -0.834242	 -0.096608	 0.720637	 -0.641804	 0.243795	 2
1462074447.384	 10	 2.539488	 -2.804373	 -0.687343	 1.685765	 -1.345652	 -0.942065	 -0.104510	 0.708437	 -0.650715	 0.252518	 2
1462074447.394	 10	 2.034619	 -3.045435	 -0.692651	 1.560900	 -1.353705	 -1.039266	 -0.113968	 0.697098	 -0.657591	 0.261993	 2
1462074447.404	 10	 1.457363	 -2.985598	 -0.741422	 1.455066	 -1.359974	 -1.116646	 -0.124328	 0.687357	 -0.662299	 0.271001	 2
1462074447.414	 10	 1.025846	 -2.589935	 -0.769153	 1.369866	 -1.365768	 -1.176064	 -0.134387	 0.679429	 -0.665427	 0.278431	 2
1462074447.424	 10	 0.820538	 -1.999023	 -0.768261	 1.298797	 -1.371224	 -1.226608	 -0.142962	 0.673002	 -0.667918	 0.283755	 2
1462074447.434	 10	 0.791743	 -1.293964	 -0.795554	 1.234533	 -1.376344	 -1.277126	 -0.149391	 0.667685	 -0.670608	 0.286642	 2
1462074447.444	 10	 0.852158	 -0.626857	 -0.886857	 1.170604	 -1.381361	 -1.334232	 -0.153699	 0.663095	 -0.674026	 0.287003	 2
1462074447.454	 10	 0.888394	 -0.115961	 -0.968745	 1.104906	 -1.386288	 -1.398743	 -0.156360	 0.659048	 -0.678120	 0.285238	 2
1462074447.464	 10	 0.913309	 0.232450	 -1.021140	 1.036983	 -1.390796	 -1.469356	 -0.157870	 0.655385	 -0.682651	 0.282019	 2
1462074447.474	 10	 0.969768	 0.481843	 -1.074730	 0.964927	 -1.394572	 -1.546904	 -0.158535	 0.651880	 -0.687584	 0.277752	 2
1462074447.484	 10	 1.063863	 0.578918	 -1.143921	 0.885278	 -1.397321	 -1.633540	 -0.158810	 0.648184	 -0.692958	 0.272847	 2
1462074447.494	 10	 1.196313	 0.441836	 -1.219887	 0.794703	 -1.398528	 -1.730455	 -0.159420	 0.643853	 -0.698721	 0.268006	 2
1462074447.504	 10	 1.293095	 0.174337	 -1.254126	 0.694965	 -1.397621	 -1.834168	 -0.160874	 0.638706	 -0.704662	 0.263866	 2
1462074447.514	 10	 1.315339	 -0.088428	 -1.252502	 0.593194	 -1.394651	 -1.937269	 -0.163224	 0.633016	 -0.710460	 0.260568	 2
1462074447.524	 10	 1.332263	 -0.363802	 -1.231765	 0.493588	 -1.389696	 -2.035500	 -0.166449	 0.626887	 -0.715999	 0.258172	 2
1462074447.534	 10	 1.355460	 -0.686882	 -1.187014	 0.398301	 -1.382690	 -2.126287	 -0.170626	 0.620247	 -0.721245	 0.256877	 2
1462074447.544	 10	 1.324529	 -0.991339	 -1.089396	 0.311489	 -1.374045	 -2.205371	 -0.175681	 0.613268	 -0.726003	 0.256822	 2
1462074447.554	 10	 1.240542	 -1.236040	 -0.986497	 0.235319	 -1.364581	 -2.270984	 -0.181453	 0.606232	 -0.730098	 0.257902	 2
1462074447.564	 10	 1.094507	 -1.263781	 -0.910880	 0.169455	 -1.355323	 -2.325469	 -0.187396	 0.599591	 -0.733565	 0.259337	 2
1462074447.574	 10	 0.941319	 -1.231872	 -0.826120	 0.113316	 -1.346859	 -2.370215	 -0.193233	 0.593581	 -0.736388	 0.260874	 2
1462074447.584	 10	 0.876939	 -1.147076	 -0.745904	 0.065384	 -1.338714	 -2.407432	 -0.198642	 0.588035	 -0.738863	 0.262370	 2
1462074447.594	 10	 0.899906	 -1.086028	 -0.678393	 0.024035	 -1.330132	 -2.438678	 -0.203557	 0.582602	 -0.741276	 0.263913	 2
1462074447.604	 10	 0.943689	 -1.078721	 -0.679772	 -0.013822	 -1.320821	 -2.466613	 -0.208267	 0.577015	 -0.743769	 0.265493	 2
1462074447.614	 10	 0.934787	 -1.134191	 -0.705789	 -0.050696	 -1.311204	 -2.493180	 -0.213185	 0.571291	 -0.746222	 0.267079	 2
1462074447.624	 10	 0.873529	 -1.214933	 -0.717730	 -0.086755	 -1.301828	 -2.518167	 -0.218487	 0.565592	 -0.748423	 0.268760	 2
1462074447.634	 10	 0.778088	 -1.308290	 -0.723097	 -0.122231	 -1.293076	 -2.541680	 -0.224246	 0.560049	 -0.750239	 0.270555	 2
1462074447.644	 10	 0.659211	 -1.392011	 -0.729236	 -0.157534	 -1.285234	 -2.564130	 -0.230494	 0.554768	 -0.751587	 0.272437	 2
1462074447.654	 10	 0.534366	 -1.391622	 -0.726013	 -0.192349	 -1.278385	 -2.585840	 -0.236997	 0.549872	 -0.752511	 0.274228	 2
1462074447.664	 10	 0.406991	 -1.267683	 -0.700304	 -0.225183	 -1.272635	 -2.606534	 -0.243242	 0.545582	 -0.753118	 0.275657	 2
1462074447.674	 10	 0.319243	 -1.123568	 -0.663029	 -0.255252	 -1.267757	 -2.625918	 -0.248960	 0.541888	 -0.753543	 0.276676	 2
1462074447.684	 10	 0.282485	 -1.038023	 -0.615020	 -0.282542	 -1.263298	 -2.643464	 -0.254229	 0.538545	 -0.753866	 0.277530	 2
1462074447.694	 10	 0.262168	 -1.070728	 -0.586371	 -0.308331	 -1.259052	 -2.659529	 -0.259405	 0.535333	 -0.754050	 0.278452	 2
1462074447.704	 10	 0.247927	 -1.404402	 -0.550985	 -0.335178	 -1.254872	 -2.674071	 -0.265445	 0.531823	 -0.753801	 0.280155	 2
1462074447.714	 10	 0.134797	 -1.876161	 -0.529877	 -0.366305	 -1.251409	 -2.688400	 -0.273229	 0.527986	 -0.752656	 0.282996	 2
1462074447.724	 10	 -0.140234	 -2.408044	 -0.358713	 -0.401269	 -1.250403	 -2.701304	 -0.282934	 0.524392	 -0.749933	 0.287335	 2
1462074447.734	 10	 -0.612442	 -3.031696	 -0.015097	 -0.439011	 -1.254421	 -2.710569	 -0.294718	 0.521853	 -0.744631	 0.293828	 2
1462074447.744	 10	 -1.303344	 -3.190935	 0.333678	 -0.479489	 -1.265474	 -2.719630	 -0.307539	 0.521602	 -0.736571	 0.301354	 2
1462074447.754	 10	 -2.174308	 -2.787590	 0.893882	 -0.518436	 -1.286112	 -2.729862	 -0.319277	 0.525441	 -0.725778	 0.308579	 2
1462074447.764	 10	 -2.939348	 -2.148022	 1.510781	 -0.549933	 -1.316870	 -2.738583	 -0.328273	 0.533997	 -0.712585	 0.315130	 2
1462074447.774	 10	 -3.400734	 -1.598635	 1.841771	 -0.578240	 -1.354301	 -2.749933	 -0.334815	 0.545854	 -0.697976	 0.320582	 2
1462074447.784	 10	 -3.605015	 -1.083724	 1.922944	 -0.611303	 -1.394542	 -2.771222	 -0.339491	 0.559421	 -0.682988	 0.324532	 2
1462074447.794	 10	 -3.633867	 -0.430436	 1.943130	 -0.654896	 -1.435340	 -2.809214	 -0.341965	 0.574028	 -0.668495	 0.326598	 2
1462074447.804	 10	 -3.483671	 0.405206	 1.954927	 -0.715644	 -1.475048	 -2.872202	 -0.341457	 0.589350	 -0.655350	 0.326481	 2
1462074447.814	 10	 -3.195469	 1.546699	 1.957710	 -0.813996	 -1.512283	 -2.983247	 -0.336910	 0.605323	 -0.644489	 0.323590	 2
1462074447.824	 10	 -2.863070	 2.720497	 2.032881	 -1.087415	 -1.546028	 3.001809	 -0.327660	 0.622000	 -0.636319	 0.317575	 2
1462074447.834	 10	 -2.579303	 3.641310	 2.256395	 -3.137632	 -1.556226	 0.917142	 -0.314038	 0.639269	 -0.630040	 0.309459	 2
1462074447.844	 10	 -2.344022	 4.152453	 2.582028	 2.594644	 -1.525062	 0.325486	 -0.296898	 0.656792	 -0.624654	 0.300471	 2
1462074447.854	 10	 -2.126081	 4.139422	 2.926382	 2.465102	 -1.490770	 0.153848	 -0.277672	 0.673845	 -0.619193	 0.292288	 2
1462074447.864	 10	 -1.887871	 3.575333	 3.117291	 2.393988	 -1.455838	 0.044739	 -0.258431	 0.689399	 -0.613122	 0.286398	 2
1462074447.874	 10	 -1.618353	 2.581032	 3.103560	 2.342934	 -1.421969	 -0.035469	 -0.241304	 0.702494	 -0.606366	 0.283894	 2
1462074447.884	 10	 -1.337352	 1.449322	 2.920061	 2.299826	 -1.390613	 -0.096731	 -0.227547	 0.712680	 -0.599196	 0.285085	 2
1462074447.894	 10	 -1.100914	 0.261437	 2.598943	 2.260963	 -1.362724	 -0.142117	 -0.217895	 0.719918	 -0.591841	 0.289766	 2
1462074447.904	 10	 -0.961125	 -1.012673	 2.228840	 2.224119	 -1.338393	 -0.172722	 -0.213023	 0.724305	 -0.584103	 0.298039	 2
1462074447.914	 10	 -0.811494	 -2.041910	 1.896099	 2.186366	 -1.317434	 -0.192973	 -0.212395	 0.726125	 -0.576094	 0.309430	 2
1462074447.924	 10	 -0.659488	 -2.609192	 1.612399	 2.147660	 -1.299652	 -0.207190	 -0.214543	 0.725954	 -0.568259	 0.322558	 2
1462074447.934	 10	 -0.597628	 -2.713660	 1.458484	 2.110929	 -1.283846	 -0.217160	 -0.217810	 0.724798	 -0.560686	 0.335944	 2
1462074447.944	 10	 -0.650166	 -2.318862	 1.464747	 2.080443	 -1.268095	 -0.223416	 -0.220447	 0.723961	 -0.553225	 0.348174	 2
1462074447.954	 10	 -0.750501	 -1.518932	 1.583903	 2.059825	 -1.251032	 -0.226850	 -0.220886	 0.724599	 -0.545953	 0.357912	 2
1462074447.964	 10	 -0.854657	 -0.632763	 1.713488	 2.049920	 -1.232276	 -0.228352	 -0.218579	 0.727166	 -0.538969	 0.364643	 2
1462074447.974	 10	 -0.944987	 0.029899	 1.828082	 2.048541	 -1.212015	 -0.228522	 -0.214038	 0.731375	 -0.532151	 0.368908	 2
1462074447.984	 10	 -0.928930	 0.509394	 1.807892	 2.052327	 -1.191497	 -0.228774	 -0.208017	 0.736527	 -0.525754	 0.371268	 2
1462074447.994	 10	 -0.868158	 0.824235	 1.687730	 2.059393	 -1.172130	 -0.229260	 -0.201335	 0.742004	 -0.520046	 0.372084	 2
1462074448.004	 10	 -0.742050	 1.025605	 1.493471	 2.068085	 -1.154864	 -0.230456	 -0.194496	 0.747358	 -0.515258	 0.371666	 2
1462074448.014	 10	 -0.586604	 1.129945	 1.277804	 2.077226	 -1.140179	 -0.232629	 -0.187818	 0.752306	 -0.511498	 0.370311	 2
1462074448.024	 10	 -0.420868	 1.118622	 1.103603	 2.085151	 -1.127937	 -0.236308	 -0.181485	 0.756621	 -0.508680	 0.368555	 2
1462074448.034	 10	 -0.264824	 1.058662	 0.965268	 2.091113	 -1.117751	 -0.241613	 -0.175528	 0.760259	 -0.506650	 0.366746	 2
1462074448.044	 10	 -0.093542	 1.032942	 0.861225	 2.094944	 -1.109434	 -0.248868	 -0.169809	 0.763258	 -0.505409	 0.364916	 2
1462074448.054	 10	 0.093778	 1.047299	 0.716915	 2.097051	 -1.103121	 -0.258230	 -0.164186	 0.765679	 -0.505085	 0.362862	 2
1462074448.064	 10	 0.295594	 0.986993	 0.549404	 2.097081	 -1.099241	 -0.269459	 -0.158942	 0.767355	 -0.505764	 0.360703	 2
1462074448.074	 10	 0.470828	 0.953305	 0.374911	 2.095264	 -1.097770	 -0.282238	 -0.154140	 0.768315	 -0.507408	 0.358428	 2
1462074448.084	 10	 0.614296	 0.983432	 0.187434	 2.092855	 -1.098625	 -0.295867	 -0.149724	 0.768755	 -0.509954	 0.355731	 2
1462074448.094	 10	 0.751396	 1.042112	 -0.025301	 2.090625	 -1.101931	 -0.309892	 -0.145714	 0.768764	 -0.513412	 0.352388	 2
1462074448.104	 10	 0.915007	 1.087754	 -0.265031	 2.088371	 -1.108020	 -0.324500	 -0.142185	 0.768261	 -0.517896	 0.348342	 2
1462074448.114	 10	 1.098551	 1.085263	 -0.534159	 2.085368	 -1.117251	 -0.339978	 -0.139320	 0.767080	 -0.523500	 0.343695	 2
1462074448.124	 10	 1.307609	 1.089901	 -0.836481	 2.081202	 -1.130017	 -0.356616	 -0.137238	 0.765101	 -0.530344	 0.338409	 2
1462074448.134	 10	 1.578992	 1.142589	 -1.087742	 2.074821	 -1.146326	 -0.376158	 -0.135596	 0.762275	 -0.538602	 0.332353	 2
1462074448.144	 10	 1.876534	 1.098296	 -1.355054	 2.064070	 -1.166245	 -0.400071	 -0.134510	 0.758351	 -0.548311	 0.325832	 2
1462074448.154	 10	 2.207006	 0.999850	 -1.596512	 2.046273	 -1.189768	 -0.430378	 -0.134086	 0.753084	 -0.559499	 0.319132	 2
1462074448.164	 10	 2.480873	 1.114325	 -1.833365	 2.021224	 -1.216481	 -0.468658	 -0.133900	 0.746721	 -0.572103	 0.311731	 2
1462074448.174	 10	 2.359032	 1.572711	 -1.886656	 1.996122	 -1.243872	 -0.510492	 -0.133046	 0.740642	 -0.584982	 0.302561	 2
1462074448.184	 10	 1.289755	 2.904406	 -1.578264	 1.995502	 -1.266067	 -0.536863	 -0.129600	 0.738254	 -0.595224	 0.289644	 2
1462074448.194	 10	 -0.366975	 3.747606	 -0.815288	 2.048748	 -1.274709	 -0.520850	 -0.121986	 0.743117	 -0.598811	 0.272620	 2
1462074448.204	 10	 -0.680856	 2.303428	 -0.474292	 2.103492	 -1.276329	 -0.491808	 -0.116851	 0.748361	 -0.598690	 0.260523	 2
1462074448.214	 10	 -0.390270	 1.074296	 -0.008666	 2.132797	 -1.274983	 -0.475162	 -0.113985	 0.751452	 -0.597826	 0.254818	 2
1462074448.224	 10	 0.080224	 0.418018	 0.470315	 2.133253	 -1.271719	 -0.480571	 -0.110999	 0.752489	 -0.597534	 0.253757	 2
1462074448.234	 10	 0.417619	 -0.244540	 0.762823	 2.111183	 -1.267601	 -0.503034	 -0.108103	 0.751742	 -0.597931	 0.256274	 2
1462074448.244	 10	 0.414050	 -1.104097	 0.885944	 2.076601	 -1.262279	 -0.529989	 -0.106938	 0.749750	 -0.597971	 0.262432	 2
1462074448.254	 10	 0.124707	 -1.771539	 0.838556	 2.042136	 -1.255716	 -0.549096	 -0.108322	 0.747412	 -0.596739	 0.271190	 2
1462074448.264	 10	 -0.173859	 -1.942993	 0.835298	 2.014798	 -1.247770	 -0.557520	 -0.111140	 0.745538	 -0.594108	 0.280816	 2
1462074448.274	 10	 -0.118586	 -1.726500	 0.791003	 1.990978	 -1.239738	 -0.563696	 -0.113664	 0.743894	 -0.591357	 0.289828	 2
1462074448.284	 10	 0.227997	 -1.211602	 0.653162	 1.966183	 -1.233936	 -0.575579	 -0.114932	 0.741919	 -0.590047	 0.296970	 2
1462074448.294	 10	 0.679018	 -1.017668	 0.591357	 1.935289	 -1.230540	 -0.597838	 -0.114830	 0.739119	 -0.590670	 0.302697	 2
1462074448.304	 10	 0.765201	 -0.765652	 0.764539	 1.899273	 -1.226385	 -0.626846	 -0.113556	 0.735912	 -0.591929	 0.308477	 2
1462074448.314	 10	 0.522446	 -0.208550	 0.781429	 1.873157	 -1.220699	 -0.650838	 -0.110761	 0.734029	 -0.592702	 0.312471	 2
1462074448.324	 10	 0.065976	 0.270804	 0.551133	 1.865070	 -1.215317	 -0.661282	 -0.107683	 0.734083	 -0.592509	 0.313783	 2
1462074448.334	 10	 -0.360716	 0.383266	 0.193535	 1.873602	 -1.211896	 -0.656318	 -0.105938	 0.735627	 -0.591305	 0.313031	 2
1462074448.344	 10	 -0.566734	 0.079364	 0.003861	 1.888256	 -1.209836	 -0.642397	 -0.106115	 0.737470	 -0.589367	 0.312289	 2
1462074448.354	 10	 -0.497847	 0.203779	 -0.265219	 1.904188	 -1.209927	 -0.626602	 -0.107285	 0.739097	 -0.587780	 0.311032	 2
1462074448.364	 10	 -0.488325	 1.108897	 -0.556358	 1.929159	 -1.212948	 -0.609048	 -0.107342	 0.741554	 -0.587229	 0.306165	 2
1462074448.374	 10	 -0.622179	 2.067361	 -0.735980	 1.968975	 -1.217254	 -0.586227	 -0.105386	 0.745665	 -0.587100	 0.296971	 2
1462074448.384	 10	 -0.807961	 2.594637	 -0.848821	 2.022319	 -1.221641	 -0.556033	 -0.102263	 0.751118	 -0.586735	 0.284790	 2
1462074448.394	 10	 -0.759058	 2.575175	 -0.872875	 2.078984	 -1.225713	 -0.523563	 -0.098986	 0.756639	 -0.586278	 0.271988	 2
1462074448.404	 10	 -0.493643	 2.263986	 -0.850372	 2.127974	 -1.230159	 -0.496280	 -0.096128	 0.760980	 -0.586402	 0.260386	 2
1462074448.414	 10	 -0.146280	 2.177812	 -1.152611	 2.172742	 -1.237638	 -0.472132	 -0.094058	 0.764031	 -0.587815	 0.248764	 2
1462074448.424	 10	 0.842959	 1.445845	 -1.367333	 2.198799	 -1.251682	 -0.462481	 -0.093450	 0.763825	 -0.592354	 0.238654	 2
1462074448.434	 10	 1.892817	 0.098891	 -1.441230	 2.187217	 -1.272966	 -0.479323	 -0.095613	 0.758737	 -0.600558	 0.233467	 2
1462074448.444	 10	 2.418116	 -0.999059	 -1.417653	 2.141349	 -1.297778	 -0.519153	 -0.100617	 0.750128	 -0.610590	 0.233160	 2
1462074448.454	 10	 2.580297	 -1.527545	 -1.334459	 2.070733	 -1.322481	 -0.577539	 -0.107048	 0.739898	 -0.620956	 0.235598	 2
1462074448.464	 10	 2.526115	 -1.780906	 -1.240426	 1.981537	 -1.345093	 -0.651453	 -0.114096	 0.729151	 -0.630874	 0.239414	 2
1462074448.474	 10	 2.237878	 -1.647551	 -1.154612	 1.884220	 -1.364298	 -0.733533	 -0.120974	 0.719008	 -0.639699	 0.243265	 2
1462074448.484	 10	 1.777747	 -1.225079	 -1.163727	 1.795230	 -1.380487	 -0.810749	 -0.127059	 0.710567	 -0.647065	 0.245473	 2
1462074448.494	 10	 1.314540	 -0.950883	 -1.233877	 1.721834	 -1.395061	 -0.875177	 -0.132860	 0.703918	 -0.652937	 0.246009	 2
1462074448.504	 10	 0.981879	 -0.822833	 -1.310787	 1.660821	 -1.409188	 -0.928416	 -0.138894	 0.698528	 -0.657654	 0.245476	 2
1462074448.514	 10	 0.830220	 -0.620318	 -1.312911	 1.604447	 -1.422878	 -0.978601	 -0.144674	 0.693937	 -0.661768	 0.244098	 2
1462074448.524	 10	 0.801027	 -0.326004	 -1.220394	 1.543916	 -1.435348	 -1.035573	 -0.149364	 0.689838	 -0.665774	 0.241992	 2
1462074448.534	 10	 0.845162	 -0.069371	 -1.160839	 1.473833	 -1.446561	 -1.105007	 -0.152818	 0.686038	 -0.669940	 0.239121	 2
1462074448.544	 10	 0.933466	 0.025666	 -1.073331	 1.385621	 -1.456158	 -1.193935	 -0.155460	 0.682130	 -0.674377	 0.236106	 2
1462074448.554	 10	 0.955066	 -0.000294	 -0.977842	 1.281387	 -1.463651	 -1.298955	 -0.157695	 0.678139	 -0.678804	 0.233419	 2
1462074448.564	 10	 0.970701	 -0.131774	 -0.915256	 1.163823	 -1.469077	 -1.416221	 -0.160024	 0.674014	 -0.683063	 0.231348	 2
1462074448.574	 10	 1.010388	 -0.323270	 -0.905660	 1.031032	 -1.472587	 -1.546952	 -0.162842	 0.669542	 -0.687251	 0.229962	 2
1462074448.584	 10	 1.027547	 -0.507532	 -0.934168	 0.886194	 -1.474261	 -1.687807	 -0.166347	 0.664720	 -0.691343	 0.229174	 2
1462074448.594	 10	 1.037841	 -0.629515	 -0.884236	 0.738545	 -1.473694	 -1.830090	 -0.170244	 0.659676	 -0.695303	 0.228908	 2
1462074448.604	 10	 1.024958	 -0.725575	 -0.789099	 0.602512	 -1.470681	 -1.959776	 -0.174168	 0.654592	 -0.699012	 0.229252	 2
1462074448.614	 10	 0.985512	 -0.753859	 -0.745323	 0.482637	 -1.466018	 -2.072741	 -0.178094	 0.649586	 -0.702455	 0.229952	 2
1462074448.624	 10	 0.988416	 -0.803970	 -0.760735	 0.373202	 -1.460183	 -2.174889	 -0.182181	 0.644527	 -0.705805	 0.230724	 2
1462074448.634	 10	 0.989068	 -0.897521	 -0.754151	 0.274312	 -1.453200	 -2.265660	 -0.186548	 0.639320	 -0.709056	 0.231752	 2
1462074448.644	 10	 0.966985	 -1.060137	 -0.746946	 0.186279	 -1.445431	 -2.344111	 -0.191408	 0.633976	 -0.712063	 0.233247	 2
1462074448.654	 10	 0.960831	 -1.231379	 -0.749552	 0.106825	 -1.437024	 -2.412244	 -0.196886	 0.628434	 -0.714813	 0.235263	 2
1462074448.664	 10	 0.971978	 -1.343207	 -0.765610	 0.034355	 -1.427882	 -2.472031	 -0.202855	 0.622637	 -0.717418	 0.237663	 2
1462074448.674	 10	 1.023876	 -1.376762	 -0.824991	 -0.033630	 -1.417808	 -2.526914	 -0.209081	 0.616549	 -0.720093	 0.240039	 2
1462074448.684	 10	 1.096012	 -1.409392	 -0.895197	 -0.097881	 -1.406468	 -2.577832	 -0.215511	 0.610042	 -0.722975	 0.242304	 2
1462074448.694	 10	 1.154125	 -1.505522	 -0.927505	 -0.157472	 -1.393954	 -2.623242	 -0.222297	 0.603085	 -0.725941	 0.244708	 2
1462074448.704	 10	 1.128795	 -1.627084	 -0.980638	 -0.213024	 -1.381013	 -2.663585	 -0.229556	 0.595913	 -0.728735	 0.247258	 2
1462074448.714	 10	 1.104133	 -1.822136	 -1.047250	 -0.268004	 -1.367750	 -2.701508	 -0.237729	 0.588436	 -0.731235	 0.250046	 2
1462074448.724	 10	 1.030463	 -1.826201	 -1.050909	 -0.319376	 -1.354612	 -2.735241	 -0.246209	 0.580993	 -0.733417	 0.252841	 2
1462074448.734	 10	 0.880714	 -1.684206	 -1.037626	 -0.366398	 -1.342425	 -2.765748	 -0.254389	 0.574112	 -0.735242	 0.255150	 2
1462074448.744	 10	 0.722697	 -1.511115	 -0.993075	 -0.408969	 -1.331599	 -2.793567	 -0.261997	 0.568036	 -0.736693	 0.256857	 2
1462074448.754	 10	 0.660332	 -1.427597	 -0.941664	 -0.447058	 -1.321563	 -2.817972	 -0.269143	 0.562452	 -0.737896	 0.258301	 2
1462074448.764	 10	 0.595413	 -1.424974	 -0.899510	 -0.482005	 -1.311936	 -2.839363	 -0.276151	 0.557076	 -0.738870	 0.259765	 2
1462074448.774	 10	 0.389763	 -1.424857	 -0.819917	 -0.515786	 -1.303982	 -2.859578	 -0.283172	 0.552389	 -0.739213	 0.261235	 2
1462074448.784	 10	 0.190716	 -1.395925	 -0.724128	 -0.548860	 -1.298170	 -2.879289	 -0.290124	 0.548609	 -0.738819	 0.262683	 2
1462074448.794	 10	 0.114414	 -1.352553	 -0.640996	 -0.579839	 -1.293562	 -2.897353	 -0.296783	 0.545380	 -0.738043	 0.264147	 2
1462074448.804	 10	 0.112134	 -1.431897	 -0.583098	 -0.608952	 -1.289313	 -2.913028	 -0.303437	 0.542219	 -0.737024	 0.265933	 2
1462074448.814	 10	 0.116787	 -1.626124	 -0.524197	 -0.637385	 -1.285213	 -2.926295	 -0.310522	 0.538864	 -0.735651	 0.268363	 2
1462074448.824	 10	 0.096754	 -1.881698	 -0.428351	 -0.665690	 -1.281623	 -2.936844	 -0.318286	 0.535310	 -0.733687	 0.271738	 2
1462074448.834	 10	 0.013321	 -2.057907	 -0.267269	 -0.693254	 -1.279356	 -2.944529	 -0.326467	 0.531898	 -0.730962	 0.276041	 2
1462074448.844	 10	 -0.096041	 -2.158862	 -0.006144	 -0.718142	 -1.279370	 -2.948222	 -0.334560	 0.529046	 -0.727359	 0.281298	 2
1462074448.854	 10	 -0.200469	 -2.197464	 0.348239	 -0.737462	 -1.282386	 -2.945448	 -0.342087	 0.526984	 -0.722816	 0.287751	 2
1462074448.864	 10	 -0.393977	 -2.120899	 0.707667	 -0.751195	 -1.289058	 -2.937421	 -0.348670	 0.526145	 -0.717325	 0.295036	 2
1462074448.874	 10	 -0.659246	 -1.842306	 1.030166	 -0.760440	 -1.299883	 -2.927053	 -0.353923	 0.527059	 -0.710969	 0.302440	 2
1462074448.884	 10	 -0.899071	 -1.610490	 1.365863	 -0.764137	 -1.314818	 -2.913706	 -0.357686	 0.529775	 -0.703835	 0.309864	 2
1462074448.894	 10	 -1.208404	 -1.389274	 1.678620	 -0.763750	 -1.333987	 -2.898317	 -0.360287	 0.534297	 -0.695730	 0.317301	 2
1462074448.904	 10	 -1.632186	 -0.813176	 2.041504	 -0.757480	 -1.358517	 -2.881812	 -0.360860	 0.541517	 -0.686724	 0.323960	 2
1462074448.914	 10	 -2.032775	 0.077459	 2.226999	 -0.745309	 -1.387621	 -2.867844	 -0.358564	 0.551817	 -0.677581	 0.328350	 2
1462074448.924	 10	 -2.293917	 0.731013	 2.336601	 -0.726907	 -1.419736	 -2.855216	 -0.353799	 0.564449	 -0.668584	 0.330483	 2
1462074448.934	 10	 -2.455224	 1.076717	 2.422221	 -0.700101	 -1.453726	 -2.838311	 -0.347626	 0.578353	 -0.659464	 0.331318	 2
1462074448.944	 10	 -2.508310	 1.449261	 2.586014	 -0.643680	 -1.489099	 -2.795040	 -0.339964	 0.593116	 -0.650232	 0.331416	 2
1462074448.954	 10	 -2.328699	 2.125627	 2.939248	 -0.437855	 -1.524355	 -2.608310	 -0.329143	 0.608804	 -0.641603	 0.330709	 2
1462074448.964	 10	 -1.835871	 2.706093	 3.541449	 0.588249	 -1.543862	 -1.607469	 -0.313748	 0.624788	 -0.634079	 0.330373	 2
1462074448.974	 10	 -1.314080	 2.980229	 4.007326	 1.442424	 -1.515877	 -0.782121	 -0.294499	 0.640122	 -0.627535	 0.331231	 2
1462074448.984	 10	 -0.988336	 3.221935	 4.322204	 1.631183	 -1.473692	 -0.624481	 -0.272661	 0.654661	 -0.621554	 0.332784	 2
1462074448.994	 10	 -1.025232	 3.397743	 4.496815	 1.709715	 -1.428241	 -0.579341	 -0.249102	 0.669167	 -0.615226	 0.334156	 2
1462074449.004	 10	 -1.481636	 3.310244	 4.420043	 1.776747	 -1.382057	 -0.545298	 -0.226065	 0.684163	 -0.607198	 0.334853	 2
1462074449.014	 10	 -1.941894	 3.202589	 4.202435	 1.844923	 -1.336272	 -0.508369	 -0.204749	 0.699665	 -0.597144	 0.334613	 2
1462074449.024	 10	 -2.046881	 3.349792	 3.925489	 1.906531	 -1.292002	 -0.478786	 -0.184264	 0.715109	 -0.586447	 0.332785	 2
1462074449.034	 10	 -1.886546	 3.649270	 3.633795	 1.958477	 -1.250485	 -0.461771	 -0.163712	 0.729873	 -0.576416	 0.328981	 2
1462074449.044	 10	 -1.719710	 3.765597	 3.315828	 2.003672	 -1.212350	 -0.453980	 -0.143258	 0.743679	 -0.567305	 0.323394	 2
1462074449.054	 10	 -1.440703	 3.427667	 3.029959	 2.039330	 -1.177848	 -0.453542	 -0.124149	 0.755675	 -0.559005	 0.317893	 2
1462074449.064	 10	 -1.097104	 2.952600	 2.779553	 2.063922	 -1.147217	 -0.460131	 -0.106722	 0.765439	 -0.551790	 0.313436	 2
1462074449.074	 10	 -0.808125	 2.572073	 2.637078	 2.079553	 -1.119644	 -0.472270	 -0.090524	 0.773299	 -0.545589	 0.310075	 2
1462074449.084	 10	 -0.629453	 2.234227	 2.615327	 2.088734	 -1.093631	 -0.487916	 -0.075133	 0.779771	 -0.539925	 0.307885	 2
1462074449.094	 10	 -0.527249	 2.061601	 2.758840	 2.093231	 -1.067374	 -0.506453	 -0.059762	 0.785361	 -0.534317	 0.306826	 2
1462074449.104	 10	 -0.495916	 2.178032	 2.986658	 2.096545	 -1.039519	 -0.527281	 -0.043307	 0.790730	 -0.528406	 0.306034	 2
1462074449.114	 10	 -0.412728	 2.001595	 3.183589	 2.097626	 -1.010145	 -0.550297	 -0.026080	 0.795612	 -0.522208	 0.305975	 2
1462074449.124	 10	 -0.168386	 1.502375	 3.229039	 2.092296	 -0.981011	 -0.576244	 -0.009301	 0.799033	 -0.516459	 0.307783	 2
1462074449.134	 10	 0.162942	 0.651150	 3.023198	 2.078022	 -0.954496	 -0.604270	 0.005443	 0.800224	 -0.511995	 0.312207	 2
1462074449.144	 10	 0.472106	 -0.301679	 2.731345	 2.054207	 -0.931730	 -0.632983	 0.017143	 0.798950	 -0.509175	 0.319572	 2
1462074449.154	 10	 0.660006	 -1.166968	 2.434967	 2.022437	 -0.912170	 -0.660786	 0.025681	 0.795549	 -0.507679	 0.329703	 2
1462074449.164	 10	 0.841387	 -1.694301	 2.245169	 1.985171	 -0.894802	 -0.687949	 0.032025	 0.790524	 -0.507240	 0.341693	 2
1462074449.174	 10	 1.000842	 -2.072177	 2.269041	 1.944046	 -0.877716	 -0.715662	 0.037575	 0.784267	 -0.507453	 0.354971	 2
1462074449.184	 10	 1.097649	 -2.201663	 2.345859	 1.900724	 -0.859551	 -0.743760	 0.043072	 0.777101	 -0.507884	 0.369205	 2
1462074449.194	 10	 1.122337	 -2.162458	 2.335351	 1.858582	 -0.840645	 -0.770737	 0.048683	 0.769600	 -0.508315	 0.383355	 2
1462074449.204	 10	 1.106027	 -2.197759	 2.301060	 1.818649	 -0.821383	 -0.795568	 0.054158	 0.761988	 -0.508611	 0.397186	 2
1462074449.214	 10	 1.145170	 -2.706416	 2.282131	 1.775946	 -0.801530	 -0.819155	 0.058657	 0.753267	 -0.508984	 0.412411	 2
1462074449.224	 10	 1.012151	 -2.786196	 1.934043	 1.733090	 -0.783403	 -0.839425	 0.061308	 0.743965	 -0.509544	 0.427928	 2
1462074449.234	 10	 0.742768	 -2.435261	 1.671082	 1.698431	 -0.767670	 -0.853795	 0.063063	 0.736082	 -0.509521	 0.441129	 2
1462074449.244	 10	 0.757366	 -2.739448	 1.677716	 1.663012	 -0.751842	 -0.866580	 0.064089	 0.727684	 -0.509351	 0.454896	 2
1462074449.254	 10	 0.753461	 -2.814528	 1.589659	 1.626720	 -0.736250	 -0.878532	 0.064526	 0.718711	 -0.509270	 0.468973	 2
1462074449.264	 10	 0.757555	 -2.405886	 1.328051	 1.594148	 -0.722444	 -0.889228	 0.064851	 0.710319	 -0.509391	 0.481417	 2
1462074449.274	 10	 0.956493	 -1.932192	 0.875646	 1.565898	 -0.712637	 -0.901345	 0.065368	 0.702762	 -0.510841	 0.490811	 2
1462074449.284	 10	 1.105342	 -1.702700	 0.461904	 1.539246	 -0.706838	 -0.915418	 0.065514	 0.695496	 -0.513795	 0.498004	 2
1462074449.294	 10	 1.099150	 -1.613549	 0.139862	 1.513532	 -0.704237	 -0.929869	 0.064811	 0.688470	 -0.517642	 0.503841	 2
1462074449.304	 10	 0.999924	 -1.528862	 0.044530	 1.489433	 -0.702956	 -0.943197	 0.063577	 0.681876	 -0.521497	 0.508964	 2
1462074449.314	 10	 0.845564	 -1.580446	 0.202061	 1.466395	 -0.700739	 -0.954706	 0.062259	 0.675497	 -0.524671	 0.514342	 2
1462074449.324	 10	 0.485078	 -1.665637	 0.628580	 1.445590	 -0.694968	 -0.961607	 0.061215	 0.669548	 -0.525838	 0.521011	 2
1462074449.334	 10	 -0.025529	 -1.728664	 1.117361	 1.428635	 -0.684971	 -0.961242	 0.060297	 0.664456	 -0.524100	 0.529322	 2
1462074449.344	 10	 -0.588701	 -1.869012	 1.629327	 1.415782	 -0.670804	 -0.952684	 0.059311	 0.660312	 -0.519149	 0.539402	 2
1462074449.354	 10	 -1.072798	 -2.142097	 2.056240	 1.404918	 -0.652980	 -0.936711	 0.057823	 0.656568	 -0.511249	 0.551543	 2
1462074449.364	 10	 -1.452453	 -2.516803	 2.299053	 1.393639	 -0.633178	 -0.915138	 0.055237	 0.652621	 -0.501200	 0.565538	 2
1462074449.374	 10	 -1.756835	 -2.872592	 2.394311	 1.380719	 -0.612846	 -0.889449	 0.051247	 0.648150	 -0.489658	 0.580957	 2
1462074449.384	 10	 -2.131361	 -3.036790	 2.334230	 1.367580	 -0.593718	 -0.859667	 0.045613	 0.643644	 -0.476889	 0.596840	 2
1462074449.394	 10	 -2.522187	 -3.266848	 2.279006	 1.354478	 -0.576401	 -0.825483	 0.038094	 0.639195	 -0.462857	 0.612978	 2
1462074449.404	 10	 -2.724932	 -3.729859	 2.296713	 1.338521	 -0.560068	 -0.788244	 0.028807	 0.633765	 -0.447757	 0.630099	 2
1462074449.414	 10	 -2.488448	 -4.264559	 2.286481	 1.315837	 -0.543983	 -0.752736	 0.018786	 0.625896	 -0.432909	 0.648453	 2
1462074449.424	 10	 -2.231224	 -4.701463	 2.276978	 1.286627	 -0.528094	 -0.719858	 0.008509	 0.615503	 -0.418562	 0.667749	 2
1462074449.434	 10	 -1.863793	 -5.001082	 2.176138	 1.251719	 -0.512822	 -0.690759	 -0.001564	 0.602767	 -0.405204	 0.687371	 2
1462074449.444	 10	 -1.587122	 -5.023366	 2.001934	 1.213698	 -0.498940	 -0.665224	 -0.011252	 0.588559	 -0.392991	 0.706420	 2
1462074449.454	 10	 -1.379116	 -4.584588	 1.724976	 1.177141	 -0.487415	 -0.642625	 -0.020279	 0.574577	 -0.382019	 0.723541	 2
1462074449.464	 10	 -1.284227	 -3.695549	 1.451062	 1.147110	 -0.478720	 -0.622493	 -0.028137	 0.562810	 -0.372370	 0.737424	 2
1462074449.474	 10	 -1.376359	 -2.796072	 1.367513	 1.126373	 -0.471909	 -0.602209	 -0.034825	 0.554359	 -0.363015	 0.748127	 2
1462074449.484	 10	 -1.401354	 -2.276410	 1.442906	 1.112144	 -0.465305	 -0.581093	 -0.040471	 0.548203	 -0.353360	 0.756949	 2
1462074449.494	 10	 -1.197704	 -2.184708	 1.557089	 1.099364	 -0.457242	 -0.560833	 -0.044881	 0.542431	 -0.343620	 0.765297	 2
1462074449.504	 10	 -0.884695	 -2.404191	 1.631187	 1.083723	 -0.447472	 -0.543033	 -0.048259	 0.535435	 -0.334283	 0.774103	 2
1462074449.514	 10	 -0.504110	 -2.613754	 1.780459	 1.064446	 -0.435002	 -0.528024	 -0.050198	 0.526849	 -0.325271	 0.783651	 2
1462074449.524	 10	 -0.177251	 -2.673209	 1.927332	 1.042993	 -0.419824	 -0.515310	 -0.050556	 0.517198	 -0.316473	 0.793597	 2
1462074449.534	 10	 0.052518	 -2.473105	 2.040165	 1.022080	 -0.402497	 -0.504083	 -0.049338	 0.507554	 -0.307805	 0.803250	 2
1462074449.544	 10	 0.138027	 -2.033728	 2.089336	 1.004721	 -0.384192	 -0.493271	 -0.046874	 0.499189	 -0.299186	 0.811850	 2
1462074449.554	 10	 0.148028	 -1.505077	 2.098432	 0.992324	 -0.365756	 -0.482417	 -0.043479	 0.492767	 -0.290638	 0.819036	 2
1462074449.564	 10	 0.109551	 -1.041437	 2.070042	 0.984740	 -0.347729	 -0.471287	 -0.039528	 0.488312	 -0.282150	 0.824852	 2
1462074449.574	 10	 0.033085	 -0.726474	 2.057653	 0.980591	 -0.330272	 -0.459663	 -0.035393	 0.485305	 -0.273613	 0.829676	 2
1462074449.584	 10	 -0.112231	 -0.534630	 2.053243	 0.978894	 -0.313643	 -0.446964	 -0.031499	 0.483370	 -0.264805	 0.833810	 2
1462074449.594	 10	 -0.251144	 -0.566187	 2.045632	 0.977645	 -0.297883	 -0.433059	 -0.028184	 0.481691	 -0.255636	 0.837753	 2
1462074449.604	 10	 -0.310011	 -0.824508	 2.040544	 0.974298	 -0.282674	 -0.418531	 -0.025489	 0.479190	 -0.246247	 0.842075	 2
1462074449.614	 10	 -0.296656	 -1.170137	 2.052132	 0.967459	 -0.267470	 -0.403908	 -0.023184	 0.475240	 -0.236737	 0.847092	 2
1462074449.624	 10	 -0.244764	 -1.474536	 2.044585	 0.957159	 -0.252147	 -0.389578	 -0.021072	 0.469828	 -0.227260	 0.852743	 2
1462074449.634	 10	 -0.146621	 -1.690889	 2.023599	 0.944013	 -0.236644	 -0.375965	 -0.018912	 0.463189	 -0.218007	 0.858820	 2
1462074449.644	 10	 -0.021388	 -1.825381	 2.008468	 0.928952	 -0.220761	 -0.363290	 -0.016436	 0.455695	 -0.209060	 0.865082	 2
1462074449.654	 10	 0.138673	 -2.043984	 1.995448	 0.911661	 -0.204269	 -0.351674	 -0.013530	 0.447176	 -0.200443	 0.871592	 2
1462074449.664	 10	 0.324912	 -2.354259	 1.965361	 0.890852	 -0.187066	 -0.341430	 -0.010184	 0.437042	 -0.192295	 0.878586	 2
1462074449.674	 10	 0.483141	 -2.516421	 1.961409	 0.867590	 -0.169149	 -0.332204	 -0.006348	 0.425724	 -0.184506	 0.885820	 2
1462074449.684	 10	 0.718008	 -2.532762	 2.002908	 0.843580	 -0.149866	 -0.323959	 -0.001569	 0.413917	 -0.176972	 0.892945	 2
1462074449.694	 10	 1.043554	 -2.378768	 2.102754	 0.820269	 -0.128085	 -0.317005	 0.004851	 0.402191	 -0.169651	 0.899687	 2
1462074449.704	 10	 1.408299	 -2.084277	 2.232342	 0.799276	 -0.103075	 -0.311317	 0.013358	 0.391228	 -0.162426	 0.905748	 2
1462074449.714	 10	 1.776264	 -1.759181	 2.330213	 0.781304	 -0.074805	 -0.307015	 0.024014	 0.381337	 -0.155358	 0.910972	 2
1462074449.724	 10	 2.100658	 -1.559994	 2.354820	 0.765452	 -0.043866	 -0.304308	 0.036480	 0.372131	 -0.148664	 0.915471	 2
1462074449.734	 10	 2.351238	 -1.537901	 2.276109	 0.750184	 -0.011394	 -0.303352	 0.050114	 0.362947	 -0.142651	 0.919461	 2
1462074449.744	 10	 2.471975	 -1.617957	 2.138961	 0.734207	 0.021384	 -0.303915	 0.064191	 0.353247	 -0.137486	 0.923143	 2
1462074449.754	 10	 2.391158	 -1.654987	 1.986916	 0.717766	 0.052940	 -0.304851	 0.077804	 0.343272	 -0.132924	 0.926521	 2
1462074449.774	 11	 1.952953	 -1.945611	 1.627800	 0.682049	 0.108185	 -0.305210	 0.101127	 0.322337	 -0.125177	 0.932847	 2
1462074449.784	 11	 1.714946	 -2.264138	 1.461710	 0.660268	 0.130562	 -0.304526	 0.110062	 0.310377	 -0.122276	 0.936270	 2
1462074449.794	 11	 1.468778	 -2.552433	 1.354587	 0.635385	 0.149953	 -0.302771	 0.117321	 0.297204	 -0.119727	 0.939985	 2
1462074449.804	 11	 1.251941	 -2.751295	 1.271481	 0.608558	 0.166096	 -0.299953	 0.122865	 0.283396	 -0.117486	 0.943816	 2
1462074449.814	 11	 1.057787	 -2.966601	 1.276471	 0.580423	 0.178801	 -0.295885	 0.126625	 0.269289	 -0.115406	 0.947698	 2
1462074449.834	 12	 0.940061	 -3.275657	 1.290542	 0.520431	 0.198759	 -0.284589	 0.131214	 0.239835	 -0.111095	 0.955468	 2
1462074449.844	 12	 0.969259	 -3.139007	 1.225464	 0.489202	 0.210867	 -0.278619	 0.134557	 0.224313	 -0.108739	 0.959038	 2
1462074449.864	 13	 1.098599	 -2.296959	 1.085076	 0.437186	 0.236901	 -0.267945	 0.143091	 0.197998	 -0.104083	 0.964100	 2
1462074449.874	 13	 1.270331	 -2.110078	 1.110893	 0.415218	 0.252029	 -0.263009	 0.148734	 0.186595	 -0.101611	 0.965782	 2
1462074449.884	 13	 1.452811	 -1.935748	 1.170609	 0.394007	 0.269529	 -0.257740	 0.155592	 0.175416	 -0.098806	 0.967087	 2
1462074449.894	 13	 1.586379	 -1.663938	 1.159186	 0.375217	 0.288342	 -0.252537	 0.163272	 0.165330	 -0.095857	 0.967895	 2
1462074449.904	 13	 1.686421	 -1.390729	 1.034031	 0.359419	 0.307708	 -0.248315	 0.171493	 0.156600	 -0.093224	 0.968182	 2
1462074449.924	 14	 1.810512	 -1.039401	 0.690913	 0.335313	 0.346655	 -0.244906	 0.188847	 0.142371	 -0.090066	 0.967448	 2
1462074449.934	 14	 1.784708	 -0.990112	 0.583955	 0.325374	 0.365607	 -0.244986	 0.197503	 0.136160	 -0.089341	 0.966680	 2
1462074449.944	 14	 1.702039	 -1.032953	 0.509672	 0.315394	 0.383648	 -0.245452	 0.205740	 0.129955	 -0.088966	 0.965851	 2
1462074449.954	 14	 1.578634	 -1.144549	 0.471341	 0.304404	 0.400447	 -0.245848	 0.213325	 0.123360	 -0.088849	 0.965081	 2
1462074449.964	 14	 1.443447	 -1.292042	 0.464751	 0.291826	 0.415926	 -0.245730	 0.220169	 0.116156	 -0.088848	 0.964438	 2
1462074449.974	 14	 1.316710	 -1.453427	 0.452629	 0.277405	 0.430144	 -0.245068	 0.226293	 0.108225	 -0.088979	 0.963930	 2
1462074449.984	 14	 1.199812	 -1.545873	 0.417617	 0.261721	 0.443125	 -0.244127	 0.231754	 0.099822	 -0.089307	 0.963509	 2
1462074449.994	 14	 1.075794	 -1.552247	 0.368546	 0.245713	 0.454796	 -0.243125	 0.236571	 0.091380	 -0.089827	 0.963128	 2
1462074450.014	 15	 0.617314	 -1.418363	 0.311970	 0.215161	 0.472227	 -0.240159	 0.243404	 0.075782	 -0.090858	 0.962682	 2
1462074450.024	 15	 0.273626	 -1.422737	 0.303198	 0.199830	 0.476398	 -0.237652	 0.244611	 0.068417	 -0.091254	 0.962890	 2
1462074450.034	 15	 -0.057343	 -1.452616	 0.302605	 0.183871	 0.477193	 -0.234355	 0.244156	 0.061080	 -0.091569	 0.963469	 2
1462074450.044	 15	 -0.315588	 -1.485587	 0.345045	 0.167205	 0.475269	 -0.230280	 0.242353	 0.053671	 -0.091740	 0.964349	 2
1462074450.054	 15	 -0.416683	 -1.494262	 0.427908	 0.149889	 0.471913	 -0.224968	 0.239815	 0.046173	 -0.091437	 0.965399	 2
1462074450.064	 15	 -0.308197	 -1.504732	 0.348000	 0.132636	 0.469033	 -0.220217	 0.237541	 0.038587	 -0.091337	 0.966304	 2
1462074450.074	 15	 -0.083005	 -1.328201	 0.141990	 0.117726	 0.467850	 -0.217806	 0.236245	 0.031738	 -0.091989	 0.966809	 2
1462074450.084	 15	 0.144776	 -1.141362	 0.038366	 0.105712	 0.468851	 -0.217407	 0.236166	 0.025918	 -0.093175	 0.966888	 2
1462074450.094	 15	 0.300832	 -0.877913	 0.056511	 0.096197	 0.471556	 -0.217151	 0.237021	 0.021190	 -0.094077	 0.966706	 2
1462074450.104	 15	 0.351443	 -0.613784	 0.125671	 0.088959	 0.475101	 -0.216314	 0.238381	 0.017587	 -0.094409	 0.966412	 2
1462074450.114	 15	 0.300598	 -0.364258	 0.193447	 0.083937	 0.478426	 -0.214630	 0.239733	 0.015171	 -0.094084	 0.966150	 2
1462074450.124	 15	 0.232341	 -0.166963	 0.238508	 0.080744	 0.481080	 -0.212300	 0.240846	 0.013759	 -0.093256	 0.965975	 2
1462074450.134	 15	 0.184002	 -0.048409	 0.286926	 0.078712	 0.483246	 -0.209413	 0.241777	 0.013005	 -0.092038	 0.965870	 2
1462074450.144	 15	 0.054649	 -0.257231	 0.479012	 0.074501	 0.484443	 -0.204595	 0.242133	 0.011488	 -0.090183	 0.965975	 2
1462074450.164	 16	 -0.119833	 -0.563149	 0.170745	 0.060757	 0.483990	 -0.197159	 0.241269	 0.005771	 -0.088265	 0.966419	 2
1462074450.184	 16	 -0.425912	 -0.013899	 0.106049	 0.054139	 0.478345	 -0.194905	 0.238247	 0.003129	 -0.088113	 0.967194	 2
1462074450.174	 16	 -0.227300	 -0.401976	 0.059144	 0.055797	 0.481929	 -0.196151	 0.240053	 0.003601	 -0.088427	 0.966717	 2
1462074450.194	 16	 -0.511992	 0.037624	 0.136053	 0.053738	 0.473351	 -0.193153	 0.235814	 0.003394	 -0.087435	 0.967851	 2
1462074450.204	 16	 -0.471360	 0.037649	 0.155949	 0.053198	 0.468576	 -0.191167	 0.233478	 0.003603	 -0.086652	 0.968487	 2
1462074450.214	 16	 -0.332641	 0.009802	 0.185390	 0.052427	 0.464933	 -0.188975	 0.231678	 0.003664	 -0.085766	 0.968997	 2
