% Gyrometer data recorded with 'snsrlog'
% 
% 
% Label description:
% 	 0: Default Label
% 	 1: still_drop
% 	 2: walk_drop
% 	 3: other
% 	 4: dtw_same
% 	 5: dtw_diff
% 	 6: delete
% 	 7: steal
% 
% Column description:
% 	 1: Seconds.milliseconds since 1970
% 	 2: Number of skipped measurements
% 	 3: Gyro X
% 	 4: Gyro Y
% 	 5: Gyro Z
% 	 6: Roll of the device
% 	 7: Pitch of the device
% 	 8: Yaw of the device
% 	 9: Quaternion X
% 	 10: Quaternion Y
% 	 11: Quaternion Z
% 	 12: Quaternion W
% 	 13: Label used for the current sample
% 
% 
1463570309.461	 1	 -1.298967	 0.539510	 0.634607	 0.035553	 0.580699	 0.082042	 0.285303	 0.028756	 0.044371	 0.956978	 1
1463570309.471	 1	 -1.428145	 0.624156	 0.521417	 0.037606	 0.566898	 0.089235	 0.278536	 0.030506	 0.048068	 0.958737	 1
1463570309.481	 1	 -1.457608	 0.854881	 0.352233	 0.042624	 0.552493	 0.094613	 0.271410	 0.033375	 0.051292	 0.960517	 1
1463570309.491	 1	 -1.370374	 1.215649	 0.122494	 0.052313	 0.538608	 0.097537	 0.264424	 0.038147	 0.053926	 0.962142	 1
1463570309.501	 1	 -1.192589	 1.613827	 -0.191880	 0.067656	 0.526158	 0.097148	 0.258014	 0.045239	 0.055643	 0.963476	 1
1463570309.511	 1	 -0.976785	 1.958443	 -0.543320	 0.088583	 0.515526	 0.092840	 0.252407	 0.054586	 0.056101	 0.964450	 1
1463570309.531	 1	 -0.610163	 2.376180	 -1.163964	 0.143142	 0.498832	 0.073126	 0.243509	 0.078251	 0.052973	 0.965285	 1
1463570309.521	 1	 -0.763478	 2.216995	 -0.883815	 0.114153	 0.506604	 0.084649	 0.247633	 0.065762	 0.055178	 0.965043	 1
1463570309.541	 1	 -0.594189	 2.500502	 -1.320679	 0.174126	 0.490988	 0.059727	 0.239489	 0.091538	 0.049977	 0.965282	 1
1463570309.551	 1	 -0.728055	 2.945750	 -1.430473	 0.208795	 0.481587	 0.045611	 0.234805	 0.106583	 0.046869	 0.965044	 1
1463570309.571	 2	 -0.929035	 3.395624	 -1.516192	 0.287625	 0.456938	 0.018168	 0.222871	 0.141623	 0.041214	 0.963625	 1
1463570309.581	 2	 -0.853690	 3.357763	 -1.574761	 0.327560	 0.443485	 0.004447	 0.216633	 0.159539	 0.037999	 0.962379	 1
1463570309.591	 2	 -0.719100	 3.409316	 -1.599977	 0.367650	 0.430459	 -0.009492	 0.210819	 0.177575	 0.034480	 0.960642	 1
1463570309.611	 3	 -0.611075	 3.708571	 -1.357271	 0.448895	 0.407441	 -0.033782	 0.200893	 0.214603	 0.028896	 0.955381	 1
1463570309.621	 3	 -0.689992	 4.071302	 -1.237040	 0.492248	 0.395799	 -0.042680	 0.195739	 0.234768	 0.027601	 0.951740	 1
1463570309.631	 3	 -0.756390	 4.319761	 -1.322609	 0.537850	 0.382995	 -0.050835	 0.190058	 0.256091	 0.026500	 0.947414	 1
1463570309.641	 3	 -0.752244	 4.674721	 -1.506916	 0.586989	 0.368779	 -0.059770	 0.183926	 0.279024	 0.024900	 0.942177	 1
1463570309.651	 3	 -0.608437	 4.976293	 -1.663095	 0.639613	 0.354065	 -0.069973	 0.177902	 0.303432	 0.022645	 0.935824	 1
1463570309.661	 3	 -0.315045	 5.289360	 -1.787430	 0.695801	 0.340062	 -0.082041	 0.172721	 0.329202	 0.019644	 0.928120	 1
1463570309.671	 3	 0.104323	 5.629564	 -1.931794	 0.756102	 0.327438	 -0.096989	 0.168955	 0.356403	 0.015640	 0.918796	 1
1463570309.681	 3	 0.574896	 6.007546	 -2.126343	 0.821179	 0.315939	 -0.115827	 0.166812	 0.385171	 0.010277	 0.907586	 1
1463570309.691	 3	 0.981960	 6.319343	 -2.379571	 0.890643	 0.304287	 -0.138797	 0.165971	 0.415263	 0.003269	 0.894427	 1
1463570309.701	 3	 1.219981	 6.554930	 -2.650155	 0.963248	 0.290667	 -0.164821	 0.165641	 0.446215	 -0.005327	 0.879447	 1
1463570309.711	 3	 1.335960	 6.693163	 -2.901398	 1.037550	 0.273858	 -0.192261	 0.165139	 0.477530	 -0.015206	 0.862823	 1
1463570309.721	 3	 1.342434	 6.689893	 -3.166188	 1.111690	 0.253024	 -0.219798	 0.163944	 0.508531	 -0.026246	 0.844884	 1
1463570309.731	 3	 1.286488	 6.606099	 -3.449973	 1.184300	 0.227563	 -0.246274	 0.161604	 0.538767	 -0.038365	 0.825919	 1
1463570309.741	 3	 1.235686	 6.489254	 -3.742637	 1.254735	 0.197409	 -0.271123	 0.157994	 0.568017	 -0.051563	 0.806062	 1
1463570309.751	 3	 1.255313	 6.376413	 -4.041205	 1.322941	 0.162776	 -0.294474	 0.153277	 0.596209	 -0.065981	 0.785295	 1
1463570309.761	 3	 1.384005	 6.275241	 -4.300116	 1.389173	 0.124221	 -0.316859	 0.147880	 0.623309	 -0.081750	 0.763501	 1
1463570309.771	 3	 1.560407	 6.060531	 -4.502947	 1.452661	 0.082441	 -0.338600	 0.142174	 0.648888	 -0.098884	 0.740913	 1
1463570309.781	 3	 1.707392	 5.695073	 -4.678150	 1.511840	 0.037751	 -0.359374	 0.136086	 0.672339	 -0.117283	 0.718112	 1
1463570309.791	 3	 1.811407	 5.238539	 -4.816524	 1.565704	 -0.009495	 -0.378753	 0.129464	 0.693320	 -0.136736	 0.695593	 1
1463570309.801	 3	 1.870350	 4.668852	 -4.883087	 1.613271	 -0.058544	 -0.396411	 0.122246	 0.711513	 -0.156907	 0.673933	 1
1463570309.811	 3	 1.833237	 4.062517	 -4.908655	 1.654119	 -0.108637	 -0.411810	 0.114263	 0.726851	 -0.177331	 0.653595	 1
1463570309.821	 3	 1.737717	 3.467420	 -4.874994	 1.688585	 -0.159022	 -0.424536	 0.105408	 0.739531	 -0.197542	 0.634792	 1
1463570309.831	 3	 1.628352	 2.859762	 -4.818947	 1.716867	 -0.209103	 -0.434753	 0.095723	 0.749685	 -0.217320	 0.617723	 1
1463570309.841	 3	 1.511420	 2.224534	 -4.754566	 1.738848	 -0.258633	 -0.442710	 0.085147	 0.757363	 -0.236600	 0.602637	 1
1463570309.851	 3	 1.374274	 1.663289	 -4.762857	 1.755227	 -0.307897	 -0.448464	 0.073488	 0.762877	 -0.255403	 0.589396	 1
1463570309.861	 3	 1.266454	 1.186197	 -4.741846	 1.766954	 -0.356990	 -0.452333	 0.060795	 0.766558	 -0.273756	 0.577711	 1
1463570309.871	 3	 1.248083	 0.845406	 -4.662793	 1.775017	 -0.405364	 -0.455452	 0.047688	 0.768707	 -0.291693	 0.567214	 1
1463570309.881	 3	 1.328478	 0.602402	 -4.552783	 1.780094	 -0.452894	 -0.459119	 0.034716	 0.769550	 -0.309452	 0.557518	 1
1463570309.901	 3	 1.658011	 0.172910	 -4.098174	 1.780065	 -0.543244	 -0.472810	 0.011165	 0.767329	 -0.344694	 0.540617	 1
1463570309.911	 4	 1.787385	 -0.041084	 -3.781563	 1.774324	 -0.584662	 -0.483803	 0.001117	 0.764379	 -0.361803	 0.533687	 1
1463570309.921	 4	 1.838073	 -0.248004	 -3.401321	 1.764718	 -0.622576	 -0.497204	 -0.007733	 0.760406	 -0.378064	 0.528007	 1
1463570309.931	 4	 1.792118	 -0.378920	 -2.992887	 1.752282	 -0.656354	 -0.512146	 -0.015388	 0.755816	 -0.393033	 0.523479	 1
1463570309.941	 4	 1.670655	 -0.438490	 -2.603380	 1.738414	 -0.685877	 -0.527585	 -0.021959	 0.751047	 -0.406446	 0.519854	 1
1463570309.951	 4	 1.513915	 -0.466431	 -2.266561	 1.724081	 -0.711523	 -0.542727	 -0.027661	 0.746361	 -0.418290	 0.516928	 1
1463570309.961	 4	 1.349392	 -0.514953	 -1.984218	 1.709577	 -0.733851	 -0.557078	 -0.032774	 0.741815	 -0.428678	 0.514656	 1
1463570309.971	 4	 1.192281	 -0.566765	 -1.712629	 1.694962	 -0.753127	 -0.570508	 -0.037391	 0.737413	 -0.437717	 0.513057	 1
1463570309.981	 4	 0.955004	 -0.679737	 -1.400411	 1.680449	 -0.768981	 -0.581964	 -0.041697	 0.733200	 -0.445084	 0.512426	 1
1463570309.991	 4	 0.817550	 -0.690724	 -1.064668	 1.666455	 -0.781306	 -0.592119	 -0.045278	 0.729285	 -0.450985	 0.512549	 1
1463570310.001	 4	 0.756271	 -0.661125	 -0.674855	 1.652816	 -0.789717	 -0.601961	 -0.047645	 0.725652	 -0.455613	 0.513397	 1
1463570310.011	 4	 0.734635	 -0.651390	 -0.221627	 1.639096	 -0.793641	 -0.612091	 -0.048456	 0.722206	 -0.459001	 0.515159	 1
1463570310.021	 4	 0.682944	 -0.683011	 0.236806	 1.625185	 -0.792830	 -0.622156	 -0.047751	 0.718885	 -0.461039	 0.518041	 1
1463570310.031	 4	 0.558331	 -0.742478	 0.639130	 1.611701	 -0.787684	 -0.630934	 -0.045933	 0.715762	 -0.461581	 0.522033	 1
1463570310.041	 4	 0.386040	 -0.869550	 0.939993	 1.598770	 -0.779118	 -0.637439	 -0.043611	 0.712775	 -0.460647	 0.527118	 1
1463570310.051	 4	 0.192888	 -1.022931	 1.124624	 1.586336	 -0.768320	 -0.641128	 -0.041378	 0.709841	 -0.458416	 0.533168	 1
1463570310.061	 4	 0.023079	 -1.128118	 1.217845	 1.574563	 -0.756334	 -0.642161	 -0.039487	 0.706973	 -0.455199	 0.539837	 1
1463570310.071	 4	 -0.093059	 -1.116901	 1.250934	 1.563961	 -0.743891	 -0.641205	 -0.037832	 0.704311	 -0.451361	 0.546615	 1
1463570310.081	 4	 -0.227320	 -0.816835	 1.214396	 1.556826	 -0.731681	 -0.638451	 -0.036074	 0.702497	 -0.447162	 0.552488	 1
1463570310.091	 4	 -0.295356	 -0.686456	 1.125612	 1.552466	 -0.720142	 -0.634411	 -0.034361	 0.701377	 -0.442828	 0.557488	 1
1463570310.101	 4	 -0.273019	 -0.731998	 1.161229	 1.547973	 -0.708867	 -0.630340	 -0.032763	 0.700189	 -0.438538	 0.562447	 1
1463570310.111	 4	 -0.197538	 -0.828872	 1.473005	 1.542067	 -0.695112	 -0.627040	 -0.030296	 0.698607	 -0.433749	 0.568236	 1
1463570310.121	 4	 -0.200332	 -0.770299	 1.775185	 1.536096	 -0.678039	 -0.623858	 -0.026584	 0.696982	 -0.428068	 0.574689	 1
1463570310.131	 4	 -0.576541	 -0.832441	 1.707542	 1.532276	 -0.660635	 -0.617497	 -0.023370	 0.695881	 -0.421379	 0.581071	 1
1463570310.141	 4	 -1.700397	 -1.619394	 1.269844	 1.529398	 -0.647368	 -0.599321	 -0.025526	 0.694868	 -0.412336	 0.588630	 1
1463570310.151	 4	 -2.712927	 -2.286017	 1.043318	 1.526750	 -0.637673	 -0.567575	 -0.033598	 0.693672	 -0.400150	 0.597971	 1
1463570310.161	 4	 -2.924276	 -2.131704	 1.116935	 1.526474	 -0.628159	 -0.530787	 -0.042984	 0.692984	 -0.386342	 0.607178	 1
1463570310.171	 4	 -2.526745	 -1.755767	 1.343979	 1.527289	 -0.616498	 -0.497382	 -0.050209	 0.692630	 -0.372766	 0.615458	 1
1463570310.181	 4	 -1.848612	 -1.290254	 1.716489	 1.527841	 -0.601285	 -0.471929	 -0.053455	 0.692414	 -0.360424	 0.622736	 1
1463570310.201	 5	 -0.965823	 -0.542457	 2.230524	 1.528758	 -0.559695	 -0.440406	 -0.049267	 0.692651	 -0.338076	 0.635226	 1
1463570310.211	 5	 -0.912689	 -0.443899	 2.056194	 1.530441	 -0.538945	 -0.428698	 -0.045587	 0.693260	 -0.328069	 0.640066	 1
1463570310.221	 5	 -1.049211	 -0.537922	 1.649386	 1.531559	 -0.521771	 -0.416289	 -0.043539	 0.693614	 -0.318835	 0.644475	 1
1463570310.231	 5	 -1.288660	 -0.456585	 1.182227	 1.533840	 -0.509225	 -0.401587	 -0.043777	 0.694229	 -0.310249	 0.647978	 1
1463570310.241	 5	 -1.338846	 -0.081091	 0.727880	 1.539589	 -0.501342	 -0.385879	 -0.045530	 0.695878	 -0.302819	 0.649601	 1
1463570310.251	 5	 -1.114608	 0.428697	 0.422666	 1.549034	 -0.496802	 -0.372279	 -0.047233	 0.698716	 -0.297191	 0.649032	 1
1463570310.261	 5	 -0.757141	 0.943949	 0.338021	 1.561872	 -0.493487	 -0.362524	 -0.047578	 0.702714	 -0.293280	 0.646464	 1
1463570310.271	 5	 -0.329169	 1.364218	 0.384034	 1.576837	 -0.489834	 -0.357562	 -0.045853	 0.707504	 -0.290856	 0.642447	 1
1463570310.281	 5	 0.036966	 1.759468	 0.475113	 1.593663	 -0.485312	 -0.357088	 -0.041995	 0.712986	 -0.289604	 0.637195	 1
1463570310.291	 5	 0.273953	 2.182475	 0.528143	 1.613127	 -0.480168	 -0.359797	 -0.036421	 0.719333	 -0.289155	 0.630574	 1
1463570310.301	 5	 0.373080	 2.679347	 0.444511	 1.636619	 -0.475637	 -0.364114	 -0.029903	 0.726872	 -0.289391	 0.622106	 1
1463570310.311	 5	 0.342705	 3.231806	 0.200528	 1.665603	 -0.473198	 -0.368350	 -0.023325	 0.735926	 -0.290261	 0.611242	 1
1463570310.321	 5	 0.242473	 3.543324	 -0.149534	 1.699412	 -0.474099	 -0.371303	 -0.017612	 0.746155	 -0.291808	 0.598156	 1
1463570310.331	 5	 0.077074	 1.998258	 -0.459819	 1.724562	 -0.478105	 -0.372014	 -0.014984	 0.753504	 -0.293612	 0.588047	 1
1463570310.341	 5	 0.006681	 -0.708230	 -0.726319	 1.724401	 -0.484625	 -0.371007	 -0.017521	 0.753249	 -0.295583	 0.587315	 1
1463570310.351	 5	 0.043605	 -1.876464	 -1.058306	 1.707850	 -0.494272	 -0.369828	 -0.023592	 0.748051	 -0.298405	 0.592299	 1
1463570310.361	 5	 -0.083502	 -1.353440	 -1.440269	 1.693440	 -0.507554	 -0.367418	 -0.031053	 0.743299	 -0.302046	 0.596080	 1
1463570310.371	 5	 -0.296679	 -0.319461	 -1.798611	 1.690268	 -0.524233	 -0.362235	 -0.039006	 0.741667	 -0.306127	 0.595563	 1
1463570310.381	 5	 -0.373594	 0.368863	 -2.099542	 1.696160	 -0.543912	 -0.355147	 -0.047261	 0.742470	 -0.310838	 0.591510	 1
1463570310.391	 5	 -0.218930	 0.597099	 -2.390784	 1.705385	 -0.566542	 -0.348444	 -0.055780	 0.743974	 -0.316797	 0.585688	 1
1463570310.401	 5	 0.062756	 0.325528	 -2.618507	 1.711957	 -0.591989	 -0.344126	 -0.064694	 0.744440	 -0.324384	 0.580000	 1
1463570310.411	 5	 0.188264	 -0.184576	 -2.655254	 1.712749	 -0.618558	 -0.341667	 -0.074176	 0.743054	 -0.332695	 0.575919	 1
1463570310.421	 5	 -0.024627	 -0.442201	 -2.479947	 1.711022	 -0.643744	 -0.337818	 -0.084128	 0.740823	 -0.339999	 0.573153	 1
1463570310.431	 5	 -0.271079	 -0.433100	 -2.204881	 1.710731	 -0.665928	 -0.331051	 -0.093922	 0.738930	 -0.345479	 0.570794	 1
1463570310.441	 5	 -0.299043	 -0.442021	 -1.979845	 1.711102	 -0.685614	 -0.323557	 -0.103034	 0.737229	 -0.349930	 0.568706	 1
1463570310.461	 5	 -0.153718	 -0.510647	 -1.850658	 1.708379	 -0.721810	 -0.311752	 -0.119608	 0.732917	 -0.358439	 0.565728	 1
1463570310.451	 5	 -0.212452	 -0.515820	 -1.854458	 1.709996	 -0.703764	 -0.317274	 -0.111439	 0.735169	 -0.354121	 0.567191	 1
1463570310.471	 5	 -0.122524	 -0.397460	 -1.923414	 1.707562	 -0.740457	 -0.306533	 -0.127705	 0.730761	 -0.363065	 0.563794	 1
1463570310.481	 5	 -0.087239	 -0.322571	 -1.995496	 1.707565	 -0.759937	 -0.301526	 -0.135825	 0.728675	 -0.368054	 0.561356	 1
1463570310.491	 5	 -0.042679	 -0.288376	 -2.102142	 1.707849	 -0.780357	 -0.296859	 -0.144050	 0.726496	 -0.373445	 0.558563	 1
1463570310.501	 5	 -0.000050	 -0.153628	 -2.277111	 1.709220	 -0.802472	 -0.292267	 -0.152557	 0.724341	 -0.379468	 0.555032	 1
1463570310.511	 5	 0.019758	 0.097144	 -2.155585	 1.712605	 -0.824493	 -0.288010	 -0.160488	 0.722649	 -0.385696	 0.550691	 1
1463570310.521	 5	 0.059287	 0.210650	 -1.741357	 1.717084	 -0.842799	 -0.284745	 -0.166618	 0.721618	 -0.391084	 0.546405	 1
1463570310.531	 5	 0.105669	 0.083817	 -1.465843	 1.719710	 -0.857992	 -0.282798	 -0.171612	 0.720459	 -0.395675	 0.543074	 1
1463570310.541	 5	 0.115536	 0.043139	 -1.351205	 1.721228	 -0.871741	 -0.281368	 -0.176162	 0.719156	 -0.399839	 0.540287	 1
1463570310.561	 6	 0.159521	 0.213042	 -1.225320	 1.725993	 -0.897626	 -0.279372	 -0.184045	 0.717157	 -0.408019	 0.534167	 1
1463570310.571	 6	 0.143408	 0.196025	 -1.231732	 1.728608	 -0.909982	 -0.278681	 -0.187617	 0.716260	 -0.412019	 0.531048	 1
1463570310.581	 6	 0.111721	 0.095654	 -1.298468	 1.730961	 -0.922792	 -0.277291	 -0.191617	 0.715132	 -0.415949	 0.528068	 1
1463570310.591	 6	 0.075185	 -0.074298	 -1.428689	 1.732566	 -0.936747	 -0.274951	 -0.196448	 0.713524	 -0.419914	 0.525322	 1
1463570310.601	 6	 0.031841	 -0.279764	 -1.618864	 1.733204	 -0.952297	 -0.271352	 -0.202404	 0.711273	 -0.423950	 0.522867	 1
1463570310.611	 6	 -0.009453	 -0.485391	 -1.830373	 1.732945	 -0.969832	 -0.266337	 -0.209642	 0.708302	 -0.428135	 0.520633	 1
1463570310.621	 6	 -0.036428	 -0.605890	 -2.030557	 1.732325	 -0.989346	 -0.260080	 -0.217972	 0.704737	 -0.432557	 0.518390	 1
1463570310.631	 6	 -0.076840	 -0.648573	 -2.212852	 1.732591	 -1.010904	 -0.252243	 -0.227247	 0.700811	 -0.437281	 0.515760	 1
1463570310.641	 6	 -0.133234	 -0.690116	 -2.390729	 1.733910	 -1.033859	 -0.242723	 -0.237243	 0.696597	 -0.442108	 0.512844	 1
1463570310.651	 6	 -0.194939	 -0.714725	 -2.582258	 1.737044	 -1.058558	 -0.230913	 -0.248071	 0.692109	 -0.447102	 0.509456	 1
1463570310.661	 6	 -0.233238	 -0.754295	 -2.774130	 1.742123	 -1.085051	 -0.216676	 -0.259715	 0.687274	 -0.452297	 0.505598	 1
1463570310.671	 6	 -0.210807	 -0.834290	 -2.942402	 1.748165	 -1.113770	 -0.200781	 -0.272208	 0.681786	 -0.457924	 0.501374	 1
1463570310.681	 6	 -0.134370	 -1.019603	 -3.091867	 1.753301	 -1.143542	 -0.184429	 -0.285183	 0.675480	 -0.463678	 0.497392	 1
1463570310.691	 6	 -0.060602	 -1.338747	 -3.216976	 1.755900	 -1.174739	 -0.167958	 -0.298996	 0.667909	 -0.469493	 0.494039	 1
1463570310.711	 7	 0.030563	 -2.257917	 -3.353164	 1.746396	 -1.241556	 -0.136756	 -0.330184	 0.647472	 -0.480443	 0.490849	 1
1463570310.721	 7	 0.155612	 -2.223243	 -3.352993	 1.738041	 -1.275446	 -0.121672	 -0.346338	 0.635828	 -0.485375	 0.490086	 1
1463570310.741	 8	 0.219472	 -0.688526	 -3.338210	 1.738288	 -1.342682	 -0.094478	 -0.372825	 0.616321	 -0.498433	 0.482405	 1
1463570310.751	 8	 0.043165	 -0.059388	 -3.335090	 1.763708	 -1.376107	 -0.066609	 -0.383625	 0.609407	 -0.506276	 0.474489	 1
1463570310.761	 8	 -0.143552	 0.351083	 -3.275291	 1.810987	 -1.408084	 -0.021215	 -0.393196	 0.603875	 -0.514216	 0.465096	 1
1463570310.771	 8	 -0.203203	 0.660082	 -3.076863	 1.887696	 -1.437762	 0.050396	 -0.401583	 0.599498	 -0.522009	 0.454796	 1
1463570310.781	 8	 -0.153144	 0.839733	 -2.777213	 1.994545	 -1.463812	 0.149869	 -0.408374	 0.595973	 -0.529565	 0.444531	 1
1463570310.791	 8	 -0.066943	 0.712335	 -2.416790	 2.133403	 -1.485537	 0.281647	 -0.413971	 0.592738	 -0.536402	 0.435387	 1
1463570310.801	 8	 -0.113711	 0.221588	 -2.054327	 2.315337	 -1.502096	 0.460445	 -0.419512	 0.589295	 -0.541536	 0.428346	 1
1463570310.811	 8	 -0.346809	 -0.417408	 -1.676701	 2.552643	 -1.511493	 0.700926	 -0.426063	 0.585758	 -0.543896	 0.423716	 1
1463570310.821	 8	 -0.375007	 -0.645033	 -1.250137	 2.786327	 -1.514233	 0.941195	 -0.432538	 0.582591	 -0.544304	 0.420989	 1
1463570310.831	 8	 -0.160406	 -0.640550	 -0.692439	 2.934578	 -1.514439	 1.096078	 -0.437199	 0.580017	 -0.544044	 0.420064	 1
1463570310.841	 8	 0.114364	 -0.582778	 -0.095335	 2.967898	 -1.515313	 1.135593	 -0.439449	 0.578096	 -0.543318	 0.421302	 1
1463570310.851	 8	 0.321938	 -0.273775	 0.211607	 2.926522	 -1.517754	 1.097752	 -0.439390	 0.576918	 -0.543009	 0.423370	 1
1463570310.861	 8	 0.343546	 -0.064740	 0.298625	 2.855234	 -1.520428	 1.027381	 -0.438099	 0.576384	 -0.543188	 0.425204	 1
1463570310.871	 8	 0.249618	 -0.058169	 0.286715	 2.781148	 -1.522138	 0.953723	 -0.436809	 0.576155	 -0.543255	 0.426752	 1
1463570310.881	 8	 0.084992	 -0.089834	 0.253749	 2.720030	 -1.522335	 0.893326	 -0.435987	 0.576208	 -0.542893	 0.427980	 1
1463570310.901	 9	 -0.189460	 -0.077776	 0.192305	 2.662951	 -1.518405	 0.838790	 -0.435990	 0.577195	 -0.540752	 0.429356	 1
1463570310.911	 9	 -0.193878	 0.106331	 0.204714	 2.647804	 -1.515738	 0.823031	 -0.435676	 0.578286	 -0.539885	 0.429297	 1
1463570310.921	 9	 -0.151274	 0.272494	 0.254915	 2.626862	 -1.513143	 0.799748	 -0.434710	 0.579745	 -0.539397	 0.428921	 1
1463570310.931	 9	 -0.136418	 0.444143	 0.307498	 2.687566	 -1.503763	 0.856090	 -0.435263	 0.583648	 -0.537211	 0.425800	 1
1463570310.941	 9	 -0.146881	 0.432953	 0.373562	 2.655000	 -1.500855	 0.818982	 -0.433326	 0.585760	 -0.536995	 0.425146	 1
1463570310.961	 10	 -0.132275	 0.110854	 0.403476	 2.583409	 -1.494444	 0.741601	 -0.430031	 0.589427	 -0.535677	 0.425088	 1
1463570310.971	 10	 -0.087339	 -0.262109	 0.334545	 2.588916	 -1.503785	 0.748611	 -0.430370	 0.585899	 -0.538751	 0.425736	 1
1463570310.981	 10	 0.042453	 -0.478166	 0.220565	 2.552749	 -1.502480	 0.716776	 -0.430805	 0.585483	 -0.537285	 0.427717	 1
1463570310.991	 10	 0.168980	 -0.468837	 0.091659	 2.521417	 -1.502948	 0.690194	 -0.431436	 0.584336	 -0.536399	 0.429757	 1
1463570311.001	 10	 0.201090	 -0.375963	 0.004851	 2.496956	 -1.504420	 0.669706	 -0.432013	 0.582986	 -0.536064	 0.431425	 1
1463570311.011	 10	 0.136427	 -0.249372	 -0.026493	 2.577167	 -1.501206	 0.752510	 -0.434731	 0.583424	 -0.534444	 0.430111	 1
1463570311.021	 10	 0.016751	 -0.064935	 -0.015209	 2.574629	 -1.501726	 0.751115	 -0.434989	 0.583004	 -0.534380	 0.430499	 1
1463570311.031	 10	 -0.117612	 0.145314	 0.029482	 2.580460	 -1.500950	 0.756017	 -0.434881	 0.583457	 -0.534313	 0.430077	 1
1463570311.041	 10	 -0.191261	 0.261325	 0.156963	 2.580595	 -1.498733	 0.753748	 -0.434241	 0.584737	 -0.534028	 0.429339	 1
1463570311.051	 10	 -0.191181	 0.287905	 0.150804	 2.607684	 -1.492453	 0.777819	 -0.434263	 0.587453	 -0.532482	 0.427525	 1
1463570311.061	 10	 -0.161947	 0.176978	 0.119675	 2.606966	 -1.490349	 0.774997	 -0.433696	 0.588627	 -0.532167	 0.426877	 1
1463570311.071	 10	 -0.118827	 0.055488	 0.104315	 2.604637	 -1.488680	 0.771830	 -0.433438	 0.589383	 -0.531733	 0.426637	 1
1463570311.081	 10	 -0.058202	 0.008543	 0.108679	 2.598336	 -1.487495	 0.765369	 -0.433245	 0.589841	 -0.531317	 0.426719	 1
1463570311.091	 10	 0.000608	 0.031767	 0.109438	 2.594816	 -1.488455	 0.761545	 -0.433025	 0.589592	 -0.531719	 0.426786	 1
1463570311.101	 10	 0.034777	 0.052792	 0.089087	 2.583759	 -1.488182	 0.749973	 -0.432560	 0.589828	 -0.531697	 0.426958	 1
1463570311.111	 10	 0.070939	 0.046139	 0.066329	 2.573147	 -1.488314	 0.738818	 -0.432088	 0.589929	 -0.531833	 0.427127	 1
1463570311.121	 10	 0.102882	 0.019551	 0.079658	 2.559513	 -1.488714	 0.724868	 -0.431592	 0.589892	 -0.532015	 0.427453	 1
1463570311.131	 10	 0.094175	 -0.047164	 0.116415	 2.541775	 -1.488944	 0.707336	 -0.431137	 0.589801	 -0.532022	 0.428028	 1
1463570311.141	 10	 0.067090	 -0.179633	 0.171903	 2.519215	 -1.488641	 0.686178	 -0.430899	 0.589631	 -0.531584	 0.429046	 1
1463570311.151	 10	 0.026644	 -0.238374	 0.268693	 2.490517	 -1.487459	 0.659695	 -0.430709	 0.589572	 -0.530662	 0.430456	 1
1463570311.161	 10	 -0.015861	 -0.196794	 0.265187	 2.463587	 -1.485759	 0.634793	 -0.430486	 0.589709	 -0.529611	 0.431784	 1
1463570311.171	 10	 -0.035883	 -0.086607	 0.198178	 2.444902	 -1.484098	 0.617227	 -0.430215	 0.590017	 -0.528780	 0.432650	 1
1463570311.181	 10	 -0.025160	 0.088501	 0.002548	 2.442691	 -1.483527	 0.614569	 -0.430002	 0.590305	 -0.528671	 0.432602	 1
1463570311.191	 10	 -0.010132	 0.205666	 -0.114792	 2.453432	 -1.484000	 0.623504	 -0.429809	 0.590545	 -0.529222	 0.431793	 1
1463570311.201	 10	 0.000991	 0.202407	 -0.266257	 2.475778	 -1.485366	 0.643839	 -0.429919	 0.590526	 -0.530139	 0.430583	 1
1463570311.211	 10	 0.019466	 0.216837	 -0.468779	 2.516230	 -1.487995	 0.682341	 -0.430562	 0.590037	 -0.531528	 0.428894	 1
1463570311.221	 10	 0.012368	 0.232469	 -0.662540	 2.580433	 -1.491582	 0.744468	 -0.431739	 0.589151	 -0.533388	 0.426614	 1
1463570311.231	 10	 -0.027579	 0.244401	 -0.793170	 2.669769	 -1.495243	 0.831651	 -0.433381	 0.588046	 -0.535496	 0.423824	 1
1463570311.241	 10	 -0.114261	 0.185164	 -0.783375	 2.774496	 -1.497666	 0.934587	 -0.435356	 0.586996	 -0.537363	 0.420882	 1
1463570311.251	 10	 -0.175788	 0.091110	 -0.578022	 2.866046	 -1.498111	 1.025280	 -0.437289	 0.586276	 -0.538459	 0.418474	 1
1463570311.261	 10	 -0.130786	 0.100626	 -0.274583	 2.918578	 -1.497543	 1.077055	 -0.438388	 0.586092	 -0.538956	 0.416940	 1
1463570311.271	 10	 -0.067953	 0.093707	 -0.030069	 2.933295	 -1.496940	 1.090641	 -0.438489	 0.586366	 -0.539152	 0.416194	 1
1463570311.281	 10	 -0.025472	 -0.024895	 0.059047	 2.927806	 -1.496495	 1.085126	 -0.438414	 0.586570	 -0.538950	 0.416247	 1
1463570311.291	 10	 -0.007062	 -0.140284	 -0.005067	 2.924836	 -1.496346	 1.083287	 -0.438696	 0.586402	 -0.538632	 0.416599	 1
1463570311.301	 10	 0.012630	 -0.208890	 -0.070889	 2.930380	 -1.496537	 1.090774	 -0.439370	 0.585854	 -0.538352	 0.417020	 1
1463570311.311	 10	 0.048608	 -0.267547	 -0.078142	 2.937365	 -1.497068	 1.100322	 -0.440209	 0.585048	 -0.538071	 0.417629	 1
1463570311.321	 10	 0.112551	 -0.301637	 -0.059832	 2.940381	 -1.498138	 1.106305	 -0.440990	 0.584031	 -0.537836	 0.418530	 1
1463570311.331	 10	 0.179914	 -0.287888	 -0.043239	 2.939229	 -1.499843	 1.108116	 -0.441578	 0.582866	 -0.537761	 0.419630	 1
1463570311.341	 10	 0.213420	 -0.215511	 -0.022608	 2.934828	 -1.501942	 1.106062	 -0.441856	 0.581748	 -0.537909	 0.420698	 1
1463570311.351	 10	 0.184956	 -0.164175	 0.004762	 2.927428	 -1.503853	 1.100397	 -0.441922	 0.580850	 -0.538094	 0.421631	 1
1463570311.361	 10	 0.123288	 -0.119293	 0.008914	 2.919864	 -1.505199	 1.094151	 -0.441952	 0.580217	 -0.538183	 0.422358	 1
1463570311.371	 10	 0.047716	 -0.031191	 -0.046094	 2.921468	 -1.505910	 1.096326	 -0.442050	 0.579854	 -0.538313	 0.422589	 1
1463570311.381	 10	 -0.001817	 -0.051887	 -0.133248	 2.937527	 -1.506204	 1.112777	 -0.442452	 0.579517	 -0.538485	 0.422410	 1
1463570311.391	 10	 0.006971	 -0.134591	 -0.240670	 2.968470	 -1.506634	 1.144907	 -0.443358	 0.578804	 -0.538692	 0.422174	 1
1463570311.411	 11	 0.017601	 -0.002885	 -0.407927	 3.084747	 -1.507680	 1.263529	 -0.446087	 0.576622	 -0.539877	 0.420768	 1
1463570311.421	 11	 -0.003292	 0.280427	 -0.362479	 -3.138137	 -1.507870	 1.321812	 -0.446550	 0.576225	 -0.541151	 0.419181	 1
1463570311.431	 11	 -0.105025	 0.714195	 -0.428963	 -3.068121	 -1.506973	 1.386071	 -0.446291	 0.576739	 -0.543109	 0.416208	 1
1463570311.441	 11	 -0.334412	 1.010052	 -0.497750	 -2.990771	 -1.503767	 1.453839	 -0.445575	 0.578422	 -0.545486	 0.411504	 1
1463570311.461	 12	 -0.592019	 0.115292	 -0.345035	 -2.886826	 -1.490581	 1.547912	 -0.447890	 0.581521	 -0.546331	 0.403424	 1
1463570311.471	 12	 -0.299786	 0.075993	 -0.072978	 -2.881976	 -1.486565	 1.552151	 -0.448879	 0.582378	 -0.545640	 0.402020	 1
1463570311.481	 12	 -0.074690	 0.175200	 0.058140	 -2.888180	 -1.485488	 1.544433	 -0.448612	 0.583086	 -0.545550	 0.401414	 1
1463570311.491	 12	 0.035765	 0.277083	 0.071981	 -2.893373	 -1.485783	 1.536654	 -0.447681	 0.583726	 -0.546015	 0.400890	 1
1463570311.501	 12	 0.085822	 0.237740	 0.093560	 -2.898501	 -1.486752	 1.528850	 -0.446546	 0.584239	 -0.546660	 0.400530	 1
1463570311.511	 12	 0.117055	 0.053799	 0.115023	 -2.907134	 -1.488077	 1.519179	 -0.445731	 0.584385	 -0.546985	 0.400781	 1
1463570311.521	 12	 0.144569	 -0.221754	 0.115417	 -2.918474	 -1.489674	 1.509208	 -0.445502	 0.583987	 -0.546840	 0.401812	 1
1463570311.531	 12	 0.230366	 -0.527146	 0.289728	 -2.788654	 -1.502683	 1.643448	 -0.445246	 0.577658	 -0.551567	 0.404772	 1
1463570311.541	 12	 0.317309	 -0.023836	 0.355468	 -2.824815	 -1.506757	 1.608779	 -0.444039	 0.577265	 -0.551402	 0.406878	 1
1463570311.551	 12	 0.225968	 0.085834	 0.334903	 -2.864418	 -1.510166	 1.568278	 -0.442315	 0.577493	 -0.551617	 0.408140	 1
1463570311.561	 12	 0.156467	 0.090010	 0.296114	 -2.906540	 -1.512601	 1.525280	 -0.440854	 0.577866	 -0.551656	 0.409138	 1
1463570311.571	 12	 0.108549	 0.164155	 0.234341	 -2.943016	 -1.514312	 1.487276	 -0.439482	 0.578384	 -0.551816	 0.409667	 1
1463570311.581	 12	 0.059403	 0.188450	 0.191299	 -2.973976	 -1.515382	 1.454407	 -0.438243	 0.579006	 -0.552021	 0.409839	 1
1463570311.591	 12	 -0.000532	 0.181984	 0.155524	 -3.001166	 -1.515771	 1.425352	 -0.437236	 0.579700	 -0.552122	 0.409796	 1
1463570311.601	 12	 -0.080473	 0.295225	 0.045369	 -3.012262	 -1.515284	 1.411453	 -0.436386	 0.580584	 -0.552418	 0.409053	 1
1463570311.611	 12	 -0.092533	 0.252497	 0.015235	 -3.015272	 -1.514340	 1.405733	 -0.435782	 0.581448	 -0.552682	 0.408110	 1
1463570311.621	 12	 -0.003738	 0.092524	 -0.008342	 -3.013379	 -1.514044	 1.406132	 -0.435446	 0.581820	 -0.552936	 0.407595	 1
1463570311.641	 13	 0.175748	 -0.624177	 0.087871	 -3.031826	 -1.516375	 1.394819	 -0.436701	 0.579936	 -0.551843	 0.410409	 1
1463570311.651	 13	 0.238792	 -0.849704	 0.107604	 -3.055299	 -1.518723	 1.379345	 -0.438144	 0.577891	 -0.550525	 0.413514	 1
1463570311.661	 13	 0.230916	 -0.920015	 0.088901	 -3.079697	 -1.521144	 1.364094	 -0.439899	 0.575549	 -0.548995	 0.416936	 1
1463570311.671	 13	 0.203737	 -0.761785	 0.043716	 -3.097029	 -1.523275	 1.354893	 -0.441530	 0.573392	 -0.547688	 0.419892	 1
1463570311.681	 13	 0.168578	 -0.480189	 -0.006648	 -3.099880	 -1.524681	 1.357563	 -0.442762	 0.571831	 -0.546885	 0.421766	 1
1463570311.691	 13	 0.140724	 -0.248486	 -0.040485	 -3.093949	 -1.526127	 1.366503	 -0.443371	 0.570722	 -0.546711	 0.422854	 1
1463570311.701	 13	 0.150938	 -0.116651	 -0.043611	 -3.083669	 -1.527567	 1.378216	 -0.443574	 0.569924	 -0.546906	 0.423465	 1
1463570311.711	 13	 0.187471	 -0.073072	 -0.032866	 -3.073842	 -1.529321	 1.388842	 -0.443510	 0.569195	 -0.547309	 0.423991	 1
1463570311.721	 13	 0.224797	 -0.086912	 -0.020500	 -3.121267	 -1.530459	 1.342280	 -0.442978	 0.569148	 -0.546994	 0.425015	 1
1463570311.731	 13	 0.238714	 -0.106909	 0.014363	 -3.122348	 -1.532829	 1.342253	 -0.442748	 0.568286	 -0.547425	 0.425853	 1
1463570311.741	 13	 0.205027	 -0.036471	 0.042984	 -3.132236	 -1.535006	 1.332974	 -0.442348	 0.567643	 -0.547826	 0.426610	 1
1463570311.751	 13	 0.098999	 0.110612	 0.042079	 3.139409	 -1.536310	 1.320698	 -0.441747	 0.567538	 -0.548263	 0.426811	 1
1463570311.761	 13	 -0.055389	 0.210962	 0.026229	 3.126264	 -1.528609	 1.305625	 -0.442677	 0.570195	 -0.546361	 0.424741	 1
1463570311.771	 13	 -0.166448	 0.193227	 0.029162	 3.122478	 -1.527187	 1.299791	 -0.442342	 0.571076	 -0.546350	 0.423919	 1
1463570311.791	 14	 -0.192882	 -0.000106	 0.052106	 3.105513	 -1.523104	 1.281256	 -0.442503	 0.572724	 -0.545330	 0.422840	 1
1463570311.801	 14	 -0.173983	 -0.042894	 0.025938	 -3.133592	 -1.521147	 1.325643	 -0.443603	 0.572739	 -0.545155	 0.421891	 1
1463570311.821	 15	 -0.023622	 0.200939	 -0.023193	 -3.129143	 -1.519522	 1.328300	 -0.443499	 0.573527	 -0.545120	 0.420976	 1
1463570311.831	 15	 -0.010218	 0.339069	 -0.036945	 -3.119264	 -1.519418	 1.335107	 -0.442779	 0.574124	 -0.545848	 0.419974	 1
1463570311.841	 15	 -0.017302	 0.412575	 -0.024464	 -3.135280	 -1.517957	 1.315146	 -0.441727	 0.575573	 -0.546077	 0.418800	 1
1463570311.851	 15	 -0.021566	 0.395723	 -0.003268	 -3.129648	 -1.517752	 1.316718	 -0.440684	 0.576460	 -0.546932	 0.417562	 1
1463570311.861	 15	 -0.011122	 0.320410	 0.028979	 -3.130278	 -1.517612	 1.312698	 -0.439727	 0.577251	 -0.547591	 0.416612	 1
1463570311.871	 15	 0.001432	 0.252428	 0.046355	 -3.136129	 -1.517604	 1.304147	 -0.438861	 0.577914	 -0.548084	 0.415958	 1
1463570311.881	 15	 -0.003093	 0.208786	 0.038518	 -3.131616	 -1.515468	 1.306440	 -0.438736	 0.578929	 -0.547983	 0.414808	 1
1463570311.891	 15	 -0.034281	 0.175751	 0.017167	 -3.134074	 -1.515224	 1.302155	 -0.438220	 0.579426	 -0.548263	 0.414291	 1
1463570311.901	 15	 -0.067565	 0.150175	 -0.003030	 -3.132727	 -1.514618	 1.301941	 -0.437916	 0.579916	 -0.548427	 0.413708	 1
1463570311.911	 15	 -0.089040	 0.115199	 0.005357	 -3.131708	 -1.513782	 1.301692	 -0.437739	 0.580409	 -0.548461	 0.413159	 1
1463570311.921	 15	 -0.101129	 0.017615	 0.036525	 -3.135197	 -1.511431	 1.297757	 -0.438044	 0.581191	 -0.547830	 0.412574	 1
1463570311.931	 15	 -0.065070	 -0.058823	 0.070670	 3.137117	 -1.510653	 1.287296	 -0.438140	 0.581452	 -0.547382	 0.412699	 1
1463570311.941	 15	 0.019248	 -0.067485	 0.083710	 3.122768	 -1.510622	 1.273618	 -0.438096	 0.581494	 -0.547053	 0.413121	 1
1463570311.951	 15	 0.076944	 -0.034838	 0.062196	 3.110534	 -1.511251	 1.261795	 -0.437879	 0.581380	 -0.547004	 0.413578	 1
1463570311.961	 15	 0.089674	 -0.000196	 0.003762	 -3.137551	 -1.511558	 1.296900	 -0.438413	 0.580858	 -0.547528	 0.413051	 1
1463570311.971	 15	 0.077690	 0.013103	 -0.073810	 -3.128220	 -1.512368	 1.306136	 -0.438370	 0.580540	 -0.547900	 0.413050	 1
1463570311.981	 15	 0.058311	 0.028667	 -0.135311	 -3.106756	 -1.512970	 1.327402	 -0.438529	 0.580148	 -0.548387	 0.412786	 1
1463570311.991	 15	 0.045534	 0.073076	 -0.177424	 -3.069854	 -1.512063	 1.363733	 -0.439146	 0.580022	 -0.548741	 0.411836	 1
1463570312.001	 15	 0.043430	 0.095280	 -0.196383	 -3.035768	 -1.512325	 1.396976	 -0.439365	 0.579667	 -0.549459	 0.411144	 1
1463570312.011	 15	 0.030767	 0.132485	 -0.204453	 -2.999435	 -1.512433	 1.432146	 -0.439541	 0.579374	 -0.550248	 0.410313	 1
1463570312.021	 15	 -0.014973	 0.163469	 -0.203766	 -2.963410	 -1.512079	 1.466654	 -0.439707	 0.579254	 -0.551006	 0.409286	 1
1463570312.031	 15	 -0.049159	 0.150873	 -0.195069	 -2.923279	 -1.510121	 1.505255	 -0.440331	 0.579403	 -0.551473	 0.407772	 1
1463570312.041	 15	 -0.055623	 0.131800	 -0.187730	 -2.893779	 -1.509140	 1.533447	 -0.440621	 0.579414	 -0.551999	 0.406730	 1
1463570312.051	 15	 -0.052266	 0.144733	 -0.163117	 -2.881961	 -1.507990	 1.543945	 -0.440710	 0.579746	 -0.552206	 0.405878	 1
1463570312.061	 15	 -0.040244	 0.180016	 -0.133042	 -2.874266	 -1.507104	 1.550014	 -0.440585	 0.580154	 -0.552470	 0.405071	 1
1463570312.071	 15	 -0.033529	 0.235410	 -0.118729	 -2.861520	 -1.505838	 1.560592	 -0.440479	 0.580664	 -0.552854	 0.403932	 1
1463570312.081	 15	 -0.046178	 0.285322	 -0.135211	 -2.842898	 -1.503880	 1.576506	 -0.440493	 0.581308	 -0.553315	 0.402355	 1
1463570312.091	 15	 -0.081422	 0.303329	 -0.160325	 -2.816992	 -1.501385	 1.599416	 -0.440683	 0.581949	 -0.553887	 0.400428	 1
1463570312.101	 15	 -0.113670	 0.263985	 -0.172134	 -2.796428	 -1.499826	 1.617252	 -0.440620	 0.582424	 -0.554527	 0.398918	 1
1463570312.111	 15	 -0.118406	 0.169300	 -0.177237	 -2.777299	 -1.498085	 1.634472	 -0.440832	 0.582758	 -0.554958	 0.397595	 1
1463570312.121	 15	 -0.086916	 0.101822	 -0.229296	 -2.754155	 -1.496431	 1.656539	 -0.441320	 0.582779	 -0.555354	 0.396469	 1
1463570312.131	 15	 -0.094445	 0.119682	 -0.263156	 -2.742923	 -1.494069	 1.666767	 -0.441878	 0.583150	 -0.555352	 0.395302	 1
1463570312.141	 15	 -0.114356	 0.140439	 -0.195646	 -2.721684	 -1.492209	 1.686707	 -0.442345	 0.583244	 -0.555761	 0.394064	 1
1463570312.151	 15	 -0.158923	 0.148413	 -0.140830	 -2.710388	 -1.490254	 1.696577	 -0.442671	 0.583599	 -0.555958	 0.392894	 1
1463570312.161	 15	 -0.238728	 0.164886	 -0.101615	 -2.707676	 -1.487806	 1.697688	 -0.442977	 0.584275	 -0.555893	 0.391634	 1
1463570312.171	 15	 -0.306840	 0.176012	 -0.062573	 -2.703300	 -1.482819	 1.700268	 -0.444014	 0.585347	 -0.555449	 0.389483	 1
1463570312.181	 15	 -0.357924	 0.173252	 -0.023787	 -2.714235	 -1.479555	 1.687540	 -0.444298	 0.586566	 -0.554893	 0.388116	 1
1463570312.191	 15	 -0.370655	 0.192406	 -0.027761	 -2.726509	 -1.476090	 1.673349	 -0.444563	 0.587904	 -0.554260	 0.386689	 1
1463570312.201	 15	 -0.442006	 0.331025	 -0.154807	 -2.729428	 -1.471797	 1.667501	 -0.444916	 0.589347	 -0.553914	 0.384576	 1
1463570312.211	 15	 -0.484584	 0.376690	 -0.181721	 -2.728388	 -1.466642	 1.664745	 -0.445330	 0.591007	 -0.553677	 0.381883	 1
1463570312.221	 15	 -0.383543	 0.286145	 -0.159997	 -2.726679	 -1.462173	 1.663303	 -0.445741	 0.592385	 -0.553464	 0.379568	 1
1463570312.231	 15	 -0.237870	 0.156109	 -0.139028	 -2.722994	 -1.459083	 1.665103	 -0.446161	 0.593185	 -0.553344	 0.377998	 1
1463570312.241	 15	 -0.097678	 0.007819	 -0.142693	 -2.704021	 -1.460248	 1.683595	 -0.446045	 0.592460	 -0.554304	 0.377866	 1
1463570312.251	 15	 0.012748	 -0.085261	 -0.173296	 -2.691514	 -1.459421	 1.696849	 -0.446749	 0.591991	 -0.554438	 0.377571	 1
1463570312.261	 15	 0.088439	 -0.127802	 -0.142378	 -2.677593	 -1.459384	 1.712057	 -0.447398	 0.591226	 -0.554672	 0.377658	 1
1463570312.271	 15	 0.141087	 -0.098839	 -0.087147	 -2.665454	 -1.460077	 1.725396	 -0.447762	 0.590433	 -0.554992	 0.377997	 1
1463570312.281	 15	 0.170530	 0.005543	 -0.054426	 -2.670982	 -1.462594	 1.720298	 -0.447029	 0.590162	 -0.555164	 0.379034	 1
1463570312.291	 15	 0.154130	 0.109101	 -0.007492	 -2.661768	 -1.463905	 1.728673	 -0.446543	 0.589847	 -0.555866	 0.379069	 1
1463570312.301	 15	 0.140445	 0.127411	 0.018376	 -2.655348	 -1.465256	 1.733860	 -0.445875	 0.589714	 -0.556549	 0.379060	 1
1463570312.311	 15	 0.090161	 0.126273	 -0.012104	 -2.649227	 -1.466198	 1.738756	 -0.445326	 0.589650	 -0.557146	 0.378927	 1
1463570312.321	 15	 0.020630	 0.089322	 -0.003342	 -2.640604	 -1.464069	 1.746321	 -0.445808	 0.589892	 -0.557276	 0.377792	 1
1463570312.331	 15	 0.001118	 0.015015	 0.008926	 -2.640764	 -1.464148	 1.745816	 -0.445679	 0.589963	 -0.557349	 0.377725	 1
1463570312.341	 15	 -0.009928	 -0.036248	 -0.024494	 -2.640235	 -1.464007	 1.746622	 -0.445813	 0.589903	 -0.557291	 0.377746	 1
1463570312.351	 15	 -0.015353	 -0.041667	 -0.040483	 -2.638146	 -1.463690	 1.749146	 -0.446073	 0.589778	 -0.557227	 0.377729	 1
1463570312.361	 15	 -0.019545	 -0.024624	 -0.039242	 -2.628295	 -1.462260	 1.759241	 -0.446745	 0.589577	 -0.557283	 0.377165	 1
1463570312.371	 15	 -0.029091	 -0.009728	 -0.042217	 -2.626314	 -1.461843	 1.761379	 -0.446952	 0.589528	 -0.557255	 0.377039	 1
1463570312.381	 15	 -0.065069	 0.038385	 -0.022272	 -2.626116	 -1.461155	 1.761290	 -0.447084	 0.589676	 -0.557203	 0.376727	 1
1463570312.391	 15	 -0.095780	 0.091630	 -0.025773	 -2.627448	 -1.460315	 1.759178	 -0.447092	 0.590009	 -0.557165	 0.376252	 1
1463570312.401	 15	 -0.073576	 0.017369	 0.009565	 -2.622156	 -1.459429	 1.763992	 -0.447311	 0.590044	 -0.557299	 0.375738	 1
1463570312.411	 15	 0.017687	 -0.089280	 0.006712	 -2.623981	 -1.459439	 1.762806	 -0.447467	 0.589965	 -0.557115	 0.375950	 1
1463570312.421	 15	 0.048370	 -0.110940	 -0.034255	 -2.620988	 -1.459703	 1.766944	 -0.447771	 0.589567	 -0.557049	 0.376307	 1
1463570312.431	 15	 0.030450	 -0.066196	 -0.031551	 -2.617667	 -1.459852	 1.771075	 -0.448018	 0.589248	 -0.557040	 0.376529	 1
1463570312.441	 15	 0.011445	 -0.017246	 -0.036275	 -2.609716	 -1.458884	 1.779315	 -0.448532	 0.589021	 -0.557117	 0.376159	 1
1463570312.451	 15	 -0.007596	 0.024240	 -0.043183	 -2.606429	 -1.458637	 1.782454	 -0.448617	 0.588966	 -0.557225	 0.375983	 1
1463570312.461	 15	 -0.011893	 0.014711	 -0.038971	 -2.603756	 -1.458345	 1.784947	 -0.448698	 0.588945	 -0.557310	 0.375792	 1
1463570312.471	 15	 -0.025879	 -0.000216	 -0.049646	 -2.601150	 -1.457942	 1.787567	 -0.448869	 0.588897	 -0.557340	 0.375620	 1
1463570312.481	 15	 -0.036464	 0.011587	 -0.039855	 -2.600394	 -1.456909	 1.788251	 -0.449183	 0.589012	 -0.557220	 0.375241	 1
1463570312.491	 15	 -0.055588	 0.055031	 -0.070191	 -2.597736	 -1.456203	 1.790528	 -0.449333	 0.589086	 -0.557280	 0.374855	 1
1463570312.501	 15	 -0.068281	 0.063710	 -0.051882	 -2.595728	 -1.455309	 1.791904	 -0.449459	 0.589262	 -0.557335	 0.374345	 1
1463570312.511	 15	 -0.039469	 0.040424	 -0.024640	 -2.595084	 -1.454735	 1.792070	 -0.449508	 0.589415	 -0.557360	 0.374009	 1
1463570312.521	 15	 -0.005414	 0.011680	 -0.014552	 -2.591493	 -1.454435	 1.795476	 -0.449604	 0.589357	 -0.557484	 0.373799	 1
1463570312.531	 15	 0.007388	 0.024289	 -0.030532	 -2.589264	 -1.454355	 1.797550	 -0.449619	 0.589317	 -0.557586	 0.373693	 1
1463570312.541	 15	 -0.006295	 0.078454	 -0.046961	 -2.585490	 -1.454096	 1.800721	 -0.449583	 0.589340	 -0.557802	 0.373378	 1
1463570312.551	 15	 -0.024179	 0.136972	 -0.051590	 -2.581483	 -1.453658	 1.803499	 -0.449421	 0.589514	 -0.558118	 0.372824	 1
1463570312.561	 15	 -0.031632	 0.134939	 -0.041962	 -2.577143	 -1.452266	 1.806468	 -0.449524	 0.589817	 -0.558332	 0.371901	 1
1463570312.571	 15	 -0.028559	 0.106225	 -0.040125	 -2.574527	 -1.451797	 1.807958	 -0.449380	 0.590022	 -0.558573	 0.371386	 1
1463570312.581	 15	 -0.030859	 0.077459	 -0.047833	 -2.571781	 -1.451305	 1.809869	 -0.449332	 0.590159	 -0.558762	 0.370943	 1
1463570312.591	 15	 -0.028800	 0.052009	 -0.036364	 -2.569758	 -1.450833	 1.811314	 -0.449342	 0.590263	 -0.558879	 0.370589	 1
1463570312.601	 15	 -0.021360	 0.042436	 -0.033313	 -2.570620	 -1.450808	 1.810054	 -0.449219	 0.590389	 -0.558915	 0.370483	 1
1463570312.611	 15	 -0.016084	 0.048640	 -0.055682	 -2.567253	 -1.450384	 1.812983	 -0.449276	 0.590402	 -0.559066	 0.370163	 1
1463570312.621	 15	 -0.012732	 0.067884	 -0.040612	 -2.564110	 -1.450021	 1.815524	 -0.449263	 0.590454	 -0.559249	 0.369822	 1
1463570312.631	 15	 0.002472	 0.095734	 -0.007446	 -2.562242	 -1.449909	 1.816502	 -0.449064	 0.590592	 -0.559471	 0.369506	 1
1463570312.641	 15	 0.019733	 0.125559	 0.005471	 -2.562856	 -1.449815	 1.814743	 -0.448746	 0.590884	 -0.559645	 0.369163	 1
1463570312.651	 15	 0.022076	 0.164947	 0.011146	 -2.560954	 -1.450044	 1.815100	 -0.448247	 0.591129	 -0.560039	 0.368779	 1
1463570312.661	 15	 0.006255	 0.208566	 0.006361	 -2.559034	 -1.450174	 1.815034	 -0.447648	 0.591483	 -0.560500	 0.368237	 1
1463570312.671	 15	 -0.012870	 0.235138	 -0.003883	 -2.556999	 -1.450104	 1.814780	 -0.447025	 0.591922	 -0.560991	 0.367540	 1
1463570312.681	 15	 -0.036274	 0.264893	 -0.017273	 -2.552174	 -1.448642	 1.817020	 -0.446797	 0.592467	 -0.561447	 0.366241	 1
1463570312.691	 15	 -0.055378	 0.302048	 -0.034879	 -2.549525	 -1.448050	 1.816742	 -0.446158	 0.593078	 -0.562004	 0.365175	 1
1463570312.701	 15	 -0.055438	 0.306156	 -0.055090	 -2.545620	 -1.447293	 1.817571	 -0.445546	 0.593687	 -0.562614	 0.363991	 1
1463570312.711	 15	 -0.050260	 0.261566	 -0.041695	 -2.542081	 -1.446601	 1.818346	 -0.445000	 0.594232	 -0.563162	 0.362921	 1
1463570312.721	 15	 -0.043008	 0.177624	 -0.015932	 -2.536308	 -1.446336	 1.822077	 -0.444566	 0.594477	 -0.563732	 0.362166	 1
1463570312.731	 15	 -0.027288	 0.095859	 0.008749	 -2.536851	 -1.446094	 1.820371	 -0.444290	 0.594783	 -0.563886	 0.361763	 1
1463570312.741	 15	 -0.014583	 0.058731	 0.027477	 -2.538531	 -1.446091	 1.818033	 -0.444068	 0.594999	 -0.563935	 0.361602	 1
1463570312.751	 15	 -0.018825	 0.066174	 0.025451	 -2.540385	 -1.446096	 1.815529	 -0.443845	 0.595219	 -0.563977	 0.361450	 1
1463570312.761	 15	 -0.020856	 0.072686	 0.042578	 -2.539485	 -1.446333	 1.815669	 -0.443557	 0.595325	 -0.564185	 0.361303	 1
1463570312.771	 15	 -0.010014	 0.095106	 0.058679	 -2.542737	 -1.446540	 1.811498	 -0.443167	 0.595640	 -0.564247	 0.361165	 1
1463570312.781	 15	 0.007226	 0.117500	 0.073658	 -2.546055	 -1.446958	 1.807019	 -0.442637	 0.595988	 -0.564382	 0.361033	 1
1463570312.791	 15	 0.012719	 0.124098	 0.105644	 -2.550720	 -1.447587	 1.801058	 -0.441977	 0.596395	 -0.564518	 0.360955	 1
1463570312.801	 15	 0.001069	 0.096880	 0.160908	 -2.558180	 -1.448176	 1.792469	 -0.441335	 0.596878	 -0.564508	 0.360957	 1
1463570312.811	 15	 -0.046994	 0.065315	 0.188739	 -2.570178	 -1.448727	 1.779625	 -0.440712	 0.597481	 -0.564265	 0.361102	 1
1463570312.821	 15	 -0.073805	 0.019811	 0.209866	 -2.587585	 -1.449231	 1.761782	 -0.440130	 0.598205	 -0.563733	 0.361443	 1
1463570312.831	 15	 -0.076006	 -0.007714	 0.226679	 -2.606349	 -1.449462	 1.742911	 -0.439697	 0.598934	 -0.563055	 0.361820	 1
1463570312.841	 15	 -0.082395	 0.000776	 0.221485	 -2.627280	 -1.449568	 1.721870	 -0.439247	 0.599754	 -0.562283	 0.362208	 1
1463570312.851	 15	 -0.071667	 0.021941	 0.210930	 -2.645610	 -1.449777	 1.703252	 -0.438748	 0.600491	 -0.561669	 0.362545	 1
1463570312.861	 15	 -0.062856	 0.044563	 0.253679	 -2.657871	 -1.449738	 1.690393	 -0.438339	 0.601093	 -0.561305	 0.362606	 1
1463570312.871	 15	 -0.059534	 0.038451	 0.291940	 -2.670445	 -1.449848	 1.677154	 -0.437853	 0.601697	 -0.560971	 0.362708	 1
1463570312.881	 15	 -0.057429	 0.009920	 0.318286	 -2.687369	 -1.450423	 1.659824	 -0.437211	 0.602329	 -0.560522	 0.363128	 1
1463570312.891	 15	 -0.062770	 -0.001670	 0.330999	 -2.706803	 -1.450858	 1.640138	 -0.436595	 0.603029	 -0.559938	 0.363608	 1
1463570312.901	 15	 -0.066005	 0.007774	 0.311922	 -2.728717	 -1.451175	 1.617977	 -0.435948	 0.603824	 -0.559253	 0.364118	 1
1463570312.911	 15	 -0.064905	 0.046857	 0.274972	 -2.752149	 -1.451304	 1.594021	 -0.435221	 0.604751	 -0.558540	 0.364544	 1
1463570312.921	 15	 -0.058297	 0.099944	 0.264754	 -2.776595	 -1.451469	 1.568574	 -0.434297	 0.605795	 -0.557902	 0.364890	 1
1463570312.931	 15	 -0.053785	 0.155210	 0.260970	 -2.800002	 -1.451756	 1.543614	 -0.433177	 0.606883	 -0.557444	 0.365112	 1
1463570312.941	 15	 -0.043969	 0.200911	 0.260251	 -2.824007	 -1.452216	 1.517587	 -0.431836	 0.608039	 -0.557111	 0.365287	 1
1463570312.951	 15	 -0.027677	 0.224580	 0.304028	 -2.847078	 -1.452761	 1.492131	 -0.430370	 0.609202	 -0.556916	 0.365376	 1
1463570312.961	 15	 -0.035022	 0.237482	 0.320198	 -2.871363	 -1.453332	 1.465313	 -0.428805	 0.610407	 -0.556738	 0.365476	 1
1463570312.971	 15	 -0.027552	 0.249059	 0.306386	 -2.895107	 -1.453808	 1.438918	 -0.427229	 0.611615	 -0.556598	 0.365516	 1
1463570312.981	 15	 -0.016889	 0.250068	 0.303105	 -2.917936	 -1.454346	 1.413405	 -0.425638	 0.612763	 -0.556531	 0.365550	 1
1463570312.991	 15	 -0.057473	 0.229047	 0.321385	 -2.945622	 -1.454305	 1.383205	 -0.424087	 0.614127	 -0.556159	 0.365630	 1
1463570313.001	 15	 -0.104031	 0.201434	 0.454754	 -2.979906	 -1.454136	 1.346570	 -0.422392	 0.615649	 -0.555558	 0.365946	 1
1463570313.011	 15	 -0.137189	 0.178194	 0.463352	 -3.019082	 -1.453503	 1.305379	 -0.420711	 0.617314	 -0.554666	 0.366432	 1
1463570313.021	 15	 -0.143681	 0.201251	 0.413533	 -3.054414	 -1.452534	 1.267811	 -0.419099	 0.618971	 -0.553854	 0.366710	 1
1463570313.031	 15	 -0.170539	 0.222101	 0.344693	 -3.087515	 -1.450844	 1.232347	 -0.417612	 0.620762	 -0.552932	 0.366771	 1
1463570313.041	 15	 -0.177303	 0.206704	 0.272137	 -3.109852	 -1.449209	 1.207694	 -0.416444	 0.622244	 -0.552299	 0.366540	 1
1463570313.051	 15	 -0.190237	 0.217054	 0.227584	 -3.127364	 -1.447383	 1.187900	 -0.415460	 0.623648	 -0.551722	 0.366140	 1
1463570313.061	 15	 -0.184180	 0.187938	 0.175038	 -3.140671	 -1.445536	 1.172461	 -0.414652	 0.624924	 -0.551211	 0.365650	 1
1463570313.071	 15	 -0.177073	 0.176699	 0.094942	 3.133399	 -1.444148	 1.161518	 -0.413994	 0.625909	 -0.550887	 0.365199	 1
1463570313.081	 15	 -0.144321	 0.169677	 0.019988	 3.132278	 -1.442633	 1.158660	 -0.413680	 0.626716	 -0.550700	 0.364453	 1
1463570313.091	 15	 -0.125794	 0.106168	 -0.076683	 3.137557	 -1.441343	 1.162685	 -0.413720	 0.627201	 -0.550653	 0.363642	 1
1463570313.101	 15	 -0.142628	 -0.007058	 -0.150061	 -3.135136	 -1.439982	 1.173069	 -0.414336	 0.627332	 -0.550512	 0.362928	 1
1463570313.111	 15	 -0.170680	 -0.047609	 -0.180053	 -3.114649	 -1.438663	 1.194066	 -0.415527	 0.627047	 -0.550548	 0.362003	 1
1463570313.121	 15	 -0.119602	 -0.136601	 -0.110985	 -3.105436	 -1.437216	 1.204354	 -0.416493	 0.626962	 -0.550158	 0.361633	 1
1463570313.131	 15	 -0.075702	 -0.165989	 -0.039169	 -3.104353	 -1.436374	 1.207303	 -0.417282	 0.626768	 -0.549592	 0.361920	 1
1463570313.141	 15	 -0.099404	 0.044422	 -0.074323	 -3.092118	 -1.434758	 1.219648	 -0.418103	 0.626831	 -0.549423	 0.361121	 1
1463570313.151	 15	 -0.122951	 0.304654	 -0.132445	 -3.081873	 -1.433509	 1.227558	 -0.418014	 0.627352	 -0.549760	 0.359803	 1
1463570313.161	 15	 -0.087257	 0.532132	 -0.283043	 -3.060374	 -1.432335	 1.244441	 -0.417633	 0.627985	 -0.550871	 0.357434	 1
1463570313.171	 15	 -0.051884	 0.628272	 -0.358126	 -3.029880	 -1.431409	 1.269043	 -0.417141	 0.628513	 -0.552583	 0.354425	 1
1463570313.181	 15	 -0.033750	 0.561771	 -0.281108	 -2.999856	 -1.430691	 1.293337	 -0.416624	 0.628926	 -0.554345	 0.351536	 1
1463570313.191	 15	 -0.041857	 0.321268	 -0.155384	 -2.983834	 -1.430047	 1.305638	 -0.416190	 0.629331	 -0.555342	 0.349749	 1
1463570313.201	 15	 -0.052341	 0.115130	 -0.131632	 -2.973480	 -1.429325	 1.314477	 -0.416257	 0.629473	 -0.555749	 0.348765	 1
1463570313.211	 15	 -0.033447	 0.025926	 -0.104917	 -2.965711	 -1.428745	 1.321896	 -0.416564	 0.629420	 -0.555911	 0.348235	 1
1463570313.221	 15	 -0.016359	 -0.006800	 -0.063793	 -2.965707	 -1.428736	 1.321996	 -0.416596	 0.629402	 -0.555892	 0.348259	 1
1463570313.231	 15	 0.000951	 -0.020130	 0.011601	 -2.965345	 -1.428682	 1.322544	 -0.416680	 0.629364	 -0.555857	 0.348285	 1
1463570313.241	 15	 0.018610	 -0.023339	 0.162756	 -2.973426	 -1.429027	 1.314615	 -0.416352	 0.629525	 -0.555652	 0.348711	 1
1463570313.251	 15	 0.012168	 -0.008800	 0.404875	 -2.997077	 -1.429724	 1.290841	 -0.415278	 0.630169	 -0.555084	 0.349731	 1
1463570313.261	 15	 -0.024182	 0.024765	 0.618673	 -3.044148	 -1.430031	 1.243285	 -0.413259	 0.631692	 -0.553760	 0.351471	 1
1463570313.271	 15	 -0.077673	 0.030835	 0.847269	 -3.099782	 -1.429948	 1.186772	 -0.410782	 0.633552	 -0.552232	 0.353425	 1
1463570313.281	 15	 -0.121978	 -0.008168	 1.024208	 3.114130	 -1.428888	 1.116790	 -0.407853	 0.635882	 -0.550129	 0.355905	 1
1463570313.291	 15	 -0.136814	 -0.084914	 1.141923	 3.036801	 -1.426812	 1.039278	 -0.404706	 0.638407	 -0.547586	 0.358887	 1
1463570313.301	 15	 -0.108462	 -0.242954	 1.213743	 2.955015	 -1.423883	 0.958598	 -0.401622	 0.640798	 -0.544645	 0.362545	 1
1463570313.311	 15	 -0.035619	 -0.409106	 1.211563	 2.872866	 -1.420603	 0.879331	 -0.398837	 0.642696	 -0.541500	 0.366944	 1
1463570313.321	 15	 0.054772	 -0.459509	 1.191123	 2.793406	 -1.417265	 0.803512	 -0.396158	 0.644154	 -0.538496	 0.371680	 1
1463570313.331	 15	 0.166069	 -0.436070	 1.241528	 2.713146	 -1.413898	 0.726785	 -0.393148	 0.645368	 -0.535769	 0.376677	 1
1463570313.341	 15	 0.291696	 -0.326431	 1.304335	 2.630270	 -1.410358	 0.646510	 -0.389453	 0.646518	 -0.533451	 0.381799	 1
1463570313.351	 15	 0.452800	 -0.140498	 1.341964	 2.546012	 -1.406843	 0.563034	 -0.384860	 0.647643	 -0.531856	 0.386744	 1
1463570313.361	 15	 0.620251	 -0.010573	 1.432305	 2.457365	 -1.403102	 0.473549	 -0.379268	 0.648711	 -0.530928	 0.391721	 1
1463570313.371	 15	 0.667798	 0.030431	 1.532454	 2.366517	 -1.398010	 0.381069	 -0.372987	 0.649839	 -0.530172	 0.396872	 1
1463570313.381	 15	 0.629141	 -0.123845	 1.656049	 2.277378	 -1.390511	 0.291269	 -0.366620	 0.650997	 -0.528877	 0.402594	 1
1463570313.391	 15	 0.562110	 -0.427862	 1.799813	 2.191820	 -1.380239	 0.207751	 -0.360635	 0.651956	 -0.526570	 0.409414	 1
1463570313.401	 15	 0.536106	 -0.604599	 1.911366	 2.111567	 -1.367375	 0.131781	 -0.354868	 0.652739	 -0.523387	 0.417212	 1
1463570313.411	 15	 0.572667	 -0.629509	 2.010997	 2.037487	 -1.352742	 0.062488	 -0.348862	 0.653423	 -0.519943	 0.425431	 1
1463570313.421	 15	 0.484605	 -0.474536	 2.225293	 1.972308	 -1.335249	 0.001022	 -0.342029	 0.654690	 -0.516070	 0.433669	 1
1463570313.431	 15	 0.306846	 -0.042238	 2.365149	 1.923378	 -1.314767	 -0.047714	 -0.334016	 0.657388	 -0.511817	 0.440815	 1
1463570313.441	 15	 0.138084	 0.553260	 2.426514	 1.892078	 -1.292600	 -0.084315	 -0.324646	 0.661790	 -0.507722	 0.445935	 1
1463570313.451	 15	 0.034828	 1.006067	 2.491309	 1.874131	 -1.269173	 -0.112604	 -0.313982	 0.667670	 -0.503806	 0.449234	 1
1463570313.461	 15	 0.076407	 1.021689	 2.462317	 1.860409	 -1.245702	 -0.137935	 -0.302948	 0.673668	 -0.500040	 0.452054	 1
1463570313.471	 15	 0.044278	 0.887657	 2.593504	 1.847644	 -1.221484	 -0.161281	 -0.291898	 0.679388	 -0.495873	 0.455343	 1
1463570313.481	 15	 -0.124241	 0.777596	 2.748482	 1.838206	 -1.194969	 -0.179836	 -0.280811	 0.685301	 -0.490494	 0.459264	 1
1463570313.491	 15	 -0.208870	 0.690790	 2.770792	 1.832640	 -1.167826	 -0.193741	 -0.270003	 0.691271	 -0.484449	 0.463198	 1
1463570313.501	 15	 -0.009824	 0.185568	 2.703610	 1.822051	 -1.141132	 -0.209055	 -0.259864	 0.695884	 -0.478250	 0.468502	 1
1463570313.511	 15	 0.319574	 -0.580921	 2.448484	 1.800505	 -1.117283	 -0.228579	 -0.251455	 0.697603	 -0.472657	 0.476147	 1
1463570313.521	 15	 0.511628	 -1.301083	 2.219498	 1.770389	 -1.096138	 -0.249709	 -0.245050	 0.696605	 -0.467462	 0.485974	 1
1463570313.531	 15	 0.668948	 -2.133098	 2.245556	 1.731996	 -1.075476	 -0.271558	 -0.240227	 0.693135	 -0.461891	 0.498510	 1
1463570313.541	 15	 0.616443	 -2.680443	 2.574503	 1.688388	 -1.051854	 -0.291624	 -0.236043	 0.688024	 -0.454723	 0.513940	 1
1463570313.551	 15	 0.536453	 -2.215776	 3.110273	 1.650301	 -1.022859	 -0.308225	 -0.229771	 0.684026	 -0.446112	 0.529431	 1
1463570313.561	 15	 0.567002	 -1.098089	 3.832337	 1.623545	 -0.986817	 -0.322958	 -0.218986	 0.683067	 -0.436604	 0.542993	 1
1463570313.571	 15	 0.628162	 0.379363	 4.310225	 1.612124	 -0.945009	 -0.337157	 -0.202832	 0.686265	 -0.427177	 0.552648	 1
1463570313.581	 15	 0.538018	 1.229890	 4.517157	 1.612861	 -0.900532	 -0.349736	 -0.183538	 0.692369	 -0.417756	 0.558944	 1
1463570313.591	 15	 0.313209	 1.048952	 4.555797	 1.617275	 -0.855123	 -0.358843	 -0.164247	 0.698760	 -0.407255	 0.564713	 1
1463570313.601	 15	 -0.232727	 0.508995	 4.237929	 1.622626	 -0.811768	 -0.360826	 -0.147894	 0.704240	 -0.395193	 0.570960	 1
1463570313.611	 15	 -0.640897	 -0.650708	 3.875793	 1.622705	 -0.772057	 -0.355752	 -0.136268	 0.707120	 -0.381607	 0.579473	 1
1463570313.621	 15	 -0.733320	 -1.867469	 3.546612	 1.612237	 -0.735356	 -0.348282	 -0.128414	 0.706308	 -0.367391	 0.591322	 1
1463570313.631	 15	 -0.647549	 -2.652623	 2.966245	 1.592128	 -0.703997	 -0.340395	 -0.124077	 0.701951	 -0.354037	 0.605415	 1
1463570313.641	 15	 -0.193509	 -2.191014	 2.270644	 1.570881	 -0.679333	 -0.336597	 -0.120569	 0.696775	 -0.343942	 0.617795	 1
1463570313.651	 15	 0.441858	 -1.355931	 1.375511	 1.553189	 -0.663333	 -0.339941	 -0.116828	 0.692398	 -0.339005	 0.626109	 1
1463570313.661	 15	 1.085222	 -0.761221	 0.630475	 1.537206	 -0.655066	 -0.351393	 -0.112664	 0.688470	 -0.339163	 0.631098	 1
1463570313.671	 15	 1.659652	 -0.296283	 0.149141	 1.521706	 -0.651889	 -0.370477	 -0.107626	 0.684772	 -0.343385	 0.633712	 1
1463570313.681	 15	 1.951657	 -0.179758	 -0.091047	 1.505300	 -0.651285	 -0.394364	 -0.102098	 0.680845	 -0.349924	 0.635279	 1
1463570313.691	 15	 1.997093	 -0.246090	 -0.126165	 1.487806	 -0.650983	 -0.419477	 -0.096558	 0.676539	 -0.356954	 0.636832	 1
1463570313.701	 15	 1.950477	 -0.322145	 -0.219188	 1.469699	 -0.651149	 -0.444368	 -0.091491	 0.671932	 -0.364086	 0.638419	 1
1463570313.711	 15	 1.711356	 -0.427032	 -0.112571	 1.451911	 -0.650660	 -0.466800	 -0.087067	 0.667258	 -0.370326	 0.640348	 1
1463570313.721	 15	 1.336406	 -0.304463	 -0.082588	 1.437538	 -0.649690	 -0.484834	 -0.083387	 0.663437	 -0.375227	 0.641952	 1
1463570313.731	 15	 0.911105	 -0.231828	 -0.055871	 1.427479	 -0.648958	 -0.497638	 -0.080772	 0.660742	 -0.378728	 0.643010	 1
1463570313.741	 15	 0.501904	 -0.411811	 0.039804	 1.419434	 -0.647916	 -0.505049	 -0.079465	 0.658462	 -0.380509	 0.644458	 1
1463570313.751	 15	 0.118917	 -0.638060	 0.073006	 1.412121	 -0.646883	 -0.507571	 -0.079642	 0.656212	 -0.380756	 0.646582	 1
1463570313.761	 15	 -0.231983	 -1.013839	 0.033131	 1.404177	 -0.646673	 -0.505660	 -0.081699	 0.653562	 -0.379760	 0.649588	 1
1463570313.771	 15	 -0.563154	 -1.470810	 -0.048170	 1.394177	 -0.647736	 -0.499769	 -0.085913	 0.650047	 -0.377703	 0.653756	 1
1463570313.781	 15	 -0.913409	 -1.881101	 -0.153383	 1.382287	 -0.650499	 -0.489897	 -0.092392	 0.645679	 -0.374663	 0.658931	 1
1463570313.791	 15	 -1.303259	 -2.142964	 -0.193990	 1.370141	 -0.654699	 -0.475507	 -0.100877	 0.640916	 -0.370416	 0.664712	 1
1463570313.801	 15	 -1.702799	 -2.287020	 -0.126840	 1.359486	 -0.659457	 -0.456048	 -0.110860	 0.636261	 -0.364600	 0.670782	 1
1463570313.811	 15	 -2.037138	 -2.488022	 0.034065	 1.350045	 -0.663771	 -0.431821	 -0.121890	 0.631591	 -0.357012	 0.677331	 1
1463570313.821	 15	 -2.260311	 -2.738584	 0.299051	 1.340623	 -0.666518	 -0.403769	 -0.133425	 0.626529	 -0.347577	 0.684725	 1
1463570313.831	 15	 -2.190880	 -2.820038	 0.681363	 1.330537	 -0.666040	 -0.374503	 -0.144095	 0.621038	 -0.336672	 0.692965	 1
1463570313.841	 15	 -1.985915	 -2.716461	 1.113242	 1.320494	 -0.661264	 -0.346252	 -0.152653	 0.615592	 -0.324820	 0.701595	 1
1463570313.851	 15	 -1.660031	 -2.566243	 1.572212	 1.310294	 -0.651607	 -0.320240	 -0.158525	 0.610306	 -0.312292	 0.710542	 1
1463570313.861	 15	 -1.267485	 -2.339393	 2.065418	 1.300041	 -0.636462	 -0.297391	 -0.161174	 0.605374	 -0.299285	 0.719704	 1
1463570313.871	 15	 -0.903637	 -2.092215	 2.563327	 1.290217	 -0.615693	 -0.277410	 -0.160562	 0.600989	 -0.285725	 0.728967	 1
1463570313.881	 15	 -0.563405	 -1.848382	 3.030504	 1.281087	 -0.589526	 -0.259894	 -0.156859	 0.597217	 -0.271570	 0.738225	 1
1463570313.891	 15	 -0.227887	 -1.635924	 3.422825	 1.272401	 -0.558554	 -0.244844	 -0.150327	 0.593926	 -0.256976	 0.747407	 1
1463570313.901	 15	 0.085665	 -1.487800	 3.734808	 1.263726	 -0.523590	 -0.232213	 -0.141346	 0.590877	 -0.242134	 0.756477	 1
1463570313.911	 15	 0.330051	 -1.483407	 3.999161	 1.254217	 -0.485287	 -0.221414	 -0.130430	 0.587623	 -0.226967	 0.765619	 1
1463570313.921	 15	 0.461216	 -1.666394	 4.192417	 1.242657	 -0.444555	 -0.211338	 -0.118364	 0.583534	 -0.211263	 0.775143	 1
1463570313.931	 15	 0.496296	 -2.013503	 4.301852	 1.227725	 -0.402531	 -0.200983	 -0.105965	 0.577948	 -0.194924	 0.785336	 1
1463570313.941	 15	 0.492371	 -2.422722	 4.337512	 1.208664	 -0.360168	 -0.189864	 -0.093735	 0.570478	 -0.178055	 0.796282	 1
1463570313.951	 15	 0.518053	 -2.820926	 4.290952	 1.185323	 -0.318201	 -0.178219	 -0.081809	 0.561022	 -0.161026	 0.807856	 1
1463570313.961	 15	 0.593510	 -3.216806	 4.144865	 1.157510	 -0.277392	 -0.166709	 -0.070232	 0.549484	 -0.144388	 0.819931	 1
1463570313.971	 15	 0.705977	 -3.588105	 3.883582	 1.125246	 -0.238610	 -0.156063	 -0.059085	 0.535851	 -0.128762	 0.832342	 1
1463570313.981	 15	 0.805467	 -3.910115	 3.520558	 1.088989	 -0.202756	 -0.146662	 -0.048581	 0.520284	 -0.114630	 0.844870	 1
1463570313.991	 15	 0.878160	 -4.181645	 3.067646	 1.049285	 -0.170725	 -0.138811	 -0.039003	 0.502996	 -0.102407	 0.857314	 1
1463570314.001	 15	 0.888636	 -4.414731	 2.757381	 1.006817	 -0.141969	 -0.131793	 -0.030305	 0.484246	 -0.091675	 0.869588	 1
1463570314.011	 15	 0.826405	 -4.600576	 2.625104	 0.962191	 -0.115217	 -0.124114	 -0.022292	 0.464259	 -0.081478	 0.881662	 1
1463570314.021	 15	 0.641222	 -4.432510	 2.552612	 0.918029	 -0.090348	 -0.114561	 -0.015079	 0.444205	 -0.071247	 0.892961	 1
1463570314.031	 15	 0.526951	 -3.909641	 2.447633	 0.878536	 -0.067649	 -0.103247	 -0.008635	 0.426047	 -0.061038	 0.902598	 1
1463570314.041	 15	 0.834032	 -3.574805	 2.250909	 0.842642	 -0.045366	 -0.093753	 -0.001516	 0.409382	 -0.052016	 0.910878	 1
1463570314.051	 15	 1.300787	 -3.269638	 1.987507	 0.809255	 -0.022224	 -0.088541	 0.007217	 0.393718	 -0.045050	 0.918098	 1
1463570314.061	 15	 1.704906	 -2.698131	 1.759102	 0.780783	 0.001960	 -0.087293	 0.017510	 0.380148	 -0.039977	 0.923895	 1
1463570314.071	 15	 2.172774	 -2.220117	 1.570836	 0.757570	 0.027930	 -0.089935	 0.029583	 0.368799	 -0.036603	 0.928317	 1
1463570314.081	 15	 2.646469	 -1.890797	 1.414175	 0.738178	 0.056379	 -0.096526	 0.043655	 0.358934	 -0.034821	 0.931691	 1
1463570314.091	 15	 2.994191	 -1.606536	 1.299756	 0.722097	 0.086948	 -0.106111	 0.059317	 0.350269	 -0.034234	 0.934142	 1
1463570314.101	 15	 3.242718	 -1.337708	 1.216964	 0.709264	 0.119094	 -0.117736	 0.076105	 0.342746	 -0.034446	 0.935706	 1
1463570314.111	 15	 3.403680	 -1.114071	 1.173947	 0.699352	 0.152419	 -0.130673	 0.093679	 0.336200	 -0.035133	 0.936461	 1
1463570314.131	 16	 3.336186	 -0.735074	 1.195114	 0.686678	 0.219923	 -0.156205	 0.129127	 0.325517	 -0.036196	 0.935978	 1
1463570314.141	 16	 3.152846	 -0.681426	 1.185486	 0.682522	 0.252237	 -0.167576	 0.145902	 0.320933	 -0.036288	 0.935092	 1
1463570314.151	 16	 2.877993	 -0.810341	 1.190943	 0.677389	 0.282656	 -0.177239	 0.161447	 0.315894	 -0.036026	 0.934263	 1
1463570314.161	 16	 2.541779	 -1.045495	 1.188484	 0.669747	 0.310621	 -0.184655	 0.175408	 0.309842	 -0.035406	 0.933797	 1
1463570314.171	 16	 2.201924	 -1.348922	 1.156647	 0.658677	 0.335803	 -0.189831	 0.187641	 0.302447	 -0.034614	 0.933873	 1
1463570314.181	 16	 1.906648	 -1.671900	 1.086938	 0.643931	 0.358222	 -0.193224	 0.198247	 0.293616	 -0.033930	 0.934525	 1
1463570314.191	 16	 1.677305	 -2.033453	 1.004573	 0.625323	 0.378224	 -0.195381	 0.207486	 0.283221	 -0.033604	 0.935738	 1
1463570314.201	 16	 1.493905	 -2.410859	 0.954698	 0.602475	 0.396355	 -0.196402	 0.215631	 0.271060	 -0.033662	 0.937495	 1
1463570314.211	 16	 1.355614	 -2.704571	 0.877500	 0.576237	 0.412890	 -0.196685	 0.222889	 0.257475	 -0.034174	 0.939606	 1
1463570314.221	 16	 1.229727	 -2.860025	 0.803612	 0.547808	 0.427932	 -0.196438	 0.229356	 0.243004	 -0.035094	 0.941867	 1
1463570314.231	 16	 1.142640	 -2.953739	 0.752342	 0.518092	 0.441832	 -0.195648	 0.235210	 0.228051	 -0.036253	 0.944116	 1
1463570314.251	 17	 1.122341	 -2.802926	 0.567410	 0.460203	 0.467378	 -0.194930	 0.245986	 0.198884	 -0.039606	 0.947823	 1
1463570314.261	 17	 1.104031	 -2.571359	 0.518566	 0.433909	 0.479537	 -0.195010	 0.251165	 0.185529	 -0.041473	 0.949092	 1
1463570314.271	 17	 1.087558	 -2.204479	 0.502939	 0.410806	 0.491535	 -0.194829	 0.256298	 0.173729	 -0.042966	 0.949886	 1
1463570314.281	 17	 1.134144	 -1.810194	 0.478493	 0.391690	 0.503738	 -0.194700	 0.261610	 0.163804	 -0.044064	 0.950151	 1
1463570314.291	 17	 1.252762	 -1.501451	 0.420650	 0.376275	 0.516672	 -0.195293	 0.267398	 0.155495	 -0.045040	 0.949890	 1
1463570314.301	 17	 1.390100	 -1.304373	 0.372263	 0.363584	 0.530720	 -0.196874	 0.273832	 0.148271	 -0.046091	 0.949161	 1
1463570314.311	 17	 1.491802	 -1.218675	 0.350860	 0.352327	 0.545715	 -0.198949	 0.280763	 0.141588	 -0.047162	 0.948104	 1
1463570314.321	 17	 1.555447	 -1.234321	 0.272359	 0.341582	 0.561229	 -0.201858	 0.287983	 0.134984	 -0.048577	 0.946829	 1
1463570314.331	 17	 1.546514	 -1.251886	 0.193407	 0.331136	 0.576579	 -0.205569	 0.295157	 0.128404	 -0.050413	 0.945438	 1
1463570314.341	 17	 1.473629	 -1.303920	 0.175440	 0.320274	 0.591298	 -0.209304	 0.301993	 0.121654	 -0.052446	 0.944060	 1
1463570314.351	 17	 1.345599	 -1.330906	 0.215737	 0.308632	 0.605061	 -0.212151	 0.308276	 0.114730	 -0.054331	 0.942789	 1
1463570314.371	 18	 0.916042	 -1.405698	 0.435131	 0.280144	 0.627727	 -0.210920	 0.317992	 0.099875	 -0.056277	 0.941137	 1
1463570314.381	 18	 0.738730	 -1.413909	 0.404625	 0.264628	 0.636370	 -0.208569	 0.321468	 0.092345	 -0.056958	 0.940684	 1
1463570314.401	 19	 0.484691	 -1.264577	 0.214258	 0.235958	 0.648823	 -0.204976	 0.326289	 0.078596	 -0.058976	 0.940149	 1
1463570314.411	 19	 0.394802	 -1.241564	 0.124665	 0.223174	 0.653223	 -0.204416	 0.327937	 0.072387	 -0.060495	 0.939977	 1
1463570314.431	 20	 0.216831	 -1.165727	 0.097079	 0.198705	 0.659083	 -0.203516	 0.329882	 0.060655	 -0.063710	 0.939915	 1
1463570314.441	 20	 0.179749	 -1.110296	 0.098983	 0.186966	 0.661101	 -0.202727	 0.330422	 0.055141	 -0.065153	 0.939966	 1
1463570314.451	 20	 0.196972	 -1.053134	 0.068458	 0.175969	 0.663110	 -0.202189	 0.330984	 0.049936	 -0.066600	 0.939958	 1
1463570314.461	 20	 0.222814	 -0.962106	 0.017923	 0.166121	 0.665302	 -0.202290	 0.331679	 0.045157	 -0.068155	 0.939843	 1
1463570314.471	 20	 0.242795	 -0.789934	 0.007628	 0.157971	 0.667671	 -0.202683	 0.332514	 0.041119	 -0.069563	 0.939630	 1
1463570314.481	 20	 0.264334	 -0.520918	 0.005681	 0.152302	 0.670230	 -0.203113	 0.333519	 0.038229	 -0.070574	 0.939320	 1
1463570314.491	 20	 0.279559	 -0.245393	 0.018770	 0.149363	 0.672981	 -0.203454	 0.334706	 0.036627	 -0.071081	 0.938924	 1
1463570314.501	 20	 0.305348	 0.055211	 -0.025551	 0.149649	 0.675913	 -0.204157	 0.336098	 0.036467	 -0.071212	 0.938423	 1
1463570314.511	 20	 0.308184	 0.224142	 -0.049582	 0.152346	 0.678912	 -0.205369	 0.337615	 0.037347	 -0.071169	 0.937847	 1
1463570314.521	 20	 0.246497	 0.221538	 0.006350	 0.155048	 0.681509	 -0.206027	 0.338934	 0.038343	 -0.070883	 0.937352	 1
1463570314.531	 20	 0.167238	 0.112634	 0.063578	 0.156316	 0.683439	 -0.205732	 0.339873	 0.038870	 -0.070426	 0.937025	 1
1463570314.541	 20	 0.088643	 -0.040239	 0.071366	 0.155854	 0.684619	 -0.205024	 0.340392	 0.038701	 -0.070109	 0.936867	 1
1463570314.551	 20	 0.011024	 -0.184845	 0.046184	 0.153971	 0.685003	 -0.204398	 0.340493	 0.037903	 -0.070116	 0.936863	 1
1463570314.561	 20	 -0.063288	 -0.307124	 0.021180	 0.150911	 0.684593	 -0.203969	 0.340187	 0.036567	 -0.070458	 0.937001	 1
1463570314.571	 20	 -0.117010	 -0.374060	 0.009302	 0.147063	 0.683560	 -0.203613	 0.339563	 0.034887	 -0.070998	 0.937251	 1
1463570314.581	 20	 -0.150066	 -0.385515	 0.029732	 0.142853	 0.682163	 -0.203033	 0.338752	 0.033095	 -0.071511	 0.937570	 1
1463570314.591	 20	 -0.125430	 -0.348515	 0.008547	 0.138943	 0.680862	 -0.202567	 0.337997	 0.031418	 -0.072019	 0.937862	 1
1463570314.601	 20	 -0.076035	 -0.246874	 -0.035699	 0.136314	 0.679943	 -0.202758	 0.337476	 0.030207	 -0.072598	 0.938044	 1
1463570314.611	 20	 -0.043402	 -0.130907	 -0.017852	 0.134856	 0.679409	 -0.202995	 0.337177	 0.029514	 -0.072981	 0.938144	 1
1463570314.621	 20	 -0.025556	 0.000143	 0.020514	 0.134401	 0.679137	 -0.202803	 0.337031	 0.029350	 -0.072981	 0.938202	 1
1463570314.631	 20	 -0.027940	 0.130283	 0.071836	 0.134904	 0.678956	 -0.202031	 0.336953	 0.029726	 -0.072542	 0.938252	 1
1463570314.641	 20	 -0.038910	 0.235052	 0.141115	 0.135972	 0.678760	 -0.200363	 0.336875	 0.030519	 -0.071590	 0.938328	 1
1463570314.651	 20	 -0.044861	 0.292833	 0.186467	 0.137336	 0.678570	 -0.198052	 0.336799	 0.031560	 -0.070285	 0.938419	 1
1463570314.661	 20	 -0.058525	 0.303797	 0.226121	 0.138557	 0.678313	 -0.195158	 0.336675	 0.032635	 -0.068734	 0.938542	 1
1463570314.671	 20	 -0.058694	 0.288758	 0.204642	 0.140874	 0.676305	 -0.193068	 0.335780	 0.034188	 -0.067461	 0.938899	 1
1463570314.681	 20	 -0.073927	 0.255582	 0.170362	 0.142029	 0.675862	 -0.190677	 0.335571	 0.035157	 -0.066167	 0.939030	 1
1463570314.691	 20	 -0.120248	 0.176900	 0.155112	 0.142668	 0.675028	 -0.188488	 0.335163	 0.035871	 -0.065072	 0.939225	 1
1463570314.701	 20	 -0.184975	 0.040850	 0.141621	 0.142101	 0.673575	 -0.186339	 0.334427	 0.036046	 -0.064229	 0.939539	 1
1463570314.711	 20	 -0.247612	 -0.082579	 0.107921	 0.141936	 0.667159	 -0.185410	 0.331403	 0.036478	 -0.064132	 0.940600	 1
1463570314.731	 20	 -0.270407	 -0.126600	 0.051180	 0.137634	 0.661956	 -0.182655	 0.328779	 0.035192	 -0.063794	 0.941592	 1
1463570314.741	 21	 -0.233966	 -0.068423	 0.021563	 0.136302	 0.659572	 -0.181875	 0.327605	 0.034822	 -0.063757	 0.942018	 1
1463570314.751	 21	 -0.170652	 0.024815	 -0.001585	 0.134716	 0.655724	 -0.180680	 0.325728	 0.034476	 -0.063632	 0.942690	 1
1463570314.761	 21	 -0.083691	 0.145709	 -0.015078	 0.134901	 0.653791	 -0.180088	 0.324816	 0.034763	 -0.063412	 0.943008	 1
1463570314.771	 21	 -0.019022	 0.259507	 0.009934	 0.137159	 0.653793	 -0.179998	 0.324887	 0.035842	 -0.063003	 0.942971	 1
1463570314.781	 21	 -0.001410	 0.311045	 0.083806	 0.139934	 0.654769	 -0.179355	 0.325420	 0.037203	 -0.062203	 0.942788	 1
1463570314.801	 22	 -0.095379	 0.071825	 0.352056	 0.138751	 0.656239	 -0.172226	 0.325941	 0.037728	 -0.058966	 0.942795	 1
1463570314.811	 22	 -0.079134	 -0.064724	 0.303747	 0.134279	 0.655021	 -0.167064	 0.325143	 0.036522	 -0.057316	 0.943220	 1
1463570314.821	 22	 -0.056035	 -0.101298	 0.255223	 0.132657	 0.652870	 -0.164508	 0.324039	 0.036279	 -0.056469	 0.943660	 1
1463570314.831	 22	 -0.027483	 -0.081774	 0.170932	 0.132515	 0.650544	 -0.163382	 0.322921	 0.036509	 -0.056064	 0.944058	 1
1463570314.841	 22	 0.009547	 -0.077193	 0.084326	 0.131031	 0.650683	 -0.162125	 0.322922	 0.036004	 -0.055704	 0.944098	 1
1463570314.851	 22	 0.045776	 -0.085834	 0.080733	 0.129540	 0.651180	 -0.161211	 0.323098	 0.035424	 -0.055492	 0.944073	 1
1463570314.861	 22	 0.015239	 -0.004856	 0.088147	 0.128747	 0.651530	 -0.160187	 0.323223	 0.035198	 -0.055121	 0.944060	 1
1463570314.871	 22	 -0.029459	 0.018705	 0.091953	 0.128597	 0.651718	 -0.159294	 0.323292	 0.035263	 -0.054716	 0.944058	 1
1463570314.881	 22	 -0.062125	 0.128168	 0.066612	 0.129039	 0.651254	 -0.158330	 0.323068	 0.035649	 -0.054210	 0.944149	 1
1463570314.891	 22	 -0.082324	 0.155784	 0.053190	 0.130058	 0.650556	 -0.157475	 0.322752	 0.036301	 -0.053672	 0.944263	 1
