% Gyrometer data recorded with 'snsrlog'
% 
% 
% Label description:
% 	 0: Default Label
% 	 1: still_drop
% 	 2: walk_drop
% 	 3: other
% 	 4: dtw_same
% 	 5: dtw_diff
% 	 6: delete
% 	 7: steal
% 
% Column description:
% 	 1: Seconds.milliseconds since 1970
% 	 2: Number of skipped measurements
% 	 3: Gyro X
% 	 4: Gyro Y
% 	 5: Gyro Z
% 	 6: Roll of the device
% 	 7: Pitch of the device
% 	 8: Yaw of the device
% 	 9: Quaternion X
% 	 10: Quaternion Y
% 	 11: Quaternion Z
% 	 12: Quaternion W
% 	 13: Label used for the current sample
% 
% 
1463630536.817	 0	 0.716286	 1.251596	 0.109091	 0.004710	 0.418093	 -0.149378	 0.207120	 -0.013188	 -0.072507	 0.975536	 2
1463630536.827	 0	 1.024523	 2.014029	 0.502505	 0.021174	 0.427785	 -0.145098	 0.212445	 -0.005067	 -0.068589	 0.974750	 2
1463630536.837	 0	 1.093746	 2.761401	 0.922372	 0.043324	 0.438946	 -0.136493	 0.218599	 0.006248	 -0.061837	 0.973833	 2
1463630536.847	 0	 0.975599	 3.372172	 1.350061	 0.069995	 0.449808	 -0.123389	 0.224555	 0.020303	 -0.052278	 0.972846	 2
1463630536.857	 0	 0.718585	 3.731289	 1.777670	 0.099367	 0.458725	 -0.105839	 0.229316	 0.036284	 -0.040171	 0.971846	 2
1463630536.867	 0	 0.404638	 3.876000	 2.097205	 0.128640	 0.465508	 -0.084187	 0.232609	 0.052801	 -0.026049	 0.970787	 2
1463630536.877	 0	 0.060037	 3.664171	 2.374267	 0.154666	 0.470214	 -0.058813	 0.234359	 0.068269	 -0.010519	 0.969693	 2
1463630536.887	 0	 -0.263497	 2.994472	 2.588268	 0.173591	 0.472577	 -0.030356	 0.234467	 0.080728	 0.005590	 0.968750	 2
1463630536.897	 0	 -0.560882	 2.071882	 2.700572	 0.182727	 0.472526	 0.000229	 0.233085	 0.088728	 0.021467	 0.968162	 2
1463630536.907	 0	 -0.793418	 1.195048	 2.695503	 0.182532	 0.470170	 0.031586	 0.230528	 0.092284	 0.036520	 0.967991	 2
1463630536.917	 0	 -0.919601	 0.599675	 2.532263	 0.176112	 0.465968	 0.061874	 0.227231	 0.092639	 0.050274	 0.968120	 2
1463630536.927	 0	 -0.920000	 0.362035	 2.176222	 0.168122	 0.460718	 0.088730	 0.223671	 0.091754	 0.062178	 0.968342	 2
1463630536.937	 0	 -0.799036	 0.408045	 1.676820	 0.162479	 0.455446	 0.110148	 0.220323	 0.091321	 0.071741	 0.968489	 2
1463630536.947	 0	 -0.612514	 0.611821	 1.105844	 0.161499	 0.450944	 0.125057	 0.217490	 0.092391	 0.078706	 0.968487	 2
1463630536.957	 0	 -0.436625	 0.826243	 0.531862	 0.165678	 0.447319	 0.133308	 0.215174	 0.095226	 0.083035	 0.968368	 2
1463630536.967	 0	 -0.316652	 0.900868	 0.017814	 0.173691	 0.444168	 0.135474	 0.213203	 0.099264	 0.084835	 0.968243	 2
1463630536.977	 0	 -0.278995	 0.970026	 -0.256837	 0.183877	 0.441018	 0.133747	 0.211329	 0.103940	 0.084966	 0.968151	 2
1463630536.987	 0	 -0.302200	 1.004334	 -0.228606	 0.194852	 0.437637	 0.131646	 0.209334	 0.108958	 0.084972	 0.968033	 2
1463630536.997	 0	 -0.311705	 0.875893	 -0.050670	 0.204250	 0.434390	 0.131242	 0.207379	 0.113395	 0.085621	 0.967887	 2
1463630537.007	 0	 -0.283079	 0.641372	 0.181366	 0.210381	 0.431785	 0.133222	 0.205736	 0.116512	 0.087100	 0.967735	 2
1463630537.027	 1	 -0.072266	 0.983122	 0.458743	 0.221672	 0.430195	 0.142343	 0.203911	 0.122872	 0.092595	 0.966824	 2
1463630537.037	 1	 0.082700	 1.500493	 0.437696	 0.233345	 0.431633	 0.147059	 0.203761	 0.129025	 0.096132	 0.965708	 2
1463630537.047	 1	 0.224836	 2.087455	 0.327883	 0.251320	 0.434342	 0.150397	 0.203971	 0.138100	 0.099713	 0.964045	 2
1463630537.057	 1	 0.317699	 2.678449	 0.167381	 0.276077	 0.437763	 0.151782	 0.204270	 0.150237	 0.103097	 0.961807	 2
1463630537.067	 1	 0.337487	 3.201245	 -0.040013	 0.307187	 0.441031	 0.150875	 0.204292	 0.165152	 0.106044	 0.959033	 2
1463630537.087	 2	 0.222271	 4.237705	 -0.456736	 0.387820	 0.444071	 0.142361	 0.202173	 0.202859	 0.110402	 0.951728	 2
1463630537.097	 2	 0.170579	 4.683771	 -0.567238	 0.436294	 0.443544	 0.136030	 0.199901	 0.225227	 0.112220	 0.946952	 2
1463630537.107	 2	 0.172508	 5.113283	 -0.592033	 0.489197	 0.442414	 0.129347	 0.197162	 0.249530	 0.114199	 0.941180	 2
1463630537.117	 2	 0.245036	 5.511254	 -0.537805	 0.546208	 0.441580	 0.122779	 0.194341	 0.275616	 0.116601	 0.934169	 2
1463630537.127	 2	 0.427680	 5.648974	 -0.393170	 0.605221	 0.442347	 0.116476	 0.192129	 0.302449	 0.119473	 0.925925	 2
1463630537.147	 3	 1.093811	 5.483973	 -0.143657	 0.722656	 0.452788	 0.101565	 0.192214	 0.354710	 0.125521	 0.906355	 2
1463630537.157	 3	 1.403453	 5.394957	 -0.266546	 0.782115	 0.460976	 0.089597	 0.194376	 0.380173	 0.127299	 0.895255	 2
1463630537.177	 4	 1.711389	 4.955210	 -0.940487	 0.901642	 0.472682	 0.052753	 0.199509	 0.429004	 0.125062	 0.872073	 2
1463630537.187	 4	 1.777643	 4.635126	 -1.344769	 0.959779	 0.473234	 0.028536	 0.201513	 0.451738	 0.120517	 0.860698	 2
1463630537.207	 5	 1.787321	 4.333278	 -2.043604	 1.073024	 0.461345	 -0.026658	 0.203123	 0.494939	 0.105701	 0.838214	 2
1463630537.217	 5	 1.762342	 4.444339	 -2.285347	 1.129706	 0.449482	 -0.055457	 0.202633	 0.516411	 0.096417	 0.826416	 2
1463630537.227	 5	 1.698707	 4.699376	 -2.489178	 1.188075	 0.434004	 -0.083665	 0.201121	 0.538645	 0.086559	 0.813584	 2
1463630537.237	 5	 1.590538	 4.983537	 -2.655048	 1.248181	 0.415054	 -0.110253	 0.198453	 0.561740	 0.076466	 0.799511	 2
1463630537.247	 5	 1.467405	 5.223408	 -2.774307	 1.309365	 0.393080	 -0.134452	 0.194668	 0.585430	 0.066376	 0.784200	 2
1463630537.257	 5	 1.362870	 5.337686	 -2.898093	 1.370602	 0.368369	 -0.156050	 0.189863	 0.609255	 0.056234	 0.767853	 2
1463630537.267	 5	 1.277109	 5.165522	 -3.059878	 1.429526	 0.340856	 -0.175130	 0.184092	 0.632266	 0.045647	 0.751177	 2
1463630537.277	 5	 1.185379	 4.681322	 -3.278869	 1.482999	 0.310251	 -0.191669	 0.177268	 0.653320	 0.034154	 0.735243	 2
1463630537.287	 5	 1.117123	 3.992647	 -3.524480	 1.528840	 0.276368	 -0.205753	 0.169296	 0.671687	 0.021415	 0.720914	 2
1463630537.297	 5	 1.089034	 3.502281	 -3.834672	 1.568089	 0.239144	 -0.217903	 0.160198	 0.687766	 0.007293	 0.707998	 2
1463630537.307	 5	 1.087039	 3.105511	 -4.134629	 1.602330	 0.198316	 -0.228442	 0.149889	 0.702132	 -0.008289	 0.696043	 2
1463630537.317	 5	 1.102369	 2.824966	 -4.240752	 1.632724	 0.155579	 -0.237540	 0.138926	 0.715031	 -0.024680	 0.684705	 2
1463630537.327	 5	 1.163873	 2.898772	 -4.158537	 1.662432	 0.112947	 -0.245826	 0.128184	 0.727345	 -0.041117	 0.672939	 2
1463630537.337	 5	 1.292665	 3.123105	 -3.972128	 1.693838	 0.071611	 -0.254050	 0.118374	 0.739727	 -0.057243	 0.659936	 2
1463630537.347	 5	 1.464505	 3.347967	 -3.695499	 1.727241	 0.032300	 -0.262871	 0.110018	 0.752170	 -0.072965	 0.645611	 2
1463630537.357	 5	 1.703163	 3.429527	 -3.352577	 1.761583	 -0.004417	 -0.273079	 0.103585	 0.764254	 -0.088331	 0.630383	 2
1463630537.367	 5	 1.981240	 3.291688	 -3.034421	 1.794734	 -0.038776	 -0.285376	 0.099170	 0.775318	 -0.103672	 0.615061	 2
1463630537.387	 6	 2.385981	 2.296262	 -2.855370	 1.847118	 -0.105577	 -0.314990	 0.093527	 0.791772	 -0.136015	 0.588090	 2
1463630537.397	 6	 2.446228	 1.635431	 -3.022974	 1.863282	 -0.140931	 -0.330112	 0.090118	 0.796628	 -0.153510	 0.577665	 2
1463630537.417	 7	 2.085840	 0.094822	 -3.530818	 1.872593	 -0.218202	 -0.354199	 0.077508	 0.799429	 -0.190132	 0.564585	 2
1463630537.427	 7	 1.758303	 -0.603566	 -3.754011	 1.866590	 -0.258974	 -0.361085	 0.067482	 0.797706	 -0.208056	 0.561982	 2
1463630537.437	 7	 1.471448	 -1.091111	 -3.926573	 1.855730	 -0.300621	 -0.364804	 0.055249	 0.794475	 -0.225386	 0.561211	 2
1463630537.447	 7	 1.329015	 -1.369877	 -3.995051	 1.841929	 -0.342661	 -0.366987	 0.041724	 0.790181	 -0.242250	 0.561416	 2
1463630537.457	 7	 1.341650	 -1.459856	 -3.930987	 1.826468	 -0.384298	 -0.369705	 0.028069	 0.785135	 -0.258844	 0.561939	 2
1463630537.467	 7	 1.431008	 -1.450261	 -3.745167	 1.810065	 -0.424566	 -0.374422	 0.015225	 0.779579	 -0.275181	 0.562405	 2
1463630537.477	 7	 1.525026	 -1.456839	 -3.441239	 1.792405	 -0.462297	 -0.381692	 0.003710	 0.773531	 -0.290992	 0.562992	 2
1463630537.487	 7	 1.622653	 -1.447926	 -3.053003	 1.773204	 -0.496477	 -0.391824	 -0.006097	 0.767034	 -0.306019	 0.563892	 2
1463630537.497	 7	 1.671243	 -1.417685	 -2.676931	 1.752746	 -0.526785	 -0.404481	 -0.014192	 0.760267	 -0.320096	 0.565094	 2
1463630537.507	 7	 1.658619	 -1.392181	 -2.392025	 1.731427	 -0.553848	 -0.418735	 -0.021066	 0.753373	 -0.333231	 0.566517	 2
1463630537.517	 7	 1.581844	 -1.361437	 -2.143813	 1.709749	 -0.578040	 -0.433634	 -0.027103	 0.746503	 -0.345336	 0.568103	 2
1463630537.527	 7	 1.453432	 -1.382960	 -1.937204	 1.687874	 -0.599616	 -0.448316	 -0.032652	 0.739696	 -0.356299	 0.569943	 2
1463630537.537	 7	 1.296474	 -1.490212	 -1.830259	 1.665355	 -0.619437	 -0.462161	 -0.038281	 0.732784	 -0.366252	 0.572208	 2
1463630537.547	 7	 1.102751	 -1.633028	 -1.802191	 1.642091	 -0.638395	 -0.474521	 -0.044526	 0.725686	 -0.375306	 0.574928	 2
1463630537.557	 7	 0.880603	 -1.694919	 -1.773122	 1.619113	 -0.656559	 -0.484827	 -0.051397	 0.718670	 -0.383343	 0.577858	 2
1463630537.567	 7	 0.683470	 -1.681160	 -1.715856	 1.597329	 -0.673840	 -0.493073	 -0.058650	 0.711987	 -0.390366	 0.580731	 2
1463630537.587	 8	 0.603124	 -1.513156	 -1.464185	 1.559663	 -0.702304	 -0.505743	 -0.071618	 0.700444	 -0.401215	 0.585897	 2
1463630537.597	 8	 0.731587	 -1.367472	 -1.271037	 1.541088	 -0.714081	 -0.514186	 -0.076601	 0.694916	 -0.406378	 0.588286	 2
1463630537.607	 8	 0.909867	 -1.265764	 -1.107516	 1.520232	 -0.725156	 -0.526283	 -0.080643	 0.688900	 -0.412232	 0.590743	 2
1463630537.617	 8	 1.065109	 -1.207309	 -1.050772	 1.498278	 -0.735080	 -0.540941	 -0.083753	 0.682725	 -0.418391	 0.593146	 2
1463630537.627	 8	 1.162313	 -1.182118	 -1.057779	 1.475200	 -0.744637	 -0.557545	 -0.086451	 0.676337	 -0.424900	 0.595444	 2
1463630537.637	 8	 1.210925	 -1.075741	 -1.035897	 1.451936	 -0.753746	 -0.575380	 -0.088768	 0.669992	 -0.431573	 0.597474	 2
1463630537.647	 8	 1.260500	 -0.827371	 -0.940230	 1.430106	 -0.761722	 -0.594105	 -0.090217	 0.664171	 -0.438219	 0.598917	 2
1463630537.657	 8	 1.357221	 -0.532394	 -0.852001	 1.410205	 -0.768331	 -0.614122	 -0.090448	 0.659036	 -0.444947	 0.599593	 2
1463630537.667	 8	 1.537469	 -0.347691	 -0.829471	 1.390704	 -0.773991	 -0.636526	 -0.089585	 0.654162	 -0.452144	 0.599677	 2
1463630537.677	 8	 1.750424	 -0.189071	 -0.870348	 1.370425	 -0.779183	 -0.662159	 -0.087813	 0.649218	 -0.460136	 0.599232	 2
1463630537.687	 8	 1.889678	 -0.003993	 -0.959362	 1.349894	 -0.784432	 -0.690596	 -0.085374	 0.644337	 -0.468941	 0.598027	 2
1463630537.697	 8	 1.922530	 0.035562	 -1.064790	 1.329152	 -0.790134	 -0.720418	 -0.082885	 0.639474	 -0.478211	 0.596253	 2
1463630537.707	 8	 1.862594	 -0.128908	 -1.181967	 1.306932	 -0.796581	 -0.750529	 -0.081130	 0.634227	 -0.487608	 0.594485	 2
1463630537.717	 8	 1.690049	 -0.410055	 -1.300315	 1.282754	 -0.804074	 -0.779543	 -0.080803	 0.628433	 -0.496740	 0.593120	 2
1463630537.727	 8	 1.431231	 -0.686425	 -1.381631	 1.257219	 -0.812688	 -0.806158	 -0.082207	 0.622254	 -0.505228	 0.592272	 2
1463630537.737	 8	 1.111310	 -0.685072	 -1.324479	 1.233622	 -0.821658	 -0.828932	 -0.084639	 0.616595	 -0.512611	 0.591503	 2
1463630537.747	 8	 0.825755	 -0.542295	 -1.111775	 1.214375	 -0.829661	 -0.847183	 -0.087111	 0.612069	 -0.518568	 0.590653	 2
1463630537.757	 8	 0.630424	 -0.374472	 -0.782389	 1.199867	 -0.835407	 -0.861106	 -0.088882	 0.608695	 -0.523000	 0.589967	 2
1463630537.767	 8	 0.629123	 -0.091750	 -0.370494	 1.189887	 -0.837572	 -0.872307	 -0.088943	 0.606369	 -0.526212	 0.589497	 2
1463630537.777	 8	 0.657258	 0.071977	 0.070944	 1.183461	 -0.835452	 -0.881563	 -0.087005	 0.604759	 -0.528318	 0.589556	 2
1463630537.787	 8	 0.556541	 0.156611	 0.407258	 1.180129	 -0.830150	 -0.887856	 -0.083910	 0.603723	 -0.529193	 0.590281	 2
1463630537.797	 8	 0.300865	 0.230755	 0.701127	 1.181156	 -0.822954	 -0.889424	 -0.080347	 0.603641	 -0.528558	 0.591429	 2
1463630537.807	 8	 0.041873	 0.259357	 1.020180	 1.186485	 -0.813878	 -0.885562	 -0.076556	 0.604494	 -0.526169	 0.593188	 2
1463630537.817	 8	 0.039097	 0.360144	 1.276925	 1.194204	 -0.802432	 -0.879413	 -0.071913	 0.605839	 -0.522756	 0.595410	 2
1463630537.827	 8	 0.129779	 0.651580	 1.461092	 1.204165	 -0.788888	 -0.873432	 -0.065838	 0.607758	 -0.519045	 0.597402	 2
1463630537.837	 8	 0.276562	 1.001955	 1.728450	 1.216899	 -0.772566	 -0.868353	 -0.057721	 0.610393	 -0.515103	 0.598964	 2
1463630537.857	 9	 -0.400194	 1.000117	 2.227773	 1.251421	 -0.733287	 -0.850851	 -0.039021	 0.617932	 -0.503526	 0.602577	 2
1463630537.867	 9	 -1.290645	 0.849037	 2.301263	 1.275198	 -0.714794	 -0.827779	 -0.033095	 0.623619	 -0.493400	 0.605442	 2
1463630537.877	 9	 -1.464363	 1.221858	 2.454386	 1.304092	 -0.695891	 -0.800292	 -0.027386	 0.630962	 -0.481638	 0.607586	 2
1463630537.887	 9	 -0.818603	 1.803695	 2.867693	 1.334172	 -0.671731	 -0.778818	 -0.017787	 0.638699	 -0.470241	 0.608786	 2
1463630537.897	 9	 -0.035585	 2.453817	 3.365702	 1.364207	 -0.640652	 -0.767157	 -0.002730	 0.646350	 -0.459808	 0.608934	 2
1463630537.907	 9	 0.320451	 3.260894	 3.918971	 1.398958	 -0.603730	 -0.760999	 0.017075	 0.655229	 -0.449044	 0.607241	 2
1463630537.917	 9	 0.408477	 4.263372	 4.471072	 1.440861	 -0.560236	 -0.757699	 0.041445	 0.665884	 -0.436574	 0.603560	 2
1463630537.927	 9	 0.303206	 5.091461	 4.657677	 1.490693	 -0.513694	 -0.755975	 0.068590	 0.678565	 -0.422431	 0.596990	 2
1463630537.937	 9	 0.047679	 5.665705	 4.393476	 1.546787	 -0.468919	 -0.754621	 0.095785	 0.692905	 -0.407283	 0.587221	 2
1463630537.947	 9	 -0.066836	 5.891107	 4.042737	 1.605459	 -0.427691	 -0.754195	 0.121735	 0.707776	 -0.391910	 0.575013	 2
1463630537.957	 9	 0.093806	 5.996232	 3.790797	 1.663939	 -0.389300	 -0.757338	 0.147104	 0.722070	 -0.377112	 0.561037	 2
1463630537.967	 9	 0.322183	 5.905054	 3.630227	 1.720671	 -0.353281	 -0.764913	 0.172183	 0.735119	 -0.363193	 0.545935	 2
1463630537.977	 9	 0.470278	 5.499599	 3.513259	 1.773202	 -0.319155	 -0.776109	 0.196532	 0.746199	 -0.350103	 0.531028	 2
1463630537.987	 9	 0.431628	 4.752340	 3.267912	 1.819019	 -0.287640	 -0.788539	 0.218762	 0.754942	 -0.337908	 0.517711	 2
1463630537.997	 9	 0.237753	 3.755965	 2.927810	 1.856221	 -0.259344	 -0.799752	 0.237630	 0.761319	 -0.326714	 0.507132	 2
1463630538.007	 9	 -0.171170	 2.640069	 2.592732	 1.883559	 -0.233620	 -0.807359	 0.252402	 0.765479	 -0.316196	 0.500355	 2
1463630538.017	 9	 -0.725813	 1.597179	 2.292641	 1.901616	 -0.209333	 -0.809340	 0.262885	 0.767955	 -0.305670	 0.497697	 2
1463630538.027	 9	 -1.190132	 0.656495	 2.042805	 1.911089	 -0.185905	 -0.805975	 0.269593	 0.768977	 -0.295095	 0.498912	 2
1463630538.037	 9	 -1.443109	 -0.068731	 1.815515	 1.913246	 -0.163622	 -0.798996	 0.273426	 0.768696	 -0.284926	 0.503152	 2
1463630538.047	 9	 -1.484457	 -0.517872	 1.611332	 1.910352	 -0.142971	 -0.790460	 0.275468	 0.767432	 -0.275585	 0.509134	 2
1463630538.057	 9	 -1.374423	 -0.750683	 1.379069	 1.904472	 -0.124751	 -0.781863	 0.276424	 0.765556	 -0.267481	 0.515721	 2
1463630538.067	 9	 -1.200026	 -0.850213	 1.071816	 1.897033	 -0.109761	 -0.773747	 0.276500	 0.763429	 -0.260867	 0.522180	 2
1463630538.077	 9	 -0.917293	 -0.475762	 0.608167	 1.891695	 -0.099681	 -0.766586	 0.275883	 0.762112	 -0.255997	 0.526819	 2
1463630538.087	 9	 -0.477221	 0.143545	 0.239212	 1.892129	 -0.094792	 -0.761875	 0.275504	 0.762433	 -0.252883	 0.528056	 2
1463630538.097	 9	 0.049786	 1.025894	 -0.049184	 1.899303	 -0.094173	 -0.761399	 0.276399	 0.764332	 -0.251538	 0.525479	 2
1463630538.107	 9	 0.322594	 2.169943	 -0.433114	 1.918237	 -0.098235	 -0.762734	 0.278170	 0.769446	 -0.250777	 0.517383	 2
1463630538.117	 9	 0.444234	 2.679759	 -0.775802	 1.944187	 -0.106231	 -0.764277	 0.279848	 0.776559	 -0.250556	 0.505829	 2
1463630538.127	 9	 0.418748	 2.475832	 -1.039656	 1.969582	 -0.116919	 -0.764580	 0.280296	 0.783747	 -0.251120	 0.494079	 2
1463630538.137	 9	 0.331526	 2.055324	 -1.274080	 1.991761	 -0.129506	 -0.762953	 0.279130	 0.790377	 -0.252416	 0.483401	 2
1463630538.147	 9	 0.277154	 1.469797	 -1.370710	 2.008312	 -0.143043	 -0.759830	 0.276458	 0.795772	 -0.254552	 0.474891	 2
1463630538.157	 9	 0.597892	 0.533164	 -1.185053	 2.016564	 -0.156415	 -0.758808	 0.273638	 0.798790	 -0.258308	 0.469397	 2
1463630538.167	 9	 1.378404	 -1.010069	 -0.860902	 2.009358	 -0.169890	 -0.765409	 0.271821	 0.797104	 -0.265997	 0.469024	 2
1463630538.177	 9	 2.146742	 -2.046134	 -0.712039	 1.988221	 -0.184726	 -0.780503	 0.271030	 0.791074	 -0.278042	 0.472692	 2
1463630538.197	 10	 3.139369	 -2.504830	 -0.935971	 1.930045	 -0.221119	 -0.826964	 0.270758	 0.773431	 -0.310446	 0.481786	 2
1463630538.207	 10	 3.570686	 -1.837557	 -1.147735	 1.902532	 -0.243098	 -0.856721	 0.271644	 0.764371	 -0.329209	 0.483288	 2
1463630538.227	 11	 0.771664	 2.893571	 -1.079340	 1.914356	 -0.280936	 -0.893074	 0.276871	 0.764958	 -0.349461	 0.464821	 2
1463630538.237	 11	 -0.194844	 3.482644	 -0.613560	 1.949840	 -0.287674	 -0.889797	 0.279900	 0.773995	 -0.346131	 0.450311	 2
1463630538.247	 11	 -0.033735	 2.558545	 0.208798	 1.978551	 -0.287476	 -0.888778	 0.284496	 0.780512	 -0.341783	 0.439371	 2
1463630538.257	 11	 -0.090839	 1.562452	 0.988691	 1.995407	 -0.279760	 -0.891896	 0.290655	 0.783259	 -0.337280	 0.433898	 2
1463630538.267	 11	 -0.507945	 1.195056	 1.197793	 2.007570	 -0.267444	 -0.893236	 0.296488	 0.784910	 -0.331347	 0.431531	 2
1463630538.277	 11	 -0.849405	 1.050768	 1.109899	 2.019005	 -0.253781	 -0.891063	 0.301100	 0.786813	 -0.324211	 0.430292	 2
1463630538.287	 11	 -0.980223	 0.751941	 0.770411	 2.028669	 -0.241709	 -0.886082	 0.303827	 0.788850	 -0.317263	 0.429824	 2
1463630538.297	 11	 -0.899937	 0.144570	 0.209864	 2.033419	 -0.234431	 -0.879158	 0.303720	 0.790442	 -0.312373	 0.430556	 2
1463630538.307	 11	 -0.903079	 -0.373438	 -0.235089	 2.032731	 -0.231687	 -0.870364	 0.300843	 0.791442	 -0.309566	 0.432762	 2
1463630538.317	 11	 -1.113129	 -0.399737	 -0.426408	 2.031215	 -0.230530	 -0.858912	 0.296372	 0.792747	 -0.306878	 0.435364	 2
1463630538.327	 11	 -1.467931	 -0.214190	 -0.503656	 2.031915	 -0.228750	 -0.844043	 0.291037	 0.794970	 -0.302867	 0.437712	 2
1463630538.337	 11	 -1.717441	 0.153709	 -0.619557	 2.036409	 -0.226578	 -0.826020	 0.285093	 0.798417	 -0.297457	 0.439058	 2
1463630538.347	 11	 -1.611625	 0.780783	 -0.786231	 2.046734	 -0.225661	 -0.807322	 0.279362	 0.803265	 -0.291555	 0.437856	 2
1463630538.357	 11	 -1.211173	 1.330021	 -0.567191	 2.062187	 -0.225403	 -0.792136	 0.275539	 0.808725	 -0.286003	 0.433871	 2
1463630538.367	 11	 -0.672350	 1.529505	 -0.561500	 2.079653	 -0.225961	 -0.782348	 0.273907	 0.813863	 -0.281709	 0.428069	 2
1463630538.377	 11	 -0.116801	 1.490334	 -0.898154	 2.096408	 -0.231942	 -0.775913	 0.272141	 0.818592	 -0.280366	 0.421001	 2
1463630538.387	 11	 0.171468	 -0.351097	 -0.826143	 2.099889	 -0.240112	 -0.772353	 0.269143	 0.820181	 -0.282314	 0.418526	 2
1463630538.397	 11	 0.392323	 -1.916728	 -0.590049	 2.083717	 -0.247327	 -0.772125	 0.264941	 0.817130	 -0.287214	 0.423807	 2
1463630538.407	 11	 0.436210	 -2.740544	 -0.652451	 2.057938	 -0.254904	 -0.773125	 0.259675	 0.811823	 -0.293712	 0.432718	 2
1463630538.417	 11	 -0.881025	 -0.736208	 -0.969769	 2.045271	 -0.260708	 -0.764896	 0.252968	 0.810385	 -0.295753	 0.437966	 2
1463630538.427	 11	 -2.153564	 0.327846	 -1.275977	 2.054329	 -0.262562	 -0.741491	 0.244300	 0.815356	 -0.290213	 0.437366	 2
1463630538.437	 11	 -1.878872	 -1.609678	 -1.553247	 2.050895	 -0.266202	 -0.715713	 0.232334	 0.817814	 -0.286353	 0.441818	 2
1463630538.447	 11	 -1.050354	 -3.449764	 -1.956995	 2.025431	 -0.277087	 -0.695545	 0.217571	 0.814773	 -0.288881	 0.453162	 2
1463630538.457	 11	 -0.738716	 -3.635879	 -2.268379	 1.993520	 -0.293755	 -0.678436	 0.201464	 0.809783	 -0.294636	 0.465676	 2
1463630538.467	 11	 -0.767944	 -3.030713	 -2.280620	 1.966502	 -0.311852	 -0.661678	 0.185668	 0.805581	 -0.300122	 0.475913	 2
1463630538.477	 11	 -1.085265	 -2.472262	 -1.961458	 1.945986	 -0.327272	 -0.643859	 0.171054	 0.802646	 -0.303435	 0.484177	 2
1463630538.487	 11	 -1.320279	 -2.087802	 -1.401638	 1.930425	 -0.337079	 -0.625281	 0.158436	 0.800599	 -0.303830	 0.491555	 2
1463630538.497	 11	 -1.000181	 -2.227143	 -0.980482	 1.913809	 -0.343245	 -0.610229	 0.148110	 0.797758	 -0.303656	 0.499439	 2
1463630538.507	 11	 -0.254206	 -2.424193	 -1.011192	 1.892525	 -0.350983	 -0.602416	 0.139485	 0.793101	 -0.306065	 0.507798	 2
1463630538.517	 11	 0.001339	 -2.374316	 -1.216514	 1.869949	 -0.362081	 -0.598517	 0.131154	 0.787782	 -0.310639	 0.515464	 2
1463630538.527	 11	 -0.338044	 -2.245770	 -1.374358	 1.849494	 -0.374120	 -0.591939	 0.121731	 0.783083	 -0.314567	 0.522504	 2
1463630538.537	 11	 -0.400677	 -2.200529	 -1.614254	 1.830542	 -0.387986	 -0.583192	 0.111067	 0.778805	 -0.318324	 0.528959	 2
1463630538.547	 11	 -0.159049	 -1.883018	 -1.879844	 1.813504	 -0.404912	 -0.575952	 0.100272	 0.774851	 -0.323291	 0.533886	 2
1463630538.557	 11	 0.135067	 -1.131025	 -2.344343	 1.802065	 -0.426606	 -0.570910	 0.089659	 0.772202	 -0.330094	 0.535447	 2
1463630538.567	 11	 0.455084	 -0.322696	 -2.803214	 1.798520	 -0.453725	 -0.567973	 0.079389	 0.771464	 -0.338892	 0.532628	 2
1463630538.587	 12	 1.120785	 0.532815	 -3.069621	 1.800035	 -0.516861	 -0.572954	 0.061618	 0.771349	 -0.361848	 0.519894	 2
1463630538.597	 12	 1.280642	 0.901736	 -3.026016	 1.805237	 -0.549291	 -0.578883	 0.054604	 0.772063	 -0.374233	 0.510771	 2
1463630538.607	 12	 1.392733	 1.051043	 -2.925420	 1.811483	 -0.581223	 -0.586426	 0.048619	 0.772819	 -0.386731	 0.500825	 2
1463630538.617	 12	 1.412139	 0.963821	 -2.771866	 1.816722	 -0.611923	 -0.594824	 0.043212	 0.773157	 -0.398941	 0.491128	 2
1463630538.627	 12	 1.328671	 0.781222	 -2.611908	 1.820220	 -0.640947	 -0.603009	 0.037939	 0.772973	 -0.410460	 0.482282	 2
1463630538.637	 12	 1.168033	 0.547627	 -2.475200	 1.822080	 -0.668232	 -0.609974	 0.032421	 0.772355	 -0.421028	 0.474501	 2
1463630538.647	 12	 1.004272	 0.350037	 -2.361576	 1.822628	 -0.693967	 -0.615335	 0.026496	 0.771409	 -0.430627	 0.467747	 2
1463630538.657	 12	 0.900876	 0.290451	 -2.259983	 1.822834	 -0.718381	 -0.619588	 0.020481	 0.770360	 -0.439451	 0.461528	 2
1463630538.667	 12	 0.847450	 0.266232	 -2.248019	 1.823185	 -0.742333	 -0.623195	 0.014389	 0.769286	 -0.447893	 0.455395	 2
1463630538.677	 12	 0.829848	 0.225083	 -2.062807	 1.822951	 -0.764939	 -0.626996	 0.008661	 0.768062	 -0.455876	 0.449648	 2
1463630538.687	 12	 0.800232	 0.079076	 -1.821979	 1.821158	 -0.785148	 -0.631418	 0.003559	 0.766553	 -0.463175	 0.444807	 2
1463630538.697	 12	 0.828215	 -0.186139	 -1.715983	 1.816239	 -0.803938	 -0.636624	 -0.001547	 0.764394	 -0.470130	 0.441222	 2
1463630538.707	 12	 0.923204	 -0.463557	 -1.652248	 1.807299	 -0.822298	 -0.643521	 -0.006870	 0.761367	 -0.477222	 0.438785	 2
1463630538.717	 12	 1.005435	 -0.756668	 -1.557642	 1.793910	 -0.839949	 -0.652409	 -0.012359	 0.757427	 -0.484398	 0.437619	 2
1463630538.727	 12	 1.081464	 -1.005109	 -1.465763	 1.776235	 -0.856728	 -0.663315	 -0.017964	 0.752647	 -0.491585	 0.437657	 2
1463630538.737	 12	 1.165853	 -1.266549	 -1.402857	 1.754126	 -0.873207	 -0.676563	 -0.023836	 0.746984	 -0.498993	 0.438694	 2
1463630538.747	 12	 1.214113	 -1.471713	 -1.367884	 1.728170	 -0.888780	 -0.691590	 -0.029899	 0.740610	 -0.506304	 0.440749	 2
1463630538.757	 12	 1.200191	 -1.464380	 -1.389010	 1.700958	 -0.904180	 -0.707534	 -0.036090	 0.734047	 -0.513558	 0.442866	 2
1463630538.767	 12	 1.158908	 -1.363470	 -1.423947	 1.674165	 -0.919602	 -0.723835	 -0.042260	 0.727658	 -0.520705	 0.444515	 2
1463630538.777	 12	 1.048321	 -1.258026	 -1.448649	 1.649023	 -0.935130	 -0.739385	 -0.048504	 0.721697	 -0.527546	 0.445530	 2
1463630538.787	 12	 0.845534	 -1.265912	 -1.444826	 1.625400	 -0.950186	 -0.753062	 -0.055032	 0.716129	 -0.533694	 0.446432	 2
1463630538.797	 12	 0.557663	 -1.227682	 -1.422780	 1.604814	 -0.964731	 -0.762972	 -0.062057	 0.711222	 -0.538782	 0.447244	 2
1463630538.807	 12	 0.305946	 -1.168704	 -1.458407	 1.588358	 -0.979220	 -0.768706	 -0.069527	 0.707151	 -0.542896	 0.447624	 2
1463630538.817	 12	 0.066843	 -0.868804	 -1.560111	 1.577250	 -0.994579	 -0.770553	 -0.077277	 0.704121	 -0.546401	 0.446864	 2
1463630538.827	 12	 0.031364	 -0.605725	 -1.670324	 1.570276	 -1.011071	 -0.771006	 -0.084815	 0.701903	 -0.549913	 0.444673	 2
1463630538.837	 12	 0.107496	 -0.537800	 -1.659698	 1.563409	 -1.027702	 -0.772755	 -0.091939	 0.699742	 -0.553660	 0.442006	 2
1463630538.847	 12	 0.206094	 -0.687950	 -1.644901	 1.553574	 -1.044160	 -0.776735	 -0.099073	 0.697034	 -0.557625	 0.439752	 2
1463630538.857	 12	 0.248548	 -0.986748	 -1.617144	 1.539566	 -1.060358	 -0.782445	 -0.106723	 0.693529	 -0.561577	 0.438473	 2
1463630538.867	 12	 0.157719	 -1.298657	 -1.544652	 1.522749	 -1.075940	 -0.787667	 -0.115172	 0.689442	 -0.564989	 0.438397	 2
1463630538.877	 12	 -0.040688	 -1.630968	 -1.395744	 1.505595	 -1.090295	 -0.789646	 -0.124452	 0.685167	 -0.567263	 0.439626	 2
1463630538.887	 12	 -0.305142	 -2.008216	 -1.163550	 1.489182	 -1.102707	 -0.786507	 -0.134609	 0.680801	 -0.567926	 0.442550	 2
1463630538.897	 12	 -0.702418	 -2.129017	 -0.822303	 1.478258	 -1.112320	 -0.775025	 -0.145043	 0.677137	 -0.566455	 0.446741	 2
1463630538.917	 13	 -1.718443	 -1.352338	 0.119918	 1.497414	 -1.119774	 -0.715275	 -0.162541	 0.676462	 -0.555925	 0.454892	 2
1463630538.927	 13	 -2.120115	 -0.758041	 0.654366	 1.530570	 -1.115727	 -0.668326	 -0.167902	 0.680420	 -0.547107	 0.457724	 2
1463630538.937	 13	 -2.416296	 -0.165395	 1.150579	 1.575213	 -1.105859	 -0.615011	 -0.170620	 0.686934	 -0.536454	 0.459594	 2
1463630538.947	 13	 -2.615397	 0.512321	 1.536964	 1.627986	 -1.090533	 -0.559495	 -0.170626	 0.695766	 -0.524503	 0.460101	 2
1463630538.957	 13	 -2.681712	 1.334061	 1.597411	 1.686646	 -1.072226	 -0.505729	 -0.168239	 0.706634	 -0.512385	 0.458067	 2
1463630538.967	 13	 -2.555384	 2.188047	 1.489155	 1.748569	 -1.053489	 -0.457452	 -0.163769	 0.718962	 -0.501331	 0.452703	 2
1463630538.977	 13	 -2.362574	 3.239436	 1.495128	 1.813365	 -1.033930	 -0.416685	 -0.156452	 0.732766	 -0.491610	 0.443729	 2
1463630538.987	 13	 -2.118765	 4.406093	 1.576326	 1.882664	 -1.013617	 -0.384040	 -0.145628	 0.748277	 -0.483378	 0.430371	 2
1463630538.997	 13	 -1.795841	 5.136517	 1.674069	 1.945986	 -0.995723	 -0.366126	 -0.132081	 0.763027	 -0.478154	 0.414384	 2
1463630539.007	 13	 -1.389722	 5.181746	 1.769001	 2.007775	 -0.974124	 -0.354467	 -0.115977	 0.778105	 -0.472302	 0.397534	 2
1463630539.017	 13	 -1.126081	 4.387717	 1.649544	 2.058319	 -0.953887	 -0.349242	 -0.100813	 0.790782	 -0.466948	 0.382701	 2
1463630539.027	 13	 -1.267893	 2.829956	 1.651204	 2.094553	 -0.933714	 -0.344876	 -0.088972	 0.800523	 -0.460620	 0.372928	 2
1463630539.037	 13	 -1.720195	 0.787425	 1.706476	 2.114309	 -0.910959	 -0.336479	 -0.082119	 0.807316	 -0.451608	 0.370875	 2
1463630539.047	 13	 -2.144236	 -1.022264	 1.614462	 2.119495	 -0.886225	 -0.322131	 -0.080615	 0.811424	 -0.439992	 0.376164	 2
1463630539.057	 13	 -2.330452	 -2.222719	 1.295841	 2.114658	 -0.862378	 -0.302835	 -0.083587	 0.813232	 -0.427200	 0.386221	 2
1463630539.067	 13	 -2.277779	 -2.946815	 0.908168	 2.103695	 -0.842076	 -0.280459	 -0.089948	 0.813058	 -0.414682	 0.398605	 2
1463630539.077	 13	 -2.136870	 -3.147333	 0.888023	 2.088089	 -0.823629	 -0.259065	 -0.097217	 0.811530	 -0.402623	 0.412144	 2
1463630539.087	 13	 -2.070089	 -2.663794	 1.005977	 2.074107	 -0.804951	 -0.239548	 -0.103203	 0.810254	 -0.390733	 0.424459	 2
1463630539.097	 13	 -2.058291	 -1.791285	 1.058755	 2.067230	 -0.785868	 -0.220877	 -0.107268	 0.810438	 -0.379067	 0.433581	 2
1463630539.107	 13	 -1.982570	 -0.871706	 1.028286	 2.068774	 -0.767135	 -0.203106	 -0.109459	 0.812373	 -0.368058	 0.438865	 2
1463630539.127	 14	 -1.497091	 -0.006113	 1.052363	 2.082525	 -0.732781	 -0.175474	 -0.109662	 0.818517	 -0.349318	 0.442698	 2
1463630539.137	 14	 -1.140179	 0.229745	 1.160158	 2.088818	 -0.716871	 -0.168611	 -0.107446	 0.821644	 -0.341860	 0.443271	 2
1463630539.147	 14	 -0.841999	 0.468869	 1.254639	 2.094350	 -0.701669	 -0.166324	 -0.103699	 0.824726	 -0.335609	 0.443216	 2
1463630539.157	 14	 -0.661695	 0.650512	 1.295259	 2.100159	 -0.686998	 -0.166856	 -0.098904	 0.827909	 -0.330167	 0.442465	 2
1463630539.167	 14	 -0.516500	 0.686049	 1.267681	 2.105608	 -0.673161	 -0.169060	 -0.093703	 0.830944	 -0.325370	 0.441460	 2
1463630539.177	 14	 -0.307766	 0.670946	 1.176199	 2.109987	 -0.660982	 -0.172903	 -0.088415	 0.833568	 -0.321517	 0.440425	 2
1463630539.187	 14	 -0.046957	 0.638429	 1.051063	 2.112906	 -0.651087	 -0.178705	 -0.083106	 0.835638	 -0.318927	 0.439418	 2
1463630539.197	 14	 0.229945	 0.633434	 0.914320	 2.114470	 -0.643810	 -0.186569	 -0.077788	 0.837147	 -0.317776	 0.438353	 2
1463630539.207	 14	 0.489112	 0.688282	 0.809195	 2.115250	 -0.638885	 -0.196501	 -0.072297	 0.838253	 -0.317989	 0.437021	 2
1463630539.217	 14	 0.726090	 0.776287	 0.720558	 2.115698	 -0.635993	 -0.208403	 -0.066523	 0.839089	 -0.319432	 0.435279	 2
1463630539.227	 14	 0.930097	 0.924696	 0.588008	 2.116638	 -0.635234	 -0.221776	 -0.060573	 0.839801	 -0.322058	 0.432831	 2
1463630539.237	 14	 1.099721	 1.040095	 0.436267	 2.118271	 -0.636682	 -0.236096	 -0.054651	 0.840409	 -0.325776	 0.429647	 2
1463630539.247	 14	 1.235959	 1.099148	 0.274700	 2.120290	 -0.640258	 -0.250926	 -0.048970	 0.840840	 -0.330436	 0.425914	 2
1463630539.257	 14	 1.335935	 1.168893	 0.106088	 2.122840	 -0.645857	 -0.265870	 -0.043647	 0.841127	 -0.335905	 0.421625	 2
1463630539.267	 14	 1.414527	 1.235465	 -0.068762	 2.126135	 -0.653408	 -0.280596	 -0.038763	 0.841316	 -0.342076	 0.416736	 2
1463630539.277	 14	 1.490709	 1.240381	 -0.239902	 2.129769	 -0.662856	 -0.295043	 -0.034398	 0.841323	 -0.348895	 0.411418	 2
1463630539.287	 14	 1.617470	 1.093186	 -0.392647	 2.132025	 -0.674260	 -0.309704	 -0.030659	 0.840797	 -0.356452	 0.406279	 2
1463630539.297	 14	 1.807970	 0.911530	 -0.578242	 2.131873	 -0.688089	 -0.325240	 -0.027592	 0.839495	 -0.365043	 0.401536	 2
1463630539.307	 14	 2.047450	 0.538842	 -0.833183	 2.127681	 -0.705093	 -0.341874	 -0.025636	 0.837018	 -0.374971	 0.397668	 2
1463630539.317	 14	 2.302699	 -0.107098	 -1.361508	 2.117056	 -0.727355	 -0.358783	 -0.026202	 0.832663	 -0.386816	 0.395423	 2
1463630539.327	 14	 1.952618	 -0.365224	 -1.603856	 2.104654	 -0.751493	 -0.372172	 -0.029224	 0.827677	 -0.398524	 0.394049	 2
1463630539.337	 14	 0.592539	 0.572316	 -1.498029	 2.106112	 -0.770023	 -0.373250	 -0.033225	 0.825833	 -0.405787	 0.390171	 2
1463630539.347	 14	 -0.833488	 1.268792	 -0.781057	 2.128154	 -0.775517	 -0.359501	 -0.035834	 0.829195	 -0.405599	 0.382937	 2
1463630539.357	 14	 -0.963313	 0.251543	 -0.014584	 2.142856	 -0.771867	 -0.346234	 -0.037468	 0.832208	 -0.401938	 0.380095	 2
1463630539.367	 14	 -0.424888	 -0.774503	 0.542429	 2.139951	 -0.765175	 -0.342606	 -0.037905	 0.832415	 -0.398612	 0.383089	 2
1463630539.377	 14	 0.161856	 -1.210861	 0.741084	 2.124602	 -0.759297	 -0.348247	 -0.037150	 0.830273	 -0.397152	 0.389278	 2
1463630539.387	 14	 0.362091	 -1.248013	 0.685706	 2.105963	 -0.755002	 -0.357301	 -0.036013	 0.827288	 -0.396945	 0.395894	 2
1463630539.397	 14	 0.206882	 -1.257903	 0.579324	 2.088388	 -0.751066	 -0.364571	 -0.035487	 0.824364	 -0.396586	 0.402348	 2
1463630539.407	 14	 -0.043311	 -1.083158	 0.521314	 2.074459	 -0.746530	 -0.368293	 -0.035532	 0.822117	 -0.395378	 0.408089	 2
1463630539.417	 14	 -0.125721	 -0.677711	 0.517278	 2.065180	 -0.741396	 -0.370221	 -0.035223	 0.820813	 -0.393676	 0.412365	 2
1463630539.427	 14	 0.063381	 -0.130937	 0.457840	 2.060476	 -0.737188	 -0.373270	 -0.033786	 0.820348	 -0.392643	 0.414391	 2
1463630539.437	 14	 0.392736	 0.325734	 0.350514	 2.058558	 -0.735302	 -0.379345	 -0.031172	 0.820250	 -0.393162	 0.414297	 2
1463630539.447	 14	 0.665393	 0.716961	 0.287846	 2.058728	 -0.735521	 -0.388449	 -0.027462	 0.820396	 -0.395128	 0.412396	 2
1463630539.457	 14	 0.688016	 0.891101	 0.403306	 2.060214	 -0.735642	 -0.399062	 -0.022846	 0.820822	 -0.397373	 0.409663	 2
1463630539.467	 14	 0.479696	 1.013286	 0.740906	 2.062941	 -0.732485	 -0.409606	 -0.017134	 0.821808	 -0.398374	 0.406985	 2
1463630539.477	 14	 0.198427	 0.858885	 1.042463	 2.065914	 -0.725127	 -0.419092	 -0.010684	 0.823216	 -0.397571	 0.405140	 2
1463630539.487	 14	 -0.168135	 0.333158	 0.999198	 2.066999	 -0.715681	 -0.424694	 -0.005649	 0.824383	 -0.395176	 0.405211	 2
1463630539.497	 14	 -0.423731	 -0.005228	 0.727571	 2.067017	 -0.706845	 -0.425420	 -0.002995	 0.825233	 -0.392012	 0.406581	 2
1463630539.507	 14	 -0.320288	 -0.267889	 0.483364	 2.065777	 -0.700379	 -0.424462	 -0.001912	 0.825587	 -0.389387	 0.408387	 2
1463630539.517	 14	 -0.058114	 -0.418858	 0.304891	 2.060992	 -0.696725	 -0.425358	 -0.001498	 0.824946	 -0.388194	 0.410812	 2
1463630539.527	 14	 -0.222311	 0.361873	 -0.048774	 2.062978	 -0.695558	 -0.423939	 -0.001387	 0.825461	 -0.387466	 0.410467	 2
1463630539.537	 14	 -0.625999	 1.328971	 -0.466827	 2.079509	 -0.696264	 -0.415676	 -0.001794	 0.828759	 -0.386061	 0.405109	 2
1463630539.547	 14	 -0.964693	 1.507442	 -0.779815	 2.104053	 -0.698003	 -0.401034	 -0.003608	 0.833495	 -0.383818	 0.397438	 2
1463630539.557	 14	 -1.185226	 1.057952	 -0.957928	 2.128235	 -0.699962	 -0.382065	 -0.007411	 0.838008	 -0.380902	 0.390642	 2
1463630539.567	 14	 -1.109149	 0.231197	 -0.972678	 2.145475	 -0.702060	 -0.362449	 -0.012900	 0.841037	 -0.377994	 0.386796	 2
1463630539.577	 14	 -0.761269	 -0.748791	 -0.887842	 2.150734	 -0.704996	 -0.346518	 -0.019334	 0.841604	 -0.376103	 0.387136	 2
1463630539.587	 14	 -0.317722	 -1.590726	 -0.794028	 2.143668	 -0.709473	 -0.335895	 -0.026230	 0.839606	 -0.375711	 0.391425	 2
1463630539.597	 14	 0.208828	 -2.116099	 -0.867447	 2.126917	 -0.716842	 -0.330882	 -0.033312	 0.835390	 -0.377353	 0.398270	 2
1463630539.607	 14	 0.717863	 -2.282981	 -0.940575	 2.103985	 -0.727937	 -0.331205	 -0.040321	 0.829520	 -0.381297	 0.406060	 2
1463630539.617	 14	 1.204578	 -2.012361	 -0.973202	 2.078884	 -0.741546	 -0.337409	 -0.046071	 0.822957	 -0.387239	 0.413115	 2
1463630539.627	 14	 1.753303	 -1.913426	 -1.042070	 2.051002	 -0.758216	 -0.350237	 -0.050639	 0.815563	 -0.395529	 0.419345	 2
1463630539.637	 14	 2.094740	 -2.044059	 -1.170953	 2.018279	 -0.777446	 -0.368435	 -0.054970	 0.806952	 -0.405634	 0.425756	 2
1463630539.647	 14	 2.128658	 -2.179384	 -1.337701	 1.982797	 -0.798115	 -0.388275	 -0.059992	 0.797601	 -0.416356	 0.432297	 2
1463630539.657	 14	 2.029011	 -2.362074	 -1.489871	 1.945518	 -0.819413	 -0.407761	 -0.066147	 0.787753	 -0.426948	 0.439074	 2
1463630539.667	 14	 1.849923	 -2.442219	 -1.613752	 1.907755	 -0.840910	 -0.425968	 -0.073408	 0.777713	 -0.437048	 0.445829	 2
1463630539.677	 14	 1.566678	 -2.290521	 -1.636518	 1.872405	 -0.861602	 -0.441805	 -0.081228	 0.768197	 -0.446156	 0.451906	 2
1463630539.687	 14	 1.243343	 -1.887071	 -1.573463	 1.842660	 -0.880627	 -0.454527	 -0.088810	 0.759996	 -0.453982	 0.456530	 2
1463630539.697	 14	 0.971146	 -1.307996	 -1.471918	 1.820514	 -0.897753	 -0.464243	 -0.095448	 0.753602	 -0.460645	 0.459107	 2
1463630539.707	 14	 0.811319	 -0.642206	 -1.393991	 1.806258	 -0.913478	 -0.472050	 -0.100688	 0.749088	 -0.466663	 0.459299	 2
1463630539.717	 14	 0.750680	 0.029515	 -1.338187	 1.799277	 -0.928371	 -0.479131	 -0.104314	 0.746304	 -0.472527	 0.457019	 2
1463630539.727	 14	 0.786488	 0.568988	 -1.292980	 1.797487	 -0.942809	 -0.486855	 -0.106363	 0.744789	 -0.478603	 0.452676	 2
1463630539.747	 15	 1.031743	 1.141048	 -1.216254	 1.799211	 -0.971282	 -0.508635	 -0.106727	 0.743297	 -0.492141	 0.440359	 2
1463630539.757	 15	 1.159288	 1.218655	 -1.169749	 1.798944	 -0.985351	 -0.523521	 -0.105658	 0.742512	 -0.499555	 0.433539	 2
1463630539.767	 15	 1.240456	 1.187952	 -1.117454	 1.796592	 -0.999130	 -0.540679	 -0.104199	 0.741422	 -0.507161	 0.426877	 2
1463630539.777	 15	 1.268813	 1.024648	 -1.038222	 1.791587	 -1.012261	 -0.559313	 -0.102703	 0.739920	 -0.514642	 0.420850	 2
1463630539.787	 15	 1.256027	 0.731744	 -0.953444	 1.783125	 -1.024484	 -0.578788	 -0.101561	 0.737854	 -0.521752	 0.415971	 2
1463630539.797	 15	 1.209644	 0.335718	 -0.875727	 1.770647	 -1.035749	 -0.598475	 -0.101170	 0.735103	 -0.528331	 0.412619	 2
1463630539.807	 15	 1.156528	 -0.119940	 -0.810230	 1.753692	 -1.046082	 -0.618070	 -0.101804	 0.731569	 -0.534315	 0.411035	 2
1463630539.817	 15	 1.117169	 -0.582175	 -0.766229	 1.731982	 -1.055661	 -0.637719	 -0.103573	 0.727190	 -0.539778	 0.411226	 2
1463630539.837	 16	 1.035109	 -1.300383	 -0.690134	 1.675955	 -1.072688	 -0.677361	 -0.110145	 0.716200	 -0.549294	 0.416175	 2
1463630539.847	 16	 1.006259	 -1.529019	 -0.696274	 1.643642	 -1.080486	 -0.697305	 -0.114568	 0.709937	 -0.553520	 0.420095	 2
1463630539.857	 16	 0.983000	 -1.683392	 -0.726283	 1.609222	 -1.088206	 -0.717581	 -0.119597	 0.703285	 -0.557566	 0.424507	 2
1463630539.867	 16	 0.913590	 -1.654798	 -0.771241	 1.574708	 -1.095990	 -0.737556	 -0.124950	 0.696622	 -0.561436	 0.428831	 2
1463630539.877	 16	 0.769482	 -1.400487	 -0.814513	 1.543889	 -1.103944	 -0.755586	 -0.130155	 0.690656	 -0.565032	 0.432196	 2
1463630539.887	 16	 0.600347	 -1.026937	 -0.852195	 1.519150	 -1.112112	 -0.770689	 -0.134845	 0.685849	 -0.568321	 0.434096	 2
1463630539.897	 16	 0.443630	 -0.721617	 -0.906606	 1.500309	 -1.120731	 -0.782889	 -0.139097	 0.682153	 -0.571369	 0.434577	 2
1463630539.907	 16	 0.299078	 -0.565125	 -0.945456	 1.485802	 -1.129806	 -0.792333	 -0.143270	 0.679232	 -0.574121	 0.434169	 2
1463630539.917	 16	 0.154393	 -0.449999	 -0.968704	 1.475076	 -1.139227	 -0.798882	 -0.147500	 0.676945	 -0.576508	 0.433161	 2
1463630539.927	 16	 0.022848	 -0.275255	 -0.978721	 1.468534	 -1.148903	 -0.802507	 -0.151626	 0.675358	 -0.578560	 0.431474	 2
1463630539.937	 16	 -0.035968	 -0.101482	 -0.946751	 1.465567	 -1.158467	 -0.804281	 -0.155310	 0.674413	 -0.580426	 0.429129	 2
1463630539.947	 16	 0.004925	 -0.059858	 -0.910484	 1.462821	 -1.167538	 -0.806488	 -0.158611	 0.673571	 -0.582288	 0.426715	 2
1463630539.957	 16	 0.073303	 -0.243225	 -0.941561	 1.457318	 -1.176748	 -0.810519	 -0.162156	 0.672286	 -0.584310	 0.424640	 2
1463630539.967	 16	 0.108531	 -0.707997	 -0.923811	 1.446253	 -1.185922	 -0.816264	 -0.166753	 0.669981	 -0.586186	 0.423916	 2
1463630539.977	 16	 0.028208	 -1.305835	 -0.822099	 1.430531	 -1.194277	 -0.820754	 -0.172867	 0.666644	 -0.587194	 0.425330	 2
1463630539.987	 16	 -0.140551	 -1.904218	 -0.684451	 1.412666	 -1.201551	 -0.821117	 -0.180611	 0.662543	 -0.586870	 0.428953	 2
1463630539.997	 16	 -0.373161	 -2.526340	 -0.472931	 1.394656	 -1.207308	 -0.815017	 -0.189981	 0.657843	 -0.584794	 0.434933	 2
1463630540.007	 16	 -0.705485	 -3.093304	 -0.175834	 1.379787	 -1.210944	 -0.799263	 -0.200792	 0.652883	 -0.580450	 0.443289	 2
1463630540.027	 17	 -1.643564	 -3.620154	 0.714145	 1.380130	 -1.208658	 -0.723769	 -0.224366	 0.645050	 -0.562964	 0.465448	 2
1463630540.037	 17	 -2.088594	 -3.412552	 1.001313	 1.400872	 -1.202874	 -0.664406	 -0.235638	 0.643477	 -0.550355	 0.476992	 2
1463630540.047	 17	 -2.617351	 -2.948464	 1.129601	 1.437256	 -1.195792	 -0.592296	 -0.246458	 0.644108	 -0.536019	 0.486896	 2
1463630540.057	 17	 -3.107303	 -2.168665	 1.248765	 1.491333	 -1.186860	 -0.508402	 -0.256169	 0.647697	 -0.520364	 0.494053	 2
1463630540.067	 17	 -3.297221	 -1.099641	 1.331772	 1.558695	 -1.175244	 -0.420654	 -0.263561	 0.654373	 -0.504650	 0.497654	 2
1463630540.077	 17	 -3.085217	 0.127592	 1.393569	 1.630251	 -1.160752	 -0.340881	 -0.267354	 0.663600	 -0.490577	 0.497484	 2
1463630540.087	 17	 -2.651347	 1.513043	 1.509259	 1.700584	 -1.143465	 -0.276502	 -0.266494	 0.675130	 -0.479198	 0.493508	 2
1463630540.097	 17	 -2.158231	 3.183863	 1.693167	 1.770470	 -1.123520	 -0.229651	 -0.259963	 0.689430	 -0.471000	 0.485041	 2
1463630540.107	 17	 -1.684954	 4.949391	 1.874924	 1.843729	 -1.102033	 -0.198706	 -0.247511	 0.706844	 -0.466145	 0.470975	 2
1463630540.117	 17	 -1.282966	 6.093869	 2.041938	 1.915859	 -1.078820	 -0.183433	 -0.229924	 0.725965	 -0.463587	 0.452986	 2
1463630540.127	 17	 -0.948547	 6.432812	 2.275582	 1.982374	 -1.054510	 -0.180553	 -0.209273	 0.744949	 -0.461942	 0.433434	 2
1463630540.137	 17	 -0.719527	 5.870556	 2.568901	 2.036797	 -1.028664	 -0.187832	 -0.187503	 0.762075	 -0.459781	 0.415555	 2
1463630540.147	 17	 -0.695407	 4.534527	 2.706531	 2.075317	 -1.001683	 -0.200169	 -0.167335	 0.776044	 -0.456001	 0.402267	 2
1463630540.157	 17	 -0.911405	 2.986527	 2.557590	 2.100674	 -0.974831	 -0.210294	 -0.151158	 0.786766	 -0.450200	 0.394296	 2
1463630540.167	 17	 -1.261086	 1.267740	 2.270739	 2.114804	 -0.948683	 -0.213792	 -0.140371	 0.794420	 -0.442214	 0.391969	 2
1463630540.177	 17	 -1.673728	 -0.394971	 1.917816	 2.118976	 -0.923357	 -0.208759	 -0.135430	 0.799261	 -0.432011	 0.395230	 2
1463630540.187	 17	 -1.880677	 -1.711135	 1.621747	 2.113894	 -0.899333	 -0.197282	 -0.135376	 0.801517	 -0.420287	 0.403241	 2
1463630540.197	 17	 -1.799896	 -2.574904	 1.491509	 2.099912	 -0.876916	 -0.184511	 -0.138008	 0.801474	 -0.408190	 0.414698	 2
1463630540.207	 17	 -1.571354	 -2.734325	 1.453931	 2.080592	 -0.856182	 -0.173876	 -0.141114	 0.799991	 -0.396691	 0.427477	 2
1463630540.217	 17	 -1.378245	 -2.308251	 1.472201	 2.062282	 -0.836484	 -0.165673	 -0.143118	 0.798520	 -0.386091	 0.439109	 2
1463630540.227	 17	 -1.257847	 -1.419645	 1.442119	 2.050707	 -0.817640	 -0.158903	 -0.143325	 0.798340	 -0.376555	 0.447568	 2
1463630540.237	 17	 -1.166632	 -0.599111	 1.399936	 2.047002	 -0.799652	 -0.153020	 -0.141847	 0.799766	 -0.368067	 0.452527	 2
1463630540.247	 17	 -1.091004	 0.143317	 1.287886	 2.050401	 -0.782802	 -0.147657	 -0.139139	 0.802623	 -0.360593	 0.454323	 2
1463630540.257	 17	 -1.016631	 0.609300	 1.188196	 2.059067	 -0.767296	 -0.142652	 -0.135720	 0.806478	 -0.354035	 0.453688	 2
1463630540.267	 17	 -0.877196	 0.769398	 1.174616	 2.068892	 -0.752611	 -0.139167	 -0.131750	 0.810555	 -0.348163	 0.452134	 2
1463630540.277	 17	 -0.667709	 0.822094	 1.192466	 2.077567	 -0.738739	 -0.138327	 -0.127160	 0.814400	 -0.343078	 0.450424	 2
1463630540.287	 17	 -0.450882	 0.854496	 1.201538	 2.084747	 -0.725796	 -0.140284	 -0.121950	 0.817917	 -0.338846	 0.448692	 2
1463630540.297	 17	 -0.248202	 0.891717	 1.136174	 2.090762	 -0.714244	 -0.144480	 -0.116380	 0.821074	 -0.335556	 0.446873	 2
1463630540.307	 17	 -0.077039	 0.898468	 0.963158	 2.096437	 -0.704920	 -0.149752	 -0.110978	 0.823877	 -0.333338	 0.444743	 2
1463630540.317	 17	 0.096635	 0.781639	 0.763393	 2.100729	 -0.698119	 -0.155733	 -0.106134	 0.826042	 -0.332181	 0.442770	 2
1463630540.327	 17	 0.232920	 0.708085	 0.502542	 2.104135	 -0.694212	 -0.161727	 -0.102135	 0.827611	 -0.332120	 0.440822	 2
1463630540.337	 17	 0.392509	 0.625711	 0.208367	 2.106873	 -0.693567	 -0.167532	 -0.099119	 0.828588	 -0.333277	 0.438799	 2
1463630540.347	 17	 0.573286	 0.500812	 -0.074665	 2.108480	 -0.696323	 -0.173383	 -0.097098	 0.828875	 -0.335738	 0.436827	 2
1463630540.357	 17	 0.757468	 0.382601	 -0.313968	 2.108535	 -0.702158	 -0.179656	 -0.095915	 0.828443	 -0.339439	 0.435044	 2
1463630540.367	 17	 0.920698	 0.351629	 -0.558671	 2.107765	 -0.710934	 -0.186283	 -0.095449	 0.827465	 -0.344337	 0.433156	 2
1463630540.377	 17	 1.059508	 0.377898	 -0.839930	 2.107168	 -0.722772	 -0.192776	 -0.095767	 0.826108	 -0.350410	 0.430797	 2
1463630540.387	 17	 1.210210	 0.461354	 -1.150603	 2.107459	 -0.737964	 -0.198931	 -0.096897	 0.824464	 -0.357752	 0.427650	 2
1463630540.397	 17	 1.381033	 0.509671	 -1.458580	 2.108405	 -0.756686	 -0.204915	 -0.098846	 0.822436	 -0.366440	 0.423734	 2
1463630540.407	 17	 1.609298	 0.495268	 -1.738866	 2.108908	 -0.778957	 -0.211475	 -0.101507	 0.819793	 -0.376563	 0.419327	 2
1463630540.417	 17	 1.901089	 0.318426	 -1.953007	 2.106634	 -0.804679	 -0.219911	 -0.104786	 0.816099	 -0.388198	 0.415097	 2
1463630540.427	 17	 2.146060	 0.076589	 -2.055440	 2.099782	 -0.832840	 -0.231173	 -0.108472	 0.811169	 -0.400991	 0.411637	 2
1463630540.437	 17	 2.101548	 -0.100758	 -2.035388	 2.089777	 -0.861294	 -0.243639	 -0.112509	 0.805544	 -0.413804	 0.408909	 2
1463630540.447	 17	 1.576898	 0.077427	 -1.876758	 2.082894	 -0.886665	 -0.252538	 -0.116694	 0.800765	 -0.424741	 0.405897	 2
1463630540.457	 17	 -0.184276	 1.474460	 -1.199367	 2.098905	 -0.900691	 -0.245774	 -0.119457	 0.801379	 -0.429567	 0.398741	 2
1463630540.467	 17	 -0.922241	 1.253660	 -0.265651	 2.125265	 -0.900480	 -0.230280	 -0.119980	 0.805694	 -0.428004	 0.391504	 2
1463630540.477	 17	 -0.601550	 0.522055	 0.471848	 2.137855	 -0.894141	 -0.222973	 -0.118736	 0.808753	 -0.424922	 0.388924	 2
1463630540.487	 17	 0.117381	 0.221793	 1.010596	 2.135289	 -0.886216	 -0.229704	 -0.114675	 0.809938	 -0.423060	 0.389706	 2
1463630540.497	 17	 0.639034	 0.064906	 1.147407	 2.123607	 -0.879397	 -0.246347	 -0.108772	 0.809672	 -0.423067	 0.391937	 2
1463630540.507	 17	 0.747921	 -0.492662	 1.012313	 2.106145	 -0.874224	 -0.264813	 -0.103739	 0.808016	 -0.423821	 0.395884	 2
1463630540.517	 17	 0.581511	 -1.242164	 0.845857	 2.083758	 -0.869733	 -0.280235	 -0.101145	 0.805014	 -0.424070	 0.402352	 2
1463630540.527	 17	 0.376941	 -1.744506	 0.719336	 2.058674	 -0.865231	 -0.291496	 -0.100791	 0.801140	 -0.423423	 0.410766	 2
1463630540.537	 17	 0.322823	 -1.649940	 0.684451	 2.034518	 -0.860565	 -0.300781	 -0.100975	 0.797257	 -0.422416	 0.419225	 2
1463630540.547	 17	 0.481886	 -1.145546	 0.635537	 2.013878	 -0.856607	 -0.311048	 -0.100199	 0.793958	 -0.422106	 0.425932	 2
1463630540.557	 17	 0.672773	 -0.453008	 0.583834	 1.998056	 -0.853880	 -0.323660	 -0.097809	 0.791562	 -0.423037	 0.430004	 2
1463630540.567	 17	 0.560120	 0.094054	 0.588840	 1.988740	 -0.851106	 -0.335753	 -0.094244	 0.790498	 -0.424199	 0.431609	 2
1463630540.577	 17	 0.139918	 0.206311	 0.791775	 1.984772	 -0.845511	 -0.343757	 -0.090386	 0.790726	 -0.423746	 0.432461	 2
1463630540.587	 17	 -0.282452	 0.089859	 0.989403	 1.983653	 -0.835987	 -0.346833	 -0.086783	 0.791814	 -0.420959	 0.433927	 2
1463630540.597	 17	 -0.380446	 0.094701	 1.030800	 1.983919	 -0.825038	 -0.347920	 -0.083278	 0.793265	 -0.417286	 0.435508	 2
1463630540.607	 17	 -0.276415	 -0.099406	 0.853303	 1.982582	 -0.815443	 -0.349029	 -0.080467	 0.794178	 -0.414028	 0.437478	 2
1463630540.617	 17	 0.126476	 -0.250004	 0.636307	 1.977691	 -0.809177	 -0.352982	 -0.078172	 0.794006	 -0.412450	 0.439692	 2
1463630540.627	 17	 0.643429	 -0.469703	 0.469898	 1.966036	 -0.806527	 -0.363099	 -0.075827	 0.792131	 -0.413285	 0.442689	 2
1463630540.637	 17	 0.306076	 0.059183	 0.078095	 1.959553	 -0.806473	 -0.370269	 -0.074316	 0.790970	 -0.414612	 0.443780	 2
1463630540.647	 17	 -0.510864	 1.093455	 -0.483876	 1.972367	 -0.808417	 -0.364073	 -0.074660	 0.793347	 -0.414413	 0.439645	 2
1463630540.657	 17	 -0.783853	 1.622760	 -0.792040	 1.998159	 -0.812143	 -0.349770	 -0.076041	 0.797988	 -0.413609	 0.431695	 2
1463630540.667	 17	 -0.768935	 1.476271	 -0.892649	 2.024916	 -0.816685	 -0.334162	 -0.077987	 0.802549	 -0.412956	 0.423440	 2
1463630540.677	 17	 -0.774964	 0.817542	 -1.090563	 2.047541	 -0.822442	 -0.317143	 -0.081688	 0.805884	 -0.412404	 0.416895	 2
1463630540.687	 17	 -0.495104	 -0.195314	 -1.165305	 2.059727	 -0.829983	 -0.301489	 -0.087452	 0.806749	 -0.412466	 0.413981	 2
1463630540.697	 17	 0.013031	 -1.138539	 -1.079390	 2.057349	 -0.839187	 -0.292211	 -0.094061	 0.804575	 -0.413858	 0.415372	 2
1463630540.707	 17	 0.500030	 -1.580783	 -0.999287	 2.043701	 -0.849930	 -0.290308	 -0.100448	 0.800140	 -0.416775	 0.419504	 2
1463630540.717	 17	 0.906593	 -1.564096	 -1.027184	 2.024753	 -0.862624	 -0.294416	 -0.106110	 0.794581	 -0.421321	 0.424111	 2
1463630540.727	 17	 1.354310	 -1.404082	 -1.074356	 2.002619	 -0.877476	 -0.304711	 -0.110688	 0.788345	 -0.427693	 0.428182	 2
1463630540.737	 17	 1.888408	 -1.397161	 -1.223885	 1.974987	 -0.895368	 -0.322432	 -0.114558	 0.780910	 -0.436315	 0.432071	 2
1463630540.747	 17	 2.374781	 -1.531744	 -1.398829	 1.939798	 -0.916483	 -0.348135	 -0.118216	 0.771870	 -0.447183	 0.436197	 2
1463630540.757	 17	 2.539889	 -1.725577	 -1.513975	 1.898142	 -0.939081	 -0.379260	 -0.122175	 0.761584	 -0.459119	 0.440764	 2
1463630540.767	 17	 2.254656	 -1.952885	 -1.587144	 1.854456	 -0.961162	 -0.409711	 -0.127302	 0.750944	 -0.470324	 0.445728	 2
1463630540.777	 17	 1.635509	 -2.208542	 -1.597987	 1.813647	 -0.981304	 -0.433168	 -0.134320	 0.740812	 -0.479230	 0.451104	 2
1463630540.787	 17	 0.969146	 -2.371908	 -1.514839	 1.778847	 -0.998813	 -0.446927	 -0.143040	 0.731740	 -0.485255	 0.456753	 2
1463630540.797	 17	 0.560164	 -2.236373	 -1.470584	 1.750437	 -1.014562	 -0.453332	 -0.152558	 0.723807	 -0.489281	 0.461990	 2
1463630540.807	 17	 0.484435	 -1.817787	 -1.420201	 1.727162	 -1.029508	 -0.457905	 -0.161353	 0.716997	 -0.492833	 0.465828	 2
1463630540.817	 17	 0.618650	 -1.232847	 -1.372231	 1.707069	 -1.044030	 -0.465173	 -0.168366	 0.711198	 -0.496983	 0.467823	 2
1463630540.827	 17	 0.821033	 -0.653615	 -1.350485	 1.688716	 -1.058411	 -0.477127	 -0.173343	 0.706251	 -0.502195	 0.467933	 2
1463630540.837	 17	 1.003349	 -0.202421	 -1.392636	 1.671157	 -1.073178	 -0.493730	 -0.176727	 0.701912	 -0.508532	 0.466351	 2
1463630540.847	 17	 1.120795	 0.062900	 -1.425294	 1.653175	 -1.088314	 -0.514190	 -0.179124	 0.697857	 -0.515677	 0.463668	 2
1463630540.857	 17	 1.159504	 0.123421	 -1.424002	 1.634037	 -1.103364	 -0.537091	 -0.181096	 0.693861	 -0.523095	 0.460579	 2
1463630540.867	 17	 1.138679	 0.004382	 -1.420665	 1.612851	 -1.118166	 -0.561181	 -0.183278	 0.689639	 -0.530359	 0.457740	 2
1463630540.877	 17	 1.086775	 -0.177019	 -1.376074	 1.589385	 -1.132405	 -0.585740	 -0.185893	 0.685120	 -0.537198	 0.455492	 2
1463630540.887	 17	 1.032886	 -0.362360	 -1.288871	 1.563704	 -1.145590	 -0.610527	 -0.188853	 0.680347	 -0.543453	 0.454007	 2
1463630540.897	 17	 0.999352	 -0.545511	 -1.184773	 1.535566	 -1.157490	 -0.635865	 -0.192041	 0.675312	 -0.549135	 0.453348	 2
1463630540.907	 17	 0.990306	 -0.739380	 -1.082053	 1.504475	 -1.168039	 -0.662213	 -0.195422	 0.669942	 -0.554306	 0.453577	 2
1463630540.917	 17	 0.984453	 -0.917457	 -1.000530	 1.470240	 -1.177369	 -0.689814	 -0.199022	 0.664190	 -0.559050	 0.454649	 2
1463630540.927	 17	 0.923951	 -1.128469	 -0.935889	 1.433896	 -1.185684	 -0.717480	 -0.203027	 0.658138	 -0.563254	 0.456485	 2
1463630540.937	 17	 0.780021	 -1.361723	 -0.892045	 1.397218	 -1.193318	 -0.742979	 -0.207778	 0.651921	 -0.566664	 0.459043	 2
1463630540.947	 17	 0.578552	 -1.549307	 -0.880313	 1.362066	 -1.200768	 -0.764555	 -0.213458	 0.645729	 -0.569156	 0.462094	 2
1463630540.957	 17	 0.384990	 -1.620125	 -0.897404	 1.329808	 -1.208502	 -0.781841	 -0.219920	 0.639798	 -0.570862	 0.465199	 2
1463630540.967	 17	 0.228372	 -1.548552	 -0.917756	 1.301171	 -1.216678	 -0.795648	 -0.226706	 0.634366	 -0.572074	 0.467884	 2
1463630540.977	 17	 0.128932	 -1.353701	 -0.928932	 1.276031	 -1.225159	 -0.807414	 -0.233313	 0.629565	 -0.573104	 0.469856	 2
1463630540.987	 17	 0.092946	 -1.075895	 -0.915376	 1.254088	 -1.233638	 -0.818495	 -0.239268	 0.625490	 -0.574219	 0.470942	 2
1463630540.997	 17	 0.096732	 -0.760778	 -0.874109	 1.234990	 -1.241735	 -0.829832	 -0.244225	 0.622181	 -0.575578	 0.471121	 2
1463630541.007	 17	 0.129307	 -0.475314	 -0.803527	 1.218054	 -1.249086	 -0.842027	 -0.248052	 0.619558	 -0.577223	 0.470565	 2
1463630541.017	 17	 0.174345	 -0.288577	 -0.702000	 1.202379	 -1.255330	 -0.855101	 -0.250865	 0.617413	 -0.579033	 0.469669	 2
1463630541.027	 17	 0.218919	 -0.220786	 -0.575998	 1.187181	 -1.260228	 -0.868662	 -0.252918	 0.615502	 -0.580816	 0.468874	 2
1463630541.037	 17	 0.233334	 -0.224063	 -0.435473	 1.172566	 -1.263700	 -0.881665	 -0.254468	 0.613704	 -0.582355	 0.468482	 2
1463630541.047	 17	 0.197798	 -0.187803	 -0.289882	 1.160439	 -1.265870	 -0.892266	 -0.255566	 0.612210	 -0.583497	 0.468419	 2
1463630541.057	 17	 0.191107	 -0.097792	 -0.200528	 1.150847	 -1.267093	 -0.900987	 -0.256157	 0.611080	 -0.584424	 0.468416	 2
1463630541.067	 17	 0.210999	 0.041530	 -0.194076	 1.142664	 -1.268082	 -0.909879	 -0.256206	 0.610307	 -0.585544	 0.467998	 2
1463630541.077	 17	 0.256332	 -0.178947	 -0.071828	 1.132935	 -1.268023	 -0.918969	 -0.256263	 0.609194	 -0.586420	 0.468320	 2
1463630541.087	 17	 0.175043	 -0.570088	 0.078709	 1.122920	 -1.266776	 -0.924651	 -0.257003	 0.607561	 -0.586366	 0.470099	 2
1463630541.097	 17	 -0.134345	 -1.165520	 0.273029	 1.117102	 -1.264959	 -0.920204	 -0.259371	 0.605594	 -0.584420	 0.473746	 2
1463630541.107	 17	 -0.660944	 -1.895280	 0.482910	 1.120737	 -1.263358	 -0.898448	 -0.264289	 0.603597	 -0.579579	 0.479489	 2
1463630541.117	 17	 -1.195959	 -2.338146	 0.650772	 1.136787	 -1.262417	 -0.857888	 -0.271540	 0.602038	 -0.571849	 0.486626	 2
1463630541.127	 17	 -1.488443	 -2.300699	 0.856161	 1.164605	 -1.260965	 -0.804182	 -0.279267	 0.601478	 -0.562366	 0.493942	 2
1463630541.137	 17	 -1.581463	 -2.056446	 1.059608	 1.200294	 -1.257514	 -0.744449	 -0.286009	 0.602001	 -0.552151	 0.500922	 2
1463630541.147	 17	 -1.724182	 -1.889079	 1.200957	 1.241518	 -1.252300	 -0.680822	 -0.291987	 0.603420	 -0.541369	 0.507492	 2
1463630541.157	 17	 -1.996754	 -1.646896	 1.339869	 1.291128	 -1.245627	 -0.610438	 -0.297550	 0.606112	 -0.529696	 0.513337	 2
1463630541.167	 17	 -2.271186	 -1.324069	 1.451839	 1.349954	 -1.237242	 -0.533403	 -0.302576	 0.610400	 -0.517192	 0.518046	 2
1463630541.178	 17	 -2.464817	 -0.826100	 1.547683	 1.415922	 -1.226820	 -0.453194	 -0.306682	 0.616389	 -0.504332	 0.521210	 2
1463630541.188	 17	 -2.537094	 -0.150999	 1.624935	 1.486642	 -1.213871	 -0.374455	 -0.309103	 0.624317	 -0.491796	 0.522322	 2
1463630541.197	 17	 -2.389375	 0.603889	 1.646659	 1.556794	 -1.198643	 -0.303758	 -0.309309	 0.633863	 -0.480458	 0.521254	 2
1463630541.208	 17	 -2.010381	 1.506067	 1.685859	 1.621720	 -1.181570	 -0.247509	 -0.306466	 0.644776	 -0.471301	 0.517897	 2
1463630541.218	 17	 -1.389202	 2.491609	 1.878261	 1.677662	 -1.162214	 -0.211195	 -0.299303	 0.656968	 -0.464949	 0.512478	 2
1463630541.228	 17	 -0.681274	 3.256187	 2.142455	 1.721575	 -1.140568	 -0.196940	 -0.287449	 0.669849	 -0.461373	 0.505777	 2
1463630541.238	 17	 -0.138974	 3.693078	 2.473251	 1.754590	 -1.116614	 -0.200306	 -0.271723	 0.682831	 -0.459553	 0.498718	 2
1463630541.248	 17	 0.103685	 3.719307	 2.814558	 1.780165	 -1.089951	 -0.213544	 -0.253574	 0.695533	 -0.457918	 0.492183	 2
1463630541.258	 17	 0.063464	 3.385922	 3.026024	 1.801344	 -1.061031	 -0.229097	 -0.234928	 0.707504	 -0.455190	 0.486877	 2
1463630541.268	 17	 -0.262480	 2.791655	 3.080883	 1.820891	 -1.030778	 -0.240613	 -0.217667	 0.718503	 -0.450501	 0.483140	 2
1463630541.278	 17	 -0.870326	 2.067317	 2.979254	 1.841836	 -0.999839	 -0.242393	 -0.203449	 0.728667	 -0.443045	 0.481004	 2
1463630541.288	 17	 -1.397474	 1.511607	 2.843321	 1.864670	 -0.968672	 -0.234575	 -0.192425	 0.738244	 -0.433049	 0.480039	 2
1463630541.298	 17	 -1.588085	 1.172655	 2.813051	 1.886189	 -0.937105	 -0.223516	 -0.183023	 0.747220	 -0.421670	 0.479957	 2
1463630541.308	 17	 -1.601300	 0.947515	 2.708757	 1.904702	 -0.905996	 -0.212812	 -0.174502	 0.755407	 -0.409947	 0.480472	 2
1463630541.318	 17	 -1.509961	 0.774743	 2.534767	 1.920063	 -0.876578	 -0.203508	 -0.166778	 0.762663	 -0.398615	 0.481286	 2
1463630541.328	 17	 -1.435209	 0.927345	 2.634652	 1.934159	 -0.847132	 -0.196456	 -0.158611	 0.769747	 -0.387483	 0.481860	 2
1463630541.338	 17	 -1.239170	 1.057831	 2.667198	 1.947126	 -0.817567	 -0.192828	 -0.149453	 0.776757	 -0.376834	 0.481984	 2
1463630541.348	 17	 -0.930894	 1.106243	 2.574374	 1.957812	 -0.789644	 -0.193258	 -0.139697	 0.783171	 -0.367409	 0.481807	 2
1463630541.358	 17	 -0.633680	 1.122344	 2.421664	 1.966171	 -0.764207	 -0.197301	 -0.129683	 0.788803	 -0.359471	 0.481407	 2
1463630541.368	 17	 -0.409363	 1.105373	 2.225584	 1.973010	 -0.741432	 -0.203598	 -0.119798	 0.793724	 -0.352865	 0.480766	 2
1463630541.388	 18	 -0.160098	 1.089402	 1.591268	 1.986076	 -0.705324	 -0.217443	 -0.102223	 0.801962	 -0.343241	 0.478115	 2
1463630541.398	 18	 -0.141841	 1.037177	 1.144069	 1.993569	 -0.693373	 -0.222360	 -0.095739	 0.805363	 -0.340227	 0.475888	 2
1463630541.408	 18	 -0.106499	 0.868924	 0.837387	 2.000470	 -0.684614	 -0.225806	 -0.090822	 0.808148	 -0.338013	 0.473703	 2
1463630541.418	 18	 0.019103	 0.740546	 0.638999	 2.005928	 -0.678347	 -0.229275	 -0.086816	 0.810288	 -0.336667	 0.471753	 2
1463630541.428	 18	 0.186855	 0.691041	 0.480411	 2.010077	 -0.674274	 -0.233818	 -0.083185	 0.811905	 -0.336345	 0.469854	 2
1463630541.438	 18	 0.317714	 0.726834	 0.335726	 2.013871	 -0.672116	 -0.239132	 -0.079811	 0.813245	 -0.336914	 0.467709	 2
1463630541.448	 18	 0.413159	 0.804552	 0.091559	 2.018326	 -0.672381	 -0.244564	 -0.076919	 0.814468	 -0.338457	 0.464943	 2
1463630541.458	 18	 0.465926	 0.889798	 -0.159622	 2.024128	 -0.675261	 -0.249199	 -0.074811	 0.815676	 -0.340862	 0.461399	 2
1463630541.468	 18	 0.580550	 0.923118	 -0.358542	 2.030501	 -0.680447	 -0.253735	 -0.073243	 0.816744	 -0.344142	 0.457308	 2
1463630541.478	 18	 0.742595	 0.837101	 -0.567511	 2.035899	 -0.688162	 -0.258881	 -0.072243	 0.817313	 -0.348487	 0.453141	 2
1463630541.488	 18	 0.907099	 0.648499	 -0.841402	 2.039352	 -0.698948	 -0.264456	 -0.072199	 0.817093	 -0.354026	 0.449235	 2
1463630541.498	 18	 1.031453	 0.344923	 -1.145855	 2.040084	 -0.712997	 -0.269853	 -0.073560	 0.815862	 -0.360657	 0.445964	 2
1463630541.508	 18	 1.134318	 0.014781	 -1.455696	 2.037888	 -0.730340	 -0.274722	 -0.076541	 0.813550	 -0.368287	 0.443444	 2
1463630541.518	 18	 1.250786	 -0.372834	 -1.765125	 2.032081	 -0.750869	 -0.279250	 -0.081202	 0.810007	 -0.376853	 0.441901	 2
1463630541.528	 18	 1.411336	 -0.700928	 -2.062661	 2.022445	 -0.774796	 -0.284132	 -0.087413	 0.805167	 -0.386526	 0.441206	 2
1463630541.538	 18	 1.382550	 -0.810289	 -2.194517	 2.010935	 -0.800535	 -0.288929	 -0.094611	 0.799617	 -0.396634	 0.440842	 2
1463630541.548	 18	 0.843868	 -0.220387	 -2.027670	 2.006368	 -0.823737	 -0.289392	 -0.101559	 0.795633	 -0.405057	 0.438842	 2
1463630541.558	 18	 -0.161422	 1.173084	 -1.534883	 2.021177	 -0.839479	 -0.280249	 -0.106373	 0.796270	 -0.409618	 0.432264	 2
1463630541.568	 18	 -0.768396	 1.458278	 -0.734018	 2.047654	 -0.844777	 -0.264878	 -0.108469	 0.800372	 -0.409710	 0.424000	 2
1463630541.578	 18	 -0.799645	 1.051670	 -0.056507	 2.068245	 -0.842877	 -0.252528	 -0.108731	 0.804312	 -0.407516	 0.418558	 2
1463630541.588	 18	 -0.388483	 0.487032	 0.421712	 2.078019	 -0.837629	 -0.247982	 -0.107251	 0.806868	 -0.405117	 0.416342	 2
1463630541.598	 18	 0.307641	 0.136728	 0.651122	 2.075514	 -0.832911	 -0.254079	 -0.104108	 0.807349	 -0.404472	 0.416834	 2
1463630541.608	 18	 0.851837	 -0.141079	 0.696021	 2.064251	 -0.830385	 -0.268619	 -0.099884	 0.806096	 -0.405985	 0.418819	 2
1463630541.618	 18	 0.925809	 -0.733849	 0.679204	 2.045932	 -0.828691	 -0.285634	 -0.096328	 0.803309	 -0.408034	 0.422994	 2
1463630541.628	 18	 0.655472	 -1.237387	 0.654491	 2.024283	 -0.826099	 -0.299698	 -0.094433	 0.799715	 -0.409039	 0.429215	 2
1463630541.638	 18	 0.379908	 -1.335074	 0.712466	 2.003477	 -0.821727	 -0.309876	 -0.093454	 0.796261	 -0.408662	 0.436155	 2
1463630541.648	 18	 0.318258	 -1.155356	 0.829778	 1.984655	 -0.815774	 -0.319013	 -0.092045	 0.793299	 -0.407632	 0.442764	 2
1463630541.658	 18	 0.316125	 -0.784507	 0.927034	 1.968926	 -0.808718	 -0.328511	 -0.089537	 0.791088	 -0.406486	 0.448254	 2
1463630541.668	 18	 0.156096	 -0.384645	 1.001423	 1.958164	 -0.800476	 -0.336649	 -0.086203	 0.789997	 -0.404884	 0.452263	 2
1463630541.678	 18	 -0.030374	 0.187439	 1.200207	 1.953990	 -0.789906	 -0.342915	 -0.081600	 0.790527	 -0.402339	 0.454458	 2
1463630541.688	 18	 -0.051089	 0.682856	 1.307311	 1.955519	 -0.777667	 -0.349033	 -0.075423	 0.792479	 -0.399396	 0.454721	 2
1463630541.698	 18	 -0.082101	 0.855768	 1.085380	 1.960144	 -0.766684	 -0.354277	 -0.069327	 0.794912	 -0.396800	 0.453717	 2
1463630541.708	 18	 0.012737	 0.587738	 0.830540	 1.964287	 -0.758363	 -0.358497	 -0.064486	 0.796878	 -0.394888	 0.452649	 2
1463630541.718	 18	 0.487238	 -0.717738	 0.670383	 1.955151	 -0.753197	 -0.366857	 -0.061503	 0.795604	 -0.394633	 0.455518	 2
1463630541.728	 18	 0.171374	 -1.558466	 0.330661	 1.936114	 -0.750404	 -0.373358	 -0.061882	 0.791718	 -0.394536	 0.462271	 2
1463630541.738	 18	 -1.086042	 -0.486570	 -0.207942	 1.934572	 -0.748315	 -0.363241	 -0.065589	 0.791247	 -0.391393	 0.465229	 2
1463630541.748	 18	 -1.535676	 0.950518	 -0.661722	 1.955697	 -0.748177	 -0.341286	 -0.070148	 0.795409	 -0.386976	 0.461144	 2
1463630541.758	 18	 -1.253937	 1.615632	 -0.645196	 1.984613	 -0.749153	 -0.320920	 -0.072978	 0.801186	 -0.383711	 0.453367	 2
1463630541.768	 18	 -0.911331	 1.476571	 -0.469360	 2.010698	 -0.749716	 -0.305540	 -0.074323	 0.806419	 -0.381423	 0.445736	 2
1463630541.778	 18	 -0.324211	 0.701690	 -0.311160	 2.025328	 -0.750623	 -0.297455	 -0.075046	 0.809256	 -0.380516	 0.441225	 2
1463630541.788	 18	 0.479506	 -0.157027	 -0.332543	 2.024931	 -0.754725	 -0.298943	 -0.075613	 0.808743	 -0.382370	 0.440467	 2
1463630541.798	 18	 1.087762	 -0.956428	 -0.466775	 2.010754	 -0.762699	 -0.308311	 -0.076700	 0.805031	 -0.386879	 0.443133	 2
1463630541.808	 18	 1.355729	 -1.467933	 -0.639061	 1.988120	 -0.773578	 -0.321346	 -0.078846	 0.799229	 -0.392920	 0.447916	 2
1463630541.818	 18	 1.483168	 -1.769793	 -0.705859	 1.960636	 -0.785705	 -0.336285	 -0.081711	 0.792242	 -0.399595	 0.453873	 2
1463630541.828	 18	 1.656333	 -1.890880	 -0.759650	 1.929573	 -0.798464	 -0.353750	 -0.084704	 0.784433	 -0.406848	 0.460396	 2
1463630541.838	 18	 1.965928	 -2.187545	 -0.916445	 1.893278	 -0.812949	 -0.375116	 -0.088034	 0.775351	 -0.415293	 0.467560	 2
1463630541.848	 18	 2.194256	 -2.420997	 -1.189177	 1.851042	 -0.829993	 -0.400480	 -0.092216	 0.764741	 -0.425154	 0.475301	 2
1463630541.858	 18	 1.917342	 -2.514805	 -1.476461	 1.808109	 -0.848841	 -0.424420	 -0.098122	 0.753693	 -0.435042	 0.482761	 2
1463630541.868	 18	 1.193099	 -2.134685	 -1.565734	 1.773822	 -0.867045	 -0.439923	 -0.105529	 0.744379	 -0.442864	 0.488502	 2
1463630541.878	 18	 0.541027	 -1.710326	 -1.539055	 1.751301	 -0.883600	 -0.445785	 -0.113622	 0.737586	 -0.448221	 0.492092	 2
1463630541.888	 18	 0.257383	 -1.463565	 -1.506580	 1.735657	 -0.898995	 -0.446443	 -0.121822	 0.732278	 -0.452174	 0.494435	 2
1463630541.898	 18	 0.265359	 -1.350893	 -1.513061	 1.721690	 -0.914308	 -0.446609	 -0.129855	 0.727332	 -0.455961	 0.496212	 2
1463630541.908	 18	 0.428648	 -1.115315	 -1.521882	 1.707816	 -0.929896	 -0.449224	 -0.137121	 0.722519	 -0.460326	 0.497257	 2
1463630541.918	 18	 0.644648	 -0.832728	 -1.480634	 1.693434	 -0.945483	 -0.455876	 -0.143119	 0.717858	 -0.465544	 0.497459	 2
1463630541.928	 18	 0.810391	 -0.640865	 -1.356664	 1.678059	 -0.960204	 -0.466386	 -0.147772	 0.713340	 -0.471279	 0.497197	 2
1463630541.938	 18	 0.877723	 -0.557747	 -1.161442	 1.661548	 -0.973148	 -0.479472	 -0.151295	 0.708948	 -0.476954	 0.497008	 2
1463630541.948	 18	 0.861791	 -0.549298	 -0.883061	 1.644315	 -0.983378	 -0.493571	 -0.153838	 0.704761	 -0.481976	 0.497338	 2
1463630541.958	 18	 0.825335	 -0.342112	 -0.634624	 1.628474	 -0.990879	 -0.507888	 -0.155149	 0.701229	 -0.486348	 0.497666	 2
1463630541.968	 18	 0.745503	 -0.277352	 -0.390333	 1.614161	 -0.995758	 -0.521522	 -0.155516	 0.698286	 -0.489930	 0.498177	 2
1463630541.978	 18	 0.645356	 -0.192568	 -0.179783	 1.601783	 -0.998318	 -0.533688	 -0.155183	 0.695924	 -0.492672	 0.498881	 2
1463630541.988	 18	 0.551752	 -0.079078	 0.032044	 1.591774	 -0.998679	 -0.544287	 -0.154093	 0.694214	 -0.494638	 0.499655	 2
1463630541.998	 18	 0.447154	 -0.015702	 0.222184	 1.584122	 -0.996974	 -0.553107	 -0.152345	 0.693114	 -0.495820	 0.500545	 2
1463630542.008	 18	 0.350649	 -0.004826	 0.362740	 1.578300	 -0.993723	 -0.559971	 -0.150294	 0.692430	 -0.496274	 0.501663	 2
1463630542.018	 18	 0.333980	 -0.002985	 0.463084	 1.573117	 -0.989328	 -0.566109	 -0.147941	 0.691918	 -0.496317	 0.503023	 2
1463630542.028	 18	 0.379407	 0.057033	 0.544245	 1.567992	 -0.984105	 -0.572711	 -0.145122	 0.691493	 -0.496290	 0.504453	 2
1463630542.038	 18	 0.473114	 0.139522	 0.663562	 1.562566	 -0.977754	 -0.580668	 -0.141514	 0.691139	 -0.496319	 0.505932	 2
1463630542.048	 18	 0.581781	 0.237821	 0.769041	 1.556664	 -0.970259	 -0.590400	 -0.137006	 0.690823	 -0.496504	 0.507422	 2
1463630542.058	 18	 0.682549	 0.257331	 0.860001	 1.549924	 -0.961774	 -0.601719	 -0.131804	 0.690404	 -0.496822	 0.509055	 2
1463630542.068	 18	 0.749569	 0.155519	 0.927745	 1.541677	 -0.952452	 -0.614131	 -0.126296	 0.689645	 -0.497160	 0.511147	 2
1463630542.078	 18	 0.708287	 0.005633	 0.922446	 1.532404	 -0.942956	 -0.626030	 -0.121150	 0.688513	 -0.497313	 0.513763	 2
1463630542.088	 18	 0.627439	 -0.141122	 0.893009	 1.523157	 -0.933660	 -0.636306	 -0.116618	 0.687194	 -0.497156	 0.516721	 2
1463630542.098	 18	 0.564543	 -0.325183	 0.859871	 1.513250	 -0.924690	 -0.645172	 -0.112840	 0.685531	 -0.496726	 0.520171	 2
1463630542.108	 18	 0.568551	 -0.555376	 0.799077	 1.501582	 -0.916227	 -0.653612	 -0.109818	 0.683292	 -0.496258	 0.524195	 2
1463630542.118	 18	 0.518274	 -0.805190	 0.797190	 1.487956	 -0.907896	 -0.661368	 -0.107554	 0.680420	 -0.495588	 0.529012	 2
1463630542.128	 18	 0.402848	 -0.896905	 0.863419	 1.474566	 -0.899151	 -0.667135	 -0.105746	 0.677439	 -0.494357	 0.534327	 2
1463630542.138	 18	 0.332353	 -0.830549	 1.038370	 1.463101	 -0.888943	 -0.670905	 -0.103587	 0.674832	 -0.492394	 0.539833	 2
1463630542.148	 18	 0.376128	 -0.684236	 1.138466	 1.452900	 -0.877373	 -0.674626	 -0.100614	 0.672522	 -0.490203	 0.545245	 2
1463630542.158	 18	 0.432328	 -0.544977	 1.150996	 1.443928	 -0.865453	 -0.678877	 -0.097010	 0.670504	 -0.488172	 0.550183	 2
1463630542.168	 18	 0.488415	 -0.477630	 1.220409	 1.435331	 -0.852973	 -0.683696	 -0.092898	 0.668547	 -0.486223	 0.554979	 2
1463630542.178	 18	 0.528540	 -0.411207	 1.302741	 1.427297	 -0.839522	 -0.688757	 -0.088190	 0.666687	 -0.484182	 0.559749	 2
1463630542.188	 18	 0.585002	 -0.448458	 1.322152	 1.418916	 -0.825620	 -0.694256	 -0.083233	 0.664662	 -0.482184	 0.564620	 2
1463630542.198	 18	 0.620533	 -0.659773	 1.383822	 1.408755	 -0.811314	 -0.700053	 -0.078433	 0.662046	 -0.480151	 0.570085	 2
1463630542.208	 18	 0.607481	 -0.849990	 1.548425	 1.397042	 -0.795397	 -0.705120	 -0.073620	 0.658841	 -0.477538	 0.576599	 2
1463630542.218	 18	 0.500074	 -0.823683	 1.612485	 1.385960	 -0.778636	 -0.708631	 -0.068816	 0.655628	 -0.474361	 0.583436	 2
1463630542.228	 18	 -0.196589	 -0.147977	 1.667469	 1.385484	 -0.762512	 -0.704570	 -0.064196	 0.655181	 -0.469485	 0.588388	 2
1463630542.238	 18	 -0.666954	 0.155107	 1.910984	 1.395194	 -0.745407	 -0.691964	 -0.059644	 0.657462	 -0.462106	 0.592152	 2
1463630542.248	 18	 -0.352509	 0.293593	 1.921258	 1.404835	 -0.727008	 -0.681258	 -0.054060	 0.659819	 -0.454846	 0.595677	 2
1463630542.258	 18	 0.077849	 0.633459	 1.588156	 1.412856	 -0.710485	 -0.677462	 -0.047316	 0.661927	 -0.449933	 0.597641	 2
1463630542.268	 18	 0.490376	 0.872883	 1.183933	 1.419471	 -0.697216	 -0.679845	 -0.040087	 0.663784	 -0.447548	 0.597900	 2
1463630542.278	 18	 0.772058	 1.291486	 0.941317	 1.426614	 -0.686423	 -0.687190	 -0.032024	 0.665886	 -0.447211	 0.596299	 2
1463630542.288	 18	 0.793636	 1.550027	 0.961652	 1.436202	 -0.675975	 -0.695793	 -0.023125	 0.668674	 -0.447309	 0.593511	 2
1463630542.298	 18	 0.620963	 1.446516	 1.138043	 1.447074	 -0.664359	 -0.702445	 -0.014164	 0.671729	 -0.446470	 0.590969	 2
1463630542.308	 18	 0.760130	 1.118068	 1.369309	 1.454901	 -0.650515	 -0.709120	 -0.005062	 0.673769	 -0.444977	 0.589920	 2
1463630542.318	 18	 1.174134	 1.094436	 1.651109	 1.459085	 -0.633651	 -0.720156	 0.005800	 0.674572	 -0.443935	 0.589780	 2
1463630542.328	 18	 1.617928	 1.282334	 1.927157	 1.462119	 -0.613472	 -0.736045	 0.019254	 0.674749	 -0.443436	 0.589667	 2
1463630542.338	 18	 1.932752	 1.347692	 2.120059	 1.464297	 -0.590806	 -0.755941	 0.034765	 0.674278	 -0.443450	 0.589485	 2
1463630542.348	 18	 1.865248	 1.444236	 2.205740	 1.467463	 -0.566997	 -0.775856	 0.050893	 0.673725	 -0.443113	 0.589198	 2
1463630542.358	 18	 1.472159	 1.480395	 2.339522	 1.473815	 -0.542550	 -0.791678	 0.066543	 0.673877	 -0.441246	 0.588867	 2
1463630542.368	 18	 1.156829	 1.626785	 2.305262	 1.483845	 -0.518144	 -0.803274	 0.081513	 0.675007	 -0.437892	 0.588194	 2
1463630542.378	 18	 1.292133	 1.744081	 2.108010	 1.494801	 -0.495523	 -0.815423	 0.096165	 0.676282	 -0.434973	 0.586680	 2
1463630542.388	 18	 1.285204	 2.027861	 1.637512	 1.508210	 -0.477014	 -0.828797	 0.110233	 0.678282	 -0.433226	 0.583178	 2
1463630542.398	 18	 1.047917	 2.022774	 1.280369	 1.523448	 -0.462903	 -0.840331	 0.122462	 0.681050	 -0.431861	 0.578507	 2
1463630542.408	 18	 0.826517	 1.801247	 1.150212	 1.537974	 -0.450806	 -0.849647	 0.133035	 0.683764	 -0.430300	 0.574117	 2
1463630542.418	 18	 0.531985	 1.389103	 1.105245	 1.550227	 -0.439511	 -0.856104	 0.141829	 0.685987	 -0.428178	 0.570938	 2
1463630542.428	 18	 0.118545	 0.866817	 1.077341	 1.559276	 -0.428636	 -0.858418	 0.148338	 0.687573	 -0.425140	 0.569645	 2
1463630542.438	 18	 -0.330565	 0.222545	 1.080585	 1.564252	 -0.417897	 -0.855923	 0.152254	 0.688352	 -0.421027	 0.570725	 2
1463630542.448	 18	 -0.755548	 -0.592325	 1.181151	 1.563322	 -0.406446	 -0.848725	 0.153545	 0.687744	 -0.415784	 0.574940	 2
1463630542.458	 18	 -1.079136	 -1.449650	 1.335855	 1.555261	 -0.393600	 -0.837653	 0.152533	 0.685245	 -0.409530	 0.582631	 2
1463630542.468	 18	 -1.286377	 -2.229238	 1.403942	 1.540002	 -0.379939	 -0.823914	 0.149500	 0.680700	 -0.402736	 0.593381	 2
1463630542.478	 18	 -1.414134	 -2.825697	 1.383518	 1.518841	 -0.366597	 -0.808460	 0.144721	 0.674400	 -0.395846	 0.606256	 2
1463630542.488	 18	 -1.486104	 -3.524955	 1.290245	 1.491159	 -0.354402	 -0.791833	 0.138040	 0.666063	 -0.389235	 0.621129	 2
1463630542.498	 18	 -1.470162	 -3.978038	 1.005595	 1.458107	 -0.344956	 -0.775063	 0.129504	 0.655984	 -0.383513	 0.637049	 2
1463630542.508	 18	 -1.408405	 -4.363903	 0.622052	 1.420666	 -0.340155	 -0.759137	 0.118935	 0.644481	 -0.379370	 0.653129	 2
1463630542.518	 18	 -1.343224	 -4.803152	 0.358417	 1.378768	 -0.338373	 -0.744192	 0.106913	 0.631312	 -0.376309	 0.669631	 2
1463630542.528	 18	 -1.320458	 -5.334577	 0.273342	 1.331596	 -0.338444	 -0.729904	 0.093583	 0.616035	 -0.373846	 0.687010	 2
1463630542.538	 18	 -1.360169	 -5.857557	 0.300794	 1.279050	 -0.339190	 -0.715359	 0.079091	 0.598436	 -0.371241	 0.705549	 2
1463630542.548	 18	 -1.633971	 -5.942389	 0.518738	 1.225154	 -0.339803	 -0.698293	 0.063872	 0.579833	 -0.367217	 0.724476	 2
1463630542.558	 18	 -2.053137	 -5.547931	 0.916127	 1.176006	 -0.339300	 -0.675890	 0.048735	 0.562389	 -0.360262	 0.742667	 2
1463630542.568	 18	 -2.342713	 -5.007491	 1.256195	 1.133571	 -0.337760	 -0.648715	 0.034280	 0.546876	 -0.350579	 0.759504	 2
1463630542.578	 18	 -2.475430	 -4.390561	 1.500757	 1.097985	 -0.335566	 -0.618664	 0.020930	 0.533448	 -0.339049	 0.774623	 2
1463630542.588	 18	 -2.486965	 -3.608407	 1.697841	 1.070140	 -0.332664	 -0.587200	 0.009198	 0.522564	 -0.326325	 0.787626	 2
1463630542.598	 18	 -2.386637	 -2.662596	 1.921052	 1.051472	 -0.328252	 -0.555271	 -0.000214	 0.514881	 -0.312740	 0.798180	 2
1463630542.608	 18	 -2.162359	 -1.801221	 2.284145	 1.041643	 -0.320524	 -0.523427	 -0.006610	 0.510303	 -0.298255	 0.806592	 2
1463630542.618	 18	 -1.873921	 -1.194811	 2.714648	 1.038086	 -0.307851	 -0.491872	 -0.009777	 0.507846	 -0.282664	 0.813694	 2
1463630542.628	 18	 -1.684060	 -0.786911	 3.012006	 1.038508	 -0.291218	 -0.460689	 -0.010545	 0.506774	 -0.266220	 0.819875	 2
1463630542.638	 18	 -1.639621	 -0.555034	 3.177904	 1.041234	 -0.272451	 -0.429367	 -0.010121	 0.506593	 -0.249102	 0.825354	 2
1463630542.648	 18	 -1.631155	 -0.621622	 3.239025	 1.043543	 -0.252768	 -0.397863	 -0.009408	 0.506286	 -0.231545	 0.830646	 2
1463630542.658	 18	 -1.588910	 -0.875454	 3.160626	 1.042886	 -0.233282	 -0.367104	 -0.008913	 0.504855	 -0.214187	 0.836162	 2
1463630542.668	 18	 -1.538300	 -1.109589	 3.015195	 1.038867	 -0.214773	 -0.337542	 -0.008823	 0.502146	 -0.197423	 0.841900	 2
1463630542.678	 18	 -1.443276	 -1.200298	 2.865382	 1.032721	 -0.197326	 -0.309519	 -0.008904	 0.498649	 -0.181445	 0.847554	 2
1463630542.688	 18	 -1.307656	 -1.177334	 2.860152	 1.025888	 -0.179840	 -0.282848	 -0.008568	 0.494911	 -0.165945	 0.852908	 2
1463630542.698	 18	 -1.115961	 -1.169294	 3.019488	 1.018591	 -0.160575	 -0.257023	 -0.007161	 0.490958	 -0.150313	 0.858088	 2
1463630542.708	 18	 -0.876940	 -1.169156	 3.281717	 1.010620	 -0.138246	 -0.231810	 -0.004183	 0.486672	 -0.134161	 0.863211	 2
1463630542.718	 18	 -0.628031	 -1.087336	 3.517976	 1.002568	 -0.112676	 -0.207266	 0.000518	 0.482324	 -0.117490	 0.868078	 2
1463630542.728	 18	 -0.360315	 -1.017900	 3.667630	 0.994595	 -0.084434	 -0.183849	 0.006816	 0.478020	 -0.100653	 0.872536	 2
1463630542.738	 18	 -0.049048	 -1.112235	 3.691752	 0.985337	 -0.054251	 -0.162464	 0.014547	 0.473185	 -0.084253	 0.876804	 2
1463630542.748	 18	 0.261071	 -1.356279	 3.604717	 0.973170	 -0.023065	 -0.143740	 0.023409	 0.467104	 -0.068848	 0.881207	 2
1463630542.758	 18	 0.555892	 -1.614639	 3.444144	 0.957734	 0.008393	 -0.127855	 0.033153	 0.459591	 -0.054768	 0.885820	 2
1463630542.768	 18	 0.830768	 -1.743688	 3.213543	 0.940249	 0.039440	 -0.115004	 0.043579	 0.451150	 -0.042308	 0.890379	 2
1463630542.778	 18	 1.053923	 -1.763994	 2.997193	 0.922050	 0.069874	 -0.104834	 0.054534	 0.442345	 -0.031377	 0.894635	 2
1463630542.788	 18	 1.241339	 -1.699899	 2.818175	 0.904178	 0.099819	 -0.096786	 0.065930	 0.433620	 -0.021692	 0.898419	 2
1463630542.798	 18	 1.421681	 -1.597103	 2.692867	 0.887229	 0.129648	 -0.090484	 0.077819	 0.425221	 -0.012988	 0.901644	 2
1463630542.808	 18	 1.608541	 -1.522590	 2.630120	 0.871158	 0.159938	 -0.085607	 0.090355	 0.417103	 -0.004996	 0.904343	 2
1463630542.818	 18	 1.815574	 -1.514755	 2.620929	 0.855392	 0.191312	 -0.081909	 0.103739	 0.408975	 0.002497	 0.906626	 2
1463630542.828	 18	 2.045820	 -1.570740	 2.620535	 0.839355	 0.224101	 -0.079399	 0.118103	 0.400539	 0.009508	 0.908587	 2
1463630542.838	 18	 2.276711	 -1.704470	 2.606623	 0.822421	 0.258358	 -0.078158	 0.133478	 0.391473	 0.015939	 0.910318	 2
1463630542.848	 18	 2.439892	 -1.929558	 2.580727	 0.803664	 0.293673	 -0.077833	 0.149606	 0.381365	 0.021757	 0.911979	 2
1463630542.858	 18	 2.504495	 -2.229949	 2.544330	 0.782105	 0.329370	 -0.077663	 0.166048	 0.369837	 0.027035	 0.913738	 2
1463630542.868	 18	 2.468471	 -2.537996	 2.438399	 0.757308	 0.364399	 -0.077190	 0.182260	 0.356784	 0.031673	 0.915687	 2
1463630542.878	 18	 2.318263	 -2.757125	 2.227712	 0.729885	 0.397263	 -0.076311	 0.197545	 0.342592	 0.035441	 0.917797	 2
1463630542.888	 18	 2.073284	 -2.904951	 1.984410	 0.700652	 0.426786	 -0.074816	 0.211319	 0.327745	 0.038301	 0.920033	 2
1463630542.898	 18	 1.821379	 -2.917846	 1.717911	 0.670381	 0.452685	 -0.072615	 0.223422	 0.312655	 0.040367	 0.922334	 2
1463630542.908	 18	 1.664632	 -2.824191	 1.369512	 0.641414	 0.474999	 -0.071327	 0.234060	 0.298233	 0.041232	 0.924431	 2
1463630542.928	 19	 1.627759	 -2.659596	 1.024992	 0.586690	 0.514250	 -0.071612	 0.253293	 0.270756	 0.040343	 0.927850	 2
1463630542.938	 19	 1.718793	 -2.529570	 0.951871	 0.561701	 0.533718	 -0.072837	 0.262938	 0.257959	 0.039297	 0.928858	 2
1463630542.948	 19	 1.834320	 -2.421854	 0.892185	 0.538279	 0.553841	 -0.074826	 0.272935	 0.245735	 0.037961	 0.929344	 2
1463630542.958	 19	 1.924116	 -2.335375	 0.827186	 0.516305	 0.573053	 -0.077609	 0.282552	 0.234101	 0.036118	 0.929546	 2
1463630542.968	 19	 1.962709	 -2.230832	 0.741405	 0.497460	 0.580546	 -0.082005	 0.286841	 0.224305	 0.032331	 0.930787	 2
1463630542.988	 20	 1.835019	 -1.968275	 0.522206	 0.461044	 0.618399	 -0.090376	 0.305776	 0.204046	 0.027564	 0.929573	 2
1463630542.998	 20	 1.725073	 -1.897352	 0.431102	 0.444556	 0.636140	 -0.094830	 0.314622	 0.194701	 0.024953	 0.928699	 2
1463630543.008	 20	 1.623527	 -1.878373	 0.367151	 0.428384	 0.652682	 -0.099214	 0.322852	 0.185559	 0.022161	 0.927817	 2
1463630543.018	 20	 1.532607	 -1.880600	 0.316765	 0.412193	 0.668208	 -0.103427	 0.330547	 0.176475	 0.019218	 0.926945	 2
1463630543.028	 20	 1.457630	 -1.898806	 0.269289	 0.395839	 0.682887	 -0.107564	 0.337796	 0.167362	 0.016082	 0.926081	 2
1463630543.038	 20	 1.381585	 -1.929665	 0.236626	 0.379151	 0.696779	 -0.111508	 0.344617	 0.158163	 0.012792	 0.925235	 2
1463630543.048	 20	 1.303132	 -2.029555	 0.217195	 0.361465	 0.709903	 -0.115068	 0.351010	 0.148607	 0.009328	 0.924457	 2
1463630543.058	 20	 1.255319	 -2.209182	 0.214875	 0.341882	 0.722508	 -0.118164	 0.357085	 0.138286	 0.005589	 0.923762	 2
1463630543.068	 20	 1.248179	 -2.372891	 0.224071	 0.320271	 0.735016	 -0.120786	 0.363029	 0.127125	 0.001580	 0.923064	 2
1463630543.078	 20	 1.277627	 -2.471832	 0.232486	 0.297286	 0.747796	 -0.123031	 0.369011	 0.115397	 -0.002609	 0.922230	 2
1463630543.088	 20	 1.325525	 -2.503831	 0.239231	 0.273583	 0.761079	 -0.124980	 0.375140	 0.103385	 -0.006891	 0.921159	 2
1463630543.098	 20	 1.322880	 -2.410018	 0.267837	 0.250051	 0.774546	 -0.126223	 0.381253	 0.091602	 -0.010942	 0.919856	 2
1463630543.108	 20	 1.327803	 -2.236963	 0.226774	 0.228028	 0.788000	 -0.127333	 0.387304	 0.080572	 -0.014782	 0.918306	 2
1463630543.118	 20	 1.339015	 -2.045151	 0.134674	 0.208442	 0.801377	 -0.129245	 0.393312	 0.070541	 -0.018646	 0.916505	 2
1463630543.128	 20	 1.354585	 -1.831045	 0.038481	 0.191780	 0.814745	 -0.132259	 0.399325	 0.061655	 -0.022544	 0.914456	 2
1463630543.138	 20	 1.350017	 -1.603976	 -0.038233	 0.178062	 0.828007	 -0.136231	 0.405296	 0.053941	 -0.026381	 0.912211	 2
1463630543.148	 20	 1.306317	 -1.371932	 -0.031430	 0.166719	 0.840931	 -0.140168	 0.411092	 0.047340	 -0.029802	 0.909876	 2
1463630543.158	 20	 1.252790	 -1.222516	 0.017320	 0.156442	 0.853425	 -0.143164	 0.416646	 0.041442	 -0.032650	 0.907537	 2
1463630543.168	 20	 1.194600	 -1.137069	 0.043134	 0.146545	 0.865437	 -0.145375	 0.421937	 0.035912	 -0.035135	 0.905232	 2
1463630543.178	 20	 1.122516	 -1.041076	 0.051050	 0.137230	 0.876801	 -0.147117	 0.426910	 0.030786	 -0.037361	 0.902997	 2
1463630543.188	 20	 1.062137	 -0.945179	 0.050336	 0.128642	 0.887530	 -0.148564	 0.431582	 0.026093	 -0.039367	 0.900837	 2
1463630543.208	 21	 1.034072	 -0.587489	 0.082684	 0.115445	 0.908189	 -0.150525	 0.440577	 0.018770	 -0.042225	 0.896525	 2
1463630543.218	 21	 1.063089	 -0.352224	 0.122988	 0.111467	 0.918802	 -0.150695	 0.445225	 0.016461	 -0.042737	 0.894247	 2
1463630543.228	 21	 1.073878	 -0.147643	 0.178086	 0.108879	 0.929654	 -0.149897	 0.449990	 0.014987	 -0.042511	 0.891895	 2
1463630543.238	 21	 1.023253	 -0.044121	 0.206134	 0.107091	 0.940215	 -0.148429	 0.454626	 0.014044	 -0.041831	 0.889589	 2
1463630543.248	 21	 0.877970	 -0.089308	 0.222965	 0.104743	 0.949601	 -0.146373	 0.458716	 0.013050	 -0.041077	 0.887537	 2
1463630543.258	 21	 0.646440	 -0.307710	 0.226146	 0.100170	 0.956875	 -0.143732	 0.461820	 0.011311	 -0.040672	 0.885969	 2
1463630543.268	 21	 0.363087	 -0.646207	 0.221201	 0.092026	 0.961418	 -0.140607	 0.463642	 0.008235	 -0.041002	 0.885035	 2
1463630543.278	 21	 0.086159	 -0.977300	 0.213070	 0.080133	 0.963132	 -0.137051	 0.464140	 0.003728	 -0.042127	 0.884751	 2
1463630543.288	 21	 -0.133911	 -1.211007	 0.163787	 0.065899	 0.962435	 -0.133846	 0.463525	 -0.001799	 -0.044032	 0.884987	 2
1463630543.298	 21	 -0.279940	 -1.325034	 0.074473	 0.051221	 0.960022	 -0.131861	 0.462131	 -0.007749	 -0.046619	 0.885552	 2
1463630543.308	 21	 -0.381351	 -1.267848	 -0.000847	 0.037857	 0.956459	 -0.131331	 0.460236	 -0.013425	 -0.049555	 0.886311	 2
1463630543.318	 21	 -0.432780	 -0.996181	 -0.106579	 0.028005	 0.952214	 -0.132433	 0.458097	 -0.017906	 -0.052400	 0.887176	 2
1463630543.328	 21	 -0.461242	 -0.590705	 -0.231515	 0.023719	 0.947644	 -0.135736	 0.455924	 -0.020413	 -0.054942	 0.888087	 2
1463630543.338	 21	 -0.535283	 -0.194024	 -0.267678	 0.024313	 0.942467	 -0.140024	 0.453598	 -0.020951	 -0.056821	 0.889147	 2
1463630543.348	 21	 -0.667371	 0.099777	 -0.287241	 0.028263	 0.936072	 -0.144506	 0.450823	 -0.019986	 -0.058062	 0.890499	 2
1463630543.358	 21	 -0.812958	 0.254223	 -0.315443	 0.034375	 0.928213	 -0.149298	 0.447458	 -0.018053	 -0.059009	 0.892174	 2
1463630543.368	 21	 -0.926166	 0.216432	 -0.292428	 0.040310	 0.919098	 -0.153753	 0.443531	 -0.016048	 -0.059906	 0.894111	 2
1463630543.378	 21	 -0.951496	 -0.012691	 -0.217605	 0.043426	 0.909480	 -0.156988	 0.439302	 -0.014989	 -0.060921	 0.896146	 2
1463630543.388	 21	 -0.850342	 -0.362264	 -0.127951	 0.042144	 0.900578	 -0.158801	 0.435263	 -0.015603	 -0.062254	 0.898013	 2
1463630543.398	 21	 -0.606234	 -0.717615	 -0.043859	 0.036266	 0.893806	 -0.159412	 0.432034	 -0.018105	 -0.063979	 0.899403	 2
1463630543.408	 21	 -0.275876	 -0.866000	 0.014763	 0.027650	 0.890198	 -0.159170	 0.430135	 -0.021787	 -0.065815	 0.900099	 2
1463630543.418	 21	 0.048973	 -0.782865	 0.023366	 0.019134	 0.889918	 -0.158772	 0.429730	 -0.025524	 -0.067473	 0.900071	 2
1463630543.428	 21	 0.259698	 -0.421067	 -0.014535	 0.013941	 0.892088	 -0.158874	 0.430528	 -0.027963	 -0.068590	 0.899533	 2
1463630543.438	 21	 0.272672	 0.102941	 -0.057731	 0.014287	 0.894887	 -0.159681	 0.431786	 -0.028087	 -0.068822	 0.898908	 2
1463630543.448	 21	 0.162179	 0.678515	 -0.080189	 0.020523	 0.896866	 -0.160969	 0.432871	 -0.025638	 -0.068010	 0.898521	 2
1463630543.458	 21	 -0.137103	 1.271709	 -0.097623	 0.033040	 0.896288	 -0.162365	 0.433015	 -0.020294	 -0.065942	 0.898743	 2
1463630543.468	 21	 -0.447931	 1.479671	 -0.146270	 0.049097	 0.892506	 -0.164355	 0.431820	 -0.013349	 -0.063466	 0.899625	 2
1463630543.478	 21	 -0.696738	 1.378882	 -0.065109	 0.063988	 0.886049	 -0.165248	 0.429378	 -0.006559	 -0.060858	 0.901048	 2
1463630543.488	 21	 -0.821466	 1.080179	 0.054694	 0.074653	 0.878106	 -0.163975	 0.426126	 -0.001123	 -0.058267	 0.902785	 2
