% Gyrometer data recorded with 'snsrlog'
% 
% 
% Label description:
% 	 0: Default Label
% 	 1: still_drop
% 	 2: walk_drop
% 	 3: other
% 	 4: dtw_same
% 	 5: dtw_diff
% 	 6: delete
% 
% Column description:
% 	 1: Seconds.milliseconds since 1970
% 	 2: Number of skipped measurements
% 	 3: Gyro X
% 	 4: Gyro Y
% 	 5: Gyro Z
% 	 6: Roll of the device
% 	 7: Pitch of the device
% 	 8: Yaw of the device
% 	 9: Quaternion X
% 	 10: Quaternion Y
% 	 11: Quaternion Z
% 	 12: Quaternion W
% 	 13: Label used for the current sample
% 
% 
1462073669.905	 0	 -1.075357	 0.610042	 -1.605723	 0.371951	 0.537127	 -0.276238	 0.282833	 0.140676	 -0.081859	 0.945259	 2
1462073669.915	 0	 -1.219614	 0.926298	 -1.760323	 0.387224	 0.519673	 -0.289645	 0.276318	 0.147614	 -0.087951	 0.945581	 2
1462073669.925	 0	 -1.240332	 1.229080	 -1.963017	 0.405854	 0.500854	 -0.304309	 0.269522	 0.156204	 -0.094460	 0.945535	 2
1462073669.935	 0	 -1.166271	 1.737731	 -2.192330	 0.429648	 0.481328	 -0.320961	 0.262959	 0.167161	 -0.101463	 0.944783	 2
1462073669.945	 0	 -1.009396	 2.374902	 -2.412643	 0.460372	 0.461670	 -0.339774	 0.257101	 0.181248	 -0.108796	 0.942980	 2
1462073669.955	 0	 -0.779700	 2.805809	 -2.592879	 0.496670	 0.442461	 -0.360652	 0.252258	 0.197764	 -0.116552	 0.940038	 2
1462073669.965	 0	 -0.508407	 2.950957	 -2.707927	 0.535455	 0.424185	 -0.383221	 0.248541	 0.215219	 -0.124872	 0.936117	 2
1462073669.975	 0	 -0.217830	 2.836950	 -2.764806	 0.573898	 0.407210	 -0.407139	 0.245966	 0.232251	 -0.133848	 0.931475	 2
1462073669.985	 0	 0.065083	 2.624546	 -2.753259	 0.610324	 0.391759	 -0.431978	 0.244482	 0.248070	 -0.143386	 0.926353	 2
1462073669.995	 0	 0.317771	 2.488411	 -2.650150	 0.644861	 0.378083	 -0.457027	 0.244103	 0.262762	 -0.153031	 0.920843	 2
1462073670.005	 0	 0.544766	 2.490172	 -2.462404	 0.678584	 0.366499	 -0.481551	 0.244914	 0.276832	 -0.162198	 0.914917	 2
1462073670.015	 0	 0.751328	 2.660257	 -2.245204	 0.713012	 0.357149	 -0.505218	 0.247014	 0.290949	 -0.170467	 0.908446	 2
1462073670.025	 0	 0.934913	 3.006363	 -2.111428	 0.750147	 0.349532	 -0.528503	 0.250400	 0.305981	 -0.177840	 0.901138	 2
1462073670.035	 0	 0.999782	 3.453577	 -2.163251	 0.791560	 0.341770	 -0.552153	 0.254525	 0.322756	 -0.184769	 0.892696	 2
1462073670.045	 0	 0.880288	 3.861897	 -2.372629	 0.837097	 0.331277	 -0.576059	 0.258316	 0.341564	 -0.191738	 0.883087	 2
1462073670.055	 0	 0.621273	 4.148981	 -2.636274	 0.885338	 0.316303	 -0.599241	 0.260826	 0.362157	 -0.198922	 0.872492	 2
1462073670.065	 0	 0.357033	 4.240316	 -2.908090	 0.934217	 0.296466	 -0.620966	 0.261632	 0.383785	 -0.206472	 0.861178	 2
1462073670.075	 0	 0.226441	 4.176879	 -3.201694	 0.982009	 0.272305	 -0.641800	 0.260935	 0.405547	 -0.214850	 0.849285	 2
1462073670.085	 0	 0.310684	 4.181960	 -3.493333	 1.029189	 0.244881	 -0.663157	 0.259550	 0.427279	 -0.224417	 0.836483	 2
1462073670.095	 0	 0.582695	 4.378143	 -3.757119	 1.077669	 0.215290	 -0.686425	 0.258514	 0.449381	 -0.235246	 0.822123	 2
1462073670.105	 0	 1.001888	 4.728576	 -3.957872	 1.129300	 0.184355	 -0.712523	 0.258719	 0.472269	 -0.247221	 0.805548	 2
1462073670.115	 0	 1.472985	 4.867253	 -4.004379	 1.182594	 0.153146	 -0.741463	 0.260562	 0.495035	 -0.260158	 0.786998	 2
1462073670.125	 0	 1.935605	 4.848946	 -3.848713	 1.235496	 0.123135	 -0.772609	 0.264272	 0.516604	 -0.273542	 0.767109	 2
1462073670.135	 0	 2.270142	 4.761376	 -3.615842	 1.286841	 0.094850	 -0.804934	 0.269622	 0.536522	 -0.286850	 0.746435	 2
1462073670.145	 0	 2.371155	 4.561113	 -3.470444	 1.335675	 0.067114	 -0.836834	 0.275555	 0.554844	 -0.299858	 0.725468	 2
1462073670.155	 0	 2.197430	 4.137938	 -3.506915	 1.379748	 0.037822	 -0.866307	 0.280327	 0.571437	 -0.312771	 0.705018	 2
1462073670.165	 0	 1.714173	 3.636128	 -3.672570	 1.417919	 0.005277	 -0.890752	 0.282275	 0.586669	 -0.325441	 0.685732	 2
1462073670.175	 0	 1.047121	 3.115436	 -3.876234	 1.450186	 -0.030930	 -0.907995	 0.280420	 0.601028	 -0.337414	 0.668044	 2
1462073670.185	 0	 0.500518	 2.581481	 -4.100253	 1.476756	 -0.070459	 -0.918504	 0.274830	 0.614519	 -0.348879	 0.652011	 2
1462073670.195	 0	 0.209604	 2.163927	 -4.303035	 1.498799	 -0.112639	 -0.924692	 0.266484	 0.627094	 -0.360353	 0.637091	 2
1462073670.205	 0	 0.155537	 1.884584	 -4.418134	 1.517688	 -0.156399	 -0.929020	 0.256629	 0.638689	 -0.372136	 0.622682	 2
1462073670.215	 0	 0.262140	 1.655410	 -4.443576	 1.534056	 -0.200671	 -0.933373	 0.246274	 0.649116	 -0.384392	 0.608474	 2
1462073670.225	 0	 0.411555	 1.374669	 -4.376083	 1.547405	 -0.244517	 -0.938568	 0.235861	 0.658045	 -0.397098	 0.594693	 2
1462073670.235	 0	 0.458359	 0.953686	 -4.182176	 1.556676	 -0.286834	 -0.944138	 0.225343	 0.665168	 -0.409853	 0.582058	 2
1462073670.245	 0	 0.317884	 0.599615	 -3.930597	 1.562196	 -0.326703	 -0.948417	 0.214474	 0.670767	 -0.421822	 0.571086	 2
1462073670.255	 0	 0.031016	 0.217154	 -3.692927	 1.564864	 -0.364205	 -0.949857	 0.202831	 0.675343	 -0.432482	 0.561899	 2
1462073670.265	 0	 -0.363410	 -0.164583	 -3.398895	 1.565098	 -0.398996	 -0.947268	 0.190168	 0.679125	 -0.441381	 0.554805	 2
1462073670.275	 0	 -0.767832	 -0.458596	 -3.038948	 1.564117	 -0.430359	 -0.940157	 0.176800	 0.682427	 -0.448102	 0.549764	 2
1462073670.285	 0	 -1.017966	 -0.639109	 -2.659038	 1.562611	 -0.457949	 -0.929639	 0.163374	 0.685301	 -0.452838	 0.546451	 2
1462073670.295	 0	 -1.022432	 -0.766165	 -2.288230	 1.560390	 -0.481844	 -0.918261	 0.150703	 0.687516	 -0.456349	 0.544386	 2
1462073670.305	 0	 -0.798354	 -0.871437	 -1.901092	 1.556479	 -0.501943	 -0.908711	 0.139540	 0.688661	 -0.459416	 0.543335	 2
1462073670.315	 0	 -0.425917	 -0.990811	 -1.491930	 1.549692	 -0.517979	 -0.903037	 0.130425	 0.688347	 -0.462590	 0.543302	 2
1462073670.325	 0	 -0.013860	 -1.054168	 -1.115630	 1.539682	 -0.529995	 -0.901987	 0.123526	 0.686528	 -0.466099	 0.544218	 2
1462073670.335	 0	 0.417866	 -1.142938	 -0.862300	 1.526538	 -0.539091	 -0.906006	 0.118619	 0.683334	 -0.470348	 0.545671	 2
1462073670.345	 0	 0.738661	 -1.188051	 -0.647032	 1.510414	 -0.545719	 -0.914256	 0.115268	 0.678913	 -0.475237	 0.547668	 2
1462073670.355	 0	 0.815681	 -1.099536	 -0.436924	 1.493980	 -0.550053	 -0.924150	 0.113146	 0.674157	 -0.479977	 0.549848	 2
1462073670.365	 0	 0.618723	 -0.997049	 -0.171012	 1.479477	 -0.551896	 -0.932410	 0.111769	 0.669837	 -0.483522	 0.552298	 2
1462073670.375	 0	 0.147939	 -0.848681	 0.150999	 1.468845	 -0.550938	 -0.935585	 0.110600	 0.666641	 -0.484759	 0.555307	 2
1462073670.385	 0	 -0.407906	 -0.577174	 0.405622	 1.464290	 -0.547747	 -0.932007	 0.109455	 0.665314	 -0.483240	 0.558440	 2
1462073670.395	 0	 -0.854956	 -0.453547	 0.552411	 1.464261	 -0.543319	 -0.922534	 0.107893	 0.665468	 -0.479513	 0.561763	 2
1462073670.405	 0	 -0.960335	 -0.146059	 0.524217	 1.468100	 -0.538983	 -0.910772	 0.106456	 0.666840	 -0.474933	 0.564296	 2
1462073670.415	 0	 -0.735053	 0.142239	 0.476979	 1.473930	 -0.534941	 -0.900822	 0.105968	 0.668707	 -0.470811	 0.565632	 2
1462073670.425	 0	 -0.260438	 0.300463	 0.487108	 1.479205	 -0.530548	 -0.895784	 0.107101	 0.670138	 -0.468005	 0.566053	 2
1462073670.435	 0	 0.357089	 0.353712	 0.599461	 1.481850	 -0.524745	 -0.897457	 0.110365	 0.670359	 -0.466875	 0.566098	 2
1462073670.445	 0	 0.990270	 0.272353	 0.782896	 1.480376	 -0.516673	 -0.906326	 0.115886	 0.668816	 -0.467435	 0.566357	 2
1462073670.455	 0	 1.366237	 0.200135	 0.949473	 1.475776	 -0.506405	 -0.920115	 0.123091	 0.665856	 -0.469037	 0.567000	 2
1462073670.465	 0	 1.475813	 0.223273	 1.104335	 1.470544	 -0.494388	 -0.935510	 0.131277	 0.662356	 -0.470733	 0.567856	 2
1462073670.475	 0	 1.395406	 0.220559	 1.284058	 1.465941	 -0.480615	 -0.950130	 0.139948	 0.658796	 -0.471773	 0.569064	 2
1462073670.485	 0	 1.182719	 0.201446	 1.495687	 1.462460	 -0.464970	 -0.962281	 0.148705	 0.655412	 -0.471600	 0.570891	 2
1462073670.495	 0	 0.904241	 0.223275	 1.753032	 1.460775	 -0.447163	 -0.971041	 0.157515	 0.652447	 -0.469805	 0.573398	 2
1462073670.505	 0	 0.632392	 0.297166	 2.005475	 1.461273	 -0.426990	 -0.976320	 0.166515	 0.650021	 -0.466238	 0.576513	 2
1462073670.515	 0	 0.352586	 0.336625	 1.907031	 1.463627	 -0.407242	 -0.978653	 0.174808	 0.648332	 -0.461731	 0.579580	 2
1462073670.525	 0	 0.095680	 0.432793	 1.864335	 1.467706	 -0.388538	 -0.978116	 0.182166	 0.647454	 -0.456443	 0.582476	 2
1462073670.535	 0	 0.104143	 0.495730	 2.039632	 1.473066	 -0.368706	 -0.976917	 0.189959	 0.646844	 -0.450476	 0.585303	 2
1462073670.545	 0	 0.154988	 0.502103	 2.205508	 1.478281	 -0.346910	 -0.976294	 0.198543	 0.645864	 -0.444089	 0.588408	 2
1462073670.555	 0	 0.084360	 0.668396	 2.227920	 1.484717	 -0.324635	 -0.975328	 0.207396	 0.645171	 -0.437249	 0.591231	 2
1462073670.565	 0	 0.096693	 1.053102	 2.188761	 1.494500	 -0.302613	 -0.974222	 0.216771	 0.645470	 -0.429963	 0.592884	 2
1462073670.575	 0	 0.320757	 1.468725	 1.951947	 1.507959	 -0.282342	 -0.975464	 0.226995	 0.646776	 -0.423301	 0.592428	 2
1462073670.585	 0	 0.579969	 1.768127	 1.836308	 1.523566	 -0.263530	 -0.979721	 0.238042	 0.648494	 -0.417526	 0.590308	 2
1462073670.595	 0	 0.780468	 2.291048	 1.718997	 1.543271	 -0.245658	 -0.986677	 0.250388	 0.651121	 -0.412130	 0.586086	 2
1462073670.605	 0	 0.868558	 2.900119	 1.409498	 1.568895	 -0.230659	 -0.995191	 0.263381	 0.655519	 -0.407022	 0.579015	 2
1462073670.615	 0	 0.842444	 3.291384	 1.086177	 1.598850	 -0.219083	 -1.004123	 0.276150	 0.661386	 -0.402173	 0.569708	 2
1462073670.625	 0	 0.702770	 3.613641	 0.734428	 1.632581	 -0.211191	 -1.012053	 0.288051	 0.668740	 -0.397310	 0.558532	 2
1462073670.635	 0	 0.642149	 3.678692	 0.440344	 1.667936	 -0.206667	 -1.019051	 0.298805	 0.676888	 -0.392690	 0.546199	 2
1462073670.645	 0	 0.852158	 3.445855	 0.391587	 1.701404	 -0.203738	 -1.027410	 0.309091	 0.684276	 -0.388961	 0.533795	 2
1462073670.655	 0	 1.226040	 3.090243	 0.638674	 1.730820	 -0.199809	 -1.039694	 0.320197	 0.689608	 -0.386355	 0.522154	 2
1462073670.665	 0	 1.464332	 2.432453	 0.961931	 1.753954	 -0.193564	 -1.055521	 0.331975	 0.692214	 -0.384717	 0.512470	 2
1462073670.675	 0	 1.191788	 1.698911	 1.193011	 1.769734	 -0.184781	 -1.070700	 0.342819	 0.692536	 -0.383146	 0.506031	 2
1462073670.685	 0	 0.678246	 1.372212	 1.255191	 1.782147	 -0.174174	 -1.081249	 0.351893	 0.692441	 -0.380284	 0.502076	 2
1462073670.695	 0	 0.445271	 1.339603	 1.211088	 1.794189	 -0.163339	 -1.088750	 0.359847	 0.692680	 -0.376561	 0.498905	 2
1462073670.705	 0	 0.495438	 1.578673	 1.197955	 1.808182	 -0.152741	 -1.096114	 0.367994	 0.693393	 -0.372442	 0.495050	 2
1462073670.715	 0	 0.834129	 1.615313	 1.253964	 1.823016	 -0.142499	 -1.106364	 0.377132	 0.693746	 -0.368896	 0.490310	 2
1462073670.725	 0	 1.258589	 1.336413	 1.246608	 1.835082	 -0.133299	 -1.120871	 0.386890	 0.692652	 -0.367146	 0.485544	 2
1462073670.735	 0	 1.451005	 1.176331	 1.249837	 1.844928	 -0.125132	 -1.138009	 0.396820	 0.690530	 -0.366704	 0.480865	 2
1462073670.745	 0	 1.448313	 1.207843	 1.340744	 1.854656	 -0.116489	 -1.155746	 0.407010	 0.688059	 -0.366185	 0.476263	 2
1462073670.755	 0	 1.486112	 1.429819	 1.458648	 1.866355	 -0.107001	 -1.174010	 0.417902	 0.685684	 -0.365013	 0.471128	 2
1462073670.765	 0	 1.637359	 1.535181	 1.528652	 1.879532	 -0.097229	 -1.193823	 0.429595	 0.683124	 -0.363681	 0.465324	 2
1462073670.775	 0	 1.800966	 1.674493	 1.445395	 1.893770	 -0.088702	 -1.215304	 0.441655	 0.680449	 -0.362766	 0.458618	 2
1462073670.785	 0	 1.873752	 2.096306	 1.267506	 1.911700	 -0.082315	 -1.237165	 0.453909	 0.678653	 -0.361639	 0.450127	 2
1462073670.795	 0	 2.042454	 2.400551	 1.196397	 1.933251	 -0.077900	 -1.260127	 0.466651	 0.677484	 -0.360350	 0.439773	 2
1462073670.805	 0	 2.303929	 2.392438	 1.210031	 1.955567	 -0.074852	 -1.285377	 0.479930	 0.675881	 -0.359557	 0.428451	 2
1462073670.815	 0	 2.459301	 1.850582	 1.206833	 1.973797	 -0.073062	 -1.312628	 0.492812	 0.672832	 -0.360308	 0.417864	 2
1462073670.825	 0	 2.297736	 0.968361	 1.074271	 1.983788	 -0.072073	 -1.338711	 0.503586	 0.668248	 -0.362899	 0.410061	 2
1462073670.835	 0	 2.143296	 0.451232	 0.689260	 1.987525	 -0.073582	 -1.361864	 0.511640	 0.663372	 -0.367147	 0.404184	 2
1462073670.845	 0	 2.106706	 0.450954	 0.343204	 1.990205	 -0.078284	 -1.382873	 0.518045	 0.659254	 -0.372164	 0.398130	 2
1462073670.855	 0	 2.309154	 0.574223	 0.116647	 1.993974	 -0.085927	 -1.404111	 0.524057	 0.655696	 -0.377774	 0.390787	 2
1462073670.865	 0	 2.544246	 0.592204	 -0.095188	 1.997819	 -0.096574	 -1.426818	 0.529891	 0.652175	 -0.384459	 0.382197	 2
1462073670.875	 0	 2.498424	 0.605284	 -0.363240	 2.001609	 -0.109776	 -1.448653	 0.534861	 0.649208	 -0.391626	 0.372936	 2
1462073670.885	 0	 2.349952	 0.499140	 -0.539851	 2.004716	 -0.124412	 -1.468305	 0.538666	 0.646861	 -0.398846	 0.363773	 2
1462073670.895	 0	 2.103893	 0.200502	 -0.606565	 2.005241	 -0.138942	 -1.485696	 0.541230	 0.644589	 -0.406178	 0.355801	 2
1462073670.905	 0	 1.629845	 -0.061972	 -0.618735	 2.003231	 -0.151998	 -1.499236	 0.542330	 0.642653	 -0.412965	 0.349763	 2
1462073670.915	 0	 1.026752	 -0.193331	 -0.496407	 2.000216	 -0.161757	 -1.507790	 0.542313	 0.641367	 -0.418122	 0.346006	 2
1462073670.925	 0	 0.571421	 -0.320012	 -0.255956	 1.996632	 -0.167496	 -1.512618	 0.541845	 0.640355	 -0.421591	 0.344399	 2
1462073670.935	 0	 0.317410	 -0.556576	 0.020087	 1.991143	 -0.169442	 -1.515865	 0.541293	 0.638842	 -0.424198	 0.344877	 2
1462073670.945	 0	 0.155660	 -0.815556	 0.175752	 1.983232	 -0.168842	 -1.518259	 0.540506	 0.636729	 -0.426579	 0.347073	 2
1462073670.955	 0	 0.084700	 -1.131427	 0.149984	 1.972528	 -0.167710	 -1.519837	 0.538969	 0.634252	 -0.429419	 0.350479	 2
1462073670.965	 0	 -0.027304	 -1.681998	 0.010484	 1.957234	 -0.167288	 -1.520125	 0.535856	 0.631406	 -0.433460	 0.355384	 2
1462073670.975	 0	 -0.308937	 -2.423724	 -0.157027	 1.935295	 -0.167537	 -1.517561	 0.530207	 0.628192	 -0.438917	 0.362777	 2
1462073670.985	 0	 -0.710612	 -3.027021	 -0.350981	 1.907534	 -0.168263	 -1.510732	 0.521764	 0.625007	 -0.445165	 0.372768	 2
1462073670.995	 0	 -1.058139	 -3.395998	 -0.624234	 1.875566	 -0.170842	 -1.499678	 0.510537	 0.622258	 -0.452040	 0.384457	 2
1462073671.005	 0	 -1.237704	 -3.640281	 -0.941483	 1.841644	 -0.176059	 -1.485539	 0.497152	 0.620118	 -0.459262	 0.396702	 2
1462073671.015	 0	 -1.230752	 -3.798190	 -1.152974	 1.806238	 -0.183943	 -1.470590	 0.482359	 0.618060	 -0.467070	 0.408873	 2
1462073671.025	 0	 -1.204834	 -3.921971	 -1.196986	 1.769448	 -0.193062	 -1.456111	 0.466887	 0.615514	 -0.475250	 0.421067	 2
1462073671.035	 0	 -1.209092	 -3.881012	 -0.971686	 1.730609	 -0.199966	 -1.442643	 0.451628	 0.611566	 -0.483119	 0.434298	 2
1462073671.045	 0	 -1.428007	 -3.901021	 -0.445605	 1.694424	 -0.203487	 -1.428026	 0.437427	 0.607488	 -0.488858	 0.447921	 2
1462073671.055	 0	 -1.580389	 -3.765560	 -0.011360	 1.658798	 -0.201051	 -1.412321	 0.424612	 0.602299	 -0.492329	 0.463199	 2
1462073671.065	 0	 -1.554470	 -3.535372	 0.060897	 1.626017	 -0.199290	 -1.396342	 0.412224	 0.597597	 -0.494978	 0.477437	 2
1462073671.075	 0	 -1.364053	 -3.276741	 -0.131258	 1.595450	 -0.199448	 -1.381844	 0.400276	 0.593178	 -0.497721	 0.490095	 2
1462073671.085	 0	 -1.056517	 -3.004179	 -0.408497	 1.567103	 -0.202720	 -1.370217	 0.388801	 0.589088	 -0.501254	 0.500553	 2
1462073671.095	 0	 -0.799369	 -2.813085	 -0.646623	 1.540271	 -0.208778	 -1.361590	 0.377709	 0.585155	 -0.505716	 0.509097	 2
1462073671.105	 0	 -0.702603	 -2.525237	 -0.807849	 1.515699	 -0.216830	 -1.354598	 0.366991	 0.581745	 -0.510461	 0.516062	 2
1462073671.115	 0	 -0.764387	 -2.218166	 -0.875859	 1.494358	 -0.225922	 -1.347619	 0.356708	 0.579265	 -0.514691	 0.521828	 2
1462073671.125	 0	 -0.932538	 -2.082916	 -0.920030	 1.475195	 -0.235745	 -1.339355	 0.346317	 0.577630	 -0.518215	 0.527126	 2
1462073671.135	 0	 -1.142844	 -2.060289	 -0.964882	 1.456998	 -0.246373	 -1.329228	 0.335322	 0.576626	 -0.521112	 0.532451	 2
1462073671.145	 0	 -1.351202	 -2.075968	 -1.011173	 1.439279	 -0.257870	 -1.317181	 0.323558	 0.576115	 -0.523455	 0.537955	 2
1462073671.155	 0	 -1.569035	 -2.046043	 -1.079338	 1.422307	 -0.270491	 -1.303205	 0.311006	 0.576188	 -0.525241	 0.543511	 2
1462073671.165	 0	 -1.777868	 -1.690690	 -1.148817	 1.408604	 -0.284365	 -1.287250	 0.298263	 0.577530	 -0.526095	 0.548382	 2
1462073671.175	 0	 -1.816140	 -0.936891	 -1.209676	 1.401988	 -0.299138	 -1.270586	 0.286808	 0.580920	 -0.525782	 0.551204	 2
1462073671.185	 0	 -1.675170	 -0.144650	 -1.319700	 1.403325	 -0.314728	 -1.255080	 0.277429	 0.586329	 -0.524795	 0.551218	 2
1462073671.195	 0	 -1.472148	 0.481254	 -1.461653	 1.410914	 -0.331268	 -1.241693	 0.269917	 0.593187	 -0.523768	 0.548580	 2
1462073671.205	 0	 -1.346077	 0.902775	 -1.658126	 1.422929	 -0.349219	 -1.229970	 0.263514	 0.601118	 -0.522987	 0.543785	 2
1462073671.215	 0	 -1.341727	 1.128572	 -1.906516	 1.437771	 -0.369339	 -1.218572	 0.257149	 0.609942	 -0.522507	 0.537430	 2
1462073671.225	 0	 -1.357331	 1.218100	 -2.180514	 1.454095	 -0.391942	 -1.206910	 0.250185	 0.619358	 -0.522444	 0.529959	 2
1462073671.235	 0	 -1.303234	 1.249152	 -2.569699	 1.470991	 -0.417853	 -1.195505	 0.242266	 0.629105	 -0.523262	 0.521277	 2
1462073671.245	 0	 -1.215884	 1.321541	 -2.965184	 1.488441	 -0.447585	 -1.184816	 0.233365	 0.639110	 -0.525213	 0.511107	 2
1462073671.255	 0	 -1.052122	 1.374838	 -3.176069	 1.506516	 -0.479719	 -1.175101	 0.224079	 0.649073	 -0.528032	 0.499675	 2
1462073671.265	 0	 -0.784612	 1.159703	 -3.547022	 1.522250	 -0.514410	 -1.167600	 0.213996	 0.658090	 -0.532367	 0.487554	 2
1462073671.275	 0	 -0.531156	 0.894718	 -3.904462	 1.534433	 -0.552895	 -1.162640	 0.202495	 0.665978	 -0.538615	 0.474724	 2
1462073671.285	 0	 -0.398657	 0.599724	 -4.049042	 1.543059	 -0.593254	 -1.159126	 0.189854	 0.672650	 -0.545960	 0.461980	 2
1462073671.295	 0	 -0.435738	 0.432829	 -4.051338	 1.549840	 -0.633901	 -1.155266	 0.176461	 0.678542	 -0.553386	 0.449673	 2
1462073671.305	 0	 -0.579914	 0.528841	 -3.923429	 1.558416	 -0.673639	 -1.149301	 0.163128	 0.684508	 -0.559921	 0.437408	 2
1462073671.315	 0	 -0.874381	 0.793114	 -3.680741	 1.571896	 -0.711154	 -1.139406	 0.150566	 0.691192	 -0.564747	 0.425023	 2
1462073671.325	 0	 -1.805750	 1.577906	 -3.198525	 1.598817	 -0.744413	 -1.118725	 0.139506	 0.700601	 -0.565594	 0.412068	 2
1462073671.335	 0	 -3.502495	 2.924851	 -2.361238	 1.655736	 -0.768332	 -1.074132	 0.131507	 0.716386	 -0.558022	 0.397629	 2
1462073671.345	 0	 -3.775819	 3.147229	 -1.580915	 1.726562	 -0.781379	 -1.018137	 0.126345	 0.734238	 -0.545613	 0.383715	 2
1462073671.355	 0	 -2.660318	 2.736266	 -0.747170	 1.786553	 -0.785301	 -0.973829	 0.124827	 0.748409	 -0.534466	 0.372355	 2
1462073671.365	 0	 -0.704602	 2.245451	 0.268221	 1.821125	 -0.782446	 -0.957442	 0.128775	 0.755816	 -0.528495	 0.364488	 2
1462073671.375	 0	 0.546228	 3.387906	 1.085401	 1.846067	 -0.774524	 -0.964796	 0.140665	 0.759836	 -0.525982	 0.355254	 2
1462073671.385	 0	 0.899821	 4.909726	 1.786031	 1.879379	 -0.761520	 -0.982558	 0.160264	 0.764347	 -0.522974	 0.341450	 2
1462073671.395	 0	 0.987058	 5.937135	 2.109232	 1.921653	 -0.745121	 -1.004292	 0.184672	 0.769550	 -0.518327	 0.324077	 2
1462073671.405	 0	 1.022739	 6.365828	 1.985019	 1.969286	 -0.729931	 -1.027133	 0.210359	 0.774811	 -0.512842	 0.303990	 2
1462073671.415	 0	 0.857081	 6.074113	 1.732227	 2.017209	 -0.717305	 -1.048150	 0.234460	 0.779552	 -0.506897	 0.283520	 2
1462073671.425	 0	 0.283242	 5.232541	 1.465083	 2.062534	 -0.705684	 -1.062650	 0.254869	 0.784052	 -0.499865	 0.265403	 2
1462073671.435	 0	 -0.618966	 3.788798	 1.188801	 2.101963	 -0.692790	 -1.066358	 0.269701	 0.788761	 -0.491237	 0.252594	 2
1462073671.445	 0	 -1.543863	 2.156031	 0.797986	 2.132850	 -0.678175	 -1.057916	 0.277864	 0.793909	 -0.481391	 0.246502	 2
1462073671.455	 0	 -2.137954	 0.753031	 0.397902	 2.155003	 -0.663102	 -1.039609	 0.279885	 0.799371	 -0.471231	 0.246194	 2
1462073671.465	 0	 -2.265944	 -0.137711	 0.130682	 2.169125	 -0.648883	 -1.017304	 0.277987	 0.804435	 -0.461855	 0.249594	 2
1462073671.475	 0	 -2.074766	 -0.556110	 -0.140250	 2.177841	 -0.637350	 -0.994835	 0.273929	 0.808819	 -0.453989	 0.254301	 2
1462073671.485	 0	 -1.744149	 -0.597350	 -0.413151	 2.184230	 -0.629698	 -0.973737	 0.268797	 0.812639	 -0.447835	 0.258477	 2
1462073671.495	 0	 -1.346911	 -0.331269	 -0.667785	 2.191192	 -0.626248	 -0.954806	 0.263526	 0.816132	 -0.443273	 0.260752	 2
1462073671.505	 0	 -0.952900	 0.119140	 -0.879111	 2.200875	 -0.626869	 -0.938317	 0.258763	 0.819532	 -0.440075	 0.260275	 2
1462073671.515	 0	 -0.660896	 0.597011	 -1.011493	 2.214135	 -0.630451	 -0.923879	 0.254837	 0.823003	 -0.437752	 0.257093	 2
1462073671.526	 0	 -0.434643	 1.072662	 -1.036746	 2.231215	 -0.635775	 -0.911213	 0.252009	 0.826611	 -0.435848	 0.251482	 2
1462073671.535	 0	 -0.207489	 1.311801	 -0.822281	 2.249519	 -0.641093	 -0.901725	 0.250744	 0.829880	 -0.434254	 0.244644	 2
1462073671.545	 0	 0.059008	 1.438792	 -0.510085	 2.266470	 -0.645574	 -0.896960	 0.251343	 0.832339	 -0.433151	 0.237525	 2
1462073671.556	 0	 0.303705	 1.477492	 -0.208113	 2.281164	 -0.649329	 -0.897039	 0.253647	 0.833885	 -0.432652	 0.230461	 2
1462073671.565	 0	 0.443170	 1.428853	 0.034279	 2.293358	 -0.652209	 -0.900828	 0.257174	 0.834654	 -0.432560	 0.223843	 2
1462073671.575	 0	 0.495897	 1.411564	 0.164748	 2.303930	 -0.654406	 -0.906536	 0.261320	 0.834978	 -0.432611	 0.217651	 2
1462073671.586	 0	 0.559290	 1.667176	 0.237981	 2.315539	 -0.656402	 -0.913466	 0.266252	 0.835211	 -0.432542	 0.210808	 2
1462073671.595	 0	 0.653197	 2.118929	 0.237104	 2.330758	 -0.658917	 -0.921377	 0.272257	 0.835592	 -0.432217	 0.202113	 2
1462073671.605	 0	 0.740807	 2.493032	 0.086352	 2.350084	 -0.662951	 -0.929094	 0.278723	 0.836223	 -0.431772	 0.191356	 2
1462073671.616	 0	 0.840305	 2.756821	 -0.164645	 2.373125	 -0.669430	 -0.935467	 0.284881	 0.837105	 -0.431464	 0.178709	 2
1462073671.625	 0	 0.985161	 2.923555	 -0.433993	 2.398938	 -0.678822	 -0.940339	 0.290381	 0.838070	 -0.431585	 0.164475	 2
1462073671.635	 0	 1.160584	 2.993550	 -0.684257	 2.426524	 -0.691296	 -0.943911	 0.295083	 0.838915	 -0.432380	 0.148981	 2
1462073671.646	 0	 1.329959	 2.875624	 -0.890390	 2.454143	 -0.706579	 -0.946348	 0.298773	 0.839435	 -0.434046	 0.132995	 2
1462073671.656	 0	 1.469104	 2.626394	 -1.028207	 2.480032	 -0.724011	 -0.947900	 0.301343	 0.839492	 -0.436655	 0.117379	 2
1462073671.666	 0	 1.588275	 2.248241	 -1.205416	 2.503342	 -0.743416	 -0.948207	 0.302504	 0.839113	 -0.440282	 0.102623	 2
1462073671.676	 0	 1.728533	 1.874832	 -1.453106	 2.524181	 -0.765192	 -0.946411	 0.301842	 0.838414	 -0.445052	 0.088787	 2
1462073671.685	 0	 2.128870	 1.022757	 -1.748013	 2.539553	 -0.791198	 -0.943112	 0.298551	 0.836997	 -0.452154	 0.076548	 2
1462073671.695	 0	 2.598524	 -1.352327	 -1.857333	 2.533889	 -0.822488	 -0.941900	 0.290267	 0.833688	 -0.464351	 0.071325	 2
1462073671.706	 0	 1.674945	 -3.832112	 -1.714634	 2.503338	 -0.848972	 -0.937826	 0.275750	 0.830241	 -0.478047	 0.078309	 2
1462073671.716	 0	 -0.141118	 -3.745304	 -1.478467	 2.476203	 -0.861030	 -0.922279	 0.260130	 0.829851	 -0.485314	 0.090269	 2
1462073671.726	 0	 -2.565362	 -1.434311	 -1.170480	 2.480611	 -0.853356	 -0.888723	 0.248908	 0.835189	 -0.480430	 0.098447	 2
1462073671.736	 0	 -3.407660	 -0.019517	 -1.044471	 2.509833	 -0.833183	 -0.845828	 0.242119	 0.844238	 -0.467332	 0.101197	 2
1462073671.746	 0	 -2.475616	 0.278853	 -1.030626	 2.538942	 -0.816393	 -0.809587	 0.236895	 0.852047	 -0.455714	 0.101099	 2
1462073671.756	 0	 -1.041593	 0.181403	 -0.982204	 2.558009	 -0.810507	 -0.786285	 0.232420	 0.856457	 -0.450058	 0.099549	 2
1462073671.766	 0	 -0.061924	 -0.127082	 -0.884897	 2.567289	 -0.813152	 -0.772997	 0.228300	 0.858115	 -0.449354	 0.097978	 2
1462073671.776	 0	 0.614280	 -0.758942	 -0.768773	 2.565811	 -0.821310	 -0.766943	 0.223803	 0.857685	 -0.452378	 0.098203	 2
1462073671.786	 0	 0.994071	 -1.454672	 -0.779619	 2.554447	 -0.833208	 -0.764923	 0.218046	 0.855801	 -0.458117	 0.100945	 2
1462073671.796	 0	 1.060790	 -1.928922	 -0.882663	 2.537383	 -0.846781	 -0.763285	 0.210735	 0.853318	 -0.465056	 0.105652	 2
1462073671.806	 0	 0.799141	 -2.271928	 -1.060493	 2.519214	 -0.859869	 -0.758387	 0.201764	 0.851107	 -0.471633	 0.111674	 2
1462073671.816	 0	 0.709433	 -2.458260	 -1.124326	 2.500729	 -0.871836	 -0.750612	 0.191625	 0.849210	 -0.477516	 0.118749	 2
1462073671.826	 0	 1.752751	 -1.764429	 -1.239925	 2.481731	 -0.890610	 -0.749405	 0.182623	 0.845638	 -0.486239	 0.122953	 2
1462073671.836	 0	 2.728887	 -0.974353	 -1.457422	 2.464450	 -0.919169	 -0.756964	 0.175466	 0.839968	 -0.498777	 0.122008	 2
1462073671.846	 0	 2.751810	 -0.634113	 -1.464047	 2.448677	 -0.950394	 -0.767699	 0.169162	 0.833685	 -0.512090	 0.118817	 2
1462073671.856	 0	 1.138871	 0.016569	 -1.270229	 2.446055	 -0.971562	 -0.768600	 0.164176	 0.830388	 -0.519920	 0.114826	 2
1462073671.866	 0	 -1.201860	 1.439734	 -1.182252	 2.476315	 -0.973893	 -0.744634	 0.161541	 0.833675	 -0.516957	 0.107922	 2
1462073671.876	 0	 -1.864088	 2.799710	 -1.062584	 2.529959	 -0.965917	 -0.709958	 0.162434	 0.840476	 -0.507919	 0.096090	 2
1462073671.886	 0	 -1.464883	 3.403459	 -0.953865	 2.587197	 -0.957994	 -0.680362	 0.165904	 0.846748	 -0.498925	 0.081037	 2
1462073671.895	 0	 -0.765147	 3.348094	 -0.972196	 2.639728	 -0.954598	 -0.657667	 0.169907	 0.851156	 -0.492378	 0.065033	 2
1462073671.905	 0	 0.052549	 2.841557	 -1.117250	 2.684144	 -0.958201	 -0.639891	 0.172618	 0.853311	 -0.489474	 0.049787	 2
1462073671.916	 0	 0.813960	 1.995425	 -1.326787	 2.719157	 -0.969332	 -0.624349	 0.172759	 0.853351	 -0.490514	 0.036625	 2
1462073671.926	 0	 1.369117	 1.041810	 -1.481175	 2.744113	 -0.986512	 -0.609592	 0.169947	 0.851715	 -0.494968	 0.026586	 2
1462073671.936	 0	 1.649329	 0.085653	 -1.803715	 2.762724	 -1.007808	 -0.591384	 0.163641	 0.849208	 -0.501681	 0.019556	 2
1462073671.946	 0	 1.680934	 -0.892897	 -2.088062	 2.776764	 -1.030741	 -0.567207	 0.153597	 0.846510	 -0.509485	 0.015915	 2
1462073671.956	 0	 1.707228	 -1.558373	 -2.469632	 2.790493	 -1.054932	 -0.534923	 0.140071	 0.843787	 -0.517872	 0.014565	 2
1462073671.966	 0	 1.812441	 -1.818536	 -2.808684	 2.808640	 -1.080886	 -0.493947	 0.124058	 0.840810	 -0.526744	 0.013735	 2
1462073671.976	 0	 1.962600	 -1.735183	 -2.987198	 2.833572	 -1.108440	 -0.445957	 0.107074	 0.837298	 -0.536021	 0.012209	 2
1462073671.986	 0	 2.135412	 -1.432462	 -2.827087	 2.863465	 -1.136847	 -0.395917	 0.090982	 0.832990	 -0.545671	 0.009692	 2
1462073671.996	 0	 2.322935	 -1.058840	 -2.271047	 2.891122	 -1.165179	 -0.353047	 0.077836	 0.827695	 -0.555713	 0.006822	 2
1462073672.006	 0	 2.479588	 -0.774618	 -1.588744	 2.909907	 -1.193103	 -0.323642	 0.068308	 0.821460	 -0.566143	 0.004464	 2
1462073672.016	 0	 2.583087	 -0.569838	 -1.029280	 2.918141	 -1.220646	 -0.308216	 0.061859	 0.814511	 -0.576833	 0.002855	 2
1462073672.026	 0	 2.661063	 -0.394177	 -0.681952	 2.918098	 -1.248082	 -0.303642	 0.057557	 0.807040	 -0.587682	 0.001635	 2
1462073672.036	 0	 2.821381	 -0.246748	 -0.527440	 2.912717	 -1.276209	 -0.306307	 0.054512	 0.799009	 -0.598843	 0.000366	 2
1462073672.046	 0	 3.717019	 -0.265515	 -0.702701	 2.901680	 -1.307053	 -0.315103	 0.051819	 0.789892	 -0.611052	 -0.000875	 2
1462073672.056	 0	 4.586208	 -0.558689	 -1.032700	 2.887791	 -1.349571	 -0.324383	 0.047049	 0.777164	 -0.627531	 -0.002544	 2
1462073672.066	 0	 4.801853	 -1.049002	 -1.237362	 2.872741	 -1.398244	 -0.330303	 0.039624	 0.762361	 -0.645927	 -0.003660	 2
1462073672.076	 0	 4.270894	 -1.636560	 -1.220089	 2.856471	 -1.444391	 -0.331730	 0.030002	 0.748057	 -0.662949	 -0.002887	 2
1462073672.086	 0	 3.246185	 -2.106215	 -0.984266	 2.834911	 -1.481156	 -0.333189	 0.019326	 0.736409	 -0.676260	 0.000602	 2
1462073672.096	 0	 2.079528	 -1.998132	 -0.632059	 2.806398	 -1.505918	 -0.341045	 0.009675	 0.728367	 -0.685096	 0.005540	 2
1462073672.106	 0	 1.088893	 -1.391188	 -0.351345	 2.779858	 -1.519688	 -0.351987	 0.002867	 0.723797	 -0.689938	 0.009757	 2
1462073672.116	 0	 0.420666	 -0.601482	 -0.258246	 2.782800	 -1.525962	 -0.341010	 -0.000852	 0.721791	 -0.692011	 0.011719	 2
1462073672.126	 0	 0.052806	 0.156775	 -0.273566	 2.830434	 -1.528046	 -0.293056	 -0.001902	 0.721345	 -0.692488	 0.010895	 2
1462073672.136	 0	 -0.063938	 0.781150	 -0.315765	 2.908537	 -1.528402	 -0.221242	 -0.000800	 0.721538	 -0.692333	 0.007551	 2
1462073672.146	 0	 0.039494	 1.269639	 -0.380328	 3.004601	 -1.529031	 -0.136619	 0.001882	 0.721580	 -0.692325	 0.002145	 2
1462073672.156	 0	 0.444339	 1.631734	 -0.445495	 3.122013	 -1.532615	 -0.034741	 0.005726	 0.720451	 -0.693464	 -0.004993	 2
1462073672.166	 0	 1.019380	 1.552745	 -0.399037	 -3.007048	 -1.541101	 0.103484	 0.009734	 0.717368	 -0.696519	 -0.012227	 2
1462073672.175	 0	 1.545462	 1.204390	 -0.262981	 -2.693142	 -1.554035	 0.404456	 0.013102	 0.712306	 -0.701516	 -0.018004	 2
1462073672.185	 0	 1.864021	 0.769280	 -0.147241	 -1.255855	 -1.561284	 1.833041	 0.015405	 0.705896	 -0.707810	 -0.021853	 2
1462073672.195	 0	 1.950828	 0.366163	 -0.113380	 -0.425494	 -1.546189	 2.658860	 0.016417	 0.698946	 -0.714582	 -0.024049	 2
1462073672.205	 0	 1.856499	 0.057939	 -0.120756	 -0.267290	 -1.527959	 2.815859	 0.016230	 0.692159	 -0.721126	 -0.025080	 2
1462073672.215	 0	 1.573097	 -0.334426	 -0.073980	 -0.210038	 -1.511676	 2.875477	 0.014886	 0.686210	 -0.726830	 -0.024744	 2
1462073672.225	 0	 1.289629	 -0.739564	 -0.028388	 -0.182051	 -1.498277	 2.909866	 0.012284	 0.681337	 -0.731511	 -0.022815	 2
1462073672.235	 0	 1.050146	 -1.308740	 0.001439	 -0.169426	 -1.487394	 2.934146	 0.007908	 0.677408	 -0.735321	 -0.018952	 2
1462073672.245	 0	 0.904598	 -1.825424	 -0.025548	 -0.170427	 -1.478153	 2.950327	 0.001471	 0.674101	 -0.738519	 -0.013249	 2
1462073672.255	 0	 0.812819	 -1.966290	 -0.127308	 -0.184623	 -1.469765	 2.955738	 -0.006141	 0.671111	 -0.741299	 -0.007011	 2
1462073672.265	 0	 0.730976	 -1.755610	 -0.295157	 -0.211950	 -1.461904	 2.946574	 -0.013753	 0.668347	 -0.743720	 -0.001799	 2
1462073672.275	 0	 0.636199	 -1.544067	 -0.495923	 -0.252601	 -1.454449	 2.921597	 -0.021132	 0.665847	 -0.745786	 0.001883	 2
1462073672.286	 0	 0.501735	 -1.623646	 -0.670278	 -0.306462	 -1.447532	 2.883289	 -0.029128	 0.663732	 -0.747388	 0.004857	 2
1462073672.295	 0	 0.255684	 -1.895908	 -0.766588	 -0.371813	 -1.441964	 2.835803	 -0.038418	 0.662326	 -0.748186	 0.008162	 2
1462073672.305	 0	 -0.169752	 -2.050949	 -0.757932	 -0.447451	 -1.439388	 2.779957	 -0.048539	 0.662253	 -0.747611	 0.011992	 2
1462073672.316	 0	 -0.755695	 -1.949351	 -0.625059	 -0.533914	 -1.441552	 2.712823	 -0.058220	 0.664182	 -0.745130	 0.015939	 2
1462073672.325	 0	 -1.403276	 -1.684883	 -0.351585	 -0.634414	 -1.449559	 2.629185	 -0.066269	 0.668509	 -0.740481	 0.019790	 2
1462073672.335	 0	 -2.041628	 -1.596171	 0.036342	 -0.760314	 -1.463588	 2.518561	 -0.072594	 0.675249	 -0.733607	 0.024264	 2
1462073672.345	 0	 -2.627856	 -1.585949	 0.475306	 -0.943188	 -1.482785	 2.350913	 -0.077530	 0.684238	 -0.724501	 0.030101	 2
1462073672.355	 0	 -3.098578	 -1.265756	 0.877782	 -1.254208	 -1.503561	 2.052648	 -0.080228	 0.695058	 -0.713534	 0.036432	 2
1462073672.365	 0	 -3.475070	 -0.712218	 1.082311	 -1.816451	 -1.515667	 1.498049	 -0.080275	 0.707288	 -0.701109	 0.041790	 2
1462073672.375	 0	 -3.734413	 -0.024481	 1.066456	 -2.437714	 -1.504922	 0.877782	 -0.077928	 0.720429	 -0.687677	 0.044819	 2
1462073672.385	 0	 -3.898145	 0.846554	 0.991792	 -2.784203	 -1.476232	 0.524027	 -0.073038	 0.734094	 -0.673638	 0.044525	 2
1462073672.395	 0	 -3.903784	 1.868022	 1.045042	 -2.950150	 -1.441182	 0.340950	 -0.064745	 0.747832	 -0.659471	 0.040652	 2
1462073672.406	 0	 -3.764170	 3.068373	 1.183954	 -3.036325	 -1.405188	 0.225923	 -0.052127	 0.761086	 -0.645718	 0.032846	 2
1462073672.416	 0	 -3.601231	 4.185072	 1.383698	 -3.084391	 -1.369945	 0.137168	 -0.035001	 0.773540	 -0.632424	 0.021244	 2
1462073672.426	 0	 -3.476503	 5.080987	 1.629679	 -3.113150	 -1.335592	 0.057858	 -0.013906	 0.785035	 -0.619258	 0.006749	 2
1462073672.436	 0	 -3.387255	 5.768964	 1.787708	 -3.127906	 -1.301866	 -0.015339	 0.010247	 0.795445	 -0.605855	 -0.010091	 2
1462073672.446	 0	 -3.275256	 6.178394	 1.824647	 -3.130446	 -1.269024	 -0.081440	 0.036086	 0.804546	 -0.592101	 -0.028616	 2
1462073672.456	 0	 -3.083175	 6.438103	 1.781695	 -3.122751	 -1.237928	 -0.140495	 0.062618	 0.812051	 -0.578197	 -0.048376	 2
1462073672.466	 0	 -2.827542	 6.436471	 1.660089	 -3.107067	 -1.209432	 -0.192549	 0.088836	 0.817789	 -0.564446	 -0.068777	 2
1462073672.476	 0	 -2.873338	 5.196661	 1.544506	 -3.093685	 -1.181823	 -0.238564	 0.112041	 0.822708	 -0.550634	 -0.086026	 2
1462073672.486	 0	 -2.915400	 3.231946	 1.349673	 -3.092413	 -1.153466	 -0.277995	 0.129383	 0.828055	 -0.537010	 -0.095939	 2
1462073672.496	 0	 -2.938848	 0.709668	 1.130306	 -3.107359	 -1.124599	 -0.309357	 0.139339	 0.834402	 -0.524460	 -0.096432	 2
1462073672.506	 0	 -2.746058	 -1.665453	 0.904032	 -3.138837	 -1.096713	 -0.332190	 0.141800	 0.841519	 -0.513916	 -0.087345	 2
1462073672.516	 0	 -2.373201	 -3.255653	 0.747439	 3.101227	 -1.071839	 -0.347971	 0.138659	 0.848430	 -0.505824	 -0.071287	 2
1462073672.526	 0	 -1.961148	 -4.043652	 0.639534	 3.052883	 -1.050852	 -0.358839	 0.132351	 0.854355	 -0.499890	 -0.051680	 2
1462073672.536	 0	 -1.587033	 -4.313253	 0.574086	 3.003425	 -1.033514	 -0.366688	 0.124602	 0.859033	 -0.495566	 -0.030853	 2
1462073672.546	 0	 -1.231861	 -4.324137	 0.536788	 2.954754	 -1.019618	 -0.372937	 0.116375	 0.862407	 -0.492554	 -0.010068	 2
1462073672.556	 0	 -0.895652	 -4.096375	 0.546637	 2.907829	 -1.008926	 -0.379106	 0.108469	 0.864508	 -0.490677	 0.009812	 2
1462073672.566	 0	 -0.592110	 -3.575840	 0.581877	 2.864515	 -1.001029	 -0.386304	 0.101757	 0.865492	 -0.489697	 0.027672	 2
1462073672.576	 0	 -0.313784	 -2.763642	 0.639233	 2.827163	 -0.995558	 -0.395259	 0.097088	 0.865595	 -0.489418	 0.042296	 2
1462073672.586	 0	 -0.141990	 -1.943416	 0.733828	 2.796411	 -0.991641	 -0.406511	 0.094891	 0.865166	 -0.489529	 0.053337	 2
1462073672.596	 0	 -0.104456	 -1.081304	 0.829982	 2.772325	 -0.987753	 -0.419598	 0.095140	 0.864682	 -0.489433	 0.061056	 2
1462073672.605	 0	 -0.066281	 -0.039819	 0.874511	 2.757438	 -0.983890	 -0.433685	 0.098089	 0.864344	 -0.488998	 0.064566	 2
1462073672.616	 0	 -0.116442	 1.077228	 0.889605	 2.753719	 -0.979639	 -0.447856	 0.103871	 0.864391	 -0.487885	 0.063303	 2
1462073672.626	 0	 -0.259252	 2.048495	 0.858322	 2.761192	 -0.974332	 -0.460764	 0.111982	 0.865011	 -0.485685	 0.057679	 2
1462073672.636	 0	 -0.417708	 2.684425	 0.779292	 2.777833	 -0.967888	 -0.471546	 0.121530	 0.866140	 -0.482340	 0.048786	 2
1462073672.646	 0	 -0.553751	 2.898837	 0.664173	 2.799718	 -0.960580	 -0.479809	 0.131312	 0.867582	 -0.478109	 0.038355	 2
1462073672.656	 0	 -0.628068	 2.865126	 0.532351	 2.823792	 -0.952928	 -0.485645	 0.140529	 0.869136	 -0.473385	 0.027596	 2
1462073672.666	 0	 -0.632608	 2.699263	 0.392298	 2.848194	 -0.945578	 -0.489378	 0.148782	 0.870629	 -0.468588	 0.017132	 2
1462073672.676	 0	 -0.564999	 2.460723	 0.232823	 2.872026	 -0.939183	 -0.491083	 0.155819	 0.871942	 -0.464096	 0.007234	 2
1462073672.686	 0	 -0.395314	 2.169539	 0.042128	 2.894801	 -0.934651	 -0.490661	 0.161397	 0.872926	 -0.460377	 -0.001989	 2
1462073672.696	 0	 -0.113522	 1.898160	 -0.158951	 2.916467	 -0.933050	 -0.488111	 0.165426	 0.873393	 -0.457936	 -0.010649	 2
1462073672.706	 0	 0.280514	 1.665817	 -0.358513	 2.937215	 -0.935450	 -0.483670	 0.167994	 0.873116	 -0.457259	 -0.019005	 2
1462073672.715	 0	 0.695643	 1.613103	 -0.566179	 2.958697	 -0.942227	 -0.477055	 0.169379	 0.872010	 -0.458411	 -0.027722	 2
1462073672.726	 0	 1.146920	 1.737022	 -0.749068	 2.982899	 -0.953589	 -0.468142	 0.170038	 0.869960	 -0.461348	 -0.037607	 2
1462073672.736	 0	 1.616792	 2.149414	 -0.892134	 3.012176	 -0.969633	 -0.457046	 0.170661	 0.866782	 -0.465940	 -0.049633	 2
1462073672.746	 0	 2.305163	 3.161223	 -1.010210	 3.051820	 -0.991638	 -0.443681	 0.172510	 0.861857	 -0.472310	 -0.066071	 2
1462073672.756	 0	 2.937875	 4.137042	 -1.127069	 3.106126	 -1.020696	 -0.426417	 0.176139	 0.854516	 -0.480619	 -0.088222	 2
1462073672.766	 0	 2.304782	 3.180398	 -0.859755	 -3.125813	 -1.046140	 -0.408097	 0.179395	 0.847493	 -0.487779	 -0.107915	 2
1462073672.776	 0	 -0.221056	 1.768171	 0.059257	 -3.101991	 -1.051439	 -0.403746	 0.183130	 0.845240	 -0.488114	 -0.117379	 2
1462073672.786	 0	 -1.621161	 2.163892	 0.674088	 -3.092531	 -1.037348	 -0.416202	 0.191273	 0.846972	 -0.480487	 -0.123231	 2
1462073672.796	 0	 -1.432328	 2.143031	 0.953611	 -3.086839	 -1.022749	 -0.435109	 0.201240	 0.848306	 -0.472509	 -0.128897	 2
1462073672.806	 0	 -1.033815	 1.494697	 1.032566	 -3.087542	 -1.011919	 -0.455802	 0.210311	 0.848822	 -0.466603	 -0.132483	 2
1462073672.816	 0	 -0.534298	 0.582106	 0.792718	 -3.093776	 -1.005747	 -0.472812	 0.216357	 0.848889	 -0.463500	 -0.133208	 2
1462073672.826	 0	 -0.050562	 -0.324586	 0.333514	 -3.102042	 -1.004279	 -0.481376	 0.218147	 0.848852	 -0.463205	 -0.131539	 2
1462073672.836	 0	 0.350570	 -1.132871	 -0.082489	 -3.111474	 -1.006848	 -0.481461	 0.215865	 0.848849	 -0.465318	 -0.127814	 2
1462073672.846	 0	 0.747184	 -1.709947	 -0.298070	 -3.123041	 -1.013204	 -0.476258	 0.210622	 0.848626	 -0.469583	 -0.122330	 2
1462073672.856	 0	 1.156697	 -1.588448	 -0.245086	 -3.135188	 -1.023736	 -0.470853	 0.204885	 0.847411	 -0.475642	 -0.116965	 2
1462073672.866	 0	 1.531655	 -0.252782	 -0.125082	 -3.139265	 -1.038233	 -0.467811	 0.201805	 0.844479	 -0.482369	 -0.115971	 2
1462073672.876	 0	 0.603439	 0.429798	 0.197357	 -3.136354	 -1.047808	 -0.469328	 0.202603	 0.841834	 -0.486024	 -0.118525	 2
1462073672.886	 0	 -0.851552	 -0.745154	 0.681882	 3.132369	 -1.042599	 -0.481038	 0.204333	 0.842749	 -0.484620	 -0.114743	 2
1462073672.896	 0	 -1.692132	 -1.325736	 0.656088	 3.108914	 -1.027234	 -0.493844	 0.205071	 0.846405	 -0.479843	 -0.106277	 2
1462073672.906	 0	 -1.915822	 -1.045940	 0.428304	 3.090735	 -1.008140	 -0.501657	 0.205369	 0.850997	 -0.473254	 -0.098276	 2
1462073672.916	 0	 -1.750841	 -0.479175	 0.182753	 3.082322	 -0.989939	 -0.504274	 0.205807	 0.855297	 -0.466289	 -0.093199	 2
1462073672.926	 0	 -1.382740	 -0.069302	 -0.055369	 3.081897	 -0.975127	 -0.502795	 0.206132	 0.858802	 -0.460105	 -0.090948	 2
1462073672.936	 0	 -0.916216	 0.218576	 -0.356232	 3.088405	 -0.964951	 -0.496841	 0.205771	 0.861385	 -0.455363	 -0.091206	 2
1462073672.946	 0	 -0.474808	 0.380005	 -0.650591	 3.100516	 -0.959433	 -0.486244	 0.204317	 0.863137	 -0.452246	 -0.093399	 2
1462073672.956	 0	 -0.172048	 0.506141	 -0.881193	 3.117154	 -0.957335	 -0.471730	 0.201932	 0.864285	 -0.450345	 -0.097081	 2
1462073672.966	 0	 -0.002744	 0.607248	 -1.097010	 3.137786	 -0.957098	 -0.453646	 0.198766	 0.865123	 -0.449075	 -0.101910	 2
1462073672.976	 0	 0.173444	 0.592332	 -1.322493	 -3.121293	 -0.958211	 -0.431586	 0.194574	 0.865779	 -0.448342	 -0.107500	 2
1462073672.986	 0	 0.530522	 0.366083	 -1.430020	 -3.096509	 -0.962028	 -0.406706	 0.189206	 0.865933	 -0.448994	 -0.112986	 2
1462073672.996	 0	 1.069662	 -0.109276	 -1.348548	 -3.075597	 -0.970507	 -0.381527	 0.182737	 0.865120	 -0.452189	 -0.117045	 2
1462073673.006	 0	 1.675564	 -0.612217	 -1.083537	 -3.061739	 -0.984865	 -0.358879	 0.175715	 0.862978	 -0.458531	 -0.118921	 2
1462073673.016	 0	 2.181990	 -1.007895	 -0.734598	 -3.055661	 -1.004752	 -0.340677	 0.168816	 0.859454	 -0.467721	 -0.118649	 2
1462073673.026	 0	 2.554559	 -1.266051	 -0.396003	 -3.056654	 -1.028937	 -0.327613	 0.162449	 0.854720	 -0.479020	 -0.116638	 2
1462073673.036	 0	 2.799385	 -1.393555	 -0.132880	 -3.063257	 -1.056136	 -0.319401	 0.156735	 0.848999	 -0.491694	 -0.113458	 2
1462073673.046	 0	 3.064056	 -1.257392	 -0.023079	 -3.071781	 -1.085840	 -0.314013	 0.151605	 0.842338	 -0.505301	 -0.110246	 2
1462073673.056	 0	 3.620643	 -0.608720	 -0.109281	 -3.073406	 -1.120435	 -0.306988	 0.147345	 0.833924	 -0.520403	 -0.109732	 2
1462073673.066	 0	 4.101512	 0.079279	 -0.229631	 -3.063103	 -1.160347	 -0.294850	 0.144035	 0.823499	 -0.536985	 -0.112918	 2
1462073673.076	 0	 4.321726	 0.400768	 -0.248807	 -3.044427	 -1.202910	 -0.278385	 0.141474	 0.811763	 -0.554154	 -0.118069	 2
1462073673.086	 0	 4.340608	 0.473761	 -0.149176	 -3.021844	 -1.245912	 -0.259275	 0.139423	 0.799386	 -0.571223	 -0.123479	 2
1462073673.096	 0	 4.235643	 0.485857	 0.009583	 -2.998071	 -1.288185	 -0.239460	 0.138012	 0.786735	 -0.587791	 -0.128462	 2
1462073673.106	 0	 4.003378	 0.406025	 0.200568	 -2.976109	 -1.328737	 -0.221204	 0.137249	 0.774194	 -0.603516	 -0.132492	 2
1462073673.116	 0	 3.611311	 0.170211	 0.377639	 -2.960112	 -1.365915	 -0.207255	 0.136791	 0.762459	 -0.617851	 -0.134927	 2
1462073673.126	 0	 3.005809	 -0.233528	 0.485730	 -2.954679	 -1.397811	 -0.200474	 0.136013	 0.752372	 -0.630208	 -0.135185	 2
1462073673.136	 0	 2.261748	 -0.735500	 0.485406	 -2.963237	 -1.422824	 -0.202958	 0.134276	 0.744659	 -0.640130	 -0.132990	 2
1462073673.146	 0	 1.479738	 -1.285898	 0.392241	 -2.984303	 -1.440020	 -0.212607	 0.131034	 0.739748	 -0.647376	 -0.128478	 2
1462073673.156	 0	 0.788829	 -1.702985	 0.238774	 -3.011423	 -1.449838	 -0.223733	 0.126242	 0.737485	 -0.652100	 -0.122245	 2
1462073673.166	 0	 0.280974	 -1.974057	 0.054165	 -3.035118	 -1.453872	 -0.228314	 0.120128	 0.737271	 -0.654793	 -0.115097	 2
1462073673.176	 0	 -0.007585	 -2.121462	 -0.148266	 -3.047302	 -1.454278	 -0.219538	 0.112890	 0.738326	 -0.656143	 -0.107736	 2
1462073673.186	 0	 -0.023730	 -2.200578	 -0.357751	 -3.043548	 -1.453584	 -0.193781	 0.104616	 0.739761	 -0.657022	 -0.100652	 2
1462073673.196	 0	 0.368007	 -2.229868	 -0.571389	 -3.019551	 -1.455412	 -0.147192	 0.095256	 0.740312	 -0.658775	 -0.094231	 2
1462073673.206	 0	 1.143703	 -2.109009	 -0.751804	 -2.965789	 -1.463612	 -0.071447	 0.085093	 0.738529	 -0.662877	 -0.089044	 2
1462073673.216	 0	 1.893947	 -1.818182	 -0.824904	 -2.867036	 -1.478598	 0.046878	 0.075023	 0.733949	 -0.669618	 -0.085452	 2
1462073673.226	 0	 2.332186	 -1.481983	 -0.780829	 -2.698123	 -1.496880	 0.232077	 0.065890	 0.727332	 -0.678029	 -0.083207	 2
1462073673.236	 0	 2.505956	 -1.160483	 -0.670643	 -2.411494	 -1.513794	 0.531744	 0.058099	 0.719618	 -0.687075	 -0.081873	 2
1462073673.246	 0	 2.566699	 -0.828993	 -0.548722	 -1.949581	 -1.523969	 1.003390	 0.051835	 0.711314	 -0.696229	 -0.081307	 2
1462073673.256	 0	 2.617652	 -0.500975	 -0.469378	 -1.397944	 -1.521737	 1.561449	 0.047023	 0.702546	 -0.705379	 -0.081594	 2
1462073673.266	 0	 2.623086	 -0.271104	 -0.449169	 -0.992484	 -1.507620	 1.970710	 0.043244	 0.693451	 -0.714437	 -0.082673	 2
1462073673.276	 0	 2.459621	 -0.296275	 -0.466098	 -0.769596	 -1.487935	 2.196866	 0.039645	 0.684622	 -0.722964	 -0.083927	 2
1462073673.286	 0	 1.859474	 -0.987530	 -0.549368	 -0.672215	 -1.469061	 2.302041	 0.034356	 0.677560	 -0.729884	 -0.083679	 2
1462073673.296	 0	 0.831166	 -2.376559	 -0.665245	 -0.677165	 -1.456572	 2.317642	 0.024236	 0.674536	 -0.733571	 -0.079294	 2
1462073673.306	 0	 0.212135	 -2.943964	 -0.544704	 -0.725912	 -1.450188	 2.297387	 0.011599	 0.674443	 -0.734731	 -0.071846	 2
1462073673.316	 0	 -0.045780	 -2.851022	 -0.299666	 -0.775957	 -1.447686	 2.276147	 -0.000256	 0.675408	 -0.734715	 -0.063393	 2
1462073673.326	 0	 -0.168301	 -2.511090	 -0.114256	 -0.819185	 -1.447575	 2.258827	 -0.010304	 0.676706	 -0.734111	 -0.055170	 2
1462073673.336	 0	 -0.170111	 -2.067951	 -0.021659	 -0.853756	 -1.448491	 2.245968	 -0.018386	 0.677920	 -0.733341	 -0.047935	 2
1462073673.346	 0	 -0.040151	 -1.659956	 -0.028586	 -0.877489	 -1.448849	 2.239729	 -0.024873	 0.678609	 -0.732871	 -0.042075	 2
1462073673.356	 0	 0.151859	 -1.415138	 -0.071676	 -0.888558	 -1.447700	 2.243323	 -0.030464	 0.678500	 -0.733020	 -0.037318	 2
1462073673.366	 0	 0.126718	 -1.340396	 -0.041986	 -0.895181	 -1.446271	 2.250263	 -0.035638	 0.678154	 -0.733317	 -0.032920	 2
1462073673.376	 0	 -0.353912	 -1.351493	 0.140078	 -0.917320	 -1.448197	 2.241503	 -0.040246	 0.679122	 -0.732383	 -0.028085	 2
1462073673.386	 0	 -1.268830	 -1.442426	 0.430691	 -0.983990	 -1.456996	 2.188602	 -0.044078	 0.683095	 -0.728660	 -0.022195	 2
1462073673.396	 0	 -2.340312	 -1.473286	 0.728555	 -1.139456	 -1.472874	 2.047165	 -0.047003	 0.690908	 -0.721253	 -0.015204	 2
1462073673.406	 0	 -3.219517	 -1.172378	 0.946833	 -1.449893	 -1.489941	 1.748231	 -0.048229	 0.702000	 -0.710494	 -0.008294	 2
1462073673.416	 0	 -3.776513	 -0.775534	 1.031045	 -1.943718	 -1.495603	 1.261687	 -0.047589	 0.715137	 -0.697358	 -0.002507	 2
1462073673.426	 0	 -4.107609	 -0.602296	 1.025948	 -2.423184	 -1.480398	 0.786924	 -0.046035	 0.729289	 -0.682651	 0.002354	 2
1462073673.436	 0	 -4.315249	 -0.518607	 1.042389	 -2.727924	 -1.449527	 0.486115	 -0.044195	 0.743929	 -0.666759	 0.006927	 2
1462073673.446	 0	 -4.258596	 0.114633	 1.119195	 -2.900464	 -1.412260	 0.312803	 -0.040566	 0.758292	 -0.650575	 0.009945	 2
1462073673.456	 0	 -3.983276	 1.317014	 1.299574	 -3.001731	 -1.374701	 0.199840	 -0.032801	 0.771617	 -0.635171	 0.009400	 2
1462073673.466	 0	 -3.727645	 2.631241	 1.495020	 -3.063685	 -1.338625	 0.112816	 -0.020057	 0.783769	 -0.620712	 0.004460	 2
1462073673.476	 0	 -3.629195	 3.706170	 1.628860	 -3.100059	 -1.303188	 0.039603	 -0.003150	 0.795040	 -0.606532	 -0.004502	 2
1462073673.486	 0	 -3.678568	 4.478059	 1.715339	 -3.118707	 -1.267142	 -0.024680	 0.016718	 0.805721	 -0.591829	 -0.016526	 2
1462073673.496	 0	 -3.771515	 4.875346	 1.755015	 -3.125221	 -1.229991	 -0.082174	 0.038267	 0.815865	 -0.576174	 -0.030378	 2
1462073673.506	 0	 -3.722924	 4.763576	 1.762078	 -3.125496	 -1.192770	 -0.134014	 0.059907	 0.825185	 -0.559931	 -0.044249	 2
1462073673.516	 0	 -3.361753	 3.981620	 1.733539	 -3.126323	 -1.158342	 -0.180666	 0.079658	 0.833103	 -0.544506	 -0.055737	 2
1462073673.526	 0	 -2.781555	 2.607378	 1.666674	 -3.134375	 -1.129220	 -0.222233	 0.095596	 0.839368	 -0.531445	 -0.062364	 2
1462073673.536	 0	 -2.181992	 0.887833	 1.512233	 3.130222	 -1.105919	 -0.257724	 0.106392	 0.844288	 -0.521467	 -0.062693	 2
1462073673.546	 0	 -1.665448	 -0.966930	 1.305034	 3.099660	 -1.087697	 -0.286439	 0.111374	 0.848325	 -0.514584	 -0.056081	 2
1462073673.556	 0	 -1.240976	 -2.699810	 1.147729	 3.056292	 -1.073575	 -0.309719	 0.110885	 0.851663	 -0.510450	 -0.042602	 2
1462073673.566	 0	 -0.885644	 -4.054910	 1.136289	 3.000405	 -1.062641	 -0.330767	 0.106330	 0.854141	 -0.508526	 -0.023225	 2
1462073673.576	 0	 -0.630448	 -4.745578	 1.186257	 2.935541	 -1.053916	 -0.352047	 0.099636	 0.855530	 -0.508076	 -0.000082	 2
1462073673.586	 0	 -0.603723	 -4.426232	 1.086683	 2.873332	 -1.045451	 -0.371159	 0.092823	 0.856254	 -0.507644	 0.022590	 2
1462073673.596	 0	 -0.681828	 -3.385215	 0.873240	 2.824599	 -1.036480	 -0.384987	 0.087365	 0.856918	 -0.506339	 0.041000	 2
1462073673.606	 0	 -0.816650	 -1.893336	 0.621855	 2.795285	 -1.026848	 -0.392585	 0.084351	 0.858069	 -0.503797	 0.052833	 2
1462073673.616	 0	 -0.866665	 -0.523118	 0.641436	 2.782318	 -1.016675	 -0.397882	 0.084614	 0.859733	 -0.500295	 0.058358	 2
1462073673.626	 0	 -0.896275	 0.457283	 0.888482	 2.777469	 -1.005455	 -0.406435	 0.088486	 0.861662	 -0.496123	 0.059757	 2
1462073673.636	 0	 -0.899992	 1.076770	 1.097839	 2.776500	 -0.993287	 -0.418695	 0.095070	 0.863678	 -0.491499	 0.058741	 2
1462073673.646	 0	 -0.924309	 1.492383	 1.198902	 2.778805	 -0.980547	 -0.432725	 0.103319	 0.865735	 -0.486510	 0.056013	 2
1462073673.656	 0	 -0.984007	 1.673875	 1.268254	 2.782999	 -0.967074	 -0.447521	 0.112465	 0.867843	 -0.481092	 0.052447	 2
1462073673.666	 0	 -1.018445	 1.628108	 1.250010	 2.787708	 -0.953166	 -0.461954	 0.121638	 0.869951	 -0.475396	 0.048872	 2
1462073673.676	 0	 -0.956851	 1.418761	 1.153739	 2.791727	 -0.939912	 -0.475161	 0.130034	 0.871868	 -0.469930	 0.045863	 2
1462073673.686	 0	 -0.817399	 1.225976	 1.026036	 2.794917	 -0.928244	 -0.486985	 0.137431	 0.873446	 -0.465106	 0.043372	 2
1462073673.696	 0	 -0.620969	 1.139233	 0.877510	 2.798040	 -0.918818	 -0.497501	 0.143957	 0.874602	 -0.461164	 0.040934	 2
1462073673.706	 0	 -0.421702	 1.233021	 0.691205	 2.802986	 -0.911908	 -0.506369	 0.149856	 0.875374	 -0.458081	 0.037742	 2
1462073673.716	 0	 -0.256869	 1.527632	 0.463372	 2.812307	 -0.907413	 -0.512832	 0.155386	 0.875903	 -0.455598	 0.032845	 2
1462073673.726	 0	 -0.140698	 1.929665	 0.215647	 2.827897	 -0.904954	 -0.516239	 0.160727	 0.876331	 -0.453383	 0.025602	 2
1462073673.736	 0	 -0.044981	 2.286091	 -0.022732	 2.849747	 -0.904198	 -0.516444	 0.165850	 0.876686	 -0.451283	 0.016090	 2
1462073673.746	 0	 0.052639	 2.561949	 -0.223509	 2.876799	 -0.904939	 -0.513815	 0.170703	 0.876905	 -0.449306	 0.004716	 2
1462073673.756	 0	 0.185259	 2.745573	 -0.368965	 2.907541	 -0.907216	 -0.509123	 0.175291	 0.876839	 -0.447618	 -0.008027	 2
1462073673.766	 0	 0.375477	 2.869922	 -0.451528	 2.940508	 -0.911326	 -0.503340	 0.179706	 0.876289	 -0.446487	 -0.021738	 2
1462073673.776	 0	 0.650347	 2.971452	 -0.419938	 2.974141	 -0.917767	 -0.498031	 0.184280	 0.874980	 -0.446259	 -0.036118	 2
1462073673.786	 0	 1.149676	 3.307948	 -0.310315	 3.008541	 -0.928194	 -0.494981	 0.189726	 0.872351	 -0.447579	 -0.051777	 2
1462073673.796	 0	 2.156969	 4.004463	 -0.363760	 3.048474	 -0.947239	 -0.493013	 0.196335	 0.867266	 -0.451950	 -0.071011	 2
1462073673.806	 0	 2.882565	 3.276507	 -0.864971	 3.092343	 -0.975277	 -0.483746	 0.200338	 0.860229	 -0.459975	 -0.091072	 2
1462073673.816	 0	 2.331964	 0.593601	 -1.153714	 3.121161	 -1.001122	 -0.464985	 0.197355	 0.854795	 -0.469046	 -0.101848	 2
1462073673.826	 0	 -0.122562	 -1.417441	 -0.645885	 3.123297	 -1.007346	 -0.449544	 0.190893	 0.854733	 -0.472271	 -0.099759	 2
1462073673.836	 0	 -1.262032	 -0.838727	 0.081350	 3.114153	 -0.996136	 -0.447697	 0.188605	 0.857963	 -0.468442	 -0.094286	 2
1462073673.846	 0	 -0.879731	 0.548186	 0.377617	 3.111586	 -0.985747	 -0.453037	 0.190916	 0.859969	 -0.463989	 -0.093374	 2
1462073673.856	 0	 -0.149177	 1.748423	 0.446371	 3.119921	 -0.982432	 -0.460797	 0.196376	 0.859577	 -0.461389	 -0.098411	 2
1462073673.866	 0	 0.146988	 1.848748	 0.467107	 3.132033	 -0.983390	 -0.469172	 0.202707	 0.857904	 -0.460164	 -0.105640	 2
1462073673.876	 0	 0.099547	 1.079794	 0.452904	 3.138198	 -0.984630	 -0.477369	 0.207567	 0.856446	 -0.459620	 -0.110296	 2
1462073673.886	 0	 -0.061217	 0.019932	 0.464691	 3.134274	 -0.984404	 -0.485642	 0.210220	 0.855850	 -0.459477	 -0.110494	 2
1462073673.896	 0	 -0.132827	 -0.938962	 0.502219	 3.119634	 -0.983064	 -0.494535	 0.210742	 0.856013	 -0.459963	 -0.106127	 2
1462073673.906	 0	 0.072774	 -1.255345	 0.517735	 3.099642	 -0.982882	 -0.503788	 0.210109	 0.856110	 -0.461513	 -0.099681	 2
1462073673.916	 0	 0.637458	 -0.496944	 0.459127	 3.084432	 -0.987433	 -0.512967	 0.210195	 0.854860	 -0.464596	 -0.095830	 2
1462073673.926	 0	 0.934765	 0.033577	 0.255783	 3.078790	 -0.996318	 -0.519717	 0.211107	 0.852407	 -0.468626	 -0.096055	 2
1462073673.936	 0	 0.413185	 -0.927366	 0.122425	 3.069800	 -1.002105	 -0.522923	 0.209919	 0.851179	 -0.471861	 -0.093679	 2
1462073673.946	 0	 -0.357224	 -1.783852	 0.358828	 3.049188	 -1.000217	 -0.527942	 0.207337	 0.852009	 -0.472992	 -0.085856	 2
1462073673.956	 0	 -1.087408	 -1.503054	 0.504216	 3.027219	 -0.990654	 -0.534925	 0.205940	 0.854324	 -0.470960	 -0.076916	 2
1462073673.966	 0	 -1.438773	 -1.103199	 0.500338	 3.010050	 -0.976265	 -0.541097	 0.205835	 0.857481	 -0.466455	 -0.069131	 2
1462073673.976	 0	 -1.363598	 -0.588138	 0.275338	 3.000724	 -0.961924	 -0.543669	 0.206085	 0.860621	 -0.461291	 -0.063807	 2
1462073673.986	 0	 -0.922718	 0.030525	 0.110997	 2.999353	 -0.951182	 -0.543437	 0.206657	 0.862972	 -0.456906	 -0.061718	 2
1462073673.996	 0	 -0.219356	 0.807401	 0.016184	 3.005843	 -0.947218	 -0.543273	 0.208426	 0.863623	 -0.454560	 -0.063950	 2
1462073674.006	 0	 0.382398	 0.935109	 -0.170113	 3.016621	 -0.949776	 -0.541754	 0.209992	 0.862883	 -0.454567	 -0.068597	 2
1462073674.016	 0	 0.724822	 0.373380	 -0.344580	 3.025250	 -0.956695	 -0.537880	 0.209687	 0.861508	 -0.456729	 -0.072345	 2
1462073674.026	 0	 0.875727	 -0.557588	 -0.472857	 3.027035	 -0.965558	 -0.531878	 0.206753	 0.860155	 -0.460514	 -0.072888	 2
1462073674.036	 0	 0.960953	 -1.385198	 -0.601731	 3.021490	 -0.975634	 -0.524050	 0.201241	 0.858955	 -0.465618	 -0.069986	 2
1462073674.046	 0	 0.993701	 -1.916851	 -0.860615	 3.013559	 -0.986369	 -0.511965	 0.193266	 0.858051	 -0.471336	 -0.065113	 2
1462073674.056	 0	 1.127378	 -2.144160	 -1.057863	 3.005575	 -0.998406	 -0.496254	 0.183584	 0.857098	 -0.477645	 -0.059462	 2
1462073674.066	 0	 1.750575	 -1.727574	 -1.293880	 3.002667	 -1.015464	 -0.477467	 0.173355	 0.854998	 -0.485610	 -0.055764	 2
1462073674.076	 0	 2.707387	 -0.967176	 -1.505090	 3.009621	 -1.041980	 -0.455920	 0.163611	 0.850467	 -0.496731	 -0.056530	 2
1462073674.086	 0	 3.277018	 -0.598435	 -1.467185	 3.022324	 -1.075280	 -0.433816	 0.154714	 0.843871	 -0.510238	 -0.060025	 2
1462073674.096	 0	 3.368394	 -0.645998	 -1.242482	 3.033840	 -1.110218	 -0.413910	 0.146598	 0.836333	 -0.524445	 -0.063351	 2
1462073674.106	 0	 3.226515	 -0.817368	 -1.024360	 3.041264	 -1.143840	 -0.397084	 0.139036	 0.828661	 -0.538264	 -0.065286	 2
1462073674.116	 0	 3.033796	 -0.874887	 -1.113807	 3.050284	 -1.175513	 -0.377767	 0.131234	 0.821286	 -0.551197	 -0.066701	 2
1462073674.126	 0	 2.917096	 -0.790874	 -1.309175	 3.067589	 -1.205862	 -0.350317	 0.122783	 0.814174	 -0.563310	 -0.068746	 2
1462073674.136	 0	 2.858027	 -0.620725	 -1.336919	 3.092800	 -1.235353	 -0.316404	 0.114444	 0.807032	 -0.574873	 -0.071574	 2
1462073674.146	 0	 2.768392	 -0.480371	 -1.232520	 3.122774	 -1.263717	 -0.279437	 0.106868	 0.799806	 -0.585921	 -0.074734	 2
1462073674.156	 0	 2.583587	 -0.391761	 -1.114984	 -3.126927	 -1.290119	 -0.240127	 0.100082	 0.792762	 -0.596200	 -0.077829	 2
1462073674.166	 0	 2.305668	 -0.327622	 -1.036298	 -3.089292	 -1.313508	 -0.197580	 0.093972	 0.786273	 -0.605322	 -0.080805	 2
1462073674.176	 0	 2.051780	 -0.331985	 -1.007491	 -3.046294	 -1.333825	 -0.149864	 0.088135	 0.780435	 -0.613325	 -0.083575	 2
1462073674.186	 0	 1.854154	 -0.407692	 -0.967041	 -2.998543	 -1.351530	 -0.096915	 0.082344	 0.775155	 -0.620462	 -0.085913	 2
1462073674.196	 0	 1.696157	 -0.511727	 -0.856860	 -2.949043	 -1.367152	 -0.041297	 0.076631	 0.770311	 -0.626972	 -0.087492	 2
1462073674.206	 0	 1.536597	 -0.513489	 -0.724398	 -2.900285	 -1.380926	 0.013727	 0.071403	 0.765855	 -0.632886	 -0.088451	 2
1462073674.216	 0	 1.379297	 -0.421177	 -0.672079	 -2.849416	 -1.392811	 0.070023	 0.066753	 0.761785	 -0.638151	 -0.089391	 2
1462073674.226	 0	 1.216778	 -0.265370	 -0.666017	 -2.793644	 -1.402647	 0.129765	 0.062666	 0.758114	 -0.642727	 -0.090763	 2
1462073674.236	 0	 1.079965	 -0.096814	 -0.651534	 -2.733487	 -1.410564	 0.192128	 0.059237	 0.754793	 -0.646672	 -0.092697	 2
1462073674.246	 0	 1.030253	 0.011699	 -0.668209	 -2.667896	 -1.417095	 0.258619	 0.056234	 0.751636	 -0.650258	 -0.095108	 2
1462073674.256	 0	 1.174881	 -0.039207	 -0.736019	 -2.590604	 -1.423373	 0.336936	 0.052962	 0.748178	 -0.654125	 -0.097697	 2
1462073674.266	 0	 1.559846	 -0.258956	 -0.816019	 -2.490244	 -1.430852	 0.440338	 0.048618	 0.743708	 -0.659201	 -0.099948	 2
1462073674.276	 0	 1.952569	 -0.468714	 -0.835245	 -2.358495	 -1.439426	 0.577588	 0.043178	 0.737940	 -0.665781	 -0.101571	 2
1462073674.286	 0	 2.116830	 -0.514689	 -0.801933	 -2.198454	 -1.446878	 0.744118	 0.037405	 0.731364	 -0.673153	 -0.102823	 2
1462073674.296	 0	 2.056677	 -0.422599	 -0.740870	 -2.025088	 -1.451114	 0.923319	 0.032040	 0.724687	 -0.680415	 -0.104106	 2
1462073674.306	 0	 1.898619	 -0.304417	 -0.641410	 -1.857134	 -1.451917	 1.095816	 0.027480	 0.718327	 -0.687114	 -0.105477	 2
1462073674.316	 0	 1.756099	 -0.288364	 -0.538772	 -1.704714	 -1.450136	 1.252169	 0.023546	 0.712377	 -0.693248	 -0.106640	 2
1462073674.326	 0	 1.662652	 -0.471614	 -0.472521	 -1.569689	 -1.446393	 1.392380	 0.019481	 0.706790	 -0.699006	 -0.107046	 2
1462073674.336	 0	 1.577922	 -0.815730	 -0.438749	 -1.453927	 -1.440989	 1.516366	 0.014523	 0.701600	 -0.704463	 -0.106202	 2
1462073674.346	 0	 1.443713	 -1.224729	 -0.425400	 -1.361170	 -1.434346	 1.621268	 0.008281	 0.696978	 -0.709481	 -0.103877	 2
1462073674.356	 0	 1.238409	 -1.552645	 -0.406414	 -1.293885	 -1.427220	 1.704155	 0.000925	 0.693138	 -0.713801	 -0.100234	 2
1462073674.366	 0	 0.968044	 -1.668524	 -0.361442	 -1.250835	 -1.420581	 1.764426	 -0.006810	 0.690231	 -0.717183	 -0.095829	 2
1462073674.376	 0	 0.669963	 -1.548228	 -0.320426	 -1.228004	 -1.415052	 1.803600	 -0.013997	 0.688284	 -0.719512	 -0.091496	 2
1462073674.386	 0	 0.403212	 -1.338754	 -0.289510	 -1.220780	 -1.410661	 1.825009	 -0.020244	 0.687205	 -0.720861	 -0.087745	 2
1462073674.396	 0	 0.242908	 -1.189134	 -0.255815	 -1.222723	 -1.407256	 1.835390	 -0.025660	 0.686713	 -0.721547	 -0.084475	 2
1462073674.406	 0	 0.233182	 -1.209362	 -0.262313	 -1.227124	 -1.404053	 1.843003	 -0.030940	 0.686353	 -0.722048	 -0.081288	 2
1462073674.416	 0	 0.247483	 -1.344484	 -0.262629	 -1.231562	 -1.400700	 1.851802	 -0.036691	 0.685922	 -0.722583	 -0.077710	 2
1462073674.426	 0	 0.060973	 -1.389892	 -0.146325	 -1.242239	 -1.398532	 1.855003	 -0.042376	 0.685965	 -0.722659	 -0.073617	 2
1462073674.436	 0	 -0.296272	 -1.534957	 0.092034	 -1.267643	 -1.399442	 1.844278	 -0.047560	 0.687231	 -0.721641	 -0.068463	 2
1462073674.446	 0	 -0.713793	 -2.050733	 0.373297	 -1.315800	 -1.403994	 1.814685	 -0.053169	 0.690097	 -0.719180	 -0.060995	 2
1462073674.456	 0	 -1.250482	 -2.548646	 0.722907	 -1.398175	 -1.412501	 1.756053	 -0.059468	 0.694928	 -0.714830	 -0.050562	 2
1462073674.466	 0	 -1.896346	 -2.458933	 1.099185	 -1.528474	 -1.424373	 1.649692	 -0.064522	 0.701962	 -0.708228	 -0.038732	 2
1462073674.476	 0	 -2.516701	 -2.083886	 1.378780	 -1.722720	 -1.436260	 1.475459	 -0.067125	 0.711086	 -0.699364	 -0.027209	 2
1462073674.486	 0	 -3.049444	 -2.037565	 1.537319	 -1.987496	 -1.442528	 1.228801	 -0.068448	 0.721943	 -0.688379	 -0.015745	 2
1462073674.496	 0	 -3.543025	 -2.280707	 1.689626	 -2.297412	 -1.437810	 0.938575	 -0.069837	 0.734280	 -0.675237	 -0.003263	 2
1462073674.506	 0	 -3.897958	 -2.190473	 1.962129	 -2.594135	 -1.420369	 0.661742	 -0.070473	 0.747672	 -0.660242	 0.010066	 2
1462073674.516	 0	 -3.969333	 -1.079629	 2.286421	 -2.830051	 -1.393295	 0.437174	 -0.067132	 0.761268	 -0.644601	 0.021295	 2
1462073674.526	 0	 -3.962870	 1.141621	 2.348598	 -2.987497	 -1.360040	 0.271339	 -0.056900	 0.774676	 -0.629277	 0.025496	 2
1462073674.536	 0	 -4.111042	 3.690236	 2.317119	 -3.074336	 -1.322114	 0.150694	 -0.038801	 0.788213	 -0.613861	 0.019725	 2
1462073674.546	 0	 -4.384679	 5.780637	 2.409294	 -3.114723	 -1.280113	 0.053882	 -0.013583	 0.801915	 -0.597260	 0.005316	 2
1462073674.556	 0	 -4.627379	 6.918351	 2.556280	 -3.127861	 -1.234842	 -0.030439	 0.016383	 0.815200	 -0.578768	 -0.014408	 2
1462073674.566	 0	 -4.689620	 7.091553	 2.801427	 -3.131548	 -1.188304	 -0.110045	 0.048377	 0.827205	 -0.558723	 -0.034941	 2
1462073674.576	 0	 -4.548769	 6.764391	 2.917588	 -3.131462	 -1.142613	 -0.184788	 0.080337	 0.837344	 -0.538025	 -0.054132	 2
1462073674.586	 0	 -4.201396	 5.863627	 2.780421	 -3.129902	 -1.099953	 -0.251080	 0.109776	 0.845431	 -0.517921	 -0.070386	 2
1462073674.596	 0	 -3.773294	 4.504805	 2.285522	 -3.127737	 -1.061472	 -0.303763	 0.133948	 0.851956	 -0.499425	 -0.082487	 2
1462073674.606	 0	 -3.406970	 2.875718	 1.604269	 -3.126296	 -1.026814	 -0.340191	 0.151151	 0.857844	 -0.482918	 -0.089704	 2
1462073674.616	 0	 -3.104855	 0.969334	 0.939113	 -3.129928	 -0.995186	 -0.361765	 0.160818	 0.863882	 -0.468595	 -0.090907	 2
1462073674.626	 0	 -2.768564	 -1.071026	 0.439737	 3.139072	 -0.966645	 -0.371974	 0.163160	 0.870293	 -0.456915	 -0.084838	 2
1462073674.636	 0	 -2.377812	 -2.609000	 0.158781	 3.113721	 -0.941861	 -0.375130	 0.159942	 0.876611	 -0.448031	 -0.072395	 2
1462073674.646	 0	 -1.999171	 -3.194153	 -0.004497	 3.083407	 -0.920949	 -0.374174	 0.153853	 0.882241	 -0.441281	 -0.057013	 2
1462073674.656	 0	 -1.598177	 -2.959766	 -0.081476	 3.055299	 -0.904033	 -0.371044	 0.147263	 0.886784	 -0.436043	 -0.042358	 2
1462073674.666	 0	 -1.140209	 -2.279085	 -0.047157	 3.032933	 -0.891578	 -0.368124	 0.141875	 0.890006	 -0.432229	 -0.030630	 2
1462073674.676	 0	 -0.672799	 -1.431234	 0.016346	 3.017538	 -0.883760	 -0.366708	 0.138435	 0.891921	 -0.429879	 -0.022727	 2
1462073674.686	 0	 -0.236479	 -0.620457	 0.088300	 3.009093	 -0.880291	 -0.367087	 0.137024	 0.892691	 -0.428927	 -0.018708	 2
1462073674.696	 0	 0.061755	 0.081345	 0.183889	 3.006386	 -0.880077	 -0.369516	 0.137543	 0.892592	 -0.428996	 -0.018000	 2
1462073674.706	 0	 0.125573	 0.599071	 0.321372	 3.007578	 -0.880933	 -0.374259	 0.139855	 0.892078	 -0.429246	 -0.019633	 2
1462073674.716	 0	 -0.089514	 0.813410	 0.457393	 3.010333	 -0.880187	 -0.380813	 0.143420	 0.891737	 -0.428653	 -0.022193	 2
1462073674.726	 0	 -0.498844	 0.798576	 0.592974	 3.012315	 -0.875596	 -0.388742	 0.147699	 0.892066	 -0.426394	 -0.024314	 2
1462073674.736	 0	 -0.915909	 0.775902	 0.670998	 3.013877	 -0.866655	 -0.397070	 0.152370	 0.893217	 -0.422229	 -0.025869	 2
1462073674.746	 0	 -1.169859	 0.682861	 0.791708	 3.013712	 -0.854576	 -0.406533	 0.157411	 0.894880	 -0.416782	 -0.026530	 2
1462073674.756	 0	 -1.160591	 0.592591	 0.814234	 3.012430	 -0.841829	 -0.416460	 0.162491	 0.896589	 -0.411113	 -0.026661	 2
1462073674.766	 0	 -0.951771	 0.551282	 0.775796	 3.010781	 -0.830760	 -0.426156	 0.167295	 0.897936	 -0.406214	 -0.026705	 2
1462073674.776	 0	 -0.635588	 0.665843	 0.714426	 3.010210	 -0.822672	 -0.435460	 0.171941	 0.898686	 -0.402549	 -0.027435	 2
1462073674.786	 0	 -0.269962	 0.884242	 0.618422	 3.012134	 -0.818240	 -0.444139	 0.176549	 0.898735	 -0.400292	 -0.029543	 2
1462073674.796	 0	 0.092290	 1.077029	 0.509420	 3.016793	 -0.817584	 -0.451921	 0.181024	 0.898089	 -0.399462	 -0.033118	 2
1462073674.806	 0	 0.473393	 1.196351	 0.397439	 3.023523	 -0.820792	 -0.458755	 0.185205	 0.896742	 -0.400147	 -0.037873	 2
1462073674.816	 0	 0.893981	 1.267051	 0.343278	 3.031250	 -0.828215	 -0.465231	 0.189127	 0.894579	 -0.402578	 -0.043492	 2
1462073674.826	 0	 1.276448	 1.346838	 0.353479	 3.039368	 -0.839642	 -0.472204	 0.193077	 0.891540	 -0.406684	 -0.049859	 2
1462073674.836	 0	 1.645340	 1.486255	 0.367551	 3.047960	 -0.854684	 -0.480033	 0.197264	 0.887625	 -0.412256	 -0.057046	 2
1462073674.846	 0	 2.262937	 1.694643	 0.312957	 3.058332	 -0.875139	 -0.487961	 0.201505	 0.882457	 -0.419940	 -0.065692	 2
1462073674.856	 0	 3.359074	 1.842507	 0.172634	 3.071018	 -0.905427	 -0.495061	 0.205231	 0.875093	 -0.431584	 -0.076344	 2
1462073674.866	 0	 4.552908	 1.316958	 -0.095237	 3.082879	 -0.948129	 -0.499276	 0.206729	 0.865080	 -0.448617	 -0.087427	 2
1462073674.876	 0	 4.690153	 -0.995881	 -0.408906	 3.080820	 -0.995802	 -0.498200	 0.202438	 0.854653	 -0.469209	 -0.091816	 2
1462073674.886	 0	 2.414857	 -3.503526	 -0.400707	 3.054572	 -1.028742	 -0.494176	 0.191982	 0.848596	 -0.485856	 -0.083499	 2
1462073674.896	 0	 -0.264320	 -1.991244	 -0.187457	 3.031632	 -1.031020	 -0.490533	 0.184660	 0.849306	 -0.489112	 -0.073141	 2
1462073674.906	 0	 -0.924227	 1.052947	 -0.141660	 3.039204	 -1.023034	 -0.485514	 0.185023	 0.851347	 -0.485252	 -0.074198	 2
1462073674.916	 0	 -0.966068	 2.446391	 0.296910	 3.060373	 -1.013159	 -0.486979	 0.191521	 0.852666	 -0.479048	 -0.082426	 2
1462073674.926	 0	 -0.904486	 2.023844	 0.720878	 3.073493	 -1.003532	 -0.497560	 0.199876	 0.853282	 -0.473246	 -0.089430	 2
1462073674.936	 0	 -0.808417	 0.890882	 0.729748	 3.074657	 -0.994696	 -0.510303	 0.206243	 0.853951	 -0.468814	 -0.091892	 2
1462073674.946	 0	 -0.582534	 -0.318021	 0.732519	 3.064131	 -0.987735	 -0.522627	 0.209576	 0.854718	 -0.466407	 -0.089438	 2
1462073674.956	 0	 -0.315156	 -1.168031	 0.815003	 3.042862	 -0.983242	 -0.536258	 0.210806	 0.855204	 -0.466158	 -0.082962	 2
1462073674.966	 0	 0.077595	 -1.453662	 0.893120	 3.015715	 -0.981938	 -0.551930	 0.211281	 0.854909	 -0.467856	 -0.074844	 2
1462073674.976	 0	 0.493169	 -1.250552	 0.762435	 2.989403	 -0.984750	 -0.567477	 0.211479	 0.853590	 -0.471259	 -0.067641	 2
1462073674.986	 0	 0.535022	 -0.699977	 0.434676	 2.971869	 -0.989427	 -0.578454	 0.211542	 0.851991	 -0.474698	 -0.063426	 2
1462073674.996	 0	 0.042553	 -0.315786	 0.120678	 2.964498	 -0.991015	 -0.582535	 0.211362	 0.851447	 -0.476007	 -0.061487	 2
1462073675.006	 0	 -0.580200	 -0.133667	 -0.244156	 2.966426	 -0.987002	 -0.578368	 0.210465	 0.852692	 -0.474270	 -0.060735	 2
1462073675.016	 0	 -0.873295	 -0.076066	 -0.486193	 2.974059	 -0.979646	 -0.568056	 0.208621	 0.855122	 -0.470726	 -0.060502	 2
1462073675.026	 0	 -0.872204	 0.151574	 -0.481953	 2.984244	 -0.971681	 -0.556648	 0.206914	 0.857706	 -0.466688	 -0.061071	 2
1462073675.036	 0	 -0.472152	 1.023473	 -0.209816	 2.997270	 -0.966148	 -0.549942	 0.207592	 0.859178	 -0.463226	 -0.064343	 2
1462073675.046	 0	 0.213223	 2.506509	 -0.029330	 3.019133	 -0.966653	 -0.549205	 0.212282	 0.858393	 -0.461169	 -0.073629	 2
1462073675.056	 0	 0.662596	 3.346338	 -0.199147	 3.052619	 -0.972488	 -0.547662	 0.218834	 0.855933	 -0.460085	 -0.088393	 2
1462073675.066	 0	 0.735587	 2.677977	 -0.373327	 3.086043	 -0.980105	 -0.542637	 0.223776	 0.853207	 -0.459846	 -0.102486	 2
1462073675.076	 0	 0.564917	 1.406870	 -0.455075	 3.109532	 -0.986444	 -0.535136	 0.225526	 0.851367	 -0.460293	 -0.111545	 2
1462073675.086	 0	 0.451108	 0.287819	 -0.372842	 3.120923	 -0.991163	 -0.528054	 0.224817	 0.850445	 -0.461412	 -0.115320	 2
1462073675.096	 0	 0.834030	 -0.450227	 -0.351071	 3.123302	 -0.998204	 -0.521889	 0.222283	 0.849383	 -0.464486	 -0.115722	 2
1462073675.106	 0	 1.694651	 -1.172457	 -0.448414	 3.119607	 -1.012911	 -0.514646	 0.217376	 0.846983	 -0.471528	 -0.114146	 2
1462073675.116	 0	 2.529653	 -2.028374	 -0.657617	 3.110336	 -1.036435	 -0.504288	 0.209202	 0.843063	 -0.482998	 -0.110414	 2
1462073675.126	 0	 3.009899	 -2.800947	 -0.810734	 3.095846	 -1.065845	 -0.490777	 0.197918	 0.838128	 -0.497490	 -0.104281	 2
1462073675.136	 0	 3.152947	 -3.269133	 -0.780100	 3.075841	 -1.097578	 -0.477498	 0.184992	 0.832564	 -0.513215	 -0.096050	 2
1462073675.146	 0	 3.093151	 -3.401887	 -0.630543	 3.050566	 -1.129156	 -0.467882	 0.171955	 0.826594	 -0.528856	 -0.086515	 2
1462073675.156	 0	 2.976140	 -3.196459	 -0.510378	 3.022659	 -1.159598	 -0.462660	 0.159771	 0.820314	 -0.543719	 -0.076992	 2
1462073675.166	 0	 2.887504	 -2.781191	 -0.483366	 2.996062	 -1.189028	 -0.460159	 0.148778	 0.813743	 -0.557638	 -0.068757	 2
1462073675.176	 0	 2.851910	 -2.371915	 -0.527207	 2.972871	 -1.218055	 -0.458562	 0.138809	 0.806855	 -0.570825	 -0.062254	 2
1462073675.186	 0	 2.825291	 -2.070314	 -0.601969	 2.953554	 -1.246979	 -0.456394	 0.129453	 0.799707	 -0.583465	 -0.057260	 2
1462073675.196	 0	 2.761837	 -1.913017	 -0.643649	 2.936548	 -1.275496	 -0.453822	 0.120428	 0.792441	 -0.595578	 -0.053122	 2
1462073675.206	 0	 2.589454	 -1.774524	 -0.682424	 2.921911	 -1.302731	 -0.450202	 0.111652	 0.785356	 -0.606874	 -0.049531	 2
1462073675.216	 0	 2.299995	 -1.587667	 -0.699481	 2.911263	 -1.327450	 -0.444289	 0.103347	 0.778854	 -0.616879	 -0.046540	 2
1462073675.226	 0	 1.981024	 -1.326241	 -0.712389	 2.906343	 -1.349133	 -0.435013	 0.095800	 0.773124	 -0.625407	 -0.044354	 2
1462073675.236	 0	 1.690903	 -1.049017	 -0.734993	 2.909056	 -1.367942	 -0.420814	 0.089101	 0.768168	 -0.632547	 -0.043151	 2
1462073675.246	 0	 1.449456	 -0.800104	 -0.828625	 2.923159	 -1.384406	 -0.397697	 0.082973	 0.763918	 -0.638506	 -0.043067	 2
1462073675.256	 0	 1.281353	 -0.623640	 -0.909714	 2.949861	 -1.399140	 -0.363829	 0.077169	 0.760189	 -0.643606	 -0.043925	 2
1462073675.266	 0	 1.145994	 -0.577590	 -0.920896	 2.986403	 -1.412336	 -0.320886	 0.071528	 0.756858	 -0.648083	 -0.045135	 2
1462073675.276	 0	 1.041583	 -0.592791	 -0.859380	 3.027854	 -1.424069	 -0.272993	 0.066054	 0.753834	 -0.652107	 -0.046134	 2
1462073675.286	 0	 0.986462	 -0.586681	 -0.772517	 3.070966	 -1.434706	 -0.223477	 0.060908	 0.750970	 -0.655852	 -0.046819	 2
1462073675.296	 0	 1.029283	 -0.592890	 -0.731382	 3.117533	 -1.445157	 -0.170611	 0.055979	 0.747999	 -0.659637	 -0.047351	 2
1462073675.306	 0	 1.206696	 -0.759371	 -0.736608	 -3.111610	 -1.456674	 -0.109079	 0.050641	 0.744545	 -0.663955	 -0.047452	 2
1462073675.316	 0	 1.507881	 -1.117995	 -0.787329	 -3.041576	 -1.470421	 -0.028398	 0.044043	 0.740211	 -0.669311	 -0.046583	 2
1462073675.326	 0	 1.811973	 -1.528833	 -0.850285	 -2.938173	 -1.486385	 0.089794	 0.035757	 0.734852	 -0.675822	 -0.044474	 2
1462073675.336	 0	 1.988930	 -1.797372	 -0.848996	 -2.776060	 -1.502817	 0.269860	 0.026287	 0.728717	 -0.683063	 -0.041299	 2
1462073675.346	 0	 2.017825	 -1.862688	 -0.750740	 -2.524741	 -1.517052	 0.540236	 0.016683	 0.722240	 -0.690426	 -0.037460	 2
1462073675.356	 0	 1.965223	 -1.832689	 -0.595467	 -2.160977	 -1.526486	 0.922870	 0.007651	 0.715728	 -0.697549	 -0.033166	 2
1462073675.366	 0	 1.837961	 -1.800286	 -0.432062	 -1.729723	 -1.529017	 1.372579	 -0.000648	 0.709440	 -0.704193	 -0.028423	 2
1462073675.376	 0	 1.576968	 -1.808172	 -0.305168	 -1.369224	 -1.525266	 1.751460	 -0.008413	 0.703827	 -0.709942	 -0.023193	 2
1462073675.386	 0	 1.190561	 -1.874696	 -0.248069	 -1.151101	 -1.518815	 1.988400	 -0.016050	 0.699397	 -0.714338	 -0.017528	 2
1462073675.396	 0	 0.761323	 -1.908667	 -0.265963	 -1.050725	 -1.512592	 2.108073	 -0.023847	 0.696403	 -0.717159	 -0.011686	 2
1462073675.406	 0	 0.435104	 -1.806926	 -0.301609	 -1.022708	 -1.507455	 2.154530	 -0.031495	 0.694634	 -0.718646	 -0.006305	 2
1462073675.416	 0	 0.275315	 -1.544597	 -0.272199	 -1.021544	 -1.503464	 2.171962	 -0.038313	 0.693520	 -0.719416	 -0.001630	 2
1462073675.426	 0	 0.270562	 -1.236838	 -0.222400	 -1.020070	 -1.500089	 2.186545	 -0.043832	 0.692527	 -0.720056	 0.002108	 2
1462073675.436	 0	 0.411237	 -1.095411	 -0.170086	 -1.001724	 -1.496592	 2.216137	 -0.048481	 0.691141	 -0.721072	 0.005399	 2
1462073675.446	 0	 0.661571	 -1.224557	 -0.130837	 -0.959048	 -1.492122	 2.270710	 -0.053176	 0.688915	 -0.722831	 0.009098	 2
1462073675.456	 0	 0.884121	 -1.570742	 -0.111484	 -0.900266	 -1.486213	 2.344504	 -0.058864	 0.685774	 -0.725295	 0.013996	 2
1462073675.466	 0	 0.930391	 -1.922042	 -0.135405	 -0.846942	 -1.479232	 2.416488	 -0.065902	 0.682187	 -0.727924	 0.020107	 2
1462073675.476	 0	 0.704760	 -2.233118	 -0.149124	 -0.818364	 -1.472873	 2.466855	 -0.074177	 0.679036	 -0.729842	 0.027173	 2
1462073675.486	 0	 0.176588	 -2.499105	 -0.080924	 -0.825941	 -1.469870	 2.483720	 -0.083376	 0.677421	 -0.730008	 0.035175	 2
1462073675.496	 0	 -0.596212	 -2.692233	 0.108385	 -0.878475	 -1.472847	 2.457538	 -0.092923	 0.678346	 -0.727503	 0.044171	 2
1462073675.506	 0	 -1.466194	 -2.769381	 0.411524	 -0.993037	 -1.482902	 2.370216	 -0.102120	 0.682349	 -0.721830	 0.054146	 2
1462073675.516	 0	 -2.291653	 -2.520649	 0.789779	 -1.213516	 -1.498558	 2.175240	 -0.109745	 0.689446	 -0.713067	 0.064467	 2
1462073675.526	 0	 -2.968165	 -1.730632	 1.215471	 -1.641899	 -1.513818	 1.765652	 -0.113819	 0.699334	 -0.701825	 0.073612	 2
1462073675.536	 0	 -3.421925	 -0.724732	 1.580483	 -2.306934	 -1.514595	 1.109361	 -0.113190	 0.711369	 -0.688973	 0.080367	 2
1462073675.546	 0	 -3.607144	 -0.056360	 1.710878	 -2.817422	 -1.493216	 0.599751	 -0.109274	 0.724425	 -0.675330	 0.084830	 2
1462073675.556	 0	 -3.595291	 0.368431	 1.772279	 -3.073439	 -1.460978	 0.339993	 -0.103534	 0.737531	 -0.661528	 0.087805	 2
1462073675.566	 0	 -3.465582	 1.026597	 1.942467	 3.070908	 -1.425854	 0.191668	 -0.095342	 0.750298	 -0.648085	 0.089152	 2
1462073675.576	 0	 -3.375182	 2.261493	 2.278229	 2.982028	 -1.389623	 0.082170	 -0.082434	 0.762989	 -0.635151	 0.087383	 2
1462073675.586	 0	 -3.461038	 3.813650	 2.731448	 2.921854	 -1.351001	 -0.014142	 -0.063075	 0.776154	 -0.622107	 0.081172	 2
1462073675.596	 0	 -3.714440	 5.155568	 3.166051	 2.884335	 -1.308310	 -0.102681	 -0.037563	 0.789975	 -0.607891	 0.070691	 2
1462073675.606	 0	 -3.897762	 5.908747	 3.404861	 2.866306	 -1.262139	 -0.181563	 -0.008117	 0.803806	 -0.592065	 0.057343	 2
1462073675.616	 0	 -3.665627	 5.576207	 3.402942	 2.858288	 -1.216593	 -0.250732	 0.021535	 0.816116	 -0.575793	 0.044206	 2
1462073675.626	 0	 -3.021142	 4.387835	 3.179515	 2.849208	 -1.176741	 -0.311110	 0.047629	 0.825562	 -0.561230	 0.034645	 2
1462073675.636	 0	 -2.367430	 3.022821	 2.801960	 2.836065	 -1.144108	 -0.362097	 0.068598	 0.832250	 -0.549348	 0.029509	 2
1462073675.646	 0	 -1.924889	 1.789415	 2.300642	 2.820921	 -1.117393	 -0.401847	 0.084133	 0.837121	 -0.539773	 0.028217	 2
1462073675.656	 0	 -1.719165	 0.838255	 1.757118	 2.807112	 -1.094667	 -0.429168	 0.094655	 0.841137	 -0.531651	 0.029613	 2
1462073675.666	 0	 -1.590991	 0.106069	 1.311161	 2.794903	 -1.074646	 -0.446118	 0.101099	 0.844772	 -0.524454	 0.032973	 2
1462073675.676	 0	 -1.433994	 -0.472398	 0.953775	 2.783079	 -1.057217	 -0.455768	 0.104359	 0.848021	 -0.518204	 0.037870	 2
1462073675.686	 0	 -1.261268	 -0.929266	 0.650672	 2.771181	 -1.042471	 -0.460005	 0.105042	 0.850833	 -0.512954	 0.043907	 2
1462073675.696	 0	 -1.106816	 -1.244137	 0.414061	 2.759177	 -1.030109	 -0.460326	 0.103777	 0.853231	 -0.508583	 0.050700	 2
1462073675.706	 0	 -1.014029	 -1.363497	 0.272528	 2.747399	 -1.019489	 -0.458165	 0.101321	 0.855306	 -0.504821	 0.057801	 2
1462073675.716	 0	 -1.094416	 -0.987785	 0.275658	 2.739143	 -1.008535	 -0.455003	 0.099404	 0.857539	 -0.500687	 0.063706	 2
1462073675.726	 0	 -1.142945	 -0.453393	 0.319421	 2.735702	 -0.996935	 -0.451940	 0.098840	 0.860009	 -0.496027	 0.067612	 2
1462073675.736	 0	 -1.213279	 0.382520	 0.425862	 2.738871	 -0.984406	 -0.450001	 0.100517	 0.862809	 -0.490675	 0.068515	 2
1462073675.746	 0	 -1.350874	 1.407161	 0.569815	 2.750608	 -0.970257	 -0.449693	 0.105171	 0.866118	 -0.484237	 0.065522	 2
1462073675.756	 0	 -1.539652	 2.181227	 0.753446	 2.769404	 -0.953801	 -0.451383	 0.112602	 0.869947	 -0.476447	 0.059261	 2
1462073675.766	 0	 -1.728460	 2.669644	 1.000497	 2.791056	 -0.934771	 -0.456148	 0.122230	 0.874071	 -0.467360	 0.051329	 2
1462073675.776	 0	 -1.838972	 2.979452	 1.289967	 2.813147	 -0.913538	 -0.465170	 0.133917	 0.878186	 -0.457220	 0.042483	 2
1462073675.786	 0	 -1.708567	 2.807569	 1.547278	 2.830992	 -0.892226	 -0.479022	 0.146603	 0.881664	 -0.447204	 0.034432	 2
1462073675.796	 0	 -1.377796	 2.385936	 1.766416	 2.841495	 -0.873041	 -0.497822	 0.159487	 0.884000	 -0.438527	 0.028311	 2
1462073675.806	 0	 -0.984111	 2.075806	 1.840035	 2.845975	 -0.857301	 -0.519994	 0.172115	 0.885111	 -0.431730	 0.023758	 2
1462073675.816	 0	 -0.613944	 1.958644	 1.673726	 2.849285	 -0.845560	 -0.541963	 0.183934	 0.885300	 -0.426661	 0.019308	 2
1462073675.826	 0	 -0.316761	 1.851486	 1.390911	 2.853567	 -0.837685	 -0.561385	 0.194372	 0.884889	 -0.423061	 0.014480	 2
1462073675.836	 0	 -0.107383	 1.700811	 1.085010	 2.859225	 -0.832934	 -0.577293	 0.203165	 0.884171	 -0.420570	 0.009357	 2
1462073675.846	 0	 0.070886	 1.465574	 0.839340	 2.864914	 -0.830698	 -0.590228	 0.210339	 0.883241	 -0.419074	 0.004480	 2
1462073675.856	 0	 0.266684	 1.301761	 0.622959	 2.870511	 -0.830961	 -0.600721	 0.216111	 0.882082	 -0.418601	 -0.000229	 2
1462073675.866	 0	 0.518206	 1.165622	 0.431928	 2.876218	 -0.834030	 -0.609337	 0.220742	 0.880603	 -0.419269	 -0.005043	 2
1462073675.876	 0	 0.843985	 0.912465	 0.267937	 2.880540	 -0.840558	 -0.616719	 0.224126	 0.878630	 -0.421527	 -0.009553	 2
1462073675.886	 0	 1.186008	 0.701868	 0.112727	 2.883171	 -0.850810	 -0.623172	 0.226301	 0.876086	 -0.425525	 -0.013747	 2
1462073675.896	 0	 1.520223	 0.628649	 -0.021953	 2.885220	 -0.864678	 -0.628921	 0.227604	 0.872946	 -0.431082	 -0.018152	 2
1462073675.906	 0	 1.882407	 0.574732	 -0.123658	 2.886931	 -0.882231	 -0.634427	 0.228267	 0.869116	 -0.438182	 -0.022994	 2
1462073675.916	 0	 2.354410	 0.490789	 -0.214876	 2.887448	 -0.904247	 -0.640404	 0.228297	 0.864343	 -0.447209	 -0.028199	 2
1462073675.926	 0	 2.989047	 0.111169	 -0.385930	 2.884706	 -0.932482	 -0.646845	 0.226958	 0.858275	 -0.459078	 -0.033204	 2
1462073675.936	 0	 3.047509	 -0.911425	 -0.572871	 2.874575	 -0.963893	 -0.651663	 0.222660	 0.851751	 -0.472965	 -0.035302	 2
1462073675.946	 0	 1.655383	 -1.500783	 -0.272084	 2.857285	 -0.985210	 -0.655089	 0.217169	 0.847401	 -0.483424	 -0.032419	 2
1462073675.956	 0	 -0.559995	 -0.779211	 0.506348	 2.843136	 -0.983320	 -0.660275	 0.216201	 0.847429	 -0.484120	 -0.027351	 2
1462073675.966	 0	 -1.026811	 0.054562	 0.744112	 2.836153	 -0.971698	 -0.667081	 0.219013	 0.849077	 -0.480131	 -0.023990	 2
1462073675.976	 0	 -0.710303	 0.445819	 0.704498	 2.833517	 -0.961787	 -0.674958	 0.223111	 0.850166	 -0.476351	 -0.022993	 2
1462073675.986	 0	 -0.235489	 0.194548	 0.714013	 2.828401	 -0.956327	 -0.684653	 0.226784	 0.850182	 -0.474626	 -0.022142	 2
1462073675.996	 0	 0.034683	 -0.364458	 0.885507	 2.815134	 -0.953504	 -0.698369	 0.229867	 0.849288	 -0.474869	 -0.019245	 2
1462073676.006	 0	 0.129055	 -0.989753	 0.938549	 2.793773	 -0.951506	 -0.714294	 0.231840	 0.847997	 -0.476409	 -0.013593	 2
1462073676.016	 0	 0.031084	 -1.559055	 0.861633	 2.767681	 -0.948967	 -0.728859	 0.232175	 0.846895	 -0.478364	 -0.005524	 2
1462073676.026	 0	 0.024461	 -1.831322	 0.861288	 2.738718	 -0.945888	 -0.742451	 0.231479	 0.845878	 -0.480511	 0.004084	 2
1462073676.036	 0	 0.353618	 -1.597509	 0.969306	 2.708492	 -0.944350	 -0.758892	 0.231399	 0.844111	 -0.483483	 0.013206	 2
1462073676.046	 0	 0.613690	 -0.978262	 0.958949	 2.681629	 -0.945358	 -0.778098	 0.232798	 0.841492	 -0.487145	 0.019655	 2
1462073676.056	 0	 0.348146	 -0.741121	 0.992243	 2.659190	 -0.944866	 -0.796218	 0.235020	 0.839204	 -0.489784	 0.024764	 2
1462073676.066	 0	 -0.153178	 -0.862585	 1.200104	 2.637333	 -0.939307	 -0.813222	 0.237828	 0.837778	 -0.490516	 0.030984	 2
1462073676.076	 0	 -0.787740	 -0.826422	 1.529957	 2.615935	 -0.926797	 -0.828895	 0.241544	 0.837453	 -0.488687	 0.038922	 2
1462073676.086	 0	 -1.311058	 0.068610	 1.978739	 2.600992	 -0.906961	 -0.845352	 0.248668	 0.838036	 -0.483497	 0.045725	 2
1462073676.096	 0	 -1.250521	 0.726105	 2.468186	 2.590586	 -0.883573	 -0.866375	 0.259589	 0.838370	 -0.476654	 0.050494	 2
1462073676.106	 0	 -0.220953	 0.986974	 2.630040	 2.576808	 -0.865199	 -0.896624	 0.272652	 0.836392	 -0.472494	 0.053468	 2
1462073676.116	 0	 0.636923	 0.775783	 2.308337	 2.558735	 -0.856138	 -0.931761	 0.284885	 0.832117	 -0.472658	 0.054927	 2
1462073676.126	 0	 0.529752	 0.479647	 1.469891	 2.544057	 -0.851731	 -0.958542	 0.293446	 0.828350	 -0.473934	 0.055793	 2
1462073676.136	 0	 -0.106862	 -0.048044	 0.607256	 2.537501	 -0.847638	 -0.968920	 0.297049	 0.827091	 -0.473732	 0.057094	 2
1462073676.146	 0	 -0.377969	 -1.126108	 0.264936	 2.528406	 -0.842972	 -0.969960	 0.296316	 0.827177	 -0.473449	 0.061808	 2
1462073676.156	 0	 -0.142164	 -2.215310	 0.203719	 2.508324	 -0.839910	 -0.970538	 0.292448	 0.826754	 -0.475337	 0.070765	 2
1462073676.166	 0	 0.349573	 -2.721923	 0.209644	 2.478592	 -0.840412	 -0.975038	 0.287095	 0.824915	 -0.479993	 0.081837	 2
1462073676.176	 0	 0.821780	 -2.598988	 0.192822	 2.445232	 -0.844680	 -0.984071	 0.281792	 0.821758	 -0.486615	 0.092267	 2
1462073676.186	 0	 1.189711	 -2.133706	 0.115081	 2.413289	 -0.852104	 -0.996597	 0.277375	 0.817769	 -0.494220	 0.100313	 2
1462073676.196	 0	 1.425447	 -1.553908	 -0.064887	 2.385624	 -0.862305	 -1.010666	 0.273796	 0.813485	 -0.502176	 0.105337	 2
1462073676.206	 0	 1.598444	 -1.056655	 -0.359114	 2.363626	 -0.875489	 -1.024258	 0.270536	 0.809309	 -0.510229	 0.107214	 2
1462073676.216	 0	 1.744392	 -0.863517	 -0.653804	 2.344906	 -0.891667	 -1.036870	 0.266796	 0.805215	 -0.518643	 0.107043	 2
1462073676.226	 0	 1.850147	 -0.891934	 -0.862813	 2.326694	 -0.910226	 -1.049004	 0.262214	 0.801049	 -0.527572	 0.105981	 2
1462073676.236	 0	 1.868959	 -1.077075	 -1.011774	 2.307113	 -0.930078	 -1.060704	 0.256565	 0.796803	 -0.536881	 0.105062	 2
1462073676.246	 0	 1.836551	 -1.275767	 -1.143364	 2.286075	 -0.950657	 -1.071594	 0.249794	 0.792571	 -0.546349	 0.104574	 2
1462073676.256	 0	 1.827891	 -1.655239	 -1.260856	 2.262139	 -0.971841	 -1.082007	 0.241645	 0.788247	 -0.556097	 0.105027	 2
1462073676.266	 0	 1.897813	 -2.363424	 -1.354382	 2.230999	 -0.994006	 -1.093333	 0.231296	 0.783405	 -0.566748	 0.107588	 2
1462073676.276	 0	 1.893739	 -3.053238	 -1.291491	 2.190369	 -1.015974	 -1.107129	 0.218896	 0.777840	 -0.578174	 0.112977	 2
1462073676.286	 0	 1.710667	 -3.328988	 -1.110217	 2.144170	 -1.035472	 -1.122735	 0.205849	 0.772003	 -0.589177	 0.120451	 2
1462073676.296	 0	 1.458801	 -3.264134	 -0.921975	 2.095782	 -1.051540	 -1.140066	 0.193390	 0.766131	 -0.599168	 0.128999	 2
1462073676.306	 0	 1.236443	 -3.009362	 -0.785500	 2.047016	 -1.063621	 -1.159289	 0.182352	 0.760315	 -0.607954	 0.138064	 2
1462073676.316	 0	 1.086934	 -2.618242	 -0.738994	 2.007584	 -1.075262	 -1.173305	 0.172009	 0.755638	 -0.615124	 0.145073	 2
1462073676.326	 0	 1.012693	 -2.311556	 -0.718441	 1.971679	 -1.086053	 -1.187022	 0.162687	 0.751301	 -0.621527	 0.150944	 2
1462073676.336	 0	 0.931932	 -2.019826	 -0.709695	 1.938806	 -1.096242	 -1.200424	 0.154199	 0.747273	 -0.627315	 0.155823	 2
1462073676.346	 0	 0.785599	 -1.610834	 -0.690760	 1.911066	 -1.105623	 -1.212256	 0.146851	 0.743834	 -0.632242	 0.159422	 2
1462073676.356	 0	 0.603168	 -1.139185	 -0.699703	 1.890700	 -1.114291	 -1.220995	 0.140819	 0.741271	 -0.636109	 0.161410	 2
1462073676.366	 0	 0.444703	 -0.761451	 -0.742768	 1.877446	 -1.122739	 -1.226321	 0.135800	 0.739557	 -0.639069	 0.161877	 2
1462073676.376	 0	 0.356911	 -0.580510	 -0.760570	 1.868485	 -1.131066	 -1.229447	 0.131349	 0.738362	 -0.641479	 0.161477	 2
1462073676.386	 0	 0.289470	 -0.556439	 -0.841822	 1.861823	 -1.139859	 -1.230683	 0.126766	 0.737469	 -0.643627	 0.160669	 2
1462073676.396	 0	 0.265296	 -0.521950	 -0.789068	 1.855963	 -1.148400	 -1.231275	 0.122272	 0.736690	 -0.645590	 0.159848	 2
1462073676.406	 0	 0.346752	 -0.577439	 -0.634692	 1.847753	 -1.155792	 -1.234200	 0.118244	 0.735623	 -0.647639	 0.159504	 2
1462073676.416	 0	 0.515467	 -0.726431	 -0.431856	 1.833515	 -1.161697	 -1.242296	 0.114634	 0.733834	 -0.650148	 0.160170	 2
1462073676.426	 0	 0.729372	 -1.020234	 -0.232892	 1.810527	 -1.166054	 -1.257046	 0.111086	 0.731033	 -0.653371	 0.162346	 2
1462073676.436	 0	 0.864909	 -1.336797	 -0.124047	 1.779496	 -1.169388	 -1.277138	 0.107119	 0.727325	 -0.657250	 0.165970	 2
1462073676.446	 0	 0.818039	 -1.656898	 0.009800	 1.744264	 -1.171223	 -1.298224	 0.102529	 0.723229	 -0.661153	 0.171185	 2
1462073676.456	 0	 0.668140	 -1.822912	 0.083097	 1.710390	 -1.171805	 -1.315683	 0.097401	 0.719403	 -0.664451	 0.177421	 2
1462073676.466	 0	 0.522659	 -1.921182	 0.113290	 1.677864	 -1.171438	 -1.330331	 0.091954	 0.715765	 -0.667266	 0.184338	 2
1462073676.476	 0	 0.311669	 -1.909457	 0.178116	 1.649590	 -1.170196	 -1.340131	 0.086437	 0.712654	 -0.669291	 0.191579	 2
1462073676.486	 0	 0.117387	 -1.625677	 0.364694	 1.628174	 -1.167270	 -1.344728	 0.081919	 0.710316	 -0.670285	 0.198643	 2
1462073676.496	 0	 0.073807	 -1.014143	 0.487998	 1.613893	 -1.162453	 -1.347321	 0.079734	 0.708658	 -0.670553	 0.204463	 2
1462073676.506	 0	 0.132039	 -0.282964	 0.577424	 1.606374	 -1.156965	 -1.350632	 0.080305	 0.707604	 -0.670553	 0.207862	 2
1462073676.516	 0	 0.182509	 -0.002218	 0.591321	 1.601538	 -1.151096	 -1.355432	 0.082435	 0.706730	 -0.670570	 0.209938	 2
1462073676.526	 0	 0.111210	 0.035263	 0.597619	 1.598263	 -1.145194	 -1.359302	 0.084769	 0.706034	 -0.670432	 0.211781	 2
1462073676.536	 0	 -0.001423	 0.089202	 0.656653	 1.598235	 -1.138842	 -1.360159	 0.087285	 0.705779	 -0.669788	 0.213639	 2
1462073676.546	 0	 0.153811	 -0.014750	 0.904788	 1.595858	 -1.130606	 -1.363202	 0.090443	 0.705095	 -0.669259	 0.216225	 2
1462073676.556	 0	 0.223141	 -0.318714	 1.257320	 1.588345	 -1.118962	 -1.368856	 0.093993	 0.703560	 -0.668864	 0.220885	 2
1462073676.566	 0	 0.154099	 -0.730059	 1.559968	 1.578258	 -1.104095	 -1.373233	 0.097361	 0.701569	 -0.668104	 0.227943	 2
1462073676.576	 0	 0.102880	 -1.425523	 1.851290	 1.563782	 -1.086358	 -1.375679	 0.099595	 0.698890	 -0.667034	 0.238116	 2
1462073676.586	 0	 -0.055198	 -1.905988	 2.119965	 1.546182	 -1.065815	 -1.374961	 0.100683	 0.695636	 -0.665427	 0.251317	 2
1462073676.596	 0	 -0.342932	 -1.844481	 2.418258	 1.533421	 -1.042540	 -1.367981	 0.102193	 0.692921	 -0.662415	 0.265750	 2
1462073676.606	 0	 -0.525514	 -1.489272	 2.779118	 1.527332	 -1.015859	 -1.356385	 0.105542	 0.690952	 -0.657881	 0.280428	 2
1462073676.616	 0	 -0.562914	 -0.824553	 3.052070	 1.528099	 -0.986230	 -1.343576	 0.111773	 0.689731	 -0.652189	 0.293984	 2
1462073676.626	 0	 -0.533966	 -0.103803	 3.304715	 1.535051	 -0.954149	 -1.331717	 0.121180	 0.689189	 -0.645633	 0.305764	 2
1462073676.636	 0	 -0.502101	 0.493043	 3.632918	 1.547172	 -0.918760	 -1.321184	 0.133792	 0.689153	 -0.638083	 0.316254	 2
1462073676.646	 0	 -0.376076	 1.220823	 3.867732	 1.563403	 -0.880692	 -1.313672	 0.149561	 0.689404	 -0.629830	 0.325066	 2
1462073676.656	 0	 -0.463164	 1.920457	 3.948538	 1.585548	 -0.841332	 -1.307520	 0.167915	 0.690449	 -0.620549	 0.331667	 2
1462073676.666	 0	 -0.665327	 2.200350	 4.036032	 1.612527	 -0.801001	 -1.299923	 0.187334	 0.692404	 -0.609748	 0.337180	 2
1462073676.676	 0	 -0.558917	 2.226898	 3.926645	 1.638674	 -0.761037	 -1.294605	 0.206850	 0.694096	 -0.598733	 0.341997	 2
1462073676.686	 0	 -0.510125	 2.213732	 3.597843	 1.662793	 -0.723869	 -1.291664	 0.225346	 0.695439	 -0.588219	 0.345807	 2
1462073676.696	 0	 -0.529045	 2.427492	 3.147048	 1.687926	 -0.690762	 -1.289101	 0.242646	 0.697251	 -0.577922	 0.347808	 2
1462073676.706	 0	 -0.079227	 2.658434	 2.468521	 1.713079	 -0.664290	 -1.290798	 0.259022	 0.699094	 -0.569310	 0.346500	 2
1462073676.716	 0	 0.389857	 2.623861	 1.851302	 1.735163	 -0.645071	 -1.298186	 0.273999	 0.700213	 -0.563341	 0.342451	 2
1462073676.726	 0	 0.522538	 2.317770	 1.496662	 1.753359	 -0.630419	 -1.307828	 0.287106	 0.700640	 -0.559088	 0.337778	 2
1462073676.736	 0	 0.503840	 1.983938	 1.215555	 1.768742	 -0.618854	 -1.316959	 0.298204	 0.700833	 -0.555698	 0.333328	 2
1462073676.746	 0	 0.461738	 1.711297	 1.149439	 1.781534	 -0.608565	 -1.325526	 0.307935	 0.700706	 -0.552778	 0.329581	 2
1462073676.756	 0	 0.254124	 1.521036	 1.229408	 1.793264	 -0.597271	 -1.332355	 0.317025	 0.700510	 -0.549405	 0.327008	 2
1462073676.766	 0	 0.145168	 1.193389	 1.324292	 1.803062	 -0.585042	 -1.337856	 0.325356	 0.700067	 -0.545820	 0.325776	 2
1462073676.776	 0	 0.055988	 0.774090	 1.402165	 1.809256	 -0.571764	 -1.342612	 0.332716	 0.699013	 -0.542388	 0.326338	 2
1462073676.786	 0	 -0.007065	 0.220843	 1.499879	 1.810663	 -0.557474	 -1.346847	 0.338866	 0.697117	 -0.539390	 0.329025	 2
1462073676.796	 0	 -0.133460	 -0.446790	 1.638645	 1.806278	 -0.541727	 -1.350191	 0.343558	 0.694205	 -0.536864	 0.334401	 2
1462073676.806	 0	 -0.292607	 -1.051514	 1.785741	 1.796311	 -0.524038	 -1.352025	 0.346800	 0.690312	 -0.534581	 0.342669	 2
1462073676.816	 0	 -0.446243	 -1.732742	 1.798858	 1.780661	 -0.505602	 -1.351892	 0.348076	 0.685546	 -0.532774	 0.353583	 2
1462073676.826	 0	 -0.538467	 -2.247536	 1.760766	 1.760272	 -0.487214	 -1.350096	 0.347535	 0.680025	 -0.531506	 0.366451	 2
1462073676.836	 0	 -0.564829	 -2.797868	 1.688732	 1.735055	 -0.469407	 -1.347286	 0.345232	 0.673596	 -0.531013	 0.380931	 2
1462073676.846	 0	 -0.557779	 -3.462469	 1.566318	 1.703670	 -0.452716	 -1.343728	 0.340750	 0.665926	 -0.531665	 0.397195	 2
1462073676.856	 0	 -0.540438	 -4.133062	 1.355301	 1.665835	 -0.438087	 -1.339552	 0.333761	 0.656940	 -0.533695	 0.414973	 2
1462073676.866	 0	 -0.602183	 -4.793091	 1.102440	 1.621799	 -0.426027	 -1.334125	 0.323939	 0.646742	 -0.536944	 0.434142	 2
1462073676.876	 0	 -0.772593	 -5.401846	 0.836081	 1.572411	 -0.416816	 -1.326474	 0.311075	 0.635587	 -0.540961	 0.454559	 2
1462073676.886	 0	 -1.044873	 -5.886932	 0.568563	 1.518979	 -0.410737	 -1.315715	 0.295126	 0.623825	 -0.545190	 0.475932	 2
1462073676.896	 0	 -1.389344	 -6.131925	 0.379577	 1.463865	 -0.407591	 -1.301236	 0.276607	 0.611961	 -0.548856	 0.497744	 2
1462073676.906	 0	 -1.776765	 -6.067594	 0.294025	 1.410192	 -0.406806	 -1.282688	 0.256484	 0.600653	 -0.551127	 0.519318	 2
1462073676.916	 0	 -2.153929	 -5.753417	 0.344994	 1.360767	 -0.407434	 -1.259966	 0.235879	 0.590466	 -0.551321	 0.540145	 2
1462073676.926	 0	 -2.441793	 -5.347497	 0.469577	 1.316725	 -0.408663	 -1.233690	 0.215631	 0.581531	 -0.549311	 0.559984	 2
1462073676.936	 0	 -2.621961	 -4.997942	 0.638526	 1.277440	 -0.409948	 -1.204827	 0.196088	 0.573538	 -0.545388	 0.578926	 2
1462073676.946	 0	 -2.698814	 -4.722868	 0.845316	 1.241728	 -0.410639	 -1.174319	 0.177455	 0.566005	 -0.539885	 0.597220	 2
1462073676.956	 0	 -2.683838	 -4.468000	 1.089485	 1.208964	 -0.410114	 -1.142881	 0.160020	 0.558638	 -0.533022	 0.614984	 2
1462073676.966	 0	 -2.572244	 -4.129075	 1.377291	 1.179325	 -0.407570	 -1.111263	 0.144353	 0.551375	 -0.524941	 0.632127	 2
1462073676.976	 0	 -2.367570	 -3.959591	 1.657382	 1.151886	 -0.402498	 -1.080193	 0.130621	 0.543883	 -0.515931	 0.648802	 2
1462073676.986	 0	 -2.189304	 -3.726270	 1.929770	 1.125787	 -0.394954	 -1.049801	 0.118634	 0.535969	 -0.506176	 0.665169	 2
1462073676.996	 0	 -2.112612	 -3.337107	 2.237532	 1.103119	 -0.384945	 -1.018873	 0.108603	 0.528483	 -0.495205	 0.680943	 2
1462073677.006	 0	 -2.063750	 -2.924816	 2.496726	 1.084737	 -0.372843	 -0.986965	 0.100465	 0.521902	 -0.482939	 0.695913	 2
1462073677.016	 0	 -1.949087	 -2.742032	 2.667950	 1.068500	 -0.359094	 -0.954930	 0.093720	 0.515607	 -0.469901	 0.710323	 2
1462073677.026	 0	 -1.790767	 -2.761842	 2.786819	 1.051781	 -0.343976	 -0.923574	 0.087845	 0.508723	 -0.456571	 0.724587	 2
1462073677.036	 0	 -1.681487	 -2.786692	 2.924185	 1.034160	 -0.327605	 -0.892577	 0.082645	 0.501140	 -0.442888	 0.738836	 2
1462073677.046	 0	 -1.639341	 -2.753171	 3.016851	 1.016317	 -0.310508	 -0.861347	 0.077935	 0.493219	 -0.428712	 0.752906	 2
1462073677.056	 0	 -1.565565	 -2.691970	 2.979477	 0.998446	 -0.293667	 -0.830510	 0.073524	 0.485163	 -0.414467	 0.766439	 2
1462073677.066	 0	 -1.342819	 -2.662571	 2.870169	 0.979876	 -0.277189	 -0.801639	 0.069606	 0.476682	 -0.400830	 0.779272	 2
1462073677.076	 0	 -0.933123	 -2.608057	 2.779716	 0.960351	 -0.260023	 -0.776277	 0.066920	 0.467483	 -0.388267	 0.791347	 2
1462073677.086	 0	 -0.362758	 -2.521302	 2.800070	 0.940158	 -0.240336	 -0.755254	 0.066462	 0.457413	 -0.376825	 0.802720	 2
1462073677.096	 0	 0.257905	 -2.514578	 2.951396	 0.918968	 -0.216432	 -0.738232	 0.068787	 0.446121	 -0.366151	 0.813743	 2
1462073677.106	 0	 0.853666	 -2.627589	 3.155112	 0.895768	 -0.187597	 -0.724402	 0.073828	 0.433096	 -0.355909	 0.824807	 2
1462073677.116	 0	 1.359828	 -2.647461	 3.259228	 0.871116	 -0.154657	 -0.713225	 0.081219	 0.418641	 -0.346105	 0.835676	 2
1462073677.126	 0	 1.787004	 -2.545866	 3.214889	 0.846522	 -0.119197	 -0.704782	 0.090541	 0.403556	 -0.337088	 0.845764	 2
1462073677.136	 0	 2.127033	 -2.337911	 3.134997	 0.823174	 -0.082052	 -0.698736	 0.101510	 0.388447	 -0.328870	 0.854780	 2
1462073677.146	 0	 2.365972	 -2.046880	 3.030115	 0.802219	 -0.043971	 -0.694473	 0.113804	 0.373936	 -0.321286	 0.862552	 2
1462073677.156	 0	 2.570218	 -1.851639	 2.902261	 0.783391	 -0.005392	 -0.691806	 0.127088	 0.359988	 -0.314335	 0.869167	 2
1462073677.166	 0	 2.771406	 -1.832059	 2.750420	 0.765112	 0.033572	 -0.690889	 0.141037	 0.345918	 -0.308198	 0.874908	 2
1462073677.176	 0	 2.924596	 -2.067309	 2.639255	 0.745285	 0.072856	 -0.691358	 0.155195	 0.330820	 -0.302896	 0.880185	 2
1462073677.186	 0	 2.989012	 -2.321640	 2.500975	 0.722619	 0.111980	 -0.692381	 0.169002	 0.314244	 -0.298303	 0.885271	 2
1462073677.196	 0	 3.069389	 -2.463274	 2.216531	 0.698682	 0.150032	 -0.694897	 0.182429	 0.296943	 -0.294914	 0.889702	 2
1462073677.206	 0	 3.160029	 -2.493019	 1.965010	 0.674555	 0.187110	 -0.699234	 0.195679	 0.279344	 -0.292782	 0.893284	 2
1462073677.216	 0	 3.213826	 -2.539664	 1.860725	 0.650226	 0.223918	 -0.704230	 0.208848	 0.261428	 -0.291274	 0.896213	 2
1462073677.226	 0	 3.206321	 -2.518616	 1.826882	 0.626067	 0.260618	 -0.708763	 0.221898	 0.243463	 -0.289820	 0.898605	 2
1462073677.236	 0	 3.154392	 -2.435555	 1.819581	 0.602411	 0.296992	 -0.712287	 0.234724	 0.225733	 -0.288163	 0.900506	 2
1462073677.246	 0	 3.087837	 -2.269630	 1.792928	 0.580034	 0.332822	 -0.714734	 0.247351	 0.208677	 -0.286193	 0.901868	 2
1462073677.256	 0	 2.974916	 -2.198289	 1.758339	 0.558634	 0.367644	 -0.716246	 0.259566	 0.192270	 -0.284059	 0.902756	 2
1462073677.276	 1	 2.621684	 -2.149628	 1.432547	 0.515468	 0.431246	 -0.716659	 0.281071	 0.160615	 -0.280202	 0.903708	 2
1462073677.286	 1	 2.507817	 -1.799676	 1.096817	 0.497495	 0.459107	 -0.718782	 0.290764	 0.146851	 -0.279498	 0.903201	 2
1462073677.296	 1	 2.463851	 -1.860921	 0.847241	 0.481208	 0.485183	 -0.722956	 0.300027	 0.133855	 -0.279870	 0.902075	 2
1462073677.306	 1	 2.370749	 -2.020175	 0.702692	 0.463750	 0.509875	 -0.727913	 0.308519	 0.120440	 -0.281093	 0.900720	 2
1462073677.316	 1	 2.255837	 -2.078098	 0.589117	 0.445648	 0.533108	 -0.733120	 0.316235	 0.106945	 -0.282859	 0.899194	 2
1462073677.326	 1	 2.136212	 -2.054747	 0.533877	 0.428323	 0.552411	 -0.738468	 0.322312	 0.094521	 -0.285238	 0.897675	 2
1462073677.346	 2	 1.983688	 -2.112175	 0.618834	 0.392811	 0.588325	 -0.746345	 0.332881	 0.070238	 -0.289517	 0.894671	 2
1462073677.356	 2	 1.914353	 -1.929661	 0.678687	 0.373713	 0.608720	 -0.747658	 0.338851	 0.057458	 -0.290507	 0.893020	 2
1462073677.366	 2	 1.828076	 -1.774271	 0.804513	 0.355059	 0.628763	 -0.746860	 0.344659	 0.045331	 -0.290633	 0.891453	 2
1462073677.376	 2	 1.749774	 -1.693743	 0.877350	 0.336573	 0.648332	 -0.744272	 0.350255	 0.033723	 -0.290101	 0.889958	 2
1462073677.386	 2	 1.671042	 -1.651953	 0.888016	 0.317554	 0.667204	 -0.740485	 0.355478	 0.022277	 -0.289327	 0.888498	 2
1462073677.396	 2	 1.576396	 -1.521371	 0.816518	 0.299467	 0.685010	 -0.736474	 0.360407	 0.011548	 -0.288528	 0.886975	 2
1462073677.406	 2	 1.470057	 -1.335837	 0.691278	 0.283445	 0.701424	 -0.733047	 0.365069	 0.001950	 -0.287878	 0.885351	 2
1462073677.416	 2	 1.354792	 -1.225851	 0.557954	 0.269371	 0.716340	 -0.730529	 0.369389	 -0.006624	 -0.287532	 0.883648	 2
1462073677.426	 2	 1.242469	 -1.172234	 0.426210	 0.256519	 0.729797	 -0.729024	 0.373266	 -0.014535	 -0.287641	 0.881887	 2
1462073677.436	 2	 1.147321	 -1.098451	 0.295571	 0.245070	 0.741937	 -0.728650	 0.376774	 -0.021766	 -0.288189	 0.880065	 2
1462073677.446	 2	 1.066075	 -1.023599	 0.171215	 0.235260	 0.752956	 -0.729504	 0.380019	 -0.028281	 -0.289135	 0.878172	 2
1462073677.456	 2	 1.092481	 -1.213810	 0.059441	 0.225415	 0.763586	 -0.731710	 0.383057	 -0.034982	 -0.290752	 0.876075	 2
1462073677.466	 2	 1.211053	 -1.580567	 -0.013213	 0.212988	 0.775131	 -0.735268	 0.386053	 -0.043230	 -0.293379	 0.873512	 2
1462073677.476	 2	 1.291563	 -1.917040	 -0.031965	 0.197486	 0.787558	 -0.739354	 0.388911	 -0.053066	 -0.296767	 0.870552	 2
1462073677.486	 2	 1.294808	 -2.162497	 0.001958	 0.178955	 0.800309	 -0.742964	 0.391411	 -0.064158	 -0.300547	 0.867383	 2
1462073677.496	 2	 1.116282	 -2.061474	 0.073727	 0.159245	 0.811995	 -0.745065	 0.393277	 -0.075231	 -0.304070	 0.864416	 2
1462073677.506	 2	 0.612107	 -1.089468	 0.144713	 0.145198	 0.819662	 -0.744838	 0.394370	 -0.082636	 -0.305937	 0.862581	 2
1462073677.516	 2	 0.223550	 -0.146494	 0.072676	 0.141393	 0.822644	 -0.743980	 0.395079	 -0.084642	 -0.306011	 0.862036	 2
1462073677.526	 2	 0.303462	 -0.122702	 0.012519	 0.140635	 0.825307	 -0.744247	 0.396072	 -0.085499	 -0.306003	 0.861498	 2
1462073677.536	 2	 0.502597	 -0.243216	 0.048031	 0.138704	 0.829862	 -0.744667	 0.397673	 -0.087230	 -0.306099	 0.860553	 2
1462073677.546	 2	 0.621591	 -0.189862	 0.119963	 0.136393	 0.835913	 -0.744383	 0.399872	 -0.089249	 -0.305816	 0.859426	 2
1462073677.556	 2	 0.683897	 -0.139739	 0.163583	 0.134232	 0.842796	 -0.743443	 0.402471	 -0.091217	 -0.305139	 0.858246	 2
1462073677.566	 2	 0.655013	 -0.199887	 0.217629	 0.131177	 0.849703	 -0.741765	 0.404977	 -0.093415	 -0.304329	 0.857118	 2
1462073677.576	 2	 0.515145	 -0.280800	 0.296960	 0.126218	 0.855564	 -0.738657	 0.406825	 -0.095945	 -0.303406	 0.856290	 2
1462073677.586	 2	 0.323043	 -0.338255	 0.363110	 0.119554	 0.859706	 -0.734132	 0.407771	 -0.098602	 -0.302410	 0.855891	 2
1462073677.606	 2	 -0.053345	 -0.446064	 0.304635	 0.102962	 0.862150	 -0.723333	 0.406841	 -0.103926	 -0.300927	 0.856226	 2
1462073677.596	 2	 0.126446	 -0.415091	 0.395013	 0.111251	 0.861888	 -0.728434	 0.407717	 -0.101372	 -0.301448	 0.855932	 2
1462073677.616	 2	 -0.210569	 -0.370316	 0.126595	 0.096773	 0.860602	 -0.720403	 0.405411	 -0.105719	 -0.301076	 0.856632	 2
1462073677.626	 2	 -0.309827	 -0.193947	 -0.086184	 0.094403	 0.857689	 -0.720484	 0.403822	 -0.106257	 -0.301863	 0.857039	 2
1462073677.636	 2	 -0.342609	 -0.000332	 -0.240764	 0.095931	 0.854114	 -0.723121	 0.402406	 -0.105527	 -0.303019	 0.857387	 2
1462073677.646	 2	 -0.321008	 0.104467	 -0.300725	 0.099641	 0.850556	 -0.727029	 0.401265	 -0.104114	 -0.304284	 0.857647	 2
1462073677.656	 2	 -0.232782	 0.281613	 -0.330752	 0.105333	 0.847638	 -0.731488	 0.400673	 -0.102065	 -0.305333	 0.857797	 2
1462073677.666	 2	 -0.087025	 0.458417	 -0.384730	 0.113522	 0.845981	 -0.736838	 0.400958	 -0.099337	 -0.306147	 0.857694	 2
1462073677.676	 2	 0.042440	 0.539847	 -0.396822	 0.123263	 0.845671	 -0.742840	 0.402027	 -0.096310	 -0.306795	 0.857307	 2
1462073677.686	 2	 0.055500	 0.538161	 -0.330875	 0.132706	 0.845826	 -0.748199	 0.403287	 -0.093370	 -0.307175	 0.856904	 2
1462073677.696	 2	 -0.057453	 0.511372	 -0.262028	 0.154709	 0.831664	 -0.762555	 0.400127	 -0.084248	 -0.310403	 0.858167	 2
1462073677.706	 2	 -0.232292	 0.506933	 -0.211522	 0.161882	 0.829449	 -0.765387	 0.400199	 -0.081327	 -0.310424	 0.858408	 2
1462073677.716	 2	 -0.402992	 0.499081	 -0.189859	 0.168308	 0.825557	 -0.767324	 0.399496	 -0.078231	 -0.310399	 0.859032	 2
1462073677.726	 2	 -0.524847	 0.480099	 -0.216685	 0.174457	 0.820298	 -0.769070	 0.398191	 -0.074954	 -0.310506	 0.859890	 2
1462073677.736	 2	 -0.594901	 0.393640	 -0.287219	 0.180381	 0.814129	 -0.771437	 0.396453	 -0.071716	 -0.311039	 0.860777	 2
1462073677.746	 2	 -0.620319	 0.272970	 -0.363790	 0.185800	 0.807441	 -0.774730	 0.394393	 -0.068768	 -0.312140	 0.861565	 2
1462073677.756	 2	 -0.572918	 0.174691	 -0.403485	 0.190669	 0.800898	 -0.778769	 0.392290	 -0.066218	 -0.313668	 0.862170	 2
1462073677.766	 2	 -0.449165	 0.140515	 -0.372907	 0.195025	 0.795419	 -0.782845	 0.390557	 -0.064087	 -0.315201	 0.862558	 2
1462073677.776	 2	 -0.317391	 0.188512	 -0.301136	 0.199251	 0.791372	 -0.786370	 0.389427	 -0.062170	 -0.316365	 0.862783	 2
1462073677.786	 2	 -0.242838	 0.275375	 -0.173086	 0.203346	 0.788433	 -0.788546	 0.388783	 -0.060256	 -0.316849	 0.863032	 2
1462073677.796	 2	 -0.218463	 0.308566	 0.013519	 0.206275	 0.786183	 -0.788398	 0.388315	 -0.058526	 -0.316478	 0.863497	 2
1462073677.806	 2	 -0.231663	 0.298228	 0.195783	 0.207346	 0.784293	 -0.785625	 0.387776	 -0.057158	 -0.315294	 0.864264	 2
1462073677.816	 2	 -0.299607	 0.246346	 0.347230	 0.206371	 0.782203	 -0.780523	 0.386895	 -0.056187	 -0.313520	 0.865367	 2
1462073677.826	 2	 -0.418117	 0.135873	 0.465534	 0.203005	 0.779315	 -0.773377	 0.385361	 -0.055709	 -0.311409	 0.866844	 2
1462073677.836	 2	 -0.544412	 -0.003621	 0.538873	 0.197266	 0.775322	 -0.764740	 0.383035	 -0.055781	 -0.309218	 0.868652	 2
1462073677.846	 2	 -0.631375	 -0.140344	 0.570331	 0.189650	 0.770396	 -0.755364	 0.380050	 -0.056378	 -0.307141	 0.870660	 2
1462073677.856	 2	 -0.651034	 -0.246553	 0.583369	 0.180777	 0.765068	 -0.745778	 0.376709	 -0.057444	 -0.305218	 0.872716	 2
1462073677.866	 2	 -0.635475	 -0.395043	 0.646863	 0.170378	 0.759874	 -0.735765	 0.373211	 -0.059162	 -0.303339	 0.874756	 2
1462073677.876	 2	 -0.559367	 -0.365124	 0.696570	 0.159182	 0.755247	 -0.725062	 0.369866	 -0.061245	 -0.301202	 0.876770	 2
1462073677.886	 2	 -0.445578	 -0.228211	 0.702182	 0.149418	 0.751646	 -0.714613	 0.367181	 -0.062969	 -0.298769	 0.878607	 2
1462073677.896	 2	 -0.394958	 -0.188504	 0.771385	 0.140008	 0.748756	 -0.703678	 0.364886	 -0.064605	 -0.295957	 0.880394	 2
1462073677.906	 2	 -0.418892	 -0.157798	 0.889113	 0.129667	 0.745846	 -0.691179	 0.362516	 -0.066393	 -0.292596	 0.882361	 2
1462073677.916	 2	 -0.424557	 0.040748	 0.838787	 0.121219	 0.742691	 -0.678914	 0.360329	 -0.067382	 -0.288984	 0.884370	 2
1462073677.926	 2	 -0.372705	 0.192529	 0.816301	 0.115010	 0.739782	 -0.667291	 0.358562	 -0.067565	 -0.285204	 0.886299	 2
1462073677.936	 2	 -0.369709	 0.393385	 0.794698	 0.110765	 0.737046	 -0.655907	 0.357148	 -0.066971	 -0.281142	 0.888211	 2
1462073677.946	 2	 -0.312321	 0.394892	 0.732398	 0.107846	 0.734528	 -0.645419	 0.355986	 -0.066001	 -0.277205	 0.889986	 2
1462073677.956	 2	 -0.163672	 0.264438	 0.696851	 0.104292	 0.733243	 -0.635661	 0.355254	 -0.065648	 -0.273594	 0.891421	 2
1462073677.966	 2	 0.012431	 0.086976	 0.643575	 0.099729	 0.733594	 -0.626818	 0.355079	 -0.066167	 -0.270433	 0.892416	 2
1462073677.976	 2	 0.146736	 -0.130758	 0.593486	 0.093633	 0.735340	 -0.618852	 0.355295	 -0.067737	 -0.267827	 0.892998	 2
