% Gyrometer data recorded with 'snsrlog'
% 
% 
% Label description:
% 	 0: Default Label
% 	 1: still_drop
% 	 2: walk_drop
% 	 3: other
% 	 4: dtw_same
% 	 5: dtw_diff
% 	 6: delete
% 
% Column description:
% 	 1: Seconds.milliseconds since 1970
% 	 2: Number of skipped measurements
% 	 3: Gyro X
% 	 4: Gyro Y
% 	 5: Gyro Z
% 	 6: Roll of the device
% 	 7: Pitch of the device
% 	 8: Yaw of the device
% 	 9: Quaternion X
% 	 10: Quaternion Y
% 	 11: Quaternion Z
% 	 12: Quaternion W
% 	 13: Label used for the current sample
% 
% 
1462096050.677	 0	 -1.082749	 0.315567	 -0.466902	 0.041553	 0.678468	 -0.218216	 0.332848	 -0.016753	 -0.095792	 0.937953	 2
1462096050.687	 0	 -1.084408	 0.589549	 -0.673227	 0.051307	 0.667368	 -0.225557	 0.328066	 -0.012766	 -0.097949	 0.939476	 2
1462096050.697	 0	 -1.094337	 0.890403	 -0.844061	 0.065174	 0.656009	 -0.234896	 0.323380	 -0.007098	 -0.100448	 0.940896	 2
1462096050.707	 0	 -1.129420	 1.288120	 -1.014839	 0.083735	 0.644140	 -0.246038	 0.318735	 0.000596	 -0.103149	 0.942214	 2
1462096050.717	 0	 -1.159222	 1.676233	 -1.187885	 0.107153	 0.631553	 -0.258851	 0.314085	 0.010453	 -0.106016	 0.943399	 2
1462096050.727	 0	 -1.127308	 2.027987	 -1.362872	 0.135028	 0.618660	 -0.273286	 0.309649	 0.022289	 -0.109112	 0.944307	 2
1462096050.737	 0	 -1.051554	 2.363950	 -1.497888	 0.166916	 0.605848	 -0.289077	 0.305634	 0.035918	 -0.112391	 0.944810	 2
1462096050.747	 0	 -0.979482	 2.716807	 -1.504824	 0.202061	 0.593312	 -0.304861	 0.302107	 0.051174	 -0.115326	 0.944888	 2
1462096050.757	 0	 -0.971124	 3.063043	 -1.423875	 0.239883	 0.580696	 -0.319287	 0.298839	 0.068005	 -0.117399	 0.944610	 2
1462096050.767	 0	 -1.039280	 3.213067	 -1.297191	 0.278371	 0.567447	 -0.331487	 0.295400	 0.085627	 -0.118553	 0.944114	 2
1462096050.777	 0	 -1.128249	 3.249348	 -1.170319	 0.315976	 0.553353	 -0.341207	 0.291537	 0.103352	 -0.118933	 0.943493	 2
1462096050.787	 0	 -1.178839	 3.326572	 -1.102017	 0.353026	 0.538635	 -0.349018	 0.287350	 0.121218	 -0.118753	 0.942674	 2
1462096050.797	 1	 -1.128254	 3.427377	 -1.114308	 0.390686	 0.523924	 -0.356144	 0.283243	 0.139516	 -0.118362	 0.941435	 2
1462096050.817	 1	 -0.799608	 3.601386	 -1.332966	 0.468951	 0.496758	 -0.372601	 0.276682	 0.177018	 -0.118501	 0.937054	 2
1462096050.827	 1	 -0.719519	 3.841670	 -1.606394	 0.512175	 0.483110	 -0.384065	 0.274098	 0.197257	 -0.119792	 0.933601	 2
1462096050.847	 2	 -1.173897	 3.761620	 -1.977292	 0.600726	 0.446013	 -0.408478	 0.265393	 0.239695	 -0.124869	 0.925484	 2
1462096050.857	 2	 -1.544571	 3.535683	 -2.046553	 0.641054	 0.419994	 -0.417656	 0.257424	 0.260436	 -0.128182	 0.921670	 2
1462096050.867	 2	 -1.834104	 3.312660	 -2.119673	 0.677466	 0.391824	 -0.424011	 0.248073	 0.280005	 -0.131431	 0.918032	 2
1462096050.877	 2	 -1.986614	 3.286206	 -2.312603	 0.712644	 0.360212	 -0.429350	 0.237137	 0.299546	 -0.135366	 0.914174	 2
1462096050.887	 2	 -1.961342	 3.501498	 -2.551897	 0.751029	 0.318349	 -0.435687	 0.222235	 0.321687	 -0.141766	 0.909413	 2
1462096050.907	 3	 -1.431658	 4.880403	 -3.009452	 0.841212	 0.252519	 -0.452452	 0.202876	 0.368959	 -0.153015	 0.894034	 2
1462096050.917	 3	 -0.955158	 5.858051	 -3.230445	 0.900326	 0.221274	 -0.465007	 0.196380	 0.397910	 -0.159442	 0.881862	 2
1462096050.927	 3	 -0.500936	 6.651639	 -3.467878	 0.968216	 0.190266	 -0.480723	 0.191951	 0.429981	 -0.166808	 0.866283	 2
1462096050.937	 3	 -0.233696	 7.165038	 -3.697764	 1.041773	 0.157982	 -0.498085	 0.188608	 0.463923	 -0.175064	 0.847676	 2
1462096050.947	 3	 -0.103136	 7.405743	 -3.892761	 1.117771	 0.123436	 -0.515212	 0.185399	 0.498446	 -0.183966	 0.826641	 2
1462096050.957	 3	 0.096826	 7.384969	 -4.036441	 1.193561	 0.086948	 -0.531776	 0.182216	 0.532276	 -0.193576	 0.803747	 2
1462096050.967	 3	 0.476301	 7.147030	 -4.133615	 1.266867	 0.049414	 -0.549041	 0.179577	 0.564180	 -0.204352	 0.779547	 2
1462096050.977	 3	 1.019268	 6.891076	 -4.155645	 1.336948	 0.011642	 -0.568495	 0.178192	 0.593628	 -0.216610	 0.754277	 2
1462096050.987	 3	 1.725102	 6.742344	 -4.139728	 1.404465	 -0.025929	 -0.591808	 0.178872	 0.620685	 -0.230603	 0.727721	 2
1462096050.997	 3	 2.523371	 6.674677	 -4.054587	 1.470082	 -0.063294	 -0.620288	 0.182215	 0.645466	 -0.246489	 0.699582	 2
1462096051.007	 3	 3.232599	 6.486212	 -3.943150	 1.532819	 -0.100771	 -0.653751	 0.188046	 0.667646	 -0.264099	 0.670179	 2
1462096051.017	 3	 3.585764	 5.943388	 -3.853226	 1.589554	 -0.139217	 -0.689610	 0.194808	 0.686540	 -0.282904	 0.640841	 2
1462096051.027	 3	 3.556811	 5.126502	 -3.723092	 1.637511	 -0.178322	 -0.724193	 0.200786	 0.701776	 -0.301839	 0.613261	 2
1462096051.037	 3	 3.338712	 4.196870	 -3.523086	 1.675660	 -0.216882	 -0.755592	 0.205227	 0.713437	 -0.320117	 0.588571	 2
1462096051.057	 4	 2.750256	 2.629551	 -3.113702	 1.725979	 -0.289284	 -0.807616	 0.209244	 0.728207	 -0.353505	 0.548602	 2
1462096051.067	 4	 2.494642	 2.114861	 -2.910574	 1.741865	 -0.322666	 -0.828999	 0.209357	 0.732731	 -0.368505	 0.532427	 2
1462096051.077	 4	 2.314588	 1.774441	 -2.699021	 1.753895	 -0.353897	 -0.848407	 0.208898	 0.736043	 -0.382438	 0.518019	 2
1462096051.087	 4	 2.234526	 1.593260	 -2.488989	 1.763504	 -0.383063	 -0.867002	 0.208452	 0.738489	 -0.395525	 0.504719	 2
1462096051.097	 4	 2.205060	 1.499194	 -2.272192	 1.771512	 -0.410212	 -0.885577	 0.208407	 0.740258	 -0.407918	 0.492126	 2
1462096051.117	 5	 1.929325	 1.240741	 -1.796867	 1.783760	 -0.457495	 -0.921478	 0.209462	 0.742251	 -0.429993	 0.469356	 2
1462096051.127	 5	 1.580502	 0.839373	 -1.551373	 1.786746	 -0.476846	 -0.935959	 0.209425	 0.742514	 -0.438972	 0.460562	 2
1462096051.147	 6	 0.794904	 -0.189573	 -0.902927	 1.781890	 -0.504014	 -0.954307	 0.206614	 0.740978	 -0.451853	 0.451765	 2
1462096051.157	 6	 0.502299	 -0.602678	 -0.614019	 1.774531	 -0.511857	 -0.959079	 0.204234	 0.739248	 -0.456017	 0.451497	 2
1462096051.167	 6	 0.255046	 -0.947057	 -0.389129	 1.764610	 -0.516795	 -0.961631	 0.201341	 0.737012	 -0.459055	 0.453368	 2
1462096051.177	 6	 0.058333	 -1.187549	 -0.191422	 1.752931	 -0.519413	 -0.962270	 0.198054	 0.734435	 -0.461132	 0.456877	 2
1462096051.187	 6	 -0.052274	 -1.270897	 0.003800	 1.740566	 -0.519761	 -0.961821	 0.194923	 0.731660	 -0.462345	 0.461428	 2
1462096051.207	 7	 0.068598	 -0.996914	 0.286658	 1.717426	 -0.516232	 -0.962368	 0.190906	 0.726008	 -0.463690	 0.470594	 2
1462096051.217	 7	 0.200027	 -0.692588	 0.504695	 1.708401	 -0.512015	 -0.965001	 0.191138	 0.723365	 -0.463971	 0.474279	 2
1462096051.227	 7	 0.281167	 -0.409447	 0.714447	 1.701690	 -0.505802	 -0.969023	 0.193060	 0.720983	 -0.463808	 0.477277	 2
1462096051.237	 7	 0.299054	 -0.185698	 0.922065	 1.697055	 -0.497553	 -0.973665	 0.196348	 0.718871	 -0.463031	 0.479869	 2
1462096051.247	 7	 0.238487	 -0.046023	 1.091217	 1.694275	 -0.487446	 -0.978078	 0.200587	 0.717060	 -0.461505	 0.482289	 2
1462096051.257	 7	 -0.005750	 -0.118860	 1.215229	 1.692257	 -0.475738	 -0.980465	 0.204793	 0.715481	 -0.458963	 0.485282	 2
1462096051.267	 7	 -0.314587	 -0.268468	 1.286866	 1.690423	 -0.462816	 -0.979502	 0.208236	 0.714164	 -0.455237	 0.489250	 2
1462096051.277	 7	 -0.505082	 -0.426007	 1.339281	 1.688020	 -0.449152	 -0.976064	 0.210909	 0.712878	 -0.450732	 0.494128	 2
1462096051.287	 7	 -0.527221	 -0.473957	 1.464787	 1.685040	 -0.434325	 -0.972069	 0.213638	 0.711382	 -0.445788	 0.499567	 2
1462096051.297	 7	 -0.482928	 -0.484707	 1.613508	 1.681680	 -0.418125	 -0.968613	 0.216927	 0.709581	 -0.440591	 0.505290	 2
1462096051.307	 7	 -0.487044	 -0.552960	 1.733340	 1.677616	 -0.400603	 -0.965449	 0.220602	 0.707405	 -0.435129	 0.511444	 2
1462096051.317	 7	 -0.706450	 -0.672631	 1.716019	 1.673054	 -0.382686	 -0.960581	 0.223709	 0.705196	 -0.429136	 0.518165	 2
1462096051.327	 7	 -1.071459	 -0.709420	 1.482256	 1.669219	 -0.366283	 -0.951754	 0.225104	 0.703705	 -0.422429	 0.525054	 2
1462096051.337	 7	 -1.249493	 -0.643016	 1.180681	 1.666676	 -0.352610	 -0.940046	 0.224889	 0.703097	 -0.415562	 0.531401	 2
1462096051.347	 7	 -1.175616	 -0.398150	 0.949980	 1.665866	 -0.341489	 -0.928311	 0.224206	 0.703175	 -0.409192	 0.536507	 2
1462096051.357	 7	 -0.912576	 0.108887	 1.014223	 1.668785	 -0.330811	 -0.918868	 0.224938	 0.704036	 -0.403101	 0.539672	 2
1462096051.367	 7	 -0.551115	 0.635054	 1.116153	 1.675589	 -0.319278	 -0.913345	 0.228081	 0.705433	 -0.397329	 0.540808	 2
1462096051.377	 7	 -0.334189	 0.970988	 1.327345	 1.685372	 -0.306242	 -0.910835	 0.233315	 0.707154	 -0.391514	 0.540568	 2
1462096051.387	 7	 -0.171788	 1.128863	 1.456358	 1.696459	 -0.291725	 -0.910399	 0.239946	 0.708833	 -0.385577	 0.539734	 2
1462096051.397	 7	 0.077005	 1.166356	 1.447080	 1.707530	 -0.277322	 -0.912443	 0.247349	 0.710189	 -0.380262	 0.538378	 2
1462096051.407	 7	 0.360080	 1.089221	 1.338387	 1.717337	 -0.264127	 -0.917495	 0.255139	 0.710901	 -0.376215	 0.536643	 2
1462096051.417	 7	 0.466097	 0.879022	 1.142605	 1.725060	 -0.253015	 -0.923967	 0.262347	 0.711024	 -0.373415	 0.534959	 2
1462096051.427	 7	 0.451597	 0.648219	 0.990311	 1.730560	 -0.243626	 -0.930283	 0.268519	 0.710698	 -0.371373	 0.533750	 2
1462096051.437	 7	 0.431018	 0.400095	 0.940222	 1.733765	 -0.234980	 -0.936309	 0.273913	 0.709836	 -0.369776	 0.533265	 2
1462096051.447	 7	 0.376853	 0.208980	 0.964494	 1.734970	 -0.226199	 -0.941895	 0.278806	 0.708452	 -0.368281	 0.533603	 2
1462096051.457	 7	 0.270269	 0.232731	 0.969906	 1.736031	 -0.217102	 -0.946556	 0.283428	 0.707093	 -0.366453	 0.534229	 2
1462096051.467	 7	 0.283161	 0.537427	 0.898026	 1.739616	 -0.208475	 -0.950731	 0.288182	 0.706499	 -0.364277	 0.533958	 2
1462096051.477	 7	 0.581524	 0.963530	 0.816263	 1.746812	 -0.201067	 -0.957206	 0.294017	 0.706643	 -0.362561	 0.531751	 2
1462096051.487	 7	 0.855099	 1.358683	 0.709916	 1.757707	 -0.195237	 -0.966465	 0.301012	 0.707488	 -0.361502	 0.527417	 2
1462096051.497	 7	 1.091541	 1.568920	 0.609632	 1.770718	 -0.191004	 -0.978107	 0.308741	 0.708639	 -0.361194	 0.521583	 2
1462096051.507	 7	 1.187076	 1.546625	 0.507346	 1.784062	 -0.188178	 -0.990865	 0.316507	 0.709776	 -0.361492	 0.515136	 2
1462096051.517	 7	 1.242685	 1.260193	 0.339003	 1.795042	 -0.187086	 -1.003966	 0.323464	 0.710363	 -0.362734	 0.509096	 2
1462096051.527	 7	 1.141050	 0.990423	 0.058148	 1.803273	 -0.188453	 -1.015970	 0.328831	 0.710651	 -0.364878	 0.503696	 2
1462096051.537	 7	 0.891507	 0.874765	 -0.297786	 1.810537	 -0.192702	 -1.024928	 0.332126	 0.711492	 -0.367310	 0.498553	 2
1462096051.547	 7	 0.916617	 0.926504	 -0.486163	 1.818065	 -0.199317	 -1.032515	 0.334324	 0.712869	 -0.370096	 0.493025	 2
1462096051.557	 7	 1.491256	 1.059484	 -0.250132	 1.825945	 -0.205786	 -1.044603	 0.338260	 0.713521	 -0.373839	 0.486531	 2
1462096051.567	 7	 2.554287	 1.194405	 0.157515	 1.832734	 -0.211002	 -1.067279	 0.346145	 0.711891	 -0.379841	 0.478660	 2
1462096051.577	 7	 3.340613	 1.512006	 0.270858	 1.840222	 -0.216814	 -1.099385	 0.357355	 0.708711	 -0.387997	 0.468492	 2
1462096051.587	 7	 3.491916	 1.646146	 0.061846	 1.842888	 -0.228977	 -1.135593	 0.367283	 0.704251	 -0.399760	 0.457522	 2
1462096051.597	 7	 3.097371	 1.401621	 -0.376088	 1.850590	 -0.240260	 -1.166653	 0.376636	 0.701611	 -0.408873	 0.445769	 2
1462096051.607	 7	 2.637970	 0.957542	 -0.784407	 1.855068	 -0.254528	 -1.191872	 0.382470	 0.699591	 -0.417989	 0.435400	 2
1462096051.617	 7	 2.275577	 0.621432	 -1.078530	 1.856746	 -0.270872	 -1.212358	 0.385492	 0.698060	 -0.427066	 0.426290	 2
1462096051.627	 7	 2.021929	 0.422777	 -1.294520	 1.856637	 -0.288668	 -1.229471	 0.386542	 0.696946	 -0.436053	 0.417982	 2
1462096051.637	 7	 1.879589	 0.251799	 -1.462196	 1.855280	 -0.307717	 -1.244373	 0.386176	 0.696137	 -0.445051	 0.410110	 2
1462096051.647	 7	 1.715052	 0.125563	 -1.629263	 1.852767	 -0.327865	 -1.257558	 0.384612	 0.695548	 -0.454103	 0.402587	 2
1462096051.657	 7	 1.469770	 -0.135643	 -1.813935	 1.848702	 -0.349101	 -1.267974	 0.381376	 0.695305	 -0.463075	 0.395808	 2
1462096051.667	 7	 1.241169	 -0.483026	 -1.995291	 1.841940	 -0.371376	 -1.275677	 0.376206	 0.695166	 -0.472182	 0.390201	 2
1462096051.677	 7	 1.022732	 -0.709211	 -2.179870	 1.833429	 -0.394780	 -1.280799	 0.369307	 0.695298	 -0.481285	 0.385407	 2
1462096051.687	 7	 0.802568	 -0.824984	 -2.393249	 1.824511	 -0.419588	 -1.283283	 0.360876	 0.695976	 -0.490187	 0.380923	 2
1462096051.697	 7	 0.623614	 -1.079759	 -2.544334	 1.814252	 -0.445554	 -1.283625	 0.350905	 0.696870	 -0.499071	 0.377050	 2
1462096051.707	 7	 0.474448	 -1.394897	 -2.647215	 1.801725	 -0.472269	 -1.282275	 0.339406	 0.697651	 -0.508044	 0.374135	 2
1462096051.717	 7	 0.375113	 -1.649782	 -2.634867	 1.786887	 -0.498945	 -1.279976	 0.326828	 0.698083	 -0.517004	 0.372250	 2
1462096051.727	 7	 0.361026	 -1.792486	 -2.518838	 1.770235	 -0.524629	 -1.277987	 0.314006	 0.697952	 -0.525822	 0.371180	 2
1462096051.737	 7	 0.361111	 -1.865092	 -2.410807	 1.752388	 -0.549250	 -1.276769	 0.301282	 0.697313	 -0.534451	 0.370602	 2
1462096051.747	 7	 0.320772	 -1.882512	 -2.336015	 1.734051	 -0.572979	 -1.275846	 0.288631	 0.696404	 -0.542733	 0.370344	 2
1462096051.757	 7	 0.303997	 -1.880864	 -2.262316	 1.715588	 -0.596014	 -1.275270	 0.276118	 0.695315	 -0.550677	 0.370203	 2
1462096051.767	 7	 0.320758	 -1.852129	 -2.106593	 1.696764	 -0.617751	 -1.275528	 0.264052	 0.693891	 -0.558273	 0.370302	 2
1462096051.777	 7	 0.463587	 -1.618040	 -1.886148	 1.674490	 -0.639643	 -1.280213	 0.252342	 0.691264	 -0.566911	 0.370255	 2
1462096051.787	 7	 0.770479	 -1.181604	 -1.713171	 1.657552	 -0.657719	 -1.286724	 0.243865	 0.689069	 -0.574134	 0.368896	 2
1462096051.797	 7	 1.088078	 -0.653395	 -1.640681	 1.642770	 -0.675007	 -1.297889	 0.237759	 0.686689	 -0.581600	 0.365610	 2
1462096051.807	 7	 1.276789	 -0.285539	 -1.585613	 1.629947	 -0.691781	 -1.312544	 0.233491	 0.684284	 -0.589188	 0.360687	 2
1462096051.817	 7	 1.145843	 -0.267711	 -1.526756	 1.618032	 -0.707818	 -1.327199	 0.229648	 0.682055	 -0.596351	 0.355568	 2
1462096051.827	 7	 0.559226	 -0.549945	 -1.376134	 1.607684	 -0.722183	 -1.336044	 0.224779	 0.680670	 -0.601836	 0.352075	 2
1462096051.837	 7	 -0.157881	 -1.057823	 -1.300012	 1.598772	 -0.735386	 -1.335636	 0.217535	 0.680478	 -0.605215	 0.351202	 2
1462096051.847	 7	 -0.651296	 -1.680994	 -1.191742	 1.588794	 -0.747425	 -1.327885	 0.207826	 0.680741	 -0.607125	 0.353269	 2
1462096051.857	 7	 -0.945248	 -2.125831	 -1.051575	 1.576836	 -0.758273	 -1.315614	 0.196347	 0.680911	 -0.608125	 0.357759	 2
1462096051.867	 7	 -1.110039	 -2.304354	 -0.951628	 1.565895	 -0.768663	 -1.299647	 0.184044	 0.681444	 -0.608162	 0.363181	 2
1462096051.877	 7	 -1.115217	 -2.422156	 -0.771500	 1.552747	 -0.777022	 -1.284170	 0.171909	 0.681185	 -0.607995	 0.369833	 2
1462096051.887	 7	 -1.138708	 -2.312616	 -0.635990	 1.540144	 -0.783875	 -1.268517	 0.160386	 0.680753	 -0.607342	 0.376813	 2
1462096051.897	 7	 -1.112711	 -2.006361	 -0.634432	 1.530372	 -0.790585	 -1.252853	 0.149762	 0.680704	 -0.606317	 0.382875	 2
1462096051.907	 7	 -0.920318	 -1.722888	 -0.627075	 1.522087	 -0.797338	 -1.239325	 0.140293	 0.680669	 -0.605509	 0.387771	 2
1462096051.927	 8	 -0.263387	 -1.091326	 -0.685535	 1.505905	 -0.810729	 -1.225432	 0.125972	 0.679553	 -0.606226	 0.393483	 2
1462096051.937	 8	 -0.027671	 -0.867812	 -0.715348	 1.496976	 -0.817890	 -1.225042	 0.120606	 0.678410	 -0.607938	 0.394495	 2
1462096051.947	 8	 0.023848	 -0.663028	 -0.615841	 1.489117	 -0.824350	 -1.226095	 0.116288	 0.677330	 -0.609712	 0.394907	 2
1462096051.967	 9	 -0.036877	 -0.620825	 -0.101222	 1.476967	 -0.830153	 -1.226363	 0.110614	 0.675392	 -0.611427	 0.397198	 2
1462096051.977	 9	 -0.068726	 -0.688972	 0.022049	 1.470900	 -0.830235	 -1.225486	 0.108434	 0.674239	 -0.611598	 0.399489	 2
1462096051.987	 9	 -0.139307	 -0.770231	 0.081590	 1.464760	 -0.829673	 -1.223635	 0.106133	 0.673060	 -0.611464	 0.402291	 2
1462096051.997	 9	 -0.271792	 -0.830232	 0.114158	 1.459265	 -0.828875	 -1.220015	 0.103521	 0.672072	 -0.610890	 0.405483	 2
1462096052.007	 9	 -0.460974	 -0.894534	 0.117339	 1.455089	 -0.828162	 -1.213789	 0.100410	 0.671478	 -0.609718	 0.408998	 2
1462096052.017	 9	 -0.718846	 -1.028942	 0.105544	 1.452357	 -0.827844	 -1.204070	 0.096429	 0.671368	 -0.607803	 0.412967	 2
1462096052.027	 9	 -1.090131	 -1.197296	 0.060317	 1.451544	 -0.828291	 -1.189440	 0.091109	 0.671922	 -0.604878	 0.417544	 2
1462096052.037	 9	 -1.600816	 -1.086301	 0.053007	 1.456032	 -0.829519	 -1.167834	 0.084752	 0.673911	 -0.600352	 0.422183	 2
1462096052.047	 9	 -2.137305	 -0.631102	 0.125859	 1.470551	 -0.830625	 -1.138035	 0.078615	 0.678287	 -0.593634	 0.425846	 2
1462096052.057	 9	 -2.467200	 -0.232134	 0.154825	 1.493557	 -0.831240	 -1.102416	 0.073039	 0.684590	 -0.585268	 0.428327	 2
1462096052.067	 9	 -2.680552	 0.234382	 0.158893	 1.523495	 -0.831336	 -1.063338	 0.068242	 0.692395	 -0.575849	 0.429336	 2
1462096052.077	 9	 -2.873740	 0.839657	 0.238679	 1.561348	 -0.830010	 -1.021334	 0.064870	 0.701857	 -0.565309	 0.428502	 2
1462096052.087	 9	 -2.953279	 1.502504	 0.383023	 1.606711	 -0.826203	 -0.977870	 0.063524	 0.712833	 -0.553738	 0.425684	 2
1462096052.097	 9	 -2.857958	 2.097067	 0.568905	 1.656994	 -0.819231	 -0.935951	 0.064640	 0.724715	 -0.541626	 0.421012	 2
1462096052.107	 9	 -2.637769	 2.532228	 0.677613	 1.708981	 -0.809663	 -0.897926	 0.067918	 0.736812	 -0.529577	 0.414781	 2
1462096052.117	 9	 -2.229886	 2.846563	 0.627962	 1.759711	 -0.799449	 -0.866041	 0.072772	 0.748438	 -0.518552	 0.406999	 2
1462096052.127	 9	 -1.534773	 2.994967	 0.546556	 1.805385	 -0.790336	 -0.843644	 0.079047	 0.758634	 -0.509796	 0.397912	 2
1462096052.137	 9	 -0.696719	 3.077467	 0.528303	 1.843332	 -0.782972	 -0.833127	 0.087011	 0.766699	 -0.504049	 0.387990	 2
1462096052.147	 9	 -0.032541	 3.320554	 0.583477	 1.875973	 -0.777024	 -0.832930	 0.097005	 0.773114	 -0.500767	 0.376984	 2
1462096052.167	 10	 0.647162	 3.816667	 0.777213	 1.934874	 -0.766746	 -0.851876	 0.122248	 0.783121	 -0.497908	 0.351945	 2
1462096052.177	 10	 0.733194	 4.128506	 0.841174	 1.964179	 -0.762684	 -0.866628	 0.136555	 0.787349	 -0.497316	 0.337804	 2
1462096052.187	 10	 0.686768	 4.448943	 0.862675	 1.998377	 -0.757947	 -0.880347	 0.151865	 0.792158	 -0.495650	 0.322109	 2
1462096052.197	 10	 0.535146	 4.655744	 0.864854	 2.036075	 -0.752643	 -0.892642	 0.167610	 0.797274	 -0.492908	 0.305455	 2
1462096052.207	 10	 0.362615	 4.867612	 0.970641	 2.076922	 -0.746226	 -0.903536	 0.183819	 0.802615	 -0.488895	 0.288099	 2
1462096052.217	 10	 0.154345	 4.674936	 1.157169	 2.117643	 -0.737739	 -0.913526	 0.200101	 0.807686	 -0.483640	 0.271469	 2
1462096052.227	 10	 -0.097001	 4.142304	 1.381409	 2.154406	 -0.726355	 -0.922750	 0.215755	 0.812052	 -0.477298	 0.257310	 2
1462096052.237	 10	 -0.380127	 3.353239	 1.431951	 2.185140	 -0.712787	 -0.930134	 0.229637	 0.815666	 -0.470281	 0.246561	 2
1462096052.257	 11	 -1.121440	 1.934055	 0.794269	 2.234436	 -0.685039	 -0.929689	 0.247995	 0.822804	 -0.454887	 0.233600	 2
1462096052.267	 11	 -1.298088	 1.279391	 0.354884	 2.254505	 -0.673525	 -0.920683	 0.251686	 0.826753	 -0.447330	 0.230282	 2
1462096052.287	 12	 -1.433545	 0.365649	 -0.153348	 2.284317	 -0.655940	 -0.893421	 0.251230	 0.834399	 -0.434214	 0.228299	 2
1462096052.297	 12	 -1.475044	 0.170025	 -0.159070	 2.295691	 -0.647521	 -0.878139	 0.249306	 0.838014	 -0.428001	 0.228898	 2
1462096052.307	 12	 -1.409844	 0.088824	 -0.036765	 2.305026	 -0.638510	 -0.864174	 0.247558	 0.841262	 -0.421947	 0.230119	 2
1462096052.317	 12	 -1.184487	 0.246502	 0.090632	 2.313463	 -0.629612	 -0.853189	 0.246779	 0.844034	 -0.416356	 0.230986	 2
1462096052.327	 12	 -0.799765	 0.534064	 0.152838	 2.322143	 -0.622450	 -0.846205	 0.247284	 0.846256	 -0.411815	 0.230454	 2
1462096052.337	 12	 -0.380056	 0.824271	 0.154016	 2.331437	 -0.617990	 -0.843227	 0.248953	 0.847917	 -0.408653	 0.228173	 2
1462096052.347	 12	 -0.040032	 0.992146	 0.120644	 2.341025	 -0.616233	 -0.843264	 0.251323	 0.849087	 -0.406798	 0.224508	 2
1462096052.357	 12	 0.224553	 0.981749	 0.113981	 2.349601	 -0.616560	 -0.845651	 0.254006	 0.849722	 -0.406103	 0.220305	 2
1462096052.367	 12	 0.441516	 0.807890	 0.133921	 2.355583	 -0.618389	 -0.850163	 0.256727	 0.849703	 -0.406521	 0.216418	 2
1462096052.377	 12	 0.618434	 0.534009	 0.131963	 2.358057	 -0.621523	 -0.856342	 0.259153	 0.849006	 -0.408045	 0.213372	 2
1462096052.387	 12	 0.745978	 0.240774	 0.081231	 2.357075	 -0.625914	 -0.863414	 0.260967	 0.847749	 -0.410572	 0.211303	 2
1462096052.397	 12	 0.837209	 -0.035534	 0.003262	 2.353086	 -0.631511	 -0.870745	 0.261988	 0.846073	 -0.413958	 0.210147	 2
1462096052.407	 12	 0.918850	 -0.293863	 -0.092574	 2.346442	 -0.638306	 -0.878083	 0.262164	 0.844055	 -0.418123	 0.209797	 2
1462096052.417	 12	 1.064227	 -0.611964	 -0.191653	 2.336562	 -0.646601	 -0.885822	 0.261446	 0.841567	 -0.423290	 0.210324	 2
1462096052.427	 12	 1.246041	 -0.848696	 -0.348909	 2.323559	 -0.657079	 -0.894101	 0.259719	 0.838570	 -0.429688	 0.211459	 2
1462096052.437	 12	 1.440721	 -1.050559	 -0.532596	 2.308148	 -0.670095	 -0.902907	 0.256996	 0.835121	 -0.437320	 0.212785	 2
1462096052.447	 12	 1.622692	 -1.249045	 -0.695892	 2.290217	 -0.685511	 -0.912399	 0.253294	 0.831196	 -0.446125	 0.214308	 2
1462096052.457	 12	 1.825902	 -1.511052	 -0.809872	 2.268909	 -0.702992	 -0.923232	 0.248702	 0.826642	 -0.456110	 0.216274	 2
1462096052.467	 12	 2.108002	 -1.768163	 -0.950073	 2.243087	 -0.722903	 -0.936463	 0.243209	 0.821192	 -0.467592	 0.218746	 2
1462096052.477	 12	 2.285733	 -2.007711	 -1.057228	 2.213040	 -0.744954	 -0.952053	 0.236808	 0.814916	 -0.480347	 0.221587	 2
1462096052.487	 12	 1.734925	 -1.340444	 -1.080328	 2.188435	 -0.765027	 -0.964762	 0.230719	 0.809718	 -0.491243	 0.223171	 2
1462096052.497	 12	 0.657522	 -0.261770	 -0.905308	 2.181490	 -0.778361	 -0.967577	 0.226591	 0.807972	 -0.496670	 0.221714	 2
1462096052.507	 12	 -0.143330	 0.304063	 -0.350597	 2.185682	 -0.782597	 -0.963812	 0.224979	 0.808646	 -0.497148	 0.219820	 2
1462096052.517	 12	 -0.450545	 1.554627	 0.078296	 2.201121	 -0.780344	 -0.959119	 0.227503	 0.810975	 -0.494160	 0.215334	 2
1462096052.527	 12	 -0.404238	 2.374962	 0.283758	 2.225444	 -0.775856	 -0.956354	 0.233537	 0.814111	 -0.489592	 0.207326	 2
1462096052.537	 12	 -0.418503	 2.195030	 0.399442	 2.249218	 -0.770454	 -0.955157	 0.240232	 0.816980	 -0.484861	 0.199353	 2
1462096052.547	 12	 -0.614348	 1.541154	 0.500573	 2.267526	 -0.763220	 -0.953395	 0.245763	 0.819424	 -0.480034	 0.194195	 2
1462096052.557	 12	 -0.839697	 0.766954	 0.571000	 2.279569	 -0.753899	 -0.950061	 0.249606	 0.821559	 -0.475062	 0.192495	 2
1462096052.567	 12	 -0.953227	 -0.196580	 0.538510	 2.283247	 -0.743584	 -0.945379	 0.251114	 0.823113	 -0.470625	 0.194780	 2
1462096052.577	 12	 -0.930072	 -1.027489	 0.369646	 2.278896	 -0.734255	 -0.939361	 0.249927	 0.823977	 -0.467371	 0.200403	 2
1462096052.587	 12	 -0.722429	 -1.453541	 0.223193	 2.269059	 -0.727222	 -0.933518	 0.246973	 0.824094	 -0.465576	 0.207635	 2
1462096052.597	 12	 -0.392877	 -1.431676	 0.144858	 2.256729	 -0.722938	 -0.930028	 0.243735	 0.823452	 -0.465246	 0.214629	 2
1462096052.607	 12	 -0.212102	 -1.061480	 0.079586	 2.246220	 -0.720692	 -0.928296	 0.241142	 0.822638	 -0.465561	 0.219934	 2
1462096052.617	 12	 -0.157272	 -0.560364	 0.123205	 2.239908	 -0.718830	 -0.927346	 0.239753	 0.822147	 -0.465576	 0.223229	 2
1462096052.627	 12	 -0.209067	 -0.280213	 0.453452	 2.236006	 -0.714834	 -0.928404	 0.240292	 0.821781	 -0.464795	 0.225614	 2
1462096052.637	 12	 -0.291920	 -0.151847	 0.667454	 2.232678	 -0.708136	 -0.930634	 0.242136	 0.821455	 -0.463156	 0.228185	 2
1462096052.647	 12	 -0.206365	 -0.082171	 0.630056	 2.229997	 -0.701548	 -0.933384	 0.244319	 0.821115	 -0.461540	 0.230345	 2
1462096052.657	 12	 0.038677	 -0.034065	 0.469572	 2.227065	 -0.697294	 -0.937156	 0.246272	 0.820501	 -0.460880	 0.231774	 2
1462096052.667	 12	 0.336261	 0.049140	 0.330271	 2.223719	 -0.696030	 -0.942762	 0.248121	 0.819473	 -0.461512	 0.232179	 2
1462096052.677	 12	 0.517264	 0.276508	 0.223169	 2.221325	 -0.696990	 -0.949731	 0.250175	 0.818288	 -0.462944	 0.231299	 2
1462096052.687	 12	 0.469530	 0.672438	 0.094049	 2.223025	 -0.698948	 -0.955980	 0.252625	 0.817619	 -0.464114	 0.228646	 2
1462096052.697	 12	 0.243578	 0.756043	 -0.201619	 2.229379	 -0.701724	 -0.958178	 0.254291	 0.817946	 -0.464499	 0.224812	 2
1462096052.707	 12	 0.035087	 0.465241	 -0.492397	 2.236469	 -0.705598	 -0.955599	 0.253898	 0.818900	 -0.464626	 0.221498	 2
1462096052.717	 12	 -0.096486	 0.113205	 -0.689562	 2.242416	 -0.710235	 -0.949604	 0.251649	 0.820105	 -0.464792	 0.219245	 2
1462096052.727	 12	 -0.118335	 -0.183791	 -0.732634	 2.245990	 -0.715211	 -0.942305	 0.248228	 0.821173	 -0.465247	 0.218184	 2
1462096052.737	 12	 -0.028249	 -0.373942	 -0.663782	 2.246805	 -0.720154	 -0.936058	 0.244605	 0.821787	 -0.466155	 0.218024	 2
1462096052.747	 12	 0.198488	 -0.508505	 -0.647825	 2.244718	 -0.726056	 -0.932020	 0.240967	 0.821747	 -0.467986	 0.218301	 2
1462096052.757	 12	 0.566027	 -0.688943	 -0.594087	 2.238479	 -0.733761	 -0.931821	 0.237466	 0.820686	 -0.471337	 0.218920	 2
1462096052.767	 12	 0.979318	 -0.944629	 -0.484962	 2.226243	 -0.743187	 -0.936921	 0.234244	 0.818246	 -0.476529	 0.220279	 2
1462096052.777	 12	 1.337167	 -1.372829	 -0.427051	 2.206913	 -0.754223	 -0.947013	 0.230863	 0.814362	 -0.483582	 0.222858	 2
1462096052.787	 12	 1.469773	 -2.092418	 -0.308076	 2.178290	 -0.765494	 -0.960607	 0.226420	 0.809026	 -0.492085	 0.228174	 2
1462096052.797	 12	 1.236217	 -2.705710	 -0.345854	 2.144016	 -0.775505	 -0.973313	 0.220330	 0.803174	 -0.500600	 0.236148	 2
1462096052.807	 12	 0.740654	 -3.340327	 -0.496651	 2.107175	 -0.784009	 -0.980376	 0.211514	 0.797614	 -0.508096	 0.246804	 2
1462096052.817	 12	 0.260112	 -3.732477	 -0.646389	 2.070447	 -0.791143	 -0.980634	 0.200214	 0.792674	 -0.514098	 0.259393	 2
1462096052.827	 12	 0.023470	 -3.762759	 -0.810869	 2.035680	 -0.798241	 -0.976387	 0.187507	 0.788224	 -0.519041	 0.272288	 2
1462096052.837	 12	 -0.002365	 -3.453239	 -0.966562	 2.004440	 -0.806620	 -0.970497	 0.174588	 0.784149	 -0.523530	 0.283807	 2
1462096052.847	 12	 0.042170	 -3.049305	 -0.981311	 1.976882	 -0.815876	 -0.965092	 0.162469	 0.780348	 -0.527768	 0.293467	 2
1462096052.857	 12	 0.012146	 -2.451039	 -0.922194	 1.954266	 -0.824655	 -0.960158	 0.151906	 0.777116	 -0.531331	 0.301168	 2
1462096052.867	 12	 -0.001400	 -1.713828	 -0.909888	 1.938944	 -0.833085	 -0.955138	 0.143304	 0.774915	 -0.534091	 0.306133	 2
1462096052.877	 12	 0.153083	 -1.076237	 -0.926615	 1.929355	 -0.842075	 -0.951688	 0.136640	 0.773416	 -0.536760	 0.308295	 2
1462096052.887	 12	 0.357868	 -0.641874	 -0.933948	 1.922236	 -0.851894	 -0.951219	 0.131512	 0.772049	 -0.539903	 0.308465	 2
1462096052.897	 12	 0.484423	 -0.290128	 -0.925382	 1.917229	 -0.862180	 -0.952930	 0.127628	 0.770841	 -0.543334	 0.307088	 2
1462096052.907	 12	 0.611653	 -0.039271	 -0.895380	 1.913479	 -0.872640	 -0.956599	 0.124768	 0.769694	 -0.546999	 0.304625	 2
1462096052.917	 12	 0.778162	 0.108809	 -0.795270	 1.909208	 -0.882888	 -0.963140	 0.122915	 0.768300	 -0.551035	 0.301608	 2
1462096052.927	 12	 0.886806	 0.165942	 -0.646478	 1.903512	 -0.892195	 -0.972530	 0.122031	 0.766561	 -0.555287	 0.298578	 2
1462096052.937	 12	 0.913680	 0.120873	 -0.543752	 1.896382	 -0.900484	 -0.983408	 0.121603	 0.764570	 -0.559529	 0.295926	 2
1462096052.947	 12	 0.884486	 0.015873	 -0.514634	 1.888140	 -0.908232	 -0.994486	 0.121073	 0.762442	 -0.563681	 0.293749	 2
1462096052.957	 12	 0.823991	 -0.146620	 -0.506027	 1.878793	 -0.915643	 -1.004992	 0.120077	 0.760219	 -0.567684	 0.292204	 2
1462096052.967	 12	 0.776197	 -0.323048	 -0.507253	 1.868153	 -0.922804	 -1.014880	 0.118517	 0.757877	 -0.571569	 0.291352	 2
1462096052.977	 12	 0.773146	 -0.506077	 -0.520653	 1.855698	 -0.929974	 -1.024702	 0.116362	 0.755299	 -0.575509	 0.291156	 2
1462096052.987	 12	 0.799876	 -0.706246	 -0.538735	 1.840827	 -0.937280	 -1.035054	 0.113613	 0.752364	 -0.579651	 0.291627	 2
1462096052.997	 12	 0.823324	 -0.922367	 -0.558002	 1.823286	 -0.944737	 -1.046046	 0.110213	 0.749028	 -0.584014	 0.292810	 2
1462096053.007	 12	 0.839108	 -1.171509	 -0.587102	 1.802848	 -0.952355	 -1.057563	 0.106030	 0.745267	 -0.588580	 0.294802	 2
1462096053.017	 12	 0.838946	 -1.406784	 -0.617000	 1.779607	 -0.960148	 -1.069484	 0.101019	 0.741098	 -0.593308	 0.297580	 2
1462096053.027	 12	 0.783612	 -1.569609	 -0.652137	 1.754722	 -0.968008	 -1.081089	 0.095276	 0.736727	 -0.597986	 0.300947	 2
1462096053.037	 12	 0.670078	 -1.621699	 -0.694264	 1.730145	 -0.975961	 -1.091284	 0.088973	 0.732491	 -0.602346	 0.304500	 2
1462096053.047	 12	 0.512510	 -1.523546	 -0.716491	 1.708032	 -0.983805	 -1.099186	 0.082523	 0.728749	 -0.606115	 0.307798	 2
1462096053.057	 12	 0.420300	 -1.365006	 -0.745120	 1.688850	 -0.991675	 -1.105338	 0.076247	 0.725545	 -0.609398	 0.310490	 2
1462096053.067	 12	 0.415418	 -1.260828	 -0.754766	 1.671009	 -0.999621	 -1.111368	 0.070255	 0.722570	 -0.612535	 0.312663	 2
1462096053.077	 12	 0.427435	 -1.442614	 -0.737379	 1.651173	 -1.007348	 -1.118083	 0.063920	 0.719275	 -0.615714	 0.315364	 2
1462096053.087	 12	 0.341247	 -1.342780	 -0.792185	 1.632429	 -1.015373	 -1.123977	 0.057468	 0.716196	 -0.618687	 0.317785	 2
1462096053.097	 12	 0.193557	 -1.209362	 -0.787526	 1.617005	 -1.023447	 -1.127576	 0.051161	 0.713724	 -0.621120	 0.319672	 2
1462096053.107	 12	 0.073888	 -1.082909	 -0.705375	 1.604646	 -1.030747	 -1.128941	 0.045251	 0.711796	 -0.622910	 0.321376	 2
1462096053.117	 12	 0.006741	 -0.930884	 -0.595734	 1.594955	 -1.037021	 -1.129013	 0.040056	 0.710310	 -0.624203	 0.322840	 2
1462096053.127	 12	 -0.035829	 -0.986436	 -0.499961	 1.585979	 -1.042204	 -1.128304	 0.035178	 0.708936	 -0.625132	 0.324626	 2
1462096053.137	 12	 -0.140149	 -0.941364	 -0.486910	 1.578461	 -1.047079	 -1.126040	 0.030308	 0.707812	 -0.625700	 0.326471	 2
1462096053.147	 12	 -0.338626	 -0.980884	 -0.445019	 1.573640	 -1.051626	 -1.120275	 0.025156	 0.707158	 -0.625575	 0.328557	 2
1462096053.157	 12	 -0.565522	 -0.930966	 -0.399948	 1.573385	 -1.055792	 -1.109957	 0.019956	 0.707276	 -0.624569	 0.330570	 2
1462096053.167	 12	 -0.797294	 -0.882310	 -0.237613	 1.577410	 -1.058575	 -1.094904	 0.014902	 0.708095	 -0.622503	 0.332971	 2
1462096053.177	 12	 -1.015798	 -0.537765	 -0.041733	 1.588157	 -1.059401	 -1.075241	 0.010976	 0.710019	 -0.619291	 0.335009	 2
1462096053.187	 12	 -1.190143	 0.066619	 0.215863	 1.607663	 -1.057608	 -1.051829	 0.009293	 0.713415	 -0.614947	 0.335845	 2
1462096053.197	 12	 -1.255917	 0.598471	 0.488891	 1.634005	 -1.052757	 -1.026989	 0.010162	 0.718008	 -0.609750	 0.335509	 2
1462096053.207	 12	 -1.258454	 1.034847	 0.675219	 1.664324	 -1.045463	 -1.002809	 0.013175	 0.723356	 -0.604101	 0.334131	 2
1462096053.217	 12	 -1.310497	 1.436869	 0.797713	 1.698118	 -1.036352	 -0.979072	 0.017832	 0.729398	 -0.598016	 0.331721	 2
1462096053.227	 12	 -1.426009	 1.848705	 0.781236	 1.736751	 -1.026462	 -0.954442	 0.023641	 0.736352	 -0.591410	 0.327813	 2
1462096053.237	 12	 -1.617053	 2.618493	 0.667499	 1.783591	 -1.016637	 -0.927600	 0.030741	 0.744730	 -0.584167	 0.321219	 2
1462096053.247	 12	 -1.769166	 3.527236	 0.517416	 1.841614	 -1.007139	 -0.898213	 0.039654	 0.754913	 -0.576192	 0.310706	 2
1462096053.257	 12	 -1.771172	 4.182857	 0.576822	 1.905956	 -0.996629	 -0.869704	 0.050551	 0.766008	 -0.567687	 0.297333	 2
1462096053.267	 12	 -1.618309	 4.668486	 0.870963	 1.970876	 -0.983312	 -0.846514	 0.063990	 0.777076	 -0.558817	 0.282457	 2
1462096053.277	 12	 -1.290346	 4.851285	 1.276930	 2.030381	 -0.966903	 -0.832842	 0.080034	 0.787107	 -0.550069	 0.267360	 2
1462096053.287	 12	 -0.870207	 5.191662	 1.596168	 2.083583	 -0.948906	 -0.830224	 0.098729	 0.795713	 -0.541958	 0.251742	 2
1462096053.297	 12	 -0.503072	 5.217885	 1.840472	 2.130488	 -0.930567	 -0.837104	 0.119261	 0.802720	 -0.534574	 0.235900	 2
1462096053.307	 12	 -0.269145	 4.758177	 1.903432	 2.169227	 -0.912921	 -0.849939	 0.139564	 0.807928	 -0.527957	 0.221439	 2
1462096053.317	 12	 -0.220173	 3.969746	 1.735805	 2.200228	 -0.897012	 -0.863732	 0.157565	 0.811682	 -0.522028	 0.209361	 2
1462096053.327	 12	 -0.344757	 2.939287	 1.417164	 2.224315	 -0.883213	 -0.874051	 0.171664	 0.814534	 -0.516613	 0.200439	 2
1462096053.337	 12	 -0.481440	 1.731056	 1.219537	 2.239188	 -0.870420	 -0.880865	 0.181607	 0.816534	 -0.511772	 0.195913	 2
1462096053.347	 12	 -0.757422	 0.715003	 0.919400	 2.247657	 -0.858387	 -0.882351	 0.187485	 0.818266	 -0.507151	 0.195162	 2
1462096053.357	 12	 -1.383307	 -0.035285	 0.605600	 2.254597	 -0.845598	 -0.874752	 0.189405	 0.820755	 -0.501479	 0.197499	 2
1462096053.367	 12	 -2.295652	 -0.513851	 0.391675	 2.265357	 -0.828987	 -0.854995	 0.188170	 0.825111	 -0.492862	 0.202167	 2
1462096053.377	 12	 -2.816468	 -1.057055	 0.222764	 2.276553	 -0.809475	 -0.827051	 0.184216	 0.830539	 -0.482207	 0.209154	 2
1462096053.387	 12	 -2.912639	 -1.478457	 0.154669	 2.284267	 -0.789283	 -0.796943	 0.178488	 0.835840	 -0.471176	 0.217961	 2
1462096053.397	 12	 -2.820285	 -1.619863	 0.199443	 2.288282	 -0.769188	 -0.768413	 0.172354	 0.840530	 -0.460431	 0.227612	 2
1462096053.407	 12	 -2.630662	 -1.500982	 0.242594	 2.290591	 -0.749772	 -0.742673	 0.166708	 0.844651	 -0.450163	 0.236910	 2
1462096053.417	 12	 -2.339036	 -1.252621	 0.288194	 2.292325	 -0.731739	 -0.720525	 0.162021	 0.848217	 -0.440682	 0.245104	 2
1462096053.427	 12	 -2.018172	 -0.926598	 0.348116	 2.294182	 -0.715383	 -0.702438	 0.158612	 0.851274	 -0.432167	 0.251806	 2
1462096053.437	 12	 -1.697064	 -0.559008	 0.420147	 2.296764	 -0.700587	 -0.688424	 0.156665	 0.853935	 -0.424591	 0.256854	 2
1462096053.447	 12	 -1.362104	 -0.177786	 0.470869	 2.300493	 -0.687523	 -0.678340	 0.156187	 0.856273	 -0.418020	 0.260118	 2
1462096053.457	 12	 -1.012592	 0.133089	 0.506954	 2.305044	 -0.676451	 -0.672090	 0.157017	 0.858248	 -0.412602	 0.261755	 2
1462096053.467	 12	 -0.637827	 0.388407	 0.518856	 2.309879	 -0.667703	 -0.669602	 0.158955	 0.859772	 -0.408521	 0.261983	 2
1462096053.477	 12	 -0.305353	 0.545614	 0.477991	 2.314624	 -0.661482	 -0.670226	 0.161614	 0.860830	 -0.405816	 0.261086	 2
1462096053.487	 12	 -0.026711	 0.632523	 0.401771	 2.319061	 -0.657758	 -0.672990	 0.164551	 0.861471	 -0.404369	 0.259376	 2
1462096053.497	 12	 0.223879	 0.656744	 0.323079	 2.322910	 -0.656356	 -0.677427	 0.167559	 0.861708	 -0.404079	 0.257107	 2
1462096053.507	 12	 0.515563	 0.551243	 0.266270	 2.324945	 -0.657298	 -0.683816	 0.170509	 0.861356	 -0.405090	 0.254745	 2
1462096053.517	 12	 0.778612	 0.494656	 0.196310	 2.324656	 -0.660651	 -0.692389	 0.173379	 0.860326	 -0.407499	 0.252434	 2
1462096053.527	 12	 0.930527	 0.432852	 0.095296	 2.323582	 -0.665896	 -0.701659	 0.175950	 0.858982	 -0.410780	 0.249903	 2
1462096053.537	 12	 1.104354	 0.231941	 0.034362	 2.319898	 -0.672774	 -0.712067	 0.178082	 0.857078	 -0.415040	 0.247881	 2
1462096053.547	 12	 1.200912	 0.010433	 -0.111352	 2.314087	 -0.681304	 -0.722526	 0.179380	 0.854776	 -0.420104	 0.246359	 2
1462096053.557	 12	 1.387435	 -0.385625	 -0.237093	 2.304275	 -0.691821	 -0.733507	 0.179541	 0.851783	 -0.426313	 0.245941	 2
1462096053.567	 12	 1.564184	 -0.740837	 -0.454024	 2.290470	 -0.704875	 -0.744933	 0.178349	 0.848070	 -0.433842	 0.246476	 2
1462096053.577	 12	 1.770003	 -1.223092	 -0.724612	 2.271909	 -0.721046	 -0.756506	 0.175295	 0.843524	 -0.442890	 0.248169	 2
1462096053.587	 12	 2.027465	 -1.855357	 -0.979994	 2.246894	 -0.740557	 -0.768878	 0.170105	 0.837852	 -0.453689	 0.251463	 2
1462096053.597	 12	 2.378369	 -2.468884	 -1.107058	 2.212461	 -0.763246	 -0.784787	 0.163101	 0.830449	 -0.466654	 0.256878	 2
1462096053.607	 12	 2.072073	 -2.217224	 -1.141483	 2.178169	 -0.785383	 -0.800504	 0.155745	 0.823118	 -0.479108	 0.262059	 2
1462096053.617	 12	 1.192514	 -1.423795	 -1.060364	 2.156079	 -0.802387	 -0.808502	 0.149173	 0.818362	 -0.487619	 0.265063	 2
1462096053.627	 12	 0.384212	 -0.109727	 -0.583887	 2.150524	 -0.811736	 -0.809521	 0.145720	 0.816868	 -0.491301	 0.264795	 2
1462096053.637	 12	 -0.060010	 1.331898	 0.322242	 2.160024	 -0.811050	 -0.810460	 0.148620	 0.818098	 -0.490495	 0.260850	 2
1462096053.647	 12	 -0.000349	 1.922256	 0.940029	 2.173600	 -0.804092	 -0.816700	 0.156350	 0.819891	 -0.487922	 0.255470	 2
1462096053.657	 12	 0.214111	 2.229122	 1.101947	 2.187570	 -0.796165	 -0.827457	 0.166257	 0.821366	 -0.485470	 0.249068	 2
1462096053.667	 12	 0.304672	 2.094668	 1.224602	 2.199790	 -0.788248	 -0.840699	 0.176733	 0.822301	 -0.483362	 0.242793	 2
1462096053.677	 12	 0.179667	 1.520411	 1.333317	 2.207012	 -0.778967	 -0.854265	 0.186470	 0.822582	 -0.481182	 0.238855	 2
1462096053.687	 12	 -0.113911	 0.858314	 1.288148	 2.209868	 -0.768279	 -0.864766	 0.194249	 0.822632	 -0.478521	 0.237826	 2
1462096053.697	 12	 -0.458764	 0.266927	 1.146032	 2.210085	 -0.756516	 -0.870400	 0.199664	 0.822846	 -0.475159	 0.239336	 2
1462096053.707	 12	 -0.641214	 -0.203320	 0.907712	 2.208289	 -0.745059	 -0.871599	 0.202696	 0.823200	 -0.471566	 0.242656	 2
1462096053.717	 12	 -0.573116	 -0.468218	 0.633950	 2.204773	 -0.735824	 -0.870683	 0.203881	 0.823396	 -0.468645	 0.246622	 2
1462096053.727	 12	 -0.383600	 -0.555869	 0.357584	 2.200201	 -0.729830	 -0.869362	 0.203820	 0.823298	 -0.466889	 0.250306	 2
1462096053.737	 12	 -0.249908	 -0.482790	 0.075738	 2.196322	 -0.727006	 -0.867515	 0.202887	 0.823152	 -0.466081	 0.253035	 2
1462096053.747	 12	 -0.234236	 -0.111380	 -0.182054	 2.196308	 -0.726660	 -0.864050	 0.201547	 0.823519	 -0.465524	 0.253933	 2
1462096053.757	 12	 -0.264692	 0.539881	 -0.295094	 2.203381	 -0.727379	 -0.859083	 0.200958	 0.824874	 -0.464432	 0.251996	 2
1462096053.767	 12	 -0.313251	 0.832911	 -0.240788	 2.214765	 -0.727729	 -0.853812	 0.201331	 0.826808	 -0.462749	 0.248430	 2
1462096053.777	 12	 -0.443657	 0.779131	 -0.229495	 2.226907	 -0.727000	 -0.847643	 0.201765	 0.828971	 -0.460510	 0.245007	 2
1462096053.787	 12	 -0.460607	 0.628784	 -0.288298	 2.238396	 -0.726306	 -0.840406	 0.201576	 0.831143	 -0.458226	 0.242070	 2
1462096053.797	 12	 -0.314737	 0.518088	 -0.240507	 2.247717	 -0.726095	 -0.834522	 0.201313	 0.832871	 -0.456505	 0.239589	 2
1462096053.807	 12	 -0.112227	 0.413697	 -0.180362	 2.254348	 -0.726553	 -0.831198	 0.201326	 0.833967	 -0.455603	 0.237473	 2
1462096053.817	 12	 0.109680	 0.166351	 -0.171806	 2.257321	 -0.728235	 -0.830309	 0.201215	 0.834297	 -0.455797	 0.236032	 2
1462096053.827	 12	 0.305458	 -0.169380	 -0.188358	 2.255730	 -0.731282	 -0.831442	 0.200568	 0.833792	 -0.457173	 0.235704	 2
1462096053.837	 12	 0.503286	 -0.498944	 -0.233646	 2.249650	 -0.735852	 -0.834283	 0.199220	 0.832484	 -0.459735	 0.236485	 2
1462096053.847	 12	 0.714086	 -0.805045	 -0.264974	 2.239087	 -0.742010	 -0.839092	 0.197236	 0.830344	 -0.463521	 0.238274	 2
1462096053.857	 12	 0.891320	 -0.992939	 -0.289581	 2.224931	 -0.749449	 -0.845860	 0.194857	 0.827497	 -0.468315	 0.240749	 2
1462096053.867	 12	 1.086892	 -1.118316	 -0.339344	 2.208191	 -0.758264	 -0.854482	 0.192209	 0.824068	 -0.474021	 0.243458	 2
1462096053.877	 12	 1.381457	 -1.316149	 -0.367197	 2.187514	 -0.768855	 -0.866133	 0.189297	 0.819758	 -0.481025	 0.246533	 2
1462096053.887	 12	 1.646000	 -1.589020	 -0.341132	 2.161467	 -0.780769	 -0.881681	 0.186163	 0.814342	 -0.489384	 0.250387	 2
1462096053.897	 12	 1.560309	 -1.916068	 -0.300799	 2.131338	 -0.792135	 -0.898417	 0.182430	 0.808340	 -0.497993	 0.255555	 2
1462096053.907	 12	 1.053954	 -2.239083	 -0.314316	 2.100830	 -0.800998	 -0.910806	 0.177312	 0.802804	 -0.505174	 0.262422	 2
1462096053.917	 12	 0.460649	 -2.414256	 -0.363003	 2.073416	 -0.806994	 -0.915818	 0.170667	 0.798417	 -0.510107	 0.270543	 2
1462096053.927	 12	 0.184083	 -2.408481	 -0.411698	 2.049097	 -0.811598	 -0.915972	 0.163185	 0.794847	 -0.513580	 0.278969	 2
1462096053.937	 12	 0.295000	 -2.191876	 -0.418108	 2.026134	 -0.816455	 -0.916465	 0.156053	 0.791344	 -0.516962	 0.286657	 2
1462096053.947	 12	 0.589388	 -1.772611	 -0.417836	 2.004256	 -0.822405	 -0.920596	 0.150257	 0.787607	 -0.521024	 0.292631	 2
1462096053.957	 12	 0.861269	 -1.351345	 -0.443993	 1.983788	 -0.829669	 -0.928731	 0.145933	 0.783699	 -0.525886	 0.296588	 2
1462096053.967	 12	 0.934975	 -1.068998	 -0.493164	 1.965133	 -0.837723	 -0.938639	 0.142452	 0.779904	 -0.531046	 0.299077	 2
1462096053.977	 12	 0.847900	 -0.917165	 -0.564530	 1.948853	 -0.846091	 -0.947737	 0.139106	 0.776528	 -0.535945	 0.300695	 2
1462096053.987	 12	 0.731822	 -0.814096	 -0.625441	 1.934937	 -0.854536	 -0.955099	 0.135626	 0.773643	 -0.540381	 0.301779	 2
1462096053.997	 12	 0.702413	 -0.687670	 -0.657047	 1.922751	 -0.863096	 -0.961672	 0.132216	 0.771085	 -0.544560	 0.302326	 2
1462096054.007	 12	 0.750960	 -0.582465	 -0.650096	 1.911142	 -0.871755	 -0.968972	 0.129162	 0.768582	 -0.548784	 0.302381	 2
1462096054.017	 12	 0.760915	 -0.535460	 -0.617772	 1.899517	 -0.880178	 -0.977004	 0.126407	 0.766059	 -0.553005	 0.302261	 2
1462096054.027	 12	 0.716360	 -0.511647	 -0.578795	 1.888201	 -0.888069	 -0.984971	 0.123831	 0.763623	 -0.557005	 0.302144	 2
1462096054.037	 12	 0.656660	 -0.517688	 -0.555951	 1.877248	 -0.895461	 -0.992409	 0.121266	 0.761310	 -0.560728	 0.302136	 2
1462096054.047	 12	 0.580708	 -0.549433	 -0.564111	 1.866734	 -0.902581	 -0.998966	 0.118536	 0.759142	 -0.564179	 0.302250	 2
1462096054.057	 12	 0.496900	 -0.640907	 -0.598337	 1.856397	 -0.909709	 -1.004269	 0.115342	 0.757090	 -0.567393	 0.302617	 2
1462096054.067	 12	 0.436525	 -0.739911	 -0.634968	 1.845889	 -0.916964	 -1.008494	 0.111619	 0.755083	 -0.570444	 0.303290	 2
1462096054.077	 12	 0.430884	 -0.788955	 -0.653494	 1.834933	 -0.924376	 -1.012449	 0.107583	 0.753029	 -0.573474	 0.304139	 2
1462096054.087	 12	 0.481035	 -0.772241	 -0.675090	 1.823399	 -0.932033	 -1.017107	 0.103533	 0.750856	 -0.576655	 0.304904	 2
1462096054.097	 12	 0.598608	 -0.719526	 -0.691610	 1.810925	 -0.940088	 -1.023513	 0.099698	 0.748456	 -0.580194	 0.305368	 2
1462096054.107	 12	 0.779119	 -0.686021	 -0.691804	 1.796375	 -0.948507	 -1.032929	 0.096216	 0.745608	 -0.584322	 0.305581	 2
1462096054.117	 12	 0.955178	 -0.681307	 -0.703950	 1.779145	 -0.957311	 -1.045725	 0.093012	 0.742220	 -0.589111	 0.305624	 2
1462096054.127	 12	 1.068060	 -0.731630	 -0.704336	 1.759324	 -0.966291	 -1.061191	 0.089885	 0.738363	 -0.594382	 0.305699	 2
1462096054.137	 12	 1.097311	 -0.870998	 -0.697361	 1.737086	 -0.975103	 -1.078075	 0.086506	 0.734134	 -0.599845	 0.306186	 2
1462096054.147	 12	 1.056799	 -1.085747	 -0.700069	 1.713123	 -0.983306	 -1.094724	 0.082607	 0.729717	 -0.605117	 0.307445	 2
1462096054.157	 12	 0.954089	 -1.339884	 -0.732447	 1.687009	 -0.991734	 -1.110732	 0.077622	 0.725053	 -0.610316	 0.309495	 2
1462096054.167	 12	 0.786502	 -1.559717	 -0.755398	 1.660435	 -1.000075	 -1.124518	 0.071597	 0.720454	 -0.615051	 0.312301	 2
1462096054.177	 12	 0.599618	 -1.587876	 -0.754033	 1.634885	 -1.008052	 -1.135498	 0.064898	 0.716151	 -0.619115	 0.315615	 2
1462096054.187	 12	 0.431730	 -1.235094	 -0.721578	 1.614830	 -1.015658	 -1.143552	 0.058902	 0.712833	 -0.622361	 0.317910	 2
1462096054.197	 12	 0.393111	 -0.895080	 -0.638144	 1.600018	 -1.022116	 -1.149734	 0.054225	 0.710408	 -0.624877	 0.319233	 2
1462096054.207	 12	 0.493105	 -0.562022	 -0.577299	 1.586235	 -1.028137	 -1.158395	 0.050867	 0.708095	 -0.627631	 0.319521	 2
1462096054.217	 12	 0.627656	 -0.362074	 -0.524387	 1.572349	 -1.033547	 -1.169886	 0.048655	 0.705712	 -0.630691	 0.319111	 2
1462096054.227	 12	 0.704990	 -0.285473	 -0.490243	 1.557622	 -1.038494	 -1.183498	 0.047047	 0.703167	 -0.633991	 0.318431	 2
1462096054.237	 12	 0.684710	 0.139198	 -0.458405	 1.545368	 -1.043024	 -1.197477	 0.046456	 0.701027	 -0.637186	 0.316853	 2
1462096054.247	 12	 0.694563	 0.606418	 -0.413645	 1.538710	 -1.047079	 -1.211248	 0.047715	 0.699787	 -0.640111	 0.313495	 2
1462096054.257	 12	 0.940105	 0.343472	 -0.346823	 1.527836	 -1.050429	 -1.228957	 0.049223	 0.697783	 -0.643616	 0.310540	 2
1462096054.267	 12	 1.141900	 -0.237620	 -0.168545	 1.507569	 -1.052061	 -1.251382	 0.049903	 0.694152	 -0.647819	 0.309829	 2
1462096054.277	 12	 1.038509	 -0.589122	 0.012396	 1.483225	 -1.051534	 -1.273277	 0.049757	 0.689800	 -0.651758	 0.311308	 2
1462096054.287	 12	 0.674626	 -0.768336	 0.232378	 1.462954	 -1.049086	 -1.288470	 0.049239	 0.686116	 -0.654336	 0.314109	 2
1462096054.297	 12	 0.127416	 -1.128860	 0.456532	 1.448606	 -1.044768	 -1.293111	 0.047679	 0.683467	 -0.654909	 0.318895	 2
1462096054.307	 12	 -0.709822	 -1.106541	 0.555685	 1.446416	 -1.039987	 -1.282265	 0.044973	 0.683064	 -0.652652	 0.324726	 2
1462096054.317	 12	 -1.650216	 -0.720691	 0.582383	 1.463417	 -1.035965	 -1.253114	 0.041962	 0.686241	 -0.647019	 0.329666	 2
1462096054.327	 12	 -2.198192	 -0.416679	 0.629417	 1.494494	 -1.031726	 -1.211191	 0.039026	 0.692034	 -0.638869	 0.333784	 2
1462096054.337	 12	 -2.249730	 -0.048367	 0.650345	 1.531148	 -1.026601	 -1.166667	 0.037000	 0.698835	 -0.629953	 0.336779	 2
1462096054.347	 12	 -2.033674	 0.480901	 0.681099	 1.569184	 -1.020309	 -1.126110	 0.036888	 0.705845	 -0.621391	 0.338076	 2
1462096054.357	 12	 -1.779006	 1.093712	 0.661137	 1.608019	 -1.013257	 -1.091451	 0.039064	 0.712965	 -0.613567	 0.337181	 2
1462096054.367	 12	 -1.734268	 1.836334	 0.563213	 1.651296	 -1.006364	 -1.059683	 0.043271	 0.720857	 -0.606050	 0.333461	 2
1462096054.377	 12	 -1.943283	 2.852010	 0.468974	 1.705674	 -0.999459	 -1.025894	 0.049744	 0.730673	 -0.597812	 0.325981	 2
1462096054.387	 12	 -2.075245	 3.900545	 0.390355	 1.772331	 -0.992014	 -0.989793	 0.058723	 0.742495	 -0.588588	 0.314350	 2
1462096054.397	 12	 -1.824367	 4.990524	 0.461194	 1.846170	 -0.983351	 -0.957829	 0.071151	 0.755174	 -0.579234	 0.298559	 2
1462096054.407	 12	 -1.165118	 6.002570	 0.803783	 1.919765	 -0.972530	 -0.938634	 0.088446	 0.767116	 -0.570771	 0.279162	 2
1462096054.417	 12	 -0.225053	 6.697890	 1.291254	 1.985270	 -0.960012	 -0.938576	 0.110869	 0.776651	 -0.564140	 0.257425	 2
1462096054.427	 12	 0.743900	 6.967589	 1.765985	 2.038140	 -0.947272	 -0.958741	 0.137412	 0.782717	 -0.559802	 0.234721	 2
1462096054.437	 12	 1.416110	 6.745038	 2.002121	 2.078321	 -0.935907	 -0.993529	 0.165617	 0.785300	 -0.557437	 0.212459	 2
1462096054.447	 12	 1.578769	 6.030062	 1.889607	 2.109291	 -0.927044	 -1.032581	 0.192145	 0.785484	 -0.556100	 0.191957	 2
1462096054.457	 12	 0.947268	 5.183151	 1.889356	 2.137158	 -0.916922	 -1.065443	 0.215677	 0.785284	 -0.553396	 0.174829	 2
1462096054.467	 12	 -0.185786	 4.135619	 1.595324	 2.168243	 -0.903423	 -1.081885	 0.234502	 0.786824	 -0.547417	 0.162025	 2
1462096054.477	 12	 -1.084257	 2.914279	 1.188923	 2.200217	 -0.887707	 -1.082248	 0.247682	 0.790214	 -0.539009	 0.153902	 2
1462096054.487	 12	 -1.672817	 2.059611	 0.723554	 2.231179	 -0.871731	 -1.070968	 0.255814	 0.794939	 -0.529483	 0.149265	 2
1462096054.497	 12	 -2.047897	 1.587895	 0.351545	 2.262880	 -0.856001	 -1.051533	 0.260538	 0.800787	 -0.519120	 0.146201	 2
1462096054.507	 12	 -2.239468	 1.268292	 0.056089	 2.294434	 -0.840739	 -1.027489	 0.262920	 0.807254	 -0.508415	 0.143970	 2
1462096054.517	 12	 -2.350325	 1.030878	 -0.166834	 2.324925	 -0.825954	 -1.000753	 0.263470	 0.814022	 -0.497670	 0.142395	 2
1462096054.527	 12	 -2.409179	 0.880139	 -0.296681	 2.354515	 -0.811197	 -0.972807	 0.262937	 0.820928	 -0.486848	 0.141140	 2
1462096054.537	 12	 -2.392310	 0.694296	 -0.396608	 2.382113	 -0.796608	 -0.944802	 0.261504	 0.827720	 -0.476238	 0.140331	 2
1462096054.547	 12	 -2.293024	 0.527639	 -0.457640	 2.406966	 -0.782596	 -0.917727	 0.259346	 0.834170	 -0.466165	 0.139966	 2
1462096054.557	 12	 -2.074361	 0.498334	 -0.450225	 2.429249	 -0.769613	 -0.893125	 0.257108	 0.840039	 -0.456895	 0.139557	 2
1462096054.567	 12	 -1.792115	 0.532184	 -0.361777	 2.448790	 -0.757875	 -0.872336	 0.255345	 0.845120	 -0.448642	 0.138896	 2
1462096054.577	 12	 -1.455447	 0.536343	 -0.238910	 2.465234	 -0.747652	 -0.856113	 0.254323	 0.849264	 -0.441622	 0.137989	 2
1462096054.587	 12	 -1.167371	 0.638561	 -0.107247	 2.479326	 -0.738860	 -0.844228	 0.254205	 0.852561	 -0.435706	 0.136673	 2
1462096054.597	 12	 -0.980716	 0.750493	 0.003009	 2.492389	 -0.730887	 -0.835587	 0.254991	 0.855298	 -0.430428	 0.134823	 2
1462096054.607	 12	 -0.804336	 0.763170	 0.062340	 2.504247	 -0.723776	 -0.829303	 0.256284	 0.857567	 -0.425770	 0.132732	 2
1462096054.617	 12	 -0.623318	 0.663845	 0.079023	 2.514113	 -0.717940	 -0.824863	 0.257640	 0.859342	 -0.421962	 0.130773	 2
1462096054.627	 12	 -0.442445	 0.530513	 0.099654	 2.521589	 -0.713451	 -0.822081	 0.258906	 0.860614	 -0.419079	 0.129166	 2
1462096054.637	 12	 -0.271214	 0.374996	 0.137215	 2.526418	 -0.710161	 -0.821056	 0.260122	 0.861371	 -0.417109	 0.128047	 2
1462096054.647	 12	 -0.111894	 0.194950	 0.160797	 2.528462	 -0.708022	 -0.821622	 0.261211	 0.861632	 -0.416047	 0.127533	 2
1462096054.657	 12	 0.039797	 0.023073	 0.134430	 2.528116	 -0.707212	 -0.823175	 0.261966	 0.861483	 -0.415876	 0.127543	 2
1462096054.667	 12	 0.188880	 -0.212927	 0.064858	 2.525282	 -0.707969	 -0.825229	 0.262112	 0.860961	 -0.416673	 0.128164	 2
1462096054.677	 12	 0.340914	 -0.486296	 -0.023204	 2.519619	 -0.710439	 -0.827525	 0.261431	 0.860064	 -0.418520	 0.129559	 2
1462096054.687	 12	 0.492894	 -0.770309	 -0.112431	 2.510945	 -0.714659	 -0.830107	 0.259879	 0.858765	 -0.421450	 0.131779	 2
1462096054.697	 12	 0.640397	 -1.092648	 -0.208371	 2.499010	 -0.720606	 -0.832917	 0.257360	 0.857050	 -0.425468	 0.134936	 2
1462096054.707	 12	 0.831221	 -1.507642	 -0.303418	 2.482856	 -0.728512	 -0.836254	 0.253712	 0.854782	 -0.430781	 0.139307	 2
1462096054.717	 12	 1.054571	 -2.032354	 -0.408295	 2.461017	 -0.738697	 -0.840569	 0.248682	 0.851746	 -0.437688	 0.145311	 2
1462096054.727	 12	 1.260589	 -2.599662	 -0.527273	 2.432774	 -0.751200	 -0.845935	 0.242037	 0.847839	 -0.446232	 0.153179	 2
1462096054.737	 12	 1.365399	 -3.138941	 -0.635517	 2.398517	 -0.765331	 -0.851980	 0.233735	 0.843145	 -0.455994	 0.162924	 2
1462096054.747	 12	 1.195682	 -3.542040	 -0.702802	 2.360426	 -0.779242	 -0.857150	 0.223941	 0.838121	 -0.465828	 0.174378	 2
1462096054.757	 12	 0.707907	 -3.333193	 -0.700874	 2.324917	 -0.790202	 -0.858696	 0.213652	 0.833815	 -0.473756	 0.186176	 2
1462096054.767	 12	 0.107483	 -2.252833	 -0.540650	 2.301345	 -0.796350	 -0.855665	 0.205291	 0.831370	 -0.478098	 0.195197	 2
1462096054.777	 12	 -0.396933	 -0.618671	 -0.241822	 2.295308	 -0.796852	 -0.849550	 0.201183	 0.831355	 -0.478284	 0.199045	 2
1462096054.787	 12	 -0.540347	 0.875952	 0.028052	 2.305003	 -0.793533	 -0.843548	 0.201808	 0.833198	 -0.475547	 0.197254	 2
1462096054.797	 12	 -0.299141	 1.670752	 0.164436	 2.322026	 -0.790049	 -0.841009	 0.205624	 0.835409	 -0.472334	 0.191603	 2
1462096054.807	 12	 -0.210402	 1.593812	 0.297234	 2.338396	 -0.786714	 -0.841351	 0.210416	 0.837205	 -0.469476	 0.185485	 2
1462096054.817	 12	 -0.354442	 0.979857	 0.497401	 2.349077	 -0.781336	 -0.842630	 0.214719	 0.838520	 -0.466531	 0.182012	 2
1462096054.827	 12	 -0.545559	 0.029776	 0.528592	 2.351680	 -0.774052	 -0.842948	 0.217164	 0.839355	 -0.463659	 0.182603	 2
1462096054.837	 12	 -0.760500	 -0.905044	 0.454622	 2.346423	 -0.765720	 -0.840578	 0.216904	 0.839834	 -0.461006	 0.187365	 2
1462096054.847	 12	 -0.881307	 -1.385590	 0.434150	 2.336472	 -0.756600	 -0.836184	 0.214913	 0.840111	 -0.458367	 0.194744	 2
1462096054.857	 12	 -0.635880	 -1.420092	 0.468993	 2.324064	 -0.748248	 -0.833312	 0.212841	 0.839853	 -0.456391	 0.202612	 2
1462096054.867	 12	 -0.062120	 -1.027363	 0.443140	 2.311140	 -0.743454	 -0.835397	 0.211909	 0.838672	 -0.456250	 0.208708	 2
1462096054.877	 12	 0.307460	 -0.244853	 0.403507	 2.302338	 -0.742070	 -0.841574	 0.212819	 0.837196	 -0.457336	 0.211318	 2
1462096054.887	 12	 0.230702	 0.637439	 0.449687	 2.302092	 -0.740623	 -0.848222	 0.215893	 0.836563	 -0.457546	 0.210250	 2
1462096054.897	 12	 0.074959	 1.323973	 0.456366	 2.310258	 -0.737907	 -0.853483	 0.220613	 0.837035	 -0.456230	 0.206291	 2
1462096054.907	 12	 0.083533	 1.612773	 0.390770	 2.322905	 -0.735411	 -0.857949	 0.225958	 0.838004	 -0.454377	 0.200584	 2
1462096054.917	 12	 0.170819	 1.866960	 0.570357	 2.337048	 -0.732690	 -0.863989	 0.232339	 0.838906	 -0.452372	 0.193948	 2
1462096054.927	 12	 0.515170	 1.843011	 0.780289	 2.348395	 -0.730319	 -0.874780	 0.239983	 0.838886	 -0.451205	 0.187330	 2
1462096054.937	 12	 1.078750	 1.701324	 0.976558	 2.354055	 -0.730274	 -0.892388	 0.248650	 0.837259	 -0.452119	 0.180993	 2
1462096054.947	 12	 1.669730	 1.534671	 1.114805	 2.353157	 -0.733333	 -0.917283	 0.258133	 0.833810	 -0.455543	 0.174953	 2
1462096054.957	 12	 1.995777	 1.488510	 1.041197	 2.348773	 -0.739347	 -0.946067	 0.267683	 0.829243	 -0.460717	 0.168647	 2
1462096054.967	 12	 1.961991	 1.311401	 0.805375	 2.343848	 -0.747052	 -0.973644	 0.276115	 0.824584	 -0.466354	 0.162283	 2
1462096054.977	 12	 1.696072	 0.866291	 0.479557	 2.338206	 -0.755347	 -0.996442	 0.282179	 0.820428	 -0.471812	 0.157054	 2
1462096054.987	 12	 1.298076	 0.294603	 0.099357	 2.331708	 -0.763629	 -1.012250	 0.285108	 0.817170	 -0.476773	 0.153734	 2
1462096054.997	 12	 0.959888	 -0.091758	 -0.221023	 2.325301	 -0.771835	 -1.021180	 0.285216	 0.814906	 -0.481126	 0.151978	 2
1462096055.007	 12	 0.963093	 -0.270853	 -0.276005	 2.318233	 -0.780258	 -1.028103	 0.284255	 0.812873	 -0.485461	 0.150876	 2
1462096055.017	 12	 1.299811	 -0.704931	 -0.157216	 2.304888	 -0.789801	 -1.038808	 0.282968	 0.809774	 -0.491306	 0.151042	 2
1462096055.027	 12	 1.553796	 -1.261053	 -0.034580	 2.282492	 -0.800275	 -1.054422	 0.281083	 0.805260	 -0.499047	 0.153297	 2
1462096055.037	 12	 1.313013	 -1.666318	 0.010639	 2.255469	 -0.809301	 -1.069991	 0.278213	 0.800490	 -0.506903	 0.157680	 2
1462096055.047	 12	 0.680374	 -1.856919	 0.018637	 2.230155	 -0.814449	 -1.079834	 0.274339	 0.796835	 -0.512795	 0.163809	 2
1462096055.057	 12	 0.107657	 -1.973590	 -0.021158	 2.208790	 -0.815925	 -1.082461	 0.269494	 0.794619	 -0.516373	 0.171210	 2
1462096055.067	 12	 -0.073964	 -1.990297	 -0.051705	 2.189630	 -0.816003	 -1.081381	 0.264085	 0.793082	 -0.518858	 0.179072	 2
1462096055.077	 12	 0.110334	 -1.886144	 0.011605	 2.170095	 -0.816337	 -1.081859	 0.259102	 0.791219	 -0.521558	 0.186589	 2
1462096055.087	 12	 0.462571	 -1.714279	 0.093267	 2.148768	 -0.817775	 -1.086991	 0.255152	 0.788479	 -0.525216	 0.193253	 2
1462096055.097	 12	 0.736640	 -1.536340	 0.101062	 2.126238	 -0.820534	 -1.096181	 0.252054	 0.785009	 -0.529785	 0.198890	 2
1462096055.107	 12	 0.864197	 -1.387006	 0.065106	 2.103856	 -0.824232	 -1.107311	 0.249409	 0.781249	 -0.534779	 0.203610	 2
1462096055.117	 12	 0.903072	 -1.248151	 0.014903	 2.082435	 -0.828465	 -1.119008	 0.247000	 0.777483	 -0.539840	 0.207567	 2
1462096055.127	 12	 0.897148	 -1.081708	 -0.062364	 2.062745	 -0.833160	 -1.130423	 0.244728	 0.773915	 -0.544760	 0.210715	 2
1462096055.137	 12	 0.887120	 -0.872775	 -0.148790	 2.045450	 -0.838423	 -1.141275	 0.242647	 0.770659	 -0.549455	 0.212852	 2
1462096055.147	 12	 0.908048	 -0.685007	 -0.207974	 2.030002	 -0.844192	 -1.152020	 0.240813	 0.767618	 -0.554018	 0.214093	 2
1462096055.157	 12	 0.983694	 -0.451545	 -0.252278	 2.016340	 -0.850586	 -1.163502	 0.239508	 0.764690	 -0.558574	 0.214198	 2
1462096055.167	 12	 1.067523	 -0.325234	 -0.253964	 2.003226	 -0.857350	 -1.176281	 0.238677	 0.761685	 -0.563260	 0.213557	 2
1462096055.177	 12	 1.117760	 -0.329454	 -0.228862	 1.989395	 -0.864077	 -1.190273	 0.238051	 0.758488	 -0.568108	 0.212792	 2
1462096055.187	 12	 1.105539	 -0.450507	 -0.206436	 1.974241	 -0.870466	 -1.204726	 0.237252	 0.755127	 -0.573034	 0.212429	 2
1462096055.197	 12	 1.038422	 -0.660829	 -0.196085	 1.957469	 -0.876365	 -1.218722	 0.235888	 0.751679	 -0.577940	 0.212885	 2
1462096055.207	 12	 0.967002	 -0.882801	 -0.180476	 1.938978	 -0.881721	 -1.231988	 0.233840	 0.748159	 -0.582801	 0.214292	 2
1462096055.217	 12	 0.917116	 -1.076018	 -0.150933	 1.918742	 -0.886446	 -1.244806	 0.231230	 0.744518	 -0.587629	 0.216605	 2
1462096055.227	 12	 0.895248	 -1.202391	 -0.132735	 1.897097	 -0.890707	 -1.257553	 0.228237	 0.740740	 -0.592467	 0.219533	 2
1462096055.237	 12	 0.887345	 -1.280132	 -0.149376	 1.874511	 -0.894809	 -1.270326	 0.224937	 0.736859	 -0.597339	 0.222773	 2
1462096055.247	 12	 0.882688	 -1.315622	 -0.205085	 1.851486	 -0.899163	 -1.283035	 0.221310	 0.732947	 -0.602263	 0.226032	 2
1462096055.257	 12	 0.881114	 -1.355554	 -0.285375	 1.828194	 -0.904042	 -1.295582	 0.217282	 0.729044	 -0.607254	 0.229186	 2
1462096055.267	 12	 0.886754	 -1.436043	 -0.382092	 1.804221	 -0.909661	 -1.308126	 0.212708	 0.725099	 -0.612403	 0.232268	 2
1462096055.277	 12	 0.862067	 -1.629030	 -0.457210	 1.778906	 -0.915888	 -1.320425	 0.207332	 0.721065	 -0.617704	 0.235626	 2
1462096055.287	 12	 0.864294	 -1.746799	 -0.562770	 1.751839	 -0.922778	 -1.332644	 0.201056	 0.716881	 -0.623200	 0.239333	 2
1462096055.297	 12	 0.822353	 -1.536512	 -0.623330	 1.728706	 -0.930609	 -1.342661	 0.194801	 0.713457	 -0.628096	 0.241925	 2
1462096055.307	 12	 0.726889	 -1.195801	 -0.612934	 1.706999	 -0.937797	 -1.353650	 0.189466	 0.710116	 -0.632754	 0.243844	 2
1462096055.317	 12	 0.687476	 -0.755118	 -0.580781	 1.689950	 -0.944532	 -1.364034	 0.185473	 0.707415	 -0.636739	 0.244390	 2
1462096055.327	 12	 0.732830	 -0.431778	 -0.562180	 1.675934	 -0.950944	 -1.375152	 0.182761	 0.705039	 -0.640417	 0.243689	 2
1462096055.337	 12	 0.863553	 -0.296228	 -0.590833	 1.661922	 -0.957529	 -1.388385	 0.180690	 0.702523	 -0.644321	 0.242206	 2
1462096055.347	 12	 0.944006	 -0.216618	 -0.580120	 1.647644	 -0.962489	 -1.403156	 0.179572	 0.699779	 -0.648133	 0.240804	 2
1462096055.357	 12	 0.908612	 -0.089416	 -0.507223	 1.633688	 -0.968376	 -1.418676	 0.178454	 0.697109	 -0.652090	 0.238687	 2
1462096055.367	 12	 0.808973	 -0.027791	 -0.409863	 1.621451	 -0.973201	 -1.433046	 0.177810	 0.694714	 -0.655556	 0.236648	 2
1462096055.377	 12	 0.653329	 -0.090311	 -0.293987	 1.610752	 -0.976736	 -1.445173	 0.177295	 0.692637	 -0.658408	 0.235201	 2
1462096055.387	 12	 0.458291	 -0.318987	 -0.226208	 1.600801	 -0.979302	 -1.454131	 0.176236	 0.690873	 -0.660672	 0.234836	 2
1462096055.397	 12	 0.209799	 -0.760518	 -0.198312	 1.590321	 -0.981408	 -1.458993	 0.173727	 0.689380	 -0.662428	 0.236143	 2
1462096055.407	 12	 -0.090045	 -1.198967	 -0.206176	 1.579730	 -0.983449	 -1.458731	 0.169426	 0.688310	 -0.663558	 0.239198	 2
1462096055.417	 12	 -0.489763	 -1.588872	 -0.160496	 1.570479	 -0.985207	 -1.451802	 0.163368	 0.687912	 -0.663705	 0.244096	 2
1462096055.427	 12	 -0.967321	 -1.781415	 -0.064342	 1.565829	 -0.986140	 -1.436526	 0.156249	 0.688633	 -0.662303	 0.250452	 2
1462096055.437	 12	 -1.420213	 -1.953775	 0.038179	 1.566563	 -0.986051	 -1.412713	 0.148311	 0.690533	 -0.659208	 0.258095	 2
1462096055.447	 12	 -1.736650	 -2.156320	 0.140297	 1.570831	 -0.985004	 -1.382573	 0.139650	 0.693187	 -0.654808	 0.266864	 2
1462096055.457	 12	 -1.871994	 -1.979656	 0.246498	 1.577954	 -0.982674	 -1.349148	 0.131169	 0.696262	 -0.649470	 0.276049	 2
1462096055.467	 12	 -1.956450	 -1.146262	 0.293356	 1.593098	 -0.979603	 -1.314457	 0.125016	 0.700418	 -0.643207	 0.282968	 2
1462096055.477	 12	 -2.010771	 -0.507403	 0.366916	 1.616153	 -0.975417	 -1.278839	 0.121319	 0.705688	 -0.636059	 0.287601	 2
1462096055.487	 12	 -2.000482	 0.063948	 0.397722	 1.644300	 -0.970332	 -1.243757	 0.119542	 0.711658	 -0.628455	 0.290341	 2
1462096055.497	 12	 -2.028230	 0.742606	 0.396818	 1.678791	 -0.964483	 -1.208821	 0.119824	 0.718577	 -0.620278	 0.290765	 2
1462096055.507	 12	 -2.105529	 1.762939	 0.411249	 1.722650	 -0.957788	 -1.173600	 0.122873	 0.726923	 -0.611248	 0.287856	 2
1462096055.517	 12	 -2.057892	 2.790429	 0.436381	 1.775849	 -0.949870	 -1.139495	 0.129174	 0.736577	 -0.601419	 0.281183	 2
1462096055.527	 12	 -1.786721	 3.674925	 0.487013	 1.834128	 -0.940990	 -1.110327	 0.138658	 0.746613	 -0.591532	 0.270986	 2
1462096055.537	 12	 -1.312081	 4.509665	 0.505569	 1.893819	 -0.931900	 -1.089538	 0.151288	 0.756146	 -0.582321	 0.257406	 2
1462096055.547	 12	 -0.643339	 5.017948	 0.612117	 1.950587	 -0.923726	 -1.079936	 0.166624	 0.764188	 -0.574586	 0.241049	 2
1462096055.557	 12	 0.036200	 5.170178	 0.904964	 1.999579	 -0.915752	 -1.083232	 0.184339	 0.769844	 -0.568615	 0.223688	 2
1462096055.567	 12	 0.568761	 5.178017	 1.174301	 2.039809	 -0.907596	 -1.097814	 0.203810	 0.773045	 -0.564124	 0.206465	 2
1462096055.577	 12	 0.828696	 5.062547	 1.196542	 2.074967	 -0.900630	 -1.118076	 0.223597	 0.774616	 -0.560502	 0.189243	 2
1462096055.587	 12	 0.807900	 4.557960	 1.128082	 2.105867	 -0.894809	 -1.138757	 0.241941	 0.775228	 -0.557201	 0.173239	 2
1462096055.597	 12	 0.507071	 3.792058	 0.992485	 2.132748	 -0.889117	 -1.155533	 0.257547	 0.775590	 -0.553687	 0.159878	 2
1462096055.607	 12	 -0.062417	 2.941132	 0.757189	 2.157894	 -0.882731	 -1.163829	 0.269512	 0.776694	 -0.549254	 0.149766	 2
1462096055.617	 12	 -0.781895	 2.011548	 0.468114	 2.182610	 -0.874867	 -1.160890	 0.277322	 0.779231	 -0.543458	 0.143336	 2
1462096055.627	 12	 -1.451304	 1.263912	 0.209071	 2.207472	 -0.865117	 -1.147034	 0.281306	 0.783363	 -0.536216	 0.140295	 2
1462096055.637	 12	 -1.854570	 0.950367	 0.076444	 2.233172	 -0.853586	 -1.126342	 0.283131	 0.788637	 -0.527761	 0.139126	 2
1462096055.647	 12	 -1.994469	 0.996992	 -0.003968	 2.260208	 -0.841128	 -1.103230	 0.284363	 0.794450	 -0.518565	 0.138119	 2
1462096055.657	 12	 -1.912805	 1.127472	 -0.018385	 2.287702	 -0.828701	 -1.080925	 0.285763	 0.800231	 -0.509260	 0.136471	 2
1462096055.667	 12	 -1.678125	 1.301483	 0.018492	 2.314150	 -0.817033	 -1.061926	 0.287776	 0.805461	 -0.500471	 0.133961	 2
1462096055.677	 12	 -1.391339	 1.440207	 0.050325	 2.339177	 -0.806680	 -1.046886	 0.290488	 0.809964	 -0.492492	 0.130484	 2
1462096055.687	 12	 -1.149599	 1.528039	 0.086339	 2.362588	 -0.797675	 -1.035353	 0.293721	 0.813765	 -0.485350	 0.126291	 2
1462096055.697	 12	 -1.018233	 1.509919	 0.134052	 2.384177	 -0.789337	 -1.026274	 0.297213	 0.817036	 -0.478793	 0.121959	 2
1462096055.707	 12	 -0.981038	 1.423057	 0.197931	 2.403972	 -0.780856	 -1.018691	 0.300804	 0.819974	 -0.472488	 0.117962	 2
1462096055.717	 12	 -0.988420	 1.410586	 0.235181	 2.422816	 -0.772013	 -1.011903	 0.304472	 0.822753	 -0.466190	 0.114197	 2
1462096055.727	 12	 -0.988106	 1.236280	 0.252740	 2.440095	 -0.762835	 -1.005561	 0.307934	 0.825392	 -0.459983	 0.110996	 2
1462096055.737	 12	 -0.933952	 0.959522	 0.244364	 2.454330	 -0.753951	 -0.999795	 0.310779	 0.827747	 -0.454331	 0.108787	 2
1462096055.747	 12	 -0.849497	 0.761471	 0.248180	 2.465733	 -0.745625	 -0.994906	 0.313153	 0.829769	 -0.449325	 0.107360	 2
1462096055.757	 12	 -0.738179	 0.594255	 0.261642	 2.474592	 -0.738003	 -0.991179	 0.315236	 0.831417	 -0.445002	 0.106511	 2
1462096055.767	 12	 -0.586181	 0.463006	 0.264426	 2.481139	 -0.731445	 -0.988764	 0.317089	 0.832653	 -0.441475	 0.106035	 2
1462096055.777	 12	 -0.382743	 0.348869	 0.301026	 2.485295	 -0.726231	 -0.988227	 0.318890	 0.833359	 -0.438899	 0.105780	 2
1462096055.787	 12	 -0.168792	 0.156382	 0.391159	 2.485962	 -0.722269	 -0.990383	 0.320775	 0.833351	 -0.437470	 0.106062	 2
1462096055.797	 12	 0.104533	 0.166363	 0.411253	 2.484585	 -0.720004	 -0.994936	 0.322851	 0.832715	 -0.437113	 0.106230	 2
1462096055.807	 12	 0.401922	 0.092094	 0.410104	 2.481186	 -0.720108	 -1.001918	 0.324990	 0.831396	 -0.438071	 0.106090	 2
1462096055.817	 12	 0.649716	 -0.083123	 0.402053	 2.474841	 -0.722278	 -1.011014	 0.326909	 0.829420	 -0.440369	 0.106155	 2
1462096055.827	 12	 0.851185	 -0.320158	 0.357594	 2.465273	 -0.726245	 -1.021590	 0.328317	 0.826896	 -0.443916	 0.106724	 2
1462096055.837	 12	 0.999721	 -0.630962	 0.239372	 2.452439	 -0.732016	 -1.032606	 0.328737	 0.823996	 -0.448659	 0.108015	 2
1462096055.847	 12	 1.088165	 -0.972773	 0.074491	 2.436561	 -0.739461	 -1.043070	 0.327801	 0.820908	 -0.454444	 0.110165	 2
1462096055.857	 12	 1.141192	 -1.354914	 -0.092588	 2.417576	 -0.748324	 -1.052576	 0.325345	 0.817711	 -0.461143	 0.113344	 2
1462096055.867	 12	 1.198159	 -1.816749	 -0.247654	 2.394640	 -0.758522	 -1.061337	 0.321232	 0.814317	 -0.468838	 0.117852	 2
1462096055.877	 12	 1.142244	 -2.755167	 -0.313451	 2.363785	 -0.769060	 -1.069465	 0.314739	 0.810501	 -0.477777	 0.125528	 2
1462096055.887	 12	 1.043567	 -3.235234	 -0.405517	 2.327584	 -0.779244	 -1.076381	 0.306325	 0.806474	 -0.487205	 0.135632	 2
1462096055.897	 12	 0.994340	 -3.434467	 -0.471954	 2.289161	 -0.789403	 -1.082565	 0.296819	 0.802283	 -0.496714	 0.146684	 2
1462096055.907	 12	 0.798195	 -3.156344	 -0.479381	 2.252869	 -0.798682	 -1.087584	 0.287350	 0.798330	 -0.505328	 0.157299	 2
1462096055.917	 12	 0.295254	 -2.187201	 -0.362605	 2.227625	 -0.804530	 -1.088840	 0.279903	 0.795844	 -0.510826	 0.165360	 2
1462096055.927	 12	 -0.109723	 -1.392729	 -0.092706	 2.212952	 -0.805673	 -1.087102	 0.275152	 0.794799	 -0.513067	 0.171311	 2
1462096055.937	 12	 -0.210798	 -0.223471	 0.207876	 2.208240	 -0.803404	 -1.085922	 0.274081	 0.794652	 -0.512916	 0.174139	 2
1462096055.947	 12	 -0.031983	 1.107889	 0.388164	 2.214957	 -0.799995	 -1.087882	 0.277489	 0.795108	 -0.511113	 0.171948	 2
1462096055.957	 12	 0.156905	 1.517189	 0.438287	 2.225952	 -0.797354	 -1.093049	 0.283049	 0.795428	 -0.509197	 0.167019	 2
1462096055.967	 12	 -0.022740	 1.174521	 0.486754	 2.235629	 -0.793867	 -1.097715	 0.288283	 0.795710	 -0.507122	 0.162989	 2
1462096055.977	 12	 -0.341391	 0.426125	 0.411158	 2.241162	 -0.788740	 -1.098676	 0.291410	 0.796240	 -0.504808	 0.162023	 2
1462096055.987	 12	 -0.624360	 -0.294996	 0.151128	 2.242872	 -0.783557	 -1.094505	 0.291534	 0.797207	 -0.502604	 0.163884	 2
1462096055.997	 12	 -0.921520	 -0.837563	 -0.132694	 2.242760	 -0.778762	 -1.084563	 0.288788	 0.798845	 -0.500293	 0.167795	 2
1462096056.007	 12	 -1.004629	 -1.105636	 -0.318842	 2.241586	 -0.774714	 -1.071063	 0.284149	 0.800853	 -0.498035	 0.172786	 2
1462096056.017	 12	 -0.758969	 -0.816157	 -0.341734	 2.240721	 -0.772220	 -1.058933	 0.279720	 0.802597	 -0.496305	 0.176852	 2
1462096056.027	 12	 -0.373209	 -0.085051	 -0.276475	 2.243327	 -0.771584	 -1.051205	 0.277427	 0.803933	 -0.495053	 0.177900	 2
1462096056.037	 12	 0.001869	 0.558545	 -0.109625	 2.249149	 -0.772311	 -1.048857	 0.277734	 0.804740	 -0.494271	 0.175936	 2
1462096056.047	 12	 0.098100	 0.789191	 0.200755	 2.255237	 -0.772057	 -1.050997	 0.280164	 0.804985	 -0.493527	 0.173028	 2
1462096056.057	 12	 -0.152398	 0.577437	 0.526023	 2.259638	 -0.768025	 -1.054102	 0.283533	 0.805117	 -0.491876	 0.171620	 2
1462096056.067	 12	 -0.214567	 0.163932	 0.680449	 2.259974	 -0.761603	 -1.057418	 0.286595	 0.804969	 -0.490044	 0.172470	 2
1462096056.077	 12	 0.050577	 -0.035089	 0.770076	 2.255668	 -0.755594	 -1.063658	 0.289588	 0.803960	 -0.489270	 0.174360	 2
1462096056.087	 12	 0.373026	 0.006446	 0.761260	 2.248756	 -0.751504	 -1.073518	 0.292905	 0.802087	 -0.489827	 0.175875	 2
1462096056.097	 12	 0.522812	 0.152220	 0.683512	 2.242198	 -0.749100	 -1.084818	 0.296443	 0.799936	 -0.491022	 0.176412	 2
1462096056.107	 12	 0.593470	 0.262090	 0.609315	 2.236799	 -0.747754	 -1.096301	 0.300051	 0.797796	 -0.492412	 0.176129	 2
1462096056.117	 12	 0.642005	 0.261995	 0.469277	 2.231929	 -0.747612	 -1.107400	 0.303308	 0.795698	 -0.494078	 0.175373	 2
1462096056.127	 12	 0.598482	 0.135292	 0.140222	 2.227835	 -0.749534	 -1.116041	 0.305227	 0.793966	 -0.496056	 0.174306	 2
1462096056.137	 12	 0.460734	 -0.157091	 -0.339826	 2.224588	 -0.754292	 -1.119629	 0.304599	 0.792991	 -0.498341	 0.173322	 2
1462096056.147	 12	 0.358913	 -0.411400	 -0.689806	 2.221844	 -0.761501	 -1.118558	 0.301597	 0.792690	 -0.500895	 0.172583	 2
1462096056.157	 12	 0.421464	 -0.670511	 -0.754576	 2.217139	 -0.769862	 -1.116603	 0.297436	 0.792306	 -0.504007	 0.172508	 2
1462096056.167	 12	 0.651294	 -0.869605	 -0.689155	 2.208466	 -0.779053	 -1.117217	 0.293046	 0.791160	 -0.508156	 0.173111	 2
1462096056.177	 12	 0.956308	 -1.019538	 -0.561051	 2.195044	 -0.789050	 -1.122298	 0.288948	 0.788924	 -0.513580	 0.174195	 2
1462096056.187	 12	 1.170696	 -1.158509	 -0.424596	 2.177162	 -0.799308	 -1.131647	 0.285228	 0.785689	 -0.520029	 0.175804	 2
1462096056.197	 12	 1.162780	 -1.359649	 -0.297442	 2.155878	 -0.808648	 -1.143089	 0.281576	 0.781907	 -0.526797	 0.178385	 2
1462096056.207	 12	 0.904695	 -1.624147	 -0.208132	 2.132926	 -0.815891	 -1.153255	 0.277442	 0.778225	 -0.533003	 0.182482	 2
1462096056.217	 12	 0.598624	 -1.865239	 -0.137370	 2.109590	 -0.820733	 -1.160437	 0.272613	 0.774964	 -0.538244	 0.188167	 2
1462096056.227	 12	 0.451209	 -1.974740	 -0.043318	 2.085988	 -0.823708	 -1.165932	 0.267508	 0.771904	 -0.542782	 0.194912	 2
1462096056.237	 12	 0.547965	 -1.924170	 0.075675	 2.061449	 -0.825772	 -1.172837	 0.262883	 0.768523	 -0.547284	 0.201856	 2
1462096056.247	 12	 0.794588	 -1.750879	 0.164664	 2.035709	 -0.827823	 -1.183372	 0.259243	 0.764488	 -0.552272	 0.208201	 2
1462096056.257	 12	 1.030375	 -1.534617	 0.161427	 2.009423	 -0.830569	 -1.197487	 0.256512	 0.759882	 -0.557866	 0.213461	 2
1462096056.267	 12	 1.118622	 -1.324744	 0.097600	 1.984043	 -0.834101	 -1.213165	 0.254273	 0.755147	 -0.563697	 0.217589	 2
1462096056.277	 12	 1.083035	 -1.108258	 0.015729	 1.961119	 -0.838053	 -1.228433	 0.252328	 0.750724	 -0.569253	 0.220669	 2
1462096056.287	 12	 0.993906	 -0.928856	 -0.068153	 1.941048	 -0.842275	 -1.242345	 0.250504	 0.746794	 -0.574340	 0.222888	 2
1462096056.297	 12	 0.887593	 -0.771747	 -0.153157	 1.923859	 -0.846743	 -1.254498	 0.248696	 0.743421	 -0.578901	 0.224386	 2
1462096056.307	 12	 0.826021	 -0.654983	 -0.210152	 1.908870	 -0.851441	 -1.265395	 0.246923	 0.740471	 -0.583070	 0.225300	 2
1462096056.317	 12	 0.814554	 -0.549006	 -0.267683	 1.895179	 -0.856473	 -1.275902	 0.245227	 0.737742	 -0.587081	 0.225692	 2
1462096056.327	 12	 0.817827	 -0.426565	 -0.395529	 1.882970	 -0.862446	 -1.286051	 0.243490	 0.735268	 -0.591045	 0.225300	 2
1462096056.337	 12	 0.822605	 -0.443408	 -0.516159	 1.871206	 -0.869573	 -1.295846	 0.241344	 0.732944	 -0.595125	 0.224438	 2
1462096056.347	 12	 0.845111	 -0.585487	 -0.592280	 1.858164	 -0.877506	 -1.305737	 0.238547	 0.730521	 -0.599489	 0.223712	 2
1462096056.357	 12	 0.862347	 -0.758010	 -0.615351	 1.843027	 -0.885776	 -1.316074	 0.235119	 0.727859	 -0.604159	 0.223457	 2
1462096056.367	 12	 0.836140	 -0.916134	 -0.577161	 1.826097	 -0.893677	 -1.326589	 0.231263	 0.725004	 -0.608910	 0.223865	 2
1462096056.377	 12	 0.780133	 -1.080349	 -0.511058	 1.807654	 -0.900740	 -1.336893	 0.227069	 0.722012	 -0.613571	 0.225096	 2
1462096056.387	 12	 0.715399	 -1.281791	 -0.448423	 1.787650	 -0.906879	 -1.346718	 0.222450	 0.718893	 -0.618104	 0.227280	 2
1462096056.397	 12	 0.648858	 -1.389840	 -0.414745	 1.766698	 -0.912392	 -1.355925	 0.217448	 0.715727	 -0.622484	 0.230141	 2
1462096056.407	 12	 0.568534	 -1.495573	 -0.360676	 1.745405	 -0.917157	 -1.364280	 0.212212	 0.712590	 -0.626596	 0.233578	 2
1462096056.417	 12	 0.528876	 -1.556931	 -0.331060	 1.723750	 -0.921330	 -1.372070	 0.206792	 0.709442	 -0.630508	 0.237463	 2
1462096056.427	 12	 0.548874	 -1.602838	 -0.346582	 1.701356	 -0.925488	 -1.380162	 0.201187	 0.706169	 -0.634462	 0.241468	 2
1462096056.437	 12	 0.594596	 -1.618037	 -0.370568	 1.678083	 -0.929787	 -1.389084	 0.195482	 0.702712	 -0.638555	 0.245417	 2
1462096056.447	 12	 0.593672	 -1.871735	 -0.301515	 1.652736	 -0.933666	 -1.398564	 0.189376	 0.698915	 -0.642775	 0.249990	 2
1462096056.457	 12	 0.596918	 -2.092937	 -0.296141	 1.624372	 -0.936912	 -1.408211	 0.182490	 0.694662	 -0.647118	 0.255696	 2
1462096056.467	 12	 0.567012	 -1.999046	 -0.414372	 1.596276	 -0.940973	 -1.417809	 0.175308	 0.690486	 -0.651450	 0.260978	 2
1462096056.477	 12	 0.431831	 -1.824023	 -0.534129	 1.571243	 -0.946067	 -1.425700	 0.168101	 0.686930	 -0.655331	 0.265350	 2
1462096056.487	 12	 0.221786	 -1.435186	 -0.680021	 1.551889	 -0.952541	 -1.430654	 0.161216	 0.684493	 -0.658429	 0.268237	 2
1462096056.497	 12	 -0.044035	 -1.243890	 -0.662071	 1.538632	 -0.959271	 -1.431287	 0.154738	 0.683246	 -0.660408	 0.270357	 2
1462096056.507	 12	 -0.179455	 -1.257003	 -0.618384	 1.528036	 -0.965594	 -1.428980	 0.148258	 0.682539	 -0.661674	 0.272667	 2
1462096056.517	 12	 -0.220834	 -1.260662	 -0.553046	 1.518155	 -0.971423	 -1.425680	 0.141837	 0.681939	 -0.662642	 0.275223	 2
1462096056.527	 12	 -0.209486	 -1.187762	 -0.469337	 1.508764	 -0.976435	 -1.422360	 0.135847	 0.681314	 -0.663428	 0.277885	 2
1462096056.537	 12	 -0.152898	 -1.019328	 -0.393659	 1.500192	 -0.980674	 -1.419817	 0.130657	 0.680662	 -0.664139	 0.280262	 2
1462096056.547	 12	 -0.064334	 -0.913276	 -0.253828	 1.491899	 -0.983609	 -1.418622	 0.126469	 0.679833	 -0.664842	 0.282522	 2
1462096056.557	 12	 -0.048666	 -0.878256	 -0.111892	 1.483631	 -0.985165	 -1.418028	 0.122972	 0.678837	 -0.665449	 0.285020	 2
1462096056.567	 12	 -0.164014	 -1.007792	 0.018995	 1.475781	 -0.985414	 -1.415806	 0.119519	 0.677869	 -0.665634	 0.288341	 2
1462096056.577	 12	 -0.497897	 -1.067720	 0.126855	 1.471142	 -0.984801	 -1.408449	 0.115698	 0.677572	 -0.664770	 0.292559	 2
1462096056.587	 12	 -1.036662	 -0.944766	 0.290423	 1.475215	 -0.983257	 -1.391944	 0.111995	 0.678974	 -0.661930	 0.297153	 2
1462096056.597	 12	 -1.555700	 -0.900900	 0.409387	 1.487975	 -0.980680	 -1.365597	 0.108145	 0.682120	 -0.656972	 0.302333	 2
1462096056.607	 12	 -1.899101	 -0.657120	 0.446618	 1.508190	 -0.977638	 -1.332427	 0.104473	 0.686731	 -0.650455	 0.307237	 2
1462096056.617	 12	 -2.102397	 -0.160286	 0.528681	 1.535943	 -0.973625	 -1.295285	 0.102050	 0.692668	 -0.642729	 0.310960	 2
1462096056.627	 12	 -2.138023	 0.534354	 0.675070	 1.570918	 -0.967625	 -1.257194	 0.102059	 0.699727	 -0.634104	 0.312854	 2
1462096056.637	 12	 -2.071418	 1.195614	 0.806403	 1.611075	 -0.959436	 -1.220910	 0.104790	 0.707514	 -0.625013	 0.312734	 2
1462096056.647	 12	 -2.102772	 1.704828	 0.905201	 1.655653	 -0.949390	 -1.185833	 0.109600	 0.716002	 -0.615367	 0.310890	 2
1462096056.657	 12	 -2.229357	 2.247607	 0.900697	 1.705378	 -0.937919	 -1.150350	 0.115898	 0.725429	 -0.604863	 0.307345	 2
1462096056.667	 12	 -2.272716	 2.827026	 0.848915	 1.760543	 -0.925773	 -1.115074	 0.123621	 0.735810	 -0.593647	 0.301472	 2
1462096056.677	 12	 -2.138897	 3.389104	 0.824204	 1.818654	 -0.912954	 -1.082863	 0.132991	 0.746533	 -0.582236	 0.293264	 2
1462096056.687	 12	 -1.809914	 3.898710	 0.829276	 1.877284	 -0.900146	 -1.056542	 0.144132	 0.756956	 -0.571291	 0.282613	 2
1462096056.697	 12	 -1.325309	 4.305236	 0.909836	 1.932687	 -0.887375	 -1.039412	 0.157314	 0.766180	 -0.561485	 0.270100	 2
1462096056.707	 12	 -0.773296	 4.455817	 1.070558	 1.982563	 -0.874458	 -1.032232	 0.172411	 0.773712	 -0.552976	 0.256634	 2
1462096056.717	 12	 -0.311002	 4.327251	 1.275292	 2.024739	 -0.861605	 -1.034325	 0.188666	 0.779223	 -0.545879	 0.243377	 2
1462096056.727	 12	 -0.065078	 3.866923	 1.404219	 2.058697	 -0.848823	 -1.042405	 0.204800	 0.782914	 -0.539880	 0.231584	 2
1462096056.737	 12	 -0.136065	 3.079988	 1.394317	 2.085021	 -0.836041	 -1.051270	 0.219045	 0.785425	 -0.534417	 0.222543	 2
1462096056.747	 12	 -0.543339	 2.101000	 1.312018	 2.105211	 -0.822378	 -1.055764	 0.230078	 0.787630	 -0.528653	 0.217320	 2
1462096056.757	 12	 -1.176773	 1.150236	 1.217031	 2.121354	 -0.806520	 -1.052520	 0.237507	 0.790322	 -0.521713	 0.216328	 2
1462096056.767	 12	 -1.823259	 0.406628	 1.082520	 2.135526	 -0.788192	 -1.040727	 0.241606	 0.793923	 -0.513198	 0.218952	 2
1462096056.777	 12	 -2.265158	 0.037972	 0.961440	 2.149280	 -0.768156	 -1.022608	 0.243398	 0.798354	 -0.503346	 0.223678	 2
1462096056.787	 12	 -2.417080	 0.012411	 0.895382	 2.163409	 -0.747317	 -1.002038	 0.244330	 0.803211	 -0.492719	 0.228873	 2
1462096056.797	 12	 -2.311805	 0.235860	 0.803823	 2.178493	 -0.727191	 -0.982132	 0.245365	 0.808127	 -0.482076	 0.233087	 2
1462096056.807	 12	 -2.016431	 0.481153	 0.721470	 2.194019	 -0.709030	 -0.965030	 0.246919	 0.812728	 -0.472174	 0.235704	 2
1462096056.817	 12	 -1.560881	 0.739873	 0.648505	 2.208820	 -0.693739	 -0.952371	 0.249192	 0.816623	 -0.463712	 0.236645	 2
1462096056.827	 12	 -1.058629	 1.112761	 0.644405	 2.223638	 -0.681526	 -0.945121	 0.252760	 0.819748	 -0.456840	 0.235419	 2
1462096056.837	 12	 -0.657061	 1.318663	 0.746203	 2.237677	 -0.671291	 -0.943156	 0.257726	 0.822035	 -0.451297	 0.232739	 2
1462096056.847	 12	 -0.405597	 1.372939	 0.852161	 2.250135	 -0.661965	 -0.945177	 0.263682	 0.823566	 -0.446672	 0.229556	 2
1462096056.857	 12	 -0.281992	 1.312133	 0.877163	 2.260988	 -0.653241	 -0.949172	 0.269896	 0.824596	 -0.442635	 0.226434	 2
1462096056.867	 12	 -0.209025	 1.182060	 0.863594	 2.270264	 -0.645129	 -0.953986	 0.275912	 0.825277	 -0.439068	 0.223629	 2
1462096056.877	 12	 -0.170336	 1.059234	 0.808826	 2.278150	 -0.637666	 -0.958954	 0.281500	 0.825724	 -0.435896	 0.221205	 2
1462096056.887	 12	 -0.112444	 0.979574	 0.701004	 2.285341	 -0.631280	 -0.963664	 0.286547	 0.826065	 -0.433140	 0.218855	 2
1462096056.897	 12	 -0.051635	 0.851940	 0.578856	 2.291683	 -0.626270	 -0.968010	 0.290913	 0.826295	 -0.430926	 0.216588	 2
1462096056.907	 12	 -0.034738	 0.657711	 0.495904	 2.296526	 -0.622181	 -0.971841	 0.294511	 0.826389	 -0.429181	 0.214818	 2
1462096056.917	 12	 -0.013637	 0.441210	 0.423365	 2.299478	 -0.618752	 -0.975286	 0.297381	 0.826306	 -0.427897	 0.213746	 2
1462096056.927	 12	 0.017335	 0.267342	 0.367124	 2.300690	 -0.615990	 -0.978453	 0.299604	 0.826048	 -0.427074	 0.213283	 2
1462096056.937	 12	 0.096917	 0.197740	 0.334876	 2.300799	 -0.613923	 -0.981916	 0.301546	 0.825602	 -0.426694	 0.213035	 2
1462096056.947	 12	 0.222496	 0.173545	 0.276006	 2.300203	 -0.613001	 -0.986025	 0.303332	 0.824944	 -0.426894	 0.212644	 2
1462096056.957	 12	 0.379750	 0.121221	 0.164377	 2.298887	 -0.613789	 -0.990710	 0.304796	 0.824070	 -0.427870	 0.211980	 2
1462096056.967	 12	 0.531286	 0.020769	 0.013981	 2.296512	 -0.616685	 -0.995662	 0.305638	 0.822980	 -0.429778	 0.211138	 2
1462096056.977	 12	 0.646376	 -0.127323	 -0.120553	 2.292763	 -0.621457	 -1.000650	 0.305743	 0.821688	 -0.432553	 0.210351	 2
1462096056.987	 12	 0.744087	 -0.347623	 -0.246017	 2.287009	 -0.627786	 -1.005579	 0.305001	 0.820153	 -0.436161	 0.209971	 2
1462096056.997	 12	 0.879585	 -0.622958	 -0.465042	 2.278740	 -0.636348	 -1.010224	 0.303022	 0.818337	 -0.440878	 0.210069	 2
1462096057.007	 12	 1.007496	 -0.884775	 -0.729704	 2.268182	 -0.647736	 -1.014158	 0.299510	 0.816310	 -0.446803	 0.210473	 2
1462096057.017	 12	 1.149266	 -1.176184	 -0.962789	 2.255042	 -0.661802	 -1.017666	 0.294507	 0.813995	 -0.453920	 0.211266	 2
1462096057.027	 12	 1.339435	 -1.417490	 -1.160659	 2.238946	 -0.678554	 -1.021600	 0.288220	 0.811220	 -0.462326	 0.212384	 2
1462096057.037	 12	 1.537817	 -1.548859	 -1.302158	 2.220420	 -0.697733	 -1.026793	 0.281107	 0.807924	 -0.471883	 0.213457	 2
1462096057.047	 12	 1.631882	 -1.491911	 -1.331223	 2.200891	 -0.718058	 -1.033397	 0.273838	 0.804288	 -0.481933	 0.214182	 2
1462096057.057	 12	 1.595504	 -1.103210	 -1.279330	 2.183685	 -0.737975	 -1.040885	 0.267399	 0.800803	 -0.491448	 0.213754	 2
1462096057.067	 12	 1.344448	 -0.269549	 -1.262992	 2.174720	 -0.756502	 -1.046902	 0.262630	 0.798447	 -0.499122	 0.210680	 2
1462096057.077	 12	 0.973628	 0.559635	 -1.032500	 2.175846	 -0.771691	 -1.050345	 0.260197	 0.797582	 -0.504076	 0.205105	 2
1462096057.087	 12	 0.657651	 1.480987	 -0.537319	 2.186259	 -0.781385	 -1.053326	 0.261406	 0.797875	 -0.506033	 0.197468	 2
1462096057.097	 12	 0.463041	 2.064189	 0.017604	 2.202392	 -0.785243	 -1.058155	 0.266381	 0.798638	 -0.505572	 0.188718	 2
1462096057.107	 12	 0.392619	 2.068461	 0.284697	 2.218731	 -0.785781	 -1.064778	 0.273008	 0.799230	 -0.504148	 0.180367	 2
1462096057.117	 12	 0.227910	 1.591822	 0.491651	 2.231196	 -0.784062	 -1.071703	 0.279365	 0.799453	 -0.502502	 0.174130	 2
1462096057.127	 12	 -0.178130	 0.859542	 0.696196	 2.238221	 -0.778511	 -1.076621	 0.284545	 0.799608	 -0.500191	 0.171667	 2
1462096057.137	 12	 -0.583695	 0.137786	 0.738839	 2.240632	 -0.769687	 -1.077654	 0.287857	 0.800041	 -0.497151	 0.172955	 2
1462096057.147	 12	 -0.884924	 -0.522508	 0.645793	 2.239119	 -0.759332	 -1.074626	 0.288958	 0.800766	 -0.493823	 0.177249	 2
1462096057.157	 12	 -1.077922	 -1.034692	 0.486045	 2.234521	 -0.748765	 -1.067864	 0.287857	 0.801734	 -0.490510	 0.183741	 2
1462096057.167	 12	 -0.938397	 -1.186218	 0.327819	 2.227928	 -0.739727	 -1.060189	 0.285510	 0.802550	 -0.487844	 0.190803	 2
1462096057.177	 12	 -0.451772	 -0.810312	 0.146966	 2.221702	 -0.734608	 -1.055535	 0.283454	 0.802791	 -0.486637	 0.195868	 2
1462096057.187	 12	 -0.031400	 -0.200446	 -0.065237	 2.219091	 -0.734009	 -1.054156	 0.282422	 0.802750	 -0.486678	 0.197419	 2
1462096057.197	 12	 0.052503	 0.184178	 -0.086901	 2.220339	 -0.735087	 -1.053953	 0.282363	 0.802864	 -0.486829	 0.196666	 2
1462096057.207	 12	 -0.213660	 0.181881	 0.075259	 2.223105	 -0.734142	 -1.052840	 0.282835	 0.803326	 -0.486025	 0.196090	 2
1462096057.217	 12	 -0.692301	 -0.161481	 0.346935	 2.225071	 -0.728447	 -1.049004	 0.283246	 0.804262	 -0.483532	 0.197816	 2
1462096057.227	 12	 -0.832044	 -0.788051	 0.569329	 2.221802	 -0.719242	 -1.044440	 0.283004	 0.804893	 -0.480557	 0.202785	 2
1462096057.237	 12	 -0.569845	 -1.186781	 0.692293	 2.211777	 -0.710036	 -1.042843	 0.282343	 0.804375	 -0.478821	 0.209748	 2
1462096057.247	 12	 -0.224125	 -1.304918	 0.821404	 2.196986	 -0.701862	 -1.045765	 0.282107	 0.802612	 -0.478573	 0.217251	 2
1462096057.257	 12	 0.027516	 -1.145926	 0.847336	 2.181014	 -0.694747	 -1.051874	 0.282599	 0.800156	 -0.479210	 0.224158	 2
1462096057.267	 12	 0.262292	 -0.621820	 0.760645	 2.168150	 -0.689405	 -1.059841	 0.284108	 0.797675	 -0.480225	 0.228870	 2
1462096057.277	 12	 0.488227	 0.191575	 0.522187	 2.162344	 -0.686909	 -1.068838	 0.286961	 0.795765	 -0.481291	 0.229717	 2
1462096057.287	 12	 0.566216	 0.427881	 -0.007043	 2.162165	 -0.688858	 -1.075869	 0.289194	 0.794703	 -0.482738	 0.227547	 2
1462096057.297	 12	 0.437146	 0.025179	 -0.589441	 2.162384	 -0.695297	 -1.077797	 0.288296	 0.794353	 -0.484956	 0.225182	 2
1462096057.307	 12	 0.188721	 -0.549808	 -0.924080	 2.160678	 -0.703863	 -1.074251	 0.284183	 0.794527	 -0.487496	 0.224309	 2
1462096057.317	 12	 0.071729	 -1.091297	 -0.986717	 2.155079	 -0.712514	 -1.068023	 0.278017	 0.794613	 -0.490296	 0.225622	 2
1462096057.327	 12	 0.167396	 -1.455892	 -0.917405	 2.144828	 -0.721105	 -1.062666	 0.271046	 0.794015	 -0.493779	 0.228597	 2
1462096057.337	 12	 0.391245	 -1.626787	 -0.779198	 2.130306	 -0.729772	 -1.060532	 0.264235	 0.792451	 -0.498165	 0.232450	 2
1462096057.347	 12	 0.625193	 -1.721942	 -0.606270	 2.111990	 -0.738303	 -1.062503	 0.258076	 0.789877	 -0.503406	 0.236799	 2
1462096057.357	 12	 0.677700	 -1.845080	 -0.405378	 2.090618	 -0.745678	 -1.067328	 0.252507	 0.786571	 -0.508943	 0.241914	 2
1462096057.367	 12	 0.520841	 -2.001715	 -0.214698	 2.067575	 -0.750728	 -1.072368	 0.247163	 0.783040	 -0.513945	 0.248232	 2
1462096057.377	 12	 0.320044	 -2.156446	 -0.072644	 2.043794	 -0.753366	 -1.076142	 0.241744	 0.779551	 -0.518101	 0.255796	 2
1462096057.387	 12	 0.236787	 -2.227939	 0.008414	 2.019608	 -0.754546	 -1.079118	 0.236271	 0.776041	 -0.521720	 0.264091	 2
1462096057.397	 12	 0.311848	 -2.183218	 0.045478	 1.994989	 -0.755383	 -1.082874	 0.231035	 0.772296	 -0.525339	 0.272398	 2
1462096057.407	 12	 0.488782	 -1.982890	 0.021289	 1.970647	 -0.756864	 -1.088600	 0.226381	 0.768280	 -0.529329	 0.279837	 2
1462096057.417	 12	 0.671439	 -1.665884	 -0.044494	 1.947738	 -0.759479	 -1.096477	 0.222523	 0.764165	 -0.533735	 0.285766	 2
1462096057.427	 12	 0.821166	 -1.277853	 -0.156224	 1.927407	 -0.763461	 -1.105999	 0.219491	 0.760215	 -0.538431	 0.289808	 2
1462096057.437	 12	 0.908630	 -0.932484	 -0.309373	 1.910101	 -0.769034	 -1.116344	 0.217024	 0.756627	 -0.543307	 0.291949	 2
1462096057.447	 12	 0.961503	 -0.661632	 -0.485295	 1.895511	 -0.776294	 -1.126868	 0.214770	 0.753454	 -0.548316	 0.292456	 2
1462096057.457	 12	 0.997935	 -0.504351	 -0.635487	 1.882693	 -0.785104	 -1.137475	 0.212484	 0.750583	 -0.553493	 0.291755	 2
1462096057.467	 12	 0.993398	 -0.464753	 -0.750181	 1.870615	 -0.795010	 -1.147887	 0.209921	 0.747894	 -0.558776	 0.290442	 2
1462096057.477	 12	 0.980983	 -0.554521	 -0.813789	 1.858069	 -0.805524	 -1.158069	 0.206884	 0.745210	 -0.564153	 0.289125	 2
1462096057.487	 12	 0.997157	 -0.725977	 -0.836840	 1.843643	 -0.816260	 -1.168559	 0.203287	 0.742268	 -0.569739	 0.288286	 2
1462096057.497	 12	 1.020835	 -0.898450	 -0.850375	 1.826925	 -0.827106	 -1.179718	 0.199164	 0.738979	 -0.575587	 0.287999	 2
1462096057.507	 12	 1.015546	 -1.116458	 -0.848094	 1.807784	 -0.837828	 -1.191316	 0.194447	 0.735345	 -0.581605	 0.288433	 2
1462096057.517	 12	 1.011223	 -1.355743	 -0.846020	 1.785914	 -0.848350	 -1.203285	 0.189022	 0.731330	 -0.587779	 0.289729	 2
1462096057.527	 12	 0.989243	 -1.523444	 -0.806890	 1.761752	 -0.858395	 -1.215615	 0.183086	 0.726987	 -0.593988	 0.291800	 2
1462096057.537	 12	 0.952485	 -1.679208	 -0.740877	 1.735880	 -0.867557	 -1.228128	 0.176867	 0.722395	 -0.600061	 0.294601	 2
1462096057.547	 12	 0.909111	 -1.875411	 -0.680510	 1.707945	 -0.875804	 -1.240639	 0.170197	 0.717502	 -0.605995	 0.298319	 2
1462096057.557	 12	 0.831117	 -1.924898	 -0.642984	 1.680469	 -0.882339	 -1.251897	 0.163664	 0.712730	 -0.611242	 0.302676	 2
1462096057.567	 12	 0.733113	 -1.905311	 -0.621699	 1.652890	 -0.889309	 -1.262882	 0.156738	 0.707998	 -0.616420	 0.306917	 2
1462096057.577	 12	 0.674522	 -1.907062	 -0.593495	 1.625889	 -0.895758	 -1.273111	 0.149791	 0.703398	 -0.621220	 0.311255	 2
1462096057.587	 12	 0.689130	 -1.957269	 -0.617536	 1.598108	 -0.902105	 -1.283659	 0.142644	 0.698654	 -0.625990	 0.315707	 2
1462096057.597	 12	 0.695638	 -1.894851	 -0.662844	 1.574186	 -0.909120	 -1.291679	 0.135500	 0.694753	 -0.630078	 0.319312	 2
1462096057.607	 12	 0.692582	 -1.770148	 -0.774628	 1.546991	 -0.916493	 -1.303154	 0.128308	 0.690140	 -0.634871	 0.322772	 2
1462096057.617	 12	 0.642007	 -1.616973	 -0.793011	 1.521457	 -0.924234	 -1.314482	 0.121363	 0.685868	 -0.639457	 0.325500	 2
1462096057.627	 12	 0.567961	 -1.558624	 -0.696971	 1.497402	 -0.931092	 -1.325007	 0.114837	 0.681855	 -0.643573	 0.328179	 2
1462096057.637	 12	 0.449563	 -1.547623	 -0.694773	 1.475275	 -0.937590	 -1.333525	 0.108301	 0.678271	 -0.647091	 0.330895	 2
1462096057.647	 12	 0.298946	 -1.510539	 -0.775180	 1.454371	 -0.944756	 -1.340573	 0.101369	 0.675050	 -0.650285	 0.333410	 2
1462096057.657	 12	 0.166639	 -1.459496	 -0.830038	 1.435511	 -0.952625	 -1.345681	 0.094150	 0.672349	 -0.653034	 0.335603	 2
1462096057.667	 12	 0.079134	 -1.426546	 -0.868403	 1.418061	 -0.960969	 -1.349498	 0.086749	 0.670005	 -0.655453	 0.337564	 2
1462096057.677	 12	 0.064022	 -1.406778	 -0.935231	 1.401061	 -0.969980	 -1.353139	 0.079166	 0.667822	 -0.657795	 0.339194	 2
1462096057.687	 12	 0.152243	 -1.516292	 -0.894387	 1.381945	 -0.978713	 -1.358266	 0.071447	 0.665214	 -0.660330	 0.341101	 2
1462096057.697	 12	 0.203802	 -1.475764	 -0.858223	 1.361549	 -0.986773	 -1.364765	 0.063962	 0.662300	 -0.662954	 0.343161	 2
1462096057.707	 12	 0.268531	 -1.358690	 -0.821461	 1.341254	 -0.994392	 -1.372520	 0.057041	 0.659350	 -0.665634	 0.344871	 2
1462096057.717	 12	 0.349338	 -1.299532	 -0.697986	 1.320375	 -1.000745	 -1.381675	 0.050798	 0.656163	 -0.668350	 0.346667	 2
1462096057.727	 12	 0.377723	 -1.141507	 -0.455900	 1.300726	 -1.004812	 -1.390890	 0.045768	 0.652970	 -0.670767	 0.348722	 2
1462096057.737	 12	 0.324616	 -0.898705	 -0.143042	 1.284924	 -1.006048	 -1.398206	 0.042398	 0.650185	 -0.672492	 0.351022	 2
1462096057.747	 12	 0.220306	 -0.708439	 0.237982	 1.274321	 -1.004003	 -1.401887	 0.040765	 0.648001	 -0.673207	 0.353872	 2
1462096057.757	 12	 0.111368	 -0.584192	 0.606709	 1.268535	 -0.998658	 -1.401484	 0.040620	 0.646346	 -0.672854	 0.357566	 2
1462096057.767	 12	 -0.040205	 -0.425980	 0.948414	 1.267755	 -0.990420	 -1.396786	 0.041822	 0.645316	 -0.671404	 0.361989	 2
1462096057.777	 12	 -0.165425	 -0.287419	 1.231089	 1.272001	 -0.979699	 -1.388051	 0.044309	 0.644992	 -0.668880	 0.366909	 2
1462096057.787	 12	 -0.249331	 -0.519318	 1.339435	 1.275885	 -0.967692	 -1.377471	 0.046545	 0.644518	 -0.665843	 0.372938	 2
1462096057.797	 12	 -0.378856	 -0.534595	 1.526929	 1.281851	 -0.954732	 -1.363923	 0.048861	 0.644429	 -0.662019	 0.379545	 2
1462096057.807	 12	 -0.211665	 -0.682476	 1.882193	 1.284994	 -0.938205	 -1.351495	 0.051899	 0.643400	 -0.658024	 0.387746	 2
1462096057.817	 12	 -0.196366	 -0.355318	 2.121704	 1.291055	 -0.918913	 -1.338577	 0.056743	 0.642670	 -0.653429	 0.395961	 2
1462096057.827	 12	 -0.186669	 -0.021246	 2.285658	 1.300050	 -0.897834	 -1.325671	 0.063187	 0.642383	 -0.648364	 0.403702	 2
1462096057.837	 12	 0.026282	 0.247916	 2.381161	 1.310138	 -0.875074	 -1.315157	 0.071338	 0.642122	 -0.643332	 0.410749	 2
1462096057.847	 12	 0.264545	 0.459687	 2.199878	 1.318524	 -0.852703	 -1.309445	 0.080311	 0.641433	 -0.639177	 0.416613	 2
1462096057.857	 12	 0.475005	 0.513436	 1.923579	 1.324510	 -0.832308	 -1.308224	 0.089215	 0.640297	 -0.636140	 0.421172	 2
1462096057.867	 12	 0.611879	 0.375742	 1.618429	 1.327063	 -0.814488	 -1.310543	 0.097209	 0.638550	 -0.634237	 0.424909	 2
1462096057.877	 12	 0.726066	 0.080493	 1.431377	 1.325464	 -0.798587	 -1.315118	 0.103898	 0.635983	 -0.633228	 0.428664	 2
1462096057.887	 12	 0.925368	 -0.441138	 1.448234	 1.317382	 -0.782561	 -1.322096	 0.109326	 0.631789	 -0.633069	 0.433722	 2
1462096057.897	 12	 1.233720	 -0.779415	 1.566030	 1.303297	 -0.764772	 -1.332131	 0.114425	 0.625738	 -0.633734	 0.440159	 2
1462096057.907	 12	 1.569123	 -0.817791	 1.689578	 1.285697	 -0.744754	 -1.345531	 0.120210	 0.618186	 -0.635165	 0.447171	 2
1462096057.917	 12	 1.756248	 -0.413085	 1.838790	 1.270209	 -0.722521	 -1.360790	 0.127955	 0.610390	 -0.636740	 0.453446	 2
1462096057.927	 12	 1.564639	 0.072021	 1.921707	 1.261199	 -0.699413	 -1.373855	 0.137325	 0.603796	 -0.637398	 0.458580	 2
1462096057.937	 12	 1.116669	 0.306641	 1.973619	 1.259276	 -0.677000	 -1.381300	 0.146947	 0.599126	 -0.636393	 0.463097	 2
1462096057.947	 12	 0.695818	 0.248119	 1.946897	 1.260671	 -0.655823	 -1.383320	 0.155524	 0.595717	 -0.633999	 0.467952	 2
1462096057.957	 12	 0.221858	 0.013393	 1.654689	 1.263111	 -0.638163	 -1.380824	 0.161818	 0.593456	 -0.630857	 0.472910	 2
1462096057.967	 12	 -0.330716	 -0.554385	 1.311042	 1.263506	 -0.625514	 -1.373393	 0.164224	 0.591969	 -0.627324	 0.478611	 2
1462096057.977	 12	 -0.993281	 -1.281205	 1.138459	 1.260652	 -0.616830	 -1.359470	 0.162297	 0.590917	 -0.622983	 0.486177	 2
1462096057.987	 12	 -1.844093	 -1.949365	 1.058652	 1.255981	 -0.611561	 -1.336522	 0.155949	 0.590694	 -0.616967	 0.496096	 2
1462096057.997	 12	 -2.730052	 -2.639439	 1.022643	 1.250334	 -0.609692	 -1.303496	 0.145129	 0.591450	 -0.608825	 0.508386	 2
1462096058.007	 12	 -3.508151	 -3.238124	 1.165593	 1.243756	 -0.609660	 -1.260737	 0.130497	 0.592695	 -0.598245	 0.523246	 2
1462096058.017	 12	 -4.134641	 -3.540097	 1.511413	 1.238449	 -0.609222	 -1.209165	 0.113783	 0.594366	 -0.584790	 0.540189	 2
1462096058.027	 12	 -4.504253	 -3.561122	 1.982306	 1.236249	 -0.606110	 -1.150677	 0.096891	 0.596393	 -0.568335	 0.558501	 2
1462096058.037	 12	 -4.543191	 -3.785680	 2.387680	 1.233605	 -0.599013	 -1.089502	 0.080558	 0.597405	 -0.549861	 0.578162	 2
1462096058.047	 12	 -4.341860	 -4.081132	 2.647486	 1.227394	 -0.589257	 -1.029011	 0.064526	 0.596558	 -0.530552	 0.598723	 2
1462096058.057	 12	 -4.093084	 -4.386210	 2.772504	 1.216323	 -0.577584	 -0.970987	 0.048859	 0.593479	 -0.511033	 0.619872	 2
1462096058.067	 12	 -3.910008	 -4.658446	 2.706563	 1.200420	 -0.566011	 -0.915536	 0.032978	 0.588349	 -0.491676	 0.641103	 2
1462096058.077	 12	 -3.812703	 -4.914280	 2.521090	 1.180291	 -0.556360	 -0.862250	 0.016329	 0.581472	 -0.472693	 0.661955	 2
1462096058.087	 12	 -3.699983	 -5.064902	 2.330067	 1.156723	 -0.549098	 -0.810938	 -0.001061	 0.573063	 -0.454114	 0.682187	 2
1462096058.097	 12	 -3.423810	 -5.021828	 2.221487	 1.131387	 -0.543235	 -0.762803	 -0.018023	 0.563554	 -0.436186	 0.701302	 2
1462096058.107	 12	 -3.007122	 -4.773463	 2.318220	 1.105627	 -0.536332	 -0.718454	 -0.033108	 0.553272	 -0.418741	 0.719340	 2
1462096058.117	 12	 -2.430118	 -4.411420	 2.608584	 1.080902	 -0.525790	 -0.678381	 -0.044830	 0.542680	 -0.401595	 0.736349	 2
1462096058.127	 12	 -1.764830	 -4.253678	 3.068932	 1.056019	 -0.509291	 -0.642579	 -0.052493	 0.531334	 -0.384405	 0.753102	 2
1462096058.137	 12	 -1.298021	 -3.924674	 3.598678	 1.031670	 -0.486338	 -0.608999	 -0.056278	 0.519522	 -0.366435	 0.769841	 2
1462096058.147	 12	 -1.067538	 -3.378812	 4.015269	 1.011934	 -0.458727	 -0.575267	 -0.056814	 0.508988	 -0.347304	 0.785546	 2
1462096058.157	 12	 -0.779480	 -2.829864	 4.148958	 0.996388	 -0.428478	 -0.542637	 -0.054795	 0.499888	 -0.327918	 0.799737	 2
1462096058.167	 12	 -0.368847	 -2.555372	 4.032835	 0.981894	 -0.397047	 -0.513897	 -0.050758	 0.491227	 -0.309643	 0.812552	 2
1462096058.177	 12	 -0.027146	 -2.562151	 3.823039	 0.965484	 -0.365589	 -0.489490	 -0.045599	 0.481885	 -0.292912	 0.824566	 2
1462096058.187	 12	 0.215629	 -2.711298	 3.594661	 0.946038	 -0.334812	 -0.468427	 -0.040028	 0.471366	 -0.277545	 0.836170	 2
1462096058.197	 12	 0.444355	 -2.829089	 3.284634	 0.923491	 -0.305388	 -0.450617	 -0.034359	 0.459621	 -0.263734	 0.847356	 2
1462096058.207	 12	 0.675161	 -2.861571	 2.859215	 0.898809	 -0.278136	 -0.436765	 -0.028680	 0.447067	 -0.252045	 0.857777	 2
1462096058.217	 12	 0.795885	 -2.811947	 2.564475	 0.873516	 -0.252914	 -0.425759	 -0.023045	 0.434298	 -0.242059	 0.867330	 2
1462096058.227	 12	 0.893170	 -2.893999	 2.436038	 0.847202	 -0.228630	 -0.416008	 -0.017413	 0.421034	 -0.232902	 0.876461	 2
1462096058.237	 12	 1.072725	 -3.026727	 2.392741	 0.819115	 -0.203984	 -0.407212	 -0.011367	 0.406836	 -0.224221	 0.885483	 2
1462096058.247	 12	 1.306277	 -3.055113	 2.386180	 0.790122	 -0.178162	 -0.399557	 -0.004403	 0.392009	 -0.215998	 0.894234	 2
1462096058.257	 12	 1.522944	 -2.830200	 2.394913	 0.762103	 -0.150896	 -0.392625	 0.003707	 0.377364	 -0.208043	 0.902386	 2
1462096058.267	 12	 1.777770	 -2.356124	 2.310779	 0.738146	 -0.122446	 -0.387145	 0.013267	 0.364328	 -0.200737	 0.909282	 2
1462096058.287	 13	 2.170999	 -1.916794	 2.184618	 0.698063	 -0.062475	 -0.380537	 0.035826	 0.341203	 -0.188121	 0.920276	 2
1462096058.297	 13	 2.303066	 -1.935582	 2.140662	 0.678959	 -0.031274	 -0.378347	 0.048130	 0.329788	 -0.182407	 0.925014	 2
1462096058.307	 13	 2.429076	 -2.082202	 2.066795	 0.658589	 0.000481	 -0.376826	 0.060792	 0.317610	 -0.177160	 0.929539	 2
1462096058.317	 13	 2.532298	 -2.261074	 1.936340	 0.636414	 0.032392	 -0.376234	 0.073612	 0.304427	 -0.172620	 0.933867	 2
1462096058.327	 13	 2.592973	 -2.386844	 1.777974	 0.612842	 0.063947	 -0.376587	 0.086375	 0.290460	 -0.168900	 0.937894	 2
1462096058.337	 13	 2.626040	 -2.488028	 1.625407	 0.588324	 0.094953	 -0.377691	 0.098980	 0.275936	 -0.165943	 0.941555	 2
1462096058.357	 14	 2.579472	 -2.186658	 1.364307	 0.541053	 0.154536	 -0.380839	 0.123469	 0.247547	 -0.161587	 0.947294	 2
1462096058.367	 14	 2.534688	 -1.898753	 1.300233	 0.521657	 0.183128	 -0.382469	 0.135544	 0.235328	 -0.159723	 0.949072	 2
1462096058.377	 14	 2.461504	 -1.588925	 1.314411	 0.505152	 0.211156	 -0.383293	 0.147505	 0.224522	 -0.157553	 0.950268	 2
1462096058.387	 14	 2.379718	 -1.320316	 1.361319	 0.491242	 0.238677	 -0.382892	 0.159311	 0.215045	 -0.154835	 0.951001	 2
1462096058.397	 14	 2.321782	 -1.163758	 1.366477	 0.478979	 0.265717	 -0.381617	 0.170942	 0.206443	 -0.151764	 0.951382	 2
1462096058.407	 14	 2.293857	 -1.131311	 1.282827	 0.467304	 0.292139	 -0.380382	 0.182346	 0.198168	 -0.148859	 0.951483	 2
1462096058.417	 14	 2.301423	 -1.205857	 1.126467	 0.455444	 0.317911	 -0.380134	 0.193537	 0.189766	 -0.146636	 0.951331	 2
1462096058.427	 14	 2.353086	 -1.396786	 0.926008	 0.442458	 0.343210	 -0.381538	 0.204575	 0.180693	 -0.145485	 0.950964	 2
1462096058.437	 14	 2.449266	 -1.633742	 0.703419	 0.427975	 0.368364	 -0.385089	 0.215607	 0.170662	 -0.145657	 0.950354	 2
1462096058.447	 14	 2.589303	 -1.867475	 0.502859	 0.412026	 0.393917	 -0.390902	 0.226862	 0.159584	 -0.147159	 0.949427	 2
1462096058.457	 14	 2.729945	 -2.008368	 0.344722	 0.395288	 0.420198	 -0.398602	 0.238470	 0.147753	 -0.149720	 0.948096	 2
1462096058.477	 15	 2.940890	 -2.168688	 0.176200	 0.361292	 0.475306	 -0.417552	 0.262754	 0.122823	 -0.156781	 0.944084	 2
1462096058.487	 15	 2.925221	 -2.321811	 0.174912	 0.343005	 0.503481	 -0.427211	 0.274895	 0.109499	 -0.160747	 0.941596	 2
1462096058.497	 15	 2.773309	 -2.441204	 0.223083	 0.322675	 0.530774	 -0.435456	 0.286250	 0.095435	 -0.164604	 0.939073	 2
1462096058.507	 15	 2.633617	 -2.161331	 0.186404	 0.304045	 0.556744	 -0.442838	 0.296968	 0.082401	 -0.168127	 0.936351	 2
1462096058.517	 15	 2.501868	 -1.773064	 0.140008	 0.289187	 0.581438	 -0.449950	 0.307297	 0.071288	 -0.171229	 0.933363	 2
1462096058.527	 15	 2.329468	 -1.467109	 0.166737	 0.277217	 0.604653	 -0.456134	 0.317072	 0.061811	 -0.173698	 0.930308	 2
1462096058.537	 15	 2.166677	 -1.187535	 0.226175	 0.267458	 0.626459	 -0.460916	 0.326282	 0.053734	 -0.175371	 0.927307	 2
1462096058.547	 15	 2.052485	 -0.992299	 0.262025	 0.259244	 0.647185	 -0.464559	 0.335050	 0.046677	 -0.176421	 0.924358	 2
1462096058.557	 15	 1.966680	 -0.847482	 0.250265	 0.252409	 0.667061	 -0.467780	 0.343499	 0.040424	 -0.177164	 0.921405	 2
1462096058.567	 15	 1.895501	 -0.735969	 0.198634	 0.246932	 0.686121	 -0.471191	 0.351661	 0.034854	 -0.177867	 0.918414	 2
1462096058.577	 15	 1.847364	 -0.698074	 0.124802	 0.242503	 0.704494	 -0.475236	 0.359575	 0.029724	 -0.178755	 0.915352	 2
1462096058.597	 16	 1.692909	 -0.800274	 0.049527	 0.233770	 0.739014	 -0.484775	 0.374308	 0.019476	 -0.181407	 0.909179	 2
1462096058.607	 16	 1.569044	 -0.858042	 0.100159	 0.227947	 0.754790	 -0.488639	 0.380811	 0.014024	 -0.182751	 0.906305	 2
1462096058.617	 16	 1.437937	 -0.890067	 0.177737	 0.220774	 0.769474	 -0.491036	 0.386663	 0.008379	 -0.183813	 0.903678	 2
1462096058.627	 16	 1.310089	 -0.908289	 0.253284	 0.212305	 0.783077	 -0.491860	 0.391888	 0.002605	 -0.184551	 0.901309	 2
1462096058.637	 16	 1.193968	 -0.906529	 0.302271	 0.202882	 0.795624	 -0.491387	 0.396544	 -0.003188	 -0.185030	 0.899170	 2
1462096058.647	 16	 1.122625	 -0.888110	 0.320116	 0.193044	 0.807389	 -0.490121	 0.400810	 -0.008882	 -0.185348	 0.897172	 2
1462096058.657	 16	 1.107633	 -0.872342	 0.288420	 0.183370	 0.818823	 -0.488853	 0.404941	 -0.014435	 -0.185705	 0.895169	 2
1462096058.667	 16	 1.142581	 -0.871878	 0.219911	 0.174298	 0.830379	 -0.488365	 0.409167	 -0.019867	 -0.186317	 0.893014	 2
1462096058.687	 17	 1.277052	 -0.786842	 0.120416	 0.158944	 0.854988	 -0.489992	 0.418465	 -0.030156	 -0.188097	 0.888030	 2
1462096058.707	 18	 1.325716	 -0.718332	 0.200562	 0.145695	 0.881601	 -0.491609	 0.428759	 -0.039700	 -0.189372	 0.882455	 2
1462096058.717	 18	 1.312728	 -0.768185	 0.214066	 0.137645	 0.894944	 -0.491140	 0.433785	 -0.044804	 -0.189792	 0.879660	 2
1462096058.727	 18	 1.275471	 -0.663512	 0.113051	 0.131052	 0.907880	 -0.491622	 0.438736	 -0.049400	 -0.190379	 0.876827	 2
1462096058.747	 19	 1.113278	 -0.385846	 0.056299	 0.124042	 0.931474	 -0.495083	 0.448124	 -0.056131	 -0.191517	 0.871410	 2
1462096058.757	 19	 1.014462	 -0.332049	 0.101356	 0.121078	 0.941895	 -0.495686	 0.452287	 -0.058834	 -0.191595	 0.869061	 2
1462096058.767	 19	 0.867690	 -0.255849	 0.136382	 0.118000	 0.951054	 -0.495328	 0.455917	 -0.061208	 -0.191392	 0.867042	 2
1462096058.777	 19	 0.700474	 -0.142984	 0.085600	 0.116060	 0.958534	 -0.495016	 0.458932	 -0.062886	 -0.191091	 0.865396	 2
1462096058.787	 19	 0.601850	 -0.116086	 -0.058235	 0.116171	 0.964672	 -0.496582	 0.461506	 -0.063945	 -0.191242	 0.863915	 2
1462096058.817	 21	 0.660537	 -0.239475	 -0.182457	 0.122728	 0.982446	 -0.510551	 0.469214	 -0.066565	 -0.194245	 0.858881	 2
1462096058.827	 21	 0.640489	 -0.236893	 -0.127904	 0.123627	 0.988725	 -0.514556	 0.471814	 -0.067910	 -0.195211	 0.857130	 2
1462096058.837	 21	 0.553511	 -0.176625	 -0.065838	 0.124015	 0.994354	 -0.517328	 0.474125	 -0.069110	 -0.195818	 0.855620	 2
1462096058.847	 21	 0.443018	 -0.108973	 -0.021616	 0.124122	 0.998995	 -0.518971	 0.476027	 -0.070042	 -0.196088	 0.854425	 2
1462096058.857	 21	 0.331605	 -0.006255	 0.017612	 0.124359	 1.002568	 -0.519657	 0.477525	 -0.070557	 -0.196011	 0.853564	 2
1462096058.867	 21	 0.218160	 0.131454	 0.041196	 0.125216	 1.005061	 -0.519557	 0.478657	 -0.070484	 -0.195544	 0.853043	 2
1462096058.887	 22	 -0.020496	 0.415294	 0.071494	 0.130032	 1.006544	 -0.517576	 0.479814	 -0.068144	 -0.193414	 0.853068	 2
1462096058.897	 22	 -0.099587	 0.403775	 0.055964	 0.165575	 0.995365	 -0.543641	 0.477796	 -0.057740	 -0.197080	 0.854129	 2
1462096058.907	 22	 -0.132024	 0.329290	 0.038501	 0.168125	 0.994182	 -0.542495	 0.477586	 -0.056215	 -0.196099	 0.854574	 2
1462096058.917	 22	 -0.105026	 0.179168	 0.028343	 0.169573	 0.993081	 -0.541565	 0.477295	 -0.055224	 -0.195465	 0.854946	 2
1462096058.927	 22	 -0.027029	 -0.034780	 0.037397	 0.169157	 0.992651	 -0.540822	 0.477096	 -0.055166	 -0.195290	 0.855101	 2
1462096058.937	 22	 0.070338	 -0.233860	 0.052640	 0.183364	 0.963038	 -0.553943	 0.465792	 -0.048057	 -0.200549	 0.860528	 2
1462096058.947	 22	 0.133042	 -0.296728	 0.062166	 0.179976	 0.964330	 -0.553334	 0.466008	 -0.049554	 -0.200944	 0.860234	 2
1462096058.957	 22	 0.182463	 -0.249873	 0.089882	 0.176495	 0.966186	 -0.552443	 0.466458	 -0.051103	 -0.201185	 0.859843	 2
1462096058.967	 22	 0.050567	 0.084348	 0.070693	 0.175488	 0.967253	 -0.551326	 0.466832	 -0.051425	 -0.200833	 0.859703	 2
1462096058.977	 22	 -0.142665	 0.364174	 0.003723	 0.165794	 0.993513	 -0.540563	 0.477134	 -0.056659	 -0.195896	 0.854844	 2
1462096058.987	 22	 -0.402017	 0.631493	 -0.052279	 0.171087	 0.990176	 -0.540202	 0.476269	 -0.053855	 -0.194810	 0.855755	 2
1462096058.997	 22	 -0.719166	 0.908165	 -0.162046	 0.179801	 0.983662	 -0.540536	 0.474389	 -0.049309	 -0.193534	 0.857361	 2
1462096059.007	 22	 -1.051794	 1.056309	 -0.254756	 0.190881	 0.973712	 -0.541462	 0.471281	 -0.043395	 -0.192327	 0.859664	 2
