% Gyrometer data recorded with 'snsrlog'
% 
% 
% Label description:
% 	 0: Default Label
% 	 1: still_drop
% 	 2: walk_drop
% 	 3: other
% 	 4: dtw_same
% 	 5: dtw_diff
% 	 6: delete
% 	 7: steal
% 
% Column description:
% 	 1: Seconds.milliseconds since 1970
% 	 2: Number of skipped measurements
% 	 3: Gyro X
% 	 4: Gyro Y
% 	 5: Gyro Z
% 	 6: Roll of the device
% 	 7: Pitch of the device
% 	 8: Yaw of the device
% 	 9: Quaternion X
% 	 10: Quaternion Y
% 	 11: Quaternion Z
% 	 12: Quaternion W
% 	 13: Label used for the current sample
% 
% 
1463571820.047	 0	 0.569931	 -0.411808	 0.832424	 -0.004172	 0.521975	 0.002880	 0.258037	 -0.001644	 0.000853	 0.966133	 2
1463571820.057	 0	 0.724108	 -0.232078	 0.745362	 -0.011401	 0.528801	 0.011957	 0.261355	 -0.003940	 0.004281	 0.965225	 2
1463571820.067	 0	 0.830808	 -0.075301	 0.554054	 -0.016222	 0.536788	 0.019097	 0.265237	 -0.005288	 0.007055	 0.964143	 2
1463571820.077	 0	 0.913943	 0.088767	 0.332113	 -0.018149	 0.545660	 0.023819	 0.269532	 -0.005529	 0.009023	 0.962933	 2
1463571820.087	 0	 0.932758	 0.199774	 0.100646	 -0.017489	 0.554935	 0.025880	 0.273997	 -0.004865	 0.010049	 0.961666	 2
1463571820.097	 0	 0.874535	 0.281113	 -0.146413	 -0.014414	 0.563890	 0.025041	 0.278282	 -0.003439	 0.010020	 0.960441	 2
1463571820.107	 0	 0.726727	 0.338565	 -0.350283	 -0.009285	 0.571587	 0.021597	 0.281947	 -0.001410	 0.009051	 0.959386	 2
1463571820.117	 0	 0.557381	 0.356710	 -0.556464	 -0.002477	 0.577612	 0.015629	 0.284808	 0.001038	 0.007138	 0.958557	 2
1463571820.127	 0	 0.391013	 0.332260	 -0.768395	 0.005585	 0.581928	 0.007052	 0.286864	 0.003687	 0.004179	 0.957955	 2
1463571820.137	 0	 0.221822	 0.359123	 -0.945720	 0.015040	 0.584438	 -0.003776	 0.288083	 0.006657	 0.000359	 0.957582	 2
1463571820.147	 0	 0.105396	 0.468942	 -1.102483	 0.026456	 0.585548	 -0.016618	 0.288679	 0.010266	 -0.004137	 0.957362	 2
1463571820.157	 0	 0.013329	 0.675193	 -1.151985	 0.040305	 0.585522	 -0.030375	 0.288798	 0.014909	 -0.008723	 0.957234	 2
1463571820.177	 1	 -0.031039	 0.721489	 -1.092551	 0.069753	 0.583849	 -0.057103	 0.288457	 0.025170	 -0.017292	 0.957006	 2
1463571820.187	 1	 -0.085590	 0.665533	 -1.057426	 0.083580	 0.582352	 -0.069814	 0.288050	 0.029985	 -0.021415	 0.956906	 2
1463571820.197	 1	 -0.172235	 0.537822	 -0.956613	 0.095691	 0.579967	 -0.081396	 0.287237	 0.034172	 -0.025279	 0.956916	 2
1463571820.207	 1	 -0.234530	 0.344306	 -0.826782	 0.105075	 0.576911	 -0.091342	 0.286082	 0.037321	 -0.028786	 0.957045	 2
1463571820.217	 2	 -0.260454	 0.184587	 -0.715072	 0.111868	 0.573542	 -0.099785	 0.284737	 0.039470	 -0.031967	 0.957259	 2
1463571820.237	 2	 -0.197913	 -0.020933	 -0.576848	 0.120409	 0.567569	 -0.113745	 0.282315	 0.041782	 -0.037650	 0.957672	 2
1463571820.247	 2	 -0.160881	 -0.097544	 -0.566160	 0.123049	 0.565203	 -0.120144	 0.281370	 0.042230	 -0.040431	 0.957817	 2
1463571820.257	 2	 -0.111044	 -0.136233	 -0.601059	 0.125374	 0.563231	 -0.126909	 0.280620	 0.042469	 -0.043420	 0.957895	 2
1463571820.267	 2	 -0.054435	 -0.107838	 -0.622603	 0.127989	 0.561761	 -0.134061	 0.280129	 0.042777	 -0.046537	 0.957879	 2
1463571820.277	 2	 0.020555	 -0.043209	 -0.626917	 0.131303	 0.560959	 -0.141398	 0.279983	 0.043371	 -0.049619	 0.957740	 2
1463571820.287	 2	 0.125404	 0.014964	 -0.629420	 0.135310	 0.561095	 -0.148917	 0.280315	 0.044230	 -0.052652	 0.957442	 2
1463571820.297	 2	 0.236673	 0.068932	 -0.622427	 0.139949	 0.562307	 -0.156562	 0.281191	 0.045322	 -0.055607	 0.956967	 2
1463571820.307	 2	 0.341514	 0.100730	 -0.595334	 0.144933	 0.564578	 -0.164147	 0.282589	 0.046527	 -0.058430	 0.956329	 2
1463571820.317	 2	 0.419697	 0.125262	 -0.554221	 0.150049	 0.567723	 -0.171471	 0.284413	 0.047776	 -0.061058	 0.955562	 2
1463571820.327	 2	 0.442458	 0.162740	 -0.510375	 0.155300	 0.571281	 -0.178381	 0.286436	 0.049111	 -0.063435	 0.954735	 2
1463571820.337	 2	 0.438675	 0.219521	 -0.455459	 0.160789	 0.574867	 -0.184723	 0.288475	 0.050623	 -0.065491	 0.953903	 2
1463571820.357	 3	 0.413399	 0.334973	 -0.238881	 0.171966	 0.582358	 -0.194092	 0.292646	 0.054162	 -0.067934	 0.952266	 2
1463571820.367	 3	 0.414411	 0.295853	 -0.206215	 0.176851	 0.586062	 -0.197441	 0.294659	 0.055776	 -0.068606	 0.951503	 2
1463571820.377	 3	 0.425995	 0.316628	 -0.270069	 0.182011	 0.589779	 -0.201244	 0.296703	 0.057443	 -0.069439	 0.950708	 2
1463571820.387	 3	 0.458888	 0.383677	 -0.397622	 0.188734	 0.593516	 -0.206635	 0.298861	 0.059604	 -0.070780	 0.949800	 2
1463571820.397	 3	 0.481165	 0.360170	 -0.403364	 0.195799	 0.597407	 -0.212603	 0.301130	 0.061814	 -0.072316	 0.948826	 2
1463571820.407	 3	 0.505748	 0.276863	 -0.294580	 0.201646	 0.601664	 -0.217659	 0.303508	 0.063543	 -0.073562	 0.947858	 2
1463571820.417	 3	 0.516393	 0.196641	 -0.205895	 0.206024	 0.606248	 -0.221580	 0.305951	 0.064711	 -0.074457	 0.946923	 2
1463571820.427	 3	 0.523615	 0.136094	 -0.194812	 0.212270	 0.609855	 -0.226740	 0.308050	 0.066628	 -0.075701	 0.946010	 2
1463571820.437	 3	 0.504208	 0.109429	 -0.213009	 0.215561	 0.614394	 -0.230535	 0.310431	 0.067279	 -0.076679	 0.945106	 2
1463571820.447	 3	 0.458404	 0.150840	 -0.241000	 0.219276	 0.618505	 -0.234582	 0.312638	 0.068110	 -0.077729	 0.944233	 2
1463571820.457	 3	 0.358272	 0.212625	 -0.268329	 0.223668	 0.621707	 -0.238757	 0.314451	 0.069296	 -0.078786	 0.943457	 2
1463571820.467	 3	 0.195127	 0.277665	 -0.312131	 0.228741	 0.623379	 -0.242977	 0.315582	 0.070900	 -0.079858	 0.942870	 2
1463571820.477	 3	 -0.008647	 0.346904	 -0.380053	 0.234686	 0.622953	 -0.247459	 0.315783	 0.073027	 -0.081063	 0.942537	 2
1463571820.487	 3	 -0.213699	 0.340896	 -0.411362	 0.240699	 0.620419	 -0.251840	 0.315009	 0.075364	 -0.082369	 0.942499	 2
1463571820.497	 3	 -0.376844	 0.411209	 -0.461510	 0.247081	 0.616034	 -0.256133	 0.313392	 0.078041	 -0.083726	 0.942701	 2
1463571820.507	 3	 -0.503914	 0.472602	 -0.553619	 0.254193	 0.610173	 -0.260861	 0.311147	 0.081122	 -0.085304	 0.943043	 2
1463571820.517	 3	 -0.559748	 0.575486	 -0.762131	 0.263775	 0.603005	 -0.267581	 0.308496	 0.085184	 -0.087566	 0.943348	 2
1463571820.527	 3	 -0.560776	 0.403850	 -0.817007	 0.272576	 0.595408	 -0.275272	 0.305679	 0.088790	 -0.090474	 0.943658	 2
1463571820.547	 4	 -0.344628	 0.365254	 -0.625280	 0.288283	 0.582623	 -0.288895	 0.301076	 0.095244	 -0.095625	 0.944001	 2
1463571820.557	 4	 -0.177380	 0.394633	 -0.466598	 0.294778	 0.579102	 -0.293921	 0.299991	 0.097869	 -0.097336	 0.943903	 2
1463571820.567	 4	 -0.060842	 0.595923	 -0.382610	 0.302505	 0.577102	 -0.298162	 0.299649	 0.101061	 -0.098362	 0.943569	 2
1463571820.577	 4	 -0.005162	 0.827917	 -0.342569	 0.312358	 0.575892	 -0.302116	 0.299776	 0.105228	 -0.098864	 0.943021	 2
1463571820.587	 4	 -0.016605	 1.076122	 -0.294332	 0.324361	 0.574849	 -0.305568	 0.300071	 0.110466	 -0.098791	 0.942335	 2
1463571820.597	 4	 -0.093860	 1.394758	 -0.240603	 0.338879	 0.573343	 -0.308133	 0.300232	 0.117062	 -0.097970	 0.941573	 2
1463571820.607	 4	 -0.169156	 1.694086	 -0.208387	 0.356099	 0.571164	 -0.309913	 0.300168	 0.125109	 -0.096448	 0.940715	 2
1463571820.617	 4	 -0.178237	 1.805785	 -0.209400	 0.374848	 0.568738	 -0.311447	 0.300041	 0.133931	 -0.094617	 0.939726	 2
1463571820.627	 4	 -0.128406	 1.760759	 -0.237963	 0.393612	 0.566549	 -0.313336	 0.300042	 0.142678	 -0.092934	 0.938606	 2
1463571820.637	 4	 -0.037189	 1.678281	 -0.281089	 0.412038	 0.564922	 -0.315979	 0.300338	 0.151087	 -0.091597	 0.937326	 2
1463571820.647	 4	 0.070981	 1.586039	 -0.343638	 0.430108	 0.563992	 -0.319723	 0.301024	 0.159082	 -0.090746	 0.935865	 2
1463571820.657	 4	 0.153775	 1.559683	 -0.424536	 0.448388	 0.563503	 -0.324727	 0.302036	 0.166925	 -0.090390	 0.934205	 2
1463571820.667	 4	 0.137826	 1.674775	 -0.546955	 0.468094	 0.562518	 -0.330939	 0.303009	 0.175287	 -0.090436	 0.932352	 2
1463571820.677	 4	 0.127089	 2.003519	 -0.685548	 0.491087	 0.560688	 -0.338422	 0.303892	 0.185060	 -0.090679	 0.930150	 2
1463571820.687	 4	 0.117697	 2.663703	 -0.879687	 0.520749	 0.557715	 -0.347694	 0.304781	 0.197760	 -0.090891	 0.927221	 2
1463571820.697	 4	 0.089544	 3.571336	 -0.986098	 0.559631	 0.553570	 -0.358036	 0.305745	 0.214655	 -0.090360	 0.923189	 2
1463571820.707	 4	 0.049247	 4.783728	 -1.019228	 0.609655	 0.548497	 -0.368312	 0.306875	 0.236721	 -0.088240	 0.917608	 2
1463571820.717	 4	 0.035402	 5.973488	 -1.082639	 0.671878	 0.542437	 -0.378538	 0.308168	 0.264347	 -0.084391	 0.909962	 2
1463571820.727	 4	 0.051495	 7.021078	 -1.231830	 0.745121	 0.535056	 -0.389370	 0.309476	 0.296789	 -0.079371	 0.899912	 2
1463571820.737	 4	 0.090379	 7.828156	 -1.536927	 0.827898	 0.525343	 -0.401902	 0.310478	 0.333164	 -0.074133	 0.887192	 2
1463571820.747	 4	 0.129791	 8.327566	 -1.881127	 0.917223	 0.512340	 -0.416262	 0.310784	 0.372069	 -0.069483	 0.871866	 2
1463571820.757	 4	 0.153118	 8.584520	 -2.225312	 1.009953	 0.495638	 -0.431545	 0.310112	 0.412169	 -0.065738	 0.854181	 2
1463571820.767	 4	 0.170782	 8.569011	 -2.596495	 1.103079	 0.474654	 -0.447080	 0.308167	 0.452248	 -0.063389	 0.834558	 2
1463571820.777	 4	 0.188375	 8.307846	 -2.962503	 1.193637	 0.449214	 -0.462079	 0.304788	 0.491154	 -0.062799	 0.813590	 2
1463571820.787	 4	 0.196752	 7.875702	 -3.295918	 1.279274	 0.419492	 -0.475717	 0.299909	 0.528024	 -0.064116	 0.791918	 2
1463571820.797	 4	 0.198627	 7.372746	 -3.570252	 1.358802	 0.386022	 -0.487250	 0.293568	 0.562454	 -0.067211	 0.770030	 2
1463571820.807	 4	 0.247625	 6.814069	 -3.735742	 1.431727	 0.349987	 -0.496613	 0.286159	 0.594142	 -0.071849	 0.748296	 2
1463571820.817	 4	 0.318464	 6.260448	 -3.782010	 1.498060	 0.312755	 -0.503972	 0.278158	 0.622941	 -0.077668	 0.727008	 2
1463571820.827	 4	 0.382498	 5.804015	 -3.776157	 1.558755	 0.275182	 -0.509463	 0.269850	 0.649143	 -0.084268	 0.706182	 2
1463571820.837	 4	 0.428732	 5.455812	 -3.812838	 1.615056	 0.237117	 -0.513145	 0.261169	 0.673271	 -0.091524	 0.685653	 2
1463571820.847	 4	 0.473096	 5.165039	 -3.851100	 1.667819	 0.198474	 -0.515064	 0.252071	 0.695661	 -0.099358	 0.665315	 2
1463571820.857	 4	 0.564434	 4.872052	 -3.882332	 1.717401	 0.159373	 -0.515688	 0.242713	 0.716383	 -0.107825	 0.645182	 2
1463571820.867	 4	 0.706501	 4.512640	 -3.959385	 1.763468	 0.119473	 -0.515634	 0.233150	 0.735323	 -0.117268	 0.625452	 2
1463571820.877	 4	 0.815635	 4.033552	 -4.125723	 1.805000	 0.077929	 -0.514713	 0.222963	 0.752310	 -0.128029	 0.606570	 2
1463571820.887	 4	 0.836292	 3.368430	 -4.314338	 1.840336	 0.034501	 -0.512159	 0.211621	 0.766995	 -0.140113	 0.589325	 2
1463571820.897	 4	 0.768017	 2.574269	 -4.439433	 1.868034	 -0.010061	 -0.507387	 0.198894	 0.779021	 -0.153149	 0.574555	 2
1463571820.907	 4	 0.655139	 1.775364	 -4.503435	 1.887994	 -0.054910	 -0.500293	 0.184813	 0.788392	 -0.166686	 0.562582	 2
1463571820.917	 4	 0.583245	 1.024573	 -4.516191	 1.900772	 -0.099623	 -0.491544	 0.169640	 0.795254	 -0.180569	 0.553343	 2
1463571820.927	 4	 0.591945	 0.315683	 -4.438667	 1.906771	 -0.143713	 -0.482383	 0.153898	 0.799663	 -0.194771	 0.546735	 2
1463571820.937	 4	 0.674129	 -0.291581	 -4.251065	 1.906623	 -0.186483	 -0.474207	 0.138282	 0.801746	 -0.209196	 0.542512	 2
1463571820.947	 4	 0.779823	 -0.739801	 -3.975860	 1.901508	 -0.227200	 -0.467948	 0.123399	 0.801847	 -0.223591	 0.540205	 2
1463571820.957	 4	 0.912419	 -0.953766	 -3.653948	 1.893261	 -0.265380	 -0.464143	 0.109741	 0.800539	 -0.237709	 0.539063	 2
1463571820.967	 4	 1.111187	 -0.908677	 -3.369635	 1.884109	 -0.301313	 -0.463415	 0.097710	 0.798508	 -0.251670	 0.538052	 2
1463571820.977	 4	 1.357371	 -0.707879	 -3.154626	 1.875621	 -0.335775	 -0.466155	 0.087431	 0.796265	 -0.265796	 0.536348	 2
1463571820.987	 4	 1.571274	 -0.507473	 -3.006483	 1.868063	 -0.369313	 -0.472039	 0.078665	 0.793972	 -0.280207	 0.533765	 2
1463571820.997	 4	 1.702519	 -0.394172	 -2.876548	 1.860791	 -0.402016	 -0.480257	 0.070988	 0.791540	 -0.294748	 0.530612	 2
1463571821.007	 4	 1.746102	 -0.344166	 -2.710203	 1.853295	 -0.433343	 -0.490016	 0.064178	 0.788908	 -0.309025	 0.527265	 2
1463571821.017	 4	 1.739600	 -0.290719	 -2.529536	 1.845590	 -0.462887	 -0.500744	 0.058136	 0.786141	 -0.322744	 0.523870	 2
1463571821.027	 4	 1.747104	 -0.219146	 -2.337098	 1.837831	 -0.490538	 -0.512458	 0.052933	 0.783311	 -0.335877	 0.520392	 2
1463571821.037	 4	 1.795269	 -0.147494	 -2.117303	 1.829822	 -0.516146	 -0.525627	 0.048771	 0.780389	 -0.348511	 0.516870	 2
1463571821.047	 4	 1.883068	 -0.051449	 -1.890161	 1.821388	 -0.539674	 -0.540783	 0.045838	 0.777345	 -0.360787	 0.513289	 2
1463571821.067	 5	 2.171609	 0.296965	 -1.395983	 1.804190	 -0.580388	 -0.578803	 0.044534	 0.771181	 -0.384703	 0.505272	 2
1463571821.077	 5	 2.348768	 0.516509	 -1.117319	 1.795615	 -0.597174	 -0.602547	 0.046665	 0.768112	 -0.396449	 0.500654	 2
1463571821.087	 5	 2.510925	 0.733876	 -0.851333	 1.787131	 -0.611513	 -0.629431	 0.050681	 0.765054	 -0.408039	 0.495609	 2
1463571821.097	 5	 2.639574	 0.915771	 -0.650397	 1.778798	 -0.623801	 -0.658921	 0.056267	 0.761997	 -0.419478	 0.490135	 2
1463571821.107	 5	 2.717296	 0.987803	 -0.512920	 1.770107	 -0.634622	 -0.690279	 0.062847	 0.758797	 -0.430791	 0.484455	 2
1463571821.117	 5	 2.691113	 0.962419	 -0.357327	 1.760689	 -0.643750	 -0.722383	 0.069980	 0.755374	 -0.441663	 0.479006	 2
1463571821.127	 5	 2.564356	 0.879913	 -0.199258	 1.750726	 -0.650891	 -0.753877	 0.077290	 0.751806	 -0.451701	 0.474110	 2
1463571821.137	 5	 2.387264	 0.740288	 -0.017836	 1.740254	 -0.655761	 -0.783925	 0.084570	 0.748119	 -0.460668	 0.470055	 2
1463571821.147	 5	 2.185447	 0.518158	 0.216322	 1.728820	 -0.657895	 -0.812102	 0.091723	 0.744209	 -0.468398	 0.467272	 2
1463571821.157	 5	 1.970876	 0.269798	 0.495109	 1.716175	 -0.656762	 -0.838185	 0.098796	 0.740003	 -0.474762	 0.466086	 2
1463571821.167	 5	 1.766033	 0.055378	 0.764535	 1.702702	 -0.652367	 -0.862064	 0.105853	 0.735563	 -0.479779	 0.466428	 2
1463571821.177	 5	 1.254954	 -0.537346	 0.957438	 1.687736	 -0.644993	 -0.881529	 0.111855	 0.730825	 -0.483099	 0.469040	 2
1463571821.187	 5	 -1.197231	 -2.681084	 0.328975	 1.669766	 -0.638994	 -0.876255	 0.107621	 0.726687	 -0.481188	 0.478332	 2
1463571821.197	 5	 -2.408642	 -3.406878	 0.075920	 1.653266	 -0.636415	 -0.847892	 0.094267	 0.724043	 -0.474434	 0.491719	 2
1463571821.207	 5	 -1.533264	 -3.164768	 0.668444	 1.633721	 -0.630102	 -0.825880	 0.083874	 0.719979	 -0.468082	 0.505466	 2
1463571821.217	 5	 -0.350930	 -2.330213	 1.533446	 1.612105	 -0.616738	 -0.818917	 0.080950	 0.714347	 -0.463526	 0.517976	 2
1463571821.227	 5	 0.448072	 -1.358904	 2.181379	 1.593794	 -0.596099	 -0.822964	 0.085328	 0.708685	 -0.459714	 0.528345	 2
1463571821.237	 5	 0.867170	 -0.747471	 2.184485	 1.579672	 -0.574185	 -0.832849	 0.093226	 0.703587	 -0.457021	 0.536103	 2
1463571821.247	 5	 0.872635	 -0.475022	 1.623185	 1.568680	 -0.556266	 -0.843478	 0.100714	 0.699255	 -0.455568	 0.541623	 2
1463571821.257	 5	 0.868500	 -0.167737	 1.021793	 1.560881	 -0.544736	 -0.853396	 0.106438	 0.696011	 -0.455559	 0.544707	 2
1463571821.267	 5	 1.079947	 0.363207	 0.695572	 1.557031	 -0.536931	 -0.865210	 0.112402	 0.693867	 -0.456894	 0.545126	 2
1463571821.277	 5	 1.227053	 0.932618	 0.514147	 1.557914	 -0.531255	 -0.879014	 0.119378	 0.692961	 -0.459080	 0.542954	 2
1463571821.287	 5	 1.295125	 1.365061	 0.480277	 1.563155	 -0.526369	 -0.893842	 0.127430	 0.693151	 -0.461463	 0.538846	 2
1463571821.297	 5	 1.334243	 1.654977	 0.580684	 1.571399	 -0.520702	 -0.909076	 0.136589	 0.693977	 -0.463491	 0.533774	 2
1463571821.307	 5	 1.384689	 1.746925	 0.813437	 1.580957	 -0.513447	 -0.924862	 0.146798	 0.694893	 -0.465066	 0.528477	 2
1463571821.317	 5	 1.505108	 1.715509	 1.076405	 1.590039	 -0.503498	 -0.941974	 0.158279	 0.695252	 -0.466207	 0.523664	 2
1463571821.327	 5	 1.526283	 1.522169	 1.264127	 1.597331	 -0.491587	 -0.959677	 0.170199	 0.694786	 -0.467025	 0.519800	 2
1463571821.337	 5	 1.436486	 1.270299	 1.256171	 1.602764	 -0.479342	 -0.976653	 0.181517	 0.693709	 -0.467650	 0.516839	 2
1463571821.347	 5	 1.272476	 0.970143	 1.159953	 1.606288	 -0.467949	 -0.991894	 0.191469	 0.692224	 -0.468183	 0.514753	 2
1463571821.357	 5	 1.110601	 0.715325	 1.009784	 1.608075	 -0.457861	 -1.005151	 0.199861	 0.690486	 -0.468697	 0.513427	 2
1463571821.367	 5	 1.028275	 0.598408	 0.841023	 1.609007	 -0.449442	 -1.017108	 0.207022	 0.688728	 -0.469402	 0.512307	 2
1463571821.377	 5	 1.034287	 0.622990	 0.713308	 1.610060	 -0.442427	 -1.028832	 0.213643	 0.687091	 -0.470403	 0.510865	 2
1463571821.387	 5	 1.055083	 0.770447	 0.668671	 1.612300	 -0.436126	 -1.040728	 0.220350	 0.685748	 -0.471501	 0.508806	 2
1463571821.397	 5	 1.131556	 0.928621	 0.657754	 1.615934	 -0.429956	 -1.053236	 0.227536	 0.684642	 -0.472612	 0.506093	 2
1463571821.407	 5	 1.301739	 1.100919	 0.579009	 1.620705	 -0.424621	 -1.067330	 0.235246	 0.683658	 -0.474183	 0.502416	 2
1463571821.417	 5	 1.417108	 1.173550	 0.521129	 1.625959	 -0.420022	 -1.082898	 0.243320	 0.682617	 -0.476217	 0.498043	 2
1463571821.427	 5	 1.492599	 1.175988	 0.448022	 1.631001	 -0.416111	 -1.099291	 0.251390	 0.681411	 -0.478612	 0.493370	 2
1463571821.437	 5	 1.617911	 1.197707	 0.267020	 1.635899	 -0.413957	 -1.116764	 0.259212	 0.680140	 -0.481700	 0.488041	 2
1463571821.447	 5	 1.788862	 1.182984	 0.066097	 1.640107	 -0.413967	 -1.135871	 0.266717	 0.678649	 -0.485783	 0.481987	 2
1463571821.457	 5	 1.925110	 1.038712	 -0.119743	 1.642685	 -0.416078	 -1.156527	 0.273668	 0.676724	 -0.490934	 0.475535	 2
1463571821.467	 5	 1.804872	 0.596275	 -0.311453	 1.641841	 -0.420003	 -1.176590	 0.278980	 0.674224	 -0.496813	 0.469861	 2
1463571821.477	 5	 1.282788	 -0.165398	 -0.539937	 1.635965	 -0.425918	 -1.191962	 0.280791	 0.671423	 -0.502750	 0.466466	 2
1463571821.487	 5	 0.582874	 -0.936393	 -0.659317	 1.625038	 -0.432625	 -1.199760	 0.278494	 0.668619	 -0.507792	 0.466409	 2
1463571821.497	 5	 0.157097	 -1.220529	 -0.852222	 1.612282	 -0.440781	 -1.202041	 0.273375	 0.666349	 -0.512118	 0.467953	 2
1463571821.507	 5	 -0.047988	 -1.164383	 -0.966082	 1.600544	 -0.450160	 -1.201566	 0.267159	 0.664843	 -0.515901	 0.469527	 2
1463571821.517	 5	 -0.133572	 -0.885245	 -1.082105	 1.591588	 -0.460685	 -1.200008	 0.260890	 0.664265	 -0.519278	 0.470148	 2
1463571821.527	 5	 -0.193941	 -0.529041	 -1.120895	 1.586460	 -0.471792	 -1.197746	 0.255161	 0.664732	 -0.522084	 0.469524	 2
1463571821.537	 5	 -0.200314	 -0.283443	 -1.136672	 1.584225	 -0.483104	 -1.195263	 0.250026	 0.665907	 -0.524490	 0.467937	 2
1463571821.547	 5	 -0.086664	 -0.184745	 -1.120757	 1.582901	 -0.494314	 -1.193787	 0.245484	 0.667132	 -0.526973	 0.465802	 2
1463571821.557	 5	 -0.065885	 -0.293388	 -1.133672	 1.580813	 -0.505584	 -1.192944	 0.240918	 0.668087	 -0.529692	 0.463729	 2
1463571821.567	 5	 -0.202219	 -0.646478	 -1.184796	 1.576275	 -0.517273	 -1.191032	 0.235189	 0.668631	 -0.532527	 0.462639	 2
1463571821.577	 5	 -0.487008	 -1.022547	 -1.238038	 1.569323	 -0.529546	 -1.186222	 0.227627	 0.668992	 -0.535066	 0.462969	 2
1463571821.587	 5	 -0.755991	 -1.288478	 -1.204066	 1.561130	 -0.541783	 -1.178262	 0.218658	 0.669364	 -0.536949	 0.464571	 2
1463571821.597	 6	 -1.023033	 -1.690795	 -1.056278	 1.551121	 -0.552909	 -1.167298	 0.208536	 0.669433	 -0.538001	 0.467896	 2
1463571821.617	 6	 -1.744829	 -2.916307	 -0.500807	 1.519933	 -0.568336	 -1.133315	 0.183522	 0.667005	 -0.536461	 0.483357	 2
1463571821.627	 6	 -2.097941	 -3.290285	 -0.293388	 1.500632	 -0.572953	 -1.109647	 0.168875	 0.664850	 -0.533407	 0.494907	 2
1463571821.637	 6	 -2.329901	 -3.454805	 -0.193784	 1.480971	 -0.576876	 -1.082756	 0.153353	 0.662487	 -0.529127	 0.507561	 2
1463571821.647	 6	 -2.413858	 -3.384328	 -0.189200	 1.462320	 -0.581114	 -1.054457	 0.137581	 0.660171	 -0.524158	 0.520100	 2
1463571821.657	 6	 -2.424512	 -3.126084	 -0.222940	 1.446075	 -0.586069	 -1.025905	 0.122160	 0.658223	 -0.518809	 0.531654	 2
1463571821.667	 6	 -2.407074	 -2.804026	 -0.245673	 1.432994	 -0.591630	 -0.997535	 0.107450	 0.656845	 -0.513186	 0.541894	 2
1463571821.677	 6	 -2.432521	 -2.342127	 -0.215575	 1.424162	 -0.597304	 -0.969034	 0.093776	 0.656354	 -0.507116	 0.550672	 2
1463571821.687	 6	 -2.668014	 -1.365024	 -0.212958	 1.424648	 -0.603317	 -0.938382	 0.081626	 0.658314	 -0.499967	 0.556770	 2
1463571821.697	 6	 -2.684105	 0.022441	 -0.001676	 1.440188	 -0.607673	 -0.905667	 0.073065	 0.664229	 -0.491247	 0.558693	 2
1463571821.707	 6	 -2.384041	 1.466590	 -0.059059	 1.468886	 -0.610916	 -0.875668	 0.068838	 0.673495	 -0.482643	 0.555628	 2
1463571821.717	 6	 -1.764724	 2.213606	 -0.052171	 1.502912	 -0.613210	 -0.852255	 0.068215	 0.683820	 -0.475575	 0.549150	 2
1463571821.727	 6	 -1.100947	 2.560355	 0.071036	 1.536708	 -0.613510	 -0.836820	 0.070783	 0.693582	 -0.470270	 0.541091	 2
1463571821.737	 6	 -0.576020	 2.605883	 0.254463	 1.567728	 -0.611582	 -0.828277	 0.075748	 0.702144	 -0.466335	 0.532718	 2
1463571821.747	 6	 -0.263531	 2.428519	 0.416351	 1.594818	 -0.607773	 -0.824336	 0.081986	 0.709322	 -0.463203	 0.524961	 2
1463571821.757	 6	 -0.185175	 2.278490	 0.439851	 1.618950	 -0.603196	 -0.822207	 0.088386	 0.715547	 -0.460369	 0.517920	 2
1463571821.767	 6	 -0.288578	 2.360193	 0.371171	 1.643847	 -0.599215	 -0.819446	 0.094473	 0.721949	 -0.457412	 0.510528	 2
1463571821.777	 6	 -0.428813	 2.586357	 0.261526	 1.671668	 -0.595921	 -0.814959	 0.100302	 0.729117	 -0.453987	 0.502220	 2
1463571821.787	 6	 -0.383877	 2.695047	 0.160899	 1.701080	 -0.593669	 -0.810265	 0.105989	 0.736620	 -0.450650	 0.493023	 2
1463571821.797	 6	 -0.144883	 2.655238	 0.194683	 1.728975	 -0.591607	 -0.808063	 0.112124	 0.743507	 -0.447983	 0.483670	 2
1463571821.807	 6	 0.191619	 2.691784	 0.236856	 1.754794	 -0.589489	 -0.809755	 0.119220	 0.749552	 -0.446261	 0.474142	 2
1463571821.817	 6	 0.539570	 2.807913	 0.111278	 1.779343	 -0.588872	 -0.815507	 0.127059	 0.754943	 -0.445911	 0.463767	 2
1463571821.827	 6	 0.763200	 2.927663	 -0.151732	 1.803799	 -0.591277	 -0.823686	 0.134847	 0.760044	 -0.446919	 0.452121	 2
1463571821.837	 6	 0.782970	 3.091187	 -0.474374	 1.829685	 -0.597002	 -0.831831	 0.141943	 0.765320	 -0.448712	 0.439086	 2
1463571821.847	 6	 0.484196	 3.334655	 -0.755132	 1.859769	 -0.605225	 -0.836337	 0.147872	 0.771563	 -0.450069	 0.424574	 2
1463571821.857	 6	 -0.022440	 3.889894	 -0.808434	 1.898386	 -0.613291	 -0.834593	 0.153408	 0.779761	 -0.449346	 0.408076	 2
1463571821.867	 6	 -0.630195	 3.681910	 -0.694238	 1.941249	 -0.618552	 -0.826154	 0.158113	 0.788974	 -0.446015	 0.391907	 2
1463571821.877	 6	 -1.202926	 2.910717	 -0.496066	 1.980533	 -0.619725	 -0.811502	 0.160663	 0.797704	 -0.440445	 0.379296	 2
1463571821.887	 6	 -1.252621	 2.351052	 -0.251453	 2.014575	 -0.617326	 -0.795648	 0.162439	 0.805399	 -0.433919	 0.369675	 2
1463571821.897	 6	 -0.871360	 1.708603	 0.045123	 2.039707	 -0.613282	 -0.784677	 0.164565	 0.810986	 -0.428471	 0.362813	 2
1463571821.917	 7	 -0.129917	 1.397915	 0.621945	 2.067123	 -0.602324	 -0.782035	 0.172355	 0.816390	 -0.421877	 0.354713	 2
1463571821.927	 7	 -0.021222	 2.170626	 0.739029	 2.084874	 -0.595890	 -0.785739	 0.179356	 0.819343	 -0.418704	 0.348132	 2
1463571821.937	 7	 0.053615	 2.546764	 0.863374	 2.106644	 -0.588865	 -0.791161	 0.188010	 0.822764	 -0.415146	 0.339655	 2
1463571821.947	 7	 0.079086	 2.474728	 0.913638	 2.128274	 -0.581503	 -0.797576	 0.197075	 0.825959	 -0.411507	 0.331083	 2
1463571821.957	 7	 0.140933	 2.021368	 0.902487	 2.145977	 -0.574515	 -0.804608	 0.205437	 0.828325	 -0.408361	 0.323905	 2
1463571821.967	 7	 0.257636	 1.432772	 0.891730	 2.157329	 -0.568292	 -0.812693	 0.212707	 0.829456	 -0.406223	 0.318970	 2
1463571821.977	 7	 0.384920	 1.050490	 0.881736	 2.163641	 -0.562902	 -0.822016	 0.219236	 0.829575	 -0.405066	 0.315694	 2
1463571821.987	 7	 0.521849	 0.933814	 0.834696	 2.167577	 -0.558578	 -0.832386	 0.225437	 0.829133	 -0.404691	 0.312957	 2
1463571821.997	 7	 0.706493	 1.007131	 0.752773	 2.171319	 -0.555896	 -0.843906	 0.231652	 0.828452	 -0.405086	 0.309695	 2
1463571822.007	 7	 0.929534	 1.066590	 0.682110	 2.174969	 -0.555079	 -0.857033	 0.238034	 0.827487	 -0.406381	 0.305712	 2
1463571822.017	 7	 1.148112	 1.099346	 0.594185	 2.178102	 -0.556216	 -0.871748	 0.244468	 0.826168	 -0.408645	 0.301150	 2
1463571822.027	 7	 1.370060	 1.186178	 0.484352	 2.181134	 -0.559520	 -0.887900	 0.250919	 0.824568	 -0.411864	 0.295795	 2
1463571822.037	 7	 1.620853	 1.332033	 0.311938	 2.184750	 -0.565509	 -0.905378	 0.257350	 0.822787	 -0.416096	 0.289236	 2
1463571822.047	 7	 1.957883	 1.519436	 0.037915	 2.189290	 -0.575394	 -0.924268	 0.263563	 0.820828	 -0.421695	 0.280981	 2
1463571822.057	 7	 2.315942	 1.677746	 -0.280261	 2.194525	 -0.590002	 -0.944565	 0.269299	 0.818621	 -0.428921	 0.270860	 2
1463571822.067	 7	 2.623708	 1.777959	 -0.563369	 2.199956	 -0.608946	 -0.966069	 0.274463	 0.816097	 -0.437605	 0.259147	 2
1463571822.077	 7	 2.835640	 1.871454	 -0.784957	 2.205473	 -0.631408	 -0.988379	 0.279065	 0.813279	 -0.447354	 0.246117	 2
1463571822.087	 7	 2.927628	 1.969637	 -0.848790	 2.211130	 -0.655513	 -1.011359	 0.283525	 0.810203	 -0.457446	 0.232223	 2
1463571822.097	 7	 2.820124	 1.918790	 -0.717238	 2.216119	 -0.678739	 -1.034686	 0.288163	 0.806869	 -0.467086	 0.218528	 2
1463571822.107	 7	 2.619971	 1.654676	 -0.551695	 2.218894	 -0.699523	 -1.057700	 0.292734	 0.803278	 -0.475930	 0.206255	 2
1463571822.117	 7	 2.382856	 1.052174	 -0.423082	 2.216731	 -0.717968	 -1.079848	 0.296312	 0.799297	 -0.484417	 0.196633	 2
1463571822.127	 7	 1.796899	 0.328591	 -0.118839	 2.208981	 -0.731410	 -1.099142	 0.298601	 0.795312	 -0.491693	 0.191190	 2
1463571822.137	 7	 1.076775	 0.067465	 0.248426	 2.199812	 -0.737606	 -1.114100	 0.300639	 0.792041	 -0.496421	 0.189351	 2
1463571822.147	 7	 0.385534	 0.480742	 0.637701	 2.196348	 -0.736420	 -1.124350	 0.304147	 0.790192	 -0.497547	 0.188518	 2
1463571822.157	 7	 0.079077	 1.096453	 0.937052	 2.200226	 -0.730112	 -1.132627	 0.310048	 0.789420	 -0.495786	 0.186768	 2
1463571822.167	 7	 0.078124	 1.548698	 0.965781	 2.209053	 -0.722618	 -1.141139	 0.317561	 0.789051	 -0.492878	 0.183369	 2
1463571822.177	 7	 0.105925	 1.712163	 0.784815	 2.220938	 -0.716634	 -1.148883	 0.325098	 0.788996	 -0.489819	 0.178531	 2
1463571822.197	 8	 -0.334414	 0.928213	 0.744052	 2.241242	 -0.703374	 -1.157957	 0.337038	 0.789519	 -0.483125	 0.172205	 2
1463571822.207	 8	 -0.473361	 -0.077072	 0.810511	 2.242070	 -0.694291	 -1.159769	 0.340272	 0.789439	 -0.480298	 0.174112	 2
1463571822.217	 8	 -0.490007	 -1.219343	 0.663609	 2.232125	 -0.685712	 -1.160637	 0.340420	 0.788535	 -0.479377	 0.180347	 2
1463571822.227	 8	 -0.781932	 -1.888646	 0.505387	 2.216275	 -0.677294	 -1.157761	 0.337648	 0.787649	 -0.479163	 0.189751	 2
1463571822.237	 8	 -1.119594	 -2.064550	 0.605806	 2.199962	 -0.666536	 -1.151259	 0.333965	 0.787228	 -0.477902	 0.200873	 2
1463571822.247	 8	 -1.126861	 -2.000008	 0.849464	 2.183468	 -0.653459	 -1.145206	 0.331048	 0.786575	 -0.475926	 0.212607	 2
1463571822.257	 8	 -0.896617	 -2.137363	 1.214935	 2.163663	 -0.638767	 -1.143250	 0.329417	 0.784711	 -0.474385	 0.225102	 2
1463571822.267	 8	 -0.574059	 -2.358202	 1.545786	 2.139121	 -0.622948	 -1.146319	 0.328974	 0.781241	 -0.473850	 0.238546	 2
1463571822.277	 8	 -0.111533	 -2.797251	 1.909625	 2.106951	 -0.606177	 -1.155634	 0.329441	 0.775486	 -0.475111	 0.253693	 2
1463571822.287	 8	 0.293024	 -3.369447	 2.076629	 2.066486	 -0.589331	 -1.169997	 0.329897	 0.767379	 -0.478537	 0.270740	 2
1463571822.297	 8	 0.497511	 -3.802789	 1.950385	 2.020981	 -0.573658	 -1.185830	 0.329312	 0.757821	 -0.483577	 0.288816	 2
1463571822.307	 8	 0.486158	 -3.970430	 1.709127	 1.973348	 -0.559622	 -1.199957	 0.326988	 0.747718	 -0.489408	 0.307370	 2
1463571822.317	 8	 -0.059331	 -2.149223	 1.384451	 1.942121	 -0.546438	 -1.207716	 0.325977	 0.740774	 -0.491956	 0.320895	 2
1463571822.327	 8	 -0.626174	 -0.687211	 0.946844	 1.933536	 -0.534700	 -1.206565	 0.326813	 0.738815	 -0.489835	 0.327730	 2
1463571822.337	 8	 -1.018658	 -0.743293	 0.535158	 1.930494	 -0.525589	 -1.199262	 0.325989	 0.738899	 -0.486527	 0.333242	 2
1463571822.347	 8	 -1.357504	 -1.860211	 0.380640	 1.921445	 -0.517319	 -1.186972	 0.321633	 0.738804	 -0.483547	 0.341911	 2
1463571822.357	 8	 -1.457332	 -3.546796	 0.088717	 1.897630	 -0.510835	 -1.172031	 0.312248	 0.736567	 -0.482851	 0.356125	 2
1463571822.367	 8	 -1.443666	 -5.034784	 -0.345159	 1.858816	 -0.508710	 -1.155384	 0.297369	 0.731857	 -0.485117	 0.374991	 2
1463571822.377	 8	 -1.497891	 -5.707398	 -0.570493	 1.811446	 -0.510027	 -1.137503	 0.278922	 0.725398	 -0.488865	 0.396245	 2
1463571822.387	 8	 -1.832818	 -5.148636	 -0.655098	 1.768005	 -0.512504	 -1.116566	 0.259950	 0.719587	 -0.491149	 0.416405	 2
1463571822.397	 8	 -2.526867	 -3.627929	 -0.677535	 1.741503	 -0.514864	 -1.088820	 0.242742	 0.717638	 -0.489241	 0.432105	 2
1463571822.407	 8	 -3.125681	 -2.498966	 -0.707644	 1.731577	 -0.516816	 -1.053276	 0.226933	 0.719786	 -0.483161	 0.443808	 2
1463571822.417	 8	 -2.617526	 -2.274632	 -0.660956	 1.725538	 -0.519144	 -1.020104	 0.212778	 0.722243	 -0.477032	 0.453356	 2
1463571822.427	 8	 -1.760503	 -2.814431	 -0.537023	 1.710297	 -0.521828	 -0.996844	 0.199892	 0.721328	 -0.474022	 0.463715	 2
1463571822.437	 8	 -1.398154	 -2.869103	 -0.596106	 1.690047	 -0.525528	 -0.979343	 0.187589	 0.718518	 -0.472912	 0.474233	 2
1463571822.447	 8	 -1.320859	 -2.305567	 -0.882488	 1.673567	 -0.532051	 -0.962929	 0.175653	 0.716485	 -0.472293	 0.482426	 2
1463571822.457	 8	 -1.195388	 -1.397246	 -1.271592	 1.665324	 -0.542419	 -0.947249	 0.164641	 0.716459	 -0.472061	 0.486559	 2
1463571822.467	 8	 -0.814060	 -0.442699	 -1.782925	 1.665213	 -0.558030	 -0.934622	 0.154868	 0.718334	 -0.473306	 0.485792	 2
1463571822.477	 8	 -0.232983	 0.080660	 -2.272299	 1.668692	 -0.579010	 -0.927702	 0.146179	 0.720789	 -0.477144	 0.481071	 2
1463571822.487	 8	 0.247351	 0.374708	 -2.596671	 1.672544	 -0.604355	 -0.926285	 0.138093	 0.722994	 -0.483464	 0.473785	 2
1463571822.497	 8	 0.674447	 0.612019	 -2.553420	 1.675999	 -0.630698	 -0.929956	 0.131418	 0.724660	 -0.491228	 0.465072	 2
1463571822.507	 8	 1.059549	 0.878124	 -2.369920	 1.678688	 -0.655691	 -0.938796	 0.126891	 0.725655	 -0.499773	 0.455578	 2
1463571822.517	 8	 1.321867	 1.128665	 -2.182298	 1.681533	 -0.679282	 -0.951689	 0.124356	 0.726309	 -0.508713	 0.445221	 2
1463571822.527	 8	 1.472014	 1.150665	 -2.021405	 1.683102	 -0.701331	 -0.967317	 0.123016	 0.726414	 -0.517767	 0.434865	 2
1463571822.537	 8	 1.512218	 1.018103	 -1.951582	 1.682730	 -0.722515	 -0.984191	 0.121912	 0.725970	 -0.526803	 0.424951	 2
1463571822.547	 8	 1.392412	 0.724962	 -1.942609	 1.679851	 -0.743405	 -1.000504	 0.120017	 0.725022	 -0.535607	 0.416008	 2
1463571822.557	 8	 1.142120	 0.365240	 -1.927791	 1.675069	 -0.763937	 -1.014172	 0.116734	 0.723846	 -0.543707	 0.408414	 2
1463571822.567	 8	 0.847715	 0.051221	 -1.788535	 1.669136	 -0.783100	 -1.024389	 0.112304	 0.722620	 -0.550683	 0.402437	 2
1463571822.577	 8	 0.592787	 -0.305107	 -1.600991	 1.662106	 -0.800101	 -1.031412	 0.107106	 0.721311	 -0.556444	 0.398258	 2
1463571822.587	 8	 0.437393	 -0.777028	 -1.472940	 1.651948	 -0.815473	 -1.036297	 0.100773	 0.719465	 -0.561461	 0.396203	 2
1463571822.597	 8	 0.369634	 -1.166725	 -1.410965	 1.638227	 -0.829950	 -1.040318	 0.093377	 0.716951	 -0.566168	 0.395874	 2
1463571822.607	 8	 0.377253	 -1.362442	 -1.409655	 1.621740	 -0.844220	 -1.044635	 0.085306	 0.713888	 -0.570883	 0.396458	 2
1463571822.617	 8	 0.435756	 -1.370341	 -1.448606	 1.603884	 -0.858742	 -1.050060	 0.077074	 0.710540	 -0.575780	 0.397077	 2
1463571822.627	 8	 0.536278	 -1.258480	 -1.529438	 1.585391	 -0.873905	 -1.057365	 0.069014	 0.707051	 -0.581044	 0.397120	 2
1463571822.637	 8	 0.621615	 -1.162838	 -1.652920	 1.566333	 -0.890061	 -1.066741	 0.061075	 0.703467	 -0.586758	 0.396384	 2
1463571822.647	 8	 0.663909	 -1.083533	 -1.846519	 1.546766	 -0.908028	 -1.077651	 0.052779	 0.699873	 -0.592936	 0.394739	 2
1463571822.657	 8	 0.665039	 -1.072706	 -2.112868	 1.526388	 -0.928060	 -1.089831	 0.043832	 0.696257	 -0.599525	 0.392269	 2
1463571822.667	 8	 0.638398	 -1.121776	 -2.583094	 1.504702	 -0.952327	 -1.102971	 0.033180	 0.692642	 -0.606772	 0.388554	 2
1463571822.677	 8	 0.696442	 -1.044038	 -2.839725	 1.480867	 -0.979597	 -1.118671	 0.021524	 0.688846	 -0.614645	 0.383718	 2
1463571822.687	 8	 0.854633	 -0.914345	 -2.931551	 1.454666	 -1.007754	 -1.138966	 0.010217	 0.684816	 -0.623054	 0.377791	 2
1463571822.697	 8	 0.907771	 -0.827549	 -2.821432	 1.425127	 -1.034903	 -1.163377	 -0.000568	 0.680398	 -0.631536	 0.371781	 2
1463571822.707	 8	 0.789267	 -0.500740	 -2.684139	 1.397704	 -1.060426	 -1.188267	 -0.010131	 0.676632	 -0.639317	 0.365158	 2
1463571822.717	 8	 0.644055	 -0.194994	 -2.528692	 1.374078	 -1.084418	 -1.212141	 -0.018423	 0.673781	 -0.646238	 0.357850	 2
1463571822.727	 8	 0.533276	 -0.057382	 -2.370845	 1.353052	 -1.106825	 -1.234905	 -0.025785	 0.671564	 -0.652368	 0.350360	 2
1463571822.737	 8	 0.478780	 -0.146982	 -2.281680	 1.331517	 -1.128114	 -1.257653	 -0.033001	 0.669439	 -0.657976	 0.343263	 2
1463571822.747	 8	 0.423390	 -0.406923	 -2.215408	 1.306930	 -1.148663	 -1.281010	 -0.040838	 0.667011	 -0.663171	 0.337095	 2
1463571822.757	 8	 0.328716	 -0.693799	 -2.065915	 1.279586	 -1.167967	 -1.304047	 -0.049333	 0.664296	 -0.667756	 0.332233	 2
1463571822.767	 8	 0.070479	 -0.890201	 -1.826764	 1.254185	 -1.185584	 -1.322361	 -0.058208	 0.661904	 -0.671130	 0.328756	 2
1463571822.777	 8	 -0.278470	 -0.967358	 -1.461018	 1.236543	 -1.200976	 -1.331043	 -0.066893	 0.660482	 -0.672763	 0.326617	 2
1463571822.787	 8	 -0.682895	 -0.901080	 -0.992208	 1.232002	 -1.213411	 -1.326027	 -0.074622	 0.660530	 -0.672343	 0.325711	 2
1463571822.797	 8	 -1.137630	 -0.635806	 -0.529634	 1.245366	 -1.222792	 -1.304112	 -0.080819	 0.662535	 -0.669726	 0.325550	 2
1463571822.807	 8	 -1.532668	 -0.111589	 -0.122721	 1.279268	 -1.229311	 -1.265401	 -0.084757	 0.666851	 -0.665185	 0.325046	 2
1463571822.817	 8	 -1.692686	 0.475652	 0.269942	 1.329322	 -1.232028	 -1.215831	 -0.085780	 0.672983	 -0.659462	 0.323797	 2
1463571822.827	 8	 -1.759506	 1.040234	 0.509180	 1.389309	 -1.231209	 -1.161781	 -0.084081	 0.680345	 -0.653217	 0.321509	 2
1463571822.837	 8	 -1.890522	 1.631066	 0.675683	 1.458254	 -1.227604	 -1.104255	 -0.080068	 0.688981	 -0.646461	 0.317779	 2
1463571822.847	 8	 -2.101905	 2.255279	 0.719568	 1.537289	 -1.221984	 -1.042611	 -0.074050	 0.699136	 -0.639057	 0.311980	 2
1463571822.857	 8	 -2.395821	 2.859043	 0.696838	 1.627144	 -1.214657	 -0.975697	 -0.066542	 0.710908	 -0.630749	 0.303871	 2
1463571822.867	 8	 -2.635900	 3.570023	 0.667177	 1.727271	 -1.205226	 -0.904837	 -0.057405	 0.724265	 -0.621511	 0.293035	 2
1463571822.877	 8	 -2.598866	 4.380615	 0.698909	 1.831459	 -1.193100	 -0.837867	 -0.045786	 0.738529	 -0.611995	 0.279180	 2
1463571822.887	 8	 -2.254797	 5.019971	 0.855333	 1.929464	 -1.178230	 -0.784752	 -0.031148	 0.752446	 -0.603064	 0.263000	 2
1463571822.897	 8	 -1.831692	 5.391546	 1.077851	 2.015259	 -1.161325	 -0.749325	 -0.013827	 0.765114	 -0.595034	 0.245648	 2
1463571822.907	 8	 -1.481719	 5.384970	 1.339052	 2.087333	 -1.142910	 -0.729668	 0.005194	 0.776169	 -0.587642	 0.228499	 2
1463571822.917	 8	 -1.289997	 5.036812	 1.660266	 2.145315	 -1.122508	 -0.722326	 0.024900	 0.785588	 -0.580334	 0.213178	 2
1463571822.927	 8	 -1.257845	 4.231675	 2.115035	 2.188074	 -1.098849	 -0.724306	 0.044359	 0.793476	 -0.572526	 0.201601	 2
1463571822.937	 8	 -1.394820	 3.102714	 2.287967	 2.217294	 -1.072618	 -0.729697	 0.061707	 0.800070	 -0.564015	 0.194853	 2
1463571822.947	 8	 -1.770196	 1.954872	 2.107901	 2.239262	 -1.045197	 -0.730108	 0.075107	 0.806127	 -0.554471	 0.192560	 2
1463571822.957	 8	 -2.178262	 0.670045	 1.651878	 2.257953	 -1.018387	 -0.720064	 0.083000	 0.812123	 -0.543940	 0.194156	 2
1463571822.967	 8	 -2.491665	 -0.556752	 1.316002	 2.270553	 -0.992217	 -0.701978	 0.085574	 0.817782	 -0.532827	 0.200014	 2
1463571822.977	 8	 -2.667406	 -1.417337	 1.081451	 2.277231	 -0.966539	 -0.679143	 0.084303	 0.822979	 -0.521393	 0.209162	 2
1463571822.987	 8	 -2.712844	 -1.884068	 0.943218	 2.279426	 -0.941539	 -0.654497	 0.080795	 0.827637	 -0.509912	 0.220180	 2
1463571822.997	 8	 -2.651661	 -1.984663	 0.883132	 2.278995	 -0.917377	 -0.630313	 0.076489	 0.831781	 -0.498601	 0.231702	 2
1463571823.007	 8	 -2.517424	 -1.801102	 0.876211	 2.277896	 -0.894111	 -0.608085	 0.072529	 0.835550	 -0.487606	 0.242563	 2
1463571823.017	 8	 -2.286363	 -1.510960	 0.938713	 2.276445	 -0.871896	 -0.589334	 0.069620	 0.838914	 -0.477211	 0.252282	 2
1463571823.027	 8	 -1.989208	 -1.014631	 1.006822	 2.275819	 -0.850927	 -0.575050	 0.068437	 0.841987	 -0.467645	 0.260160	 2
1463571823.037	 8	 -1.665346	 -0.457168	 1.009189	 2.277376	 -0.831906	 -0.564962	 0.069027	 0.844900	 -0.459159	 0.265619	 2
1463571823.047	 8	 -1.405121	 -0.032560	 0.999153	 2.281165	 -0.814794	 -0.558168	 0.071025	 0.847724	 -0.451670	 0.268911	 2
1463571823.057	 8	 -1.214163	 0.164837	 1.016379	 2.285413	 -0.798887	 -0.553960	 0.073897	 0.850345	 -0.444908	 0.271126	 2
1463571823.067	 8	 -0.988559	 0.317861	 0.942301	 2.289853	 -0.784699	 -0.551789	 0.077241	 0.852686	 -0.439023	 0.272431	 2
1463571823.077	 8	 -0.756368	 0.311089	 0.835772	 2.293431	 -0.772884	 -0.551145	 0.080472	 0.854552	 -0.434255	 0.273290	 2
1463571823.087	 8	 -0.478577	 0.384684	 0.829775	 2.295749	 -0.763037	 -0.552966	 0.084015	 0.855901	 -0.430611	 0.273769	 2
1463571823.097	 8	 -0.150090	 0.526597	 0.878326	 2.296816	 -0.755009	 -0.558515	 0.088463	 0.856692	 -0.428222	 0.273640	 2
1463571823.107	 8	 0.140069	 0.707803	 0.903064	 2.297353	 -0.748764	 -0.567417	 0.093825	 0.857034	 -0.426999	 0.272694	 2
1463571823.117	 8	 0.361745	 0.866730	 0.907942	 2.297915	 -0.744045	 -0.578807	 0.099911	 0.857057	 -0.426697	 0.270926	 2
1463571823.127	 8	 0.537093	 0.977543	 0.859487	 2.298720	 -0.740783	 -0.591700	 0.106359	 0.856838	 -0.427136	 0.268461	 2
1463571823.137	 8	 0.694879	 1.037960	 0.747836	 2.299767	 -0.739341	 -0.605363	 0.112767	 0.856376	 -0.428347	 0.265373	 2
1463571823.147	 8	 0.814777	 1.045843	 0.563554	 2.301153	 -0.740009	 -0.618837	 0.118677	 0.855712	 -0.430299	 0.261755	 2
1463571823.157	 8	 0.916028	 0.999086	 0.317112	 2.302888	 -0.743117	 -0.631287	 0.123657	 0.854875	 -0.432998	 0.257701	 2
1463571823.167	 8	 1.024170	 0.865841	 0.027175	 2.304468	 -0.749018	 -0.642273	 0.127324	 0.853805	 -0.436550	 0.253437	 2
1463571823.177	 8	 1.181180	 0.706743	 -0.287941	 2.305296	 -0.758186	 -0.651939	 0.129497	 0.852377	 -0.441186	 0.249075	 2
1463571823.187	 8	 1.424758	 0.591913	 -0.623648	 2.305282	 -0.771279	 -0.660883	 0.130246	 0.850477	 -0.447225	 0.244366	 2
1463571823.197	 8	 1.803072	 0.521470	 -0.944129	 2.303922	 -0.789081	 -0.670453	 0.129831	 0.847860	 -0.455129	 0.239027	 2
1463571823.207	 8	 2.247726	 0.456426	 -1.226769	 2.300154	 -0.811977	 -0.682236	 0.128543	 0.844237	 -0.465243	 0.233000	 2
1463571823.217	 8	 2.508270	 0.444518	 -1.443367	 2.294784	 -0.838791	 -0.695672	 0.126543	 0.839846	 -0.476929	 0.226240	 2
1463571823.227	 8	 2.253904	 0.358104	 -1.435562	 2.289236	 -0.865262	 -0.708010	 0.123995	 0.835482	 -0.488189	 0.219695	 2
1463571823.237	 8	 1.376752	 0.692603	 -1.277737	 2.290950	 -0.885923	 -0.713390	 0.121650	 0.832942	 -0.496025	 0.212996	 2
1463571823.247	 8	 0.205728	 1.710746	 -0.687884	 2.307198	 -0.895856	 -0.710304	 0.122005	 0.833635	 -0.498242	 0.204748	 2
1463571823.257	 8	 -0.519748	 2.225911	 0.096970	 2.333653	 -0.893726	 -0.704683	 0.126734	 0.836896	 -0.495272	 0.195573	 2
1463571823.267	 8	 -0.425022	 1.693709	 0.666704	 2.351843	 -0.886554	 -0.705146	 0.133088	 0.839517	 -0.491544	 0.189428	 2
1463571823.277	 8	 -0.129146	 1.021965	 0.995724	 2.357314	 -0.878549	 -0.713356	 0.139727	 0.840471	 -0.489036	 0.186893	 2
1463571823.287	 8	 -0.043038	 0.319329	 0.940477	 2.354533	 -0.871267	 -0.723568	 0.145022	 0.840374	 -0.487544	 0.187192	 2
1463571823.297	 8	 -0.050883	 -0.390317	 0.614213	 2.346856	 -0.865932	 -0.730672	 0.147376	 0.839767	 -0.486842	 0.189884	 2
1463571823.307	 8	 -0.037128	 -0.913086	 0.399274	 2.335715	 -0.862476	 -0.734867	 0.147233	 0.838792	 -0.486817	 0.194319	 2
1463571823.317	 8	 0.139906	 -1.119270	 0.345723	 2.321234	 -0.860460	 -0.739551	 0.146145	 0.837252	 -0.487616	 0.199705	 2
1463571823.327	 8	 0.412300	 -1.018352	 0.292068	 2.305274	 -0.860545	 -0.746665	 0.145201	 0.835111	 -0.489528	 0.204620	 2
1463571823.337	 8	 0.497165	 -0.838322	 0.218401	 2.290431	 -0.862038	 -0.754672	 0.144535	 0.832835	 -0.491959	 0.208499	 2
1463571823.347	 8	 0.453545	 -0.776791	 0.178854	 2.276974	 -0.863708	 -0.762016	 0.143861	 0.830713	 -0.494288	 0.211895	 2
1463571823.357	 8	 0.215846	 -0.777696	 0.251256	 2.264977	 -0.863905	 -0.767660	 0.143184	 0.829006	 -0.495821	 0.215429	 2
1463571823.367	 8	 -0.114726	 -0.934449	 0.502064	 2.253280	 -0.860321	 -0.771422	 0.142741	 0.827830	 -0.495822	 0.220190	 2
1463571823.377	 8	 -0.411930	 -1.396241	 0.649561	 2.239208	 -0.853329	 -0.773500	 0.141884	 0.826802	 -0.494637	 0.227159	 2
1463571823.387	 8	 -0.790645	 -1.980681	 0.571751	 2.222719	 -0.844346	 -0.770717	 0.138958	 0.825946	 -0.492373	 0.236797	 2
1463571823.397	 8	 -0.838538	 -2.197188	 0.323962	 2.206050	 -0.835986	 -0.764037	 0.134261	 0.825160	 -0.489823	 0.247302	 2
1463571823.407	 8	 -0.362305	 -1.821626	 -0.055035	 2.190593	 -0.832680	 -0.758149	 0.128911	 0.823902	 -0.488962	 0.255898	 2
1463571823.417	 8	 0.303699	 0.270327	 -0.102116	 2.186011	 -0.834571	 -0.759194	 0.127725	 0.823078	 -0.490039	 0.257081	 2
1463571823.427	 8	 0.127148	 2.246681	 -0.150397	 2.204063	 -0.836799	 -0.760718	 0.132195	 0.825060	 -0.489823	 0.248743	 2
1463571823.437	 8	 -0.301366	 2.228076	 -0.542237	 2.231372	 -0.839023	 -0.754691	 0.135809	 0.828581	 -0.488030	 0.238402	 2
1463571823.447	 8	 -0.770331	 1.321518	 -0.928133	 2.259107	 -0.841537	 -0.739024	 0.135419	 0.832644	 -0.485196	 0.230111	 2
1463571823.457	 8	 -1.053309	 -0.144634	 -1.110900	 2.277725	 -0.843298	 -0.717185	 0.130377	 0.836040	 -0.482088	 0.227224	 2
1463571823.467	 8	 -1.034206	 -1.691679	 -1.179816	 2.282332	 -0.845306	 -0.693553	 0.121107	 0.837834	 -0.479816	 0.230530	 2
1463571823.477	 8	 -0.516009	 -2.943780	 -1.149085	 2.270112	 -0.849644	 -0.674301	 0.109062	 0.837022	 -0.479823	 0.239312	 2
1463571823.487	 8	 0.572697	 -3.320617	 -1.192978	 2.243169	 -0.860505	 -0.666321	 0.096570	 0.832910	 -0.484132	 0.250104	 2
1463571823.497	 8	 1.519290	 -2.781694	 -1.295321	 2.210447	 -0.878541	 -0.670454	 0.085764	 0.826524	 -0.492532	 0.258678	 2
1463571823.507	 8	 2.072641	 -1.932893	 -1.359383	 2.179243	 -0.900884	 -0.683136	 0.077458	 0.819424	 -0.503199	 0.263314	 2
1463571823.517	 8	 2.397080	 -1.282644	 -1.322053	 2.149657	 -0.924983	 -0.702419	 0.071424	 0.812112	 -0.514984	 0.264886	 2
1463571823.527	 8	 2.491124	 -0.918164	 -1.184129	 2.120077	 -0.948608	 -0.726891	 0.067214	 0.804747	 -0.527001	 0.264828	 2
1463571823.537	 8	 2.182836	 -1.005616	 -1.047972	 2.090341	 -0.969525	 -0.751588	 0.063392	 0.797753	 -0.537897	 0.265025	 2
1463571823.547	 8	 1.680954	 -1.306129	 -1.036807	 2.061977	 -0.987256	 -0.770889	 0.058345	 0.791540	 -0.546799	 0.266592	 2
1463571823.557	 8	 1.295157	 -1.547303	 -1.156123	 2.036091	 -1.003566	 -0.784031	 0.051697	 0.786045	 -0.554170	 0.268992	 2
1463571823.567	 8	 0.999854	 -1.789136	 -1.329522	 2.012459	 -1.019797	 -0.791501	 0.043284	 0.781036	 -0.560500	 0.271933	 2
1463571823.577	 8	 0.842653	 -1.957817	 -1.479995	 1.990092	 -1.036573	 -0.795157	 0.033429	 0.776227	 -0.566240	 0.275183	 2
1463571823.587	 8	 0.842488	 -1.894847	 -1.596641	 1.968337	 -1.054208	 -0.798003	 0.023047	 0.771414	 -0.571890	 0.278086	 2
1463571823.597	 8	 0.971543	 -1.647721	 -1.640227	 1.946757	 -1.072947	 -0.803075	 0.013107	 0.766483	 -0.577931	 0.279872	 2
1463571823.607	 8	 1.125931	 -1.303280	 -1.601065	 1.924413	 -1.091864	 -0.812530	 0.004421	 0.761428	 -0.584407	 0.280494	 2
1463571823.617	 8	 1.264272	 -0.989444	 -1.535403	 1.901245	 -1.110635	 -0.826633	 -0.002865	 0.756332	 -0.591259	 0.279939	 2
1463571823.627	 8	 1.339397	 -0.769730	 -1.421042	 1.876417	 -1.128559	 -0.845092	 -0.008925	 0.751202	 -0.598255	 0.278760	 2
1463571823.637	 8	 1.356759	 -0.588059	 -1.295874	 1.850345	 -1.145177	 -0.866850	 -0.013915	 0.746169	 -0.605137	 0.277214	 2
1463571823.647	 8	 1.346740	 -0.350809	 -1.144373	 1.824033	 -1.160132	 -0.891206	 -0.017683	 0.741416	 -0.611750	 0.275231	 2
1463571823.657	 8	 1.352040	 -0.230849	 -1.027134	 1.796646	 -1.173565	 -0.918245	 -0.020497	 0.736815	 -0.618162	 0.273056	 2
1463571823.667	 8	 1.320190	 -0.250492	 -0.962028	 1.767657	 -1.185900	 -0.947033	 -0.023007	 0.732250	 -0.624354	 0.271041	 2
1463571823.677	 8	 1.254565	 -0.376742	 -0.944514	 1.737162	 -1.197505	 -0.976192	 -0.025812	 0.727688	 -0.630230	 0.269471	 2
1463571823.687	 8	 1.200292	 -0.564890	 -0.951121	 1.704597	 -1.208703	 -1.005595	 -0.029246	 0.723030	 -0.635833	 0.268493	 2
1463571823.697	 8	 1.186027	 -0.861699	 -0.965482	 1.668133	 -1.219614	 -1.036198	 -0.033599	 0.718044	 -0.641277	 0.268418	 2
1463571823.707	 8	 1.180941	 -1.221526	 -1.012482	 1.626190	 -1.230479	 -1.068760	 -0.039221	 0.712532	 -0.646646	 0.269461	 2
1463571823.717	 8	 1.115117	 -1.558864	 -1.063007	 1.579760	 -1.241375	 -1.102308	 -0.046207	 0.706622	 -0.651790	 0.271515	 2
1463571823.727	 8	 0.990156	 -1.744104	 -1.137181	 1.531660	 -1.252326	 -1.134946	 -0.054332	 0.700659	 -0.656470	 0.274177	 2
1463571823.737	 8	 0.848528	 -1.806232	 -1.254825	 1.483963	 -1.264034	 -1.166246	 -0.063297	 0.694910	 -0.660730	 0.276640	 2
1463571823.747	 8	 0.681489	 -1.868977	 -1.321098	 1.437670	 -1.276239	 -1.195290	 -0.072966	 0.689499	 -0.664409	 0.278976	 2
1463571823.757	 8	 0.561926	 -1.865536	 -1.334946	 1.392479	 -1.288520	 -1.222916	 -0.082960	 0.684408	 -0.667562	 0.281183	 2
1463571823.767	 8	 0.517604	 -1.809667	 -1.275423	 1.347019	 -1.300152	 -1.251222	 -0.092729	 0.679512	 -0.670377	 0.283301	 2
1463571823.777	 8	 0.509537	 -1.802464	 -1.165512	 1.300064	 -1.310496	 -1.281253	 -0.102087	 0.674658	 -0.672931	 0.285620	 2
1463571823.787	 8	 0.465746	 -1.914178	 -1.041476	 1.251655	 -1.319356	 -1.311769	 -0.111364	 0.669752	 -0.675081	 0.288611	 2
1463571823.797	 8	 0.381479	 -2.012983	 -0.913770	 1.204201	 -1.326896	 -1.340228	 -0.120642	 0.664956	 -0.676647	 0.292281	 2
1463571823.807	 8	 0.281072	 -2.123580	 -0.805218	 1.158754	 -1.333428	 -1.365444	 -0.130042	 0.660306	 -0.677580	 0.296599	 2
1463571823.817	 8	 0.210602	 -2.164566	 -0.765552	 1.115149	 -1.339455	 -1.388068	 -0.139554	 0.655803	 -0.678007	 0.301255	 2
1463571823.827	 8	 0.144364	 -2.141308	 -0.811653	 1.071676	 -1.345786	 -1.410638	 -0.149197	 0.651416	 -0.678196	 0.305693	 2
1463571823.837	 8	 0.035292	 -2.156151	 -0.849208	 1.028947	 -1.352803	 -1.432422	 -0.159126	 0.647233	 -0.678059	 0.309846	 2
1463571823.847	 8	 -0.154892	 -2.241422	 -0.804650	 0.990741	 -1.360287	 -1.448836	 -0.169441	 0.643450	 -0.677185	 0.314138	 2
1463571823.857	 8	 -0.392742	 -2.306926	 -0.693415	 0.961446	 -1.368164	 -1.455291	 -0.180066	 0.640301	 -0.675262	 0.318766	 2
1463571823.867	 8	 -0.636040	 -2.219888	 -0.523162	 0.945924	 -1.376134	 -1.448150	 -0.190395	 0.638099	 -0.672248	 0.323515	 2
1463571823.877	 8	 -0.905209	 -1.981567	 -0.328895	 0.949054	 -1.384075	 -1.424093	 -0.199827	 0.637186	 -0.668207	 0.327966	 2
1463571823.887	 8	 -1.206729	 -1.616340	 -0.101193	 0.977230	 -1.391888	 -1.378007	 -0.207922	 0.637966	 -0.663114	 0.331733	 2
1463571823.897	 8	 -1.358364	 -1.220096	 0.210754	 1.031247	 -1.397960	 -1.309762	 -0.214082	 0.640306	 -0.657250	 0.334962	 2
1463571823.907	 8	 -1.473512	 -0.802501	 0.548161	 1.107953	 -1.400799	 -1.222680	 -0.217986	 0.643982	 -0.650866	 0.337850	 2
1463571823.917	 8	 -1.702631	 -0.339891	 0.886978	 1.209451	 -1.400080	 -1.115063	 -0.219672	 0.649395	 -0.643707	 0.340106	 2
1463571823.927	 8	 -1.917471	 0.265770	 1.157728	 1.331161	 -1.395168	 -0.992590	 -0.218949	 0.656754	 -0.635858	 0.341204	 2
1463571823.937	 8	 -2.015994	 0.887955	 1.407369	 1.459202	 -1.385284	 -0.870007	 -0.215513	 0.665795	 -0.627762	 0.340860	 2
1463571823.947	 8	 -2.158653	 1.381099	 1.445173	 1.584027	 -1.371848	 -0.755656	 -0.210333	 0.676068	 -0.619546	 0.338903	 2
1463571823.957	 8	 -2.405946	 1.958816	 1.369572	 1.708462	 -1.356204	 -0.647002	 -0.203972	 0.687755	 -0.611097	 0.334587	 2
1463571823.967	 8	 -2.606813	 2.641767	 1.304139	 1.832356	 -1.338197	 -0.545201	 -0.196187	 0.700938	 -0.602466	 0.327461	 2
1463571823.977	 8	 -2.515308	 3.434353	 1.368268	 1.945949	 -1.317483	 -0.461515	 -0.185905	 0.715090	 -0.594342	 0.317558	 2
1463571823.987	 8	 -2.165946	 4.213694	 1.616538	 2.038690	 -1.294089	 -0.406980	 -0.171982	 0.729402	 -0.587354	 0.305631	 2
1463571823.997	 8	 -1.777014	 4.971982	 1.911161	 2.111905	 -1.269004	 -0.380565	 -0.154036	 0.743521	 -0.581627	 0.291822	 2
1463571824.007	 8	 -1.428101	 5.562808	 2.270651	 2.169236	 -1.242540	 -0.377377	 -0.132297	 0.757171	 -0.576753	 0.276669	 2
1463571824.017	 8	 -1.133867	 5.862466	 2.643895	 2.213196	 -1.214792	 -0.392384	 -0.107487	 0.769969	 -0.572210	 0.261093	 2
1463571824.027	 8	 -0.927942	 5.790969	 2.987809	 2.245474	 -1.185902	 -0.420360	 -0.080817	 0.781495	 -0.567522	 0.246279	 2
1463571824.037	 8	 -1.056118	 5.229431	 3.089211	 2.271371	 -1.155733	 -0.450943	 -0.054601	 0.791831	 -0.561738	 0.233392	 2
1463571824.047	 8	 -1.518928	 4.104120	 2.900524	 2.296331	 -1.124225	 -0.472040	 -0.032099	 0.801406	 -0.553757	 0.223766	 2
1463571824.057	 8	 -1.895109	 2.871515	 2.618429	 2.318596	 -1.092120	 -0.482551	 -0.014556	 0.810185	 -0.543859	 0.218186	 2
1463571824.067	 8	 -2.196971	 1.722359	 2.140363	 2.338264	 -1.060994	 -0.483071	 -0.002167	 0.818175	 -0.532835	 0.216037	 2
1463571824.077	 8	 -2.437938	 0.299317	 1.466315	 2.354728	 -1.032585	 -0.471959	 0.003783	 0.825198	 -0.521252	 0.217555	 2
1463571824.087	 8	 -2.472343	 -1.165420	 0.992575	 2.362252	 -1.007327	 -0.453376	 0.003430	 0.830644	 -0.509811	 0.223856	 2
1463571824.097	 8	 -2.318555	 -2.124394	 0.817120	 2.359512	 -0.984588	 -0.433871	 -0.000568	 0.834407	 -0.499024	 0.233964	 2
1463571824.107	 8	 -2.113831	 -2.643774	 0.853135	 2.348038	 -0.963381	 -0.416990	 -0.005971	 0.836721	 -0.488921	 0.246615	 2
1463571824.117	 8	 -1.882933	 -2.663778	 0.974566	 2.331601	 -0.943150	 -0.404252	 -0.010979	 0.838053	 -0.479506	 0.260041	 2
1463571824.127	 8	 -1.668316	 -2.150117	 1.199156	 2.314954	 -0.923083	 -0.396199	 -0.013993	 0.839136	 -0.470629	 0.272329	 2
1463571824.137	 8	 -1.475971	 -1.381122	 1.424184	 2.301826	 -0.902688	 -0.392840	 -0.014028	 0.840598	 -0.462220	 0.282049	 2
1463571824.147	 8	 -1.187551	 -0.485816	 1.505673	 2.294175	 -0.883103	 -0.393526	 -0.011193	 0.842588	 -0.454704	 0.288383	 2
1463571824.157	 8	 -0.842147	 0.339615	 1.508215	 2.291978	 -0.865615	 -0.398245	 -0.005838	 0.844956	 -0.448600	 0.291158	 2
1463571824.167	 8	 -0.483364	 0.896439	 1.436735	 2.293665	 -0.850899	 -0.406372	 0.001234	 0.847394	 -0.444063	 0.291084	 2
1463571824.177	 8	 -0.176121	 1.252487	 1.524766	 2.296313	 -0.838094	 -0.418424	 0.009771	 0.849596	 -0.440813	 0.289439	 2
1463571824.187	 8	 0.062299	 1.507605	 1.600733	 2.299129	 -0.826249	 -0.434250	 0.019751	 0.851550	 -0.438449	 0.286767	 2
1463571824.197	 8	 0.211962	 1.604652	 1.550242	 2.302391	 -0.815762	 -0.451560	 0.030176	 0.853231	 -0.436781	 0.283386	 2
1463571824.207	 8	 0.288878	 1.529875	 1.390078	 2.305677	 -0.806928	 -0.468465	 0.040080	 0.854571	 -0.435655	 0.279832	 2
1463571824.217	 8	 0.352515	 1.397335	 1.179401	 2.308796	 -0.800041	 -0.483984	 0.048933	 0.855553	 -0.435057	 0.276334	 2
1463571824.227	 8	 0.424017	 1.341411	 0.976829	 2.312118	 -0.795195	 -0.498193	 0.056820	 0.856249	 -0.435030	 0.272686	 2
1463571824.237	 8	 0.506530	 1.365161	 0.765311	 2.316409	 -0.792438	 -0.511175	 0.063930	 0.856783	 -0.435583	 0.268521	 2
1463571824.247	 8	 0.624238	 1.417238	 0.514316	 2.322072	 -0.792219	 -0.522962	 0.070265	 0.857168	 -0.436876	 0.263564	 2
1463571824.257	 8	 0.766285	 1.383456	 0.313468	 2.328182	 -0.794624	 -0.534041	 0.075815	 0.857263	 -0.439032	 0.258075	 2
1463571824.267	 8	 0.929293	 1.222378	 0.167737	 2.332862	 -0.799245	 -0.545239	 0.080615	 0.856853	 -0.442071	 0.252740	 2
1463571824.277	 8	 1.144299	 0.992076	 0.030502	 2.334831	 -0.806326	 -0.557126	 0.084563	 0.855733	 -0.446213	 0.247919	 2
1463571824.287	 8	 1.402173	 0.727178	 -0.020036	 2.332564	 -0.815517	 -0.571205	 0.088013	 0.853708	 -0.451573	 0.243962	 2
1463571824.297	 8	 1.750250	 0.337892	 -0.319774	 2.325803	 -0.828532	 -0.586553	 0.090073	 0.850589	 -0.458693	 0.240802	 2
1463571824.307	 8	 2.202643	 -0.299646	 -0.929669	 2.313424	 -0.848335	 -0.601609	 0.089053	 0.845956	 -0.468509	 0.238596	 2
1463571824.317	 8	 2.471221	 -1.280716	 -1.465492	 2.292589	 -0.874638	 -0.615567	 0.083845	 0.839539	 -0.480819	 0.238659	 2
1463571824.327	 8	 2.042781	 -2.042093	 -1.761931	 2.266795	 -0.901929	 -0.624493	 0.074771	 0.832585	 -0.492828	 0.241521	 2
1463571824.337	 8	 0.755104	 -1.609824	 -1.634792	 2.251252	 -0.922205	 -0.620913	 0.064489	 0.828169	 -0.500184	 0.244526	 2
1463571824.347	 8	 -0.872633	 0.455974	 -0.936361	 2.264279	 -0.928068	 -0.602933	 0.058867	 0.829520	 -0.499686	 0.242374	 2
1463571824.357	 8	 -1.330221	 1.312947	 -0.282814	 2.293596	 -0.922660	 -0.581654	 0.058589	 0.834409	 -0.494322	 0.236591	 2
1463571824.367	 8	 -0.598269	 0.938339	 0.129369	 2.311921	 -0.916970	 -0.571991	 0.060385	 0.837655	 -0.490558	 0.232465	 2
1463571824.377	 8	 0.162552	 0.489051	 0.375413	 2.314962	 -0.914522	 -0.575613	 0.063211	 0.838246	 -0.489981	 0.230796	 2
1463571824.387	 8	 0.401538	 -0.015463	 0.421926	 2.309005	 -0.913976	 -0.584738	 0.065699	 0.837341	 -0.491026	 0.231165	 2
1463571824.397	 8	 0.270355	 -0.728313	 0.483577	 2.296485	 -0.912616	 -0.593656	 0.066670	 0.835778	 -0.491980	 0.234489	 2
1463571824.407	 8	 0.129342	 -1.281435	 0.567051	 2.278710	 -0.909548	 -0.601441	 0.066271	 0.833827	 -0.492380	 0.240628	 2
1463571824.417	 8	 0.113061	 -1.417913	 0.660775	 2.258266	 -0.905348	 -0.609427	 0.065573	 0.831625	 -0.492513	 0.248056	 2
1463571824.427	 8	 0.256688	 -1.108402	 0.718890	 2.238497	 -0.901164	 -0.619265	 0.065812	 0.829356	 -0.492900	 0.254730	 2
1463571824.437	 8	 0.484038	 -0.649572	 0.721180	 2.221048	 -0.898060	 -0.631818	 0.067477	 0.827081	 -0.493993	 0.259528	 2
1463571824.447	 8	 0.503226	 -0.412576	 0.702969	 2.205982	 -0.895567	 -0.645357	 0.069971	 0.824949	 -0.495401	 0.262946	 2
1463571824.457	 8	 0.209068	 -0.446877	 0.840563	 2.192996	 -0.890844	 -0.656458	 0.072535	 0.823387	 -0.495683	 0.266593	 2
1463571824.467	 8	 0.044653	 -0.391863	 1.026883	 2.181097	 -0.883179	 -0.666439	 0.075673	 0.822284	 -0.494801	 0.270730	 2
1463571824.477	 8	 0.000781	 -0.346604	 0.943491	 2.170806	 -0.875162	 -0.675366	 0.078886	 0.821408	 -0.493643	 0.274558	 2
1463571824.487	 8	 -0.003638	 -0.638616	 0.714871	 2.160317	 -0.868696	 -0.681914	 0.080684	 0.820376	 -0.492739	 0.278714	 2
1463571824.497	 8	 0.176035	 -0.632993	 0.536442	 2.148489	 -0.864557	 -0.688404	 0.081525	 0.818874	 -0.492711	 0.282905	 2
1463571824.507	 8	 0.278261	 0.355790	 0.379560	 2.143637	 -0.862505	 -0.695476	 0.083770	 0.818099	 -0.493212	 0.283618	 2
1463571824.517	 8	 -0.084619	 1.716215	 0.095899	 2.156152	 -0.861165	 -0.697326	 0.087968	 0.819910	 -0.492477	 0.278346	 2
1463571824.527	 8	 -0.452899	 2.242065	 -0.287136	 2.182855	 -0.860612	 -0.690913	 0.092038	 0.823909	 -0.490207	 0.269073	 2
1463571824.537	 8	 -0.667893	 1.741428	 -0.622440	 2.211517	 -0.861405	 -0.678385	 0.093665	 0.828199	 -0.487496	 0.260119	 2
1463571824.547	 8	 -0.930680	 0.764007	 -0.870109	 2.235468	 -0.862614	 -0.660234	 0.091647	 0.831986	 -0.484480	 0.254321	 2
1463571824.557	 8	 -1.051123	 -0.194106	 -1.037841	 2.252640	 -0.863943	 -0.638166	 0.086269	 0.834989	 -0.481398	 0.252205	 2
1463571824.567	 8	 -0.822554	 -1.219588	 -1.114385	 2.259530	 -0.866789	 -0.616558	 0.078202	 0.836407	 -0.479412	 0.253913	 2
1463571824.577	 8	 -0.333146	 -2.111266	 -0.968145	 2.252236	 -0.871698	 -0.601032	 0.068774	 0.835436	 -0.479473	 0.259659	 2
1463571824.587	 8	 0.382536	 -2.376634	 -0.751970	 2.233016	 -0.879104	 -0.595404	 0.059998	 0.832163	 -0.482036	 0.267483	 2
1463571824.597	 8	 1.389000	 -2.022224	 -0.607162	 2.205208	 -0.891018	 -0.603630	 0.053701	 0.826686	 -0.488212	 0.274511	 2
1463571824.607	 8	 2.164134	 -1.355788	 -0.502199	 2.173347	 -0.906898	 -0.624822	 0.050521	 0.819793	 -0.497555	 0.278975	 2
1463571824.617	 8	 2.649018	 -0.697954	 -0.380934	 2.140212	 -0.924330	 -0.655772	 0.050237	 0.812316	 -0.508689	 0.280811	 2
1463571824.627	 8	 3.068236	 -0.114777	 -0.314146	 2.105849	 -0.942672	 -0.695358	 0.052427	 0.804402	 -0.521204	 0.280240	 2
1463571824.637	 8	 3.303169	 0.352671	 -0.293724	 2.070532	 -0.961395	 -0.741724	 0.056439	 0.796212	 -0.534609	 0.277586	 2
1463571824.647	 8	 3.144752	 0.497620	 -0.316574	 2.035998	 -0.979020	 -0.789533	 0.060977	 0.788293	 -0.547608	 0.273866	 2
1463571824.657	 8	 2.689322	 0.151768	 -0.378707	 2.002552	 -0.994454	 -0.832671	 0.064103	 0.780970	 -0.559051	 0.270995	 2
1463571824.667	 8	 2.145992	 -0.192430	 -0.541307	 1.971937	 -1.008209	 -0.867681	 0.064946	 0.774542	 -0.568632	 0.269304	 2
1463571824.677	 8	 1.617758	 -0.464682	 -0.750262	 1.946169	 -1.021293	 -0.893281	 0.063442	 0.769228	 -0.576439	 0.268294	 2
1463571824.687	 8	 1.175502	 -0.615878	 -0.951379	 1.925922	 -1.034281	 -0.910139	 0.060009	 0.765025	 -0.582727	 0.267516	 2
1463571824.697	 8	 0.896872	 -0.728954	 -1.109869	 1.909789	 -1.047651	 -0.920688	 0.055122	 0.761597	 -0.588016	 0.266774	 2
1463571824.707	 8	 0.780203	 -0.750335	 -1.171932	 1.895596	 -1.061244	 -0.928347	 0.049549	 0.758535	 -0.592802	 0.265998	 2
1463571824.717	 8	 0.794639	 -0.630198	 -1.173072	 1.882060	 -1.074855	 -0.936160	 0.044149	 0.755592	 -0.597483	 0.264850	 2
1463571824.727	 8	 0.898242	 -0.420669	 -1.131525	 1.868184	 -1.088380	 -0.946506	 0.039557	 0.752599	 -0.602370	 0.263023	 2
1463571824.737	 8	 1.025637	 -0.205367	 -1.017660	 1.852954	 -1.101255	 -0.960746	 0.036147	 0.749456	 -0.607519	 0.260633	 2
1463571824.747	 8	 1.138718	 -0.072018	 -0.917222	 1.835628	 -1.113314	 -0.979016	 0.033772	 0.746100	 -0.612914	 0.257936	 2
1463571824.757	 8	 1.211639	 -0.068426	 -0.832563	 1.815618	 -1.124582	 -1.000584	 0.031945	 0.742482	 -0.618467	 0.255340	 2
1463571824.767	 8	 1.237911	 -0.206327	 -0.771195	 1.792423	 -1.135071	 -1.024438	 0.030102	 0.738568	 -0.624055	 0.253311	 2
1463571824.777	 8	 1.215590	 -0.459007	 -0.716866	 1.765743	 -1.144753	 -1.049492	 0.027731	 0.734343	 -0.629543	 0.252285	 2
1463571824.787	 8	 1.171579	 -0.764976	 -0.686292	 1.735690	 -1.153669	 -1.074907	 0.024525	 0.729828	 -0.634834	 0.252458	 2
1463571824.797	 8	 1.147698	 -1.078652	 -0.683674	 1.701981	 -1.162124	 -1.100765	 0.020302	 0.724968	 -0.639997	 0.253798	 2
1463571824.807	 8	 1.185846	 -1.347978	 -0.700367	 1.663744	 -1.170352	 -1.128416	 0.015167	 0.719625	 -0.645236	 0.256086	 2
1463571824.817	 8	 1.227198	 -1.608874	 -0.726601	 1.620481	 -1.178403	 -1.158542	 0.009142	 0.713731	 -0.650621	 0.259224	 2
1463571824.827	 8	 1.227300	 -1.786726	 -0.758099	 1.573436	 -1.186216	 -1.190498	 0.002380	 0.707453	 -0.656021	 0.262948	 2
1463571824.837	 8	 1.214605	 -1.948708	 -0.806389	 1.523609	 -1.193892	 -1.223680	 -0.005072	 0.700924	 -0.661341	 0.267036	 2
1463571824.847	 8	 1.167902	 -1.808920	 -0.909126	 1.473293	 -1.201828	 -1.257761	 -0.012726	 0.694466	 -0.666563	 0.270643	 2
1463571824.857	 8	 1.088465	 -1.592481	 -1.015128	 1.424727	 -1.210304	 -1.292102	 -0.020150	 0.688421	 -0.671621	 0.273121	 2
1463571824.867	 8	 0.932372	 -1.354398	 -1.101078	 1.379840	 -1.219317	 -1.324955	 -0.027265	 0.683070	 -0.676285	 0.274428	 2
1463571824.877	 8	 0.701147	 -1.222328	 -1.169242	 1.339989	 -1.228994	 -1.354033	 -0.034381	 0.678586	 -0.680275	 0.274891	 2
1463571824.887	 8	 0.423705	 -1.167698	 -1.228132	 1.306013	 -1.239554	 -1.377576	 -0.041818	 0.675053	 -0.683394	 0.274823	 2
1463571824.897	 8	 0.164236	 -1.171423	 -1.260012	 1.277627	 -1.250996	 -1.395197	 -0.049736	 0.672384	 -0.685614	 0.274517	 2
1463571824.907	 8	 -0.041588	 -1.158967	 -1.238920	 1.254312	 -1.262871	 -1.407443	 -0.057917	 0.670434	 -0.687023	 0.274159	 2
1463571824.917	 8	 -0.149612	 -1.071735	 -1.133789	 1.235227	 -1.274328	 -1.415918	 -0.065776	 0.669007	 -0.687852	 0.273792	 2
1463571824.927	 8	 -0.154346	 -0.856737	 -0.968685	 1.219715	 -1.284383	 -1.422512	 -0.072537	 0.667951	 -0.688381	 0.273334	 2
1463571824.937	 8	 -0.027563	 -0.580502	 -0.812683	 1.205221	 -1.292564	 -1.430927	 -0.077668	 0.666989	 -0.689073	 0.272527	 2
1463571824.947	 8	 0.155819	 -0.432836	 -0.762815	 1.186977	 -1.299297	 -1.445093	 -0.081662	 0.665673	 -0.690304	 0.271461	 2
1463571824.957	 8	 0.262325	 -0.459894	 -0.784244	 1.163532	 -1.305540	 -1.464839	 -0.085442	 0.663912	 -0.691980	 0.270339	 2
1463571824.967	 8	 0.233570	 -0.679920	 -0.776449	 1.137029	 -1.311655	 -1.485918	 -0.089823	 0.661877	 -0.693592	 0.269778	 2
1463571824.977	 8	 0.093124	 -1.101255	 -0.706675	 1.110621	 -1.317689	 -1.503123	 -0.095453	 0.659760	 -0.694566	 0.270523	 2
1463571824.987	 8	 -0.192106	 -1.281277	 -0.566252	 1.091325	 -1.323610	 -1.510110	 -0.101955	 0.658156	 -0.694396	 0.272490	 2
1463571824.997	 8	 -0.537627	 -1.422184	 -0.336481	 1.085990	 -1.329218	 -1.501331	 -0.108683	 0.657603	 -0.692738	 0.275429	 2
1463571825.007	 8	 -0.994353	 -1.420979	 -0.061790	 1.100857	 -1.334404	 -1.471236	 -0.115295	 0.658545	 -0.689252	 0.279210	 2
1463571825.017	 8	 -1.524948	 -1.082887	 0.291283	 1.145078	 -1.338684	 -1.413503	 -0.120708	 0.661763	 -0.683676	 0.282995	 2
1463571825.027	 8	 -1.975680	 -0.338654	 0.654900	 1.222389	 -1.340485	 -1.328466	 -0.123337	 0.667698	 -0.676312	 0.285604	 2
1463571825.037	 8	 -2.226119	 0.640420	 0.923040	 1.325472	 -1.338628	 -1.226571	 -0.122250	 0.676102	 -0.668006	 0.285849	 2
1463571825.047	 8	 -2.285961	 1.577037	 1.133705	 1.440778	 -1.332218	 -1.121880	 -0.117321	 0.686233	 -0.659511	 0.283486	 2
1463571825.057	 8	 -2.325410	 2.405365	 1.233412	 1.559053	 -1.321710	 -1.022771	 -0.109122	 0.697599	 -0.651056	 0.278520	 2
1463571825.067	 8	 -2.516127	 3.152544	 1.228171	 1.680255	 -1.308208	 -0.928103	 -0.098595	 0.710252	 -0.642253	 0.270800	 2
1463571825.077	 8	 -2.653206	 4.174073	 1.236739	 1.805160	 -1.291609	 -0.838895	 -0.085278	 0.724379	 -0.632967	 0.259530	 2
1463571825.087	 8	 -2.460869	 5.441487	 1.404591	 1.924516	 -1.271332	 -0.767756	 -0.067438	 0.739288	 -0.623961	 0.244088	 2
1463571825.097	 8	 -2.024197	 6.669084	 1.607247	 2.030343	 -1.248593	 -0.723580	 -0.044379	 0.753827	 -0.615932	 0.224504	 2
1463571825.107	 8	 -1.570218	 7.431309	 1.884287	 2.120319	 -1.224695	 -0.705402	 -0.017017	 0.767006	 -0.608747	 0.202089	 2
1463571825.117	 8	 -1.315863	 7.445825	 2.228581	 2.193792	 -1.199347	 -0.706943	 0.012633	 0.778287	 -0.601539	 0.179612	 2
1463571825.127	 8	 -1.311052	 6.675418	 2.475021	 2.252089	 -1.172183	 -0.718608	 0.041672	 0.787711	 -0.593449	 0.159978	 2
1463571825.137	 8	 -1.478551	 5.303016	 2.506340	 2.296494	 -1.143800	 -0.732114	 0.067261	 0.795550	 -0.584350	 0.145298	 2
1463571825.147	 8	 -1.805960	 3.519588	 2.261325	 2.329555	 -1.114961	 -0.739550	 0.086925	 0.802423	 -0.574313	 0.136845	 2
1463571825.157	 8	 -2.143705	 1.692683	 1.883840	 2.352897	 -1.086388	 -0.737393	 0.099604	 0.808814	 -0.563670	 0.134818	 2
1463571825.167	 8	 -2.394210	 0.009331	 1.536774	 2.366186	 -1.058386	 -0.726957	 0.105728	 0.814791	 -0.552859	 0.138866	 2
1463571825.177	 8	 -2.449262	 -1.291862	 1.313058	 2.368950	 -1.031353	 -0.712264	 0.106817	 0.820059	 -0.542402	 0.147961	 2
1463571825.187	 8	 -2.286153	 -2.142936	 1.206734	 2.361761	 -1.006058	 -0.697758	 0.104814	 0.824187	 -0.532877	 0.160535	 2
1463571825.197	 8	 -1.991163	 -2.698184	 1.173421	 2.345741	 -0.983122	 -0.686112	 0.101123	 0.826882	 -0.524681	 0.175358	 2
1463571825.207	 8	 -1.900141	 -2.634612	 1.176417	 2.327061	 -0.961402	 -0.676112	 0.097224	 0.828813	 -0.517029	 0.190519	 2
1463571825.217	 8	 -2.042146	 -1.964184	 1.167906	 2.314725	 -0.939300	 -0.664766	 0.094580	 0.831230	 -0.508658	 0.203417	 2
1463571825.227	 8	 -2.298501	 -1.104077	 1.162155	 2.313026	 -0.915579	 -0.650378	 0.093764	 0.834950	 -0.498737	 0.212904	 2
1463571825.237	 8	 -2.326877	 -0.310733	 1.135680	 2.320058	 -0.891339	 -0.635130	 0.094794	 0.839646	 -0.487951	 0.218889	 2
1463571825.247	 8	 -2.101311	 0.256295	 1.097428	 2.331270	 -0.868383	 -0.622229	 0.097374	 0.844495	 -0.477524	 0.222074	 2
1463571825.257	 8	 -1.751988	 0.622718	 1.019995	 2.343685	 -0.848121	 -0.613012	 0.101021	 0.848934	 -0.468307	 0.223146	 2
1463571825.267	 8	 -1.468814	 0.781798	 0.924157	 2.356000	 -0.830614	 -0.606588	 0.105075	 0.852852	 -0.460334	 0.222924	 2
1463571825.277	 8	 -1.205300	 0.822012	 0.856160	 2.367169	 -0.815438	 -0.602533	 0.109255	 0.856205	 -0.453487	 0.222094	 2
1463571825.287	 8	 -0.911225	 0.763368	 0.808291	 2.375998	 -0.802635	 -0.601106	 0.113435	 0.858838	 -0.447909	 0.221151	 2
1463571825.297	 8	 -0.535762	 0.767214	 0.757099	 2.382388	 -0.792727	 -0.602799	 0.117739	 0.860647	 -0.443891	 0.219966	 2
1463571825.307	 8	 -0.132162	 0.832847	 0.730749	 2.386746	 -0.786009	 -0.608119	 0.122446	 0.861609	 -0.441604	 0.218227	 2
1463571825.317	 8	 0.198805	 0.877486	 0.713362	 2.389408	 -0.781990	 -0.616696	 0.127596	 0.861836	 -0.440808	 0.215977	 2
1463571825.327	 8	 0.425852	 0.853149	 0.675988	 2.390498	 -0.780017	 -0.627360	 0.132856	 0.861489	 -0.441116	 0.213547	 2
1463571825.337	 8	 0.589513	 0.808197	 0.556911	 2.390713	 -0.780005	 -0.638762	 0.137815	 0.860742	 -0.442307	 0.210939	 2
1463571825.347	 8	 0.664791	 0.635373	 0.369205	 2.390170	 -0.781915	 -0.649328	 0.141825	 0.859728	 -0.444190	 0.208445	 2
1463571825.357	 8	 0.702338	 0.405029	 0.154648	 2.388527	 -0.785536	 -0.658151	 0.144461	 0.858514	 -0.446615	 0.206445	 2
1463571825.367	 8	 0.755561	 0.324657	 -0.053321	 2.386689	 -0.791010	 -0.665350	 0.145939	 0.857181	 -0.449585	 0.204491	 2
1463571825.377	 8	 0.801566	 0.297490	 -0.260733	 2.385927	 -0.798105	 -0.670876	 0.146576	 0.855889	 -0.452909	 0.202095	 2
1463571825.387	 8	 0.987677	 0.141991	 -0.507860	 2.384495	 -0.807908	 -0.675434	 0.146039	 0.854282	 -0.457195	 0.199618	 2
1463571825.397	 8	 1.296641	 -0.166362	 -0.809701	 2.380500	 -0.821763	 -0.679864	 0.143939	 0.851943	 -0.463158	 0.197381	 2
1463571825.407	 8	 1.730022	 -0.581332	 -1.096565	 2.371672	 -0.840500	 -0.685426	 0.140050	 0.848446	 -0.471351	 0.195841	 2
1463571825.417	 8	 2.204962	 -1.057694	 -1.325746	 2.355838	 -0.864345	 -0.693937	 0.134460	 0.843412	 -0.482093	 0.195355	 2
1463571825.437	 9	 1.742166	 -1.187334	 -1.349567	 2.317573	 -0.914011	 -0.711854	 0.120903	 0.832320	 -0.504216	 0.195938	 2
1463571825.447	 9	 0.690953	 -0.460600	 -1.148209	 2.311651	 -0.929416	 -0.710191	 0.115020	 0.829863	 -0.509846	 0.195332	 2
1463571825.457	 9	 -0.452390	 1.339262	 -0.698398	 2.330626	 -0.934071	 -0.698217	 0.113772	 0.831760	 -0.509255	 0.189451	 2
1463571825.467	 9	 -0.485735	 1.359630	 -0.250298	 2.353806	 -0.932876	 -0.687468	 0.115459	 0.834695	 -0.506499	 0.182789	 2
1463571825.477	 9	 -0.041469	 0.691766	 0.087057	 2.363806	 -0.931646	 -0.685857	 0.117599	 0.835864	 -0.505328	 0.179290	 2
1463571825.487	 9	 0.240007	 -0.091444	 0.146593	 2.361567	 -0.931941	 -0.689821	 0.118621	 0.835389	 -0.505922	 0.179158	 2
1463571825.497	 9	 0.305767	 -0.748807	 0.019472	 2.352349	 -0.933658	 -0.694006	 0.117636	 0.834074	 -0.507460	 0.181566	 2
1463571825.507	 9	 0.281879	 -1.256351	 -0.018081	 2.338240	 -0.935846	 -0.697252	 0.114891	 0.832290	 -0.509360	 0.186133	 2
1463571825.517	 9	 0.224683	 -1.464020	 0.068943	 2.321166	 -0.937171	 -0.700689	 0.111650	 0.830303	 -0.511122	 0.192055	 2
1463571825.527	 9	 0.212269	 -1.452727	 0.154417	 2.303190	 -0.937580	 -0.704852	 0.108677	 0.828265	 -0.512663	 0.198351	 2
1463571825.537	 9	 0.309639	 -1.198582	 0.185775	 2.285840	 -0.938046	 -0.710407	 0.106407	 0.826161	 -0.514317	 0.203995	 2
1463571825.547	 9	 0.546028	 -0.587020	 0.132922	 2.271898	 -0.940020	 -0.718294	 0.105581	 0.824058	 -0.516551	 0.207259	 2
1463571825.557	 9	 0.513179	 0.215455	 0.043691	 2.265774	 -0.943169	 -0.726172	 0.106455	 0.822610	 -0.518774	 0.207010	 2
1463571825.567	 9	 -0.058825	 0.231719	 0.295014	 2.265264	 -0.942217	 -0.729927	 0.108105	 0.822475	 -0.518863	 0.206468	 2
1463571825.577	 9	 -0.791915	 0.033609	 0.546810	 2.268482	 -0.934462	 -0.727369	 0.109819	 0.823909	 -0.515760	 0.207615	 2
1463571825.587	 9	 -1.259613	 -0.638834	 0.471088	 2.271210	 -0.923075	 -0.718036	 0.109497	 0.826110	 -0.510697	 0.211523	 2
1463571825.597	 9	 -1.306746	 -0.839029	 0.126460	 2.274211	 -0.912836	 -0.703791	 0.106894	 0.828458	 -0.505440	 0.216245	 2
1463571825.607	 9	 -1.003698	 -0.536273	 -0.242115	 2.279986	 -0.906855	 -0.688526	 0.103481	 0.830627	 -0.501370	 0.219041	 2
1463571825.617	 9	 -0.237845	 -0.074334	 -0.619633	 2.287146	 -0.908015	 -0.676913	 0.100166	 0.831856	 -0.500146	 0.218715	 2
1463571825.627	 9	 0.558665	 0.441310	 -0.326554	 2.289866	 -0.913954	 -0.677378	 0.099605	 0.831373	 -0.502171	 0.216151	 2
1463571825.637	 9	 0.270347	 1.199317	 -0.197625	 2.297744	 -0.918063	 -0.680154	 0.101749	 0.831547	 -0.503531	 0.211266	 2
1463571825.647	 9	 -0.317301	 1.458991	 -0.413902	 2.317133	 -0.919450	 -0.674074	 0.103763	 0.833693	 -0.502397	 0.204417	 2
1463571825.657	 9	 -0.666218	 0.790125	 -0.681397	 2.338352	 -0.919825	 -0.659939	 0.103091	 0.836514	 -0.500009	 0.199018	 2
1463571825.667	 9	 -0.777082	 -0.127992	 -0.903193	 2.354235	 -0.920557	 -0.641227	 0.099046	 0.838930	 -0.497621	 0.196875	 2
1463571825.677	 9	 -0.681910	 -0.958003	 -1.212291	 2.363988	 -0.923347	 -0.619461	 0.091699	 0.840532	 -0.496034	 0.197604	 2
1463571825.687	 9	 -0.102639	 -1.563773	 -1.350863	 2.364964	 -0.930670	 -0.600342	 0.082268	 0.840388	 -0.496794	 0.200438	 2
1463571825.697	 9	 0.916037	 -1.687821	 -1.324650	 2.354657	 -0.944696	 -0.592047	 0.073077	 0.837568	 -0.501530	 0.203979	 2
1463571825.707	 9	 1.774936	 -1.164969	 -1.185517	 2.337545	 -0.964543	 -0.596808	 0.066243	 0.832630	 -0.509867	 0.205852	 2
1463571825.717	 9	 2.250660	 -0.644269	 -1.057988	 2.317873	 -0.987163	 -0.611430	 0.062019	 0.826665	 -0.520137	 0.205514	 2
1463571825.727	 9	 2.598404	 -0.454873	 -1.053925	 2.294971	 -1.011814	 -0.632908	 0.059008	 0.819873	 -0.531710	 0.203987	 2
1463571825.737	 9	 2.799843	 -0.485453	 -1.082607	 2.267335	 -1.037995	 -0.659761	 0.056167	 0.812272	 -0.544216	 0.202208	 2
1463571825.747	 9	 2.657586	 -0.783875	 -1.077751	 2.235487	 -1.063503	 -0.688596	 0.052664	 0.804397	 -0.556479	 0.201252	 2
1463571825.757	 9	 2.220649	 -1.521071	 -1.123437	 2.200165	 -1.086428	 -0.713773	 0.046894	 0.796775	 -0.567282	 0.202835	 2
1463571825.767	 9	 1.740590	 -2.307439	 -1.220362	 2.162686	 -1.106880	 -0.732098	 0.038003	 0.789544	 -0.576328	 0.207418	 2
1463571825.777	 9	 1.295799	 -2.873598	 -1.297426	 2.125340	 -1.125275	 -0.743086	 0.026469	 0.782786	 -0.583639	 0.214269	 2
1463571825.787	 9	 0.949158	 -3.078752	 -1.273936	 2.090151	 -1.141579	 -0.748278	 0.013622	 0.776588	 -0.589339	 0.222272	 2
1463571825.797	 9	 0.833655	 -2.969369	 -1.197309	 2.056535	 -1.156346	 -0.752091	 0.000950	 0.770713	 -0.594109	 0.230293	 2
1463571825.807	 9	 0.896981	 -2.572748	 -1.039634	 2.022935	 -1.169936	 -0.759428	 -0.010189	 0.764942	 -0.598665	 0.237403	 2
1463571825.817	 9	 1.025130	 -2.014594	 -0.874626	 1.989019	 -1.182406	 -0.772778	 -0.018972	 0.759303	 -0.603383	 0.242956	 2
1463571825.827	 9	 1.164932	 -1.446086	 -0.743728	 1.954818	 -1.193940	 -0.792565	 -0.025313	 0.753853	 -0.608431	 0.246731	 2
1463571825.837	 9	 1.270024	 -0.967071	 -0.647464	 1.920311	 -1.204668	 -0.818009	 -0.029585	 0.748614	 -0.613796	 0.248911	 2
1463571825.847	 9	 1.315782	 -0.610310	 -0.566742	 1.885758	 -1.214469	 -0.847568	 -0.032267	 0.743633	 -0.619296	 0.249882	 2
1463571825.857	 9	 1.297792	 -0.405581	 -0.502866	 1.851429	 -1.223254	 -0.879374	 -0.033946	 0.738927	 -0.624710	 0.250144	 2
1463571825.867	 9	 1.227883	 -0.340100	 -0.448360	 1.817653	 -1.230965	 -0.911538	 -0.035182	 0.734498	 -0.629822	 0.250198	 2
1463571825.877	 9	 1.141508	 -0.358710	 -0.409414	 1.784545	 -1.237687	 -0.942902	 -0.036366	 0.730314	 -0.634536	 0.250367	 2
1463571825.887	 9	 1.099629	 -0.422328	 -0.398983	 1.751152	 -1.243779	 -0.973945	 -0.037721	 0.726214	 -0.638990	 0.250763	 2
1463571825.897	 9	 1.108703	 -0.538258	 -0.394812	 1.715609	 -1.249469	 -1.006116	 -0.039385	 0.721967	 -0.643383	 0.251535	 2
1463571825.907	 9	 1.160172	 -0.711784	 -0.395809	 1.676043	 -1.254818	 -1.040779	 -0.041511	 0.717356	 -0.647864	 0.252882	 2
1463571825.917	 9	 1.213632	 -0.927756	 -0.382298	 1.631434	 -1.259676	 -1.078537	 -0.044197	 0.712266	 -0.652462	 0.254986	 2
1463571825.927	 9	 1.233795	 -1.215726	 -0.337194	 1.581887	 -1.263632	 -1.118580	 -0.047596	 0.706690	 -0.657020	 0.258162	 2
1463571825.937	 9	 1.212335	 -1.532051	 -0.258953	 1.528590	 -1.266251	 -1.159229	 -0.051786	 0.700708	 -0.661316	 0.262653	 2
1463571825.947	 9	 1.145299	 -1.799171	 -0.160673	 1.473771	 -1.267293	 -1.198462	 -0.056653	 0.694489	 -0.665153	 0.268417	 2
1463571825.957	 9	 1.045662	 -1.948271	 -0.081261	 1.420270	 -1.266947	 -1.234430	 -0.061931	 0.688281	 -0.668422	 0.275037	 2
1463571825.967	 9	 0.909106	 -1.955177	 -0.062018	 1.370632	 -1.265912	 -1.265885	 -0.067402	 0.682359	 -0.671117	 0.281859	 2
1463571825.977	 9	 0.755938	 -1.801966	 -0.116810	 1.326856	 -1.265139	 -1.292392	 -0.072826	 0.677020	 -0.673310	 0.288086	 2
1463571825.987	 9	 0.580612	 -1.558600	 -0.215332	 1.289940	 -1.265327	 -1.314100	 -0.078015	 0.672484	 -0.675083	 0.293160	 2
1463571825.997	 9	 0.377471	 -1.316331	 -0.329609	 1.260316	 -1.266963	 -1.330734	 -0.083042	 0.668881	 -0.676415	 0.296926	 2
1463571826.007	 9	 0.195233	 -1.171937	 -0.438583	 1.236938	 -1.270115	 -1.342677	 -0.088114	 0.666115	 -0.677309	 0.299632	 2
1463571826.017	 9	 0.075231	 -1.213580	 -0.509332	 1.216496	 -1.274444	 -1.351599	 -0.093648	 0.663756	 -0.677849	 0.301959	 2
1463571826.027	 9	 0.011686	 -1.350481	 -0.493000	 1.196693	 -1.279062	 -1.358559	 -0.099734	 0.661438	 -0.678057	 0.304618	 2
1463571826.037	 9	 -0.000173	 -1.459277	 -0.393728	 1.177067	 -1.282977	 -1.364084	 -0.105986	 0.659028	 -0.677965	 0.307917	 2
1463571826.047	 9	 0.030647	 -1.610393	 -0.246196	 1.156932	 -1.285512	 -1.368719	 -0.112206	 0.656370	 -0.677619	 0.312124	 2
1463571826.057	 9	 0.029434	 -1.785700	 -0.074097	 1.136822	 -1.286432	 -1.371528	 -0.118431	 0.653446	 -0.676910	 0.317452	 2
1463571826.067	 9	 -0.078374	 -1.916188	 0.074834	 1.119797	 -1.286238	 -1.369661	 -0.124726	 0.650586	 -0.675574	 0.323698	 2
1463571826.077	 9	 -0.398954	 -2.072096	 0.152910	 1.110945	 -1.286386	 -1.357694	 -0.131650	 0.648385	 -0.673050	 0.330558	 2
1463571826.087	 9	 -0.840392	 -2.109148	 0.291760	 1.115855	 -1.287337	 -1.330545	 -0.139145	 0.647450	 -0.668853	 0.337761	 2
1463571826.097	 9	 -1.262527	 -2.007066	 0.557498	 1.138693	 -1.288039	 -1.285478	 -0.146397	 0.648188	 -0.662800	 0.345134	 2
1463571826.107	 9	 -1.571487	 -1.875687	 0.802272	 1.177350	 -1.287193	 -1.225444	 -0.152838	 0.650387	 -0.655193	 0.352646	 2
1463571826.117	 9	 -1.787684	 -1.746837	 1.029164	 1.226644	 -1.284411	 -1.155416	 -0.158601	 0.653598	 -0.646412	 0.360287	 2
1463571826.127	 9	 -1.913779	 -1.361345	 1.335460	 1.285786	 -1.278375	 -1.078596	 -0.162596	 0.658055	 -0.636749	 0.367529	 2
1463571826.137	 9	 -1.911168	 -1.098260	 1.681060	 1.346943	 -1.267642	 -1.002071	 -0.164625	 0.663147	 -0.626506	 0.375000	 2
1463571826.147	 9	 -2.025078	 -0.191244	 1.748044	 1.414054	 -1.254228	 -0.926924	 -0.163948	 0.669943	 -0.616184	 0.380283	 2
1463571826.157	 9	 -1.994481	 0.758497	 1.605276	 1.485340	 -1.240400	 -0.857525	 -0.160603	 0.678500	 -0.606689	 0.381803	 2
1463571826.167	 9	 -1.832626	 1.362145	 1.604156	 1.552864	 -1.225423	 -0.798861	 -0.155041	 0.687697	 -0.598239	 0.380980	 2
1463571826.177	 9	 -1.982383	 1.942455	 1.632175	 1.622244	 -1.208849	 -0.744065	 -0.147728	 0.698055	 -0.589846	 0.378123	 2
1463571826.187	 9	 -2.061537	 2.451159	 1.787870	 1.694572	 -1.189678	 -0.691503	 -0.138650	 0.709745	 -0.580964	 0.373524	 2
1463571826.197	 9	 -1.546087	 2.965852	 1.983206	 1.756778	 -1.167976	 -0.654851	 -0.126762	 0.721232	 -0.573123	 0.367812	 2
1463571826.207	 9	 -0.604894	 3.619271	 2.266716	 1.799813	 -1.144786	 -0.645513	 -0.110505	 0.731229	 -0.568104	 0.361042	 2
1463571826.217	 9	 0.249877	 4.299339	 2.523516	 1.827471	 -1.121035	 -0.660655	 -0.089636	 0.739696	 -0.565975	 0.352828	 2
1463571826.227	 9	 0.688688	 4.828323	 2.751625	 1.848430	 -1.096636	 -0.689830	 -0.065234	 0.747205	 -0.565374	 0.343192	 2
1463571826.237	 9	 0.671113	 5.186534	 3.006631	 1.871058	 -1.070442	 -0.722043	 -0.038580	 0.754624	 -0.564359	 0.332496	 2
1463571826.247	 9	 0.379770	 5.231493	 3.221673	 1.898341	 -1.041650	 -0.750899	 -0.011024	 0.762286	 -0.561566	 0.321625	 2
1463571826.257	 9	 0.035802	 4.901998	 3.259969	 1.928445	 -1.011345	 -0.774239	 0.015657	 0.769838	 -0.556807	 0.311561	 2
1463571826.267	 9	 -0.164482	 4.036044	 3.301614	 1.954933	 -0.980261	 -0.793912	 0.040061	 0.776356	 -0.550652	 0.304053	 2
1463571826.277	 9	 -0.243359	 3.216735	 3.224337	 1.973785	 -0.949344	 -0.812240	 0.061688	 0.781254	 -0.544012	 0.299813	 2
1463571826.287	 9	 -0.355923	 2.841078	 3.004406	 1.990274	 -0.919944	 -0.827875	 0.081070	 0.785371	 -0.537132	 0.296832	 2
1463571826.297	 9	 -0.543965	 2.851945	 2.667232	 2.009618	 -0.892836	 -0.839253	 0.098753	 0.789613	 -0.529863	 0.293263	 2
1463571826.307	 9	 -0.874066	 2.752279	 2.430448	 2.033278	 -0.867205	 -0.844997	 0.114759	 0.794454	 -0.521657	 0.289045	 2
1463571826.317	 9	 -1.111160	 2.495516	 2.421597	 2.057020	 -0.840793	 -0.847400	 0.129483	 0.799403	 -0.512368	 0.285774	 2
1463571826.327	 9	 -1.106289	 2.180589	 2.410098	 2.077891	 -0.814245	 -0.849808	 0.143300	 0.803829	 -0.502895	 0.283585	 2
1463571826.337	 9	 -0.902938	 1.874549	 2.384164	 2.093872	 -0.788681	 -0.854697	 0.156431	 0.807196	 -0.494170	 0.282420	 2
1463571826.347	 9	 -0.582146	 1.631529	 2.295980	 2.104831	 -0.765255	 -0.863088	 0.169019	 0.809310	 -0.486833	 0.281855	 2
1463571826.357	 9	 -0.247302	 1.491080	 2.130828	 2.112283	 -0.744889	 -0.874472	 0.181046	 0.810357	 -0.481097	 0.281229	 2
1463571826.367	 9	 0.052275	 1.337987	 1.967996	 2.116770	 -0.727611	 -0.888261	 0.192445	 0.810459	 -0.476916	 0.280484	 2
1463571826.377	 9	 0.305828	 1.183728	 1.772516	 2.118865	 -0.713308	 -0.903675	 0.203093	 0.809789	 -0.474144	 0.279611	 2
1463571826.387	 9	 0.555795	 0.948641	 1.576315	 2.118169	 -0.702023	 -0.920322	 0.212739	 0.808351	 -0.472818	 0.278843	 2
1463571826.397	 9	 0.650807	 0.818893	 1.469835	 2.115419	 -0.692683	 -0.937620	 0.221619	 0.806369	 -0.472456	 0.278279	 2
1463571826.407	 9	 0.428263	 0.547671	 1.379725	 2.112355	 -0.683233	 -0.952555	 0.229489	 0.804499	 -0.471787	 0.278447	 2
1463571826.417	 9	 0.211931	 0.065357	 1.223651	 2.107016	 -0.673645	 -0.963606	 0.235290	 0.802672	 -0.470825	 0.280500	 2
1463571826.427	 9	 0.282114	 -0.137595	 1.132693	 2.099970	 -0.665034	 -0.973812	 0.240080	 0.800613	 -0.470303	 0.283187	 2
1463571826.437	 9	 0.274106	 -0.436799	 1.084151	 2.089724	 -0.657062	 -0.984079	 0.243963	 0.798014	 -0.470428	 0.286974	 2
1463571826.447	 9	 0.312462	 -0.751090	 1.173614	 2.076662	 -0.648411	 -0.994227	 0.247320	 0.794948	 -0.470721	 0.292083	 2
1463571826.457	 9	 0.580301	 -1.045944	 1.249536	 2.059334	 -0.640058	 -1.007158	 0.250685	 0.790806	 -0.472123	 0.298131	 2
1463571826.467	 9	 0.750372	 -1.473342	 1.049044	 2.037167	 -0.633344	 -1.021487	 0.252969	 0.785638	 -0.474960	 0.305275	 2
1463571826.477	 9	 0.822383	 -1.999187	 0.726992	 2.010584	 -0.629692	 -1.034894	 0.252912	 0.779796	 -0.479263	 0.313465	 2
1463571826.487	 9	 0.790185	 -2.531430	 0.507036	 1.979695	 -0.627911	 -1.046757	 0.250590	 0.773359	 -0.484496	 0.323085	 2
1463571826.507	 10	 0.641724	 -3.824941	 0.131801	 1.900714	 -0.628473	 -1.065766	 0.238310	 0.757787	 -0.497509	 0.348500	 2
1463571826.517	 10	 0.361848	 -3.722512	 0.209794	 1.859532	 -0.628170	 -1.071587	 0.230292	 0.749772	 -0.503283	 0.362648	 2
1463571826.527	 10	 0.023674	 -3.438161	 0.709898	 1.822593	 -0.623272	 -1.074686	 0.223640	 0.742384	 -0.506687	 0.376987	 2
1463571826.537	 10	 -0.229952	 -2.979802	 1.332383	 1.791123	 -0.611275	 -1.075825	 0.219856	 0.735629	 -0.507117	 0.391593	 2
1463571826.547	 10	 -0.278259	 -2.674887	 1.705460	 1.763132	 -0.594739	 -1.076638	 0.218316	 0.729043	 -0.505877	 0.406108	 2
1463571826.557	 10	 -0.123621	 -2.219271	 1.675315	 1.738933	 -0.577698	 -1.078223	 0.218236	 0.722819	 -0.504278	 0.419058	 2
1463571826.567	 10	 0.117731	 -2.109998	 1.587903	 1.715907	 -0.561910	 -1.081890	 0.218843	 0.716444	 -0.503374	 0.430617	 2
1463571826.577	 10	 0.287008	 -2.307189	 1.451374	 1.690607	 -0.547454	 -1.087198	 0.219057	 0.709255	 -0.503495	 0.442114	 2
1463571826.587	 10	 0.220508	 -2.633099	 1.216584	 1.662873	 -0.535017	 -1.091732	 0.217736	 0.701527	 -0.504304	 0.454013	 2
1463571826.597	 10	 -0.110144	 -3.105830	 1.015767	 1.632628	 -0.524432	 -1.092561	 0.213887	 0.693539	 -0.505045	 0.467104	 2
1463571826.607	 10	 -0.728994	 -3.657974	 0.894520	 1.600361	 -0.514981	 -1.086607	 0.206842	 0.685623	 -0.504636	 0.482161	 2
1463571826.617	 10	 -1.388686	 -4.054627	 0.784668	 1.567559	 -0.506716	 -1.072649	 0.196615	 0.678180	 -0.502457	 0.498951	 2
1463571826.637	 11	 -2.110418	 -4.482997	 0.676127	 1.501057	 -0.494460	 -1.028790	 0.169549	 0.663766	 -0.494185	 0.535210	 2
1463571826.647	 11	 -2.249211	 -4.441749	 0.881279	 1.468718	 -0.488297	 -1.002887	 0.155227	 0.656436	 -0.488261	 0.553712	 2
1463571826.657	 11	 -2.233202	 -4.251274	 1.193049	 1.438088	 -0.479813	 -0.976201	 0.142125	 0.648931	 -0.480979	 0.572143	 2
1463571826.667	 11	 -2.110396	 -3.948133	 1.390901	 1.409730	 -0.469617	 -0.950093	 0.130627	 0.641429	 -0.472879	 0.589822	 2
1463571826.677	 11	 -1.880119	 -3.633222	 1.495205	 1.383552	 -0.458482	 -0.925823	 0.120826	 0.633985	 -0.464603	 0.606307	 2
1463571826.687	 11	 -1.523232	 -3.614464	 1.586060	 1.356830	 -0.446403	 -0.904711	 0.112488	 0.625765	 -0.456799	 0.622173	 2
1463571826.697	 11	 -1.086480	 -3.852323	 1.669568	 1.326282	 -0.433026	 -0.887680	 0.105279	 0.615667	 -0.449934	 0.638302	 2
1463571826.707	 11	 -0.737792	 -4.132060	 1.662863	 1.291072	 -0.418959	 -0.874314	 0.098654	 0.603458	 -0.444125	 0.654873	 2
1463571826.717	 11	 -0.672569	 -4.007592	 1.546219	 1.255062	 -0.405855	 -0.862374	 0.092154	 0.590646	 -0.438881	 0.670842	 2
1463571826.727	 11	 -1.227796	 -2.749527	 1.589404	 1.230042	 -0.394474	 -0.846075	 0.086331	 0.581620	 -0.431903	 0.683904	 2
1463571826.737	 11	 -1.603362	 -1.558793	 1.807315	 1.220691	 -0.383319	 -0.823800	 0.082220	 0.578090	 -0.422108	 0.693453	 2
1463571826.747	 11	 -1.337146	 -1.594533	 1.973055	 1.213322	 -0.370068	 -0.802200	 0.079642	 0.574932	 -0.411853	 0.702487	 2
1463571826.757	 11	 -1.009559	 -1.948637	 2.116115	 1.201290	 -0.354508	 -0.783497	 0.077961	 0.569714	 -0.402149	 0.712478	 2
1463571826.767	 11	 -0.783828	 -2.239153	 2.333124	 1.185453	 -0.336428	 -0.766295	 0.077095	 0.562720	 -0.392440	 0.723459	 2
1463571826.777	 11	 -0.542511	 -2.557897	 2.477264	 1.165722	 -0.316130	 -0.750463	 0.076931	 0.553898	 -0.382774	 0.735366	 2
1463571826.787	 11	 -0.301826	 -2.666003	 2.480557	 1.143388	 -0.294841	 -0.736465	 0.077401	 0.543779	 -0.373590	 0.747491	 2
1463571826.797	 11	 -0.065002	 -2.618348	 2.401138	 1.120469	 -0.273433	 -0.724539	 0.078602	 0.533176	 -0.365142	 0.759089	 2
1463571826.807	 11	 0.199053	 -2.459049	 2.327849	 1.097818	 -0.251882	 -0.714943	 0.080738	 0.522397	 -0.357533	 0.769904	 2
1463571826.817	 11	 0.472494	 -2.162207	 2.304784	 1.077145	 -0.229557	 -0.707587	 0.084308	 0.512040	 -0.350561	 0.779624	 2
1463571826.827	 11	 0.695375	 -1.754344	 2.317296	 1.059745	 -0.206201	 -0.701964	 0.089461	 0.502623	 -0.343943	 0.788080	 2
1463571826.837	 11	 0.878042	 -1.306733	 2.367830	 1.046494	 -0.181635	 -0.697475	 0.096219	 0.494525	 -0.337362	 0.795219	 2
1463571826.847	 11	 1.029263	 -0.994908	 2.454676	 1.036445	 -0.155645	 -0.693745	 0.104370	 0.487384	 -0.330644	 0.801398	 2
1463571826.857	 11	 1.101240	 -0.768764	 2.574453	 1.028826	 -0.128200	 -0.690022	 0.113584	 0.480939	 -0.323492	 0.806938	 2
1463571826.867	 11	 1.097300	 -0.750229	 2.635408	 1.021902	 -0.100062	 -0.685777	 0.123119	 0.474631	 -0.315933	 0.812252	 2
1463571826.877	 11	 1.087802	 -0.951244	 2.632555	 1.013419	 -0.071913	 -0.681183	 0.132382	 0.467629	 -0.308326	 0.817761	 2
1463571826.887	 11	 1.116743	 -1.290301	 2.530032	 1.001650	 -0.044307	 -0.676856	 0.141044	 0.459254	 -0.301191	 0.823696	 2
1463571826.897	 11	 1.155603	 -1.690861	 2.310682	 0.985880	 -0.018214	 -0.673553	 0.148795	 0.449267	 -0.295160	 0.830000	 2
1463571826.907	 11	 1.178654	 -2.070978	 2.117239	 0.966118	 0.006258	 -0.671176	 0.155583	 0.437665	 -0.290269	 0.836652	 2
1463571826.917	 11	 1.204270	 -2.433449	 2.011330	 0.942637	 0.029757	 -0.669197	 0.161613	 0.424480	 -0.286173	 0.843684	 2
1463571826.927	 11	 1.260187	 -2.750957	 1.957798	 0.915830	 0.052971	 -0.667385	 0.167189	 0.409767	 -0.282626	 0.851036	 2
1463571826.937	 11	 1.346523	 -2.985326	 1.941010	 0.886380	 0.076416	 -0.665704	 0.172626	 0.393716	 -0.279476	 0.858534	 2
1463571826.947	 11	 1.431454	 -3.077065	 1.938351	 0.855582	 0.100327	 -0.664002	 0.178181	 0.376843	 -0.276524	 0.865896	 2
1463571826.957	 11	 1.541364	 -3.065802	 1.922578	 0.824738	 0.124763	 -0.662372	 0.184078	 0.359692	 -0.273701	 0.872826	 2
1463571826.967	 11	 1.670543	 -3.013361	 1.872916	 0.794253	 0.149719	 -0.661223	 0.190436	 0.342411	 -0.271160	 0.879182	 2
1463571826.977	 11	 1.775583	 -2.870481	 1.817912	 0.765089	 0.175040	 -0.660507	 0.197294	 0.325463	 -0.268827	 0.884806	 2
1463571826.987	 11	 1.830947	 -2.685458	 1.834072	 0.737433	 0.200791	 -0.659523	 0.204575	 0.309008	 -0.266356	 0.889785	 2
1463571826.997	 11	 1.924811	 -2.462435	 1.825738	 0.711977	 0.227154	 -0.658358	 0.212462	 0.293340	 -0.263668	 0.894031	 2
1463571827.007	 11	 2.043242	 -2.144545	 1.709361	 0.689538	 0.252990	 -0.657948	 0.220686	 0.278939	 -0.261279	 0.897343	 2
1463571827.017	 11	 2.195390	 -1.868665	 1.533680	 0.670586	 0.278601	 -0.659279	 0.229540	 0.265871	 -0.259487	 0.899606	 2
1463571827.027	 11	 2.323518	 -1.803541	 1.472416	 0.653219	 0.304774	 -0.661848	 0.239009	 0.253196	 -0.258115	 0.901190	 2
1463571827.037	 11	 2.402721	 -1.789641	 1.514487	 0.636026	 0.332855	 -0.664289	 0.249301	 0.240198	 -0.256474	 0.902427	 2
1463571827.047	 11	 2.458248	 -1.806618	 1.542614	 0.618826	 0.360603	 -0.666324	 0.259385	 0.227231	 -0.254851	 0.903403	 2
1463571827.057	 11	 2.472192	 -1.788608	 1.538387	 0.601492	 0.388075	 -0.668042	 0.269284	 0.214230	 -0.253290	 0.904121	 2
1463571827.067	 11	 2.422436	 -1.725522	 1.562832	 0.585641	 0.412531	 -0.669320	 0.278008	 0.202456	 -0.251963	 0.904565	 2
1463571827.077	 11	 2.367349	 -1.668743	 1.595759	 0.570972	 0.432170	 -0.669909	 0.284720	 0.192159	 -0.251059	 0.904975	 2
1463571827.087	 11	 2.355445	 -1.686936	 1.575433	 0.554266	 0.458654	 -0.669190	 0.294017	 0.179859	 -0.248842	 0.905142	 2
1463571827.097	 11	 2.355017	 -1.706692	 1.491058	 0.536872	 0.486651	 -0.668391	 0.303884	 0.166972	 -0.246580	 0.904971	 2
1463571827.107	 11	 2.300378	 -1.676339	 1.401226	 0.519660	 0.513837	 -0.667702	 0.313438	 0.154294	 -0.244612	 0.904497	 2
1463571827.117	 11	 2.193768	 -1.596747	 1.333620	 0.502975	 0.539818	 -0.666694	 0.322515	 0.142130	 -0.242741	 0.903803	 2
1463571827.127	 11	 2.032961	 -1.497598	 1.300773	 0.486724	 0.564287	 -0.664770	 0.330940	 0.130603	 -0.240745	 0.903030	 2
1463571827.137	 11	 1.817950	 -1.373637	 1.294207	 0.470811	 0.586878	 -0.661359	 0.338522	 0.119847	 -0.238427	 0.902326	 2
1463571827.147	 11	 1.586992	 -1.254791	 1.309047	 0.455042	 0.607410	 -0.656146	 0.345166	 0.109882	 -0.235690	 0.901796	 2
1463571827.157	 11	 1.339889	 -1.226833	 1.397785	 0.438265	 0.625935	 -0.648319	 0.350745	 0.100332	 -0.232351	 0.901623	 2
1463571827.167	 11	 1.194750	 -1.233798	 1.405379	 0.420268	 0.642949	 -0.638727	 0.355525	 0.090879	 -0.228751	 0.901674	 2
1463571827.177	 11	 1.119663	 -1.234277	 1.309044	 0.402043	 0.658705	 -0.629038	 0.359821	 0.081629	 -0.225425	 0.901692	 2
1463571827.187	 11	 1.063667	 -1.244518	 1.194333	 0.384030	 0.673335	 -0.619926	 0.363761	 0.072630	 -0.222571	 0.901590	 2
1463571827.197	 11	 0.983010	 -1.294966	 1.098648	 0.365755	 0.686792	 -0.611241	 0.367255	 0.063692	 -0.220201	 0.901431	 2
1463571827.207	 11	 0.878791	 -1.359209	 0.997710	 0.346994	 0.698854	 -0.602884	 0.370170	 0.054763	 -0.218332	 0.901280	 2
1463571827.217	 11	 0.740359	 -1.417139	 0.873682	 0.327867	 0.709186	 -0.595034	 0.372370	 0.045905	 -0.217049	 0.901179	 2
1463571827.227	 11	 0.597669	 -1.456056	 0.729618	 0.308835	 0.717593	 -0.588048	 0.373814	 0.037276	 -0.216432	 0.901127	 2
1463571827.237	 11	 0.484953	 -1.483293	 0.594995	 0.290109	 0.724325	 -0.582071	 0.374620	 0.028890	 -0.216454	 0.901095	 2
1463571827.247	 11	 0.425932	 -1.445752	 0.467966	 0.272321	 0.729908	 -0.577284	 0.375069	 0.020901	 -0.217000	 0.900998	 2
1463571827.257	 11	 0.398379	 -1.309290	 0.354374	 0.256466	 0.734807	 -0.573751	 0.375455	 0.013668	 -0.217848	 0.900771	 2
1463571827.267	 11	 0.362841	 -1.073735	 0.262022	 0.243448	 0.739127	 -0.571302	 0.375912	 0.007609	 -0.218731	 0.900438	 2
1463571827.277	 11	 0.247750	 -0.780124	 0.223126	 0.233455	 0.742404	 -0.569180	 0.376248	 0.003015	 -0.219315	 0.900183	 2
1463571827.287	 11	 0.074067	 -0.482991	 0.206088	 0.226296	 0.744040	 -0.566752	 0.376178	 0.000005	 -0.219403	 0.900196	 2
1463571827.297	 11	 -0.057589	 -0.308447	 0.168359	 0.221189	 0.744149	 -0.564299	 0.375667	 -0.001849	 -0.219247	 0.900445	 2
1463571827.307	 11	 -0.091540	 -0.227846	 0.122511	 0.217389	 0.743560	 -0.562269	 0.374994	 -0.003093	 -0.219105	 0.900757	 2
1463571827.317	 11	 -0.017010	 -0.220995	 0.070770	 0.214367	 0.743329	 -0.561035	 0.374564	 -0.004189	 -0.219138	 0.900923	 2
1463571827.327	 11	 0.140519	 -0.257002	 0.009380	 0.211877	 0.744329	 -0.560984	 0.374731	 -0.005447	 -0.219484	 0.900763	 2
1463571827.337	 11	 0.337495	 -0.341700	 -0.003780	 0.209322	 0.747143	 -0.561883	 0.375684	 -0.007179	 -0.220095	 0.900205	 2
1463571827.347	 11	 0.542954	 -0.430740	 -0.025582	 0.206328	 0.751919	 -0.563503	 0.377445	 -0.009532	 -0.220924	 0.899242	 2
1463571827.357	 11	 0.710112	 -0.479385	 -0.065857	 0.203449	 0.758383	 -0.566153	 0.379949	 -0.012277	 -0.222034	 0.897880	 2
1463571827.367	 11	 0.802949	 -0.500759	 -0.042352	 0.200509	 0.765976	 -0.569070	 0.382927	 -0.015270	 -0.223169	 0.896286	 2
1463571827.377	 11	 0.791569	 -0.505347	 0.053623	 0.196726	 0.773886	 -0.570906	 0.385948	 -0.018484	 -0.223954	 0.894733	 2
1463571827.387	 11	 0.666261	 -0.493314	 0.195507	 0.191548	 0.781089	 -0.570606	 0.388517	 -0.021802	 -0.224130	 0.893502	 2
1463571827.397	 11	 0.525901	 -0.465620	 0.290774	 0.185222	 0.787101	 -0.568365	 0.390458	 -0.025071	 -0.223789	 0.892654	 2
1463571827.407	 11	 0.407926	 -0.443313	 0.385796	 0.177929	 0.792038	 -0.564348	 0.391852	 -0.028256	 -0.222961	 0.892156	 2
1463571827.417	 11	 0.327965	 -0.418686	 0.376063	 0.170380	 0.796107	 -0.559796	 0.392857	 -0.031314	 -0.222037	 0.891842	 2
1463571827.427	 11	 0.266223	 -0.319103	 0.296530	 0.164129	 0.799421	 -0.555949	 0.393675	 -0.033815	 -0.221252	 0.891585	 2
1463571827.437	 11	 0.227956	 -0.290246	 0.300329	 0.158617	 0.802233	 -0.552323	 0.394359	 -0.035953	 -0.220472	 0.891393	 2
1463571827.447	 11	 0.196439	 -0.201727	 0.320610	 0.153446	 0.804729	 -0.548297	 0.394956	 -0.037811	 -0.219479	 0.891296	 2
1463571827.457	 11	 0.161736	 -0.149023	 0.387480	 0.148361	 0.806965	 -0.543411	 0.395472	 -0.039420	 -0.218115	 0.891333	 2
1463571827.467	 11	 0.139567	 -0.156956	 0.457940	 0.142477	 0.809026	 -0.537393	 0.395858	 -0.041132	 -0.216422	 0.891497	 2
1463571827.477	 11	 0.136522	 -0.180916	 0.525952	 0.135630	 0.811083	 -0.530358	 0.396170	 -0.043068	 -0.214472	 0.891738	 2
1463571827.487	 11	 0.154923	 -0.185771	 0.597153	 0.127910	 0.813311	 -0.522289	 0.396503	 -0.045205	 -0.212224	 0.892022	 2
1463571827.497	 11	 0.193711	 -0.162015	 0.662048	 0.119643	 0.815940	 -0.513263	 0.396997	 -0.047442	 -0.209632	 0.892299	 2
1463571827.507	 11	 0.205852	 -0.119140	 0.712432	 0.111184	 0.818779	 -0.503437	 0.397605	 -0.049623	 -0.206714	 0.892590	 2
1463571827.517	 11	 0.190154	 -0.092169	 0.758647	 0.102473	 0.821523	 -0.492867	 0.398190	 -0.051747	 -0.203529	 0.892941	 2
1463571827.527	 11	 0.172001	 -0.080538	 0.741861	 0.093733	 0.824014	 -0.482114	 0.398692	 -0.053806	 -0.200294	 0.893326	 2
1463571827.537	 11	 0.128317	 -0.023339	 0.691617	 0.085920	 0.826048	 -0.471998	 0.399092	 -0.055517	 -0.197196	 0.893732	 2
1463571827.547	 11	 0.083527	 -0.001007	 0.673031	 0.078648	 0.827548	 -0.462158	 0.399322	 -0.056974	 -0.194151	 0.894204	 2
1463571827.557	 11	 0.047202	 0.004296	 0.656345	 0.071549	 0.828604	 -0.452491	 0.399386	 -0.058336	 -0.191180	 0.894728	 2
1463571827.567	 11	 0.021712	 0.041501	 0.643058	 0.064840	 0.829308	 -0.442987	 0.399342	 -0.059517	 -0.188224	 0.895296	 2
1463571827.577	 11	 0.026354	 0.124415	 0.638460	 0.058889	 0.829938	 -0.433551	 0.399350	 -0.060364	 -0.185151	 0.895877	 2
1463571827.587	 11	 0.040722	 0.233885	 0.632959	 0.054035	 0.830664	 -0.424180	 0.399512	 -0.060742	 -0.181881	 0.896448	 2
1463571827.597	 11	 0.037793	 0.300820	 0.621884	 0.050128	 0.831387	 -0.414962	 0.399762	 -0.060725	 -0.178490	 0.897019	 2
1463571827.607	 11	 0.001376	 0.280650	 0.612422	 0.046300	 0.831825	 -0.405871	 0.399896	 -0.060668	 -0.175154	 0.897621	 2
1463571827.617	 11	 -0.088567	 0.222370	 0.606268	 0.041985	 0.831444	 -0.396817	 0.399626	 -0.060759	 -0.171970	 0.898351	 2
1463571827.627	 11	 -0.199944	 0.160824	 0.581087	 0.037217	 0.829959	 -0.387974	 0.398823	 -0.060998	 -0.169019	 0.899251	 2
1463571827.637	 11	 -0.263823	 0.043353	 0.489960	 0.032267	 0.827607	 -0.380194	 0.397591	 -0.061462	 -0.166613	 0.900213	 2
1463571827.647	 11	 -0.253340	 -0.119240	 0.366859	 0.027095	 0.825138	 -0.374214	 0.396238	 -0.062386	 -0.165057	 0.901032	 2
1463571827.657	 11	 -0.204414	 -0.281901	 0.249817	 0.021611	 0.823017	 -0.370036	 0.394965	 -0.063846	 -0.164349	 0.901619	 2
1463571827.667	 11	 -0.130563	 -0.390166	 0.163971	 0.015926	 0.821561	 -0.367315	 0.393930	 -0.065748	 -0.164302	 0.901943	 2
1463571827.677	 11	 -0.053920	 -0.400231	 0.126974	 0.010432	 0.820843	 -0.365326	 0.393221	 -0.067773	 -0.164515	 0.902064	 2
