% Gyrometer data recorded with 'snsrlog'
% 
% 
% Label description:
% 	 0: Default Label
% 	 1: still_drop
% 	 2: walk_drop
% 	 3: other
% 	 4: dtw_same
% 	 5: dtw_diff
% 	 6: delete
% 	 7: steal
% 
% Column description:
% 	 1: Seconds.milliseconds since 1970
% 	 2: Number of skipped measurements
% 	 3: Gyro X
% 	 4: Gyro Y
% 	 5: Gyro Z
% 	 6: Roll of the device
% 	 7: Pitch of the device
% 	 8: Yaw of the device
% 	 9: Quaternion X
% 	 10: Quaternion Y
% 	 11: Quaternion Z
% 	 12: Quaternion W
% 	 13: Label used for the current sample
% 
% 
1463570696.810	 0	 -1.580796	 2.538398	 -1.606037	 0.636825	 0.517539	 -0.280259	 0.282916	 0.265725	 -0.048910	 0.920302	 1
1463570696.820	 0	 -1.615113	 2.623607	 -1.749889	 0.665033	 0.494376	 -0.284708	 0.273840	 0.280488	 -0.050965	 0.918554	 1
1463570696.830	 0	 -1.627483	 2.604571	 -1.886377	 0.693414	 0.470090	 -0.289461	 0.264400	 0.295414	 -0.053606	 0.916487	 1
1463570696.840	 0	 -1.653011	 2.468941	 -1.972677	 0.720544	 0.444900	 -0.294113	 0.254610	 0.309880	 -0.056806	 0.914287	 1
1463570696.850	 0	 -1.723618	 2.237015	 -2.009391	 0.745163	 0.418850	 -0.297943	 0.244337	 0.323384	 -0.060377	 0.912182	 1
1463570696.860	 0	 -1.806408	 1.878833	 -2.007740	 0.765935	 0.392078	 -0.300537	 0.233508	 0.335339	 -0.064233	 0.910437	 1
1463570696.870	 0	 -1.851943	 1.458153	 -1.955838	 0.782046	 0.365113	 -0.301834	 0.222283	 0.345307	 -0.068281	 0.909226	 1
1463570696.880	 0	 -1.839303	 1.127929	 -1.873760	 0.794140	 0.338666	 -0.302122	 0.211007	 0.353458	 -0.072365	 0.908464	 1
1463570696.890	 0	 -1.822501	 1.030613	 -1.827428	 0.804448	 0.312803	 -0.301820	 0.199838	 0.360744	 -0.076368	 0.907797	 1
1463570696.900	 0	 -1.844833	 1.065619	 -1.849288	 0.814824	 0.286809	 -0.301183	 0.188565	 0.368044	 -0.080343	 0.906936	 1
1463570696.910	 0	 -1.898757	 1.013080	 -1.929240	 0.824968	 0.260030	 -0.300407	 0.176920	 0.375254	 -0.084542	 0.905945	 1
1463570696.920	 0	 -2.004638	 0.788535	 -1.989025	 0.833217	 0.232114	 -0.299169	 0.164610	 0.381670	 -0.089029	 0.905155	 1
1463570696.930	 0	 -2.140823	 0.395643	 -1.955259	 0.837725	 0.203385	 -0.296703	 0.151529	 0.386468	 -0.093497	 0.904953	 1
1463570696.940	 0	 -2.270533	 -0.029824	 -1.864302	 0.837671	 0.174396	 -0.292624	 0.137777	 0.389224	 -0.097643	 0.905532	 1
1463570696.950	 0	 -2.422972	 -0.276710	 -1.797063	 0.834497	 0.144988	 -0.287013	 0.123340	 0.390557	 -0.101351	 0.906631	 1
1463570696.960	 0	 -2.577085	 -0.399380	 -1.761692	 0.829899	 0.114784	 -0.280085	 0.108159	 0.391212	 -0.104631	 0.907913	 1
1463570696.970	 0	 -2.665962	 -0.505119	 -1.711812	 0.824304	 0.084172	 -0.272251	 0.092507	 0.391294	 -0.107533	 0.909268	 1
1463570696.980	 0	 -2.737201	 -0.489674	 -1.664154	 0.818680	 0.053406	 -0.263743	 0.076596	 0.391187	 -0.110049	 0.910492	 1
1463570696.990	 0	 -2.884745	 -0.370753	 -1.605278	 0.814298	 0.022119	 -0.254165	 0.060259	 0.391488	 -0.112029	 0.911348	 1
1463570697.000	 0	 -3.095100	 -0.308318	 -1.440869	 0.811078	 -0.009617	 -0.242322	 0.043296	 0.392151	 -0.112943	 0.911914	 1
1463570697.010	 0	 -3.273602	 -0.396007	 -1.138520	 0.807788	 -0.040766	 -0.227353	 0.025949	 0.392510	 -0.112242	 0.912504	 1
1463570697.020	 0	 -3.332366	 -0.514236	 -0.745842	 0.803940	 -0.069910	 -0.209172	 0.008831	 0.392214	 -0.109614	 0.913277	 1
1463570697.030	 0	 -3.185116	 -0.601342	 -0.378116	 0.799799	 -0.095752	 -0.189078	 -0.007176	 0.391304	 -0.105400	 0.914177	 1
1463570697.040	 0	 -2.809932	 -0.702568	 -0.105226	 0.795141	 -0.117319	 -0.169249	 -0.021191	 0.389699	 -0.100414	 0.915206	 1
1463570697.050	 0	 -2.257021	 -0.830512	 0.075278	 0.789375	 -0.133938	 -0.151746	 -0.032515	 0.387236	 -0.095473	 0.916447	 1
1463570697.060	 0	 -1.671310	 -0.947464	 0.171403	 0.782125	 -0.145685	 -0.137696	 -0.040972	 0.383888	 -0.091106	 0.917960	 1
1463570697.070	 0	 -1.187016	 -1.016735	 0.201712	 0.773685	 -0.153542	 -0.127069	 -0.047002	 0.379906	 -0.087503	 0.919677	 1
1463570697.080	 0	 -0.867981	 -1.020920	 0.193566	 0.764683	 -0.158909	 -0.119034	 -0.051387	 0.375638	 -0.084573	 0.921468	 1
1463570697.090	 0	 -0.714891	 -0.883402	 0.151948	 0.756414	 -0.163163	 -0.112640	 -0.054896	 0.371706	 -0.082182	 0.923075	 1
1463570697.100	 0	 -0.709334	 -0.570004	 0.103659	 0.750781	 -0.167512	 -0.106913	 -0.058200	 0.368988	 -0.080165	 0.924140	 1
1463570697.110	 0	 -0.783358	 -0.174348	 0.072816	 0.749034	 -0.172549	 -0.101059	 -0.061684	 0.368048	 -0.078314	 0.924447	 1
1463570697.120	 0	 -0.865001	 0.177828	 0.056554	 0.751081	 -0.178328	 -0.094762	 -0.065444	 0.368832	 -0.076511	 0.924027	 1
1463570697.130	 0	 -0.923267	 0.486517	 0.066328	 0.756409	 -0.184553	 -0.087977	 -0.069382	 0.371091	 -0.074685	 0.922984	 1
1463570697.140	 0	 -0.938860	 0.768694	 0.104260	 0.764758	 -0.190690	 -0.080707	 -0.073269	 0.374695	 -0.072752	 0.921381	 1
1463570697.150	 0	 -0.928012	 1.022943	 0.115057	 0.775835	 -0.196582	 -0.073258	 -0.076995	 0.379510	 -0.070831	 0.919254	 1
1463570697.160	 0	 -0.885915	 1.138627	 0.097649	 0.788463	 -0.202232	 -0.066068	 -0.080528	 0.385006	 -0.069090	 0.916794	 1
1463570697.170	 0	 -0.833703	 1.120404	 0.099157	 0.801170	 -0.207466	 -0.059219	 -0.083825	 0.390514	 -0.067476	 0.914286	 1
1463570697.180	 0	 -0.826724	 1.011933	 0.104481	 0.813011	 -0.212406	 -0.052402	 -0.087031	 0.395590	 -0.065827	 0.911922	 1
1463570697.190	 0	 -0.909644	 0.851589	 0.106908	 0.823551	 -0.217686	 -0.045072	 -0.090557	 0.400011	 -0.063994	 0.909778	 1
1463570697.200	 0	 -1.021883	 0.539620	 0.162534	 0.831700	 -0.223350	 -0.036556	 -0.094591	 0.403248	 -0.061627	 0.908100	 1
1463570697.210	 0	 -1.116138	 0.171424	 0.245189	 0.836492	 -0.229025	 -0.026687	 -0.099020	 0.404856	 -0.058518	 0.907118	 1
1463570697.220	 0	 -1.204532	 -0.036607	 0.269601	 0.839036	 -0.234934	 -0.015808	 -0.103834	 0.405347	 -0.054904	 0.906586	 1
1463570697.230	 0	 -1.272292	 -0.091147	 0.201475	 0.840803	 -0.241648	 -0.004644	 -0.109094	 0.405406	 -0.051296	 0.906153	 1
1463570697.240	 0	 -1.310766	 -0.002557	 0.082203	 0.843079	 -0.249483	 0.006153	 -0.114775	 0.405635	 -0.048122	 0.905523	 1
1463570697.250	 0	 -1.282254	 0.279245	 -0.060366	 0.847506	 -0.258236	 0.016001	 -0.120630	 0.406810	 -0.045710	 0.904359	 1
1463570697.260	 0	 -1.175139	 0.752951	 -0.255123	 0.855827	 -0.267707	 0.024010	 -0.126350	 0.409774	 -0.044551	 0.902295	 1
1463570697.270	 0	 -1.007871	 1.352676	 -0.501453	 0.869231	 -0.277872	 0.029351	 -0.131721	 0.415116	 -0.045124	 0.899051	 1
1463570697.280	 0	 -0.808315	 2.045599	 -0.789827	 0.888500	 -0.288880	 0.031476	 -0.136644	 0.423207	 -0.047792	 0.894394	 1
1463570697.290	 0	 -0.610610	 2.814965	 -1.097723	 0.914339	 -0.300981	 0.030260	 -0.141114	 0.434336	 -0.052748	 0.888064	 1
1463570697.300	 0	 -0.421206	 3.631181	 -1.401914	 0.947220	 -0.314413	 0.025891	 -0.145146	 0.448636	 -0.060023	 0.879804	 1
1463570697.310	 0	 -0.226091	 4.538749	 -1.720225	 0.987923	 -0.329474	 0.018491	 -0.148707	 0.466344	 -0.069719	 0.869223	 1
1463570697.320	 0	 0.009354	 5.453177	 -2.102770	 1.036632	 -0.346743	 0.007713	 -0.151727	 0.487410	 -0.082161	 0.855956	 1
1463570697.330	 0	 0.296675	 6.270741	 -2.474943	 1.092332	 -0.366511	 -0.006696	 -0.154010	 0.511236	 -0.097466	 0.839892	 1
1463570697.340	 0	 0.644739	 7.044735	 -2.817144	 1.154184	 -0.388769	 -0.024783	 -0.155235	 0.537279	 -0.115568	 0.820901	 1
1463570697.350	 0	 1.017287	 7.605712	 -3.190316	 1.220474	 -0.414003	 -0.046667	 -0.155301	 0.564605	 -0.136459	 0.799051	 1
1463570697.360	 0	 1.327153	 7.768072	 -3.555994	 1.287595	 -0.443032	 -0.071638	 -0.154645	 0.591488	 -0.159736	 0.775056	 1
1463570697.370	 0	 1.552507	 7.633111	 -3.888533	 1.352580	 -0.476197	 -0.098350	 -0.153823	 0.616553	 -0.184699	 0.749725	 1
1463570697.380	 0	 1.757969	 7.308211	 -4.167246	 1.413364	 -0.513315	 -0.126061	 -0.153114	 0.638958	 -0.210835	 0.723766	 1
1463570697.390	 0	 1.978735	 6.831199	 -4.442179	 1.468414	 -0.554132	 -0.154732	 -0.152646	 0.658213	 -0.237908	 0.697750	 1
1463570697.400	 0	 2.142247	 6.091578	 -4.579442	 1.515377	 -0.597967	 -0.184058	 -0.152707	 0.673640	 -0.265367	 0.672659	 1
1463570697.410	 0	 2.218905	 5.273257	 -4.457701	 1.553242	 -0.642125	 -0.213095	 -0.153092	 0.685226	 -0.291903	 0.649478	 1
1463570697.420	 0	 2.277775	 4.515735	 -4.319253	 1.582480	 -0.685603	 -0.241952	 -0.153721	 0.693463	 -0.317213	 0.628374	 1
1463570697.430	 0	 2.305940	 3.764019	 -4.126131	 1.603085	 -0.727900	 -0.270983	 -0.154655	 0.698665	 -0.341200	 0.609534	 1
1463570697.440	 0	 2.268045	 3.190723	 -3.849774	 1.616576	 -0.767988	 -0.299964	 -0.155685	 0.701585	 -0.363547	 0.592768	 1
1463570697.450	 0	 2.212862	 2.771929	 -3.541988	 1.624819	 -0.805231	 -0.328872	 -0.156511	 0.703003	 -0.384188	 0.577660	 1
1463570697.460	 0	 2.208974	 2.410056	 -3.284210	 1.628096	 -0.839943	 -0.358491	 -0.157086	 0.703162	 -0.403471	 0.564002	 1
1463570697.470	 0	 2.182255	 2.030445	 -2.842021	 1.626031	 -0.870801	 -0.389318	 -0.157022	 0.702230	 -0.421119	 0.552156	 1
1463570697.480	 0	 2.135976	 1.747095	 -2.333755	 1.619607	 -0.896446	 -0.421049	 -0.155888	 0.700665	 -0.436773	 0.542215	 1
1463570697.490	 0	 2.148029	 1.431280	 -1.878520	 1.608492	 -0.917263	 -0.454392	 -0.153724	 0.698445	 -0.450798	 0.534158	 1
1463570697.500	 0	 2.133144	 1.059187	 -1.421444	 1.592188	 -0.933245	 -0.489213	 -0.150757	 0.695441	 -0.463214	 0.528268	 1
1463570697.510	 0	 2.041591	 0.738241	 -0.982408	 1.572220	 -0.944379	 -0.524013	 -0.147193	 0.691919	 -0.473860	 0.524442	 1
1463570697.520	 0	 1.904396	 0.503288	 -0.583739	 1.550692	 -0.951004	 -0.557397	 -0.143124	 0.688242	 -0.482746	 0.522298	 1
1463570697.530	 0	 1.706104	 0.259591	 -0.242170	 1.529096	 -0.953683	 -0.587767	 -0.138893	 0.684578	 -0.489821	 0.521669	 1
1463570697.540	 0	 1.536680	 0.083396	 0.032632	 1.508080	 -0.953199	 -0.615047	 -0.134584	 0.680985	 -0.495386	 0.522245	 1
1463570697.550	 0	 1.326842	 -0.034431	 0.273159	 1.488863	 -0.950065	 -0.638530	 -0.130266	 0.677665	 -0.499514	 0.523724	 1
1463570697.560	 0	 1.071141	 -0.122555	 0.484521	 1.472636	 -0.944715	 -0.657267	 -0.126066	 0.674829	 -0.502155	 0.525884	 1
1463570697.570	 0	 0.796338	 -0.164028	 0.667707	 1.460130	 -0.937619	 -0.670781	 -0.122085	 0.672622	 -0.503330	 0.528520	 1
1463570697.580	 0	 0.539903	 -0.154530	 0.846945	 1.451732	 -0.928963	 -0.679267	 -0.118196	 0.671174	 -0.503129	 0.531429	 1
1463570697.590	 0	 0.343173	 -0.143199	 1.009693	 1.446737	 -0.918858	 -0.683699	 -0.114273	 0.670375	 -0.501758	 0.534582	 1
1463570697.600	 0	 0.181481	 -0.135459	 1.131604	 1.444274	 -0.907611	 -0.685067	 -0.110315	 0.670066	 -0.499465	 0.537937	 1
1463570697.610	 0	 0.033560	 -0.116346	 1.214068	 1.444114	 -0.895684	 -0.683709	 -0.106440	 0.670216	 -0.496403	 0.541356	 1
1463570697.620	 0	 -0.064167	 -0.074113	 1.278192	 1.445729	 -0.883205	 -0.680522	 -0.102533	 0.670747	 -0.492785	 0.544746	 1
1463570697.630	 0	 -0.373829	 -0.273722	 1.201230	 1.448896	 -0.871168	 -0.674160	 -0.099477	 0.671531	 -0.488440	 0.548249	 1
1463570697.640	 0	 -1.547992	 -1.490694	 0.699220	 1.452826	 -0.864268	 -0.654043	 -0.102752	 0.671742	 -0.481488	 0.553510	 1
1463570697.650	 0	 -2.690512	 -2.625300	 0.274437	 1.457787	 -0.863491	 -0.616023	 -0.114051	 0.671085	 -0.470977	 0.561087	 1
1463570697.660	 0	 -3.106589	 -2.699618	 0.124964	 1.465922	 -0.865318	 -0.569160	 -0.128543	 0.670477	 -0.458679	 0.568816	 1
1463570697.670	 0	 -3.013903	 -2.091191	 0.168186	 1.479483	 -0.866950	 -0.521812	 -0.141945	 0.671078	 -0.446471	 0.574603	 1
1463570697.680	 0	 -2.551967	 -1.450258	 0.442963	 1.495284	 -0.865511	 -0.480081	 -0.151965	 0.672647	 -0.435225	 0.578819	 1
1463570697.690	 0	 -2.035744	 -0.893038	 0.782566	 1.510787	 -0.860041	 -0.446261	 -0.158078	 0.674869	 -0.425152	 0.582073	 1
1463570697.700	 0	 -1.747315	 -0.651158	 1.106297	 1.525177	 -0.850711	 -0.418045	 -0.161299	 0.677455	 -0.415515	 0.585136	 1
1463570697.710	 0	 -1.771620	 -0.572791	 1.342771	 1.539503	 -0.838505	 -0.390966	 -0.163273	 0.680355	 -0.405314	 0.588371	 1
1463570697.720	 0	 -1.926550	 -0.512749	 1.492820	 1.555270	 -0.824338	 -0.362542	 -0.164888	 0.683770	 -0.394157	 0.591533	 1
1463570697.730	 0	 -2.115160	 -0.512745	 1.563737	 1.572385	 -0.808952	 -0.332097	 -0.166697	 0.687576	 -0.382022	 0.594568	 1
1463570697.740	 0	 -2.061215	 -0.577045	 1.518973	 1.588354	 -0.793423	 -0.302122	 -0.168720	 0.691152	 -0.369747	 0.597603	 1
1463570697.750	 0	 -1.639654	 -0.786843	 1.505889	 1.598446	 -0.777971	 -0.277699	 -0.170094	 0.693480	 -0.358530	 0.601340	 1
1463570697.760	 0	 -1.139003	 -1.244290	 1.548430	 1.599080	 -0.762296	 -0.260803	 -0.170540	 0.693645	 -0.348596	 0.606840	 1
1463570697.770	 0	 -0.945108	 -1.546872	 1.555650	 1.592632	 -0.746389	 -0.248173	 -0.170637	 0.692024	 -0.339200	 0.613946	 1
1463570697.780	 0	 -1.093492	 -1.206079	 1.408768	 1.589249	 -0.732224	 -0.233961	 -0.171308	 0.691024	 -0.330060	 0.619838	 1
1463570697.790	 0	 -1.147925	 -0.663210	 1.299191	 1.591315	 -0.718799	 -0.218949	 -0.171602	 0.691573	 -0.321306	 0.623732	 1
1463570697.800	 0	 -0.937065	 -0.308549	 1.303852	 1.595825	 -0.705600	 -0.206097	 -0.170862	 0.693059	 -0.313448	 0.626279	 1
1463570697.810	 0	 -0.635861	 -0.050775	 1.331338	 1.600349	 -0.692116	 -0.197274	 -0.168660	 0.694931	 -0.306710	 0.628135	 1
1463570697.820	 0	 -0.423472	 0.211049	 1.294620	 1.605471	 -0.679187	 -0.191661	 -0.165468	 0.697214	 -0.301168	 0.629135	 1
1463570697.830	 0	 -0.327482	 0.500482	 1.204822	 1.612140	 -0.666818	 -0.187875	 -0.161624	 0.700084	 -0.296470	 0.629179	 1
1463570697.840	 0	 -0.326162	 0.884602	 1.080493	 1.622029	 -0.655461	 -0.184403	 -0.157570	 0.703897	 -0.292418	 0.627847	 1
1463570697.850	 0	 -0.376866	 1.512949	 0.732949	 1.637827	 -0.646889	 -0.180524	 -0.153777	 0.709279	 -0.289577	 0.624036	 1
1463570697.860	 0	 -0.426864	 2.119718	 0.050548	 1.660660	 -0.644164	 -0.175529	 -0.151354	 0.716220	 -0.288850	 0.616998	 1
1463570697.870	 0	 -0.380077	 2.363207	 -0.820453	 1.687503	 -0.649723	 -0.169751	 -0.151357	 0.723498	 -0.291011	 0.607416	 1
1463570697.880	 0	 -0.187464	 1.708725	 -1.525229	 1.710201	 -0.662920	 -0.164401	 -0.154214	 0.728683	 -0.295690	 0.598169	 1
1463570697.890	 0	 0.247466	 0.216907	 -2.023557	 1.717317	 -0.682032	 -0.162547	 -0.159908	 0.728765	 -0.302323	 0.593239	 1
1463570697.900	 0	 0.555183	 -0.400489	 -2.274098	 1.712565	 -0.704781	 -0.164777	 -0.167041	 0.725199	 -0.310451	 0.591443	 1
1463570697.910	 0	 0.580528	 -0.001738	 -2.278069	 1.708850	 -0.728294	 -0.168267	 -0.173819	 0.721900	 -0.319221	 0.588851	 1
1463570697.920	 0	 0.504541	 0.736603	 -2.135185	 1.712364	 -0.750562	 -0.171168	 -0.179247	 0.720737	 -0.327965	 0.583821	 1
1463570697.930	 0	 0.544358	 1.336582	 -1.958361	 1.722271	 -0.771154	 -0.174285	 -0.182950	 0.721549	 -0.336761	 0.576618	 1
1463570697.940	 0	 0.750398	 1.641578	 -1.764414	 1.734087	 -0.790163	 -0.179895	 -0.184835	 0.723213	 -0.345904	 0.568462	 1
1463570697.950	 0	 1.038200	 1.785307	 -1.482089	 1.744643	 -0.807167	 -0.189746	 -0.184682	 0.725053	 -0.355421	 0.560238	 1
1463570697.960	 0	 1.329182	 1.816157	 -1.070820	 1.751708	 -0.821005	 -0.204811	 -0.182206	 0.726711	 -0.364938	 0.552731	 1
1463570697.970	 0	 1.452317	 1.980701	 -0.624872	 1.757158	 -0.830845	 -0.223653	 -0.177371	 0.728700	 -0.373912	 0.545642	 1
1463570697.980	 0	 1.335774	 2.073092	 -0.252113	 1.763581	 -0.836757	 -0.242928	 -0.170939	 0.731404	 -0.381677	 0.538657	 1
1463570697.990	 0	 0.920557	 1.690481	 -0.086865	 1.770667	 -0.839894	 -0.257801	 -0.165090	 0.734175	 -0.387304	 0.532661	 1
1463570698.000	 0	 0.546661	 1.124953	 -0.048373	 1.776608	 -0.841709	 -0.266852	 -0.161164	 0.736273	 -0.390796	 0.528400	 1
1463570698.010	 0	 0.313535	 0.539856	 -0.011288	 1.779440	 -0.842668	 -0.272197	 -0.158934	 0.737334	 -0.392751	 0.526142	 1
1463570698.020	 0	 0.091764	 0.099378	 0.025977	 1.779751	 -0.842795	 -0.274433	 -0.158087	 0.737578	 -0.393406	 0.525565	 1
1463570698.030	 0	 -0.124099	 -0.197721	 0.036815	 1.779178	 -0.842291	 -0.273463	 -0.158403	 0.737410	 -0.392938	 0.526056	 1
1463570698.040	 0	 -0.269505	 -0.471785	 0.025939	 1.777686	 -0.841528	 -0.270058	 -0.159717	 0.736836	 -0.391668	 0.527408	 1
1463570698.050	 0	 -0.361436	 -0.706777	 -0.002091	 1.774880	 -0.840743	 -0.265098	 -0.161851	 0.735789	 -0.389869	 0.529548	 1
1463570698.060	 0	 -0.416768	 -0.866434	 -0.040397	 1.771124	 -0.840259	 -0.259005	 -0.164672	 0.734352	 -0.387784	 0.532197	 1
1463570698.070	 0	 -0.421320	 -0.909115	 -0.061004	 1.766747	 -0.839985	 -0.252641	 -0.167768	 0.732688	 -0.385631	 0.535080	 1
1463570698.080	 0	 -0.433686	 -0.823922	 -0.051577	 1.763096	 -0.839713	 -0.246173	 -0.170754	 0.731194	 -0.383496	 0.537706	 1
1463570698.090	 0	 -0.434532	 -0.778173	 -0.050079	 1.760051	 -0.839360	 -0.239641	 -0.173613	 0.729854	 -0.381356	 0.540128	 1
1463570698.100	 0	 -0.421522	 -0.705081	 -0.085748	 1.757603	 -0.839294	 -0.233180	 -0.176415	 0.728634	 -0.379372	 0.542261	 1
1463570698.110	 0	 -0.395642	 -0.585512	 -0.160529	 1.756140	 -0.839912	 -0.226847	 -0.179187	 0.727599	 -0.377728	 0.543887	 1
1463570698.120	 0	 -0.333322	 -0.415150	 -0.256471	 1.755858	 -0.841565	 -0.221037	 -0.181860	 0.726793	 -0.376675	 0.544807	 1
1463570698.130	 0	 -0.247412	 -0.214073	 -0.360859	 1.756893	 -0.844342	 -0.216119	 -0.184304	 0.726279	 -0.376359	 0.544890	 1
1463570698.140	 0	 -0.128363	 -0.021428	 -0.441100	 1.758895	 -0.848218	 -0.212564	 -0.186404	 0.726006	 -0.376876	 0.544182	 1
1463570698.150	 0	 -0.009788	 0.069344	 -0.497928	 1.772151	 -0.869596	 -0.202075	 -0.194189	 0.725812	 -0.382474	 0.537774	 1
1463570698.160	 0	 0.095916	 0.106040	 -0.528349	 1.773566	 -0.874860	 -0.201523	 -0.195705	 0.725433	 -0.384232	 0.536481	 1
1463570698.170	 0	 0.180344	 0.136595	 -0.534128	 1.774273	 -0.880412	 -0.202290	 -0.196963	 0.724948	 -0.386370	 0.535139	 1
1463570698.180	 0	 0.228398	 0.146001	 -0.537656	 1.774400	 -0.886116	 -0.203980	 -0.198042	 0.724374	 -0.388745	 0.533797	 1
1463570698.190	 0	 0.210338	 0.187363	 -0.562719	 1.776879	 -0.894783	 -0.204033	 -0.200141	 0.723851	 -0.391904	 0.531409	 1
1463570698.200	 0	 0.140976	 0.246627	 -0.631904	 1.778796	 -0.901072	 -0.204566	 -0.201456	 0.723541	 -0.394338	 0.529530	 1
1463570698.210	 0	 0.094468	 0.211893	 -0.746925	 1.781699	 -0.908310	 -0.203747	 -0.203341	 0.723211	 -0.396830	 0.527394	 1
1463570698.220	 0	 0.112997	 0.169479	 -0.867912	 1.784399	 -0.916696	 -0.202560	 -0.205731	 0.722610	 -0.399590	 0.525203	 1
1463570698.230	 0	 0.127343	 0.169430	 -1.016191	 1.788159	 -0.927846	 -0.200359	 -0.209080	 0.721758	 -0.403117	 0.522348	 1
1463570698.240	 0	 0.132153	 0.206424	 -1.192805	 1.791824	 -0.939314	 -0.198278	 -0.212475	 0.720809	 -0.406776	 0.519444	 1
1463570698.250	 0	 0.192357	 0.238858	 -1.389128	 1.795888	 -0.952812	 -0.196137	 -0.216383	 0.719609	 -0.411140	 0.516047	 1
1463570698.260	 0	 0.257039	 0.221041	 -1.472986	 1.799446	 -0.967583	 -0.194552	 -0.220536	 0.718092	 -0.416016	 0.512483	 1
1463570698.270	 0	 0.271785	 0.245953	 -1.551750	 1.803131	 -0.983089	 -0.192984	 -0.224836	 0.716436	 -0.421150	 0.508725	 1
1463570698.280	 0	 0.269115	 0.208082	 -1.641603	 1.807067	 -0.999459	 -0.190901	 -0.229481	 0.714583	 -0.426464	 0.504815	 1
1463570698.290	 0	 0.293279	 0.200994	 -1.729272	 1.811186	 -1.016736	 -0.188426	 -0.234444	 0.712509	 -0.431995	 0.500747	 1
1463570698.300	 0	 0.379682	 0.233361	 -1.777682	 1.814768	 -1.034797	 -0.186853	 -0.239381	 0.710196	 -0.437940	 0.496515	 1
1463570698.310	 0	 0.496871	 0.418075	 -1.779115	 1.817967	 -1.053139	 -0.187305	 -0.243721	 0.707909	 -0.444415	 0.491894	 1
1463570698.320	 0	 0.599296	 0.684350	 -1.832949	 1.822245	 -1.072183	 -0.189505	 -0.247359	 0.705907	 -0.451652	 0.486332	 1
1463570698.330	 0	 0.677830	 0.865592	 -1.889496	 1.828517	 -1.091721	 -0.192046	 -0.250513	 0.704264	 -0.459349	 0.479849	 1
1463570698.340	 0	 0.766937	 0.887388	 -1.781361	 1.832380	 -1.111219	 -0.197658	 -0.253078	 0.702359	 -0.467424	 0.473454	 1
1463570698.350	 0	 0.760323	 0.977538	 -1.672823	 1.835646	 -1.129669	 -0.204575	 -0.255001	 0.700611	 -0.475338	 0.467089	 1
1463570698.360	 0	 0.655219	 0.906076	 -1.449829	 1.839490	 -1.146068	 -0.210777	 -0.256443	 0.699238	 -0.482452	 0.461024	 1
1463570698.370	 0	 0.585482	 0.318424	 -1.112580	 1.838670	 -1.159256	 -0.217128	 -0.258062	 0.697383	 -0.487944	 0.457134	 1
1463570698.380	 0	 0.613284	 -0.476303	 -0.690715	 1.827196	 -1.168526	 -0.226494	 -0.260179	 0.694226	 -0.491479	 0.456952	 1
1463570698.390	 0	 0.726677	 -1.035903	 -0.224777	 1.804090	 -1.173540	 -0.241661	 -0.262025	 0.689974	 -0.493477	 0.460173	 1
1463570698.400	 0	 0.910676	 -1.281329	 0.179524	 1.771077	 -1.174509	 -0.263979	 -0.262785	 0.685084	 -0.494603	 0.465803	 1
1463570698.410	 0	 0.973041	 -1.115276	 0.369166	 1.734991	 -1.172968	 -0.290236	 -0.262303	 0.680339	 -0.495571	 0.471960	 1
1463570698.420	 0	 0.846097	 -0.698633	 0.424239	 1.704655	 -1.170159	 -0.314365	 -0.260796	 0.676765	 -0.496527	 0.476903	 1
1463570698.430	 0	 0.639995	 -0.235701	 0.377054	 1.683853	 -1.167105	 -0.333179	 -0.258675	 0.674719	 -0.497474	 0.479960	 1
1463570698.440	 0	 0.432301	 0.164069	 0.272808	 1.672628	 -1.164620	 -0.346164	 -0.256322	 0.674078	 -0.498465	 0.481093	 1
1463570698.450	 0	 0.258873	 0.376419	 0.151600	 1.668636	 -1.163109	 -0.354158	 -0.254152	 0.674368	 -0.499466	 0.480800	 1
1463570698.460	 0	 0.148683	 0.422646	 0.028296	 1.668715	 -1.162691	 -0.358637	 -0.252491	 0.675017	 -0.500438	 0.479753	 1
1463570698.470	 0	 0.068928	 0.369635	 -0.117475	 1.653108	 -1.160282	 -0.376866	 -0.249499	 0.673911	 -0.502208	 0.481021	 1
1463570698.480	 0	 0.029042	 0.182551	 -0.264878	 1.655117	 -1.162617	 -0.377264	 -0.249597	 0.674104	 -0.503179	 0.479683	 1
1463570698.490	 0	 0.064861	 -0.119812	 -0.291450	 1.654116	 -1.165619	 -0.377941	 -0.250569	 0.673512	 -0.504018	 0.479128	 1
1463570698.500	 0	 0.084884	 -0.250032	 -0.200115	 1.650123	 -1.167927	 -0.379668	 -0.251724	 0.672435	 -0.504544	 0.479480	 1
1463570698.520	 1	 -0.018569	 0.200138	 0.087402	 1.648250	 -1.168677	 -0.380806	 -0.252051	 0.672021	 -0.504781	 0.479641	 1
1463570698.530	 1	 -0.161868	 0.511804	 0.180008	 1.654985	 -1.166937	 -0.378339	 -0.250631	 0.673577	 -0.504573	 0.478418	 1
1463570698.540	 1	 -0.271622	 0.611546	 0.103025	 1.666518	 -1.165255	 -0.372221	 -0.249258	 0.675813	 -0.504103	 0.476473	 1
1463570698.550	 1	 -0.302163	 0.486177	 -0.183500	 1.679002	 -1.166156	 -0.364469	 -0.249016	 0.677679	 -0.504060	 0.473988	 1
1463570698.560	 1	 -0.268835	 0.290561	 -0.157900	 1.689405	 -1.167632	 -0.356805	 -0.249452	 0.678960	 -0.503948	 0.472043	 1
1463570698.570	 1	 -0.189228	 0.130318	 -0.075889	 1.696241	 -1.168288	 -0.351206	 -0.249834	 0.679771	 -0.503662	 0.470977	 1
1463570698.580	 1	 -0.096999	 -0.019752	 -0.052511	 1.699380	 -1.168694	 -0.347990	 -0.250262	 0.680045	 -0.503409	 0.470624	 1
1463570698.590	 1	 -0.085595	 -0.056245	 -0.093448	 1.700836	 -1.169381	 -0.345707	 -0.250883	 0.679993	 -0.503245	 0.470544	 1
1463570698.600	 1	 -0.148089	 0.066056	 -0.120542	 1.704622	 -1.170393	 -0.341987	 -0.251505	 0.680257	 -0.503127	 0.469956	 1
1463570698.610	 1	 -0.180583	 0.137869	 -0.057776	 1.710233	 -1.170916	 -0.337217	 -0.251876	 0.680891	 -0.502859	 0.469125	 1
1463570698.620	 1	 -0.138502	 0.200916	 -0.007483	 1.729822	 -1.171884	 -0.320284	 -0.253024	 0.683179	 -0.501644	 0.466475	 1
1463570698.630	 1	 -0.086004	 0.263354	 -0.029740	 1.734671	 -1.171931	 -0.317714	 -0.252701	 0.683975	 -0.501672	 0.465452	 1
1463570698.640	 1	 -0.067773	 0.303533	 -0.055103	 1.739478	 -1.172311	 -0.315710	 -0.252294	 0.684777	 -0.501922	 0.464224	 1
1463570698.650	 1	 -0.061367	 0.301410	 -0.051981	 1.744226	 -1.172747	 -0.313869	 -0.251863	 0.685572	 -0.502218	 0.462961	 1
1463570698.660	 1	 -0.050780	 0.266452	 -0.028987	 1.749218	 -1.175924	 -0.311581	 -0.252336	 0.685903	 -0.503232	 0.461108	 1
1463570698.670	 1	 -0.031752	 0.218615	 -0.017875	 1.752478	 -1.176054	 -0.310555	 -0.251906	 0.686503	 -0.503444	 0.460219	 1
1463570698.680	 1	 -0.022426	 0.149540	 -0.005809	 1.754732	 -1.176109	 -0.309923	 -0.251572	 0.686932	 -0.503599	 0.459591	 1
1463570698.690	 1	 -0.035472	 0.079546	 0.017100	 1.756381	 -1.175941	 -0.309181	 -0.251362	 0.687246	 -0.503587	 0.459249	 1
1463570698.700	 1	 -0.054915	 0.013801	 0.036888	 1.756847	 -1.177129	 -0.308861	 -0.251706	 0.687111	 -0.503916	 0.458903	 1
1463570698.710	 1	 -0.078644	 -0.049856	 0.049291	 1.757990	 -1.176543	 -0.307251	 -0.251798	 0.687270	 -0.503520	 0.459048	 1
1463570698.720	 1	 -0.096873	 -0.080540	 0.064085	 1.759130	 -1.175766	 -0.305183	 -0.251993	 0.687404	 -0.502964	 0.459350	 1
1463570698.730	 1	 -0.103305	 -0.091119	 0.069371	 1.760325	 -1.174915	 -0.302918	 -0.252221	 0.687539	 -0.502347	 0.459698	 1
1463570698.740	 1	 -0.108601	 -0.086753	 0.079045	 1.768594	 -1.174040	 -0.294125	 -0.252915	 0.688479	 -0.501116	 0.459254	 1
1463570698.750	 1	 -0.115020	 -0.087782	 0.079092	 1.774159	 -1.172748	 -0.287820	 -0.253316	 0.689183	 -0.499993	 0.459199	 1
1463570698.760	 1	 -0.112868	 -0.082458	 0.079122	 1.778627	 -1.171605	 -0.282560	 -0.253681	 0.689743	 -0.499015	 0.459223	 1
1463570698.770	 1	 -0.097705	 -0.044104	 0.092144	 1.783881	 -1.169717	 -0.276904	 -0.253777	 0.690564	 -0.497823	 0.459229	 1
1463570698.780	 1	 -0.093442	 -0.033579	 0.078355	 1.785944	 -1.168247	 -0.274390	 -0.253708	 0.690979	 -0.497069	 0.459460	 1
1463570698.790	 1	 -0.088277	 -0.056060	 0.061051	 1.785945	 -1.167316	 -0.273639	 -0.253699	 0.691048	 -0.496619	 0.459847	 1
1463570698.800	 1	 -0.082034	 -0.083804	 0.052217	 1.784977	 -1.166336	 -0.273537	 -0.253691	 0.690986	 -0.496180	 0.460417	 1
1463570698.810	 1	 -0.077869	 -0.098784	 0.042455	 1.783897	 -1.165416	 -0.273376	 -0.253749	 0.690879	 -0.495731	 0.461029	 1
1463570698.820	 1	 -0.069335	 -0.097774	 0.039202	 1.783279	 -1.164261	 -0.272791	 -0.253770	 0.690866	 -0.495174	 0.461636	 1
1463570698.830	 1	 -0.059680	 -0.082950	 0.033937	 1.783538	 -1.163083	 -0.271537	 -0.253799	 0.690975	 -0.494565	 0.462110	 1
1463570698.840	 1	 -0.045680	 -0.055344	 0.033006	 1.783871	 -1.162647	 -0.270514	 -0.253944	 0.690999	 -0.494240	 0.462342	 1
1463570698.850	 1	 -0.037086	 -0.037342	 0.025638	 1.784231	 -1.162296	 -0.269681	 -0.254042	 0.691038	 -0.493989	 0.462498	 1
1463570698.860	 1	 -0.030638	 -0.021458	 0.018278	 1.785159	 -1.161413	 -0.268483	 -0.253972	 0.691256	 -0.493565	 0.462663	 1
1463570698.870	 1	 -0.022062	 -0.007700	 0.011943	 1.786068	 -1.160762	 -0.267467	 -0.253911	 0.691452	 -0.493250	 0.462739	 1
1463570698.880	 1	 -0.014568	 0.002868	 0.005587	 1.786621	 -1.160237	 -0.266903	 -0.253819	 0.691602	 -0.493032	 0.462799	 1
1463570698.890	 1	 -0.007023	 0.010312	 0.003352	 1.787266	 -1.159814	 -0.266362	 -0.253725	 0.691757	 -0.492862	 0.462799	 1
1463570698.900	 1	 -0.003809	 0.015598	 0.000177	 1.787566	 -1.159674	 -0.266203	 -0.253665	 0.691831	 -0.492821	 0.462764	 1
1463570698.910	 1	 -0.002747	 0.015587	 -0.000898	 1.787944	 -1.159641	 -0.265989	 -0.253637	 0.691897	 -0.492810	 0.462693	 1
1463570698.920	 1	 -0.002786	 0.010246	 -0.004145	 1.788377	 -1.159616	 -0.265689	 -0.253627	 0.691964	 -0.492788	 0.462623	 1
1463570698.930	 1	 -0.002796	 0.009176	 -0.005221	 1.788982	 -1.159645	 -0.265204	 -0.253654	 0.692037	 -0.492761	 0.462527	 1
1463570698.940	 1	 -0.000692	 0.004901	 -0.007411	 1.789734	 -1.159717	 -0.264551	 -0.253715	 0.692115	 -0.492727	 0.462412	 1
1463570698.950	 1	 0.001431	 0.004882	 -0.009563	 1.790607	 -1.159940	 -0.263792	 -0.253827	 0.692181	 -0.492730	 0.462250	 1
1463570698.960	 1	 0.004612	 0.003788	 -0.012801	 1.791331	 -1.160273	 -0.263171	 -0.253960	 0.692210	 -0.492778	 0.462081	 1
1463570698.970	 1	 0.008872	 0.005873	 -0.017085	 1.791995	 -1.160717	 -0.262627	 -0.254111	 0.692216	 -0.492871	 0.461891	 1
1463570698.980	 1	 0.009942	 0.006935	 -0.017086	 1.792447	 -1.161034	 -0.262295	 -0.254206	 0.692222	 -0.492947	 0.461749	 1
1463570698.990	 1	 0.012062	 0.006907	 -0.020304	 1.792866	 -1.161382	 -0.262002	 -0.254304	 0.692219	 -0.493037	 0.461602	 1
1463570699.000	 1	 0.012076	 0.010099	 -0.020277	 1.793015	 -1.161731	 -0.261983	 -0.254374	 0.692189	 -0.493157	 0.461481	 1
1463570699.010	 1	 0.012096	 0.014354	 -0.020239	 1.793250	 -1.162091	 -0.261914	 -0.254443	 0.692170	 -0.493280	 0.461340	 1
1463570699.020	 1	 0.011023	 0.014351	 -0.021298	 1.793553	 -1.162577	 -0.261792	 -0.254550	 0.692137	 -0.493437	 0.461162	 1
1463570699.030	 1	 0.011016	 0.012232	 -0.020254	 1.793757	 -1.162951	 -0.261748	 -0.254622	 0.692112	 -0.493565	 0.461023	 1
1463570699.040	 1	 0.011014	 0.010120	 -0.018144	 1.793939	 -1.163242	 -0.261703	 -0.254676	 0.692096	 -0.493666	 0.460909	 1
1463570699.050	 1	 0.010993	 0.005866	 -0.018184	 1.794055	 -1.163545	 -0.261696	 -0.254736	 0.692068	 -0.493770	 0.460807	 1
1463570699.060	 1	 0.012061	 0.002704	 -0.013963	 1.794246	 -1.163904	 -0.261585	 -0.254830	 0.692034	 -0.493877	 0.460692	 1
1463570699.070	 1	 0.011000	 0.001668	 -0.010768	 1.794365	 -1.164163	 -0.261533	 -0.254893	 0.692008	 -0.493958	 0.460608	 1
1463570699.080	 1	 0.011003	 0.001677	 -0.009705	 1.794610	 -1.164472	 -0.261358	 -0.254982	 0.691987	 -0.494042	 0.460501	 1
1463570699.090	 1	 0.012087	 0.003817	 -0.007565	 1.794815	 -1.164716	 -0.261232	 -0.255045	 0.691974	 -0.494113	 0.460409	 1
1463570699.100	 1	 0.011052	 0.009156	 -0.005376	 1.795167	 -1.164908	 -0.261017	 -0.255087	 0.691993	 -0.494166	 0.460300	 1
1463570699.110	 1	 0.008947	 0.016602	 -0.006357	 1.795598	 -1.165128	 -0.260785	 -0.255124	 0.692023	 -0.494234	 0.460162	 1
1463570699.120	 1	 0.005755	 0.018739	 -0.006310	 1.795797	 -1.165271	 -0.260790	 -0.255113	 0.692044	 -0.494304	 0.460061	 1
1463570699.130	 1	 0.004696	 0.018758	 -0.004171	 1.796171	 -1.165436	 -0.260627	 -0.255124	 0.692080	 -0.494364	 0.459936	 1
1463570699.140	 1	 0.005764	 0.016652	 -0.001004	 1.796573	 -1.165547	 -0.260434	 -0.255124	 0.692128	 -0.494404	 0.459821	 1
1463570699.150	 1	 0.004693	 0.013488	 0.002172	 1.796895	 -1.165634	 -0.260293	 -0.255118	 0.692168	 -0.494439	 0.459727	 1
1463570699.160	 1	 0.004690	 0.010321	 0.005338	 1.797080	 -1.165707	 -0.260246	 -0.255109	 0.692191	 -0.494474	 0.459659	 1
1463570699.170	 1	 0.004692	 0.009274	 0.007457	 1.797291	 -1.165815	 -0.260160	 -0.255117	 0.692210	 -0.494514	 0.459584	 1
1463570699.180	 1	 0.008963	 0.007157	 0.010595	 1.797328	 -1.165865	 -0.260238	 -0.255096	 0.692219	 -0.494551	 0.459541	 1
1463570699.190	 1	 0.011114	 0.009295	 0.012726	 1.797544	 -1.165833	 -0.260170	 -0.255057	 0.692266	 -0.494553	 0.459490	 1
1463570699.200	 1	 0.014318	 0.010350	 0.012707	 1.797730	 -1.165767	 -0.260151	 -0.254998	 0.692318	 -0.494553	 0.459444	 1
1463570699.210	 1	 0.016475	 0.015664	 0.012738	 1.797960	 -1.165673	 -0.260150	 -0.254915	 0.692388	 -0.494554	 0.459385	 1
1463570699.220	 1	 0.018628	 0.020970	 0.011702	 1.798189	 -1.165588	 -0.260199	 -0.254817	 0.692462	 -0.494568	 0.459312	 1
1463570699.230	 1	 0.020783	 0.023115	 0.014901	 1.798319	 -1.165465	 -0.260377	 -0.254688	 0.692536	 -0.494589	 0.459249	 1
1463570699.240	 1	 0.020782	 0.024172	 0.013843	 1.798402	 -1.165436	 -0.260609	 -0.254579	 0.692590	 -0.494644	 0.459169	 1
1463570699.250	 1	 0.019699	 0.020985	 0.013822	 1.798188	 -1.165394	 -0.261096	 -0.254451	 0.692611	 -0.494716	 0.459131	 1
1463570699.260	 1	 0.019688	 0.017801	 0.014858	 1.797886	 -1.165349	 -0.261640	 -0.254325	 0.692619	 -0.494789	 0.459111	 1
1463570699.270	 1	 0.017544	 0.014624	 0.015911	 1.797449	 -1.165331	 -0.262263	 -0.254212	 0.692601	 -0.494870	 0.459112	 1
1463570699.280	 1	 0.016465	 0.011445	 0.016956	 1.797280	 -1.165219	 -0.262610	 -0.254102	 0.692626	 -0.494895	 0.459108	 1
1463570699.290	 1	 0.016470	 0.013565	 0.015910	 1.797134	 -1.165087	 -0.262944	 -0.253985	 0.692658	 -0.494913	 0.459105	 1
1463570699.300	 1	 0.017541	 0.013570	 0.016966	 1.796892	 -1.165031	 -0.263373	 -0.253880	 0.692668	 -0.494964	 0.459094	 1
1463570699.310	 1	 0.015401	 0.013569	 0.015916	 1.796851	 -1.165016	 -0.263609	 -0.253804	 0.692691	 -0.495009	 0.459053	 1
1463570699.320	 1	 0.013257	 0.012504	 0.014858	 1.796688	 -1.164982	 -0.263945	 -0.253718	 0.692702	 -0.495055	 0.459033	 1
1463570699.330	 1	 0.011094	 0.008241	 0.012704	 1.796526	 -1.164980	 -0.264243	 -0.253654	 0.692703	 -0.495102	 0.459016	 1
1463570699.340	 1	 0.007888	 0.007187	 0.012721	 1.796280	 -1.164949	 -0.264576	 -0.253591	 0.692694	 -0.495138	 0.459025	 1
1463570699.350	 1	 0.006835	 0.009325	 0.013815	 1.796138	 -1.164878	 -0.264824	 -0.253520	 0.692706	 -0.495155	 0.459029	 1
1463570699.360	 1	 0.001526	 0.011499	 0.018142	 1.796230	 -1.164795	 -0.264865	 -0.253459	 0.692747	 -0.495152	 0.459004	 1
1463570699.370	 1	 -0.001734	 0.000856	 0.015938	 1.796049	 -1.164770	 -0.265082	 -0.253422	 0.692737	 -0.495171	 0.459019	 1
1463570699.380	 1	 -0.001812	 -0.016164	 0.015779	 1.795438	 -1.164693	 -0.265533	 -0.253395	 0.692668	 -0.495174	 0.459135	 1
1463570699.390	 1	 -0.005067	 -0.026800	 0.014643	 1.794973	 -1.164563	 -0.265737	 -0.253402	 0.692611	 -0.495122	 0.459273	 1
1463570699.400	 1	 -0.007213	 -0.031032	 0.016753	 1.794800	 -1.164417	 -0.265606	 -0.253449	 0.692580	 -0.495027	 0.459396	 1
1463570699.410	 1	 -0.003987	 -0.025723	 0.016773	 1.794745	 -1.164292	 -0.265413	 -0.253493	 0.692565	 -0.494938	 0.459490	 1
1463570699.420	 1	 -0.003957	 -0.018285	 0.015776	 1.794700	 -1.164148	 -0.265276	 -0.253510	 0.692563	 -0.494857	 0.459570	 1
1463570699.430	 1	 -0.005015	 -0.016154	 0.015804	 1.794684	 -1.164021	 -0.265132	 -0.253528	 0.692564	 -0.494784	 0.459638	 1
1463570699.440	 1	 -0.006083	 -0.017206	 0.016867	 1.794569	 -1.163951	 -0.265077	 -0.253555	 0.692543	 -0.494736	 0.459706	 1
1463570699.450	 1	 -0.008231	 -0.019335	 0.015799	 1.794456	 -1.163832	 -0.264989	 -0.253580	 0.692527	 -0.494665	 0.459793	 1
1463570699.460	 1	 -0.011447	 -0.022517	 0.015795	 1.794310	 -1.163775	 -0.264891	 -0.253634	 0.692491	 -0.494607	 0.459880	 1
1463570699.470	 1	 -0.014653	 -0.022515	 0.014756	 1.794425	 -1.163664	 -0.264540	 -0.253695	 0.692493	 -0.494508	 0.459950	 1
1463570699.480	 1	 -0.016777	 -0.020381	 0.014793	 1.794604	 -1.163552	 -0.264137	 -0.253758	 0.692503	 -0.494404	 0.460012	 1
1463570699.490	 1	 -0.018922	 -0.022502	 0.014790	 1.794838	 -1.163442	 -0.263659	 -0.253834	 0.692516	 -0.494291	 0.460072	 1
1463570699.500	 1	 -0.017852	 -0.022496	 0.015846	 1.795135	 -1.163304	 -0.263118	 -0.253908	 0.692540	 -0.494162	 0.460133	 1
1463570699.510	 1	 -0.016792	 -0.024618	 0.016881	 1.795415	 -1.163144	 -0.262587	 -0.253977	 0.692566	 -0.494027	 0.460201	 1
1463570699.520	 1	 -0.016804	 -0.027801	 0.017916	 1.795599	 -1.163002	 -0.262126	 -0.254051	 0.692575	 -0.493902	 0.460281	 1
1463570699.530	 1	 -0.020002	 -0.028840	 0.020063	 1.795710	 -1.162890	 -0.261706	 -0.254137	 0.692567	 -0.493786	 0.460370	 1
1463570699.540	 1	 -0.018912	 -0.026692	 0.023269	 1.795878	 -1.162726	 -0.261249	 -0.254206	 0.692578	 -0.493652	 0.460460	 1
1463570699.550	 1	 -0.018927	 -0.028827	 0.022181	 1.796026	 -1.162583	 -0.260795	 -0.254286	 0.692579	 -0.493523	 0.460551	 1
1463570699.560	 1	 -0.018931	 -0.030937	 0.024290	 1.796415	 -1.162418	 -0.260100	 -0.254384	 0.692610	 -0.493363	 0.460623	 1
1463570699.570	 1	 -0.017855	 -0.028812	 0.024299	 1.796653	 -1.162183	 -0.259563	 -0.254444	 0.692639	 -0.493198	 0.460723	 1
1463570699.580	 1	 -0.017852	 -0.027747	 0.024307	 1.796934	 -1.161988	 -0.258998	 -0.254515	 0.692666	 -0.493045	 0.460806	 1
1463570699.590	 1	 -0.016768	 -0.024551	 0.025391	 1.797280	 -1.161765	 -0.258407	 -0.254570	 0.692711	 -0.492886	 0.460879	 1
1463570699.600	 1	 -0.015683	 -0.021354	 0.026476	 1.797496	 -1.161499	 -0.257958	 -0.254596	 0.692751	 -0.492729	 0.460971	 1
1463570699.610	 1	 -0.013531	 -0.017105	 0.026497	 1.797841	 -1.161180	 -0.257449	 -0.254597	 0.692823	 -0.492559	 0.461044	 1
1463570699.630	 2	 -0.012484	 -0.016081	 0.021167	 1.798365	 -1.160719	 -0.256612	 -0.254626	 0.692920	 -0.492294	 0.461166	 1
1463570699.640	 2	 -0.012479	 -0.015017	 0.021176	 1.798440	 -1.160521	 -0.256367	 -0.254636	 0.692942	 -0.492187	 0.461242	 1
1463570699.650	 2	 -0.011412	 -0.013964	 0.020110	 1.798543	 -1.160308	 -0.256114	 -0.254638	 0.692972	 -0.492077	 0.461314	 1
1463570699.660	 2	 -0.013550	 -0.011853	 0.016950	 1.798743	 -1.160138	 -0.255782	 -0.254655	 0.693006	 -0.491974	 0.461362	 1
1463570699.670	 2	 -0.017883	 -0.021443	 0.012634	 1.799191	 -1.159997	 -0.255156	 -0.254721	 0.693055	 -0.491844	 0.461391	 1
1463570699.680	 2	 -0.020032	 -0.020403	 0.008399	 1.799731	 -1.159888	 -0.254391	 -0.254822	 0.693102	 -0.491703	 0.461414	 1
1463570699.690	 2	 -0.013555	 -0.004466	 0.008490	 1.800174	 -1.159764	 -0.253859	 -0.254862	 0.693159	 -0.491600	 0.461417	 1
1463570699.700	 2	 -0.009276	 -0.000240	 0.006361	 1.800367	 -1.159661	 -0.253650	 -0.254858	 0.693195	 -0.491545	 0.461424	 1
1463570699.710	 2	 -0.005006	 -0.001309	 0.007380	 1.800277	 -1.159570	 -0.253710	 -0.254834	 0.693198	 -0.491519	 0.461459	 1
1463570699.720	 2	 -0.001819	 -0.003454	 0.006265	 1.800210	 -1.159544	 -0.253746	 -0.254830	 0.693192	 -0.491511	 0.461479	 1
1463570699.730	 2	 -0.002906	 -0.007706	 0.006235	 1.800113	 -1.159501	 -0.253773	 -0.254832	 0.693181	 -0.491492	 0.461515	 1
1463570699.740	 2	 -0.005030	 -0.004516	 0.005216	 1.800256	 -1.159481	 -0.253573	 -0.254861	 0.693192	 -0.491458	 0.461519	 1
1463570699.750	 2	 -0.006084	 -0.002377	 0.006309	 1.800484	 -1.159486	 -0.253322	 -0.254893	 0.693212	 -0.491430	 0.461501	 1
1463570699.760	 2	 -0.009272	 -0.000232	 0.007421	 1.800797	 -1.159442	 -0.253002	 -0.254915	 0.693251	 -0.491383	 0.461480	 1
1463570699.770	 2	 -0.007162	 -0.003444	 0.005240	 1.800993	 -1.159437	 -0.252779	 -0.254942	 0.693269	 -0.491355	 0.461468	 1
1463570699.780	 2	 -0.007152	 -0.002373	 0.006314	 1.801104	 -1.159426	 -0.252638	 -0.254961	 0.693278	 -0.491334	 0.461466	 1
1463570699.790	 2	 -0.007157	 -0.001324	 0.004190	 1.801398	 -1.159431	 -0.252337	 -0.254994	 0.693307	 -0.491303	 0.461437	 1
1463570699.800	 2	 -0.007152	 0.000796	 0.003142	 1.801727	 -1.159477	 -0.252014	 -0.255039	 0.693333	 -0.491285	 0.461393	 1
1463570699.810	 2	 -0.006081	 0.001857	 0.003141	 1.801975	 -1.159486	 -0.251781	 -0.255061	 0.693359	 -0.491265	 0.461363	 1
1463570699.820	 2	 -0.005018	 0.001847	 0.002064	 1.802226	 -1.159511	 -0.251543	 -0.255089	 0.693382	 -0.491250	 0.461328	 1
1463570699.830	 2	 -0.003966	 -0.001348	 0.002024	 1.802262	 -1.159542	 -0.251495	 -0.255106	 0.693379	 -0.491253	 0.461321	 1
1463570699.840	 2	 -0.006096	 -0.001334	 0.003108	 1.802395	 -1.159521	 -0.251338	 -0.255122	 0.693393	 -0.491227	 0.461318	 1
1463570699.850	 2	 -0.003954	 -0.001324	 0.005219	 1.802536	 -1.159528	 -0.251184	 -0.255142	 0.693405	 -0.491212	 0.461306	 1
1463570699.860	 2	 -0.002889	 -0.002383	 0.006265	 1.802810	 -1.159489	 -0.250916	 -0.255157	 0.693441	 -0.491173	 0.461285	 1
1463570699.870	 2	 0.000320	 -0.001320	 0.007310	 1.803019	 -1.159481	 -0.250711	 -0.255174	 0.693465	 -0.491150	 0.461264	 1
1463570699.880	 2	 0.003529	 0.000799	 0.007300	 1.803212	 -1.159481	 -0.250550	 -0.255183	 0.693489	 -0.491138	 0.461237	 1
1463570699.890	 2	 0.005717	 0.004008	 0.005082	 1.803410	 -1.159465	 -0.250421	 -0.255174	 0.693520	 -0.491128	 0.461203	 1
1463570699.900	 2	 0.007865	 0.006137	 0.006148	 1.803481	 -1.159429	 -0.250441	 -0.255140	 0.693546	 -0.491131	 0.461181	 1
1463570699.910	 2	 0.006810	 0.008276	 0.007242	 1.803605	 -1.159424	 -0.250438	 -0.255109	 0.693575	 -0.491145	 0.461140	 1
1463570699.920	 2	 0.005758	 0.011471	 0.007280	 1.803634	 -1.159412	 -0.250531	 -0.255066	 0.693596	 -0.491166	 0.461110	 1
1463570699.930	 2	 0.005764	 0.013591	 0.006232	 1.803695	 -1.159458	 -0.250623	 -0.255032	 0.693613	 -0.491209	 0.461056	 1
1463570699.940	 2	 0.002562	 0.013600	 0.006258	 1.803871	 -1.159485	 -0.250609	 -0.255001	 0.693647	 -0.491236	 0.460993	 1
1463570699.950	 2	 0.002577	 0.016791	 0.006287	 1.803947	 -1.159500	 -0.250704	 -0.254954	 0.693674	 -0.491273	 0.460940	 1
1463570699.960	 2	 0.001505	 0.016787	 0.005230	 1.804091	 -1.159486	 -0.250732	 -0.254905	 0.693713	 -0.491293	 0.460886	 1
1463570699.970	 2	 0.001486	 0.013588	 0.004133	 1.804251	 -1.159516	 -0.250734	 -0.254874	 0.693745	 -0.491323	 0.460824	 1
1463570699.980	 2	 0.002533	 0.010387	 0.003027	 1.804316	 -1.159559	 -0.250792	 -0.254849	 0.693760	 -0.491358	 0.460778	 1
1463570699.990	 2	 0.001476	 0.011461	 0.004110	 1.804410	 -1.159592	 -0.250817	 -0.254828	 0.693778	 -0.491385	 0.460733	 1
1463570700.000	 2	 0.001480	 0.012525	 0.004118	 1.804627	 -1.159635	 -0.250740	 -0.254813	 0.693811	 -0.491409	 0.460667	 1
1463570700.010	 2	 0.001470	 0.011454	 0.003041	 1.804712	 -1.159679	 -0.250778	 -0.254791	 0.693827	 -0.491441	 0.460619	 1
1463570700.020	 2	 0.001464	 0.009334	 0.004086	 1.804814	 -1.159687	 -0.250781	 -0.254767	 0.693850	 -0.491458	 0.460581	 1
1463570700.030	 2	 0.001478	 0.010414	 0.006226	 1.804887	 -1.159719	 -0.250818	 -0.254746	 0.693866	 -0.491485	 0.460540	 1
1463570700.040	 2	 -0.001739	 0.006176	 0.007279	 1.804939	 -1.159731	 -0.250848	 -0.254726	 0.693879	 -0.491502	 0.460512	 1
1463570700.050	 2	 -0.002822	 0.000876	 0.009369	 1.804822	 -1.159721	 -0.250979	 -0.254706	 0.693871	 -0.491515	 0.460523	 1
1463570700.060	 2	 -0.001774	 -0.003382	 0.009319	 1.804748	 -1.159718	 -0.251032	 -0.254705	 0.693861	 -0.491517	 0.460536	 1
1463570700.070	 2	 -0.002854	 -0.007618	 0.011419	 1.804805	 -1.159654	 -0.250924	 -0.254711	 0.693872	 -0.491479	 0.460556	 1
1463570700.080	 2	 -0.003903	 -0.004415	 0.012523	 1.804888	 -1.159562	 -0.250803	 -0.254706	 0.693892	 -0.491434	 0.460577	 1
1463570700.090	 2	 -0.003903	 -0.004415	 0.012522	 1.804924	 -1.159496	 -0.250727	 -0.254705	 0.693903	 -0.491401	 0.460596	 1
1463570700.100	 2	 -0.004971	 -0.005468	 0.013585	 1.805015	 -1.159432	 -0.250592	 -0.254711	 0.693918	 -0.491362	 0.460611	 1
1463570700.110	 2	 -0.006038	 -0.005464	 0.013593	 1.805048	 -1.159350	 -0.250496	 -0.254713	 0.693929	 -0.491319	 0.460641	 1
1463570700.120	 2	 -0.009258	 -0.007597	 0.011468	 1.805169	 -1.159331	 -0.250299	 -0.254746	 0.693935	 -0.491283	 0.460651	 1
1463570700.130	 2	 -0.009264	 -0.008661	 0.011456	 1.805274	 -1.159279	 -0.250100	 -0.254775	 0.693943	 -0.491235	 0.460675	 1
1463570700.140	 2	 -0.011393	 -0.007591	 0.011483	 1.805439	 -1.159224	 -0.249841	 -0.254809	 0.693958	 -0.491180	 0.460692	 1
1463570700.150	 2	 -0.013510	 -0.001225	 0.008363	 1.805787	 -1.159114	 -0.249457	 -0.254825	 0.694009	 -0.491102	 0.460689	 1
1463570700.160	 2	 -0.012429	 0.001963	 0.008383	 1.806109	 -1.158996	 -0.249121	 -0.254829	 0.694062	 -0.491030	 0.460684	 1
1463570700.170	 2	 -0.011385	 -0.002303	 0.007268	 1.806229	 -1.158952	 -0.248970	 -0.254840	 0.694078	 -0.490997	 0.460689	 1
1463570700.180	 2	 -0.012443	 -0.000172	 0.007295	 1.806531	 -1.158915	 -0.248649	 -0.254866	 0.694113	 -0.490950	 0.460671	 1
1463570700.190	 2	 -0.010315	 -0.003354	 0.009377	 1.806744	 -1.158871	 -0.248399	 -0.254889	 0.694139	 -0.490906	 0.460667	 1
1463570700.200	 2	 -0.011381	 -0.002295	 0.008329	 1.806894	 -1.158830	 -0.248198	 -0.254910	 0.694155	 -0.490866	 0.460673	 1
1463570700.210	 2	 -0.011393	 -0.005478	 0.009363	 1.807194	 -1.158815	 -0.247836	 -0.254957	 0.694181	 -0.490817	 0.460661	 1
1463570700.220	 2	 -0.013537	 -0.007599	 0.009360	 1.807442	 -1.158777	 -0.247501	 -0.255002	 0.694202	 -0.490760	 0.460665	 1
1463570700.240	 3	 -0.015685	 -0.011831	 0.011468	 1.807990	 -1.158618	 -0.246696	 -0.255102	 0.694254	 -0.490596	 0.460705	 1
1463570700.250	 3	 -0.018882	 -0.011813	 0.012561	 1.808265	 -1.158512	 -0.246273	 -0.255151	 0.694283	 -0.490501	 0.460736	 1
1463570700.260	 3	 -0.016752	 -0.011828	 0.011476	 1.808470	 -1.158378	 -0.245922	 -0.255185	 0.694310	 -0.490405	 0.460779	 1
1463570700.270	 3	 -0.017792	 -0.009666	 0.015767	 1.808702	 -1.158269	 -0.245557	 -0.255224	 0.694337	 -0.490317	 0.460810	 1
1463570700.280	 3	 -0.018884	 -0.013925	 0.014668	 1.809095	 -1.158199	 -0.245025	 -0.255293	 0.694372	 -0.490223	 0.460819	 1
1463570700.290	 3	 -0.018854	 -0.014982	 0.014623	 1.809330	 -1.158099	 -0.244615	 -0.255349	 0.694392	 -0.490129	 0.460858	 1
1463570700.300	 3	 -0.018845	 -0.013910	 0.015697	 1.809652	 -1.157974	 -0.244129	 -0.255403	 0.694427	 -0.490019	 0.460892	 1
1463570700.310	 3	 -0.019898	 -0.011772	 0.016791	 1.809838	 -1.157837	 -0.243781	 -0.255440	 0.694450	 -0.489921	 0.460941	 1
1463570700.320	 3	 -0.020985	 -0.014967	 0.015704	 1.810211	 -1.157672	 -0.243245	 -0.255488	 0.694498	 -0.489794	 0.460977	 1
1463570700.330	 3	 -0.020984	 -0.013911	 0.014647	 1.810538	 -1.157551	 -0.242752	 -0.255545	 0.694532	 -0.489686	 0.461009	 1
1463570700.340	 3	 -0.021009	 -0.018173	 0.013540	 1.810885	 -1.157470	 -0.242202	 -0.255628	 0.694557	 -0.489579	 0.461040	 1
1463570700.350	 3	 -0.018885	 -0.019251	 0.012445	 1.811136	 -1.157367	 -0.241738	 -0.255699	 0.694574	 -0.489472	 0.461088	 1
1463570700.360	 3	 -0.017822	 -0.019262	 0.011369	 1.811380	 -1.157224	 -0.241279	 -0.255758	 0.694598	 -0.489354	 0.461145	 1
1463570700.370	 3	 -0.012466	 -0.012911	 0.009249	 1.811630	 -1.157140	 -0.240880	 -0.255812	 0.694620	 -0.489268	 0.461173	 1
1463570700.380	 3	 -0.012460	 -0.009735	 0.007147	 1.811870	 -1.157050	 -0.240518	 -0.255854	 0.694645	 -0.489187	 0.461197	 1
1463570700.390	 3	 -0.011364	 -0.004412	 0.008252	 1.812139	 -1.156993	 -0.240182	 -0.255889	 0.694674	 -0.489127	 0.461198	 1
1463570700.400	 3	 -0.010292	 -0.003351	 0.008252	 1.812344	 -1.156878	 -0.239933	 -0.255892	 0.694711	 -0.489060	 0.461211	 1
1463570700.410	 3	 -0.009237	 -0.006537	 0.009280	 1.812556	 -1.156734	 -0.239656	 -0.255896	 0.694751	 -0.488979	 0.461235	 1
1463570700.420	 3	 -0.010298	 -0.004415	 0.008243	 1.812719	 -1.156625	 -0.239441	 -0.255900	 0.694781	 -0.488917	 0.461253	 1
1463570700.430	 3	 -0.013501	 -0.005461	 0.009326	 1.812962	 -1.156553	 -0.239137	 -0.255926	 0.694811	 -0.488856	 0.461258	 1
1463570700.440	 3	 -0.010322	 -0.008677	 0.007135	 1.813056	 -1.156558	 -0.238944	 -0.255972	 0.694807	 -0.488825	 0.461272	 1
1463570700.450	 3	 -0.013534	 -0.010795	 0.007142	 1.813206	 -1.156538	 -0.238670	 -0.256025	 0.694810	 -0.488775	 0.461291	 1
1463570700.460	 3	 -0.015617	 -0.009804	 0.010497	 1.813432	 -1.156487	 -0.238326	 -0.256074	 0.694828	 -0.488708	 0.461307	 1
1463570700.470	 3	 -0.017758	 -0.008757	 0.007328	 1.813672	 -1.156420	 -0.237970	 -0.256120	 0.694850	 -0.488637	 0.461324	 1
1463570700.480	 3	 -0.014542	 -0.006631	 0.008384	 1.813857	 -1.156354	 -0.237681	 -0.256157	 0.694867	 -0.488573	 0.461344	 1
1463570700.490	 3	 -0.013471	 -0.006627	 0.009440	 1.814120	 -1.156278	 -0.237330	 -0.256193	 0.694897	 -0.488503	 0.461354	 1
1463570700.500	 3	 -0.011338	 -0.005577	 0.008365	 1.814576	 -1.156199	 -0.236830	 -0.256234	 0.694953	 -0.488422	 0.461334	 1
1463570700.510	 3	 -0.009193	 -0.002399	 0.007309	 1.814927	 -1.156157	 -0.236459	 -0.256265	 0.694994	 -0.488368	 0.461312	 1
1463570700.520	 3	 -0.008112	 0.000789	 0.007328	 1.815305	 -1.156128	 -0.236090	 -0.256293	 0.695039	 -0.488322	 0.461276	 1
1463570700.530	 3	 -0.005979	 0.000783	 0.007308	 1.815568	 -1.156084	 -0.235843	 -0.256302	 0.695076	 -0.488286	 0.461254	 1
1463570700.540	 3	 -0.004912	 -0.000276	 0.008354	 1.815656	 -1.156036	 -0.235749	 -0.256300	 0.695093	 -0.488261	 0.461257	 1
1463570700.550	 3	 -0.002789	 -0.003466	 0.009371	 1.815737	 -1.155993	 -0.235649	 -0.256302	 0.695107	 -0.488235	 0.461262	 1
1463570700.560	 3	 -0.001735	 -0.008764	 0.012509	 1.815714	 -1.155939	 -0.235606	 -0.256308	 0.695106	 -0.488205	 0.461291	 1
1463570700.570	 3	 0.000388	 -0.011953	 0.013525	 1.815607	 -1.155854	 -0.235610	 -0.256309	 0.695097	 -0.488166	 0.461345	 1
1463570700.580	 3	 -0.000669	 -0.009823	 0.013554	 1.815558	 -1.155768	 -0.235570	 -0.256310	 0.695097	 -0.488124	 0.461389	 1
1463570700.590	 3	 -0.001706	 -0.001325	 0.011509	 1.815844	 -1.155709	 -0.235282	 -0.256324	 0.695137	 -0.488076	 0.461372	 1
1463570700.601	 3	 0.000451	 0.003988	 0.011538	 1.816165	 -1.155675	 -0.235029	 -0.256324	 0.695185	 -0.488048	 0.461330	 1
1463570700.611	 3	 -0.000590	 0.011422	 0.009483	 1.816512	 -1.155645	 -0.234801	 -0.256310	 0.695241	 -0.488031	 0.461271	 1
1463570700.621	 3	 0.000492	 0.015666	 0.008446	 1.816812	 -1.155620	 -0.234669	 -0.256276	 0.695298	 -0.488031	 0.461204	 1
1463570700.631	 3	 -0.001603	 0.017647	 0.007539	 1.817164	 -1.155572	 -0.234504	 -0.256234	 0.695367	 -0.488024	 0.461132	 1
1463570700.641	 3	 -0.000546	 0.016573	 0.006454	 1.817413	 -1.155516	 -0.234428	 -0.256184	 0.695425	 -0.488021	 0.461075	 1
1463570700.651	 3	 -0.000565	 0.014430	 0.004302	 1.817607	 -1.155516	 -0.234395	 -0.256148	 0.695465	 -0.488038	 0.461015	 1
1463570700.661	 3	 0.000468	 0.009093	 0.002110	 1.817748	 -1.155622	 -0.234374	 -0.256151	 0.695475	 -0.488084	 0.460950	 1
1463570700.671	 3	 0.002604	 0.011199	 -0.000022	 1.817904	 -1.155718	 -0.234339	 -0.256152	 0.695489	 -0.488126	 0.460884	 1
1463570700.681	 3	 0.000493	 0.014412	 0.002157	 1.818134	 -1.155752	 -0.234258	 -0.256133	 0.695526	 -0.488146	 0.460818	 1
1463570700.691	 3	 0.000507	 0.017603	 0.002186	 1.818435	 -1.155780	 -0.234144	 -0.256107	 0.695575	 -0.488168	 0.460735	 1
1463570700.700	 3	 0.000507	 0.017603	 0.002185	 1.818631	 -1.155825	 -0.234134	 -0.256075	 0.695611	 -0.488204	 0.460660	 1
1463570700.710	 3	 0.000510	 0.015499	 0.005362	 1.818776	 -1.155788	 -0.234157	 -0.256022	 0.695654	 -0.488217	 0.460611	 1
1463570700.721	 3	 -0.000568	 0.011263	 0.007462	 1.818782	 -1.155840	 -0.234277	 -0.255993	 0.695661	 -0.488261	 0.460569	 1
1463570700.731	 3	 -0.001670	 0.003820	 0.007401	 1.818802	 -1.155894	 -0.234316	 -0.255990	 0.695661	 -0.488289	 0.460542	 1
1463570700.741	 3	 -0.001710	 -0.004689	 0.007321	 1.818746	 -1.155922	 -0.234342	 -0.256003	 0.695646	 -0.488297	 0.460549	 1
1463570700.751	 3	 -0.003873	 -0.010009	 0.006223	 1.818576	 -1.155984	 -0.234415	 -0.256036	 0.695605	 -0.488311	 0.460578	 1
1463570700.761	 3	 -0.006022	 -0.013194	 0.006210	 1.818580	 -1.156044	 -0.234284	 -0.256097	 0.695578	 -0.488300	 0.460596	 1
1463570700.771	 3	 -0.008153	 -0.014235	 0.008348	 1.818598	 -1.156082	 -0.234113	 -0.256163	 0.695553	 -0.488275	 0.460624	 1
1463570700.781	 3	 -0.009182	 -0.013294	 0.008465	 1.818571	 -1.156073	 -0.233980	 -0.256213	 0.695532	 -0.488238	 0.460667	 1
1463570700.790	 3	 -0.009152	 -0.006912	 0.008523	 1.818730	 -1.155990	 -0.233725	 -0.256240	 0.695551	 -0.488174	 0.460691	 1
1463570700.800	 3	 -0.011277	 -0.004778	 0.008561	 1.818984	 -1.155907	 -0.233411	 -0.256264	 0.695584	 -0.488108	 0.460697	 1
1463570700.811	 3	 -0.013395	 -0.000525	 0.007553	 1.819292	 -1.155852	 -0.233066	 -0.256294	 0.695621	 -0.488051	 0.460685	 1
1463570700.821	 3	 -0.011261	 -0.000531	 0.007533	 1.819505	 -1.155821	 -0.232829	 -0.256315	 0.695646	 -0.488014	 0.460675	 1
1463570700.831	 3	 -0.010218	 -0.004797	 0.006418	 1.819640	 -1.155799	 -0.232641	 -0.256342	 0.695657	 -0.487982	 0.460679	 1
1463570700.841	 3	 -0.008077	 -0.001628	 0.004297	 1.819792	 -1.155759	 -0.232448	 -0.256360	 0.695674	 -0.487944	 0.460681	 1
1463570700.851	 3	 -0.007015	 -0.002695	 0.004277	 1.819870	 -1.155751	 -0.232336	 -0.256378	 0.695679	 -0.487926	 0.460683	 1
1463570700.861	 3	 -0.004895	 -0.005892	 0.004228	 1.819858	 -1.155772	 -0.232280	 -0.256406	 0.695666	 -0.487918	 0.460696	 1
1463570700.871	 3	 -0.002753	 -0.005883	 0.006340	 1.819946	 -1.155765	 -0.232136	 -0.256433	 0.695669	 -0.487894	 0.460702	 1
1463570700.881	 3	 -0.004892	 -0.005884	 0.005292	 1.820027	 -1.155776	 -0.231994	 -0.256466	 0.695667	 -0.487875	 0.460706	 1
1463570700.891	 3	 -0.004873	 -0.003741	 0.007442	 1.820199	 -1.155777	 -0.231785	 -0.256497	 0.695680	 -0.487850	 0.460697	 1
1463570700.901	 3	 -0.004869	 -0.002677	 0.007450	 1.820449	 -1.155776	 -0.231514	 -0.256530	 0.695703	 -0.487819	 0.460677	 1
1463570700.911	 3	 -0.004884	 -0.004812	 0.006363	 1.820643	 -1.155778	 -0.231287	 -0.256562	 0.695718	 -0.487792	 0.460664	 1
1463570700.921	 3	 -0.008085	 -0.003746	 0.005334	 1.820900	 -1.155761	 -0.230996	 -0.256596	 0.695743	 -0.487753	 0.460649	 1
1463570700.931	 3	 -0.010172	 -0.005992	 0.008713	 1.821058	 -1.155725	 -0.230776	 -0.256624	 0.695758	 -0.487711	 0.460656	 1
1463570700.941	 3	 -0.012317	 -0.008113	 0.008711	 1.821237	 -1.155664	 -0.230504	 -0.256657	 0.695775	 -0.487653	 0.460672	 1
1463570700.951	 3	 -0.014447	 -0.008099	 0.009795	 1.821480	 -1.155595	 -0.230165	 -0.256697	 0.695801	 -0.487584	 0.460684	 1
1463570700.961	 3	 -0.014448	 -0.009155	 0.010851	 1.821633	 -1.155487	 -0.229896	 -0.256723	 0.695821	 -0.487509	 0.460718	 1
1463570700.971	 3	 -0.014452	 -0.009163	 0.009784	 1.821911	 -1.155431	 -0.229512	 -0.256773	 0.695846	 -0.487438	 0.460727	 1
1463570700.981	 3	 -0.013381	 -0.009158	 0.010840	 1.822229	 -1.155346	 -0.229099	 -0.256815	 0.695883	 -0.487358	 0.460734	 1
1463570700.991	 3	 -0.011262	 -0.012355	 0.010790	 1.822388	 -1.155291	 -0.228814	 -0.256861	 0.695893	 -0.487295	 0.460760	 1
1463570701.001	 3	 -0.009124	 -0.011298	 0.010781	 1.822623	 -1.155202	 -0.228474	 -0.256897	 0.695919	 -0.487220	 0.460779	 1
1463570701.011	 3	 -0.009125	 -0.012353	 0.011836	 1.822764	 -1.155102	 -0.228209	 -0.256926	 0.695937	 -0.487146	 0.460814	 1
1463570701.021	 3	 -0.010192	 -0.011294	 0.010789	 1.822970	 -1.155025	 -0.227889	 -0.256966	 0.695957	 -0.487075	 0.460836	 1
1463570701.031	 3	 -0.011255	 -0.010227	 0.010807	 1.823206	 -1.154922	 -0.227542	 -0.257001	 0.695986	 -0.486993	 0.460860	 1
1463570701.041	 3	 -0.010177	 -0.007047	 0.009761	 1.823404	 -1.154847	 -0.227267	 -0.257027	 0.696010	 -0.486932	 0.460873	 1
1463570701.051	 3	 -0.009094	 -0.002803	 0.008724	 1.823610	 -1.154823	 -0.227017	 -0.257057	 0.696030	 -0.486893	 0.460867	 1
1463570701.061	 3	 -0.006954	 -0.000690	 0.007659	 1.823689	 -1.154774	 -0.226916	 -0.257060	 0.696044	 -0.486865	 0.460874	 1
1463570701.071	 3	 -0.005897	 -0.002820	 0.007629	 1.823748	 -1.154734	 -0.226816	 -0.257069	 0.696052	 -0.486837	 0.460887	 1
1463570701.081	 3	 -0.003763	 -0.003883	 0.008666	 1.823666	 -1.154684	 -0.226852	 -0.257062	 0.696047	 -0.486820	 0.460916	 1
1463570701.091	 3	 -0.004773	 -0.007203	 0.009879	 1.823660	 -1.154598	 -0.226788	 -0.257062	 0.696054	 -0.486777	 0.460951	 1
1463570701.101	 3	 -0.003708	 -0.009318	 0.011981	 1.823561	 -1.154476	 -0.226795	 -0.257050	 0.696054	 -0.486728	 0.461009	 1
1463570701.111	 3	 -0.006918	 -0.010380	 0.010933	 1.823473	 -1.154414	 -0.226771	 -0.257062	 0.696042	 -0.486692	 0.461058	 1
1463570701.121	 3	 -0.009066	 -0.012509	 0.009865	 1.823481	 -1.154379	 -0.226632	 -0.257098	 0.696033	 -0.486650	 0.461096	 1
1463570701.131	 3	 -0.008013	 -0.013591	 0.007713	 1.823547	 -1.154380	 -0.226426	 -0.257155	 0.696021	 -0.486612	 0.461123	 1
1463570701.141	 3	 -0.008022	 -0.014663	 0.006636	 1.823530	 -1.154432	 -0.226283	 -0.257223	 0.695989	 -0.486593	 0.461153	 1
1463570701.151	 3	 -0.009111	 -0.015754	 0.002371	 1.823531	 -1.154523	 -0.226106	 -0.257310	 0.695950	 -0.486580	 0.461177	 1
1463570701.161	 3	 -0.008051	 -0.014717	 -0.000828	 1.823670	 -1.154664	 -0.225811	 -0.257418	 0.695918	 -0.486574	 0.461172	 1
1463570701.171	 3	 -0.009123	 -0.014721	 -0.001887	 1.823918	 -1.154839	 -0.225416	 -0.257544	 0.695892	 -0.486569	 0.461146	 1
1463570701.181	 3	 -0.010195	 -0.014725	 -0.002946	 1.824387	 -1.155000	 -0.224812	 -0.257685	 0.695893	 -0.486540	 0.461098	 1
1463570701.191	 3	 -0.016631	 -0.017927	 -0.007184	 1.824905	 -1.155162	 -0.224132	 -0.257841	 0.695894	 -0.486501	 0.461050	 1
1463570701.201	 3	 -0.017818	 -0.041340	 -0.009526	 1.825115	 -1.155385	 -0.223548	 -0.258055	 0.695826	 -0.486462	 0.461073	 1
1463570701.211	 3	 -0.023323	 -0.074321	 -0.012985	 1.825059	 -1.155684	 -0.222899	 -0.258378	 0.695673	 -0.486398	 0.461190	 1
1463570701.221	 3	 -0.024590	 -0.109481	 -0.021831	 1.824613	 -1.156166	 -0.222280	 -0.258836	 0.695401	 -0.486347	 0.461398	 1
1463570701.231	 3	 -0.020485	 -0.136155	 -0.031711	 1.823868	 -1.156819	 -0.221661	 -0.259414	 0.695027	 -0.486311	 0.461675	 1
1463570701.241	 3	 -0.016293	 -0.150018	 -0.035079	 1.822884	 -1.157534	 -0.221119	 -0.260041	 0.694596	 -0.486280	 0.462003	 1
1463570701.251	 3	 -0.011032	 -0.171262	 -0.028931	 1.821666	 -1.158127	 -0.220652	 -0.260664	 0.694143	 -0.486197	 0.462420	 1
1463570701.261	 3	 -0.008889	 -0.195765	 -0.017323	 1.820094	 -1.158611	 -0.220285	 -0.261309	 0.693641	 -0.486057	 0.462956	 1
1463570701.271	 3	 -0.011016	 -0.210511	 0.001739	 1.818224	 -1.158820	 -0.220053	 -0.261902	 0.693139	 -0.485824	 0.463618	 1
1463570701.281	 3	 -0.011003	 -0.223144	 0.019738	 1.815949	 -1.158849	 -0.220082	 -0.262452	 0.692609	 -0.485541	 0.464393	 1
1463570701.291	 3	 -0.004418	 -0.210184	 0.049644	 1.813081	 -1.158385	 -0.220748	 -0.262788	 0.692116	 -0.485176	 0.465319	 1
1463570701.301	 3	 0.021646	 -0.153556	 0.095776	 1.809863	 -1.157282	 -0.222293	 -0.262725	 0.691774	 -0.484773	 0.466283	 1
1463570701.311	 3	 0.067903	 -0.108733	 0.135223	 1.806774	 -1.156192	 -0.224369	 -0.262449	 0.691527	 -0.484515	 0.467071	 1
1463570701.321	 3	 0.112902	 -0.090615	 0.158447	 1.802756	 -1.154925	 -0.227735	 -0.261901	 0.691262	 -0.484386	 0.467905	 1
1463570701.331	 3	 0.147015	 -0.091835	 0.150678	 1.798016	 -1.153725	 -0.231943	 -0.261255	 0.690921	 -0.484384	 0.468771	 1
1463570701.341	 3	 0.166965	 -0.111467	 0.091705	 1.792785	 -1.153006	 -0.236466	 -0.260756	 0.690415	 -0.484542	 0.469631	 1
1463570701.351	 3	 0.182759	 -0.128773	 0.058367	 1.787305	 -1.152769	 -0.241130	 -0.260407	 0.689777	 -0.484852	 0.470441	 1
1463570701.361	 3	 0.225171	 -0.112523	 -0.030309	 1.781631	 -1.153432	 -0.246078	 -0.260268	 0.688967	 -0.485479	 0.471057	 1
1463570701.371	 3	 0.230068	 -0.063945	 0.070282	 1.775457	 -1.153482	 -0.251927	 -0.259768	 0.688264	 -0.486070	 0.471752	 1
1463570701.381	 3	 0.195764	 0.049589	 0.165424	 1.770461	 -1.152494	 -0.257613	 -0.258740	 0.687995	 -0.486468	 0.472298	 1
1463570701.391	 3	 0.168736	 0.132169	 0.248492	 1.766739	 -1.150650	 -0.262916	 -0.257285	 0.688122	 -0.486689	 0.472681	 1
1463570701.401	 3	 0.148917	 0.278405	 0.458914	 1.764109	 -1.146940	 -0.268451	 -0.254936	 0.688849	 -0.486553	 0.473034	 1
1463570701.411	 3	 0.194397	 0.307940	 0.589882	 1.761039	 -1.141731	 -0.275314	 -0.251789	 0.689881	 -0.486236	 0.473541	 1
1463570701.421	 3	 0.255221	 0.103135	 0.547032	 1.755192	 -1.136616	 -0.283551	 -0.248860	 0.690387	 -0.485937	 0.474658	 1
1463570701.431	 3	 0.199113	 -0.170760	 0.449053	 1.747686	 -1.132383	 -0.290694	 -0.246961	 0.690189	 -0.485452	 0.476431	 1
1463570701.441	 3	 0.140062	 -0.234504	 0.435119	 1.740638	 -1.128373	 -0.295917	 -0.245671	 0.689803	 -0.484649	 0.478469	 1
1463570701.451	 3	 0.114783	 -0.177927	 0.452905	 1.736383	 -1.125282	 -0.298841	 -0.244765	 0.689641	 -0.483920	 0.479903	 1
1463570701.461	 3	 0.041372	 -0.133017	 0.456093	 1.732145	 -1.120897	 -0.301966	 -0.243391	 0.689704	 -0.482868	 0.481568	 1
1463570701.471	 3	 -0.043808	 -0.128198	 0.499510	 1.729753	 -1.116068	 -0.303205	 -0.242082	 0.690042	 -0.481461	 0.483150	 1
1463570701.481	 3	 -0.146095	 -0.250981	 0.686832	 1.727972	 -1.109683	 -0.302795	 -0.240718	 0.690564	 -0.479274	 0.485256	 1
1463570701.491	 3	 -0.242364	 -0.181681	 0.817274	 1.727843	 -1.101382	 -0.300680	 -0.238963	 0.691572	 -0.476300	 0.487609	 1
1463570701.501	 3	 -0.296709	 -0.189811	 0.847513	 1.728924	 -1.092570	 -0.297403	 -0.237167	 0.692810	 -0.473023	 0.489913	 1
1463570701.511	 3	 -0.285242	 -0.221972	 0.817273	 1.729788	 -1.083948	 -0.293977	 -0.235533	 0.693945	 -0.469721	 0.492267	 1
1463570701.521	 3	 -0.202439	 -0.283113	 0.779747	 1.729035	 -1.075815	 -0.291889	 -0.233963	 0.694757	 -0.466690	 0.494746	 1
1463570701.531	 3	 -0.129530	 -0.434382	 0.776639	 1.725459	 -1.067921	 -0.291441	 -0.232547	 0.695013	 -0.463800	 0.497764	 1
1463570701.541	 3	 -0.108637	 -0.533328	 0.780865	 1.720180	 -1.060031	 -0.291581	 -0.231307	 0.694891	 -0.460859	 0.501230	 1
1463570701.551	 3	 -0.078663	 -0.510048	 0.776557	 1.714513	 -1.052221	 -0.292098	 -0.230032	 0.694679	 -0.457997	 0.504723	 1
1463570701.561	 3	 -0.007744	 -0.427123	 0.800158	 1.708503	 -1.044360	 -0.293812	 -0.228385	 0.694497	 -0.455388	 0.508070	 1
1463570701.571	 3	 0.038322	 -0.261767	 0.897258	 1.702988	 -1.035814	 -0.296688	 -0.225990	 0.694642	 -0.452938	 0.511124	 1
1463570701.581	 3	 0.065519	 -0.026980	 1.017505	 1.698949	 -1.026017	 -0.300300	 -0.222598	 0.695389	 -0.450479	 0.513763	 1
1463570701.591	 3	 0.122721	 0.294413	 1.065825	 1.697100	 -1.015717	 -0.304887	 -0.218197	 0.696838	 -0.448372	 0.515528	 1
1463570701.601	 3	 0.192587	 0.569113	 1.133851	 1.697200	 -1.004835	 -0.310846	 -0.212682	 0.698975	 -0.446657	 0.516428	 1
1463570701.611	 3	 0.220072	 0.533759	 1.109836	 1.697272	 -0.993980	 -0.317404	 -0.206955	 0.701117	 -0.445097	 0.517198	 1
1463570701.621	 3	 0.161250	 0.313483	 1.070996	 1.696342	 -0.983601	 -0.323113	 -0.201881	 0.702802	 -0.443356	 0.518410	 1
1463570701.631	 3	 0.033198	 -0.162416	 1.101787	 1.692970	 -0.972719	 -0.326693	 -0.197920	 0.703660	 -0.440671	 0.521056	 1
1463570701.641	 3	 0.017643	 -0.372104	 0.927318	 1.687682	 -0.962986	 -0.328982	 -0.195179	 0.703707	 -0.437815	 0.524422	 1
1463570701.651	 3	 0.125983	 -0.547170	 0.737171	 1.680191	 -0.955371	 -0.332080	 -0.193291	 0.702960	 -0.435610	 0.527949	 1
1463570701.661	 3	 0.251395	 -0.786615	 0.623012	 1.668846	 -0.949100	 -0.337055	 -0.191994	 0.701174	 -0.433954	 0.532143	 1
1463570701.671	 3	 0.406293	 -0.865695	 0.487707	 1.654566	 -0.944246	 -0.344063	 -0.191062	 0.698589	 -0.433014	 0.536627	 1
1463570701.681	 3	 0.558577	 -0.839307	 0.374722	 1.638508	 -0.940644	 -0.353485	 -0.190076	 0.695562	 -0.432959	 0.540936	 1
1463570701.701	 4	 0.900774	 -1.055915	 0.270611	 1.597780	 -0.935334	 -0.380419	 -0.187834	 0.687551	 -0.434926	 0.550302	 1
1463570701.711	 4	 1.019264	 -1.361659	 0.104738	 1.571497	 -0.933946	 -0.397116	 -0.187375	 0.681982	 -0.436688	 0.555964	 1
1463570701.721	 4	 1.051467	 -1.589012	 0.153499	 1.541947	 -0.932363	 -0.414589	 -0.187365	 0.675499	 -0.438370	 0.562518	 1
1463570701.731	 4	 1.156446	 -1.760139	 -0.081344	 1.509719	 -0.931911	 -0.433483	 -0.187943	 0.668191	 -0.440572	 0.569294	 1
1463570701.741	 4	 1.266074	 -2.097027	 -0.292191	 1.472753	 -0.933489	 -0.454565	 -0.189673	 0.659470	 -0.443531	 0.576544	 1
1463570701.751	 4	 1.310484	 -2.384556	 -0.322963	 1.431418	 -0.935106	 -0.477040	 -0.192097	 0.649504	 -0.446514	 0.584695	 1
1463570701.761	 4	 1.255238	 -2.565147	 -0.314571	 1.388408	 -0.936228	 -0.499097	 -0.195032	 0.638904	 -0.449116	 0.593345	 1
1463570701.771	 4	 1.100589	 -2.643616	 -0.197786	 1.346267	 -0.936212	 -0.518809	 -0.198263	 0.628247	 -0.450862	 0.602263	 1
1463570701.791	 5	 0.785967	 -2.821783	 0.332979	 1.269559	 -0.929633	 -0.546283	 -0.204564	 0.607800	 -0.450128	 0.621384	 1
1463570701.801	 5	 0.719773	 -2.875593	 0.659178	 1.233924	 -0.921806	 -0.554889	 -0.206958	 0.597732	 -0.447569	 0.632113	 1
1463570701.811	 5	 0.604197	 -2.689535	 0.895317	 1.202453	 -0.911699	 -0.559909	 -0.208558	 0.588430	 -0.443912	 0.642803	 1
1463570701.821	 5	 0.465469	 -2.356246	 1.038176	 1.176865	 -0.900504	 -0.561362	 -0.209399	 0.580460	 -0.439560	 0.652691	 1
1463570701.831	 5	 0.370265	 -2.054080	 1.160116	 1.156681	 -0.888603	 -0.560012	 -0.209506	 0.573810	 -0.434757	 0.661692	 1
1463570701.841	 5	 0.286824	 -1.799359	 1.344392	 1.141067	 -0.875557	 -0.556113	 -0.208815	 0.568294	 -0.429389	 0.670122	 1
1463570701.851	 5	 0.179115	 -1.555662	 1.611907	 1.130370	 -0.860712	 -0.548966	 -0.207198	 0.564011	 -0.423100	 0.678194	 1
1463570701.861	 5	 -0.010274	 -1.245625	 2.194084	 1.126490	 -0.842283	 -0.536450	 -0.204155	 0.561461	 -0.414970	 0.686209	 1
1463570701.871	 5	 -0.216390	 -0.836841	 2.746418	 1.131055	 -0.819230	 -0.517611	 -0.199256	 0.561217	 -0.404507	 0.694051	 1
1463570701.881	 5	 -0.667441	 -0.730642	 2.981539	 1.141574	 -0.794828	 -0.492654	 -0.194370	 0.562564	 -0.391998	 0.701484	 1
1463570701.891	 5	 -1.083033	 -0.447254	 3.039038	 1.157605	 -0.771246	 -0.462402	 -0.190349	 0.565516	 -0.378016	 0.707857	 1
1463570701.901	 5	 -1.346346	 -0.166709	 3.045007	 1.177948	 -0.748279	 -0.429615	 -0.186689	 0.569973	 -0.363340	 0.712925	 1
1463570701.911	 5	 -1.523583	 -0.149477	 3.003014	 1.199280	 -0.725822	 -0.395824	 -0.183607	 0.574912	 -0.348177	 0.717312	 1
1463570701.921	 5	 -1.622039	 -0.316130	 2.862706	 1.218544	 -0.704341	 -0.362365	 -0.181450	 0.579327	 -0.332866	 0.721565	 1
1463570701.931	 5	 -1.504720	 -0.478648	 2.499944	 1.233593	 -0.684993	 -0.331925	 -0.180185	 0.582602	 -0.318523	 0.725708	 1
1463570701.941	 5	 -1.325138	 -0.707998	 2.040100	 1.243299	 -0.669146	 -0.306270	 -0.179903	 0.584365	 -0.306119	 0.729688	 1
1463570701.951	 5	 -1.015797	 -1.175780	 1.753824	 1.245499	 -0.655544	 -0.285727	 -0.180212	 0.583824	 -0.295355	 0.734464	 1
1463570701.961	 5	 -0.616284	 -1.794712	 1.780822	 1.238571	 -0.641236	 -0.270058	 -0.180133	 0.580407	 -0.285300	 0.741137	 1
1463570701.971	 5	 -0.168856	 -2.345608	 1.968966	 1.223040	 -0.624063	 -0.258856	 -0.178735	 0.574262	 -0.275348	 0.749974	 1
1463570701.981	 5	 0.092312	 -2.696817	 2.044422	 1.201525	 -0.604783	 -0.250637	 -0.176285	 0.566097	 -0.265447	 0.760260	 1
1463570701.991	 5	 0.117041	 -2.838740	 1.990664	 1.177702	 -0.585757	 -0.242990	 -0.173868	 0.556933	 -0.255662	 0.770865	 1
1463570702.001	 5	 0.003573	 -2.932890	 2.015288	 1.153495	 -0.567185	 -0.233987	 -0.171833	 0.547318	 -0.245472	 0.781447	 1
1463570702.011	 5	 -0.209692	 -2.944613	 2.072455	 1.130178	 -0.549098	 -0.222302	 -0.170380	 0.537652	 -0.234453	 0.791791	 1
1463570702.021	 5	 -0.442517	 -2.803131	 2.128021	 1.109375	 -0.531779	 -0.207458	 -0.169551	 0.528567	 -0.222575	 0.801455	 1
1463570702.031	 5	 -0.539675	 -2.639656	 2.191137	 1.091011	 -0.514792	 -0.190666	 -0.168868	 0.520194	 -0.210173	 0.810376	 1
1463570702.041	 5	 -0.488794	 -2.562566	 2.282001	 1.073611	 -0.497253	 -0.173408	 -0.167745	 0.512119	 -0.197495	 0.818897	 1
1463570702.051	 5	 -0.329379	 -2.557021	 2.377649	 1.055827	 -0.478465	 -0.156789	 -0.165743	 0.503913	 -0.184722	 0.827332	 1
1463570702.061	 5	 -0.146553	 -2.515814	 2.413743	 1.037493	 -0.458571	 -0.141401	 -0.162781	 0.495554	 -0.172145	 0.835640	 1
1463570702.071	 5	 0.086313	 -2.450711	 2.392071	 1.018683	 -0.437899	 -0.127861	 -0.158839	 0.487104	 -0.160139	 0.843715	 1
1463570702.081	 5	 0.408802	 -2.346890	 2.318823	 0.999353	 -0.416373	 -0.117171	 -0.153656	 0.478614	 -0.149145	 0.851513	 1
1463570702.091	 5	 0.784950	 -2.162538	 2.225608	 0.980035	 -0.393800	 -0.110002	 -0.146975	 0.470338	 -0.139500	 0.858906	 1
1463570702.101	 5	 1.195717	 -1.907838	 2.166851	 0.961636	 -0.369670	 -0.106444	 -0.138531	 0.462651	 -0.131242	 0.865759	 1
1463570702.111	 5	 1.614066	 -1.684592	 2.173812	 0.944355	 -0.343252	 -0.106195	 -0.128099	 0.455585	 -0.124139	 0.872137	 1
1463570702.121	 5	 1.955808	 -1.476523	 2.256967	 0.928432	 -0.314153	 -0.108183	 -0.115764	 0.449126	 -0.117684	 0.878086	 1
1463570702.131	 5	 2.220684	 -1.312573	 2.385144	 0.914045	 -0.282378	 -0.111274	 -0.101788	 0.443233	 -0.111406	 0.883613	 1
1463570702.141	 5	 2.423296	 -1.214486	 2.499395	 0.900728	 -0.248268	 -0.114897	 -0.086485	 0.437632	 -0.105101	 0.888793	 1
1463570702.161	 6	 2.548953	 -0.937300	 2.639429	 0.878085	 -0.176002	 -0.121670	 -0.053662	 0.427481	 -0.092108	 0.897717	 1
1463570702.171	 6	 2.494302	 -0.766893	 2.648951	 0.869690	 -0.139558	 -0.123981	 -0.037078	 0.423355	 -0.085364	 0.901171	 1
1463570702.181	 6	 2.346791	 -0.811188	 2.641297	 0.861721	 -0.103967	 -0.125053	 -0.021057	 0.419224	 -0.078357	 0.904250	 1
1463570702.191	 6	 2.182170	 -1.088370	 2.632691	 0.851685	 -0.069491	 -0.124578	 -0.005876	 0.414007	 -0.070977	 0.907483	 1
1463570702.201	 6	 2.049476	 -1.501663	 2.494648	 0.837827	 -0.036684	 -0.123271	 0.008328	 0.406959	 -0.063707	 0.911184	 1
1463570702.211	 6	 1.920650	 -1.920968	 2.262730	 0.819650	 -0.006382	 -0.122002	 0.021369	 0.397884	 -0.057184	 0.915402	 1
1463570702.221	 6	 1.776389	 -2.264318	 2.084940	 0.797835	 0.021491	 -0.120446	 0.033260	 0.387099	 -0.051292	 0.920010	 1
1463570702.231	 6	 1.701025	 -2.534024	 1.970115	 0.773022	 0.047708	 -0.118443	 0.044358	 0.374883	 -0.045830	 0.924875	 1
1463570702.241	 6	 1.745931	 -2.665641	 1.878976	 0.746499	 0.073326	 -0.116567	 0.055300	 0.361791	 -0.040860	 0.929720	 1
1463570702.251	 6	 1.873759	 -2.674873	 1.830883	 0.719602	 0.099277	 -0.115197	 0.066607	 0.348398	 -0.036373	 0.934269	 1
1463570702.261	 6	 2.056605	 -2.616756	 1.852213	 0.693147	 0.126531	 -0.114191	 0.078712	 0.335052	 -0.032124	 0.938356	 1
1463570702.271	 6	 2.243782	 -2.561704	 1.892660	 0.667342	 0.155456	 -0.113382	 0.091750	 0.321843	 -0.027983	 0.941921	 1
1463570702.281	 6	 2.359964	 -2.628731	 1.936853	 0.640997	 0.185741	 -0.112269	 0.105475	 0.308250	 -0.023849	 0.945139	 1
1463570702.291	 6	 2.387995	 -2.515465	 1.873717	 0.615196	 0.216175	 -0.110916	 0.119340	 0.294842	 -0.019908	 0.947856	 1
1463570702.301	 6	 2.374584	 -2.320559	 1.758414	 0.591191	 0.245900	 -0.109651	 0.132988	 0.282247	 -0.016353	 0.949939	 1
1463570702.311	 6	 2.349375	 -2.138381	 1.643094	 0.569110	 0.274756	 -0.108550	 0.146332	 0.270546	 -0.013188	 0.951430	 1
1463570702.321	 6	 2.338761	 -2.023305	 1.520629	 0.548410	 0.302822	 -0.107746	 0.159402	 0.259477	 -0.010459	 0.952446	 1
1463570702.331	 6	 2.351161	 -1.990333	 1.379082	 0.528435	 0.330218	 -0.107627	 0.172282	 0.248696	 -0.008354	 0.953100	 1
1463570702.341	 6	 2.361309	 -1.996587	 1.254241	 0.508695	 0.357068	 -0.108214	 0.185013	 0.237957	 -0.006891	 0.953467	 1
1463570702.351	 6	 2.354487	 -2.015253	 1.170997	 0.488918	 0.383455	 -0.109105	 0.197569	 0.227162	 -0.005883	 0.953588	 1
1463570702.361	 6	 2.324337	 -2.024090	 1.113626	 0.469003	 0.409356	 -0.109924	 0.209889	 0.216304	 -0.005160	 0.953484	 1
1463570702.371	 6	 2.265661	 -1.975379	 1.060236	 0.449303	 0.434561	 -0.110462	 0.221846	 0.205596	 -0.004601	 0.953149	 1
1463570702.381	 6	 2.193378	 -1.877637	 1.015946	 0.430407	 0.458762	 -0.110633	 0.233287	 0.195353	 -0.004118	 0.952574	 1
1463570702.391	 6	 2.121218	 -1.795485	 1.021597	 0.412357	 0.481872	 -0.110270	 0.244159	 0.185635	 -0.003607	 0.951795	 1
1463570702.401	 6	 2.035382	 -1.736137	 1.103890	 0.394012	 0.504556	 -0.108165	 0.254670	 0.176029	 -0.002547	 0.950868	 1
1463570702.411	 6	 1.990731	 -1.631302	 1.022124	 0.376133	 0.527047	 -0.105582	 0.265059	 0.166751	 -0.001414	 0.949703	 1
1463570702.421	 6	 1.946110	 -1.452598	 0.860048	 0.360310	 0.548551	 -0.104003	 0.275071	 0.158401	 -0.000760	 0.948285	 1
1463570702.431	 6	 1.864462	 -1.258435	 0.761319	 0.346744	 0.568960	 -0.103089	 0.284614	 0.151108	 -0.000359	 0.946658	 1
1463570702.441	 6	 1.740567	 -1.042260	 0.747357	 0.335082	 0.588148	 -0.101765	 0.293543	 0.144857	 0.000277	 0.944907	 1
1463570702.451	 6	 1.652510	 -0.918741	 0.731155	 0.324591	 0.606344	 -0.099870	 0.301956	 0.139317	 0.001169	 0.943086	 1
1463570702.461	 6	 1.626775	 -0.886200	 0.661341	 0.314756	 0.623959	 -0.098214	 0.310106	 0.134103	 0.001909	 0.941194	 1
1463570702.471	 6	 1.632445	 -0.960307	 0.564684	 0.304922	 0.641279	 -0.097411	 0.318165	 0.128793	 0.002140	 0.939244	 1
1463570702.481	 6	 1.641037	 -1.082382	 0.454765	 0.294587	 0.658371	 -0.097709	 0.326173	 0.123099	 0.001675	 0.937259	 1
1463570702.491	 6	 1.611454	 -1.161725	 0.355169	 0.283903	 0.674993	 -0.098972	 0.333998	 0.117116	 0.000583	 0.935270	 1
1463570702.501	 6	 1.484390	 -1.193116	 0.375167	 0.272698	 0.690625	 -0.099956	 0.341320	 0.110990	 -0.000619	 0.933371	 1
1463570702.511	 6	 1.336120	 -1.208380	 0.410420	 0.260342	 0.704937	 -0.099532	 0.347931	 0.104645	 -0.001537	 0.931660	 1
1463570702.521	 6	 1.205913	 -1.140533	 0.326924	 0.248411	 0.717803	 -0.099111	 0.353858	 0.098585	 -0.002561	 0.930085	 1
1463570702.531	 6	 1.107982	 -0.968968	 0.185495	 0.238773	 0.729290	 -0.099872	 0.359192	 0.093459	 -0.003880	 0.928564	 1
1463570702.541	 6	 1.054929	 -0.809029	 0.072343	 0.231705	 0.739880	 -0.101956	 0.364161	 0.089333	 -0.005451	 0.927026	 1
1463570702.551	 6	 0.993461	 -0.701567	 0.052563	 0.226101	 0.749840	 -0.104398	 0.368842	 0.085846	 -0.006987	 0.925493	 1
1463570702.561	 6	 0.903257	 -0.628681	 0.093460	 0.220815	 0.759046	 -0.106109	 0.373131	 0.082672	 -0.008193	 0.924052	 1
1463570702.571	 6	 0.822544	 -0.570791	 0.123477	 0.215615	 0.767510	 -0.107044	 0.377036	 0.079717	 -0.009089	 0.922717	 1
1463570702.581	 6	 0.757780	 -0.520434	 0.147956	 0.210553	 0.775373	 -0.107408	 0.380635	 0.076963	 -0.009751	 0.921466	 1
1463570702.591	 6	 0.680256	 -0.473122	 0.187439	 0.205424	 0.782600	 -0.107017	 0.383907	 0.074356	 -0.010131	 0.920317	 1
1463570702.601	 6	 0.584759	 -0.399086	 0.237984	 0.200252	 0.789029	 -0.105634	 0.386774	 0.071962	 -0.010127	 0.919307	 1
1463570702.611	 6	 0.484944	 -0.307202	 0.254629	 0.195427	 0.794510	 -0.103485	 0.389180	 0.069926	 -0.009771	 0.918452	 1
1463570702.621	 6	 0.440266	 -0.209798	 0.174926	 0.191963	 0.799287	 -0.101914	 0.391293	 0.068441	 -0.009466	 0.917669	 1
1463570702.631	 6	 0.476532	 -0.107650	 0.048735	 0.190719	 0.803996	 -0.102054	 0.393443	 0.067645	 -0.009520	 0.916808	 1
1463570702.641	 6	 0.560957	 -0.003287	 -0.045881	 0.191778	 0.809228	 -0.103895	 0.395897	 0.067546	 -0.009873	 0.915754	 1
1463570702.651	 6	 0.639050	 0.065371	 -0.080027	 0.194316	 0.815187	 -0.106694	 0.398719	 0.067894	 -0.010324	 0.914498	 1
1463570702.661	 6	 0.628697	 0.120814	 -0.065566	 0.197469	 0.821316	 -0.109549	 0.401621	 0.068493	 -0.010658	 0.913179	 1
1463570702.671	 6	 0.502000	 0.162847	 -0.040625	 0.200673	 0.826503	 -0.111801	 0.404071	 0.069268	 -0.010747	 0.912038	 1
1463570702.681	 6	 0.333398	 0.129616	 0.002098	 0.202995	 0.830174	 -0.113045	 0.405791	 0.069907	 -0.010634	 0.911226	 1
1463570702.691	 6	 0.173365	 0.105909	 0.041639	 0.204222	 0.832306	 -0.113225	 0.406770	 0.070331	 -0.010343	 0.910761	 1
1463570702.701	 6	 0.055066	 0.087558	 0.103246	 0.204374	 0.833275	 -0.112178	 0.407173	 0.070568	 -0.009779	 0.910568	 1
1463570702.711	 6	 0.032665	 0.082368	 0.111919	 0.204069	 0.833822	 -0.110647	 0.407365	 0.070716	 -0.009113	 0.910478	 1
1463570702.721	 6	 0.078609	 0.102371	 0.102113	 0.204047	 0.834660	 -0.109328	 0.407698	 0.070936	 -0.008469	 0.910318	 1
1463570702.731	 6	 0.138561	 0.126795	 0.121002	 0.204317	 0.836111	 -0.108046	 0.408311	 0.071255	 -0.007747	 0.910025	 1
1463570702.741	 6	 0.161075	 0.117426	 0.158021	 0.204272	 0.837969	 -0.106349	 0.409091	 0.071498	 -0.006878	 0.909662	 1
1463570702.751	 6	 0.142841	 0.085678	 0.172805	 0.203687	 0.839768	 -0.104282	 0.409830	 0.071574	 -0.005955	 0.909330	 1
1463570702.761	 6	 0.111581	 0.031423	 0.158717	 0.202658	 0.841267	 -0.102266	 0.410433	 0.071454	 -0.005164	 0.909072	 1
1463570702.771	 6	 0.064159	 -0.058917	 0.148698	 0.200783	 0.842314	 -0.100234	 0.410830	 0.070973	 -0.004567	 0.908934	 1
1463570702.781	 6	 0.030393	 -0.148637	 0.083145	 0.198466	 0.842902	 -0.098834	 0.411041	 0.070183	 -0.004374	 0.908901	 1
1463570702.791	 6	 -0.000960	 -0.185134	 0.024462	 0.196286	 0.843042	 -0.098322	 0.411082	 0.069291	 -0.004582	 0.908950	 1
1463570702.801	 6	 -0.026683	 -0.179986	 -0.009371	 0.194432	 0.842835	 -0.098291	 0.410982	 0.068464	 -0.004960	 0.909055	 1
1463570702.811	 6	 -0.058564	 -0.144851	 -0.017292	 0.192972	 0.842310	 -0.098404	 0.410745	 0.067799	 -0.005340	 0.909210	 1
1463570702.821	 6	 -0.097809	 -0.122157	 0.016299	 0.191452	 0.841455	 -0.098061	 0.410342	 0.067214	 -0.005542	 0.909434	 1
1463570702.831	 6	 -0.130672	 -0.115336	 0.063542	 0.189463	 0.840344	 -0.096942	 0.409796	 0.066585	 -0.005500	 0.909727	 1
1463570702.841	 6	 -0.137849	 -0.087365	 0.104364	 0.187152	 0.839160	 -0.095169	 0.409195	 0.065945	 -0.005229	 0.910046	 1
1463570702.851	 6	 -0.136143	 0.037166	 0.117231	 0.185631	 0.838030	 -0.093046	 0.408609	 0.065733	 -0.004632	 0.910328	 1
1463570702.861	 6	 -0.076429	 0.050614	 0.089127	 0.184948	 0.837285	 -0.091366	 0.408214	 0.065795	 -0.004045	 0.910503	 1
1463570702.871	 6	 -0.019125	 0.014006	 0.050985	 0.184442	 0.837091	 -0.090373	 0.408092	 0.065774	 -0.003706	 0.910561	 1
1463570702.881	 6	 -0.010985	 -0.021538	 -0.006968	 0.184211	 0.837002	 -0.090242	 0.408047	 0.065699	 -0.003699	 0.910586	 1
1463570702.891	 6	 -0.038050	 -0.054849	 -0.064593	 0.184231	 0.836626	 -0.090900	 0.407898	 0.065589	 -0.004013	 0.910660	 1
1463570702.901	 6	 -0.082038	 -0.082786	 -0.112390	 0.184426	 0.835745	 -0.092191	 0.407541	 0.065449	 -0.004606	 0.910827	 1
