% Gyrometer data recorded with 'snsrlog'
% 
% 
% Label description:
% 	 0: Default Label
% 	 1: still_drop
% 	 2: walk_drop
% 	 3: other
% 	 4: dtw_same
% 	 5: dtw_diff
% 	 6: delete
% 	 7: steal
% 
% Column description:
% 	 1: Seconds.milliseconds since 1970
% 	 2: Number of skipped measurements
% 	 3: Gyro X
% 	 4: Gyro Y
% 	 5: Gyro Z
% 	 6: Roll of the device
% 	 7: Pitch of the device
% 	 8: Yaw of the device
% 	 9: Quaternion X
% 	 10: Quaternion Y
% 	 11: Quaternion Z
% 	 12: Quaternion W
% 	 13: Label used for the current sample
% 
% 
1463629545.418	 0	 -0.185353	 1.403271	 -0.303697	 0.189343	 0.256444	 -0.070661	 0.130531	 0.089199	 -0.022796	 0.987160	 2
1463629545.429	 0	 -0.087491	 1.466733	 -0.459559	 0.204995	 0.254506	 -0.074749	 0.129948	 0.096703	 -0.023893	 0.986505	 2
1463629545.439	 0	 0.034919	 1.265621	 -0.569073	 0.219704	 0.253400	 -0.080231	 0.129860	 0.103628	 -0.025702	 0.985767	 2
1463629545.449	 0	 0.140478	 0.922780	 -0.722389	 0.231470	 0.253033	 -0.087321	 0.130216	 0.108974	 -0.028451	 0.985068	 2
1463629545.459	 0	 0.120350	 1.096046	 -0.891123	 0.243817	 0.252313	 -0.096227	 0.130546	 0.114494	 -0.032075	 0.984287	 2
1463629545.469	 0	 0.005060	 1.586316	 -0.945240	 0.260836	 0.250339	 -0.105694	 0.130426	 0.122312	 -0.035751	 0.983235	 2
1463629545.479	 0	 -0.151470	 1.875104	 -0.932664	 0.281204	 0.246771	 -0.114727	 0.129631	 0.131859	 -0.039116	 0.981977	 2
1463629545.489	 0	 -0.336742	 2.138798	 -0.872111	 0.303782	 0.241441	 -0.122645	 0.128022	 0.142629	 -0.041950	 0.980565	 2
1463629545.509	 1	 -0.651733	 2.858933	 -0.696409	 0.357898	 0.226144	 -0.133774	 0.122602	 0.169043	 -0.045311	 0.976903	 2
1463629545.519	 1	 -0.715322	 3.157117	 -0.670700	 0.389693	 0.217130	 -0.137552	 0.119277	 0.184716	 -0.046096	 0.974437	 2
1463629545.529	 1	 -0.688450	 3.210112	 -0.685361	 0.422525	 0.207999	 -0.141118	 0.115955	 0.200886	 -0.046846	 0.971599	 2
1463629545.539	 1	 -0.558413	 3.171484	 -0.679392	 0.455092	 0.199688	 -0.144861	 0.113098	 0.216848	 -0.047724	 0.968457	 2
1463629545.549	 1	 -0.337836	 3.254433	 -0.592083	 0.488022	 0.193340	 -0.148644	 0.111257	 0.232851	 -0.048463	 0.964911	 2
1463629545.559	 1	 -0.088926	 3.426973	 -0.462630	 0.523187	 0.189480	 -0.152443	 0.110720	 0.249754	 -0.048833	 0.960718	 2
1463629545.569	 1	 0.086351	 3.627116	 -0.366375	 0.559590	 0.187913	 -0.156082	 0.111330	 0.267074	 -0.048769	 0.955980	 2
1463629545.579	 1	 0.147673	 3.926082	 -0.328957	 0.598704	 0.187252	 -0.159702	 0.112467	 0.285549	 -0.048403	 0.950511	 2
1463629545.589	 1	 0.105600	 4.307822	 -0.359143	 0.641467	 0.186208	 -0.163284	 0.113533	 0.305656	 -0.047845	 0.944137	 2
1463629545.599	 1	 0.076773	 4.608242	 -0.450949	 0.687622	 0.184222	 -0.167184	 0.114320	 0.327246	 -0.047378	 0.936801	 2
1463629545.609	 1	 0.143026	 4.745293	 -0.591997	 0.735691	 0.181519	 -0.172243	 0.115062	 0.349524	 -0.047459	 0.928623	 2
1463629545.619	 1	 0.369075	 4.863443	 -0.781506	 0.785331	 0.178653	 -0.179722	 0.116288	 0.372193	 -0.048582	 0.919559	 2
1463629545.629	 1	 0.609551	 4.961637	 -1.076836	 0.836694	 0.175254	 -0.190776	 0.118149	 0.395236	 -0.051305	 0.909504	 2
1463629545.639	 1	 0.711913	 5.039385	 -1.460678	 0.889305	 0.169435	 -0.205127	 0.119868	 0.418528	 -0.055891	 0.898522	 2
1463629545.649	 1	 0.629085	 5.202938	 -1.820794	 0.943504	 0.159689	 -0.221140	 0.120600	 0.442394	 -0.061954	 0.886513	 2
1463629545.659	 1	 0.456811	 5.336530	 -2.095150	 0.998983	 0.145735	 -0.236902	 0.119913	 0.466809	 -0.068834	 0.873483	 2
1463629545.669	 1	 0.362407	 5.366491	 -2.254979	 1.054665	 0.128651	 -0.251767	 0.118160	 0.491241	 -0.076179	 0.859603	 2
1463629545.679	 1	 0.385460	 5.501510	 -2.253923	 1.110756	 0.110414	 -0.265817	 0.116238	 0.515605	 -0.083592	 0.844780	 2
1463629545.689	 1	 0.256447	 6.176286	 -1.951305	 1.172034	 0.093132	 -0.277125	 0.114714	 0.541796	 -0.089452	 0.827826	 2
1463629545.699	 1	 0.019163	 6.623777	 -1.500652	 1.237796	 0.078314	 -0.283720	 0.113525	 0.569362	 -0.092590	 0.808929	 2
1463629545.709	 1	 -0.226885	 6.958054	 -0.972110	 1.306716	 0.067273	 -0.285402	 0.112831	 0.597540	 -0.092629	 0.788439	 2
1463629545.719	 1	 -0.443565	 7.211170	 -0.476551	 1.378089	 0.060603	 -0.282920	 0.112751	 0.625863	 -0.089703	 0.766509	 2
1463629545.729	 1	 -0.518038	 7.378070	 -0.078952	 1.451240	 0.058128	 -0.278207	 0.113502	 0.653898	 -0.084585	 0.743223	 2
1463629545.739	 1	 -0.545172	 7.303338	 0.164648	 1.524291	 0.058835	 -0.272716	 0.114899	 0.680878	 -0.078167	 0.719093	 2
1463629545.749	 1	 -0.499472	 6.974032	 0.240053	 1.594674	 0.061063	 -0.267519	 0.116511	 0.705932	 -0.071478	 0.694964	 2
1463629545.759	 1	 -0.280486	 6.391163	 0.180500	 1.660051	 0.063303	 -0.264127	 0.118295	 0.728344	 -0.065671	 0.671720	 2
1463629545.769	 1	 0.232864	 5.475293	 -0.065894	 1.717270	 0.063240	 -0.264971	 0.120420	 0.747214	 -0.062558	 0.650582	 2
1463629545.779	 1	 0.987468	 4.472553	 -0.460141	 1.764951	 0.058411	 -0.272125	 0.123093	 0.762333	 -0.063785	 0.632161	 2
1463629545.789	 1	 1.865928	 3.433889	 -1.064690	 1.802516	 0.046128	 -0.286279	 0.125991	 0.773841	 -0.070611	 0.616693	 2
1463629545.799	 1	 2.397081	 2.902070	 -1.584763	 1.833199	 0.026177	 -0.305070	 0.128435	 0.783046	 -0.082188	 0.602983	 2
1463629545.809	 1	 2.405132	 2.650537	 -1.946336	 1.860574	 0.001689	 -0.323328	 0.129555	 0.791255	 -0.095523	 0.589920	 2
1463629545.819	 1	 2.139079	 2.375840	 -2.239660	 1.884860	 -0.025648	 -0.338039	 0.128643	 0.798663	 -0.109099	 0.577655	 2
1463629545.829	 1	 1.760390	 2.077043	 -2.381956	 1.906015	 -0.053900	 -0.348120	 0.125748	 0.805255	 -0.121911	 0.566471	 2
1463629545.839	 1	 1.424506	 1.683431	 -2.381628	 1.923483	 -0.081445	 -0.354222	 0.121460	 0.810793	 -0.133580	 0.556793	 2
1463629545.849	 1	 1.177067	 1.196530	 -2.303006	 1.936403	 -0.107543	 -0.357606	 0.116338	 0.814979	 -0.144231	 0.549065	 2
1463629545.859	 1	 0.984917	 0.661644	 -2.218918	 1.944180	 -0.132134	 -0.359138	 0.110610	 0.817655	 -0.154097	 0.543562	 2
1463629545.869	 1	 0.810786	 0.138080	 -2.179643	 1.946861	 -0.155602	 -0.359081	 0.104191	 0.818876	 -0.163370	 0.540275	 2
1463629545.879	 1	 0.639831	 -0.361285	 -2.175341	 1.944751	 -0.178346	 -0.357443	 0.096927	 0.818754	 -0.172155	 0.539083	 2
1463629545.889	 1	 0.436022	 -0.785269	 -2.203090	 1.938550	 -0.200563	 -0.353998	 0.088672	 0.817492	 -0.180392	 0.539724	 2
1463629545.899	 1	 0.186739	 -1.109247	 -2.245499	 1.929418	 -0.222351	 -0.348272	 0.079273	 0.815406	 -0.187894	 0.541779	 2
1463629545.909	 1	 -0.074969	 -1.362900	 -2.275422	 1.918271	 -0.243583	 -0.340100	 0.068766	 0.812716	 -0.194487	 0.544921	 2
1463629545.919	 1	 -0.295867	 -1.543443	 -2.327401	 1.905855	 -0.264552	 -0.329719	 0.057235	 0.809578	 -0.200289	 0.548810	 2
1463629545.929	 1	 -0.439577	 -1.644488	 -2.385707	 1.892882	 -0.285670	 -0.317737	 0.044881	 0.806129	 -0.205578	 0.553063	 2
1463629545.939	 1	 -0.453932	 -1.719135	 -2.418250	 1.879474	 -0.307187	 -0.305358	 0.032135	 0.802344	 -0.210763	 0.557485	 2
1463629545.949	 1	 -0.369998	 -1.807579	 -2.407015	 1.865283	 -0.329043	 -0.293845	 0.019481	 0.798097	 -0.216162	 0.562081	 2
1463629545.959	 1	 -0.306156	 -2.131668	 -2.338114	 1.848390	 -0.350797	 -0.283565	 0.006975	 0.792861	 -0.221706	 0.567600	 2
1463629545.969	 1	 -0.374277	 -2.471575	 -2.157373	 1.827875	 -0.371188	 -0.273708	 -0.005444	 0.786410	 -0.226642	 0.574598	 2
1463629545.979	 1	 -0.503978	 -2.590512	 -1.890910	 1.805890	 -0.389051	 -0.263647	 -0.017417	 0.779397	 -0.230321	 0.582399	 2
1463629545.989	 1	 -0.603066	 -2.565851	 -1.610588	 1.784059	 -0.404137	 -0.253425	 -0.028633	 0.772321	 -0.232686	 0.590387	 2
1463629545.999	 1	 -0.554774	 -2.467607	 -1.390547	 1.762858	 -0.417053	 -0.244082	 -0.038791	 0.765347	 -0.234311	 0.598195	 2
1463629546.009	 1	 -0.342580	 -2.361155	 -1.292288	 1.741842	 -0.429209	 -0.237135	 -0.047803	 0.758355	 -0.236200	 0.605659	 2
1463629546.019	 1	 -0.079360	 -2.248884	 -1.250905	 1.720647	 -0.441402	 -0.233343	 -0.055701	 0.751258	 -0.238898	 0.612729	 2
1463629546.029	 1	 0.190340	 -2.074277	 -1.264418	 1.699687	 -0.453997	 -0.232762	 -0.062565	 0.744206	 -0.242595	 0.619185	 2
1463629546.039	 1	 0.465445	 -1.842619	 -1.328603	 1.679431	 -0.467506	 -0.235439	 -0.068527	 0.737359	 -0.247529	 0.624769	 2
1463629546.049	 1	 0.662552	 -1.533369	 -1.285855	 1.660827	 -0.481111	 -0.240925	 -0.073389	 0.731072	 -0.253328	 0.629264	 2
1463629546.059	 1	 0.736939	 -1.284586	 -1.123258	 1.644092	 -0.493355	 -0.248025	 -0.077076	 0.725471	 -0.259153	 0.632922	 2
1463629546.069	 1	 0.805300	 -1.177285	 -0.966188	 1.628245	 -0.503864	 -0.256230	 -0.079758	 0.720263	 -0.264711	 0.636229	 2
1463629546.079	 1	 0.829331	 -1.332245	 -0.911353	 1.611038	 -0.513413	 -0.265183	 -0.082120	 0.714688	 -0.270082	 0.639948	 2
1463629546.089	 1	 0.698537	 -1.439455	 -0.934659	 1.592848	 -0.522895	 -0.273465	 -0.084930	 0.708758	 -0.275128	 0.644013	 2
1463629546.099	 1	 0.240784	 -2.020622	 -1.033066	 1.572410	 -0.532988	 -0.277746	 -0.089772	 0.701880	 -0.278924	 0.649235	 2
1463629546.109	 1	 -0.624969	 -3.372592	 -1.106317	 1.544634	 -0.543984	 -0.273332	 -0.099066	 0.692094	 -0.279717	 0.657989	 2
1463629546.119	 1	 -1.305446	 -4.429881	 -1.096376	 1.509362	 -0.555537	 -0.260212	 -0.112599	 0.679147	 -0.277153	 0.670274	 2
1463629546.129	 1	 -1.588610	 -4.799669	 -1.016353	 1.470987	 -0.567123	 -0.243119	 -0.127812	 0.664561	 -0.272656	 0.683872	 2
1463629546.139	 1	 -1.543951	 -4.631548	 -0.988534	 1.433356	 -0.578841	 -0.225890	 -0.142861	 0.649805	 -0.267722	 0.696900	 2
1463629546.149	 1	 -1.143564	 -4.210903	 -0.901779	 1.397502	 -0.589999	 -0.212639	 -0.156033	 0.635621	 -0.263706	 0.708589	 2
1463629546.159	 1	 -0.433567	 -3.649796	 -0.681061	 1.362608	 -0.598445	 -0.206877	 -0.165605	 0.622247	 -0.261300	 0.719101	 2
1463629546.169	 1	 0.520345	 -2.282139	 -0.462422	 1.333135	 -0.602839	 -0.211430	 -0.169727	 0.611741	 -0.261724	 0.726957	 2
1463629546.179	 1	 1.580606	 0.379482	 -0.262509	 1.320159	 -0.602688	 -0.227824	 -0.166382	 0.608404	 -0.266558	 0.728772	 2
1463629546.189	 1	 2.464292	 3.341970	 -0.006037	 1.331556	 -0.597851	 -0.254953	 -0.154678	 0.614934	 -0.275971	 0.722337	 2
1463629546.199	 1	 1.476010	 3.494279	 0.063668	 1.357127	 -0.592862	 -0.276226	 -0.142588	 0.625890	 -0.284105	 0.712190	 2
1463629546.209	 1	 0.741753	 1.741101	 -0.280903	 1.372334	 -0.593051	 -0.286530	 -0.137241	 0.631995	 -0.288876	 0.705902	 2
1463629546.219	 1	 0.927158	 1.496630	 -0.330620	 1.381146	 -0.594764	 -0.297476	 -0.133137	 0.635769	 -0.293808	 0.701248	 2
1463629546.229	 1	 1.235258	 1.680409	 -0.090730	 1.389581	 -0.594219	 -0.311588	 -0.127182	 0.639655	 -0.299134	 0.696552	 2
1463629546.239	 1	 1.540791	 1.827558	 0.083830	 1.397775	 -0.591102	 -0.328885	 -0.119220	 0.643671	 -0.304753	 0.691809	 2
1463629546.249	 1	 1.685986	 1.930583	 -0.024117	 1.405980	 -0.588073	 -0.348587	 -0.110456	 0.647723	 -0.311149	 0.686615	 2
1463629546.259	 1	 1.626320	 1.820552	 -0.407230	 1.413401	 -0.588373	 -0.368766	 -0.102847	 0.651328	 -0.318530	 0.680980	 2
1463629546.279	 2	 1.419343	 1.373072	 -1.475355	 1.422127	 -0.605134	 -0.407365	 -0.095079	 0.655782	 -0.336746	 0.668963	 2
1463629546.289	 2	 1.616276	 1.349627	 -1.841778	 1.422952	 -0.620271	 -0.429362	 -0.093377	 0.656771	 -0.348354	 0.662256	 2
1463629546.299	 2	 1.842647	 1.327230	 -2.051781	 1.421275	 -0.637465	 -0.454942	 -0.091697	 0.657067	 -0.361465	 0.655132	 2
1463629546.309	 2	 1.940047	 1.279131	 -2.191626	 1.417361	 -0.655903	 -0.482844	 -0.090146	 0.656745	 -0.375399	 0.647793	 2
1463629546.319	 2	 1.922349	 1.270670	 -2.338626	 1.412245	 -0.675605	 -0.511660	 -0.089041	 0.656102	 -0.389711	 0.640100	 2
1463629546.329	 2	 1.823814	 1.392635	 -2.573232	 1.407508	 -0.697399	 -0.540509	 -0.088685	 0.655615	 -0.404366	 0.631500	 2
1463629546.339	 2	 1.697164	 1.481323	 -2.861192	 1.403609	 -0.722031	 -0.569022	 -0.089375	 0.655416	 -0.419411	 0.621721	 2
1463629546.349	 2	 1.584728	 1.454766	 -3.195109	 1.399092	 -0.749956	 -0.597542	 -0.091466	 0.655075	 -0.434937	 0.611016	 2
1463629546.359	 2	 1.508719	 1.415718	 -3.477243	 1.393270	 -0.781368	 -0.626551	 -0.095037	 0.654432	 -0.451019	 0.599390	 2
1463629546.369	 2	 1.440500	 1.344543	 -3.640382	 1.385770	 -0.814939	 -0.656199	 -0.099657	 0.653433	 -0.467267	 0.587159	 2
1463629546.379	 2	 1.394566	 1.339323	 -3.645359	 1.376452	 -0.848203	 -0.686895	 -0.104336	 0.652116	 -0.483153	 0.574824	 2
1463629546.389	 2	 1.542757	 1.343726	 -3.418535	 1.364688	 -0.879427	 -0.719999	 -0.108175	 0.650427	 -0.498623	 0.562688	 2
1463629546.399	 2	 1.837609	 1.321117	 -3.044033	 1.348242	 -0.906386	 -0.758185	 -0.110090	 0.647945	 -0.513838	 0.551378	 2
1463629546.409	 2	 1.941048	 1.217162	 -2.670753	 1.327787	 -0.928768	 -0.799631	 -0.110474	 0.644787	 -0.528313	 0.541231	 2
1463629546.419	 2	 1.809256	 1.088820	 -2.381978	 1.306232	 -0.947846	 -0.840283	 -0.110391	 0.641509	 -0.541447	 0.532086	 2
1463629546.429	 2	 1.760310	 0.882543	 -2.099978	 1.283272	 -0.963964	 -0.879865	 -0.110134	 0.637975	 -0.553324	 0.524110	 2
1463629546.439	 2	 2.058542	 0.698027	 -1.756854	 1.255418	 -0.975823	 -0.922528	 -0.108876	 0.633420	 -0.564742	 0.517679	 2
1463629546.449	 2	 3.129200	 0.883827	 -1.370115	 1.216600	 -0.980230	 -0.979156	 -0.103810	 0.626625	 -0.577879	 0.512465	 2
1463629546.459	 2	 3.595664	 0.905692	 -1.100072	 1.170411	 -0.978055	 -1.045829	 -0.095743	 0.618031	 -0.592320	 0.507964	 2
1463629546.469	 2	 3.317102	 0.801001	 -0.982453	 1.126527	 -0.973103	 -1.108856	 -0.087646	 0.609415	 -0.605736	 0.504000	 2
1463629546.479	 2	 2.474744	 0.626709	 -0.863769	 1.091880	 -0.969088	 -1.158972	 -0.081510	 0.602439	 -0.616495	 0.500357	 2
1463629546.489	 2	 1.448371	 0.489907	 -0.636559	 1.070526	 -0.967298	 -1.191198	 -0.077773	 0.598198	 -0.623541	 0.497300	 2
1463629546.499	 2	 0.836142	 0.452047	 -0.238314	 1.060511	 -0.965723	 -1.208877	 -0.075026	 0.596202	 -0.627431	 0.495221	 2
1463629546.509	 2	 0.695841	 0.543828	 0.333944	 1.058016	 -0.960687	 -1.218145	 -0.071131	 0.595310	 -0.629281	 0.494522	 2
1463629546.529	 3	 1.041592	 0.936146	 1.478148	 1.067454	 -0.932526	 -1.226112	 -0.055076	 0.594366	 -0.629528	 0.497384	 2
1463629546.539	 3	 0.924609	 0.976069	 1.802464	 1.076742	 -0.912723	 -1.226636	 -0.044470	 0.594150	 -0.628367	 0.500164	 2
1463629546.549	 3	 0.588227	 0.978585	 2.013239	 1.090659	 -0.892131	 -1.221411	 -0.033832	 0.594874	 -0.625627	 0.503559	 2
1463629546.559	 3	 0.268791	 0.823869	 2.109434	 1.107344	 -0.871989	 -1.211300	 -0.023985	 0.596350	 -0.621503	 0.507469	 2
1463629546.569	 3	 0.143789	 0.410784	 2.296384	 1.122319	 -0.851222	 -1.198345	 -0.015319	 0.597396	 -0.616318	 0.512869	 2
1463629546.579	 3	 0.155939	 -0.004858	 2.625994	 1.133921	 -0.827608	 -1.184121	 -0.007025	 0.597331	 -0.610218	 0.520365	 2
1463629546.589	 3	 0.036664	 -0.368744	 2.852785	 1.142722	 -0.801752	 -1.168114	 0.000719	 0.596366	 -0.603101	 0.529732	 2
1463629546.599	 3	 -0.545705	 -0.536087	 2.861628	 1.152856	 -0.777067	 -1.146620	 0.006765	 0.596040	 -0.594336	 0.539866	 2
1463629546.609	 3	 -1.490038	 -0.504478	 2.585585	 1.168978	 -0.757487	 -1.115918	 0.009832	 0.598186	 -0.583347	 0.549348	 2
1463629546.619	 3	 -2.209426	 -0.454960	 2.229951	 1.190516	 -0.743929	 -1.077727	 0.009774	 0.602781	 -0.570756	 0.557492	 2
1463629546.629	 3	 -2.377036	 -0.529114	 1.763916	 1.211674	 -0.734756	 -1.038714	 0.007457	 0.607912	 -0.558325	 0.564501	 2
1463629546.639	 3	 -2.355683	 -0.489798	 1.181124	 1.230663	 -0.730376	 -1.002733	 0.003405	 0.612969	 -0.547361	 0.569784	 2
1463629546.649	 3	 -2.384950	 -0.306881	 0.579859	 1.249103	 -0.731115	 -0.969547	 -0.002091	 0.618313	 -0.537999	 0.572923	 2
1463629546.659	 3	 -2.519209	 -0.037050	 0.041066	 1.270033	 -0.737153	 -0.936883	 -0.008971	 0.624700	 -0.529767	 0.573599	 2
1463629546.669	 3	 -2.574938	 0.099941	 -0.450622	 1.292524	 -0.747630	 -0.904766	 -0.017152	 0.631655	 -0.522650	 0.572323	 2
1463629546.679	 3	 -2.453742	 0.110520	 -0.849108	 1.314407	 -0.761550	 -0.874429	 -0.026411	 0.638383	 -0.516892	 0.569730	 2
1463629546.689	 3	 -2.063624	 -0.181111	 -1.158960	 1.331685	 -0.777343	 -0.848661	 -0.036229	 0.643646	 -0.512950	 0.566824	 2
1463629546.699	 3	 -1.498011	 -0.376426	 -1.463050	 1.340753	 -0.794649	 -0.830641	 -0.046286	 0.646521	 -0.511504	 0.564120	 2
1463629546.709	 3	 -0.841899	 0.012344	 -1.708139	 1.345891	 -0.813122	 -0.821876	 -0.054804	 0.648356	 -0.512880	 0.559987	 2
1463629546.719	 3	 -0.478705	 0.670472	 -1.595404	 1.352758	 -0.830303	 -0.819426	 -0.060329	 0.650686	 -0.515837	 0.553968	 2
1463629546.729	 3	 -0.394871	 1.300326	 -1.387778	 1.365154	 -0.845204	 -0.817989	 -0.063206	 0.654412	 -0.518810	 0.546430	 2
1463629546.739	 3	 -0.365555	 2.140899	 -1.185177	 1.385777	 -0.858097	 -0.816127	 -0.063289	 0.660189	 -0.521561	 0.536768	 2
1463629546.749	 3	 -0.327740	 2.925489	 -0.925620	 1.415177	 -0.868437	 -0.813544	 -0.060311	 0.668056	 -0.523907	 0.524963	 2
1463629546.759	 3	 -0.241380	 3.605608	 -0.679181	 1.451389	 -0.876128	 -0.811056	 -0.054480	 0.677425	 -0.525920	 0.511405	 2
1463629546.769	 3	 -0.171874	 4.317811	 -0.415244	 1.494454	 -0.881106	 -0.808887	 -0.045693	 0.688221	 -0.527534	 0.495956	 2
1463629546.779	 3	 0.077916	 4.679441	 -0.020788	 1.540836	 -0.882524	 -0.808815	 -0.033978	 0.699522	 -0.528760	 0.479507	 2
1463629546.789	 3	 0.700294	 4.517391	 0.764147	 1.580186	 -0.877062	 -0.817133	 -0.018697	 0.708980	 -0.529972	 0.464895	 2
1463629546.799	 3	 1.308558	 4.400116	 1.704157	 1.609909	 -0.862564	 -0.835824	 0.000929	 0.716043	 -0.530942	 0.453191	 2
1463629546.809	 3	 1.083998	 3.964443	 2.109179	 1.636093	 -0.842595	 -0.856469	 0.022236	 0.721955	 -0.530574	 0.443597	 2
1463629546.819	 3	 0.096412	 3.241528	 2.050302	 1.664565	 -0.822338	 -0.863567	 0.039302	 0.728227	 -0.526670	 0.436761	 2
1463629546.829	 3	 -0.339459	 2.712772	 2.294302	 1.693497	 -0.800015	 -0.863251	 0.054351	 0.734630	 -0.520221	 0.432128	 2
1463629546.839	 3	 -0.415143	 2.105048	 2.501393	 1.716443	 -0.774987	 -0.862337	 0.068361	 0.739710	 -0.512737	 0.430415	 2
1463629546.849	 3	 -0.615005	 1.856397	 2.452860	 1.737048	 -0.749768	 -0.860087	 0.081167	 0.744290	 -0.504672	 0.429826	 2
1463629546.859	 3	 -0.991985	 1.684072	 2.590956	 1.758120	 -0.723148	 -0.854384	 0.093082	 0.749097	 -0.495146	 0.430139	 2
1463629546.869	 3	 -1.389861	 1.485207	 2.873931	 1.779576	 -0.693154	 -0.844888	 0.104543	 0.754181	 -0.483483	 0.431886	 2
1463629546.879	 3	 -1.648401	 1.505309	 3.047957	 1.801724	 -0.660216	 -0.833369	 0.116073	 0.759552	 -0.470087	 0.434311	 2
1463629546.889	 3	 -1.631516	 1.570294	 2.922655	 1.823946	 -0.627357	 -0.822187	 0.127402	 0.764951	 -0.456355	 0.436301	 2
1463629546.899	 3	 -1.319358	 1.536969	 2.560465	 1.844225	 -0.598056	 -0.813983	 0.138009	 0.769764	 -0.444113	 0.437243	 2
1463629546.909	 3	 -0.900615	 1.407133	 2.279579	 1.860732	 -0.572784	 -0.810189	 0.147999	 0.773451	 -0.434083	 0.437540	 2
1463629546.919	 3	 -0.631044	 1.250738	 2.089268	 1.873914	 -0.550370	 -0.809860	 0.157577	 0.776131	 -0.425777	 0.437612	 2
1463629546.929	 3	 -0.562150	 0.801863	 1.966191	 1.882815	 -0.529659	 -0.810566	 0.166024	 0.777750	 -0.418451	 0.438679	 2
1463629546.939	 3	 -0.783553	 0.617240	 1.791616	 1.889806	 -0.509969	 -0.809425	 0.172971	 0.779064	 -0.411115	 0.440595	 2
1463629546.949	 3	 -1.128743	 0.443532	 1.605431	 1.897312	 -0.490976	 -0.804025	 0.178087	 0.780841	 -0.402936	 0.442961	 2
1463629546.959	 3	 -1.253250	 0.207617	 1.436995	 1.903592	 -0.472992	 -0.796242	 0.181654	 0.782567	 -0.394584	 0.445975	 2
1463629546.969	 3	 -1.230055	 0.027944	 1.310427	 1.907925	 -0.456294	 -0.788017	 0.184226	 0.783919	 -0.386667	 0.449466	 2
1463629546.979	 3	 -1.140298	 0.150211	 1.193549	 1.912217	 -0.440862	 -0.780352	 0.186592	 0.785232	 -0.379244	 0.452513	 2
1463629546.989	 3	 -0.979135	 0.531331	 1.013447	 1.919305	 -0.427386	 -0.773679	 0.189253	 0.787130	 -0.372401	 0.453792	 2
1463629546.999	 3	 -0.651870	 0.885976	 0.769838	 1.929279	 -0.416999	 -0.769145	 0.192335	 0.789558	 -0.366796	 0.452843	 2
1463629547.009	 3	 -0.221217	 1.188416	 0.555751	 1.940717	 -0.410166	 -0.768152	 0.196005	 0.792060	 -0.363058	 0.449902	 2
1463629547.019	 3	 0.163082	 1.580661	 0.386598	 1.954609	 -0.406474	 -0.770586	 0.200543	 0.794831	 -0.360918	 0.444707	 2
1463629547.029	 3	 0.498924	 1.818303	 0.292098	 1.970187	 -0.405188	 -0.776042	 0.205888	 0.797681	 -0.360082	 0.437785	 2
1463629547.039	 3	 0.799196	 1.726527	 0.225759	 1.984601	 -0.405844	 -0.784352	 0.211620	 0.799959	 -0.360615	 0.430395	 2
1463629547.049	 3	 1.032446	 1.272975	 0.110800	 1.994602	 -0.408479	 -0.794726	 0.216846	 0.801048	 -0.362703	 0.423966	 2
1463629547.059	 3	 1.168491	 0.597211	 -0.032025	 1.997848	 -0.413149	 -0.806087	 0.220690	 0.800604	 -0.366413	 0.419609	 2
1463629547.069	 3	 1.225091	 -0.174085	 -0.180376	 1.993364	 -0.419460	 -0.817496	 0.222670	 0.798557	 -0.371543	 0.417948	 2
1463629547.079	 3	 1.296775	 -0.734439	 -0.274672	 1.982414	 -0.426991	 -0.829173	 0.223165	 0.795162	 -0.377860	 0.418493	 2
1463629547.089	 3	 1.341509	 -0.976036	 -0.278376	 1.967993	 -0.434822	 -0.841402	 0.223056	 0.790990	 -0.384764	 0.420164	 2
1463629547.099	 3	 1.442476	 -1.079369	 -0.259967	 1.951737	 -0.442609	 -0.854705	 0.222926	 0.786313	 -0.392061	 0.422262	 2
1463629547.109	 3	 1.567221	 -0.893467	 -0.241205	 1.935628	 -0.450519	 -0.869633	 0.223311	 0.781491	 -0.399703	 0.423841	 2
1463629547.119	 3	 1.534368	 -0.179576	 -0.225750	 1.925002	 -0.458127	 -0.884894	 0.224908	 0.777789	 -0.406677	 0.423171	 2
1463629547.129	 3	 1.424216	 0.872905	 -0.191550	 1.924671	 -0.465042	 -0.899343	 0.228439	 0.776326	 -0.412053	 0.418743	 2
1463629547.139	 3	 1.236177	 1.680118	 -0.130180	 1.933839	 -0.470977	 -0.912314	 0.233647	 0.776941	 -0.415646	 0.411108	 2
1463629547.149	 3	 0.914548	 2.170139	 -0.008783	 1.949790	 -0.474994	 -0.922603	 0.239810	 0.779105	 -0.417177	 0.401809	 2
1463629547.159	 3	 0.612126	 2.349194	 0.212932	 1.969557	 -0.476215	 -0.930316	 0.246592	 0.782132	 -0.416709	 0.392194	 2
1463629547.179	 4	 0.256903	 1.993904	 0.942766	 2.005939	 -0.467195	 -0.944603	 0.262266	 0.787019	 -0.411809	 0.377134	 2
1463629547.189	 4	 0.027331	 1.609620	 1.098922	 2.020520	 -0.457782	 -0.950568	 0.270200	 0.788651	 -0.407804	 0.372448	 2
1463629547.199	 4	 -0.025007	 0.836376	 0.931252	 2.029059	 -0.448757	 -0.955177	 0.276217	 0.789303	 -0.404426	 0.370331	 2
1463629547.209	 4	 0.045761	 -0.144984	 0.568737	 2.028500	 -0.442920	 -0.958678	 0.279071	 0.788507	 -0.403164	 0.371260	 2
1463629547.219	 4	 0.058383	 -0.832199	 0.263819	 2.020724	 -0.440231	 -0.960961	 0.279134	 0.786639	 -0.403760	 0.374514	 2
1463629547.239	 5	 -0.506835	 -1.457645	 0.029518	 1.995754	 -0.437315	 -0.956389	 0.273090	 0.782409	 -0.405352	 0.385938	 2
1463629547.249	 5	 -0.840608	 -1.367807	 0.256004	 1.984564	 -0.432324	 -0.949468	 0.269508	 0.780961	 -0.403840	 0.392910	 2
1463629547.259	 5	 -0.741638	 -1.219203	 0.547478	 1.974637	 -0.424789	 -0.943610	 0.267327	 0.779455	 -0.401473	 0.399756	 2
1463629547.269	 5	 -0.361891	 -1.771773	 0.624291	 1.959771	 -0.417223	 -0.941478	 0.265643	 0.776394	 -0.400478	 0.407754	 2
1463629547.279	 5	 0.011138	 -2.631408	 0.448917	 1.934740	 -0.412380	 -0.942861	 0.262528	 0.770805	 -0.402450	 0.418298	 2
1463629547.299	 6	 -0.687077	 -0.242114	 0.225709	 1.904379	 -0.404690	 -0.938052	 0.256784	 0.764561	 -0.402822	 0.432717	 2
1463629547.309	 6	 -1.047935	 1.870324	 0.095038	 1.922338	 -0.400276	 -0.928700	 0.258064	 0.769393	 -0.397032	 0.428722	 2
1463629547.319	 6	 -1.119004	 1.651268	 -0.073706	 1.945532	 -0.396459	 -0.917083	 0.259232	 0.775639	 -0.390276	 0.422927	 2
1463629547.329	 6	 -0.940363	 -0.263840	 -0.378706	 1.952590	 -0.395595	 -0.906045	 0.256559	 0.778513	 -0.386739	 0.422526	 2
1463629547.339	 6	 -1.149338	 -2.443800	 -0.695585	 1.938662	 -0.397390	 -0.892660	 0.248151	 0.777317	 -0.386255	 0.430124	 2
1463629547.349	 6	 -1.365267	 -3.957934	 -0.867659	 1.908626	 -0.400624	 -0.876053	 0.234974	 0.772907	 -0.387349	 0.444255	 2
1463629547.359	 6	 -1.236002	 -3.999015	 -1.053544	 1.874257	 -0.405996	 -0.859305	 0.220270	 0.767299	 -0.389280	 0.459559	 2
1463629547.369	 6	 -0.899381	 -2.890345	 -1.450088	 1.847847	 -0.416548	 -0.844959	 0.206454	 0.763179	 -0.392269	 0.470170	 2
1463629547.379	 6	 -0.584900	 -1.960213	 -1.835306	 1.831335	 -0.431714	 -0.832842	 0.193962	 0.761158	 -0.396048	 0.475566	 2
1463629547.389	 6	 -0.273535	 -1.684414	 -1.958014	 1.817929	 -0.449546	 -0.823752	 0.182341	 0.759547	 -0.400961	 0.478612	 2
1463629547.399	 6	 0.047992	 -1.497094	 -2.104013	 1.805006	 -0.469485	 -0.817898	 0.171303	 0.757718	 -0.407146	 0.480365	 2
1463629547.409	 6	 0.370994	 -1.152972	 -2.333828	 1.793715	 -0.492246	 -0.815288	 0.160845	 0.756005	 -0.414732	 0.480191	 2
1463629547.419	 6	 0.771949	 -0.749935	 -2.621325	 1.784591	 -0.518537	 -0.816390	 0.151018	 0.754541	 -0.424004	 0.477579	 2
1463629547.429	 6	 1.194118	 -0.305018	 -2.991746	 1.777723	 -0.549064	 -0.821804	 0.141844	 0.753331	 -0.435283	 0.472124	 2
1463629547.439	 6	 1.594632	 -0.000848	 -3.272698	 1.771917	 -0.583618	 -0.831448	 0.133095	 0.752088	 -0.448496	 0.464220	 2
1463629547.449	 6	 1.882821	 0.088036	 -3.366036	 1.764907	 -0.620000	 -0.845110	 0.124871	 0.750269	 -0.462971	 0.455150	 2
1463629547.459	 6	 2.013706	 0.018428	 -3.378481	 1.755644	 -0.656957	 -0.861526	 0.116815	 0.747746	 -0.478011	 0.445797	 2
1463629547.469	 6	 1.987766	 -0.095978	 -3.324965	 1.743857	 -0.693372	 -0.879159	 0.108594	 0.744598	 -0.492893	 0.436850	 2
1463629547.479	 6	 1.777003	 -0.058530	 -3.233262	 1.732163	 -0.728890	 -0.896037	 0.100208	 0.741539	 -0.506921	 0.427913	 2
1463629547.489	 6	 1.459481	 -0.458122	 -3.170271	 1.719680	 -0.762814	 -0.909858	 0.090829	 0.738488	 -0.519493	 0.420133	 2
1463629547.499	 6	 1.148152	 -0.943529	 -3.058044	 1.703209	 -0.795403	 -0.921044	 0.079692	 0.734750	 -0.530946	 0.414593	 2
1463629547.509	 6	 0.864614	 -1.211880	 -2.923786	 1.685745	 -0.825854	 -0.929154	 0.067687	 0.730956	 -0.540873	 0.410583	 2
1463629547.519	 6	 0.662139	 -1.185460	 -2.882344	 1.669262	 -0.855324	 -0.935054	 0.055302	 0.727451	 -0.549719	 0.406897	 2
1463629547.529	 6	 0.626347	 -1.144391	 -2.807047	 1.653438	 -0.884084	 -0.940751	 0.043120	 0.724091	 -0.558006	 0.403065	 2
1463629547.539	 6	 0.655428	 -1.015514	 -2.623856	 1.637085	 -0.911244	 -0.947986	 0.031761	 0.720615	 -0.565926	 0.399290	 2
1463629547.549	 6	 0.712471	 -0.680872	 -2.362258	 1.622794	 -0.935869	 -0.956670	 0.022264	 0.717578	 -0.573248	 0.394934	 2
1463629547.559	 6	 1.010687	 -0.506006	 -2.182048	 1.605541	 -0.958467	 -0.971054	 0.014546	 0.713983	 -0.581015	 0.390434	 2
1463629547.569	 6	 1.302195	 -0.340110	 -2.067940	 1.584732	 -0.979681	 -0.991836	 0.008405	 0.709797	 -0.589464	 0.385550	 2
1463629547.579	 6	 1.556759	 -0.486210	 -2.018228	 1.557623	 -0.999954	 -1.019120	 0.002833	 0.704580	 -0.598658	 0.381009	 2
1463629547.589	 6	 1.707362	 -0.900666	 -2.040325	 1.515808	 -1.008084	 -1.057153	 0.000649	 0.696663	 -0.607400	 0.381739	 2
1463629547.599	 6	 1.718408	 -1.469986	 -2.075560	 1.472184	 -1.027383	 -1.092896	 -0.007275	 0.688835	 -0.617288	 0.380011	 2
1463629547.609	 6	 1.550448	 -2.028786	 -2.052653	 1.421997	 -1.045906	 -1.129154	 -0.017198	 0.680117	 -0.626585	 0.380180	 2
1463629547.619	 6	 1.253725	 -2.371602	 -1.925368	 1.369916	 -1.062926	 -1.162640	 -0.028533	 0.671318	 -0.634564	 0.381898	 2
1463629547.629	 6	 0.882331	 -2.532943	 -1.737128	 1.320098	 -1.078154	 -1.190857	 -0.040609	 0.663088	 -0.640820	 0.384728	 2
1463629547.639	 6	 0.467506	 -2.416409	 -1.528871	 1.277011	 -1.091848	 -1.211738	 -0.052637	 0.656128	 -0.645183	 0.387898	 2
1463629547.649	 6	 0.112966	 -2.162017	 -1.352895	 1.242811	 -1.104514	 -1.225194	 -0.063991	 0.650764	 -0.647886	 0.390711	 2
1463629547.659	 6	 -0.121737	 -2.214974	 -1.270346	 1.213933	 -1.116844	 -1.233240	 -0.075325	 0.646321	 -0.649393	 0.393554	 2
1463629547.669	 6	 0.075136	 -2.513751	 -1.323866	 1.178369	 -1.128929	 -1.244902	 -0.087629	 0.640743	 -0.651051	 0.397369	 2
1463629547.679	 6	 -0.007709	 -2.055485	 -1.231487	 1.145712	 -1.140475	 -1.257205	 -0.098642	 0.635808	 -0.652631	 0.400114	 2
1463629547.689	 6	 -0.065429	 -1.778496	 -1.046162	 1.117927	 -1.150585	 -1.267272	 -0.108288	 0.631684	 -0.653688	 0.402419	 2
1463629547.699	 6	 -0.078885	 -1.315120	 -0.954340	 1.095079	 -1.159697	 -1.276582	 -0.116218	 0.628479	 -0.654638	 0.403679	 2
1463629547.709	 6	 -0.191874	 -0.985891	 -0.774442	 1.078932	 -1.167670	 -1.282727	 -0.122541	 0.626378	 -0.655178	 0.404199	 2
1463629547.719	 6	 -0.406565	 -0.899311	 -0.655599	 1.069409	 -1.175297	 -1.283193	 -0.128347	 0.625251	 -0.654893	 0.404603	 2
1463629547.729	 6	 -0.752203	 -0.891746	 -0.632270	 1.067010	 -1.184006	 -1.276114	 -0.134580	 0.625171	 -0.653536	 0.404896	 2
1463629547.739	 6	 -1.201232	 -0.808785	 -0.667022	 1.074538	 -1.194978	 -1.258957	 -0.141571	 0.626561	 -0.650886	 0.404631	 2
1463629547.749	 6	 -1.595766	 -0.508801	 -0.673584	 1.094792	 -1.208008	 -1.230837	 -0.148679	 0.629750	 -0.647091	 0.403215	 2
1463629547.759	 6	 -1.814270	 -0.096769	 -0.558074	 1.128385	 -1.221193	 -1.192867	 -0.154762	 0.634608	 -0.642537	 0.400584	 2
1463629547.769	 6	 -1.927162	 0.230525	 -0.351551	 1.173676	 -1.232645	 -1.146372	 -0.159359	 0.640665	 -0.637416	 0.397309	 2
1463629547.779	 6	 -2.091619	 0.660521	 -0.083940	 1.232545	 -1.241454	 -1.089770	 -0.162196	 0.648098	 -0.631562	 0.393435	 2
1463629547.789	 6	 -2.184621	 1.251390	 0.249557	 1.306169	 -1.246374	 -1.023675	 -0.162455	 0.657208	 -0.625055	 0.388577	 2
1463629547.799	 6	 -2.056531	 1.653372	 0.585766	 1.386131	 -1.246100	 -0.955907	 -0.159937	 0.667182	 -0.618388	 0.383256	 2
1463629547.809	 6	 -1.967505	 1.797171	 0.797350	 1.464549	 -1.241540	 -0.891796	 -0.155726	 0.677204	 -0.611734	 0.378056	 2
1463629547.819	 6	 -2.174313	 2.113131	 1.016309	 1.547259	 -1.233379	 -0.825494	 -0.150333	 0.688117	 -0.604269	 0.372497	 2
1463629547.829	 6	 -2.199569	 2.830221	 1.329075	 1.634893	 -1.220476	 -0.760377	 -0.142208	 0.700549	 -0.596188	 0.365470	 2
1463629547.839	 6	 -1.814293	 3.667666	 1.684149	 1.716188	 -1.202611	 -0.710533	 -0.129800	 0.713600	 -0.588845	 0.356635	 2
1463629547.849	 6	 -1.318236	 4.273651	 1.993474	 1.784552	 -1.181142	 -0.681555	 -0.113275	 0.726264	 -0.582809	 0.346471	 2
1463629547.859	 6	 -0.946251	 4.461199	 2.192344	 1.840399	 -1.157834	 -0.669158	 -0.094277	 0.737942	 -0.577688	 0.335902	 2
1463629547.869	 6	 -0.859812	 4.159527	 2.281505	 1.886866	 -1.133687	 -0.665005	 -0.075020	 0.748441	 -0.572550	 0.326183	 2
1463629547.879	 6	 -1.087701	 3.322385	 2.324725	 1.926371	 -1.108488	 -0.660651	 -0.057793	 0.757823	 -0.566193	 0.319045	 2
1463629547.889	 6	 -1.513446	 2.245841	 2.275784	 1.960614	 -1.081972	 -0.650440	 -0.044183	 0.766338	 -0.557848	 0.315561	 2
1463629547.899	 6	 -1.914920	 1.224616	 2.091794	 1.990449	 -1.055101	 -0.633216	 -0.034727	 0.774117	 -0.547747	 0.315452	 2
1463629547.909	 6	 -2.186182	 0.248385	 1.858064	 2.014647	 -1.028784	 -0.610872	 -0.029307	 0.780962	 -0.536524	 0.318405	 2
1463629547.919	 6	 -2.336492	 -0.669544	 1.646205	 2.031636	 -1.003449	 -0.585577	 -0.027562	 0.786594	 -0.524699	 0.324347	 2
1463629547.929	 6	 -2.337760	 -1.303142	 1.542270	 2.041275	 -0.978958	 -0.560127	 -0.028275	 0.790980	 -0.512721	 0.332669	 2
1463629547.939	 6	 -2.255739	 -1.548128	 1.526487	 2.045499	 -0.955006	 -0.536634	 -0.029903	 0.794424	 -0.500899	 0.342194	 2
1463629547.949	 6	 -2.126930	 -1.429041	 1.573367	 2.047368	 -0.931247	 -0.516045	 -0.031115	 0.797450	 -0.489362	 0.351610	 2
1463629547.959	 6	 -1.936952	 -1.034466	 1.646791	 2.049283	 -0.907653	 -0.499246	 -0.030921	 0.800478	 -0.478345	 0.359811	 2
1463629547.969	 6	 -1.684425	 -0.509183	 1.729412	 2.052403	 -0.884417	 -0.487001	 -0.028776	 0.803709	 -0.468125	 0.366174	 2
1463629547.979	 6	 -1.420481	 -0.043570	 1.801787	 2.056632	 -0.861704	 -0.479469	 -0.024677	 0.807104	 -0.458835	 0.370735	 2
1463629547.989	 6	 -1.132347	 0.427656	 1.778085	 2.062354	 -0.840227	 -0.476041	 -0.018969	 0.810630	 -0.450654	 0.373402	 2
1463629547.999	 6	 -0.825973	 0.770528	 1.662440	 2.069177	 -0.821023	 -0.476228	 -0.012208	 0.814079	 -0.443879	 0.374297	 2
1463629548.009	 6	 -0.564348	 0.954604	 1.484958	 2.076369	 -0.804586	 -0.478950	 -0.005115	 0.817243	 -0.438498	 0.373908	 2
1463629548.019	 6	 -0.320076	 1.068630	 1.320831	 2.083408	 -0.790873	 -0.483635	 0.001993	 0.820028	 -0.434407	 0.372613	 2
1463629548.029	 6	 -0.063670	 1.205518	 1.229252	 2.090055	 -0.779394	 -0.490778	 0.009413	 0.822440	 -0.431535	 0.370515	 2
1463629548.039	 6	 0.171706	 1.372527	 1.180797	 2.096571	 -0.769648	 -0.500449	 0.017378	 0.824568	 -0.429715	 0.367600	 2
1463629548.049	 6	 0.373819	 1.490799	 1.144968	 2.102935	 -0.761332	 -0.512429	 0.025884	 0.826426	 -0.428792	 0.363989	 2
1463629548.059	 6	 0.546888	 1.567612	 1.100480	 2.108940	 -0.754340	 -0.526228	 0.034721	 0.827977	 -0.428635	 0.359890	 2
1463629548.069	 6	 0.677146	 1.646433	 1.022278	 2.114995	 -0.748723	 -0.541171	 0.043688	 0.829293	 -0.429128	 0.355266	 2
1463629548.079	 6	 0.798882	 1.749559	 0.918799	 2.121592	 -0.744639	 -0.556812	 0.052668	 0.830452	 -0.430230	 0.349969	 2
1463629548.089	 6	 0.903314	 1.832287	 0.782242	 2.128899	 -0.742303	 -0.572829	 0.061509	 0.831470	 -0.431945	 0.343944	 2
1463629548.099	 6	 0.965536	 1.845522	 0.579329	 2.136887	 -0.742004	 -0.588342	 0.069770	 0.832348	 -0.434215	 0.337322	 2
1463629548.109	 6	 1.009250	 1.829676	 0.318755	 2.145521	 -0.744127	 -0.602608	 0.077037	 0.833081	 -0.437055	 0.330188	 2
1463629548.119	 6	 1.054096	 1.848742	 0.032917	 2.155449	 -0.748970	 -0.615240	 0.083224	 0.833775	 -0.440484	 0.322285	 2
1463629548.129	 6	 1.153045	 1.781650	 -0.231812	 2.165674	 -0.756595	 -0.626738	 0.088313	 0.834241	 -0.444650	 0.313892	 2
1463629548.139	 6	 1.330640	 1.649415	 -0.501029	 2.174747	 -0.767403	 -0.637972	 0.092250	 0.834178	 -0.449905	 0.305324	 2
1463629548.149	 6	 1.697439	 1.376068	 -0.792391	 2.180594	 -0.782363	 -0.650502	 0.094961	 0.833113	 -0.456924	 0.296861	 2
1463629548.159	 6	 2.079499	 0.943147	 -1.082173	 2.180361	 -0.802128	 -0.665610	 0.096109	 0.830519	 -0.466229	 0.289191	 2
1463629548.169	 6	 2.013544	 0.484476	 -1.290493	 2.175827	 -0.824203	 -0.679967	 0.095280	 0.827082	 -0.476312	 0.282812	 2
1463629548.179	 6	 1.279216	 0.112239	 -1.143685	 2.171730	 -0.842670	 -0.688129	 0.092855	 0.824325	 -0.484108	 0.278399	 2
1463629548.189	 6	 0.175307	 0.432584	 -0.829482	 2.175950	 -0.852755	 -0.686123	 0.090422	 0.823992	 -0.487143	 0.274868	 2
1463629548.209	 7	 -1.215527	 1.775689	 0.188416	 2.231489	 -0.844503	 -0.657875	 0.094219	 0.833601	 -0.477883	 0.260498	 2
1463629548.219	 7	 -0.580454	 0.865565	 0.489883	 2.246102	 -0.836487	 -0.652936	 0.097617	 0.836609	 -0.473656	 0.257306	 2
1463629548.229	 7	 -0.026978	 0.183441	 0.665225	 2.246383	 -0.830647	 -0.657099	 0.100863	 0.837076	 -0.472063	 0.257463	 2
1463629548.239	 7	 0.192899	 -0.386043	 0.545041	 2.238525	 -0.826948	 -0.664463	 0.103002	 0.836080	 -0.472078	 0.259813	 2
1463629548.249	 7	 0.172090	 -0.773606	 0.333792	 2.227446	 -0.825119	 -0.670007	 0.103156	 0.834536	 -0.472716	 0.263529	 2
1463629548.259	 7	 0.116076	 -0.822894	 0.261349	 2.216277	 -0.823700	 -0.673987	 0.102530	 0.832994	 -0.473311	 0.267556	 2
1463629548.269	 7	 0.069074	 -0.779606	 0.198216	 2.206274	 -0.822489	 -0.676847	 0.101658	 0.831622	 -0.473774	 0.271308	 2
1463629548.279	 7	 0.024328	 -0.778285	 0.215670	 2.197026	 -0.821020	 -0.678971	 0.100724	 0.830397	 -0.474011	 0.274972	 2
1463629548.289	 7	 0.021369	 -0.795763	 0.297596	 2.187049	 -0.818920	 -0.681623	 0.099999	 0.829086	 -0.474135	 0.278949	 2
1463629548.299	 7	 -0.039961	 -0.491034	 0.346794	 2.179366	 -0.816009	 -0.684127	 0.099968	 0.828161	 -0.473843	 0.282187	 2
1463629548.309	 7	 0.201246	 -0.344233	 0.447307	 2.172375	 -0.813275	 -0.688970	 0.101026	 0.827182	 -0.473918	 0.284543	 2
1463629548.319	 7	 0.314067	 -0.503280	 0.561013	 2.161734	 -0.810535	 -0.697132	 0.102591	 0.825494	 -0.474668	 0.287620	 2
1463629548.329	 7	 0.263369	 -0.488295	 0.407058	 2.151672	 -0.808195	 -0.704191	 0.103729	 0.823882	 -0.475391	 0.290622	 2
1463629548.339	 7	 0.128719	 -0.520758	 0.129765	 2.143917	 -0.807513	 -0.707817	 0.103557	 0.822622	 -0.476086	 0.293107	 2
1463629548.349	 7	 -0.204171	 -0.072728	 -0.116819	 2.142805	 -0.807362	 -0.706071	 0.102615	 0.822561	 -0.475835	 0.294015	 2
1463629548.359	 7	 -0.627940	 0.640821	 -0.452863	 2.154324	 -0.807521	 -0.696881	 0.101523	 0.824702	 -0.473957	 0.291417	 2
1463629548.369	 7	 -0.908214	 0.640585	 -0.891650	 2.173364	 -0.809233	 -0.680275	 0.098712	 0.828132	 -0.471203	 0.287090	 2
1463629548.379	 7	 -0.901773	 -0.252718	 -1.164328	 2.187929	 -0.813125	 -0.660141	 0.092781	 0.830808	 -0.469007	 0.284925	 2
1463629548.389	 7	 -0.779827	 -1.136585	 -1.116063	 2.192860	 -0.817686	 -0.640655	 0.084670	 0.831921	 -0.467636	 0.286451	 2
1463629548.399	 7	 -0.422821	 -1.902697	 -0.868386	 2.186094	 -0.822240	 -0.626423	 0.076011	 0.831047	 -0.467486	 0.291618	 2
1463629548.409	 7	 0.163085	 -2.552528	 -0.626948	 2.166256	 -0.827849	 -0.620726	 0.067562	 0.827735	 -0.469361	 0.299984	 2
1463629548.419	 7	 0.905453	 -2.924293	 -0.551611	 2.134466	 -0.836416	 -0.625146	 0.059646	 0.821866	 -0.474075	 0.310212	 2
1463629548.429	 7	 1.543249	 -2.945814	 -0.621310	 2.094979	 -0.848785	 -0.638417	 0.052320	 0.814035	 -0.481560	 0.320483	 2
1463629548.439	 7	 2.010255	 -2.780439	 -0.654744	 2.051140	 -0.863632	 -0.659068	 0.045914	 0.804982	 -0.491004	 0.329866	 2
1463629548.449	 7	 2.264522	 -2.735331	 -0.638420	 2.003423	 -0.879222	 -0.685683	 0.040271	 0.795028	 -0.501571	 0.338728	 2
1463629548.459	 7	 1.933551	 -2.794737	 -0.604119	 1.955506	 -0.893043	 -0.711717	 0.034355	 0.785163	 -0.511280	 0.347751	 2
1463629548.469	 7	 1.156046	 -2.901121	 -0.628180	 1.913584	 -0.903639	 -0.728572	 0.026945	 0.776698	 -0.518111	 0.357176	 2
1463629548.479	 7	 0.482818	 -2.968295	 -0.776413	 1.879332	 -0.912632	 -0.734525	 0.017565	 0.769780	 -0.522224	 0.366622	 2
1463629548.489	 7	 0.129781	 -2.938263	 -1.030975	 1.851013	 -0.922399	 -0.733025	 0.006518	 0.763850	 -0.524937	 0.375408	 2
1463629548.499	 7	 0.171886	 -2.832937	 -1.303196	 1.824990	 -0.934757	 -0.729799	 -0.005475	 0.758061	 -0.527833	 0.383021	 2
1463629548.509	 7	 0.456300	 -2.574425	 -1.473789	 1.798066	 -0.949566	 -0.730247	 -0.017186	 0.751849	 -0.531877	 0.389275	 2
1463629548.519	 7	 0.785799	 -2.073203	 -1.597754	 1.770934	 -0.966408	 -0.736382	 -0.027605	 0.745469	 -0.537332	 0.393432	 2
1463629548.529	 7	 1.121858	 -1.376806	 -1.645356	 1.744756	 -0.984428	 -0.749163	 -0.035850	 0.739325	 -0.544170	 0.394959	 2
1463629548.539	 7	 1.450082	 -0.595805	 -1.616434	 1.720198	 -1.002689	 -0.769105	 -0.041296	 0.733715	 -0.552264	 0.393652	 2
1463629548.549	 7	 1.764581	 -0.057913	 -1.529972	 1.695141	 -1.020395	 -0.796640	 -0.044146	 0.728344	 -0.561447	 0.390311	 2
1463629548.559	 7	 2.012378	 0.134552	 -1.436551	 1.666451	 -1.036994	 -0.831269	 -0.045341	 0.722663	 -0.571394	 0.386279	 2
1463629548.569	 7	 2.083530	 0.054625	 -1.429389	 1.633629	 -1.052887	 -0.870314	 -0.046213	 0.716524	 -0.581643	 0.382294	 2
1463629548.579	 7	 1.901543	 -0.310559	 -1.406690	 1.597726	 -1.067916	 -0.909094	 -0.048136	 0.710050	 -0.591281	 0.379340	 2
1463629548.589	 7	 1.576131	 -0.793142	 -1.350796	 1.560533	 -1.081718	 -0.943729	 -0.051825	 0.703494	 -0.599564	 0.378065	 2
1463629548.599	 7	 1.298958	 -1.217475	 -1.309700	 1.522659	 -1.094502	 -0.973884	 -0.057233	 0.696917	 -0.606521	 0.378369	 2
1463629548.619	 8	 0.969432	 -1.720855	 -1.190019	 1.444223	 -1.117463	 -1.026348	 -0.071408	 0.683562	 -0.617641	 0.382313	 2
1463629548.629	 8	 0.923198	 -1.853159	 -1.119441	 1.403434	 -1.127335	 -1.051414	 -0.079126	 0.676758	 -0.622299	 0.385333	 2
1463629548.639	 8	 0.913214	 -1.971921	 -1.073566	 1.360516	 -1.136296	 -1.077351	 -0.087086	 0.669688	 -0.626674	 0.388862	 2
1463629548.649	 8	 0.894064	 -1.990739	 -1.036272	 1.316265	 -1.144356	 -1.104117	 -0.095057	 0.662487	 -0.630803	 0.392635	 2
1463629548.659	 8	 0.830055	 -1.966261	 -1.060000	 1.271950	 -1.152143	 -1.131076	 -0.103084	 0.655385	 -0.634702	 0.396230	 2
1463629548.669	 8	 0.714828	 -1.906821	 -1.123455	 1.228732	 -1.160292	 -1.157268	 -0.111331	 0.648594	 -0.638297	 0.399384	 2
1463629548.679	 8	 0.583761	 -1.823833	 -1.172698	 1.187275	 -1.168974	 -1.182322	 -0.119748	 0.642253	 -0.641554	 0.401971	 2
1463629548.689	 8	 0.434326	 -1.536803	 -1.252921	 1.149265	 -1.178444	 -1.205957	 -0.127945	 0.636715	 -0.644528	 0.403493	 2
1463629548.699	 8	 0.322542	 -1.187120	 -1.331824	 1.115236	 -1.188892	 -1.229011	 -0.135519	 0.632178	 -0.647439	 0.403494	 2
1463629548.709	 8	 0.294463	 -1.022258	 -1.342834	 1.082535	 -1.199496	 -1.252875	 -0.142557	 0.628154	 -0.650360	 0.402655	 2
1463629548.719	 8	 0.267826	 -1.041085	 -1.309739	 1.049320	 -1.209710	 -1.277454	 -0.149479	 0.624226	 -0.653130	 0.401770	 2
1463629548.729	 8	 0.197184	 -1.140380	 -1.243971	 1.015742	 -1.219425	 -1.301380	 -0.156615	 0.620307	 -0.655489	 0.401279	 2
1463629548.739	 8	 0.104327	 -1.212893	 -1.160707	 0.983159	 -1.228683	 -1.323321	 -0.163937	 0.616547	 -0.657294	 0.401196	 2
1463629548.749	 8	 0.064790	 -1.327810	 -1.036738	 0.951284	 -1.237115	 -1.343398	 -0.171347	 0.612825	 -0.658575	 0.401703	 2
1463629548.759	 8	 0.022905	 -1.590739	 -0.790498	 0.920450	 -1.243898	 -1.360159	 -0.178863	 0.608933	 -0.659120	 0.403448	 2
1463629548.769	 8	 -0.102412	 -1.864318	 -0.579865	 0.892562	 -1.249201	 -1.370529	 -0.186832	 0.604927	 -0.658525	 0.406820	 2
1463629548.779	 8	 -0.385966	 -2.109500	 -0.477365	 0.869502	 -1.254953	 -1.373283	 -0.195670	 0.601254	 -0.656686	 0.411060	 2
1463629548.789	 8	 -0.890203	 -2.269276	 -0.420108	 0.856123	 -1.263158	 -1.363733	 -0.205889	 0.598652	 -0.653057	 0.415623	 2
1463629548.799	 8	 -1.382053	 -2.068500	 -0.359603	 0.857530	 -1.274342	 -1.339832	 -0.216638	 0.597910	 -0.647789	 0.419453	 2
1463629548.809	 8	 -1.579961	 -1.632749	 -0.191829	 0.874313	 -1.286243	 -1.304071	 -0.226264	 0.598964	 -0.641723	 0.422183	 2
1463629548.819	 8	 -1.581939	 -1.137362	 0.065384	 0.904512	 -1.296220	 -1.259509	 -0.233649	 0.601346	 -0.635520	 0.424153	 2
1463629548.829	 8	 -1.699124	 -0.602536	 0.287730	 0.950004	 -1.304277	 -1.204650	 -0.238786	 0.605294	 -0.629154	 0.425165	 2
1463629548.839	 8	 -1.946295	 0.000538	 0.482003	 1.015593	 -1.311137	 -1.135092	 -0.241969	 0.611377	 -0.622311	 0.424733	 2
1463629548.849	 8	 -2.032036	 0.681694	 0.655346	 1.099226	 -1.315729	 -1.053912	 -0.242780	 0.619473	 -0.615398	 0.422606	 2
1463629548.859	 8	 -1.948874	 1.227025	 0.793983	 1.191496	 -1.316970	 -0.969983	 -0.241189	 0.628760	 -0.608975	 0.419093	 2
1463629548.869	 8	 -1.907190	 1.564114	 0.947029	 1.286851	 -1.314601	 -0.886852	 -0.237773	 0.638725	 -0.602833	 0.414834	 2
1463629548.879	 8	 -2.172861	 1.829326	 1.184146	 1.390716	 -1.308522	 -0.797591	 -0.233208	 0.649919	 -0.595878	 0.410060	 2
1463629548.889	 8	 -2.388025	 2.321569	 1.508197	 1.504182	 -1.297271	 -0.702464	 -0.226907	 0.662965	 -0.587729	 0.404432	 2
1463629548.899	 8	 -2.086305	 3.139700	 1.806268	 1.609909	 -1.280252	 -0.622854	 -0.216959	 0.677148	 -0.580163	 0.397253	 2
1463629548.909	 8	 -1.536322	 3.862552	 2.119408	 1.695324	 -1.258582	 -0.572210	 -0.202590	 0.691399	 -0.574316	 0.388697	 2
1463629548.919	 8	 -1.111366	 4.091251	 2.440763	 1.760310	 -1.233388	 -0.546590	 -0.185020	 0.704946	 -0.569528	 0.380074	 2
1463629548.929	 8	 -0.930468	 3.748118	 2.717356	 1.809161	 -1.205422	 -0.535733	 -0.166430	 0.717274	 -0.564519	 0.373011	 2
1463629548.939	 8	 -1.030504	 3.000739	 2.870071	 1.846929	 -1.175447	 -0.529599	 -0.148984	 0.728220	 -0.558228	 0.368621	 2
1463629548.949	 8	 -1.426609	 2.045822	 2.884883	 1.879477	 -1.143985	 -0.519013	 -0.134474	 0.738105	 -0.549718	 0.367325	 2
1463629548.959	 8	 -1.936787	 1.234856	 2.757085	 1.911014	 -1.111697	 -0.499852	 -0.123536	 0.747446	 -0.538773	 0.368492	 2
1463629548.969	 8	 -2.348963	 0.660371	 2.572016	 1.942282	 -1.079290	 -0.473584	 -0.115756	 0.756479	 -0.525923	 0.371140	 2
1463629548.979	 8	 -2.595344	 0.178894	 2.372515	 1.971181	 -1.047256	 -0.443915	 -0.110504	 0.764998	 -0.511901	 0.374866	 2
1463629548.989	 8	 -2.698585	 -0.298533	 2.202713	 1.995389	 -1.015975	 -0.413617	 -0.107393	 0.772640	 -0.497275	 0.379753	 2
1463629548.999	 8	 -2.696776	 -0.714257	 2.077332	 2.013639	 -0.985516	 -0.384609	 -0.105905	 0.779196	 -0.482438	 0.385865	 2
1463629549.009	 8	 -2.628058	 -1.003339	 1.988782	 2.026366	 -0.955889	 -0.357747	 -0.105455	 0.784720	 -0.467653	 0.392930	 2
1463629549.019	 8	 -2.402321	 -1.038656	 1.903359	 2.034587	 -0.927704	 -0.334667	 -0.105184	 0.789345	 -0.453580	 0.400170	 2
1463629549.029	 8	 -2.057066	 -0.850951	 1.820036	 2.039658	 -0.901599	 -0.316781	 -0.104268	 0.793277	 -0.440889	 0.406763	 2
1463629549.039	 8	 -1.660778	 -0.466706	 1.723160	 2.043493	 -0.878026	 -0.304441	 -0.102176	 0.796838	 -0.430010	 0.411948	 2
1463629549.049	 8	 -1.292744	 0.067304	 1.589573	 2.048504	 -0.857267	 -0.296959	 -0.098690	 0.800446	 -0.421107	 0.414990	 2
1463629549.059	 8	 -1.014541	 0.584364	 1.428901	 2.056232	 -0.839237	 -0.292774	 -0.094079	 0.804362	 -0.413941	 0.415696	 2
1463629549.069	 8	 -0.786989	 1.006823	 1.256066	 2.066774	 -0.823827	 -0.290836	 -0.088720	 0.808575	 -0.408272	 0.414306	 2
1463629549.079	 8	 -0.617011	 1.190350	 1.112415	 2.078632	 -0.810639	 -0.290485	 -0.083079	 0.812793	 -0.403750	 0.411645	 2
1463629549.089	 8	 -0.464711	 1.209385	 1.012151	 2.090002	 -0.799146	 -0.291469	 -0.077473	 0.816700	 -0.400055	 0.408601	 2
1463629549.099	 8	 -0.269661	 1.214703	 0.944425	 2.100083	 -0.789241	 -0.294345	 -0.071787	 0.820168	 -0.397242	 0.405426	 2
1463629549.109	 8	 -0.064828	 1.212933	 0.929836	 2.108451	 -0.780640	 -0.299637	 -0.065795	 0.823160	 -0.395307	 0.402257	 2
1463629549.119	 8	 0.115871	 1.286849	 0.928950	 2.115776	 -0.773041	 -0.307204	 -0.059329	 0.825841	 -0.394133	 0.398907	 2
1463629549.129	 8	 0.290310	 1.409552	 0.906192	 2.122899	 -0.766522	 -0.316771	 -0.052344	 0.828347	 -0.393721	 0.395077	 2
1463629549.139	 8	 0.460338	 1.540444	 0.837721	 2.130248	 -0.761450	 -0.327963	 -0.044993	 0.830694	 -0.394142	 0.390608	 2
1463629549.149	 8	 0.602243	 1.639100	 0.712709	 2.138050	 -0.758159	 -0.340103	 -0.037588	 0.832863	 -0.395388	 0.385480	 2
1463629549.159	 8	 0.700905	 1.680984	 0.515074	 2.146492	 -0.757057	 -0.352206	 -0.030596	 0.834819	 -0.397421	 0.379735	 2
1463629549.169	 8	 0.762819	 1.658863	 0.276664	 2.155504	 -0.758338	 -0.363358	 -0.024455	 0.836514	 -0.400140	 0.373542	 2
1463629549.179	 8	 0.837279	 1.596161	 0.020715	 2.164727	 -0.762160	 -0.373366	 -0.019349	 0.837870	 -0.403571	 0.367055	 2
1463629549.189	 8	 0.961872	 1.527999	 -0.234656	 2.173752	 -0.768803	 -0.382645	 -0.015249	 0.838785	 -0.407904	 0.360309	 2
1463629549.199	 8	 1.140769	 1.430985	 -0.486504	 2.181898	 -0.778490	 -0.391838	 -0.012072	 0.839112	 -0.413337	 0.353408	 2
1463629549.209	 8	 1.399446	 1.311125	 -0.776562	 2.188536	 -0.791885	 -0.401470	 -0.009888	 0.838657	 -0.420213	 0.346379	 2
1463629549.219	 8	 1.707579	 1.061200	 -1.088510	 2.192261	 -0.809585	 -0.412125	 -0.008908	 0.837096	 -0.428834	 0.339546	 2
1463629549.229	 8	 1.867450	 0.594789	 -1.392656	 2.191665	 -0.831041	 -0.422848	 -0.009745	 0.834256	 -0.438791	 0.333742	 2
1463629549.239	 8	 1.552531	 -0.093433	 -1.675547	 2.187600	 -0.853913	 -0.429364	 -0.013488	 0.830568	 -0.448462	 0.329933	 2
1463629549.249	 8	 0.515577	 -0.490156	 -1.654224	 2.187064	 -0.872343	 -0.424481	 -0.020115	 0.827907	 -0.454546	 0.327953	 2
1463629549.259	 8	 -0.795823	 0.075314	 -1.209108	 2.199723	 -0.880591	 -0.406247	 -0.026778	 0.828589	 -0.454803	 0.325389	 2
1463629549.269	 8	 -1.508114	 0.475307	 -0.460610	 2.222363	 -0.877425	 -0.382616	 -0.030721	 0.832377	 -0.450108	 0.321881	 2
1463629549.279	 8	 -1.112693	 0.097672	 0.131391	 2.236509	 -0.869725	 -0.366858	 -0.032345	 0.835552	 -0.444855	 0.320796	 2
1463629549.289	 8	 -0.236458	 -0.093657	 0.648468	 2.236173	 -0.862771	 -0.366302	 -0.031055	 0.836528	 -0.442086	 0.322204	 2
1463629549.299	 8	 0.416395	 0.054421	 0.944707	 2.227356	 -0.857414	 -0.378111	 -0.026829	 0.836062	 -0.441808	 0.324169	 2
1463629549.309	 8	 0.609994	 0.063264	 0.775779	 2.216838	 -0.854307	 -0.392998	 -0.022210	 0.834983	 -0.442910	 0.325794	 2
1463629549.319	 8	 0.503061	 -0.023112	 0.555293	 2.207764	 -0.852729	 -0.405046	 -0.018822	 0.833847	 -0.444183	 0.327178	 2
1463629549.329	 8	 0.386353	 -0.027690	 0.463545	 2.200373	 -0.851247	 -0.414387	 -0.016219	 0.832923	 -0.445089	 0.328439	 2
1463629549.339	 8	 0.393380	 -0.011644	 0.332545	 2.194279	 -0.850507	 -0.422377	 -0.014073	 0.832083	 -0.446077	 0.329326	 2
1463629549.349	 8	 0.469165	 -0.126605	 0.203989	 2.187679	 -0.851221	 -0.429964	 -0.012566	 0.830948	 -0.447552	 0.330248	 2
1463629549.359	 8	 0.518840	 -0.404785	 0.144483	 2.178564	 -0.852915	 -0.437673	 -0.011824	 0.829259	 -0.449407	 0.331997	 2
1463629549.369	 8	 0.389511	 -0.514441	 0.224521	 2.168112	 -0.853789	 -0.444833	 -0.011427	 0.827444	 -0.450864	 0.334556	 2
1463629549.379	 8	 0.117923	 -0.623388	 0.491246	 2.157862	 -0.851412	 -0.450679	 -0.010729	 0.826063	 -0.450910	 0.337912	 2
1463629549.389	 8	 -0.160185	 -0.717764	 0.711271	 2.147368	 -0.845236	 -0.455137	 -0.009698	 0.825091	 -0.449337	 0.342385	 2
1463629549.399	 8	 -0.368869	 -0.596951	 0.420062	 2.141090	 -0.839114	 -0.455281	 -0.009496	 0.824780	 -0.447076	 0.346079	 2
1463629549.409	 8	 -0.390171	 -0.681885	 -0.006848	 2.137615	 -0.836153	 -0.451042	 -0.011267	 0.824523	 -0.445230	 0.349005	 2
1463629549.419	 8	 -0.242104	 -0.031471	 -0.311156	 2.138947	 -0.836728	 -0.445586	 -0.013366	 0.824650	 -0.444498	 0.349564	 2
1463629549.429	 8	 -0.378266	 1.241807	 -0.640232	 2.154663	 -0.839547	 -0.437147	 -0.014069	 0.826962	 -0.444186	 0.344435	 2
1463629549.439	 8	 -0.696063	 1.505875	 -1.167889	 2.182141	 -0.844627	 -0.420728	 -0.016030	 0.830845	 -0.443499	 0.335780	 2
1463629549.449	 8	 -0.942849	 0.766539	 -1.431600	 2.209436	 -0.850720	 -0.397541	 -0.021105	 0.834328	 -0.442206	 0.328490	 2
1463629549.459	 8	 -0.974349	 -0.365159	 -1.300110	 2.227173	 -0.855554	 -0.373106	 -0.028530	 0.836234	 -0.440279	 0.325658	 2
1463629549.469	 8	 -0.654320	 -1.597280	 -0.941345	 2.228384	 -0.859144	 -0.354357	 -0.036929	 0.835597	 -0.438613	 0.328683	 2
1463629549.479	 8	 -0.060691	 -2.552306	 -0.541885	 2.211674	 -0.862866	 -0.345599	 -0.045106	 0.832082	 -0.438245	 0.336966	 2
1463629549.489	 8	 0.784106	 -3.052001	 -0.319423	 2.179031	 -0.869036	 -0.349549	 -0.052096	 0.825669	 -0.440482	 0.348615	 2
1463629549.499	 8	 1.445663	 -2.834934	 -0.332755	 2.138966	 -0.878928	 -0.363576	 -0.057617	 0.817511	 -0.445582	 0.360294	 2
1463629549.509	 8	 1.914277	 -2.136404	 -0.326072	 2.099019	 -0.891117	 -0.385127	 -0.060896	 0.809126	 -0.452813	 0.369550	 2
1463629549.519	 8	 2.399774	 -1.304523	 -0.257546	 2.060578	 -0.904641	 -0.414869	 -0.061242	 0.801003	 -0.462036	 0.375722	 2
1463629549.529	 8	 2.727139	 -0.346159	 -0.118258	 2.024732	 -0.918137	 -0.452594	 -0.058215	 0.793577	 -0.472793	 0.378569	 2
1463629549.549	 9	 1.781412	 0.290681	 -0.389722	 1.978526	 -0.940613	 -0.518911	 -0.049485	 0.783828	 -0.491622	 0.376129	 2
1463629549.559	 9	 1.215053	 -0.459154	 -0.763720	 1.962463	 -0.952066	 -0.535538	 -0.050246	 0.779857	 -0.498073	 0.375795	 2
1463629549.569	 9	 0.846650	 -1.168536	 -1.052737	 1.945471	 -0.964644	 -0.544081	 -0.054828	 0.775398	 -0.503261	 0.377466	 2
1463629549.579	 9	 0.679796	 -1.675428	 -1.351218	 1.926702	 -0.979106	 -0.547820	 -0.062369	 0.770249	 -0.507975	 0.380510	 2
1463629549.589	 9	 0.657356	 -1.949242	 -1.570986	 1.906288	 -0.995656	 -0.549576	 -0.071807	 0.764452	 -0.512754	 0.384108	 2
1463629549.599	 9	 0.767933	 -1.976668	 -1.641478	 1.883681	 -1.013466	 -0.552858	 -0.081715	 0.758106	 -0.517937	 0.387735	 2
1463629549.609	 9	 0.952314	 -1.824913	 -1.613962	 1.858731	 -1.031662	 -0.560157	 -0.090969	 0.751412	 -0.523697	 0.390956	 2
1463629549.619	 9	 1.166871	 -1.422965	 -1.540684	 1.832289	 -1.049702	 -0.572961	 -0.098681	 0.744723	 -0.530188	 0.393129	 2
1463629549.629	 9	 1.371962	 -1.039718	 -1.409946	 1.804559	 -1.066966	 -0.591875	 -0.104442	 0.738246	 -0.537366	 0.394110	 2
1463629549.639	 9	 1.512338	 -0.834682	 -1.239804	 1.774299	 -1.082703	 -0.616392	 -0.108592	 0.731843	 -0.544873	 0.394622	 2
1463629549.649	 9	 1.522599	 -0.809265	 -1.104305	 1.741537	 -1.096689	 -0.644277	 -0.111911	 0.725439	 -0.552236	 0.395284	 2
1463629549.659	 9	 1.458355	 -0.904371	 -1.044948	 1.707077	 -1.109368	 -0.673068	 -0.115230	 0.719003	 -0.559158	 0.396357	 2
1463629549.669	 9	 1.389487	 -1.029633	 -1.039119	 1.671122	 -1.121338	 -0.701995	 -0.118962	 0.712465	 -0.565662	 0.397829	 2
1463629549.679	 9	 1.323763	 -1.163445	 -1.037661	 1.633462	 -1.132798	 -0.731160	 -0.123195	 0.705764	 -0.571806	 0.399696	 2
1463629549.689	 9	 1.259251	 -1.263253	 -1.040159	 1.594511	 -1.143728	 -0.760442	 -0.127844	 0.698975	 -0.577584	 0.401852	 2
1463629549.699	 9	 1.200047	 -1.361020	 -1.052277	 1.554159	 -1.154271	 -0.790012	 -0.132929	 0.692073	 -0.583051	 0.404248	 2
1463629549.709	 9	 1.142195	 -1.406600	 -1.054329	 1.512757	 -1.164381	 -0.819902	 -0.138316	 0.685130	 -0.588224	 0.406766	 2
1463629549.719	 9	 1.076120	 -1.376720	 -1.067330	 1.471259	 -1.174083	 -0.849900	 -0.143800	 0.678324	 -0.593129	 0.409141	 2
1463629549.729	 9	 1.030591	 -1.308446	 -1.057773	 1.429871	 -1.183418	 -0.880280	 -0.149227	 0.671715	 -0.597851	 0.411222	 2
1463629549.739	 9	 1.001562	 -1.151805	 -1.029418	 1.389145	 -1.192005	 -0.911331	 -0.154185	 0.665450	 -0.602445	 0.412871	 2
1463629549.749	 9	 1.010612	 -1.029632	 -1.045412	 1.348263	 -1.200162	 -0.943914	 -0.158741	 0.659418	 -0.607093	 0.414014	 2
1463629549.759	 9	 1.071611	 -0.953578	 -1.093195	 1.305092	 -1.208096	 -0.979735	 -0.163067	 0.653319	 -0.612008	 0.414764	 2
1463629549.769	 9	 1.128368	 -0.871137	 -1.141947	 1.259014	 -1.215746	 -1.019414	 -0.167164	 0.647098	 -0.617251	 0.415116	 2
1463629549.779	 9	 1.090288	 -0.751252	 -1.199117	 1.212030	 -1.223274	 -1.061110	 -0.171104	 0.641041	 -0.622608	 0.414909	 2
1463629549.789	 9	 0.936039	 -0.593845	 -1.262386	 1.167287	 -1.231201	 -1.101907	 -0.175030	 0.635585	 -0.627774	 0.413880	 2
1463629549.799	 9	 0.716593	 -0.476500	 -1.303080	 1.126771	 -1.239829	 -1.139508	 -0.179112	 0.630969	 -0.632452	 0.412070	 2
1463629549.809	 9	 0.499981	 -0.472660	 -1.301158	 1.090340	 -1.249040	 -1.173063	 -0.183553	 0.627080	 -0.636447	 0.409895	 2
1463629549.819	 9	 0.313794	 -0.623815	 -1.246590	 1.056628	 -1.258425	 -1.202487	 -0.188602	 0.623585	 -0.639614	 0.408001	 2
1463629549.829	 9	 0.143102	 -0.906703	 -1.164607	 1.024428	 -1.267715	 -1.227557	 -0.194572	 0.620164	 -0.641810	 0.406963	 2
1463629549.839	 9	 -0.039590	 -1.264899	 -1.058707	 0.993711	 -1.276886	 -1.247435	 -0.201685	 0.616681	 -0.642881	 0.407100	 2
1463629549.849	 9	 -0.227155	 -1.512574	 -0.967723	 0.965740	 -1.286113	 -1.261443	 -0.209773	 0.613286	 -0.642840	 0.408206	 2
1463629549.859	 9	 -0.417372	 -1.617939	 -0.907365	 0.941528	 -1.295763	 -1.269958	 -0.218494	 0.610197	 -0.641890	 0.409752	 2
1463629549.869	 9	 -0.641695	 -1.501856	 -0.830794	 0.924669	 -1.306081	 -1.271410	 -0.227241	 0.607945	 -0.640140	 0.411078	 2
1463629549.879	 9	 -0.892636	 -1.322484	 -0.544513	 0.921629	 -1.316234	 -1.260512	 -0.235242	 0.607079	 -0.637351	 0.412189	 2
1463629549.889	 9	 -1.002948	 -0.897547	 -0.072794	 0.937863	 -1.323648	 -1.233215	 -0.241096	 0.607881	 -0.633530	 0.413514	 2
1463629549.899	 9	 -0.973340	 -0.545387	 0.246756	 0.968006	 -1.327865	 -1.195803	 -0.244521	 0.609935	 -0.629410	 0.414767	 2
1463629549.909	 9	 -1.065362	 -0.258029	 0.381320	 1.007342	 -1.330575	 -1.151853	 -0.246621	 0.612895	 -0.625129	 0.415633	 2
1463629549.919	 9	 -1.407779	 0.133054	 0.491320	 1.063505	 -1.333290	 -1.094325	 -0.247840	 0.617596	 -0.620178	 0.415368	 2
1463629549.929	 9	 -1.730701	 0.572053	 0.616516	 1.140925	 -1.335590	 -1.019533	 -0.248022	 0.624439	 -0.614374	 0.413649	 2
1463629549.939	 9	 -1.834160	 0.921153	 0.753886	 1.230792	 -1.335746	 -0.935687	 -0.246962	 0.632595	 -0.608216	 0.410983	 2
1463629549.949	 9	 -1.874395	 1.313776	 0.904965	 1.327438	 -1.332830	 -0.848770	 -0.244351	 0.641788	 -0.601993	 0.407437	 2
1463629549.959	 9	 -1.984259	 1.619656	 1.093144	 1.428680	 -1.326309	 -0.760496	 -0.240271	 0.652018	 -0.595470	 0.403185	 2
1463629549.969	 9	 -2.272992	 1.977431	 1.324929	 1.537552	 -1.315644	 -0.667470	 -0.234978	 0.663770	 -0.587939	 0.398149	 2
1463629549.979	 9	 -2.321715	 2.696718	 1.637920	 1.648000	 -1.299583	 -0.578857	 -0.227125	 0.677307	 -0.579902	 0.391641	 2
1463629549.989	 9	 -1.875411	 3.809397	 1.984366	 1.743924	 -1.278250	 -0.515621	 -0.214388	 0.692010	 -0.573228	 0.382845	 2
1463629549.999	 9	 -1.273979	 4.825485	 2.274209	 1.819432	 -1.253666	 -0.484620	 -0.196233	 0.707009	 -0.568794	 0.371624	 2
1463629550.009	 9	 -0.840821	 5.368672	 2.405515	 1.879165	 -1.228233	 -0.477195	 -0.174480	 0.721478	 -0.566010	 0.358690	 2
1463629550.019	 9	 -0.750037	 5.112471	 2.459892	 1.929156	 -1.202649	 -0.479752	 -0.152108	 0.734831	 -0.563235	 0.345910	 2
1463629550.029	 9	 -0.776833	 4.275755	 2.350026	 1.969521	 -1.177439	 -0.484620	 -0.131888	 0.746332	 -0.559489	 0.335510	 2
1463629550.039	 9	 -0.933605	 3.188145	 2.055636	 2.003235	 -1.154445	 -0.485796	 -0.115693	 0.755884	 -0.554795	 0.327808	 2
1463629550.049	 9	 -1.203551	 1.929929	 1.951426	 2.029374	 -1.131873	 -0.481695	 -0.103888	 0.763720	 -0.548546	 0.324094	 2
1463629550.059	 9	 -1.591338	 0.897610	 2.002747	 2.049624	 -1.107424	 -0.471851	 -0.095576	 0.770606	 -0.540187	 0.324392	 2
1463629550.069	 9	 -2.007145	 0.087204	 1.990301	 2.066827	 -1.080782	 -0.455571	 -0.090200	 0.777085	 -0.529665	 0.327807	 2
1463629550.079	 9	 -2.257891	 -0.460870	 1.845637	 2.081996	 -1.053604	 -0.434398	 -0.087370	 0.783143	 -0.517790	 0.333087	 2
1463629550.089	 9	 -2.294406	 -0.770861	 1.618195	 2.094828	 -1.027648	 -0.411320	 -0.086450	 0.788563	 -0.505631	 0.339163	 2
1463629550.099	 9	 -2.146400	 -0.862410	 1.374126	 2.105133	 -1.004202	 -0.389171	 -0.086655	 0.793202	 -0.494144	 0.345171	 2
1463629550.109	 9	 -1.907717	 -0.767807	 1.169368	 2.113500	 -0.983653	 -0.369586	 -0.087215	 0.797149	 -0.483843	 0.350488	 2
1463629550.119	 9	 -1.618832	 -0.489960	 1.026626	 2.121091	 -0.965808	 -0.353600	 -0.087326	 0.800678	 -0.474965	 0.354538	 2
1463629550.129	 9	 -1.293002	 -0.117170	 0.937734	 2.128288	 -0.950447	 -0.342072	 -0.086451	 0.803929	 -0.467661	 0.357095	 2
1463629550.139	 9	 -1.067265	 0.519767	 0.859632	 2.138398	 -0.937060	 -0.333947	 -0.084089	 0.807530	 -0.461742	 0.357237	 2
1463629550.149	 9	 -0.914456	 1.058194	 0.807892	 2.152460	 -0.925023	 -0.328039	 -0.080325	 0.811709	 -0.456821	 0.354953	 2
1463629550.159	 9	 -0.798344	 1.526380	 0.735568	 2.169917	 -0.914123	 -0.323703	 -0.075506	 0.816352	 -0.452669	 0.350656	 2
1463629550.169	 9	 -0.722714	 1.811503	 0.629921	 2.190586	 -0.904562	 -0.319899	 -0.070145	 0.821325	 -0.449157	 0.344619	 2
1463629550.179	 9	 -0.631749	 1.833846	 0.667704	 2.210814	 -0.895447	 -0.317537	 -0.064474	 0.826149	 -0.445965	 0.338284	 2
1463629550.189	 9	 -0.533915	 1.685303	 0.757126	 2.228179	 -0.886204	 -0.317503	 -0.058515	 0.830528	 -0.442945	 0.332565	 2
1463629550.199	 9	 -0.374334	 1.321363	 0.796046	 2.240493	 -0.877403	 -0.320004	 -0.052766	 0.834021	 -0.440300	 0.328269	 2
1463629550.209	 9	 -0.212823	 0.969702	 0.768986	 2.247491	 -0.869735	 -0.324524	 -0.047619	 0.836479	 -0.438238	 0.325550	 2
1463629550.219	 9	 -0.033429	 0.854608	 0.664040	 2.251780	 -0.863838	 -0.330259	 -0.042958	 0.838219	 -0.436971	 0.323420	 2
1463629550.229	 9	 0.162840	 0.924521	 0.557471	 2.255480	 -0.860039	 -0.337266	 -0.038361	 0.839541	 -0.436694	 0.320933	 2
1463629550.239	 9	 0.336668	 1.010263	 0.424601	 2.259357	 -0.858344	 -0.345244	 -0.033784	 0.840562	 -0.437378	 0.317828	 2
1463629550.249	 9	 0.474770	 1.039296	 0.230766	 2.263652	 -0.858979	 -0.353220	 -0.029631	 0.841271	 -0.438953	 0.314174	 2
1463629550.259	 9	 0.591242	 1.053107	 -0.017376	 2.268805	 -0.862230	 -0.360326	 -0.026233	 0.841681	 -0.441400	 0.309921	 2
1463629550.269	 9	 0.686944	 0.998596	 -0.308604	 2.274774	 -0.868300	 -0.365804	 -0.023955	 0.841742	 -0.444678	 0.305217	 2
1463629550.279	 9	 0.777191	 0.922797	 -0.604246	 2.281488	 -0.877240	 -0.369364	 -0.022938	 0.841423	 -0.448768	 0.300147	 2
1463629550.289	 9	 0.886691	 0.836473	 -0.876706	 2.288656	 -0.888973	 -0.371214	 -0.023127	 0.840674	 -0.453677	 0.294804	 2
1463629550.299	 9	 1.032205	 0.667306	 -1.118278	 2.295232	 -0.903487	 -0.371972	 -0.024486	 0.839326	 -0.459483	 0.289495	 2
1463629550.309	 9	 1.189204	 0.419609	 -1.330839	 2.299969	 -0.920707	 -0.372092	 -0.027091	 0.837194	 -0.466204	 0.284651	 2
1463629550.319	 9	 1.227017	 0.129641	 -1.407404	 2.302171	 -0.939353	 -0.371879	 -0.030710	 0.834379	 -0.473367	 0.280697	 2
1463629550.329	 9	 0.848529	 -0.151036	 -1.251119	 2.303455	 -0.955598	 -0.369296	 -0.034996	 0.831732	 -0.479238	 0.278079	 2
1463629550.339	 9	 -0.054098	 0.182561	 -0.788273	 2.310627	 -0.963741	 -0.361014	 -0.038469	 0.831149	 -0.481332	 0.275737	 2
1463629550.349	 9	 -0.654004	 0.542927	 -0.178606	 2.324667	 -0.962418	 -0.349959	 -0.039414	 0.833094	 -0.479582	 0.272767	 2
1463629550.359	 9	 -0.454647	 0.456218	 0.411415	 2.332615	 -0.956722	 -0.346240	 -0.037872	 0.835119	 -0.477035	 0.271256	 2
1463629550.369	 9	 0.156214	 0.362262	 0.901867	 2.328764	 -0.950978	 -0.355577	 -0.033687	 0.835781	 -0.476015	 0.271561	 2
1463629550.379	 9	 0.666992	 0.306098	 1.136694	 2.315897	 -0.946708	 -0.375486	 -0.027529	 0.835077	 -0.476885	 0.272892	 2
1463629550.389	 9	 0.812667	 -0.122012	 0.974775	 2.298154	 -0.944411	 -0.397472	 -0.022099	 0.833307	 -0.478802	 0.275427	 2
1463629550.399	 9	 0.689381	 -0.619879	 0.618448	 2.278951	 -0.943880	 -0.414894	 -0.019340	 0.830912	 -0.480819	 0.279329	 2
1463629550.409	 9	 0.423886	 -0.763861	 0.310349	 2.262830	 -0.944158	 -0.425511	 -0.018879	 0.828700	 -0.482263	 0.283412	 2
1463629550.419	 9	 0.162335	 -0.636728	 0.135827	 2.252138	 -0.944242	 -0.430314	 -0.019490	 0.827209	 -0.482876	 0.286664	 2
1463629550.429	 9	 0.012358	 -0.576341	 0.188851	 2.244678	 -0.943343	 -0.432537	 -0.020163	 0.826300	 -0.482789	 0.289375	 2
1463629550.439	 9	 0.036718	 -0.863569	 0.484380	 2.233158	 -0.940255	 -0.437094	 -0.020339	 0.825153	 -0.482193	 0.293597	 2
1463629550.449	 9	 0.059127	 -1.124099	 0.794029	 2.215916	 -0.934911	 -0.445292	 -0.019847	 0.823503	 -0.481267	 0.299718	 2
1463629550.459	 9	 0.077338	 -1.238796	 0.678766	 2.197148	 -0.929420	 -0.453558	 -0.019636	 0.821568	 -0.480324	 0.306480	 2
1463629550.469	 9	 0.028918	 -1.324445	 0.142312	 2.181114	 -0.927208	 -0.457139	 -0.021475	 0.819449	 -0.479908	 0.312618	 2
1463629550.479	 9	 0.012463	 -1.384802	 -0.706453	 2.171081	 -0.931348	 -0.452705	 -0.026720	 0.817210	 -0.480589	 0.316998	 2
1463629550.489	 9	 -0.158088	 -1.339315	 -1.249149	 2.167105	 -0.940213	 -0.440439	 -0.034877	 0.815074	 -0.481779	 0.319886	 2
1463629550.499	 9	 -0.345901	 0.241794	 -1.244525	 2.177447	 -0.949068	 -0.423918	 -0.041293	 0.815061	 -0.482548	 0.317990	 2
1463629550.509	 9	 -0.639965	 2.110708	 -1.195798	 2.211112	 -0.955537	 -0.404102	 -0.042820	 0.818890	 -0.482520	 0.307831	 2
1463629550.519	 9	 -0.816404	 2.416037	 -1.110422	 2.254223	 -0.959685	 -0.381014	 -0.042875	 0.824208	 -0.481504	 0.294952	 2
1463629550.529	 9	 -0.672190	 1.529566	 -0.825777	 2.288546	 -0.961915	 -0.361171	 -0.043316	 0.828376	 -0.480207	 0.285163	 2
1463629550.539	 9	 -0.591155	 0.591388	 -0.803239	 2.310689	 -0.963841	 -0.344153	 -0.045480	 0.830786	 -0.479030	 0.279743	 2
1463629550.549	 9	 -0.473669	 -0.584738	 -0.724617	 2.320696	 -0.965868	 -0.328597	 -0.049978	 0.831448	 -0.477875	 0.278983	 2
1463629550.559	 9	 -0.226863	 -1.696568	 -0.674232	 2.316188	 -0.968856	 -0.316603	 -0.056661	 0.829952	 -0.477221	 0.283250	 2
1463629550.569	 9	 0.109205	 -2.162404	 -0.681493	 2.301630	 -0.973981	 -0.308774	 -0.064454	 0.826689	 -0.477629	 0.290348	 2
1463629550.579	 9	 0.584901	 -1.980960	 -0.695669	 2.282911	 -0.982237	 -0.306671	 -0.071557	 0.822351	 -0.479843	 0.297270	 2
1463629550.589	 9	 1.150414	 -1.866948	 -0.585496	 2.258605	 -0.993453	 -0.313387	 -0.077092	 0.816888	 -0.484199	 0.303813	 2
1463629550.599	 9	 1.646290	 -1.794351	 -0.494285	 2.226396	 -1.006974	 -0.329810	 -0.081272	 0.810121	 -0.490496	 0.310666	 2
1463629550.609	 9	 2.029417	 -1.496143	 -0.577975	 2.191074	 -1.022851	 -0.353055	 -0.084294	 0.802679	 -0.498491	 0.316398	 2
1463629550.619	 9	 2.390297	 -1.519906	 -0.775307	 2.151012	 -1.041889	 -0.382292	 -0.087261	 0.794163	 -0.508235	 0.321540	 2
1463629550.629	 9	 2.317745	 -1.613343	 -0.929015	 2.108144	 -1.062054	 -0.413285	 -0.091044	 0.785092	 -0.518339	 0.326598	 2
1463629550.639	 9	 1.755632	 -1.851263	 -1.110711	 2.069495	 -1.080759	 -0.437177	 -0.096635	 0.776670	 -0.526749	 0.331634	 2
1463629550.649	 9	 0.990266	 -2.162238	 -1.328620	 2.040010	 -1.097571	 -0.446838	 -0.105152	 0.769407	 -0.532388	 0.336926	 2
1463629550.659	 9	 0.555688	 -2.346822	 -1.437393	 2.018291	 -1.113078	 -0.445430	 -0.115655	 0.763041	 -0.535940	 0.342288	 2
1463629550.669	 9	 0.735583	 -2.653810	 -1.456736	 1.992449	 -1.129060	 -0.445027	 -0.127098	 0.755863	 -0.539362	 0.348720	 2
1463629550.679	 9	 1.289256	 -1.902493	 -1.323477	 1.960743	 -1.146074	 -0.456964	 -0.135901	 0.748233	 -0.544644	 0.353612	 2
1463629550.689	 9	 1.846241	 -1.448182	 -1.077908	 1.918158	 -1.162946	 -0.486539	 -0.141347	 0.739954	 -0.552011	 0.357453	 2
1463629550.699	 9	 2.058796	 -0.978672	 -0.782305	 1.868108	 -1.177514	 -0.528919	 -0.143927	 0.731722	 -0.560229	 0.360570	 2
1463629550.709	 9	 1.972560	 -0.479786	 -0.516866	 1.818552	 -1.188482	 -0.575960	 -0.144093	 0.724556	 -0.568152	 0.362574	 2
1463629550.719	 9	 1.752156	 -0.050451	 -0.362811	 1.774887	 -1.196389	 -0.621305	 -0.142671	 0.718823	 -0.575289	 0.363292	 2
1463629550.729	 9	 1.572654	 0.280446	 -0.272908	 1.737637	 -1.202230	 -0.663471	 -0.140200	 0.714324	 -0.581738	 0.362857	 2
1463629550.739	 9	 1.510963	 0.485400	 -0.195860	 1.703793	 -1.206648	 -0.704465	 -0.136929	 0.710538	 -0.587846	 0.361694	 2
1463629550.749	 9	 1.551211	 0.550991	 -0.081564	 1.669295	 -1.209540	 -0.747144	 -0.132955	 0.706896	 -0.593862	 0.360484	 2
1463629550.759	 9	 1.609402	 0.557118	 0.053338	 1.632665	 -1.210620	 -0.792242	 -0.128352	 0.703151	 -0.599813	 0.359623	 2
1463629550.779	 10	 1.665798	 0.330992	 0.280948	 1.554128	 -1.207389	 -0.885853	 -0.118289	 0.695015	 -0.611204	 0.359711	 2
1463629550.789	 10	 1.625301	 0.060377	 0.348057	 1.512978	 -1.203420	 -0.931335	 -0.113763	 0.690420	 -0.616351	 0.361232	 2
1463629550.799	 10	 1.548310	 -0.202075	 0.352679	 1.471934	 -1.198647	 -0.973870	 -0.110124	 0.685513	 -0.621029	 0.363686	 2
1463629550.809	 10	 1.428152	 -0.505344	 0.284826	 1.431733	 -1.193872	 -1.012516	 -0.107729	 0.680356	 -0.625226	 0.366881	 2
1463629550.819	 10	 1.303282	 -0.861076	 0.167501	 1.391667	 -1.189875	 -1.047337	 -0.107040	 0.674850	 -0.628984	 0.370809	 2
1463629550.829	 10	 1.145017	 -1.160506	 0.173553	 1.352598	 -1.185927	 -1.077610	 -0.107740	 0.669146	 -0.632075	 0.375655	 2
1463629550.839	 10	 0.977620	 -1.219853	 0.282100	 1.317553	 -1.181108	 -1.102305	 -0.108832	 0.663750	 -0.634339	 0.381059	 2
1463629550.849	 10	 0.812130	 -1.130051	 0.425058	 1.288539	 -1.175089	 -1.121151	 -0.109587	 0.659022	 -0.635784	 0.386599	 2
1463629550.859	 10	 0.625720	 -0.921317	 0.533068	 1.266999	 -1.168292	 -1.133910	 -0.109726	 0.655263	 -0.636465	 0.391796	 2
1463629550.869	 10	 0.507602	 -0.700139	 0.624612	 1.251976	 -1.160937	 -1.142067	 -0.109107	 0.652414	 -0.636607	 0.396463	 2
1463629550.879	 10	 0.461619	 -0.508430	 0.641717	 1.241019	 -1.153324	 -1.148017	 -0.107824	 0.650173	 -0.636550	 0.400565	 2
1463629550.889	 10	 0.498719	 -0.518486	 0.590144	 1.230291	 -1.146070	 -1.154344	 -0.106482	 0.647961	 -0.636645	 0.404341	 2
1463629550.899	 10	 0.634041	 -0.887107	 0.707033	 1.215200	 -1.137777	 -1.162353	 -0.105603	 0.644829	 -0.636802	 0.409301	 2
1463629550.909	 10	 0.725881	 -1.224526	 0.855497	 1.195893	 -1.127560	 -1.171008	 -0.105149	 0.640642	 -0.636774	 0.415981	 2
1463629550.919	 10	 0.754148	 -1.411193	 0.939841	 1.174651	 -1.116121	 -1.179155	 -0.105025	 0.635798	 -0.636516	 0.423766	 2
1463629550.929	 10	 0.521370	 -1.282281	 1.021934	 1.158144	 -1.104639	 -1.182722	 -0.104834	 0.631573	 -0.635587	 0.431456	 2
1463629550.939	 10	 0.095679	 -0.984866	 1.235165	 1.153165	 -1.093051	 -1.176445	 -0.104033	 0.629234	 -0.633128	 0.438624	 2
1463629550.949	 10	 -0.217564	 -0.873537	 1.500041	 1.158009	 -1.080540	 -1.160951	 -0.102661	 0.628503	 -0.629008	 0.445862	 2
1463629550.959	 10	 -0.303258	 -0.875094	 1.690478	 1.166316	 -1.066574	 -1.141536	 -0.100884	 0.628297	 -0.623926	 0.453631	 2
1463629550.969	 10	 -0.237024	 -0.713996	 1.785187	 1.175113	 -1.051361	 -1.122612	 -0.098339	 0.628224	 -0.618692	 0.461394	 2
1463629550.979	 10	 -0.154765	 -0.355894	 1.918892	 1.185589	 -1.034604	 -1.105265	 -0.094211	 0.628606	 -0.613564	 0.468528	 2
1463629550.989	 10	 -0.244090	 0.073780	 2.025981	 1.200572	 -1.016739	 -1.087282	 -0.088514	 0.630063	 -0.608165	 0.474679	 2
1463629550.999	 10	 -0.477788	 0.498049	 2.062871	 1.222277	 -0.998965	 -1.066342	 -0.081814	 0.633166	 -0.602100	 0.479461	 2
1463629551.009	 10	 -0.594017	 0.799972	 1.996352	 1.248070	 -0.981774	 -1.044245	 -0.074591	 0.637447	 -0.595684	 0.482968	 2
1463629551.019	 10	 -0.502014	 1.029993	 1.779210	 1.273538	 -0.965903	 -1.025190	 -0.067131	 0.642037	 -0.589865	 0.485120	 2
1463629551.029	 10	 -0.210600	 1.268650	 1.513519	 1.296001	 -0.951581	 -1.012502	 -0.059211	 0.646335	 -0.585461	 0.485779	 2
1463629551.039	 10	 -0.086065	 1.769300	 1.373209	 1.318319	 -0.938373	 -1.004871	 -0.050199	 0.650884	 -0.582243	 0.484585	 2
1463629551.049	 10	 -0.338236	 2.473176	 1.532227	 1.349452	 -0.924646	 -0.994778	 -0.039325	 0.657540	 -0.578334	 0.481274	 2
1463629551.059	 10	 -0.496322	 2.771283	 1.948827	 1.387741	 -0.907707	 -0.980934	 -0.026581	 0.665783	 -0.572794	 0.477423	 2
1463629551.069	 10	 -0.067735	 3.049257	 2.319633	 1.424615	 -0.885947	 -0.971737	 -0.011116	 0.673652	 -0.567043	 0.473848	 2
1463629551.079	 10	 0.671419	 3.302276	 2.455167	 1.455255	 -0.861214	 -0.974213	 0.007438	 0.679993	 -0.562963	 0.469710	 2
1463629551.089	 10	 1.367332	 3.027514	 2.541404	 1.476082	 -0.834952	 -0.988295	 0.027640	 0.683737	 -0.560905	 0.465967	 2
1463629551.099	 11	 1.979925	 2.669714	 2.436822	 1.486149	 -0.808540	 -1.011822	 0.048059	 0.684469	 -0.560878	 0.463258	 2
1463629551.119	 11	 2.366153	 3.301467	 1.123121	 1.501362	 -0.771519	 -1.074816	 0.087183	 0.683763	 -0.567297	 0.450601	 2
1463629551.129	 11	 1.765183	 3.251618	 0.606732	 1.515987	 -0.763157	 -1.101122	 0.103320	 0.685223	 -0.570779	 0.440460	 2
1463629551.139	 11	 0.918604	 2.905885	 0.403062	 1.535479	 -0.758320	 -1.116432	 0.115853	 0.688303	 -0.572068	 0.430761	 2
1463629551.149	 11	 0.139815	 2.367994	 0.568965	 1.557624	 -0.753127	 -1.120760	 0.125492	 0.692421	 -0.570591	 0.423356	 2
1463629551.159	 11	 -0.396775	 1.721749	 0.851117	 1.579225	 -0.745310	 -1.116842	 0.132992	 0.696714	 -0.566730	 0.419190	 2
1463629551.169	 11	 -0.610047	 0.979764	 0.968632	 1.596027	 -0.735661	 -1.109315	 0.138439	 0.700133	 -0.561938	 0.418180	 2
1463629551.179	 11	 -0.719331	 0.154315	 0.765802	 1.605117	 -0.727079	 -1.100374	 0.140803	 0.702135	 -0.557543	 0.419914	 2
1463629551.189	 11	 -0.879613	 -0.045603	 0.413636	 1.612210	 -0.721760	 -1.089404	 0.140743	 0.704081	 -0.553545	 0.421958	 2
1463629551.199	 11	 -0.964636	 -0.263709	 0.223707	 1.618563	 -0.718819	 -1.076962	 0.139117	 0.706126	 -0.549802	 0.423970	 2
1463629551.209	 11	 -1.013433	 -0.726671	 0.310413	 1.621141	 -0.715576	 -1.063861	 0.136304	 0.707397	 -0.546090	 0.427547	 2
1463629551.219	 11	 -1.079456	 -1.321667	 0.516472	 1.618461	 -0.710425	 -1.050157	 0.132493	 0.707464	 -0.542123	 0.433639	 2
1463629551.229	 11	 -1.126102	 -2.069144	 0.677248	 1.609052	 -0.703526	 -1.035851	 0.127268	 0.705964	 -0.537984	 0.442708	 2
1463629551.239	 11	 -1.135785	 -2.804781	 0.725906	 1.592162	 -0.695960	 -1.021325	 0.120238	 0.702667	 -0.533995	 0.454590	 2
1463629551.249	 11	 -1.182778	 -3.422133	 0.643836	 1.568996	 -0.689123	 -1.006278	 0.111185	 0.697813	 -0.530261	 0.468527	 2
1463629551.259	 11	 -1.335112	 -3.938436	 0.519927	 1.541509	 -0.683857	 -0.989514	 0.099947	 0.691854	 -0.526495	 0.483893	 2
1463629551.269	 11	 -1.531336	 -4.294747	 0.440519	 1.511543	 -0.679974	 -0.970202	 0.086819	 0.685156	 -0.522247	 0.500282	 2
1463629551.279	 11	 -1.669457	 -4.616621	 0.439792	 1.479661	 -0.676879	 -0.948781	 0.072345	 0.677712	 -0.517359	 0.517506	 2
1463629551.289	 11	 -1.693318	 -5.027274	 0.563004	 1.444346	 -0.673471	 -0.926455	 0.056978	 0.668928	 -0.511852	 0.536001	 2
1463629551.299	 11	 -1.616416	 -5.306649	 0.642865	 1.405556	 -0.669618	 -0.904569	 0.041261	 0.658645	 -0.505978	 0.555402	 2
1463629551.309	 11	 -1.577609	 -5.435587	 0.625340	 1.364574	 -0.666312	 -0.883327	 0.025252	 0.647209	 -0.499937	 0.574931	 2
1463629551.319	 11	 -1.630441	 -5.477539	 0.539083	 1.323311	 -0.664434	 -0.861715	 0.008783	 0.635213	 -0.493573	 0.593981	 2
1463629551.329	 11	 -1.706555	 -5.643326	 0.380471	 1.280954	 -0.664810	 -0.839676	 -0.008675	 0.622461	 -0.487003	 0.612614	 2
1463629551.339	 11	 -1.854107	 -5.781376	 0.204620	 1.237544	 -0.668063	 -0.816703	 -0.027509	 0.608971	 -0.480124	 0.630776	 2
1463629551.349	 11	 -1.824644	 -5.808583	 0.131638	 1.193686	 -0.673149	 -0.793955	 -0.046808	 0.594857	 -0.473027	 0.648229	 2
1463629551.359	 11	 -1.519932	 -5.728300	 0.178757	 1.148430	 -0.677922	 -0.774156	 -0.065151	 0.579756	 -0.466157	 0.665084	 2
1463629551.369	 11	 -1.179511	 -5.156177	 0.302614	 1.105082	 -0.680879	 -0.758139	 -0.080961	 0.564784	 -0.459719	 0.680531	 2
1463629551.379	 11	 -1.011503	 -4.332953	 0.515570	 1.069000	 -0.681736	 -0.743486	 -0.093636	 0.551805	 -0.453259	 0.693758	 2
1463629551.389	 11	 -0.893359	 -3.588142	 0.895554	 1.040952	 -0.679416	 -0.728133	 -0.103185	 0.541080	 -0.446115	 0.705384	 2
1463629551.399	 11	 -0.783650	 -2.858935	 1.320229	 1.021169	 -0.673137	 -0.711179	 -0.109517	 0.532723	 -0.437991	 0.715804	 2
1463629551.409	 11	 -0.701424	 -2.202813	 1.629361	 1.008930	 -0.663689	 -0.692914	 -0.113087	 0.526664	 -0.429160	 0.725023	 2
1463629551.419	 11	 -0.694019	 -1.747927	 1.878654	 1.002458	 -0.652056	 -0.673259	 -0.114767	 0.522422	 -0.419677	 0.733331	 2
1463629551.429	 11	 -0.745117	 -1.462124	 2.108766	 1.000209	 -0.638686	 -0.651672	 -0.115266	 0.519505	 -0.409317	 0.741139	 2
1463629551.439	 11	 -0.827007	 -1.256971	 2.205175	 1.000770	 -0.624584	 -0.628615	 -0.115218	 0.517532	 -0.398316	 0.748485	 2
1463629551.449	 11	 -0.917078	 -1.098429	 2.177593	 1.003162	 -0.610963	 -0.604889	 -0.115156	 0.516285	 -0.387117	 0.755202	 2
1463629551.459	 11	 -0.967935	 -0.963692	 2.110015	 1.006648	 -0.598150	 -0.581198	 -0.115207	 0.515554	 -0.376007	 0.761282	 2
1463629551.469	 11	 -1.001382	 -0.756692	 2.040827	 1.011514	 -0.586034	 -0.557875	 -0.115209	 0.515465	 -0.365125	 0.766620	 2
1463629551.479	 11	 -1.048272	 -0.460295	 1.973653	 1.018765	 -0.574587	 -0.534803	 -0.115026	 0.516397	 -0.354492	 0.770998	 2
1463629551.489	 11	 -1.105240	 -0.036250	 1.904557	 1.029584	 -0.563854	 -0.511887	 -0.114539	 0.518813	 -0.344163	 0.774122	 2
1463629551.499	 11	 -1.102978	 0.461353	 1.882524	 1.044919	 -0.553291	 -0.489330	 -0.113363	 0.523077	 -0.334171	 0.775802	 2
1463629551.509	 11	 -0.988948	 0.818919	 1.955199	 1.063603	 -0.541563	 -0.467728	 -0.111038	 0.528735	 -0.324401	 0.776450	 2
1463629551.519	 11	 -0.743477	 0.925627	 2.102195	 1.082820	 -0.527328	 -0.448001	 -0.107248	 0.534717	 -0.314738	 0.776862	 2
1463629551.529	 11	 -0.399845	 0.767510	 2.290635	 1.099404	 -0.509698	 -0.431104	 -0.101853	 0.539837	 -0.305144	 0.777875	 2
1463629551.539	 11	 -0.058005	 0.465723	 2.467096	 1.111490	 -0.488646	 -0.417295	 -0.095004	 0.543371	 -0.295591	 0.779966	 2
1463629551.549	 11	 0.180826	 0.075697	 2.607396	 1.118528	 -0.464965	 -0.405873	 -0.087229	 0.545055	 -0.285974	 0.783279	 2
1463629551.559	 11	 0.272049	 -0.351418	 2.707072	 1.120605	 -0.439656	 -0.395441	 -0.079238	 0.544834	 -0.276024	 0.787838	 2
1463629551.569	 11	 0.251948	 -0.614494	 2.795389	 1.119495	 -0.413526	 -0.384762	 -0.071396	 0.543337	 -0.265561	 0.793199	 2
1463629551.579	 11	 0.197377	 -0.852742	 2.773398	 1.116007	 -0.387549	 -0.373585	 -0.064023	 0.540882	 -0.254778	 0.799022	 2
1463629551.589	 11	 0.194679	 -1.112992	 2.671884	 1.109430	 -0.362536	 -0.362564	 -0.057330	 0.537210	 -0.244141	 0.805303	 2
1463629551.599	 11	 0.391352	 -1.222494	 2.611601	 1.100698	 -0.337629	 -0.353134	 -0.050422	 0.532689	 -0.234089	 0.811728	 2
1463629551.609	 11	 0.788980	 -1.310899	 2.608382	 1.089802	 -0.311343	 -0.346931	 -0.042219	 0.527265	 -0.224975	 0.818288	 2
1463629551.619	 11	 1.231323	 -1.419664	 2.602453	 1.076591	 -0.283060	 -0.344534	 -0.032316	 0.520795	 -0.216950	 0.825022	 2
1463629551.629	 11	 1.662985	 -1.502051	 2.562758	 1.061437	 -0.253029	 -0.345831	 -0.020808	 0.513343	 -0.210115	 0.831804	 2
1463629551.639	 11	 2.073285	 -1.609718	 2.548592	 1.044537	 -0.221111	 -0.350497	 -0.007713	 0.504880	 -0.204382	 0.838609	 2
1463629551.649	 11	 2.412297	 -1.693592	 2.559780	 1.026323	 -0.187240	 -0.357655	 0.006799	 0.495476	 -0.199448	 0.845386	 2
1463629551.659	 11	 2.702963	 -1.617800	 2.568612	 1.008311	 -0.151568	 -0.366683	 0.022638	 0.485695	 -0.195136	 0.851769	 2
1463629551.669	 11	 2.940023	 -1.366371	 2.575282	 0.992574	 -0.114342	 -0.377150	 0.039760	 0.476378	 -0.191300	 0.857256	 2
1463629551.679	 11	 3.107841	 -1.094479	 2.589140	 0.979882	 -0.075851	 -0.388532	 0.057951	 0.467849	 -0.187721	 0.861696	 2
1463629551.689	 11	 3.225183	 -0.898943	 2.613385	 0.969804	 -0.036336	 -0.400390	 0.076926	 0.459933	 -0.184206	 0.865224	 2
1463629551.699	 11	 3.297201	 -0.824399	 2.655016	 0.961245	 0.004082	 -0.412348	 0.096418	 0.452168	 -0.180599	 0.868119	 2
1463629551.709	 11	 3.280324	 -0.850353	 2.735920	 0.953211	 0.045166	 -0.423617	 0.116037	 0.444181	 -0.176624	 0.870656	 2
1463629551.719	 11	 3.253353	 -1.062757	 2.915358	 0.943769	 0.087432	 -0.433436	 0.135666	 0.435138	 -0.171943	 0.873319	 2
1463629551.729	 11	 3.228934	 -1.262811	 3.185478	 0.932489	 0.131662	 -0.441151	 0.155479	 0.424837	 -0.166159	 0.876203	 2
1463629551.739	 11	 3.261784	 -1.534333	 3.450172	 0.918741	 0.178265	 -0.446818	 0.175648	 0.412972	 -0.159312	 0.879330	 2
1463629551.749	 11	 3.306359	 -1.722611	 3.612159	 0.902647	 0.226774	 -0.451009	 0.196135	 0.399619	 -0.151818	 0.882489	 2
1463629551.759	 11	 3.110211	 -1.437112	 3.595208	 0.887749	 0.274915	 -0.453344	 0.216182	 0.386699	 -0.143705	 0.884917	 2
1463629551.769	 11	 2.621800	 -1.129239	 3.318833	 0.875926	 0.318621	 -0.452863	 0.234002	 0.375784	 -0.135178	 0.886429	 2
1463629551.779	 11	 2.273903	 -1.429293	 2.869318	 0.862222	 0.356586	 -0.451453	 0.249081	 0.364762	 -0.127882	 0.888006	 2
1463629551.789	 11	 2.015430	 -1.976582	 2.390080	 0.843537	 0.389162	 -0.450579	 0.261677	 0.352091	 -0.122812	 0.890210	 2
1463629551.799	 11	 1.743374	 -2.503272	 1.959111	 0.819579	 0.416593	 -0.450040	 0.271866	 0.337656	 -0.119915	 0.893139	 2
1463629551.809	 11	 1.491181	 -2.972943	 1.625485	 0.790719	 0.439617	 -0.449398	 0.279914	 0.321589	 -0.118811	 0.896723	 2
1463629551.819	 11	 1.267474	 -3.375977	 1.398806	 0.757393	 0.459198	 -0.448164	 0.286173	 0.304018	 -0.119012	 0.900841	 2
1463629551.829	 11	 1.058485	 -3.667852	 1.252966	 0.720343	 0.476058	 -0.445911	 0.290927	 0.285230	 -0.120048	 0.905314	 2
1463629551.839	 11	 0.850351	 -3.824255	 1.161667	 0.680737	 0.490558	 -0.442290	 0.294356	 0.265749	 -0.121485	 0.909931	 2
1463629551.849	 11	 0.668439	 -3.888943	 1.114690	 0.639527	 0.503067	 -0.437153	 0.296669	 0.245973	 -0.122996	 0.914526	 2
1463629551.859	 11	 0.544541	 -3.883501	 1.081715	 0.597524	 0.514041	 -0.430786	 0.298168	 0.226167	 -0.124462	 0.918941	 2
1463629551.869	 11	 0.463771	 -3.776153	 1.038655	 0.555904	 0.523809	 -0.423678	 0.299142	 0.206755	 -0.125837	 0.923001	 2
1463629551.879	 11	 0.397352	 -3.554093	 0.979486	 0.515982	 0.532454	 -0.416225	 0.299755	 0.188279	 -0.127061	 0.926582	 2
1463629551.889	 11	 0.303624	 -3.222547	 0.900257	 0.479022	 0.539755	 -0.408629	 0.300006	 0.171334	 -0.128037	 0.929649	 2
1463629551.899	 11	 0.192630	 -2.908169	 0.793310	 0.445391	 0.545386	 -0.401196	 0.299789	 0.156094	 -0.128864	 0.932285	 2
1463629551.909	 11	 0.101013	 -2.757874	 0.654826	 0.414037	 0.549378	 -0.394439	 0.299075	 0.141987	 -0.129898	 0.934623	 2
1463629551.919	 11	 0.015059	 -2.758676	 0.509557	 0.383510	 0.551854	 -0.388705	 0.297825	 0.128268	 -0.131476	 0.936783	 2
1463629551.929	 11	 -0.085237	 -2.856246	 0.361381	 0.352837	 0.552721	 -0.384102	 0.295910	 0.114469	 -0.133772	 0.938850	 2
1463629551.939	 11	 -0.176000	 -2.992992	 0.241534	 0.321346	 0.552147	 -0.380515	 0.293323	 0.100263	 -0.136786	 0.940850	 2
1463629551.949	 11	 -0.222346	 -3.014776	 0.152211	 0.289725	 0.550632	 -0.377821	 0.290305	 0.085933	 -0.140278	 0.942688	 2
1463629551.959	 11	 -0.217519	 -2.815531	 0.055972	 0.260106	 0.548710	 -0.376205	 0.287244	 0.072400	 -0.143966	 0.944205	 2
1463629551.969	 11	 -0.146773	 -2.456814	 -0.023369	 0.234369	 0.547060	 -0.375807	 0.284585	 0.060474	 -0.147595	 0.945288	 2
1463629551.979	 11	 -0.040218	 -2.054945	 -0.004571	 0.212843	 0.546359	 -0.375823	 0.282653	 0.050367	 -0.150709	 0.945969	 2
1463629551.989	 11	 0.103590	 -1.741942	 0.095140	 0.194420	 0.547138	 -0.375207	 0.281604	 0.041658	 -0.152960	 0.946344	 2
1463629551.999	 11	 0.253333	 -1.551071	 0.222438	 0.177574	 0.549615	 -0.373468	 0.281438	 0.033680	 -0.154337	 0.946487	 2
1463629552.009	 11	 0.322055	 -1.333450	 0.338967	 0.162094	 0.553213	 -0.370497	 0.281884	 0.026412	 -0.154877	 0.946497	 2
1463629552.019	 11	 0.293836	 -1.061454	 0.434465	 0.148566	 0.556848	 -0.366262	 0.282494	 0.020251	 -0.154557	 0.946519	 2
1463629552.029	 11	 0.252505	 -0.818447	 0.487177	 0.137074	 0.560118	 -0.361122	 0.283099	 0.015223	 -0.153558	 0.946595	 2
1463629552.039	 11	 0.198115	 -0.589569	 0.492977	 0.127745	 0.562903	 -0.355733	 0.283660	 0.011308	 -0.152173	 0.946706	 2
1463629552.049	 11	 0.137195	 -0.363007	 0.468967	 0.120641	 0.564995	 -0.350306	 0.284079	 0.008522	 -0.150500	 0.946877	 2
1463629552.059	 11	 0.110811	 -0.205275	 0.355562	 0.115915	 0.566605	 -0.345908	 0.284467	 0.006762	 -0.149006	 0.947011	 2
1463629552.069	 11	 0.066810	 -0.133889	 0.208469	 0.112935	 0.567684	 -0.343106	 0.284745	 0.005653	 -0.148048	 0.947085	 2
1463629552.079	 11	 -0.031880	 -0.115545	 0.058160	 0.111154	 0.567766	 -0.341988	 0.284649	 0.004961	 -0.147768	 0.947162	 2
1463629552.089	 11	 -0.202071	 -0.124412	 -0.059806	 0.110050	 0.566196	 -0.342169	 0.283828	 0.004552	 -0.148089	 0.947360	 2
1463629552.099	 11	 -0.432123	 -0.189172	 -0.136206	 0.108861	 0.562370	 -0.343106	 0.281939	 0.004198	 -0.148891	 0.947800	 2
1463629552.109	 11	 -0.696304	 -0.289647	 -0.164682	 0.106794	 0.555950	 -0.344200	 0.278759	 0.003639	 -0.150014	 0.948565	 2
1463629552.119	 11	 -0.945077	 -0.345030	 -0.128927	 0.103726	 0.547003	 -0.344781	 0.274305	 0.002902	 -0.151146	 0.949686	 2
1463629552.129	 11	 -1.133604	 -0.332211	 -0.051504	 0.101464	 0.535473	 -0.345002	 0.268682	 0.002827	 -0.152102	 0.951140	 2
1463629552.139	 11	 -1.197114	 -0.288901	 0.028318	 0.097695	 0.523651	 -0.343523	 0.262792	 0.002281	 -0.152443	 0.952731	 2
1463629552.149	 11	 -1.159175	 -0.228891	 0.105281	 0.094135	 0.512070	 -0.341277	 0.257022	 0.001898	 -0.152352	 0.954319	 2
1463629552.159	 11	 -1.086910	 -0.154956	 0.209784	 0.090805	 0.501194	 -0.337960	 0.251593	 0.001681	 -0.151661	 0.955875	 2
1463629552.169	 11	 -0.948393	 -0.190549	 0.197590	 0.087457	 0.491565	 -0.334592	 0.246749	 0.001332	 -0.150870	 0.957262	 2
1463629552.179	 11	 -0.788172	 -0.259124	 0.046350	 0.084153	 0.483382	 -0.332742	 0.242594	 0.000676	 -0.150720	 0.958348	 2
1463629552.189	 11	 -0.587800	 -0.344362	 -0.186393	 0.081325	 0.476877	 -0.333558	 0.239273	 -0.000223	 -0.151709	 0.959027	 2
1463629552.199	 11	 -0.302194	 -0.469119	 -0.407456	 0.078645	 0.472817	 -0.337234	 0.237126	 -0.001598	 -0.153948	 0.959202	 2
1463629552.209	 11	 -0.005739	 -0.485146	 -0.444291	 0.075937	 0.471710	 -0.342200	 0.236381	 -0.003388	 -0.156693	 0.958937	 2
1463629552.219	 11	 0.214256	 -0.350698	 -0.295748	 0.073828	 0.473109	 -0.346150	 0.236874	 -0.004990	 -0.158783	 0.958464	 2
1463629552.229	 11	 0.270815	 -0.039327	 -0.063247	 0.144706	 0.488765	 -0.380926	 0.250239	 0.023188	 -0.166033	 0.953560	 2
1463629552.239	 11	 0.131731	 0.351143	 0.190985	 0.146749	 0.490686	 -0.379773	 0.251304	 0.024114	 -0.165117	 0.953416	 2
1463629552.249	 11	 -0.107491	 0.588442	 0.403100	 0.150239	 0.490775	 -0.375735	 0.251581	 0.026277	 -0.162747	 0.953693	 2
1463629552.259	 11	 -0.372245	 0.662687	 0.560632	 0.153764	 0.488529	 -0.369322	 0.250713	 0.028985	 -0.159378	 0.954412	 2
1463629552.269	 11	 -0.577151	 0.584182	 0.652275	 0.156132	 0.484250	 -0.361308	 0.248749	 0.031531	 -0.155506	 0.955483	 2
1463629552.279	 11	 -0.657819	 0.416663	 0.692983	 0.156693	 0.478939	 -0.352541	 0.246129	 0.033389	 -0.151556	 0.956732	 2
1463629552.289	 11	 -0.611894	 0.193214	 0.699030	 0.155144	 0.473804	 -0.343638	 0.243421	 0.034215	 -0.147780	 0.957986	 2
1463629552.299	 11	 -0.450378	 -0.131007	 0.641305	 0.153027	 0.468468	 -0.336395	 0.240600	 0.034561	 -0.144867	 0.959130	 2
1463629552.319	 12	 -0.188554	 -0.365914	 0.474843	 0.141184	 0.464796	 -0.323364	 0.237791	 0.030759	 -0.140228	 0.960648	 2
1463629552.329	 12	 -0.113460	 -0.450665	 0.405192	 0.134612	 0.464102	 -0.318523	 0.236930	 0.028235	 -0.138718	 0.961158	 2
1463629552.339	 12	 -0.067490	 -0.396872	 0.361596	 0.128566	 0.463804	 -0.314282	 0.236313	 0.025856	 -0.137409	 0.961565	 2
1463629552.359	 13	 -0.051560	 -0.167350	 0.338015	 0.120167	 0.463615	 -0.306729	 0.235559	 0.022723	 -0.134777	 0.962201	 2
