% Gyrometer data recorded with 'snsrlog'
% 
% 
% Label description:
% 	 0: Default Label
% 	 1: still_drop
% 	 2: walk_drop
% 	 3: other
% 	 4: dtw_same
% 	 5: dtw_diff
% 	 6: delete
% 	 7: steal
% 
% Column description:
% 	 1: Seconds.milliseconds since 1970
% 	 2: Number of skipped measurements
% 	 3: Gyro X
% 	 4: Gyro Y
% 	 5: Gyro Z
% 	 6: Roll of the device
% 	 7: Pitch of the device
% 	 8: Yaw of the device
% 	 9: Quaternion X
% 	 10: Quaternion Y
% 	 11: Quaternion Z
% 	 12: Quaternion W
% 	 13: Label used for the current sample
% 
% 
1462501574.622	 1	 0.202413	 -0.182146	 1.138029	 -0.247938	 0.230096	 0.234452	 0.127498	 -0.108668	 0.101196	 0.980660	 7
1462501574.632	 1	 0.246919	 -0.140832	 1.279773	 -0.252368	 0.229207	 0.247476	 0.128007	 -0.110067	 0.107357	 0.979783	 7
1462501574.642	 1	 0.171481	 -0.313832	 1.300136	 -0.257954	 0.227830	 0.260953	 0.128392	 -0.112034	 0.113694	 0.978794	 7
1462501574.652	 1	 0.041213	 -0.561218	 1.307494	 -0.265835	 0.225204	 0.274077	 0.128319	 -0.115238	 0.119796	 0.977703	 7
1462501574.662	 1	 -0.052763	 -0.729609	 1.222550	 -0.275558	 0.221518	 0.286343	 0.127842	 -0.119484	 0.125439	 0.976548	 7
1462501574.672	 1	 -0.051381	 -0.767894	 1.077237	 -0.285532	 0.217947	 0.297128	 0.127401	 -0.123945	 0.130339	 0.975407	 7
1462501574.682	 1	 0.011256	 -0.750741	 0.974538	 -0.295200	 0.215035	 0.306884	 0.127244	 -0.128274	 0.134709	 0.974273	 7
1462501574.692	 1	 0.082757	 -0.815206	 0.880197	 -0.304974	 0.213006	 0.315960	 0.127521	 -0.132625	 0.138671	 0.973098	 7
1462501574.712	 2	 0.105178	 -0.827737	 0.628366	 -0.326067	 0.210454	 0.330208	 0.128760	 -0.142186	 0.144462	 0.970739	 7
1462501574.722	 2	 0.059019	 -0.649001	 0.616576	 -0.334288	 0.209167	 0.336454	 0.129188	 -0.145887	 0.147077	 0.969740	 7
1462501574.732	 2	 -0.028049	 -0.537224	 0.594927	 -0.340993	 0.207101	 0.342210	 0.129115	 -0.148953	 0.149622	 0.968894	 7
1462501574.742	 2	 0.027285	 -0.553492	 0.574045	 -0.347785	 0.205212	 0.347818	 0.129140	 -0.152055	 0.152073	 0.968027	 7
1462501574.752	 2	 0.078848	 -0.485540	 0.578491	 -0.353868	 0.203928	 0.353552	 0.129429	 -0.154749	 0.154576	 0.967165	 7
1462501574.772	 3	 0.044294	 -1.008860	 0.561133	 -0.371792	 0.200676	 0.365320	 0.130210	 -0.162956	 0.159413	 0.964924	 7
1462501574.782	 3	 0.141312	 -1.223206	 0.523124	 -0.384692	 0.199743	 0.370757	 0.131249	 -0.168912	 0.161285	 0.963447	 7
1462501574.792	 3	 0.264792	 -1.274749	 0.505583	 -0.398547	 0.199956	 0.376467	 0.132966	 -0.175182	 0.163095	 0.961785	 7
1462501574.802	 3	 0.333680	 -1.162105	 0.519886	 -0.411721	 0.200922	 0.382564	 0.135050	 -0.181005	 0.165038	 0.960084	 7
1462501574.812	 3	 0.205520	 -1.031325	 0.608545	 -0.423678	 0.200888	 0.389030	 0.136621	 -0.186304	 0.167332	 0.958450	 7
1462501574.822	 3	 0.058909	 -0.776794	 0.741148	 -0.433513	 0.198769	 0.395979	 0.137100	 -0.190761	 0.170226	 0.956994	 7
1462501574.832	 3	 -0.059399	 -0.571779	 0.803768	 -0.441078	 0.195144	 0.403181	 0.136725	 -0.194273	 0.173570	 0.955739	 7
1462501574.842	 3	 -0.142709	 -0.389408	 0.838163	 -0.446825	 0.190453	 0.410241	 0.135699	 -0.197046	 0.177098	 0.954670	 7
1462501574.852	 3	 -0.158559	 -0.179408	 0.896741	 -0.450691	 0.185269	 0.417662	 0.134329	 -0.198959	 0.180989	 0.953737	 7
1462501574.862	 3	 -0.102513	 -0.103699	 0.945983	 -0.453247	 0.180100	 0.425676	 0.132922	 -0.200219	 0.185250	 0.952852	 7
1462501574.872	 3	 0.011228	 -0.248251	 1.005461	 -0.456815	 0.175567	 0.434616	 0.132016	 -0.201839	 0.189809	 0.951738	 7
1462501574.882	 3	 0.168133	 -0.507888	 1.052836	 -0.462930	 0.172083	 0.444675	 0.131983	 -0.204485	 0.194607	 0.950208	 7
1462501574.892	 3	 0.289984	 -0.963107	 1.102957	 -0.473389	 0.170026	 0.455771	 0.133193	 -0.208955	 0.199430	 0.948064	 7
1462501574.902	 3	 0.382948	 -1.421523	 1.140512	 -0.488463	 0.168004	 0.467659	 0.135029	 -0.215537	 0.204299	 0.945290	 7
1462501574.912	 3	 0.429112	 -1.839448	 1.169260	 -0.507910	 0.166133	 0.480017	 0.137523	 -0.224100	 0.209046	 0.941895	 7
1462501574.922	 3	 0.517527	 -2.153012	 1.232715	 -0.530899	 0.164353	 0.493184	 0.140635	 -0.234214	 0.213873	 0.937883	 7
1462501574.932	 3	 0.669061	 -2.423253	 1.282166	 -0.556779	 0.163645	 0.507509	 0.144825	 -0.245389	 0.218826	 0.933234	 7
1462501574.942	 3	 0.848258	 -2.703205	 1.323829	 -0.585660	 0.163296	 0.523095	 0.149822	 -0.257726	 0.224002	 0.927876	 7
1462501574.952	 3	 1.039271	 -2.948254	 1.343332	 -0.617306	 0.163875	 0.539988	 0.155906	 -0.270990	 0.229307	 0.921779	 7
1462501574.962	 3	 1.232071	 -3.230846	 1.319840	 -0.651797	 0.165544	 0.557926	 0.163155	 -0.285162	 0.234525	 0.914910	 7
1462501574.972	 3	 1.467128	 -3.601866	 1.293026	 -0.690060	 0.168441	 0.577093	 0.171794	 -0.300566	 0.239564	 0.907059	 7
1462501574.982	 3	 1.746073	 -3.962225	 1.287244	 -0.732281	 0.172796	 0.598086	 0.182075	 -0.317113	 0.244530	 0.898050	 7
1462501574.992	 3	 2.022580	 -4.425414	 1.327419	 -0.779363	 0.178036	 0.621391	 0.193980	 -0.335132	 0.249526	 0.887579	 7
1462501575.012	 4	 2.535654	 -5.349510	 1.559478	 -0.890248	 0.188117	 0.676837	 0.222276	 -0.376210	 0.260175	 0.861027	 7
1462501575.022	 4	 2.692052	 -5.565948	 1.696783	 -0.951436	 0.190947	 0.708628	 0.237650	 -0.398172	 0.266072	 0.845096	 7
1462501575.032	 4	 2.816577	 -5.719820	 1.795514	 -1.014646	 0.191633	 0.742233	 0.253312	 -0.420363	 0.272209	 0.827666	 7
1462501575.042	 4	 2.970215	 -5.808911	 1.892463	 -1.079251	 0.190106	 0.777582	 0.269239	 -0.442456	 0.278610	 0.808777	 7
1462501575.052	 4	 3.148045	 -5.935619	 1.945156	 -1.145143	 0.186468	 0.814613	 0.285543	 -0.464313	 0.285198	 0.788379	 7
1462501575.072	 5	 3.657954	 -6.401104	 1.909740	 -1.283936	 0.174310	 0.894000	 0.320711	 -0.507757	 0.297894	 0.742015	 7
1462501575.082	 5	 3.968986	 -6.651758	 1.791729	 -1.357080	 0.166241	 0.936826	 0.340062	 -0.528936	 0.303754	 0.715764	 7
1462501575.092	 5	 4.281487	 -6.788856	 1.639591	 -1.431966	 0.157115	 0.981760	 0.360670	 -0.549160	 0.309125	 0.687591	 7
1462501575.102	 5	 4.500964	 -6.776443	 1.533351	 -1.506800	 0.146120	 1.028157	 0.381867	 -0.567928	 0.314214	 0.657955	 7
1462501575.112	 5	 4.625720	 -6.770668	 1.500346	 -1.581041	 0.132347	 1.074947	 0.403028	 -0.585360	 0.318998	 0.627027	 7
1462501575.122	 5	 4.700326	 -6.636256	 1.585142	 -1.653546	 0.114611	 1.121357	 0.423451	 -0.601453	 0.323858	 0.595029	 7
1462501575.132	 5	 4.687743	 -6.484139	 1.729479	 -1.723389	 0.092286	 1.166202	 0.442515	 -0.616326	 0.328930	 0.562253	 7
1462501575.142	 5	 4.696927	 -6.226922	 1.855421	 -1.789880	 0.065669	 1.209043	 0.460083	 -0.629887	 0.334287	 0.528979	 7
1462501575.152	 5	 4.589666	 -5.785223	 2.000080	 -1.850740	 0.035253	 1.249140	 0.475651	 -0.641733	 0.340272	 0.496135	 7
1462501575.162	 5	 4.401705	 -5.450993	 2.106074	 -1.906819	 0.001911	 1.285116	 0.489064	 -0.652444	 0.346283	 0.463919	 7
1462501575.172	 5	 4.275138	 -5.147380	 2.121725	 -1.958515	 -0.033208	 1.317887	 0.500855	 -0.661876	 0.352282	 0.432392	 7
1462501575.182	 5	 4.074510	 -4.844326	 2.030373	 -2.006140	 -0.068605	 1.347517	 0.511328	 -0.670006	 0.357896	 0.401927	 7
1462501575.192	 5	 3.860843	 -4.717584	 1.821326	 -2.051178	 -0.102732	 1.374394	 0.521103	 -0.676973	 0.362485	 0.372511	 7
1462501575.202	 5	 3.685945	 -4.737777	 1.606311	 -2.095538	 -0.135206	 1.399253	 0.530756	 -0.683013	 0.365686	 0.343607	 7
1462501575.212	 5	 3.495299	 -4.753235	 1.451160	 -2.139598	 -0.166309	 1.422081	 0.540214	 -0.688306	 0.367570	 0.315114	 7
1462501575.222	 5	 3.272898	 -4.797653	 1.396198	 -2.183795	 -0.196486	 1.442224	 0.549175	 -0.693205	 0.368146	 0.286954	 7
1462501575.232	 5	 3.123231	 -4.870452	 1.417073	 -2.228658	 -0.226540	 1.459622	 0.557500	 -0.697923	 0.367612	 0.258765	 7
1462501575.252	 6	 3.160046	 -5.077161	 1.527800	 -2.320966	 -0.289276	 1.488892	 0.572551	 -0.706331	 0.364662	 0.200756	 7
1462501575.262	 6	 3.356284	 -5.182349	 1.622097	 -2.368624	 -0.323762	 1.501922	 0.579337	 -0.709714	 0.362969	 0.170084	 7
1462501575.272	 6	 3.628612	 -5.215474	 1.711073	 -2.416519	 -0.361320	 1.514492	 0.585511	 -0.712207	 0.361741	 0.138136	 7
1462501575.282	 6	 3.927786	 -5.166121	 1.744097	 -2.463721	 -0.401989	 1.526940	 0.591014	 -0.713521	 0.361287	 0.105177	 7
1462501575.292	 6	 4.145884	 -5.048992	 1.703855	 -2.509408	 -0.444962	 1.539397	 0.595882	 -0.713454	 0.361601	 0.071782	 7
1462501575.302	 6	 4.211514	 -4.871062	 1.626073	 -2.553286	 -0.488855	 1.551253	 0.600077	 -0.712130	 0.362327	 0.038690	 7
1462501575.312	 6	 4.132546	 -4.568357	 1.535790	 -2.594627	 -0.532301	 1.561836	 0.603451	 -0.709798	 0.363300	 0.006812	 7
1462501575.322	 6	 3.945195	 -4.181181	 1.463224	 -2.632881	 -0.574285	 1.570433	 0.605818	 -0.706837	 0.364461	 -0.023113	 7
1462501575.332	 6	 3.804007	 -3.743024	 1.399256	 -2.667722	 -0.614697	 1.577294	 0.607217	 -0.703386	 0.365980	 -0.050938	 7
1462501575.342	 6	 3.616394	 -3.321697	 1.489005	 -2.699559	 -0.654084	 1.581129	 0.607167	 -0.700009	 0.368033	 -0.076733	 7
1462501575.352	 6	 3.432077	 -3.020247	 1.476363	 -2.729869	 -0.691838	 1.582198	 0.606149	 -0.696739	 0.370100	 -0.100824	 7
1462501575.362	 6	 3.372520	 -2.658181	 1.366214	 -2.757258	 -0.728382	 1.582451	 0.604513	 -0.693159	 0.372709	 -0.123214	 7
1462501575.372	 6	 3.383513	 -2.335125	 1.331822	 -2.781361	 -0.764751	 1.582263	 0.602124	 -0.689252	 0.376276	 -0.144206	 7
1462501575.382	 6	 3.309896	 -2.275826	 1.265872	 -2.804899	 -0.800470	 1.581235	 0.599438	 -0.685061	 0.379879	 -0.164489	 7
1462501575.392	 6	 3.183850	 -2.198698	 1.144059	 -2.828068	 -0.834693	 1.580009	 0.596882	 -0.680492	 0.383177	 -0.183950	 7
1462501575.402	 6	 3.013998	 -1.974077	 1.102866	 -2.850081	 -0.867189	 1.577808	 0.594093	 -0.675938	 0.386421	 -0.202090	 7
1462501575.412	 6	 2.790023	 -1.774057	 1.167426	 -2.872055	 -0.897732	 1.572903	 0.590764	 -0.671890	 0.389428	 -0.218877	 7
1462501575.422	 6	 2.501094	 -1.629475	 1.334348	 -2.896329	 -0.925912	 1.563281	 0.586785	 -0.668762	 0.391694	 -0.234557	 7
1462501575.432	 6	 2.227350	 -1.459185	 1.532285	 -2.923941	 -0.951599	 1.547709	 0.582011	 -0.666789	 0.393146	 -0.249183	 7
1462501575.442	 6	 2.081505	 -1.282181	 1.681212	 -2.954321	 -0.975553	 1.526854	 0.576434	 -0.665715	 0.394218	 -0.262942	 7
1462501575.452	 6	 2.077054	 -1.186711	 1.790846	 -2.987334	 -0.998945	 1.501689	 0.570146	 -0.665068	 0.395282	 -0.276352	 7
1462501575.462	 6	 2.189586	 -1.166134	 1.887043	 -3.023828	 -1.022822	 1.472446	 0.563223	 -0.664421	 0.396488	 -0.290037	 7
1462501575.472	 6	 2.375128	 -1.041628	 1.970781	 -3.063590	 -1.047861	 1.438820	 0.555443	 -0.663654	 0.398274	 -0.304014	 7
1462501575.482	 6	 2.607736	 -0.864334	 2.019430	 -3.105938	 -1.074441	 1.400652	 0.546620	 -0.662697	 0.401109	 -0.318043	 7
1462501575.492	 6	 2.829831	 -0.836288	 2.016692	 3.130998	 -1.102479	 1.357856	 0.537095	 -0.661218	 0.404762	 -0.332397	 7
1462501575.502	 6	 2.934088	 -0.879364	 1.985542	 3.079293	 -1.130907	 1.310019	 0.527332	 -0.659112	 0.408685	 -0.347087	 7
1462501575.512	 6	 2.891392	 -0.853948	 1.953111	 3.021814	 -1.158096	 1.256393	 0.517503	 -0.656731	 0.412521	 -0.361554	 7
1462501575.522	 6	 2.752929	 -0.763422	 1.913595	 2.959050	 -1.182803	 1.196814	 0.507691	 -0.654426	 0.416105	 -0.375279	 7
1462501575.532	 6	 2.579297	 -0.656889	 1.867073	 2.891663	 -1.204400	 1.131685	 0.497971	 -0.652369	 0.419370	 -0.388030	 7
1462501575.542	 6	 2.417292	 -0.563249	 1.807540	 2.820382	 -1.222839	 1.061883	 0.488436	 -0.650538	 0.422331	 -0.399834	 7
1462501575.552	 6	 2.275608	 -0.464312	 1.753209	 2.745898	 -1.238260	 0.988083	 0.479066	 -0.648926	 0.425061	 -0.410749	 7
1462501575.562	 6	 2.170826	 -0.238877	 1.703997	 2.669579	 -1.251025	 0.910633	 0.469563	 -0.647688	 0.427930	 -0.420580	 7
1462501575.572	 6	 2.046870	 -0.036523	 1.690973	 2.592200	 -1.260873	 0.830188	 0.459866	 -0.646974	 0.430849	 -0.429321	 7
1462501575.582	 6	 1.941023	 0.135140	 1.706281	 2.513962	 -1.267781	 0.747124	 0.449901	 -0.646804	 0.433739	 -0.437156	 7
1462501575.592	 6	 1.881641	 0.190838	 1.736092	 2.434326	 -1.271949	 0.661816	 0.439742	 -0.646937	 0.436459	 -0.444526	 7
1462501575.602	 6	 1.879307	 0.134594	 1.752641	 2.352505	 -1.273804	 0.574599	 0.429534	 -0.646981	 0.438948	 -0.451930	 7
1462501575.612	 6	 1.890290	 -0.009168	 1.733089	 2.268908	 -1.273689	 0.486867	 0.419541	 -0.646586	 0.441154	 -0.459669	 7
1462501575.622	 6	 1.891675	 -0.144453	 1.705174	 2.184957	 -1.271673	 0.400240	 0.409875	 -0.645686	 0.443064	 -0.467745	 7
1462501575.632	 6	 1.875331	 -0.201959	 1.688795	 2.102630	 -1.267632	 0.316052	 0.400410	 -0.644491	 0.444741	 -0.475929	 7
1462501575.642	 6	 1.863613	 -0.180797	 1.668845	 2.023635	 -1.261700	 0.235206	 0.390967	 -0.643188	 0.446356	 -0.483963	 7
1462501575.652	 6	 1.836178	 -0.095791	 1.646428	 1.949662	 -1.254025	 0.158741	 0.381435	 -0.641961	 0.448013	 -0.491607	 7
1462501575.662	 6	 1.814051	 0.008129	 1.594299	 1.881696	 -1.245007	 0.087289	 0.371805	 -0.640872	 0.449825	 -0.498701	 7
1462501575.672	 6	 1.793717	 0.088413	 1.502367	 1.819726	 -1.235318	 0.021040	 0.362250	 -0.639788	 0.451885	 -0.505218	 7
1462501575.682	 6	 1.785104	 0.156843	 1.401831	 1.763119	 -1.225286	 -0.040505	 0.352830	 -0.638654	 0.454216	 -0.511196	 7
1462501575.692	 6	 1.791233	 0.212217	 1.266941	 1.710957	 -1.215393	 -0.098174	 0.343620	 -0.637362	 0.456923	 -0.516639	 7
1462501575.702	 6	 1.788764	 0.253797	 1.133064	 1.662623	 -1.205891	 -0.152426	 0.334710	 -0.635870	 0.460008	 -0.521566	 7
1462501575.712	 6	 1.758451	 0.271027	 1.003465	 1.617939	 -1.196767	 -0.203246	 0.326163	 -0.634213	 0.463350	 -0.526020	 7
1462501575.722	 6	 1.712671	 0.205096	 0.840188	 1.576214	 -1.188395	 -0.250588	 0.318284	 -0.632223	 0.466849	 -0.530133	 7
1462501575.732	 6	 1.640176	 0.124415	 0.685533	 1.537064	 -1.180949	 -0.294389	 0.311259	 -0.629849	 0.470393	 -0.533985	 7
1462501575.742	 6	 1.528424	 0.062189	 0.566562	 1.501002	 -1.174198	 -0.334255	 0.305029	 -0.627286	 0.473820	 -0.537554	 7
1462501575.752	 6	 1.356289	 0.063165	 0.484940	 1.469535	 -1.167988	 -0.369019	 0.299546	 -0.624867	 0.476933	 -0.540692	 7
1462501575.762	 6	 1.169858	 0.173967	 0.435372	 1.444018	 -1.162175	 -0.398328	 0.294523	 -0.623006	 0.479727	 -0.543123	 7
1462501575.772	 6	 1.033582	 0.277235	 0.393823	 1.423767	 -1.156734	 -0.423255	 0.289758	 -0.621747	 0.482313	 -0.544835	 7
1462501575.782	 6	 0.978992	 0.243353	 0.392918	 1.405696	 -1.151345	 -0.445840	 0.285229	 -0.620627	 0.484685	 -0.546395	 7
1462501575.792	 6	 1.000953	 0.139131	 0.403480	 1.387095	 -1.145685	 -0.468066	 0.280862	 -0.619232	 0.486914	 -0.548255	 7
1462501575.802	 6	 1.038834	 0.010452	 0.421137	 1.367129	 -1.139636	 -0.490483	 0.276647	 -0.617415	 0.489019	 -0.550569	 7
1462501575.812	 6	 1.057514	 -0.130811	 0.455895	 1.346059	 -1.133032	 -0.512691	 0.272590	 -0.615191	 0.490906	 -0.553395	 7
1462501575.822	 6	 1.049354	 -0.295487	 0.477881	 1.324200	 -1.125971	 -0.534079	 0.268834	 -0.612543	 0.492484	 -0.556757	 7
1462501575.832	 6	 0.948413	 -0.431305	 0.481759	 1.302942	 -1.118815	 -0.553172	 0.265617	 -0.609633	 0.493600	 -0.560495	 7
1462501575.842	 6	 0.761243	 -0.510598	 0.471993	 1.284672	 -1.112026	 -0.568000	 0.263111	 -0.606860	 0.494083	 -0.564248	 7
1462501575.852	 6	 0.488202	 -0.449414	 0.438704	 1.271711	 -1.106128	 -0.577140	 0.261351	 -0.604712	 0.493887	 -0.567534	 7
1462501575.862	 6	 0.185036	 -0.223199	 0.416804	 1.266394	 -1.101334	 -0.579896	 0.260043	 -0.603804	 0.493107	 -0.569775	 7
1462501575.872	 6	 -0.076283	 0.034941	 0.414021	 1.268852	 -1.097446	 -0.576816	 0.258916	 -0.604301	 0.491840	 -0.570856	 7
1462501575.882	 6	 -0.212989	 0.249034	 0.401217	 1.276682	 -1.094111	 -0.570261	 0.257733	 -0.605861	 0.490366	 -0.571006	 7
1462501575.892	 6	 -0.215860	 0.348766	 0.365935	 1.286210	 -1.091156	 -0.563285	 0.256416	 -0.607841	 0.489047	 -0.570625	 7
1462501575.902	 6	 -0.112622	 0.319489	 0.330659	 1.294003	 -1.088289	 -0.558248	 0.254980	 -0.609578	 0.488063	 -0.570258	 7
1462501575.912	 6	 0.047869	 0.213441	 0.292039	 1.297874	 -1.085363	 -0.556619	 0.253448	 -0.610639	 0.487530	 -0.570262	 7
1462501575.922	 6	 0.199934	 0.131875	 0.252654	 1.297731	 -1.082398	 -0.558431	 0.251829	 -0.610993	 0.487458	 -0.570661	 7
1462501575.932	 6	 0.307498	 0.115342	 0.216394	 1.294894	 -1.079461	 -0.562992	 0.250037	 -0.610916	 0.487840	 -0.571205	 7
1462501575.942	 6	 0.311780	 0.121681	 0.212152	 1.291441	 -1.076562	 -0.568225	 0.248203	 -0.610734	 0.488352	 -0.571762	 7
1462501575.952	 6	 0.217243	 0.222936	 0.203260	 1.290055	 -1.073892	 -0.572002	 0.246393	 -0.610942	 0.488752	 -0.571981	 7
1462501575.962	 6	 0.052519	 0.386003	 0.182765	 1.292687	 -1.071807	 -0.572876	 0.244706	 -0.611907	 0.488928	 -0.571522	 7
1462501575.972	 6	 -0.119623	 0.557624	 0.165611	 1.300093	 -1.070397	 -0.570341	 0.243147	 -0.613784	 0.488837	 -0.570251	 7
1462501575.982	 6	 -0.244899	 0.684654	 0.178541	 1.311290	 -1.069290	 -0.565027	 0.241635	 -0.616386	 0.488466	 -0.568402	 7
1462501575.992	 6	 -0.293599	 0.764592	 0.181841	 1.324673	 -1.068240	 -0.558298	 0.240058	 -0.619430	 0.487962	 -0.566190	 7
1462501576.002	 6	 -0.240343	 0.744214	 0.180122	 1.337631	 -1.067111	 -0.552165	 0.238386	 -0.622424	 0.487553	 -0.563962	 7
1462501576.012	 6	 -0.074484	 0.608684	 0.184877	 1.346994	 -1.065594	 -0.548860	 0.236577	 -0.624759	 0.487425	 -0.562249	 7
1462501576.022	 6	 0.124990	 0.391943	 0.151282	 1.350769	 -1.063826	 -0.549671	 0.234754	 -0.626024	 0.487735	 -0.561337	 7
1462501576.032	 6	 0.262757	 0.248486	 0.078407	 1.349789	 -1.062371	 -0.553901	 0.233135	 -0.626332	 0.488508	 -0.560996	 7
1462501576.042	 6	 0.324723	 0.338064	 -0.010823	 1.347375	 -1.061547	 -0.560136	 0.231470	 -0.626428	 0.489807	 -0.560445	 7
1462501576.052	 6	 0.283705	 0.563884	 -0.127730	 1.346775	 -1.061824	 -0.566600	 0.229694	 -0.626989	 0.491604	 -0.558973	 7
1462501576.062	 6	 0.166868	 0.791943	 -0.259942	 1.349784	 -1.063584	 -0.571606	 0.228028	 -0.628300	 0.493700	 -0.556329	 7
1462501576.072	 6	 0.000529	 0.940312	 -0.400991	 1.356649	 -1.067054	 -0.574136	 0.226808	 -0.630291	 0.495886	 -0.552619	 7
1462501576.082	 6	 -0.217534	 0.988804	 -0.548914	 1.367415	 -1.072398	 -0.573092	 0.226418	 -0.632818	 0.497908	 -0.548054	 7
1462501576.092	 6	 -0.461886	 0.888513	 -0.690532	 1.381576	 -1.079573	 -0.567514	 0.227269	 -0.635599	 0.499468	 -0.543041	 7
1462501576.102	 6	 -0.637341	 0.672229	 -0.812514	 1.397329	 -1.088453	 -0.557904	 0.229606	 -0.638162	 0.500521	 -0.538061	 7
1462501576.112	 6	 -0.779714	 0.483092	 -0.697932	 1.414518	 -1.096959	 -0.544580	 0.232619	 -0.640607	 0.500739	 -0.533639	 7
1462501576.122	 6	 -0.817838	 0.269847	 -0.638836	 1.431719	 -1.104497	 -0.528867	 0.236044	 -0.642745	 0.500203	 -0.530057	 7
1462501576.132	 6	 -0.748082	 0.137656	 -0.652396	 1.447045	 -1.111964	 -0.513547	 0.239783	 -0.644336	 0.499619	 -0.526988	 7
1462501576.142	 6	 -0.545678	 0.051000	 -0.640044	 1.458456	 -1.119073	 -0.501689	 0.243252	 -0.645260	 0.499465	 -0.524406	 7
1462501576.152	 6	 -0.295725	 -0.103089	 -0.667101	 1.463766	 -1.125976	 -0.495085	 0.246467	 -0.645190	 0.499939	 -0.522536	 7
1462501576.162	 6	 -0.068914	 -0.135234	 -0.754636	 1.463201	 -1.133368	 -0.494135	 0.249491	 -0.644212	 0.501284	 -0.521018	 7
1462501576.172	 6	 0.032046	 0.082871	 -0.851536	 1.461096	 -1.141569	 -0.496661	 0.252062	 -0.643182	 0.503510	 -0.518902	 7
1462501576.182	 6	 -0.008752	 0.334397	 -0.943693	 1.461381	 -1.150711	 -0.499342	 0.254308	 -0.642698	 0.506268	 -0.515713	 7
1462501576.192	 6	 -0.137021	 0.585191	 -1.025504	 1.466448	 -1.160820	 -0.499531	 0.256468	 -0.643013	 0.509198	 -0.511347	 7
1462501576.212	 7	 -0.548760	 0.960913	 -1.154840	 1.496910	 -1.183559	 -0.484525	 0.261323	 -0.646353	 0.514420	 -0.499310	 7
1462501576.222	 7	 -0.705455	 1.071363	 -1.240906	 1.522259	 -1.196095	 -0.468564	 0.264201	 -0.649091	 0.516648	 -0.491888	 7
1462501576.232	 7	 -0.828718	 1.016966	 -1.311745	 1.552224	 -1.209354	 -0.447593	 0.267686	 -0.651967	 0.518604	 -0.484080	 7
1462501576.242	 7	 -0.941892	 0.934949	 -1.227328	 1.586438	 -1.221942	 -0.421269	 0.271522	 -0.654942	 0.519911	 -0.476465	 7
1462501576.253	 7	 -0.943000	 0.796739	 -1.073003	 1.622458	 -1.232739	 -0.391954	 0.275230	 -0.657884	 0.520573	 -0.469511	 7
1462501576.262	 7	 -0.831754	 0.461729	 -0.877791	 1.654827	 -1.241430	 -0.363597	 0.278868	 -0.660156	 0.520657	 -0.464050	 7
1462501576.273	 7	 -0.587445	 0.051910	 -0.678040	 1.677667	 -1.248016	 -0.341122	 0.282369	 -0.661200	 0.520388	 -0.460737	 7
1462501576.283	 7	 -0.305236	 -0.353688	 -0.613931	 1.688455	 -1.253732	 -0.327064	 0.285939	 -0.660711	 0.520205	 -0.459442	 7
1462501576.293	 7	 -0.063858	 -0.692186	 -0.700180	 1.688445	 -1.260270	 -0.320628	 0.290029	 -0.658647	 0.520470	 -0.459541	 7
1462501576.303	 7	 0.084322	 -0.839305	 -0.833928	 1.681407	 -1.268272	 -0.319412	 0.294664	 -0.655452	 0.521289	 -0.460232	 7
1462501576.313	 7	 0.076840	 -0.709603	 -0.991455	 1.674196	 -1.277817	 -0.319031	 0.299538	 -0.652059	 0.522648	 -0.460364	 7
1462501576.323	 7	 -0.112769	 -0.288900	 -1.135096	 1.675711	 -1.288749	 -0.313100	 0.304348	 -0.649573	 0.524382	 -0.458749	 7
1462501576.333	 7	 -0.429928	 0.376518	 -1.171970	 1.694635	 -1.299965	 -0.295585	 0.308391	 -0.649167	 0.526241	 -0.454474	 7
1462501576.343	 7	 -0.701655	 0.892293	 -1.145621	 1.731802	 -1.310485	 -0.265188	 0.311522	 -0.650834	 0.527979	 -0.447892	 7
1462501576.353	 7	 -0.837155	 1.099254	 -1.114806	 1.780983	 -1.320008	 -0.225387	 0.314163	 -0.653598	 0.529487	 -0.440176	 7
1462501576.363	 7	 -0.807513	 1.043900	 -1.109185	 1.833928	 -1.328846	 -0.181830	 0.316756	 -0.656373	 0.530889	 -0.432432	 7
1462501576.373	 7	 -0.633638	 0.809331	 -1.118210	 1.882831	 -1.337620	 -0.140513	 0.319568	 -0.658289	 0.532429	 -0.425501	 7
1462501576.383	 7	 -0.398311	 0.498909	 -1.148726	 1.923216	 -1.346886	 -0.105003	 0.322738	 -0.658909	 0.534256	 -0.419820	 7
1462501576.392	 7	 -0.168235	 0.248761	 -1.229792	 1.955144	 -1.357352	 -0.075363	 0.326380	 -0.658171	 0.536529	 -0.415240	 7
1462501576.403	 7	 -0.004057	 0.295431	 -1.327771	 1.983435	 -1.369224	 -0.049092	 0.330050	 -0.656667	 0.539521	 -0.410819	 7
1462501576.412	 7	 0.041654	 0.763883	 -1.392019	 2.016887	 -1.381931	 -0.021365	 0.332801	 -0.655549	 0.543501	 -0.405101	 7
1462501576.423	 7	 -0.024518	 1.421552	 -1.369337	 2.063343	 -1.394245	 0.013111	 0.333907	 -0.655769	 0.548358	 -0.397212	 7
1462501576.433	 7	 -0.133771	 1.928896	 -1.266680	 2.124354	 -1.404952	 0.056536	 0.333353	 -0.657472	 0.553593	 -0.387480	 7
1462501576.453	 8	 -0.177205	 2.088489	 -0.837446	 2.259344	 -1.419257	 0.150769	 0.329058	 -0.663085	 0.563114	 -0.367344	 7
1462501576.463	 8	 -0.052677	 1.865025	 -0.655167	 2.313381	 -1.423927	 0.185881	 0.326067	 -0.665701	 0.567247	 -0.358821	 7
1462501576.473	 8	 0.092445	 1.535747	 -0.535866	 2.353505	 -1.428384	 0.210065	 0.323236	 -0.667506	 0.571063	 -0.351912	 7
1462501576.482	 8	 0.219274	 1.242100	 -0.497073	 2.382659	 -1.433248	 0.226262	 0.320822	 -0.668443	 0.574685	 -0.346401	 7
1462501576.492	 8	 0.274663	 1.023639	 -0.532626	 2.408189	 -1.438732	 0.241214	 0.319014	 -0.668687	 0.578183	 -0.341747	 7
1462501576.502	 8	 0.241830	 0.897821	 -0.588931	 2.437860	 -1.444437	 0.261813	 0.317825	 -0.668602	 0.581483	 -0.337395	 7
1462501576.512	 8	 0.144553	 0.894643	 -0.626481	 2.476458	 -1.449680	 0.291791	 0.317024	 -0.668602	 0.584499	 -0.332908	 7
1462501576.522	 8	 0.017925	 0.988471	 -0.645820	 2.526650	 -1.453911	 0.332612	 0.316256	 -0.669036	 0.587255	 -0.327878	 7
1462501576.532	 8	 -0.098264	 1.018579	 -0.647726	 2.586937	 -1.456900	 0.383078	 0.315558	 -0.669873	 0.589675	 -0.322455	 7
1462501576.542	 8	 -0.160137	 0.982947	 -0.599560	 2.650334	 -1.458679	 0.436874	 0.314918	 -0.670934	 0.591726	 -0.317073	 7
1462501576.552	 8	 -0.167873	 0.862275	 -0.522814	 2.709313	 -1.459571	 0.487174	 0.314339	 -0.672000	 0.593422	 -0.312182	 7
1462501576.562	 8	 -0.114094	 0.662699	 -0.448405	 2.759601	 -1.460210	 0.530573	 0.313985	 -0.672768	 0.594827	 -0.308184	 7
1462501576.572	 8	 -0.023064	 0.462833	 -0.398835	 2.800798	 -1.461221	 0.566873	 0.313908	 -0.673049	 0.596101	 -0.305173	 7
1462501576.582	 8	 0.074298	 0.275473	 -0.382242	 2.835954	 -1.462905	 0.599018	 0.314172	 -0.672787	 0.597352	 -0.303026	 7
1462501576.592	 8	 0.151556	 0.146482	 -0.391576	 2.868864	 -1.465308	 0.630365	 0.314753	 -0.672035	 0.598667	 -0.301492	 7
1462501576.602	 8	 0.153352	 0.075210	 -0.392255	 2.902345	 -1.467841	 0.663112	 0.315563	 -0.671076	 0.599936	 -0.300256	 7
1462501576.612	 8	 0.085002	 0.043682	 -0.367440	 2.936347	 -1.469695	 0.696794	 0.316516	 -0.670241	 0.600929	 -0.299129	 7
1462501576.622	 8	 -0.009604	 0.076270	 -0.311960	 2.968389	 -1.470454	 0.728369	 0.317397	 -0.669773	 0.601565	 -0.297962	 7
1462501576.632	 8	 -0.075325	 0.131047	 -0.265050	 2.997662	 -1.470294	 0.756602	 0.318059	 -0.669691	 0.601962	 -0.296637	 7
1462501576.642	 8	 -0.109043	 0.170945	 -0.203637	 3.022128	 -1.469570	 0.779567	 0.318459	 -0.669888	 0.602203	 -0.295272	 7
1462501576.652	 8	 -0.094864	 0.175676	 -0.132310	 3.039556	 -1.468696	 0.795322	 0.318585	 -0.670224	 0.602352	 -0.294067	 7
1462501576.662	 8	 -0.021995	 0.189719	 -0.073131	 3.050334	 -1.468365	 0.804288	 0.318381	 -0.670483	 0.602637	 -0.293113	 7
1462501576.672	 8	 0.043384	 0.201771	 -0.005496	 3.054155	 -1.468661	 0.806123	 0.317810	 -0.670657	 0.603079	 -0.292424	 7
1462501576.682	 8	 0.090515	 0.199843	 0.040969	 3.052376	 -1.469423	 0.802294	 0.316975	 -0.670765	 0.603620	 -0.291966	 7
1462501576.692	 8	 0.129789	 0.154002	 0.042332	 3.048672	 -1.470591	 0.796884	 0.316145	 -0.670713	 0.604229	 -0.291727	 7
1462501576.702	 8	 0.158233	 0.082596	 0.033959	 3.044727	 -1.472065	 0.791908	 0.315501	 -0.670458	 0.604844	 -0.291735	 7
1462501576.712	 8	 0.180371	 0.027203	 0.031120	 3.040242	 -1.473782	 0.787000	 0.315021	 -0.670033	 0.605451	 -0.291970	 7
1462501576.722	 8	 0.184480	 -0.008952	 0.033945	 3.034806	 -1.475576	 0.781538	 0.314640	 -0.669529	 0.606018	 -0.292361	 7
1462501576.732	 8	 0.161992	 -0.039607	 0.050908	 3.027850	 -1.477201	 0.774880	 0.314344	 -0.669041	 0.606465	 -0.292870	 7
1462501576.742	 8	 0.137519	 -0.062602	 0.096734	 3.016615	 -1.478520	 0.764183	 0.314035	 -0.668652	 0.606729	 -0.293542	 7
1462501576.753	 8	 0.123810	 -0.077028	 0.155336	 2.998811	 -1.479579	 0.747047	 0.313601	 -0.668383	 0.606826	 -0.294415	 7
1462501576.762	 8	 0.115382	 -0.079969	 0.186290	 2.976330	 -1.480466	 0.725271	 0.313062	 -0.668192	 0.606828	 -0.295416	 7
1462501576.772	 8	 0.097222	 -0.088369	 0.193837	 2.946787	 -1.478843	 0.696510	 0.312544	 -0.668849	 0.605886	 -0.296410	 7
1462501576.783	 8	 0.071612	 -0.086181	 0.191949	 2.923591	 -1.479216	 0.674092	 0.312045	 -0.668784	 0.605725	 -0.297410	 7
1462501576.792	 8	 0.040649	 -0.068191	 0.166808	 2.903205	 -1.479290	 0.654347	 0.311611	 -0.668802	 0.605514	 -0.298255	 7
1462501576.802	 8	 0.021193	 -0.086510	 0.126308	 2.887235	 -1.479198	 0.639092	 0.311349	 -0.668824	 0.605271	 -0.298971	 7
1462501576.813	 8	 0.018508	 -0.154964	 0.071333	 2.886390	 -1.478505	 0.639521	 0.311790	 -0.668860	 0.604825	 -0.299332	 7
1462501576.822	 8	 0.021198	 -0.223376	 0.024839	 2.886744	 -1.478396	 0.641913	 0.312490	 -0.668577	 0.604482	 -0.299928	 7
1462501576.832	 8	 0.025228	 -0.258611	 0.007422	 2.885833	 -1.478327	 0.643480	 0.313293	 -0.668217	 0.604080	 -0.300701	 7
1462501576.843	 8	 0.022954	 -0.273619	 -0.009750	 2.883071	 -1.478503	 0.643453	 0.314107	 -0.667747	 0.603714	 -0.301628	 7
1462501576.853	 8	 0.003916	 -0.227901	 -0.019815	 2.882056	 -1.477820	 0.644884	 0.314932	 -0.667596	 0.603092	 -0.302348	 7
1462501576.863	 8	 -0.033046	 -0.142718	 -0.021894	 2.881224	 -1.476530	 0.645714	 0.315538	 -0.667767	 0.602369	 -0.302779	 7
1462501576.873	 8	 -0.068996	 -0.077693	 -0.015637	 2.874347	 -1.475196	 0.639821	 0.315719	 -0.668098	 0.601693	 -0.303203	 7
1462501576.883	 8	 -0.082725	 -0.056325	 -0.006780	 2.863399	 -1.474468	 0.629534	 0.315615	 -0.668302	 0.601262	 -0.303716	 7
1462501576.893	 8	 -0.073199	 -0.082896	 0.001429	 2.849556	 -1.474558	 0.616519	 0.315423	 -0.668221	 0.601090	 -0.304435	 7
1462501576.903	 8	 -0.046669	 -0.121237	 0.006177	 2.839981	 -1.475323	 0.608108	 0.315455	 -0.667833	 0.601140	 -0.305153	 7
1462501576.913	 8	 -0.022292	 -0.153272	 -0.000725	 2.833352	 -1.476267	 0.602967	 0.315688	 -0.667316	 0.601223	 -0.305877	 7
1462501576.923	 8	 -0.017034	 -0.165048	 -0.008336	 2.826018	 -1.476811	 0.597298	 0.315978	 -0.666907	 0.601131	 -0.306651	 7
1462501576.933	 8	 -0.014868	 -0.162910	 -0.005132	 2.817635	 -1.477290	 0.590609	 0.316248	 -0.666516	 0.601008	 -0.307462	 7
1462501576.943	 8	 -0.004092	 -0.143784	 -0.002912	 2.811110	 -1.477634	 0.585592	 0.316524	 -0.666190	 0.600874	 -0.308147	 7
1462501576.953	 8	 -0.000858	 -0.128972	 -0.012394	 2.810707	 -1.477666	 0.586525	 0.316954	 -0.665970	 0.600678	 -0.308563	 7
1462501576.963	 8	 -0.009264	 -0.085475	 -0.031100	 2.812639	 -1.477689	 0.589446	 0.317346	 -0.665797	 0.600541	 -0.308798	 7
1462501576.973	 8	 -0.020884	 -0.046208	 -0.047685	 2.817240	 -1.477660	 0.594616	 0.317687	 -0.665696	 0.600463	 -0.308817	 7
1462501576.983	 8	 -0.026221	 -0.040930	 -0.055046	 2.819278	 -1.477602	 0.597091	 0.317901	 -0.665637	 0.600383	 -0.308879	 7
1462501576.993	 8	 -0.018909	 -0.074982	 -0.054361	 2.824893	 -1.477575	 0.603387	 0.318312	 -0.665512	 0.600294	 -0.308899	 7
1462501577.003	 8	 -0.011615	 -0.121721	 -0.043136	 2.828953	 -1.477582	 0.608581	 0.318821	 -0.665310	 0.600141	 -0.309107	 7
1462501577.013	 8	 0.001069	 -0.152560	 -0.037139	 2.831443	 -1.477679	 0.612549	 0.319390	 -0.665029	 0.599960	 -0.309475	 7
1462501577.023	 8	 0.013803	 -0.159057	 -0.047971	 2.835870	 -1.478370	 0.618570	 0.320030	 -0.664521	 0.599987	 -0.309852	 7
1462501577.033	 8	 0.006282	 -0.142255	 -0.080788	 2.841533	 -1.478682	 0.625738	 0.320697	 -0.664146	 0.599896	 -0.310141	 7
1462501577.043	 8	 -0.026743	 -0.107256	 -0.107885	 2.851486	 -1.478815	 0.636918	 0.321417	 -0.663851	 0.599808	 -0.310199	 7
1462501577.053	 8	 -0.067245	 -0.081738	 -0.125413	 2.864993	 -1.478612	 0.651356	 0.322170	 -0.663690	 0.599669	 -0.310031	 7
1462501577.063	 8	 -0.096076	 -0.072183	 -0.139998	 2.885738	 -1.477898	 0.672884	 0.323139	 -0.663667	 0.599424	 -0.309546	 7
1462501577.073	 8	 -0.114282	 -0.073299	 -0.154774	 2.906766	 -1.477401	 0.694706	 0.324113	 -0.663552	 0.599273	 -0.309067	 7
1462501577.083	 8	 -0.136736	 -0.072261	 -0.167361	 2.928430	 -1.476807	 0.717171	 0.325121	 -0.663446	 0.599108	 -0.308555	 7
1462501577.093	 8	 -0.149421	 -0.038262	 -0.177595	 2.951122	 -1.476073	 0.740429	 0.326101	 -0.663395	 0.598957	 -0.307921	 7
1462501577.103	 8	 -0.148214	 -0.010594	 -0.175216	 2.971914	 -1.474915	 0.761475	 0.326964	 -0.663532	 0.598705	 -0.307202	 7
1462501577.113	 8	 -0.122561	 -0.017978	 -0.156325	 2.990533	 -1.473881	 0.780324	 0.327747	 -0.663636	 0.598496	 -0.306548	 7
1462501577.123	 8	 -0.085215	 -0.049729	 -0.119644	 3.004660	 -1.473123	 0.794933	 0.328447	 -0.663646	 0.598310	 -0.306141	 7
1462501577.133	 8	 -0.042501	 -0.078325	 -0.084030	 3.000337	 -1.474121	 0.791443	 0.328477	 -0.663238	 0.598484	 -0.306651	 7
1462501577.143	 8	 0.002325	 -0.097427	 -0.060086	 3.006249	 -1.474130	 0.798313	 0.328985	 -0.663013	 0.598405	 -0.306748	 7
1462501577.153	 8	 0.031189	 -0.080549	 -0.067640	 3.011425	 -1.474447	 0.804397	 0.329418	 -0.662704	 0.598435	 -0.306892	 7
1462501577.163	 8	 0.045084	 -0.033096	 -0.118476	 3.021259	 -1.475004	 0.814720	 0.329833	 -0.662335	 0.598666	 -0.306794	 7
1462501577.173	 8	 0.027998	 -0.000382	 -0.160651	 3.034721	 -1.475598	 0.828327	 0.330239	 -0.661966	 0.599006	 -0.306488	 7
1462501577.183	 8	 0.009900	 0.016622	 -0.169928	 3.052518	 -1.475900	 0.846065	 0.330740	 -0.661664	 0.599336	 -0.305954	 7
1462501577.193	 8	 0.004750	 0.031738	 -0.140967	 3.068585	 -1.476075	 0.861929	 0.331150	 -0.661441	 0.599629	 -0.305419	 7
1462501577.203	 8	 0.011396	 0.033214	 -0.081328	 3.079049	 -1.476221	 0.872081	 0.331350	 -0.661311	 0.599863	 -0.305024	 7
1462501577.213	 8	 0.032798	 -0.000507	 -0.028526	 3.072545	 -1.476823	 0.865547	 0.331062	 -0.661214	 0.599987	 -0.305302	 7
1462501577.223	 8	 0.055176	 -0.035450	 0.002939	 3.062300	 -1.477657	 0.855615	 0.330746	 -0.661032	 0.600094	 -0.305828	 7
1462501577.233	 8	 0.061574	 -0.055528	 0.024019	 3.053153	 -1.478540	 0.846995	 0.330532	 -0.660781	 0.600203	 -0.306388	 7
1462501577.243	 8	 0.061577	 -0.057634	 0.027202	 3.045306	 -1.479062	 0.839730	 0.330424	 -0.660614	 0.600200	 -0.306871	 7
1462501577.253	 8	 0.066941	 -0.036508	 0.009233	 3.042544	 -1.479703	 0.837387	 0.330401	 -0.660375	 0.600323	 -0.307167	 7
1462501577.263	 8	 0.060579	 -0.011107	 -0.010724	 3.042455	 -1.480339	 0.837473	 0.330380	 -0.660147	 0.600514	 -0.307308	 7
1462501577.273	 8	 0.042516	 0.002798	 -0.007240	 3.042983	 -1.480819	 0.837997	 0.330337	 -0.659990	 0.600686	 -0.307355	 7
1462501577.283	 8	 0.036130	 -0.009802	 0.012954	 3.037012	 -1.480683	 0.832101	 0.330200	 -0.660089	 0.600559	 -0.307537	 7
1462501577.293	 8	 0.049999	 -0.025667	 0.030803	 3.033261	 -1.481104	 0.828561	 0.330109	 -0.659964	 0.600629	 -0.307767	 7
1462501577.303	 8	 0.064950	 -0.032017	 0.041275	 3.025088	 -1.481493	 0.820681	 0.329918	 -0.659882	 0.600628	 -0.308149	 7
1462501577.313	 8	 0.071323	 -0.037363	 0.040107	 3.017172	 -1.482038	 0.813120	 0.329739	 -0.659735	 0.600677	 -0.308559	 7
1462501577.323	 8	 0.066011	 -0.027814	 0.034915	 3.010696	 -1.482592	 0.806940	 0.329584	 -0.659578	 0.600756	 -0.308908	 7
1462501577.333	 8	 0.052224	 -0.005466	 0.030981	 3.005954	 -1.482822	 0.802290	 0.329450	 -0.659537	 0.600773	 -0.309103	 7
1462501577.343	 8	 0.032022	 0.008446	 0.034484	 3.001089	 -1.482727	 0.797358	 0.329295	 -0.659628	 0.600701	 -0.309215	 7
1462501577.353	 8	 0.018186	 0.009613	 0.043143	 2.995308	 -1.482621	 0.791465	 0.329099	 -0.659738	 0.600624	 -0.309339	 7
1462501577.363	 8	 0.016005	 0.000047	 0.043075	 2.989236	 -1.482606	 0.785345	 0.328905	 -0.659810	 0.600567	 -0.309503	 7
1462501577.373	 8	 0.025496	 -0.011791	 0.027963	 2.984149	 -1.482860	 0.780342	 0.328756	 -0.659763	 0.600594	 -0.309708	 7
1462501577.383	 8	 0.039298	 -0.005637	 0.002321	 2.982448	 -1.483377	 0.778723	 0.328681	 -0.659599	 0.600746	 -0.309842	 7
1462501577.393	 8	 0.036050	 0.005888	 -0.023122	 2.984214	 -1.483754	 0.780453	 0.328683	 -0.659467	 0.600900	 -0.309823	 7
1462501577.403	 8	 0.017848	 0.006890	 -0.038940	 2.987296	 -1.483888	 0.783488	 0.328744	 -0.659403	 0.600983	 -0.309734	 7
1462501577.413	 8	 0.003921	 0.000511	 -0.044205	 2.990858	 -1.483794	 0.787063	 0.328862	 -0.659396	 0.600983	 -0.309623	 7
1462501577.423	 8	 -0.009916	 0.005894	 -0.040834	 2.993890	 -1.483536	 0.790077	 0.328971	 -0.659453	 0.600924	 -0.309498	 7
1462501577.433	 8	 -0.015241	 0.006988	 -0.038643	 2.996323	 -1.483231	 0.792460	 0.329058	 -0.659535	 0.600850	 -0.309376	 7
1462501577.443	 8	 -0.020563	 0.007026	 -0.035396	 2.999093	 -1.483067	 0.795183	 0.329141	 -0.659568	 0.600827	 -0.309261	 7
1462501577.453	 8	 -0.022727	 0.000650	 -0.035435	 3.002334	 -1.482910	 0.798424	 0.329253	 -0.659586	 0.600805	 -0.309146	 7
1462501577.463	 8	 -0.022758	 -0.003628	 -0.038670	 3.005598	 -1.482828	 0.801730	 0.329372	 -0.659573	 0.600803	 -0.309053	 7
1462501577.473	 8	 -0.021740	 -0.008997	 -0.045121	 3.008761	 -1.482756	 0.805005	 0.329509	 -0.659545	 0.600793	 -0.308985	 7
1462501577.483	 8	 -0.031348	 0.001567	 -0.058791	 3.013506	 -1.482549	 0.809793	 0.329686	 -0.659555	 0.600763	 -0.308833	 7
1462501577.493	 8	 -0.037792	 0.014163	 -0.084190	 3.018755	 -1.482201	 0.814989	 0.329862	 -0.659619	 0.600706	 -0.308619	 7
1462501577.503	 8	 -0.039963	 0.030968	 -0.113843	 3.022920	 -1.481841	 0.818965	 0.329963	 -0.659720	 0.600656	 -0.308393	 7
1462501577.513	 8	 -0.049552	 0.042615	 -0.124292	 3.026643	 -1.481384	 0.822379	 0.330024	 -0.659876	 0.600586	 -0.308131	 7
1462501577.523	 8	 -0.059180	 0.033096	 -0.120013	 3.027513	 -1.480933	 0.822998	 0.330019	 -0.660051	 0.600478	 -0.307972	 7
1462501577.533	 8	 -0.058156	 0.010850	 -0.106352	 3.026684	 -1.480619	 0.822123	 0.330015	 -0.660167	 0.600368	 -0.307942	 7
1462501577.543	 8	 -0.053849	 -0.005966	 -0.076705	 3.036664	 -1.480166	 0.832167	 0.330388	 -0.660188	 0.600314	 -0.307603	 7
1462501577.553	 8	 -0.047394	 -0.015380	 -0.052336	 3.043311	 -1.479742	 0.838969	 0.330689	 -0.660219	 0.600220	 -0.307394	 7
1462501577.563	 8	 -0.031392	 -0.037626	 -0.032410	 3.032964	 -1.480349	 0.829019	 0.330437	 -0.660081	 0.600250	 -0.307903	 7
1462501577.573	 8	 -0.014299	 -0.051351	 -0.011372	 3.034519	 -1.480182	 0.831069	 0.330667	 -0.660034	 0.600133	 -0.307983	 7
1462501577.583	 8	 0.000633	 -0.067227	 0.005403	 3.033798	 -1.480150	 0.830972	 0.330855	 -0.659950	 0.600018	 -0.308188	 7
1462501577.593	 8	 0.010214	 -0.087334	 0.023250	 3.030910	 -1.480205	 0.828906	 0.331033	 -0.659829	 0.599878	 -0.308529	 7
1462501577.603	 8	 0.016680	 -0.096770	 0.045502	 3.015552	 -1.481264	 0.814527	 0.330776	 -0.659499	 0.599924	 -0.309418	 7
1462501577.623	 9	 0.035119	 -0.062540	 0.079764	 2.997657	 -1.481621	 0.798132	 0.330698	 -0.659323	 0.599630	 -0.310445	 7
1462501577.633	 9	 0.049106	 -0.046557	 0.089383	 2.986788	 -1.481940	 0.787730	 0.330494	 -0.659252	 0.599560	 -0.310947	 7
1462501577.643	 9	 0.070528	 -0.042284	 0.100963	 2.971226	 -1.483075	 0.772560	 0.330047	 -0.658968	 0.599749	 -0.311657	 7
1462501577.653	 9	 0.097222	 -0.043389	 0.106049	 2.957160	 -1.483789	 0.758865	 0.329686	 -0.658802	 0.599817	 -0.312262	 7
1462501577.663	 9	 0.106808	 -0.045561	 0.103814	 2.942547	 -1.484616	 0.744654	 0.329313	 -0.658589	 0.599922	 -0.312899	 7
1462501577.673	 9	 0.103541	 -0.038095	 0.095216	 2.928627	 -1.485447	 0.731087	 0.328951	 -0.658370	 0.600051	 -0.313495	 7
1462501577.683	 9	 0.091772	 -0.042329	 0.093148	 2.915368	 -1.485997	 0.718186	 0.328638	 -0.658230	 0.600090	 -0.314041	 7
1462501577.693	 9	 0.076753	 -0.056136	 0.089953	 2.902200	 -1.486570	 0.705496	 0.328369	 -0.658056	 0.600126	 -0.314619	 7
1462501577.703	 9	 0.061691	 -0.072131	 0.078212	 2.890251	 -1.487007	 0.694192	 0.328204	 -0.657885	 0.600101	 -0.315195	 7
1462501577.713	 9	 0.048774	 -0.083893	 0.064360	 2.880072	 -1.487339	 0.684791	 0.328143	 -0.657712	 0.600032	 -0.315750	 7
1462501577.723	 9	 0.039103	 -0.093485	 0.057962	 2.868965	 -1.487826	 0.674577	 0.328085	 -0.657470	 0.599999	 -0.316376	 7
1462501577.733	 9	 0.039086	 -0.093516	 0.053699	 2.860559	 -1.488045	 0.667081	 0.328128	 -0.657297	 0.599886	 -0.316907	 7
1462501577.743	 9	 0.045532	 -0.087130	 0.056899	 2.851683	 -1.488315	 0.659075	 0.328144	 -0.657112	 0.599796	 -0.317442	 7
1462501577.753	 9	 0.056308	 -0.069057	 0.060172	 2.839843	 -1.489046	 0.647952	 0.328000	 -0.656811	 0.599885	 -0.318046	 7
1462501577.763	 9	 0.068161	 -0.048861	 0.063456	 2.827121	 -1.489789	 0.635743	 0.327769	 -0.656538	 0.600011	 -0.318610	 7
1462501577.773	 9	 0.083175	 -0.038231	 0.068755	 2.813723	 -1.490483	 0.622714	 0.327480	 -0.656303	 0.600144	 -0.319140	 7
1462501577.783	 9	 0.098153	 -0.031878	 0.070815	 2.801851	 -1.491086	 0.611141	 0.327219	 -0.656098	 0.600268	 -0.319596	 7
1462501577.793	 9	 0.106733	 -0.026546	 0.076116	 2.790760	 -1.491630	 0.600280	 0.326964	 -0.655917	 0.600388	 -0.320002	 7
1462501577.803	 9	 0.107816	 -0.017013	 0.070863	 2.781969	 -1.491981	 0.591634	 0.326756	 -0.655804	 0.600462	 -0.320307	 7
1462501577.813	 9	 0.102488	 0.003075	 0.051909	 2.776344	 -1.492127	 0.585978	 0.326585	 -0.655778	 0.600503	 -0.320459	 7
1462501577.823	 9	 0.078971	 0.010477	 0.036193	 2.773281	 -1.492114	 0.582771	 0.326454	 -0.655815	 0.600512	 -0.320501	 7
1462501577.833	 9	 0.049019	 -0.002196	 0.036333	 2.771950	 -1.491841	 0.581387	 0.326408	 -0.655920	 0.600417	 -0.320510	 7
1462501577.843	 9	 0.021208	 -0.011700	 0.034352	 2.771910	 -1.491371	 0.581409	 0.326442	 -0.656069	 0.600236	 -0.320509	 7
1462501577.853	 9	 0.005141	 -0.018071	 0.029100	 2.772935	 -1.490911	 0.582571	 0.326529	 -0.656200	 0.600050	 -0.320501	 7
1462501577.863	 9	 -0.005559	 -0.021244	 0.027028	 2.773790	 -1.490556	 0.583609	 0.326625	 -0.656287	 0.599894	 -0.320516	 7
1462501577.873	 9	 -0.005588	 -0.022346	 0.021685	 2.774157	 -1.490349	 0.584176	 0.326707	 -0.656324	 0.599788	 -0.320556	 7
1462501577.883	 9	 0.001820	 -0.026692	 0.011986	 2.775007	 -1.490188	 0.585258	 0.326812	 -0.656338	 0.599695	 -0.320594	 7
1462501577.893	 9	 -0.002535	 -0.035265	 0.001284	 2.776938	 -1.489983	 0.587509	 0.326979	 -0.656349	 0.599575	 -0.320627	 7
1462501577.903	 9	 -0.017533	 -0.038480	 -0.008209	 2.780141	 -1.489669	 0.591094	 0.327206	 -0.656382	 0.599410	 -0.320635	 7
1462501577.913	 9	 -0.030326	 -0.031034	 -0.013358	 2.783554	 -1.489400	 0.594838	 0.327421	 -0.656408	 0.599270	 -0.320624	 7
1462501577.923	 9	 -0.029265	 -0.027885	 -0.018668	 2.787453	 -1.489235	 0.599023	 0.327633	 -0.656403	 0.599178	 -0.320591	 7
1462501577.933	 9	 -0.031420	 -0.023701	 -0.029270	 2.792603	 -1.489154	 0.604432	 0.327868	 -0.656369	 0.599126	 -0.320516	 7
1462501577.943	 9	 -0.042121	 -0.019507	 -0.041929	 2.799259	 -1.489025	 0.611311	 0.328137	 -0.656351	 0.599068	 -0.320386	 7
1462501577.953	 9	 -0.055979	 -0.013114	 -0.046013	 2.806762	 -1.488833	 0.618984	 0.328416	 -0.656358	 0.599001	 -0.320211	 7
1462501577.963	 9	 -0.057020	 -0.006745	 -0.048075	 2.812904	 -1.488631	 0.625246	 0.328640	 -0.656381	 0.598934	 -0.320059	 7
1462501577.973	 9	 -0.041049	 -0.010031	 -0.054637	 2.817898	 -1.488604	 0.630365	 0.328826	 -0.656347	 0.598926	 -0.319952	 7
1462501577.983	 9	 -0.021853	 -0.015393	 -0.052718	 2.820981	 -1.488735	 0.633629	 0.328968	 -0.656260	 0.598959	 -0.319926	 7
1462501577.993	 9	 -0.008989	 -0.016388	 -0.037913	 2.821430	 -1.488863	 0.634271	 0.329037	 -0.656183	 0.598976	 -0.319978	 7
1462501578.003	 9	 -0.009953	 -0.013040	 -0.016552	 2.819451	 -1.488876	 0.632454	 0.329033	 -0.656161	 0.598946	 -0.320084	 7
1462501578.013	 9	 -0.006677	 -0.015032	 0.003655	 2.815716	 -1.488895	 0.628874	 0.328976	 -0.656145	 0.598911	 -0.320239	 7
1462501578.023	 9	 0.003971	 -0.027767	 0.011973	 2.811518	 -1.489011	 0.624910	 0.328928	 -0.656086	 0.598898	 -0.320436	 7
1462501578.033	 9	 0.023134	 -0.031077	 0.003251	 2.807550	 -1.489327	 0.621255	 0.328903	 -0.655945	 0.598946	 -0.320661	 7
1462501578.043	 9	 0.033801	 -0.021630	 -0.009539	 2.804075	 -1.489697	 0.618029	 0.328870	 -0.655793	 0.599026	 -0.320855	 7
1462501578.053	 9	 0.027438	 -0.015214	 -0.007286	 2.799316	 -1.489886	 0.613447	 0.328785	 -0.655719	 0.599047	 -0.321054	 7
1462501578.063	 9	 0.016838	 -0.010836	 0.005644	 2.793106	 -1.489893	 0.607370	 0.328652	 -0.655718	 0.599005	 -0.321270	 7
1462501578.073	 9	 0.008378	 -0.005400	 0.018563	 2.786863	 -1.489875	 0.601207	 0.328502	 -0.655734	 0.598963	 -0.321470	 7
1462501578.083	 9	 0.004129	 -0.018013	 0.037669	 2.779731	 -1.489929	 0.594210	 0.328342	 -0.655718	 0.598937	 -0.321716	 7
1462501578.093	 9	 0.009438	 -0.037068	 0.052365	 2.773049	 -1.490148	 0.587838	 0.328247	 -0.655614	 0.598945	 -0.322008	 7
1462501578.103	 9	 0.016904	 -0.043433	 0.057565	 2.766874	 -1.490428	 0.582057	 0.328193	 -0.655473	 0.598964	 -0.322313	 7
1462501578.113	 9	 0.020078	 -0.044553	 0.051128	 2.761155	 -1.490744	 0.576750	 0.328157	 -0.655315	 0.598997	 -0.322611	 7
1462501578.123	 9	 0.018966	 -0.045690	 0.040465	 2.757147	 -1.490997	 0.573178	 0.328180	 -0.655169	 0.599008	 -0.322864	 7
1462501578.133	 9	 0.023213	 -0.043637	 0.031917	 2.753905	 -1.491337	 0.570343	 0.328214	 -0.654995	 0.599058	 -0.323091	 7
1462501578.143	 9	 0.030658	 -0.040545	 0.021219	 2.751429	 -1.491726	 0.568269	 0.328266	 -0.654803	 0.599128	 -0.323295	 7
1462501578.153	 9	 0.033907	 -0.018326	 0.006473	 2.750381	 -1.492124	 0.567452	 0.328303	 -0.654633	 0.599233	 -0.323409	 7
1462501578.163	 9	 0.036089	 0.000737	 -0.004028	 2.749946	 -1.492490	 0.567050	 0.328293	 -0.654504	 0.599360	 -0.323444	 7
1462501578.173	 9	 0.038334	 0.025187	 -0.004885	 2.748984	 -1.492727	 0.565896	 0.328198	 -0.654458	 0.599475	 -0.323422	 7
1462501578.183	 9	 0.044830	 0.043266	 -0.002639	 2.746546	 -1.493011	 0.563072	 0.327998	 -0.654430	 0.599635	 -0.323383	 7
1462501578.193	 9	 0.055581	 0.057092	 0.001661	 2.743950	 -1.493298	 0.559925	 0.327740	 -0.654428	 0.599823	 -0.323299	 7
1462501578.203	 9	 0.058818	 0.061376	 0.007003	 2.741265	 -1.493481	 0.556615	 0.327458	 -0.654475	 0.599985	 -0.323191	 7
1462501578.213	 9	 0.044917	 0.056107	 0.008141	 2.739872	 -1.493537	 0.554625	 0.327224	 -0.654556	 0.600098	 -0.323052	 7
1462501578.223	 9	 0.017090	 0.040236	 0.008234	 2.740926	 -1.493424	 0.555214	 0.327103	 -0.654668	 0.600135	 -0.322880	 7
1462501578.233	 9	 -0.005466	 0.018961	 -0.001363	 2.745064	 -1.493179	 0.559098	 0.327137	 -0.654784	 0.600096	 -0.322682	 7
1462501578.243	 9	 -0.024842	 -0.007642	 -0.011037	 2.750334	 -1.492950	 0.564387	 0.327294	 -0.654847	 0.600021	 -0.322536	 7
1462501578.253	 9	 -0.036676	 -0.025705	 -0.013238	 2.755774	 -1.492756	 0.570055	 0.327522	 -0.654862	 0.599927	 -0.322447	 7
1462501578.263	 9	 -0.036705	 -0.027870	 -0.018589	 2.760458	 -1.492646	 0.575030	 0.327749	 -0.654839	 0.599852	 -0.322402	 7
1462501578.273	 9	 -0.027088	 -0.016284	 -0.030291	 2.765743	 -1.492746	 0.580510	 0.327956	 -0.654759	 0.599872	 -0.322319	 7
1462501578.283	 9	 -0.014252	 -0.004676	 -0.037756	 2.770336	 -1.492942	 0.585200	 0.328107	 -0.654663	 0.599941	 -0.322231	 7
1462501578.293	 9	 -0.006717	 0.002793	 -0.031357	 2.773355	 -1.493214	 0.588224	 0.328182	 -0.654562	 0.600048	 -0.322162	 7
1462501578.303	 9	 0.001894	 0.011331	 -0.023891	 2.774496	 -1.493466	 0.589293	 0.328182	 -0.654485	 0.600154	 -0.322121	 7
1462501578.313	 9	 0.011521	 0.014500	 -0.022880	 2.776223	 -1.493810	 0.590884	 0.328173	 -0.654385	 0.600306	 -0.322049	 7
1462501578.323	 9	 0.015782	 0.012360	 -0.022938	 2.778433	 -1.494173	 0.592971	 0.328180	 -0.654275	 0.600465	 -0.321969	 7
1462501578.333	 9	 0.021107	 0.012321	 -0.026183	 2.781128	 -1.494567	 0.595554	 0.328202	 -0.654152	 0.600634	 -0.321882	 7
1462501578.343	 9	 0.029669	 0.021830	 -0.031498	 2.783695	 -1.494971	 0.597936	 0.328195	 -0.654037	 0.600819	 -0.321777	 7
1462501578.353	 9	 0.035080	 0.038825	 -0.032451	 2.785513	 -1.495297	 0.599418	 0.328122	 -0.653975	 0.600997	 -0.321644	 7
1462501578.363	 9	 0.041561	 0.056880	 -0.033401	 2.786316	 -1.495536	 0.599712	 0.327968	 -0.653976	 0.601168	 -0.321482	 7
1462501578.373	 9	 0.040531	 0.062232	 -0.029074	 2.786609	 -1.495678	 0.599406	 0.327774	 -0.654025	 0.601316	 -0.321300	 7
1462501578.383	 9	 0.026663	 0.054912	 -0.017292	 2.786559	 -1.495576	 0.598784	 0.327590	 -0.654153	 0.601371	 -0.321125	 7
1462501578.393	 9	 0.010575	 0.029517	 -0.005662	 2.786924	 -1.495393	 0.598798	 0.327491	 -0.654271	 0.601363	 -0.321001	 7
1462501578.403	 9	 -0.003408	 0.001950	 0.000597	 2.787944	 -1.495209	 0.599731	 0.327497	 -0.654345	 0.601313	 -0.320939	 7
1462501578.413	 9	 -0.008878	 -0.026745	 0.001442	 2.789828	 -1.495067	 0.601804	 0.327614	 -0.654355	 0.601238	 -0.320938	 7
1462501578.423	 9	 -0.002545	 -0.041656	 0.001245	 2.791315	 -1.495095	 0.603676	 0.327778	 -0.654278	 0.601191	 -0.321016	 7
1462501578.433	 9	 0.007042	 -0.037499	 -0.008395	 2.793065	 -1.495302	 0.605819	 0.327945	 -0.654138	 0.601209	 -0.321098	 7
1462501578.443	 9	 0.006026	 -0.021587	 -0.014635	 2.795411	 -1.495491	 0.608430	 0.328086	 -0.654022	 0.601243	 -0.321126	 7
1462501578.453	 9	 -0.003514	 -0.009843	 -0.012310	 2.796437	 -1.495483	 0.609587	 0.328157	 -0.654000	 0.601223	 -0.321138	 7
1462501578.463	 9	 -0.013068	 -0.004450	 -0.005779	 2.795832	 -1.495336	 0.609053	 0.328169	 -0.654040	 0.601156	 -0.321167	 7
1462501578.473	 9	 -0.008742	 0.000910	 0.001695	 2.794772	 -1.495328	 0.607994	 0.328142	 -0.654046	 0.601149	 -0.321195	 7
1462501578.483	 9	 0.007293	 0.000900	 0.006884	 2.792775	 -1.495632	 0.605995	 0.328077	 -0.653951	 0.601252	 -0.321263	 7
1462501578.493	 9	 0.027617	 0.007244	 0.009962	 2.789947	 -1.496124	 0.603095	 0.327960	 -0.653805	 0.601433	 -0.321341	 7
1462501578.503	 9	 0.041493	 0.004035	 0.013009	 2.785105	 -1.496718	 0.598197	 0.327793	 -0.653629	 0.601641	 -0.321480	 7
1462501578.513	 9	 0.050047	 0.005088	 0.015076	 2.779987	 -1.497284	 0.593036	 0.327626	 -0.653459	 0.601837	 -0.321626	 7
1462501578.523	 9	 0.058643	 0.020986	 0.010886	 2.776124	 -1.497759	 0.588994	 0.327452	 -0.653339	 0.602027	 -0.321693	 7
1462501578.533	 9	 0.052309	 0.035897	 0.011082	 2.771626	 -1.498086	 0.584165	 0.327218	 -0.653294	 0.602186	 -0.321724	 7
1462501578.543	 9	 0.040623	 0.042360	 0.017643	 2.765925	 -1.498213	 0.578045	 0.326932	 -0.653335	 0.602285	 -0.321749	 7
1462501578.553	 9	 0.037464	 0.047726	 0.023055	 2.758657	 -1.498175	 0.570306	 0.326593	 -0.653443	 0.602328	 -0.321791	 7
1462501578.563	 9	 0.037461	 0.047726	 0.023061	 2.751569	 -1.498152	 0.562730	 0.326253	 -0.653547	 0.602382	 -0.321824	 7
1462501578.573	 9	 0.027820	 0.038204	 0.026259	 2.744295	 -1.498069	 0.555042	 0.325934	 -0.653658	 0.602403	 -0.321883	 7
1462501578.583	 9	 0.020228	 0.026618	 0.028225	 2.737171	 -1.497969	 0.547610	 0.325652	 -0.653756	 0.602403	 -0.321969	 7
1462501578.593	 9	 0.013756	 0.013858	 0.026034	 2.731374	 -1.497912	 0.541646	 0.325450	 -0.653813	 0.602398	 -0.322067	 7
1462501578.603	 9	 0.016891	 0.003180	 0.021646	 2.726008	 -1.498016	 0.536217	 0.325290	 -0.653797	 0.602438	 -0.322188	 7
1462501578.613	 9	 0.026489	 0.003136	 0.019431	 2.721097	 -1.498270	 0.531284	 0.325153	 -0.653721	 0.602527	 -0.322314	 7
1462501578.623	 9	 0.038285	 0.014801	 0.019438	 2.714837	 -1.498581	 0.524895	 0.324947	 -0.653644	 0.602652	 -0.322443	 7
1462501578.633	 9	 0.053281	 0.025400	 0.020475	 2.706450	 -1.498983	 0.516281	 0.324655	 -0.653553	 0.602826	 -0.322596	 7
1462501578.643	 9	 0.066169	 0.047651	 0.014181	 2.696287	 -1.499382	 0.505686	 0.324255	 -0.653496	 0.603032	 -0.322731	 7
1462501578.653	 9	 0.065157	 0.065682	 0.006906	 2.685607	 -1.499661	 0.494395	 0.323785	 -0.653506	 0.603225	 -0.322819	 7
1462501578.663	 9	 0.061986	 0.076297	 0.002779	 2.675401	 -1.499777	 0.483448	 0.323287	 -0.653590	 0.603384	 -0.322854	 7
1462501578.673	 9	 0.063060	 0.078420	 0.002802	 2.664107	 -1.499822	 0.471379	 0.322750	 -0.653700	 0.603525	 -0.322903	 7
1462501578.683	 9	 0.061998	 0.072110	 0.012355	 2.652342	 -1.499836	 0.458872	 0.322212	 -0.653812	 0.603652	 -0.322974	 7
1462501578.693	 9	 0.053445	 0.048911	 0.036737	 2.638614	 -1.499752	 0.444589	 0.321686	 -0.653923	 0.603719	 -0.323152	 7
1462501578.703	 9	 0.040655	 0.022620	 0.072848	 2.622877	 -1.499416	 0.428550	 0.321185	 -0.654072	 0.603660	 -0.323459	 7
1462501578.713	 9	 0.033204	 0.003697	 0.100451	 2.606589	 -1.499049	 0.412148	 0.320727	 -0.654193	 0.603567	 -0.323841	 7
1462501578.723	 9	 0.035324	 -0.010045	 0.113093	 2.591207	 -1.498819	 0.396793	 0.320339	 -0.654240	 0.603506	 -0.324243	 7
1462501578.733	 9	 0.050046	 -0.029094	 0.117026	 2.576422	 -1.498782	 0.382190	 0.320022	 -0.654192	 0.603494	 -0.324674	 7
1462501578.743	 9	 0.058510	 -0.041907	 0.113631	 2.561653	 -1.498882	 0.367764	 0.319765	 -0.654066	 0.603512	 -0.325148	 7
1462501578.753	 9	 0.060607	 -0.052526	 0.116701	 2.550641	 -1.499143	 0.357190	 0.319642	 -0.653876	 0.603566	 -0.325549	 7
1462501578.763	 9	 0.059521	 -0.059937	 0.120900	 2.535536	 -1.499157	 0.342601	 0.319432	 -0.653742	 0.603535	 -0.326084	 7
1462501578.773	 9	 0.057390	 -0.054651	 0.115633	 2.521575	 -1.499123	 0.329154	 0.319248	 -0.653622	 0.603487	 -0.326591	 7
1462501578.783	 9	 0.057468	 -0.036584	 0.113669	 2.503719	 -1.498915	 0.311678	 0.318912	 -0.653563	 0.603420	 -0.327163	 7
1462501578.793	 9	 0.059627	 -0.026000	 0.107354	 2.486430	 -1.498723	 0.294626	 0.318543	 -0.653514	 0.603387	 -0.327678	 7
1462501578.803	 9	 0.072373	 -0.025090	 0.091265	 2.469899	 -1.498675	 0.278308	 0.318195	 -0.653417	 0.603414	 -0.328160	 7
1462501578.813	 9	 0.077647	 -0.020998	 0.071002	 2.459986	 -1.499005	 0.268574	 0.318032	 -0.653228	 0.603553	 -0.328439	 7
1462501578.823	 9	 0.074461	 -0.006198	 0.057312	 2.446712	 -1.499212	 0.255371	 0.317743	 -0.653077	 0.603687	 -0.328775	 7
1462501578.833	 9	 0.069148	 0.006513	 0.047885	 2.435051	 -1.499438	 0.243646	 0.317454	 -0.652945	 0.603843	 -0.329026	 7
1462501578.843	 9	 0.068124	 0.018193	 0.044805	 2.424220	 -1.499653	 0.232627	 0.317147	 -0.652840	 0.604015	 -0.329218	 7
1462501578.853	 9	 0.064969	 0.028840	 0.044931	 2.415975	 -1.499696	 0.224082	 0.316852	 -0.652823	 0.604130	 -0.329325	 7
1462501578.863	 9	 0.056459	 0.035247	 0.045064	 2.409298	 -1.499696	 0.217040	 0.316570	 -0.652838	 0.604232	 -0.329377	 7
1462501578.873	 9	 0.051140	 0.034246	 0.051494	 2.402282	 -1.499641	 0.209638	 0.316269	 -0.652872	 0.604322	 -0.329436	 7
1462501578.883	 9	 0.044708	 0.022619	 0.058900	 2.396416	 -1.499542	 0.203494	 0.316025	 -0.652910	 0.604372	 -0.329503	 7
1462501578.893	 9	 0.043391	 0.010074	 0.068391	 2.390814	 -1.499482	 0.197730	 0.315831	 -0.652917	 0.604416	 -0.329595	 7
1462501578.903	 9	 0.039051	 -0.007964	 0.072518	 2.385663	 -1.499455	 0.192572	 0.315701	 -0.652891	 0.604443	 -0.329720	 7
1462501578.913	 9	 0.037913	 -0.019683	 0.069215	 2.382134	 -1.499446	 0.189171	 0.315656	 -0.652848	 0.604444	 -0.329845	 7
1462501578.923	 9	 0.030389	 -0.025025	 0.062829	 2.379236	 -1.499442	 0.186464	 0.315648	 -0.652799	 0.604431	 -0.329974	 7
1462501578.933	 9	 0.019668	 -0.026133	 0.052248	 2.377730	 -1.499422	 0.185194	 0.315687	 -0.652757	 0.604396	 -0.330083	 7
1462501578.943	 9	 0.005788	 -0.022939	 0.047063	 2.377319	 -1.499446	 0.184994	 0.315748	 -0.652713	 0.604373	 -0.330154	 7
1462501578.953	 9	 -0.002720	 -0.012315	 0.041901	 2.376972	 -1.499465	 0.184770	 0.315782	 -0.652685	 0.604362	 -0.330198	 7
1462501578.963	 9	 -0.006980	 -0.010182	 0.040886	 2.375873	 -1.499549	 0.183758	 0.315792	 -0.652636	 0.604385	 -0.330243	 7
1462501578.973	 9	 -0.001659	 -0.017613	 0.045028	 2.372843	 -1.499743	 0.180864	 0.315785	 -0.652529	 0.604452	 -0.330338	 7
1462501578.983	 9	 0.009000	 -0.024003	 0.048067	 2.368167	 -1.500050	 0.176396	 0.315774	 -0.652362	 0.604559	 -0.330483	 7
1462501578.993	 9	 0.033536	 -0.030427	 0.052049	 2.361198	 -1.500513	 0.169692	 0.315746	 -0.652117	 0.604728	 -0.330684	 7
1462501579.003	 9	 0.054844	 -0.036888	 0.049665	 2.352507	 -1.501092	 0.161320	 0.315710	 -0.651813	 0.604942	 -0.330925	 7
1462501579.013	 9	 0.065437	 -0.048667	 0.043062	 2.344055	 -1.501710	 0.153288	 0.315722	 -0.651481	 0.605152	 -0.331185	 7
1462501579.023	 9	 0.067544	 -0.045559	 0.032409	 2.337497	 -1.502260	 0.147165	 0.315778	 -0.651183	 0.605320	 -0.331409	 7
1462501579.033	 9	 0.060082	 -0.032865	 0.019796	 2.333957	 -1.502772	 0.143956	 0.315867	 -0.650937	 0.605470	 -0.331534	 7
1462501579.043	 9	 0.047279	 -0.015946	 0.000877	 2.332275	 -1.503230	 0.142458	 0.315944	 -0.650747	 0.605610	 -0.331577	 7
1462501579.053	 9	 0.016385	 0.000063	 -0.004035	 2.332492	 -1.503446	 0.142695	 0.315981	 -0.650676	 0.605680	 -0.331555	 7
1462501579.063	 9	 -0.009186	 0.002321	 0.003667	 2.333830	 -1.503499	 0.144003	 0.316008	 -0.650674	 0.605693	 -0.331510	 7
1462501579.073	 9	 -0.012568	 -0.010250	 0.008962	 2.333289	 -1.503622	 0.143537	 0.316035	 -0.650618	 0.605727	 -0.331531	 7
1462501579.083	 9	 0.001263	 -0.019865	 0.008749	 2.331611	 -1.503929	 0.142048	 0.316096	 -0.650476	 0.605814	 -0.331592	 7
1462501579.093	 9	 0.014082	 -0.013559	 0.003364	 2.329279	 -1.504379	 0.139869	 0.316148	 -0.650288	 0.605962	 -0.331640	 7
1462501579.103	 9	 0.027960	 -0.004105	 -0.007330	 2.327474	 -1.504899	 0.138119	 0.316190	 -0.650098	 0.606146	 -0.331639	 7
1462501579.113	 9	 0.039694	 -0.000988	 -0.012733	 2.323810	 -1.505443	 0.134461	 0.316179	 -0.649893	 0.606360	 -0.331660	 7
1462501579.123	 9	 0.047172	 0.008493	 -0.022303	 2.321027	 -1.505981	 0.131602	 0.316161	 -0.649710	 0.606579	 -0.331636	 7
1462501579.133	 9	 0.041882	 0.019138	 -0.023224	 2.319838	 -1.506454	 0.130229	 0.316135	 -0.649577	 0.606780	 -0.331551	 7
1462501579.143	 9	 0.030183	 0.029795	 -0.025154	 2.320343	 -1.506694	 0.130457	 0.316085	 -0.649547	 0.606904	 -0.331429	 7
1462501579.153	 9	 0.014167	 0.039323	 -0.037714	 2.324006	 -1.506841	 0.133747	 0.316061	 -0.649587	 0.606989	 -0.331221	 7
1462501579.163	 9	 -0.007213	 0.039325	 -0.046053	 2.330727	 -1.506912	 0.140071	 0.316084	 -0.649677	 0.607028	 -0.330950	 7
1462501579.173	 9	 -0.028624	 0.024505	 -0.044936	 2.337857	 -1.506837	 0.146931	 0.316139	 -0.649797	 0.606995	 -0.330723	 7
1462501579.183	 9	 -0.039349	 0.009676	 -0.040716	 2.345153	 -1.506770	 0.154119	 0.316252	 -0.649888	 0.606937	 -0.330541	 7
1462501579.193	 9	 -0.047942	 -0.004111	 -0.038637	 2.352893	 -1.506760	 0.161885	 0.316426	 -0.649942	 0.606874	 -0.330384	 7
1462501579.203	 9	 -0.050113	 -0.012614	 -0.038698	 2.360296	 -1.506883	 0.169419	 0.316642	 -0.649932	 0.606844	 -0.330251	 7
1462501579.213	 9	 -0.040563	 -0.023295	 -0.041011	 2.364433	 -1.507105	 0.173785	 0.316830	 -0.649851	 0.606856	 -0.330210	 7
1462501579.223	 9	 -0.024612	 -0.030835	 -0.047613	 2.367063	 -1.507417	 0.176730	 0.317023	 -0.649716	 0.606895	 -0.330218	 7
1462501579.233	 9	 -0.017129	 -0.029786	 -0.046600	 2.368256	 -1.507696	 0.178264	 0.317190	 -0.649579	 0.606927	 -0.330268	 7
1462501579.243	 9	 -0.010662	 -0.017042	 -0.046535	 2.368505	 -1.507929	 0.178746	 0.317296	 -0.649467	 0.606968	 -0.330311	 7
1462501579.253	 9	 -0.002036	 0.001015	 -0.046438	 2.368730	 -1.508166	 0.179030	 0.317346	 -0.649381	 0.607040	 -0.330301	 7
1462501579.263	 9	 -0.007282	 0.015953	 -0.041987	 2.369495	 -1.508322	 0.179683	 0.317343	 -0.649353	 0.607107	 -0.330235	 7
1462501579.273	 9	 -0.007202	 0.023475	 -0.031256	 2.369317	 -1.508409	 0.179301	 0.317282	 -0.649355	 0.607173	 -0.330168	 7
1462501579.283	 9	 0.000276	 0.018188	 -0.023907	 2.367614	 -1.508633	 0.177406	 0.317208	 -0.649301	 0.607293	 -0.330124	 7
1462501579.293	 9	 0.014067	 0.002176	 -0.026307	 2.366228	 -1.509008	 0.175970	 0.317204	 -0.649177	 0.607441	 -0.330101	 7
1462501579.303	 9	 0.019347	 -0.007436	 -0.029639	 2.364304	 -1.509441	 0.174108	 0.317231	 -0.649013	 0.607593	 -0.330116	 7
1462501579.313	 9	 0.018275	 -0.004281	 -0.034928	 2.364006	 -1.509804	 0.173875	 0.317286	 -0.648882	 0.607710	 -0.330106	 7
1462501579.323	 9	 0.007588	 -0.003224	 -0.040152	 2.365210	 -1.510060	 0.175116	 0.317351	 -0.648800	 0.607785	 -0.330067	 7
1462501579.333	 9	 -0.003079	 -0.004240	 -0.037935	 2.366665	 -1.510234	 0.176622	 0.317417	 -0.648744	 0.607828	 -0.330035	 7
1462501579.343	 9	 -0.005193	 -0.008419	 -0.028360	 2.366701	 -1.510376	 0.176753	 0.317463	 -0.648683	 0.607861	 -0.330049	 7
1462501579.353	 9	 0.000148	 -0.009484	 -0.026284	 2.366258	 -1.510582	 0.176413	 0.317510	 -0.648596	 0.607919	 -0.330069	 7
1462501579.363	 9	 0.010797	 -0.015890	 -0.025369	 2.364743	 -1.510946	 0.175051	 0.317569	 -0.648443	 0.608029	 -0.330110	 7
1462501579.373	 9	 0.017231	 -0.011639	 -0.023254	 2.362985	 -1.511344	 0.173432	 0.317622	 -0.648279	 0.608156	 -0.330148	 7
1462501579.383	 9	 0.019418	 -0.006281	 -0.016828	 2.360307	 -1.511648	 0.170837	 0.317629	 -0.648149	 0.608264	 -0.330196	 7
1462501579.393	 9	 0.017325	 -0.003038	 -0.010384	 2.357967	 -1.511851	 0.168540	 0.317619	 -0.648061	 0.608342	 -0.330235	 7
1462501579.403	 9	 0.014139	 -0.006165	 -0.002924	 2.355088	 -1.512024	 0.165703	 0.317595	 -0.647980	 0.608413	 -0.330287	 7
1462501579.413	 9	 0.020518	 -0.013615	 -0.000918	 2.351354	 -1.512318	 0.162082	 0.317592	 -0.647842	 0.608520	 -0.330365	 7
1462501579.423	 9	 0.031172	 -0.021062	 0.003181	 2.347269	 -1.512698	 0.158187	 0.317616	 -0.647661	 0.608646	 -0.330462	 7
1462501579.433	 9	 0.037593	 -0.015778	 0.001041	 2.343883	 -1.513095	 0.154973	 0.317653	 -0.647482	 0.608776	 -0.330538	 7
1462501579.443	 9	 0.036621	 0.003379	 0.002292	 2.340911	 -1.513428	 0.152011	 0.317637	 -0.647353	 0.608908	 -0.330563	 7
1462501579.453	 9	 0.031369	 0.019365	 0.004617	 2.338087	 -1.513627	 0.149021	 0.317553	 -0.647297	 0.609022	 -0.330545	 7
1462501579.463	 9	 0.032520	 0.036389	 0.005830	 2.335670	 -1.513812	 0.146271	 0.317421	 -0.647273	 0.609156	 -0.330469	 7
1462501579.473	 9	 0.034683	 0.042764	 0.005869	 2.333422	 -1.513959	 0.143595	 0.317257	 -0.647279	 0.609292	 -0.330365	 7
1462501579.483	 9	 0.038971	 0.049118	 0.003760	 2.330311	 -1.514110	 0.140012	 0.317064	 -0.647284	 0.609442	 -0.330264	 7
1462501579.493	 9	 0.036897	 0.060840	 0.006018	 2.328691	 -1.514131	 0.137802	 0.316844	 -0.647360	 0.609558	 -0.330112	 7
1462501579.503	 9	 0.031607	 0.070437	 0.007220	 2.328217	 -1.514049	 0.136625	 0.316598	 -0.647495	 0.609649	 -0.329916	 7
1462501579.513	 9	 0.018799	 0.068371	 0.010511	 2.328248	 -1.513805	 0.135961	 0.316344	 -0.647684	 0.609680	 -0.329731	 7
1462501579.523	 9	 0.005940	 0.055669	 0.013703	 2.329260	 -1.513484	 0.136374	 0.316130	 -0.647890	 0.609661	 -0.329566	 7
1462501579.533	 9	 -0.002646	 0.040849	 0.020035	 2.330694	 -1.513118	 0.137349	 0.315964	 -0.648090	 0.609602	 -0.329440	 7
1462501579.543	 9	 -0.004850	 0.023860	 0.023092	 2.331305	 -1.512886	 0.137671	 0.315854	 -0.648216	 0.609566	 -0.329366	 7
1462501579.553	 9	 0.002582	 0.015336	 0.024013	 2.331586	 -1.512732	 0.137779	 0.315785	 -0.648295	 0.609540	 -0.329325	 7
1462501579.563	 9	 0.006827	 0.010013	 0.024989	 2.331910	 -1.512630	 0.137985	 0.315741	 -0.648349	 0.609522	 -0.329294	 7
1462501579.573	 9	 -0.000660	 0.006845	 0.025023	 2.332772	 -1.512470	 0.138756	 0.315708	 -0.648421	 0.609477	 -0.329267	 7
1462501579.583	 9	 -0.014517	 0.014301	 0.020948	 2.336235	 -1.512213	 0.142092	 0.315704	 -0.648548	 0.609386	 -0.329189	 7
1462501579.593	 9	 -0.019868	 0.019566	 0.011449	 2.341210	 -1.511986	 0.146882	 0.315714	 -0.648684	 0.609305	 -0.329060	 7
1462501579.603	 9	 -0.020978	 0.016332	 0.005032	 2.346448	 -1.511810	 0.151937	 0.315738	 -0.648805	 0.609240	 -0.328920	 7
1462501579.613	 9	 -0.015657	 0.015237	 0.002842	 2.350484	 -1.511750	 0.155820	 0.315761	 -0.648875	 0.609218	 -0.328800	 7
1462501579.623	 9	 -0.011398	 0.013097	 0.002783	 2.353461	 -1.511765	 0.158670	 0.315781	 -0.648910	 0.609224	 -0.328700	 7
1462501579.633	 9	 -0.010323	 0.014165	 0.003848	 2.356793	 -1.511729	 0.161868	 0.315799	 -0.648964	 0.609212	 -0.328597	 7
1462501579.643	 9	 -0.013545	 0.009920	 0.003834	 2.360369	 -1.511674	 0.165326	 0.315826	 -0.649024	 0.609190	 -0.328496	 7
1462501579.653	 9	 -0.015709	 0.004601	 0.002735	 2.364610	 -1.511668	 0.169503	 0.315889	 -0.649062	 0.609172	 -0.328392	 7
1462501579.663	 9	 -0.011516	 -0.003983	 -0.005910	 2.368520	 -1.511703	 0.173436	 0.315979	 -0.649072	 0.609156	 -0.328318	 7
1462501579.673	 9	 -0.014075	 0.004601	 -0.019598	 2.374567	 -1.511772	 0.179477	 0.316105	 -0.649087	 0.609144	 -0.328188	 7
1462501579.683	 9	 -0.023668	 0.015197	 -0.029009	 2.382705	 -1.511814	 0.187489	 0.316231	 -0.649141	 0.609131	 -0.327984	 7
1462501579.693	 9	 -0.031119	 0.024746	 -0.035250	 2.391176	 -1.511738	 0.195757	 0.316327	 -0.649248	 0.609088	 -0.327759	 7
1462501579.703	 9	 -0.031098	 0.032169	 -0.038377	 2.398981	 -1.511638	 0.203271	 0.316380	 -0.649371	 0.609057	 -0.327523	 7
1462501579.713	 9	 -0.032165	 0.033228	 -0.039422	 2.406942	 -1.511549	 0.210922	 0.316431	 -0.649493	 0.609033	 -0.327275	 7
1462501579.723	 9	 -0.031113	 0.028977	 -0.038403	 2.413388	 -1.511508	 0.217080	 0.316464	 -0.649587	 0.609031	 -0.327061	 7
1462501579.733	 9	 -0.027946	 0.022578	 -0.039555	 2.419986	 -1.511500	 0.223454	 0.316524	 -0.649659	 0.609031	 -0.326859	 7
1462501579.743	 9	 -0.023698	 0.023582	 -0.045976	 2.427183	 -1.511540	 0.230437	 0.316605	 -0.649717	 0.609043	 -0.326644	 7
1462501579.753	 9	 -0.024773	 0.025682	 -0.050208	 2.433864	 -1.511524	 0.236887	 0.316665	 -0.649792	 0.609042	 -0.326439	 7
1462501579.763	 9	 -0.036506	 0.027836	 -0.051148	 2.441183	 -1.511361	 0.243962	 0.316721	 -0.649920	 0.608989	 -0.326228	 7
1462501579.773	 9	 -0.045013	 0.028972	 -0.044664	 2.448042	 -1.511032	 0.250558	 0.316748	 -0.650104	 0.608883	 -0.326031	 7
1462501579.783	 9	 -0.050344	 0.023723	 -0.037202	 2.453172	 -1.510684	 0.255457	 0.316751	 -0.650281	 0.608774	 -0.325880	 7
1462501579.793	 9	 -0.053545	 0.011076	 -0.022366	 2.455164	 -1.510274	 0.257330	 0.316721	 -0.650447	 0.608639	 -0.325831	 7
1462501579.803	 9	 -0.047135	 -0.005807	 -0.001260	 2.454232	 -1.509963	 0.256443	 0.316691	 -0.650540	 0.608525	 -0.325886	 7
1462501579.813	 9	 -0.032226	 -0.024898	 0.012288	 2.451733	 -1.509837	 0.254159	 0.316698	 -0.650536	 0.608457	 -0.326013	 7
1462501579.823	 9	 -0.013235	 -0.035447	 0.020573	 2.447504	 -1.509907	 0.250274	 0.316727	 -0.650439	 0.608446	 -0.326202	 7
1462501579.833	 9	 0.001681	 -0.043979	 0.023560	 2.442126	 -1.510089	 0.245313	 0.316765	 -0.650286	 0.608468	 -0.326428	 7
1462501579.843	 9	 0.008086	 -0.045054	 0.024559	 2.436827	 -1.510234	 0.240464	 0.316813	 -0.650140	 0.608471	 -0.326665	 7
1462501579.853	 9	 0.008127	 -0.036544	 0.024637	 2.432035	 -1.510268	 0.236053	 0.316840	 -0.650045	 0.608445	 -0.326877	 7
1462501579.863	 9	 0.004965	 -0.030138	 0.026855	 2.427914	 -1.510181	 0.232241	 0.316847	 -0.650004	 0.608385	 -0.327064	 7
1462501579.873	 9	 0.003936	 -0.024793	 0.030111	 2.423465	 -1.510027	 0.228044	 0.316823	 -0.649992	 0.608312	 -0.327246	 7
1462501579.883	 9	 0.007185	 -0.019446	 0.035461	 2.418541	 -1.509926	 0.223316	 0.316774	 -0.649969	 0.608270	 -0.327416	 7
1462501579.893	 9	 0.016809	 -0.016276	 0.036471	 2.412945	 -1.509929	 0.217871	 0.316707	 -0.649914	 0.608277	 -0.327578	 7
1462501579.903	 9	 0.027470	 -0.015275	 0.032122	 2.406351	 -1.510111	 0.211420	 0.316634	 -0.649795	 0.608353	 -0.327743	 7
1462501579.913	 9	 0.034953	 -0.010002	 0.028907	 2.399977	 -1.510351	 0.205137	 0.316555	 -0.649665	 0.608459	 -0.327881	 7
1462501579.923	 9	 0.033908	 -0.003632	 0.026842	 2.395576	 -1.510530	 0.200775	 0.316495	 -0.649574	 0.608540	 -0.327968	 7
1462501579.933	 9	 0.028581	 0.000623	 0.024794	 2.394070	 -1.510571	 0.199259	 0.316465	 -0.649554	 0.608564	 -0.327992	 7
1462501579.943	 9	 0.024253	 -0.003680	 0.016260	 2.399838	 -1.510608	 0.205013	 0.316583	 -0.649577	 0.608547	 -0.327866	 7
1462501579.953	 9	 0.019899	 -0.017526	 0.011904	 2.401102	 -1.510666	 0.206399	 0.316654	 -0.649545	 0.608540	 -0.327872	 7
1462501579.963	 9	 0.014498	 -0.028170	 0.008652	 2.403509	 -1.510749	 0.209056	 0.316793	 -0.649492	 0.608515	 -0.327892	 7
1462501579.973	 9	 0.011041	 -0.029197	 0.002282	 2.406807	 -1.510832	 0.212633	 0.316959	 -0.649438	 0.608480	 -0.327902	 7
1462501579.983	 9	 0.006761	 -0.023927	 -0.006161	 2.411938	 -1.510876	 0.218009	 0.317147	 -0.649412	 0.608428	 -0.327867	 7
1462501579.993	 9	 -0.004982	 -0.020732	 -0.010294	 2.418065	 -1.510894	 0.224337	 0.317340	 -0.649407	 0.608368	 -0.327801	 7
1462501580.003	 9	 -0.011365	 -0.014346	 -0.012312	 2.425000	 -1.510910	 0.231433	 0.317536	 -0.649412	 0.608312	 -0.327707	 7
1462501580.013	 9	 -0.009196	 -0.006907	 -0.012264	 2.431278	 -1.511002	 0.237794	 0.317700	 -0.649400	 0.608299	 -0.327596	 7
1462501580.023	 9	 -0.002811	 -0.008013	 -0.015530	 2.436807	 -1.511202	 0.243391	 0.317853	 -0.649349	 0.608332	 -0.327487	 7
1462501580.033	 9	 0.002514	 -0.010156	 -0.015598	 2.441004	 -1.511413	 0.247694	 0.317992	 -0.649281	 0.608369	 -0.327418	 7
1462501580.043	 9	 0.012101	 -0.014432	 -0.014657	 2.444669	 -1.511656	 0.251494	 0.318131	 -0.649195	 0.608415	 -0.327366	 7
1462501580.053	 9	 0.019584	 -0.008103	 -0.018928	 2.447190	 -1.511904	 0.254115	 0.318235	 -0.649108	 0.608476	 -0.327327	 7
1462501580.063	 9	 0.023893	 0.009889	 -0.029456	 2.450605	 -1.512082	 0.257476	 0.318301	 -0.649072	 0.608532	 -0.327229	 7
1462501580.073	 9	 0.015453	 0.035404	 -0.034472	 2.454911	 -1.512113	 0.261503	 0.318300	 -0.649125	 0.608569	 -0.327054	 7
1462501580.083	 9	 0.010168	 0.045009	 -0.032203	 2.458754	 -1.512057	 0.264912	 0.318233	 -0.649230	 0.608604	 -0.326848	 7
1462501580.093	 9	 0.006999	 0.046136	 -0.024703	 2.462508	 -1.512005	 0.268210	 0.318157	 -0.649336	 0.608644	 -0.326636	 7
1462501580.103	 9	 0.003825	 0.046199	 -0.017214	 2.466768	 -1.511928	 0.272009	 0.318088	 -0.649453	 0.608674	 -0.326414	 7
1462501580.113	 9	 0.006002	 0.048382	 -0.008687	 2.470285	 -1.511914	 0.275040	 0.318001	 -0.649550	 0.608734	 -0.326196	 7
1462501580.123	 9	 0.013455	 0.039897	 -0.002437	 2.472483	 -1.511957	 0.276822	 0.317914	 -0.649610	 0.608808	 -0.326022	 7
1462501580.133	 9	 0.023024	 0.035590	 -0.005758	 2.473420	 -1.512057	 0.277376	 0.317816	 -0.649641	 0.608902	 -0.325879	 7
1462501580.143	 9	 0.035801	 0.026010	 -0.001695	 2.470095	 -1.512274	 0.273771	 0.317674	 -0.649599	 0.609039	 -0.325848	 7
1462501580.153	 9	 0.065446	 0.029233	 0.005539	 2.462725	 -1.512685	 0.266121	 0.317465	 -0.649474	 0.609261	 -0.325884	 7
1462501580.163	 9	 0.091151	 0.053582	 0.000214	 2.453734	 -1.513197	 0.256646	 0.317169	 -0.649340	 0.609560	 -0.325881	 7
1462501580.173	 9	 0.089044	 0.070514	 -0.012397	 2.444932	 -1.513593	 0.247157	 0.316804	 -0.649277	 0.609851	 -0.325817	 7
1462501580.183	 9	 0.075096	 0.058824	 -0.016644	 2.436774	 -1.513946	 0.238361	 0.316466	 -0.649222	 0.610117	 -0.325756	 7
1462501580.193	 9	 0.065507	 0.052556	 -0.004894	 2.429374	 -1.514257	 0.230427	 0.316176	 -0.649168	 0.610348	 -0.325713	 7
1462501580.203	 9	 0.061359	 0.067553	 0.008072	 2.422965	 -1.514560	 0.223372	 0.315870	 -0.649138	 0.610591	 -0.325615	 7
1462501580.213	 9	 0.049766	 0.086834	 0.022206	 2.417890	 -1.514782	 0.217453	 0.315519	 -0.649172	 0.610831	 -0.325437	 7
1462501580.223	 9	 0.036980	 0.087967	 0.026590	 2.414106	 -1.514844	 0.212761	 0.315157	 -0.649276	 0.611020	 -0.325226	 7
1462501580.233	 9	 0.027304	 0.074161	 0.025479	 2.412655	 -1.514815	 0.210508	 0.314866	 -0.649405	 0.611147	 -0.325011	 7
1462501580.243	 9	 0.013258	 0.040150	 0.023152	 2.412754	 -1.514692	 0.210094	 0.314690	 -0.649527	 0.611187	 -0.324863	 7
1462501580.253	 9	 -0.003979	 0.008275	 0.020872	 2.415637	 -1.514458	 0.212806	 0.314668	 -0.649646	 0.611118	 -0.324776	 7
1462501580.263	 9	 -0.023275	 -0.008693	 0.019814	 2.421261	 -1.514154	 0.218470	 0.314761	 -0.649769	 0.610977	 -0.324705	 7
1462501580.273	 9	 -0.046821	 -0.017179	 0.013543	 2.429520	 -1.513739	 0.226874	 0.314931	 -0.649925	 0.610767	 -0.324622	 7
1462501580.283	 9	 -0.060740	 -0.022494	 0.008284	 2.438147	 -1.513370	 0.235712	 0.315137	 -0.650057	 0.610561	 -0.324546	 7
1462501580.293	 9	 -0.067410	 -0.027837	 -0.001309	 2.448011	 -1.513076	 0.245851	 0.315397	 -0.650157	 0.610367	 -0.324457	 7
1462501580.303	 9	 -0.067415	 -0.024684	 -0.006611	 2.457791	 -1.512850	 0.255899	 0.315661	 -0.650235	 0.610200	 -0.324360	 7
1462501580.313	 9	 -0.063156	 -0.017336	 -0.018305	 2.467447	 -1.512740	 0.265757	 0.315912	 -0.650281	 0.610087	 -0.324235	 7
1462501580.323	 9	 -0.053579	 -0.017419	 -0.025851	 2.476183	 -1.512727	 0.274683	 0.316148	 -0.650291	 0.610016	 -0.324118	 7
1462501580.333	 9	 -0.046102	 -0.010050	 -0.033309	 2.484490	 -1.512731	 0.283129	 0.316361	 -0.650300	 0.609963	 -0.323993	 7
1462501580.343	 9	 -0.038618	 -0.003721	 -0.037578	 2.492419	 -1.512737	 0.291129	 0.316545	 -0.650316	 0.609924	 -0.323854	 7
1462501580.353	 9	 -0.035331	 0.011183	 -0.034270	 2.498842	 -1.512789	 0.297497	 0.316660	 -0.650330	 0.609928	 -0.323704	 7
1462501580.363	 9	 -0.028842	 0.022919	 -0.026757	 2.503726	 -1.512764	 0.302188	 0.316695	 -0.650386	 0.609933	 -0.323549	 7
1462501580.373	 9	 -0.026637	 0.030420	 -0.018180	 2.507597	 -1.512762	 0.305790	 0.316685	 -0.650443	 0.609963	 -0.323388	 7
1462501580.383	 9	 -0.020194	 0.031526	 -0.009700	 2.511614	 -1.512804	 0.309493	 0.316667	 -0.650491	 0.610015	 -0.323209	 7
1462501580.393	 9	 -0.015955	 0.024075	 -0.008742	 2.515462	 -1.512918	 0.313089	 0.316669	 -0.650505	 0.610085	 -0.323048	 7
1462501580.403	 9	 -0.009602	 0.018691	 -0.015243	 2.520216	 -1.513075	 0.317648	 0.316711	 -0.650497	 0.610158	 -0.322885	 7
1462501580.413	 9	 -0.004280	 0.022868	 -0.023778	 2.525130	 -1.513241	 0.322342	 0.316748	 -0.650491	 0.610238	 -0.322711	 7
1462501580.423	 9	 -0.009614	 0.027108	 -0.027955	 2.530061	 -1.513275	 0.327015	 0.316765	 -0.650534	 0.610277	 -0.322531	 7
1462501580.433	 9	 -0.017086	 0.025018	 -0.025776	 2.534227	 -1.513178	 0.330931	 0.316763	 -0.650619	 0.610271	 -0.322376	 7
1462501580.443	 9	 -0.022441	 0.015507	 -0.019422	 2.536951	 -1.513052	 0.333487	 0.316757	 -0.650696	 0.610245	 -0.322275	 7
1462501580.453	 9	 -0.022714	 -0.000405	 -0.014237	 2.539297	 -1.513001	 0.335806	 0.316793	 -0.650724	 0.610225	 -0.322221	 7
1462501580.463	 9	 -0.014224	 -0.014228	 -0.010176	 2.540171	 -1.513097	 0.336805	 0.316856	 -0.650674	 0.610237	 -0.322237	 7
1462501580.473	 9	 -0.004634	 -0.017448	 -0.010290	 2.541476	 -1.513264	 0.338289	 0.316949	 -0.650592	 0.610264	 -0.322259	 7
1462501580.483	 9	 -0.004642	 -0.017463	 -0.012422	 2.543415	 -1.513359	 0.340405	 0.317051	 -0.650536	 0.610265	 -0.322270	 7
1462501580.493	 9	 -0.013160	 -0.010023	 -0.016542	 2.546843	 -1.513381	 0.343960	 0.317162	 -0.650518	 0.610243	 -0.322239	 7
1462501580.503	 9	 -0.020640	 -0.005800	 -0.023898	 2.551600	 -1.513269	 0.348794	 0.317278	 -0.650556	 0.610179	 -0.322171	 7
1462501580.513	 9	 -0.030269	 -0.010034	 -0.024918	 2.556283	 -1.513125	 0.353570	 0.317396	 -0.650602	 0.610101	 -0.322110	 7
1462501580.523	 9	 -0.033502	 -0.018518	 -0.022836	 2.560784	 -1.512927	 0.358250	 0.317536	 -0.650651	 0.609990	 -0.322080	 7
1462501580.533	 9	 -0.026040	 -0.024884	 -0.017631	 2.562663	 -1.512868	 0.360381	 0.317654	 -0.650636	 0.609924	 -0.322121	 7
1462501580.543	 9	 -0.018540	 -0.026964	 -0.008123	 2.562514	 -1.512878	 0.360508	 0.317741	 -0.650588	 0.609884	 -0.322207	 7
1462501580.553	 9	 -0.013217	 -0.035443	 -0.001853	 2.560752	 -1.512938	 0.359076	 0.317815	 -0.650511	 0.609856	 -0.322342	 7
1462501580.563	 9	 -0.001493	 -0.039726	 -0.000928	 2.556894	 -1.513042	 0.355618	 0.317872	 -0.650403	 0.609838	 -0.322539	 7
1462501580.573	 9	 0.004926	 -0.037610	 0.000103	 2.552542	 -1.513192	 0.351653	 0.317916	 -0.650280	 0.609840	 -0.322739	 7
1462501580.583	 9	 0.008134	 -0.036556	 0.000085	 2.548671	 -1.513329	 0.348156	 0.317966	 -0.650164	 0.609838	 -0.322926	 7
1462501580.593	 9	 0.007112	 -0.029092	 0.002296	 2.544391	 -1.513406	 0.344192	 0.317986	 -0.650077	 0.609825	 -0.323106	 7
1462501580.603	 9	 0.007136	 -0.026941	 0.005515	 2.538999	 -1.513469	 0.339089	 0.317975	 -0.649995	 0.609815	 -0.323300	 7
1462501580.613	 9	 0.008226	 -0.027962	 0.011891	 2.532881	 -1.513576	 0.333254	 0.317950	 -0.649897	 0.609825	 -0.323504	 7
1462501580.623	 9	 0.011239	 -0.030068	 0.016105	 2.526948	 -1.513722	 0.327610	 0.317933	 -0.649785	 0.609848	 -0.323704	 7
1462501580.633	 9	 0.016564	 -0.030107	 0.012861	 2.521621	 -1.513927	 0.322574	 0.317933	 -0.649653	 0.609889	 -0.323890	 7
1462501580.643	 9	 0.013356	 -0.029057	 0.009701	 2.517720	 -1.514112	 0.318966	 0.317961	 -0.649532	 0.609920	 -0.324048	 7
1462501580.653	 9	 0.003739	 -0.029052	 0.006587	 2.514897	 -1.514178	 0.316432	 0.318003	 -0.649455	 0.609905	 -0.324188	 7
1462501580.663	 9	 -0.001611	 -0.032227	 0.006605	 2.512674	 -1.514191	 0.314521	 0.318061	 -0.649393	 0.609867	 -0.324327	 7
1462501580.673	 9	 -0.002682	 -0.033288	 0.006604	 2.509992	 -1.514190	 0.312179	 0.318119	 -0.649331	 0.609819	 -0.324484	 7
1462501580.683	 9	 0.001609	 -0.027990	 0.005551	 2.507301	 -1.514275	 0.309785	 0.318167	 -0.649247	 0.609810	 -0.324623	 7
1462501580.693	 9	 0.008057	 -0.019492	 0.006639	 2.504298	 -1.514434	 0.306992	 0.318186	 -0.649149	 0.609843	 -0.324737	 7
1462501580.703	 9	 0.008062	 -0.019484	 0.007705	 2.501457	 -1.514549	 0.304339	 0.318199	 -0.649071	 0.609863	 -0.324844	 7
1462501580.713	 9	 0.005869	 -0.025914	 0.000203	 2.499618	 -1.514686	 0.302731	 0.318246	 -0.648982	 0.609880	 -0.324943	 7
1462501580.723	 9	 0.002546	 -0.047217	 -0.005295	 2.498277	 -1.514816	 0.301806	 0.318364	 -0.648867	 0.609864	 -0.325089	 7
1462501580.733	 9	 -0.005032	 -0.066371	 -0.009671	 2.499795	 -1.514944	 0.303942	 0.318602	 -0.648730	 0.609804	 -0.325241	 7
1462501580.743	 9	 -0.009306	 -0.064262	 -0.013879	 2.503352	 -1.515156	 0.308165	 0.318900	 -0.648563	 0.609760	 -0.325363	 7
1462501580.753	 9	 -0.009269	 -0.054704	 -0.015923	 2.508059	 -1.515337	 0.313452	 0.319191	 -0.648424	 0.609715	 -0.325439	 7
1462501580.763	 9	 -0.007118	 -0.050464	 -0.016970	 2.512726	 -1.515542	 0.318631	 0.319459	 -0.648287	 0.609690	 -0.325495	 7
1462501580.773	 9	 -0.001928	 -0.042012	 -0.021199	 2.517535	 -1.515770	 0.323879	 0.319707	 -0.648154	 0.609687	 -0.325524	 7
1462501580.783	 9	 0.004490	 -0.033568	 -0.027571	 2.522202	 -1.516004	 0.328899	 0.319925	 -0.648031	 0.609700	 -0.325532	 7
1462501580.793	 9	 0.013043	 -0.023019	 -0.036074	 2.526920	 -1.516289	 0.333872	 0.320113	 -0.647905	 0.609747	 -0.325506	 7
1462501580.803	 9	 0.017343	 -0.007154	 -0.046622	 2.533895	 -1.516527	 0.340966	 0.320297	 -0.647824	 0.609795	 -0.325399	 7
1462501580.813	 9	 0.015268	 0.006672	 -0.047540	 2.540769	 -1.516684	 0.347816	 0.320428	 -0.647791	 0.609838	 -0.325255	 7
1462501580.823	 9	 0.012125	 0.014174	 -0.041047	 2.547229	 -1.516706	 0.354146	 0.320509	 -0.647819	 0.609852	 -0.325091	 7
1462501580.833	 9	 0.006846	 0.019570	 -0.032425	 2.554754	 -1.516683	 0.361494	 0.320594	 -0.647872	 0.609856	 -0.324895	 7
1462501580.843	 9	 0.001515	 0.017489	 -0.028136	 2.563905	 -1.516681	 0.370464	 0.320709	 -0.647921	 0.609865	 -0.324666	 7
1462501580.853	 9	 -0.003893	 -0.002658	 -0.021883	 2.573262	 -1.516668	 0.379788	 0.320876	 -0.647949	 0.609849	 -0.324478	 7
1462501580.863	 9	 -0.007201	 -0.028145	 -0.017830	 2.581889	 -1.516657	 0.388624	 0.321108	 -0.647933	 0.609796	 -0.324378	 7
1462501580.873	 9	 -0.009432	 -0.047293	 -0.019056	 2.590626	 -1.516614	 0.397789	 0.321412	 -0.647893	 0.609697	 -0.324343	 7
1462501580.883	 9	 -0.013775	 -0.057955	 -0.024448	 2.601270	 -1.516470	 0.408983	 0.321789	 -0.647869	 0.609542	 -0.324310	 7
1462501580.893	 9	 -0.023426	 -0.060115	 -0.032912	 2.613680	 -1.516266	 0.421989	 0.322216	 -0.647857	 0.609357	 -0.324257	 7
1462501580.903	 9	 -0.039443	 -0.057971	 -0.037017	 2.627924	 -1.515907	 0.436823	 0.322674	 -0.647898	 0.609119	 -0.324165	 7
1462501580.913	 9	 -0.053264	 -0.042013	 -0.042078	 2.643421	 -1.515442	 0.452797	 0.323124	 -0.647991	 0.608864	 -0.324011	 7
1462501580.923	 9	 -0.060650	 -0.023908	 -0.041847	 2.658831	 -1.514977	 0.468501	 0.323517	 -0.648108	 0.608644	 -0.323798	 7
1462501580.933	 9	 -0.061878	 -0.020747	 -0.040737	 2.672461	 -1.514634	 0.482358	 0.323859	 -0.648189	 0.608483	 -0.323596	 7
1462501580.943	 9	 -0.052258	 -0.023913	 -0.033391	 2.683293	 -1.514480	 0.493427	 0.324151	 -0.648201	 0.608391	 -0.323452	 7
1462501580.953	 9	 -0.034106	 -0.028168	 -0.026129	 2.691074	 -1.514486	 0.501490	 0.324397	 -0.648150	 0.608351	 -0.323383	 7
1462501580.963	 9	 -0.018067	 -0.027106	 -0.019866	 2.696466	 -1.514613	 0.507176	 0.324599	 -0.648056	 0.608353	 -0.323367	 7
1462501580.973	 9	 -0.010544	 -0.013324	 -0.023001	 2.702124	 -1.514736	 0.513035	 0.324775	 -0.647977	 0.608369	 -0.323318	 7
1462501580.983	 9	 -0.012646	 -0.003768	 -0.026092	 2.709407	 -1.514695	 0.520396	 0.324945	 -0.647973	 0.608347	 -0.323197	 7
1462501580.993	 9	 -0.020105	 0.000494	 -0.028120	 2.717930	 -1.514543	 0.528924	 0.325118	 -0.648016	 0.608299	 -0.323026	 7
1462501581.003	 9	 -0.026510	 -0.000543	 -0.027009	 2.726160	 -1.514345	 0.537161	 0.325287	 -0.648074	 0.608236	 -0.322860	 7
1462501581.013	 9	 -0.039267	 0.009076	 -0.025743	 2.734890	 -1.514064	 0.545845	 0.325452	 -0.648166	 0.608153	 -0.322664	 7
1462501581.023	 9	 -0.043515	 0.013344	 -0.025667	 2.743228	 -1.513809	 0.554065	 0.325586	 -0.648261	 0.608092	 -0.322452	 7
1462501581.033	 9	 -0.043527	 0.008048	 -0.022519	 2.751067	 -1.513540	 0.561817	 0.325722	 -0.648354	 0.608022	 -0.322259	 7
1462501581.043	 9	 -0.042515	 -0.003655	 -0.022637	 2.757698	 -1.513375	 0.568457	 0.325863	 -0.648398	 0.607973	 -0.322122	 7
1462501581.053	 9	 -0.037221	 -0.014292	 -0.020651	 2.763522	 -1.513213	 0.574407	 0.326027	 -0.648421	 0.607905	 -0.322036	 7
1462501581.063	 9	 -0.028695	 -0.019613	 -0.017578	 2.768193	 -1.513160	 0.579276	 0.326187	 -0.648397	 0.607864	 -0.322000	 7
1462501581.073	 9	 -0.021192	 -0.011142	 -0.019697	 2.772732	 -1.513155	 0.583961	 0.326327	 -0.648366	 0.607848	 -0.321952	 7
1462501581.083	 9	 -0.020093	 -0.003707	 -0.020703	 2.777068	 -1.513149	 0.588352	 0.326432	 -0.648349	 0.607847	 -0.321881	 7
1462501581.093	 9	 -0.019133	 -0.000539	 -0.015337	 2.779515	 -1.513101	 0.590814	 0.326489	 -0.648358	 0.607833	 -0.321834	 7
1462501581.103	 9	 -0.018033	 0.002680	 -0.011053	 2.779955	 -1.513053	 0.591237	 0.326494	 -0.648376	 0.607819	 -0.321817	 7
1462501581.113	 9	 -0.013728	 0.010113	 -0.011021	 2.780093	 -1.513031	 0.591308	 0.326476	 -0.648394	 0.607823	 -0.321793	 7
1462501581.123	 9	 -0.016934	 0.014330	 -0.017348	 2.782405	 -1.512975	 0.593486	 0.326481	 -0.648429	 0.607830	 -0.321703	 7
1462501581.133	 9	 -0.022295	 0.009028	 -0.017349	 2.783588	 -1.512871	 0.594569	 0.326477	 -0.648479	 0.607811	 -0.321644	 7
1462501581.143	 9	 -0.028706	 0.002704	 -0.012023	 2.785576	 -1.512739	 0.596529	 0.326513	 -0.648523	 0.607773	 -0.321589	 7
1462501581.153	 9	 -0.030823	 0.001685	 -0.006685	 2.787603	 -1.512609	 0.598548	 0.326556	 -0.648564	 0.607732	 -0.321538	 7
1462501581.163	 9	 -0.031880	 0.001703	 -0.004544	 2.788667	 -1.512531	 0.599606	 0.326579	 -0.648589	 0.607708	 -0.321511	 7
1462501581.173	 9	 -0.022327	 -0.001586	 -0.014249	 2.789849	 -1.512619	 0.600813	 0.326608	 -0.648552	 0.607738	 -0.321499	 7
1462501581.183	 9	 -0.019172	 -0.009065	 -0.017543	 2.790776	 -1.512682	 0.601821	 0.326651	 -0.648515	 0.607750	 -0.321508	 7
1462501581.193	 9	 -0.018116	 -0.014363	 -0.014403	 2.790451	 -1.512731	 0.601642	 0.326690	 -0.648475	 0.607744	 -0.321561	 7
1462501581.203	 9	 -0.013818	 -0.017490	 -0.003811	 2.788120	 -1.512801	 0.599486	 0.326696	 -0.648428	 0.607735	 -0.321665	 7
1462501581.213	 9	 -0.005267	 -0.018548	 0.000368	 2.786342	 -1.512904	 0.597897	 0.326717	 -0.648367	 0.607737	 -0.321764	 7
1462501581.223	 9	 0.000100	 -0.012182	 0.000381	 2.784954	 -1.513041	 0.596644	 0.326728	 -0.648301	 0.607762	 -0.321839	 7
1462501581.233	 9	 0.005451	 -0.003735	 -0.005981	 2.784270	 -1.513180	 0.596026	 0.326730	 -0.648245	 0.607799	 -0.321880	 7
1462501581.243	 9	 0.006548	 0.006859	 -0.011220	 2.783454	 -1.513252	 0.595167	 0.326697	 -0.648229	 0.607830	 -0.321887	 7
1462501581.253	 9	 0.000029	 0.006836	 -0.009006	 2.782769	 -1.513267	 0.594421	 0.326663	 -0.648236	 0.607844	 -0.321882	 7
1462501581.263	 9	 -0.004210	 0.011119	 -0.006796	 2.782074	 -1.513218	 0.593632	 0.326620	 -0.648269	 0.607839	 -0.321866	 7
1462501581.273	 9	 -0.002114	 0.000499	 -0.003715	 2.780238	 -1.513217	 0.591765	 0.326573	 -0.648279	 0.607840	 -0.321893	 7
1462501581.283	 9	 -0.000048	 -0.018615	 0.001419	 2.778061	 -1.513272	 0.589730	 0.326573	 -0.648242	 0.607832	 -0.321983	 7
1462501581.293	 9	 0.001003	 -0.029193	 0.009837	 2.775546	 -1.513336	 0.587479	 0.326606	 -0.648183	 0.607806	 -0.322117	 7
1462501581.303	 9	 0.006339	 -0.034481	 0.016136	 2.772640	 -1.513411	 0.584908	 0.326653	 -0.648109	 0.607773	 -0.322281	 7
1462501581.313	 9	 0.012722	 -0.038755	 0.016040	 2.769655	 -1.513474	 0.582303	 0.326714	 -0.648031	 0.607728	 -0.322459	 7
1462501581.323	 9	 0.014842	 -0.038785	 0.012824	 2.767664	 -1.513487	 0.580699	 0.326798	 -0.647968	 0.607666	 -0.322617	 7
1462501581.333	 9	 0.006311	 -0.035583	 0.010796	 2.766109	 -1.513420	 0.579498	 0.326884	 -0.647936	 0.607582	 -0.322753	 7
1462501581.343	 9	 -0.006456	 -0.029148	 0.013098	 2.765237	 -1.513282	 0.578923	 0.326967	 -0.647937	 0.607482	 -0.322856	 7
1462501581.353	 9	 -0.009657	 -0.028082	 0.012070	 2.764324	 -1.513165	 0.578293	 0.327044	 -0.647933	 0.607392	 -0.322955	 7
1462501581.363	 9	 -0.008593	 -0.027037	 0.009938	 2.763385	 -1.513157	 0.577622	 0.327112	 -0.647894	 0.607344	 -0.323055	 7
1462501581.373	 9	 -0.001118	 -0.027052	 0.010938	 2.762066	 -1.513248	 0.576574	 0.327170	 -0.647820	 0.607331	 -0.323168	 7
1462501581.383	 9	 0.006367	 -0.025995	 0.013014	 2.759949	 -1.513398	 0.574728	 0.327211	 -0.647729	 0.607337	 -0.323299	 7
1462501581.393	 9	 0.012786	 -0.015440	 0.004530	 2.758945	 -1.513558	 0.573896	 0.327241	 -0.647648	 0.607365	 -0.323377	 7
1462501581.403	 9	 0.012800	 -0.008033	 -0.000731	 2.759379	 -1.513659	 0.574427	 0.327279	 -0.647597	 0.607386	 -0.323402	 7
1462501581.413	 9	 0.008458	 0.000445	 -0.001667	 2.760851	 -1.513631	 0.575918	 0.327315	 -0.647600	 0.607376	 -0.323377	 7
1462501581.423	 9	 0.006360	 0.010009	 -0.003691	 2.762213	 -1.513622	 0.577194	 0.327315	 -0.647615	 0.607390	 -0.323323	 7
1462501581.433	 9	 -0.000029	 0.012163	 -0.002550	 2.764140	 -1.513599	 0.579004	 0.327316	 -0.647638	 0.607404	 -0.323248	 7
1462501581.443	 9	 -0.006412	 0.010109	 0.004946	 2.764874	 -1.513538	 0.579619	 0.327295	 -0.647677	 0.607403	 -0.323195	 7
1462501581.453	 9	 -0.010699	 0.003763	 0.008121	 2.765954	 -1.513375	 0.580641	 0.327303	 -0.647740	 0.607355	 -0.323149	 7
1462501581.463	 9	 -0.021400	 -0.001531	 0.007099	 2.767944	 -1.513151	 0.582628	 0.327349	 -0.647813	 0.607280	 -0.323098	 7
1462501581.473	 9	 -0.027833	 -0.001566	 -0.000306	 2.771016	 -1.512857	 0.585719	 0.327428	 -0.647904	 0.607177	 -0.323030	 7
1462501581.483	 9	 -0.032051	 0.015411	 -0.007573	 2.775869	 -1.512576	 0.590468	 0.327503	 -0.648006	 0.607104	 -0.322887	 7
1462501581.493	 9	 -0.035219	 0.027083	 -0.012766	 2.781563	 -1.512254	 0.595917	 0.327551	 -0.648143	 0.607041	 -0.322681	 7
1462501581.503	 9	 -0.037326	 0.035575	 -0.015866	 2.787481	 -1.511961	 0.601512	 0.327580	 -0.648281	 0.607002	 -0.322447	 7
1462501581.513	 9	 -0.035188	 0.039792	 -0.020109	 2.793650	 -1.511701	 0.607292	 0.327591	 -0.648417	 0.606987	 -0.322188	 7
1462501581.523	 9	 -0.033043	 0.036641	 -0.013762	 2.798468	 -1.511493	 0.611730	 0.327577	 -0.648537	 0.606987	 -0.321963	 7
1462501581.533	 9	 -0.024545	 0.023890	 -0.008626	 2.801684	 -1.511411	 0.614676	 0.327559	 -0.648600	 0.607010	 -0.321809	 7
1462501581.543	 9	 -0.014951	 0.014350	 -0.000273	 2.803377	 -1.511384	 0.616216	 0.327546	 -0.648629	 0.607030	 -0.321727	 7
1462501581.553	 9	 -0.005322	 0.013312	 0.007093	 2.803314	 -1.511454	 0.616030	 0.327502	 -0.648626	 0.607075	 -0.321694	 7
1462501581.563	 9	 -0.002133	 0.013279	 0.003867	 2.803797	 -1.511457	 0.616376	 0.327468	 -0.648646	 0.607099	 -0.321643	 7
1462501581.573	 9	 -0.005397	 0.010013	 -0.007858	 2.805879	 -1.511424	 0.618342	 0.327475	 -0.648670	 0.607112	 -0.321563	 7
1462501581.583	 9	 -0.014030	 0.004675	 -0.013103	 2.809354	 -1.511299	 0.621767	 0.327537	 -0.648710	 0.607086	 -0.321468	 7
1462501581.593	 9	 -0.024691	 0.007890	 -0.014046	 2.813122	 -1.511104	 0.625467	 0.327602	 -0.648776	 0.607038	 -0.321358	 7
1462501581.603	 9	 -0.036398	 0.010091	 -0.008594	 2.816245	 -1.510829	 0.628496	 0.327650	 -0.648875	 0.606964	 -0.321248	 7
1462501581.613	 9	 -0.037423	 0.013331	 -0.002161	 2.818647	 -1.510617	 0.630776	 0.327671	 -0.648960	 0.606916	 -0.321148	 7
1462501581.623	 9	 -0.027800	 0.014389	 0.000962	 2.819416	 -1.510577	 0.631405	 0.327644	 -0.648993	 0.606927	 -0.321087	 7
1462501581.633	 9	 -0.018225	 0.006922	 0.001875	 2.818928	 -1.510646	 0.630835	 0.327604	 -0.648985	 0.606963	 -0.321077	 7
1462501581.643	 9	 -0.006484	 0.001615	 0.008118	 2.817007	 -1.510800	 0.628890	 0.327548	 -0.648943	 0.607016	 -0.321119	 7
1462501581.653	 9	 0.002058	 0.000541	 0.010165	 2.813957	 -1.510982	 0.625839	 0.327475	 -0.648891	 0.607071	 -0.321193	 7
1462501581.663	 9	 0.008494	 0.009016	 0.008056	 2.811760	 -1.511171	 0.623582	 0.327401	 -0.648843	 0.607142	 -0.321231	 7
1462501581.673	 9	 0.008526	 0.017510	 0.006004	 2.810062	 -1.511335	 0.621728	 0.327307	 -0.648818	 0.607221	 -0.321229	 7
1462501581.683	 9	 0.009610	 0.022809	 0.003912	 2.808615	 -1.511459	 0.620062	 0.327200	 -0.648816	 0.607296	 -0.321199	 7
1462501581.693	 9	 0.008524	 0.024886	 -0.003519	 2.808085	 -1.511551	 0.619290	 0.327106	 -0.648826	 0.607366	 -0.321141	 7
1462501581.703	 9	 0.001072	 0.032323	 -0.007648	 2.808878	 -1.511518	 0.619783	 0.327027	 -0.648884	 0.607405	 -0.321032	 7
1462501581.713	 9	 -0.005330	 0.034454	 -0.009703	 2.809727	 -1.511439	 0.620287	 0.326937	 -0.648965	 0.607434	 -0.320905	 7
1462501581.723	 9	 -0.010709	 0.028065	 -0.012913	 2.811090	 -1.511376	 0.621361	 0.326874	 -0.649030	 0.607462	 -0.320786	 7
1462501581.733	 9	 -0.010735	 0.021690	 -0.011905	 2.812162	 -1.511276	 0.622202	 0.326826	 -0.649098	 0.607467	 -0.320688	 7
1462501581.743	 9	 -0.014021	 0.014280	 -0.010796	 2.813424	 -1.511209	 0.623317	 0.326808	 -0.649141	 0.607470	 -0.320613	 7
1462501581.753	 9	 -0.017218	 0.013241	 -0.008646	 2.814283	 -1.511107	 0.624045	 0.326788	 -0.649194	 0.607457	 -0.320550	 7
1462501581.763	 9	 -0.025757	 0.010098	 -0.005403	 2.814814	 -1.510954	 0.624472	 0.326773	 -0.649262	 0.607421	 -0.320498	 7
1462501581.773	 9	 -0.026818	 0.011165	 -0.005384	 2.815881	 -1.510825	 0.625434	 0.326767	 -0.649319	 0.607394	 -0.320437	 7
1462501581.783	 9	 -0.022569	 0.006898	 -0.005460	 2.816407	 -1.510749	 0.625887	 0.326758	 -0.649355	 0.607381	 -0.320399	 7
1462501581.793	 9	 -0.020436	 0.003723	 -0.002311	 2.816832	 -1.510698	 0.626274	 0.326757	 -0.649377	 0.607370	 -0.320376	 7
1462501581.803	 9	 -0.020417	 0.005866	 -0.000159	 2.817185	 -1.510611	 0.626573	 0.326751	 -0.649415	 0.607348	 -0.320347	 7
1462501581.813	 9	 -0.020377	 0.012263	 0.002031	 2.818067	 -1.510574	 0.627361	 0.326741	 -0.649440	 0.607353	 -0.320297	 7
1462501581.823	 9	 -0.023567	 0.015456	 0.001023	 2.819086	 -1.510508	 0.628239	 0.326720	 -0.649482	 0.607355	 -0.320229	 7
1462501581.833	 9	 -0.028859	 0.026093	 -0.000964	 2.820892	 -1.510376	 0.629814	 0.326689	 -0.649559	 0.607351	 -0.320113	 7
1462501581.843	 9	 -0.036273	 0.037816	 -0.000791	 2.823672	 -1.510125	 0.632244	 0.326647	 -0.649692	 0.607326	 -0.319933	 7
1462501581.853	 9	 -0.039497	 0.035675	 -0.003980	 2.827030	 -1.509819	 0.635233	 0.326614	 -0.649845	 0.607287	 -0.319731	 7
1462501581.863	 9	 -0.037408	 0.032424	 -0.011490	 2.831439	 -1.509568	 0.639323	 0.326617	 -0.649966	 0.607263	 -0.319525	 7
1462501581.873	 9	 -0.040611	 0.040865	 -0.022041	 2.837782	 -1.509255	 0.645271	 0.326641	 -0.650114	 0.607237	 -0.319249	 7
1462501581.883	 9	 -0.043820	 0.048243	 -0.032602	 2.845487	 -1.508953	 0.652542	 0.326683	 -0.650258	 0.607228	 -0.318932	 7
1462501581.893	 9	 -0.043790	 0.059897	 -0.038889	 2.854200	 -1.508651	 0.660702	 0.326709	 -0.650416	 0.607242	 -0.318555	 7
1462501581.903	 9	 -0.042681	 0.076843	 -0.048333	 2.864034	 -1.508277	 0.669832	 0.326716	 -0.650615	 0.607262	 -0.318102	 7
1462501581.913	 9	 -0.044775	 0.092804	 -0.051263	 2.873889	 -1.507895	 0.678823	 0.326674	 -0.650842	 0.607307	 -0.317597	 7
1462501581.923	 9	 -0.051120	 0.102420	 -0.047921	 2.883964	 -1.507400	 0.687915	 0.326608	 -0.651121	 0.607334	 -0.317039	 7
1462501581.933	 9	 -0.058611	 0.098187	 -0.047895	 2.894183	 -1.506868	 0.697157	 0.326552	 -0.651409	 0.607350	 -0.316474	 7
1462501581.943	 9	 -0.062932	 0.085451	 -0.045844	 2.904383	 -1.506255	 0.706484	 0.326540	 -0.651703	 0.607324	 -0.315931	 7
1462501581.953	 9	 -0.066181	 0.080104	 -0.051194	 2.915114	 -1.505635	 0.716424	 0.326570	 -0.651980	 0.607288	 -0.315397	 7
1462501581.963	 9	 -0.070521	 0.070497	 -0.057640	 2.926614	 -1.505033	 0.727216	 0.326646	 -0.652230	 0.607253	 -0.314868	 7
1462501581.973	 9	 -0.079125	 0.061967	 -0.064039	 2.938593	 -1.504366	 0.738585	 0.326775	 -0.652478	 0.607187	 -0.314348	 7
1462501581.983	 9	 -0.086616	 0.056679	 -0.062957	 2.950384	 -1.503622	 0.749827	 0.326931	 -0.652738	 0.607088	 -0.313838	 7
1462501581.993	 9	 -0.079172	 0.050282	 -0.062015	 2.961375	 -1.502894	 0.760331	 0.327092	 -0.652982	 0.606983	 -0.313363	 7
1462501582.003	 9	 -0.069563	 0.051317	 -0.062089	 2.971761	 -1.502313	 0.770226	 0.327228	 -0.653180	 0.606930	 -0.312911	 7
1462501582.013	 9	 -0.062085	 0.044982	 -0.052621	 2.980169	 -1.501828	 0.778185	 0.327325	 -0.653351	 0.606893	 -0.312526	 7
1462501582.023	 9	 -0.054641	 0.032257	 -0.044277	 2.986821	 -1.501370	 0.784505	 0.327418	 -0.653504	 0.606836	 -0.312218	 7
1462501582.033	 9	 -0.045070	 0.021623	 -0.040196	 2.992578	 -1.500995	 0.790033	 0.327517	 -0.653619	 0.606785	 -0.311971	 7
1462501582.043	 9	 -0.035516	 0.010957	 -0.040378	 2.998079	 -1.500711	 0.795422	 0.327640	 -0.653687	 0.606748	 -0.311774	 7
1462501582.053	 9	 -0.032329	 0.008812	 -0.041491	 3.003631	 -1.500452	 0.800905	 0.327776	 -0.653737	 0.606714	 -0.311592	 7
1462501582.063	 9	 -0.031270	 0.009850	 -0.044687	 3.009518	 -1.500178	 0.806717	 0.327920	 -0.653790	 0.606679	 -0.311397	 7
1462501582.073	 9	 -0.040818	 0.024799	 -0.047577	 3.016231	 -1.499754	 0.813256	 0.328069	 -0.653899	 0.606616	 -0.311133	 7
1462501582.083	 9	 -0.054664	 0.033327	 -0.050574	 3.023252	 -1.499147	 0.819977	 0.328207	 -0.654082	 0.606515	 -0.310799	 7
1462501582.093	 9	 -0.061054	 0.035481	 -0.049431	 3.029780	 -1.498480	 0.826184	 0.328336	 -0.654291	 0.606393	 -0.310461	 7
1462501582.103	 9	 -0.062119	 0.033380	 -0.046244	 3.035898	 -1.497841	 0.831982	 0.328454	 -0.654492	 0.606280	 -0.310134	 7
1462501582.113	 9	 -0.057863	 0.028072	 -0.043132	 3.041737	 -1.497290	 0.837547	 0.328572	 -0.654658	 0.606188	 -0.309836	 7
1462501582.123	 9	 -0.046124	 0.021709	 -0.035833	 3.046111	 -1.496857	 0.841708	 0.328661	 -0.654790	 0.606115	 -0.309608	 7
1462501582.133	 9	 -0.037593	 0.014291	 -0.028515	 3.049243	 -1.496472	 0.844697	 0.328739	 -0.654905	 0.606036	 -0.309436	 7
1462501582.143	 9	 -0.029040	 0.013241	 -0.023270	 3.052076	 -1.496123	 0.847411	 0.328812	 -0.655008	 0.605963	 -0.309283	 7
1462501582.153	 9	 -0.026927	 0.010036	 -0.024384	 3.055445	 -1.495705	 0.850680	 0.328914	 -0.655123	 0.605870	 -0.309112	 7
1462501582.163	 9	 -0.033373	 0.004705	 -0.028640	 3.058604	 -1.495244	 0.853794	 0.329036	 -0.655245	 0.605752	 -0.308957	 7
1462501582.173	 9	 -0.040904	 -0.001708	 -0.036093	 3.062264	 -1.494687	 0.857471	 0.329204	 -0.655380	 0.605597	 -0.308794	 7
1462501582.183	 9	 -0.052663	 -0.004872	 -0.037086	 3.066589	 -1.494054	 0.861864	 0.329415	 -0.655524	 0.605417	 -0.308617	 7
1462501582.193	 9	 -0.064397	 -0.003773	 -0.036973	 3.071135	 -1.493384	 0.866467	 0.329635	 -0.655677	 0.605229	 -0.308425	 7
1462501582.203	 9	 -0.069740	 -0.001661	 -0.041169	 3.075554	 -1.492725	 0.870929	 0.329848	 -0.655829	 0.605047	 -0.308231	 7
1462501582.213	 9	 -0.070816	 -0.003785	 -0.041179	 3.079858	 -1.492160	 0.875283	 0.330049	 -0.655950	 0.604896	 -0.308055	 7
1462501582.223	 9	 -0.061207	 -0.013296	 -0.033793	 3.082824	 -1.491769	 0.878384	 0.330221	 -0.656017	 0.604777	 -0.307962	 7
1462501582.233	 9	 -0.045160	 -0.013274	 -0.024340	 3.084293	 -1.491549	 0.880019	 0.330343	 -0.656042	 0.604693	 -0.307943	 7
1462501582.243	 9	 -0.023770	 -0.007981	 -0.019148	 3.085618	 -1.491556	 0.881452	 0.330412	 -0.656007	 0.604694	 -0.307942	 7
1462501582.253	 9	 -0.014100	 0.003705	 -0.016992	 3.087170	 -1.491590	 0.883019	 0.330452	 -0.655976	 0.604721	 -0.307912	 7
1462501582.263	 9	 -0.011900	 0.017527	 -0.016882	 3.088369	 -1.491508	 0.884091	 0.330452	 -0.656009	 0.604726	 -0.307831	 7
1462501582.273	 9	 -0.016154	 0.019674	 -0.015758	 3.089596	 -1.491309	 0.885126	 0.330448	 -0.656089	 0.604703	 -0.307711	 7
1462501582.283	 9	 -0.022563	 0.018630	 -0.015711	 3.090292	 -1.490996	 0.885642	 0.330449	 -0.656208	 0.604633	 -0.307592	 7
1462501582.293	 9	 -0.035410	 0.010159	 -0.015678	 3.091659	 -1.490509	 0.886886	 0.330511	 -0.656363	 0.604505	 -0.307447	 7
1462501582.303	 9	 -0.048252	 0.002751	 -0.015634	 3.092972	 -1.489884	 0.888171	 0.330622	 -0.656547	 0.604314	 -0.307310	 7
1462501582.313	 9	 -0.061061	 0.000678	 -0.013410	 3.094854	 -1.489137	 0.890070	 0.330780	 -0.656753	 0.604084	 -0.307153	 7
1462501582.323	 9	 -0.067468	 -0.004583	 -0.008075	 3.096779	 -1.488381	 0.892023	 0.330944	 -0.656959	 0.603849	 -0.306997	 7
1462501582.333	 9	 -0.067571	 -0.022696	 -0.012508	 3.102506	 -1.487736	 0.897925	 0.331244	 -0.657060	 0.603675	 -0.306799	 7
1462501582.343	 9	 -0.061244	 -0.032342	 -0.020115	 3.108077	 -1.487163	 0.903794	 0.331572	 -0.657118	 0.603507	 -0.306651	 7
1462501582.353	 9	 -0.059163	 -0.030337	 -0.036102	 3.114429	 -1.486562	 0.910465	 0.331934	 -0.657170	 0.603338	 -0.306482	 7
1462501582.363	 9	 -0.061344	 -0.029360	 -0.048864	 3.121237	 -1.485911	 0.917586	 0.332315	 -0.657229	 0.603162	 -0.306290	 7
1462501582.373	 9	 -0.067726	 -0.025102	 -0.057199	 3.127447	 -1.485151	 0.924078	 0.332688	 -0.657332	 0.602948	 -0.306084	 7
1462501582.383	 9	 -0.069920	 -0.035748	 -0.059410	 3.132901	 -1.484394	 0.929882	 0.333065	 -0.657430	 0.602718	 -0.305917	 7
1462501582.393	 9	 -0.068931	 -0.048546	 -0.063801	 3.138742	 -1.483579	 0.936207	 0.333507	 -0.657515	 0.602456	 -0.305769	 7
1462501582.403	 9	 -0.064756	 -0.063489	 -0.069304	 -3.139008	 -1.482795	 0.942272	 0.333984	 -0.657570	 0.602178	 -0.305677	 7
1462501582.413	 9	 -0.065946	 -0.090070	 -0.068474	 -3.134556	 -1.481914	 0.947594	 0.334530	 -0.657625	 0.601819	 -0.305667	 7
1462501582.423	 9	 -0.067143	 -0.118770	 -0.066598	 -3.130775	 -1.480994	 0.952545	 0.335164	 -0.657650	 0.601394	 -0.305756	 7
1462501582.433	 9	 -0.072501	 -0.129337	 -0.059188	 -3.127229	 -1.480001	 0.957409	 0.335853	 -0.657673	 0.600921	 -0.305882	 7
1462501582.443	 9	 -0.088446	 -0.122845	 -0.050462	 -3.122990	 -1.478846	 0.962932	 0.336580	 -0.657736	 0.600412	 -0.305947	 7
1462501582.453	 9	 -0.115031	 -0.104668	 -0.047931	 -3.118786	 -1.477553	 0.968234	 0.337268	 -0.657869	 0.599888	 -0.305929	 7
1462501582.463	 9	 -0.136414	 -0.113113	 -0.047824	 -3.114148	 -1.476248	 0.973982	 0.337979	 -0.657994	 0.599367	 -0.305897	 7
1462501582.473	 9	 -0.134348	 -0.132227	 -0.042692	 -3.108867	 -1.475114	 0.980547	 0.338741	 -0.658025	 0.598889	 -0.305924	 7
1462501582.483	 9	 -0.105656	 -0.159953	 -0.041070	 -3.104015	 -1.474285	 0.986936	 0.339527	 -0.657927	 0.598466	 -0.306091	 7
1462501582.493	 9	 -0.067338	 -0.180285	 -0.042660	 -3.099221	 -1.473797	 0.993501	 0.340334	 -0.657688	 0.598118	 -0.306389	 7
1462501582.503	 9	 -0.038512	 -0.168749	 -0.053462	 -3.094272	 -1.473456	 1.000205	 0.341115	 -0.657404	 0.597824	 -0.306704	 7
1462501582.513	 9	 -0.029814	 -0.124193	 -0.065912	 -3.089728	 -1.473048	 1.006150	 0.341780	 -0.657204	 0.597557	 -0.306911	 7
1462501582.523	 9	 -0.039222	 -0.072137	 -0.078134	 -3.084689	 -1.472518	 1.012080	 0.342314	 -0.657116	 0.597339	 -0.306928	 7
1462501582.533	 9	 -0.052935	 -0.044469	 -0.085116	 -3.078900	 -1.471814	 1.018410	 0.342787	 -0.657123	 0.597135	 -0.306784	 7
1462501582.543	 9	 -0.058216	 -0.032753	 -0.084960	 -3.072565	 -1.471084	 1.025142	 0.343235	 -0.657149	 0.596958	 -0.306573	 7
1462501582.553	 9	 -0.061434	 -0.036990	 -0.083906	 -3.064607	 -1.470313	 1.033492	 0.343740	 -0.657154	 0.596801	 -0.306301	 7
1462501582.563	 9	 -0.065678	 -0.032715	 -0.082765	 -3.055709	 -1.469488	 1.042759	 0.344278	 -0.657156	 0.596653	 -0.305980	 7
1462501582.573	 9	 -0.059308	 -0.041228	 -0.080769	 -3.046775	 -1.468716	 1.052102	 0.344823	 -0.657130	 0.596521	 -0.305679	 7
1462501582.583	 9	 -0.053101	 -0.086946	 -0.075921	 -3.039134	 -1.468197	 1.060493	 0.345397	 -0.656995	 0.596396	 -0.305567	 7
1462501582.593	 9	 -0.032851	 -0.115525	 -0.048654	 -3.034128	 -1.467809	 1.066638	 0.345995	 -0.656805	 0.596201	 -0.305676	 7
1462501582.603	 9	 -0.015750	 -0.125018	 -0.030773	 -3.031715	 -1.467581	 1.070298	 0.346521	 -0.656604	 0.595989	 -0.305928	 7
1462501582.613	 9	 -0.014612	 -0.120674	 -0.017953	 -3.031932	 -1.467362	 1.071310	 0.346958	 -0.656456	 0.595729	 -0.306255	 7
1462501582.623	 9	 -0.027234	 -0.108704	 0.014242	 -3.035636	 -1.467106	 1.068741	 0.347267	 -0.656405	 0.595400	 -0.306654	 7
1462501582.633	 9	 -0.037654	 -0.086072	 0.050780	 -3.042057	 -1.466825	 1.063228	 0.347420	 -0.656456	 0.595044	 -0.307064	 7
1462501582.643	 9	 -0.039646	 -0.078427	 0.077512	 -3.049124	 -1.466598	 1.056903	 0.347488	 -0.656533	 0.594717	 -0.307456	 7
1462501582.653	 9	 -0.026895	 -0.100710	 0.089981	 -3.055363	 -1.466383	 1.051536	 0.347620	 -0.656566	 0.594391	 -0.307866	 7
1462501582.663	 9	 -0.010042	 -0.144394	 0.086226	 -3.059134	 -1.466157	 1.049016	 0.347954	 -0.656487	 0.594052	 -0.308310	 7
1462501582.673	 9	 -0.012107	 -0.131600	 0.089555	 -3.061395	 -1.465453	 1.048065	 0.348440	 -0.656502	 0.593584	 -0.308631	 7
1462501582.683	 9	 -0.056055	 -0.162400	 0.077925	 -3.065779	 -1.464602	 1.045156	 0.348939	 -0.656572	 0.593000	 -0.309040	 7
1462501582.693	 9	 -0.089060	 -0.182391	 0.096267	 -3.076417	 -1.463862	 1.036250	 0.349298	 -0.656691	 0.592287	 -0.309749	 7
1462501582.703	 9	 -0.135899	 -0.187314	 0.131800	 -3.090333	 -1.462715	 1.024132	 0.349636	 -0.656977	 0.591369	 -0.310513	 7
1462501582.713	 9	 -0.205194	 -0.203855	 0.169551	 -3.107571	 -1.460920	 1.008769	 0.349983	 -0.657501	 0.590165	 -0.311304	 7
1462501582.723	 9	 -0.268168	 -0.258521	 0.232468	 -3.126376	 -1.458175	 0.992246	 0.350539	 -0.658261	 0.588554	 -0.312120	 7
1462501582.733	 9	 -0.278938	 -0.338811	 0.303221	 3.128653	 -1.455379	 0.967097	 0.350967	 -0.659089	 0.586629	 -0.313513	 7
1462501582.743	 9	 -0.244013	 -0.440673	 0.350994	 3.096116	 -1.452735	 0.938500	 0.351455	 -0.659782	 0.584528	 -0.315427	 7
1462501582.753	 9	 -0.186906	 -0.564107	 0.366400	 3.061381	 -1.450477	 0.908875	 0.352122	 -0.660176	 0.582343	 -0.317892	 7
1462501582.763	 9	 -0.135239	 -0.683495	 0.350984	 3.028150	 -1.448711	 0.881970	 0.353123	 -0.660154	 0.580172	 -0.320781	 7
1462501582.773	 9	 -0.111293	 -0.776393	 0.310477	 2.995942	 -1.447156	 0.857140	 0.354436	 -0.659837	 0.577936	 -0.324006	 7
1462501582.783	 9	 -0.126643	 -0.818218	 0.256934	 2.967939	 -1.445528	 0.837071	 0.356070	 -0.659352	 0.575657	 -0.327243	 7
1462501582.793	 9	 -0.163454	 -0.863355	 0.177968	 2.946294	 -1.443660	 0.823823	 0.358111	 -0.658748	 0.573309	 -0.330341	 7
1462501582.803	 9	 -0.219572	 -0.932867	 0.103206	 2.931136	 -1.441408	 0.817761	 0.360667	 -0.658034	 0.570790	 -0.333330	 7
1462501582.813	 9	 -0.295944	 -0.997009	 0.027605	 2.922317	 -1.438612	 0.818774	 0.363773	 -0.657260	 0.568025	 -0.336193	 7
1462501582.823	 9	 -0.358314	 -1.047248	 -0.032002	 2.918993	 -1.435291	 0.825841	 0.367343	 -0.656459	 0.565038	 -0.338900	 7
1462501582.833	 9	 -0.386505	 -1.130224	 -0.045318	 2.917218	 -1.431676	 0.835225	 0.371258	 -0.655565	 0.561820	 -0.341701	 7
1462501582.843	 9	 -0.400596	 -1.204392	 -0.011781	 2.913225	 -1.427834	 0.843183	 0.375343	 -0.654604	 0.558335	 -0.344780	 7
1462501582.853	 9	 -0.396365	 -1.265634	 0.051558	 2.904763	 -1.423873	 0.847249	 0.379396	 -0.653615	 0.554615	 -0.348206	 7
1462501582.863	 9	 -0.360177	 -1.361872	 0.142003	 2.889793	 -1.419979	 0.845601	 0.383349	 -0.652532	 0.550651	 -0.352179	 7
1462501582.873	 9	 -0.284760	 -1.509308	 0.228433	 2.867220	 -1.416473	 0.837622	 0.387242	 -0.651172	 0.546451	 -0.356945	 7
1462501582.883	 9	 -0.171332	 -1.725080	 0.293646	 2.837144	 -1.413737	 0.824022	 0.391223	 -0.649273	 0.542052	 -0.362725	 7
1462501582.893	 9	 -0.027633	 -2.034965	 0.300169	 2.800840	 -1.412165	 0.807043	 0.395632	 -0.646465	 0.537445	 -0.369744	 7
1462501582.903	 9	 0.117981	 -2.343145	 0.249140	 2.760890	 -1.412000	 0.789537	 0.400689	 -0.642536	 0.532703	 -0.377919	 7
1462501582.913	 9	 0.236006	 -2.602453	 0.179622	 2.719029	 -1.413165	 0.772885	 0.406400	 -0.637515	 0.527871	 -0.386996	 7
1462501582.923	 9	 0.299197	 -2.751790	 0.145709	 2.675330	 -1.415105	 0.756211	 0.412510	 -0.631736	 0.522911	 -0.396622	 7
1462501582.933	 9	 0.264092	 -2.730396	 0.148346	 2.631155	 -1.416884	 0.739297	 0.418633	 -0.625802	 0.517788	 -0.406219	 7
1462501582.943	 9	 0.146699	 -2.528822	 0.176822	 2.590040	 -1.417581	 0.723904	 0.424414	 -0.620375	 0.512543	 -0.415099	 7
1462501582.953	 9	 -0.056431	 -2.217109	 0.251831	 2.554576	 -1.416356	 0.711285	 0.429567	 -0.616044	 0.507158	 -0.422792	 7
1462501582.963	 9	 -0.289207	 -1.894337	 0.373029	 2.525433	 -1.412508	 0.701767	 0.433997	 -0.613162	 0.501454	 -0.429212	 7
1462501582.973	 9	 -0.472117	 -1.656599	 0.521778	 2.499895	 -1.406173	 0.693173	 0.437695	 -0.611608	 0.495372	 -0.434703	 7
1462501582.983	 9	 -0.545070	 -1.607695	 0.635839	 2.474503	 -1.398220	 0.683718	 0.440954	 -0.610749	 0.488874	 -0.439940	 7
1462501582.993	 9	 -0.523997	 -1.739005	 0.723958	 2.445828	 -1.389662	 0.671830	 0.444112	 -0.609836	 0.481940	 -0.445643	 7
1462501583.003	 9	 -0.467110	 -1.960905	 0.801330	 2.412018	 -1.380903	 0.656778	 0.447355	 -0.608463	 0.474479	 -0.452234	 7
1462501583.013	 9	 -0.403144	 -2.265786	 0.876771	 2.372838	 -1.371994	 0.634607	 0.449483	 -0.607407	 0.467379	 -0.458889	 7
1462501583.023	 9	 -0.327392	 -2.587488	 0.983926	 2.327099	 -1.362773	 0.608376	 0.451637	 -0.605712	 0.459661	 -0.466742	 7
1462501583.033	 9	 -0.274537	 -2.805782	 1.116786	 2.276032	 -1.352778	 0.584282	 0.455299	 -0.602333	 0.449995	 -0.476866	 7
1462501583.043	 9	 -0.215268	 -2.959753	 1.175586	 2.222423	 -1.342247	 0.559353	 0.458873	 -0.598448	 0.439793	 -0.487728	 7
1462501583.053	 9	 -0.183475	 -3.018240	 1.186454	 2.169537	 -1.331543	 0.527368	 0.459790	 -0.596132	 0.431513	 -0.497007	 7
1462501583.063	 9	 -0.247953	 -2.866134	 1.161787	 2.122454	 -1.320512	 0.508935	 0.463109	 -0.591975	 0.421171	 -0.507652	 7
1462501583.073	 9	 -0.400917	 -2.494436	 1.164409	 2.085730	 -1.308708	 0.487389	 0.462928	 -0.591183	 0.413803	 -0.514749	 7
1462501583.083	 9	 -0.582354	 -2.056661	 1.174287	 2.060798	 -1.295826	 0.474523	 0.462505	 -0.591592	 0.406608	 -0.520363	 7
1462501583.093	 9	 -0.694737	 -1.686093	 1.188306	 2.044638	 -1.282244	 0.476154	 0.464324	 -0.591040	 0.397426	 -0.526429	 7
1462501583.103	 9	 -0.785252	 -1.417805	 1.187327	 2.034631	 -1.268180	 0.481107	 0.465727	 -0.591407	 0.388593	 -0.531349	 7
1462501583.113	 9	 -0.815004	 -1.349990	 1.135955	 2.027929	 -1.254238	 0.478168	 0.464095	 -0.594404	 0.382655	 -0.533737	 7
1462501583.123	 9	 -0.510382	 -2.244422	 0.974708	 2.009286	 -1.243074	 0.479182	 0.466234	 -0.592418	 0.373911	 -0.540239	 7
1462501583.133	 9	 -0.845071	 -1.631443	 0.882037	 2.000400	 -1.231331	 0.479119	 0.466042	 -0.593423	 0.367506	 -0.543686	 7
1462501583.143	 9	 -1.149115	 -1.318413	 0.804467	 2.004149	 -1.219468	 0.497861	 0.469077	 -0.593483	 0.358863	 -0.546774	 7
1462501583.153	 9	 -1.463683	 -0.891372	 0.897507	 2.017647	 -1.205665	 0.522999	 0.472054	 -0.595244	 0.349993	 -0.548047	 7
1462501583.163	 9	 -1.675577	 -0.542082	 0.870629	 2.038869	 -1.190526	 0.552456	 0.474956	 -0.598454	 0.341232	 -0.547568	 7
1462501583.173	 9	 -1.784656	 -0.281888	 0.772752	 2.064623	 -1.175286	 0.583952	 0.477942	 -0.602397	 0.332948	 -0.545742	 7
1462501583.183	 9	 -1.773104	 -0.178920	 0.603088	 2.092084	 -1.160866	 0.615788	 0.481143	 -0.606414	 0.325317	 -0.543076	 7
1462501583.193	 9	 -1.620510	 -0.459539	 0.395587	 2.113192	 -1.149174	 0.644198	 0.484924	 -0.608663	 0.318179	 -0.541424	 7
1462501583.203	 9	 -1.793585	 -0.033541	 0.109040	 2.142669	 -1.138175	 0.677534	 0.489172	 -0.611688	 0.312069	 -0.537738	 7
1462501583.213	 9	 -1.965671	 0.135361	 -0.429298	 2.181017	 -1.129700	 0.718964	 0.495040	 -0.614216	 0.307091	 -0.532324	 7
1462501583.223	 9	 -2.064938	 0.375157	 -0.988925	 2.229485	 -1.124712	 0.769274	 0.502656	 -0.615933	 0.303910	 -0.524978	 7
1462501583.233	 9	 -2.265509	 0.821727	 -1.236674	 2.287575	 -1.119828	 0.825947	 0.510986	 -0.618107	 0.301951	 -0.515424	 7
1462501583.243	 9	 -2.579882	 1.322053	 -1.450960	 2.356420	 -1.113010	 0.889240	 0.519867	 -0.621314	 0.300864	 -0.503178	 7
1462501583.253	 9	 -2.910457	 1.751424	 -1.629529	 2.434851	 -1.103024	 0.958440	 0.529360	 -0.625482	 0.300317	 -0.488221	 7
1462501583.263	 9	 -3.190558	 2.128497	 -1.666212	 2.518205	 -1.088729	 1.029274	 0.539029	 -0.630597	 0.299943	 -0.470988	 7
1462501583.273	 9	 -3.368809	 2.493467	 -1.570674	 2.601413	 -1.069759	 1.096429	 0.548195	 -0.636753	 0.299633	 -0.451938	 7
1462501583.283	 9	 -3.464881	 3.011996	 -1.387030	 2.681754	 -1.046509	 1.155634	 0.556058	 -0.644281	 0.299742	 -0.431111	 7
1462501583.293	 9	 -3.357345	 3.125998	 -1.316564	 2.756943	 -1.020989	 1.206410	 0.562743	 -0.652297	 0.300354	 -0.409410	 7
1462501583.303	 9	 -2.966124	 2.745680	 -1.242512	 2.820763	 -0.996600	 1.248747	 0.568844	 -0.658892	 0.300762	 -0.389640	 7
1462501583.313	 9	 -2.675102	 3.038117	 -1.132551	 2.879032	 -0.973642	 1.282922	 0.573367	 -0.665403	 0.302373	 -0.370216	 7
1462501583.323	 9	 -2.362561	 3.031677	 -1.160910	 2.933724	 -0.952547	 1.312531	 0.577016	 -0.671282	 0.305017	 -0.351281	 7
1462501583.333	 9	 -2.049471	 3.114809	 -1.157534	 2.985611	 -0.933776	 1.338519	 0.579825	 -0.676457	 0.308776	 -0.332966	 7
1462501583.343	 9	 -1.837580	 3.254457	 -1.175132	 3.036425	 -0.916614	 1.361850	 0.581836	 -0.681206	 0.313617	 -0.314754	 7
1462501583.353	 9	 -1.709932	 3.400793	 -1.184473	 3.086980	 -0.900243	 1.383333	 0.583226	 -0.685635	 0.319283	 -0.296330	 7
1462501583.363	 9	 -1.651112	 3.591542	 -1.110739	 3.137044	 -0.883977	 1.402172	 0.583803	 -0.690081	 0.325525	 -0.277481	 7
1462501583.373	 9	 -1.670932	 3.826354	 -1.006068	 -3.096534	 -0.867167	 1.417749	 0.583408	 -0.694839	 0.332142	 -0.257906	 7
1462501583.383	 9	 -1.738707	 4.076193	 -0.901905	 -3.047073	 -0.849365	 1.430085	 0.582043	 -0.699987	 0.338987	 -0.237344	 7
1462501583.393	 9	 -1.813908	 4.337732	 -0.800767	 -2.997602	 -0.830563	 1.439163	 0.579662	 -0.705501	 0.346019	 -0.215710	 7
1462501583.403	 9	 -1.883756	 4.635141	 -0.737709	 -2.947472	 -0.810909	 1.445408	 0.576260	 -0.711249	 0.353343	 -0.192868	 7
1462501583.413	 9	 -1.957640	 5.029996	 -0.732325	 -2.895272	 -0.790404	 1.449541	 0.571818	 -0.717067	 0.361210	 -0.168422	 7
1462501583.423	 9	 -2.039911	 5.528490	 -0.812231	 -2.839220	 -0.768838	 1.452519	 0.566359	 -0.722699	 0.369909	 -0.141814	 7
1462501583.433	 9	 -2.153814	 6.150095	 -0.941873	 -2.777809	 -0.745824	 1.454777	 0.559782	 -0.727924	 0.379644	 -0.112430	 7
1462501583.443	 9	 -2.325062	 6.836701	 -1.077871	 -2.710431	 -0.720763	 1.455895	 0.551873	 -0.732603	 0.390343	 -0.079751	 7
1462501583.453	 9	 -2.545034	 7.554696	 -1.158798	 -2.637571	 -0.693417	 1.454559	 0.542236	 -0.736679	 0.401726	 -0.043600	 7
1462501583.463	 9	 -2.781119	 8.206113	 -1.186917	 -2.560235	 -0.664001	 1.449506	 0.530520	 -0.740017	 0.413407	 -0.004162	 7
1462501583.473	 9	 -2.995216	 8.717506	 -1.154716	 -2.480050	 -0.633308	 1.439906	 0.516570	 -0.742408	 0.424915	 0.037852	 7
1462501583.483	 9	 -3.192782	 9.054926	 -1.052872	 -2.398798	 -0.602325	 1.425151	 0.500333	 -0.743738	 0.435743	 0.081543	 7
1462501583.493	 9	 -3.354573	 9.245798	 -0.904743	 -2.317864	 -0.572198	 1.405053	 0.481823	 -0.743959	 0.445527	 0.126007	 7
1462501583.503	 9	 -3.460619	 9.288450	 -0.786189	 -2.237999	 -0.543695	 1.380483	 0.461407	 -0.742889	 0.454047	 0.170470	 7
1462501583.513	 9	 -3.511222	 9.158086	 -0.743265	 -2.160015	 -0.517082	 1.352743	 0.439756	 -0.740368	 0.461076	 0.214194	 7
1462501583.523	 9	 -3.536171	 8.883430	 -0.787169	 -2.084802	 -0.492026	 1.323013	 0.417670	 -0.736359	 0.466337	 0.256626	 7
1462501583.533	 9	 -3.574787	 8.498635	 -0.917239	 -2.013160	 -0.467842	 1.291911	 0.395830	 -0.730997	 0.469539	 0.297480	 7
1462501583.543	 9	 -3.649187	 8.038048	 -1.099925	 -1.945883	 -0.443778	 1.259483	 0.374736	 -0.724573	 0.470375	 0.336621	 7
1462501583.563	 10	 -3.882536	 7.105077	 -1.512630	 -1.825295	 -0.394717	 1.189688	 0.335392	 -0.709727	 0.464583	 0.409831	 7
1462501583.573	 10	 -4.025061	 6.712491	 -1.732458	 -1.771367	 -0.369383	 1.151884	 0.317100	 -0.701671	 0.458020	 0.444210	 7
1462501583.583	 10	 -4.182909	 6.431915	 -1.912743	 -1.720409	 -0.343758	 1.111854	 0.299351	 -0.693222	 0.449275	 0.477477	 7
1462501583.593	 10	 -4.355608	 6.306384	 -1.985945	 -1.670980	 -0.318771	 1.069255	 0.281474	 -0.684296	 0.438741	 0.509919	 7
1462501583.603	 10	 -4.554530	 6.393540	 -1.927982	 -1.621229	 -0.295977	 1.023698	 0.262497	 -0.674689	 0.426966	 0.541840	 7
1462501583.623	 11	 -4.941668	 6.935557	 -1.703218	 -1.513612	 -0.260351	 0.923918	 0.218949	 -0.651497	 0.401083	 0.605595	 7
1462501583.633	 11	 -5.115470	 7.057426	 -1.541772	 -1.456748	 -0.248926	 0.870305	 0.194428	 -0.638006	 0.387085	 0.636641	 7
1462501583.643	 11	 -5.235765	 7.026680	 -1.430171	 -1.399741	 -0.241978	 0.815034	 0.168656	 -0.623637	 0.372323	 0.666339	 7
1462501583.653	 11	 -5.282695	 6.840391	 -1.470930	 -1.344131	 -0.238189	 0.758860	 0.142611	 -0.608662	 0.356504	 0.694332	 7
1462501583.663	 11	 -5.280399	 6.543651	 -1.615457	 -1.291213	 -0.236174	 0.702177	 0.117129	 -0.593408	 0.339350	 0.720409	 7
1462501583.673	 11	 -5.228566	 6.106177	 -1.782871	 -1.242247	 -0.235291	 0.645365	 0.092742	 -0.578368	 0.320881	 0.744261	 7
1462501583.683	 11	 -5.114172	 5.584759	 -1.917676	 -1.198208	 -0.235234	 0.588989	 0.069808	 -0.564027	 0.301372	 0.765621	 7
1462501583.693	 11	 -4.934026	 5.114950	 -1.949195	 -1.158838	 -0.236297	 0.533996	 0.048314	 -0.550479	 0.281488	 0.784477	 7
1462501583.713	 12	 -4.436638	 4.873401	 -1.909945	 -1.085441	 -0.241651	 0.430849	 0.008770	 -0.522914	 0.242523	 0.817109	 7
1462501583.723	 12	 -4.160825	 4.929360	 -1.855341	 -1.047748	 -0.245716	 0.383378	 -0.009584	 -0.507591	 0.223904	 0.831941	 7
1462501583.733	 12	 -3.829592	 4.980805	 -1.814050	 -1.008925	 -0.250320	 0.339062	 -0.026806	 -0.491120	 0.206020	 0.845954	 7
1462501583.743	 12	 -3.425412	 4.943267	 -1.840299	 -0.969540	 -0.254421	 0.298231	 -0.042333	 -0.473786	 0.188849	 0.859110	 7
1462501583.753	 12	 -3.003950	 4.781796	 -1.936061	 -0.930766	 -0.256975	 0.260631	 -0.055701	 -0.456172	 0.172185	 0.871296	 7
1462501583.773	 13	 -2.275576	 4.027583	 -2.243572	 -0.861092	 -0.255595	 0.192288	 -0.075545	 -0.423170	 0.139472	 0.892058	 7
1462501583.783	 13	 -1.993828	 3.514819	 -2.437305	 -0.832766	 -0.251353	 0.159999	 -0.082202	 -0.409143	 0.123044	 0.900392	 7
1462501583.793	 13	 -1.794982	 3.053521	 -2.607456	 -0.809014	 -0.245103	 0.128059	 -0.087156	 -0.397004	 0.106394	 0.907454	 7
1462501583.803	 13	 -1.674188	 2.747024	 -2.729659	 -0.788520	 -0.237615	 0.096106	 -0.090987	 -0.386234	 0.089514	 0.913527	 7
1462501583.813	 13	 -1.614479	 2.580315	 -2.813794	 -0.769835	 -0.229534	 0.063920	 -0.094163	 -0.376214	 0.072398	 0.918888	 7
1462501583.833	 14	 -1.562822	 2.683237	 -2.827141	 -0.732026	 -0.213811	 -0.000763	 -0.099770	 -0.355814	 0.037834	 0.928445	 7
1462501583.843	 14	 -1.540199	 2.867921	 -2.724372	 -0.710425	 -0.207235	 -0.032345	 -0.102557	 -0.344311	 0.020887	 0.933004	 7
1462501583.853	 14	 -1.500721	 2.987832	 -2.599972	 -0.686951	 -0.201892	 -0.062848	 -0.105368	 -0.331901	 0.004487	 0.937400	 7
1462501583.863	 14	 -1.439712	 2.931038	 -2.486995	 -0.663207	 -0.197547	 -0.092160	 -0.108065	 -0.319334	 -0.011272	 0.941393	 7
1462501583.873	 14	 -1.360123	 2.735965	 -2.368006	 -0.640740	 -0.193981	 -0.120128	 -0.110561	 -0.307355	 -0.026265	 0.944785	 7
1462501583.883	 14	 -1.248981	 2.459817	 -2.269230	 -0.620515	 -0.190806	 -0.146669	 -0.112734	 -0.296452	 -0.040449	 0.947508	 7
1462501583.893	 14	 -1.113333	 2.201454	 -2.201409	 -0.602614	 -0.187489	 -0.171858	 -0.114418	 -0.286704	 -0.053920	 0.949633	 7
1462501583.903	 14	 -0.971090	 1.999308	 -2.152307	 -0.586598	 -0.183693	 -0.195833	 -0.115525	 -0.277931	 -0.066801	 0.951287	 7
1462501583.913	 14	 -0.856275	 1.880071	 -2.121377	 -0.571722	 -0.179443	 -0.218839	 -0.116120	 -0.269782	 -0.079233	 0.952605	 7
1462501583.923	 14	 -0.773033	 1.876670	 -2.116805	 -0.556996	 -0.174806	 -0.241303	 -0.116280	 -0.261770	 -0.091457	 0.953725	 7
1462501583.933	 14	 -0.746751	 1.998021	 -2.092458	 -0.541182	 -0.170238	 -0.263473	 -0.116198	 -0.253265	 -0.103590	 0.954790	 7
1462501583.943	 14	 -0.738331	 2.151568	 -2.035683	 -0.523676	 -0.166214	 -0.285203	 -0.116030	 -0.243949	 -0.115531	 0.955865	 7
1462501583.953	 14	 -0.714342	 2.220968	 -1.989418	 -0.505050	 -0.162659	 -0.306450	 -0.115749	 -0.234100	 -0.127237	 0.956875	 7
1462501583.963	 14	 -0.677963	 2.203109	 -1.944073	 -0.486272	 -0.159408	 -0.327206	 -0.115333	 -0.224192	 -0.138670	 0.957709	 7
1462501583.973	 14	 -0.625801	 2.119417	 -1.877097	 -0.467980	 -0.156393	 -0.347224	 -0.114775	 -0.214551	 -0.149680	 0.958327	 7
1462501583.983	 14	 -0.558924	 1.990983	 -1.813863	 -0.450679	 -0.153467	 -0.366405	 -0.114056	 -0.205439	 -0.160210	 0.958707	 7
1462501583.993	 14	 -0.470923	 1.838892	 -1.777677	 -0.434708	 -0.150278	 -0.384858	 -0.113074	 -0.197051	 -0.170328	 0.958840	 7
1462501584.003	 14	 -0.396531	 1.752696	 -1.753549	 -0.419688	 -0.146759	 -0.402778	 -0.111812	 -0.189205	 -0.180153	 0.958772	 7
1462501584.013	 14	 -0.336608	 1.766522	 -1.729429	 -0.404629	 -0.143007	 -0.420250	 -0.110251	 -0.181417	 -0.189766	 0.958604	 7
1462501584.023	 14	 -0.296789	 1.828174	 -1.718545	 -0.388944	 -0.139175	 -0.437481	 -0.108428	 -0.173383	 -0.199278	 0.958368	 7
1462501584.033	 14	 -0.262227	 1.891036	 -1.689485	 -0.372492	 -0.135372	 -0.454411	 -0.106372	 -0.165028	 -0.208651	 0.958079	 7
1462501584.043	 14	 -0.238361	 1.938069	 -1.647691	 -0.355425	 -0.131749	 -0.470915	 -0.104153	 -0.156413	 -0.217800	 0.957732	 7
1462501584.053	 14	 -0.226317	 1.966005	 -1.603839	 -0.337907	 -0.128424	 -0.487024	 -0.101848	 -0.147602	 -0.226718	 0.957309	 7
1462501584.063	 14	 -0.205896	 1.950391	 -1.548743	 -0.320302	 -0.125370	 -0.502625	 -0.099477	 -0.138776	 -0.235335	 0.956798	 7
1462501584.073	 14	 -0.177286	 1.856086	 -1.488055	 -0.303317	 -0.122510	 -0.517614	 -0.097091	 -0.130285	 -0.243575	 0.956175	 7
1462501584.083	 14	 -0.156410	 1.695949	 -1.415124	 -0.287647	 -0.119885	 -0.531894	 -0.094806	 -0.122459	 -0.251358	 0.955424	 7
1462501584.093	 14	 -0.133537	 1.498647	 -1.332964	 -0.273758	 -0.117476	 -0.545391	 -0.092693	 -0.115520	 -0.258635	 0.954553	 7
1462501584.103	 14	 -0.110638	 1.291903	 -1.232774	 -0.261772	 -0.115274	 -0.557923	 -0.090783	 -0.109533	 -0.265321	 0.953607	 7
1462501584.113	 14	 -0.073759	 1.108511	 -1.133554	 -0.251574	 -0.113147	 -0.569405	 -0.089019	 -0.104457	 -0.271399	 0.952632	 7
1462501584.123	 14	 -0.028243	 0.967454	 -1.059594	 -0.242753	 -0.110895	 -0.580007	 -0.087284	 -0.100113	 -0.276986	 0.951650	 7
1462501584.133	 14	 0.017422	 0.872011	 -1.002262	 -0.234924	 -0.108430	 -0.589925	 -0.085509	 -0.096322	 -0.282200	 0.950670	 7
1462501584.143	 14	 0.058097	 0.849970	 -0.945270	 -0.227409	 -0.105754	 -0.599210	 -0.083612	 -0.092755	 -0.287098	 0.949727	 7
1462501584.153	 14	 0.089430	 0.883268	 -0.887682	 -0.219592	 -0.102952	 -0.607864	 -0.081549	 -0.089109	 -0.291699	 0.948853	 7
1462501584.163	 14	 0.129352	 0.938777	 -0.843817	 -0.211167	 -0.099965	 -0.615987	 -0.079254	 -0.085242	 -0.296065	 0.948050	 7
1462501584.183	 15	 0.279331	 1.003707	 -0.776310	 -0.192842	 -0.092470	 -0.630914	 -0.073570	 -0.077151	 -0.304250	 0.946608	 7
1462501584.193	 15	 0.357220	 0.966547	 -0.735769	 -0.183645	 -0.087746	 -0.637625	 -0.070186	 -0.073300	 -0.307999	 0.945959	 7
1462501584.203	 15	 0.422090	 0.887911	 -0.699764	 -0.175111	 -0.082473	 -0.643907	 -0.066602	 -0.069886	 -0.311521	 0.945323	 7
1462501584.223	 16	 0.462251	 0.718369	 -0.596181	 -0.159677	 -0.071493	 -0.654994	 -0.059370	 -0.064007	 -0.317746	 0.944148	 7
1462501584.233	 16	 0.454487	 0.594483	 -0.522663	 -0.153724	 -0.066128	 -0.659634	 -0.056039	 -0.061933	 -0.320336	 0.943615	 7
1462501584.243	 16	 0.428562	 0.483268	 -0.469119	 -0.148925	 -0.061099	 -0.663732	 -0.053025	 -0.060378	 -0.322605	 0.943117	 7
