% Gyrometer data recorded with 'snsrlog'
% 
% 
% Label description:
% 	 0: Default Label
% 	 1: still_drop
% 	 2: walk_drop
% 	 3: other
% 	 4: dtw_same
% 	 5: dtw_diff
% 	 6: delete
% 
% Column description:
% 	 1: Seconds.milliseconds since 1970
% 	 2: Number of skipped measurements
% 	 3: Gyro X
% 	 4: Gyro Y
% 	 5: Gyro Z
% 	 6: Roll of the device
% 	 7: Pitch of the device
% 	 8: Yaw of the device
% 	 9: Quaternion X
% 	 10: Quaternion Y
% 	 11: Quaternion Z
% 	 12: Quaternion W
% 	 13: Label used for the current sample
% 
% 
1462070149.832	 1	 0.350547	 0.880747	 -0.991472	 0.195797	 0.690626	 -0.077260	 0.340171	 0.078894	 -0.003106	 0.937043	 1
1462070149.842	 1	 0.420782	 1.032028	 -1.221946	 0.215980	 0.692196	 -0.093268	 0.341614	 0.085557	 -0.007075	 0.935911	 1
1462070149.852	 1	 0.439008	 1.076415	 -1.253665	 0.237723	 0.693641	 -0.110499	 0.343154	 0.092713	 -0.011321	 0.934624	 1
1462070149.862	 1	 0.369940	 0.983308	 -1.067422	 0.257764	 0.694692	 -0.125960	 0.344517	 0.099364	 -0.015025	 0.933386	 1
1462070149.872	 1	 0.208045	 0.790327	 -0.757671	 0.273475	 0.694940	 -0.137336	 0.345341	 0.104717	 -0.017604	 0.932451	 1
1462070149.882	 1	 0.004337	 0.595027	 -0.493419	 0.285530	 0.693727	 -0.145158	 0.345309	 0.109054	 -0.019262	 0.931932	 1
1462070149.892	 1	 -0.179105	 0.514570	 -0.368942	 0.293594	 0.691319	 -0.149525	 0.344516	 0.112199	 -0.020099	 0.931835	 1
1462070149.902	 1	 -0.337141	 0.493770	 -0.367760	 0.300720	 0.687419	 -0.152885	 0.342977	 0.115177	 -0.020760	 0.932025	 1
1462070149.912	 1	 -0.507134	 0.471554	 -0.419774	 0.307515	 0.681785	 -0.156090	 0.340632	 0.118141	 -0.021565	 0.932495	 1
1462070149.922	 1	 -0.683497	 0.457852	 -0.473786	 0.314075	 0.674282	 -0.159208	 0.337421	 0.121140	 -0.022550	 0.933254	 1
1462070149.932	 1	 -0.840580	 0.444224	 -0.509847	 0.320350	 0.665095	 -0.162085	 0.333419	 0.124169	 -0.023644	 0.934267	 1
1462070149.942	 1	 -0.962419	 0.434760	 -0.544044	 0.326321	 0.654536	 -0.164743	 0.328768	 0.127197	 -0.024837	 0.935476	 1
1462070149.952	 1	 -1.019842	 0.505952	 -0.576986	 0.332754	 0.643126	 -0.167396	 0.323730	 0.130515	 -0.026062	 0.936742	 1
1462070149.962	 1	 -1.008942	 0.576984	 -0.604130	 0.340130	 0.631615	 -0.170230	 0.318672	 0.134271	 -0.027267	 0.937910	 1
1462070149.972	 1	 -1.058989	 0.462562	 -0.709204	 0.347106	 0.619416	 -0.173818	 0.313344	 0.137789	 -0.028996	 0.939142	 1
1462070149.982	 1	 -0.935432	 0.584979	 -0.645195	 0.354557	 0.607961	 -0.177422	 0.308378	 0.141502	 -0.030630	 0.940182	 1
1462070149.992	 1	 -0.766176	 0.890229	 -0.577751	 0.364471	 0.598305	 -0.180661	 0.304271	 0.146328	 -0.031582	 0.940750	 1
1462070150.002	 1	 -0.563987	 1.203549	 -0.557412	 0.377797	 0.590535	 -0.184298	 0.301138	 0.152588	 -0.032060	 0.940747	 1
1462070150.012	 1	 -0.365143	 1.494471	 -0.546844	 0.394382	 0.584638	 -0.188557	 0.298995	 0.160169	 -0.032191	 0.940166	 1
1462070150.022	 1	 -0.219769	 1.765313	 -0.540261	 0.413963	 0.580206	 -0.193294	 0.297641	 0.168987	 -0.031980	 0.939058	 1
1462070150.032	 1	 -0.143119	 2.006060	 -0.604765	 0.436522	 0.576350	 -0.198911	 0.296703	 0.179028	 -0.031704	 0.937503	 1
1462070150.042	 1	 -0.139308	 2.164274	 -0.639562	 0.461134	 0.572373	 -0.205010	 0.295816	 0.189962	 -0.031392	 0.935640	 1
1462070150.052	 1	 -0.173047	 2.267405	 -0.658558	 0.486795	 0.567941	 -0.211004	 0.294762	 0.201429	 -0.030963	 0.933586	 1
1462070150.062	 1	 -0.216720	 2.360474	 -0.748967	 0.513569	 0.562675	 -0.217323	 0.293414	 0.213426	 -0.030671	 0.931352	 1
1462070150.072	 1	 -0.251032	 2.419331	 -0.860026	 0.541366	 0.556379	 -0.224368	 0.291736	 0.225870	 -0.030758	 0.928939	 1
1462070150.082	 1	 -0.250091	 2.478152	 -0.961800	 0.570055	 0.549283	 -0.232139	 0.289852	 0.238684	 -0.031227	 0.926305	 1
1462070150.092	 1	 -0.202972	 2.595360	 -1.060235	 0.600174	 0.541747	 -0.240840	 0.287980	 0.252055	 -0.032054	 0.923314	 1
1462070150.102	 1	 -0.107292	 2.813580	 -1.143233	 0.632706	 0.534152	 -0.250620	 0.286353	 0.266372	 -0.033109	 0.919756	 1
1462070150.112	 1	 0.031551	 3.106354	 -1.195006	 0.668515	 0.526940	 -0.261501	 0.285215	 0.281968	 -0.034202	 0.915411	 1
1462070150.122	 1	 0.200340	 3.408661	 -1.240560	 0.708060	 0.520193	 -0.273693	 0.284673	 0.298980	 -0.035332	 0.910123	 1
1462070150.132	 1	 0.325221	 3.652847	 -1.253245	 0.750875	 0.513542	 -0.286944	 0.284552	 0.317232	 -0.036495	 0.903915	 1
1462070150.142	 1	 0.358103	 3.803037	 -1.210578	 0.795095	 0.507174	 -0.299920	 0.284708	 0.336013	 -0.037303	 0.897020	 1
1462070150.152	 1	 0.351910	 3.797125	 -1.148769	 0.839075	 0.500913	 -0.312002	 0.284917	 0.354668	 -0.037737	 0.889724	 1
1462070150.162	 1	 0.330111	 3.667733	 -1.107159	 0.881516	 0.494354	 -0.323227	 0.284963	 0.372661	 -0.038088	 0.882309	 1
1462070150.172	 1	 0.276164	 3.539391	 -1.083414	 0.922390	 0.485434	 -0.333619	 0.283967	 0.390242	 -0.038860	 0.874965	 1
1462070150.182	 1	 0.210490	 3.445754	 -1.115691	 0.961382	 0.477670	 -0.343016	 0.283360	 0.406876	 -0.039248	 0.867536	 1
1462070150.192	 1	 0.135565	 3.524656	 -1.265642	 1.000454	 0.468394	 -0.352071	 0.282184	 0.423660	 -0.039893	 0.859821	 1
1462070150.202	 1	 0.082029	 3.670011	 -1.483371	 1.040890	 0.456700	 -0.361296	 0.280226	 0.441190	 -0.041098	 0.851549	 1
1462070150.212	 1	 0.074841	 3.857190	 -1.635036	 1.083036	 0.443043	 -0.370664	 0.277715	 0.459537	 -0.042740	 0.842540	 1
1462070150.222	 1	 0.158632	 4.039320	 -1.712937	 1.127092	 0.428482	 -0.380363	 0.275162	 0.478588	 -0.044629	 0.832615	 1
1462070150.232	 1	 0.285722	 4.095012	 -1.755090	 1.172261	 0.413579	 -0.390741	 0.272888	 0.497852	 -0.046872	 0.821875	 1
1462070150.242	 1	 0.336247	 3.937529	 -1.744206	 1.216235	 0.398532	 -0.401097	 0.270766	 0.516431	 -0.049432	 0.810890	 1
1462070150.252	 1	 0.257033	 3.625361	 -1.702725	 1.256758	 0.383287	 -0.410085	 0.268358	 0.533610	 -0.052079	 0.800332	 1
1462070150.262	 1	 0.064217	 3.214579	 -1.665436	 1.292361	 0.367633	 -0.416542	 0.265185	 0.549030	 -0.054618	 0.790734	 1
1462070150.272	 1	 -0.204784	 2.734725	 -1.650506	 1.322049	 0.351329	 -0.419745	 0.260858	 0.562474	 -0.056985	 0.782514	 1
1462070150.282	 1	 -0.513094	 2.306976	 -1.652868	 1.345993	 0.334263	 -0.419366	 0.255171	 0.574107	 -0.059074	 0.775757	 1
1462070150.292	 1	 -0.833452	 2.035649	 -1.650472	 1.365617	 0.316530	 -0.415305	 0.248102	 0.584496	 -0.060635	 0.770152	 1
1462070150.302	 1	 -1.099535	 1.949309	 -1.637235	 1.382988	 0.298407	 -0.407986	 0.239879	 0.594332	 -0.061486	 0.765145	 1
1462070150.312	 1	 -1.249601	 2.016917	 -1.615050	 1.400211	 0.280303	 -0.398471	 0.230990	 0.604216	 -0.061656	 0.760109	 1
1462070150.322	 1	 -1.263862	 2.165821	 -1.621001	 1.418701	 0.262299	 -0.388191	 0.221917	 0.614483	 -0.061518	 0.754572	 1
1462070150.332	 1	 -1.202109	 2.366617	 -1.627130	 1.439312	 0.244468	 -0.378079	 0.212998	 0.625323	 -0.061329	 0.748226	 1
1462070150.342	 1	 -1.064681	 2.542769	 -1.627753	 1.462173	 0.226997	 -0.368816	 0.204524	 0.636675	 -0.061292	 0.740984	 1
1462070150.352	 1	 -0.877609	 2.616612	 -1.636155	 1.486546	 0.209841	 -0.361004	 0.196670	 0.648204	 -0.061730	 0.733036	 1
1462070150.362	 1	 -0.733911	 2.539597	 -1.638123	 1.510909	 0.192954	 -0.354429	 0.189329	 0.659382	 -0.062724	 0.724870	 1
1462070150.372	 1	 -0.676075	 2.342789	 -1.620209	 1.533753	 0.176379	 -0.348265	 0.182214	 0.669752	 -0.064082	 0.717024	 1
1462070150.382	 1	 -0.675131	 2.056966	 -1.580246	 1.554007	 0.160296	 -0.341867	 0.175137	 0.678999	 -0.065579	 0.709920	 1
1462070150.392	 1	 -0.680837	 1.714825	 -1.535421	 1.570989	 0.144787	 -0.335127	 0.168058	 0.686915	 -0.067178	 0.703841	 1
1462070150.402	 1	 -0.692952	 1.387456	 -1.509586	 1.584686	 0.129698	 -0.328059	 0.160915	 0.693536	 -0.068900	 0.698832	 1
1462070150.412	 1	 -0.702905	 1.095983	 -1.519672	 1.595456	 0.114692	 -0.320713	 0.153611	 0.699036	 -0.070822	 0.694793	 1
1462070150.422	 1	 -0.715974	 0.851074	 -1.563402	 1.603731	 0.099397	 -0.313095	 0.146028	 0.703604	 -0.073016	 0.691582	 1
1462070150.432	 1	 -0.706986	 0.672712	 -1.611274	 1.610148	 0.083672	 -0.305383	 0.138199	 0.707463	 -0.075522	 0.688981	 1
1462070150.442	 1	 -0.694750	 0.566192	 -1.628358	 1.615458	 0.067713	 -0.297711	 0.130259	 0.710848	 -0.078249	 0.686735	 1
1462070150.452	 1	 -0.690653	 0.503654	 -1.597003	 1.620182	 0.051984	 -0.290034	 0.122369	 0.713916	 -0.080968	 0.684686	 1
1462070150.462	 1	 -0.668297	 0.443383	 -1.539141	 1.624422	 0.036801	 -0.282467	 0.114682	 0.716680	 -0.083593	 0.682811	 1
1462070150.472	 1	 -0.591284	 0.422389	 -1.469667	 1.628460	 0.022298	 -0.275511	 0.107433	 0.719213	 -0.086224	 0.680997	 1
1462070150.482	 1	 -0.445594	 0.482021	 -1.401106	 1.632962	 0.008447	 -0.269815	 0.100879	 0.721724	 -0.089053	 0.678976	 1
1462070150.492	 1	 -0.238514	 0.679579	 -1.355243	 1.639159	 -0.004975	 -0.265991	 0.095232	 0.724628	 -0.092307	 0.676258	 1
1462070150.502	 1	 0.023515	 1.003410	 -1.327867	 1.648329	 -0.018250	 -0.264570	 0.090665	 0.728355	 -0.096218	 0.672325	 1
1462070150.512	 1	 0.317825	 1.387736	 -1.305538	 1.661208	 -0.031528	 -0.265880	 0.087317	 0.733142	 -0.100920	 0.666853	 1
1462070150.522	 1	 0.618511	 1.758285	 -1.273800	 1.677719	 -0.044826	 -0.270040	 0.085267	 0.738942	 -0.106458	 0.659819	 1
1462070150.532	 1	 0.890170	 2.066318	 -1.221077	 1.697333	 -0.058068	 -0.276806	 0.084478	 0.745558	 -0.112728	 0.651383	 1
1462070150.542	 1	 1.093852	 2.200258	 -1.149132	 1.718554	 -0.071072	 -0.285606	 0.084756	 0.752490	 -0.119507	 0.642101	 1
1462070150.552	 1	 1.211234	 2.135579	 -1.074021	 1.739373	 -0.083738	 -0.295636	 0.085736	 0.759108	 -0.126557	 0.632762	 1
1462070150.562	 1	 1.243979	 1.984078	 -0.978732	 1.758689	 -0.095811	 -0.306109	 0.087128	 0.765098	 -0.133561	 0.623855	 1
1462070150.572	 1	 1.208229	 1.782859	 -0.873717	 1.776010	 -0.107024	 -0.316367	 0.088708	 0.770348	 -0.140227	 0.615655	 1
1462070150.582	 1	 1.131726	 1.529727	 -0.757106	 1.790889	 -0.117151	 -0.326037	 0.090340	 0.774758	 -0.146375	 0.608410	 1
1462070150.592	 1	 1.014582	 1.247026	 -0.627628	 1.803002	 -0.125925	 -0.334817	 0.091928	 0.778268	 -0.151833	 0.602325	 1
1462070150.602	 1	 0.865464	 0.988746	 -0.516828	 1.812532	 -0.133328	 -0.342397	 0.093333	 0.780974	 -0.156501	 0.597391	 1
1462070150.612	 1	 0.692934	 0.754909	 -0.418386	 1.819828	 -0.139418	 -0.348528	 0.094439	 0.783019	 -0.160321	 0.593515	 1
1462070150.622	 1	 0.492748	 0.543460	 -0.323758	 1.825135	 -0.144139	 -0.352971	 0.095166	 0.784501	 -0.163199	 0.590650	 1
1462070150.632	 1	 0.296101	 0.394828	 -0.218984	 1.829007	 -0.147386	 -0.355700	 0.095565	 0.785595	 -0.165068	 0.588609	 1
1462070150.642	 1	 0.175558	 0.310907	 -0.106810	 1.832048	 -0.149202	 -0.357294	 0.095890	 0.786457	 -0.166090	 0.587115	 1
1462070150.662	 2	 0.266261	 0.323113	 0.146165	 1.837297	 -0.149343	 -0.361466	 0.097926	 0.787796	 -0.167112	 0.584688	 1
1462070150.672	 2	 0.425431	 0.469343	 0.281492	 1.840927	 -0.147963	 -0.365865	 0.100381	 0.788603	 -0.167684	 0.583019	 1
1462070150.682	 2	 0.610358	 0.652671	 0.409479	 1.846036	 -0.145841	 -0.372379	 0.104021	 0.789700	 -0.168498	 0.580657	 1
1462070150.692	 2	 0.780290	 0.828559	 0.532199	 1.852649	 -0.143049	 -0.380951	 0.108806	 0.791081	 -0.169547	 0.577587	 1
1462070150.702	 2	 0.906489	 1.009889	 0.654284	 1.860838	 -0.139527	 -0.391243	 0.114630	 0.792759	 -0.170687	 0.573812	 1
1462070150.712	 2	 0.962137	 1.193317	 0.743965	 1.870758	 -0.135381	 -0.402565	 0.121203	 0.794796	 -0.171725	 0.569316	 1
1462070150.722	 2	 0.919436	 1.361963	 0.808786	 1.882471	 -0.130624	 -0.413983	 0.128155	 0.797243	 -0.172375	 0.564151	 1
1462070150.732	 2	 0.814298	 1.443342	 0.841366	 1.895395	 -0.125324	 -0.424690	 0.135089	 0.799978	 -0.172455	 0.558611	 1
1462070150.742	 2	 0.691499	 1.445675	 0.820075	 1.908696	 -0.119823	 -0.434287	 0.141667	 0.802805	 -0.172039	 0.553026	 1
1462070150.752	 2	 0.500056	 1.417002	 0.749004	 1.922075	 -0.114478	 -0.442161	 0.147508	 0.805707	 -0.171128	 0.547533	 1
1462070150.762	 2	 0.147827	 1.267297	 0.643035	 1.934664	 -0.109032	 -0.446877	 0.152022	 0.808566	 -0.169311	 0.542628	 1
1462070150.772	 2	 -0.445218	 1.026333	 0.469040	 1.945653	 -0.103198	 -0.446096	 0.154261	 0.811356	 -0.165935	 0.538860	 1
1462070150.782	 2	 -1.074332	 0.590955	 0.311668	 1.953574	 -0.096522	 -0.438721	 0.153767	 0.813779	 -0.160670	 0.536941	 1
1462070150.792	 2	 -1.427367	 0.041361	 0.209446	 1.956399	 -0.089267	 -0.426926	 0.151195	 0.815138	 -0.154372	 0.537456	 1
1462070150.802	 2	 -1.419348	 -0.275779	 0.187241	 1.955348	 -0.082118	 -0.414209	 0.147909	 0.815514	 -0.148148	 0.539548	 1
1462070150.812	 2	 -1.319400	 -0.423312	 0.270259	 1.952278	 -0.074861	 -0.402692	 0.145001	 0.815231	 -0.142332	 0.542324	 1
1462070150.822	 2	 -1.365910	 -0.392840	 0.346617	 1.949018	 -0.066754	 -0.391367	 0.142410	 0.814827	 -0.136215	 0.545181	 1
1462070150.832	 2	 -1.384777	 -0.341549	 0.371771	 1.946215	 -0.058266	 -0.379789	 0.139869	 0.814528	 -0.129820	 0.547838	 1
1462070150.842	 2	 -1.229676	 -0.306548	 0.420837	 1.943620	 -0.049782	 -0.369340	 0.137814	 0.814190	 -0.123701	 0.550273	 1
1462070150.852	 2	 -0.889542	 -0.195416	 0.482855	 1.941656	 -0.041872	 -0.361849	 0.136854	 0.813831	 -0.118570	 0.552170	 1
1462070150.862	 2	 -0.478103	 0.059447	 0.593550	 1.941669	 -0.034524	 -0.358475	 0.137533	 0.813751	 -0.114662	 0.552943	 1
1462070150.872	 2	 -0.156916	 0.386057	 0.734473	 1.944682	 -0.027184	 -0.358895	 0.139919	 0.814232	 -0.111593	 0.552265	 1
1462070150.882	 2	 -0.004473	 0.688668	 0.871313	 1.950774	 -0.019287	 -0.361675	 0.143577	 0.815353	 -0.108720	 0.550241	 1
1462070150.892	 2	 -0.003919	 0.919381	 1.005610	 1.959387	 -0.010284	 -0.365362	 0.148023	 0.817020	 -0.105435	 0.547221	 1
1462070150.902	 2	 -0.141844	 1.017208	 1.092982	 1.969436	 0.000019	 -0.368577	 0.152671	 0.819008	 -0.101346	 0.543734	 1
1462070150.912	 2	 -0.368660	 0.875524	 1.117085	 1.978695	 0.011499	 -0.370093	 0.156858	 0.820806	 -0.096331	 0.540734	 1
1462070150.922	 2	 -0.565726	 0.545986	 1.062447	 1.985032	 0.023474	 -0.369633	 0.160182	 0.821907	 -0.090776	 0.539045	 1
1462070150.932	 2	 -0.670447	 0.146730	 0.964790	 1.987479	 0.035172	 -0.367685	 0.162615	 0.822068	 -0.085228	 0.538977	 1
1462070150.942	 2	 -0.691065	 -0.258413	 0.822651	 1.985757	 0.045828	 -0.364874	 0.164232	 0.821214	 -0.080211	 0.540556	 1
1462070150.952	 2	 -0.706164	 -0.590480	 0.639578	 1.980436	 0.054933	 -0.361200	 0.164950	 0.819531	 -0.075896	 0.543508	 1
1462070150.962	 2	 -0.706791	 -0.809725	 0.473416	 1.972563	 0.062432	 -0.356699	 0.164829	 0.817296	 -0.072227	 0.547396	 1
1462070150.972	 2	 -0.712151	 -0.941392	 0.355004	 1.963086	 0.068703	 -0.351635	 0.164122	 0.814718	 -0.069037	 0.551844	 1
1462070150.982	 2	 -0.741327	 -0.944075	 0.266775	 1.953165	 0.074115	 -0.345917	 0.162933	 0.812096	 -0.066043	 0.556409	 1
1462070150.992	 2	 -0.778317	 -0.829427	 0.221270	 1.944043	 0.079084	 -0.339594	 0.161436	 0.809746	 -0.062985	 0.560609	 1
1462070151.002	 2	 -0.801993	 -0.626370	 0.198853	 1.936685	 0.083860	 -0.332861	 0.159803	 0.807913	 -0.059732	 0.564066	 1
1462070151.012	 2	 -0.765716	 -0.392562	 0.187924	 1.931616	 0.088399	 -0.326231	 0.158236	 0.806717	 -0.056411	 0.566556	 1
1462070151.022	 2	 -0.673166	 -0.232200	 0.191808	 1.928428	 0.092647	 -0.320332	 0.156950	 0.806005	 -0.053259	 0.568231	 1
1462070151.032	 2	 -0.549144	 -0.173081	 0.180606	 1.926218	 0.095403	 -0.315517	 0.155720	 0.805576	 -0.050940	 0.569389	 1
1462070151.042	 2	 -0.430982	 -0.189777	 0.126134	 1.924027	 0.098337	 -0.311690	 0.154942	 0.805061	 -0.048825	 0.570514	 1
1462070151.052	 2	 -0.376087	 -0.252184	 0.049406	 1.921357	 0.100308	 -0.308302	 0.154065	 0.804433	 -0.047262	 0.571767	 1
1462070151.062	 2	 -0.381192	 -0.373901	 -0.016694	 1.917601	 0.101564	 -0.304739	 0.152897	 0.803551	 -0.046020	 0.573420	 1
1462070151.072	 2	 -0.453713	 -0.548335	 -0.045590	 1.911570	 0.088687	 -0.300461	 0.147410	 0.802946	 -0.050469	 0.575327	 1
1462070151.082	 2	 -0.599736	 -0.734057	 -0.048178	 1.904205	 0.090084	 -0.295001	 0.145433	 0.801136	 -0.048868	 0.578483	 1
1462070151.092	 2	 -0.787348	 -0.909057	 -0.055633	 1.894901	 0.091978	 -0.287793	 0.142867	 0.798840	 -0.046681	 0.582464	 1
1462070151.102	 2	 -0.957584	 -1.027672	 -0.054189	 1.884026	 0.094319	 -0.278890	 0.139743	 0.796149	 -0.043904	 0.587104	 1
1462070151.112	 2	 -1.108198	 -1.049633	 -0.063742	 1.872709	 0.096919	 -0.268444	 0.136106	 0.793379	 -0.040562	 0.591928	 1
1462070151.122	 2	 -1.216704	 -0.986473	 -0.051551	 1.861501	 0.099869	 -0.256814	 0.132145	 0.790656	 -0.036678	 0.596704	 1
1462070151.132	 2	 -1.242672	 -0.851184	 -0.033014	 1.851389	 0.103006	 -0.244733	 0.128125	 0.788234	 -0.032469	 0.601013	 1
1462070151.142	 2	 -1.154261	 -0.665266	 -0.026725	 1.843037	 0.105981	 -0.233211	 0.124345	 0.786276	 -0.028341	 0.604571	 1
1462070151.152	 2	 -0.950505	 -0.451052	 -0.031835	 1.836927	 0.108377	 -0.223352	 0.121105	 0.784896	 -0.024779	 0.607172	 1
1462070151.162	 2	 -0.591919	 -0.204435	 -0.052912	 1.833492	 0.109761	 -0.216452	 0.118772	 0.784190	 -0.022340	 0.608638	 1
1462070151.172	 2	 -0.146770	 0.123347	 -0.140064	 1.833559	 0.109305	 -0.213724	 0.117566	 0.784397	 -0.021686	 0.608629	 1
1462070151.182	 2	 0.140510	 0.488629	 -0.253203	 1.837558	 0.106924	 -0.213897	 0.116966	 0.785729	 -0.022447	 0.606996	 1
1462070151.192	 2	 0.291958	 0.809473	 -0.389019	 1.845065	 0.102813	 -0.215477	 0.116448	 0.788128	 -0.024119	 0.603914	 1
1462070151.202	 2	 0.343792	 1.021327	 -0.487681	 1.855042	 0.097398	 -0.217425	 0.115737	 0.791301	 -0.026282	 0.599798	 1
1462070151.212	 2	 0.337491	 1.077419	 -0.528669	 1.865926	 0.091422	 -0.219234	 0.114843	 0.794755	 -0.028583	 0.595280	 1
1462070151.222	 2	 0.262489	 1.031750	 -0.549756	 1.876485	 0.085375	 -0.220364	 0.113680	 0.798125	 -0.030740	 0.590871	 1
1462070151.232	 2	 0.109280	 0.928815	 -0.579221	 1.886075	 0.079472	 -0.220049	 0.111989	 0.801255	 -0.032482	 0.586850	 1
1462070151.242	 2	 -0.070882	 0.801210	 -0.648114	 1.894229	 0.073592	 -0.217814	 0.109527	 0.804043	 -0.033751	 0.583420	 1
1462070151.252	 2	 -0.200959	 0.704963	 -0.772572	 1.901209	 0.067169	 -0.213788	 0.106176	 0.806584	 -0.034804	 0.580463	 1
1462070151.262	 2	 -0.267098	 0.635778	 -0.952753	 1.907394	 0.059447	 -0.208418	 0.101902	 0.808989	 -0.036061	 0.577800	 1
1462070151.272	 2	 -0.321599	 0.534741	 -1.120544	 1.912663	 0.050269	 -0.201926	 0.096744	 0.811204	 -0.037660	 0.575474	 1
1462070151.282	 2	 -0.412492	 0.361907	 -1.230068	 1.916413	 0.040212	 -0.194211	 0.090813	 0.813022	 -0.039364	 0.573759	 1
1462070151.292	 2	 -0.535628	 0.083305	 -1.271022	 1.917721	 0.030027	 -0.185163	 0.084252	 0.814143	 -0.040866	 0.573065	 1
1462070151.302	 2	 -0.648589	 -0.355456	 -1.246411	 1.915087	 0.020311	 -0.175060	 0.077307	 0.814097	 -0.042036	 0.574024	 1
1462070151.312	 2	 -0.689341	 -0.917403	 -1.166025	 1.907221	 0.011407	 -0.164623	 0.070339	 0.812465	 -0.042947	 0.577156	 1
1462070151.322	 2	 -0.620735	 -1.377517	 -1.079248	 1.894393	 0.003098	 -0.154953	 0.063733	 0.809275	 -0.043944	 0.582306	 1
1462070151.332	 2	 -0.490749	 -1.529069	 -0.951767	 1.879258	 -0.004682	 -0.146896	 0.057866	 0.805262	 -0.045187	 0.588356	 1
1462070151.342	 2	 -0.384364	 -1.357389	 -0.701707	 1.865098	 -0.010844	 -0.140736	 0.053246	 0.801369	 -0.046233	 0.594000	 1
1462070151.352	 2	 -0.348346	 -0.956728	 -0.438247	 1.854532	 -0.014612	 -0.135907	 0.049945	 0.798412	 -0.046572	 0.598226	 1
1462070151.362	 2	 -0.352406	 -0.587607	 -0.286636	 1.847839	 -0.016684	 -0.131671	 0.047478	 0.796544	 -0.046291	 0.600933	 1
1462070151.372	 2	 -0.358968	 -0.227584	 -0.217151	 1.844734	 -0.017937	 -0.127599	 0.045408	 0.795725	 -0.045637	 0.602227	 1
1462070151.382	 2	 -0.332834	 0.069430	 -0.169853	 1.844822	 -0.018759	 -0.123830	 0.043663	 0.795848	 -0.044826	 0.602254	 1
1462070151.402	 3	 -0.202728	 0.249035	 -0.137341	 1.849423	 -0.020131	 -0.118198	 0.041108	 0.797371	 -0.043581	 0.600509	 1
1462070151.412	 3	 -0.158178	 0.196742	 -0.143545	 1.851591	 -0.021024	 -0.116213	 0.040095	 0.798074	 -0.043298	 0.599663	 1
1462070151.422	 3	 -0.141650	 0.093415	 -0.158505	 1.852846	 -0.022118	 -0.114396	 0.039069	 0.798500	 -0.043164	 0.599173	 1
1462070151.432	 3	 -0.119796	 -0.033144	 -0.148150	 1.852844	 -0.023235	 -0.112770	 0.038084	 0.798545	 -0.043123	 0.599180	 1
1462070151.442	 3	 -0.106955	 -0.057619	 -0.115309	 1.852296	 -0.024108	 -0.111370	 0.037252	 0.798417	 -0.043062	 0.599406	 1
1462070151.452	 3	 -0.089674	 -0.042531	 -0.081215	 1.851860	 -0.024712	 -0.110228	 0.036605	 0.798315	 -0.042969	 0.599589	 1
1462070151.462	 3	 -0.077708	 -0.028446	 -0.040689	 1.851577	 -0.024989	 -0.109317	 0.036152	 0.798250	 -0.042811	 0.599715	 1
1462070151.472	 3	 -0.088076	 -0.004666	 0.007582	 1.851486	 -0.024796	 -0.108494	 0.035879	 0.798235	 -0.042489	 0.599773	 1
1462070151.482	 3	 -0.113375	 0.030775	 0.044368	 1.851725	 -0.024155	 -0.107559	 0.035704	 0.798316	 -0.041949	 0.599714	 1
1462070151.492	 3	 -0.124857	 0.060801	 0.073523	 1.852292	 -0.023173	 -0.106559	 0.035611	 0.798493	 -0.041247	 0.599533	 1
1462070151.502	 3	 -0.118298	 0.075827	 0.094921	 1.853050	 -0.021966	 -0.105649	 0.035626	 0.798722	 -0.040480	 0.599279	 1
1462070151.512	 3	 -0.092612	 0.079050	 0.109648	 1.853849	 -0.020669	 -0.104961	 0.035756	 0.798959	 -0.039741	 0.599004	 1
1462070151.522	 3	 -0.073239	 0.094053	 0.133066	 1.854743	 -0.019201	 -0.104620	 0.036078	 0.799216	 -0.039037	 0.598689	 1
1462070151.532	 3	 -0.053047	 0.073806	 0.135899	 1.855565	 -0.017765	 -0.104404	 0.036438	 0.799448	 -0.038384	 0.598399	 1
1462070151.542	 3	 -0.015547	 0.076076	 0.170764	 1.856273	 -0.016150	 -0.104626	 0.037023	 0.799636	 -0.037793	 0.598149	 1
1462070151.552	 3	 0.008223	 0.115555	 0.197568	 1.857324	 -0.014332	 -0.105196	 0.037815	 0.799917	 -0.037216	 0.597761	 1
1462070151.562	 3	 0.023494	 0.164616	 0.222404	 1.858831	 -0.012310	 -0.105992	 0.038766	 0.800325	 -0.036617	 0.597190	 1
1462070151.572	 3	 0.039793	 0.208410	 0.241825	 1.868052	 -0.009980	 -0.106939	 0.040007	 0.803020	 -0.035784	 0.593530	 1
1462070151.582	 3	 0.059198	 0.237180	 0.256844	 1.870359	 -0.007726	 -0.108201	 0.041223	 0.803646	 -0.035206	 0.592633	 1
1462070151.592	 3	 0.092437	 0.255294	 0.274841	 1.872858	 -0.005386	 -0.109789	 0.042599	 0.804318	 -0.034683	 0.591654	 1
1462070151.602	 3	 0.119088	 0.246728	 0.277727	 1.875354	 -0.003078	 -0.111731	 0.044105	 0.804978	 -0.034275	 0.590669	 1
1462070151.612	 3	 0.122167	 0.233842	 0.261604	 1.877895	 0.000177	 -0.113701	 0.045902	 0.805630	 -0.033489	 0.589687	 1
1462070151.622	 3	 0.056609	 0.191020	 0.196765	 1.879951	 0.001977	 -0.115110	 0.047034	 0.806172	 -0.033131	 0.588877	 1
1462070151.632	 3	 -0.038795	 0.151508	 0.136480	 1.881546	 0.003465	 -0.115404	 0.047617	 0.806609	 -0.032579	 0.588263	 1
1462070151.642	 3	 -0.073265	 0.115175	 0.099140	 1.882793	 0.004698	 -0.115088	 0.047872	 0.806961	 -0.031959	 0.587793	 1
1462070151.652	 3	 -0.072406	 0.093673	 0.072314	 1.881086	 0.007084	 -0.114608	 0.048353	 0.806427	 -0.030897	 0.588542	 1
1462070151.662	 3	 -0.052332	 0.075321	 0.043193	 1.881895	 0.007739	 -0.114208	 0.048397	 0.806663	 -0.030495	 0.588237	 1
1462070151.672	 3	 -0.032288	 0.050587	 0.014013	 1.882458	 0.008055	 -0.113915	 0.048380	 0.806830	 -0.030268	 0.588021	 1
1462070151.682	 3	 -0.012192	 0.027002	 -0.003434	 1.882790	 0.008105	 -0.113753	 0.048334	 0.806931	 -0.030192	 0.587890	 1
1462070151.692	 3	 0.005819	 0.004578	 -0.010197	 1.883887	 0.008041	 -0.113747	 0.048330	 0.807254	 -0.030190	 0.587446	 1
1462070151.702	 3	 0.026064	 -0.007130	 -0.004091	 1.884353	 0.007792	 -0.113929	 0.048337	 0.807391	 -0.030332	 0.587250	 1
1462070151.712	 3	 0.042095	 -0.015569	 0.011673	 1.884455	 0.007443	 -0.114313	 0.048392	 0.807418	 -0.030583	 0.587195	 1
1462070151.722	 3	 0.062414	 -0.025036	 0.033785	 1.884602	 0.007314	 -0.114965	 0.048619	 0.807448	 -0.030823	 0.587123	 1
1462070151.732	 3	 0.073112	 -0.034505	 0.051715	 1.884685	 0.007121	 -0.115792	 0.048897	 0.807456	 -0.031142	 0.587073	 1
1462070151.742	 3	 0.082773	 -0.038649	 0.070776	 1.884306	 0.007497	 -0.116755	 0.049391	 0.807314	 -0.031282	 0.587219	 1
1462070151.752	 3	 0.087145	 -0.031088	 0.087860	 1.884344	 0.008076	 -0.117827	 0.049994	 0.807288	 -0.031363	 0.587200	 1
1462070151.762	 3	 0.096867	 -0.022464	 0.107040	 1.884434	 0.008945	 -0.119065	 0.050750	 0.807266	 -0.031373	 0.587164	 1
1462070151.772	 3	 0.079809	 -0.013942	 0.100875	 1.884766	 0.009999	 -0.120197	 0.051521	 0.807314	 -0.031271	 0.587036	 1
1462070151.782	 3	 0.055297	 0.005175	 0.086347	 1.885124	 0.010876	 -0.121062	 0.052133	 0.807379	 -0.031161	 0.586898	 1
1462070151.792	 3	 0.043552	 0.018909	 0.068462	 1.885485	 0.011746	 -0.121725	 0.052661	 0.807450	 -0.030995	 0.586762	 1
1462070151.802	 3	 0.026404	 0.023042	 0.045207	 1.885485	 0.012329	 -0.122173	 0.053013	 0.807427	 -0.030891	 0.586769	 1
1462070151.812	 3	 0.012448	 0.025033	 0.021904	 1.885177	 0.012744	 -0.122411	 0.053226	 0.807321	 -0.030801	 0.586899	 1
1462070151.822	 3	 0.008120	 0.025987	 0.005969	 1.884984	 0.013001	 -0.122523	 0.053343	 0.807257	 -0.030736	 0.586981	 1
1462070151.832	 3	 0.003842	 0.031254	 -0.002470	 1.885132	 0.013003	 -0.122578	 0.053369	 0.807299	 -0.030747	 0.586920	 1
1462070151.842	 3	 -0.001526	 0.028048	 -0.006719	 1.885460	 0.012784	 -0.122557	 0.053301	 0.807400	 -0.030820	 0.586783	 1
1462070151.852	 3	 0.001648	 0.019556	 -0.003632	 1.885898	 0.012517	 -0.122554	 0.053229	 0.807534	 -0.030916	 0.586600	 1
1462070151.862	 3	 -0.003683	 0.014311	 0.003820	 1.886330	 0.012108	 -0.122547	 0.053112	 0.807669	 -0.031067	 0.586416	 1
1462070151.872	 3	 -0.010081	 0.009069	 0.011284	 1.886641	 0.012065	 -0.122487	 0.053080	 0.807763	 -0.031059	 0.586291	 1
1462070151.882	 3	 -0.009018	 0.003789	 0.016551	 1.886916	 0.012015	 -0.122450	 0.053055	 0.807845	 -0.031061	 0.586179	 1
1462070151.892	 3	 -0.009052	 -0.006816	 0.020712	 1.886927	 0.012009	 -0.122414	 0.053039	 0.807850	 -0.031053	 0.586175	 1
1462070151.902	 3	 -0.009053	 -0.008926	 0.022823	 1.886993	 0.012226	 -0.122394	 0.053096	 0.807865	 -0.030958	 0.586154	 1
1462070151.912	 3	 -0.006946	 -0.011090	 0.018521	 1.886956	 0.012373	 -0.122387	 0.053135	 0.807852	 -0.030897	 0.586172	 1
1462070151.922	 3	 0.000473	 -0.016476	 0.012013	 1.886875	 0.012667	 -0.122421	 0.053234	 0.807821	 -0.030790	 0.586211	 1
1462070151.932	 3	 0.004746	 -0.016480	 0.013044	 1.886728	 0.012902	 -0.122490	 0.053328	 0.807771	 -0.030719	 0.586275	 1
1462070151.942	 3	 0.006833	 -0.022899	 0.008704	 1.886559	 0.013099	 -0.122581	 0.053420	 0.807715	 -0.030671	 0.586346	 1
1462070151.952	 3	 0.013177	 -0.032513	 0.005364	 1.886307	 0.013220	 -0.122710	 0.053504	 0.807635	 -0.030666	 0.586449	 1
1462070151.962	 3	 0.017413	 -0.035747	 0.001035	 1.885983	 0.013269	 -0.122878	 0.053581	 0.807535	 -0.030705	 0.586578	 1
1462070151.972	 3	 0.021656	 -0.041080	 0.000950	 1.885480	 0.013326	 -0.123068	 0.053667	 0.807381	 -0.030751	 0.586780	 1
1462070151.982	 3	 0.031243	 -0.046412	 0.002949	 1.885032	 0.013250	 -0.123354	 0.053753	 0.807243	 -0.030878	 0.586954	 1
1462070151.992	 3	 0.035474	 -0.057039	 0.006010	 1.884442	 0.013199	 -0.123693	 0.053866	 0.807062	 -0.031013	 0.587186	 1
1462070152.002	 3	 0.040818	 -0.063366	 0.015496	 1.883910	 0.013185	 -0.124124	 0.054027	 0.806895	 -0.031160	 0.587394	 1
1462070152.012	 3	 0.038685	 -0.067574	 0.020805	 1.883355	 0.013310	 -0.124547	 0.054226	 0.806718	 -0.031249	 0.587614	 1
1462070152.022	 3	 0.045128	 -0.064356	 0.027174	 1.882681	 0.013465	 -0.125056	 0.054466	 0.806502	 -0.031354	 0.587881	 1
1462070152.032	 3	 0.045133	 -0.058020	 0.020839	 1.882087	 0.013582	 -0.125560	 0.054694	 0.806312	 -0.031471	 0.588115	 1
1462070152.042	 3	 0.040900	 -0.049507	 0.019891	 1.881505	 0.013714	 -0.126015	 0.054907	 0.806125	 -0.031568	 0.588346	 1
1462070152.052	 3	 0.037697	 -0.046340	 0.015686	 1.880931	 0.013799	 -0.126426	 0.055089	 0.805943	 -0.031670	 0.588573	 1
1462070152.062	 3	 0.036629	 -0.041066	 0.009350	 1.880435	 0.013798	 -0.126815	 0.055237	 0.805786	 -0.031799	 0.588767	 1
1462070152.072	 3	 0.032367	 -0.032607	 0.000942	 1.880001	 0.013817	 -0.127133	 0.055364	 0.805649	 -0.031897	 0.588937	 1
1462070152.082	 3	 0.031313	 -0.026256	 -0.003252	 1.879593	 0.013758	 -0.127421	 0.055456	 0.805523	 -0.032017	 0.589095	 1
1462070152.092	 3	 0.019625	 -0.015585	 -0.003051	 1.879377	 0.013646	 -0.127632	 0.055505	 0.805455	 -0.032130	 0.589176	 1
1462070152.102	 3	 0.002623	 0.001467	 -0.004875	 1.879223	 0.013591	 -0.127674	 0.055503	 0.805410	 -0.032169	 0.589236	 1
1462070152.112	 3	 -0.001579	 0.016358	 -0.005765	 1.879119	 0.013540	 -0.127636	 0.055471	 0.805382	 -0.032181	 0.589277	 1
1462070152.122	 3	 -0.001553	 0.022731	 -0.006772	 1.879248	 0.013448	 -0.127591	 0.055428	 0.805423	 -0.032201	 0.589224	 1
1462070152.132	 3	 -0.005804	 0.023828	 -0.003528	 1.879367	 0.013381	 -0.127535	 0.055388	 0.805461	 -0.032209	 0.589175	 1
1462070152.142	 3	 -0.008997	 0.023852	 -0.001369	 1.879574	 0.013360	 -0.127442	 0.055347	 0.805525	 -0.032184	 0.589093	 1
1462070152.152	 3	 -0.010040	 0.027062	 0.000802	 1.879829	 0.013386	 -0.127342	 0.055319	 0.805602	 -0.032137	 0.588992	 1
1462070152.162	 3	 -0.010013	 0.029218	 0.005085	 1.880046	 0.013446	 -0.127256	 0.055305	 0.805667	 -0.032081	 0.588908	 1
1462070152.172	 3	 -0.003592	 0.031340	 0.007180	 1.880269	 0.013525	 -0.127229	 0.055321	 0.805732	 -0.032035	 0.588821	 1
1462070152.182	 3	 -0.002536	 0.028153	 0.008208	 1.880550	 0.013651	 -0.127228	 0.055363	 0.805812	 -0.031976	 0.588710	 1
1462070152.192	 3	 -0.000409	 0.024972	 0.010292	 1.880847	 0.013782	 -0.127251	 0.055415	 0.805896	 -0.031922	 0.588593	 1
1462070152.202	 3	 0.000647	 0.021786	 0.011320	 1.881080	 0.013918	 -0.127285	 0.055473	 0.805961	 -0.031871	 0.588502	 1
1462070152.222	 4	 -0.001520	 0.017514	 0.008103	 1.881454	 0.014184	 -0.127336	 0.055577	 0.806063	 -0.031768	 0.588357	 1
1462070152.232	 4	 -0.002601	 0.017493	 0.004916	 1.881602	 0.014274	 -0.127326	 0.055602	 0.806105	 -0.031725	 0.588299	 1
1462070152.242	 4	 -0.001544	 0.015361	 0.004887	 1.881701	 0.014306	 -0.127331	 0.055615	 0.806134	 -0.031711	 0.588260	 1
1462070152.252	 4	 -0.003687	 0.014296	 0.003830	 1.881839	 0.014381	 -0.127319	 0.055634	 0.806173	 -0.031673	 0.588206	 1
1462070152.262	 4	 -0.003698	 0.012168	 0.003811	 1.881953	 0.014450	 -0.127295	 0.055647	 0.806206	 -0.031635	 0.588163	 1
1462070152.272	 4	 -0.003698	 0.011113	 0.004867	 1.882125	 0.014507	 -0.127271	 0.055656	 0.806256	 -0.031600	 0.588095	 1
1462070152.282	 4	 -0.005843	 0.008992	 0.004867	 1.882237	 0.014596	 -0.127230	 0.055668	 0.806288	 -0.031549	 0.588053	 1
1462070152.292	 4	 -0.009048	 0.010052	 0.002773	 1.882420	 0.014659	 -0.127166	 0.055663	 0.806342	 -0.031500	 0.587981	 1
1462070152.302	 4	 -0.008008	 0.007889	 -0.001518	 1.882449	 0.014754	 -0.127087	 0.055660	 0.806351	 -0.031438	 0.587973	 1
1462070152.312	 4	 -0.011215	 0.006835	 -0.001498	 1.882523	 0.014830	 -0.126986	 0.055643	 0.806373	 -0.031375	 0.587947	 1
1462070152.322	 4	 -0.010157	 0.006816	 -0.003639	 1.882553	 0.014853	 -0.126879	 0.055607	 0.806385	 -0.031334	 0.587937	 1
1462070152.332	 4	 -0.010176	 0.003618	 -0.004734	 1.882612	 0.014843	 -0.126775	 0.055563	 0.806405	 -0.031305	 0.587914	 1
1462070152.342	 4	 -0.008056	 0.001476	 -0.005837	 1.882627	 0.014851	 -0.126682	 0.055528	 0.806412	 -0.031274	 0.587910	 1
1462070152.352	 4	 -0.005924	 -0.000643	 -0.003743	 1.882606	 0.014859	 -0.126604	 0.055498	 0.806408	 -0.031249	 0.587920	 1
1462070152.362	 4	 -0.000594	 -0.002778	 -0.002744	 1.882590	 0.014809	 -0.126577	 0.055472	 0.806405	 -0.031261	 0.587926	 1
1462070152.372	 4	 -0.001663	 -0.004889	 -0.000622	 1.882459	 0.014814	 -0.126561	 0.055465	 0.806367	 -0.031259	 0.587978	 1
1462070152.382	 4	 0.000469	 -0.007008	 0.001471	 1.882380	 0.014833	 -0.126563	 0.055471	 0.806343	 -0.031254	 0.588011	 1
1462070152.392	 4	 -0.002713	 -0.003801	 0.002595	 1.882289	 0.014884	 -0.126548	 0.055478	 0.806316	 -0.031231	 0.588049	 1
1462070152.402	 4	 -0.005900	 -0.001656	 0.003708	 1.882255	 0.014914	 -0.126518	 0.055474	 0.806306	 -0.031211	 0.588064	 1
1462070152.412	 4	 -0.005894	 0.000462	 0.002662	 1.882213	 0.014977	 -0.126461	 0.055469	 0.806294	 -0.031170	 0.588083	 1
1462070152.422	 4	 -0.003746	 0.002589	 0.003730	 1.882166	 0.015040	 -0.126429	 0.055474	 0.806280	 -0.031137	 0.588104	 1
1462070152.432	 4	 -0.001624	 0.002558	 0.000514	 1.882118	 0.015057	 -0.126411	 0.055471	 0.806265	 -0.031126	 0.588124	 1
1462070152.442	 4	 -0.002686	 0.004680	 -0.000523	 1.882116	 0.015073	 -0.126385	 0.055465	 0.806265	 -0.031112	 0.588126	 1
1462070152.452	 4	 -0.000552	 0.003616	 0.000515	 1.882112	 0.015079	 -0.126369	 0.055460	 0.806264	 -0.031105	 0.588128	 1
1462070152.462	 4	 -0.002678	 0.003637	 0.002665	 1.882096	 0.015122	 -0.126354	 0.055467	 0.806259	 -0.031083	 0.588135	 1
1462070152.472	 4	 -0.001551	 0.006589	 0.001728	 1.882096	 0.015159	 -0.126345	 0.055474	 0.806259	 -0.031066	 0.588137	 1
1462070152.482	 4	 0.000597	 0.008717	 0.002795	 1.882145	 0.015190	 -0.126354	 0.055487	 0.806272	 -0.031055	 0.588117	 1
1462070152.492	 4	 0.001678	 0.009792	 0.004927	 1.882187	 0.015213	 -0.126372	 0.055502	 0.806284	 -0.031050	 0.588101	 1
1462070152.502	 4	 0.000620	 0.010865	 0.006013	 1.882221	 0.015309	 -0.126406	 0.055544	 0.806290	 -0.031020	 0.588089	 1
1462070152.512	 4	 0.007043	 0.009827	 0.012342	 1.882242	 0.015396	 -0.126482	 0.055601	 0.806293	 -0.031007	 0.588081	 1
1462070152.522	 4	 -0.000391	 0.018349	 0.011420	 1.882330	 0.015504	 -0.126536	 0.055656	 0.806315	 -0.030976	 0.588047	 1
1462070152.532	 4	 -0.004691	 0.016195	 0.006110	 1.882429	 0.015621	 -0.126517	 0.055684	 0.806342	 -0.030921	 0.588010	 1
1462070152.542	 4	 -0.006835	 0.015130	 0.005053	 1.882617	 0.015733	 -0.126480	 0.055705	 0.806396	 -0.030859	 0.587937	 1
1462070152.552	 4	 -0.002590	 0.011910	 0.002855	 1.882704	 0.015793	 -0.126450	 0.055712	 0.806421	 -0.030824	 0.587904	 1
1462070152.562	 4	 -0.001498	 0.017223	 0.002897	 1.882753	 0.015905	 -0.126438	 0.055740	 0.806433	 -0.030774	 0.587887	 1
1462070152.572	 4	 0.002758	 0.012970	 0.004952	 1.882881	 0.015972	 -0.126467	 0.055774	 0.806468	 -0.030752	 0.587837	 1
1462070152.582	 4	 0.002757	 0.010858	 0.007064	 1.882957	 0.016027	 -0.126513	 0.055810	 0.806488	 -0.030741	 0.587807	 1
1462070152.592	 4	 0.001672	 0.010828	 0.002811	 1.883005	 0.016088	 -0.126535	 0.055837	 0.806501	 -0.030721	 0.587788	 1
1462070152.602	 4	 -0.005797	 0.011905	 0.001820	 1.883054	 0.016119	 -0.126508	 0.055836	 0.806515	 -0.030700	 0.587770	 1
1462070152.612	 4	 -0.006867	 0.012955	 -0.000293	 1.883120	 0.016121	 -0.126442	 0.055811	 0.806536	 -0.030678	 0.587744	 1
1462070152.622	 4	 -0.005815	 0.010816	 -0.001387	 1.883180	 0.016133	 -0.126371	 0.055787	 0.806555	 -0.030650	 0.587722	 1
1462070152.632	 4	 -0.005819	 0.010807	 -0.002453	 1.883254	 0.016122	 -0.126308	 0.055760	 0.806579	 -0.030634	 0.587692	 1
1462070152.642	 4	 -0.005820	 0.009750	 -0.001397	 1.883298	 0.016135	 -0.126252	 0.055742	 0.806593	 -0.030611	 0.587676	 1
1462070152.652	 4	 -0.006888	 0.008696	 -0.000331	 1.883342	 0.016166	 -0.126194	 0.055728	 0.806607	 -0.030580	 0.587660	 1
1462070152.662	 4	 -0.004759	 0.007624	 -0.000360	 1.883350	 0.016168	 -0.126141	 0.055707	 0.806611	 -0.030564	 0.587657	 1
1462070152.672	 4	 -0.003695	 0.008669	 -0.002491	 1.883413	 0.016153	 -0.126093	 0.055684	 0.806631	 -0.030554	 0.587632	 1
1462070152.682	 4	 -0.005841	 0.005491	 -0.001436	 1.883432	 0.016181	 -0.126034	 0.055669	 0.806638	 -0.030525	 0.587626	 1
1462070152.692	 4	 -0.006898	 0.007620	 -0.001406	 1.883440	 0.016191	 -0.125965	 0.055644	 0.806642	 -0.030500	 0.587624	 1
1462070152.702	 4	 -0.005830	 0.008672	 -0.002471	 1.883498	 0.016213	 -0.125901	 0.055626	 0.806660	 -0.030471	 0.587602	 1
1462070152.712	 4	 -0.006903	 0.007612	 -0.002471	 1.883576	 0.016230	 -0.125835	 0.055605	 0.806685	 -0.030443	 0.587572	 1
1462070152.722	 4	 -0.006907	 0.007604	 -0.003537	 1.883652	 0.016229	 -0.125765	 0.055578	 0.806709	 -0.030420	 0.587543	 1
1462070152.732	 4	 -0.003706	 0.006537	 -0.002509	 1.883672	 0.016193	 -0.125719	 0.055550	 0.806717	 -0.030421	 0.587534	 1
1462070152.742	 4	 -0.002648	 0.006518	 -0.004650	 1.883694	 0.016191	 -0.125681	 0.055534	 0.806725	 -0.030410	 0.587526	 1
1462070152.752	 4	 -0.004779	 0.005475	 -0.002509	 1.883694	 0.016171	 -0.125627	 0.055506	 0.806726	 -0.030402	 0.587527	 1
1462070152.762	 4	 -0.003722	 0.003343	 -0.002538	 1.883701	 0.016160	 -0.125591	 0.055489	 0.806730	 -0.030396	 0.587524	 1
1462070152.772	 4	 -0.003722	 0.003342	 -0.002538	 1.883689	 0.016153	 -0.125553	 0.055471	 0.806727	 -0.030388	 0.587529	 1
1462070152.782	 4	 -0.004794	 0.002280	 -0.002539	 1.883672	 0.016125	 -0.125504	 0.055443	 0.806724	 -0.030385	 0.587536	 1
1462070152.792	 4	 -0.004780	 0.004414	 -0.001453	 1.883652	 0.016157	 -0.125451	 0.055430	 0.806719	 -0.030357	 0.587546	 1
1462070152.802	 4	 -0.005842	 0.005479	 -0.001433	 1.883636	 0.016159	 -0.125393	 0.055407	 0.806716	 -0.030340	 0.587553	 1
1462070152.812	 4	 -0.005842	 0.006533	 -0.002489	 1.883616	 0.016161	 -0.125322	 0.055379	 0.806712	 -0.030319	 0.587562	 1
1462070152.822	 4	 -0.005833	 0.007603	 -0.001413	 1.883636	 0.016168	 -0.125266	 0.055359	 0.806719	 -0.030299	 0.587555	 1
1462070152.832	 4	 -0.006804	 0.006329	 -0.001301	 1.883633	 0.016205	 -0.125197	 0.055342	 0.806720	 -0.030264	 0.587558	 1
1462070152.842	 4	 -0.007861	 0.008459	 -0.001271	 1.883649	 0.016255	 -0.125118	 0.055325	 0.806725	 -0.030220	 0.587554	 1
1462070152.852	 4	 -0.006798	 0.008447	 -0.002346	 1.883667	 0.016274	 -0.125045	 0.055301	 0.806732	 -0.030190	 0.587549	 1
1462070152.862	 4	 -0.004660	 0.008447	 -0.001299	 1.883714	 0.016293	 -0.124991	 0.055285	 0.806747	 -0.030165	 0.587531	 1
1462070152.872	 4	 -0.003601	 0.008428	 -0.003439	 1.883769	 0.016293	 -0.124945	 0.055268	 0.806765	 -0.030150	 0.587509	 1
1462070152.882	 4	 -0.002549	 0.006288	 -0.004533	 1.883762	 0.016299	 -0.124901	 0.055252	 0.806764	 -0.030135	 0.587513	 1
1462070152.892	 4	 -0.002558	 0.005216	 -0.005608	 1.883738	 0.016293	 -0.124848	 0.055228	 0.806758	 -0.030123	 0.587523	 1
1462070152.902	 4	 -0.001482	 0.006283	 -0.004542	 1.883757	 0.016267	 -0.124828	 0.055213	 0.806765	 -0.030127	 0.587516	 1
1462070152.912	 4	 -0.004684	 0.005235	 -0.003458	 1.883752	 0.016219	 -0.124780	 0.055179	 0.806766	 -0.030132	 0.587517	 1
1462070152.922	 4	 -0.006827	 0.005224	 -0.005570	 1.883711	 0.016216	 -0.124703	 0.055147	 0.806756	 -0.030112	 0.587535	 1
1462070152.932	 4	 -0.003627	 0.004158	 -0.004543	 1.883696	 0.016174	 -0.124644	 0.055110	 0.806754	 -0.030112	 0.587541	 1
1462070152.942	 4	 -0.004685	 0.005232	 -0.003457	 1.883714	 0.016163	 -0.124584	 0.055084	 0.806761	 -0.030098	 0.587534	 1
1462070152.952	 4	 -0.005758	 0.003114	 -0.002402	 1.883714	 0.016164	 -0.124522	 0.055059	 0.806763	 -0.030080	 0.587535	 1
1462070152.962	 4	 -0.006829	 0.003110	 -0.003459	 1.883727	 0.016125	 -0.124456	 0.055021	 0.806769	 -0.030076	 0.587530	 1
1462070152.972	 4	 -0.005752	 0.005233	 -0.003447	 1.883707	 0.016167	 -0.124390	 0.055006	 0.806764	 -0.030040	 0.587540	 1
1462070152.982	 4	 -0.004680	 0.006291	 -0.003446	 1.883659	 0.016185	 -0.124331	 0.054987	 0.806751	 -0.030017	 0.587561	 1
1462070152.992	 4	 -0.005757	 0.005221	 -0.004512	 1.883619	 0.016186	 -0.124266	 0.054960	 0.806741	 -0.029998	 0.587578	 1
1462070153.002	 4	 -0.008658	 0.009119	 -0.005309	 1.883640	 0.016180	 -0.124172	 0.054921	 0.806750	 -0.029972	 0.587571	 1
1462070153.012	 4	 -0.006529	 0.008047	 -0.005337	 1.883593	 0.016174	 -0.124079	 0.054881	 0.806739	 -0.029949	 0.587591	 1
1462070153.022	 4	 -0.004399	 0.008032	 -0.006421	 1.883618	 0.016153	 -0.124015	 0.054849	 0.806749	 -0.029938	 0.587581	 1
1462070153.032	 4	 -0.005476	 0.005907	 -0.006431	 1.883656	 0.016118	 -0.123948	 0.054812	 0.806763	 -0.029931	 0.587566	 1
1462070153.042	 4	 -0.006544	 0.005909	 -0.006421	 1.883645	 0.016105	 -0.123860	 0.054773	 0.806762	 -0.029911	 0.587571	 1
1462070153.052	 4	 -0.004410	 0.005902	 -0.006439	 1.883635	 0.016083	 -0.123792	 0.054739	 0.806762	 -0.029900	 0.587576	 1
1462070153.062	 4	 -0.004401	 0.005917	 -0.004307	 1.883667	 0.016074	 -0.123734	 0.054714	 0.806773	 -0.029886	 0.587564	 1
1462070153.072	 4	 -0.007603	 0.005925	 -0.004279	 1.883676	 0.016063	 -0.123652	 0.054677	 0.806778	 -0.029866	 0.587561	 1
1462070153.082	 4	 -0.006535	 0.006977	 -0.005344	 1.883672	 0.016033	 -0.123560	 0.054631	 0.806780	 -0.029851	 0.587563	 1
1462070153.092	 4	 -0.006530	 0.008039	 -0.005334	 1.883667	 0.016031	 -0.123482	 0.054599	 0.806781	 -0.029829	 0.587566	 1
1462070153.102	 4	 -0.004397	 0.006975	 -0.004297	 1.883642	 0.016016	 -0.123419	 0.054569	 0.806775	 -0.029817	 0.587577	 1
1462070153.112	 4	 -0.003326	 0.006979	 -0.003240	 1.883678	 0.015982	 -0.123378	 0.054543	 0.806787	 -0.029818	 0.587563	 1
1462070153.122	 4	 -0.005465	 0.005921	 -0.003231	 1.883714	 0.015971	 -0.123326	 0.054519	 0.806800	 -0.029806	 0.587549	 1
1462070153.132	 4	 -0.000951	 0.003420	 -0.002051	 1.883713	 0.015972	 -0.123297	 0.054508	 0.806800	 -0.029797	 0.587549	 1
1462070153.142	 4	 -0.004152	 0.004485	 -0.003078	 1.883696	 0.015979	 -0.123253	 0.054492	 0.806796	 -0.029782	 0.587557	 1
1462070153.152	 4	 -0.007357	 0.005542	 -0.005172	 1.883683	 0.015975	 -0.123173	 0.054458	 0.806795	 -0.029761	 0.587563	 1
1462070153.162	 4	 -0.004141	 0.008721	 -0.005170	 1.883661	 0.015981	 -0.123106	 0.054433	 0.806790	 -0.029739	 0.587573	 1
1462070153.172	 4	 -0.004149	 0.009761	 -0.008357	 1.883679	 0.015951	 -0.123043	 0.054399	 0.806798	 -0.029732	 0.587566	 1
1462070153.182	 4	 -0.005208	 0.009778	 -0.006216	 1.883722	 0.015932	 -0.122980	 0.054369	 0.806812	 -0.029720	 0.587550	 1
1462070153.192	 4	 -0.002012	 0.007649	 -0.005197	 1.883762	 0.015916	 -0.122938	 0.054348	 0.806826	 -0.029713	 0.587534	 1
1462070153.202	 4	 -0.003077	 0.005547	 -0.002010	 1.883808	 0.015914	 -0.122904	 0.054334	 0.806840	 -0.029703	 0.587516	 1
1462070153.212	 4	 -0.004158	 0.004470	 -0.004142	 1.883807	 0.015879	 -0.122856	 0.054304	 0.806842	 -0.029703	 0.587516	 1
1462070153.222	 4	 -0.004159	 0.003413	 -0.003086	 1.883785	 0.015879	 -0.122811	 0.054286	 0.806837	 -0.029690	 0.587526	 1
1462070153.232	 4	 -0.003076	 0.006600	 -0.003065	 1.883763	 0.015879	 -0.122767	 0.054268	 0.806831	 -0.029678	 0.587535	 1
1462070153.242	 4	 -0.003082	 0.005535	 -0.003075	 1.883766	 0.015871	 -0.122724	 0.054248	 0.806834	 -0.029668	 0.587534	 1
1462070153.252	 4	 -0.003081	 0.006590	 -0.004130	 1.883755	 0.015869	 -0.122673	 0.054227	 0.806832	 -0.029654	 0.587540	 1
1462070153.262	 4	 -0.005204	 0.009779	 -0.005148	 1.883813	 0.015827	 -0.122610	 0.054190	 0.806851	 -0.029651	 0.587516	 1
1462070153.272	 4	 -0.004143	 0.007655	 -0.004111	 1.883845	 0.015817	 -0.122557	 0.054166	 0.806862	 -0.029639	 0.587504	 1
1462070153.282	 4	 -0.004147	 0.008702	 -0.006233	 1.883833	 0.015772	 -0.122497	 0.054128	 0.806862	 -0.029640	 0.587508	 1
1462070153.292	 4	 -0.002014	 0.006583	 -0.004139	 1.883864	 0.015764	 -0.122458	 0.054111	 0.806872	 -0.029631	 0.587496	 1
1462070153.302	 4	 -0.000529	 0.007166	 -0.003877	 1.883879	 0.015740	 -0.122433	 0.054094	 0.806877	 -0.029633	 0.587490	 1
1462070153.312	 4	 -0.002679	 0.003980	 -0.003888	 1.883855	 0.015748	 -0.122407	 0.054085	 0.806871	 -0.029622	 0.587500	 1
1462070153.322	 4	 -0.002674	 0.005044	 -0.003878	 1.883890	 0.015750	 -0.122367	 0.054070	 0.806882	 -0.029609	 0.587487	 1
1462070153.332	 4	 0.000531	 0.005041	 -0.002839	 1.883870	 0.015762	 -0.122352	 0.054068	 0.806876	 -0.029600	 0.587495	 1
1462070153.342	 4	 -0.002686	 0.001859	 -0.002840	 1.883886	 0.015785	 -0.122327	 0.054064	 0.806882	 -0.029583	 0.587490	 1
1462070153.352	 4	 -0.002686	 0.001858	 -0.002840	 1.883843	 0.015781	 -0.122295	 0.054050	 0.806870	 -0.029577	 0.587507	 1
1462070153.362	 4	 -0.001619	 0.001854	 -0.002849	 1.883797	 0.015778	 -0.122268	 0.054037	 0.806857	 -0.029571	 0.587526	 1
1462070153.372	 4	 -0.003752	 0.003971	 -0.004942	 1.883768	 0.015784	 -0.122223	 0.054020	 0.806849	 -0.029556	 0.587539	 1
1462070153.382	 4	 -0.004819	 0.003974	 -0.004932	 1.883734	 0.015789	 -0.122159	 0.053996	 0.806841	 -0.029536	 0.587554	 1
1462070153.392	 4	 -0.004818	 0.005029	 -0.005987	 1.883729	 0.015766	 -0.122084	 0.053958	 0.806842	 -0.029524	 0.587556	 1
1462070153.402	 4	 -0.003741	 0.007152	 -0.005977	 1.883738	 0.015714	 -0.122034	 0.053923	 0.806847	 -0.029530	 0.587552	 1
1462070153.412	 4	 -0.002675	 0.006092	 -0.004930	 1.883737	 0.015683	 -0.121996	 0.053899	 0.806849	 -0.029531	 0.587553	 1
1462070153.422	 4	 -0.003743	 0.005038	 -0.003864	 1.883706	 0.015689	 -0.121950	 0.053882	 0.806841	 -0.029516	 0.587566	 1
1462070153.432	 4	 -0.002663	 0.006112	 -0.001732	 1.883681	 0.015690	 -0.121915	 0.053867	 0.806834	 -0.029506	 0.587576	 1
1462070153.442	 4	 -0.006940	 0.006109	 -0.003826	 1.883702	 0.015691	 -0.121847	 0.053840	 0.806842	 -0.029485	 0.587569	 1
1462070153.452	 4	 -0.004807	 0.005046	 -0.002788	 1.883701	 0.015713	 -0.121795	 0.053826	 0.806843	 -0.029461	 0.587571	 1
1462070153.462	 4	 -0.003338	 0.006701	 -0.003600	 1.883732	 0.015704	 -0.121744	 0.053803	 0.806854	 -0.029449	 0.587559	 1
1462070153.472	 4	 -0.004391	 0.008838	 -0.002505	 1.883724	 0.015735	 -0.121693	 0.053792	 0.806852	 -0.029422	 0.587563	 1
1462070153.482	 4	 -0.002257	 0.008831	 -0.002524	 1.883721	 0.015736	 -0.121657	 0.053778	 0.806852	 -0.029411	 0.587565	 1
1462070153.492	 4	 -0.002262	 0.007767	 -0.002533	 1.883787	 0.015745	 -0.121628	 0.053769	 0.806872	 -0.029397	 0.587539	 1
1462070153.502	 4	 -0.003335	 0.006705	 -0.002533	 1.883781	 0.015762	 -0.121592	 0.053760	 0.806871	 -0.029380	 0.587542	 1
1462070153.512	 4	 -0.002271	 0.007750	 -0.004664	 1.883801	 0.015778	 -0.121552	 0.053749	 0.806877	 -0.029361	 0.587536	 1
1462070153.522	 4	 -0.001205	 0.006689	 -0.003617	 1.883802	 0.015770	 -0.121528	 0.053737	 0.806879	 -0.029357	 0.587535	 1
1462070153.532	 4	 -0.003343	 0.007744	 -0.005720	 1.883841	 0.015731	 -0.121483	 0.053708	 0.806892	 -0.029358	 0.587519	 1
1462070153.542	 4	 -0.002272	 0.007748	 -0.004663	 1.883908	 0.015721	 -0.121442	 0.053689	 0.806913	 -0.029349	 0.587493	 1
1462070153.552	 4	 -0.002277	 0.006683	 -0.004672	 1.883894	 0.015719	 -0.121405	 0.053673	 0.806910	 -0.029339	 0.587499	 1
1462070153.562	 4	 -0.002278	 0.005627	 -0.003616	 1.883951	 0.015685	 -0.121370	 0.053650	 0.806928	 -0.029341	 0.587475	 1
1462070153.572	 4	 -0.002282	 0.005619	 -0.004682	 1.883966	 0.015680	 -0.121340	 0.053637	 0.806934	 -0.029334	 0.587470	 1
1462070153.582	 4	 -0.002293	 0.003491	 -0.004701	 1.883967	 0.015651	 -0.121307	 0.053615	 0.806936	 -0.029335	 0.587469	 1
1462070153.592	 4	 -0.002288	 0.003498	 -0.003635	 1.883976	 0.015645	 -0.121273	 0.053600	 0.806939	 -0.029328	 0.587466	 1
1462070153.602	 4	 -0.003351	 0.004565	 -0.003616	 1.884032	 0.015667	 -0.121225	 0.053588	 0.806956	 -0.029303	 0.587445	 1
1462070153.612	 4	 -0.003016	 0.003115	 -0.002356	 1.884048	 0.015676	 -0.121187	 0.053575	 0.806962	 -0.029288	 0.587439	 1
1462070153.622	 4	 -0.004083	 0.004173	 -0.003403	 1.884044	 0.015675	 -0.121137	 0.053555	 0.806962	 -0.029274	 0.587441	 1
1462070153.632	 4	 -0.003019	 0.005217	 -0.005533	 1.884035	 0.015661	 -0.121086	 0.053529	 0.806961	 -0.029265	 0.587445	 1
1462070153.642	 4	 -0.001958	 0.003094	 -0.004496	 1.884012	 0.015646	 -0.121054	 0.053512	 0.806955	 -0.029262	 0.587455	 1
1462070153.652	 4	 -0.003012	 0.004176	 -0.002346	 1.884013	 0.015629	 -0.121021	 0.053494	 0.806957	 -0.029259	 0.587454	 1
1462070153.662	 4	 -0.003013	 0.003119	 -0.001290	 1.883967	 0.015635	 -0.120974	 0.053476	 0.806945	 -0.029244	 0.587474	 1
1462070153.672	 4	 -0.004074	 0.005241	 -0.002326	 1.883959	 0.015639	 -0.120928	 0.053458	 0.806943	 -0.029229	 0.587478	 1
1462070153.682	 4	 -0.004074	 0.005240	 -0.002326	 1.883965	 0.015659	 -0.120878	 0.053444	 0.806946	 -0.029206	 0.587476	 1
1462070153.692	 4	 -0.001951	 0.003105	 -0.002364	 1.883917	 0.015676	 -0.120845	 0.053435	 0.806933	 -0.029191	 0.587497	 1
1462070153.702	 4	 -0.003017	 0.004164	 -0.003410	 1.883893	 0.015683	 -0.120804	 0.053420	 0.806926	 -0.029177	 0.587507	 1
1462070153.712	 4	 -0.000893	 0.002029	 -0.003448	 1.883859	 0.015678	 -0.120784	 0.053410	 0.806917	 -0.029174	 0.587521	 1
1462070153.722	 4	 -0.003017	 0.004162	 -0.003410	 1.883859	 0.015667	 -0.120755	 0.053395	 0.806918	 -0.029170	 0.587521	 1
1462070153.732	 4	 -0.004085	 0.004165	 -0.003400	 1.883879	 0.015671	 -0.120715	 0.053381	 0.806925	 -0.029156	 0.587514	 1
1462070153.742	 4	 -0.004085	 0.004164	 -0.003400	 1.883835	 0.015640	 -0.120658	 0.053348	 0.806914	 -0.029153	 0.587532	 1
1462070153.752	 4	 -0.003018	 0.004160	 -0.003409	 1.883829	 0.015634	 -0.120620	 0.053331	 0.806914	 -0.029144	 0.587535	 1
1462070153.762	 4	 -0.001946	 0.004164	 -0.002353	 1.883795	 0.015627	 -0.120581	 0.053312	 0.806905	 -0.029137	 0.587549	 1
1462070153.772	 4	 -0.001957	 0.002036	 -0.002372	 1.883782	 0.015643	 -0.120558	 0.053307	 0.806901	 -0.029124	 0.587555	 1
1462070153.782	 4	 -0.001706	 0.001834	 -0.001101	 1.883728	 0.015665	 -0.120532	 0.053303	 0.806886	 -0.029108	 0.587577	 1
1462070153.792	 4	 -0.001678	 0.006104	 0.001070	 1.883720	 0.015700	 -0.120513	 0.053305	 0.806883	 -0.029089	 0.587581	 1
1462070153.802	 4	 -0.001696	 0.005016	 -0.002137	 1.883696	 0.015706	 -0.120486	 0.053296	 0.806877	 -0.029080	 0.587592	 1
1462070153.812	 4	 -0.002754	 0.006090	 -0.001052	 1.883693	 0.015735	 -0.120456	 0.053292	 0.806876	 -0.029059	 0.587594	 1
1462070153.822	 4	 -0.003812	 0.007163	 0.000033	 1.883685	 0.015746	 -0.120422	 0.053281	 0.806874	 -0.029045	 0.587598	 1
1462070153.832	 4	 -0.004870	 0.008238	 0.001119	 1.883729	 0.015804	 -0.120378	 0.053281	 0.806887	 -0.029007	 0.587582	 1
1462070153.842	 4	 -0.005937	 0.008240	 0.001128	 1.883741	 0.015836	 -0.120328	 0.053271	 0.806891	 -0.028979	 0.587579	 1
1462070153.852	 4	 -0.003799	 0.008240	 0.002176	 1.883723	 0.015892	 -0.120290	 0.053272	 0.806886	 -0.028946	 0.587588	 1
1462070153.862	 4	 -0.004865	 0.009298	 0.001129	 1.883742	 0.015943	 -0.120246	 0.053269	 0.806892	 -0.028912	 0.587582	 1
1462070153.872	 4	 -0.001664	 0.009288	 0.001102	 1.883783	 0.015990	 -0.120223	 0.053274	 0.806903	 -0.028885	 0.587567	 1
1462070153.882	 4	 -0.001673	 0.008216	 0.000026	 1.883804	 0.016037	 -0.120211	 0.053283	 0.806909	 -0.028862	 0.587560	 1
1462070153.892	 4	 -0.002760	 0.005020	 -0.001059	 1.883864	 0.016058	 -0.120176	 0.053277	 0.806927	 -0.028842	 0.587536	 1
1462070153.902	 4	 -0.003817	 0.008205	 -0.002086	 1.883839	 0.016108	 -0.120137	 0.053275	 0.806920	 -0.028811	 0.587548	 1
1462070153.912	 4	 -0.003818	 0.007149	 -0.001030	 1.883864	 0.016122	 -0.120095	 0.053263	 0.806928	 -0.028792	 0.587539	 1
1462070153.922	 4	 -0.001688	 0.007134	 -0.002114	 1.883937	 0.016130	 -0.120066	 0.053254	 0.806950	 -0.028778	 0.587510	 1
1462070153.932	 4	 -0.002760	 0.006074	 -0.002114	 1.883989	 0.016132	 -0.120033	 0.053242	 0.806966	 -0.028767	 0.587489	 1
1462070153.942	 4	 -0.001394	 0.000368	 -0.000922	 1.883964	 0.016156	 -0.120009	 0.053239	 0.806959	 -0.028750	 0.587500	 1
1462070153.952	 4	 -0.002457	 0.000378	 0.000153	 1.883933	 0.016137	 -0.119987	 0.053224	 0.806951	 -0.028753	 0.587513	 1
1462070153.962	 4	 -0.002472	 -0.001757	 -0.000932	 1.883863	 0.016150	 -0.119967	 0.053219	 0.806930	 -0.028743	 0.587541	 1
1462070153.972	 4	 -0.003530	 -0.000683	 0.000153	 1.883841	 0.016175	 -0.119939	 0.053215	 0.806924	 -0.028725	 0.587551	 1
1462070153.982	 4	 -0.000334	 -0.001756	 0.000115	 1.883826	 0.016192	 -0.119924	 0.053214	 0.806920	 -0.028714	 0.587558	 1
1462070153.992	 4	 -0.000339	 -0.002821	 0.000106	 1.883768	 0.016247	 -0.119917	 0.053226	 0.806902	 -0.028692	 0.587583	 1
1462070154.002	 4	 -0.000339	 -0.002821	 0.000106	 1.883686	 0.016278	 -0.119915	 0.053233	 0.806877	 -0.028681	 0.587616	 1
1462070154.012	 4	 -0.001410	 -0.001771	 -0.002006	 1.883555	 0.016291	 -0.119890	 0.053225	 0.806839	 -0.028672	 0.587670	 1
1462070154.022	 4	 0.001810	 0.000361	 0.000118	 1.883501	 0.016327	 -0.119900	 0.053239	 0.806822	 -0.028662	 0.587693	 1
1462070154.032	 4	 0.000739	 0.001412	 -0.001994	 1.883480	 0.016320	 -0.119911	 0.053241	 0.806816	 -0.028668	 0.587701	 1
1462070154.042	 4	 -0.004588	 0.001443	 0.000184	 1.883449	 0.016330	 -0.119886	 0.053233	 0.806807	 -0.028657	 0.587714	 1
1462070154.052	 4	 -0.002444	 0.003563	 0.000185	 1.883404	 0.016347	 -0.119850	 0.053223	 0.806794	 -0.028642	 0.587733	 1
1462070154.062	 4	 -0.003506	 0.004629	 0.000204	 1.883361	 0.016373	 -0.119822	 0.053219	 0.806782	 -0.028624	 0.587751	 1
1462070154.072	 4	 -0.002435	 0.003577	 0.002317	 1.883345	 0.016409	 -0.119811	 0.053225	 0.806777	 -0.028606	 0.587758	 1
1462070154.082	 4	 -0.003507	 0.003572	 0.001261	 1.883320	 0.016451	 -0.119775	 0.053222	 0.806770	 -0.028580	 0.587770	 1
1462070154.102	 5	 -0.002152	 0.006471	 0.002505	 1.883305	 0.016538	 -0.119753	 0.053238	 0.806764	 -0.028539	 0.587778	 1
1462070154.112	 5	 -0.004291	 0.006469	 0.001458	 1.883309	 0.016585	 -0.119720	 0.053239	 0.806765	 -0.028510	 0.587778	 1
1462070154.122	 5	 -0.004295	 0.007516	 -0.000663	 1.883334	 0.016634	 -0.119678	 0.053237	 0.806772	 -0.028477	 0.587770	 1
1462070154.132	 5	 -0.001084	 0.008578	 0.000385	 1.883379	 0.016653	 -0.119657	 0.053235	 0.806786	 -0.028462	 0.587752	 1
1462070154.142	 5	 -0.001094	 0.007506	 -0.000691	 1.883421	 0.016693	 -0.119649	 0.053244	 0.806798	 -0.028442	 0.587736	 1
1462070154.152	 5	 0.001030	 0.005371	 -0.000729	 1.883417	 0.016714	 -0.119657	 0.053253	 0.806796	 -0.028436	 0.587738	 1
1462070154.162	 5	 0.002098	 0.006423	 -0.001794	 1.883421	 0.016706	 -0.119670	 0.053256	 0.806797	 -0.028443	 0.587736	 1
1462070154.172	 5	 0.002107	 0.007494	 -0.000718	 1.883416	 0.016715	 -0.119691	 0.053267	 0.806794	 -0.028446	 0.587738	 1
1462070154.192	 6	 0.001031	 0.006424	 -0.001784	 1.883441	 0.016717	 -0.119670	 0.053260	 0.806802	 -0.028438	 0.587728	 1
1462070154.202	 6	 -0.001099	 0.007493	 -0.001755	 1.883435	 0.016715	 -0.119665	 0.053257	 0.806801	 -0.028438	 0.587731	 1
1462070154.212	 6	 -0.000037	 0.006426	 -0.001774	 1.883463	 0.016717	 -0.119662	 0.053257	 0.806809	 -0.028435	 0.587720	 1
1462070154.222	 6	 0.001030	 0.006422	 -0.001783	 1.883497	 0.016721	 -0.119657	 0.053256	 0.806819	 -0.028431	 0.587706	 1
1462070154.232	 6	 0.001028	 0.004310	 0.000329	 1.883493	 0.016736	 -0.119660	 0.053262	 0.806817	 -0.028426	 0.587708	 1
1462070154.242	 6	 -0.002164	 0.004334	 0.002488	 1.883495	 0.016762	 -0.119648	 0.053265	 0.806818	 -0.028412	 0.587708	 1
1462070154.252	 6	 -0.003231	 0.005393	 0.001442	 1.883471	 0.016815	 -0.119633	 0.053274	 0.806810	 -0.028387	 0.587719	 1
1462070154.262	 6	 0.000117	 0.005189	 0.000497	 1.883497	 0.016835	 -0.119635	 0.053281	 0.806817	 -0.028379	 0.587709	 1
1462070154.272	 6	 -0.002017	 0.006250	 -0.000540	 1.883521	 0.016872	 -0.119618	 0.053285	 0.806824	 -0.028358	 0.587700	 1
1462070154.282	 6	 -0.002022	 0.005186	 -0.000550	 1.883541	 0.016887	 -0.119602	 0.053284	 0.806830	 -0.028347	 0.587693	 1
1462070154.292	 6	 -0.000969	 0.003048	 -0.001644	 1.883529	 0.016915	 -0.119584	 0.053284	 0.806826	 -0.028331	 0.587699	 1
1462070154.302	 6	 -0.002042	 0.001986	 -0.001645	 1.883493	 0.016912	 -0.119560	 0.053273	 0.806816	 -0.028326	 0.587713	 1
1462070154.312	 6	 -0.002038	 0.001993	 -0.000579	 1.883431	 0.016932	 -0.119547	 0.053273	 0.806798	 -0.028316	 0.587739	 1
1462070154.322	 6	 -0.002038	 0.001993	 -0.000578	 1.883399	 0.016968	 -0.119515	 0.053270	 0.806789	 -0.028293	 0.587753	 1
1462070154.332	 6	 -0.000977	 -0.000131	 0.000459	 1.883363	 0.016991	 -0.119488	 0.053266	 0.806779	 -0.028276	 0.587768	 1
1462070154.342	 6	 0.001168	 0.001989	 0.000460	 1.883287	 0.017020	 -0.119504	 0.053279	 0.806755	 -0.028271	 0.587799	 1
1462070154.352	 6	 -0.000977	 -0.000132	 0.000459	 1.883264	 0.017051	 -0.119494	 0.053284	 0.806748	 -0.028256	 0.587810	 1
1462070154.362	 6	 0.000095	 0.000928	 0.000460	 1.883223	 0.017098	 -0.119485	 0.053294	 0.806735	 -0.028236	 0.587827	 1
1462070154.372	 6	 0.001163	 0.001980	 -0.000605	 1.883203	 0.017087	 -0.119496	 0.053295	 0.806729	 -0.028244	 0.587835	 1
1462070154.382	 6	 0.001163	 0.001980	 -0.000605	 1.883234	 0.017100	 -0.119507	 0.053303	 0.806738	 -0.028241	 0.587822	 1
1462070154.392	 6	 -0.003101	 0.003056	 -0.000558	 1.883206	 0.017121	 -0.119495	 0.053304	 0.806729	 -0.028230	 0.587835	 1
1462070154.402	 6	 -0.004164	 0.003066	 0.000518	 1.883202	 0.017149	 -0.119461	 0.053299	 0.806729	 -0.028209	 0.587837	 1
1462070154.412	 6	 -0.003101	 0.003055	 -0.000558	 1.883203	 0.017163	 -0.119436	 0.053293	 0.806729	 -0.028196	 0.587838	 1
1462070154.422	 6	 -0.001800	 0.000628	 0.000619	 1.883187	 0.017195	 -0.119409	 0.053291	 0.806724	 -0.028175	 0.587845	 1
1462070154.432	 6	 -0.003913	 0.007000	 -0.001435	 1.883160	 0.017219	 -0.119373	 0.053283	 0.806717	 -0.028156	 0.587857	 1
1462070154.442	 6	 -0.000737	 0.001672	 -0.001512	 1.883127	 0.017225	 -0.119355	 0.053277	 0.806708	 -0.028149	 0.587870	 1
1462070154.452	 6	 0.000330	 0.001668	 -0.001521	 1.883096	 0.017223	 -0.119343	 0.053271	 0.806699	 -0.028147	 0.587883	 1
1462070154.462	 6	 0.003521	 -0.001526	 -0.000513	 1.883049	 0.017240	 -0.119357	 0.053281	 0.806684	 -0.028146	 0.587902	 1
1462070154.472	 6	 0.000339	 0.002738	 -0.000445	 1.882992	 0.017281	 -0.119359	 0.053293	 0.806667	 -0.028131	 0.587926	 1
1462070154.482	 6	 0.000329	 0.000610	 -0.000464	 1.882972	 0.017284	 -0.119365	 0.053296	 0.806661	 -0.028132	 0.587934	 1
1462070154.492	 6	 -0.001780	 0.005934	 -0.000397	 1.882952	 0.017288	 -0.119346	 0.053289	 0.806655	 -0.028126	 0.587943	 1
1462070154.502	 6	 -0.002856	 0.005921	 -0.002519	 1.882944	 0.017280	 -0.119318	 0.053276	 0.806654	 -0.028121	 0.587946	 1
1462070154.512	 6	 -0.001780	 0.005933	 -0.000396	 1.882952	 0.017294	 -0.119296	 0.053271	 0.806656	 -0.028109	 0.587943	 1
1462070154.522	 6	 0.000344	 0.003799	 -0.000434	 1.882988	 0.017303	 -0.119289	 0.053272	 0.806667	 -0.028102	 0.587929	 1
1462070154.532	 6	 -0.000713	 0.005929	 -0.000405	 1.883001	 0.017315	 -0.119291	 0.053276	 0.806670	 -0.028097	 0.587924	 1
1462070154.542	 6	 -0.000695	 0.008071	 0.001746	 1.883052	 0.017362	 -0.119286	 0.053288	 0.806685	 -0.028075	 0.587905	 1
1462070154.552	 6	 -0.000699	 0.008063	 0.000681	 1.883037	 0.017385	 -0.119281	 0.053293	 0.806680	 -0.028065	 0.587911	 1
1462070154.562	 6	 -0.000703	 0.008055	 -0.000385	 1.883099	 0.017383	 -0.119273	 0.053290	 0.806698	 -0.028062	 0.587886	 1
1462070154.572	 6	 0.000561	 0.006755	 0.001842	 1.883117	 0.017427	 -0.119282	 0.053307	 0.806702	 -0.028046	 0.587880	 1
1462070154.582	 6	 0.000570	 0.007826	 0.002918	 1.883161	 0.017496	 -0.119294	 0.053333	 0.806714	 -0.028021	 0.587863	 1
1462070154.592	 6	 -0.000507	 0.006758	 0.001852	 1.883185	 0.017549	 -0.119299	 0.053351	 0.806720	 -0.028000	 0.587855	 1
1462070154.602	 6	 -0.000520	 0.005678	 -0.000290	 1.883217	 0.017572	 -0.119295	 0.053356	 0.806729	 -0.027989	 0.587842	 1
1462070154.612	 6	 -0.002650	 0.005692	 0.000795	 1.883201	 0.017603	 -0.119269	 0.053354	 0.806724	 -0.027969	 0.587850	 1
1462070154.622	 6	 -0.001593	 0.004617	 -0.000290	 1.883206	 0.017612	 -0.119247	 0.053348	 0.806726	 -0.027959	 0.587849	 1
1462070154.632	 6	 -0.000520	 0.006733	 -0.001345	 1.883233	 0.017634	 -0.119241	 0.053353	 0.806733	 -0.027947	 0.587838	 1
1462070154.642	 6	 0.001622	 0.005686	 0.001824	 1.883286	 0.017666	 -0.119253	 0.053368	 0.806748	 -0.027937	 0.587817	 1
1462070154.652	 6	 -0.001584	 0.005687	 0.000786	 1.883320	 0.017698	 -0.119245	 0.053374	 0.806757	 -0.027921	 0.587804	 1
1462070154.662	 6	 -0.000522	 0.004620	 0.000767	 1.883310	 0.017731	 -0.119237	 0.053380	 0.806754	 -0.027905	 0.587809	 1
1462070154.672	 6	 -0.001594	 0.003559	 0.000767	 1.883331	 0.017754	 -0.119234	 0.053386	 0.806760	 -0.027895	 0.587801	 1
1462070154.682	 6	 -0.000537	 0.002484	 -0.000318	 1.883371	 0.017791	 -0.119230	 0.053396	 0.806771	 -0.027877	 0.587786	 1
1462070154.692	 6	 0.001588	 0.001406	 -0.001412	 1.883337	 0.017801	 -0.119238	 0.053402	 0.806760	 -0.027877	 0.587800	 1
1462070154.702	 6	 0.001574	 -0.000729	 -0.002497	 1.883333	 0.017805	 -0.119240	 0.053404	 0.806759	 -0.027875	 0.587802	 1
1462070154.712	 6	 -0.000557	 -0.001771	 -0.000357	 1.883322	 0.017824	 -0.119234	 0.053407	 0.806756	 -0.027866	 0.587806	 1
1462070154.722	 6	 0.000515	 -0.000711	 -0.000356	 1.883296	 0.017838	 -0.119242	 0.053414	 0.806747	 -0.027864	 0.587817	 1
1462070154.732	 6	 0.002645	 -0.000725	 -0.001440	 1.883237	 0.017834	 -0.119264	 0.053421	 0.806730	 -0.027874	 0.587840	 1
1462070154.742	 6	 -0.000363	 -0.002008	 0.000822	 1.883199	 0.017842	 -0.119271	 0.053425	 0.806718	 -0.027873	 0.587856	 1
1462070154.752	 6	 -0.001439	 -0.002021	 -0.001301	 1.883172	 0.017837	 -0.119255	 0.053417	 0.806711	 -0.027871	 0.587867	 1
1462070154.762	 6	 0.000699	 -0.002020	 -0.000253	 1.883055	 0.017879	 -0.119254	 0.053427	 0.806676	 -0.027857	 0.587915	 1
1462070154.772	 6	 0.001776	 0.000104	 -0.000242	 1.883002	 0.017913	 -0.119264	 0.053441	 0.806659	 -0.027848	 0.587937	 1
1462070154.782	 6	 -0.001416	 0.001184	 0.000861	 1.882976	 0.017934	 -0.119261	 0.053445	 0.806651	 -0.027839	 0.587948	 1
1462070154.792	 6	 -0.000357	 0.001165	 -0.001280	 1.882942	 0.017923	 -0.119250	 0.053437	 0.806642	 -0.027841	 0.587962	 1
1462070154.802	 6	 -0.001405	 0.004367	 -0.000175	 1.882933	 0.017929	 -0.119235	 0.053433	 0.806639	 -0.027835	 0.587965	 1
1462070154.812	 6	 -0.000329	 0.004378	 0.001947	 1.882947	 0.017929	 -0.119229	 0.053431	 0.806643	 -0.027832	 0.587960	 1
1462070154.822	 6	 -0.002464	 0.004384	 0.001966	 1.882944	 0.017963	 -0.119211	 0.053433	 0.806642	 -0.027814	 0.587962	 1
1462070154.832	 6	 -0.000333	 0.005425	 -0.000174	 1.882939	 0.017987	 -0.119202	 0.053437	 0.806641	 -0.027801	 0.587965	 1
1462070154.842	 6	 -0.000319	 0.007560	 0.000911	 1.882960	 0.018018	 -0.119194	 0.053443	 0.806646	 -0.027786	 0.587957	 1
1462070154.852	 6	 -0.003520	 0.007569	 0.000940	 1.883002	 0.018044	 -0.119175	 0.053443	 0.806659	 -0.027769	 0.587941	 1
1462070154.862	 6	 -0.001405	 0.005420	 -0.001230	 1.883049	 0.018079	 -0.119149	 0.053444	 0.806672	 -0.027746	 0.587923	 1
1462070154.872	 6	 0.000738	 0.006484	 -0.000173	 1.883075	 0.018107	 -0.119148	 0.053452	 0.806679	 -0.027734	 0.587913	 1
1462070154.882	 6	 0.002868	 0.005414	 -0.000201	 1.883104	 0.018105	 -0.119173	 0.053462	 0.806687	 -0.027741	 0.587901	 1
1462070154.892	 6	 0.000730	 0.006469	 -0.002304	 1.883182	 0.018093	 -0.119179	 0.053462	 0.806710	 -0.027745	 0.587870	 1
1462070154.902	 6	 0.001969	 0.006253	 -0.001148	 1.883204	 0.018079	 -0.119185	 0.053460	 0.806717	 -0.027752	 0.587860	 1
1462070154.912	 6	 0.003040	 0.006257	 -0.000092	 1.883228	 0.018075	 -0.119206	 0.053468	 0.806723	 -0.027759	 0.587850	 1
1462070154.922	 6	 -0.001248	 0.003071	 -0.001150	 1.883226	 0.018089	 -0.119200	 0.053470	 0.806723	 -0.027752	 0.587851	 1
1462070154.932	 6	 -0.000197	 -0.001180	 -0.000132	 1.883202	 0.018119	 -0.119187	 0.053473	 0.806716	 -0.027737	 0.587862	 1
1462070154.942	 6	 0.000875	 -0.000119	 -0.000132	 1.883186	 0.018099	 -0.119195	 0.053470	 0.806711	 -0.027747	 0.587868	 1
1462070154.952	 6	 -0.000187	 0.000947	 -0.000113	 1.883148	 0.018121	 -0.119204	 0.053479	 0.806699	 -0.027742	 0.587884	 1
1462070154.962	 6	 -0.002322	 -0.000103	 0.000962	 1.883129	 0.018139	 -0.119188	 0.053478	 0.806693	 -0.027731	 0.587892	 1
1462070154.972	 6	 -0.000193	 -0.001173	 0.000934	 1.883092	 0.018165	 -0.119183	 0.053483	 0.806682	 -0.027720	 0.587907	 1
1462070154.982	 6	 -0.000201	 -0.000133	 -0.002254	 1.883089	 0.018167	 -0.119183	 0.053484	 0.806681	 -0.027719	 0.587908	 1
1462070154.992	 6	 0.000861	 -0.001200	 -0.002273	 1.883059	 0.018149	 -0.119183	 0.053478	 0.806673	 -0.027728	 0.587920	 1
1462070155.002	 6	 -0.000211	 -0.002261	 -0.002273	 1.883025	 0.018148	 -0.119174	 0.053474	 0.806663	 -0.027726	 0.587934	 1
1462070155.012	 6	 0.000865	 -0.001193	 -0.001207	 1.883012	 0.018100	 -0.119177	 0.053461	 0.806660	 -0.027746	 0.587938	 1
1462070155.022	 6	 0.000870	 -0.001185	 -0.000141	 1.882971	 0.018097	 -0.119188	 0.053464	 0.806648	 -0.027752	 0.587955	 1
1462070155.032	 6	 -0.001265	 -0.001179	 -0.000122	 1.882920	 0.018135	 -0.119180	 0.053471	 0.806632	 -0.027736	 0.587976	 1
1462070155.042	 6	 -0.000193	 -0.000119	 -0.000122	 1.882893	 0.018139	 -0.119182	 0.053472	 0.806624	 -0.027735	 0.587987	 1
1462070155.052	 6	 0.002087	 0.001821	 -0.000040	 1.882842	 0.018159	 -0.119200	 0.053485	 0.806608	 -0.027734	 0.588008	 1
1462070155.062	 6	 0.002076	 -0.001363	 0.000996	 1.882773	 0.018181	 -0.119223	 0.053500	 0.806587	 -0.027734	 0.588036	 1
1462070155.072	 6	 -0.002177	 0.002897	 0.000007	 1.882775	 0.018181	 -0.119210	 0.053495	 0.806588	 -0.027730	 0.588035	 1
1462070155.082	 6	 -0.000028	 0.005025	 0.001073	 1.882744	 0.018182	 -0.119202	 0.053491	 0.806579	 -0.027728	 0.588048	 1
1462070155.092	 6	 -0.000028	 0.005024	 0.001073	 1.882739	 0.018204	 -0.119206	 0.053499	 0.806577	 -0.027720	 0.588050	 1
1462070155.102	 6	 -0.000024	 0.005032	 0.002139	 1.882771	 0.018196	 -0.119215	 0.053501	 0.806586	 -0.027725	 0.588037	 1
1462070155.112	 6	 -0.002168	 0.003966	 0.001082	 1.882776	 0.018231	 -0.119202	 0.053506	 0.806587	 -0.027707	 0.588036	 1
1462070155.122	 6	 0.001047	 0.005035	 0.003196	 1.882762	 0.018274	 -0.119219	 0.053525	 0.806582	 -0.027695	 0.588042	 1
1462070155.132	 6	 0.001043	 0.005027	 0.002130	 1.882799	 0.018315	 -0.119235	 0.053544	 0.806592	 -0.027683	 0.588028	 1
1462070155.142	 6	 0.001036	 0.007123	 -0.002113	 1.882811	 0.018292	 -0.119241	 0.053540	 0.806595	 -0.027693	 0.588022	 1
1462070155.152	 6	 -0.001100	 0.006073	 -0.001038	 1.882812	 0.018318	 -0.119238	 0.053547	 0.806595	 -0.027682	 0.588023	 1
1462070155.162	 6	 -0.001104	 0.006065	 -0.002104	 1.882846	 0.018320	 -0.119231	 0.053545	 0.806605	 -0.027678	 0.588009	 1
1462070155.172	 6	 -0.000033	 0.006069	 -0.001048	 1.882867	 0.018311	 -0.119215	 0.053536	 0.806612	 -0.027676	 0.588001	 1
1462070155.182	 6	 -0.000057	 0.002862	 -0.003209	 1.882856	 0.018317	 -0.119205	 0.053534	 0.806609	 -0.027671	 0.588005	 1
1462070155.192	 6	 0.002072	 0.001792	 -0.003237	 1.882894	 0.018315	 -0.119210	 0.053536	 0.806620	 -0.027673	 0.587990	 1
1462070155.202	 6	 0.004205	 -0.000326	 -0.001144	 1.882837	 0.018293	 -0.119239	 0.053540	 0.806603	 -0.027692	 0.588012	 1
1462070155.212	 6	 -0.000054	 0.001813	 -0.001086	 1.882796	 0.018311	 -0.119249	 0.053549	 0.806590	 -0.027688	 0.588029	 1
1462070155.222	 6	 0.001131	 -0.000506	 -0.002103	 1.882766	 0.018322	 -0.119256	 0.053554	 0.806581	 -0.027687	 0.588041	 1
1462070155.232	 6	 0.001141	 0.001621	 -0.002083	 1.882727	 0.018321	 -0.119260	 0.053555	 0.806570	 -0.027689	 0.588057	 1
1462070155.242	 6	 0.000084	 0.003751	 -0.002054	 1.882709	 0.018285	 -0.119253	 0.053541	 0.806565	 -0.027702	 0.588063	 1
1462070155.252	 6	 -0.002061	 0.001630	 -0.002055	 1.882688	 0.018264	 -0.119232	 0.053527	 0.806560	 -0.027705	 0.588072	 1
1462070155.262	 6	 -0.000994	 0.000571	 -0.001009	 1.882666	 0.018270	 -0.119224	 0.053525	 0.806554	 -0.027701	 0.588081	 1
1462070155.272	 6	 -0.000994	 0.000570	 -0.001008	 1.882616	 0.018267	 -0.119215	 0.053520	 0.806539	 -0.027701	 0.588101	 1
1462070155.282	 6	 -0.003124	 0.001640	 -0.000980	 1.882606	 0.018277	 -0.119187	 0.053511	 0.806537	 -0.027689	 0.588106	 1
1462070155.292	 6	 -0.002053	 0.001644	 0.000077	 1.882577	 0.018308	 -0.119165	 0.053511	 0.806528	 -0.027671	 0.588118	 1
1462070155.302	 6	 0.000091	 0.002709	 0.001134	 1.882583	 0.018332	 -0.119163	 0.053517	 0.806530	 -0.027660	 0.588116	 1
1462070155.312	 6	 -0.002053	 0.001643	 0.000077	 1.882566	 0.018366	 -0.119155	 0.053523	 0.806524	 -0.027644	 0.588124	 1
1462070155.322	 6	 0.001158	 0.002705	 0.001125	 1.882543	 0.018405	 -0.119158	 0.053536	 0.806516	 -0.027631	 0.588134	 1
1462070155.332	 6	 0.000091	 0.003764	 0.000078	 1.882592	 0.018425	 -0.119166	 0.053546	 0.806530	 -0.027623	 0.588115	 1
1462070155.342	 6	 -0.000980	 0.003759	 -0.000978	 1.882562	 0.018439	 -0.119152	 0.053544	 0.806522	 -0.027615	 0.588127	 1
1462070155.352	 6	 0.000092	 0.004819	 -0.000977	 1.882564	 0.018439	 -0.119139	 0.053539	 0.806523	 -0.027611	 0.588126	 1
1462070155.362	 6	 0.000092	 0.004818	 -0.000977	 1.882557	 0.018425	 -0.119141	 0.053535	 0.806521	 -0.027617	 0.588129	 1
1462070155.372	 6	 -0.000975	 0.004821	 -0.000968	 1.882582	 0.018403	 -0.119127	 0.053523	 0.806529	 -0.027621	 0.588119	 1
1462070155.382	 6	 0.001275	 0.004651	 -0.000918	 1.882622	 0.018404	 -0.119130	 0.053526	 0.806540	 -0.027621	 0.588102	 1
1462070155.392	 6	 0.000201	 0.002535	 0.000137	 1.882626	 0.018416	 -0.119136	 0.053531	 0.806541	 -0.027617	 0.588101	 1
1462070155.402	 6	 0.000202	 0.003590	 -0.000919	 1.882599	 0.018412	 -0.119134	 0.053529	 0.806533	 -0.027619	 0.588112	 1
1462070155.412	 6	 0.002327	 0.002512	 -0.002013	 1.882592	 0.018417	 -0.119144	 0.053535	 0.806531	 -0.027620	 0.588115	 1
1462070155.422	 6	 0.002318	 0.001440	 -0.003088	 1.882579	 0.018401	 -0.119153	 0.053533	 0.806527	 -0.027630	 0.588120	 1
1462070155.432	 6	 0.002326	 0.001456	 -0.000956	 1.882585	 0.018413	 -0.119167	 0.053542	 0.806528	 -0.027629	 0.588117	 1
1462070155.442	 6	 0.002326	 0.001455	 -0.000956	 1.882576	 0.018400	 -0.119184	 0.053545	 0.806525	 -0.027639	 0.588120	 1
1462070155.452	 6	 0.002326	 0.001455	 -0.000956	 1.882560	 0.018396	 -0.119202	 0.053552	 0.806521	 -0.027647	 0.588126	 1
1462070155.462	 6	 0.000196	 0.001469	 0.000128	 1.882567	 0.018404	 -0.119213	 0.053558	 0.806522	 -0.027646	 0.588124	 1
1462070155.472	 6	 0.001258	 0.001458	 -0.000947	 1.882542	 0.018420	 -0.119221	 0.053566	 0.806514	 -0.027643	 0.588134	 1
1462070155.482	 6	 0.000191	 0.001461	 -0.000937	 1.882531	 0.018430	 -0.119232	 0.053573	 0.806510	 -0.027642	 0.588139	 1
1462070155.492	 6	 -0.000871	 0.002527	 -0.000918	 1.882525	 0.018435	 -0.119225	 0.053572	 0.806509	 -0.027639	 0.588141	 1
1462070155.502	 6	 0.001258	 0.001457	 -0.000946	 1.882536	 0.018431	 -0.119234	 0.053574	 0.806512	 -0.027643	 0.588137	 1
1462070155.512	 6	 0.000195	 0.001468	 0.000129	 1.882520	 0.018438	 -0.119241	 0.053579	 0.806507	 -0.027642	 0.588143	 1
1462070155.522	 6	 -0.000886	 -0.000664	 -0.000947	 1.882530	 0.018435	 -0.119240	 0.053578	 0.806510	 -0.027643	 0.588139	 1
1462070155.532	 6	 0.001348	 0.000274	 0.001230	 1.882509	 0.018443	 -0.119250	 0.053584	 0.806503	 -0.027643	 0.588147	 1
1462070155.542	 6	 0.001344	 0.000266	 0.000164	 1.882444	 0.018441	 -0.119262	 0.053587	 0.806484	 -0.027649	 0.588174	 1
1462070155.552	 6	 0.001345	 0.001321	 -0.000891	 1.882395	 0.018450	 -0.119278	 0.053596	 0.806469	 -0.027652	 0.588193	 1
1462070155.562	 6	 0.000277	 0.000268	 0.000174	 1.882392	 0.018443	 -0.119291	 0.053599	 0.806468	 -0.027658	 0.588194	 1
1462070155.572	 6	 -0.001853	 0.001338	 0.000202	 1.882360	 0.018477	 -0.119273	 0.053601	 0.806458	 -0.027640	 0.588208	 1
1462070155.582	 6	 -0.001859	 -0.000782	 0.001249	 1.882353	 0.018495	 -0.119254	 0.053599	 0.806456	 -0.027627	 0.588212	 1
1462070155.592	 6	 0.001382	 0.000333	 0.009757	 1.882292	 0.018566	 -0.119278	 0.053628	 0.806436	 -0.027607	 0.588237	 1
1462070155.602	 6	 0.003509	 0.002423	 0.005495	 1.882301	 0.018637	 -0.119336	 0.053673	 0.806436	 -0.027596	 0.588234	 1
1462070155.612	 6	 0.000280	 0.000274	 0.001240	 1.882305	 0.018653	 -0.119344	 0.053680	 0.806436	 -0.027592	 0.588233	 1
1462070155.622	 6	 0.001357	 0.001342	 0.002306	 1.882285	 0.018678	 -0.119365	 0.053696	 0.806429	 -0.027588	 0.588241	 1
1462070155.632	 6	 0.001357	 0.001342	 0.002306	 1.882258	 0.018731	 -0.119374	 0.053715	 0.806420	 -0.027570	 0.588253	 1
1462070155.642	 6	 0.003488	 0.003440	 -0.000890	 1.882265	 0.018736	 -0.119401	 0.053727	 0.806421	 -0.027576	 0.588250	 1
1462070155.652	 6	 0.001350	 0.003438	 -0.001937	 1.882268	 0.018738	 -0.119422	 0.053737	 0.806421	 -0.027581	 0.588249	 1
1462070155.662	 6	 -0.000780	 0.004508	 -0.001908	 1.882285	 0.018735	 -0.119415	 0.053733	 0.806427	 -0.027580	 0.588241	 1
1462070155.672	 6	 0.001363	 0.004516	 0.000205	 1.882295	 0.018729	 -0.119432	 0.053738	 0.806429	 -0.027587	 0.588237	 1
1462070155.682	 6	 0.002416	 0.002378	 -0.000890	 1.882323	 0.018717	 -0.119452	 0.053743	 0.806437	 -0.027597	 0.588225	 1
1462070155.692	 6	 0.000275	 0.000265	 0.000174	 1.882333	 0.018698	 -0.119460	 0.053741	 0.806440	 -0.027607	 0.588221	 1
1462070155.702	 6	 0.000285	 0.001336	 0.001250	 1.882324	 0.018720	 -0.119460	 0.053747	 0.806437	 -0.027598	 0.588225	 1
1462070155.712	 6	 0.001439	 0.001186	 0.001299	 1.882317	 0.018730	 -0.119475	 0.053756	 0.806434	 -0.027598	 0.588228	 1
1462070155.722	 6	 0.000368	 0.001181	 0.000243	 1.882311	 0.018764	 -0.119485	 0.053770	 0.806432	 -0.027588	 0.588231	 1
1462070155.732	 6	 -0.001766	 0.001187	 0.000261	 1.882292	 0.018786	 -0.119467	 0.053769	 0.806426	 -0.027574	 0.588239	 1
1462070155.742	 6	 0.000363	 0.001173	 -0.000823	 1.882273	 0.018781	 -0.119468	 0.053767	 0.806421	 -0.027577	 0.588247	 1
1462070155.752	 6	 0.001431	 0.001169	 -0.000832	 1.882275	 0.018765	 -0.119484	 0.053769	 0.806421	 -0.027588	 0.588245	 1
1462070155.762	 6	 0.000353	 -0.000955	 -0.000843	 1.882229	 0.018776	 -0.119483	 0.053772	 0.806407	 -0.027585	 0.588264	 1
1462070155.772	 6	 -0.001780	 0.000107	 -0.001880	 1.882221	 0.018770	 -0.119467	 0.053763	 0.806406	 -0.027583	 0.588268	 1
1462070155.782	 6	 0.000358	 0.000108	 -0.000833	 1.882192	 0.018799	 -0.119464	 0.053770	 0.806397	 -0.027571	 0.588280	 1
1462070155.792	 6	 0.000353	 -0.000956	 -0.000843	 1.882163	 0.018782	 -0.119461	 0.053764	 0.806389	 -0.027578	 0.588291	 1
1462070155.802	 6	 0.000358	 0.000108	 -0.000833	 1.882139	 0.018783	 -0.119465	 0.053765	 0.806381	 -0.027579	 0.588301	 1
1462070155.812	 6	 0.000348	 -0.002020	 -0.000852	 1.882089	 0.018781	 -0.119460	 0.053762	 0.806367	 -0.027580	 0.588321	 1
1462070155.822	 6	 0.000348	 -0.002020	 -0.000852	 1.882017	 0.018777	 -0.119462	 0.053760	 0.806346	 -0.027584	 0.588350	 1
1462070155.832	 6	 0.000357	 -0.000949	 0.000223	 1.881972	 0.018783	 -0.119463	 0.053762	 0.806332	 -0.027583	 0.588368	 1
1462070155.842	 6	 -0.001773	 0.000120	 0.000252	 1.881944	 0.018795	 -0.119455	 0.053762	 0.806324	 -0.027577	 0.588380	 1
1462070155.852	 6	 -0.000705	 0.000117	 0.000243	 1.881930	 0.018804	 -0.119444	 0.053760	 0.806320	 -0.027570	 0.588386	 1
1462070155.862	 6	 -0.002830	 0.002250	 0.000281	 1.881896	 0.018836	 -0.119415	 0.053757	 0.806310	 -0.027550	 0.588401	 1
1462070155.872	 6	 -0.000691	 0.003307	 0.000272	 1.881874	 0.018838	 -0.119408	 0.053755	 0.806304	 -0.027547	 0.588410	 1
1462070155.882	 6	 -0.000624	 0.003184	 0.000319	 1.881859	 0.018851	 -0.119403	 0.053756	 0.806299	 -0.027541	 0.588416	 1
1462070155.892	 6	 -0.000628	 0.003176	 -0.000746	 1.881834	 0.018860	 -0.119395	 0.053755	 0.806292	 -0.027535	 0.588427	 1
1462070155.902	 6	 0.001520	 0.004249	 0.001376	 1.881862	 0.018861	 -0.119407	 0.053761	 0.806300	 -0.027538	 0.588415	 1
1462070155.912	 6	 0.001526	 0.006368	 0.000330	 1.881915	 0.018875	 -0.119424	 0.053772	 0.806315	 -0.027536	 0.588394	 1
1462070155.922	 6	 0.001515	 0.004241	 0.000311	 1.881944	 0.018895	 -0.119440	 0.053786	 0.806322	 -0.027532	 0.588382	 1
1462070155.932	 6	 -0.001695	 0.003179	 -0.000737	 1.881980	 0.018920	 -0.119435	 0.053791	 0.806332	 -0.027519	 0.588368	 1
1462070155.942	 6	 0.002583	 0.005293	 -0.000754	 1.881985	 0.018948	 -0.119443	 0.053803	 0.806333	 -0.027510	 0.588367	 1
1462070155.952	 6	 0.002564	 0.003150	 -0.002905	 1.882000	 0.018942	 -0.119460	 0.053808	 0.806337	 -0.027517	 0.588360	 1
1462070155.962	 6	 0.002555	 0.002078	 -0.003981	 1.882026	 0.018915	 -0.119472	 0.053805	 0.806345	 -0.027531	 0.588349	 1
1462070155.972	 6	 0.001487	 0.001026	 -0.002915	 1.882032	 0.018887	 -0.119481	 0.053801	 0.806347	 -0.027544	 0.588346	 1
1462070155.982	 6	 0.002554	 0.001022	 -0.002925	 1.881994	 0.018853	 -0.119500	 0.053798	 0.806336	 -0.027565	 0.588360	 1
1462070155.992	 6	 0.002543	 -0.002161	 -0.001888	 1.881993	 0.018842	 -0.119512	 0.053800	 0.806336	 -0.027573	 0.588360	 1
1462070156.002	 6	 0.001455	 -0.007469	 -0.000863	 1.881955	 0.018840	 -0.119534	 0.053807	 0.806324	 -0.027581	 0.588375	 1
1462070156.012	 6	 0.000445	 -0.006487	 0.000257	 1.881892	 0.018835	 -0.119542	 0.053808	 0.806305	 -0.027587	 0.588400	 1
1462070156.022	 6	 0.003646	 -0.007552	 0.001285	 1.881833	 0.018857	 -0.119576	 0.053827	 0.806287	 -0.027590	 0.588424	 1
1462070156.032	 6	 -0.000617	 -0.005420	 0.000276	 1.881765	 0.018875	 -0.119581	 0.053834	 0.806266	 -0.027586	 0.588452	 1
1462070156.042	 6	 -0.000613	 -0.005412	 0.001342	 1.881705	 0.018898	 -0.119572	 0.053836	 0.806248	 -0.027576	 0.588477	 1
1462070156.052	 6	 0.001527	 -0.003299	 0.000278	 1.881631	 0.018921	 -0.119572	 0.053842	 0.806226	 -0.027568	 0.588507	 1
1462070156.062	 6	 -0.000607	 -0.002237	 -0.000760	 1.881575	 0.018920	 -0.119568	 0.053839	 0.806210	 -0.027569	 0.588530	 1
1462070156.072	 6	 0.001538	 -0.000117	 -0.000759	 1.881523	 0.018931	 -0.119569	 0.053842	 0.806194	 -0.027566	 0.588551	 1
1462070156.082	 6	 0.001538	 -0.000117	 -0.000759	 1.881514	 0.018922	 -0.119575	 0.053842	 0.806192	 -0.027572	 0.588554	 1
1462070156.092	 6	 0.001542	 -0.000109	 0.000307	 1.881481	 0.018939	 -0.119585	 0.053850	 0.806181	 -0.027569	 0.588568	 1
1462070156.102	 6	 0.000484	 0.000965	 0.001392	 1.881491	 0.018960	 -0.119596	 0.053861	 0.806183	 -0.027564	 0.588564	 1
1462070156.112	 6	 0.001556	 0.002025	 0.001393	 1.881467	 0.018979	 -0.119614	 0.053874	 0.806175	 -0.027562	 0.588574	 1
1462070156.122	 6	 0.000498	 0.003099	 0.002478	 1.881430	 0.019012	 -0.119625	 0.053887	 0.806163	 -0.027553	 0.588589	 1
1462070156.132	 6	 -0.000573	 0.003095	 0.001422	 1.881455	 0.019041	 -0.119626	 0.053896	 0.806170	 -0.027540	 0.588580	 1
1462070156.142	 6	 -0.000573	 0.004150	 0.000366	 1.881444	 0.019056	 -0.119617	 0.053897	 0.806167	 -0.027532	 0.588585	 1
1462070156.152	 6	 -0.001630	 0.006281	 0.000395	 1.881510	 0.019083	 -0.119609	 0.053903	 0.806186	 -0.027517	 0.588559	 1
1462070156.162	 6	 0.000494	 0.004147	 0.000357	 1.881521	 0.019104	 -0.119609	 0.053909	 0.806189	 -0.027509	 0.588555	 1
1462070156.172	 6	 -0.000567	 0.006270	 -0.000680	 1.881581	 0.019108	 -0.119609	 0.053911	 0.806206	 -0.027505	 0.588531	 1
1462070156.182	 6	 0.003701	 0.006257	 -0.000717	 1.881618	 0.019110	 -0.119631	 0.053921	 0.806217	 -0.027510	 0.588516	 1
1462070156.192	 6	 0.003743	 0.002952	 -0.000705	 1.881661	 0.019129	 -0.119659	 0.053939	 0.806228	 -0.027509	 0.588498	 1
1462070156.202	 6	 0.003733	 0.001880	 -0.001781	 1.881702	 0.019131	 -0.119691	 0.053953	 0.806239	 -0.027517	 0.588482	 1
1462070156.212	 6	 0.004795	 0.000813	 -0.001800	 1.881718	 0.019118	 -0.119726	 0.053963	 0.806243	 -0.027532	 0.588474	 1
1462070156.222	 6	 0.003729	 0.001872	 -0.002846	 1.881743	 0.019096	 -0.119748	 0.053966	 0.806250	 -0.027547	 0.588463	 1
1462070156.232	 6	 0.003732	 0.000824	 -0.000724	 1.881729	 0.019076	 -0.119785	 0.053974	 0.806246	 -0.027566	 0.588468	 1
1462070156.242	 6	 0.002676	 0.004010	 -0.001751	 1.881734	 0.019058	 -0.119809	 0.053979	 0.806247	 -0.027580	 0.588465	 1
1462070156.252	 6	 0.003738	 0.002943	 -0.001770	 1.881741	 0.019021	 -0.119839	 0.053980	 0.806249	 -0.027604	 0.588461	 1
1462070156.262	 6	 0.002660	 0.000819	 -0.001781	 1.881732	 0.019017	 -0.119860	 0.053988	 0.806246	 -0.027612	 0.588464	 1
1462070156.272	 6	 -0.000533	 0.000844	 0.000379	 1.881782	 0.019045	 -0.119854	 0.053994	 0.806260	 -0.027597	 0.588445	 1
1462070156.282	 6	 0.001602	 0.000837	 0.000360	 1.881767	 0.019048	 -0.119869	 0.054001	 0.806255	 -0.027601	 0.588451	 1
1462070156.292	 6	 0.000535	 0.001896	 -0.000686	 1.881754	 0.019047	 -0.119872	 0.054002	 0.806251	 -0.027602	 0.588456	 1
1462070156.302	 6	 -0.000533	 0.000843	 0.000379	 1.881785	 0.019053	 -0.119875	 0.054005	 0.806260	 -0.027600	 0.588444	 1
1462070156.312	 6	 -0.001594	 0.002966	 -0.000658	 1.881796	 0.019062	 -0.119858	 0.054001	 0.806264	 -0.027591	 0.588440	 1
1462070156.322	 6	 -0.000536	 0.001891	 -0.001743	 1.881797	 0.019067	 -0.119843	 0.053996	 0.806264	 -0.027585	 0.588440	 1
1462070156.332	 6	 -0.000550	 0.000812	 -0.003884	 1.881814	 0.019065	 -0.119828	 0.053990	 0.806270	 -0.027581	 0.588433	 1
1462070156.342	 6	 0.000566	 0.000737	 -0.001731	 1.881798	 0.019067	 -0.119819	 0.053987	 0.806265	 -0.027578	 0.588440	 1
1462070156.352	 6	 0.000565	 -0.000319	 -0.000675	 1.881760	 0.019071	 -0.119820	 0.053988	 0.806254	 -0.027577	 0.588455	 1
1462070156.362	 6	 0.000546	 -0.003518	 -0.001770	 1.881685	 0.019057	 -0.119814	 0.053980	 0.806232	 -0.027583	 0.588485	 1
1462070156.372	 6	 0.000556	 -0.001391	 -0.001750	 1.881633	 0.019055	 -0.119808	 0.053977	 0.806217	 -0.027584	 0.588506	 1
1462070156.382	 6	 0.002695	 -0.000334	 -0.001759	 1.881617	 0.019082	 -0.119826	 0.053992	 0.806212	 -0.027579	 0.588513	 1
1462070156.392	 6	 0.001627	 -0.001387	 -0.000693	 1.881580	 0.019115	 -0.119836	 0.054005	 0.806200	 -0.027569	 0.588528	 1
1462070156.402	 6	 0.001622	 -0.002451	 -0.000703	 1.881532	 0.019127	 -0.119844	 0.054011	 0.806185	 -0.027568	 0.588548	 1
1462070156.412	 6	 0.002695	 -0.000335	 -0.001758	 1.881530	 0.019121	 -0.119866	 0.054017	 0.806184	 -0.027577	 0.588548	 1
1462070156.422	 6	 0.002694	 -0.000335	 -0.001758	 1.881475	 0.019105	 -0.119885	 0.054020	 0.806168	 -0.027590	 0.588570	 1
1462070156.432	 6	 0.000569	 0.000743	 -0.000664	 1.881469	 0.019110	 -0.119885	 0.054021	 0.806166	 -0.027589	 0.588572	 1
1462070156.442	 6	 0.002694	 -0.000335	 -0.001758	 1.881438	 0.019104	 -0.119898	 0.054024	 0.806157	 -0.027596	 0.588584	 1
1462070156.452	 6	 0.001618	 -0.001404	 -0.002824	 1.881424	 0.019069	 -0.119909	 0.054019	 0.806153	 -0.027613	 0.588589	 1
1462070156.462	 6	 -0.000507	 0.000730	 -0.002786	 1.881384	 0.019051	 -0.119895	 0.054007	 0.806142	 -0.027618	 0.588605	 1
1462070156.472	 6	 0.002680	 -0.001415	 -0.003899	 1.881357	 0.019022	 -0.119907	 0.054003	 0.806134	 -0.027634	 0.588615	 1
1462070156.482	 6	 0.000555	 -0.000338	 -0.002805	 1.881339	 0.018999	 -0.119901	 0.053994	 0.806130	 -0.027642	 0.588622	 1
1462070156.492	 6	 -0.000461	 0.001720	 -0.001683	 1.881330	 0.018977	 -0.119893	 0.053983	 0.806128	 -0.027649	 0.588625	 1
1462070156.502	 6	 -0.001537	 0.000652	 -0.002749	 1.881320	 0.018968	 -0.119880	 0.053976	 0.806125	 -0.027648	 0.588629	 1
1462070156.512	 6	 0.000598	 0.001701	 -0.003823	 1.881340	 0.018957	 -0.119869	 0.053968	 0.806132	 -0.027649	 0.588621	 1
1462070156.522	 6	 0.000597	 0.001701	 -0.003823	 1.881334	 0.018943	 -0.119866	 0.053963	 0.806130	 -0.027654	 0.588623	 1
1462070156.532	 6	 -0.000471	 0.000648	 -0.002758	 1.881279	 0.018919	 -0.119855	 0.053951	 0.806115	 -0.027662	 0.588645	 1
1462070156.542	 6	 0.000606	 0.001716	 -0.001692	 1.881264	 0.018914	 -0.119855	 0.053949	 0.806111	 -0.027664	 0.588651	 1
1462070156.552	 6	 0.000611	 0.002779	 -0.001682	 1.881230	 0.018920	 -0.119848	 0.053947	 0.806101	 -0.027661	 0.588665	 1
1462070156.562	 6	 -0.000457	 0.001726	 -0.000616	 1.881238	 0.018918	 -0.119850	 0.053948	 0.806103	 -0.027662	 0.588662	 1
1462070156.572	 6	 0.000610	 0.002779	 -0.001681	 1.881215	 0.018919	 -0.119850	 0.053947	 0.806096	 -0.027662	 0.588671	 1
1462070156.582	 6	 0.001681	 0.001727	 0.000431	 1.881235	 0.018934	 -0.119865	 0.053958	 0.806101	 -0.027660	 0.588663	 1
1462070156.592	 6	 0.001677	 0.002775	 -0.001691	 1.881254	 0.018923	 -0.119879	 0.053961	 0.806107	 -0.027668	 0.588655	 1
1462070156.602	 6	 0.000619	 0.002794	 0.000450	 1.881283	 0.018935	 -0.119885	 0.053967	 0.806115	 -0.027664	 0.588643	 1
1462070156.612	 6	 0.000604	 0.000659	 -0.000635	 1.881297	 0.018934	 -0.119884	 0.053967	 0.806119	 -0.027664	 0.588638	 1
1462070156.622	 6	 0.000604	 0.000659	 -0.000635	 1.881314	 0.018940	 -0.119891	 0.053972	 0.806124	 -0.027663	 0.588631	 1
1462070156.632	 6	 0.000599	 -0.000405	 -0.000645	 1.881327	 0.018944	 -0.119895	 0.053975	 0.806127	 -0.027663	 0.588626	 1
1462070156.642	 6	 0.000603	 -0.000397	 0.000421	 1.881328	 0.018949	 -0.119901	 0.053978	 0.806127	 -0.027662	 0.588625	 1
1462070156.652	 6	 -0.000469	 -0.001458	 0.000421	 1.881281	 0.018964	 -0.119895	 0.053980	 0.806113	 -0.027656	 0.588645	 1
1462070156.662	 6	 0.002769	 -0.000493	 -0.000636	 1.881237	 0.018955	 -0.119914	 0.053984	 0.806100	 -0.027666	 0.588662	 1
1462070156.672	 6	 0.001695	 -0.002610	 0.000420	 1.881207	 0.018976	 -0.119938	 0.053999	 0.806090	 -0.027666	 0.588674	 1
1462070156.682	 6	 0.001685	 -0.004737	 0.000400	 1.881153	 0.018986	 -0.119956	 0.054009	 0.806074	 -0.027668	 0.588696	 1
1462070156.692	 6	 0.000623	 -0.003671	 0.000419	 1.881090	 0.019023	 -0.119968	 0.054024	 0.806054	 -0.027658	 0.588722	 1
1462070156.702	 6	 0.002758	 -0.002622	 -0.000655	 1.881033	 0.019046	 -0.119988	 0.054038	 0.806036	 -0.027657	 0.588745	 1
1462070156.712	 6	 0.000619	 -0.003679	 -0.000646	 1.881006	 0.019030	 -0.120001	 0.054038	 0.806028	 -0.027667	 0.588755	 1
1462070156.722	 6	 0.002748	 -0.004749	 -0.000675	 1.880923	 0.019013	 -0.120018	 0.054039	 0.806004	 -0.027682	 0.588788	 1
1462070156.732	 6	 0.003813	 -0.006865	 0.001428	 1.880854	 0.019011	 -0.120051	 0.054051	 0.805982	 -0.027694	 0.588816	 1
1462070156.742	 6	 0.004868	 -0.011107	 0.003511	 1.880770	 0.019016	 -0.120102	 0.054071	 0.805956	 -0.027710	 0.588849	 1
1462070156.752	 6	 0.008088	 -0.015302	 0.013035	 1.880580	 0.018991	 -0.120193	 0.054098	 0.805898	 -0.027751	 0.588924	 1
1462070156.762	 6	 0.013432	 -0.021631	 0.022521	 1.880328	 0.019061	 -0.120389	 0.054194	 0.805817	 -0.027788	 0.589024	 1
1462070156.772	 6	 0.012311	 -0.031216	 0.020309	 1.880036	 0.019040	 -0.120573	 0.054258	 0.805727	 -0.027858	 0.589139	 1
1462070156.782	 6	 0.017644	 -0.040728	 0.030830	 1.879622	 0.019041	 -0.120806	 0.054346	 0.805599	 -0.027938	 0.589302	 1
1462070156.792	 6	 0.020848	 -0.049171	 0.041380	 1.879050	 0.019050	 -0.121120	 0.054467	 0.805421	 -0.028042	 0.589528	 1
1462070156.802	 6	 0.025129	 -0.056545	 0.052995	 1.878369	 0.018996	 -0.121494	 0.054593	 0.805211	 -0.028193	 0.589796	 1
1462070156.812	 6	 0.043290	 -0.059729	 0.061329	 1.877741	 0.018740	 -0.122046	 0.054731	 0.805017	 -0.028476	 0.590035	 1
1462070156.822	 6	 0.045444	 -0.070378	 0.070825	 1.876797	 0.018569	 -0.122676	 0.054920	 0.804724	 -0.028757	 0.590403	 1
1462070156.832	 6	 0.057134	 -0.081051	 0.070618	 1.875800	 0.018072	 -0.123392	 0.055048	 0.804421	 -0.029195	 0.590782	 1
1462070156.842	 6	 0.067698	 -0.092876	 0.057627	 1.874929	 0.018466	 -0.124204	 0.055477	 0.804133	 -0.029301	 0.591129	 1
1462070156.852	 6	 0.077111	 -0.109069	 0.028619	 1.873887	 0.018580	 -0.125031	 0.055828	 0.803799	 -0.029529	 0.591539	 1
1462070156.862	 6	 0.075949	 -0.111347	 0.007293	 1.872788	 0.018466	 -0.125802	 0.056088	 0.803455	 -0.029833	 0.591966	 1
1462070156.872	 6	 0.080061	 -0.129576	 -0.011038	 1.871274	 0.016804	 -0.126525	 0.055864	 0.803023	 -0.030758	 0.592525	 1
1462070156.882	 6	 0.102301	 -0.167912	 -0.008392	 1.869738	 0.016422	 -0.127412	 0.056083	 0.802552	 -0.031217	 0.593120	 1
1462070156.892	 6	 0.115775	 -0.234055	 -0.030440	 1.867564	 0.015881	 -0.128435	 0.056299	 0.801890	 -0.031799	 0.593963	 1
1462070156.902	 6	 0.130365	 -0.280077	 -0.064033	 1.864876	 0.014973	 -0.129461	 0.056397	 0.801082	 -0.032544	 0.595002	 1
1462070156.912	 6	 0.163314	 -0.290967	 -0.085748	 1.862035	 0.011866	 -0.130715	 0.055928	 0.800270	 -0.034242	 0.596044	 1
1462070156.922	 6	 0.192018	 -0.298630	 -0.104187	 1.859126	 0.010398	 -0.132220	 0.056042	 0.799392	 -0.035360	 0.597145	 1
1462070156.932	 6	 0.194800	 -0.341580	 -0.158964	 1.855837	 0.008477	 -0.133703	 0.056001	 0.798409	 -0.036663	 0.598383	 1
1462070156.942	 6	 0.211119	 -0.423142	 -0.252587	 1.851911	 0.005745	 -0.135037	 0.055642	 0.797255	 -0.038262	 0.599854	 1
1462070156.952	 6	 0.255229	 -0.482558	 -0.361166	 1.847153	 0.001851	 -0.136456	 0.054944	 0.795869	 -0.040371	 0.601618	 1
1462070156.962	 6	 0.308395	 -0.458810	 -0.438143	 1.842476	 -0.002987	 -0.138150	 0.054063	 0.794513	 -0.042932	 0.603310	 1
1462070156.972	 6	 0.365899	 -0.441377	 -0.496010	 1.838031	 -0.008578	 -0.140252	 0.053109	 0.793226	 -0.045905	 0.604868	 1
1462070156.982	 6	 0.399776	 -0.462006	 -0.540193	 1.833433	 -0.014732	 -0.142659	 0.052088	 0.791888	 -0.049192	 0.606449	 1
1462070156.992	 6	 0.397449	 -0.473947	 -0.574388	 1.828630	 -0.021232	 -0.145079	 0.050946	 0.790486	 -0.052619	 0.608085	 1
1462070157.002	 6	 0.381651	 -0.412361	 -0.594993	 1.824303	 -0.027908	 -0.147323	 0.049678	 0.789230	 -0.056044	 0.609514	 1
1462070157.012	 6	 0.376137	 -0.445357	 -0.600581	 1.819938	 -0.034652	 -0.149470	 0.048335	 0.787957	 -0.059460	 0.610944	 1
1462070157.022	 6	 0.378871	 -0.540064	 -0.605749	 1.814678	 -0.041440	 -0.151659	 0.046951	 0.786402	 -0.062921	 0.612706	 1
1462070157.032	 6	 0.360448	 -0.591136	 -0.615656	 1.808764	 -0.048273	 -0.153765	 0.045481	 0.784639	 -0.066380	 0.614709	 1
1462070157.042	 6	 0.313639	 -0.568588	 -0.605446	 1.802871	 -0.054975	 -0.155524	 0.043896	 0.782878	 -0.069672	 0.616702	 1
1462070157.052	 6	 0.277886	 -0.509523	 -0.541705	 1.797567	 -0.061081	 -0.157007	 0.042391	 0.781287	 -0.072623	 0.618482	 1
1462070157.062	 6	 0.304758	 -0.534559	 -0.463306	 1.792223	 -0.066412	 -0.158821	 0.041240	 0.779659	 -0.075369	 0.620283	 1
1462070157.072	 6	 0.341694	 -0.620836	 -0.465496	 1.786083	 -0.071602	 -0.161088	 0.040263	 0.777765	 -0.078210	 0.622369	 1
1462070157.082	 6	 0.342177	 -0.672513	 -0.551242	 1.779277	 -0.077482	 -0.163364	 0.039029	 0.775663	 -0.081327	 0.624668	 1
1462070157.092	 6	 0.299954	 -0.707229	 -0.662037	 1.772150	 -0.084332	 -0.165136	 0.037258	 0.773469	 -0.084656	 0.627049	 1
1462070157.102	 6	 0.241656	 -0.786308	 -0.736869	 1.764437	 -0.091924	 -0.166239	 0.034944	 0.771096	 -0.088055	 0.629632	 1
1462070157.112	 6	 0.172554	 -0.917267	 -0.783313	 1.755560	 -0.099865	 -0.166669	 0.032181	 0.768352	 -0.091376	 0.632654	 1
1462070157.122	 6	 0.077691	 -1.072675	 -0.838287	 1.745300	 -0.108157	 -0.166201	 0.028867	 0.765160	 -0.094540	 0.636207	 1
1462070157.132	 6	 -0.009862	 -1.269518	 -0.884119	 1.733386	 -0.116935	 -0.164806	 0.024930	 0.761422	 -0.097579	 0.640386	 1
1462070157.142	 6	 -0.061720	 -1.396003	 -0.893371	 1.719910	 -0.125688	 -0.162895	 0.020691	 0.757144	 -0.100413	 0.645153	 1
1462070157.152	 6	 -0.034231	 -1.459924	 -0.887786	 1.705653	 -0.134414	 -0.161180	 0.016457	 0.752560	 -0.103254	 0.650170	 1
1462070157.162	 6	 0.012777	 -1.455748	 -0.879630	 1.691222	 -0.143180	 -0.160059	 0.012384	 0.747863	 -0.106248	 0.655178	 1
1462070157.172	 6	 0.046995	 -1.442015	 -0.878734	 1.676891	 -0.151946	 -0.159454	 0.008465	 0.743146	 -0.109357	 0.660078	 1
1462070157.182	 6	 0.056351	 -1.443548	 -0.939578	 1.662537	 -0.161163	 -0.159092	 0.004439	 0.738372	 -0.112659	 0.664903	 1
1462070157.192	 6	 0.034614	 -1.482162	 -0.993037	 1.647909	 -0.170985	 -0.158684	 0.000127	 0.733455	 -0.116110	 0.669748	 1
1462070157.202	 6	 0.013682	 -1.595066	 -1.023746	 1.632403	 -0.181130	 -0.158136	 -0.004449	 0.728190	 -0.119568	 0.674850	 1
1462070157.212	 6	 -0.011681	 -1.733563	 -1.065313	 1.615508	 -0.191645	 -0.157531	 -0.009312	 0.722394	 -0.123065	 0.680379	 1
1462070157.222	 6	 -0.084806	 -1.809229	 -1.115471	 1.597801	 -0.202634	 -0.156456	 -0.014619	 0.716248	 -0.126485	 0.686132	 1
1462070157.232	 6	 -0.142773	 -1.850802	 -1.151590	 1.579693	 -0.214060	 -0.154929	 -0.020326	 0.709883	 -0.129810	 0.691956	 1
1462070157.242	 6	 -0.222351	 -1.792792	 -1.104529	 1.561973	 -0.225284	 -0.152884	 -0.026178	 0.703573	 -0.132793	 0.697615	 1
1462070157.252	 6	 -0.347870	 -1.576741	 -0.989521	 1.546277	 -0.235542	 -0.149850	 -0.031945	 0.697897	 -0.135034	 0.702628	 1
1462070157.262	 6	 -0.497489	 -1.285996	 -0.851227	 1.533754	 -0.244549	 -0.145393	 -0.037574	 0.693269	 -0.136321	 0.706670	 1
1462070157.272	 6	 -0.617236	 -1.021717	 -0.683597	 1.524315	 -0.252065	 -0.139626	 -0.042919	 0.689681	 -0.136640	 0.709808	 1
1462070157.282	 6	 -0.691084	 -0.770208	 -0.498369	 1.517687	 -0.257833	 -0.132940	 -0.047757	 0.687062	 -0.136062	 0.712146	 1
1462070157.292	 6	 -0.738464	 -0.548685	 -0.330702	 1.513556	 -0.261936	 -0.125630	 -0.052031	 0.685320	 -0.134736	 0.713775	 1
1462070157.302	 6	 -0.779763	 -0.375216	 -0.186981	 1.511428	 -0.264591	 -0.117809	 -0.055814	 0.684288	 -0.132779	 0.714845	 1
1462070157.312	 6	 -0.822513	 -0.270983	 -0.057748	 1.510701	 -0.265969	 -0.109472	 -0.059213	 0.683754	 -0.130240	 0.715550	 1
1462070157.322	 6	 -0.873226	 -0.255143	 0.052615	 1.510503	 -0.266207	 -0.100559	 -0.062359	 0.683406	 -0.127124	 0.716175	 1
1462070157.332	 6	 -0.931918	 -0.305583	 0.113405	 1.510116	 -0.265757	 -0.091011	 -0.065481	 0.682975	 -0.123539	 0.716935	 1
1462070157.342	 6	 -0.980259	 -0.396706	 0.141753	 1.509057	 -0.264997	 -0.080894	 -0.068723	 0.682279	 -0.119618	 0.717959	 1
1462070157.352	 6	 -0.996781	 -0.531512	 0.172616	 1.506808	 -0.263980	 -0.070511	 -0.072025	 0.681137	 -0.115465	 0.719397	 1
1462070157.362	 6	 -0.984339	 -0.652422	 0.224670	 1.503252	 -0.262534	 -0.060149	 -0.075227	 0.679522	 -0.111115	 0.721279	 1
1462070157.372	 6	 -0.950172	 -0.717869	 0.306893	 1.498822	 -0.260368	 -0.050034	 -0.078112	 0.677609	 -0.106562	 0.723456	 1
1462070157.382	 6	 -0.902936	 -0.754404	 0.421244	 1.493833	 -0.257144	 -0.040298	 -0.080491	 0.675531	 -0.101753	 0.725828	 1
1462070157.392	 6	 -0.850064	 -0.744015	 0.555167	 1.488697	 -0.252637	 -0.030970	 -0.082246	 0.673449	 -0.096640	 0.728260	 1
1462070157.402	 6	 -0.812419	 -0.814242	 0.712984	 1.483159	 -0.246650	 -0.021998	 -0.083332	 0.671281	 -0.091133	 0.730844	 1
1462070157.412	 6	 -0.824169	 -0.948149	 0.869573	 1.476010	 -0.239097	 -0.012700	 -0.083989	 0.668558	 -0.084905	 0.734008	 1
1462070157.422	 6	 -0.727491	 -0.882959	 0.951402	 1.468975	 -0.230553	 -0.004012	 -0.084030	 0.665929	 -0.078567	 0.737092	 1
1462070157.432	 6	 -0.617868	 -0.814391	 1.064056	 1.462425	 -0.220969	 0.003649	 -0.083284	 0.663550	 -0.072279	 0.739960	 1
1462070157.442	 6	 -0.563453	 -0.731436	 1.231679	 1.456428	 -0.209796	 0.010861	 -0.081742	 0.661445	 -0.065654	 0.742629	 1
1462070157.452	 6	 -0.510430	 -0.700737	 1.379644	 1.450805	 -0.197048	 0.017791	 -0.079469	 0.659539	 -0.058633	 0.745155	 1
1462070157.462	 6	 -0.428003	 -0.741640	 1.492582	 1.444729	 -0.183051	 0.024174	 -0.076524	 0.657516	 -0.051394	 0.747780	 1
1462070157.472	 6	 -0.321222	 -0.804051	 1.582727	 1.437833	 -0.168029	 0.029745	 -0.072901	 0.655235	 -0.044106	 0.750604	 1
1462070157.482	 6	 -0.182563	 -0.877350	 1.651178	 1.429959	 -0.152131	 0.034200	 -0.068552	 0.652629	 -0.036939	 0.753665	 1
1462070157.492	 6	 -0.014211	 -0.971110	 1.696799	 1.420939	 -0.135517	 0.037248	 -0.063434	 0.649624	 -0.030065	 0.757007	 1
1462070157.502	 6	 0.167909	 -1.064049	 1.714598	 1.410700	 -0.118422	 0.038699	 -0.057569	 0.646171	 -0.023651	 0.760650	 1
1462070157.512	 6	 0.339548	 -1.107049	 1.721230	 1.399687	 -0.100969	 0.038600	 -0.051009	 0.642413	 -0.017753	 0.764453	 1
1462070157.522	 6	 0.513464	 -1.119216	 1.727062	 1.388380	 -0.083161	 0.037004	 -0.043769	 0.638510	 -0.012382	 0.768268	 1
1462070157.532	 6	 0.684084	 -1.155799	 1.738026	 1.376695	 -0.064915	 0.033932	 -0.035830	 0.634411	 -0.007517	 0.772129	 1
1462070157.542	 6	 0.830157	 -1.196533	 1.753427	 1.364600	 -0.046183	 0.029604	 -0.027250	 0.630077	 -0.003073	 0.776048	 1
1462070157.552	 6	 0.934529	 -1.261544	 1.777492	 1.351995	 -0.026958	 0.024424	 -0.018154	 0.625444	 0.001093	 0.780057	 1
1462070157.562	 6	 0.992708	 -1.399734	 1.811935	 1.338304	 -0.007196	 0.018894	 -0.008682	 0.620263	 0.005178	 0.784329	 1
1462070157.572	 6	 0.988721	 -1.614294	 1.861162	 1.322753	 0.013116	 0.013634	 0.000988	 0.614211	 0.009407	 0.789085	 1
1462070157.582	 6	 0.910781	 -1.890239	 1.911495	 1.304688	 0.033866	 0.009418	 0.010597	 0.607021	 0.014020	 0.794492	 1
1462070157.592	 6	 0.764170	 -2.217274	 1.928912	 1.283450	 0.054595	 0.006937	 0.019789	 0.598427	 0.019115	 0.800704	 1
1462070157.602	 6	 0.595003	 -2.545562	 1.911344	 1.258838	 0.074797	 0.006501	 0.028312	 0.588359	 0.024636	 0.807729	 1
1462070157.612	 6	 0.457930	 -2.825294	 1.855581	 1.231128	 0.094090	 0.007862	 0.036128	 0.576927	 0.030360	 0.815432	 1
1462070157.622	 6	 0.382986	 -3.017259	 1.754265	 1.201116	 0.112183	 0.010337	 0.043335	 0.564446	 0.035938	 0.823548	 1
1462070157.632	 6	 0.385369	 -3.075696	 1.617283	 1.170111	 0.128926	 0.013046	 0.050109	 0.551437	 0.041001	 0.831700	 1
1462070157.642	 6	 0.482070	 -3.047200	 1.479223	 1.139261	 0.144587	 0.015040	 0.056779	 0.538354	 0.045270	 0.839584	 1
1462070157.652	 6	 0.649465	 -2.989965	 1.372788	 1.109117	 0.159792	 0.015630	 0.063746	 0.525403	 0.048647	 0.847067	 1
1462070157.662	 6	 0.851298	 -2.899619	 1.299399	 1.080064	 0.175159	 0.014535	 0.071296	 0.512724	 0.051181	 0.854056	 1
1462070157.672	 6	 1.046808	 -2.798563	 1.233626	 1.052338	 0.190938	 0.011784	 0.079483	 0.500414	 0.052945	 0.860503	 1
1462070157.682	 6	 1.202850	 -2.687870	 1.160825	 1.025994	 0.207023	 0.007619	 0.088166	 0.488503	 0.054013	 0.866415	 1
1462070157.692	 6	 1.307647	 -2.574958	 1.079965	 1.001103	 0.223160	 0.002415	 0.097112	 0.477042	 0.054490	 0.871797	 1
1462070157.702	 6	 1.360932	 -2.505649	 0.978899	 0.977243	 0.238983	 -0.003497	 0.106072	 0.465877	 0.054424	 0.876781	 1
1462070157.712	 6	 1.366030	 -2.449154	 0.851489	 0.954198	 0.254033	 -0.009917	 0.114787	 0.454941	 0.053800	 0.881452	 1
1462070157.722	 6	 1.311072	 -2.446796	 0.714506	 0.931439	 0.267902	 -0.016470	 0.122988	 0.444045	 0.052679	 0.885959	 1
1462070157.732	 6	 1.247477	 -2.412959	 0.515011	 0.909039	 0.280069	 -0.023318	 0.130466	 0.433241	 0.050902	 0.890331	 1
1462070157.742	 6	 1.231931	 -2.347579	 0.284485	 0.887642	 0.290425	 -0.031160	 0.137287	 0.422787	 0.048205	 0.894472	 1
1462070157.752	 6	 1.226022	 -2.323294	 0.111043	 0.866938	 0.299417	 -0.040033	 0.143641	 0.412531	 0.044673	 0.898437	 1
1462070157.762	 6	 1.193673	 -2.316425	 0.018667	 0.846561	 0.307576	 -0.049322	 0.149630	 0.402339	 0.040684	 0.902263	 1
1462070157.772	 6	 1.117814	 -2.320584	 0.001171	 0.826080	 0.315228	 -0.058185	 0.155233	 0.392070	 0.036665	 0.906002	 1
1462070157.782	 6	 1.028391	 -2.288290	 0.018236	 0.805570	 0.322517	 -0.066151	 0.160425	 0.381800	 0.032874	 0.909622	 1
1462070157.802	 7	 0.907626	 -2.003882	 0.174338	 0.767203	 0.337130	 -0.078809	 0.169989	 0.362543	 0.026727	 0.915943	 1
1462070157.812	 7	 0.919523	 -1.863555	 0.316221	 0.749744	 0.345700	 -0.083306	 0.174928	 0.353720	 0.024749	 0.918515	 1
1462070157.822	 7	 1.019570	 -1.868720	 0.524191	 0.732512	 0.356013	 -0.086788	 0.180458	 0.344960	 0.023489	 0.920807	 1
1462070157.832	 7	 1.254629	 -1.997546	 0.747953	 0.713619	 0.369637	 -0.089607	 0.187398	 0.335281	 0.022870	 0.923009	 1
1462070157.842	 7	 1.478713	 -2.021440	 0.770293	 0.694739	 0.385511	 -0.093149	 0.195483	 0.325372	 0.022176	 0.924893	 1
1462070157.852	 7	 1.668772	 -1.881561	 0.629259	 0.677592	 0.402335	 -0.098662	 0.204284	 0.315960	 0.020758	 0.926286	 1
1462070157.862	 7	 1.801113	 -1.724807	 0.445188	 0.663151	 0.419257	 -0.106466	 0.213425	 0.307486	 0.018438	 0.927126	 1
1462070157.872	 7	 1.909211	 -1.758124	 0.294730	 0.649862	 0.436196	 -0.116243	 0.222810	 0.299243	 0.015214	 0.927673	 1
1462070157.882	 7	 1.995231	 -1.988849	 0.193784	 0.635451	 0.453307	 -0.127451	 0.232423	 0.290204	 0.011113	 0.928244	 1
1462070157.892	 7	 2.045031	 -2.260477	 0.157784	 0.618806	 0.470723	 -0.139331	 0.242194	 0.279915	 0.006357	 0.928951	 1
1462070157.902	 7	 1.954531	 -2.257722	 0.207623	 0.600888	 0.488197	 -0.150491	 0.251790	 0.269004	 0.001643	 0.929643	 1
1462070157.922	 8	 0.916493	 -1.099239	 0.257283	 0.577553	 0.512686	 -0.161817	 0.264515	 0.254930	 -0.002974	 0.930072	 1
1462070157.932	 8	 0.632992	 -1.251529	 0.262597	 0.566529	 0.519949	 -0.163666	 0.268064	 0.249021	 -0.004242	 0.930651	 1
1462070157.942	 8	 0.361706	 -1.488235	 0.219060	 0.552381	 0.524881	 -0.164014	 0.270340	 0.242024	 -0.005603	 0.931831	 1
1462070157.952	 8	 0.036022	 -1.644588	 0.087221	 0.536012	 0.526542	 -0.163504	 0.270991	 0.234338	 -0.007349	 0.933593	 1
1462070157.962	 8	 -0.249894	 -1.735166	 -0.051814	 0.518442	 0.524851	 -0.162647	 0.270038	 0.226364	 -0.009554	 0.935814	 1
1462070157.972	 8	 -0.438051	 -1.765805	 -0.099485	 0.500159	 0.520937	 -0.161369	 0.267984	 0.218244	 -0.011929	 0.938303	 1
1462070157.982	 8	 -0.555945	 -1.681135	 -0.058238	 0.482018	 0.515916	 -0.159241	 0.265304	 0.210350	 -0.013985	 0.940835	 1
1462070157.992	 8	 -0.582532	 -1.510232	 0.030976	 0.464903	 0.510763	 -0.156113	 0.262453	 0.203045	 -0.015403	 0.943215	 1
1462070158.002	 8	 -0.492541	 -1.276991	 0.110164	 0.449759	 0.506480	 -0.152522	 0.259971	 0.196642	 -0.016195	 0.945243	 1
1462070158.012	 8	 -0.309655	 -1.011239	 0.163267	 0.437387	 0.503875	 -0.149199	 0.258326	 0.191385	 -0.016526	 0.946766	 1
1462070158.022	 8	 -0.087411	 -0.770085	 0.213667	 0.427760	 0.503419	 -0.146425	 0.257769	 0.187211	 -0.016506	 0.947752	 1
1462070158.032	 8	 0.120666	 -0.586367	 0.258326	 0.420431	 0.505067	 -0.144190	 0.258277	 0.183925	 -0.016210	 0.948262	 1
1462070158.042	 8	 0.314249	 -0.549253	 0.320932	 0.414000	 0.508745	 -0.142254	 0.259779	 0.180907	 -0.015725	 0.948441	 1
1462070158.052	 8	 0.471053	 -0.628927	 0.397692	 0.406995	 0.514251	 -0.140269	 0.262139	 0.177518	 -0.015108	 0.948442	 1
1462070158.062	 8	 0.557217	 -0.742512	 0.463028	 0.398716	 0.520990	 -0.137972	 0.265048	 0.173501	 -0.014401	 0.948388	 1
1462070158.072	 8	 0.552796	 -0.798665	 0.491319	 0.389450	 0.528023	 -0.135257	 0.268061	 0.169064	 -0.013624	 0.948354	 1
1462070158.082	 8	 0.483455	 -0.785762	 0.482451	 0.379990	 0.534523	 -0.132218	 0.270805	 0.164619	 -0.012803	 0.948368	 1
1462070158.092	 8	 0.392801	 -0.749543	 0.453736	 0.370748	 0.540083	 -0.128990	 0.273104	 0.160366	 -0.011983	 0.948448	 1
1462070158.102	 8	 0.303214	 -0.709110	 0.419722	 0.361843	 0.544648	 -0.125691	 0.274942	 0.156347	 -0.011200	 0.948597	 1
1462070158.112	 8	 0.208392	 -0.648443	 0.387008	 0.353443	 0.548210	 -0.122319	 0.276316	 0.152637	 -0.010425	 0.948811	 1
1462070158.122	 8	 0.118940	 -0.580348	 0.354316	 0.345675	 0.550774	 -0.118892	 0.277227	 0.149292	 -0.009639	 0.949086	 1
1462070158.132	 8	 0.046522	 -0.520812	 0.321396	 0.338556	 0.552486	 -0.115507	 0.277752	 0.146295	 -0.008867	 0.949407	 1
1462070158.142	 8	 -0.027014	 -0.489838	 0.309536	 0.331772	 0.553434	 -0.112028	 0.277919	 0.143510	 -0.008074	 0.949790	 1
1462070158.152	 8	 -0.104918	 -0.505429	 0.328187	 0.324738	 0.553676	 -0.108111	 0.277728	 0.140702	 -0.007170	 0.950273	 1
1462070158.162	 8	 -0.184098	 -0.573066	 0.355957	 0.316834	 0.553222	 -0.103611	 0.277174	 0.137590	 -0.006166	 0.950897	 1
1462070158.172	 8	 -0.271946	 -0.660949	 0.375087	 0.307802	 0.551981	 -0.098570	 0.276219	 0.134047	 -0.005118	 0.951687	 1
1462070158.182	 8	 -0.362966	 -0.731897	 0.381614	 0.297797	 0.549865	 -0.093123	 0.274833	 0.130126	 -0.004071	 0.952637	 1
1462070158.192	 8	 -0.451804	 -0.779566	 0.372352	 0.287140	 0.546823	 -0.087450	 0.273006	 0.125950	 -0.003058	 0.953727	 1
1462070158.202	 8	 -0.527708	 -0.788027	 0.348422	 0.276326	 0.542913	 -0.081798	 0.270783	 0.121711	 -0.002117	 0.954913	 1
1462070158.212	 8	 -0.584241	 -0.755123	 0.316182	 0.265874	 0.538284	 -0.076364	 0.268244	 0.117620	 -0.001255	 0.956143	 1
1462070158.222	 8	 -0.618215	 -0.692488	 0.286153	 0.256161	 0.533145	 -0.071244	 0.265491	 0.113836	 -0.000449	 0.957369	 1
1462070158.232	 8	 -0.644535	 -0.585256	 0.249013	 0.247582	 0.527610	 -0.066470	 0.262578	 0.110539	 0.000345	 0.958558	 1
1462070158.242	 8	 -0.661240	 -0.451670	 0.183258	 0.240697	 0.521717	 -0.062375	 0.259537	 0.107956	 0.001039	 0.959680	 1
1462070158.252	 8	 -0.680289	 -0.353255	 0.106539	 0.235335	 0.515468	 -0.059131	 0.256373	 0.105986	 0.001523	 0.960749	 1
1462070158.262	 8	 -0.708210	 -0.332401	 0.037702	 0.230808	 0.508766	 -0.056674	 0.253031	 0.104315	 0.001726	 0.961816	 1
1462070158.272	 8	 -0.727675	 -0.333863	 -0.025022	 0.226613	 0.501699	 -0.054913	 0.249549	 0.102713	 0.001632	 0.962898	 1
1462070158.282	 8	 -0.733069	 -0.304427	 -0.074792	 0.222912	 0.494407	 -0.053759	 0.245986	 0.101270	 0.001309	 0.963968	 1
1462070158.292	 8	 -0.704054	 -0.244039	 -0.095798	 0.219963	 0.487237	 -0.053006	 0.242497	 0.100128	 0.000905	 0.964971	 1
1462070158.312	 9	 -0.510207	 -0.122087	 -0.067576	 0.216060	 0.475231	 -0.051943	 0.236656	 0.098678	 0.000279	 0.966569	 1
1462070158.322	 9	 -0.346512	 -0.056428	 -0.040680	 0.215161	 0.471326	 -0.051533	 0.234751	 0.098390	 0.000155	 0.967063	 1
1462070158.332	 9	 -0.159432	 -0.011041	 -0.013111	 0.214826	 0.469261	 -0.051260	 0.233740	 0.098312	 0.000134	 0.967316	 1
1462070158.342	 9	 0.026521	 0.019475	 0.016468	 0.215203	 0.470833	 -0.051262	 0.234499	 0.098454	 0.000264	 0.967118	 1
1462070158.352	 9	 0.186872	 0.053249	 0.045228	 0.215618	 0.472369	 -0.051202	 0.235238	 0.098624	 0.000427	 0.966921	 1
1462070158.362	 9	 0.305552	 0.079671	 0.070019	 0.216341	 0.475229	 -0.051167	 0.236617	 0.098906	 0.000687	 0.966556	 1
1462070158.372	 9	 0.374025	 0.105095	 0.083514	 0.217322	 0.478913	 -0.051155	 0.238393	 0.099289	 0.001014	 0.966079	 1
1462070158.382	 9	 0.401938	 0.134837	 0.089947	 0.217674	 0.483987	 -0.050712	 0.240818	 0.099384	 0.001553	 0.965467	 1
1462070158.392	 9	 0.406310	 0.164537	 0.080594	 0.219285	 0.488122	 -0.050787	 0.242813	 0.100047	 0.001943	 0.964898	 1
1462070158.402	 9	 0.399960	 0.188904	 0.064889	 0.221232	 0.492195	 -0.051024	 0.244784	 0.100853	 0.002295	 0.964315	 1
1462070158.412	 9	 0.388244	 0.202690	 0.054462	 0.223400	 0.496137	 -0.051378	 0.246697	 0.101753	 0.002615	 0.963732	 1
1462070158.422	 9	 0.373272	 0.199508	 0.050302	 0.224543	 0.500115	 -0.051259	 0.248603	 0.102214	 0.003042	 0.963192	 1
1462070158.432	 9	 0.350776	 0.180431	 0.051387	 0.225411	 0.503775	 -0.051045	 0.250350	 0.102562	 0.003464	 0.962701	 1
1462070158.442	 9	 0.317586	 0.155020	 0.054638	 0.225920	 0.507087	 -0.050689	 0.251922	 0.102765	 0.003890	 0.962268	 1
1462070158.452	 9	 0.269407	 0.121128	 0.055809	 0.225948	 0.509991	 -0.050147	 0.253289	 0.102771	 0.004322	 0.961907	 1
1462070158.462	 9	 0.206256	 0.077732	 0.060220	 0.225655	 0.512401	 -0.049495	 0.254414	 0.102650	 0.004737	 0.961621	 1
1462070158.472	 9	 0.133394	 0.010971	 0.065563	 0.224692	 0.514027	 -0.048636	 0.255152	 0.102253	 0.005121	 0.961465	 1
1462070158.482	 9	 0.057309	 -0.054761	 0.064548	 0.223071	 0.514719	 -0.047620	 0.255437	 0.101586	 0.005442	 0.961459	 1
1462070158.492	 9	 -0.016538	 -0.096059	 0.060543	 0.220974	 0.514664	 -0.046498	 0.255360	 0.100722	 0.005710	 0.961568	 1
1462070158.502	 9	 -0.072130	 -0.106626	 0.048141	 0.218613	 0.514176	 -0.045316	 0.255074	 0.099750	 0.005950	 0.961744	 1
1462070158.512	 9	 -0.106203	 -0.085302	 0.042244	 0.216236	 0.513572	 -0.044044	 0.254727	 0.098784	 0.006225	 0.961934	 1
1462070158.522	 9	 -0.123118	 -0.050171	 0.040588	 0.214135	 0.512759	 -0.042728	 0.254279	 0.097961	 0.006546	 0.962135	 1
1462070158.532	 9	 -0.126155	 -0.012960	 0.037765	 0.212592	 0.511657	 -0.041513	 0.253695	 0.097399	 0.006875	 0.962344	 1
1462070158.542	 9	 -0.114349	 0.002940	 0.035680	 0.211415	 0.510693	 -0.040413	 0.253182	 0.096994	 0.007204	 0.962517	 1
1462070158.552	 9	 -0.099442	 -0.006658	 0.038659	 0.210289	 0.509738	 -0.039371	 0.252677	 0.096605	 0.007512	 0.962687	 1
1462070158.562	 9	 -0.088762	 -0.016167	 0.052333	 0.208845	 0.508889	 -0.038162	 0.252216	 0.096082	 0.007866	 0.962857	 1
1462070158.572	 9	 -0.083341	 -0.016033	 0.073603	 0.207252	 0.508204	 -0.036718	 0.251824	 0.095512	 0.008325	 0.963012	 1
1462070158.582	 9	 -0.070561	 -0.026667	 0.079788	 0.205461	 0.507382	 -0.035144	 0.251361	 0.094865	 0.008815	 0.963193	 1
1462070158.592	 9	 -0.049325	 -0.044958	 0.068804	 0.204595	 0.507002	 -0.034199	 0.251137	 0.094575	 0.009141	 0.963277	 1
1462070158.602	 9	 -0.031301	 -0.053661	 0.049382	 0.203735	 0.506763	 -0.033510	 0.250994	 0.094253	 0.009353	 0.963344	 1
1462070158.612	 9	 -0.024946	 -0.049549	 0.032313	 0.202996	 0.506583	 -0.033040	 0.250888	 0.093959	 0.009478	 0.963399	 1
1462070158.622	 9	 -0.020699	 -0.038006	 0.013200	 0.201188	 0.506208	 -0.032178	 0.250676	 0.093204	 0.009647	 0.963525	 1
1462070158.632	 9	 -0.014287	 -0.020082	 -0.005873	 0.200920	 0.506057	 -0.032149	 0.250603	 0.093082	 0.009620	 0.963557	 1
1462070158.642	 9	 -0.007885	 -0.003234	 -0.026021	 0.199782	 0.505720	 -0.031796	 0.250430	 0.092584	 0.009630	 0.963649	 1
1462070158.652	 9	 0.002786	 0.013601	 -0.046206	 0.199105	 0.505419	 -0.031778	 0.250288	 0.092267	 0.009539	 0.963718	 1
1462070158.662	 9	 0.014498	 0.019844	 -0.060104	 0.198851	 0.505278	 -0.032084	 0.250235	 0.092109	 0.009353	 0.963748	 1
1462070158.672	 9	 0.016633	 0.020891	 -0.061179	 0.198778	 0.505236	 -0.032507	 0.250235	 0.092021	 0.009138	 0.963759	 1
1462070158.682	 9	 0.013486	 0.025214	 -0.052584	 0.198682	 0.505286	 -0.032836	 0.250275	 0.091933	 0.008970	 0.963759	 1
1462070158.692	 9	 0.001716	 0.017809	 -0.051484	 0.198580	 0.505128	 -0.033129	 0.250212	 0.091850	 0.008808	 0.963784	 1
1462070158.702	 9	 -0.015477	 -0.003447	 -0.055796	 0.198435	 0.504624	 -0.033490	 0.249987	 0.091745	 0.008590	 0.963854	 1
1462070158.712	 9	 -0.041250	 -0.035296	 -0.058000	 0.198222	 0.503890	 -0.033953	 0.249656	 0.091600	 0.008304	 0.963957	 1
1462070158.722	 9	 -0.068089	 -0.067142	 -0.060195	 0.197807	 0.502878	 -0.034445	 0.249192	 0.091360	 0.007965	 0.964102	 1
1462070158.732	 9	 -0.082137	 -0.106433	 -0.057242	 0.197108	 0.501748	 -0.034933	 0.248673	 0.090985	 0.007586	 0.964275	 1
1462070158.742	 9	 -0.086578	 -0.147857	 -0.051195	 0.196014	 0.500497	 -0.035380	 0.248095	 0.090428	 0.007172	 0.964479	 1
1462070158.752	 9	 -0.079189	 -0.169114	 -0.046130	 0.194545	 0.499352	 -0.035734	 0.247564	 0.089699	 0.006763	 0.964687	 1
1462070158.762	 9	 -0.070659	 -0.172315	 -0.044102	 0.192992	 0.498468	 -0.036070	 0.247158	 0.088927	 0.006366	 0.964865	 1
1462070158.772	 9	 -0.055700	 -0.163889	 -0.049483	 0.191525	 0.497708	 -0.036472	 0.246814	 0.088185	 0.005953	 0.965024	 1
1462070158.782	 9	 -0.037505	 -0.149083	 -0.053767	 0.190333	 0.497192	 -0.037015	 0.246593	 0.087553	 0.005519	 0.965140	 1
1462070158.792	 9	 -0.013931	 -0.127887	 -0.054841	 0.189490	 0.497030	 -0.037688	 0.246546	 0.087067	 0.005083	 0.965199	 1
1462070158.802	 9	 0.022471	 -0.105634	 -0.051753	 0.188997	 0.497222	 -0.038457	 0.246673	 0.086730	 0.004660	 0.965199	 1
1462070158.812	 9	 0.061093	 -0.076906	 -0.034770	 0.188581	 0.497877	 -0.039099	 0.247018	 0.086436	 0.004331	 0.965138	 1
1462070158.822	 9	 0.100916	 -0.012086	 -0.027052	 0.188625	 0.499144	 -0.039655	 0.247653	 0.086362	 0.004129	 0.964983	 1
1462070158.832	 9	 0.144949	 0.047341	 -0.027947	 0.189292	 0.500699	 -0.040264	 0.248427	 0.086575	 0.003993	 0.964766	 1
1462070158.842	 9	 0.185609	 0.077996	 -0.037606	 0.190226	 0.502622	 -0.040955	 0.249382	 0.086898	 0.003868	 0.964491	 1
1462070158.852	 9	 0.209160	 0.102312	 -0.048242	 0.191444	 0.504686	 -0.041812	 0.250411	 0.087333	 0.003708	 0.964185	 1
1462070158.862	 9	 0.216659	 0.118159	 -0.059883	 0.193073	 0.506730	 -0.042889	 0.251439	 0.087938	 0.003493	 0.963864	 1
1462070158.872	 9	 0.208061	 0.110693	 -0.066272	 0.194905	 0.508696	 -0.044132	 0.252437	 0.088620	 0.003223	 0.963541	 1
1462070158.882	 9	 0.186568	 0.079904	 -0.067437	 0.196604	 0.510605	 -0.045438	 0.253411	 0.089229	 0.002904	 0.963230	 1
1462070158.892	 9	 0.148002	 0.044950	 -0.063164	 0.197890	 0.512213	 -0.046626	 0.254236	 0.089660	 0.002576	 0.962974	 1
1462070158.902	 9	 0.097788	 0.028121	 -0.057554	 0.198880	 0.513380	 -0.047650	 0.254842	 0.089978	 0.002269	 0.962785	 1
1462070158.912	 9	 0.048665	 0.015551	 -0.050848	 0.199686	 0.514171	 -0.048503	 0.255260	 0.090238	 0.002001	 0.962650	 1
1462070158.922	 9	 0.004898	 0.006164	 -0.043094	 0.200340	 0.514503	 -0.049191	 0.255450	 0.090457	 0.001771	 0.962580	 1
1462070158.932	 9	 -0.031450	 -0.014937	 -0.034447	 0.200689	 0.514417	 -0.049692	 0.255431	 0.090563	 0.001570	 0.962575	 1
1462070158.942	 9	 -0.061432	 -0.044560	 -0.024870	 0.200737	 0.514049	 -0.050034	 0.255270	 0.090552	 0.001392	 0.962619	 1
1462070158.952	 9	 -0.082919	 -0.083773	 -0.014390	 0.200357	 0.513429	 -0.050223	 0.254980	 0.090360	 0.001221	 0.962714	 1
1462070158.962	 9	 -0.102226	 -0.114475	 -0.002784	 0.199529	 0.512651	 -0.050224	 0.254607	 0.089980	 0.001075	 0.962849	 1
1462070158.972	 9	 -0.112888	 -0.119699	 0.005787	 0.198393	 0.511810	 -0.050028	 0.254194	 0.089479	 0.000982	 0.963005	 1
1462070158.982	 9	 -0.105359	 -0.110124	 0.009008	 0.197275	 0.511018	 -0.049784	 0.253803	 0.088991	 0.000917	 0.963153	 1
1462070158.992	 9	 -0.081761	 -0.092050	 0.017497	 0.196264	 0.510445	 -0.049483	 0.253515	 0.088556	 0.000905	 0.963269	 1
1462070159.002	 9	 -0.041039	 -0.069718	 0.033337	 0.195426	 0.510269	 -0.049112	 0.253414	 0.088204	 0.000968	 0.963328	 1
1462070159.012	 9	 0.011457	 -0.045248	 0.055490	 0.194705	 0.510595	 -0.048574	 0.253548	 0.087917	 0.001153	 0.963319	 1
1462070159.022	 9	 0.064978	 -0.025075	 0.072264	 0.194082	 0.511381	 -0.047912	 0.253897	 0.087682	 0.001431	 0.963248	 1
1462070159.032	 9	 0.109909	 -0.007081	 0.078435	 0.193565	 0.512584	 -0.047215	 0.254445	 0.087493	 0.001761	 0.963120	 1
1462070159.042	 9	 0.145162	 0.008699	 0.068683	 0.193248	 0.514001	 -0.046647	 0.255102	 0.087380	 0.002065	 0.962956	 1
1462070159.052	 9	 0.162231	 0.025511	 0.047376	 0.193075	 0.515524	 -0.046264	 0.255818	 0.087309	 0.002302	 0.962771	 1
1462070159.062	 9	 0.166500	 0.044480	 0.025134	 0.193112	 0.517061	 -0.046108	 0.256550	 0.087311	 0.002458	 0.962576	 1
1462070159.072	 9	 0.162228	 0.058195	 0.008247	 0.193442	 0.518558	 -0.046166	 0.257272	 0.087427	 0.002547	 0.962373	 1
1462070159.082	 9	 0.153603	 0.054897	 -0.009826	 0.193917	 0.519863	 -0.046439	 0.257910	 0.087590	 0.002542	 0.962187	 1
1462070159.092	 9	 0.147121	 0.047392	 -0.020497	 0.194402	 0.521118	 -0.046841	 0.258530	 0.087742	 0.002473	 0.962007	 1
1462070159.102	 9	 0.133265	 0.053791	 -0.023514	 0.194922	 0.522308	 -0.047274	 0.259120	 0.087908	 0.002392	 0.961833	 1
1462070159.112	 9	 0.111961	 0.059195	 -0.020081	 0.195470	 0.523426	 -0.047639	 0.259673	 0.088097	 0.002343	 0.961667	 1
1462070159.122	 9	 0.086344	 0.051879	 -0.012465	 0.195967	 0.524315	 -0.047898	 0.260110	 0.088281	 0.002328	 0.961532	 1
1462070159.132	 9	 0.050015	 0.029758	 0.002566	 0.196218	 0.524925	 -0.047953	 0.260406	 0.088379	 0.002365	 0.961443	 1
1462070159.142	 9	 0.014692	 0.000142	 0.011125	 0.196062	 0.525172	 -0.047796	 0.260517	 0.088319	 0.002433	 0.961418	 1
1462070159.152	 9	 -0.020665	 -0.028480	 0.010100	 0.195624	 0.524977	 -0.047569	 0.260414	 0.088143	 0.002475	 0.961462	 1
1462070159.162	 9	 -0.044295	 -0.050832	 -0.001625	 0.194944	 0.524472	 -0.047372	 0.260164	 0.087854	 0.002456	 0.961556	 1
1462070159.172	 9	 -0.051911	 -0.067945	 -0.017705	 0.194150	 0.523808	 -0.047324	 0.259844	 0.087494	 0.002343	 0.961676	 1
1462070159.182	 9	 -0.045569	 -0.069130	 -0.031626	 0.193364	 0.523118	 -0.047437	 0.259518	 0.087118	 0.002152	 0.961798	 1
1462070159.192	 9	 -0.030565	 -0.051131	 -0.036918	 0.192767	 0.522619	 -0.047674	 0.259290	 0.086812	 0.001936	 0.961888	 1
1462070159.202	 9	 -0.010159	 -0.024593	 -0.035782	 0.192587	 0.522535	 -0.048031	 0.259265	 0.086681	 0.001737	 0.961907	 1
1462070159.212	 9	 0.011325	 -0.007531	 -0.020889	 0.192580	 0.522728	 -0.048308	 0.259369	 0.086637	 0.001612	 0.961883	 1
1462070159.222	 9	 0.028506	 0.004211	 -0.008140	 0.192662	 0.523040	 -0.048475	 0.259527	 0.086647	 0.001558	 0.961840	 1
1462070159.232	 9	 0.042394	 0.002089	 -0.001887	 0.192831	 0.523385	 -0.048634	 0.259699	 0.086700	 0.001521	 0.961789	 1
1462070159.242	 9	 0.053006	 -0.009651	 -0.003154	 0.192968	 0.523860	 -0.048841	 0.259936	 0.086727	 0.001463	 0.961722	 1
1462070159.252	 9	 0.060475	 -0.010729	 -0.002163	 0.192989	 0.524496	 -0.049029	 0.260249	 0.086698	 0.001406	 0.961640	 1
1462070159.262	 9	 0.064805	 -0.003249	 0.004263	 0.193036	 0.525277	 -0.049162	 0.260631	 0.086684	 0.001387	 0.961538	 1
1462070159.272	 9	 0.068079	 0.002144	 0.016009	 0.193069	 0.526100	 -0.049167	 0.261026	 0.086679	 0.001430	 0.961431	 1
1462070159.282	 9	 0.072359	 0.000043	 0.021281	 0.193178	 0.526942	 -0.049166	 0.261430	 0.086711	 0.001487	 0.961319	 1
1462070159.292	 9	 0.075534	 -0.012668	 0.029661	 0.193185	 0.527793	 -0.049109	 0.261836	 0.086701	 0.001557	 0.961209	 1
1462070159.302	 9	 0.072319	 -0.026393	 0.042350	 0.192914	 0.528709	 -0.048883	 0.262266	 0.086578	 0.001676	 0.961102	 1
1462070159.312	 9	 0.063826	 -0.030506	 0.058372	 0.192448	 0.529519	 -0.048451	 0.262636	 0.086391	 0.001862	 0.961018	 1
1462070159.322	 9	 0.056354	 -0.037867	 0.066895	 0.191844	 0.530187	 -0.047869	 0.262932	 0.086161	 0.002096	 0.960957	 1
1462070159.332	 9	 0.056220	 -0.062362	 0.062404	 0.191001	 0.530711	 -0.047275	 0.263159	 0.085822	 0.002296	 0.960925	 1
1462070159.342	 9	 0.057152	 -0.082645	 0.052616	 0.189919	 0.531225	 -0.046750	 0.263385	 0.085359	 0.002431	 0.960904	 1
1462070159.352	 9	 0.057110	 -0.080611	 0.039845	 0.188857	 0.531694	 -0.046364	 0.263595	 0.084889	 0.002500	 0.960888	 1
1462070159.362	 9	 0.062462	 -0.070052	 0.031371	 0.187913	 0.532233	 -0.046065	 0.263842	 0.084462	 0.002545	 0.960858	 1
1462070159.372	 9	 0.077400	 -0.065882	 0.025951	 0.187002	 0.532883	 -0.045832	 0.264145	 0.084040	 0.002568	 0.960811	 1
1462070159.382	 9	 0.095562	 -0.059570	 0.023720	 0.186179	 0.533711	 -0.045671	 0.264537	 0.083647	 0.002576	 0.960738	 1
1462070159.392	 9	 0.113755	 -0.046877	 0.021549	 0.185452	 0.534784	 -0.045547	 0.265047	 0.083289	 0.002590	 0.960628	 1
1462070159.402	 9	 0.119170	 -0.026715	 0.017426	 0.184947	 0.536009	 -0.045487	 0.265633	 0.083026	 0.002611	 0.960489	 1
1462070159.412	 9	 0.120354	 -0.001199	 0.016589	 0.184689	 0.537350	 -0.045450	 0.266275	 0.082876	 0.002658	 0.960324	 1
1462070159.422	 9	 0.114064	 0.023276	 0.015806	 0.184776	 0.538617	 -0.045442	 0.266882	 0.082890	 0.002733	 0.960154	 1
1462070159.432	 9	 0.108748	 0.026490	 0.016948	 0.184908	 0.539809	 -0.045399	 0.267452	 0.082931	 0.002828	 0.959992	 1
1462070159.442	 9	 0.099143	 0.025462	 0.018088	 0.184964	 0.540895	 -0.045307	 0.267968	 0.082945	 0.002931	 0.959846	 1
1462070159.452	 9	 0.085248	 0.024408	 0.013937	 0.185097	 0.541769	 -0.045249	 0.268385	 0.082996	 0.003018	 0.959725	 1
1462070159.462	 9	 0.067016	 0.016916	 0.000171	 0.185193	 0.542423	 -0.045285	 0.268700	 0.083022	 0.003045	 0.959635	 1
1462070159.472	 9	 0.044541	 0.015810	 -0.014564	 0.185317	 0.542865	 -0.045431	 0.268917	 0.083052	 0.003013	 0.959571	 1
1462070159.482	 9	 0.023142	 0.014717	 -0.027177	 0.185529	 0.543138	 -0.045712	 0.269060	 0.083109	 0.002920	 0.959527	 1
1462070159.492	 9	 0.009247	 0.011552	 -0.029216	 0.185787	 0.543302	 -0.046052	 0.269152	 0.083183	 0.002799	 0.959495	 1
