% Gyrometer data recorded with 'snsrlog'
% 
% 
% Label description:
% 	 0: Default Label
% 	 1: still_drop
% 	 2: walk_drop
% 	 3: other
% 	 4: dtw_same
% 	 5: dtw_diff
% 	 6: delete
% 
% Column description:
% 	 1: Seconds.milliseconds since 1970
% 	 2: Number of skipped measurements
% 	 3: Gyro X
% 	 4: Gyro Y
% 	 5: Gyro Z
% 	 6: Roll of the device
% 	 7: Pitch of the device
% 	 8: Yaw of the device
% 	 9: Quaternion X
% 	 10: Quaternion Y
% 	 11: Quaternion Z
% 	 12: Quaternion W
% 	 13: Label used for the current sample
% 
% 
1462096069.122	 0	 -1.821205	 -0.569600	 0.063122	 0.082463	 0.787085	 -0.346215	 0.383968	 -0.028493	 -0.143372	 0.911702	 2
1462096069.132	 0	 -1.524838	 -0.432000	 0.090597	 0.075706	 0.771152	 -0.343204	 0.376292	 -0.029626	 -0.144087	 0.914749	 2
1462096069.142	 0	 -1.189944	 -0.267955	 0.113721	 0.070700	 0.758521	 -0.340454	 0.370216	 -0.030324	 -0.144374	 0.917157	 2
1462096069.152	 0	 -0.883712	 -0.095113	 0.164885	 0.067296	 0.749093	 -0.337512	 0.365708	 -0.030548	 -0.144091	 0.919001	 2
1462096069.162	 0	 -0.680846	 0.084630	 0.245789	 0.065181	 0.742015	 -0.333821	 0.362371	 -0.030256	 -0.143101	 0.920486	 2
1462096069.172	 0	 -0.605809	 0.293637	 0.350460	 0.064254	 0.736074	 -0.328925	 0.359654	 -0.029308	 -0.141279	 0.921863	 2
1462096069.182	 0	 -0.631896	 0.561403	 0.450163	 0.065002	 0.730157	 -0.322675	 0.357076	 -0.027362	 -0.138521	 0.923342	 2
1462096069.192	 0	 -0.705240	 0.749573	 0.556984	 0.067008	 0.723675	 -0.315004	 0.354329	 -0.024552	 -0.134902	 0.925013	 2
1462096069.202	 0	 -0.787534	 0.859089	 0.665296	 0.069284	 0.716455	 -0.305813	 0.351257	 -0.021313	 -0.130555	 0.926887	 2
1462096069.212	 0	 -0.852767	 1.007546	 0.723731	 0.072290	 0.708600	 -0.295639	 0.347918	 -0.017541	 -0.125643	 0.928902	 2
1462096069.222	 0	 -0.881542	 1.236354	 0.730373	 0.077250	 0.700386	 -0.285196	 0.344498	 -0.012817	 -0.120276	 0.930962	 2
1462096069.232	 0	 -0.841826	 1.547562	 0.687096	 0.085506	 0.692423	 -0.275195	 0.341337	 -0.006678	 -0.114541	 0.932912	 2
1462096069.242	 0	 -0.753255	 1.842381	 0.603807	 0.097510	 0.685257	 -0.266201	 0.338688	 0.000965	 -0.108617	 0.934608	 2
1462096069.252	 0	 -0.640713	 2.028532	 0.505443	 0.112575	 0.679169	 -0.258507	 0.336631	 0.009737	 -0.102758	 0.935962	 2
1462096069.262	 0	 -0.543766	 2.078564	 0.403817	 0.129301	 0.674074	 -0.252153	 0.335049	 0.018991	 -0.097225	 0.936979	 2
1462096069.272	 0	 -0.480279	 2.072119	 0.274247	 0.147073	 0.669611	 -0.247375	 0.333755	 0.028432	 -0.092250	 0.937704	 2
1462096069.292	 1	 -0.449671	 2.031685	 -0.301907	 0.187436	 0.660452	 -0.246401	 0.331265	 0.048181	 -0.085625	 0.938408	 2
1462096069.302	 1	 -0.434805	 1.953817	 -0.766368	 0.211386	 0.654844	 -0.253388	 0.329867	 0.058682	 -0.085319	 0.938331	 2
1462096069.312	 1	 -0.452537	 2.080271	 -1.082634	 0.238661	 0.648268	 -0.264578	 0.328345	 0.070152	 -0.086562	 0.937963	 2
1462096069.322	 1	 -0.565494	 2.323430	 -1.330908	 0.269355	 0.639903	 -0.278267	 0.326337	 0.083000	 -0.088632	 0.937422	 2
1462096069.332	 1	 -0.711552	 2.742583	 -1.523967	 0.304741	 0.629268	 -0.293546	 0.323702	 0.098045	 -0.090989	 0.936656	 2
1462096069.342	 1	 -0.969339	 3.139450	 -1.608620	 0.343952	 0.615722	 -0.308626	 0.320069	 0.115258	 -0.093074	 0.935739	 2
1462096069.352	 1	 -1.388113	 3.538127	 -1.655617	 0.385804	 0.597954	 -0.321742	 0.314692	 0.134534	 -0.094496	 0.934848	 2
1462096069.362	 1	 -1.825180	 3.976651	 -1.788412	 0.430534	 0.575218	 -0.332808	 0.307214	 0.156105	 -0.095412	 0.933888	 2
1462096069.372	 1	 -2.083935	 4.465443	 -1.957461	 0.479201	 0.548524	 -0.342583	 0.298189	 0.180255	 -0.096064	 0.932396	 2
1462096069.382	 1	 -2.076857	 4.734491	 -2.107424	 0.530807	 0.520166	 -0.351868	 0.288691	 0.206130	 -0.096807	 0.929944	 2
1462096069.392	 1	 -1.810577	 4.683257	 -2.172042	 0.583316	 0.490562	 -0.361807	 0.278964	 0.232538	 -0.098479	 0.926503	 2
1462096069.402	 1	 -1.367487	 4.662315	 -2.094031	 0.634436	 0.466266	 -0.371815	 0.271814	 0.257685	 -0.100044	 0.921796	 2
1462096069.422	 2	 -0.839646	 5.122438	 -1.938744	 0.740955	 0.426924	 -0.392207	 0.262633	 0.308584	 -0.102276	 0.908482	 2
1462096069.432	 2	 -1.021746	 5.544244	 -2.073914	 0.798850	 0.405831	 -0.400834	 0.257777	 0.336324	 -0.102842	 0.899922	 2
1462096069.442	 2	 -1.350569	 5.900154	 -2.261708	 0.859322	 0.381016	 -0.406927	 0.251244	 0.365805	 -0.103121	 0.890185	 2
1462096069.452	 2	 -1.783369	 6.188045	 -2.484399	 0.921409	 0.351652	 -0.409382	 0.242387	 0.396739	 -0.103122	 0.879325	 2
1462096069.462	 2	 -2.200195	 6.430482	 -2.661825	 0.984450	 0.318101	 -0.407274	 0.231061	 0.428754	 -0.102672	 0.867317	 2
1462096069.472	 2	 -2.285506	 6.559493	 -2.799497	 1.048266	 0.282526	 -0.402108	 0.218386	 0.461154	 -0.102129	 0.853940	 2
1462096069.482	 2	 -1.881272	 6.639102	 -2.951482	 1.113282	 0.247373	 -0.397895	 0.206302	 0.493257	 -0.102623	 0.838812	 2
1462096069.492	 2	 -1.053973	 6.852239	 -3.146408	 1.181432	 0.213853	 -0.398965	 0.196617	 0.525228	 -0.105381	 0.821201	 2
1462096069.512	 3	 1.166301	 7.070146	 -3.000650	 1.326880	 0.155796	 -0.425151	 0.189465	 0.587208	 -0.118876	 0.777919	 2
1462096069.522	 3	 2.170330	 6.797989	 -2.724169	 1.399200	 0.132540	 -0.450079	 0.192759	 0.614992	 -0.128788	 0.753686	 2
1462096069.532	 3	 2.781891	 6.398078	 -2.769451	 1.467903	 0.109026	 -0.480358	 0.198392	 0.639992	 -0.140921	 0.728829	 2
1462096069.542	 3	 2.901690	 5.693457	 -2.937981	 1.529844	 0.082179	 -0.511501	 0.203701	 0.661895	 -0.154828	 0.704577	 2
1462096069.562	 4	 1.832342	 3.493272	 -3.018418	 1.619460	 0.021976	 -0.557692	 0.206580	 0.694004	 -0.182175	 0.665204	 2
1462096069.572	 4	 1.175099	 2.452345	 -3.089525	 1.646518	 -0.009463	 -0.569021	 0.202757	 0.704778	 -0.194150	 0.651524	 2
1462096069.582	 4	 0.753056	 1.743491	 -3.180904	 1.665343	 -0.041666	 -0.574709	 0.196164	 0.713219	 -0.205448	 0.640804	 2
1462096069.592	 4	 0.582824	 1.412047	 -3.194230	 1.679879	 -0.074070	 -0.577543	 0.188206	 0.720321	 -0.216388	 0.631579	 2
1462096069.602	 4	 0.629521	 1.336571	 -3.169760	 1.693071	 -0.106342	 -0.579902	 0.180094	 0.726778	 -0.227312	 0.622646	 2
1462096069.612	 4	 0.822021	 1.497918	 -2.989821	 1.707070	 -0.137549	 -0.583591	 0.173018	 0.733041	 -0.238246	 0.613151	 2
1462096069.622	 4	 1.097962	 1.805791	 -2.664301	 1.723418	 -0.166257	 -0.589887	 0.168125	 0.739392	 -0.248921	 0.602554	 2
1462096069.632	 4	 1.381478	 2.031580	 -2.214917	 1.741509	 -0.191373	 -0.599244	 0.165900	 0.745566	 -0.259102	 0.591164	 2
1462096069.642	 4	 1.587672	 2.180791	 -1.796479	 1.760615	 -0.212792	 -0.611282	 0.166163	 0.751400	 -0.268642	 0.579326	 2
1462096069.652	 4	 1.665576	 2.121339	 -1.456667	 1.779144	 -0.231132	 -0.624793	 0.168049	 0.756592	 -0.277492	 0.567738	 2
1462096069.662	 4	 1.639016	 1.918116	 -1.184426	 1.795600	 -0.246876	 -0.638617	 0.170728	 0.760875	 -0.285593	 0.557098	 2
1462096069.682	 5	 1.553966	 1.213838	 -0.802301	 1.818848	 -0.272415	 -0.665941	 0.176727	 0.766159	 -0.300164	 0.540065	 2
1462096069.692	 5	 1.506073	 0.665165	 -0.654586	 1.823248	 -0.282868	 -0.679470	 0.179394	 0.766645	 -0.307119	 0.534557	 2
1462096069.702	 5	 1.406445	 0.025030	 -0.526455	 1.821394	 -0.291849	 -0.692529	 0.181372	 0.765410	 -0.313943	 0.531688	 2
1462096069.712	 5	 1.194201	 -0.501031	 -0.406940	 1.814229	 -0.299156	 -0.704133	 0.182437	 0.762812	 -0.320244	 0.531299	 2
1462096069.722	 5	 0.853325	 -0.928802	 -0.278995	 1.803321	 -0.304415	 -0.712988	 0.182431	 0.759368	 -0.325427	 0.533083	 2
1462096069.732	 5	 0.453088	 -1.275531	 -0.146582	 1.789802	 -0.307408	 -0.718216	 0.181273	 0.755432	 -0.329088	 0.536809	 2
1462096069.742	 5	 0.093759	 -1.521558	 -0.044495	 1.774616	 -0.308413	 -0.719942	 0.179103	 0.751234	 -0.331266	 0.542063	 2
1462096069.752	 5	 -0.204385	 -1.623703	 -0.023666	 1.759013	 -0.308472	 -0.718485	 0.175950	 0.747114	 -0.332274	 0.548138	 2
1462096069.762	 5	 -0.389764	 -1.670055	 0.109671	 1.743511	 -0.307165	 -0.714986	 0.172486	 0.743071	 -0.332218	 0.554729	 2
1462096069.772	 5	 -0.468944	 -1.675647	 0.333053	 1.727991	 -0.303688	 -0.710763	 0.169459	 0.738902	 -0.331197	 0.561797	 2
1462096069.782	 5	 -0.447492	 -1.616632	 0.559357	 1.712808	 -0.298026	 -0.706783	 0.167309	 0.734613	 -0.329456	 0.569044	 2
1462096069.792	 5	 -0.291099	 -1.421116	 0.743125	 1.698727	 -0.290621	 -0.704234	 0.166465	 0.730346	 -0.327437	 0.575907	 2
1462096069.802	 5	 0.061697	 -1.174424	 0.876635	 1.686222	 -0.282187	 -0.704914	 0.167422	 0.726138	 -0.325881	 0.581803	 2
1462096069.812	 5	 0.488218	 -0.961526	 1.073135	 1.674639	 -0.272520	 -0.710013	 0.170551	 0.721684	 -0.325160	 0.586818	 2
1462096069.822	 5	 0.844859	 -0.691533	 1.341114	 1.664617	 -0.260584	 -0.719184	 0.176148	 0.717100	 -0.324808	 0.590965	 2
1462096069.832	 5	 0.943779	 -0.462879	 1.524626	 1.656736	 -0.246595	 -0.730312	 0.183455	 0.712715	 -0.324236	 0.594350	 2
1462096069.842	 5	 0.003076	 -0.405195	 1.325529	 1.651376	 -0.232811	 -0.734914	 0.188769	 0.709596	 -0.321605	 0.597838	 2
1462096069.852	 5	 -1.473127	 -0.390548	 0.695864	 1.649833	 -0.223274	 -0.723955	 0.187779	 0.709391	 -0.315343	 0.601716	 2
1462096069.862	 5	 -2.167267	 -0.100455	 0.231409	 1.652585	 -0.218548	 -0.703282	 0.182422	 0.711758	 -0.307297	 0.604724	 2
1462096069.872	 5	 -2.004262	 0.236724	 0.299204	 1.658767	 -0.214316	 -0.682209	 0.177237	 0.715200	 -0.298956	 0.606384	 2
1462096069.882	 5	 -1.506568	 0.383267	 0.760907	 1.665610	 -0.206470	 -0.666118	 0.175063	 0.718111	 -0.290842	 0.607520	 2
1462096069.892	 5	 -0.956020	 0.646672	 1.225368	 1.673245	 -0.194367	 -0.656119	 0.176531	 0.720423	 -0.283044	 0.608041	 2
1462096069.902	 5	 -0.392878	 0.928636	 1.614224	 1.682660	 -0.178561	 -0.652375	 0.181651	 0.722448	 -0.275678	 0.607515	 2
1462096069.912	 5	 0.189716	 1.074244	 1.688307	 1.692441	 -0.161839	 -0.654864	 0.189299	 0.723910	 -0.269782	 0.606084	 2
1462096069.922	 5	 0.507413	 1.575385	 1.548457	 1.705852	 -0.146686	 -0.661453	 0.198344	 0.726126	 -0.265229	 0.602539	 2
1462096069.932	 5	 0.546958	 1.896827	 1.449857	 1.723266	 -0.132937	 -0.669006	 0.207744	 0.729460	 -0.260929	 0.597199	 2
1462096069.942	 5	 0.535038	 1.825883	 1.488734	 1.740810	 -0.119327	 -0.676724	 0.217096	 0.732711	 -0.256568	 0.591757	 2
1462096069.952	 5	 0.498301	 1.618486	 1.621410	 1.756723	 -0.104561	 -0.684622	 0.226580	 0.735245	 -0.251888	 0.587051	 2
1462096069.962	 5	 0.469362	 1.373871	 1.611925	 1.770238	 -0.089507	 -0.692403	 0.235725	 0.736952	 -0.247219	 0.583282	 2
1462096069.972	 5	 0.598980	 1.389318	 1.447879	 1.783230	 -0.076011	 -0.700915	 0.244529	 0.738458	 -0.243275	 0.579398	 2
1462096069.982	 5	 0.881033	 1.611572	 1.263114	 1.798012	 -0.064991	 -0.711633	 0.253562	 0.740338	 -0.240535	 0.574237	 2
1462096069.992	 5	 1.079382	 1.470653	 1.124724	 1.812636	 -0.056197	 -0.724529	 0.262681	 0.741993	 -0.239131	 0.568560	 2
1462096070.002	 5	 0.938608	 0.977190	 0.928455	 1.823052	 -0.049054	 -0.736558	 0.270466	 0.742626	 -0.238540	 0.564317	 2
1462096070.012	 5	 0.746783	 0.586477	 0.653654	 1.829359	 -0.044051	 -0.745990	 0.276162	 0.742601	 -0.238501	 0.561601	 2
1462096070.022	 5	 0.769980	 0.297310	 0.388584	 1.832627	 -0.041577	 -0.754397	 0.280382	 0.742091	 -0.239497	 0.559757	 2
1462096070.032	 5	 0.927145	 0.079442	 0.182693	 1.833681	 -0.041754	 -0.763596	 0.283869	 0.741107	 -0.241984	 0.558232	 2
1462096070.042	 5	 0.966422	 -0.102252	 0.077282	 1.832544	 -0.043233	 -0.773248	 0.286882	 0.739569	 -0.245378	 0.557248	 2
1462096070.052	 5	 0.791798	 -0.097695	 -0.098072	 1.831021	 -0.045889	 -0.781278	 0.288903	 0.738274	 -0.248800	 0.556403	 2
1462096070.062	 5	 0.706830	 0.124734	 -0.260456	 1.831317	 -0.049898	 -0.787562	 0.290116	 0.737878	 -0.251961	 0.554873	 2
1462096070.072	 5	 1.168028	 0.424073	 -0.303251	 1.834424	 -0.055480	 -0.796508	 0.292222	 0.738037	 -0.256008	 0.551696	 2
1462096070.082	 5	 2.162050	 0.580052	 -0.099433	 1.838832	 -0.062034	 -0.814400	 0.297534	 0.737318	 -0.262643	 0.546676	 2
1462096070.092	 5	 2.967345	 0.838107	 0.023848	 1.844606	 -0.069349	 -0.841442	 0.306199	 0.735607	 -0.271751	 0.539700	 2
1462096070.102	 5	 3.239527	 1.213692	 -0.141286	 1.853599	 -0.078966	 -0.872060	 0.316005	 0.734323	 -0.281989	 0.530465	 2
1462096070.112	 5	 3.128781	 1.268403	 -0.414779	 1.863859	 -0.091289	 -0.901599	 0.324902	 0.733676	 -0.292492	 0.520199	 2
1462096070.122	 5	 2.900378	 1.064790	 -0.717361	 1.872621	 -0.106096	 -0.928114	 0.331857	 0.733258	 -0.303123	 0.510216	 2
1462096070.132	 5	 2.670043	 0.667694	 -1.007873	 1.877612	 -0.123251	 -0.951473	 0.336490	 0.732558	 -0.314220	 0.501397	 2
1462096070.142	 5	 2.391039	 0.475907	 -1.167092	 1.879986	 -0.141514	 -0.971660	 0.339265	 0.731793	 -0.325197	 0.493583	 2
1462096070.162	 6	 2.012489	 0.249068	 -1.359876	 1.882290	 -0.179190	 -1.004816	 0.341456	 0.730886	 -0.345802	 0.479201	 2
1462096070.172	 6	 1.892256	 -0.070156	 -1.427877	 1.879722	 -0.198529	 -1.019103	 0.340903	 0.729943	 -0.356185	 0.473393	 2
1462096070.182	 6	 1.664171	 -0.364933	 -1.541605	 1.874225	 -0.218090	 -1.031302	 0.338946	 0.728680	 -0.366536	 0.468821	 2
1462096070.192	 6	 1.349648	 -0.594075	 -1.732836	 1.866830	 -0.238410	 -1.040252	 0.335163	 0.727602	 -0.376590	 0.465232	 2
1462096070.202	 6	 0.932645	 -0.840900	 -1.910550	 1.857900	 -0.259300	 -1.045008	 0.329308	 0.726919	 -0.386003	 0.462760	 2
1462096070.212	 6	 0.435609	 -1.122306	 -2.049518	 1.847415	 -0.280229	 -1.044821	 0.321234	 0.726660	 -0.394427	 0.461738	 2
1462096070.232	 7	 -0.285072	 -1.717148	 -2.233156	 1.821556	 -0.321765	 -1.031485	 0.299131	 0.726790	 -0.408566	 0.464081	 2
1462096070.242	 7	 -0.295179	 -1.958284	 -2.341888	 1.805488	 -0.343466	 -1.022446	 0.286097	 0.726381	 -0.415610	 0.466677	 2
1462096070.252	 7	 -0.214481	 -1.991948	 -2.404718	 1.788450	 -0.366298	 -1.014270	 0.272677	 0.725571	 -0.423142	 0.469195	 2
1462096070.262	 7	 -0.135896	 -1.952978	 -2.279279	 1.771234	 -0.388712	 -1.007457	 0.259679	 0.724354	 -0.430674	 0.471590	 2
1462096070.272	 7	 0.020432	 -1.893610	 -1.949702	 1.753839	 -0.408678	 -1.002997	 0.248099	 0.722470	 -0.437838	 0.474112	 2
1462096070.282	 7	 0.175135	 -1.695172	 -1.657184	 1.736994	 -0.425873	 -1.001232	 0.238349	 0.720082	 -0.444569	 0.476477	 2
1462096070.292	 7	 0.311460	 -1.203076	 -1.504585	 1.723214	 -0.441443	 -1.001572	 0.230449	 0.718004	 -0.450820	 0.477624	 2
1462096070.302	 7	 0.426950	 -0.820547	 -1.362416	 1.713455	 -0.455941	 -1.003679	 0.224356	 0.716582	 -0.456619	 0.477151	 2
1462096070.312	 7	 0.475574	 -0.666869	 -1.124810	 1.704905	 -0.468333	 -1.007019	 0.219603	 0.715143	 -0.461902	 0.476436	 2
1462096070.322	 7	 0.473302	 -0.376412	 -0.966488	 1.698289	 -0.479006	 -1.010970	 0.216029	 0.713968	 -0.466578	 0.475275	 2
1462096070.332	 7	 0.431533	 0.039620	 -0.961187	 1.695962	 -0.489068	 -1.014595	 0.213515	 0.713802	 -0.470506	 0.472782	 2
1462096070.342	 7	 0.352155	 0.406789	 -0.962408	 1.697829	 -0.499108	 -1.017428	 0.211708	 0.714701	 -0.473770	 0.468960	 2
1462096070.352	 7	 0.237036	 0.629699	 -0.924161	 1.702880	 -0.508718	 -1.019089	 0.210382	 0.716415	 -0.476292	 0.464364	 2
1462096070.362	 7	 0.051252	 0.598439	 -0.910056	 1.708766	 -0.519061	 -1.019076	 0.208428	 0.718517	 -0.478540	 0.459664	 2
1462096070.372	 7	 -0.283517	 0.504217	 -0.984753	 1.716428	 -0.528420	 -1.015249	 0.205853	 0.721309	 -0.479467	 0.455466	 2
1462096070.382	 7	 -0.595891	 -0.607002	 -0.929493	 1.717549	 -0.537038	 -1.007582	 0.200561	 0.722908	 -0.480002	 0.454728	 2
1462096070.392	 7	 -0.640666	 -1.722639	 -0.935222	 1.707240	 -0.545248	 -0.998569	 0.192156	 0.721959	 -0.481230	 0.458551	 2
1462096070.402	 7	 -0.413580	 -1.947087	 -0.993641	 1.691641	 -0.554404	 -0.991452	 0.182827	 0.719598	 -0.483568	 0.463589	 2
1462096070.412	 7	 -0.124018	 -1.713357	 -0.912989	 1.675575	 -0.563522	 -0.987959	 0.174662	 0.716730	 -0.486669	 0.467916	 2
1462096070.422	 7	 0.045779	 -1.528220	 -0.834944	 1.660410	 -0.571935	 -0.987122	 0.167857	 0.713758	 -0.490030	 0.471429	 2
1462096070.432	 7	 0.147146	 -1.441019	 -0.942658	 1.645554	 -0.581120	 -0.987696	 0.161325	 0.710766	 -0.493821	 0.474265	 2
1462096070.442	 7	 0.217876	 -1.455279	 -1.120323	 1.630224	 -0.591945	 -0.989256	 0.154419	 0.707671	 -0.498226	 0.476578	 2
1462096070.452	 7	 0.264921	 -1.479336	 -1.338372	 1.614168	 -0.604894	 -0.991529	 0.146794	 0.704474	 -0.503301	 0.478389	 2
1462096070.472	 8	 0.354974	 -1.228766	 -1.802562	 1.582901	 -0.637447	 -0.998402	 0.130046	 0.698535	 -0.515218	 0.479256	 2
1462096070.482	 8	 0.355592	 -0.889152	 -2.050927	 1.570491	 -0.657346	 -1.002757	 0.121435	 0.696515	 -0.521839	 0.477289	 2
1462096070.492	 8	 0.305855	 -0.572951	 -2.321453	 1.561406	 -0.679840	 -1.006989	 0.112669	 0.695453	 -0.528685	 0.473438	 2
1462096070.502	 8	 0.213981	 -0.329270	 -2.635983	 1.555270	 -0.705349	 -1.010528	 0.103323	 0.695280	 -0.535742	 0.467858	 2
1462096070.512	 8	 0.088516	 -0.202409	 -2.939584	 1.551483	 -0.733994	 -1.012835	 0.093027	 0.695828	 -0.542940	 0.460854	 2
1462096070.532	 9	 -0.567599	 0.038006	 -2.906055	 1.553650	 -0.794482	 -1.007170	 0.070301	 0.699322	 -0.554882	 0.445099	 2
1462096070.542	 9	 -1.140794	 0.085511	 -2.454068	 1.564699	 -0.820352	 -0.993238	 0.059350	 0.703135	 -0.557053	 0.437916	 2
1462096070.552	 9	 -1.674310	 -0.332493	 -1.937484	 1.579709	 -0.840997	 -0.970222	 0.048135	 0.707569	 -0.556144	 0.433282	 2
1462096070.562	 9	 -2.039937	 -0.899930	 -1.425883	 1.594538	 -0.856201	 -0.940181	 0.036246	 0.711663	 -0.552708	 0.432128	 2
1462096070.572	 9	 -2.232684	 -0.987371	 -0.948623	 1.610442	 -0.866132	 -0.906006	 0.024950	 0.715692	 -0.547332	 0.433117	 2
1462096070.582	 9	 -2.284999	 -0.658773	 -0.537988	 1.630202	 -0.871371	 -0.870252	 0.015667	 0.720323	 -0.540605	 0.434322	 2
1462096070.592	 9	 -2.224284	 -0.286380	 -0.202534	 1.653350	 -0.872574	 -0.835110	 0.008762	 0.725554	 -0.533117	 0.435065	 2
1462096070.612	 10	 -1.964133	 0.406481	 0.257795	 1.703953	 -0.866162	 -0.772031	 0.001172	 0.736884	 -0.517631	 0.434809	 2
1462096070.622	 10	 -1.992451	 1.056518	 0.416494	 1.734792	 -0.859504	 -0.742961	 0.000554	 0.743834	 -0.509521	 0.432549	 2
1462096070.632	 10	 -2.260302	 1.910772	 0.478998	 1.775428	 -0.850868	 -0.711539	 0.001891	 0.752985	 -0.500322	 0.427420	 2
1462096070.642	 10	 -2.408392	 2.686191	 0.425688	 1.825693	 -0.841086	 -0.677880	 0.004713	 0.764215	 -0.490253	 0.419052	 2
1462096070.652	 10	 -2.075472	 3.190964	 0.352883	 1.878704	 -0.831509	 -0.648016	 0.009078	 0.775896	 -0.480966	 0.408136	 2
1462096070.672	 11	 -0.805824	 3.150711	 0.595106	 1.965015	 -0.813761	 -0.617461	 0.022902	 0.794585	 -0.468504	 0.385505	 2
1462096070.682	 11	 -0.370412	 3.180909	 0.829261	 1.997077	 -0.805039	 -0.616333	 0.032464	 0.801397	 -0.464938	 0.374890	 2
1462096070.692	 11	 -0.253626	 3.265594	 1.114658	 2.026514	 -0.794689	 -0.619950	 0.043686	 0.807614	 -0.461538	 0.364463	 2
1462096070.702	 11	 -0.432940	 3.295419	 1.341372	 2.056861	 -0.781472	 -0.623549	 0.055812	 0.814061	 -0.456883	 0.354187	 2
1462096070.712	 11	 -0.741539	 3.207404	 1.399726	 2.088370	 -0.766015	 -0.624830	 0.067725	 0.820792	 -0.450728	 0.344323	 2
1462096070.732	 12	 -1.135929	 2.491091	 1.024543	 2.148988	 -0.734757	 -0.618203	 0.086728	 0.833806	 -0.436056	 0.327263	 2
1462096070.742	 12	 -1.222352	 2.035293	 0.764206	 2.175205	 -0.721199	 -0.611017	 0.092874	 0.839503	 -0.428730	 0.320623	 2
1462096070.752	 12	 -1.303569	 1.750957	 0.536325	 2.199431	 -0.708953	 -0.601663	 0.097167	 0.844827	 -0.421524	 0.314870	 2
1462096070.762	 12	 -1.380864	 1.536460	 0.407111	 2.222415	 -0.697373	 -0.590739	 0.100197	 0.849942	 -0.414303	 0.309697	 2
1462096070.772	 12	 -1.490186	 1.248220	 0.362750	 2.243319	 -0.685467	 -0.578745	 0.102252	 0.854792	 -0.406836	 0.305548	 2
1462096070.782	 12	 -1.620298	 0.813587	 0.363036	 2.260732	 -0.672667	 -0.565857	 0.103272	 0.859217	 -0.399013	 0.303100	 2
1462096070.792	 12	 -1.800146	 0.253496	 0.349798	 2.273434	 -0.658694	 -0.551674	 0.102931	 0.863089	 -0.390726	 0.303010	 2
1462096070.802	 12	 -2.006278	 -0.172934	 0.277284	 2.282527	 -0.643732	 -0.535449	 0.101112	 0.866596	 -0.381864	 0.304905	 2
1462096070.812	 12	 -2.131428	 -0.381714	 0.183710	 2.289813	 -0.628320	 -0.517333	 0.098123	 0.869942	 -0.372555	 0.307857	 2
1462096070.822	 12	 -2.099694	 -0.358064	 0.084538	 2.296825	 -0.613501	 -0.498698	 0.094622	 0.873192	 -0.363345	 0.310746	 2
1462096070.832	 12	 -1.884122	 -0.079417	 0.022374	 2.305184	 -0.600265	 -0.481275	 0.091439	 0.876431	 -0.354844	 0.312400	 2
1462096070.842	 12	 -1.520844	 0.209079	 0.058131	 2.314493	 -0.589040	 -0.467188	 0.089351	 0.879475	 -0.347607	 0.312586	 2
1462096070.852	 12	 -1.100558	 0.350764	 0.112276	 2.323135	 -0.580107	 -0.457397	 0.088464	 0.882016	 -0.341996	 0.311867	 2
1462096070.862	 12	 -0.692580	 0.399713	 0.133691	 2.330220	 -0.573726	 -0.451583	 0.088471	 0.883914	 -0.338123	 0.310711	 2
1462096070.872	 12	 -0.314790	 0.388084	 0.149478	 2.335406	 -0.569864	 -0.449285	 0.089150	 0.885146	 -0.335924	 0.309394	 2
1462096070.882	 12	 -0.006767	 0.305281	 0.149222	 2.338421	 -0.568241	 -0.449860	 0.090255	 0.885722	 -0.335199	 0.308209	 2
1462096070.892	 12	 0.201531	 0.135431	 0.131973	 2.338919	 -0.568312	 -0.452306	 0.091406	 0.885681	 -0.335582	 0.307568	 2
1462096070.902	 12	 0.376479	 -0.062222	 0.080652	 2.336847	 -0.569937	 -0.455937	 0.092321	 0.885060	 -0.336915	 0.307626	 2
1462096070.912	 12	 0.558722	 -0.254942	 -0.020779	 2.332360	 -0.573419	 -0.460402	 0.092796	 0.883872	 -0.339262	 0.308319	 2
1462096070.922	 12	 0.769606	 -0.443842	 -0.170382	 2.325612	 -0.579279	 -0.465508	 0.092644	 0.882103	 -0.342800	 0.309515	 2
1462096070.932	 12	 1.026380	 -0.628655	 -0.324610	 2.316444	 -0.587914	 -0.471570	 0.091862	 0.879676	 -0.347737	 0.311145	 2
1462096070.942	 12	 1.330206	 -0.796559	 -0.474827	 2.304651	 -0.599581	 -0.479155	 0.090567	 0.876502	 -0.354256	 0.313120	 2
1462096070.952	 12	 1.658669	 -0.947495	 -0.621904	 2.290063	 -0.614400	 -0.488765	 0.088858	 0.872512	 -0.362466	 0.315350	 2
1462096070.962	 12	 1.996684	 -1.089064	 -0.793489	 2.272631	 -0.632537	 -0.500591	 0.086692	 0.867664	 -0.372425	 0.317716	 2
1462096070.972	 12	 2.328148	 -1.241428	 -0.989630	 2.252097	 -0.654102	 -0.514745	 0.083939	 0.861893	 -0.384154	 0.320189	 2
1462096070.982	 12	 2.602108	 -1.373364	 -1.178685	 2.228568	 -0.678762	 -0.531126	 0.080533	 0.855242	 -0.397433	 0.322680	 2
1462096070.992	 12	 2.586047	 -1.293273	 -1.287574	 2.203882	 -0.704595	 -0.548476	 0.076659	 0.848233	 -0.411172	 0.324903	 2
1462096071.002	 12	 1.968120	 -0.418039	 -1.260194	 2.188406	 -0.727682	 -0.561709	 0.073307	 0.843110	 -0.422652	 0.324279	 2
1462096071.012	 12	 1.161049	 0.545517	 -0.863724	 2.186691	 -0.743539	 -0.568934	 0.072015	 0.841086	 -0.429825	 0.320372	 2
1462096071.022	 12	 0.448344	 1.788724	 -0.146810	 2.198188	 -0.749928	 -0.573218	 0.074700	 0.842139	 -0.432471	 0.313354	 2
1462096071.032	 12	 -0.070975	 2.791695	 0.374347	 2.222530	 -0.747948	 -0.575834	 0.081549	 0.845980	 -0.431180	 0.302905	 2
1462096071.042	 12	 -0.259432	 2.701289	 0.591497	 2.248786	 -0.742275	 -0.578010	 0.089486	 0.850356	 -0.428232	 0.292412	 2
1462096071.052	 12	 -0.369986	 1.977419	 0.755180	 2.268922	 -0.734583	 -0.580605	 0.096712	 0.853906	 -0.424731	 0.284773	 2
1462096071.062	 12	 -0.557207	 0.907494	 0.835312	 2.279433	 -0.725016	 -0.582616	 0.102037	 0.856240	 -0.420814	 0.281705	 2
1462096071.072	 12	 -0.742011	 -0.181789	 0.740458	 2.280512	 -0.714616	 -0.582246	 0.104529	 0.857422	 -0.416690	 0.283322	 2
1462096071.082	 12	 -0.872982	 -1.119576	 0.584731	 2.273535	 -0.704385	 -0.579145	 0.104140	 0.857556	 -0.412650	 0.288916	 2
1462096071.092	 12	 -0.899644	 -1.678888	 0.447604	 2.261076	 -0.694907	 -0.574105	 0.101646	 0.856865	 -0.408881	 0.297098	 2
1462096071.102	 12	 -0.674106	 -1.729328	 0.330069	 2.246473	 -0.687399	 -0.569554	 0.098502	 0.855566	 -0.406020	 0.305700	 2
1462096071.112	 12	 -0.337590	 -1.314363	 0.194583	 2.233591	 -0.683027	 -0.567137	 0.095905	 0.854075	 -0.404583	 0.312523	 2
1462096071.122	 12	 -0.199267	 -0.700201	 0.167120	 2.225664	 -0.680419	 -0.566219	 0.094540	 0.853097	 -0.403810	 0.316584	 2
1462096071.132	 12	 -0.337398	 -0.262487	 0.336524	 2.222552	 -0.676390	 -0.565479	 0.094573	 0.852980	 -0.402287	 0.318821	 2
1462096071.142	 12	 -0.510675	 -0.059524	 0.533890	 2.222259	 -0.669626	 -0.564459	 0.095718	 0.853548	 -0.399529	 0.320423	 2
1462096071.152	 12	 -0.554165	 -0.077898	 0.622556	 2.222173	 -0.661434	 -0.563586	 0.097311	 0.854250	 -0.396225	 0.322170	 2
1462096071.162	 12	 -0.441019	 -0.256220	 0.571952	 2.220316	 -0.653789	 -0.563230	 0.098644	 0.854583	 -0.393297	 0.324461	 2
1462096071.172	 12	 -0.091141	 -0.215349	 0.480832	 2.216653	 -0.648650	 -0.565141	 0.099988	 0.854297	 -0.391799	 0.326609	 2
1462096071.182	 12	 0.318905	 0.108523	 0.426987	 2.213494	 -0.646439	 -0.570643	 0.102255	 0.853673	 -0.392002	 0.327293	 2
1462096071.192	 12	 0.574535	 0.555757	 0.308492	 2.213224	 -0.646851	 -0.578495	 0.105452	 0.853190	 -0.393457	 0.325789	 2
1462096071.202	 12	 0.609695	 0.679982	 0.146280	 2.215466	 -0.648988	 -0.586060	 0.108600	 0.852987	 -0.395388	 0.322935	 2
1462096071.212	 12	 0.553357	 0.259265	 -0.104401	 2.216083	 -0.652721	 -0.591514	 0.110137	 0.852506	 -0.397669	 0.320877	 2
1462096071.222	 12	 0.427198	 -0.275957	 -0.333159	 2.213019	 -0.657753	 -0.594062	 0.109381	 0.851494	 -0.400178	 0.320705	 2
1462096071.232	 12	 0.263319	 -0.537914	 -0.441811	 2.208147	 -0.662947	 -0.593949	 0.107081	 0.850320	 -0.402413	 0.321797	 2
1462096071.242	 12	 0.208555	 -0.593200	 -0.461033	 2.203143	 -0.667891	 -0.592638	 0.104296	 0.849202	 -0.404353	 0.323229	 2
1462096071.252	 12	 0.344771	 -0.687089	 -0.446040	 2.196716	 -0.673304	 -0.592345	 0.101528	 0.847755	 -0.406697	 0.324964	 2
1462096071.262	 12	 0.637819	 -0.799436	 -0.419796	 2.187403	 -0.680014	 -0.594957	 0.099059	 0.845582	 -0.410133	 0.327063	 2
1462096071.272	 12	 1.001798	 -1.025857	 -0.401625	 2.173625	 -0.688540	 -0.601597	 0.096871	 0.842329	 -0.415106	 0.329826	 2
1462096071.282	 12	 1.288077	 -1.412846	 -0.409850	 2.153961	 -0.698757	 -0.611859	 0.094457	 0.837786	 -0.421554	 0.333894	 2
1462096071.292	 12	 1.413311	 -1.781263	 -0.415435	 2.128964	 -0.709786	 -0.624282	 0.091457	 0.832165	 -0.428857	 0.339438	 2
1462096071.302	 12	 1.339709	 -2.031785	 -0.377692	 2.100760	 -0.720224	 -0.637140	 0.087912	 0.825987	 -0.436096	 0.346176	 2
1462096071.312	 12	 1.108943	 -2.135973	 -0.318035	 2.071975	 -0.728906	 -0.648561	 0.083931	 0.819844	 -0.442414	 0.353669	 2
1462096071.322	 12	 0.866091	 -2.075370	 -0.272726	 2.044843	 -0.735712	 -0.657721	 0.079750	 0.814156	 -0.447539	 0.361246	 2
1462096071.332	 12	 0.725185	 -1.866413	 -0.262095	 2.020524	 -0.741419	 -0.665264	 0.075733	 0.809055	 -0.451824	 0.368171	 2
1462096071.342	 12	 0.646103	 -1.635620	 -0.295494	 1.999206	 -0.746820	 -0.671787	 0.071982	 0.804518	 -0.455655	 0.374097	 2
1462096071.352	 12	 0.593599	 -1.391381	 -0.370565	 1.980827	 -0.752490	 -0.677410	 0.068391	 0.800514	 -0.459259	 0.378920	 2
1462096071.362	 12	 0.572180	 -1.105859	 -0.460443	 1.965684	 -0.758769	 -0.682294	 0.065011	 0.797095	 -0.462776	 0.382428	 2
1462096071.372	 12	 0.597884	 -0.804353	 -0.527136	 1.953528	 -0.765743	 -0.687153	 0.062060	 0.794201	 -0.466383	 0.384552	 2
1462096071.382	 12	 0.668486	 -0.534475	 -0.536963	 1.943613	 -0.773142	 -0.692777	 0.059767	 0.791691	 -0.470174	 0.385473	 2
1462096071.392	 12	 0.741278	 -0.290862	 -0.501225	 1.935276	 -0.780517	 -0.699662	 0.058314	 0.789457	 -0.474123	 0.385441	 2
1462096071.402	 12	 0.797839	 -0.102443	 -0.456268	 1.928120	 -0.787649	 -0.707690	 0.057629	 0.787440	 -0.478154	 0.384689	 2
1462096071.412	 12	 0.860737	 0.100601	 -0.445335	 1.922226	 -0.794773	 -0.716755	 0.057626	 0.785646	 -0.482319	 0.383155	 2
1462096071.422	 12	 0.930446	 0.146363	 -0.413543	 1.916342	 -0.801867	 -0.726984	 0.058061	 0.783832	 -0.486668	 0.381300	 2
1462096071.432	 12	 0.974031	 0.082659	 -0.380411	 1.909252	 -0.808766	 -0.738228	 0.058625	 0.781779	 -0.491156	 0.379671	 2
1462096071.442	 12	 0.985434	 -0.018162	 -0.345212	 1.900763	 -0.815339	 -0.750054	 0.059132	 0.779473	 -0.495666	 0.378471	 2
1462096071.452	 12	 0.977386	 -0.157325	 -0.325122	 1.890791	 -0.821589	 -0.762097	 0.059407	 0.776909	 -0.500136	 0.377819	 2
1462096071.462	 12	 0.971242	 -0.342256	 -0.308671	 1.878866	 -0.827562	 -0.774306	 0.059292	 0.773999	 -0.504585	 0.377894	 2
1462096071.472	 12	 0.970346	 -0.536853	 -0.303014	 1.864929	 -0.833340	 -0.786685	 0.058734	 0.770726	 -0.509043	 0.378691	 2
1462096071.482	 12	 0.960183	 -0.908848	 -0.270151	 1.847519	 -0.838771	 -0.799312	 0.057424	 0.766814	 -0.513523	 0.380778	 2
1462096071.492	 12	 0.933383	 -1.147133	 -0.285990	 1.827207	 -0.843915	 -0.811822	 0.055331	 0.762369	 -0.517955	 0.383999	 2
1462096071.502	 12	 0.928210	 -1.267917	 -0.370198	 1.805516	 -0.849533	 -0.824143	 0.052563	 0.757644	 -0.522487	 0.387583	 2
1462096071.512	 12	 0.939468	 -1.289913	 -0.465354	 1.783371	 -0.855933	 -0.836525	 0.049347	 0.752804	 -0.527212	 0.391022	 2
1462096071.522	 12	 0.964521	 -1.363762	 -0.518482	 1.760210	 -0.862864	 -0.849352	 0.045749	 0.747746	 -0.532134	 0.394482	 2
1462096071.532	 12	 0.976710	 -1.458767	 -0.561037	 1.735762	 -0.870013	 -0.862673	 0.041804	 0.742427	 -0.537173	 0.398120	 2
1462096071.542	 12	 0.942690	 -1.676542	 -0.538255	 1.709177	 -0.876831	 -0.876083	 0.037304	 0.736696	 -0.542113	 0.402493	 2
1462096071.552	 12	 0.868310	 -1.574508	 -0.578222	 1.683147	 -0.883526	 -0.888823	 0.032625	 0.731095	 -0.546797	 0.406754	 2
1462096071.562	 12	 0.777003	 -1.190779	 -0.647394	 1.661134	 -0.890600	 -0.900415	 0.028388	 0.726336	 -0.551196	 0.409649	 2
1462096071.572	 12	 0.675488	 -0.721817	 -0.700763	 1.644870	 -0.898069	 -0.910689	 0.025040	 0.722794	 -0.555269	 0.410633	 2
1462096071.582	 12	 0.576058	 -0.537495	 -0.697117	 1.632215	 -0.905445	 -0.919584	 0.022171	 0.720038	 -0.558936	 0.410664	 2
1462096071.592	 12	 0.455461	 -0.529773	 -0.707718	 1.621200	 -0.912748	 -0.926872	 0.019166	 0.717662	 -0.562189	 0.410532	 2
1462096071.602	 12	 0.292373	 -0.500480	 -0.694302	 1.612138	 -0.919899	 -0.931832	 0.015898	 0.715729	 -0.564870	 0.410366	 2
1462096071.612	 12	 0.146953	 -0.396349	 -0.620661	 1.605790	 -0.926399	 -0.934420	 0.012756	 0.714385	 -0.566868	 0.410064	 2
1462096071.622	 12	 0.063909	 -0.227204	 -0.503262	 1.602304	 -0.931757	 -0.935436	 0.010254	 0.713645	 -0.568257	 0.409500	 2
1462096071.632	 12	 0.045331	 -0.188043	 -0.390831	 1.599900	 -0.935956	 -0.936072	 0.008326	 0.713133	 -0.569302	 0.408983	 2
1462096071.642	 12	 -0.003447	 -0.182060	 -0.318944	 1.598026	 -0.939286	 -0.936097	 0.006633	 0.712736	 -0.570028	 0.408695	 2
1462096071.652	 12	 -0.068815	 -0.296247	 -0.251229	 1.596138	 -0.941981	 -0.935154	 0.004814	 0.712340	 -0.570416	 0.408868	 2
1462096071.662	 12	 -0.208857	 -0.443908	 -0.136281	 1.594476	 -0.943610	 -0.932212	 0.002721	 0.711997	 -0.570165	 0.409834	 2
1462096071.672	 12	 -0.426023	 -0.682551	 0.014727	 1.593357	 -0.943756	 -0.925929	 0.000115	 0.711771	 -0.568906	 0.411980	 2
1462096071.682	 12	 -0.694320	 -0.874479	 0.133577	 1.593554	 -0.942555	 -0.915379	 -0.003163	 0.711812	 -0.566466	 0.415245	 2
1462096071.692	 12	 -1.084599	 -0.917072	 0.262339	 1.597756	 -0.940047	 -0.898869	 -0.006976	 0.712671	 -0.562488	 0.419116	 2
1462096071.702	 12	 -1.612819	 -0.854485	 0.465752	 1.608802	 -0.935439	 -0.874207	 -0.011076	 0.714949	 -0.556320	 0.423359	 2
1462096071.712	 12	 -2.126066	 -0.730722	 0.604593	 1.627833	 -0.928730	 -0.841047	 -0.015375	 0.718911	 -0.547852	 0.427539	 2
1462096071.722	 12	 -2.496485	 -0.576055	 0.662545	 1.652916	 -0.920572	 -0.801841	 -0.019898	 0.724177	 -0.537702	 0.431334	 2
1462096071.732	 12	 -2.775590	 -0.259221	 0.679647	 1.683677	 -0.911184	 -0.758633	 -0.024230	 0.730703	 -0.526337	 0.434114	 2
1462096071.742	 12	 -2.958617	 0.346152	 0.630388	 1.721310	 -0.900948	 -0.713049	 -0.027751	 0.738768	 -0.514225	 0.434769	 2
1462096071.752	 12	 -2.976479	 1.156050	 0.544293	 1.766234	 -0.890256	 -0.667605	 -0.029716	 0.748473	 -0.502050	 0.432262	 2
1462096071.762	 12	 -2.848294	 2.131677	 0.490441	 1.818195	 -0.879033	 -0.624804	 -0.029364	 0.759765	 -0.490353	 0.425968	 2
1462096071.772	 12	 -2.475693	 3.063418	 0.496933	 1.874698	 -0.867286	 -0.588144	 -0.026044	 0.772083	 -0.479814	 0.415918	 2
1462096071.782	 12	 -1.850567	 3.812331	 0.621022	 1.931093	 -0.855227	 -0.561728	 -0.019284	 0.784394	 -0.471179	 0.402920	 2
1462096071.792	 12	 -1.084672	 4.427788	 0.879058	 1.983812	 -0.843250	 -0.548477	 -0.008691	 0.795857	 -0.464951	 0.387759	 2
1462096071.802	 12	 -0.324672	 4.860875	 1.213252	 2.031369	 -0.830905	 -0.548684	 0.005889	 0.806099	 -0.460808	 0.371249	 2
1462096071.812	 12	 0.308909	 4.945622	 1.568752	 2.071868	 -0.818552	 -0.560902	 0.023548	 0.814590	 -0.458425	 0.354591	 2
1462096071.822	 12	 0.697095	 4.655077	 1.847227	 2.104390	 -0.806106	 -0.581558	 0.042796	 0.821118	 -0.457075	 0.339141	 2
1462096071.832	 12	 0.761599	 4.006695	 1.931221	 2.129270	 -0.793658	 -0.605292	 0.061553	 0.825834	 -0.455942	 0.326076	 2
1462096071.842	 12	 0.507897	 3.015477	 1.837880	 2.147004	 -0.781052	 -0.626608	 0.077718	 0.829113	 -0.454238	 0.316543	 2
1462096071.852	 12	 -0.005605	 1.820806	 1.597832	 2.158144	 -0.767897	 -0.641021	 0.089652	 0.831435	 -0.451308	 0.311446	 2
1462096071.862	 12	 -0.718638	 0.844880	 1.374346	 2.165253	 -0.753221	 -0.645871	 0.097068	 0.833580	 -0.446432	 0.310516	 2
1462096071.872	 12	 -1.467129	 0.216262	 1.215150	 2.172130	 -0.735517	 -0.641027	 0.101124	 0.836372	 -0.438897	 0.312450	 2
1462096071.882	 12	 -1.940946	 -0.261622	 0.979295	 2.178797	 -0.716471	 -0.628697	 0.102269	 0.839601	 -0.429621	 0.316286	 2
1462096071.892	 12	 -2.135263	 -0.530828	 0.738685	 2.184795	 -0.697906	 -0.612056	 0.101242	 0.842892	 -0.419761	 0.321068	 2
1462096071.902	 12	 -2.117791	 -0.532095	 0.571196	 2.190755	 -0.680601	 -0.594106	 0.099240	 0.846125	 -0.410049	 0.325705	 2
1462096071.912	 12	 -2.018124	 -0.381885	 0.498189	 2.197313	 -0.664527	 -0.576677	 0.097177	 0.849316	 -0.400757	 0.329565	 2
1462096071.922	 12	 -1.929939	 -0.248048	 0.509324	 2.204436	 -0.649002	 -0.560532	 0.095542	 0.852481	 -0.391772	 0.332660	 2
1462096071.932	 12	 -1.866128	 -0.120156	 0.570707	 2.211662	 -0.633335	 -0.545759	 0.094453	 0.855597	 -0.382879	 0.335316	 2
1462096071.942	 12	 -1.742370	 0.076440	 0.597037	 2.219670	 -0.617907	 -0.532611	 0.094059	 0.858737	 -0.374243	 0.337144	 2
1462096071.952	 12	 -1.504133	 0.343882	 0.612372	 2.228424	 -0.603548	 -0.521900	 0.094504	 0.861797	 -0.366345	 0.337884	 2
1462096071.962	 12	 -1.121840	 0.647790	 0.580964	 2.238275	 -0.591343	 -0.514617	 0.096036	 0.864711	 -0.359783	 0.337059	 2
1462096071.972	 12	 -0.687791	 0.841960	 0.544888	 2.248156	 -0.582083	 -0.511282	 0.098525	 0.867211	 -0.355027	 0.334952	 2
1462096071.982	 12	 -0.358889	 0.881456	 0.550917	 2.256896	 -0.575120	 -0.511362	 0.101719	 0.869170	 -0.351797	 0.332319	 2
1462096071.992	 12	 -0.139315	 0.820231	 0.556962	 2.263916	 -0.569607	 -0.513860	 0.105306	 0.870598	 -0.349617	 0.329755	 2
1462096072.002	 12	 0.022263	 0.728978	 0.505681	 2.269408	 -0.565503	 -0.517671	 0.108864	 0.871586	 -0.348285	 0.327388	 2
1462096072.012	 12	 0.179304	 0.594020	 0.439112	 2.273184	 -0.562919	 -0.522409	 0.112176	 0.872121	 -0.347801	 0.325354	 2
1462096072.022	 12	 0.337248	 0.431341	 0.363751	 2.274918	 -0.561921	 -0.528027	 0.115155	 0.872153	 -0.348210	 0.323789	 2
1462096072.032	 12	 0.495072	 0.251574	 0.278641	 2.274468	 -0.562572	 -0.534424	 0.117717	 0.871663	 -0.349534	 0.322758	 2
1462096072.042	 12	 0.657145	 0.085468	 0.172305	 2.271935	 -0.565018	 -0.541526	 0.119808	 0.870666	 -0.351819	 0.322195	 2
1462096072.052	 12	 0.817066	 -0.070119	 0.049034	 2.267509	 -0.569398	 -0.549200	 0.121359	 0.869195	 -0.355087	 0.322002	 2
1462096072.062	 12	 0.976930	 -0.216319	 -0.099728	 2.261314	 -0.575860	 -0.557307	 0.122280	 0.867269	 -0.359364	 0.322103	 2
1462096072.072	 12	 1.136779	 -0.349893	 -0.267556	 2.253523	 -0.584534	 -0.565739	 0.122502	 0.864912	 -0.364661	 0.322400	 2
1462096072.082	 12	 1.310449	 -0.477274	 -0.455696	 2.244158	 -0.595642	 -0.574539	 0.121968	 0.862111	 -0.371057	 0.322808	 2
1462096072.092	 12	 1.487340	 -0.590921	 -0.655460	 2.233311	 -0.609321	 -0.583735	 0.120639	 0.858865	 -0.378580	 0.323225	 2
1462096072.102	 12	 1.669744	 -0.661029	 -0.862327	 2.221246	 -0.625646	 -0.593434	 0.118555	 0.855200	 -0.387230	 0.323466	 2
1462096072.112	 12	 1.875669	 -0.729017	 -1.060853	 2.207847	 -0.644689	 -0.604001	 0.115787	 0.851065	 -0.397063	 0.323453	 2
1462096072.122	 12	 2.049149	 -0.716668	 -1.194403	 2.193336	 -0.665970	 -0.615824	 0.112611	 0.846504	 -0.407902	 0.323056	 2
1462096072.132	 12	 2.008905	 -0.435666	 -1.181846	 2.180297	 -0.687551	 -0.628360	 0.109783	 0.842108	 -0.418750	 0.321636	 2
1462096072.142	 12	 1.532524	 0.243368	 -1.018975	 2.174424	 -0.705871	 -0.638302	 0.108063	 0.839238	 -0.427459	 0.318248	 2
1462096072.152	 12	 0.952600	 1.197533	 -0.652280	 2.179719	 -0.718312	 -0.644526	 0.108641	 0.838764	 -0.432738	 0.312106	 2
1462096072.162	 12	 0.436055	 2.625396	 -0.206059	 2.199892	 -0.724122	 -0.648137	 0.113060	 0.841191	 -0.434315	 0.301638	 2
1462096072.172	 12	 0.155571	 3.257502	 0.164624	 2.229870	 -0.724707	 -0.651047	 0.120643	 0.845393	 -0.433210	 0.288244	 2
1462096072.182	 12	 -0.051666	 2.574761	 0.386020	 2.256015	 -0.722122	 -0.653907	 0.128134	 0.849132	 -0.431021	 0.277087	 2
1462096072.192	 12	 -0.403165	 1.426349	 0.576626	 2.272328	 -0.716052	 -0.655310	 0.133686	 0.851804	 -0.427855	 0.271106	 2
1462096072.202	 12	 -0.788204	 0.335201	 0.583680	 2.279465	 -0.707009	 -0.653408	 0.136538	 0.853681	 -0.423685	 0.270330	 2
1462096072.212	 12	 -1.020561	 -0.428476	 0.489073	 2.280326	 -0.696782	 -0.648114	 0.136868	 0.855032	 -0.419007	 0.273167	 2
1462096072.222	 12	 -1.069128	 -0.934083	 0.415516	 2.276512	 -0.686547	 -0.641212	 0.135531	 0.855833	 -0.414397	 0.278310	 2
1462096072.232	 12	 -0.949120	 -1.241123	 0.364720	 2.268853	 -0.677295	 -0.634650	 0.133326	 0.855952	 -0.410438	 0.284799	 2
1462096072.242	 12	 -0.726220	 -1.245190	 0.333966	 2.259343	 -0.669635	 -0.629668	 0.131066	 0.855523	 -0.407405	 0.291415	 2
1462096072.252	 12	 -0.424617	 -1.087752	 0.312556	 2.249512	 -0.664015	 -0.627280	 0.129387	 0.854670	 -0.405535	 0.297221	 2
1462096072.262	 12	 -0.229371	 -0.876625	 0.318149	 2.240245	 -0.659928	 -0.627164	 0.128442	 0.853600	 -0.404547	 0.302013	 2
1462096072.272	 12	 -0.308140	 -0.693773	 0.420718	 2.232779	 -0.655172	 -0.627459	 0.128210	 0.852799	 -0.403249	 0.306082	 2
1462096072.282	 12	 -0.439971	 -0.722009	 0.580402	 2.225714	 -0.648375	 -0.627525	 0.128468	 0.852197	 -0.401111	 0.310428	 2
1462096072.292	 12	 -0.466922	 -0.845798	 0.659417	 2.217415	 -0.640417	 -0.627784	 0.128861	 0.851438	 -0.398642	 0.315487	 2
1462096072.302	 12	 -0.416883	 -0.836669	 0.618567	 2.208655	 -0.632701	 -0.628174	 0.129180	 0.850540	 -0.396320	 0.320663	 2
1462096072.312	 12	 -0.174545	 -0.504165	 0.514041	 2.201622	 -0.626850	 -0.629624	 0.129849	 0.849693	 -0.394775	 0.324522	 2
1462096072.322	 12	 0.270854	 0.309850	 0.449529	 2.199572	 -0.624015	 -0.634486	 0.132211	 0.849221	 -0.394617	 0.324995	 2
1462096072.332	 12	 0.650904	 1.353305	 0.317380	 2.205748	 -0.624460	 -0.642814	 0.136859	 0.849629	 -0.395716	 0.320638	 2
1462096072.342	 12	 0.773870	 1.657080	 0.016460	 2.217451	 -0.628195	 -0.651018	 0.141748	 0.850678	 -0.397624	 0.313287	 2
1462096072.352	 12	 0.717587	 1.074243	 -0.296479	 2.226600	 -0.634446	 -0.656626	 0.144431	 0.851296	 -0.400223	 0.307012	 2
1462096072.362	 12	 0.543907	 0.386286	 -0.485745	 2.230696	 -0.641617	 -0.659058	 0.144543	 0.851275	 -0.403030	 0.303324	 2
1462096072.372	 12	 0.349835	 -0.204981	 -0.550306	 2.230189	 -0.648303	 -0.658801	 0.142704	 0.850767	 -0.405571	 0.302230	 2
1462096072.382	 12	 0.269295	 -0.561904	 -0.520953	 2.226075	 -0.654225	 -0.657511	 0.139873	 0.849831	 -0.407914	 0.303032	 2
1462096072.392	 12	 0.390598	 -0.692605	 -0.455017	 2.219465	 -0.660078	 -0.657352	 0.137017	 0.848433	 -0.410562	 0.304673	 2
1462096072.402	 12	 0.747146	 -0.767257	 -0.338385	 2.209732	 -0.666922	 -0.661078	 0.134897	 0.846218	 -0.414370	 0.306620	 2
1462096072.412	 12	 1.240595	 -1.001871	 -0.224433	 2.194457	 -0.675496	 -0.670687	 0.133624	 0.842630	 -0.420078	 0.309281	 2
1462096072.422	 12	 1.652915	 -1.389021	 -0.203916	 2.172178	 -0.686168	 -0.685643	 0.132471	 0.837448	 -0.427823	 0.313209	 2
1462096072.432	 12	 1.670829	 -1.670865	 -0.194971	 2.145235	 -0.697256	 -0.702541	 0.130822	 0.831359	 -0.436288	 0.318402	 2
1462096072.442	 12	 1.269534	 -1.742524	 -0.118606	 2.118614	 -0.705852	 -0.716966	 0.128663	 0.825612	 -0.443397	 0.324359	 2
1462096072.452	 12	 0.758870	 -1.721121	 -0.013779	 2.095036	 -0.710691	 -0.726635	 0.126080	 0.820848	 -0.448182	 0.330825	 2
1462096072.462	 12	 0.482886	 -1.673167	 0.033832	 2.074051	 -0.713068	 -0.732944	 0.123292	 0.816815	 -0.451368	 0.337459	 2
1462096072.472	 12	 0.482043	 -1.584179	 -0.015423	 2.054357	 -0.715269	 -0.738419	 0.120451	 0.813010	 -0.454255	 0.343742	 2
1462096072.482	 12	 0.633911	 -1.434288	 -0.111270	 2.035368	 -0.718730	 -0.744885	 0.117769	 0.809158	 -0.457681	 0.349172	 2
1462096072.492	 12	 0.735613	 -1.274773	 -0.220444	 2.017311	 -0.723622	 -0.752330	 0.115229	 0.805313	 -0.461681	 0.353614	 2
1462096072.502	 12	 0.739194	 -1.104320	 -0.327597	 2.001009	 -0.729497	 -0.759620	 0.112683	 0.801726	 -0.465853	 0.357097	 2
1462096072.512	 12	 0.729996	 -0.939055	 -0.421898	 1.986703	 -0.736132	 -0.766362	 0.110101	 0.798487	 -0.470031	 0.359676	 2
1462096072.522	 12	 0.770992	 -0.778086	 -0.501755	 1.973934	 -0.743564	 -0.773151	 0.107609	 0.795488	 -0.474358	 0.361391	 2
1462096072.532	 12	 0.859010	 -0.639278	 -0.538531	 1.961991	 -0.751717	 -0.780847	 0.105403	 0.792566	 -0.479000	 0.362338	 2
1462096072.542	 12	 0.936429	 -0.523507	 -0.529602	 1.950318	 -0.760107	 -0.789792	 0.103628	 0.789630	 -0.483888	 0.362766	 2
1462096072.552	 12	 0.989489	 -0.370418	 -0.517982	 1.939348	 -0.768538	 -0.799746	 0.102349	 0.786783	 -0.488895	 0.362601	 2
1462096072.562	 12	 1.012635	 -0.241558	 -0.486077	 1.929153	 -0.776744	 -0.810464	 0.101569	 0.784064	 -0.493891	 0.361938	 2
1462096072.572	 12	 0.987289	 -0.217802	 -0.447268	 1.919310	 -0.784478	 -0.821392	 0.101048	 0.781434	 -0.498725	 0.361142	 2
1462096072.582	 12	 0.936919	 -0.292910	 -0.411292	 1.909050	 -0.791637	 -0.832062	 0.100445	 0.778781	 -0.503324	 0.360661	 2
1462096072.592	 12	 0.900077	 -0.425628	 -0.394088	 1.897724	 -0.798359	 -0.842465	 0.099551	 0.775981	 -0.507765	 0.360718	 2
1462096072.602	 12	 0.873745	 -0.578704	 -0.393152	 1.884980	 -0.804853	 -0.852682	 0.098242	 0.772958	 -0.512144	 0.361375	 2
1462096072.612	 12	 0.868751	 -0.727636	 -0.398758	 1.870657	 -0.811264	 -0.862946	 0.096510	 0.769665	 -0.516553	 0.362593	 2
1462096072.622	 12	 0.856264	 -0.873423	 -0.413860	 1.854825	 -0.817652	 -0.873226	 0.094336	 0.766113	 -0.520994	 0.364331	 2
1462096072.632	 12	 0.842598	 -1.032064	 -0.441862	 1.837497	 -0.824144	 -0.883431	 0.091637	 0.762301	 -0.525481	 0.366566	 2
1462096072.642	 12	 0.823491	 -1.206700	 -0.477425	 1.817910	 -0.830829	 -0.893783	 0.088258	 0.758073	 -0.530102	 0.369496	 2
1462096072.652	 12	 0.783370	 -1.278388	 -0.552346	 1.798231	 -0.837892	 -0.903403	 0.084369	 0.753862	 -0.534637	 0.372474	 2
1462096072.662	 12	 0.737864	 -1.370185	 -0.615684	 1.778021	 -0.845368	 -0.912448	 0.079901	 0.749578	 -0.539130	 0.375616	 2
1462096072.672	 12	 0.677611	 -1.421518	 -0.678517	 1.757639	 -0.853228	 -0.920781	 0.074908	 0.745293	 -0.543519	 0.378832	 2
1462096072.682	 12	 0.602905	 -1.378068	 -0.730752	 1.738558	 -0.861463	 -0.927836	 0.069589	 0.741307	 -0.547631	 0.381736	 2
1462096072.692	 12	 0.528702	 -1.267277	 -0.736535	 1.720693	 -0.869640	 -0.934364	 0.064355	 0.737582	 -0.551504	 0.384285	 2
1462096072.702	 12	 0.464144	 -1.198621	 -0.682046	 1.703737	 -0.877117	 -0.940212	 0.059296	 0.734069	 -0.554970	 0.386826	 2
1462096072.712	 12	 0.439429	 -0.736279	 -0.737211	 1.690882	 -0.884830	 -0.945701	 0.055115	 0.731371	 -0.558240	 0.387850	 2
1462096072.722	 12	 0.422814	 -0.410781	 -0.739366	 1.681933	 -0.892698	 -0.951068	 0.051892	 0.729448	 -0.561365	 0.387404	 2
1462096072.732	 12	 0.398006	 -0.253179	 -0.723827	 1.675728	 -0.900108	 -0.955719	 0.049311	 0.728092	 -0.564138	 0.386263	 2
1462096072.742	 12	 0.362002	 -0.194569	 -0.722968	 1.669921	 -0.907679	 -0.960512	 0.046822	 0.726820	 -0.566934	 0.384872	 2
1462096072.752	 12	 0.289841	 -0.132458	 -0.694052	 1.665313	 -0.914968	 -0.964431	 0.044436	 0.725811	 -0.569441	 0.383355	 2
1462096072.762	 12	 0.213624	 -0.043588	 -0.643537	 1.662431	 -0.921730	 -0.967213	 0.042301	 0.725166	 -0.571551	 0.381673	 2
1462096072.772	 12	 0.182133	 0.007017	 -0.571385	 1.660685	 -0.927780	 -0.969405	 0.040517	 0.724756	 -0.573351	 0.379942	 2
1462096072.782	 12	 0.187519	 -0.027706	 -0.517401	 1.658690	 -0.933182	 -0.971732	 0.038929	 0.724301	 -0.575025	 0.378442	 2
1462096072.792	 12	 0.185734	 -0.172415	 -0.526193	 1.655500	 -0.938533	 -0.974115	 0.037030	 0.723621	 -0.576711	 0.377367	 2
1462096072.802	 12	 0.136276	 -0.480681	 -0.521170	 1.650046	 -0.943909	 -0.975982	 0.034276	 0.722527	 -0.578330	 0.377245	 2
1462096072.812	 12	 -0.045934	 -0.718845	 -0.436539	 1.643463	 -0.948519	 -0.975601	 0.030640	 0.721263	 -0.579359	 0.378395	 2
1462096072.822	 12	 -0.213945	 -1.188276	 -0.263594	 1.636011	 -0.951532	 -0.972113	 0.026181	 0.719880	 -0.579449	 0.381217	 2
1462096072.832	 12	 -0.399245	 -1.750842	 -0.033813	 1.624544	 -0.952204	 -0.966130	 0.020478	 0.717744	 -0.578577	 0.386876	 2
1462096072.842	 12	 -0.722789	 -1.913692	 0.112432	 1.614465	 -0.951100	 -0.955234	 0.014048	 0.715877	 -0.576302	 0.393953	 2
1462096072.852	 12	 -1.042592	 -1.722486	 0.242756	 1.609900	 -0.948618	 -0.938799	 0.007723	 0.715075	 -0.572531	 0.401019	 2
1462096072.862	 12	 -1.315603	 -1.365277	 0.402992	 1.612480	 -0.944500	 -0.917651	 0.002332	 0.715687	 -0.567360	 0.407296	 2
1462096072.872	 12	 -1.521093	 -0.913889	 0.524084	 1.622062	 -0.938847	 -0.893036	 -0.001815	 0.717727	 -0.561063	 0.412399	 2
1462096072.882	 12	 -1.708373	 -0.406544	 0.595447	 1.638702	 -0.932076	 -0.865698	 -0.004664	 0.721252	 -0.553884	 0.415917	 2
1462096072.892	 12	 -1.947489	 0.223048	 0.636426	 1.663575	 -0.924326	 -0.835212	 -0.006194	 0.726543	 -0.545765	 0.417417	 2
1462096072.902	 12	 -2.241617	 1.214139	 0.637552	 1.700407	 -0.915547	 -0.800803	 -0.005812	 0.734401	 -0.536535	 0.415633	 2
1462096072.912	 12	 -2.366624	 2.355395	 0.587446	 1.749917	 -0.906000	 -0.764343	 -0.002951	 0.744947	 -0.526632	 0.409517	 2
1462096072.922	 12	 -2.179341	 3.389580	 0.565597	 1.807594	 -0.895846	 -0.730884	 0.002841	 0.757156	 -0.517071	 0.399180	 2
1462096072.932	 12	 -1.777356	 4.200119	 0.590955	 1.868332	 -0.885257	 -0.704346	 0.011634	 0.769847	 -0.508573	 0.385427	 2
1462096072.942	 12	 -1.196880	 4.792526	 0.675609	 1.927888	 -0.874793	 -0.687515	 0.023357	 0.781993	 -0.501701	 0.369104	 2
1462096072.952	 12	 -0.569090	 5.157845	 0.851524	 1.983030	 -0.864641	 -0.681808	 0.037892	 0.792818	 -0.496634	 0.351226	 2
1462096072.962	 12	 -0.031887	 5.305542	 1.048584	 2.032642	 -0.854943	 -0.686070	 0.054669	 0.802014	 -0.493075	 0.332659	 2
1462096072.972	 12	 0.366093	 5.142907	 1.222654	 2.075646	 -0.845792	 -0.698105	 0.072671	 0.809377	 -0.490629	 0.314502	 2
1462096072.982	 12	 0.554081	 4.630516	 1.335615	 2.111032	 -0.837027	 -0.714742	 0.090507	 0.814879	 -0.488793	 0.298097	 2
1462096072.992	 12	 0.499566	 3.711681	 1.330737	 2.138038	 -0.828415	 -0.731864	 0.106420	 0.818717	 -0.487042	 0.284900	 2
1462096073.002	 12	 0.223419	 2.472831	 1.254470	 2.155682	 -0.819383	 -0.745906	 0.118879	 0.821170	 -0.484939	 0.276372	 2
1462096073.012	 12	 -0.318723	 1.218452	 1.129218	 2.165426	 -0.808822	 -0.753367	 0.127101	 0.822930	 -0.481744	 0.273046	 2
1462096073.022	 12	 -1.266742	 0.337568	 1.009910	 2.173276	 -0.794565	 -0.749806	 0.131268	 0.825396	 -0.475829	 0.274002	 2
1462096073.032	 12	 -2.123243	 -0.170051	 0.918857	 2.183142	 -0.775789	 -0.734908	 0.132329	 0.829247	 -0.466564	 0.277770	 2
1462096073.042	 12	 -2.461586	 -0.340863	 0.841347	 2.194040	 -0.754829	 -0.714615	 0.131807	 0.833785	 -0.455559	 0.282658	 2
1462096073.052	 12	 -2.446537	 -0.275331	 0.790669	 2.205023	 -0.733862	 -0.693881	 0.130942	 0.838372	 -0.444312	 0.287357	 2
1462096073.062	 12	 -2.221794	 0.182477	 0.944311	 2.217085	 -0.713023	 -0.676509	 0.131512	 0.842890	 -0.433362	 0.290583	 2
1462096073.072	 12	 -1.832754	 0.484879	 1.001289	 2.229163	 -0.693329	 -0.664269	 0.133798	 0.846984	 -0.423447	 0.292248	 2
1462096073.082	 12	 -1.439750	 0.784608	 0.984669	 2.241047	 -0.676090	 -0.656588	 0.137236	 0.850550	 -0.415024	 0.292380	 2
1462096073.092	 12	 -1.155154	 1.001269	 0.909604	 2.253534	 -0.661201	 -0.651897	 0.141393	 0.853807	 -0.407805	 0.291062	 2
1462096073.102	 12	 -0.977002	 1.076555	 0.803243	 2.266151	 -0.648318	 -0.648676	 0.145633	 0.856811	 -0.401488	 0.288918	 2
1462096073.112	 12	 -0.837242	 1.155162	 0.699379	 2.278973	 -0.637155	 -0.646184	 0.149742	 0.859646	 -0.395865	 0.286143	 2
1462096073.122	 12	 -0.664253	 1.238156	 0.627239	 2.292011	 -0.627652	 -0.644742	 0.153890	 0.862289	 -0.390968	 0.282699	 2
1462096073.132	 12	 -0.463550	 1.273558	 0.603440	 2.304573	 -0.619724	 -0.644984	 0.158254	 0.864597	 -0.386915	 0.278792	 2
1462096073.142	 12	 -0.295038	 1.226483	 0.633507	 2.315770	 -0.612856	 -0.647096	 0.162880	 0.866461	 -0.383603	 0.274888	 2
1462096073.152	 12	 -0.131087	 1.137768	 0.639781	 2.325173	 -0.606995	 -0.650886	 0.167635	 0.867841	 -0.381026	 0.271237	 2
1462096073.162	 12	 0.061663	 1.079520	 0.605587	 2.333116	 -0.602595	 -0.656147	 0.172409	 0.868768	 -0.379315	 0.267653	 2
1462096073.172	 12	 0.293751	 1.015619	 0.541158	 2.339640	 -0.600198	 -0.662870	 0.177097	 0.869211	 -0.378687	 0.264017	 2
1462096073.182	 12	 0.529930	 0.922908	 0.464703	 2.344512	 -0.600014	 -0.671052	 0.181616	 0.869129	 -0.379250	 0.260386	 2
1462096073.192	 12	 0.737094	 0.795121	 0.380712	 2.347512	 -0.601951	 -0.680413	 0.185827	 0.868526	 -0.380953	 0.256916	 2
1462096073.202	 12	 0.912138	 0.650365	 0.290449	 2.348585	 -0.605827	 -0.690618	 0.189608	 0.867445	 -0.383687	 0.253716	 2
1462096073.212	 12	 1.055067	 0.485488	 0.199212	 2.347722	 -0.611405	 -0.701377	 0.192875	 0.865933	 -0.387324	 0.250876	 2
1462096073.222	 12	 1.166820	 0.286543	 0.090877	 2.344766	 -0.618529	 -0.712367	 0.195475	 0.864020	 -0.391776	 0.248539	 2
1462096073.232	 12	 1.278287	 0.059664	 -0.056083	 2.339607	 -0.627356	 -0.723233	 0.197177	 0.861722	 -0.397066	 0.246769	 2
1462096073.242	 12	 1.413962	 -0.207970	 -0.239868	 2.331918	 -0.638281	 -0.733923	 0.197778	 0.858984	 -0.403366	 0.245613	 2
1462096073.252	 12	 1.550395	 -0.501475	 -0.470795	 2.321482	 -0.651685	 -0.744192	 0.197003	 0.855782	 -0.410794	 0.245104	 2
1462096073.262	 12	 1.668712	 -0.805424	 -0.682477	 2.308153	 -0.667451	 -0.754045	 0.194800	 0.852103	 -0.419289	 0.245298	 2
1462096073.272	 12	 1.759428	 -1.104810	 -0.862969	 2.291831	 -0.685137	 -0.763653	 0.191267	 0.847944	 -0.428674	 0.246264	 2
1462096073.282	 12	 1.800423	 -1.365299	 -0.979787	 2.272664	 -0.704100	 -0.773232	 0.186617	 0.843343	 -0.438679	 0.248007	 2
1462096073.292	 12	 1.690801	 -1.527714	 -0.980343	 2.251707	 -0.722714	 -0.782473	 0.181305	 0.838568	 -0.448536	 0.250497	 2
1462096073.302	 12	 1.473440	 -1.491660	 -0.936551	 2.230970	 -0.739669	 -0.790698	 0.175819	 0.834021	 -0.457502	 0.253355	 2
1462096073.312	 12	 1.127258	 -0.997366	 -0.822361	 2.215355	 -0.753928	 -0.796853	 0.171166	 0.830489	 -0.464682	 0.255071	 2
1462096073.322	 12	 0.731556	 -0.243589	 -0.587025	 2.208056	 -0.763987	 -0.800611	 0.168443	 0.828520	 -0.469303	 0.254827	 2
1462096073.332	 12	 0.485625	 1.537863	 -0.406311	 2.216588	 -0.770804	 -0.802903	 0.169649	 0.828904	 -0.471249	 0.249123	 2
1462096073.342	 12	 0.429524	 2.926600	 -0.328955	 2.242358	 -0.776112	 -0.804755	 0.175141	 0.831470	 -0.471111	 0.236721	 2
1462096073.352	 12	 0.244135	 2.415543	 -0.182889	 2.267676	 -0.779954	 -0.806159	 0.180726	 0.833961	 -0.470375	 0.224933	 2
1462096073.372	 13	 -0.648295	 -0.146391	 0.377619	 2.285684	 -0.772384	 -0.802064	 0.185089	 0.836961	 -0.465580	 0.220165	 2
1462096073.382	 13	 -0.795526	 -0.616905	 0.409693	 2.283353	 -0.764189	 -0.797712	 0.184724	 0.837777	 -0.462378	 0.224084	 2
1462096073.392	 13	 -0.724692	 -0.712172	 0.354901	 2.279485	 -0.756498	 -0.793142	 0.183793	 0.838379	 -0.459455	 0.228564	 2
1462096073.402	 13	 -0.539896	 -0.657561	 0.333551	 2.274829	 -0.750093	 -0.789991	 0.182968	 0.838637	 -0.457214	 0.232735	 2
1462096073.412	 13	 -0.290340	 -0.433094	 0.294034	 2.270532	 -0.745463	 -0.788978	 0.182695	 0.838585	 -0.455821	 0.235849	 2
1462096073.432	 14	 0.070819	 0.306417	 0.335072	 2.267559	 -0.740687	 -0.794039	 0.185310	 0.838131	 -0.454973	 0.237058	 2
1462096073.442	 15	 -0.102367	 0.389505	 0.429009	 2.269495	 -0.737290	 -0.796988	 0.187818	 0.838338	 -0.453919	 0.236372	 2
1462096073.462	 15	 -0.467089	 -0.076998	 0.779545	 2.269667	 -0.723127	 -0.800983	 0.192998	 0.839003	 -0.449268	 0.238713	 2
1462096073.472	 15	 -0.367510	 -0.491815	 0.818514	 2.263793	 -0.714216	 -0.803764	 0.195029	 0.838643	 -0.446954	 0.242640	 2
1462096073.492	 16	 0.490015	 -0.224359	 0.646212	 2.246029	 -0.704256	 -0.818215	 0.199565	 0.835678	 -0.446899	 0.249193	 2
1462096073.502	 16	 0.933897	 0.589897	 0.467679	 2.240999	 -0.705492	 -0.831112	 0.203513	 0.833678	 -0.449451	 0.248107	 2
1462096073.512	 16	 0.873371	 1.994354	 0.218031	 2.249949	 -0.708946	 -0.842822	 0.209548	 0.833356	 -0.451187	 0.240911	 2
1462096073.522	 16	 0.823709	 2.426687	 -0.171845	 2.268863	 -0.714622	 -0.850659	 0.215684	 0.834400	 -0.452119	 0.229882	 2
1462096073.532	 16	 0.947152	 1.813717	 -0.607060	 2.285709	 -0.724414	 -0.855542	 0.219145	 0.835130	 -0.454325	 0.219365	 2
1462096073.542	 16	 0.919670	 1.026373	 -0.948797	 2.296606	 -0.737182	 -0.857341	 0.219281	 0.835238	 -0.457875	 0.211293	 2
1462096073.552	 16	 0.713908	 0.543842	 -1.130544	 2.304541	 -0.750467	 -0.855164	 0.216982	 0.835345	 -0.461513	 0.205237	 2
1462096073.562	 16	 0.652710	 0.189212	 -1.070431	 2.309662	 -0.762977	 -0.851665	 0.213689	 0.835294	 -0.465057	 0.200857	 2
1462096073.572	 16	 0.852491	 -0.138749	 -0.894042	 2.309691	 -0.775239	 -0.850939	 0.210432	 0.834406	 -0.469332	 0.198022	 2
1462096073.592	 17	 1.443606	 -1.648777	 -0.467752	 2.279121	 -0.801620	 -0.866099	 0.202977	 0.827676	 -0.483231	 0.200599	 2
1462096073.602	 17	 1.051122	 -2.496614	 -0.205783	 2.248410	 -0.811312	 -0.876776	 0.197461	 0.822707	 -0.490714	 0.208236	 2
1462096073.612	 17	 0.284353	 -3.134205	 0.149859	 2.214056	 -0.813775	 -0.882818	 0.190833	 0.818257	 -0.495524	 0.220213	 2
1462096073.622	 17	 -0.203308	 -3.267689	 0.319121	 2.180604	 -0.810761	 -0.883925	 0.183774	 0.814562	 -0.497784	 0.234366	 2
1462096073.632	 17	 -0.271823	 -3.130969	 0.371081	 2.149163	 -0.806241	 -0.883562	 0.177007	 0.811092	 -0.499096	 0.248396	 2
1462096073.642	 17	 -0.083864	 -2.879416	 0.374983	 2.118849	 -0.802281	 -0.884695	 0.170975	 0.807367	 -0.500595	 0.261400	 2
1462096073.652	 17	 0.230327	 -2.539101	 0.349835	 2.089333	 -0.799942	 -0.889170	 0.166024	 0.803177	 -0.502932	 0.272767	 2
1462096073.662	 17	 0.497639	 -2.178474	 0.319957	 2.061191	 -0.799279	 -0.896933	 0.162221	 0.798669	 -0.506110	 0.282251	 2
1462096073.672	 17	 0.633162	 -1.856380	 0.203474	 2.035177	 -0.799910	 -0.906258	 0.159146	 0.794168	 -0.509730	 0.290076	 2
1462096073.682	 17	 0.675283	 -1.585642	 0.007395	 2.012147	 -0.802304	 -0.915289	 0.156132	 0.789982	 -0.513599	 0.296254	 2
1462096073.692	 17	 0.675945	 -1.289183	 -0.178492	 1.992804	 -0.806399	 -0.923314	 0.153099	 0.786321	 -0.517523	 0.300716	 2
1462096073.702	 17	 0.702641	 -0.918220	 -0.346860	 1.977296	 -0.811966	 -0.930726	 0.150317	 0.783221	 -0.521467	 0.303382	 2
1462096073.712	 17	 0.754479	 -0.627270	 -0.538573	 1.965218	 -0.819422	 -0.937895	 0.147716	 0.780603	 -0.525636	 0.304214	 2
1462096073.722	 17	 0.794267	 -0.518225	 -0.592259	 1.954405	 -0.827837	 -0.945312	 0.145204	 0.778143	 -0.529984	 0.304182	 2
1462096073.732	 17	 0.774939	 -0.575327	 -0.554254	 1.943245	 -0.836009	 -0.953043	 0.142746	 0.775633	 -0.534290	 0.304222	 2
1462096073.742	 17	 0.693036	 -0.772672	 -0.520207	 1.930593	 -0.843473	 -0.960224	 0.139842	 0.772975	 -0.538374	 0.305136	 2
1462096073.752	 17	 0.597668	 -0.877497	 -0.493708	 1.917488	 -0.850364	 -0.966408	 0.136558	 0.770346	 -0.542134	 0.306611	 2
1462096073.762	 17	 0.499801	 -1.102132	 -0.416080	 1.903078	 -0.856214	 -0.971688	 0.132849	 0.767614	 -0.545515	 0.309084	 2
1462096073.772	 17	 0.460456	 -1.356780	 -0.346701	 1.886375	 -0.861146	 -0.976674	 0.128643	 0.764568	 -0.548710	 0.312737	 2
1462096073.782	 17	 0.468333	 -1.559410	 -0.271920	 1.867072	 -0.865311	 -0.982145	 0.124101	 0.761087	 -0.551896	 0.317422	 2
1462096073.792	 17	 0.504138	 -1.712231	 -0.210774	 1.845496	 -0.868858	 -0.988492	 0.119406	 0.757177	 -0.555149	 0.322852	 2
1462096073.802	 17	 0.550507	 -1.871605	 -0.168965	 1.821564	 -0.871983	 -0.995852	 0.114515	 0.752798	 -0.558547	 0.328949	 2
1462096073.812	 17	 0.596499	 -2.097042	 -0.143753	 1.794731	 -0.874779	 -1.004159	 0.109203	 0.747841	 -0.562127	 0.335891	 2
1462096073.822	 17	 0.611125	 -2.140890	 -0.170933	 1.766664	 -0.877661	 -1.012962	 0.103620	 0.742589	 -0.565816	 0.343040	 2
1462096073.832	 17	 0.594775	 -2.195244	 -0.192611	 1.737878	 -0.880616	 -1.021860	 0.097759	 0.737146	 -0.569509	 0.350311	 2
1462096073.842	 17	 0.562492	 -2.196691	 -0.258421	 1.709434	 -0.883804	 -1.030181	 0.091618	 0.731730	 -0.573064	 0.357457	 2
1462096073.852	 17	 0.527241	 -2.126000	 -0.351243	 1.681921	 -0.887753	 -1.037940	 0.085200	 0.726455	 -0.576566	 0.364108	 2
1462096073.862	 17	 0.476126	 -2.073982	 -0.385485	 1.655614	 -0.891967	 -1.045077	 0.078735	 0.721385	 -0.579874	 0.370338	 2
1462096073.872	 17	 0.456978	 -1.748148	 -0.488862	 1.631708	 -0.896863	 -1.051891	 0.072545	 0.716751	 -0.583088	 0.375519	 2
1462096073.882	 17	 0.406436	 -1.305099	 -0.574889	 1.612733	 -0.902671	 -1.058217	 0.067243	 0.713067	 -0.586144	 0.378746	 2
1462096073.892	 17	 0.318105	 -0.988221	 -0.621262	 1.598030	 -0.908867	 -1.063387	 0.062601	 0.710246	 -0.588855	 0.380633	 2
1462096073.902	 17	 0.241031	 -0.767154	 -0.675019	 1.586735	 -0.915559	 -1.067394	 0.058344	 0.708133	 -0.591286	 0.381478	 2
1462096073.912	 17	 0.157115	 -0.682895	 -0.676702	 1.577518	 -0.922374	 -1.070224	 0.054220	 0.706463	 -0.593413	 0.381879	 2
1462096073.922	 17	 0.049587	 -0.657861	 -0.641428	 1.569880	 -0.928905	 -1.071477	 0.050092	 0.705136	 -0.595106	 0.382261	 2
1462096073.932	 17	 -0.040557	 -0.612282	 -0.552827	 1.563897	 -0.934692	 -1.071163	 0.046156	 0.704145	 -0.596288	 0.382739	 2
1462096073.942	 17	 -0.087820	 -0.555932	 -0.428263	 1.559218	 -0.939292	 -1.069911	 0.042692	 0.703392	 -0.597019	 0.383388	 2
1462096073.952	 17	 -0.099155	 -0.557275	 -0.324798	 1.554973	 -0.942744	 -1.068333	 0.039648	 0.702694	 -0.597449	 0.384322	 2
1462096073.962	 17	 -0.103856	 -0.689858	 -0.275899	 1.549805	 -0.945645	 -1.066682	 0.036495	 0.701802	 -0.597769	 0.385764	 2
1462096073.972	 17	 -0.158051	 -0.914770	 -0.218904	 1.543147	 -0.948017	 -1.064389	 0.032858	 0.700612	 -0.597880	 0.388076	 2
1462096073.982	 17	 -0.287027	 -1.180734	 -0.132863	 1.535424	 -0.949666	 -1.060194	 0.028495	 0.699212	 -0.597483	 0.391541	 2
1462096073.992	 17	 -0.462520	 -1.610095	 -0.010636	 1.526221	 -0.950291	 -1.053000	 0.023014	 0.697507	 -0.596299	 0.396715	 2
1462096074.002	 17	 -0.620743	 -1.770426	 0.109681	 1.516933	 -0.949703	 -1.042956	 0.016961	 0.695735	 -0.594276	 0.403114	 2
1462096074.012	 17	 -0.801751	 -1.742789	 0.180788	 1.510022	 -0.948544	 -1.029914	 0.010796	 0.694394	 -0.591461	 0.409725	 2
1462096074.022	 17	 -1.081172	 -1.578374	 0.299854	 1.507732	 -0.946487	 -1.012495	 0.004814	 0.693943	 -0.587494	 0.416258	 2
1462096074.032	 17	 -1.551114	 -0.914057	 0.489175	 1.516640	 -0.942963	 -0.987776	 0.000095	 0.695775	 -0.581641	 0.421416	 2
1462096074.042	 17	 -1.893728	 0.000239	 0.734068	 1.539840	 -0.937058	 -0.956274	 -0.002088	 0.700594	 -0.573834	 0.424122	 2
1462096074.052	 17	 -1.842913	 0.667212	 0.913551	 1.570555	 -0.928614	 -0.924518	 -0.001516	 0.707054	 -0.565376	 0.424762	 2
1462096074.062	 17	 -1.630767	 1.202413	 1.027523	 1.603243	 -0.918336	 -0.896895	 0.001460	 0.714035	 -0.557277	 0.423786	 2
1462096074.072	 17	 -1.515552	 1.794117	 1.120484	 1.638840	 -0.906611	 -0.872684	 0.006697	 0.721741	 -0.549406	 0.420949	 2
1462096074.082	 17	 -1.470948	 2.399412	 1.152373	 1.678671	 -0.893841	 -0.850566	 0.013914	 0.730430	 -0.541503	 0.415996	 2
1462096074.092	 17	 -1.418498	 2.929614	 1.099299	 1.722367	 -0.880930	 -0.830346	 0.022589	 0.739958	 -0.533680	 0.408825	 2
1462096074.102	 17	 -1.318602	 3.341582	 1.041514	 1.768555	 -0.868206	 -0.812489	 0.032395	 0.749954	 -0.526078	 0.399703	 2
1462096074.112	 17	 -1.101098	 3.543931	 1.019122	 1.814253	 -0.855692	 -0.798482	 0.043117	 0.759718	 -0.519009	 0.389358	 2
1462096074.122	 17	 -0.751874	 3.566581	 1.056791	 1.856214	 -0.843437	 -0.790209	 0.054687	 0.768514	 -0.512899	 0.378590	 2
1462096074.132	 17	 -0.368990	 3.449048	 1.137625	 1.892164	 -0.831418	 -0.788650	 0.067018	 0.775840	 -0.507986	 0.368145	 2
1462096074.142	 17	 -0.120545	 3.290828	 1.273604	 1.922805	 -0.819201	 -0.792271	 0.079937	 0.781870	 -0.503852	 0.358362	 2
1462096074.152	 17	 -0.046376	 3.057656	 1.416798	 1.949370	 -0.806086	 -0.798729	 0.093111	 0.786938	 -0.499840	 0.349599	 2
1462096074.162	 17	 -0.110968	 2.644688	 1.497713	 1.971953	 -0.792057	 -0.805638	 0.105654	 0.791184	 -0.495564	 0.342464	 2
1462096074.172	 17	 -0.341363	 2.229386	 1.483065	 1.991777	 -0.777298	 -0.810559	 0.116857	 0.794979	 -0.490660	 0.337053	 2
1462096074.182	 17	 -0.720050	 1.922157	 1.351349	 2.011556	 -0.762076	 -0.810839	 0.126238	 0.798984	 -0.484656	 0.332862	 2
1462096074.192	 17	 -1.118348	 1.571018	 1.169305	 2.031848	 -0.746675	 -0.805483	 0.133414	 0.803408	 -0.477466	 0.329792	 2
1462096074.202	 17	 -1.419565	 1.212160	 0.989541	 2.051506	 -0.731296	 -0.795551	 0.138440	 0.808036	 -0.469432	 0.327942	 2
1462096074.212	 17	 -1.534576	 0.958095	 0.815524	 2.069976	 -0.716643	 -0.783006	 0.141764	 0.812637	 -0.461174	 0.326869	 2
1462096074.222	 17	 -1.473385	 0.821660	 0.799867	 2.086288	 -0.702370	 -0.770929	 0.144523	 0.816857	 -0.453172	 0.326332	 2
1462096074.232	 17	 -1.292173	 0.799665	 0.773572	 2.100788	 -0.688950	 -0.760792	 0.147300	 0.820618	 -0.445823	 0.325777	 2
1462096074.242	 17	 -1.052340	 0.883697	 0.871382	 2.113667	 -0.676050	 -0.753971	 0.150831	 0.823854	 -0.439239	 0.324936	 2
1462096074.252	 17	 -0.781462	 0.957270	 1.006125	 2.124739	 -0.663287	 -0.751223	 0.155527	 0.826478	 -0.433434	 0.323854	 2
1462096074.262	 17	 -0.525626	 1.059174	 1.081581	 2.134612	 -0.651138	 -0.752042	 0.161215	 0.828580	 -0.428455	 0.322321	 2
1462096074.272	 17	 -0.289555	 1.083149	 1.109590	 2.143129	 -0.639949	 -0.755891	 0.167571	 0.830141	 -0.424361	 0.320475	 2
1462096074.282	 17	 -0.172749	 0.993171	 1.069368	 2.150250	 -0.629821	 -0.761205	 0.173929	 0.831265	 -0.420954	 0.318660	 2
1462096074.292	 17	 -0.180998	 0.695639	 0.957964	 2.155174	 -0.620583	 -0.766150	 0.179420	 0.831995	 -0.417967	 0.317643	 2
1462096074.302	 17	 -0.248946	 0.221414	 0.803870	 2.156629	 -0.612229	 -0.769452	 0.183261	 0.832257	 -0.415333	 0.318219	 2
1462096074.312	 17	 -0.267303	 -0.078056	 0.567841	 2.155734	 -0.605563	 -0.770924	 0.185412	 0.832229	 -0.413232	 0.319777	 2
1462096074.322	 17	 -0.210249	 -0.331117	 0.455216	 2.152573	 -0.600328	 -0.771788	 0.186475	 0.831830	 -0.411763	 0.322082	 2
1462096074.332	 17	 -0.090255	 -0.645564	 0.409681	 2.146112	 -0.596167	 -0.773286	 0.186848	 0.830787	 -0.411099	 0.325389	 2
1462096074.342	 17	 0.139954	 -0.967176	 0.447314	 2.135331	 -0.592956	 -0.776942	 0.186986	 0.828783	 -0.411544	 0.329828	 2
1462096074.352	 17	 0.314255	 -1.429626	 0.548069	 2.118732	 -0.589994	 -0.783117	 0.186898	 0.825530	 -0.413058	 0.336085	 2
1462096074.362	 17	 0.468715	 -2.002833	 0.621323	 2.095691	 -0.586977	 -0.791235	 0.186271	 0.820929	 -0.415513	 0.344568	 2
1462096074.372	 17	 0.533734	 -2.534288	 0.695744	 2.066337	 -0.583673	 -0.800598	 0.184876	 0.814993	 -0.418710	 0.355372	 2
1462096074.382	 17	 0.517220	 -2.899844	 0.734051	 2.033324	 -0.579627	 -0.810285	 0.182987	 0.808196	 -0.422092	 0.367659	 2
1462096074.392	 17	 0.488562	 -3.608638	 0.809768	 1.992827	 -0.574694	 -0.819721	 0.179592	 0.799783	 -0.425848	 0.383075	 2
1462096074.402	 17	 0.399995	 -3.349128	 0.772455	 1.953948	 -0.569068	 -0.827871	 0.176155	 0.791476	 -0.429010	 0.398103	 2
1462096074.412	 17	 0.313095	 -3.202250	 0.751132	 1.918031	 -0.563215	 -0.834824	 0.172894	 0.783567	 -0.431622	 0.412109	 2
1462096074.422	 17	 0.191060	 -3.229997	 0.689056	 1.883171	 -0.557259	 -0.839964	 0.169149	 0.775758	 -0.433747	 0.425971	 2
1462096074.432	 17	 0.170997	 -3.335884	 0.599787	 1.848048	 -0.551795	 -0.843997	 0.164743	 0.767727	 -0.435808	 0.439916	 2
1462096074.442	 17	 0.210503	 -3.512944	 0.546639	 1.811300	 -0.546951	 -0.847896	 0.159713	 0.759087	 -0.438140	 0.454215	 2
1462096074.452	 17	 0.236103	 -3.539404	 0.574946	 1.773670	 -0.541797	 -0.852012	 0.154636	 0.749935	 -0.440460	 0.468701	 2
1462096074.462	 17	 0.271037	 -3.406270	 0.614248	 1.737024	 -0.536463	 -0.856309	 0.149867	 0.740709	 -0.442660	 0.482642	 2
1462096074.472	 17	 0.259242	 -3.168365	 0.855295	 1.702465	 -0.529101	 -0.860694	 0.146233	 0.731631	 -0.444107	 0.496085	 2
1462096074.482	 17	 0.165975	 -2.773939	 1.086785	 1.671834	 -0.518902	 -0.864265	 0.144116	 0.723204	 -0.444252	 0.508769	 2
1462096074.492	 17	 -0.004818	 -2.396529	 1.433893	 1.646009	 -0.505837	 -0.866262	 0.143493	 0.715734	 -0.442860	 0.520585	 2
1462096074.502	 17	 -0.475458	 -2.298514	 1.852419	 1.624343	 -0.488159	 -0.863594	 0.143753	 0.709204	 -0.438662	 0.532861	 2
1462096074.512	 17	 -0.935088	 -1.995346	 2.111827	 1.607159	 -0.467159	 -0.855343	 0.144256	 0.703861	 -0.431686	 0.545360	 2
1462096074.522	 17	 -1.408539	 -1.689761	 2.112399	 1.595609	 -0.445561	 -0.841710	 0.144399	 0.700245	 -0.422581	 0.556984	 2
1462096074.532	 17	 -1.721029	 -1.554581	 2.000209	 1.587426	 -0.424914	 -0.823915	 0.143567	 0.697828	 -0.412211	 0.567897	 2
1462096074.542	 17	 -1.871359	 -1.683417	 1.920387	 1.579038	 -0.405313	 -0.804055	 0.141700	 0.695491	 -0.401411	 0.578862	 2
1462096074.552	 17	 -1.837023	 -2.017110	 1.826393	 1.567600	 -0.386718	 -0.783981	 0.138907	 0.692261	 -0.390892	 0.590494	 2
1462096074.562	 17	 -1.642072	 -2.600920	 1.627426	 1.550052	 -0.370088	 -0.765512	 0.134943	 0.687111	 -0.381687	 0.603311	 2
1462096074.572	 17	 -1.422290	 -3.344395	 1.421428	 1.524266	 -0.355873	 -0.749244	 0.129512	 0.679284	 -0.374251	 0.617848	 2
1462096074.582	 17	 -1.305464	 -4.055973	 1.318937	 1.490571	 -0.343430	 -0.734290	 0.122650	 0.668750	 -0.368072	 0.634234	 2
1462096074.592	 17	 -1.351590	 -4.611645	 1.382376	 1.450831	 -0.331210	 -0.718817	 0.114692	 0.655941	 -0.361945	 0.652366	 2
1462096074.602	 17	 -1.512097	 -4.986134	 1.450629	 1.407414	 -0.319105	 -0.701374	 0.105703	 0.641564	 -0.355151	 0.671633	 2
1462096074.612	 17	 -1.730636	 -5.085253	 1.627461	 1.362808	 -0.306562	 -0.681000	 0.096111	 0.626363	 -0.346991	 0.691397	 2
1462096074.622	 17	 -1.970438	 -4.809989	 1.648097	 1.320697	 -0.294835	 -0.657612	 0.086133	 0.611695	 -0.337535	 0.710268	 2
1462096074.632	 17	 -2.089195	 -4.165352	 1.612499	 1.284498	 -0.284727	 -0.632291	 0.076365	 0.598875	 -0.327215	 0.726944	 2
1462096074.642	 17	 -2.028831	 -3.387788	 1.645853	 1.255704	 -0.275248	 -0.606819	 0.067888	 0.588449	 -0.316416	 0.740946	 2
1462096074.652	 17	 -1.741155	 -2.630914	 1.704745	 1.233881	 -0.265105	 -0.583234	 0.061624	 0.580248	 -0.305679	 0.752379	 2
1462096074.662	 17	 -1.299513	 -2.091012	 1.826354	 1.216968	 -0.253054	 -0.563171	 0.058110	 0.573494	 -0.295474	 0.761855	 2
1462096074.672	 17	 -0.685277	 -1.613297	 1.949080	 1.203376	 -0.238049	 -0.547964	 0.057828	 0.567553	 -0.286178	 0.769832	 2
1462096074.682	 17	 0.063077	 -1.358928	 1.981167	 1.191304	 -0.220119	 -0.539298	 0.060919	 0.561724	 -0.278579	 0.776627	 2
1462096074.692	 17	 0.858170	 -1.399122	 2.039948	 1.177951	 -0.198933	 -0.537790	 0.067247	 0.554837	 -0.272993	 0.783013	 2
1462096074.702	 17	 1.510874	 -1.608445	 2.185787	 1.161606	 -0.173836	 -0.542039	 0.076414	 0.546100	 -0.268863	 0.789714	 2
1462096074.712	 17	 1.796819	 -1.965630	 2.327048	 1.141838	 -0.145789	 -0.548802	 0.087058	 0.535411	 -0.265275	 0.797110	 2
1462096074.722	 17	 1.954269	 -1.900722	 2.394490	 1.121495	 -0.116047	 -0.556092	 0.098503	 0.524013	 -0.261708	 0.804498	 2
1462096074.732	 17	 1.826281	 -1.671563	 2.409461	 1.103547	 -0.086149	 -0.562363	 0.110095	 0.513321	 -0.257777	 0.811130	 2
1462096074.742	 17	 1.481954	 -1.409597	 2.460724	 1.088597	 -0.057201	 -0.565187	 0.120839	 0.503898	 -0.252674	 0.817093	 2
1462096074.752	 17	 1.167597	 -1.409955	 2.577494	 1.074739	 -0.028939	 -0.564110	 0.130518	 0.495059	 -0.246190	 0.822965	 2
1462096074.762	 17	 1.085141	 -1.479826	 2.589285	 1.060320	 -0.000879	 -0.561234	 0.139681	 0.485997	 -0.239144	 0.828919	 2
1462096074.772	 17	 1.047974	 -1.546700	 2.446175	 1.044893	 0.025952	 -0.558057	 0.148234	 0.476565	 -0.232436	 0.834797	 2
1462096074.782	 17	 1.037839	 -1.517053	 2.277082	 1.029525	 0.051208	 -0.555263	 0.156323	 0.467213	 -0.226361	 0.840259	 2
1462096074.792	 17	 1.028190	 -1.441181	 2.175559	 1.014761	 0.075272	 -0.552565	 0.164087	 0.458161	 -0.220658	 0.845266	 2
1462096074.802	 17	 1.139321	 -1.423316	 2.190744	 1.000301	 0.099600	 -0.550222	 0.172151	 0.449085	 -0.215109	 0.849950	 2
1462096074.812	 17	 1.386260	 -1.375818	 2.240193	 0.986304	 0.125447	 -0.549085	 0.181237	 0.439811	 -0.209770	 0.854234	 2
1462096074.822	 17	 1.689558	 -1.388957	 2.310967	 0.972611	 0.153467	 -0.549729	 0.191704	 0.430101	 -0.204762	 0.858100	 2
1462096074.832	 17	 1.913985	 -1.441753	 2.454531	 0.958602	 0.183915	 -0.551359	 0.203401	 0.419692	 -0.199760	 0.861732	 2
1462096074.842	 17	 1.991450	 -1.473529	 2.650728	 0.944157	 0.216590	 -0.552407	 0.215896	 0.408689	 -0.194168	 0.865252	 2
1462096074.852	 17	 1.929664	 -1.566998	 2.790010	 0.928600	 0.250411	 -0.551766	 0.228460	 0.397075	 -0.187847	 0.868821	 2
1462096074.862	 17	 1.695066	 -1.565986	 2.834693	 0.911940	 0.283608	 -0.548561	 0.240216	 0.385250	 -0.180836	 0.872454	 2
1462096074.872	 17	 1.410671	 -1.413384	 2.789564	 0.895657	 0.314782	 -0.542544	 0.250712	 0.374159	 -0.173160	 0.875879	 2
1462096074.882	 17	 1.255698	 -1.362737	 2.670954	 0.879550	 0.343865	 -0.535036	 0.260180	 0.363617	 -0.165413	 0.879049	 2
1462096074.892	 17	 1.203637	 -1.402065	 2.506913	 0.863036	 0.371185	 -0.527442	 0.268973	 0.353163	 -0.158202	 0.881987	 2
1462096074.902	 17	 1.190862	 -1.468234	 2.324164	 0.845829	 0.396864	 -0.520331	 0.277220	 0.342583	 -0.151789	 0.884729	 2
1462096074.912	 17	 1.254902	 -1.545220	 2.148101	 0.827696	 0.420490	 -0.514133	 0.284792	 0.331776	 -0.146487	 0.887333	 2
1462096074.922	 17	 1.354682	 -1.545444	 2.011871	 0.809391	 0.442940	 -0.509103	 0.292140	 0.320898	 -0.142114	 0.889653	 2
1462096074.932	 17	 1.461359	 -1.495245	 1.938923	 0.791203	 0.463799	 -0.504768	 0.299012	 0.310208	 -0.138497	 0.891730	 2
1462096074.942	 17	 1.584496	 -1.454257	 1.947568	 0.751798	 0.435497	 -0.491244	 0.282075	 0.298820	 -0.143914	 0.900238	 2
1462096074.952	 17	 1.721779	 -1.306850	 1.943473	 0.736830	 0.459640	 -0.487948	 0.290931	 0.288948	 -0.139816	 0.901288	 2
1462096074.962	 17	 1.849772	 -1.290480	 1.906270	 0.722694	 0.485169	 -0.485469	 0.300599	 0.279114	 -0.135819	 0.901825	 2
1462096074.972	 17	 1.904899	 -1.333486	 1.864891	 0.708559	 0.511787	 -0.483532	 0.310840	 0.269022	 -0.131983	 0.901990	 2
1462096074.982	 17	 1.852164	 -1.455404	 1.898320	 0.693171	 0.538153	 -0.480907	 0.320824	 0.258500	 -0.128218	 0.902114	 2
1462096074.992	 17	 1.749963	 -1.779269	 2.077376	 0.673278	 0.564866	 -0.475568	 0.330372	 0.246342	 -0.124053	 0.902652	 2
1462096075.002	 17	 1.520058	 -1.879615	 2.080575	 0.650128	 0.590194	 -0.467470	 0.338880	 0.233423	 -0.119638	 0.903527	 2
1462096075.012	 17	 1.273574	 -1.736479	 1.918860	 0.626895	 0.612623	 -0.457977	 0.346097	 0.221200	 -0.115330	 0.904426	 2
1462096075.022	 17	 1.062895	 -1.460567	 1.747411	 0.605743	 0.632022	 -0.447937	 0.352188	 0.210530	 -0.111116	 0.905149	 2
1462096075.032	 17	 0.903558	 -1.234153	 1.664579	 0.586499	 0.649237	 -0.437216	 0.357480	 0.201230	 -0.106767	 0.905713	 2
1462096075.042	 17	 0.742765	 -1.162397	 1.667712	 0.567293	 0.664877	 -0.424970	 0.362050	 0.192513	 -0.102100	 0.906330	 2
1462096075.052	 17	 0.593113	 -1.204589	 1.655833	 0.546842	 0.679008	 -0.411195	 0.365876	 0.183790	 -0.097318	 0.907130	 2
1462096075.062	 17	 0.466235	 -1.332485	 1.568356	 0.524760	 0.691425	 -0.396774	 0.368947	 0.174746	 -0.092910	 0.908135	 2
1462096075.072	 17	 0.338984	 -1.548581	 1.491783	 0.500364	 0.702051	 -0.381975	 0.371230	 0.165014	 -0.089118	 0.909405	 2
1462096075.082	 17	 0.259405	 -1.838213	 1.414112	 0.473038	 0.711196	 -0.367030	 0.372860	 0.154208	 -0.086098	 0.910924	 2
1462096075.092	 17	 0.196905	 -2.142649	 1.355338	 0.442488	 0.719150	 -0.352017	 0.373963	 0.142124	 -0.083884	 0.912642	 2
1462096075.102	 17	 0.128859	 -2.266250	 1.297229	 0.410036	 0.725908	 -0.336910	 0.374591	 0.129349	 -0.082197	 0.914437	 2
1462096075.112	 17	 0.040432	 -2.192963	 1.247524	 0.377643	 0.731308	 -0.321661	 0.374744	 0.116789	 -0.080645	 0.916201	 2
1462096075.122	 17	 -0.032229	 -1.967430	 1.224678	 0.346946	 0.735506	 -0.306120	 0.374540	 0.105190	 -0.078804	 0.917848	 2
1462096075.132	 17	 -0.067291	 -1.714138	 1.231603	 0.318453	 0.738934	 -0.290162	 0.374180	 0.094754	 -0.076456	 0.919329	 2
1462096075.142	 17	 -0.037706	 -1.553595	 1.234971	 0.291732	 0.742184	 -0.274012	 0.373920	 0.085184	 -0.073715	 0.920594	 2
1462096075.152	 17	 0.001352	 -1.650446	 1.242255	 0.264613	 0.745515	 -0.257791	 0.373800	 0.075440	 -0.071020	 0.921704	 2
1462096075.162	 17	 0.052732	 -1.817806	 1.211475	 0.235982	 0.748915	 -0.241768	 0.373786	 0.064960	 -0.068710	 0.922683	 2
1462096075.172	 17	 0.094967	 -2.102238	 1.166896	 0.205244	 0.752325	 -0.226348	 0.373844	 0.053402	 -0.067092	 0.923519	 2
1462096075.182	 17	 0.167239	 -2.325229	 1.094960	 0.172355	 0.755864	 -0.211640	 0.374023	 0.040719	 -0.066222	 0.924155	 2
1462096075.192	 17	 0.273090	 -2.339765	 0.893540	 0.140359	 0.759774	 -0.199231	 0.374545	 0.028013	 -0.066260	 0.924414	 2
1462096075.202	 17	 0.397692	 -2.150787	 0.603260	 0.112226	 0.764239	 -0.190542	 0.375563	 0.016387	 -0.067309	 0.924204	 2
1462096075.212	 17	 0.568152	 -1.735453	 0.305096	 0.090569	 0.769811	 -0.186042	 0.377362	 0.006935	 -0.069079	 0.923460	 2
1462096075.222	 17	 0.815476	 -1.107457	 0.029556	 0.077531	 0.777376	 -0.185568	 0.380384	 0.000625	 -0.071051	 0.922095	 2
1462096075.232	 17	 1.028841	 -0.497995	 -0.175519	 0.073086	 0.787057	 -0.188446	 0.384669	 -0.002459	 -0.072887	 0.920169	 2
1462096075.242	 17	 1.120366	 -0.024540	 -0.264632	 0.075119	 0.797898	 -0.193113	 0.389704	 -0.002982	 -0.074254	 0.917937	 2
1462096075.252	 17	 1.081752	 0.208088	 -0.321814	 0.080832	 0.808615	 -0.198765	 0.394807	 -0.002035	 -0.075329	 0.915668	 2
1462096075.272	 18	 0.676115	 0.219615	 -0.362937	 0.094851	 0.824917	 -0.211438	 0.402760	 0.000937	 -0.077666	 0.912004	 2
1462096075.282	 18	 0.494407	 0.116282	 -0.312225	 0.100427	 0.829900	 -0.217016	 0.405243	 0.002059	 -0.078864	 0.910799	 2
1462096075.292	 18	 0.441552	 -0.052252	 -0.253651	 0.103749	 0.834070	 -0.221622	 0.407268	 0.002385	 -0.080097	 0.909787	 2
1462096075.302	 18	 0.488921	 -0.204369	 -0.237361	 0.105249	 0.838534	 -0.225923	 0.409352	 0.001914	 -0.081539	 0.908724	 2
1462096075.312	 18	 0.558977	 -0.301219	 -0.217557	 0.105556	 0.843676	 -0.230111	 0.411690	 0.000872	 -0.083136	 0.907524	 2
1462096075.322	 18	 0.620947	 -0.317082	 -0.179876	 0.105220	 0.849507	 -0.233923	 0.414305	 -0.000438	 -0.084656	 0.906192	 2
1462096075.332	 18	 0.639971	 -0.185834	 -0.113809	 0.105255	 0.855723	 -0.236941	 0.417104	 -0.001448	 -0.085717	 0.904806	 2
1462096075.342	 18	 0.585954	 0.018412	 0.015387	 0.105851	 0.861714	 -0.238235	 0.419821	 -0.001837	 -0.085887	 0.903532	 2
1462096075.352	 18	 0.455441	 0.281497	 0.160718	 0.107128	 0.866742	 -0.237107	 0.422134	 -0.001349	 -0.084863	 0.902552	 2
1462096075.362	 19	 0.280817	 0.525081	 0.239109	 0.109596	 0.870224	 -0.234190	 0.423800	 0.000157	 -0.082855	 0.901958	 2
1462096075.382	 19	 -0.092871	 0.709161	 0.245141	 0.117162	 0.871729	 -0.226635	 0.424768	 0.005075	 -0.077767	 0.901942	 2
1462096075.392	 19	 -0.292524	 0.690597	 0.244575	 0.120942	 0.869618	 -0.222433	 0.423953	 0.007805	 -0.075176	 0.902525	 2
1462096075.402	 19	 -0.480704	 0.601919	 0.260309	 0.123623	 0.865611	 -0.217692	 0.422232	 0.010269	 -0.072671	 0.903512	 2
1462096075.422	 20	 -0.631678	 0.217783	 0.321995	 0.122499	 0.854296	 -0.206216	 0.417038	 0.012856	 -0.068278	 0.906230	 2
1462096075.432	 20	 -0.559963	 0.011453	 0.352489	 0.118404	 0.848924	 -0.199984	 0.414438	 0.012608	 -0.066563	 0.907553	 2
1462096075.442	 20	 -0.446056	 -0.100110	 0.414405	 0.112512	 0.844656	 -0.193192	 0.412275	 0.011578	 -0.064894	 0.908671	 2
1462096075.452	 20	 -0.347338	 -0.058296	 0.500261	 0.105948	 0.841494	 -0.185461	 0.410592	 0.010356	 -0.062869	 0.909590	 2
1462096075.462	 20	 -0.258484	 0.127370	 0.618449	 0.099863	 0.839298	 -0.176291	 0.409365	 0.009580	 -0.060036	 0.910343	 2
1462096075.482	 21	 0.055228	 0.591959	 0.863034	 0.090745	 0.839220	 -0.152834	 0.408960	 0.010231	 -0.051223	 0.911056	 2
1462096075.502	 22	 0.438315	 0.987990	 0.922001	 0.088033	 0.846721	 -0.125955	 0.412140	 0.014207	 -0.039282	 0.910163	 2
1462096075.512	 22	 0.578272	 1.057465	 0.878798	 0.088945	 0.852962	 -0.113268	 0.414889	 0.017019	 -0.033121	 0.909110	 2
1462096075.532	 23	 0.643476	 0.950081	 0.764261	 0.091786	 0.867190	 -0.090225	 0.421144	 0.022662	 -0.021626	 0.906453	 2
1462096075.542	 23	 0.620496	 0.859482	 0.728448	 0.092471	 0.874167	 -0.079766	 0.424180	 0.024981	 -0.016536	 0.905082	 2
1462096075.552	 23	 0.487450	 0.973338	 0.681640	 0.094173	 0.880005	 -0.069696	 0.426695	 0.027736	 -0.011451	 0.903898	 2
1462096075.562	 23	 0.415550	 0.947514	 0.611686	 0.096679	 0.884869	 -0.060488	 0.428766	 0.030716	 -0.006617	 0.902869	 2
1462096075.572	 23	 0.356538	 0.919695	 0.565047	 0.099344	 0.889138	 -0.052016	 0.430559	 0.033640	 -0.002102	 0.901933	 2
1462096075.582	 23	 0.278450	 0.907989	 0.532580	 0.102177	 0.892664	 -0.043944	 0.432005	 0.036581	 0.002246	 0.901126	 2
1462096075.592	 23	 0.154360	 0.873011	 0.499230	 0.104997	 0.895059	 -0.036196	 0.432929	 0.039479	 0.006412	 0.900540	 2
1462096075.602	 23	 0.023252	 0.723053	 0.447820	 0.107036	 0.896084	 -0.028940	 0.433234	 0.041948	 0.010148	 0.900248	 2
