% Gyrometer data recorded with 'snsrlog'
% 
% 
% Label description:
% 	 0: Default Label
% 	 1: still_drop
% 	 2: walk_drop
% 	 3: other
% 	 4: dtw_same
% 	 5: dtw_diff
% 	 6: delete
% 
% Column description:
% 	 1: Seconds.milliseconds since 1970
% 	 2: Number of skipped measurements
% 	 3: Gyro X
% 	 4: Gyro Y
% 	 5: Gyro Z
% 	 6: Roll of the device
% 	 7: Pitch of the device
% 	 8: Yaw of the device
% 	 9: Quaternion X
% 	 10: Quaternion Y
% 	 11: Quaternion Z
% 	 12: Quaternion W
% 	 13: Label used for the current sample
% 
% 
1462074311.643	 0	 -0.267655	 0.283351	 -0.498811	 -0.092978	 0.462056	 -0.027781	 0.228080	 -0.048410	 -0.024146	 0.972138	 2
1462074311.653	 0	 -0.193041	 0.367163	 -0.351605	 -0.087617	 0.460455	 -0.032371	 0.227260	 -0.046323	 -0.025735	 0.972391	 2
1462074311.663	 0	 -0.193904	 0.349608	 -0.279289	 -0.082440	 0.458744	 -0.035635	 0.226422	 -0.044170	 -0.026703	 0.972661	 2
1462074311.673	 0	 -0.247192	 0.266588	 -0.162364	 -0.078504	 0.456627	 -0.038135	 0.225391	 -0.042528	 -0.027437	 0.972953	 2
1462074311.683	 0	 -0.363653	 0.343031	 0.038565	 -0.065533	 0.443756	 -0.042747	 0.219211	 -0.036651	 -0.028044	 0.974586	 2
1462074311.693	 0	 -0.484210	 0.638360	 0.234200	 -0.060723	 0.439095	 -0.041015	 0.217034	 -0.034086	 -0.026615	 0.975206	 2
1462074311.703	 0	 -0.586541	 0.977022	 0.399173	 -0.053302	 0.433280	 -0.037406	 0.214349	 -0.030039	 -0.023985	 0.976001	 2
1462074311.723	 1	 -0.733596	 1.480321	 0.661985	 -0.031966	 0.419135	 -0.025535	 0.207794	 -0.018287	 -0.015811	 0.977874	 2
1462074311.733	 1	 -0.789704	 1.729994	 0.747927	 -0.018448	 0.411198	 -0.017780	 0.204057	 -0.010844	 -0.010585	 0.978842	 2
1462074311.753	 2	 -0.714049	 1.916078	 0.771379	 0.013103	 0.395193	 -0.000957	 0.196312	 0.006330	 0.000817	 0.980521	 2
1462074311.763	 2	 -0.634624	 1.640738	 0.675404	 0.027544	 0.388866	 0.006803	 0.193145	 0.014169	 0.005998	 0.981050	 2
1462074311.783	 3	 -0.413498	 1.056106	 0.080803	 0.048844	 0.378432	 0.015002	 0.187848	 0.025394	 0.011958	 0.981797	 2
1462074311.793	 3	 -0.225520	 0.859164	 -0.453415	 0.059087	 0.375541	 0.011782	 0.186414	 0.030119	 0.011299	 0.981945	 2
1462074311.803	 3	 -0.026035	 0.642786	 -1.023086	 0.069452	 0.374200	 0.002331	 0.185858	 0.034330	 0.007603	 0.981947	 2
1462074311.813	 3	 0.117387	 0.786716	 -1.357644	 0.081740	 0.374099	 -0.011560	 0.186034	 0.039071	 0.001924	 0.981764	 2
1462074311.823	 3	 0.238544	 1.046796	 -1.524670	 0.097544	 0.374806	 -0.027702	 0.186732	 0.045317	 -0.004510	 0.981355	 2
1462074311.833	 3	 0.401317	 1.230825	 -1.602175	 0.115751	 0.376676	 -0.045070	 0.188146	 0.052594	 -0.011271	 0.980667	 2
1462074311.843	 3	 0.594684	 1.515181	 -1.619331	 0.136735	 0.380056	 -0.063081	 0.190467	 0.061108	 -0.017998	 0.979625	 2
1462074311.853	 3	 0.807802	 1.898531	 -1.617619	 0.161632	 0.385101	 -0.081521	 0.193809	 0.071398	 -0.024430	 0.978133	 2
1462074311.863	 3	 1.030483	 2.295488	 -1.642508	 0.190890	 0.391829	 -0.100768	 0.198239	 0.083599	 -0.030646	 0.976101	 2
1462074311.873	 3	 1.221090	 2.662905	 -1.647143	 0.224365	 0.399952	 -0.120891	 0.203664	 0.097592	 -0.036636	 0.973475	 2
1462074311.883	 3	 1.314904	 3.037511	 -1.579463	 0.261738	 0.408716	 -0.141184	 0.209715	 0.113271	 -0.042058	 0.970268	 2
1462074311.893	 3	 1.260791	 3.456528	 -1.461056	 0.303121	 0.416905	 -0.160717	 0.215771	 0.130814	 -0.046490	 0.966524	 2
1462074311.903	 3	 1.116207	 3.766747	 -1.421740	 0.347777	 0.423278	 -0.179537	 0.221226	 0.149925	 -0.050129	 0.962325	 2
1462074311.913	 3	 0.986400	 3.935496	 -1.524550	 0.394743	 0.427337	 -0.198828	 0.225923	 0.170050	 -0.053735	 0.957682	 2
1462074311.923	 3	 0.914841	 4.084281	 -1.716511	 0.443804	 0.429034	 -0.219675	 0.229977	 0.190983	 -0.057909	 0.952514	 2
1462074311.933	 3	 0.924553	 4.322764	 -1.973357	 0.496077	 0.428578	 -0.242901	 0.233689	 0.213146	 -0.062936	 0.946571	 2
1462074311.943	 3	 1.026932	 4.545893	 -2.256731	 0.551871	 0.426247	 -0.269167	 0.237401	 0.236568	 -0.069075	 0.939630	 2
1462074311.953	 3	 1.260769	 4.763719	 -2.484813	 0.611114	 0.422835	 -0.298720	 0.241665	 0.261072	 -0.076329	 0.931458	 2
1462074311.963	 3	 1.615889	 5.004595	 -2.565596	 0.673749	 0.419692	 -0.331110	 0.247190	 0.286468	 -0.084212	 0.921814	 2
1462074311.973	 3	 2.051739	 5.297105	 -2.533630	 0.740200	 0.417906	 -0.366116	 0.254572	 0.312725	 -0.092242	 0.910433	 2
1462074311.983	 3	 2.425748	 5.574078	 -2.469298	 0.810386	 0.417261	 -0.403458	 0.263759	 0.339689	 -0.100156	 0.897224	 2
1462074311.993	 3	 2.536795	 5.805682	 -2.460649	 0.883483	 0.415607	 -0.441966	 0.273662	 0.367265	 -0.107830	 0.882382	 2
1462074312.003	 3	 2.374244	 5.797102	 -2.536048	 0.956821	 0.410303	 -0.479647	 0.282727	 0.394860	 -0.115341	 0.866515	 2
1462074312.013	 3	 2.056937	 5.552911	 -2.603767	 1.026820	 0.400356	 -0.514588	 0.289991	 0.421423	 -0.122784	 0.850431	 2
1462074312.023	 3	 1.621485	 5.180097	 -2.708955	 1.091357	 0.385526	 -0.545118	 0.294831	 0.446500	 -0.130086	 0.834739	 2
1462074312.033	 3	 1.159514	 4.721354	 -2.940472	 1.149188	 0.365188	 -0.570872	 0.296745	 0.469916	 -0.137734	 0.819848	 2
1462074312.043	 3	 0.781326	 4.410983	 -3.211836	 1.201254	 0.339530	 -0.592302	 0.295879	 0.492109	 -0.145975	 0.805590	 2
1462074312.053	 3	 0.550830	 4.423451	 -3.492141	 1.251085	 0.309356	 -0.610410	 0.292965	 0.514281	 -0.154642	 0.791058	 2
1462074312.063	 3	 0.485099	 4.527943	 -3.776220	 1.300791	 0.275329	 -0.626571	 0.288740	 0.536921	 -0.163899	 0.775553	 2
1462074312.073	 3	 0.502276	 4.525087	 -4.016193	 1.349938	 0.238134	 -0.641487	 0.283620	 0.559569	 -0.173958	 0.759066	 2
1462074312.083	 3	 0.507065	 4.332334	 -4.193879	 1.396771	 0.198404	 -0.654910	 0.277610	 0.581426	 -0.184826	 0.742102	 2
1462074312.093	 3	 0.469805	 3.963877	 -4.270521	 1.439457	 0.157056	 -0.666310	 0.270653	 0.601724	 -0.196293	 0.725358	 2
1462074312.103	 3	 0.387401	 3.425193	 -4.225791	 1.476373	 0.115366	 -0.675245	 0.262776	 0.619775	 -0.208005	 0.709621	 2
1462074312.113	 3	 0.235447	 2.769329	 -4.087759	 1.506315	 0.074458	 -0.681315	 0.253946	 0.635124	 -0.219579	 0.695639	 2
1462074312.123	 3	 -0.000531	 2.135316	 -3.904030	 1.529332	 0.035052	 -0.684027	 0.244064	 0.647858	 -0.230551	 0.683783	 2
1462074312.133	 3	 -0.269905	 1.677811	 -3.740748	 1.547124	 -0.002771	 -0.683216	 0.233128	 0.658647	 -0.240582	 0.673762	 2
1462074312.143	 3	 -0.487318	 1.421848	 -3.631464	 1.561944	 -0.039376	 -0.679427	 0.221346	 0.668269	 -0.249681	 0.664893	 2
1462074312.153	 3	 -0.614426	 1.371396	 -3.599919	 1.575987	 -0.075401	 -0.673591	 0.209024	 0.677419	 -0.258120	 0.656343	 2
1462074312.163	 3	 -0.606689	 1.460436	 -3.638591	 1.590973	 -0.111583	 -0.666932	 0.196529	 0.686587	 -0.266379	 0.647316	 2
1462074312.173	 3	 -0.465394	 1.520906	 -3.603023	 1.606871	 -0.147655	 -0.660779	 0.184420	 0.695576	 -0.274823	 0.637680	 2
1462074312.183	 3	 -0.234065	 1.480594	 -3.348563	 1.622563	 -0.181692	 -0.656292	 0.173615	 0.703778	 -0.283281	 0.627938	 2
1462074312.193	 3	 -0.000131	 1.275743	 -3.048764	 1.636431	 -0.212863	 -0.653799	 0.164293	 0.710677	 -0.291678	 0.618765	 2
1462074312.203	 3	 0.247994	 0.914482	 -2.751610	 1.646590	 -0.241132	 -0.653743	 0.156335	 0.715769	 -0.300227	 0.610818	 2
1462074312.213	 3	 0.344528	 0.425089	 -2.584351	 1.651765	 -0.267475	 -0.655000	 0.148781	 0.718934	 -0.308934	 0.604613	 2
1462074312.223	 3	 0.317376	 0.002683	 -2.469746	 1.652398	 -0.292645	 -0.656321	 0.140943	 0.720526	 -0.317578	 0.600101	 2
1462074312.233	 3	 0.213970	 -0.294010	 -2.357569	 1.649983	 -0.316596	 -0.656838	 0.132712	 0.721092	 -0.325735	 0.596917	 2
1462074312.243	 3	 0.103364	 -0.477363	 -2.312485	 1.645736	 -0.339796	 -0.656328	 0.124021	 0.721050	 -0.333390	 0.594606	 2
1462074312.253	 3	 -0.006856	 -0.492350	 -2.370281	 1.641298	 -0.363237	 -0.654728	 0.114773	 0.720937	 -0.340732	 0.592434	 2
1462074312.263	 3	 -0.108119	 -0.397991	 -2.452717	 1.638063	 -0.387467	 -0.652021	 0.105018	 0.721171	 -0.347855	 0.589814	 2
1462074312.273	 3	 -0.175095	 -0.349878	 -2.445292	 1.635853	 -0.411858	 -0.648518	 0.095062	 0.721630	 -0.354677	 0.586871	 2
1462074312.283	 3	 -0.220542	 -0.376361	 -2.302330	 1.633812	 -0.435149	 -0.644595	 0.085329	 0.721991	 -0.360962	 0.584084	 2
1462074312.293	 3	 -0.272047	 -0.458087	 -2.006360	 1.631309	 -0.455850	 -0.640305	 0.076238	 0.722037	 -0.366297	 0.581959	 2
1462074312.303	 3	 -0.310466	 -0.602614	 -1.565079	 1.627694	 -0.472470	 -0.635818	 0.068249	 0.721568	 -0.370299	 0.580999	 2
1462074312.313	 3	 -0.314795	 -0.830654	 -1.039611	 1.621977	 -0.484023	 -0.631551	 0.061671	 0.720304	 -0.372823	 0.581689	 2
1462074312.323	 3	 -0.282015	 -1.095095	 -0.531857	 1.613407	 -0.490408	 -0.627896	 0.056551	 0.718046	 -0.373977	 0.584254	 2
1462074312.333	 3	 -0.216468	 -1.357038	 -0.106429	 1.601783	 -0.492393	 -0.625127	 0.052696	 0.714754	 -0.374091	 0.588562	 2
1462074312.343	 3	 -0.125606	 -1.578471	 0.195528	 1.587312	 -0.491061	 -0.623469	 0.049866	 0.710489	 -0.373566	 0.594278	 2
1462074312.353	 3	 -0.028724	 -1.748946	 0.340173	 1.570505	 -0.487915	 -0.622894	 0.047632	 0.705409	 -0.372855	 0.600922	 2
1462074312.363	 3	 0.092365	 -1.892689	 0.367622	 1.551625	 -0.484259	 -0.623520	 0.045629	 0.699596	 -0.372392	 0.608118	 2
1462074312.373	 3	 0.298028	 -1.976087	 0.390634	 1.530837	 -0.480371	 -0.626069	 0.044033	 0.693071	 -0.372489	 0.615602	 2
1462074312.383	 3	 0.633455	 -1.961697	 0.457122	 1.508426	 -0.475714	 -0.631935	 0.043554	 0.685856	 -0.373438	 0.623096	 2
1462074312.393	 3	 1.061163	 -1.865463	 0.553409	 1.484850	 -0.469746	 -0.642114	 0.044778	 0.678029	 -0.375434	 0.630334	 2
1462074312.403	 3	 1.551193	 -1.681115	 0.652105	 1.460694	 -0.462092	 -0.657328	 0.048155	 0.669704	 -0.378655	 0.637023	 2
1462074312.413	 3	 2.002036	 -1.424405	 0.740093	 1.436956	 -0.452649	 -0.677309	 0.053769	 0.661141	 -0.383037	 0.642872	 2
1462074312.423	 3	 2.310343	 -1.136458	 0.859532	 1.414777	 -0.441246	 -0.700623	 0.061389	 0.652671	 -0.388098	 0.647790	 2
1462074312.433	 3	 2.400122	 -0.828902	 1.066238	 1.395554	 -0.427345	 -0.724799	 0.070669	 0.644726	 -0.392877	 0.651906	 2
1462074312.443	 3	 2.254574	 -0.469104	 1.341557	 1.380851	 -0.410670	 -0.747049	 0.081151	 0.637857	 -0.396318	 0.655351	 2
1462074312.453	 3	 1.975210	 -0.147639	 1.556936	 1.371353	 -0.391845	 -0.765735	 0.092261	 0.632404	 -0.397958	 0.658166	 2
1462074312.463	 3	 1.632549	 0.052311	 1.563912	 1.365920	 -0.372969	 -0.780459	 0.102897	 0.628238	 -0.398175	 0.660444	 2
1462074312.473	 3	 1.383119	 0.219120	 1.438678	 1.363524	 -0.355602	 -0.792274	 0.112625	 0.625186	 -0.397704	 0.662035	 2
1462074312.483	 3	 1.179851	 0.271520	 1.249099	 1.362756	 -0.340352	 -0.802244	 0.121280	 0.622851	 -0.397089	 0.663075	 2
1462074312.493	 3	 1.003140	 0.316241	 1.037901	 1.363040	 -0.327530	 -0.810658	 0.128733	 0.621110	 -0.396524	 0.663641	 2
1462074312.503	 3	 0.835016	 0.376844	 0.820382	 1.364226	 -0.317097	 -0.817863	 0.135083	 0.619930	 -0.396114	 0.663727	 2
1462074312.513	 3	 0.336831	 0.689708	 0.495113	 1.369080	 -0.310399	 -0.821690	 0.139715	 0.620557	 -0.395296	 0.662669	 2
1462074312.523	 3	 -0.486593	 1.069356	 0.154113	 1.379811	 -0.308646	 -0.818356	 0.141440	 0.624153	 -0.392977	 0.660301	 2
1462074312.533	 3	 -1.054168	 1.503475	 -0.052189	 1.396559	 -0.310443	 -0.808653	 0.141009	 0.630540	 -0.389079	 0.656622	 2
1462074312.543	 3	 -0.963102	 1.786118	 0.239535	 1.417447	 -0.310979	 -0.797722	 0.141384	 0.638200	 -0.384174	 0.652014	 2
1462074312.553	 3	 -0.285452	 1.587652	 1.011926	 1.435882	 -0.303611	 -0.791601	 0.145620	 0.643908	 -0.378829	 0.648588	 2
1462074312.563	 3	 0.441376	 1.306067	 1.636040	 1.448995	 -0.288343	 -0.792417	 0.153869	 0.646593	 -0.373837	 0.646906	 2
1462074312.573	 3	 0.832268	 1.506721	 1.743212	 1.461954	 -0.270108	 -0.798130	 0.164669	 0.648490	 -0.369480	 0.644848	 2
1462074312.583	 3	 0.910460	 1.694716	 1.591876	 1.476457	 -0.252950	 -0.805759	 0.175917	 0.650732	 -0.365774	 0.641725	 2
1462074312.593	 3	 0.838714	 1.838946	 1.358310	 1.492657	 -0.238069	 -0.813371	 0.186593	 0.653647	 -0.362417	 0.637639	 2
1462074312.603	 3	 0.665606	 1.851695	 1.286398	 1.509874	 -0.224761	 -0.819752	 0.196433	 0.657067	 -0.358880	 0.633152	 2
1462074312.613	 3	 0.549385	 1.708805	 1.482180	 1.526187	 -0.210240	 -0.824826	 0.206030	 0.660110	 -0.354516	 0.629385	 2
1462074312.623	 3	 0.486602	 1.590159	 1.669197	 1.541487	 -0.193763	 -0.829351	 0.215855	 0.662592	 -0.349355	 0.626362	 2
1462074312.633	 3	 0.443780	 1.572112	 1.656613	 1.556467	 -0.176914	 -0.833596	 0.225565	 0.664882	 -0.343886	 0.623534	 2
1462074312.643	 3	 0.208243	 1.586184	 1.448840	 1.571809	 -0.161732	 -0.836287	 0.234166	 0.667582	 -0.338272	 0.620542	 2
1462074312.653	 3	 0.436580	 1.600384	 1.152833	 1.587201	 -0.149592	 -0.839710	 0.241926	 0.670509	 -0.333708	 0.616870	 2
1462074312.663	 3	 1.139013	 1.696824	 1.095392	 1.602437	 -0.138883	 -0.849661	 0.251317	 0.672685	 -0.331511	 0.611911	 2
1462074312.673	 3	 1.459372	 1.969207	 1.091940	 1.619343	 -0.128495	 -0.864567	 0.262506	 0.674651	 -0.330576	 0.605521	 2
1462074312.683	 3	 1.042578	 2.238066	 0.891313	 1.639679	 -0.119525	 -0.876779	 0.272858	 0.678025	 -0.328657	 0.598177	 2
1462074312.693	 3	 0.935676	 2.091811	 0.480565	 1.660175	 -0.114608	 -0.886537	 0.281087	 0.682149	 -0.327129	 0.590465	 2
1462074312.703	 3	 1.165168	 1.734102	 0.380385	 1.677023	 -0.111843	 -0.898002	 0.288624	 0.685112	 -0.327194	 0.583320	 2
1462074312.713	 3	 1.248381	 1.506039	 0.645045	 1.691149	 -0.107660	 -0.910905	 0.296650	 0.686791	 -0.327503	 0.577112	 2
1462074312.723	 3	 1.683472	 1.262545	 1.123912	 1.702732	 -0.099748	 -0.927516	 0.306660	 0.686592	 -0.327931	 0.571850	 2
1462074312.733	 3	 2.595312	 0.881299	 1.426825	 1.710217	 -0.089197	 -0.952794	 0.319724	 0.683363	 -0.330491	 0.567069	 2
1462074312.743	 3	 3.205809	 0.497384	 1.093946	 1.713296	 -0.081576	 -0.985315	 0.333571	 0.677867	 -0.336673	 0.562030	 2
1462074312.753	 3	 3.011682	 0.378431	 0.452940	 1.714751	 -0.079884	 -1.017083	 0.345043	 0.672641	 -0.344760	 0.556453	 2
1462074312.763	 3	 2.248265	 0.128446	 -0.153421	 1.714929	 -0.083535	 -1.041421	 0.352170	 0.668986	 -0.352647	 0.551429	 2
1462074312.773	 3	 1.603970	 -0.366205	 -0.570193	 1.711071	 -0.090759	 -1.058060	 0.354931	 0.666066	 -0.360211	 0.548296	 2
1462074312.783	 3	 1.322587	 -0.516250	 -0.840909	 1.704741	 -0.100332	 -1.070595	 0.355151	 0.663554	 -0.367794	 0.546160	 2
1462074312.793	 3	 1.440827	 -0.246155	 -0.948133	 1.700135	 -0.111432	 -1.083214	 0.355227	 0.661742	 -0.375528	 0.543038	 2
1462074312.803	 3	 1.762713	 0.082947	 -0.903111	 1.698367	 -0.122681	 -1.098748	 0.356728	 0.660212	 -0.383534	 0.538301	 2
1462074312.813	 3	 2.026581	 0.302896	 -0.826627	 1.698505	 -0.133574	 -1.117439	 0.359726	 0.658567	 -0.391861	 0.532289	 2
1462074312.823	 3	 1.839781	 0.480344	 -0.779653	 1.700376	 -0.143854	 -1.135632	 0.363076	 0.657356	 -0.399466	 0.525819	 2
1462074312.833	 3	 1.198940	 0.613935	 -0.803737	 1.704370	 -0.153471	 -1.148345	 0.365254	 0.657568	 -0.404969	 0.519802	 2
1462074312.843	 3	 0.521435	 0.496143	 -0.893787	 1.708930	 -0.163013	 -1.154066	 0.365287	 0.659166	 -0.408488	 0.514979	 2
1462074312.853	 3	 -0.134911	 0.171446	 -1.053089	 1.711680	 -0.173082	 -1.152910	 0.362536	 0.661610	 -0.410713	 0.512011	 2
1462074312.863	 3	 -0.772927	 -0.306746	 -1.251282	 1.711364	 -0.184046	 -1.145015	 0.356647	 0.664584	 -0.412037	 0.511230	 2
1462074312.883	 4	 -1.977382	 -1.550567	 -2.094321	 1.697355	 -0.214629	 -1.108967	 0.332630	 0.671580	 -0.414338	 0.516393	 2
1462074312.893	 4	 -2.410210	 -2.256260	 -2.487188	 1.682397	 -0.235657	 -1.082488	 0.314232	 0.674836	 -0.416143	 0.522187	 2
1462074312.903	 4	 -2.600119	 -2.683229	 -2.774066	 1.663566	 -0.259988	 -1.053270	 0.292892	 0.677478	 -0.418523	 0.529223	 2
1462074312.913	 4	 -2.467688	 -2.765510	 -2.919863	 1.643638	 -0.286717	 -1.024692	 0.270563	 0.679484	 -0.421563	 0.536080	 2
1462074312.923	 4	 -1.996308	 -2.584139	 -2.945726	 1.624383	 -0.314751	 -1.000472	 0.249210	 0.680705	 -0.425680	 0.541601	 2
1462074312.933	 4	 -1.309808	 -2.340059	 -2.890815	 1.605904	 -0.343139	 -0.983428	 0.230137	 0.680855	 -0.431398	 0.545315	 2
1462074312.943	 4	 -0.630074	 -2.182032	 -2.824923	 1.586974	 -0.371320	 -0.974176	 0.213486	 0.679677	 -0.438912	 0.547557	 2
1462074312.953	 4	 -0.111900	 -2.093886	 -2.780655	 1.566836	 -0.399193	 -0.971529	 0.198714	 0.677265	 -0.447959	 0.548778	 2
1462074312.963	 4	 0.184314	 -2.018780	 -2.717524	 1.545775	 -0.426543	 -0.973331	 0.185206	 0.674025	 -0.457849	 0.549329	 2
1462074312.973	 4	 0.249859	 -2.054012	 -2.562821	 1.523844	 -0.452510	 -0.977086	 0.172416	 0.670199	 -0.467660	 0.549909	 2
1462074312.983	 4	 0.157690	 -2.418254	 -2.227561	 1.499193	 -0.475616	 -0.980690	 0.159722	 0.665348	 -0.476596	 0.551957	 2
1462074312.993	 4	 -0.083494	 -2.772921	 -1.805654	 1.471368	 -0.494716	 -0.982398	 0.146851	 0.659358	 -0.483935	 0.556317	 2
1462074313.003	 4	 -0.529589	 -2.623308	 -1.448676	 1.445462	 -0.510269	 -0.979757	 0.134123	 0.653812	 -0.488764	 0.561828	 2
1462074313.013	 4	 -1.181977	 -1.852936	 -1.375079	 1.429655	 -0.525350	 -0.970321	 0.121731	 0.651406	 -0.490675	 0.565764	 2
1462074313.023	 4	 -1.791435	 -0.927235	 -1.425104	 1.426406	 -0.541599	 -0.953695	 0.109613	 0.652945	 -0.489956	 0.567091	 2
1462074313.033	 4	 -2.119509	 0.044459	 -1.618898	 1.435650	 -0.559942	 -0.932344	 0.098196	 0.658238	 -0.487736	 0.564972	 2
1462074313.043	 4	 -2.140013	 0.909332	 -1.898427	 1.454820	 -0.580751	 -0.909724	 0.087800	 0.666272	 -0.485427	 0.559226	 2
1462074313.053	 4	 -1.960315	 1.691648	 -2.187928	 1.481932	 -0.603874	 -0.888183	 0.078764	 0.676218	 -0.483909	 0.549871	 2
1462074313.063	 4	 -1.671878	 2.193121	 -2.440490	 1.513892	 -0.628889	 -0.868946	 0.070939	 0.687002	 -0.483645	 0.537665	 2
1462074313.073	 4	 -1.357156	 2.601003	 -2.681363	 1.548830	 -0.655658	 -0.852314	 0.064096	 0.697988	 -0.484783	 0.523154	 2
1462074313.083	 4	 -1.000372	 2.849455	 -2.889982	 1.585585	 -0.684129	 -0.838481	 0.058123	 0.708768	 -0.487393	 0.506673	 2
1462074313.093	 4	 -0.494793	 2.145725	 -2.926510	 1.615600	 -0.713256	 -0.829049	 0.051945	 0.717103	 -0.491787	 0.491132	 2
1462074313.103	 4	 0.147419	 0.778727	 -2.702894	 1.628091	 -0.740920	 -0.826970	 0.044702	 0.720505	 -0.498197	 0.480285	 2
1462074313.113	 4	 0.575136	 0.265823	 -2.417241	 1.628070	 -0.765987	 -0.831712	 0.037731	 0.720558	 -0.505807	 0.472791	 2
1462074313.123	 4	 0.697334	 0.456084	 -2.238552	 1.626522	 -0.789105	 -0.839481	 0.032128	 0.720129	 -0.513541	 0.465464	 2
1462074313.133	 4	 0.637100	 0.719737	 -2.133261	 1.627535	 -0.810991	 -0.847215	 0.027590	 0.720256	 -0.520795	 0.457431	 2
1462074313.143	 4	 0.506367	 1.157297	 -1.982041	 1.633219	 -0.831585	 -0.853349	 0.024159	 0.721408	 -0.527208	 0.448373	 2
1462074313.153	 4	 0.316327	 1.608512	 -1.732129	 1.645544	 -0.849819	 -0.857058	 0.022467	 0.723977	 -0.532369	 0.438104	 2
1462074313.163	 4	 0.026109	 1.812629	 -1.422894	 1.663558	 -0.864864	 -0.856731	 0.021990	 0.727711	 -0.535800	 0.427636	 2
1462074313.173	 4	 -0.346110	 1.779153	 -1.056540	 1.685915	 -0.876081	 -0.851075	 0.022096	 0.732310	 -0.537141	 0.417987	 2
1462074313.183	 4	 -0.819240	 1.559297	 -0.618570	 1.711557	 -0.882428	 -0.838821	 0.022327	 0.737608	 -0.535920	 0.410153	 2
1462074313.193	 4	 -1.332751	 1.407359	 -0.217983	 1.740938	 -0.883633	 -0.819294	 0.022535	 0.743772	 -0.531927	 0.404165	 2
1462074313.203	 4	 -1.803736	 1.582780	 0.021152	 1.776353	 -0.880734	 -0.793098	 0.023062	 0.751289	 -0.525491	 0.398612	 2
1462074313.223	 5	 -2.042458	 2.008685	 0.134836	 1.861167	 -0.868342	 -0.731966	 0.025725	 0.769304	 -0.508956	 0.385322	 2
1462074313.233	 5	 -1.729351	 1.952826	 0.038868	 1.901006	 -0.862103	 -0.705601	 0.027527	 0.777661	 -0.501522	 0.378101	 2
1462074313.243	 5	 -1.284408	 1.662814	 -0.172331	 1.934321	 -0.858438	 -0.684789	 0.028820	 0.784457	 -0.496022	 0.371158	 2
1462074313.253	 5	 -0.844124	 1.044332	 -0.359902	 1.958078	 -0.857921	 -0.669502	 0.028833	 0.789094	 -0.492700	 0.365713	 2
1462074313.263	 5	 -0.536380	 0.309861	 -0.462137	 1.971350	 -0.859690	 -0.658411	 0.027193	 0.791523	 -0.491060	 0.362784	 2
1462074313.273	 5	 -0.438401	 -0.386243	 -0.491848	 1.976312	 -0.862406	 -0.649128	 0.023938	 0.792312	 -0.490188	 0.362470	 2
1462074313.283	 5	 -0.499211	 -0.979197	 -0.588492	 1.975514	 -0.865612	 -0.639026	 0.018804	 0.791997	 -0.489397	 0.364525	 2
1462074313.293	 5	 -0.688448	 -1.271027	 -0.866658	 1.973870	 -0.870357	 -0.625235	 0.011557	 0.791378	 -0.488422	 0.367466	 2
1462074313.303	 5	 -0.926098	 -1.351642	 -1.225567	 1.975311	 -0.877383	 -0.605877	 0.002203	 0.791059	 -0.487131	 0.370032	 2
1462074313.313	 5	 -1.088310	 -1.304602	 -1.550906	 1.980918	 -0.886741	 -0.581437	 -0.008812	 0.791142	 -0.485668	 0.371675	 2
1462074313.323	 5	 -1.081902	 -1.106367	 -1.785716	 1.990366	 -0.898162	 -0.554341	 -0.020522	 0.791507	 -0.484465	 0.372007	 2
1462074313.333	 5	 -0.928974	 -0.846822	 -2.013772	 2.002840	 -0.911956	 -0.526948	 -0.032260	 0.791916	 -0.484131	 0.370735	 2
1462074313.343	 5	 -0.713839	 -0.639619	 -2.101109	 2.016835	 -0.927675	 -0.500667	 -0.043678	 0.792114	 -0.484816	 0.368240	 2
1462074313.353	 5	 -0.374968	 -0.350972	 -1.761395	 2.029319	 -0.942536	 -0.479796	 -0.053016	 0.791999	 -0.486314	 0.365274	 2
1462074313.363	 5	 0.010375	 -0.004631	 -1.074111	 2.037277	 -0.953403	 -0.468820	 -0.058391	 0.791689	 -0.488228	 0.362563	 2
1462074313.373	 5	 0.319857	 0.424900	 -0.239383	 2.040167	 -0.958570	 -0.469200	 -0.058938	 0.791518	 -0.490137	 0.360267	 2
1462074313.383	 5	 0.429612	 0.641876	 0.537556	 2.038708	 -0.957303	 -0.478433	 -0.055296	 0.791692	 -0.491325	 0.358840	 2
1462074313.393	 5	 0.289852	 0.455539	 1.039013	 2.033731	 -0.950461	 -0.491025	 -0.049664	 0.792043	 -0.491142	 0.359139	 2
1462074313.403	 5	 -0.023190	 0.065808	 1.143622	 2.027598	 -0.940538	 -0.500528	 -0.044673	 0.792452	 -0.489362	 0.361315	 2
1462074313.413	 5	 -0.315523	 -0.088117	 1.072270	 2.023378	 -0.929596	 -0.504867	 -0.040958	 0.793162	 -0.486371	 0.364224	 2
1462074313.423	 5	 -0.468834	 0.129159	 0.905105	 2.023652	 -0.919108	 -0.505218	 -0.037847	 0.794517	 -0.482898	 0.366225	 2
1462074313.433	 5	 -0.498880	 0.526320	 0.659674	 2.029535	 -0.910407	 -0.503124	 -0.034857	 0.796619	 -0.479667	 0.366199	 2
1462074313.443	 5	 -0.415566	 0.993181	 0.391524	 2.040726	 -0.904336	 -0.499992	 -0.031760	 0.799350	 -0.477206	 0.363737	 2
1462074313.453	 5	 -0.210181	 1.523707	 0.151678	 2.056419	 -0.901249	 -0.497673	 -0.028108	 0.802529	 -0.475959	 0.358637	 2
1462074313.463	 5	 0.103139	 2.056299	 -0.052852	 2.075475	 -0.901382	 -0.497929	 -0.023504	 0.805896	 -0.476296	 0.350886	 2
1462074313.473	 5	 0.470569	 2.506966	 -0.239432	 2.096557	 -0.904928	 -0.501696	 -0.017895	 0.809131	 -0.478405	 0.340757	 2
1462074313.483	 5	 0.824054	 2.726778	 -0.438696	 2.117871	 -0.912031	 -0.508774	 -0.011774	 0.811835	 -0.482242	 0.328980	 2
1462074313.493	 5	 1.101255	 2.641302	 -0.673175	 2.137398	 -0.922713	 -0.517938	 -0.006090	 0.813619	 -0.487566	 0.316649	 2
1462074313.503	 5	 1.291265	 2.403926	 -0.915769	 2.154267	 -0.936684	 -0.527650	 -0.001589	 0.814370	 -0.494020	 0.304538	 2
1462074313.513	 5	 1.438887	 2.193579	 -1.115112	 2.168812	 -0.953375	 -0.537367	 0.001731	 0.814229	 -0.501326	 0.292748	 2
1462074313.523	 5	 1.563343	 1.999682	 -1.255483	 2.181160	 -0.972156	 -0.547262	 0.004119	 0.813313	 -0.509287	 0.281303	 2
1462074313.533	 5	 2.081567	 2.507436	 -1.428990	 2.192666	 -0.994342	 -0.560953	 0.007045	 0.811611	 -0.518834	 0.268420	 2
1462074313.543	 5	 2.837983	 3.378507	 -1.713094	 2.205689	 -1.023280	 -0.583171	 0.012191	 0.808841	 -0.531589	 0.251079	 2
1462074313.553	 5	 3.565783	 4.219450	 -1.910904	 2.219439	 -1.058377	 -0.613934	 0.019492	 0.804806	 -0.547031	 0.229488	 2
1462074313.563	 5	 4.025090	 4.816435	 -1.977556	 2.231190	 -1.097939	 -0.654210	 0.028936	 0.799281	 -0.564326	 0.204571	 2
1462074313.573	 5	 3.746584	 5.098503	 -1.767880	 2.242089	 -1.136429	 -0.697977	 0.039709	 0.793286	 -0.580700	 0.178627	 2
1462074313.583	 5	 0.899109	 5.615695	 -0.828114	 2.281820	 -1.156262	 -0.714109	 0.052699	 0.792872	 -0.587404	 0.153405	 2
1462074313.593	 5	 -1.397081	 5.448556	 0.275269	 2.353742	 -1.149614	 -0.696894	 0.068490	 0.799688	 -0.581852	 0.131363	 2
1462074313.603	 5	 -1.689869	 3.454469	 1.207791	 2.404070	 -1.130420	 -0.685978	 0.083093	 0.806752	 -0.572860	 0.118657	 2
1462074313.613	 5	 -1.113401	 0.577309	 1.720603	 2.409859	 -1.110097	 -0.694100	 0.092639	 0.810434	 -0.566181	 0.118545	 2
1462074313.623	 5	 -0.552125	 -1.974423	 1.782562	 2.379291	 -1.092921	 -0.712969	 0.095606	 0.810659	 -0.562959	 0.129495	 2
1462074313.633	 5	 -0.122501	 -3.859327	 1.490578	 2.326697	 -1.080144	 -0.733606	 0.092203	 0.808151	 -0.562586	 0.147947	 2
1462074313.643	 5	 0.164923	 -4.969759	 1.017333	 2.263791	 -1.072310	 -0.751168	 0.083511	 0.803580	 -0.564187	 0.170229	 2
1462074313.653	 5	 0.138720	 -4.973745	 0.604008	 2.202814	 -1.067910	 -0.763009	 0.072164	 0.798221	 -0.566236	 0.192388	 2
1462074313.663	 5	 -0.431399	 -3.489889	 0.390444	 2.162707	 -1.062947	 -0.763709	 0.062420	 0.794839	 -0.566112	 0.209410	 2
1462074313.673	 5	 -1.540430	 -0.873995	 0.447888	 2.160868	 -1.052686	 -0.747761	 0.058337	 0.796478	 -0.561283	 0.217211	 2
1462074313.683	 5	 -2.821182	 0.250435	 0.690116	 2.192287	 -1.033030	 -0.713340	 0.058543	 0.803550	 -0.550370	 0.219027	 2
1462074313.693	 5	 -3.125135	 -0.189820	 0.724901	 2.225155	 -1.008542	 -0.673836	 0.057861	 0.811718	 -0.536994	 0.222267	 2
1462074313.703	 5	 -2.488218	 -0.058094	 0.520218	 2.250928	 -0.987364	 -0.641466	 0.056827	 0.818534	 -0.525432	 0.225156	 2
1462074313.713	 5	 -1.417966	 0.546658	 0.305506	 2.271033	 -0.973781	 -0.621941	 0.057383	 0.823311	 -0.517931	 0.224976	 2
1462074313.723	 5	 -0.215026	 1.137967	 0.197156	 2.284797	 -0.968806	 -0.617583	 0.060340	 0.825698	 -0.515285	 0.221499	 2
1462074313.733	 5	 0.728217	 0.994887	 0.061852	 2.288943	 -0.971400	 -0.625711	 0.064144	 0.825522	 -0.516965	 0.217133	 2
1462074313.743	 5	 1.234062	 0.011660	 -0.382270	 2.281748	 -0.980731	 -0.637880	 0.065046	 0.822991	 -0.521793	 0.214909	 2
1462074313.753	 5	 1.423212	 -1.138727	 -0.831584	 2.264146	 -0.995274	 -0.648703	 0.061321	 0.818637	 -0.528567	 0.216079	 2
1462074313.763	 5	 1.398606	 -1.995211	 -1.172923	 2.239660	 -1.012705	 -0.656334	 0.053590	 0.813215	 -0.536057	 0.220117	 2
1462074313.773	 5	 1.179220	 -2.469869	 -1.301190	 2.212566	 -1.030476	 -0.660272	 0.043374	 0.807518	 -0.543113	 0.225969	 2
1462074313.783	 5	 0.825935	 -2.510055	 -1.265449	 2.187474	 -1.046199	 -0.660012	 0.032365	 0.802362	 -0.548739	 0.232493	 2
1462074313.793	 5	 0.633533	 -1.932708	 -1.223231	 2.169074	 -1.060110	 -0.656863	 0.022398	 0.798212	 -0.553141	 0.237468	 2
1462074313.803	 5	 0.632627	 -1.050488	 -1.156397	 2.158864	 -1.073376	 -0.653952	 0.014907	 0.795067	 -0.557154	 0.239221	 2
1462074313.813	 5	 0.737918	 -0.147548	 -0.976258	 2.154770	 -1.085844	 -0.654402	 0.010640	 0.792714	 -0.561209	 0.237772	 2
1462074313.823	 5	 0.941281	 0.668441	 -0.719982	 2.153598	 -1.097268	 -0.661001	 0.009890	 0.790818	 -0.565608	 0.233659	 2
1462074313.833	 5	 1.264669	 1.367058	 -0.466908	 2.151911	 -1.108136	 -0.676360	 0.012579	 0.788891	 -0.570793	 0.227348	 2
1462074313.843	 5	 1.638875	 1.797119	 -0.265801	 2.146191	 -1.119212	 -0.701824	 0.017989	 0.786391	 -0.577103	 0.219585	 2
1462074313.853	 5	 2.008529	 1.983262	 -0.114884	 2.133543	 -1.130793	 -0.737403	 0.025120	 0.782938	 -0.584572	 0.211314	 2
1462074313.863	 5	 2.344209	 2.035019	 -0.028866	 2.112769	 -1.143076	 -0.782686	 0.033264	 0.778380	 -0.593164	 0.202916	 2
1462074313.873	 5	 2.672014	 1.845812	 -0.027087	 2.082428	 -1.156204	 -0.836983	 0.041502	 0.772585	 -0.602821	 0.194929	 2
1462074313.883	 5	 3.268150	 0.762267	 -0.188369	 2.031140	 -1.171991	 -0.904778	 0.047284	 0.764212	 -0.614655	 0.189585	 2
1462074313.893	 5	 3.612715	 -0.924798	 -0.366932	 1.950296	 -1.189542	 -0.986850	 0.047882	 0.752747	 -0.628600	 0.189582	 2
1462074313.903	 5	 3.311668	 -2.246470	 -0.434161	 1.851481	 -1.204728	 -1.071832	 0.043314	 0.740069	 -0.642248	 0.194781	 2
1462074313.913	 5	 2.612895	 -2.507474	 -0.334587	 1.756410	 -1.214786	 -1.146551	 0.036590	 0.728576	 -0.653396	 0.202268	 2
1462074313.923	 5	 1.849809	 -1.716220	 -0.212938	 1.683150	 -1.220164	 -1.203677	 0.031353	 0.719912	 -0.661341	 0.208259	 2
1462074313.933	 5	 1.282985	 -0.406194	 -0.195813	 1.637694	 -1.223337	 -1.244142	 0.029669	 0.714494	 -0.666700	 0.210071	 2
1462074313.943	 5	 1.000143	 0.762081	 -0.250688	 1.613746	 -1.226260	 -1.274822	 0.031575	 0.711515	 -0.670631	 0.207373	 2
1462074313.953	 5	 0.940491	 1.502195	 -0.296569	 1.601043	 -1.229490	 -1.302627	 0.036050	 0.709762	 -0.674059	 0.201452	 2
1462074313.963	 5	 1.007895	 1.737291	 -0.264061	 1.590475	 -1.232515	 -1.331969	 0.041816	 0.708178	 -0.677494	 0.194260	 2
1462074313.973	 5	 1.123054	 1.404787	 -0.161582	 1.574606	 -1.234554	 -1.364912	 0.047354	 0.705965	 -0.681199	 0.187988	 2
1462074313.983	 5	 1.285216	 0.622306	 -0.049844	 1.547397	 -1.235212	 -1.402635	 0.051108	 0.702521	 -0.685441	 0.184456	 2
1462074313.993	 5	 1.408993	 -0.353859	 0.031650	 1.506712	 -1.234461	 -1.444564	 0.052058	 0.697655	 -0.690301	 0.184533	 2
1462074314.003	 5	 1.410682	 -1.123939	 0.028733	 1.457037	 -1.232876	 -1.487087	 0.050182	 0.691856	 -0.695429	 0.187602	 2
1462074314.013	 5	 1.411091	 -1.469784	 0.005262	 1.403497	 -1.230802	 -1.528940	 0.046644	 0.685608	 -0.700605	 0.192142	 2
1462074314.023	 5	 1.489587	 -1.524654	 -0.049221	 1.347660	 -1.228292	 -1.572013	 0.042591	 0.678989	 -0.705968	 0.196899	 2
1462074314.033	 5	 1.675696	 -1.386294	 -0.108170	 1.288866	 -1.225146	 -1.619284	 0.038822	 0.671835	 -0.711831	 0.201063	 2
1462074314.043	 5	 1.871982	 -1.109841	 -0.187239	 1.227580	 -1.221063	 -1.671823	 0.035882	 0.664123	 -0.718325	 0.204113	 2
1462074314.053	 5	 1.974909	 -0.799423	 -0.167129	 1.167568	 -1.215648	 -1.726474	 0.034133	 0.656210	 -0.725116	 0.205986	 2
1462074314.063	 5	 1.995134	 -0.692187	 -0.038416	 1.111405	 -1.207964	 -1.778961	 0.033402	 0.648226	 -0.731819	 0.207672	 2
1462074314.073	 5	 1.830369	 -0.863299	 0.059477	 1.060582	 -1.198786	 -1.824756	 0.032545	 0.640456	 -0.737972	 0.210132	 2
1462074314.083	 5	 1.523989	 -1.061715	 0.001681	 1.015592	 -1.190451	 -1.862155	 0.030531	 0.633423	 -0.743228	 0.213203	 2
1462074314.093	 5	 1.151231	 -0.947485	 0.056081	 0.980096	 -1.183462	 -1.889801	 0.028278	 0.627707	 -0.747282	 0.216226	 2
1462074314.103	 5	 0.751373	 -0.823566	 0.262144	 0.957318	 -1.176986	 -1.904303	 0.026360	 0.623579	 -0.749740	 0.219871	 2
1462074314.113	 5	 0.455528	 -0.736665	 0.099270	 0.941925	 -1.172565	 -1.913151	 0.024739	 0.620752	 -0.751318	 0.222655	 2
1462074314.123	 5	 0.201290	 -1.011258	 -0.174973	 0.926133	 -1.171956	 -1.920104	 0.021150	 0.618763	 -0.752335	 0.225115	 2
1462074314.133	 5	 0.114170	 -1.237728	 -0.345778	 0.907322	 -1.173626	 -1.927619	 0.015867	 0.616959	 -0.753196	 0.227608	 2
1462074314.143	 5	 0.105193	 -1.283841	 -0.401548	 0.886589	 -1.176072	 -1.936138	 0.009915	 0.615119	 -0.754053	 0.230074	 2
1462074314.153	 5	 0.110278	 -1.133692	 -0.374617	 0.866917	 -1.178296	 -1.944734	 0.004444	 0.613357	 -0.754878	 0.232233	 2
1462074314.163	 5	 0.013516	 -1.235941	 -0.433343	 0.847740	 -1.181096	 -1.952756	 -0.001202	 0.611808	 -0.755515	 0.234280	 2
1462074314.173	 5	 -0.287860	 -1.994569	 -0.446304	 0.826348	 -1.185777	 -1.956858	 -0.009461	 0.610468	 -0.755395	 0.237946	 2
1462074314.183	 5	 -0.914475	 -3.288191	 -0.297285	 0.804144	 -1.193325	 -1.949072	 -0.022513	 0.609630	 -0.753361	 0.245542	 2
1462074314.193	 5	 -1.663597	 -4.083852	 0.121744	 0.792555	 -1.203476	 -1.919679	 -0.038936	 0.610270	 -0.748242	 0.257273	 2
1462074314.203	 5	 -2.596401	 -5.164637	 0.309515	 0.793411	 -1.217882	 -1.866698	 -0.059294	 0.612590	 -0.739512	 0.272652	 2
1462074314.213	 5	 -3.948611	 -6.469527	 0.224951	 0.809559	 -1.240908	 -1.784765	 -0.085916	 0.617162	 -0.725955	 0.291064	 2
1462074314.223	 5	 -5.442409	 -7.740686	 0.187761	 0.854961	 -1.273972	 -1.658318	 -0.119869	 0.624228	 -0.705985	 0.312341	 2
1462074314.233	 5	 -6.066099	 -7.680823	 0.270483	 0.945817	 -1.309306	 -1.482880	 -0.155754	 0.632545	 -0.681463	 0.333521	 2
1462074314.243	 5	 -5.798349	 -6.247840	 0.420035	 1.086109	 -1.337427	 -1.269302	 -0.187036	 0.641204	 -0.656264	 0.350988	 2
1462074314.253	 5	 -4.935418	 -3.854189	 0.694842	 1.259299	 -1.351964	 -1.045592	 -0.208773	 0.650497	 -0.634027	 0.362322	 2
1462074314.263	 5	 -3.974178	 -1.140367	 1.159345	 1.435855	 -1.351283	 -0.846041	 -0.218791	 0.661425	 -0.616401	 0.367012	 2
1462074314.273	 5	 -3.220801	 1.541800	 1.721283	 1.595617	 -1.337367	 -0.691196	 -0.217034	 0.675105	 -0.603145	 0.365165	 2
1462074314.283	 5	 -2.769130	 3.862994	 2.251581	 1.735008	 -1.313602	 -0.581709	 -0.205081	 0.691905	 -0.593023	 0.357117	 2
1462074314.293	 5	 -2.532092	 5.594577	 2.643976	 1.856762	 -1.282915	 -0.509347	 -0.185322	 0.711126	 -0.584564	 0.343861	 2
1462074314.303	 5	 -2.325392	 6.465635	 2.868763	 1.961514	 -1.248419	 -0.465711	 -0.160829	 0.731071	 -0.576709	 0.327224	 2
1462074314.313	 5	 -1.852985	 6.089445	 2.958134	 2.040776	 -1.213356	 -0.448180	 -0.135147	 0.748972	 -0.569275	 0.310969	 2
1462074314.323	 5	 -1.159356	 4.582742	 2.858142	 2.085663	 -1.181589	 -0.453664	 -0.112085	 0.762143	 -0.562939	 0.299456	 2
1462074314.333	 5	 -0.970055	 2.591829	 2.371164	 2.106447	 -1.154809	 -0.465350	 -0.094899	 0.770791	 -0.557164	 0.294012	 2
1462074314.343	 5	 -1.376664	 0.415404	 1.728849	 2.118327	 -1.132312	 -0.461929	 -0.087186	 0.776472	 -0.549876	 0.295171	 2
1462074314.353	 5	 -1.655891	 -0.887370	 1.490019	 2.123974	 -1.110886	 -0.449091	 -0.085205	 0.780604	 -0.541122	 0.300973	 2
1462074314.363	 5	 -1.730331	 -1.726423	 1.478596	 2.122192	 -1.089332	 -0.433776	 -0.086224	 0.783494	 -0.531480	 0.310213	 2
1462074314.373	 5	 -1.608213	 -2.188523	 1.606453	 2.112448	 -1.067342	 -0.421072	 -0.088209	 0.785229	 -0.521597	 0.321826	 2
1462074314.383	 5	 -1.336433	 -2.237574	 1.845559	 2.095213	 -1.044853	 -0.414984	 -0.089322	 0.785943	 -0.512165	 0.334668	 2
1462074314.393	 5	 -1.157541	 -1.991347	 1.991236	 2.075755	 -1.021852	 -0.413611	 -0.088861	 0.786331	 -0.503200	 0.347242	 2
1462074314.403	 5	 -1.077281	 -1.465328	 1.959196	 2.059898	 -0.999284	 -0.413254	 -0.087051	 0.787077	 -0.494709	 0.358044	 2
1462074314.413	 5	 -1.074191	 -0.694164	 1.820336	 2.052131	 -0.977849	 -0.411770	 -0.083881	 0.788871	 -0.486739	 0.365694	 2
1462074314.423	 5	 -1.137597	 0.261973	 1.645410	 2.055301	 -0.957703	 -0.408125	 -0.079222	 0.792292	 -0.479222	 0.369248	 2
1462074314.433	 5	 -1.241971	 1.131047	 1.471095	 2.069544	 -0.938611	 -0.402000	 -0.073243	 0.797471	 -0.471947	 0.368703	 2
1462074314.443	 5	 -1.306079	 1.726541	 1.281094	 2.091982	 -0.920675	 -0.393932	 -0.066557	 0.803902	 -0.464875	 0.364970	 2
1462074314.453	 5	 -1.236233	 2.003485	 1.072042	 2.118150	 -0.904562	 -0.385514	 -0.059803	 0.810706	 -0.458354	 0.359292	 2
1462074314.463	 5	 -1.026489	 2.071582	 0.867289	 2.144241	 -0.891025	 -0.378561	 -0.053303	 0.817117	 -0.452885	 0.352667	 2
1462074314.473	 5	 -0.717739	 2.067245	 0.687644	 2.168114	 -0.880524	 -0.374417	 -0.047044	 0.822708	 -0.448854	 0.345642	 2
1462074314.483	 5	 -0.396887	 2.105714	 0.548791	 2.189746	 -0.873039	 -0.373499	 -0.040779	 0.827478	 -0.446357	 0.338204	 2
1462074314.493	 5	 -0.106926	 2.149648	 0.417718	 2.209717	 -0.868357	 -0.375390	 -0.034433	 0.831537	 -0.445274	 0.330292	 2
1462074314.503	 5	 0.136635	 2.094721	 0.275471	 2.227921	 -0.866355	 -0.379267	 -0.028296	 0.834861	 -0.445428	 0.322181	 2
1462074314.513	 5	 0.346616	 1.930374	 0.137827	 2.243693	 -0.866834	 -0.384487	 -0.022707	 0.837367	 -0.446643	 0.314343	 2
1462074314.523	 5	 0.536456	 1.760007	 0.041868	 2.256730	 -0.869419	 -0.390983	 -0.017657	 0.839073	 -0.448777	 0.306991	 2
1462074314.533	 5	 0.708463	 1.629267	 -0.023726	 2.267289	 -0.873746	 -0.398890	 -0.012941	 0.840090	 -0.451722	 0.300049	 2
1462074314.543	 5	 0.821761	 1.477583	 -0.067689	 2.275607	 -0.879308	 -0.407838	 -0.008549	 0.840536	 -0.455232	 0.293580	 2
1462074314.553	 5	 0.920911	 1.435110	 -0.310875	 2.283509	 -0.886900	 -0.416191	 -0.004937	 0.840562	 -0.459385	 0.287048	 2
1462074314.563	 5	 0.990666	 1.387449	 -0.694535	 2.293337	 -0.897824	 -0.421622	 -0.002826	 0.840291	 -0.464358	 0.279777	 2
1462074314.573	 5	 1.046600	 1.328322	 -1.051537	 2.305107	 -0.911879	 -0.423690	 -0.002322	 0.839717	 -0.470035	 0.271913	 2
1462074314.583	 5	 1.123472	 1.358916	 -1.348203	 2.319248	 -0.928763	 -0.422821	 -0.003041	 0.838894	 -0.476388	 0.263253	 2
1462074314.593	 5	 1.313029	 1.357636	 -1.447916	 2.333801	 -0.947769	 -0.421636	 -0.004158	 0.837621	 -0.483514	 0.254142	 2
1462074314.603	 5	 1.785347	 1.290080	 -1.479301	 2.344724	 -0.969775	 -0.424361	 -0.005061	 0.835223	 -0.492250	 0.245085	 2
1462074314.613	 5	 2.689527	 0.950862	 -1.543618	 2.345055	 -0.997718	 -0.436633	 -0.005834	 0.830375	 -0.504272	 0.236965	 2
1462074314.623	 5	 3.585242	 0.476995	 -1.698639	 2.330076	 -1.033190	 -0.461184	 -0.007206	 0.822318	 -0.520247	 0.230401	 2
1462074314.633	 5	 3.519808	 0.289047	 -1.828775	 2.308351	 -1.070959	 -0.489767	 -0.009653	 0.813056	 -0.537064	 0.224519	 2
1462074314.643	 5	 1.776329	 1.514725	 -1.598629	 2.306713	 -1.099616	 -0.503169	 -0.011148	 0.807609	 -0.548669	 0.215884	 2
1462074314.653	 5	 -0.473727	 3.155155	 -0.701572	 2.349135	 -1.106275	 -0.488494	 -0.006918	 0.810691	 -0.549685	 0.201442	 2
1462074314.663	 5	 -1.197131	 2.245553	 0.148873	 2.390426	 -1.098815	 -0.471044	 -0.001119	 0.816180	 -0.545371	 0.190838	 2
1462074314.673	 5	 -1.138040	 0.597899	 0.595567	 2.408620	 -1.086615	 -0.461901	 0.002599	 0.820344	 -0.540038	 0.188116	 2
1462074314.683	 5	 -0.806471	 -0.624955	 0.623932	 2.407353	 -1.075721	 -0.459250	 0.003397	 0.822393	 -0.535774	 0.191323	 2
1462074314.693	 5	 -0.551077	 -1.405777	 0.562220	 2.394944	 -1.067442	 -0.459516	 0.001894	 0.822811	 -0.532759	 0.197856	 2
1462074314.703	 5	 -0.435460	 -1.985969	 0.536631	 2.374814	 -1.060355	 -0.461218	 -0.001277	 0.822142	 -0.530322	 0.206976	 2
1462074314.713	 5	 -0.397803	 -2.072875	 0.448101	 2.352999	 -1.054147	 -0.462301	 -0.005283	 0.821010	 -0.528123	 0.216796	 2
1462074314.723	 5	 -0.331079	 -1.595594	 0.289966	 2.335923	 -1.049277	 -0.461872	 -0.008907	 0.820033	 -0.526234	 0.224821	 2
1462074314.743	 6	 0.395454	 0.246066	 -0.073305	 2.324190	 -1.049432	 -0.465063	 -0.010722	 0.818689	 -0.526595	 0.228759	 2
1462074314.753	 6	 0.322642	 0.095214	 -0.224348	 2.323684	 -1.053537	 -0.468330	 -0.010424	 0.817893	 -0.528455	 0.227329	 2
1462074314.763	 6	 -0.372623	 -1.025909	 -0.369407	 2.322754	 -1.054765	 -0.461080	 -0.013904	 0.817515	 -0.528067	 0.229393	 2
1462074314.773	 6	 -1.259710	 -2.333681	 -0.223580	 2.319516	 -1.049769	 -0.441836	 -0.021527	 0.817896	 -0.523977	 0.236709	 2
1462074314.783	 6	 -1.889761	 -3.075679	 0.016929	 2.312553	 -1.038118	 -0.415725	 -0.031477	 0.818874	 -0.516446	 0.248473	 2
1462074314.793	 6	 -2.014741	 -2.647751	 0.015605	 2.308789	 -1.024211	 -0.387038	 -0.041180	 0.820462	 -0.507583	 0.259819	 2
1462074314.813	 7	 -1.059084	 0.365458	 -0.477309	 2.336018	 -1.009940	 -0.340027	 -0.050672	 0.825627	 -0.496693	 0.262811	 2
1462074314.823	 7	 -1.114934	 0.190098	 -0.627661	 2.357658	 -1.006529	 -0.318027	 -0.053722	 0.828535	 -0.493077	 0.259846	 2
1462074314.833	 7	 -1.560326	 -0.511955	 -0.963899	 2.379887	 -1.002405	 -0.287703	 -0.060040	 0.831360	 -0.488179	 0.258682	 2
1462074314.843	 7	 -1.856108	 -0.801053	 -1.201679	 2.404424	 -0.996955	 -0.249222	 -0.069085	 0.834379	 -0.481853	 0.258567	 2
1462074314.853	 7	 -1.390921	 -0.433863	 -1.126644	 2.428519	 -0.993062	 -0.214023	 -0.077316	 0.836992	 -0.476643	 0.257446	 2
1462074314.863	 7	 -0.289189	 -0.303811	 -0.641578	 2.440362	 -0.993721	 -0.196378	 -0.082001	 0.837675	 -0.475112	 0.256604	 2
1462074314.873	 7	 0.759939	 -0.645192	 -0.212664	 2.433393	 -0.999557	 -0.198177	 -0.083917	 0.835637	 -0.477401	 0.258375	 2
1462074314.883	 7	 1.604232	 -0.951945	 -0.077926	 2.410909	 -1.010740	 -0.214175	 -0.084624	 0.831053	 -0.483002	 0.262487	 2
1462074314.893	 7	 2.234271	 -0.864468	 -0.080466	 2.379798	 -1.026604	 -0.240074	 -0.084398	 0.824737	 -0.491363	 0.266925	 2
1462074314.903	 7	 2.793886	 -0.550222	 -0.081348	 2.342826	 -1.046042	 -0.275627	 -0.082743	 0.817252	 -0.502104	 0.270453	 2
1462074314.913	 7	 3.235080	 -0.225024	 -0.086427	 2.300191	 -1.068076	 -0.321124	 -0.079595	 0.808832	 -0.514853	 0.272731	 2
1462074314.923	 7	 3.462287	 -0.003542	 -0.106594	 2.252255	 -1.090989	 -0.374879	 -0.075467	 0.799809	 -0.528705	 0.274009	 2
1462074314.933	 7	 3.559017	 0.169300	 -0.139932	 2.199633	 -1.113604	 -0.435270	 -0.070795	 0.790452	 -0.543004	 0.274447	 2
1462074314.943	 7	 3.583518	 0.397803	 -0.154005	 2.143037	 -1.135090	 -0.501693	 -0.065568	 0.781009	 -0.557387	 0.273945	 2
1462074314.953	 7	 3.545689	 0.752070	 -0.157844	 2.084791	 -1.155160	 -0.572978	 -0.059589	 0.771821	 -0.571670	 0.271909	 2
1462074314.963	 7	 3.371609	 1.153795	 -0.128097	 2.032134	 -1.173281	 -0.642720	 -0.053042	 0.763774	 -0.585017	 0.267565	 2
1462074314.973	 7	 3.025387	 1.451015	 -0.057311	 1.980492	 -1.187454	 -0.713996	 -0.045305	 0.756597	 -0.597171	 0.262477	 2
1462074314.983	 7	 2.534525	 1.401901	 0.011517	 1.932783	 -1.197491	 -0.780816	 -0.037511	 0.750445	 -0.607507	 0.257605	 2
1462074314.993	 7	 2.008707	 1.022592	 0.000842	 1.892054	 -1.204562	 -0.836621	 -0.031286	 0.745358	 -0.615680	 0.253774	 2
1462074315.013	 8	 1.319625	 -0.015641	 -0.298035	 1.824605	 -1.216496	 -0.917054	 -0.026260	 0.736795	 -0.627546	 0.250258	 2
1462074315.023	 8	 1.213155	 -0.517360	 -0.445655	 1.790562	 -1.223406	 -0.949068	 -0.027490	 0.732361	 -0.632534	 0.250582	 2
1462074315.033	 8	 1.153155	 -0.968599	 -0.506883	 1.752769	 -1.230622	 -0.980117	 -0.030556	 0.727500	 -0.637304	 0.252295	 2
1462074315.043	 8	 0.999050	 -1.532744	 -0.482015	 1.711746	 -1.237168	 -1.008976	 -0.035419	 0.722321	 -0.641497	 0.255889	 2
1462074315.053	 8	 0.837191	 -2.136400	 -0.481960	 1.668323	 -1.242908	 -1.033828	 -0.042404	 0.716855	 -0.644852	 0.261701	 2
1462074315.073	 9	 0.962798	 -3.388002	 -0.687603	 1.559821	 -1.255558	 -1.086835	 -0.063156	 0.703072	 -0.651062	 0.278962	 2
1462074315.083	 9	 1.148795	 -3.884138	 -0.827060	 1.486546	 -1.263053	 -1.124181	 -0.076701	 0.693810	 -0.654753	 0.289903	 2
1462074315.093	 9	 1.309550	 -4.092872	 -0.945505	 1.402417	 -1.270592	 -1.169808	 -0.091335	 0.683286	 -0.658745	 0.301386	 2
1462074315.103	 9	 1.428265	 -3.961986	 -1.035910	 1.311526	 -1.277560	 -1.222978	 -0.105887	 0.672112	 -0.662968	 0.312292	 2
1462074315.113	 9	 1.490001	 -3.497755	 -1.089679	 1.219516	 -1.283516	 -1.281266	 -0.119239	 0.661084	 -0.667334	 0.321582	 2
1462074315.133	 10	 1.401879	 -1.826474	 -1.078689	 1.052078	 -1.291453	 -1.404050	 -0.138396	 0.642261	 -0.676731	 0.332239	 2
1462074315.143	 10	 1.257970	 -0.930129	 -1.028596	 0.982801	 -1.293504	 -1.464140	 -0.143471	 0.635210	 -0.681795	 0.333286	 2
1462074315.153	 10	 1.107007	 -0.181522	 -0.967027	 0.926339	 -1.294899	 -1.519131	 -0.145891	 0.629991	 -0.686791	 0.331881	 2
1462074315.163	 10	 0.996720	 0.346975	 -0.881217	 0.880562	 -1.295708	 -1.569050	 -0.146272	 0.626201	 -0.691641	 0.328799	 2
1462074315.173	 10	 0.905896	 0.666200	 -0.751696	 0.843222	 -1.295609	 -1.614119	 -0.145115	 0.623365	 -0.696294	 0.324856	 2
1462074315.183	 10	 0.822030	 0.810486	 -0.542865	 0.814851	 -1.294367	 -1.651743	 -0.142894	 0.621267	 -0.700439	 0.320927	 2
1462074315.193	 10	 0.788978	 0.802029	 -0.255966	 0.794890	 -1.291247	 -1.680960	 -0.139797	 0.619543	 -0.704006	 0.317802	 2
1462074315.203	 10	 0.793741	 0.635248	 0.067498	 0.782010	 -1.285787	 -1.701513	 -0.136174	 0.617829	 -0.706952	 0.316169	 2
1462074315.213	 10	 0.798137	 0.364461	 0.421970	 0.775484	 -1.277775	 -1.712868	 -0.132344	 0.615918	 -0.709179	 0.316537	 2
1462074315.223	 10	 0.609445	 -0.370152	 0.539340	 0.771252	 -1.269160	 -1.715873	 -0.130092	 0.613650	 -0.710317	 0.319311	 2
1462074315.233	 10	 0.311192	 -1.360750	 0.513535	 0.763532	 -1.262784	 -1.712365	 -0.131813	 0.610837	 -0.709939	 0.324792	 2
1462074315.243	 10	 0.045963	 -2.426419	 0.562414	 0.751883	 -1.258270	 -1.701893	 -0.137647	 0.607262	 -0.707919	 0.333372	 2
1462074315.253	 10	 -0.188634	 -3.224197	 0.751001	 0.739677	 -1.254508	 -1.682630	 -0.146544	 0.603029	 -0.704188	 0.344964	 2
1462074315.263	 10	 -0.561723	 -3.405824	 1.074420	 0.737108	 -1.251226	 -1.649397	 -0.156344	 0.599377	 -0.698492	 0.358349	 2
1462074315.273	 10	 -1.303795	 -2.801875	 1.335889	 0.757730	 -1.250547	 -1.596141	 -0.164906	 0.598724	 -0.690503	 0.370866	 2
1462074315.283	 10	 -2.252933	 -1.481897	 1.544010	 0.814510	 -1.254328	 -1.516768	 -0.170610	 0.603416	 -0.680066	 0.379857	 2
1462074315.293	 10	 -3.005749	 0.312673	 1.715405	 0.912949	 -1.260021	 -1.411785	 -0.171409	 0.614113	 -0.668138	 0.383505	 2
1462074315.303	 10	 -3.667791	 1.671933	 1.883024	 1.050395	 -1.264202	 -1.282237	 -0.167764	 0.629937	 -0.654913	 0.382261	 2
1462074315.313	 10	 -4.160555	 2.096371	 1.985051	 1.213236	 -1.263635	 -1.132837	 -0.162593	 0.648578	 -0.639883	 0.378761	 2
1462074315.323	 10	 -4.241933	 1.644078	 1.916540	 1.375306	 -1.256542	 -0.981598	 -0.158523	 0.666970	 -0.623687	 0.375548	 2
1462074315.333	 10	 -3.839410	 1.076460	 1.834216	 1.512568	 -1.243166	 -0.849475	 -0.156052	 0.682850	 -0.607777	 0.374127	 2
1462074315.343	 10	 -3.314344	 1.098157	 1.811728	 1.621674	 -1.225138	 -0.745143	 -0.153036	 0.696560	 -0.593352	 0.373253	 2
1462074315.353	 10	 -2.968864	 1.441109	 1.869462	 1.711759	 -1.203812	 -0.663402	 -0.148253	 0.709384	 -0.580233	 0.371651	 2
1462074315.363	 10	 -2.799005	 1.807559	 2.016337	 1.790043	 -1.179296	 -0.597653	 -0.141498	 0.722131	 -0.567681	 0.369111	 2
1462074315.373	 10	 -2.695730	 2.077483	 2.172485	 1.859139	 -1.151816	 -0.544484	 -0.133046	 0.734944	 -0.555247	 0.365865	 2
1462074315.383	 10	 -2.536854	 1.932311	 2.311497	 1.916903	 -1.122097	 -0.502935	 -0.123811	 0.747162	 -0.542800	 0.363027	 2
1462074315.393	 10	 -2.086712	 1.114961	 2.424666	 1.954822	 -1.091757	 -0.475764	 -0.115159	 0.757022	 -0.530914	 0.363023	 2
1462074315.403	 10	 -1.435132	 -0.119627	 2.430952	 1.967026	 -1.063121	 -0.464148	 -0.108291	 0.762945	 -0.520496	 0.367793	 2
1462074315.413	 10	 -0.912915	 -1.279398	 2.288787	 1.957982	 -1.037641	 -0.462980	 -0.103886	 0.764959	 -0.511697	 0.377110	 2
1462074315.423	 10	 -0.628343	 -2.058467	 2.044601	 1.936752	 -1.015506	 -0.465700	 -0.101929	 0.764157	 -0.504070	 0.389343	 2
1462074315.433	 10	 -0.557297	 -2.359686	 1.750226	 1.911927	 -0.996436	 -0.467636	 -0.101885	 0.761906	 -0.497128	 0.402471	 2
1462074315.443	 10	 -0.662721	 -2.094290	 1.491436	 1.891351	 -0.979759	 -0.466037	 -0.102679	 0.759767	 -0.490467	 0.414311	 2
1462074315.453	 10	 -0.860541	 -1.378938	 1.348477	 1.880602	 -0.964158	 -0.459937	 -0.102993	 0.759143	 -0.483695	 0.423242	 2
1462074315.463	 10	 -1.160257	 -0.596907	 1.265642	 1.881574	 -0.948678	 -0.449109	 -0.102280	 0.760685	 -0.476503	 0.428768	 2
1462074315.473	 10	 -1.558694	 0.307634	 1.169887	 1.896269	 -0.932705	 -0.431722	 -0.100727	 0.764910	 -0.468348	 0.430601	 2
1462074315.483	 10	 -1.582947	 1.205094	 0.982349	 1.921781	 -0.917659	 -0.412281	 -0.097891	 0.771288	 -0.460474	 0.428365	 2
1462074315.493	 10	 -1.299415	 1.712634	 0.831133	 1.950564	 -0.904656	 -0.396234	 -0.093811	 0.778293	 -0.454049	 0.423438	 2
1462074315.503	 10	 -0.931895	 1.867322	 0.750506	 1.977251	 -0.893659	 -0.385755	 -0.088795	 0.784840	 -0.449283	 0.417477	 2
1462074315.513	 10	 -0.597404	 1.770350	 0.713653	 1.999339	 -0.884309	 -0.380527	 -0.083331	 0.790410	 -0.445884	 0.411698	 2
1462074315.523	 10	 -0.286577	 1.605619	 0.710479	 2.016166	 -0.876372	 -0.380093	 -0.077598	 0.794871	 -0.443670	 0.406590	 2
1462074315.533	 10	 -0.043807	 1.438366	 0.771821	 2.028106	 -0.869166	 -0.383788	 -0.071534	 0.798361	 -0.442299	 0.402335	 2
1462074315.543	 10	 0.145010	 1.345941	 0.863104	 2.036275	 -0.862092	 -0.390942	 -0.064966	 0.801153	 -0.441483	 0.398780	 2
1462074315.553	 10	 0.310886	 1.388479	 0.929198	 2.042390	 -0.855146	 -0.400973	 -0.057729	 0.803557	 -0.441173	 0.395385	 2
1462074315.563	 10	 0.440484	 1.499677	 0.915250	 2.048079	 -0.848805	 -0.412922	 -0.049967	 0.805790	 -0.441402	 0.391625	 2
1462074315.573	 10	 0.541991	 1.614548	 0.809924	 2.054397	 -0.843751	 -0.425714	 -0.042057	 0.807933	 -0.442223	 0.387187	 2
1462074315.583	 10	 0.622628	 1.686223	 0.606329	 2.061625	 -0.840682	 -0.438409	 -0.034501	 0.809936	 -0.443700	 0.382025	 2
1462074315.593	 10	 0.665295	 1.725250	 0.285526	 2.070407	 -0.840583	 -0.449677	 -0.027953	 0.811788	 -0.445937	 0.375977	 2
1462074315.603	 10	 0.708267	 1.740578	 0.070010	 2.080355	 -0.842951	 -0.459628	 -0.022314	 0.813484	 -0.448767	 0.369260	 2
1462074315.613	 10	 0.783723	 1.762987	 -0.035949	 2.090511	 -0.846806	 -0.469534	 -0.017013	 0.814979	 -0.452065	 0.362157	 2
1462074315.623	 10	 0.906125	 1.792624	 -0.152907	 2.100470	 -0.852226	 -0.480046	 -0.011892	 0.816189	 -0.455968	 0.354665	 2
1462074315.633	 10	 1.078340	 1.803565	 -0.334418	 2.109932	 -0.859945	 -0.491386	 -0.007116	 0.816969	 -0.460772	 0.346699	 2
1462074315.643	 10	 1.284531	 1.828855	 -0.576840	 2.118869	 -0.870687	 -0.503563	 -0.002873	 0.817218	 -0.466723	 0.338106	 2
1462074315.653	 10	 1.477479	 1.825971	 -0.896144	 2.127637	 -0.885123	 -0.515914	 0.000477	 0.816899	 -0.473930	 0.328734	 2
1462074315.663	 10	 1.689709	 1.825274	 -1.199610	 2.136169	 -0.903371	 -0.528407	 0.002881	 0.815960	 -0.482409	 0.318562	 2
1462074315.673	 10	 1.980649	 1.943914	 -1.441901	 2.144066	 -0.925282	 -0.542384	 0.004829	 0.814327	 -0.492284	 0.307418	 2
1462074315.683	 10	 2.422566	 2.349683	 -1.629547	 2.151851	 -0.951126	 -0.560434	 0.007423	 0.811996	 -0.503967	 0.294319	 2
1462074315.693	 10	 2.685669	 2.816934	 -1.771368	 2.160850	 -0.980302	 -0.582383	 0.011071	 0.809180	 -0.517090	 0.278787	 2
1462074315.703	 10	 2.204837	 3.076303	 -1.693362	 2.175834	 -1.008059	 -0.600599	 0.015188	 0.807153	 -0.528867	 0.261866	 2
1462074315.713	 10	 0.131447	 4.246432	 -0.897072	 2.216256	 -1.021601	 -0.599154	 0.021894	 0.810265	 -0.532901	 0.242916	 2
1462074315.723	 10	 -0.841939	 3.313883	 -0.085163	 2.265006	 -1.019182	 -0.585395	 0.029845	 0.816548	 -0.529818	 0.227267	 2
1462074315.733	 10	 -0.418265	 0.992202	 0.257232	 2.285941	 -1.013915	 -0.579346	 0.034160	 0.819831	 -0.526959	 0.221415	 2
1462074315.743	 10	 0.280158	 -0.830793	 0.397249	 2.276485	 -1.011897	 -0.585632	 0.034724	 0.818990	 -0.527112	 0.224059	 2
1462074315.753	 10	 0.592304	 -2.152046	 0.488813	 2.246543	 -1.011783	 -0.599108	 0.032351	 0.815362	 -0.529114	 0.232759	 2
1462074315.763	 10	 0.388356	 -2.680677	 0.550681	 2.209096	 -1.010384	 -0.612349	 0.028160	 0.810900	 -0.530782	 0.244782	 2
1462074315.773	 10	 -0.121544	 -2.208848	 0.580826	 2.180110	 -1.005791	 -0.618709	 0.024217	 0.807852	 -0.530405	 0.255849	 2
1462074315.783	 10	 -0.380937	 -1.648795	 0.704464	 2.160840	 -0.998374	 -0.620395	 0.021723	 0.806362	 -0.528359	 0.264848	 2
1462074315.793	 10	 -0.269849	 -0.872459	 0.882309	 2.146759	 -0.989608	 -0.624103	 0.021808	 0.805626	 -0.526084	 0.271527	 2
1462074315.803	 10	 -0.118076	 0.254976	 0.944766	 2.140886	 -0.980944	 -0.630969	 0.025324	 0.805892	 -0.524204	 0.274057	 2
1462074315.813	 10	 -0.301454	 0.396960	 1.089431	 2.139625	 -0.971041	 -0.637800	 0.030378	 0.806904	 -0.521861	 0.275035	 2
1462074315.823	 10	 -0.832353	 -0.956762	 1.496038	 2.132311	 -0.955489	 -0.640119	 0.033558	 0.807804	 -0.517113	 0.280929	 2
1462074315.833	 10	 -0.896820	 -1.780412	 1.559275	 2.114464	 -0.937267	 -0.641244	 0.034317	 0.807425	 -0.511493	 0.291997	 2
1462074315.843	 10	 -0.668144	 -1.538883	 1.077807	 2.098865	 -0.922998	 -0.640837	 0.034051	 0.806762	 -0.506938	 0.301644	 2
1462074315.853	 10	 -0.052472	 -1.114821	 0.549906	 2.083919	 -0.916098	 -0.643214	 0.033115	 0.805210	 -0.505255	 0.308638	 2
1462074315.863	 10	 0.143182	 0.987607	 0.290668	 2.084240	 -0.913860	 -0.648375	 0.035891	 0.805414	 -0.505302	 0.307717	 2
1462074315.873	 10	 -0.586091	 1.748970	 -0.175491	 2.105727	 -0.912185	 -0.642572	 0.039425	 0.808977	 -0.503455	 0.300890	 2
1462074315.883	 10	 -0.864965	 0.560895	 -0.730854	 2.128803	 -0.912992	 -0.625566	 0.038106	 0.812656	 -0.500745	 0.295622	 2
1462074315.893	 10	 -0.541547	 -1.261611	 -0.968044	 2.133973	 -0.917322	 -0.608581	 0.031346	 0.813205	 -0.499619	 0.296811	 2
1462074315.903	 10	 -0.011540	 -2.412385	 -1.039853	 2.121044	 -0.925293	 -0.597590	 0.021535	 0.810447	 -0.500865	 0.303060	 2
1462074315.913	 10	 0.362262	 -3.050402	 -1.014940	 2.095641	 -0.935552	 -0.592887	 0.010503	 0.805328	 -0.503823	 0.312248	 2
1462074315.923	 10	 0.553466	 -3.279364	 -0.974010	 2.058172	 -0.952043	 -0.596771	 -0.001948	 0.797377	 -0.510013	 0.322603	 2
1462074315.933	 10	 0.730421	 -3.148663	 -0.916821	 2.018639	 -0.968754	 -0.604002	 -0.013908	 0.788938	 -0.516472	 0.332627	 2
1462074315.943	 10	 1.006258	 -2.619536	 -0.881260	 1.983886	 -0.980684	 -0.612427	 -0.023035	 0.781768	 -0.521353	 0.341320	 2
1462074315.953	 10	 1.435587	 -1.676056	 -0.846378	 1.951137	 -0.993670	 -0.628512	 -0.029162	 0.774872	 -0.527706	 0.346770	 2
1462074315.963	 10	 1.941201	 -0.667540	 -0.759332	 1.919986	 -1.007485	 -0.654788	 -0.031431	 0.768349	 -0.535946	 0.348444	 2
1462074315.973	 10	 2.230309	 -0.135498	 -0.609823	 1.887943	 -1.020754	 -0.689786	 -0.030746	 0.761946	 -0.545385	 0.347919	 2
1462074315.983	 10	 2.137018	 -0.079265	 -0.520029	 1.855447	 -1.032313	 -0.726940	 -0.029178	 0.755749	 -0.554572	 0.347047	 2
1462074315.993	 10	 1.868989	 -0.264208	 -0.611072	 1.824344	 -1.043031	 -0.760644	 -0.028576	 0.749897	 -0.562832	 0.346494	 2
1462074316.003	 10	 1.661966	 -0.559559	 -0.795329	 1.793768	 -1.054350	 -0.790365	 -0.029783	 0.744116	 -0.570439	 0.346416	 2
1462074316.013	 10	 1.530579	 -0.909151	 -0.948776	 1.761649	 -1.066491	 -0.817803	 -0.032805	 0.738075	 -0.577678	 0.347070	 2
1462074316.023	 10	 1.412994	 -1.306365	 -1.063354	 1.726768	 -1.079203	 -0.843790	 -0.037611	 0.731607	 -0.584569	 0.348735	 2
1462074316.033	 10	 1.306430	 -1.662905	 -1.138215	 1.688869	 -1.092144	 -0.868765	 -0.044016	 0.724700	 -0.591056	 0.351461	 2
1462074316.043	 10	 1.230734	 -1.855352	 -1.159597	 1.648599	 -1.104881	 -0.893548	 -0.051393	 0.717508	 -0.597160	 0.354882	 2
1462074316.053	 10	 1.175550	 -1.815614	 -1.128905	 1.607538	 -1.116930	 -0.918825	 -0.058860	 0.710344	 -0.602928	 0.358365	 2
1462074316.063	 10	 1.128860	 -1.552598	 -1.105801	 1.567948	 -1.128227	 -0.944685	 -0.065667	 0.703618	 -0.608447	 0.361113	 2
1462074316.073	 10	 1.097656	 -1.169479	 -1.088110	 1.531150	 -1.138914	 -0.971304	 -0.071371	 0.697575	 -0.613856	 0.362596	 2
1462074316.083	 10	 1.060027	 -0.792707	 -1.068290	 1.497469	 -1.149013	 -0.998604	 -0.075875	 0.692277	 -0.619198	 0.362754	 2
1462074316.093	 10	 0.995355	 -0.488223	 -1.054236	 1.466990	 -1.158650	 -1.025832	 -0.079424	 0.687705	 -0.624391	 0.361786	 2
1462074316.103	 10	 0.925884	 -0.288027	 -1.049636	 1.439110	 -1.167969	 -1.052580	 -0.082363	 0.683724	 -0.629386	 0.360015	 2
1462074316.113	 10	 0.865469	 -0.200632	 -1.049363	 1.412683	 -1.177078	 -1.078930	 -0.085036	 0.680123	 -0.634178	 0.357800	 2
1462074316.123	 10	 0.822565	 -0.247298	 -1.048358	 1.386056	 -1.185997	 -1.105250	 -0.087835	 0.676616	 -0.638773	 0.355592	 2
1462074316.133	 10	 0.801554	 -0.403581	 -1.047498	 1.357564	 -1.194681	 -1.132071	 -0.091094	 0.672931	 -0.643186	 0.353804	 2
1462074316.143	 10	 0.793041	 -0.629002	 -1.042061	 1.325934	 -1.203039	 -1.159899	 -0.095030	 0.668873	 -0.647431	 0.352720	 2
1462074316.153	 10	 0.794181	 -0.841710	 -1.039787	 1.290810	 -1.211029	 -1.189012	 -0.099670	 0.664396	 -0.651523	 0.352367	 2
1462074316.163	 10	 0.796666	 -1.006465	 -1.024290	 1.252520	 -1.218517	 -1.219552	 -0.104831	 0.659564	 -0.655479	 0.352610	 2
1462074316.173	 10	 0.782129	 -1.163692	 -1.004311	 1.211676	 -1.225424	 -1.251062	 -0.110449	 0.654454	 -0.659239	 0.353406	 2
1462074316.183	 10	 0.763197	 -1.331681	 -1.003578	 1.168354	 -1.231874	 -1.283362	 -0.116618	 0.649070	 -0.662777	 0.354732	 2
1462074316.193	 10	 0.766466	 -1.522260	 -1.028826	 1.121642	 -1.238018	 -1.317248	 -0.123449	 0.643304	 -0.666175	 0.356555	 2
1462074316.203	 10	 0.815450	 -1.737541	 -1.068558	 1.069900	 -1.243770	 -1.354150	 -0.131025	 0.636949	 -0.669558	 0.358917	 2
1462074316.213	 10	 0.919816	 -1.983766	 -1.099468	 1.011458	 -1.248690	 -1.395557	 -0.139321	 0.629763	 -0.673048	 0.361932	 2
1462074316.223	 10	 1.050927	 -2.232058	 -1.111446	 0.945630	 -1.252204	 -1.442023	 -0.148267	 0.621579	 -0.676686	 0.365720	 2
1462074316.233	 10	 1.127103	 -2.341037	 -1.148293	 0.874335	 -1.254348	 -1.492566	 -0.157626	 0.612648	 -0.680437	 0.369895	 2
1462074316.243	 10	 1.076444	 -2.188017	 -1.187993	 0.802777	 -1.255774	 -1.544249	 -0.166822	 0.603777	 -0.684148	 0.373585	 2
1462074316.253	 10	 0.922464	 -1.804631	 -1.183085	 0.736793	 -1.257103	 -1.593541	 -0.175124	 0.595871	 -0.687634	 0.376070	 2
1462074316.263	 10	 0.732967	 -1.316409	 -1.109749	 0.680103	 -1.258537	 -1.637987	 -0.181972	 0.589455	 -0.690796	 0.377133	 2
1462074316.273	 10	 0.551310	 -0.810667	 -0.963846	 0.634719	 -1.259958	 -1.675812	 -0.187043	 0.584697	 -0.693574	 0.376960	 2
1462074316.283	 10	 0.390253	 -0.282254	 -0.763558	 0.602061	 -1.261181	 -1.705747	 -0.190054	 0.581653	 -0.695972	 0.375743	 2
1462074316.293	 10	 0.243916	 0.192992	 -0.555367	 0.582236	 -1.262228	 -1.727424	 -0.190998	 0.580251	 -0.698001	 0.373661	 2
1462074316.303	 10	 0.099595	 0.467835	 -0.407675	 0.572531	 -1.263491	 -1.741984	 -0.190563	 0.580137	 -0.699608	 0.371047	 2
1462074316.313	 10	 -0.048245	 0.297458	 -0.348290	 0.566974	 -1.265511	 -1.751788	 -0.190294	 0.580534	 -0.700600	 0.368684	 2
1462074316.323	 10	 -0.208073	 -0.552970	 -0.349483	 0.557459	 -1.268779	 -1.758590	 -0.192668	 0.580234	 -0.700460	 0.368188	 2
1462074316.333	 10	 -0.390432	 -1.653296	 -0.352806	 0.539585	 -1.273544	 -1.762794	 -0.199173	 0.578524	 -0.698767	 0.370628	 2
1462074316.343	 10	 -0.683062	 -2.416844	 -0.307272	 0.517870	 -1.280363	 -1.761938	 -0.209079	 0.576088	 -0.695333	 0.375394	 2
1462074316.353	 10	 -1.174232	 -2.803783	 -0.182968	 0.501348	 -1.290461	 -1.750775	 -0.221096	 0.574284	 -0.689841	 0.381358	 2
1462074316.363	 10	 -2.018720	 -3.029732	 -0.001866	 0.500498	 -1.306341	 -1.720750	 -0.234880	 0.574604	 -0.681437	 0.387693	 2
1462074316.373	 10	 -3.210119	 -3.154808	 0.308954	 0.532180	 -1.330524	 -1.655632	 -0.250513	 0.578545	 -0.668824	 0.393958	 2
1462074316.383	 10	 -4.244657	 -2.930615	 0.738892	 0.620363	 -1.360820	 -1.534300	 -0.266600	 0.586622	 -0.652013	 0.399597	 2
1462074316.393	 10	 -4.737499	 -2.381177	 1.210837	 0.789443	 -1.389349	 -1.336138	 -0.280863	 0.597975	 -0.632564	 0.404233	 2
1462074316.403	 10	 -4.490272	 -1.431369	 1.604394	 1.033886	 -1.405728	 -1.070804	 -0.290920	 0.611017	 -0.613169	 0.407488	 2
1462074316.413	 10	 -3.608536	 -0.055408	 1.912197	 1.285611	 -1.404326	 -0.811374	 -0.294396	 0.624518	 -0.596899	 0.408682	 2
1462074316.423	 10	 -2.527752	 1.432753	 2.225706	 1.475403	 -1.388505	 -0.629546	 -0.290173	 0.638096	 -0.585264	 0.407553	 2
1462074316.433	 10	 -1.661886	 2.589841	 2.560406	 1.597545	 -1.364433	 -0.528888	 -0.279191	 0.651761	 -0.577580	 0.404550	 2
1462074316.443	 10	 -1.115328	 3.254301	 2.886888	 1.675310	 -1.335603	 -0.481124	 -0.263474	 0.665385	 -0.572096	 0.400689	 2
1462074316.453	 10	 -0.841424	 3.438097	 3.115352	 1.728570	 -1.304051	 -0.461531	 -0.245197	 0.678665	 -0.567337	 0.396763	 2
1462074316.463	 10	 -0.741803	 2.983286	 3.212565	 1.766273	 -1.271264	 -0.454967	 -0.226886	 0.690782	 -0.562133	 0.394144	 2
1462074316.473	 10	 -0.743676	 1.940675	 3.174104	 1.790439	 -1.238499	 -0.452924	 -0.211021	 0.700720	 -0.555705	 0.394530	 2
1462074316.483	 10	 -0.776944	 0.917377	 2.999679	 1.803685	 -1.207051	 -0.451093	 -0.198614	 0.708242	 -0.548140	 0.398105	 2
1462074316.493	 10	 -0.845854	 0.324358	 2.744307	 1.811658	 -1.177794	 -0.447286	 -0.189061	 0.714095	 -0.540010	 0.403377	 2
1462074316.503	 10	 -0.990938	 0.139627	 2.439043	 1.820532	 -1.151081	 -0.439424	 -0.181532	 0.719307	 -0.531651	 0.408645	 2
1462074316.513	 10	 -1.137201	 0.065247	 2.243524	 1.832062	 -1.126227	 -0.427679	 -0.175343	 0.724430	 -0.523057	 0.413361	 2
1462074316.523	 10	 -1.195057	 0.102963	 2.141000	 1.844520	 -1.102203	 -0.414711	 -0.169723	 0.729545	 -0.514315	 0.417657	 2
1462074316.533	 10	 -1.208033	 0.158580	 2.031857	 1.857308	 -1.079082	 -0.401951	 -0.164340	 0.734648	 -0.505706	 0.421363	 2
1462074316.543	 10	 -1.192345	 0.182209	 1.923232	 1.869727	 -1.056959	 -0.389823	 -0.159239	 0.739607	 -0.497312	 0.424622	 2
1462074316.553	 10	 -1.142695	 0.149507	 1.834037	 1.880791	 -1.035798	 -0.378888	 -0.154430	 0.744255	 -0.489195	 0.427697	 2
1462074316.563	 10	 -1.070521	 0.133819	 1.753331	 1.890157	 -1.015559	 -0.369508	 -0.149820	 0.748535	 -0.481426	 0.430671	 2
1462074316.573	 10	 -0.944283	 0.254229	 1.688340	 1.898404	 -0.996304	 -0.362255	 -0.145042	 0.752590	 -0.474228	 0.433220	 2
1462074316.583	 10	 -0.768222	 0.507635	 1.649732	 1.906274	 -0.977974	 -0.358095	 -0.139514	 0.756640	 -0.467872	 0.434888	 2
1462074316.593	 10	 -0.605928	 0.789748	 1.604051	 1.914495	 -0.960594	 -0.356860	 -0.133113	 0.760808	 -0.462402	 0.435473	 2
1462074316.603	 10	 -0.471605	 1.030407	 1.550767	 1.923369	 -0.944165	 -0.357906	 -0.126001	 0.765097	 -0.457705	 0.435037	 2
1462074316.613	 10	 -0.350493	 1.197611	 1.483060	 1.932678	 -0.928772	 -0.360755	 -0.118424	 0.769400	 -0.453696	 0.433773	 2
1462074316.624	 10	 -0.232974	 1.301898	 1.391351	 1.942019	 -0.914625	 -0.365080	 -0.110647	 0.773572	 -0.450352	 0.431887	 2
1462074316.633	 10	 -0.108422	 1.347376	 1.259601	 1.950968	 -0.902068	 -0.370706	 -0.102919	 0.777458	 -0.447739	 0.429531	 2
1462074316.643	 10	 0.023250	 1.351069	 1.089033	 1.959273	 -0.891512	 -0.377359	 -0.095506	 0.780935	 -0.445939	 0.426799	 2
1462074316.654	 10	 0.179497	 1.385328	 0.889759	 1.967022	 -0.883352	 -0.385077	 -0.088474	 0.783980	 -0.445112	 0.423584	 2
1462074316.664	 10	 0.355231	 1.488574	 0.678169	 1.974712	 -0.877829	 -0.394034	 -0.081701	 0.786677	 -0.445411	 0.419611	 2
1462074316.674	 10	 0.532282	 1.636561	 0.476575	 1.982792	 -0.874936	 -0.404308	 -0.075044	 0.789125	 -0.446864	 0.414684	 2
1462074316.684	 10	 0.674041	 1.766586	 0.277254	 1.991563	 -0.874534	 -0.415528	 -0.068534	 0.791383	 -0.449349	 0.408781	 2
1462074316.694	 10	 0.739529	 1.804184	 0.061749	 2.001044	 -0.876471	 -0.426610	 -0.062542	 0.793430	 -0.452581	 0.402154	 2
1462074316.704	 10	 0.755556	 1.781145	 -0.175204	 2.011287	 -0.880682	 -0.436548	 -0.057430	 0.795252	 -0.456335	 0.395013	 2
1462074316.714	 10	 0.754344	 1.748367	 -0.441939	 2.022514	 -0.887300	 -0.444732	 -0.053417	 0.796854	 -0.460551	 0.387379	 2
1462074316.724	 10	 0.781995	 1.771484	 -0.762759	 2.035227	 -0.896790	 -0.450972	 -0.050576	 0.798260	 -0.465382	 0.379003	 2
1462074316.734	 10	 0.890514	 2.035243	 -1.160910	 2.051201	 -0.910118	 -0.455498	 -0.048634	 0.799644	 -0.471266	 0.368934	 2
1462074316.744	 10	 1.048307	 2.352969	 -1.577107	 2.071394	 -0.927837	 -0.458713	 -0.047294	 0.801027	 -0.478509	 0.356579	 2
1462074316.754	 10	 1.257277	 2.621954	 -1.947308	 2.095267	 -0.949967	 -0.460927	 -0.046478	 0.802176	 -0.487174	 0.342074	 2
1462074316.764	 10	 1.627778	 2.878518	 -2.204995	 2.120428	 -0.976200	 -0.464511	 -0.045649	 0.802637	 -0.497500	 0.325858	 2
1462074316.774	 10	 2.232471	 2.884474	 -2.312518	 2.141306	 -1.006637	 -0.474386	 -0.044205	 0.801519	 -0.510114	 0.308864	 2
1462074316.784	 10	 2.283829	 2.240785	 -2.320021	 2.154381	 -1.038915	 -0.487652	 -0.043689	 0.798635	 -0.523518	 0.293602	 2
1462074316.794	 10	 0.247273	 2.386810	 -1.780838	 2.181998	 -1.060748	 -0.481235	 -0.044422	 0.798818	 -0.530700	 0.279777	 2
1462074316.804	 10	 -1.609771	 2.104597	 -0.674889	 2.233898	 -1.060455	 -0.448177	 -0.043883	 0.805244	 -0.527217	 0.267765	 2
1462074316.814	 10	 -1.267764	 0.470918	 0.052965	 2.263654	 -1.052176	 -0.424241	 -0.043832	 0.810176	 -0.521736	 0.263602	 2
1462074316.824	 10	 -0.193171	 -0.744294	 0.408515	 2.261417	 -1.046625	 -0.421232	 -0.044371	 0.810829	 -0.519287	 0.266326	 2
1462074316.834	 10	 0.571528	 -1.438774	 0.578705	 2.237020	 -1.044987	 -0.434619	 -0.044913	 0.808133	 -0.519959	 0.273031	 2
1462074316.844	 10	 0.699942	 -1.873670	 0.647078	 2.202935	 -1.044185	 -0.453386	 -0.046034	 0.803971	 -0.521504	 0.282038	 2
1462074316.854	 10	 0.394304	 -1.930496	 0.607646	 2.170533	 -1.041924	 -0.468467	 -0.047887	 0.800062	 -0.522118	 0.291547	 2
1462074316.864	 10	 -0.015918	 -1.753090	 0.558514	 2.145898	 -1.037645	 -0.476063	 -0.050207	 0.797310	 -0.521164	 0.300274	 2
1462074316.874	 10	 -0.312344	 -1.183744	 0.482198	 2.131322	 -1.032095	 -0.477246	 -0.052116	 0.796023	 -0.519071	 0.306914	 2
1462074316.883	 10	 -0.387158	 -0.282822	 0.458194	 2.127615	 -1.026152	 -0.475579	 -0.052219	 0.796355	 -0.516686	 0.310044	 2
1462074316.894	 10	 -0.144770	 0.438538	 0.441481	 2.129593	 -1.021143	 -0.476546	 -0.050041	 0.797479	 -0.515171	 0.310035	 2
1462074316.904	 10	 0.238865	 0.656642	 0.312279	 2.131087	 -1.018939	 -0.482331	 -0.046785	 0.798197	 -0.515346	 0.308401	 2
1462074316.913	 10	 0.546949	 0.615075	 0.278303	 2.128162	 -1.019170	 -0.492907	 -0.043378	 0.797949	 -0.516986	 0.306791	 2
1462074316.924	 10	 0.593978	 0.651808	 0.522294	 2.122690	 -1.018589	 -0.507178	 -0.038954	 0.797495	 -0.518860	 0.305400	 2
1462074316.934	 10	 0.273127	 0.279238	 0.790193	 2.115164	 -1.014187	 -0.520497	 -0.034449	 0.797254	 -0.519268	 0.305876	 2
1462074316.944	 10	 -0.060344	 -0.166428	 0.653598	 2.108663	 -1.008161	 -0.527586	 -0.031726	 0.797264	 -0.518219	 0.307918	 2
1462074316.954	 10	 -0.197086	 -0.619209	 0.348964	 2.102414	 -1.003610	 -0.528863	 -0.031633	 0.796979	 -0.516787	 0.311054	 2
1462074316.964	 10	 -0.183791	 -0.694995	 0.024152	 2.097115	 -1.001684	 -0.526768	 -0.033325	 0.796395	 -0.515726	 0.314119	 2
1462074316.974	 10	 -0.391632	 -0.481795	 -0.433530	 2.098382	 -1.002827	 -0.518824	 -0.036465	 0.796290	 -0.514883	 0.315417	 2
1462074316.984	 10	 -0.753917	 -0.374110	 -0.690485	 2.108947	 -1.005017	 -0.501949	 -0.041048	 0.797306	 -0.513168	 0.315082	 2
1462074316.994	 10	 -0.900609	 -0.662276	 -0.739849	 2.121039	 -1.006777	 -0.480795	 -0.046850	 0.798481	 -0.510701	 0.315307	 2
1462074317.004	 10	 -0.907564	 -1.058521	 -0.676332	 2.129468	 -1.007880	 -0.459443	 -0.053514	 0.799106	 -0.507916	 0.317153	 2
1462074317.014	 10	 -0.839987	 -1.255111	 -0.624396	 2.134201	 -1.008664	 -0.439391	 -0.060526	 0.799164	 -0.505129	 0.320185	 2
1462074317.024	 10	 -0.623994	 -1.223336	 -0.555641	 2.135890	 -1.009840	 -0.422700	 -0.067064	 0.798713	 -0.502908	 0.323486	 2
1462074317.034	 10	 -0.239696	 -1.040938	 -0.475226	 2.133846	 -1.012185	 -0.412253	 -0.072333	 0.797633	 -0.501961	 0.326472	 2
1462074317.044	 10	 0.219176	 -0.882188	 -0.398878	 2.126799	 -1.016253	 -0.409697	 -0.076141	 0.795713	 -0.502706	 0.329135	 2
1462074317.054	 10	 0.695326	 -0.612398	 -0.403710	 2.115277	 -1.022647	 -0.415133	 -0.078499	 0.792968	 -0.505385	 0.331097	 2
1462074317.064	 10	 1.229935	 -0.307354	 -0.509971	 2.100251	 -1.032233	 -0.428328	 -0.079540	 0.789429	 -0.510283	 0.331793	 2
1462074317.074	 10	 2.277237	 -0.502305	 -0.715938	 2.072267	 -1.047811	 -0.456049	 -0.079896	 0.783370	 -0.519043	 0.332481	 2
1462074317.084	 10	 3.242627	 -1.152796	 -0.851894	 2.021285	 -1.069037	 -0.503265	 -0.080631	 0.773438	 -0.531819	 0.335351	 2
1462074317.094	 10	 3.704939	 -1.743739	 -0.899785	 1.949930	 -1.091784	 -0.565931	 -0.082269	 0.760609	 -0.546544	 0.340582	 2
1462074317.104	 10	 3.815060	 -2.136676	 -0.919321	 1.864451	 -1.112991	 -0.638734	 -0.084861	 0.746167	 -0.561584	 0.347358	 2
1462074317.114	 10	 3.721251	 -2.332181	 -0.929923	 1.770856	 -1.132020	 -0.717173	 -0.088516	 0.731012	 -0.576258	 0.354561	 2
1462074317.124	 10	 3.449160	 -2.330264	 -0.922207	 1.674706	 -1.146508	 -0.797230	 -0.092367	 0.716113	 -0.589621	 0.361936	 2
1462074317.134	 10	 2.964510	 -2.148981	 -0.906709	 1.584342	 -1.157420	 -0.872003	 -0.096498	 0.702431	 -0.601233	 0.368508	 2
1462074317.144	 10	 2.240496	 -1.809571	 -0.889786	 1.508613	 -1.165765	 -0.933806	 -0.100851	 0.691076	 -0.610445	 0.373631	 2
1462074317.154	 10	 1.315304	 -1.348423	 -0.887032	 1.455767	 -1.173241	 -0.975236	 -0.105513	 0.683117	 -0.616662	 0.376758	 2
1462074317.164	 10	 0.631331	 -0.924817	 -0.830241	 1.424267	 -1.180655	 -0.998312	 -0.110085	 0.678319	 -0.620377	 0.378017	 2
1462074317.174	 10	 0.218739	 -0.683680	 -0.745538	 1.406506	 -1.187739	 -1.009554	 -0.114375	 0.675540	 -0.622458	 0.378299	 2
1462074317.184	 10	 -0.019503	 -0.554985	 -0.695373	 1.396994	 -1.194633	 -1.013551	 -0.118501	 0.673939	 -0.623554	 0.378079	 2
1462074317.194	 10	 -0.103753	 -0.540928	 -0.697706	 1.390842	 -1.201627	 -1.014389	 -0.122689	 0.672796	 -0.624228	 0.377666	 2
1462074317.204	 10	 -0.040499	 -0.669061	 -0.741014	 1.382752	 -1.208908	 -1.016334	 -0.127219	 0.671360	 -0.624993	 0.377459	 2
1462074317.214	 10	 0.138406	 -0.929506	 -0.796152	 1.367817	 -1.216409	 -1.023115	 -0.132359	 0.668957	 -0.626206	 0.377946	 2
1462074317.224	 10	 0.370471	 -1.231595	 -0.852140	 1.343037	 -1.223924	 -1.037184	 -0.138189	 0.665224	 -0.628048	 0.379389	 2
1462074317.234	 10	 0.583579	 -1.464626	 -0.926504	 1.308275	 -1.231421	 -1.059091	 -0.144624	 0.660218	 -0.630539	 0.381598	 2
1462074317.244	 10	 0.745858	 -1.606106	 -1.010231	 1.265098	 -1.238926	 -1.088141	 -0.151494	 0.654234	 -0.633593	 0.384172	 2
1462074317.254	 10	 0.863515	 -1.712297	 -1.085781	 1.214864	 -1.246311	 -1.123393	 -0.158715	 0.647503	 -0.637059	 0.386917	 2
1462074317.264	 10	 1.005744	 -1.819563	 -1.153030	 1.157196	 -1.253216	 -1.165292	 -0.166217	 0.640016	 -0.640921	 0.389836	 2
1462074317.273	 10	 1.220505	 -1.936596	 -1.217803	 1.089974	 -1.259028	 -1.215931	 -0.173895	 0.631526	 -0.645345	 0.393021	 2
1462074317.283	 10	 1.476856	 -2.073840	 -1.266074	 1.011794	 -1.262902	 -1.276616	 -0.181641	 0.621809	 -0.650439	 0.396598	 2
1462074317.293	 10	 1.661940	 -2.176709	 -1.296352	 0.925053	 -1.264333	 -1.344989	 -0.189425	 0.611017	 -0.656007	 0.400539	 2
1462074317.303	 10	 1.683424	 -2.141718	 -1.302608	 0.836130	 -1.263605	 -1.415596	 -0.197081	 0.599841	 -0.661656	 0.404427	 2
1462074317.313	 10	 1.476364	 -1.932547	 -1.289267	 0.753036	 -1.262038	 -1.481851	 -0.204427	 0.589367	 -0.666868	 0.407607	 2
1462074317.323	 10	 1.066427	 -1.554443	 -1.236352	 0.682601	 -1.261399	 -1.538382	 -0.211231	 0.580734	 -0.671154	 0.409490	 2
1462074317.333	 10	 0.562188	 -1.085203	 -1.121019	 0.628681	 -1.262965	 -1.582357	 -0.217195	 0.574714	 -0.674224	 0.409821	 2
1462074317.343	 10	 0.104988	 -0.638094	 -0.958342	 0.591373	 -1.266954	 -1.613648	 -0.222147	 0.571368	 -0.676061	 0.408816	 2
1462074317.353	 10	 -0.219939	 -0.214673	 -0.782117	 0.568540	 -1.272713	 -1.634202	 -0.225888	 0.570290	 -0.676963	 0.406773	 2
1462074317.363	 10	 -0.418040	 0.196475	 -0.633754	 0.557453	 -1.279450	 -1.646783	 -0.228232	 0.570993	 -0.677357	 0.403813	 2
1462074317.373	 10	 -0.511261	 0.467780	 -0.513184	 0.554887	 -1.286505	 -1.653774	 -0.229371	 0.572880	 -0.677504	 0.400231	 2
1462074317.383	 10	 -0.451568	 0.390501	 -0.438754	 0.554701	 -1.292950	 -1.658557	 -0.230128	 0.574858	 -0.677541	 0.396885	 2
1462074317.394	 10	 -0.212211	 -0.217562	 -0.444364	 0.546338	 -1.297655	 -1.666885	 -0.232069	 0.575238	 -0.677558	 0.395171	 2
1462074317.403	 10	 0.059134	 -1.039661	 -0.471429	 0.523597	 -1.300061	 -1.681773	 -0.236260	 0.573041	 -0.677488	 0.395998	 2
1462074317.413	 10	 0.149743	 -1.558576	 -0.417364	 0.492774	 -1.300959	 -1.698657	 -0.242157	 0.569149	 -0.677020	 0.398840	 2
1462074317.424	 10	 0.034192	 -1.763355	 -0.247727	 0.464786	 -1.301673	 -1.709850	 -0.248669	 0.565087	 -0.675715	 0.402802	 2
1462074317.433	 10	 -0.264916	 -2.050903	 0.019708	 0.446280	 -1.303492	 -1.708674	 -0.255796	 0.561638	 -0.672845	 0.407936	 2
1462074317.443	 10	 -0.854490	 -2.442351	 0.362243	 0.442661	 -1.308525	 -1.688081	 -0.264321	 0.559457	 -0.667311	 0.414534	 2
1462074317.454	 10	 -1.731249	 -2.508729	 0.827537	 0.466429	 -1.318933	 -1.637429	 -0.273856	 0.560097	 -0.658255	 0.421894	 2
1462074317.463	 10	 -2.717158	 -2.102379	 1.462308	 0.537282	 -1.334406	 -1.541494	 -0.282735	 0.565210	 -0.645469	 0.428915	 2
1462074317.473	 10	 -3.676442	 -1.507619	 2.128441	 0.675307	 -1.351555	 -1.382795	 -0.289850	 0.575422	 -0.629017	 0.434987	 2
1462074317.484	 10	 -4.324544	 -1.001907	 2.521398	 0.881323	 -1.364336	 -1.160631	 -0.295364	 0.589540	 -0.609826	 0.439675	 2
1462074317.494	 10	 -4.389649	 -0.606638	 2.587457	 1.120220	 -1.366413	 -0.909481	 -0.299492	 0.605071	 -0.589898	 0.442961	 2
1462074317.504	 10	 -3.828645	 -0.221161	 2.582963	 1.335295	 -1.355543	 -0.686355	 -0.301422	 0.619860	 -0.571429	 0.445408	 2
1462074317.514	 10	 -2.895748	 0.420238	 2.672464	 1.490743	 -1.334292	 -0.529279	 -0.299483	 0.633200	 -0.556046	 0.447416	 2
1462074317.524	 10	 -2.076445	 1.457256	 2.710150	 1.594296	 -1.307865	 -0.434632	 -0.292641	 0.646077	 -0.544507	 0.447726	 2
1462074317.534	 10	 -1.627639	 2.467597	 2.732696	 1.671017	 -1.279604	 -0.377993	 -0.281586	 0.659600	 -0.536000	 0.445356	 2
1462074317.544	 10	 -1.443090	 3.327764	 2.766804	 1.737058	 -1.250315	 -0.341497	 -0.267348	 0.674235	 -0.529253	 0.440254	 2
1462074317.554	 10	 -1.359125	 3.849413	 2.866845	 1.797524	 -1.219840	 -0.317200	 -0.250830	 0.689729	 -0.523223	 0.433125	 2
1462074317.564	 10	 -1.239079	 3.787797	 3.071985	 1.848373	 -1.187457	 -0.303866	 -0.233057	 0.704933	 -0.516955	 0.426043	 2
1462074317.573	 10	 -1.092747	 3.225901	 3.234938	 1.885648	 -1.153527	 -0.300215	 -0.215334	 0.718597	 -0.509962	 0.420937	 2
1462074317.584	 10	 -1.011360	 2.410684	 3.199999	 1.910452	 -1.119720	 -0.301790	 -0.199174	 0.730033	 -0.502209	 0.418531	 2
1462074317.594	 10	 -1.040294	 1.463417	 2.951640	 1.926219	 -1.087777	 -0.303256	 -0.185956	 0.739075	 -0.493750	 0.418806	 2
1462074317.604	 10	 -1.133965	 0.484476	 2.562869	 1.935208	 -1.058922	 -0.301241	 -0.176616	 0.745715	 -0.484695	 0.421648	 2
1462074317.614	 10	 -1.228991	 -0.303238	 2.142851	 1.939476	 -1.033612	 -0.294831	 -0.171075	 0.750294	 -0.475304	 0.426472	 2
1462074317.624	 10	 -1.255949	 -0.697532	 1.734427	 1.941561	 -1.011995	 -0.285133	 -0.168330	 0.753467	 -0.466136	 0.432052	 2
1462074317.634	 10	 -1.217231	 -0.813806	 1.410082	 1.943077	 -0.993692	 -0.273832	 -0.167253	 0.755814	 -0.457593	 0.437471	 2
1462074317.644	 10	 -1.128910	 -0.684824	 1.192032	 1.945173	 -0.977943	 -0.262562	 -0.166756	 0.757861	 -0.449891	 0.442082	 2
1462074317.654	 10	 -0.981575	 -0.343649	 1.071361	 1.948785	 -0.964005	 -0.252850	 -0.165852	 0.760076	 -0.443217	 0.445349	 2
1462074317.664	 10	 -0.787220	 0.166050	 1.034979	 1.954656	 -0.951231	 -0.246060	 -0.163688	 0.762849	 -0.437733	 0.446829	 2
1462074317.674	 10	 -0.572064	 0.747293	 1.045974	 1.963224	 -0.939238	 -0.242887	 -0.159805	 0.766392	 -0.433504	 0.446295	 2
1462074317.684	 10	 -0.368603	 1.312833	 1.086767	 1.974555	 -0.927705	 -0.243415	 -0.154064	 0.770755	 -0.430427	 0.443772	 2
1462074317.694	 10	 -0.180316	 1.805234	 1.155787	 1.988190	 -0.916376	 -0.247469	 -0.146551	 0.775822	 -0.428305	 0.439520	 2
1462074317.704	 10	 0.013937	 2.202972	 1.227071	 2.003307	 -0.905211	 -0.255079	 -0.137401	 0.781369	 -0.427026	 0.433856	 2
1462074317.714	 10	 0.207315	 2.446223	 1.261755	 2.018701	 -0.894543	 -0.265995	 -0.127031	 0.787013	 -0.426534	 0.427250	 2
1462074317.724	 10	 0.382433	 2.488075	 1.237173	 2.033077	 -0.884831	 -0.279577	 -0.116061	 0.792325	 -0.426752	 0.420278	 2
1462074317.734	 10	 0.532939	 2.358169	 1.131275	 2.045351	 -0.876717	 -0.294736	 -0.105304	 0.796906	 -0.427626	 0.413507	 2
1462074317.744	 10	 0.661586	 2.151464	 0.986485	 2.055087	 -0.870533	 -0.310807	 -0.095194	 0.800595	 -0.429146	 0.407209	 2
1462074317.754	 10	 0.750472	 1.906416	 0.818238	 2.062372	 -0.866357	 -0.327047	 -0.086031	 0.803392	 -0.431229	 0.401499	 2
1462074317.764	 10	 0.816236	 1.751710	 0.631849	 2.068102	 -0.864177	 -0.342889	 -0.077854	 0.805486	 -0.433824	 0.396140	 2
1462074317.774	 10	 0.863598	 1.782009	 0.429223	 2.074283	 -0.864040	 -0.357952	 -0.070400	 0.807279	 -0.436965	 0.390393	 2
1462074317.784	 10	 0.898576	 1.934374	 0.187343	 2.082635	 -0.866164	 -0.371816	 -0.063515	 0.809070	 -0.440704	 0.383603	 2
1462074317.794	 10	 0.950695	 2.137428	 -0.097912	 2.094040	 -0.870993	 -0.384211	 -0.057216	 0.810953	 -0.445164	 0.375382	 2
1462074317.804	 10	 1.040820	 2.274241	 -0.408626	 2.108021	 -0.878971	 -0.395284	 -0.051636	 0.812754	 -0.450509	 0.365795	 2
1462074317.814	 10	 1.162149	 2.252372	 -0.734943	 2.123054	 -0.890398	 -0.405178	 -0.047110	 0.814124	 -0.456835	 0.355366	 2
1462074317.824	 10	 1.335946	 2.046305	 -1.066629	 2.137011	 -0.905574	 -0.414313	 -0.044005	 0.814628	 -0.464282	 0.344801	 2
1462074317.834	 10	 1.606150	 1.682611	 -1.388897	 2.147293	 -0.924853	 -0.423769	 -0.042576	 0.813785	 -0.473111	 0.334824	 2
1462074317.844	 10	 2.110990	 1.199870	 -1.605608	 2.149896	 -0.948667	 -0.437083	 -0.042499	 0.810962	 -0.483945	 0.326085	 2
1462074317.854	 10	 2.825392	 0.430584	 -1.650960	 2.137127	 -0.976928	 -0.460471	 -0.043305	 0.805134	 -0.497474	 0.320005	 2
1462074317.864	 10	 2.796129	 -0.463843	 -1.506624	 2.109578	 -1.005376	 -0.490354	 -0.045602	 0.797101	 -0.511469	 0.317726	 2
1462074317.874	 10	 0.556424	 0.834662	 -0.821728	 2.102517	 -1.020953	 -0.501461	 -0.047076	 0.793886	 -0.518339	 0.314409	 2
1462074317.884	 10	 -1.114594	 1.523196	 0.020931	 2.131627	 -1.017840	 -0.485858	 -0.044956	 0.798533	 -0.515525	 0.307503	 2
1462074317.894	 10	 -0.837430	 -0.074863	 0.501358	 2.145485	 -1.009262	 -0.474224	 -0.043869	 0.801747	 -0.511090	 0.306699	 2
1462074317.904	 10	 -0.001561	 -1.750317	 0.948491	 2.127381	 -1.001096	 -0.479276	 -0.044379	 0.800315	 -0.508652	 0.314323	 2
1462074317.914	 10	 0.690921	 -2.501946	 1.275446	 2.087141	 -0.993303	 -0.499174	 -0.044636	 0.795469	 -0.508283	 0.326932	 2
1462074317.924	 10	 0.869395	 -2.961248	 1.078847	 2.038525	 -0.987294	 -0.523206	 -0.045861	 0.788732	 -0.509190	 0.341358	 2
1462074317.934	 10	 0.382919	 -3.362904	 0.789457	 1.993089	 -0.981894	 -0.538494	 -0.049915	 0.781879	 -0.509006	 0.356492	 2
1462074317.944	 10	 -0.172544	 -3.134649	 0.653606	 1.957131	 -0.975446	 -0.542562	 -0.055614	 0.776248	 -0.506731	 0.370905	 2
1462074317.954	 10	 -0.369430	 -2.191943	 0.475452	 1.934661	 -0.969294	 -0.540172	 -0.060422	 0.772687	 -0.503680	 0.381590	 2
1462074317.964	 10	 -0.534959	 -1.454041	 0.375052	 1.922901	 -0.964088	 -0.534947	 -0.063861	 0.770869	 -0.500665	 0.388608	 2
1462074317.974	 10	 -0.909440	 -1.233608	 0.407008	 1.919234	 -0.957370	 -0.523747	 -0.067111	 0.770566	 -0.496230	 0.394310	 2
1462074317.984	 10	 -1.056543	 -0.143215	 0.227664	 1.927100	 -0.951349	 -0.508613	 -0.069237	 0.772311	 -0.491588	 0.396338	 2
1462074317.994	 10	 -0.933398	 0.405183	 0.218905	 1.941841	 -0.945841	 -0.494275	 -0.069572	 0.775389	 -0.487485	 0.395336	 2
1462074318.004	 10	 -0.572334	 0.578774	 0.102274	 1.955561	 -0.941970	 -0.484178	 -0.069043	 0.778216	 -0.484705	 0.393286	 2
1462074318.014	 10	 0.248732	 0.535284	 -0.282559	 1.961213	 -0.943594	 -0.483792	 -0.068288	 0.779110	 -0.485358	 0.390835	 2
1462074318.024	 10	 0.107406	 1.073539	 -0.769768	 1.970811	 -0.950619	 -0.483056	 -0.068242	 0.780069	 -0.487855	 0.385788	 2
1462074318.034	 10	 -0.509196	 1.638503	 -0.846534	 1.995990	 -0.956906	 -0.471056	 -0.068558	 0.783652	 -0.488511	 0.377554	 2
1462074318.044	 10	 -0.532516	 1.306862	 -0.681027	 2.021775	 -0.961168	 -0.457062	 -0.068936	 0.787415	 -0.488213	 0.369963	 2
1462074318.054	 10	 -0.420571	 0.638133	 -0.450559	 2.039289	 -0.963597	 -0.445791	 -0.069769	 0.789905	 -0.487574	 0.365313	 2
1462074318.064	 10	 0.121590	 -0.303306	 -0.397963	 2.041997	 -0.966921	 -0.441897	 -0.071541	 0.789790	 -0.488094	 0.364523	 2
1462074318.074	 10	 1.012631	 -1.338543	 -0.525128	 2.023961	 -0.974760	 -0.450507	 -0.074691	 0.785690	 -0.491673	 0.367927	 2
1462074318.084	 10	 1.588727	 -1.887314	 -0.724956	 1.990113	 -0.987146	 -0.469595	 -0.079022	 0.778419	 -0.498041	 0.373863	 2
1462074318.094	 10	 1.522178	 -1.663382	 -0.819277	 1.955219	 -1.000716	 -0.490261	 -0.083604	 0.770850	 -0.504922	 0.379280	 2
1462074318.104	 10	 1.227663	 -1.081965	 -0.697266	 1.928019	 -1.012323	 -0.507900	 -0.087091	 0.764892	 -0.510797	 0.382677	 2
1462074318.114	 10	 1.034549	 -0.575678	 -0.480918	 1.907661	 -1.020985	 -0.523708	 -0.088828	 0.760569	 -0.515619	 0.384424	 2
1462074318.124	 10	 0.912405	 -0.276016	 -0.421647	 1.891901	 -1.028020	 -0.538188	 -0.089503	 0.757297	 -0.519845	 0.385034	 2
1462074318.134	 10	 0.869817	 -0.130191	 -0.570192	 1.879126	 -1.035703	 -0.551257	 -0.090201	 0.754477	 -0.524091	 0.384651	 2
1462074318.144	 10	 0.898783	 -0.128773	 -0.802767	 1.867220	 -1.045444	 -0.563646	 -0.091614	 0.751568	 -0.528807	 0.383557	 2
1462074318.154	 10	 0.932467	 -0.241322	 -1.055627	 1.854687	 -1.057591	 -0.575739	 -0.094109	 0.748266	 -0.534071	 0.382111	 2
1462074318.164	 10	 0.991348	 -0.466473	 -1.278848	 1.839775	 -1.072057	 -0.588158	 -0.097918	 0.744290	 -0.539852	 0.380794	 2
1462074318.174	 10	 1.086645	 -0.735781	 -1.416470	 1.820571	 -1.088190	 -0.602347	 -0.102866	 0.739444	 -0.546088	 0.380040	 2
1462074318.184	 10	 1.190041	 -0.943865	 -1.468331	 1.796144	 -1.105118	 -0.619680	 -0.108495	 0.733755	 -0.552684	 0.379965	 2
1462074318.194	 10	 1.185212	 -1.042935	 -1.491592	 1.768531	 -1.122145	 -0.639028	 -0.114505	 0.727663	 -0.559292	 0.380246	 2
1462074318.204	 10	 1.116988	 -1.032056	 -1.485568	 1.740212	 -1.138888	 -0.658842	 -0.120673	 0.721615	 -0.565634	 0.380484	 2
1462074318.214	 10	 1.023842	 -0.930216	 -1.413469	 1.712593	 -1.154691	 -0.678628	 -0.126559	 0.715922	 -0.571542	 0.380497	 2
1462074318.224	 10	 0.923795	 -0.746128	 -1.295783	 1.686918	 -1.169057	 -0.697914	 -0.131782	 0.710834	 -0.576920	 0.380146	 2
1462074318.234	 10	 0.901812	 -0.532452	 -1.173172	 1.662563	 -1.181959	 -0.717968	 -0.136026	 0.706305	 -0.582008	 0.379336	 2
1462074318.244	 10	 0.961551	 -0.414736	 -1.050034	 1.637050	 -1.193481	 -0.740793	 -0.139318	 0.701987	 -0.587072	 0.378352	 2
1462074318.254	 10	 1.059904	 -0.462162	 -0.950084	 1.607450	 -1.203736	 -0.767828	 -0.142070	 0.697418	 -0.592221	 0.377755	 2
1462074318.264	 10	 1.158674	 -0.619379	 -0.883133	 1.572217	 -1.212920	 -0.799351	 -0.144755	 0.692311	 -0.597446	 0.377902	 2
1462074318.274	 10	 1.230347	 -0.831058	 -0.856951	 1.531151	 -1.221309	 -0.834863	 -0.147756	 0.686573	 -0.602694	 0.378875	 2
1462074318.284	 10	 1.271162	 -1.026666	 -0.827153	 1.484834	 -1.228847	 -0.873639	 -0.151184	 0.680256	 -0.607863	 0.380654	 2
1462074318.294	 10	 1.266473	 -1.138137	 -0.800440	 1.435368	 -1.235468	 -0.914288	 -0.154889	 0.673643	 -0.612847	 0.382927	 2
1462074318.304	 10	 1.212923	 -1.185781	 -0.791891	 1.384809	 -1.241332	 -0.955315	 -0.158810	 0.666982	 -0.617561	 0.385398	 2
1462074318.314	 10	 1.136321	 -1.154550	 -0.769618	 1.334969	 -1.246522	 -0.995622	 -0.162773	 0.660517	 -0.621967	 0.387788	 2
1462074318.324	 10	 1.017250	 -1.097493	 -0.723289	 1.287809	 -1.250941	 -1.033650	 -0.166609	 0.654479	 -0.625937	 0.390001	 2
1462074318.334	 10	 0.837935	 -1.134986	 -0.685840	 1.244630	 -1.254884	 -1.067305	 -0.170648	 0.648926	 -0.629229	 0.392231	 2
1462074318.344	 10	 0.633431	 -1.271642	 -0.692792	 1.205274	 -1.259045	 -1.095756	 -0.175404	 0.643752	 -0.631735	 0.394624	 2
1462074318.354	 10	 0.451868	 -1.503190	 -0.722141	 1.168111	 -1.263803	 -1.119635	 -0.181270	 0.638692	 -0.633452	 0.397432	 2
1462074318.364	 10	 0.302317	 -1.731674	 -0.756004	 1.131830	 -1.269261	 -1.140079	 -0.188297	 0.633588	 -0.634464	 0.400706	 2
1462074318.374	 10	 0.224865	 -1.858051	 -0.760768	 1.095566	 -1.275038	 -1.158819	 -0.196042	 0.628401	 -0.634990	 0.404310	 2
1462074318.384	 10	 0.226056	 -1.851502	 -0.737271	 1.058890	 -1.280520	 -1.177681	 -0.203826	 0.623181	 -0.635322	 0.408002	 2
1462074318.394	 10	 0.302661	 -1.676217	 -0.735241	 1.020801	 -1.285433	 -1.199327	 -0.211039	 0.617975	 -0.635902	 0.411337	 2
1462074318.404	 10	 0.344871	 -1.328512	 -0.731307	 0.983155	 -1.289780	 -1.223726	 -0.217119	 0.613174	 -0.636940	 0.413743	 2
1462074318.414	 10	 0.305180	 -0.991674	 -0.645764	 0.949985	 -1.293510	 -1.247119	 -0.221921	 0.609206	 -0.638136	 0.415212	 2
1462074318.424	 10	 0.243703	 -0.812700	 -0.483688	 0.923104	 -1.296228	 -1.266248	 -0.225693	 0.606028	 -0.639071	 0.416391	 2
1462074318.434	 10	 0.183931	 -0.712539	 -0.336226	 0.902054	 -1.297920	 -1.280473	 -0.228741	 0.603433	 -0.639612	 0.417663	 2
1462074318.444	 10	 0.097330	 -0.608352	 -0.231124	 0.886585	 -1.299158	 -1.289945	 -0.231289	 0.601424	 -0.639782	 0.418895	 2
1462074318.454	 10	 0.005595	 -0.470042	 -0.116067	 0.877447	 -1.300100	 -1.294152	 -0.233292	 0.600103	 -0.639576	 0.419992	 2
1462074318.464	 10	 -0.025384	 -0.316222	 -0.037631	 0.873120	 -1.300670	 -1.294941	 -0.234647	 0.599352	 -0.639218	 0.420855	 2
1462074318.474	 10	 -0.044103	 -0.115096	 0.115742	 0.874262	 -1.300371	 -1.292039	 -0.235042	 0.599217	 -0.638750	 0.421535	 2
1462074318.484	 10	 -0.080939	 0.051332	 0.316909	 0.882364	 -1.298768	 -1.283778	 -0.234347	 0.599775	 -0.638005	 0.422258	 2
1462074318.494	 10	 -0.191914	 0.114773	 0.513500	 0.898396	 -1.296131	 -1.268243	 -0.232936	 0.601060	 -0.636659	 0.423243	 2
1462074318.504	 10	 -0.310391	 -0.031494	 0.682626	 0.920250	 -1.292848	 -1.245754	 -0.231551	 0.602742	 -0.634486	 0.424870	 2
1462074318.514	 10	 -0.423855	 -0.316499	 0.935679	 0.946867	 -1.288174	 -1.215494	 -0.230536	 0.604475	 -0.631147	 0.427921	 2
1462074318.524	 10	 -0.558876	 -0.516589	 1.302681	 0.980015	 -1.281309	 -1.175932	 -0.229541	 0.606472	 -0.626422	 0.432547	 2
1462074318.534	 10	 -0.660711	 -0.498476	 1.705529	 1.021304	 -1.271227	 -1.127461	 -0.227637	 0.609196	 -0.620393	 0.438376	 2
1462074318.544	 10	 -0.712229	 -0.420116	 2.076526	 1.067447	 -1.257590	 -1.074347	 -0.224512	 0.612604	 -0.613365	 0.445077	 2
1462074318.554	 10	 -0.799154	 -0.139705	 2.428396	 1.118184	 -1.240313	 -1.018553	 -0.219704	 0.617070	 -0.605486	 0.452041	 2
1462074318.564	 10	 -1.218780	 0.278174	 2.682129	 1.177847	 -1.220785	 -0.957088	 -0.213491	 0.623513	 -0.596389	 0.458227	 2
1462074318.574	 10	 -1.778106	 0.477477	 2.952097	 1.250722	 -1.199620	 -0.883984	 -0.206991	 0.632529	 -0.584946	 0.463573	 2
1462074318.584	 10	 -1.567451	 0.617705	 3.160457	 1.317786	 -1.174440	 -0.817919	 -0.199267	 0.641851	 -0.572984	 0.469051	 2
1462074318.594	 10	 -0.986481	 0.829622	 3.284197	 1.367749	 -1.145227	 -0.771759	 -0.189244	 0.650047	 -0.562360	 0.474739	 2
1462074318.604	 10	 -0.529631	 1.196144	 3.410455	 1.404934	 -1.113319	 -0.742896	 -0.176657	 0.657518	 -0.553298	 0.479920	 2
1462074318.614	 10	 -0.395080	 1.394866	 3.734059	 1.436971	 -1.077860	 -0.722085	 -0.161877	 0.665001	 -0.544278	 0.485109	 2
1462074318.624	 10	 -0.414237	 1.572883	 4.073729	 1.467650	 -1.038688	 -0.704352	 -0.145396	 0.672860	 -0.534370	 0.490478	 2
1462074318.634	 10	 -0.574562	 1.857270	 4.210991	 1.499964	 -0.997454	 -0.687357	 -0.127813	 0.681519	 -0.523479	 0.495142	 2
1462074318.644	 10	 -0.632517	 2.155978	 4.311260	 1.533663	 -0.955039	 -0.671914	 -0.109288	 0.690894	 -0.511900	 0.498678	 2
1462074318.654	 10	 -0.518623	 2.273044	 4.366777	 1.564817	 -0.911574	 -0.661127	 -0.089811	 0.700073	 -0.500210	 0.501619	 2
1462074318.664	 10	 -0.473355	 2.532958	 4.439142	 1.594660	 -0.867337	 -0.654152	 -0.069407	 0.709155	 -0.488385	 0.503748	 2
1462074318.674	 10	 -0.554620	 3.040828	 4.332670	 1.627779	 -0.823428	 -0.648794	 -0.048114	 0.719055	 -0.476323	 0.503747	 2
1462074318.684	 10	 -0.736728	 3.278254	 4.145694	 1.664022	 -0.781139	 -0.643529	 -0.027026	 0.729604	 -0.463930	 0.501714	 2
1462074318.694	 10	 -0.978489	 3.208311	 4.083202	 1.700780	 -0.739554	 -0.637340	 -0.006869	 0.740157	 -0.450650	 0.499035	 2
1462074318.704	 10	 -1.138164	 2.990514	 3.905649	 1.735796	 -0.698471	 -0.630349	 0.011931	 0.750168	 -0.436500	 0.496562	 2
1462074318.714	 10	 -0.744141	 2.776415	 3.142469	 1.766121	 -0.663781	 -0.627038	 0.028546	 0.758698	 -0.424583	 0.493247	 2
1462074318.724	 10	 -0.121681	 2.325727	 2.407072	 1.788754	 -0.638170	 -0.630279	 0.042798	 0.764858	 -0.416816	 0.489311	 2
1462074318.734	 10	 0.141043	 2.055887	 1.970640	 1.805590	 -0.618217	 -0.637305	 0.055346	 0.769239	 -0.411659	 0.485536	 2
1462074318.744	 10	 0.287199	 2.048166	 1.698592	 1.821435	 -0.601704	 -0.645175	 0.066848	 0.773151	 -0.407672	 0.481219	 2
1462074318.754	 10	 0.647263	 2.041734	 1.544058	 1.835710	 -0.587916	 -0.656506	 0.078463	 0.776387	 -0.405313	 0.476223	 2
1462074318.764	 10	 0.857099	 1.720006	 1.557356	 1.845827	 -0.575173	 -0.670965	 0.090098	 0.778346	 -0.404082	 0.471994	 2
1462074318.774	 10	 0.850715	 1.331293	 1.486651	 1.852270	 -0.563043	 -0.685676	 0.100885	 0.779275	 -0.403194	 0.469029	 2
1462074318.784	 10	 0.760741	 0.807214	 1.488952	 1.854429	 -0.550985	 -0.699439	 0.110406	 0.779119	 -0.402281	 0.467926	 2
1462074318.794	 10	 0.720051	 0.293887	 1.527161	 1.851780	 -0.538450	 -0.712518	 0.118832	 0.777760	 -0.401318	 0.468948	 2
1462074318.804	 10	 0.714104	 -0.011782	 1.467883	 1.845912	 -0.526049	 -0.725277	 0.126441	 0.775550	 -0.400552	 0.471268	 2
1462074318.814	 10	 0.635578	 -0.219193	 1.288654	 1.838445	 -0.514953	 -0.736777	 0.132834	 0.772942	 -0.400076	 0.474189	 2
1462074318.824	 10	 0.356516	 -0.410032	 1.113457	 1.830774	 -0.504931	 -0.745104	 0.137625	 0.770422	 -0.399265	 0.477595	 2
1462074318.834	 10	 -0.215762	 -0.758606	 0.922293	 1.823145	 -0.495415	 -0.747369	 0.139940	 0.768275	 -0.397202	 0.482079	 2
1462074318.844	 10	 -0.988580	 -1.152833	 0.808120	 1.815567	 -0.485446	 -0.740977	 0.139104	 0.766693	 -0.392895	 0.488329	 2
1462074318.854	 10	 -1.625919	 -1.597110	 0.740260	 1.807253	 -0.474592	 -0.726785	 0.135448	 0.765401	 -0.386385	 0.496510	 2
1462074318.864	 10	 -2.004451	 -1.957837	 0.711424	 1.797198	 -0.463225	 -0.707617	 0.129773	 0.763916	 -0.378475	 0.506308	 2
1462074318.874	 10	 -2.201850	 -2.200628	 0.738593	 1.785256	 -0.451374	 -0.685911	 0.123008	 0.761985	 -0.369728	 0.517251	 2
1462074318.884	 10	 -2.292002	 -2.276157	 0.700308	 1.772536	 -0.439644	 -0.662874	 0.115654	 0.759792	 -0.360541	 0.528536	 2
1462074318.894	 10	 -2.306807	 -2.361111	 0.566426	 1.759121	 -0.429258	 -0.639244	 0.107630	 0.757318	 -0.351494	 0.539757	 2
1462074318.904	 10	 -2.331119	 -2.423714	 0.430703	 1.744952	 -0.420527	 -0.615087	 0.098858	 0.754531	 -0.342702	 0.550877	 2
1462074318.914	 10	 -2.342374	 -2.458484	 0.324967	 1.730479	 -0.413185	 -0.590452	 0.089520	 0.751531	 -0.334058	 0.561777	 2
1462074318.924	 10	 -2.260789	 -2.555748	 0.292445	 1.714815	 -0.406804	 -0.566275	 0.079963	 0.748004	 -0.325713	 0.572719	 2
1462074318.934	 10	 -2.105224	 -2.619911	 0.307545	 1.697634	 -0.400896	 -0.543611	 0.070699	 0.743798	 -0.317817	 0.583745	 2
1462074318.944	 10	 -1.975795	 -2.570182	 0.323933	 1.679936	 -0.395362	 -0.522432	 0.061913	 0.739207	 -0.310305	 0.594517	 2
1462074318.954	 10	 -1.914002	 -2.399892	 0.364413	 1.663276	 -0.389942	 -0.502082	 0.053683	 0.734728	 -0.302868	 0.604618	 2
1462074318.964	 10	 -1.916617	 -2.189148	 0.530524	 1.648438	 -0.383545	 -0.481949	 0.046260	 0.730633	 -0.294964	 0.614030	 2
1462074318.974	 10	 -1.949565	 -1.964543	 0.835578	 1.635749	 -0.374657	 -0.461689	 0.040069	 0.727047	 -0.286000	 0.622898	 2
1462074318.984	 10	 -1.992762	 -1.739141	 1.246238	 1.625189	 -0.362104	 -0.441200	 0.035464	 0.723991	 -0.275573	 0.631379	 2
1462074318.994	 10	 -1.998029	 -1.623350	 1.664075	 1.615862	 -0.345506	 -0.420731	 0.032539	 0.721204	 -0.263661	 0.639757	 2
1462074319.004	 10	 -1.956343	 -1.685737	 2.024425	 1.605892	 -0.325348	 -0.400700	 0.031036	 0.718095	 -0.250590	 0.648522	 2
1462074319.014	 10	 -1.850418	 -1.857431	 2.297937	 1.593627	 -0.302452	 -0.381641	 0.030696	 0.714111	 -0.236840	 0.658036	 2
1462074319.024	 10	 -1.786307	 -1.982956	 2.467798	 1.579323	 -0.277863	 -0.363286	 0.031142	 0.709316	 -0.222687	 0.668065	 2
1462074319.034	 10	 -1.788436	 -2.072573	 2.575691	 1.563654	 -0.252352	 -0.344827	 0.031940	 0.703933	 -0.208126	 0.678337	 2
1462074319.044	 10	 -1.812027	 -2.183431	 2.679309	 1.546606	 -0.226097	 -0.325799	 0.032903	 0.697948	 -0.193070	 0.688847	 2
1462074319.054	 10	 -1.800582	 -2.323190	 2.771696	 1.527869	 -0.199219	 -0.306381	 0.034065	 0.691236	 -0.177631	 0.699628	 2
1462074319.064	 10	 -1.741582	 -2.539863	 2.837375	 1.506597	 -0.171956	 -0.286984	 0.035463	 0.683475	 -0.162061	 0.710873	 2
1462074319.074	 10	 -1.566155	 -2.672324	 2.829286	 1.483021	 -0.144886	 -0.268408	 0.037236	 0.674716	 -0.146859	 0.722360	 2
1462074319.084	 10	 -1.251105	 -2.772824	 2.738216	 1.457775	 -0.118748	 -0.252250	 0.039724	 0.665153	 -0.132872	 0.733716	 2
1462074319.094	 10	 -0.894267	 -2.840452	 2.650284	 1.430804	 -0.093452	 -0.238992	 0.043102	 0.654736	 -0.120305	 0.744976	 2
1462074319.104	 10	 -0.494471	 -2.839170	 2.548765	 1.403263	 -0.068965	 -0.229150	 0.047589	 0.643862	 -0.109375	 0.755787	 2
1462074319.114	 10	 -0.081866	 -2.934935	 2.563465	 1.374595	 -0.044196	 -0.222697	 0.053508	 0.632265	 -0.099802	 0.766431	 2
1462074319.124	 10	 0.287021	 -3.114866	 2.687536	 1.344041	 -0.017866	 -0.219100	 0.061115	 0.619576	 -0.091083	 0.777235	 2
1462074319.134	 10	 0.561418	 -3.239856	 2.869427	 1.311916	 0.010733	 -0.217142	 0.070316	 0.605858	 -0.082614	 0.788141	 2
1462074319.144	 10	 0.773939	 -3.328774	 3.013824	 1.278797	 0.041412	 -0.216005	 0.080825	 0.591318	 -0.074198	 0.798940	 2
1462074319.154	 10	 0.884875	 -3.366095	 3.045549	 1.245153	 0.073054	 -0.214994	 0.092018	 0.576194	 -0.065930	 0.809436	 2
1462074319.164	 10	 0.886511	 -3.508309	 3.088974	 1.210251	 0.104992	 -0.212998	 0.103296	 0.560276	 -0.057621	 0.819817	 2
1462074319.174	 10	 0.908574	 -3.487914	 2.977067	 1.174813	 0.136354	 -0.210222	 0.114403	 0.543915	 -0.049582	 0.829825	 2
1462074319.184	 10	 0.957877	 -3.254627	 2.752867	 1.141263	 0.165908	 -0.207547	 0.125117	 0.528187	 -0.042359	 0.838791	 2
1462074319.194	 10	 1.015492	 -3.054464	 2.511234	 1.109855	 0.193427	 -0.205479	 0.135424	 0.513237	 -0.036152	 0.846724	 2
1462074319.204	 10	 0.996571	 -2.837714	 2.325841	 1.080540	 0.219055	 -0.203589	 0.145211	 0.499113	 -0.030689	 0.853732	 2
1462074319.214	 10	 0.857137	 -2.664760	 2.212497	 1.052817	 0.243024	 -0.200554	 0.154203	 0.485730	 -0.025322	 0.860027	 2
1462074319.224	 10	 0.615773	 -2.564210	 2.047143	 1.025735	 0.264521	 -0.195676	 0.161870	 0.472842	 -0.019972	 0.865921	 2
1462074319.234	 10	 0.302668	 -2.510285	 1.876652	 0.998679	 0.282797	 -0.188543	 0.167796	 0.460316	 -0.014630	 0.871631	 2
1462074319.244	 10	 -0.030914	 -2.643311	 1.878318	 0.969594	 0.298674	 -0.178112	 0.172103	 0.447308	 -0.008752	 0.877621	 2
1462074319.254	 10	 -0.283425	 -2.721801	 1.806249	 0.938567	 0.312281	 -0.165087	 0.175057	 0.433789	 -0.002553	 0.883841	 2
1462074319.264	 10	 -0.419417	 -2.731732	 1.701830	 0.906822	 0.323671	 -0.150791	 0.177001	 0.420172	 0.003552	 0.890008	 2
1462074319.274	 10	 -0.381899	 -2.855797	 1.622548	 0.874102	 0.333886	 -0.136592	 0.178682	 0.406138	 0.009201	 0.896125	 2
1462074319.284	 10	 -0.185904	 -3.113102	 1.567291	 0.839377	 0.344243	 -0.123678	 0.180920	 0.391021	 0.014054	 0.902315	 2
1462074319.294	 10	 0.107109	 -3.400389	 1.523699	 0.802352	 0.355689	 -0.112787	 0.184266	 0.374552	 0.017903	 0.908535	 2
1462074319.304	 10	 0.435589	 -3.624053	 1.467601	 0.763569	 0.368628	 -0.104208	 0.188921	 0.356912	 0.020678	 0.914601	 2
1462074319.314	 10	 0.792620	 -3.786346	 1.528955	 0.727270	 0.367428	 -0.098794	 0.187795	 0.340831	 0.019524	 0.920970	 2
1462074319.324	 10	 1.159859	 -3.808271	 1.587367	 0.687124	 0.385830	 -0.093295	 0.195736	 0.321817	 0.021419	 0.926101	 2
1462074319.334	 10	 1.484984	 -3.556970	 1.465378	 0.649440	 0.406238	 -0.089926	 0.205035	 0.303576	 0.022571	 0.930211	 2
1462074319.344	 10	 1.729365	 -3.114971	 1.207317	 0.616996	 0.427268	 -0.089511	 0.215077	 0.287390	 0.022649	 0.933079	 2
1462074319.354	 10	 1.925418	 -2.712399	 0.919469	 0.590094	 0.448374	 -0.092243	 0.225552	 0.273400	 0.021568	 0.934833	 2
1462074319.364	 10	 2.048522	 -2.396778	 0.638907	 0.567892	 0.469183	 -0.098002	 0.236216	 0.261216	 0.019308	 0.935733	 2
1462074319.374	 10	 2.114671	 -2.149192	 0.340090	 0.549858	 0.489152	 -0.106520	 0.246743	 0.250620	 0.015933	 0.935978	 2
1462074319.384	 10	 2.155202	 -2.157614	 0.075350	 0.533731	 0.508303	 -0.117822	 0.257131	 0.240516	 0.011219	 0.935900	 2
1462074319.394	 10	 2.066275	 -2.064142	 -0.124435	 0.519225	 0.526018	 -0.130719	 0.266928	 0.230938	 0.005644	 0.935620	 2
1462074319.404	 10	 1.869642	 -2.019776	 -0.245939	 0.505682	 0.541711	 -0.143922	 0.275709	 0.221786	 -0.000318	 0.935305	 2
1462074319.414	 10	 1.549418	 -1.998928	 -0.286632	 0.491901	 0.554735	 -0.155982	 0.283022	 0.212768	 -0.006211	 0.935195	 2
1462074319.424	 10	 1.145470	 -1.913517	 -0.258873	 0.477680	 0.564516	 -0.165669	 0.288490	 0.204044	 -0.011544	 0.935418	 2
1462074319.434	 10	 0.838448	 -1.856145	 -0.245008	 0.462907	 0.571475	 -0.173103	 0.292348	 0.195552	 -0.016311	 0.935963	 2
1462074319.444	 10	 0.708483	 -1.755170	 -0.306883	 0.448906	 0.576735	 -0.179995	 0.295310	 0.187601	 -0.020963	 0.936567	 2
1462074319.454	 10	 0.761206	 -1.821857	 -0.387895	 0.435302	 0.581840	 -0.187763	 0.298225	 0.179698	 -0.026021	 0.937066	 2
1462074319.464	 10	 0.894482	 -2.023702	 -0.447419	 0.420361	 0.587850	 -0.196719	 0.301576	 0.170900	 -0.031769	 0.937463	 2
1462074319.474	 10	 1.084167	 -2.258675	 -0.505611	 0.404464	 0.595339	 -0.207149	 0.305629	 0.161289	 -0.038234	 0.937611	 2
1462074319.484	 10	 1.269794	 -2.687109	 -0.549581	 0.385132	 0.604642	 -0.218811	 0.310435	 0.149698	 -0.045669	 0.937622	 2
1462074319.494	 10	 1.247916	 -2.972559	 -0.613861	 0.363142	 0.614254	 -0.231329	 0.315229	 0.136659	 -0.053971	 0.937572	 2
1462074319.504	 10	 0.983255	 -3.022406	 -0.554469	 0.339379	 0.622231	 -0.242463	 0.318952	 0.123100	 -0.062158	 0.937685	 2
1462074319.514	 10	 0.608638	 -3.133160	 -0.431807	 0.313426	 0.627406	 -0.250638	 0.320967	 0.109194	 -0.069651	 0.938193	 2
1462074319.524	 10	 0.368227	 -3.245828	 -0.372145	 0.284368	 0.630214	 -0.256636	 0.321509	 0.094362	 -0.076882	 0.939051	 2
1462074319.534	 10	 0.382567	 -2.944664	 -0.343889	 0.257231	 0.632785	 -0.262043	 0.321851	 0.080536	 -0.083571	 0.939650	 2
1462074319.544	 10	 0.534047	 -2.628152	 -0.197319	 0.232913	 0.636969	 -0.266453	 0.322909	 0.068061	 -0.089237	 0.939752	 2
1462074319.554	 10	 0.653642	 -2.562109	 0.011143	 0.208585	 0.643032	 -0.268670	 0.324685	 0.055786	 -0.093777	 0.939507	 2
1462074319.564	 10	 0.641448	 -2.585215	 0.193280	 0.182632	 0.649714	 -0.268386	 0.326548	 0.043118	 -0.097421	 0.939157	 2
1462074319.574	 10	 0.603121	 -2.601810	 0.236090	 0.155639	 0.656126	 -0.266738	 0.328168	 0.030226	 -0.100675	 0.938753	 2
1462074319.584	 10	 0.563918	 -2.467262	 0.147089	 0.130073	 0.661519	 -0.265875	 0.329363	 0.017971	 -0.104177	 0.938267	 2
1462074319.594	 10	 0.302008	 -1.806666	 0.054269	 0.109902	 0.665332	 -0.265484	 0.330073	 0.008299	 -0.107129	 0.937820	 2
1462074319.604	 10	 0.144272	 -1.264165	 -0.001127	 0.096535	 0.666569	 -0.265778	 0.329928	 0.001896	 -0.109416	 0.937642	 2
1462074319.614	 10	 0.086392	 -1.095905	 0.004131	 0.086378	 0.666532	 -0.266526	 0.329349	 -0.002987	 -0.111443	 0.937604	 2
1462074319.624	 10	 -0.110164	 -0.961924	 0.065684	 0.079298	 0.663842	 -0.267935	 0.327692	 -0.006351	 -0.113377	 0.937936	 2
1462074319.634	 10	 -0.436336	 -0.737949	 0.165461	 0.070012	 0.660437	 -0.265833	 0.325581	 -0.010129	 -0.114040	 0.938557	 2
1462074319.644	 10	 -0.728515	 -0.534394	 0.249831	 0.062132	 0.653968	 -0.262374	 0.322123	 -0.012832	 -0.113929	 0.939730	 2
1462074319.654	 10	 -0.833237	 -0.549104	 0.232488	 0.054603	 0.645924	 -0.258697	 0.317947	 -0.015252	 -0.113682	 0.941145	 2
1462074319.664	 10	 -0.761915	 -0.684440	 0.079270	 0.046855	 0.638127	 -0.256664	 0.313859	 -0.018073	 -0.114200	 0.942403	 2
1462074319.674	 10	 -0.580352	 -0.720391	 -0.111286	 0.039930	 0.631794	 -0.257116	 0.310477	 -0.021002	 -0.115685	 0.943282	 2
1462074319.684	 10	 -0.352448	 -0.689221	 -0.267515	 0.034537	 0.627611	 -0.259807	 0.308162	 -0.023694	 -0.117909	 0.943701	 2
1462074319.694	 10	 -0.135880	 -0.627762	 -0.358353	 0.030491	 0.625632	 -0.263925	 0.306936	 -0.026108	 -0.120529	 0.943706	 2
1462074319.704	 10	 -0.005354	 -0.543182	 -0.375755	 0.027535	 0.625213	 -0.268532	 0.306496	 -0.028182	 -0.123167	 0.943449	 2
1462074319.714	 10	 0.013443	 -0.435544	 -0.338681	 0.025416	 0.625269	 -0.272853	 0.306328	 -0.029847	 -0.125528	 0.943141	 2
1462074319.724	 10	 -0.040159	 -0.333715	 -0.252006	 0.023793	 0.624957	 -0.276239	 0.306028	 -0.031110	 -0.127382	 0.942949	 2
1462074319.734	 10	 -0.105225	 -0.223972	 -0.105474	 0.022259	 0.624034	 -0.278005	 0.305467	 -0.032041	 -0.128474	 0.942952	 2
1462074319.754	 11	 -0.092675	 0.277835	 0.309404	 0.021395	 0.621673	 -0.274298	 0.304358	 -0.031725	 -0.126919	 0.943531	 2
1462074319.764	 11	 0.045580	 0.500829	 0.461614	 0.022901	 0.621836	 -0.269038	 0.304611	 -0.030224	 -0.124203	 0.943860	 2
1462074319.784	 12	 0.378001	 0.549327	 0.536971	 0.026563	 0.627305	 -0.256280	 0.307593	 -0.026894	 -0.117480	 0.943855	 2
1462074319.794	 12	 0.485399	 0.471334	 0.532113	 0.027701	 0.632068	 -0.249811	 0.309989	 -0.025654	 -0.114129	 0.943517	 2
1462074319.804	 12	 0.536966	 0.344384	 0.500642	 0.027828	 0.637488	 -0.243669	 0.312627	 -0.024967	 -0.111073	 0.943029	 2
1462074319.814	 12	 0.514966	 0.228315	 0.473109	 0.026935	 0.642868	 -0.237891	 0.315183	 -0.024799	 -0.108353	 0.942499	 2
1462074319.824	 12	 0.451607	 0.136042	 0.483460	 0.024992	 0.647662	 -0.232054	 0.317408	 -0.025068	 -0.105792	 0.942036	 2
1462074319.834	 12	 0.420521	 0.074720	 0.521527	 0.022069	 0.652039	 -0.225772	 0.319394	 -0.025689	 -0.103195	 0.941636	 2
1462074319.844	 12	 0.435616	 0.055977	 0.583036	 0.018358	 0.656438	 -0.218737	 0.321367	 -0.026547	 -0.100379	 0.941245	 2
1462074319.854	 12	 0.480769	 0.062773	 0.658375	 0.014074	 0.661230	 -0.210751	 0.323516	 -0.027525	 -0.097210	 0.940813	 2
1462074319.874	 13	 0.545262	 0.042335	 0.799370	 0.004073	 0.672147	 -0.192266	 0.328444	 -0.029740	 -0.089946	 0.939761	 2
1462074319.884	 13	 0.534577	 -0.031472	 0.884037	 -0.003032	 0.677497	 -0.181091	 0.330816	 -0.031472	 -0.085785	 0.939261	 2
1462074319.904	 14	 0.493541	 -0.097436	 0.571512	 -0.017855	 0.687558	 -0.161908	 0.335251	 -0.035632	 -0.079130	 0.938124	 2
1462074319.914	 14	 0.462284	 0.021252	 0.352276	 -0.021265	 0.692187	 -0.156654	 0.337384	 -0.036513	 -0.077199	 0.937486	 2
1462074319.924	 14	 0.432535	 0.093284	 0.299917	 -0.023093	 0.696512	 -0.152538	 0.339417	 -0.036822	 -0.075545	 0.936874	 2
1462074319.934	 14	 0.387642	 0.079576	 0.298049	 -0.024809	 0.700443	 -0.148510	 0.341270	 -0.037071	 -0.073922	 0.936321	 2
1462074319.944	 14	 0.313663	 0.015899	 0.287443	 -0.027001	 0.703707	 -0.144606	 0.342791	 -0.037535	 -0.072449	 0.935861	 2
1462074319.954	 14	 0.233313	 -0.068793	 0.309735	 -0.030095	 0.706145	 -0.140559	 0.343899	 -0.038363	 -0.071073	 0.935527	 2
1462074319.964	 14	 0.185064	 -0.151314	 0.350952	 -0.034379	 0.707970	 -0.135968	 0.344692	 -0.039630	 -0.069655	 0.935289	 2
1462074319.974	 14	 0.211160	 -0.256844	 0.329493	 -0.039642	 0.709855	 -0.131409	 0.345484	 -0.041357	 -0.068426	 0.935012	 2
1462074319.984	 14	 0.301349	 -0.327649	 0.282221	 -0.045422	 0.712481	 -0.127374	 0.346602	 -0.043430	 -0.067537	 0.934569	 2
1462074319.994	 14	 0.461258	 -0.319982	 0.230810	 -0.050984	 0.716527	 -0.123869	 0.348385	 -0.045522	 -0.066867	 0.933855	 2
1462074320.004	 14	 0.625833	 -0.232522	 0.184363	 -0.055540	 0.722293	 -0.120884	 0.350997	 -0.047264	 -0.066280	 0.932831	 2
1462074320.014	 14	 0.725717	 -0.077702	 0.160421	 -0.058534	 0.729244	 -0.118143	 0.354208	 -0.048335	 -0.065549	 0.931614	 2
1462074320.024	 14	 0.730560	 0.051975	 0.150928	 -0.060066	 0.736491	 -0.115505	 0.357600	 -0.048737	 -0.064618	 0.930361	 2
1462074320.034	 14	 0.635835	 0.118091	 0.136382	 -0.060661	 0.743033	 -0.113045	 0.360686	 -0.048711	 -0.063606	 0.929240	 2
1462074320.044	 14	 0.499190	 0.133167	 0.106805	 -0.060754	 0.748313	 -0.111056	 0.363187	 -0.048503	 -0.062719	 0.928337	 2
1462074320.054	 14	 0.320080	 0.221641	 0.055905	 -0.050561	 0.759832	 -0.115986	 0.368740	 -0.044923	 -0.063169	 0.926295	 2
1462074320.064	 14	 0.199346	 0.239660	 -0.001493	 -0.048414	 0.762105	 -0.115670	 0.369868	 -0.043921	 -0.062628	 0.925930	 2
1462074320.084	 15	 0.080139	 0.112104	 -0.038944	 -0.044196	 0.764140	 -0.116368	 0.370928	 -0.042144	 -0.062170	 0.925619	 2
