% Gyrometer data recorded with 'snsrlog'
% 
% 
% Label description:
% 	 0: Default Label
% 	 1: still_drop
% 	 2: walk_drop
% 	 3: other
% 	 4: dtw_same
% 	 5: dtw_diff
% 	 6: delete
% 	 7: steal
% 
% Column description:
% 	 1: Seconds.milliseconds since 1970
% 	 2: Number of skipped measurements
% 	 3: Gyro X
% 	 4: Gyro Y
% 	 5: Gyro Z
% 	 6: Roll of the device
% 	 7: Pitch of the device
% 	 8: Yaw of the device
% 	 9: Quaternion X
% 	 10: Quaternion Y
% 	 11: Quaternion Z
% 	 12: Quaternion W
% 	 13: Label used for the current sample
% 
% 
1463623569.982	 0	 -1.168415	 2.306716	 -0.456367	 0.425648	 0.550407	 -0.068511	 0.272418	 0.194057	 0.025148	 0.942071	 1
1463623569.992	 0	 -1.258551	 1.945790	 -0.689145	 0.446317	 0.536625	 -0.069065	 0.265744	 0.204339	 0.026170	 0.941775	 1
1463623570.002	 0	 -1.406730	 1.766534	 -0.974082	 0.465412	 0.520350	 -0.071449	 0.258115	 0.213768	 0.025702	 0.941817	 1
1463623570.012	 0	 -1.520764	 1.846404	 -1.299535	 0.485788	 0.501509	 -0.075958	 0.249524	 0.223678	 0.023934	 0.941877	 1
1463623570.022	 0	 -1.585221	 2.033519	 -1.629750	 0.508885	 0.480303	 -0.082899	 0.240125	 0.234734	 0.020864	 0.941703	 1
1463623570.032	 0	 -1.638662	 2.404536	 -1.822999	 0.535558	 0.457308	 -0.091202	 0.230109	 0.247471	 0.017095	 0.941018	 1
1463623570.042	 0	 -1.684038	 2.975737	 -1.835406	 0.567165	 0.433404	 -0.098850	 0.219670	 0.262721	 0.013764	 0.939432	 1
1463623570.052	 0	 -1.666298	 3.503796	 -1.758175	 0.603425	 0.409591	 -0.104959	 0.209175	 0.280360	 0.011309	 0.936758	 1
1463623570.072	 1	 -1.187068	 4.308527	 -1.622705	 0.688033	 0.367083	 -0.115373	 0.190652	 0.321148	 0.008089	 0.927605	 1
1463623570.082	 1	 -0.810998	 4.618050	 -1.615639	 0.735808	 0.349658	 -0.122114	 0.183610	 0.343615	 0.006375	 0.920965	 1
1463623570.092	 1	 -0.420313	 4.893198	 -1.649519	 0.787010	 0.334598	 -0.130918	 0.178194	 0.367205	 0.004142	 0.912902	 1
1463623570.102	 1	 -0.039469	 5.163725	 -1.737710	 0.841637	 0.321226	 -0.142308	 0.174270	 0.391852	 0.001108	 0.903372	 1
1463623570.112	 1	 0.321517	 5.374080	 -1.917943	 0.899380	 0.308463	 -0.156816	 0.171567	 0.417371	 -0.003132	 0.892388	 1
1463623570.132	 2	 0.851656	 5.747659	 -2.694958	 1.023019	 0.277316	 -0.196717	 0.167548	 0.470617	 -0.017481	 0.866107	 1
1463623570.142	 2	 0.920388	 5.758078	 -3.136685	 1.087063	 0.255468	 -0.220466	 0.164796	 0.497841	 -0.027909	 0.851010	 1
1463623570.152	 2	 0.803302	 5.643319	 -3.461791	 1.149228	 0.228660	 -0.243455	 0.160617	 0.524339	 -0.039715	 0.835280	 1
1463623570.162	 2	 0.683529	 5.567464	 -3.703382	 1.209561	 0.197702	 -0.264376	 0.155052	 0.550169	 -0.052272	 0.818865	 1
1463623570.172	 2	 0.639259	 5.412871	 -3.918653	 1.267468	 0.163238	 -0.283375	 0.148381	 0.574995	 -0.065621	 0.801909	 1
1463623570.182	 2	 0.681982	 5.323351	 -4.072262	 1.323437	 0.126217	 -0.300941	 0.141122	 0.598862	 -0.079714	 0.784279	 1
1463623570.192	 2	 0.772665	 5.204051	 -4.206316	 1.377619	 0.087118	 -0.317424	 0.133557	 0.621721	 -0.094566	 0.765952	 1
1463623570.202	 2	 0.876156	 4.859229	 -4.340449	 1.428260	 0.046084	 -0.333037	 0.125700	 0.642844	 -0.110337	 0.747514	 1
1463623570.212	 2	 0.965968	 4.337814	 -4.484632	 1.473377	 0.003078	 -0.347709	 0.117337	 0.661513	 -0.127107	 0.729710	 1
1463623570.222	 2	 1.038701	 3.636293	 -4.684696	 1.511356	 -0.042298	 -0.361500	 0.108113	 0.677226	 -0.145073	 0.713183	 1
1463623570.232	 2	 1.053016	 2.765845	 -4.882627	 1.540391	 -0.090146	 -0.374193	 0.097603	 0.689445	 -0.164201	 0.698697	 1
1463623570.242	 2	 0.969536	 1.902707	 -4.992245	 1.560247	 -0.139629	 -0.385234	 0.085648	 0.698170	 -0.183899	 0.686589	 1
1463623570.252	 2	 0.790031	 1.241124	 -5.067178	 1.572733	 -0.190064	 -0.393919	 0.072146	 0.704092	 -0.203478	 0.676495	 1
1463623570.262	 2	 0.614873	 0.845231	 -5.169519	 1.580668	 -0.241511	 -0.400288	 0.057177	 0.708183	 -0.222756	 0.667523	 1
1463623570.272	 2	 0.513905	 0.561906	 -5.266129	 1.585723	 -0.294017	 -0.405151	 0.041078	 0.710954	 -0.241889	 0.659050	 1
1463623570.282	 2	 0.464453	 0.278960	 -5.289647	 1.587890	 -0.346963	 -0.409257	 0.024251	 0.712354	 -0.260841	 0.651095	 1
1463623570.292	 2	 0.445999	 0.163507	 -5.230877	 1.588262	 -0.399543	 -0.413108	 0.007236	 0.712736	 -0.279422	 0.643334	 1
1463623570.302	 2	 0.428365	 0.394189	 -5.108146	 1.589775	 -0.450965	 -0.416864	 -0.009234	 0.713060	 -0.297387	 0.634839	 1
1463623570.322	 2	 0.469135	 1.050730	 -4.758151	 1.602516	 -0.549344	 -0.424152	 -0.038982	 0.715545	 -0.331412	 0.613712	 1
1463623570.332	 3	 0.568874	 1.376827	 -4.484216	 1.612969	 -0.595087	 -0.428587	 -0.051483	 0.717500	 -0.347489	 0.601494	 1
1463623570.342	 3	 0.732286	 1.773624	 -4.115324	 1.626287	 -0.637488	 -0.434513	 -0.061593	 0.720063	 -0.362969	 0.588191	 1
1463623570.352	 3	 0.938908	 2.043823	 -3.733065	 1.641182	 -0.676227	 -0.442644	 -0.069141	 0.722942	 -0.377934	 0.574230	 1
1463623570.362	 3	 1.468666	 2.245194	 -3.324420	 1.654737	 -0.711459	 -0.455894	 -0.073681	 0.725481	 -0.393121	 0.560093	 1
1463623570.382	 3	 2.480157	 1.380548	 -2.613357	 1.651212	 -0.772495	 -0.509231	 -0.075740	 0.723207	 -0.426159	 0.538167	 1
1463623570.372	 3	 2.150353	 1.666138	 -2.964858	 1.657753	 -0.743533	 -0.479029	 -0.075517	 0.725438	 -0.409490	 0.548046	 1
1463623570.392	 3	 2.495195	 1.272951	 -2.191381	 1.640999	 -0.797337	 -0.542035	 -0.074559	 0.720377	 -0.441818	 0.529429	 1
1463623570.402	 3	 2.301845	 1.103221	 -1.768170	 1.629144	 -0.817491	 -0.574441	 -0.072459	 0.717422	 -0.455653	 0.521953	 1
1463623570.412	 3	 1.971541	 0.605471	 -1.312714	 1.615224	 -0.832817	 -0.603694	 -0.070474	 0.714124	 -0.467008	 0.516685	 1
1463623570.422	 3	 1.521065	 -0.048118	 -0.835280	 1.598478	 -0.842986	 -0.627654	 -0.069412	 0.710203	 -0.475351	 0.514622	 1
1463623570.432	 3	 1.007323	 -0.589413	 -0.298700	 1.581149	 -0.847572	 -0.644630	 -0.069142	 0.706148	 -0.480335	 0.515609	 1
1463623570.442	 3	 0.612647	 -0.999191	 0.234870	 1.564189	 -0.846512	 -0.655183	 -0.069136	 0.702162	 -0.482204	 0.519296	 1
1463623570.452	 3	 0.238654	 -1.414446	 0.608345	 1.547398	 -0.841198	 -0.660172	 -0.069554	 0.698115	 -0.481565	 0.525255	 1
1463623570.462	 3	 0.020125	 -1.758241	 0.822351	 1.530266	 -0.833441	 -0.660815	 -0.070681	 0.693818	 -0.479170	 0.532933	 1
1463623570.472	 3	 -0.214739	 -2.107632	 0.947971	 1.512181	 -0.824313	 -0.657838	 -0.072753	 0.689070	 -0.475427	 0.542088	 1
1463623570.482	 3	 -0.430163	 -2.376520	 1.035803	 1.493827	 -0.814462	 -0.651307	 -0.075779	 0.684012	 -0.470499	 0.552282	 1
1463623570.492	 3	 -0.642067	 -2.561535	 1.104135	 1.475731	 -0.804122	 -0.641455	 -0.079607	 0.678776	 -0.464478	 0.563193	 1
1463623570.502	 3	 -0.810747	 -2.595961	 1.128730	 1.458833	 -0.793739	 -0.628762	 -0.083998	 0.673627	 -0.457603	 0.574257	 1
1463623570.512	 3	 -0.904942	 -2.459288	 1.163861	 1.444056	 -0.783361	 -0.614314	 -0.088384	 0.668885	 -0.450208	 0.584887	 1
1463623570.522	 3	 -0.874614	 -2.194058	 1.230010	 1.431692	 -0.772529	 -0.599652	 -0.092029	 0.664742	 -0.442639	 0.594744	 1
1463623570.532	 3	 -0.758873	 -1.906863	 1.279634	 1.421145	 -0.761084	 -0.586297	 -0.094524	 0.661125	 -0.435298	 0.603734	 1
1463623570.542	 3	 -0.728447	 -1.550767	 1.262433	 1.413277	 -0.749641	 -0.573738	 -0.096103	 0.658297	 -0.428249	 0.611565	 1
1463623570.552	 3	 -0.775371	 -1.041595	 1.202569	 1.410250	 -0.738835	 -0.560887	 -0.096937	 0.656898	 -0.421437	 0.617639	 1
1463623570.562	 3	 -0.751418	 -0.460119	 1.168338	 1.412713	 -0.728432	 -0.548189	 -0.096708	 0.657199	 -0.414982	 0.621713	 1
1463623570.572	 3	 -0.589017	 0.067711	 1.126007	 1.419224	 -0.718185	 -0.537451	 -0.095076	 0.658872	 -0.409317	 0.623946	 1
1463623570.582	 3	 -0.352144	 0.526365	 1.107963	 1.428325	 -0.707804	 -0.529882	 -0.091858	 0.661529	 -0.404676	 0.624643	 1
1463623570.592	 3	 -0.116438	 0.920517	 1.141552	 1.439354	 -0.696833	 -0.525619	 -0.086979	 0.664966	 -0.400942	 0.624100	 1
1463623570.602	 3	 0.096839	 1.260922	 1.234518	 1.451927	 -0.684804	 -0.524214	 -0.080488	 0.669026	 -0.397811	 0.622634	 1
1463623570.612	 3	 0.338266	 1.735897	 1.268808	 1.467142	 -0.671932	 -0.525885	 -0.072171	 0.674020	 -0.395418	 0.619785	 1
1463623570.622	 3	 0.578199	 1.941378	 1.247316	 1.482921	 -0.658938	 -0.531084	 -0.062538	 0.679260	 -0.393979	 0.616015	 1
1463623570.632	 3	 0.782310	 2.361864	 1.086390	 1.500423	 -0.647056	 -0.538988	 -0.052068	 0.685009	 -0.393592	 0.610849	 1
1463623570.642	 3	 1.043753	 2.737358	 0.904297	 1.520183	 -0.636989	 -0.550525	 -0.040561	 0.691390	 -0.394711	 0.603770	 1
1463623570.652	 3	 1.115706	 3.085952	 0.603172	 1.541852	 -0.629616	 -0.564029	 -0.028933	 0.698189	 -0.397029	 0.595032	 1
1463623570.662	 3	 1.018283	 3.518899	 0.278728	 1.568472	 -0.625933	 -0.576870	 -0.017810	 0.706216	 -0.400060	 0.583861	 1
1463623570.672	 3	 0.961559	 3.905596	 0.046221	 1.599580	 -0.625030	 -0.588833	 -0.006992	 0.715277	 -0.403440	 0.570584	 1
1463623570.682	 3	 0.931425	 4.008565	 -0.140132	 1.632915	 -0.626457	 -0.600342	 0.003412	 0.724661	 -0.407137	 0.555962	 1
1463623570.692	 3	 0.940916	 3.798659	 -0.187996	 1.664966	 -0.629044	 -0.611668	 0.013211	 0.733377	 -0.410892	 0.541434	 1
1463623570.702	 3	 0.984696	 3.326508	 -0.157601	 1.692619	 -0.631747	 -0.623431	 0.022341	 0.740631	 -0.414618	 0.528259	 1
1463623570.712	 3	 1.024535	 2.724376	 -0.159287	 1.714137	 -0.634628	 -0.635688	 0.030416	 0.746052	 -0.418426	 0.517109	 1
1463623570.722	 3	 1.013593	 2.027411	 -0.205111	 1.728890	 -0.638046	 -0.647883	 0.036945	 0.749577	 -0.422362	 0.508310	 1
1463623570.732	 3	 0.912196	 1.454548	 -0.334253	 1.738217	 -0.642492	 -0.658861	 0.041579	 0.751650	 -0.426329	 0.501535	 1
1463623570.742	 3	 0.756835	 1.067218	 -0.567775	 1.744456	 -0.648817	 -0.667631	 0.044137	 0.752921	 -0.430340	 0.495953	 1
1463623570.752	 3	 0.627998	 0.879712	 -0.809260	 1.749671	 -0.657372	 -0.674072	 0.044889	 0.753928	 -0.434455	 0.490741	 1
1463623570.762	 3	 0.583684	 0.890423	 -0.963310	 1.755261	 -0.667607	 -0.679289	 0.044731	 0.754997	 -0.438757	 0.485254	 1
1463623570.772	 3	 0.535641	 0.901072	 -0.980911	 1.761448	 -0.678323	 -0.683867	 0.044328	 0.756181	 -0.443018	 0.479542	 1
1463623570.782	 3	 0.441936	 0.876412	 -0.899326	 1.767974	 -0.688285	 -0.687465	 0.043900	 0.757446	 -0.446789	 0.474056	 1
1463623570.792	 3	 0.356012	 0.858622	 -0.747406	 1.774840	 -0.696779	 -0.690258	 0.043742	 0.758806	 -0.449900	 0.468924	 1
1463623570.802	 3	 0.239015	 0.768988	 -0.541529	 1.781624	 -0.703167	 -0.692092	 0.043902	 0.760189	 -0.452138	 0.464495	 1
1463623570.812	 3	 0.132660	 0.611781	 -0.262836	 1.787473	 -0.706788	 -0.693193	 0.044476	 0.761423	 -0.453375	 0.461203	 1
1463623570.822	 3	 0.076597	 0.445183	 0.061159	 1.791652	 -0.707149	 -0.694241	 0.045707	 0.762351	 -0.453633	 0.459292	 1
1463623570.832	 3	 0.086786	 0.402981	 0.258910	 1.794575	 -0.705145	 -0.695926	 0.047656	 0.763037	 -0.453334	 0.458249	 1
1463623570.842	 3	 0.154041	 0.431297	 0.230878	 1.797278	 -0.702994	 -0.698365	 0.049890	 0.763654	 -0.453163	 0.457151	 1
1463623570.852	 3	 0.252362	 0.410348	 0.022003	 1.799393	 -0.702699	 -0.701515	 0.051667	 0.764064	 -0.453737	 0.455696	 1
1463623570.862	 3	 0.315115	 0.412063	 -0.302519	 1.801374	 -0.705494	 -0.704747	 0.052457	 0.764357	 -0.455282	 0.453570	 1
1463623570.872	 3	 0.346803	 0.416822	 -0.659781	 1.803762	 -0.711826	 -0.707395	 0.051987	 0.764656	 -0.457767	 0.450608	 1
1463623570.882	 3	 0.359829	 0.523859	 -1.001008	 1.807531	 -0.721580	 -0.709172	 0.050414	 0.765177	 -0.461065	 0.446521	 1
1463623570.892	 3	 0.398015	 0.702590	 -1.272513	 1.813251	 -0.734255	 -0.710358	 0.048146	 0.766024	 -0.465071	 0.441132	 1
1463623570.902	 3	 0.471401	 0.971702	 -1.386815	 1.821328	 -0.748650	 -0.711722	 0.045974	 0.767268	 -0.469582	 0.434372	 1
1463623570.912	 3	 0.609472	 1.210180	 -1.299472	 1.830867	 -0.762996	 -0.714691	 0.044815	 0.768714	 -0.474383	 0.426651	 1
1463623570.922	 3	 0.737037	 1.335104	 -1.035111	 1.840168	 -0.775552	 -0.720164	 0.045170	 0.770046	 -0.479156	 0.418805	 1
1463623570.932	 3	 0.801589	 1.369436	 -0.675126	 1.848370	 -0.785090	 -0.727931	 0.047133	 0.771162	 -0.483478	 0.411506	 1
1463623570.942	 3	 0.834421	 1.224247	 -0.296286	 1.854216	 -0.791111	 -0.737642	 0.050406	 0.771855	 -0.487144	 0.405450	 1
1463623570.952	 3	 0.915209	 0.911306	 -0.003619	 1.855663	 -0.794283	 -0.749583	 0.054371	 0.771697	 -0.490471	 0.401206	 1
1463623570.962	 3	 1.010486	 0.625973	 0.142103	 1.852532	 -0.795934	 -0.763610	 0.058491	 0.770606	 -0.493859	 0.398558	 1
1463623570.972	 3	 1.101388	 0.458563	 0.120570	 1.846584	 -0.797573	 -0.778924	 0.062393	 0.768897	 -0.497570	 0.396648	 1
1463623570.982	 3	 1.211435	 0.202575	 -0.081002	 1.837588	 -0.800985	 -0.795324	 0.065359	 0.766469	 -0.502105	 0.395151	 1
1463623570.992	 3	 1.198665	 -0.017368	 -0.348312	 1.826569	 -0.806811	 -0.811051	 0.066739	 0.763582	 -0.507257	 0.393928	 1
1463623571.002	 3	 1.217505	 -0.069591	 -0.648441	 1.815076	 -0.815323	 -0.826005	 0.066777	 0.760561	 -0.513004	 0.392318	 1
1463623571.012	 3	 1.236020	 0.084110	 -1.006337	 1.805017	 -0.827331	 -0.840215	 0.065702	 0.757777	 -0.519474	 0.389363	 1
1463623571.022	 3	 1.346206	 0.488146	 -1.420250	 1.797979	 -0.843124	 -0.854820	 0.064268	 0.755496	 -0.526866	 0.384066	 1
1463623571.032	 3	 1.472318	 0.897258	 -1.860898	 1.794458	 -0.863388	 -0.870208	 0.062548	 0.753763	 -0.535363	 0.375919	 1
1463623571.042	 3	 1.560801	 1.067832	 -2.356727	 1.792636	 -0.888540	 -0.886081	 0.059826	 0.752189	 -0.545001	 0.365522	 1
1463623571.052	 3	 1.490410	 1.083221	 -2.902707	 1.792406	 -0.918826	 -0.900214	 0.055169	 0.750759	 -0.555360	 0.353402	 1
1463623571.062	 3	 1.233270	 1.097057	 -3.444944	 1.795971	 -0.954003	 -0.909295	 0.048056	 0.749843	 -0.565710	 0.339703	 1
1463623571.072	 3	 0.954487	 1.213581	 -3.915696	 1.805921	 -0.993358	 -0.911531	 0.038858	 0.749717	 -0.575591	 0.324207	 1
1463623571.082	 3	 0.761777	 1.376468	 -4.265270	 1.822999	 -1.035927	 -0.907179	 0.028309	 0.750198	 -0.584987	 0.306907	 1
1463623571.092	 3	 0.664012	 1.402986	 -4.461338	 1.845898	 -1.080380	 -0.897095	 0.016892	 0.750790	 -0.593963	 0.288507	 1
1463623571.102	 3	 0.673922	 1.285579	 -4.513673	 1.871820	 -1.125497	 -0.882858	 0.004848	 0.750887	 -0.602687	 0.270024	 1
1463623571.112	 3	 0.736236	 1.083866	 -4.437226	 1.898680	 -1.170158	 -0.865883	 -0.007508	 0.750162	 -0.611218	 0.252217	 1
1463623571.122	 3	 0.819362	 0.875680	 -4.218209	 1.925107	 -1.213198	 -0.847377	 -0.019755	 0.748552	 -0.619484	 0.235628	 1
1463623571.132	 3	 0.912636	 0.879180	 -3.844906	 1.950199	 -1.253171	 -0.829931	 -0.030765	 0.746250	 -0.627423	 0.220240	 1
1463623571.142	 3	 0.854952	 1.036023	 -3.507229	 1.978350	 -1.289670	 -0.810824	 -0.040072	 0.743893	 -0.634689	 0.205393	 1
1463623571.152	 3	 0.809408	 1.049264	 -3.166731	 2.011051	 -1.322655	 -0.787967	 -0.047953	 0.741643	 -0.641163	 0.191247	 1
1463623571.162	 3	 0.772514	 0.767596	 -2.716082	 2.042504	 -1.351705	 -0.764462	 -0.055000	 0.739159	 -0.646948	 0.179103	 1
1463623571.182	 4	 0.287793	 -0.511896	 -0.709477	 2.071927	 -1.384948	 -0.733661	 -0.066263	 0.734844	 -0.653443	 0.169191	 1
1463623571.192	 4	 -0.066051	 -0.727773	 0.471394	 2.058451	 -1.383126	 -0.740213	 -0.067743	 0.734248	 -0.653097	 0.172495	 1
1463623571.212	 5	 -0.428431	 -0.370150	 1.238831	 2.027966	 -1.360889	 -0.760580	 -0.063796	 0.736151	 -0.648425	 0.183186	 1
1463623571.222	 5	 -0.469766	 -0.215556	 1.126593	 2.021195	 -1.348357	 -0.764958	 -0.060731	 0.737787	 -0.645551	 0.187736	 1
1463623571.232	 5	 -0.443692	 -0.124990	 0.866097	 2.019764	 -1.337962	 -0.764953	 -0.058165	 0.739385	 -0.642953	 0.191148	 1
1463623571.242	 5	 -0.399835	 -0.076254	 0.564558	 2.022736	 -1.330409	 -0.760997	 -0.056475	 0.740808	 -0.640787	 0.193406	 1
1463623571.252	 5	 -0.350506	 -0.019902	 0.288620	 2.029287	 -1.325635	 -0.753878	 -0.055632	 0.742036	 -0.639086	 0.194568	 1
1463623571.272	 6	 -0.241322	 0.082839	 -0.019379	 2.047855	 -1.321814	 -0.735820	 -0.055318	 0.743985	 -0.636873	 0.194471	 1
1463623571.282	 6	 -0.175499	 0.067263	 -0.087241	 2.056680	 -1.321547	 -0.727482	 -0.055537	 0.744657	 -0.636239	 0.193912	 1
1463623571.292	 6	 -0.088452	 0.016737	 -0.133681	 2.043799	 -1.349857	 -0.739945	 -0.063110	 0.738874	 -0.644280	 0.187045	 1
1463623571.302	 6	 0.001885	 -0.048527	 -0.149996	 2.047355	 -1.351075	 -0.735974	 -0.063780	 0.738866	 -0.644329	 0.186680	 1
1463623571.312	 6	 0.094534	 -0.105040	 -0.132145	 2.046413	 -1.352639	 -0.735999	 -0.064520	 0.738504	 -0.644695	 0.186594	 1
1463623571.332	 7	 0.205801	 -0.148152	 -0.014040	 2.029841	 -1.348830	 -0.749913	 -0.063631	 0.738054	 -0.644519	 0.189268	 1
1463623571.342	 7	 0.217901	 -0.103243	 0.023575	 2.019704	 -1.349619	 -0.759104	 -0.063739	 0.737252	 -0.645262	 0.189826	 1
1463623571.352	 7	 0.198027	 -0.017040	 0.022418	 2.010571	 -1.350283	 -0.768044	 -0.063587	 0.736558	 -0.645983	 0.190120	 1
1463623571.362	 7	 0.157950	 0.097826	 0.005718	 2.004229	 -1.350903	 -0.775230	 -0.063173	 0.736080	 -0.646614	 0.189960	 1
1463623571.372	 7	 0.114620	 0.206384	 -0.009870	 2.028494	 -1.346657	 -0.753574	 -0.062086	 0.738413	 -0.644284	 0.189184	 1
1463623571.392	 8	 0.022073	 0.273626	 -0.014833	 2.030119	 -1.347395	 -0.757336	 -0.060386	 0.738555	 -0.644870	 0.187168	 1
1463623571.402	 8	 0.021059	 0.264234	 0.009601	 2.032009	 -1.347453	 -0.758134	 -0.059499	 0.738746	 -0.645016	 0.186196	 1
1463623571.412	 8	 0.053127	 0.238909	 0.051698	 2.026712	 -1.348432	 -0.765826	 -0.058652	 0.738315	 -0.645815	 0.185400	 1
1463623571.422	 8	 0.099038	 0.204018	 0.098933	 2.023655	 -1.348027	 -0.771149	 -0.057556	 0.738255	 -0.646120	 0.184921	 1
1463623571.432	 8	 0.113595	 0.108375	 0.116034	 2.018385	 -1.347494	 -0.777969	 -0.056587	 0.738051	 -0.646470	 0.184811	 1
1463623571.452	 9	 0.055908	 -0.181434	 0.172337	 1.986212	 -1.352293	 -0.808317	 -0.057253	 0.735162	 -0.649507	 0.185473	 1
1463623571.462	 9	 0.073646	 -0.247598	 0.149185	 1.978248	 -1.351130	 -0.814087	 -0.057370	 0.734767	 -0.649546	 0.186858	 1
1463623571.472	 9	 0.054001	 -0.324255	 0.130525	 1.970263	 -1.350154	 -0.819166	 -0.057805	 0.734315	 -0.649567	 0.188422	 1
1463623571.482	 9	 -0.000964	 -0.426430	 0.117453	 1.963607	 -1.349083	 -0.821880	 -0.058647	 0.733927	 -0.649385	 0.190293	 1
1463623571.492	 9	 -0.069783	 -0.517830	 0.096907	 1.962768	 -1.352289	 -0.817835	 -0.061373	 0.733238	 -0.649706	 0.190989	 1
1463623571.512	 10	 -0.186568	 -0.623779	 0.106529	 1.959738	 -1.349337	 -0.808786	 -0.064780	 0.733110	 -0.648060	 0.195885	 1
1463623571.532	 10	 -0.221745	 -0.584572	 0.070958	 1.966102	 -1.346433	 -0.789957	 -0.068752	 0.733561	 -0.645734	 0.200473	 1
1463623571.542	 11	 -0.233449	 -0.492732	 -0.029333	 1.970152	 -1.345544	 -0.780484	 -0.070655	 0.733778	 -0.644712	 0.202296	 1
1463623571.552	 11	 -0.262068	 -0.349939	 -0.150317	 1.978564	 -1.345662	 -0.767863	 -0.072612	 0.734160	 -0.643762	 0.203241	 1
1463623571.562	 11	 -0.284850	 -0.168290	 -0.191059	 1.990937	 -1.346254	 -0.752970	 -0.074276	 0.734774	 -0.642845	 0.203322	 1
1463623571.572	 11	 -0.288184	 0.000008	 -0.156386	 2.001694	 -1.343109	 -0.741360	 -0.074170	 0.735962	 -0.641293	 0.203966	 1
1463623571.582	 11	 -0.282299	 0.107492	 -0.145845	 2.016320	 -1.343227	 -0.727221	 -0.074724	 0.736904	 -0.640428	 0.203079	 1
1463623571.602	 12	 -0.272341	 0.141848	 -0.097653	 2.045558	 -1.343002	 -0.700170	 -0.075290	 0.738883	 -0.638735	 0.201002	 1
1463623571.622	 13	 -0.150855	 0.038810	 -0.025040	 2.043111	 -1.340763	 -0.703214	 -0.074313	 0.739151	 -0.638372	 0.201532	 1
1463623571.632	 13	 -0.073079	 -0.030191	 0.024798	 2.046262	 -1.340261	 -0.699853	 -0.074408	 0.739433	 -0.638020	 0.201574	 1
1463623571.642	 13	 -0.015468	 -0.082059	 0.082430	 2.045294	 -1.339518	 -0.700108	 -0.074413	 0.739478	 -0.637818	 0.202049	 1
1463623571.662	 14	 -0.001738	 -0.125538	 0.102122	 2.051903	 -1.339915	 -0.691934	 -0.075440	 0.739768	 -0.637342	 0.202105	 1
1463623571.672	 14	 -0.030864	 -0.196671	 0.108109	 2.048927	 -1.338859	 -0.693157	 -0.075639	 0.739703	 -0.637079	 0.203096	 1
1463623571.682	 14	 -0.046237	 -0.276418	 0.099990	 2.065414	 -1.340751	 -0.674637	 -0.077772	 0.740319	 -0.636331	 0.202393	 1
1463623571.692	 14	 -0.064692	 -0.319111	 0.072044	 2.062917	 -1.339763	 -0.673991	 -0.078531	 0.740223	 -0.635906	 0.203781	 1
1463623571.702	 14	 -0.092402	 -0.301038	 0.059664	 2.061796	 -1.338821	 -0.671963	 -0.079376	 0.740202	 -0.635405	 0.205087	 1
1463623571.712	 14	 -0.092038	 -0.197039	 0.027590	 2.062200	 -1.338023	 -0.669175	 -0.080058	 0.740280	 -0.634923	 0.206032	 1
1463623571.722	 14	 -0.161163	 -0.151096	 0.030773	 2.055770	 -1.336019	 -0.673716	 -0.079860	 0.740166	 -0.634604	 0.207494	 1
1463623571.732	 14	 -0.250061	 -0.262145	 0.081670	 2.060693	 -1.334270	 -0.666296	 -0.080559	 0.740702	 -0.633566	 0.208481	 1
1463623571.742	 14	 -0.197314	 -0.307697	 -0.018329	 2.065220	 -1.333093	 -0.658483	 -0.081695	 0.741076	 -0.632619	 0.209584	 1
1463623571.752	 14	 -0.103416	 -0.185674	 -0.167217	 2.070186	 -1.333681	 -0.651066	 -0.083035	 0.741182	 -0.632203	 0.209936	 1
1463623571.762	 14	 -0.061228	 -0.040301	 -0.197139	 2.075898	 -1.335087	 -0.644444	 -0.084069	 0.741239	 -0.632128	 0.209552	 1
1463623571.772	 14	 -0.060804	 0.002647	 -0.141324	 2.081249	 -1.336166	 -0.638929	 -0.084717	 0.741361	 -0.632069	 0.209035	 1
1463623571.782	 14	 -0.066068	 -0.030975	 -0.085090	 2.079899	 -1.335979	 -0.639813	 -0.084765	 0.741293	 -0.632054	 0.209304	 1
1463623571.792	 14	 -0.049191	 -0.110469	 -0.040149	 2.082053	 -1.336163	 -0.636686	 -0.085293	 0.741350	 -0.631868	 0.209447	 1
1463623571.802	 14	 -0.019579	 -0.200677	 -0.000747	 2.081479	 -1.336116	 -0.635442	 -0.085923	 0.741246	 -0.631700	 0.210064	 1
1463623571.812	 14	 0.024057	 -0.247416	 0.025082	 2.078235	 -1.336007	 -0.636311	 -0.086596	 0.740962	 -0.631622	 0.211020	 1
1463623571.822	 14	 0.075487	 -0.210321	 0.029236	 2.066769	 -1.337066	 -0.645440	 -0.087129	 0.739945	 -0.632377	 0.212109	 1
1463623571.832	 14	 0.122901	 -0.108396	 0.023377	 2.060798	 -1.337365	 -0.650163	 -0.087353	 0.739460	 -0.632698	 0.212746	 1
1463623571.842	 14	 0.166216	 0.026539	 0.021058	 2.054505	 -1.337898	 -0.656549	 -0.087132	 0.738970	 -0.633246	 0.212913	 1
1463623571.852	 14	 0.167536	 0.084991	 0.015196	 2.048440	 -1.338581	 -0.663698	 -0.086603	 0.738509	 -0.633924	 0.212710	 1
1463623571.862	 14	 0.113386	 -0.087140	 0.017220	 2.040600	 -1.342252	 -0.671053	 -0.087405	 0.737322	 -0.635329	 0.212306	 1
1463623571.872	 14	 0.170638	 -0.141768	 -0.012562	 2.033439	 -1.343005	 -0.677086	 -0.087669	 0.736688	 -0.635853	 0.212828	 1
1463623571.882	 14	 0.215181	 -0.180365	 -0.036756	 2.024343	 -1.344200	 -0.684648	 -0.088116	 0.735836	 -0.636568	 0.213453	 1
1463623571.892	 14	 0.221486	 -0.197433	 -0.041233	 2.014425	 -1.345526	 -0.692822	 -0.088648	 0.734901	 -0.637343	 0.214142	 1
1463623571.902	 14	 0.169151	 -0.195184	 -0.048224	 2.018070	 -1.346463	 -0.687677	 -0.089644	 0.734895	 -0.637193	 0.214190	 1
1463623571.912	 14	 0.060469	 -0.157653	 -0.050126	 2.013833	 -1.347286	 -0.690280	 -0.090273	 0.734412	 -0.637492	 0.214697	 1
1463623571.922	 14	 -0.049175	 -0.097782	 -0.051812	 2.014537	 -1.347648	 -0.688402	 -0.090842	 0.734338	 -0.637414	 0.214939	 1
1463623571.932	 14	 -0.135703	 -0.110341	 -0.058635	 2.019296	 -1.347661	 -0.682489	 -0.091501	 0.734578	 -0.636999	 0.215072	 1
1463623571.942	 14	 -0.135897	 -0.168704	 -0.038905	 2.020714	 -1.346156	 -0.679283	 -0.091799	 0.734854	 -0.636332	 0.215973	 1
1463623571.952	 14	 -0.080601	 -0.239873	 -0.003812	 2.022437	 -1.345861	 -0.675246	 -0.092651	 0.734907	 -0.635899	 0.216703	 1
1463623571.962	 14	 -0.046504	 -0.279084	 0.029630	 2.021381	 -1.345415	 -0.673527	 -0.093492	 0.734793	 -0.635548	 0.217756	 1
1463623571.972	 14	 -0.034650	 -0.239895	 0.011774	 2.019927	 -1.345071	 -0.672416	 -0.094264	 0.734644	 -0.635270	 0.218734	 1
1463623571.982	 14	 -0.130235	 -0.254597	 0.145690	 2.019528	 -1.343809	 -0.670312	 -0.094806	 0.734729	 -0.634694	 0.219884	 1
1463623571.992	 14	 -0.280902	 -0.363125	 0.225924	 2.021535	 -1.340679	 -0.664846	 -0.095293	 0.735256	 -0.633375	 0.221708	 1
1463623572.002	 14	 -0.227301	 -0.353178	 0.006002	 2.026234	 -1.338929	 -0.656243	 -0.096477	 0.735684	 -0.632187	 0.223163	 1
1463623572.012	 14	 -0.119579	 -0.211250	 -0.179057	 2.031824	 -1.339574	 -0.647907	 -0.097958	 0.735785	 -0.631697	 0.223572	 1
1463623572.022	 14	 -0.054628	 0.029718	 -0.222164	 2.056798	 -1.340910	 -0.622908	 -0.099653	 0.737080	 -0.630503	 0.221919	 1
1463623572.032	 14	 -0.071728	 0.207760	 -0.171333	 2.064653	 -1.342292	 -0.616608	 -0.099876	 0.737369	 -0.630573	 0.220658	 1
1463623572.042	 14	 -0.108266	 0.307411	 -0.084827	 2.073560	 -1.342729	 -0.610371	 -0.099487	 0.737953	 -0.630450	 0.219228	 1
1463623572.052	 14	 -0.069349	 0.372527	 -0.036600	 2.081260	 -1.342725	 -0.606170	 -0.098609	 0.738587	 -0.630371	 0.217711	 1
1463623572.062	 14	 0.001146	 0.373487	 -0.022284	 2.086196	 -1.342850	 -0.604969	 -0.097531	 0.739039	 -0.630517	 0.216235	 1
1463623572.072	 14	 0.039425	 0.338325	 -0.015485	 2.088769	 -1.343175	 -0.605888	 -0.096467	 0.739296	 -0.630831	 0.214913	 1
1463623572.082	 14	 0.034211	 0.356453	 -0.009935	 2.085820	 -1.343526	 -0.612197	 -0.095160	 0.739213	 -0.631463	 0.213924	 1
1463623572.092	 14	 0.014548	 0.486273	 -0.009621	 2.089729	 -1.343706	 -0.612748	 -0.093770	 0.739620	 -0.631756	 0.212259	 1
1463623572.102	 14	 0.008116	 0.715947	 -0.021283	 2.096374	 -1.343904	 -0.612670	 -0.091753	 0.740278	 -0.632111	 0.209776	 1
1463623572.112	 14	 0.035379	 0.854013	 -0.038354	 2.104409	 -1.344338	 -0.612947	 -0.089225	 0.741041	 -0.632623	 0.206604	 1
1463623572.122	 14	 0.091627	 0.775227	 -0.025717	 2.107204	 -1.345044	 -0.618256	 -0.086561	 0.741420	 -0.633486	 0.203712	 1
1463623572.132	 14	 0.210226	 0.538049	 0.023266	 2.106242	 -1.345858	 -0.625324	 -0.084463	 0.741463	 -0.634386	 0.201624	 1
1463623572.142	 14	 0.313097	 0.366806	 0.064473	 2.098146	 -1.346863	 -0.637826	 -0.082670	 0.740974	 -0.635580	 0.200401	 1
1463623572.152	 14	 0.370007	 0.180800	 0.104877	 2.084669	 -1.347812	 -0.653985	 -0.081232	 0.740103	 -0.636903	 0.200008	 1
1463623572.162	 14	 0.393861	 0.026570	 0.113900	 2.066456	 -1.348344	 -0.673210	 -0.080075	 0.738954	 -0.638235	 0.200476	 1
1463623572.172	 14	 0.369987	 -0.060550	 0.117560	 2.048826	 -1.349089	 -0.690864	 -0.079397	 0.737750	 -0.639500	 0.201149	 1
1463623572.182	 14	 0.301594	 -0.103755	 0.145463	 2.032350	 -1.349329	 -0.706759	 -0.078879	 0.736675	 -0.640512	 0.202071	 1
1463623572.192	 14	 0.192797	 -0.104392	 0.160259	 2.019431	 -1.348873	 -0.718910	 -0.078414	 0.735925	 -0.641119	 0.203058	 1
1463623572.202	 14	 0.102183	 -0.058539	 0.136924	 2.022652	 -1.349416	 -0.715446	 -0.078812	 0.736020	 -0.641031	 0.202835	 1
1463623572.212	 14	 0.054254	 -0.004450	 0.096280	 2.017937	 -1.348737	 -0.720104	 -0.078415	 0.735843	 -0.641148	 0.203262	 1
1463623572.222	 14	 0.048847	 0.008091	 0.063405	 2.014765	 -1.348292	 -0.723446	 -0.078074	 0.735729	 -0.641252	 0.203479	 1
1463623572.232	 14	 0.075309	 -0.030343	 0.054291	 2.010859	 -1.348100	 -0.727259	 -0.077869	 0.735513	 -0.641440	 0.203745	 1
1463623572.242	 14	 0.093293	 -0.069706	 0.060150	 2.005055	 -1.348686	 -0.732562	 -0.077951	 0.735028	 -0.641900	 0.204017	 1
1463623572.252	 14	 0.098671	 -0.075973	 0.078163	 1.999002	 -1.348451	 -0.737977	 -0.077836	 0.734660	 -0.642159	 0.204567	 1
1463623572.262	 14	 0.085053	 -0.065980	 0.130597	 1.992572	 -1.347771	 -0.743859	 -0.077542	 0.734344	 -0.642346	 0.205228	 1
1463623572.272	 14	 0.040687	 0.005628	 0.160425	 1.987568	 -1.346556	 -0.748830	 -0.076968	 0.734223	 -0.642367	 0.205806	 1
1463623572.282	 14	 0.008109	 0.113136	 0.158493	 1.985073	 -1.346146	 -0.752260	 -0.076389	 0.734166	 -0.642525	 0.205734	 1
1463623572.292	 14	 0.004290	 0.228903	 0.134026	 1.984464	 -1.344860	 -0.754939	 -0.075222	 0.734415	 -0.642467	 0.205455	 1
1463623572.302	 14	 0.023677	 0.291386	 0.104597	 1.984605	 -1.343907	 -0.757670	 -0.073893	 0.734687	 -0.642522	 0.204792	 1
1463623572.312	 14	 0.109615	 0.193208	 0.094409	 1.982077	 -1.343376	 -0.762494	 -0.072776	 0.734692	 -0.642795	 0.204320	 1
1463623572.322	 14	 0.239450	 0.308000	 0.135903	 1.974731	 -1.343492	 -0.772801	 -0.071388	 0.734295	 -0.643609	 0.203670	 1
1463623572.332	 14	 0.279575	 0.457727	 0.118829	 1.965929	 -1.343406	 -0.786212	 -0.069275	 0.733887	 -0.644641	 0.202606	 1
1463623572.342	 14	 0.261843	 0.566082	 0.093347	 1.958979	 -1.343517	 -0.798903	 -0.066894	 0.733600	 -0.645711	 0.201030	 1
1463623572.352	 14	 0.242973	 0.641622	 0.088886	 1.953928	 -1.343645	 -0.810513	 -0.064306	 0.733456	 -0.646736	 0.199094	 1
1463623572.362	 14	 0.198528	 0.692005	 0.124906	 1.951617	 -1.343525	 -0.819919	 -0.061568	 0.733541	 -0.647568	 0.196933	 1
1463623572.372	 14	 0.138763	 0.706937	 0.106382	 1.950642	 -1.343025	 -0.828143	 -0.058715	 0.733767	 -0.648230	 0.194771	 1
1463623572.382	 14	 0.080791	 0.686444	 0.043816	 1.952818	 -1.342801	 -0.833032	 -0.056147	 0.734151	 -0.648715	 0.192453	 1
1463623572.392	 14	 0.025825	 0.617082	 -0.009639	 1.957548	 -1.342930	 -0.834701	 -0.054039	 0.734631	 -0.649034	 0.190137	 1
1463623572.402	 14	 -0.029161	 0.523426	 -0.039878	 1.963820	 -1.343439	 -0.833867	 -0.052464	 0.735126	 -0.649238	 0.187955	 1
1463623572.412	 14	 -0.083109	 0.410737	 -0.054312	 1.971874	 -1.343654	 -0.830116	 -0.051295	 0.735750	 -0.649145	 0.186149	 1
1463623572.422	 14	 -0.119882	 0.297126	 -0.042259	 1.980362	 -1.343644	 -0.824736	 -0.050517	 0.736402	 -0.648860	 0.184774	 1
1463623572.432	 14	 -0.127570	 0.222939	 -0.008778	 1.988147	 -1.343289	 -0.819197	 -0.049926	 0.737034	 -0.648463	 0.183805	 1
1463623572.442	 14	 -0.099923	 0.178368	 0.017230	 1.991244	 -1.341946	 -0.817798	 -0.049036	 0.737491	 -0.648097	 0.183501	 1
1463623572.452	 14	 -0.053051	 0.155937	 0.023008	 1.995022	 -1.341477	 -0.815574	 -0.048492	 0.737856	 -0.647875	 0.182961	 1
1463623572.462	 14	 0.000238	 0.128237	 0.038272	 1.996279	 -1.341118	 -0.815681	 -0.047938	 0.738029	 -0.647831	 0.182565	 1
1463623572.472	 14	 0.037421	 0.077208	 0.056658	 1.995145	 -1.340771	 -0.817792	 -0.047423	 0.738030	 -0.647914	 0.182399	 1
1463623572.482	 14	 0.059585	 0.000771	 0.085608	 1.991209	 -1.339688	 -0.822015	 -0.046816	 0.737937	 -0.647953	 0.182793	 1
1463623572.492	 14	 0.068976	 -0.073459	 0.120006	 1.986129	 -1.338939	 -0.826654	 -0.046526	 0.737695	 -0.648085	 0.183378	 1
1463623572.502	 14	 0.058364	 -0.086088	 0.149934	 1.980401	 -1.337864	 -0.831639	 -0.046220	 0.737447	 -0.648160	 0.184185	 1
1463623572.512	 14	 0.036115	 -0.045623	 0.146220	 1.981946	 -1.337728	 -0.829791	 -0.046360	 0.737567	 -0.647995	 0.184253	 1
1463623572.522	 14	 0.007446	 0.014830	 0.110796	 1.979402	 -1.336676	 -0.832417	 -0.045898	 0.737551	 -0.647935	 0.184643	 1
1463623572.532	 14	 -0.014017	 0.030493	 0.062103	 1.978818	 -1.335963	 -0.833315	 -0.045541	 0.737624	 -0.647839	 0.184773	 1
1463623572.542	 14	 -0.012287	 -0.026135	 0.027457	 1.978706	 -1.335579	 -0.833359	 -0.045445	 0.737672	 -0.647752	 0.184911	 1
1463623572.552	 14	 0.008352	 -0.159277	 0.008973	 1.979184	 -1.336224	 -0.831720	 -0.046089	 0.737582	 -0.647760	 0.185080	 1
1463623572.562	 14	 0.019359	 -0.305104	 -0.002072	 1.975749	 -1.336288	 -0.832465	 -0.046947	 0.737271	 -0.647765	 0.186086	 1
1463623572.572	 14	 -0.006645	 -0.384826	 -0.005784	 1.972052	 -1.336356	 -0.832458	 -0.048167	 0.736916	 -0.647692	 0.187432	 1
1463623572.582	 14	 -0.050321	 -0.385612	 0.014838	 1.969556	 -1.336113	 -0.831021	 -0.049431	 0.736682	 -0.647440	 0.188886	 1
1463623572.592	 14	 -0.068276	 -0.349353	 0.020669	 1.969722	 -1.335042	 -0.827249	 -0.050443	 0.736763	 -0.646839	 0.190355	 1
1463623572.602	 14	 -0.075486	 -0.298244	 0.025470	 1.969064	 -1.334529	 -0.824716	 -0.051434	 0.736712	 -0.646462	 0.191564	 1
1463623572.612	 14	 -0.077334	 -0.239720	 0.028162	 1.969052	 -1.333968	 -0.822115	 -0.052226	 0.736727	 -0.646082	 0.192570	 1
1463623572.622	 14	 -0.072855	 -0.186627	 0.017960	 1.969562	 -1.333485	 -0.819540	 -0.052864	 0.736781	 -0.645735	 0.193353	 1
1463623572.632	 14	 -0.059946	 -0.153783	 0.005358	 1.971344	 -1.333483	 -0.816122	 -0.053547	 0.736863	 -0.645451	 0.193800	 1
1463623572.642	 14	 -0.048188	 -0.144291	 -0.001051	 1.971791	 -1.333282	 -0.814161	 -0.054065	 0.736884	 -0.645226	 0.194326	 1
1463623572.652	 14	 -0.039688	 -0.148603	 -0.005428	 1.971946	 -1.333156	 -0.812484	 -0.054595	 0.736872	 -0.645038	 0.194846	 1
1463623572.662	 14	 -0.037672	 -0.169913	 -0.009907	 1.971885	 -1.333085	 -0.810876	 -0.055186	 0.736833	 -0.644863	 0.195407	 1
1463623572.672	 14	 -0.033539	 -0.204999	 -0.006019	 1.968249	 -1.334050	 -0.812425	 -0.056079	 0.736374	 -0.645138	 0.195971	 1
1463623572.682	 14	 -0.030302	 -0.202835	 0.000368	 1.967384	 -1.333937	 -0.811200	 -0.056774	 0.736272	 -0.644968	 0.196716	 1
1463623572.692	 14	 -0.036588	 -0.183623	 0.006996	 1.966738	 -1.333755	 -0.809933	 -0.057394	 0.736200	 -0.644782	 0.197415	 1
1463623572.702	 14	 -0.032222	 -0.167643	 0.012435	 1.966150	 -1.333518	 -0.808769	 -0.057940	 0.736144	 -0.644594	 0.198074	 1
1463623572.712	 14	 -0.020387	 -0.152748	 0.017789	 1.964753	 -1.333958	 -0.808577	 -0.058594	 0.735933	 -0.644637	 0.198524	 1
1463623572.722	 14	 -0.004331	 -0.137943	 0.012458	 1.963440	 -1.333790	 -0.808477	 -0.059004	 0.735825	 -0.644550	 0.199088	 1
1463623572.732	 14	 0.005285	 -0.122133	 -0.003465	 1.962024	 -1.333797	 -0.808635	 -0.059404	 0.735687	 -0.644525	 0.199556	 1
1463623572.742	 14	 0.005299	 -0.104182	 -0.021416	 1.960988	 -1.333978	 -0.808585	 -0.059811	 0.735555	 -0.644531	 0.199901	 1
1463623572.752	 14	 -0.000053	 -0.092595	 -0.039393	 1.961470	 -1.335076	 -0.807159	 -0.060512	 0.735395	 -0.644658	 0.199869	 1
1463623572.762	 14	 -0.009655	 -0.084126	 -0.048823	 1.961623	 -1.335481	 -0.806120	 -0.060967	 0.735318	 -0.644653	 0.200031	 1
1463623572.772	 14	 -0.021399	 -0.079883	 -0.055076	 1.962423	 -1.335907	 -0.804471	 -0.061444	 0.735283	 -0.644612	 0.200147	 1
1463623572.782	 14	 -0.032062	 -0.079836	 -0.052851	 1.963622	 -1.336293	 -0.802417	 -0.061929	 0.735281	 -0.644533	 0.200257	 1
1463623572.792	 14	 -0.034144	 -0.077652	 -0.045351	 1.961733	 -1.336795	 -0.803373	 -0.062337	 0.735046	 -0.644687	 0.200500	 1
1463623572.802	 14	 -0.022344	 -0.078654	 -0.031606	 1.959390	 -1.337147	 -0.804809	 -0.062671	 0.734802	 -0.644840	 0.200797	 1
1463623572.812	 14	 -0.005193	 -0.077538	 -0.016820	 1.955705	 -1.337318	 -0.807596	 -0.062888	 0.734493	 -0.645044	 0.201204	 1
1463623572.822	 14	 0.014078	 -0.073282	 -0.008420	 1.952275	 -1.337483	 -0.810213	 -0.063083	 0.734206	 -0.645238	 0.201571	 1
1463623572.832	 14	 0.031213	 -0.067963	 -0.001059	 1.948958	 -1.337711	 -0.812831	 -0.063261	 0.733920	 -0.645449	 0.201878	 1
1463623572.842	 14	 0.035513	 -0.060538	 -0.002094	 1.946897	 -1.337904	 -0.814312	 -0.063442	 0.733730	 -0.645578	 0.202101	 1
1463623572.852	 14	 0.031266	 -0.054149	 -0.003064	 1.946454	 -1.338020	 -0.814275	 -0.063634	 0.733667	 -0.645586	 0.202242	 1
1463623572.862	 14	 0.016345	 -0.044559	 -0.007110	 1.947980	 -1.338055	 -0.812373	 -0.063850	 0.733755	 -0.645451	 0.202286	 1
1463623572.872	 14	 0.001446	 -0.031762	 -0.008994	 1.950554	 -1.338000	 -0.809532	 -0.064045	 0.733933	 -0.645233	 0.202274	 1
1463623572.882	 14	 -0.009190	 -0.021098	 -0.009870	 1.953565	 -1.337952	 -0.806347	 -0.064228	 0.734143	 -0.644997	 0.202210	 1
1463623572.892	 14	 -0.008104	 -0.013669	 -0.011943	 1.956007	 -1.337915	 -0.803794	 -0.064367	 0.734313	 -0.644808	 0.202147	 1
1463623572.902	 14	 0.000447	 -0.008381	 -0.013034	 1.957943	 -1.337929	 -0.801814	 -0.064474	 0.734443	 -0.644674	 0.202071	 1
1463623572.912	 14	 0.004698	 -0.013688	 -0.009923	 1.959093	 -1.337924	 -0.800581	 -0.064555	 0.734520	 -0.644585	 0.202047	 1
1463623572.922	 14	 0.006751	 -0.032816	 -0.006923	 1.959743	 -1.338026	 -0.799686	 -0.064704	 0.734541	 -0.644540	 0.202067	 1
1463623572.932	 14	 0.003480	 -0.047689	 -0.005969	 1.959899	 -1.338106	 -0.799112	 -0.064889	 0.734526	 -0.644505	 0.202172	 1
1463623572.942	 14	 0.000228	 -0.057260	 -0.007097	 1.959689	 -1.338250	 -0.798776	 -0.065123	 0.734472	 -0.644498	 0.202316	 1
1463623572.952	 14	 -0.007251	 -0.059365	 -0.007055	 1.959625	 -1.338479	 -0.798253	 -0.065405	 0.734414	 -0.644496	 0.202443	 1
1463623572.962	 14	 -0.007219	 -0.051927	 -0.008056	 1.959442	 -1.338745	 -0.797863	 -0.065688	 0.734342	 -0.644513	 0.202560	 1
1463623572.972	 14	 -0.001817	 -0.032843	 -0.014320	 1.959185	 -1.338910	 -0.797735	 -0.065867	 0.734286	 -0.644530	 0.202648	 1
1463623572.982	 14	 0.002546	 -0.013702	 -0.013116	 1.959533	 -1.339064	 -0.797208	 -0.065995	 0.734281	 -0.644524	 0.202647	 1
1463623572.992	 14	 0.005805	 -0.004115	 -0.009859	 1.959770	 -1.339277	 -0.796922	 -0.066088	 0.734263	 -0.644552	 0.202591	 1
1463623573.002	 14	 0.005804	 -0.005171	 -0.008805	 1.959724	 -1.339463	 -0.796931	 -0.066155	 0.734230	 -0.644595	 0.202552	 1
1463623573.012	 14	 0.004700	 -0.014725	 -0.006754	 1.959513	 -1.339605	 -0.797028	 -0.066230	 0.734190	 -0.644631	 0.202557	 1
1463623573.022	 14	 0.002505	 -0.029595	 -0.004743	 1.959172	 -1.339782	 -0.797116	 -0.066361	 0.734132	 -0.644670	 0.202604	 1
1463623573.032	 14	 -0.006094	 -0.042341	 -0.005855	 1.958585	 -1.339981	 -0.797300	 -0.066543	 0.734048	 -0.644715	 0.202703	 1
1463623573.042	 14	 -0.010411	 -0.052966	 -0.005917	 1.957985	 -1.340087	 -0.797361	 -0.066746	 0.733973	 -0.644726	 0.202873	 1
1463623573.052	 14	 -0.013578	 -0.043407	 -0.008999	 1.957736	 -1.340203	 -0.797128	 -0.066947	 0.733922	 -0.644721	 0.203006	 1
1463623573.062	 14	 -0.015689	 -0.039146	 -0.008943	 1.957784	 -1.340372	 -0.796654	 -0.067156	 0.733885	 -0.644714	 0.203093	 1
1463623573.072	 14	 -0.016778	 -0.044462	 -0.008985	 1.957419	 -1.340541	 -0.796550	 -0.067363	 0.733819	 -0.644730	 0.203212	 1
1463623573.082	 14	 -0.016799	 -0.048726	 -0.010090	 1.956831	 -1.340653	 -0.796616	 -0.067562	 0.733744	 -0.644743	 0.203375	 1
1463623573.092	 14	 -0.013594	 -0.049793	 -0.009062	 1.956079	 -1.340777	 -0.796821	 -0.067767	 0.733656	 -0.644767	 0.203549	 1
1463623573.102	 14	 -0.009275	 -0.042337	 -0.005834	 1.955722	 -1.340877	 -0.796702	 -0.067956	 0.733600	 -0.644766	 0.203690	 1
1463623573.112	 14	 -0.001758	 -0.033843	 -0.004755	 1.955135	 -1.340956	 -0.796911	 -0.068092	 0.733535	 -0.644786	 0.203815	 1
1463623573.122	 14	 0.005770	 -0.022166	 -0.004712	 1.954368	 -1.341040	 -0.797419	 -0.068178	 0.733462	 -0.644831	 0.203909	 1
1463623573.132	 14	 0.009015	 -0.015771	 -0.001483	 1.953786	 -1.341073	 -0.797837	 -0.068223	 0.733411	 -0.644861	 0.203978	 1
1463623573.142	 14	 0.007959	 -0.013640	 -0.001454	 1.953067	 -1.341139	 -0.798421	 -0.068261	 0.733348	 -0.644912	 0.204035	 1
1463623573.152	 14	 0.007979	 -0.009386	 -0.001414	 1.952788	 -1.341160	 -0.798610	 -0.068288	 0.733323	 -0.644926	 0.204070	 1
1463623573.162	 14	 0.004783	 -0.007257	 -0.002430	 1.952467	 -1.341116	 -0.798860	 -0.068286	 0.733305	 -0.644931	 0.204120	 1
1463623573.172	 14	 0.000538	 -0.002982	 -0.001284	 1.952171	 -1.340962	 -0.799105	 -0.068245	 0.733307	 -0.644910	 0.204193	 1
1463623573.182	 14	 -0.000494	 0.003410	 -0.000146	 1.951958	 -1.340805	 -0.799325	 -0.068186	 0.733316	 -0.644889	 0.204245	 1
1463623573.192	 14	 0.001697	 0.011944	 0.004180	 1.951786	 -1.340658	 -0.799598	 -0.068097	 0.733330	 -0.644877	 0.204262	 1
1463623573.202	 14	 -0.001459	 0.022582	 0.003243	 1.952021	 -1.340514	 -0.799564	 -0.067990	 0.733375	 -0.644848	 0.204229	 1
1463623573.212	 14	 -0.002483	 0.031103	 0.004398	 1.952426	 -1.340380	 -0.799451	 -0.067860	 0.733433	 -0.644819	 0.204155	 1
1463623573.222	 14	 -0.001402	 0.034291	 0.004419	 1.953086	 -1.340279	 -0.799142	 -0.067730	 0.733505	 -0.644787	 0.204041	 1
1463623573.232	 14	 -0.003547	 0.034282	 0.002306	 1.953842	 -1.340233	 -0.798736	 -0.067621	 0.733575	 -0.644760	 0.203908	 1
1463623573.242	 14	 -0.004620	 0.033222	 0.002304	 1.954675	 -1.340210	 -0.798246	 -0.067526	 0.733647	 -0.644733	 0.203767	 1
1463623573.252	 14	 -0.003590	 0.024717	 0.003280	 1.955225	 -1.340232	 -0.797965	 -0.067458	 0.733690	 -0.644728	 0.203649	 1
1463623573.262	 14	 -0.004712	 0.014076	 0.002124	 1.955811	 -1.340250	 -0.797561	 -0.067423	 0.733734	 -0.644711	 0.203560	 1
1463623573.272	 14	 -0.002615	 0.006625	 0.002035	 1.956374	 -1.340244	 -0.797092	 -0.067411	 0.733776	 -0.644681	 0.203506	 1
1463623573.282	 14	 -0.004828	 0.001149	 0.001051	 1.957178	 -1.340252	 -0.796318	 -0.067439	 0.733830	 -0.644631	 0.203458	 1
1463623573.292	 14	 -0.009107	 0.001147	 -0.001045	 1.958114	 -1.340257	 -0.795390	 -0.067479	 0.733894	 -0.644570	 0.203413	 1
1463623573.302	 14	 -0.010171	 0.002214	 -0.001026	 1.959078	 -1.340205	 -0.794450	 -0.067498	 0.733968	 -0.644494	 0.203376	 1
1463623573.312	 14	 -0.010163	 0.004342	 -0.001006	 1.959898	 -1.340139	 -0.793676	 -0.067498	 0.734035	 -0.644428	 0.203344	 1
1463623573.322	 14	 -0.013361	 0.004359	 0.000088	 1.960768	 -1.340061	 -0.792844	 -0.067499	 0.734108	 -0.644355	 0.203315	 1
1463623573.332	 14	 -0.014430	 0.002251	 0.002209	 1.961189	 -1.339995	 -0.792440	 -0.067492	 0.734147	 -0.644312	 0.203309	 1
1463623573.342	 14	 -0.010150	 0.005421	 0.001135	 1.961676	 -1.339975	 -0.791981	 -0.067498	 0.734184	 -0.644278	 0.203284	 1
1463623573.352	 14	 -0.003723	 0.009664	 0.002183	 1.961907	 -1.339995	 -0.791826	 -0.067486	 0.734199	 -0.644274	 0.203243	 1
1463623573.362	 14	 -0.004791	 0.008612	 0.003248	 1.962215	 -1.340002	 -0.791609	 -0.067469	 0.734222	 -0.644264	 0.203198	 1
1463623573.372	 14	 -0.006926	 0.008618	 0.003266	 1.962689	 -1.339955	 -0.791222	 -0.067444	 0.734265	 -0.644230	 0.203163	 1
1463623573.382	 14	 -0.006941	 0.006483	 0.002180	 1.963186	 -1.339904	 -0.790789	 -0.067428	 0.734308	 -0.644191	 0.203134	 1
1463623573.392	 14	 -0.010136	 0.009668	 0.000105	 1.963748	 -1.339897	 -0.790317	 -0.067417	 0.734351	 -0.644160	 0.203081	 1
1463623573.402	 14	 -0.010127	 0.014956	 -0.004110	 1.964374	 -1.339978	 -0.789814	 -0.067425	 0.734385	 -0.644149	 0.202991	 1
1463623573.412	 14	 -0.007997	 0.014941	 -0.005195	 1.964905	 -1.340032	 -0.789413	 -0.067418	 0.734417	 -0.644139	 0.202910	 1
1463623573.422	 14	 -0.005854	 0.014950	 -0.003083	 1.965366	 -1.340073	 -0.789097	 -0.067397	 0.734446	 -0.644132	 0.202830	 1
1463623573.432	 14	 -0.004963	 0.009433	 0.001308	 1.965520	 -1.340029	 -0.789040	 -0.067356	 0.734467	 -0.644121	 0.202804	 1
1463623573.442	 14	 -0.000700	 0.007300	 0.002317	 1.965530	 -1.340016	 -0.789105	 -0.067325	 0.734472	 -0.644125	 0.202784	 1
1463623573.452	 14	 -0.000716	 0.004109	 0.002286	 1.965828	 -1.340041	 -0.788865	 -0.067324	 0.734490	 -0.644116	 0.202744	 1
1463623573.462	 14	 -0.005008	 0.000916	 0.000161	 1.966292	 -1.340085	 -0.788419	 -0.067352	 0.734515	 -0.644097	 0.202705	 1
1463623573.472	 14	 -0.010358	 -0.000147	 -0.001935	 1.966842	 -1.340103	 -0.787872	 -0.067381	 0.734550	 -0.644065	 0.202674	 1
1463623573.482	 14	 -0.013564	 -0.001202	 -0.001916	 1.967272	 -1.340079	 -0.787418	 -0.067402	 0.734582	 -0.644027	 0.202669	 1
1463623573.492	 14	 -0.017833	 -0.001189	 -0.001880	 1.968169	 -1.340060	 -0.786489	 -0.067448	 0.734645	 -0.643959	 0.202644	 1
1463623573.502	 14	 -0.015679	 0.000947	 0.000253	 1.968424	 -1.340032	 -0.786198	 -0.067465	 0.734665	 -0.643932	 0.202652	 1
1463623573.512	 14	 -0.009260	 0.003063	 0.001283	 1.968499	 -1.340002	 -0.786120	 -0.067461	 0.734675	 -0.643919	 0.202658	 1
1463623573.522	 14	 -0.000716	 0.000940	 0.005451	 1.968388	 -1.339977	 -0.786245	 -0.067443	 0.734671	 -0.643922	 0.202666	 1
1463623573.532	 14	 0.002461	 -0.004388	 0.005373	 1.968026	 -1.340000	 -0.786575	 -0.067445	 0.734642	 -0.643949	 0.202686	 1
1463623573.542	 14	 0.001403	 0.003015	 -0.000945	 1.968207	 -1.340077	 -0.786408	 -0.067471	 0.734643	 -0.643956	 0.202651	 1
1463623573.552	 14	 -0.004983	 0.008337	 -0.002973	 1.968817	 -1.340172	 -0.785877	 -0.067498	 0.734672	 -0.643945	 0.202572	 1
1463623573.562	 14	 -0.007104	 0.011535	 -0.002926	 1.969659	 -1.340199	 -0.785148	 -0.067503	 0.734729	 -0.643906	 0.202489	 1
1463623573.572	 14	 -0.005002	 0.003035	 -0.000892	 1.970192	 -1.340186	 -0.784672	 -0.067503	 0.734769	 -0.643873	 0.202451	 1
1463623573.582	 14	 -0.001835	 -0.007580	 0.003245	 1.970367	 -1.340138	 -0.784449	 -0.067514	 0.734786	 -0.643845	 0.202471	 1
1463623573.592	 14	 0.004536	 -0.016093	 0.005242	 1.969978	 -1.340091	 -0.784697	 -0.067534	 0.734762	 -0.643846	 0.202548	 1
1463623573.602	 14	 0.006673	 -0.016092	 0.006289	 1.969729	 -1.340055	 -0.784795	 -0.067567	 0.734746	 -0.643839	 0.202618	 1
1463623573.612	 14	 0.001133	 -0.005694	 0.005641	 1.969854	 -1.340023	 -0.784609	 -0.067586	 0.734758	 -0.643817	 0.202641	 1
1463623573.622	 14	 -0.000961	 0.004934	 0.003625	 1.970175	 -1.340001	 -0.784326	 -0.067580	 0.734784	 -0.643794	 0.202620	 1
1463623573.632	 14	 -0.003069	 0.011315	 0.002637	 1.970503	 -1.339969	 -0.784105	 -0.067546	 0.734815	 -0.643775	 0.202580	 1
1463623573.642	 14	 -0.002022	 0.008113	 0.001533	 1.970644	 -1.339942	 -0.784059	 -0.067509	 0.734832	 -0.643769	 0.202551	 1
1463623573.652	 14	 -0.005234	 0.005995	 0.001541	 1.970950	 -1.339926	 -0.783823	 -0.067493	 0.734857	 -0.643751	 0.202519	 1
1463623573.662	 14	 -0.002036	 0.005978	 0.000446	 1.971145	 -1.339924	 -0.783685	 -0.067480	 0.734873	 -0.643743	 0.202492	 1
1463623573.672	 14	 0.001165	 0.005968	 0.000418	 1.971242	 -1.339937	 -0.783651	 -0.067465	 0.734879	 -0.643746	 0.202464	 1
1463623573.682	 14	 -0.002041	 0.004914	 0.000436	 1.971222	 -1.339965	 -0.783722	 -0.067454	 0.734875	 -0.643759	 0.202440	 1
1463623573.692	 14	 -0.003133	 0.000655	 -0.000661	 1.971407	 -1.340025	 -0.783551	 -0.067475	 0.734879	 -0.643763	 0.202411	 1
1463623573.702	 14	 -0.008497	 -0.003600	 -0.002786	 1.971794	 -1.340084	 -0.783133	 -0.067522	 0.734895	 -0.643747	 0.202386	 1
1463623573.712	 14	 -0.010622	 -0.001466	 -0.002748	 1.972341	 -1.340085	 -0.782554	 -0.067559	 0.734930	 -0.643707	 0.202371	 1
1463623573.722	 14	 -0.008457	 0.003854	 -0.001652	 1.972573	 -1.340099	 -0.782328	 -0.067572	 0.734944	 -0.643695	 0.202355	 1
1463623573.732	 14	 -0.004149	 0.011294	 -0.000555	 1.972811	 -1.340109	 -0.782177	 -0.067553	 0.734961	 -0.643691	 0.202313	 1
1463623573.742	 14	 0.002239	 0.007028	 0.000415	 1.972689	 -1.340147	 -0.782382	 -0.067529	 0.734950	 -0.643716	 0.202281	 1
1463623573.752	 14	 0.003272	 0.000635	 -0.000720	 1.972552	 -1.340203	 -0.782548	 -0.067528	 0.734933	 -0.643742	 0.202262	 1
1463623573.762	 14	 -0.001230	 -0.000587	 -0.002573	 1.972653	 -1.340273	 -0.782442	 -0.067556	 0.734929	 -0.643751	 0.202239	 1
1463623573.772	 14	 -0.004426	 0.001542	 -0.003592	 1.972998	 -1.340333	 -0.782102	 -0.067588	 0.734942	 -0.643743	 0.202205	 1
1463623573.782	 14	 -0.007633	 0.000488	 -0.003574	 1.973565	 -1.340372	 -0.781547	 -0.067621	 0.734975	 -0.643715	 0.202164	 1
1463623573.792	 14	 -0.006581	 -0.002706	 -0.003613	 1.973831	 -1.340366	 -0.781258	 -0.067639	 0.734993	 -0.643693	 0.202161	 1
1463623573.802	 14	 -0.005550	 -0.012267	 -0.001579	 1.973621	 -1.340384	 -0.781351	 -0.067678	 0.734972	 -0.643700	 0.202204	 1
1463623573.812	 14	 -0.001316	 -0.019726	 -0.001685	 1.973218	 -1.340390	 -0.781565	 -0.067731	 0.734938	 -0.643709	 0.202281	 1
1463623573.822	 14	 -0.001319	 -0.019734	 -0.002751	 1.972861	 -1.340464	 -0.781710	 -0.067815	 0.734895	 -0.643729	 0.202344	 1
1463623573.832	 14	 -0.000211	 -0.011228	 -0.002682	 1.972561	 -1.340513	 -0.781875	 -0.067865	 0.734862	 -0.643747	 0.202388	 1
1463623573.842	 14	 -0.001228	 -0.000588	 -0.002574	 1.972613	 -1.340513	 -0.781791	 -0.067880	 0.734865	 -0.643741	 0.202396	 1
1463623573.852	 14	 -0.001192	 0.007913	 -0.003560	 1.972901	 -1.340478	 -0.781557	 -0.067863	 0.734891	 -0.643719	 0.202375	 1
1463623573.862	 14	 -0.002241	 0.010059	 -0.001399	 1.973037	 -1.340439	 -0.781513	 -0.067823	 0.734910	 -0.643709	 0.202351	 1
1463623573.872	 14	 -0.000104	 0.010060	 -0.000351	 1.973425	 -1.340390	 -0.781241	 -0.067784	 0.734948	 -0.643683	 0.202310	 1
1463623573.882	 14	 -0.000124	 0.005806	 -0.000390	 1.973680	 -1.340356	 -0.781063	 -0.067757	 0.734973	 -0.643666	 0.202283	 1
1463623573.892	 14	 -0.002274	 0.002621	 -0.000402	 1.973876	 -1.340399	 -0.780905	 -0.067764	 0.734981	 -0.643667	 0.202249	 1
1463623573.902	 14	 -0.001222	 0.000483	 -0.001498	 1.974185	 -1.340477	 -0.780618	 -0.067794	 0.734990	 -0.643667	 0.202206	 1
1463623573.912	 14	 -0.003587	 -0.002829	 -0.001255	 1.974655	 -1.340505	 -0.780121	 -0.067833	 0.735016	 -0.643639	 0.202185	 1
1463623573.922	 14	 -0.005725	 -0.000719	 -0.004415	 1.975129	 -1.340551	 -0.779624	 -0.067877	 0.735040	 -0.643616	 0.202158	 1
1463623573.932	 14	 -0.004649	 0.000350	 -0.003349	 1.975634	 -1.340546	 -0.779117	 -0.067900	 0.735074	 -0.643581	 0.202137	 1
1463623573.942	 14	 -0.004661	 -0.003890	 -0.001255	 1.975902	 -1.340463	 -0.778821	 -0.067897	 0.735105	 -0.643540	 0.202157	 1
1463623573.952	 14	 -0.004688	 -0.010264	 -0.000248	 1.976044	 -1.340363	 -0.778583	 -0.067910	 0.735127	 -0.643497	 0.202210	 1
1463623573.962	 14	 -0.004710	 -0.016631	 0.001826	 1.975849	 -1.340276	 -0.778617	 -0.067934	 0.735122	 -0.643473	 0.202295	 1
1463623573.972	 14	 -0.003663	 -0.020889	 0.001777	 1.975607	 -1.340226	 -0.778649	 -0.067985	 0.735106	 -0.643456	 0.202388	 1
1463623573.982	 14	 -0.002599	 -0.019844	 -0.000353	 1.975368	 -1.340194	 -0.778676	 -0.068042	 0.735088	 -0.643443	 0.202476	 1
1463623573.992	 14	 -0.001506	 -0.014529	 -0.000313	 1.975154	 -1.340187	 -0.778723	 -0.068092	 0.735069	 -0.643439	 0.202541	 1
1463623574.002	 14	 0.001707	 -0.011356	 -0.001377	 1.974587	 -1.340170	 -0.779155	 -0.068111	 0.735029	 -0.643460	 0.202616	 1
1463623574.012	 14	 0.004926	 -0.010278	 0.001804	 1.974197	 -1.340120	 -0.779444	 -0.068115	 0.735007	 -0.643464	 0.202680	 1
1463623574.022	 14	 0.009209	 -0.008156	 0.002853	 1.973606	 -1.340079	 -0.779954	 -0.068105	 0.734971	 -0.643485	 0.202745	 1
1463623574.032	 14	 0.010276	 -0.008160	 0.002844	 1.973015	 -1.340019	 -0.780480	 -0.068084	 0.734939	 -0.643504	 0.202810	 1
1463623574.042	 14	 0.011341	 -0.009219	 0.003891	 1.972696	 -1.339972	 -0.780727	 -0.068082	 0.734922	 -0.643508	 0.202860	 1
1463623574.052	 14	 0.008123	 -0.014512	 0.006002	 1.972189	 -1.339866	 -0.781124	 -0.068068	 0.734901	 -0.643505	 0.202949	 1
1463623574.062	 14	 0.002776	 -0.016623	 0.006030	 1.971826	 -1.339734	 -0.781334	 -0.068068	 0.734892	 -0.643483	 0.203052	 1
1463623574.072	 14	 -0.001681	 -0.016716	 0.007376	 1.971402	 -1.339615	 -0.781584	 -0.068077	 0.734876	 -0.643466	 0.203161	 1
1463623574.082	 14	 -0.003789	 -0.010336	 0.006388	 1.971127	 -1.339536	 -0.781722	 -0.068091	 0.734865	 -0.643452	 0.203240	 1
1463623574.092	 14	 0.004791	 -0.000796	 0.005336	 1.970548	 -1.339561	 -0.782261	 -0.068087	 0.734821	 -0.643493	 0.203272	 1
1463623574.102	 14	 0.012297	 0.006627	 0.005339	 1.969811	 -1.339635	 -0.783048	 -0.068057	 0.734761	 -0.643565	 0.203269	 1
1463623574.112	 14	 0.017655	 0.012977	 0.003220	 1.968892	 -1.339705	 -0.784091	 -0.067991	 0.734692	 -0.643656	 0.203252	 1
1463623574.122	 14	 0.020891	 0.018301	 0.005373	 1.968120	 -1.339718	 -0.785055	 -0.067889	 0.734644	 -0.643731	 0.203221	 1
1463623574.132	 14	 0.018781	 0.022570	 0.006498	 1.967393	 -1.339688	 -0.786024	 -0.067758	 0.734608	 -0.643798	 0.203185	 1
1463623574.142	 14	 0.016636	 0.020449	 0.006496	 1.966933	 -1.339705	 -0.786718	 -0.067656	 0.734582	 -0.643857	 0.203125	 1
1463623574.152	 14	 0.009121	 0.011954	 0.005417	 1.966697	 -1.339711	 -0.787112	 -0.067589	 0.734571	 -0.643890	 0.203083	 1
1463623574.162	 14	 0.001620	 0.005595	 0.005422	 1.966852	 -1.339680	 -0.787044	 -0.067555	 0.734589	 -0.643881	 0.203057	 1
1463623574.172	 14	 0.001592	 0.001324	 0.003251	 1.966630	 -1.339715	 -0.787279	 -0.067550	 0.734569	 -0.643906	 0.203053	 1
1463623574.182	 14	 0.002661	 0.002377	 0.002185	 1.966163	 -1.339750	 -0.787763	 -0.067534	 0.734532	 -0.643948	 0.203059	 1
1463623574.192	 14	 0.006946	 0.005555	 0.002178	 1.965589	 -1.339775	 -0.788380	 -0.067499	 0.734491	 -0.643997	 0.203064	 1
1463623574.202	 14	 0.011235	 0.009796	 0.002180	 1.964877	 -1.339845	 -0.789193	 -0.067451	 0.734435	 -0.644072	 0.203044	 1
1463623574.212	 14	 0.016615	 0.017241	 0.004333	 1.964221	 -1.339906	 -0.790015	 -0.067379	 0.734387	 -0.644147	 0.203003	 1
1463623574.222	 14	 0.020917	 0.021506	 0.007533	 1.963441	 -1.339947	 -0.791020	 -0.067273	 0.734335	 -0.644233	 0.202953	 1
1463623574.232	 14	 0.025173	 0.016198	 0.010643	 1.962644	 -1.339967	 -0.792029	 -0.067166	 0.734285	 -0.644313	 0.202915	 1
1463623574.242	 14	 0.026197	 0.005574	 0.012666	 1.961789	 -1.339989	 -0.793012	 -0.067087	 0.734228	 -0.644389	 0.202906	 1
1463623574.252	 14	 0.024902	 -0.004105	 0.012827	 1.960944	 -1.339971	 -0.793880	 -0.067035	 0.734174	 -0.644445	 0.202942	 1
1463623574.262	 14	 0.020602	 -0.011530	 0.013860	 1.960230	 -1.339978	 -0.794531	 -0.067028	 0.734123	 -0.644488	 0.202992	 1
1463623574.272	 14	 0.014178	 -0.013653	 0.011763	 1.960526	 -1.339997	 -0.794160	 -0.067075	 0.734137	 -0.644465	 0.202998	 1
1463623574.282	 14	 0.007787	 -0.007282	 0.007613	 1.960490	 -1.340032	 -0.794131	 -0.067108	 0.734127	 -0.644469	 0.203010	 1
1463623574.292	 14	 0.005686	 0.003330	 0.003466	 1.960406	 -1.340067	 -0.794237	 -0.067107	 0.734117	 -0.644485	 0.202997	 1
1463623574.302	 14	 0.005713	 0.010760	 0.001403	 1.960352	 -1.340099	 -0.794386	 -0.067079	 0.734112	 -0.644506	 0.202960	 1
1463623574.312	 14	 0.011083	 0.017134	 0.002481	 1.960070	 -1.340141	 -0.794838	 -0.067016	 0.734092	 -0.644552	 0.202906	 1
1463623574.322	 14	 0.015391	 0.024575	 0.003579	 1.959839	 -1.340153	 -0.795316	 -0.066919	 0.734082	 -0.644596	 0.202833	 1
1463623574.332	 14	 0.017533	 0.024584	 0.005692	 1.959449	 -1.340169	 -0.795974	 -0.066808	 0.734062	 -0.644653	 0.202759	 1
1463623574.342	 14	 0.015383	 0.020343	 0.006736	 1.959192	 -1.340190	 -0.796484	 -0.066710	 0.734050	 -0.644701	 0.202684	 1
1463623574.352	 14	 0.010020	 0.013985	 0.007789	 1.959114	 -1.340231	 -0.796736	 -0.066655	 0.734044	 -0.644734	 0.202619	 1
1463623574.362	 14	 0.004636	 0.006532	 0.004568	 1.959157	 -1.340312	 -0.796785	 -0.066647	 0.734038	 -0.644759	 0.202564	 1
1463623574.372	 14	 -0.000723	 0.003342	 0.002451	 1.959408	 -1.340441	 -0.796588	 -0.066678	 0.734037	 -0.644777	 0.202499	 1
1463623574.382	 14	 -0.000735	 0.004375	 -0.001804	 1.959619	 -1.340572	 -0.796424	 -0.066710	 0.734033	 -0.644798	 0.202437	 1
1463623574.392	 14	 0.003523	 0.001179	 -0.000806	 1.959546	 -1.340707	 -0.796526	 -0.066736	 0.734008	 -0.644838	 0.202392	 1
1463623574.402	 14	 0.004431	 -0.007405	 0.000347	 1.959334	 -1.340801	 -0.796692	 -0.066772	 0.733978	 -0.644869	 0.202390	 1
1463623574.412	 14	 0.001189	 -0.015904	 0.000295	 1.959354	 -1.340869	 -0.796536	 -0.066843	 0.733964	 -0.644870	 0.202413	 1
1463623574.422	 14	 0.002236	 -0.019106	 -0.000811	 1.959413	 -1.340929	 -0.796302	 -0.066928	 0.733953	 -0.644862	 0.202450	 1
1463623574.432	 14	 0.002275	 -0.010597	 -0.000733	 1.959628	 -1.341020	 -0.795979	 -0.067004	 0.733950	 -0.644858	 0.202449	 1
1463623574.442	 14	 0.003363	 -0.005289	 -0.001759	 1.959863	 -1.341081	 -0.795695	 -0.067052	 0.733955	 -0.644851	 0.202437	 1
1463623574.452	 14	 0.002291	 -0.005294	 -0.002816	 1.959951	 -1.341121	 -0.795560	 -0.067085	 0.733953	 -0.644850	 0.202437	 1
1463623574.462	 14	 0.002265	 -0.011668	 -0.001810	 1.959806	 -1.341207	 -0.795603	 -0.067142	 0.733927	 -0.644869	 0.202452	 1
1463623574.472	 14	 0.002230	 -0.019114	 -0.001879	 1.959486	 -1.341270	 -0.795753	 -0.067209	 0.733890	 -0.644888	 0.202503	 1
1463623574.482	 14	 0.002220	 -0.021241	 -0.001899	 1.959112	 -1.341322	 -0.795912	 -0.067287	 0.733849	 -0.644904	 0.202574	 1
1463623574.492	 14	 0.001159	 -0.019119	 -0.002936	 1.958799	 -1.341369	 -0.796009	 -0.067366	 0.733814	 -0.644914	 0.202644	 1
1463623574.502	 14	 -0.002025	 -0.014862	 -0.003934	 1.958393	 -1.341455	 -0.796249	 -0.067435	 0.733768	 -0.644945	 0.202691	 1
1463623574.512	 14	 -0.001989	 -0.007417	 -0.003865	 1.958141	 -1.341485	 -0.796393	 -0.067473	 0.733742	 -0.644958	 0.202728	 1
1463623574.522	 14	 0.002333	 0.001103	 -0.000626	 1.958033	 -1.341478	 -0.796488	 -0.067470	 0.733736	 -0.644962	 0.202739	 1
1463623574.532	 14	 0.007718	 0.010667	 0.000482	 1.957692	 -1.341459	 -0.796915	 -0.067418	 0.733718	 -0.644990	 0.202732	 1
1463623574.542	 14	 0.008794	 0.011735	 0.001549	 1.957511	 -1.341453	 -0.797231	 -0.067359	 0.733712	 -0.645014	 0.202698	 1
1463623574.552	 14	 0.006645	 0.008551	 0.001537	 1.957498	 -1.341520	 -0.797355	 -0.067337	 0.733704	 -0.645042	 0.202644	 1
1463623574.562	 14	 0.002337	 0.002166	 -0.000617	 1.957656	 -1.341580	 -0.797242	 -0.067346	 0.733707	 -0.645050	 0.202606	 1
1463623574.572	 14	 -0.004235	 -0.008538	 -0.002621	 1.957675	 -1.341730	 -0.797153	 -0.067418	 0.733683	 -0.645076	 0.202584	 1
1463623574.582	 14	 -0.008531	 -0.012796	 -0.004756	 1.957723	 -1.341884	 -0.796964	 -0.067518	 0.733658	 -0.645094	 0.202583	 1
1463623574.592	 14	 -0.005309	 -0.009607	 -0.003689	 1.957362	 -1.341979	 -0.797196	 -0.067578	 0.733615	 -0.645128	 0.202614	 1
1463623574.602	 14	 0.001114	 -0.006428	 -0.002649	 1.956763	 -1.342048	 -0.797709	 -0.067604	 0.733561	 -0.645175	 0.202649	 1
1463623574.612	 14	 0.005388	 -0.006433	 -0.001620	 1.956092	 -1.342065	 -0.798305	 -0.067607	 0.733511	 -0.645217	 0.202697	 1
1463623574.622	 14	 0.006474	 -0.004294	 0.000522	 1.955468	 -1.342026	 -0.798884	 -0.067584	 0.733473	 -0.645246	 0.202750	 1
1463623574.632	 14	 0.005431	 -0.001084	 0.002693	 1.954979	 -1.341991	 -0.799354	 -0.067559	 0.733445	 -0.645269	 0.202788	 1
1463623574.642	 14	 0.000105	 0.001059	 0.002761	 1.954965	 -1.341875	 -0.799379	 -0.067519	 0.733462	 -0.645244	 0.202818	 1
1463623574.652	 14	 -0.002046	 -0.003182	 0.003806	 1.955077	 -1.341797	 -0.799255	 -0.067505	 0.733481	 -0.645217	 0.202840	 1
1463623574.662	 14	 -0.003114	 -0.004234	 0.004872	 1.954909	 -1.341702	 -0.799380	 -0.067485	 0.733482	 -0.645202	 0.202888	 1
1463623574.672	 14	 0.000103	 -0.001053	 0.004873	 1.954602	 -1.341675	 -0.799661	 -0.067472	 0.733465	 -0.645214	 0.202918	 1
1463623574.682	 14	 0.003316	 0.001064	 0.004865	 1.954078	 -1.341676	 -0.800181	 -0.067451	 0.733429	 -0.645249	 0.202942	 1
1463623574.692	 14	 0.005467	 0.005305	 0.003820	 1.953364	 -1.341701	 -0.800933	 -0.067413	 0.733378	 -0.645307	 0.202954	 1
1463623574.702	 14	 0.007636	 0.011688	 0.004926	 1.952786	 -1.341719	 -0.801623	 -0.067352	 0.733340	 -0.645362	 0.202938	 1
1463623574.712	 14	 0.006576	 0.013810	 0.003890	 1.952402	 -1.341701	 -0.802149	 -0.067278	 0.733321	 -0.645398	 0.202914	 1
1463623574.722	 14	 0.005425	 0.014820	 0.002978	 1.951952	 -1.341685	 -0.802741	 -0.067201	 0.733298	 -0.645440	 0.202893	 1
1463623574.732	 14	 0.004373	 0.016958	 0.004073	 1.951647	 -1.341655	 -0.803211	 -0.067118	 0.733287	 -0.645470	 0.202862	 1
1463623574.742	 14	 0.005443	 0.015907	 0.006186	 1.951443	 -1.341589	 -0.803581	 -0.067029	 0.733289	 -0.645486	 0.202836	 1
1463623574.752	 14	 0.007554	 0.011638	 0.005062	 1.950954	 -1.341560	 -0.804205	 -0.066949	 0.733265	 -0.645526	 0.202822	 1
1463623574.762	 14	 0.008621	 0.010578	 0.006108	 1.950435	 -1.341601	 -0.804847	 -0.066893	 0.733228	 -0.645583	 0.202794	 1
1463623574.772	 14	 0.009681	 0.012671	 0.001855	 1.950088	 -1.341660	 -0.805326	 -0.066848	 0.733199	 -0.645634	 0.202749	 1
1463623574.782	 14	 0.005408	 0.012676	 0.000826	 1.949897	 -1.341733	 -0.805650	 -0.066812	 0.733180	 -0.645677	 0.202694	 1
1463623574.792	 14	 0.001136	 0.012681	 -0.000202	 1.949700	 -1.341720	 -0.805970	 -0.066755	 0.733173	 -0.645700	 0.202666	 1
1463623574.802	 14	 0.002198	 0.010558	 0.000835	 1.949440	 -1.341681	 -0.806341	 -0.066691	 0.733164	 -0.645720	 0.202653	 1
1463623574.812	 14	 -0.001021	 0.004209	 0.004002	 1.949283	 -1.341618	 -0.806551	 -0.066645	 0.733165	 -0.645721	 0.202661	 1
1463623574.822	 14	 0.000032	 0.001014	 0.003963	 1.948742	 -1.341582	 -0.807090	 -0.066612	 0.733134	 -0.645750	 0.202696	 1
1463623574.832	 14	 0.001105	 0.002074	 0.003964	 1.948170	 -1.341541	 -0.807667	 -0.066573	 0.733101	 -0.645780	 0.202731	 1
1463623574.842	 14	 0.003240	 0.002068	 0.003946	 1.947556	 -1.341556	 -0.808295	 -0.066545	 0.733058	 -0.645826	 0.202749	 1
1463623574.852	 14	 0.004328	 0.007375	 0.002920	 1.947338	 -1.341572	 -0.808589	 -0.066513	 0.733043	 -0.645853	 0.202729	 1
1463623574.862	 14	 0.001123	 0.008433	 0.000826	 1.947453	 -1.341570	 -0.808561	 -0.066485	 0.733054	 -0.645853	 0.202697	 1
1463623574.872	 14	 0.001081	 0.009469	 0.003084	 1.947632	 -1.341498	 -0.808489	 -0.066432	 0.733080	 -0.645835	 0.202675	 1
1463623574.882	 14	 0.003193	 0.002040	 0.006194	 1.947499	 -1.341414	 -0.808685	 -0.066377	 0.733086	 -0.645831	 0.202685	 1
1463623574.892	 14	 0.005254	 -0.016026	 0.009205	 1.946882	 -1.341359	 -0.809198	 -0.066372	 0.733049	 -0.645850	 0.202761	 1
1463623574.902	 14	 0.009478	 -0.025612	 0.009079	 1.945943	 -1.341335	 -0.809899	 -0.066411	 0.732980	 -0.645885	 0.202886	 1
1463623574.912	 14	 0.008406	 -0.025616	 0.008022	 1.945210	 -1.341352	 -0.810391	 -0.066473	 0.732920	 -0.645914	 0.202991	 1
1463623574.922	 14	 0.005211	 -0.022431	 0.005947	 1.944727	 -1.341359	 -0.810656	 -0.066534	 0.732878	 -0.645927	 0.203080	 1
1463623574.932	 14	 0.003109	 -0.013931	 0.003913	 1.944259	 -1.341385	 -0.810962	 -0.066580	 0.732837	 -0.645948	 0.203145	 1
1463623574.942	 14	 0.002085	 -0.002251	 0.000833	 1.944116	 -1.341425	 -0.811063	 -0.066602	 0.732820	 -0.645963	 0.203153	 1
1463623574.952	 14	 0.006364	 -0.001193	 0.001872	 1.943463	 -1.341418	 -0.811700	 -0.066577	 0.732776	 -0.646004	 0.203189	 1
1463623574.962	 14	 0.009548	 -0.008617	 0.006039	 1.942486	 -1.341343	 -0.812610	 -0.066537	 0.732718	 -0.646047	 0.203274	 1
1463623574.972	 14	 0.016963	 -0.025612	 0.012212	 1.940895	 -1.341241	 -0.813996	 -0.066512	 0.732618	 -0.646112	 0.203439	 1
1463623574.982	 14	 0.022292	 -0.036188	 0.022726	 1.938706	 -1.341031	 -0.815853	 -0.066475	 0.732487	 -0.646180	 0.203702	 1
1463623574.992	 14	 0.035096	 -0.045723	 0.033185	 1.935592	 -1.340735	 -0.818552	 -0.066403	 0.732303	 -0.646285	 0.204056	 1
1463623575.002	 14	 0.053204	 -0.063767	 0.045650	 1.931304	 -1.340485	 -0.822296	 -0.066341	 0.732026	 -0.646469	 0.204488	 1
1463623575.012	 14	 0.074464	 -0.085074	 0.049530	 1.925940	 -1.340261	 -0.826939	 -0.066308	 0.731663	 -0.646716	 0.205015	 1
1463623575.022	 14	 0.086108	 -0.101104	 0.043949	 1.919934	 -1.340367	 -0.832025	 -0.066422	 0.731200	 -0.647062	 0.205535	 1
1463623575.032	 14	 0.055377	 -0.030904	 0.037504	 1.917027	 -1.340484	 -0.834475	 -0.066504	 0.730966	 -0.647243	 0.205771	 1
1463623575.042	 14	 0.026890	 0.043593	 0.032047	 1.917236	 -1.340572	 -0.834651	 -0.066399	 0.730981	 -0.647288	 0.205612	 1
1463623575.052	 14	 0.020379	 0.038147	 0.011801	 1.917954	 -1.340741	 -0.834442	 -0.066295	 0.731024	 -0.647327	 0.205368	 1
1463623575.062	 14	 0.015813	 -0.016156	 0.001742	 1.917980	 -1.340913	 -0.834450	 -0.066337	 0.731003	 -0.647367	 0.205305	 1
1463623575.072	 14	 -0.006796	 -0.054412	 -0.002682	 1.918161	 -1.341015	 -0.833809	 -0.066544	 0.730986	 -0.647330	 0.205417	 1
1463623575.082	 14	 -0.031424	 -0.067140	 -0.007916	 1.919490	 -1.341073	 -0.831811	 -0.066862	 0.731047	 -0.647182	 0.205560	 1
1463623575.092	 14	 -0.041021	 -0.057608	 -0.017336	 1.920887	 -1.341197	 -0.829768	 -0.067195	 0.731105	 -0.647046	 0.205674	 1
1463623575.102	 14	 -0.036679	 -0.039562	 -0.020405	 1.922148	 -1.341386	 -0.828006	 -0.067490	 0.731148	 -0.646949	 0.205728	 1
1463623575.112	 14	 -0.031218	 -0.009826	 -0.024439	 1.923408	 -1.341582	 -0.826511	 -0.067689	 0.731199	 -0.646882	 0.205694	 1
1463623575.122	 14	 -0.058505	 0.089163	 -0.025412	 1.928354	 -1.341528	 -0.822265	 -0.067626	 0.731571	 -0.646601	 0.205274	 1
1463623575.132	 14	 -0.082135	 0.048883	 -0.015989	 1.931687	 -1.341379	 -0.819452	 -0.067532	 0.731840	 -0.646391	 0.205007	 1
1463623575.142	 14	 -0.061014	 0.006234	 -0.021899	 1.934370	 -1.341443	 -0.816818	 -0.067649	 0.732016	 -0.646227	 0.204858	 1
1463623575.152	 14	 -0.036618	 -0.015198	 -0.034035	 1.936229	 -1.341695	 -0.814782	 -0.067870	 0.732101	 -0.646138	 0.204762	 1
1463623575.162	 14	 -0.033403	 -0.008857	 -0.038267	 1.937798	 -1.341929	 -0.813033	 -0.068075	 0.732167	 -0.646065	 0.204685	 1
1463623575.172	 14	 -0.042882	 0.016708	 -0.036881	 1.940482	 -1.342091	 -0.810398	 -0.068222	 0.732328	 -0.645924	 0.204507	 1
1463623575.182	 14	 -0.045971	 0.036958	 -0.032402	 1.943150	 -1.342165	 -0.807993	 -0.068264	 0.732508	 -0.645786	 0.204285	 1
1463623575.192	 14	 -0.035263	 0.039099	 -0.026079	 1.945041	 -1.342213	 -0.806433	 -0.068239	 0.732640	 -0.645703	 0.204082	 1
1463623575.202	 14	 -0.021482	 0.030588	 -0.017669	 1.945920	 -1.342290	 -0.805837	 -0.068197	 0.732698	 -0.645689	 0.203931	 1
1463623575.212	 14	 -0.013002	 0.015694	 -0.014683	 1.946186	 -1.342383	 -0.805721	 -0.068182	 0.732708	 -0.645708	 0.203844	 1
1463623575.222	 14	 -0.007651	 0.017813	 -0.013644	 1.946335	 -1.342529	 -0.805714	 -0.068180	 0.732701	 -0.645746	 0.203749	 1
1463623575.232	 14	 -0.008686	 0.026310	 -0.015688	 1.947172	 -1.342675	 -0.805100	 -0.068179	 0.732743	 -0.645745	 0.203599	 1
1463623575.242	 14	 -0.012938	 0.031626	 -0.017734	 1.948583	 -1.342853	 -0.803983	 -0.068187	 0.732822	 -0.645720	 0.203391	 1
1463623575.252	 14	 -0.015092	 0.028433	 -0.018811	 1.949926	 -1.343003	 -0.802920	 -0.068189	 0.732899	 -0.645693	 0.203199	 1
1463623575.262	 14	 -0.014013	 0.028453	 -0.015623	 1.951313	 -1.343074	 -0.801801	 -0.068172	 0.732991	 -0.645643	 0.203032	 1
1463623575.272	 14	 -0.010806	 0.030563	 -0.016697	 1.952658	 -1.343148	 -0.800750	 -0.068146	 0.733081	 -0.645599	 0.202857	 1
1463623575.282	 14	 -0.016170	 0.028421	 -0.020934	 1.954342	 -1.343350	 -0.799340	 -0.068180	 0.733173	 -0.645560	 0.202637	 1
1463623575.292	 14	 -0.024690	 0.035862	 -0.025055	 1.956778	 -1.343602	 -0.797225	 -0.068245	 0.733309	 -0.645487	 0.202354	 1
1463623575.302	 14	 -0.037358	 0.061459	 -0.020445	 1.959912	 -1.343793	 -0.794608	 -0.068251	 0.733507	 -0.645374	 0.201995	 1
1463623575.312	 14	 -0.045795	 0.076431	 -0.012774	 1.963434	 -1.343889	 -0.791797	 -0.068175	 0.733751	 -0.645233	 0.201583	 1
1463623575.322	 14	 -0.040566	 0.059350	 -0.019373	 1.966171	 -1.343978	 -0.789666	 -0.068100	 0.733941	 -0.645132	 0.201240	 1
1463623575.332	 14	 -0.030081	 0.019962	 -0.019830	 1.967462	 -1.344001	 -0.788621	 -0.068074	 0.734031	 -0.645076	 0.201098	 1
1463623575.342	 14	 -0.022685	 -0.011832	 -0.001005	 1.967364	 -1.343803	 -0.788607	 -0.068052	 0.734052	 -0.645025	 0.201194	 1
1463623575.352	 14	 -0.015312	 -0.034059	 0.020106	 1.966083	 -1.343305	 -0.789566	 -0.067963	 0.734033	 -0.644962	 0.201497	 1
1463623575.362	 14	 0.011252	 -0.075476	 0.039744	 1.962461	 -1.342626	 -0.792507	 -0.067849	 0.733873	 -0.644977	 0.202071	 1
1463623575.372	 14	 0.036859	 -0.095601	 0.061716	 1.957599	 -1.342106	 -0.796457	 -0.067811	 0.733595	 -0.645090	 0.202729	 1
1463623575.382	 14	 0.045459	 -0.087079	 0.067050	 1.953044	 -1.341725	 -0.800165	 -0.067805	 0.733316	 -0.645224	 0.203312	 1
1463623575.392	 14	 0.041241	 -0.072214	 0.061895	 1.949360	 -1.341426	 -0.803152	 -0.067808	 0.733088	 -0.645334	 0.203785	 1
1463623575.402	 14	 0.026369	 -0.049901	 0.052639	 1.946980	 -1.341205	 -0.805039	 -0.067818	 0.732942	 -0.645395	 0.204112	 1
1463623575.412	 14	 0.007250	 -0.020153	 0.040291	 1.946694	 -1.341012	 -0.805107	 -0.067827	 0.732944	 -0.645348	 0.204250	 1
1463623575.422	 14	 -0.028851	 0.036176	 0.019812	 1.948549	 -1.340854	 -0.803483	 -0.067776	 0.733102	 -0.645209	 0.204140	 1
1463623575.432	 14	 -0.036217	 0.064863	 0.012681	 1.951896	 -1.340658	 -0.800756	 -0.067636	 0.733381	 -0.644999	 0.203849	 1
1463623575.442	 14	 -0.031068	 0.028660	 0.009101	 1.954482	 -1.340493	 -0.798575	 -0.067552	 0.733596	 -0.644826	 0.203651	 1
1463623575.452	 14	 -0.029219	 -0.034080	 0.011699	 1.955187	 -1.340286	 -0.797663	 -0.067597	 0.733668	 -0.644709	 0.203745	 1
1463623575.462	 14	 -0.030544	 -0.093596	 0.017552	 1.954893	 -1.339952	 -0.797133	 -0.067786	 0.733671	 -0.644567	 0.204120	 1
1463623575.472	 14	 -0.033913	 -0.136071	 0.025713	 1.953991	 -1.339491	 -0.796731	 -0.068085	 0.733635	 -0.644389	 0.204712	 1
1463623575.482	 14	 -0.036125	 -0.160460	 0.035098	 1.953311	 -1.338945	 -0.795835	 -0.068467	 0.733618	 -0.644147	 0.205406	 1
1463623575.492	 14	 -0.040439	 -0.174236	 0.040336	 1.952890	 -1.338427	 -0.794526	 -0.068927	 0.733608	 -0.643877	 0.206130	 1
1463623575.502	 14	 -0.044762	 -0.177484	 0.030750	 1.952899	 -1.338156	 -0.792720	 -0.069504	 0.733588	 -0.643628	 0.206786	 1
1463623575.512	 14	 -0.041600	 -0.156354	 0.014982	 1.953498	 -1.338089	 -0.790454	 -0.070123	 0.733581	 -0.643399	 0.207315	 1
1463623575.522	 14	 -0.055287	 -0.116957	 0.015466	 1.954816	 -1.337887	 -0.787846	 -0.070595	 0.733657	 -0.643128	 0.207727	 1
1463623575.532	 14	 -0.078685	 -0.095651	 0.010538	 1.957572	 -1.337661	 -0.784055	 -0.071032	 0.733844	 -0.642778	 0.207999	 1
1463623575.542	 14	 -0.100076	 -0.085128	 -0.013694	 1.961588	 -1.337692	 -0.779082	 -0.071575	 0.734080	 -0.642411	 0.208114	 1
1463623575.552	 14	 -0.107620	 -0.092621	 -0.023292	 1.965721	 -1.337727	 -0.773935	 -0.072148	 0.734320	 -0.642032	 0.208240	 1
1463623575.562	 14	 -0.105486	 -0.093683	 -0.022256	 1.969198	 -1.337716	 -0.769383	 -0.072701	 0.734519	 -0.641682	 0.208427	 1
1463623575.572	 14	 -0.097910	 -0.078753	 -0.013657	 1.971952	 -1.337612	 -0.765673	 -0.073149	 0.734687	 -0.641370	 0.208635	 1
1463623575.582	 14	 -0.082800	 -0.056353	 0.001341	 1.972394	 -1.337371	 -0.764391	 -0.073406	 0.734724	 -0.641195	 0.208951	 1
1463623575.592	 14	 -0.086458	 0.059707	 0.017373	 1.976397	 -1.336946	 -0.760629	 -0.073380	 0.735072	 -0.640847	 0.208806	 1
1463623575.602	 14	 -0.095456	 0.176832	 0.031328	 1.982213	 -1.336515	 -0.756181	 -0.073024	 0.735585	 -0.640492	 0.208212	 1
1463623575.612	 14	 -0.099041	 0.325721	 0.027414	 1.990597	 -1.335990	 -0.750676	 -0.072211	 0.736341	 -0.640097	 0.207036	 1
1463623575.622	 14	 -0.114706	 0.407586	 0.016587	 1.999120	 -1.335412	 -0.745986	 -0.071042	 0.737147	 -0.639776	 0.205557	 1
1463623575.632	 14	 -0.124397	 0.389533	 0.016503	 2.007815	 -1.334855	 -0.741176	 -0.069873	 0.737961	 -0.639452	 0.204042	 1
1463623575.642	 14	 -0.131211	 0.300227	 0.018928	 2.015282	 -1.334206	 -0.736810	 -0.068909	 0.738678	 -0.639105	 0.202859	 1
1463623575.652	 14	 -0.139141	 0.197127	 0.025497	 2.021859	 -1.333597	 -0.732334	 -0.068286	 0.739293	 -0.638725	 0.202025	 1
1463623575.662	 14	 -0.155597	 0.103565	 0.023702	 2.028482	 -1.332931	 -0.726821	 -0.068019	 0.739887	 -0.638226	 0.201517	 1
1463623575.672	 14	 -0.165388	 0.065294	 0.022364	 2.035765	 -1.332166	 -0.720108	 -0.067960	 0.740524	 -0.637602	 0.201169	 1
1463623575.682	 14	 -0.172887	 0.084395	 0.014112	 2.044076	 -1.331558	 -0.712446	 -0.067978	 0.741204	 -0.636959	 0.200696	 1
1463623575.692	 14	 -0.190988	 0.117215	 -0.014205	 2.054178	 -1.331161	 -0.703290	 -0.068044	 0.741975	 -0.636282	 0.199970	 1
1463623575.702	 14	 -0.222905	 0.167048	 -0.048634	 2.064217	 -1.330519	 -0.694539	 -0.067921	 0.742794	 -0.635582	 0.199197	 1
1463623575.712	 14	 -0.266741	 0.191280	 -0.098117	 2.076880	 -1.330023	 -0.683431	 -0.067889	 0.743765	 -0.634777	 0.198148	 1
1463623575.722	 14	 -0.242359	 0.207785	 -0.158924	 2.090878	 -1.330075	 -0.671158	 -0.068030	 0.744721	 -0.634054	 0.196819	 1
1463623575.732	 14	 -0.186322	 0.075914	 -0.133995	 2.102145	 -1.330292	 -0.660770	 -0.068389	 0.745432	 -0.633478	 0.195857	 1
1463623575.742	 14	 -0.091854	 -0.081353	 -0.075533	 2.107657	 -1.330480	 -0.654603	 -0.068994	 0.745724	 -0.633115	 0.195708	 1
1463623575.752	 14	 0.018878	 -0.169661	 -0.034688	 2.107411	 -1.330795	 -0.653307	 -0.069640	 0.745594	 -0.633066	 0.196130	 1
1463623575.762	 14	 0.128756	 -0.217507	 0.011869	 2.101776	 -1.331323	 -0.656983	 -0.070197	 0.745068	 -0.633375	 0.196931	 1
1463623575.772	 14	 0.226081	 -0.241660	 0.093926	 2.090853	 -1.331716	 -0.665794	 -0.070484	 0.744225	 -0.633968	 0.198106	 1
1463623575.782	 14	 0.330217	 -0.170187	 0.165091	 2.075068	 -1.331905	 -0.680070	 -0.070235	 0.743123	 -0.634882	 0.199397	 1
1463623575.792	 14	 0.405406	 -0.129451	 0.239419	 2.055378	 -1.331815	 -0.698931	 -0.069464	 0.741829	 -0.636058	 0.200738	 1
1463623575.802	 14	 0.445304	 -0.100348	 0.308617	 2.032865	 -1.331201	 -0.721005	 -0.068277	 0.740429	 -0.637347	 0.202218	 1
1463623575.812	 14	 0.443293	 -0.116990	 0.359636	 2.009237	 -1.330000	 -0.744213	 -0.066883	 0.739017	 -0.638602	 0.203881	 1
1463623575.822	 14	 0.424780	 -0.219895	 0.388681	 1.985004	 -1.328294	 -0.767219	 -0.065634	 0.737573	 -0.639737	 0.205947	 1
1463623575.832	 14	 0.365406	 -0.379130	 0.406900	 1.961106	 -1.326093	 -0.788364	 -0.064836	 0.736128	 -0.640622	 0.208604	 1
1463623575.842	 14	 0.251460	 -0.567874	 0.441334	 1.939101	 -1.323141	 -0.805701	 -0.064618	 0.734815	 -0.641042	 0.211984	 1
1463623575.852	 14	 0.075759	 -0.783720	 0.526116	 1.920390	 -1.318913	 -0.817497	 -0.064988	 0.733798	 -0.640730	 0.216295	 1
1463623575.862	 14	 -0.144503	 -0.962057	 0.631885	 1.906519	 -1.312904	 -0.822277	 -0.065820	 0.733267	 -0.639439	 0.221598	 1
1463623575.872	 14	 -0.367648	 -1.069157	 0.733013	 1.898497	 -1.305192	 -0.819764	 -0.066910	 0.733326	 -0.637151	 0.227584	 1
1463623575.882	 14	 -0.547046	 -1.177452	 0.833749	 1.894947	 -1.295909	 -0.811515	 -0.068181	 0.733879	 -0.633973	 0.234202	 1
1463623575.892	 14	 -0.656987	 -1.256257	 0.922431	 1.893511	 -1.285346	 -0.800120	 -0.069541	 0.734722	 -0.630146	 0.241380	 1
1463623575.902	 14	 -0.666769	 -1.300840	 0.930627	 1.892026	 -1.274358	 -0.788228	 -0.070973	 0.735580	 -0.626081	 0.248812	 1
1463623575.912	 14	 -0.604374	 -1.434920	 0.946954	 1.887605	 -1.263485	 -0.778250	 -0.072656	 0.736098	 -0.622102	 0.256652	 1
1463623575.922	 14	 -0.504223	 -1.510378	 0.995471	 1.878749	 -1.252438	 -0.771755	 -0.074366	 0.736144	 -0.618308	 0.265061	 1
1463623575.932	 14	 -0.440568	 -1.357460	 0.987814	 1.868823	 -1.241667	 -0.767400	 -0.075678	 0.736021	 -0.614784	 0.273105	 1
1463623575.942	 14	 -0.415741	 -1.125203	 1.051573	 1.859893	 -1.230582	 -0.764295	 -0.076097	 0.736053	 -0.611366	 0.280474	 1
1463623575.952	 14	 -0.409272	 -0.937574	 1.114011	 1.852612	 -1.218871	 -0.761663	 -0.075617	 0.736351	 -0.607908	 0.287257	 1
1463623575.962	 14	 -0.403257	 -0.872034	 1.207290	 1.845387	 -1.206430	 -0.759941	 -0.074531	 0.736722	 -0.604390	 0.293937	 1
1463623575.972	 14	 -0.425572	 -0.960373	 1.336685	 1.837529	 -1.192725	 -0.758421	 -0.073138	 0.737088	 -0.600559	 0.301133	 1
1463623575.982	 14	 -0.436972	 -1.221069	 1.463316	 1.827281	 -1.177784	 -0.757072	 -0.071972	 0.737154	 -0.596354	 0.309492	 1
1463623575.992	 14	 -0.398294	 -1.823538	 1.707827	 1.810894	 -1.160877	 -0.757178	 -0.071417	 0.736400	 -0.591673	 0.320216	 1
1463623576.002	 14	 -0.357721	 -2.706770	 1.957169	 1.783636	 -1.141617	 -0.759029	 -0.072573	 0.733951	 -0.586330	 0.335062	 1
1463623576.012	 14	 -0.442057	 -2.500241	 2.242252	 1.757337	 -1.119584	 -0.759536	 -0.072894	 0.731521	 -0.580157	 0.350688	 1
1463623576.022	 14	 -0.512677	 -1.978029	 2.650585	 1.737344	 -1.093727	 -0.758335	 -0.070607	 0.730120	 -0.573007	 0.365516	 1
1463623576.032	 14	 -0.316481	 -1.514553	 3.133848	 1.719382	 -1.063349	 -0.760291	 -0.064948	 0.729213	 -0.565433	 0.379890	 1
1463623576.042	 14	 -0.028427	 -1.095316	 3.420866	 1.700902	 -1.029859	 -0.767731	 -0.056243	 0.728176	 -0.558202	 0.393708	 1
1463623576.052	 14	 0.142108	 -0.779140	 3.528899	 1.684088	 -0.995268	 -0.777682	 -0.045634	 0.727106	 -0.551368	 0.406482	 1
1463623576.062	 14	 0.241724	 -0.758725	 3.597495	 1.667809	 -0.959994	 -0.788295	 -0.034262	 0.725674	 -0.544649	 0.419024	 1
1463623576.072	 14	 0.151574	 -0.698394	 3.667050	 1.653447	 -0.923827	 -0.797011	 -0.022621	 0.724134	 -0.537462	 0.431570	 1
1463623576.082	 14	 0.017734	 -0.657856	 3.776235	 1.642871	 -0.886551	 -0.802343	 -0.010697	 0.722942	 -0.529365	 0.443862	 1
1463623576.092	 14	 0.020228	 -0.726805	 3.949291	 1.632127	 -0.847590	 -0.806696	 0.001506	 0.721304	 -0.520629	 0.456798	 1
1463623576.102	 14	 -0.005196	 -0.866466	 3.893859	 1.621447	 -0.808365	 -0.809912	 0.013505	 0.719237	 -0.511550	 0.469928	 1
1463623576.112	 14	 0.005247	 -0.902593	 3.609939	 1.610473	 -0.771539	 -0.812407	 0.024429	 0.716673	 -0.502891	 0.482580	 1
1463623576.122	 14	 -0.083400	 -0.597716	 3.228807	 1.603072	 -0.738256	 -0.813258	 0.034498	 0.714664	 -0.494664	 0.493329	 1
1463623576.132	 14	 -0.151677	 -0.233675	 2.801156	 1.600318	 -0.709139	 -0.812613	 0.043760	 0.713643	 -0.486997	 0.501631	 1
1463623576.142	 14	 -0.184339	 -0.021746	 2.385633	 1.600501	 -0.684222	 -0.811254	 0.052018	 0.713303	 -0.480100	 0.507933	 1
1463623576.152	 14	 -0.152190	 -0.077142	 1.946810	 1.600866	 -0.663600	 -0.809940	 0.058830	 0.713009	 -0.474274	 0.513052	 1
1463623576.162	 14	 -0.070726	 -0.353545	 1.558788	 1.598474	 -0.647102	 -0.809387	 0.063821	 0.712016	 -0.469784	 0.517941	 1
1463623576.172	 14	 0.054381	 -0.752599	 1.288611	 1.591636	 -0.633616	 -0.810003	 0.067146	 0.709851	 -0.466542	 0.523395	 1
1463623576.182	 14	 0.299537	 -1.086726	 1.073412	 1.579614	 -0.622402	 -0.813169	 0.069394	 0.706234	 -0.464775	 0.529530	 1
1463623576.192	 14	 0.345641	 -1.381384	 0.940245	 1.564108	 -0.612744	 -0.817541	 0.070729	 0.701614	 -0.463907	 0.536215	 1
1463623576.202	 14	 0.212759	 -1.650724	 0.852569	 1.546549	 -0.603947	 -0.820391	 0.070767	 0.696430	 -0.462970	 0.543725	 1
1463623576.212	 14	 0.010852	 -1.831719	 0.746067	 1.528348	 -0.596212	 -0.820933	 0.069501	 0.691095	 -0.461729	 0.551691	 1
1463623576.222	 14	 -0.304629	 -1.890004	 0.648090	 1.511216	 -0.589614	 -0.817877	 0.066864	 0.686137	 -0.459749	 0.559801	 1
1463623576.232	 14	 -0.655065	 -1.889713	 0.546699	 1.496342	 -0.584270	 -0.810625	 0.062900	 0.681924	 -0.456806	 0.567760	 1
1463623576.242	 14	 -0.970629	 -1.938656	 0.416837	 1.483260	 -0.580524	 -0.799505	 0.057499	 0.678338	 -0.453057	 0.575578	 1
1463623576.252	 14	 -1.241900	 -2.148971	 0.345835	 1.470288	 -0.578070	 -0.785125	 0.050603	 0.674849	 -0.448610	 0.583753	 1
1463623576.262	 14	 -1.529252	 -2.445841	 0.359430	 1.456215	 -0.576140	 -0.767408	 0.042211	 0.671030	 -0.443230	 0.592861	 1
1463623576.272	 14	 -1.824146	 -2.591143	 0.443775	 1.442125	 -0.574107	 -0.746079	 0.032725	 0.667126	 -0.436598	 0.602706	 1
1463623576.282	 14	 -2.068944	 -2.557610	 0.568781	 1.429706	 -0.571514	 -0.721521	 0.022829	 0.663582	 -0.428644	 0.612701	 1
1463623576.292	 14	 -2.234079	 -2.438695	 0.766360	 1.419605	 -0.567693	 -0.694463	 0.013153	 0.660554	 -0.419395	 0.622578	 1
1463623576.302	 14	 -2.251227	 -2.435785	 1.013793	 1.410548	 -0.561798	 -0.666270	 0.004192	 0.657619	 -0.409061	 0.632604	 1
1463623576.312	 14	 -2.105466	 -2.563724	 1.323601	 1.399719	 -0.553093	 -0.638881	 -0.003700	 0.653877	 -0.398057	 0.643414	 1
1463623576.322	 14	 -1.838065	 -2.719467	 1.661934	 1.386195	 -0.540941	 -0.613544	 -0.010012	 0.649019	 -0.386602	 0.655143	 1
1463623576.332	 14	 -1.468208	 -3.072514	 1.967697	 1.367692	 -0.525370	 -0.591515	 -0.014722	 0.642284	 -0.375112	 0.668240	 1
1463623576.342	 14	 -1.099373	 -3.622494	 2.250321	 1.342189	 -0.506611	 -0.572790	 -0.018203	 0.632922	 -0.363664	 0.683247	 1
1463623576.352	 14	 -0.837719	 -4.263691	 2.524503	 1.309004	 -0.484939	 -0.556212	 -0.020927	 0.620545	 -0.351980	 0.700425	 1
1463623576.362	 14	 -1.343369	 -3.806844	 2.836899	 1.278156	 -0.461635	 -0.535342	 -0.023514	 0.608527	 -0.338253	 0.717445	 1
1463623576.372	 14	 -1.897304	 -2.958401	 3.155491	 1.259868	 -0.437592	 -0.505899	 -0.025901	 0.600643	 -0.321202	 0.731701	 1
1463623576.382	 14	 -1.646801	 -3.116766	 3.272267	 1.241614	 -0.412178	 -0.476553	 -0.027357	 0.592582	 -0.303595	 0.745606	 1
1463623576.392	 14	 -1.269004	 -3.386560	 3.328281	 1.218246	 -0.385468	 -0.450706	 -0.027642	 0.582459	 -0.286690	 0.760123	 1
1463623576.402	 14	 -1.112192	 -3.254437	 3.424064	 1.194066	 -0.357803	 -0.426269	 -0.026816	 0.571830	 -0.269918	 0.774233	 1
1463623576.412	 14	 -0.988052	 -3.047658	 3.534681	 1.171291	 -0.329212	 -0.402095	 -0.024919	 0.561553	 -0.252917	 0.787445	 1
1463623576.422	 14	 -0.757155	 -3.006502	 3.583144	 1.148330	 -0.299707	 -0.379163	 -0.021902	 0.551047	 -0.236090	 0.800080	 1
1463623576.432	 14	 -0.508743	 -3.034024	 3.555147	 1.123957	 -0.269760	 -0.358150	 -0.017919	 0.539846	 -0.219865	 0.812345	 1
1463623576.442	 14	 -0.311652	 -3.058410	 3.498850	 1.098356	 -0.239857	 -0.338738	 -0.013234	 0.528023	 -0.204299	 0.824184	 1
1463623576.452	 14	 -0.151835	 -3.042473	 3.414478	 1.071941	 -0.210353	 -0.320528	 -0.008062	 0.515750	 -0.189369	 0.835510	 1
1463623576.462	 14	 0.026957	 -3.038619	 3.285065	 1.044812	 -0.181513	 -0.303778	 -0.002454	 0.503076	 -0.175287	 0.846276	 1
1463623576.472	 14	 0.215546	 -3.009133	 3.173924	 1.017184	 -0.153217	 -0.288573	 0.003659	 0.490086	 -0.162100	 0.856461	 1
1463623576.482	 14	 0.415145	 -2.966414	 3.132085	 0.989344	 -0.124803	 -0.274634	 0.010490	 0.476872	 -0.149569	 0.866090	 1
1463623576.492	 14	 0.632101	 -2.908469	 3.143524	 0.961517	 -0.095576	 -0.261738	 0.018286	 0.463501	 -0.137473	 0.875176	 1
1463623576.502	 14	 0.865206	 -2.827116	 3.162501	 0.933994	 -0.065227	 -0.249812	 0.027168	 0.450089	 -0.125749	 0.883668	 1
1463623576.512	 14	 1.146042	 -2.812865	 3.187898	 0.906416	 -0.033428	 -0.239076	 0.037290	 0.436459	 -0.114465	 0.891634	 1
1463623576.522	 14	 1.449508	 -2.767703	 3.231504	 0.878726	 0.000265	 -0.229568	 0.048837	 0.422550	 -0.103598	 0.899074	 1
1463623576.532	 14	 1.722571	 -2.604412	 3.272210	 0.852041	 0.035844	 -0.221025	 0.061789	 0.408864	 -0.093053	 0.905734	 1
1463623576.542	 14	 1.959549	 -2.371058	 3.279779	 0.827358	 0.072974	 -0.213252	 0.075964	 0.395877	 -0.082802	 0.911403	 1
1463623576.552	 14	 2.146417	 -2.253181	 3.185498	 0.803967	 0.110791	 -0.206500	 0.090944	 0.383312	 -0.073159	 0.916214	 1
1463623576.562	 14	 2.290504	 -2.153391	 3.071135	 0.781463	 0.148694	 -0.200785	 0.106401	 0.371017	 -0.064267	 0.920269	 1
1463623576.572	 14	 2.356366	 -2.128826	 2.965280	 0.759301	 0.186359	 -0.195571	 0.122031	 0.358788	 -0.055967	 0.923714	 1
1463623576.582	 14	 2.326215	 -2.099703	 2.862435	 0.737080	 0.223141	 -0.190216	 0.137392	 0.346533	 -0.048108	 0.926674	 1
1463623576.592	 14	 2.200381	 -1.994772	 2.761127	 0.715395	 0.258224	 -0.184040	 0.151999	 0.334653	 -0.040469	 0.929121	 1
1463623576.602	 14	 2.049641	 -1.938937	 2.626539	 0.693986	 0.290812	 -0.176998	 0.165465	 0.323123	 -0.033157	 0.931189	 1
1463623576.612	 14	 1.935714	 -1.984362	 2.476834	 0.672024	 0.321370	 -0.169534	 0.178062	 0.311520	 -0.026336	 0.933036	 1
1463623576.622	 14	 1.825277	 -1.983927	 2.345643	 0.649553	 0.350230	 -0.161713	 0.189953	 0.299854	 -0.019964	 0.934669	 1
1463623576.632	 14	 1.716466	 -1.881252	 2.233507	 0.627545	 0.377221	 -0.153435	 0.201052	 0.288615	 -0.013908	 0.935995	 1
1463623576.642	 14	 1.626978	 -1.763667	 2.131997	 0.606497	 0.402224	 -0.144794	 0.211310	 0.278047	 -0.008146	 0.937001	 1
1463623576.652	 14	 1.562884	 -1.706665	 2.046748	 0.586140	 0.424699	 -0.135964	 0.220488	 0.268045	 -0.002827	 0.937832	 1
1463623576.662	 14	 1.505086	 -1.688944	 1.974878	 0.568704	 0.435621	 -0.128142	 0.224527	 0.260065	 0.000493	 0.939124	 1
1463623576.672	 14	 1.414406	 -1.641179	 1.924950	 0.548288	 0.456994	 -0.118532	 0.233291	 0.250308	 0.005677	 0.939622	 1
1463623576.682	 14	 1.324635	 -1.620063	 1.867309	 0.527493	 0.477842	 -0.108184	 0.241831	 0.240571	 0.010892	 0.939960	 1
1463623576.692	 14	 1.272873	 -1.653578	 1.771528	 0.506250	 0.497595	 -0.097713	 0.249962	 0.230788	 0.015767	 0.940217	 1
1463623576.702	 14	 1.262280	 -1.746029	 1.632210	 0.484268	 0.516464	 -0.087801	 0.257857	 0.220721	 0.019979	 0.940422	 1
1463623576.712	 14	 1.268443	 -1.865470	 1.444535	 0.461588	 0.534421	 -0.079110	 0.265565	 0.210295	 0.023223	 0.940591	 1
1463623576.722	 14	 1.254215	 -1.990331	 1.234608	 0.438308	 0.551356	 -0.071981	 0.273044	 0.199499	 0.025343	 0.940747	 1
1463623576.732	 14	 1.203844	 -2.100068	 1.042188	 0.414520	 0.566957	 -0.066241	 0.280103	 0.188394	 0.026412	 0.940932	 1
1463623576.742	 14	 1.113358	 -2.150896	 0.890099	 0.390480	 0.581051	 -0.061432	 0.286589	 0.177154	 0.026682	 0.941154	 1
1463623576.752	 14	 0.995754	 -2.120363	 0.799752	 0.366611	 0.593600	 -0.056863	 0.292401	 0.166066	 0.026559	 0.941392	 1
1463623576.762	 14	 0.892541	 -2.011953	 0.747305	 0.343506	 0.604824	 -0.052101	 0.297592	 0.155455	 0.026384	 0.941582	 1
1463623576.772	 14	 0.842759	 -1.872988	 0.676560	 0.321758	 0.615138	 -0.047454	 0.302371	 0.145536	 0.026162	 0.941651	 1
1463623576.782	 14	 0.849451	 -1.721690	 0.569202	 0.301950	 0.625020	 -0.043653	 0.307002	 0.136450	 0.025698	 0.941526	 1
1463623576.792	 14	 0.886119	 -1.554489	 0.467059	 0.284406	 0.634818	 -0.040962	 0.311648	 0.128289	 0.024963	 0.941166	 1
1463623576.802	 14	 0.938742	 -1.428556	 0.400630	 0.268761	 0.644844	 -0.039141	 0.316435	 0.120903	 0.024051	 0.940571	 1
1463623576.822	 15	 1.021523	 -1.244211	 0.334482	 0.240960	 0.665957	 -0.036772	 0.326523	 0.107602	 0.022029	 0.938786	 1
1463623576.832	 15	 1.026144	 -1.132863	 0.290715	 0.228925	 0.676641	 -0.036048	 0.331620	 0.101778	 0.021011	 0.937672	 1
1463623576.842	 15	 0.991078	 -1.035472	 0.213061	 0.218280	 0.686931	 -0.035971	 0.336539	 0.096525	 0.019841	 0.936499	 1
1463623576.852	 15	 0.937637	 -0.956379	 0.098094	 0.209144	 0.696499	 -0.036943	 0.341143	 0.091830	 0.018348	 0.935335	 1
1463623576.862	 15	 0.880904	 -0.872167	 -0.045572	 0.201830	 0.705243	 -0.039457	 0.345401	 0.087749	 0.016367	 0.934201	 1
1463623576.882	 16	 0.739527	 -0.615555	 -0.210344	 0.192966	 0.720176	 -0.047901	 0.352776	 0.081730	 0.011626	 0.932059	 1
1463623576.892	 16	 0.652698	 -0.459057	 -0.225184	 0.191053	 0.726375	 -0.052532	 0.355856	 0.079841	 0.009435	 0.931076	 1
1463623576.902	 16	 0.569072	 -0.300458	 -0.242164	 0.190741	 0.731714	 -0.057156	 0.358520	 0.078712	 0.007492	 0.930168	 1
1463623576.912	 16	 0.495923	 -0.185477	 -0.256443	 0.191774	 0.736277	 -0.061824	 0.360816	 0.078211	 0.005735	 0.929334	 1
1463623576.922	 16	 0.435225	 -0.161863	 -0.251432	 0.193218	 0.740203	 -0.066359	 0.362809	 0.077935	 0.004088	 0.928590	 1
1463623576.942	 17	 0.301473	 -0.278112	 -0.202324	 0.193925	 0.746312	 -0.074074	 0.365933	 0.076651	 0.000950	 0.927479	 1
1463623576.952	 17	 0.220146	 -0.344710	 -0.178789	 0.192751	 0.748320	 -0.077183	 0.366980	 0.075466	 -0.000603	 0.927163	 1
1463623576.962	 17	 0.135665	 -0.399614	 -0.157249	 0.190622	 0.749545	 -0.079748	 0.367640	 0.073965	 -0.002119	 0.927020	 1
1463623576.972	 17	 0.058719	 -0.419625	 -0.161028	 0.188028	 0.750006	 -0.082074	 0.367935	 0.072318	 -0.003650	 0.927028	 1
1463623576.982	 17	 -0.007384	 -0.385575	 -0.185714	 0.185710	 0.749759	 -0.084492	 0.367902	 0.070808	 -0.005210	 0.927150	 1
1463623577.002	 18	 -0.084562	 -0.206877	 -0.215352	 0.183626	 0.747787	 -0.089789	 0.367168	 0.068941	 -0.008150	 0.927560	 1
1463623577.012	 18	 -0.088321	 -0.113146	 -0.198461	 0.183982	 0.746533	 -0.092306	 0.366677	 0.068692	 -0.009316	 0.927762	 1
1463623577.022	 18	 -0.066463	 -0.038460	 -0.157457	 0.184825	 0.745506	 -0.094383	 0.366278	 0.068742	 -0.010177	 0.927907	 1
1463623577.032	 18	 -0.036204	 -0.004118	 -0.103047	 0.185733	 0.744871	 -0.095846	 0.366039	 0.068920	 -0.010723	 0.927982	 1
1463623577.042	 18	 -0.019037	 -0.027199	 -0.052255	 0.186102	 0.744537	 -0.096659	 0.365915	 0.068955	 -0.011050	 0.928025	 1
1463623577.052	 18	 -0.019239	 -0.103490	 -0.012464	 0.185446	 0.744316	 -0.096890	 0.365816	 0.068617	 -0.011288	 0.928085	 1
1463623577.062	 18	 -0.014311	 -0.198095	 -0.002730	 0.183704	 0.744148	 -0.096904	 0.365729	 0.067813	 -0.011622	 0.928175	 1
1463623577.072	 18	 -0.007169	 -0.258815	 -0.012949	 0.181772	 0.744320	 -0.097316	 0.365811	 0.066834	 -0.012158	 0.928207	 1
1463623577.082	 18	 -0.006247	 -0.282280	 -0.021702	 0.179164	 0.744222	 -0.097577	 0.365758	 0.065580	 -0.012761	 0.928309	 1
1463623577.092	 18	 -0.009384	 -0.274771	 -0.014144	 0.176512	 0.744105	 -0.097781	 0.365693	 0.064316	 -0.013346	 0.928415	 1
1463623577.102	 18	 -0.025164	 -0.239514	 0.001242	 0.174011	 0.743893	 -0.097773	 0.365578	 0.063165	 -0.013811	 0.928532	 1
1463623577.112	 18	 -0.049500	 -0.203203	 0.011390	 0.172141	 0.745556	 -0.097817	 0.366336	 0.062225	 -0.014092	 0.928293	 1
1463623577.122	 18	 -0.087795	 -0.182832	 0.018307	 0.169997	 0.744819	 -0.097415	 0.365967	 0.061331	 -0.014333	 0.928494	 1
1463623577.132	 18	 -0.127238	 -0.174205	 0.018731	 0.167895	 0.743692	 -0.096882	 0.365415	 0.060495	 -0.014525	 0.928763	 1
1463623577.142	 18	 -0.152963	 -0.182769	 0.000757	 0.165800	 0.742254	 -0.096456	 0.364721	 0.059654	 -0.014777	 0.929087	 1
1463623577.152	 18	 -0.165871	 -0.178701	 -0.029998	 0.163529	 0.740838	 -0.096110	 0.364037	 0.058714	 -0.015097	 0.929409	 1
1463623577.172	 18	 -0.105737	 -0.082241	 -0.050939	 0.161509	 0.737928	 -0.096917	 0.362697	 0.057737	 -0.015974	 0.929980	 1
1463623577.182	 19	 -0.044365	 0.002925	 -0.015511	 0.161457	 0.737294	 -0.097137	 0.362409	 0.057697	 -0.016115	 0.930092	 1
1463623577.192	 19	 0.015994	 0.099798	 0.020042	 0.162355	 0.739320	 -0.097152	 0.363355	 0.058036	 -0.015865	 0.929706	 1
1463623577.202	 19	 0.065514	 0.176358	 0.037375	 0.163727	 0.739914	 -0.096824	 0.363632	 0.058711	 -0.015436	 0.929563	 1
1463623577.212	 19	 0.073244	 0.215823	 0.055793	 0.165461	 0.740724	 -0.096315	 0.364005	 0.059580	 -0.014846	 0.929371	 1
1463623577.222	 19	 0.037095	 0.225669	 0.078582	 0.167809	 0.742508	 -0.095907	 0.364836	 0.060678	 -0.014144	 0.928985	 1
1463623577.232	 19	 -0.016144	 0.236592	 0.096201	 0.169945	 0.743742	 -0.095097	 0.365397	 0.061772	 -0.013318	 0.928704	 1
1463623577.242	 19	 -0.062083	 0.225038	 0.097562	 0.171342	 0.744156	 -0.093704	 0.365555	 0.062659	 -0.012396	 0.928596	 1
1463623577.262	 20	 -0.104617	 0.071654	 0.049610	 0.172473	 0.742196	 -0.091348	 0.364580	 0.063687	 -0.011190	 0.928924	 1
1463623577.272	 20	 -0.132892	 -0.015692	 0.020268	 0.172085	 0.741000	 -0.090681	 0.364002	 0.063672	 -0.011010	 0.929154	 1
1463623577.282	 20	 -0.153656	 -0.093495	 -0.010117	 0.171112	 0.739531	 -0.090364	 0.363306	 0.063331	 -0.011110	 0.929448	 1
1463623577.292	 20	 -0.165811	 -0.149049	 -0.048895	 0.169829	 0.737859	 -0.090506	 0.362528	 0.062770	 -0.011488	 0.929785	 1
1463623577.312	 20	 -0.160429	 -0.118408	 -0.074229	 0.166204	 0.734626	 -0.090669	 0.361013	 0.061172	 -0.012373	 0.930470	 1
1463623577.322	 21	 -0.117216	 -0.033219	 -0.042906	 0.165911	 0.733250	 -0.091077	 0.360385	 0.061011	 -0.012679	 0.930720	 1
1463623577.332	 21	 -0.048161	 0.080783	 0.011908	 0.166363	 0.732583	 -0.090977	 0.360076	 0.061264	 -0.012582	 0.930824	 1
1463623577.342	 21	 0.034804	 0.187429	 0.084657	 0.166950	 0.734680	 -0.089820	 0.361016	 0.061670	 -0.011840	 0.930443	 1
1463623577.352	 21	 0.102730	 0.274958	 0.155220	 0.168386	 0.735770	 -0.088173	 0.361479	 0.062597	 -0.010764	 0.930214	 1
1463623577.362	 21	 0.145827	 0.325139	 0.199008	 0.170058	 0.737437	 -0.085957	 0.362190	 0.063716	 -0.009352	 0.929877	 1
1463623577.372	 21	 0.153314	 0.313547	 0.216953	 0.171582	 0.739316	 -0.083462	 0.362988	 0.064811	 -0.007827	 0.929504	 1
1463623577.382	 21	 0.108123	 0.230748	 0.221910	 0.170523	 0.740414	 -0.079566	 0.363366	 0.064988	 -0.006157	 0.929357	 1
1463623577.392	 21	 0.033778	 0.093648	 0.206360	 0.169992	 0.741291	 -0.076865	 0.363683	 0.065203	 -0.004958	 0.929225	 1
1463623577.402	 21	 -0.051237	 -0.043421	 0.190905	 0.168083	 0.741319	 -0.074201	 0.363606	 0.064800	 -0.004066	 0.929288	 1
1463623577.412	 21	 -0.112611	 -0.148627	 0.178737	 0.165053	 0.740638	 -0.071552	 0.363199	 0.063895	 -0.003416	 0.929512	 1
1463623577.422	 21	 -0.137445	 -0.202872	 0.169930	 0.158369	 0.738844	 -0.066943	 0.362212	 0.061678	 -0.002564	 0.930049	 1
1463623577.432	 21	 -0.120276	 -0.184825	 0.172080	 0.154719	 0.737859	 -0.064393	 0.361673	 0.060471	 -0.002080	 0.930340	 1
1463623577.442	 21	 -0.066567	 -0.112640	 0.174415	 0.151713	 0.737314	 -0.061888	 0.361342	 0.059541	 -0.001481	 0.930529	 1
1463623577.452	 21	 0.020351	 -0.017123	 0.180942	 0.149711	 0.737510	 -0.059522	 0.361361	 0.059032	 -0.000733	 0.930555	 1
1463623577.462	 21	 0.113647	 0.243695	 0.251853	 0.145473	 0.741980	 -0.053962	 0.363275	 0.057949	 0.001261	 0.929877	 1
1463623577.472	 21	 0.168028	 0.456291	 0.256555	 0.147549	 0.743885	 -0.050804	 0.364064	 0.059440	 0.003180	 0.929470	 1
1463623577.482	 21	 0.193853	 0.536744	 0.214449	 0.150882	 0.746120	 -0.048109	 0.365013	 0.061424	 0.005128	 0.928960	 1
1463623577.492	 21	 0.166051	 0.579959	 0.149016	 0.155387	 0.748107	 -0.046260	 0.365863	 0.063804	 0.006889	 0.928454	 1
1463623577.502	 21	 0.102433	 0.476666	 0.107046	 0.158436	 0.748842	 -0.044157	 0.366124	 0.065586	 0.008453	 0.928214	 1
1463623577.512	 21	 0.003109	 0.269252	 0.065481	 0.161046	 0.749266	 -0.043193	 0.366277	 0.066963	 0.009395	 0.928046	 1
1463623577.522	 21	 -0.114664	 -0.007208	 0.028764	 0.161238	 0.748481	 -0.042519	 0.365889	 0.067195	 0.009711	 0.928179	 1
1463623577.532	 21	 -0.211013	 -0.276201	 0.003653	 0.158735	 0.746638	 -0.041976	 0.365029	 0.066177	 0.009430	 0.928593	 1
