% Gyrometer data recorded with 'snsrlog'
% 
% 
% Label description:
% 	 0: Default Label
% 	 1: still_drop
% 	 2: walk_drop
% 	 3: other
% 	 4: dtw_same
% 	 5: dtw_diff
% 	 6: delete
% 	 7: steal
% 
% Column description:
% 	 1: Seconds.milliseconds since 1970
% 	 2: Number of skipped measurements
% 	 3: Gyro X
% 	 4: Gyro Y
% 	 5: Gyro Z
% 	 6: Roll of the device
% 	 7: Pitch of the device
% 	 8: Yaw of the device
% 	 9: Quaternion X
% 	 10: Quaternion Y
% 	 11: Quaternion Z
% 	 12: Quaternion W
% 	 13: Label used for the current sample
% 
% 
1463570589.496	 0	 -1.025878	 3.956270	 -2.320897	 0.765377	 0.474236	 -0.284996	 0.267249	 0.328342	 -0.041230	 0.905025	 1
1463570589.506	 0	 -0.873039	 4.506351	 -2.378923	 0.814224	 0.451055	 -0.296335	 0.260068	 0.351389	 -0.044553	 0.898279	 1
1463570589.516	 0	 -0.766218	 4.888835	 -2.539356	 0.867231	 0.427259	 -0.308196	 0.253131	 0.376209	 -0.048097	 0.889988	 1
1463570589.526	 0	 -0.743576	 5.184449	 -2.833085	 0.923438	 0.401124	 -0.320641	 0.245762	 0.402487	 -0.052442	 0.880258	 1
1463570589.536	 0	 -0.759448	 5.269273	 -3.168938	 0.980825	 0.371617	 -0.333310	 0.237495	 0.429436	 -0.058009	 0.869377	 1
1463570589.546	 0	 -0.784657	 5.168136	 -3.485125	 1.037114	 0.338637	 -0.345630	 0.228185	 0.456096	 -0.064940	 0.857724	 1
1463570589.556	 0	 -0.783624	 4.899517	 -3.712510	 1.090535	 0.302785	 -0.357107	 0.217956	 0.481662	 -0.073139	 0.845664	 1
1463570589.566	 0	 -0.728400	 4.460542	 -3.795942	 1.139198	 0.265528	 -0.367480	 0.207265	 0.505183	 -0.082320	 0.833699	 1
1463570589.576	 0	 -0.672578	 4.045848	 -3.757656	 1.182809	 0.228208	 -0.376501	 0.196507	 0.526428	 -0.091990	 0.822068	 1
1463570589.586	 0	 -0.653403	 3.749588	 -3.682779	 1.222525	 0.191332	 -0.383835	 0.185754	 0.545868	 -0.101676	 0.810669	 1
1463570589.596	 0	 -0.604322	 3.567173	 -3.737126	 1.259590	 0.154196	 -0.390068	 0.174870	 0.564033	 -0.111650	 0.799263	 1
1463570589.606	 0	 -0.522795	 3.561544	 -3.893490	 1.295962	 0.115750	 -0.396054	 0.163763	 0.581718	 -0.122365	 0.787282	 1
1463570589.616	 0	 -0.486177	 3.545344	 -4.059153	 1.332060	 0.075669	 -0.401520	 0.152268	 0.599095	 -0.133782	 0.774598	 1
1463570589.626	 0	 -0.521095	 3.349500	 -4.283208	 1.366382	 0.033363	 -0.405841	 0.139875	 0.615625	 -0.145964	 0.761666	 1
1463570589.636	 0	 -0.637644	 3.057677	 -4.531100	 1.397746	 -0.011647	 -0.408283	 0.126057	 0.630889	 -0.158867	 0.748899	 1
1463570589.646	 0	 -0.831076	 2.760720	 -4.784765	 1.426231	 -0.059533	 -0.408016	 0.110435	 0.644904	 -0.172227	 0.736370	 1
1463570589.656	 0	 -1.034215	 2.357102	 -4.937024	 1.451070	 -0.109445	 -0.404732	 0.093078	 0.657247	 -0.185694	 0.724486	 1
1463570589.666	 0	 -1.240364	 1.896897	 -4.973616	 1.472108	 -0.160139	 -0.398242	 0.074270	 0.667720	 -0.198768	 0.713530	 1
1463570589.676	 0	 -1.404295	 1.487217	 -4.919516	 1.489674	 -0.210550	 -0.388892	 0.054452	 0.676323	 -0.211158	 0.703587	 1
1463570589.686	 0	 -1.482896	 1.230993	 -4.790127	 1.505189	 -0.259741	 -0.377447	 0.034304	 0.683478	 -0.222733	 0.694313	 1
1463570589.696	 0	 -1.466877	 1.106537	 -4.639020	 1.519999	 -0.307286	 -0.364952	 0.014455	 0.689632	 -0.233664	 0.685273	 1
1463570589.706	 0	 -1.376298	 1.173351	 -4.482521	 1.535526	 -0.353056	 -0.352191	 -0.004612	 0.695295	 -0.244164	 0.675965	 1
1463570589.716	 0	 -1.165917	 1.545953	 -4.350862	 1.554241	 -0.397168	 -0.340242	 -0.022233	 0.701336	 -0.254672	 0.665414	 1
1463570589.726	 0	 -0.800952	 2.135931	 -4.248368	 1.577951	 -0.439933	 -0.330617	 -0.037679	 0.708390	 -0.265877	 0.652743	 1
1463570589.736	 0	 -0.333592	 2.732892	 -4.168016	 1.606512	 -0.481691	 -0.324581	 -0.050528	 0.716428	 -0.278348	 0.637730	 1
1463570589.746	 0	 0.109860	 3.255329	 -4.107333	 1.638945	 -0.522856	 -0.322178	 -0.060912	 0.725113	 -0.292199	 0.620581	 1
1463570589.756	 0	 0.453332	 3.630151	 -4.055679	 1.674278	 -0.563705	 -0.322492	 -0.069282	 0.734069	 -0.307160	 0.601661	 1
1463570589.766	 0	 0.640531	 3.713714	 -4.043742	 1.710702	 -0.604560	 -0.323785	 -0.076575	 0.742632	 -0.322701	 0.581805	 1
1463570589.776	 0	 0.671501	 3.515591	 -4.071434	 1.746234	 -0.645744	 -0.324122	 -0.083909	 0.750105	 -0.338269	 0.562029	 1
1463570589.786	 0	 0.555256	 3.073525	 -4.063878	 1.779934	 -0.686824	 -0.321554	 -0.092068	 0.756171	 -0.353141	 0.543158	 1
1463570589.796	 0	 0.363759	 2.379711	 -3.894947	 1.809597	 -0.726289	 -0.315341	 -0.101334	 0.760365	 -0.366528	 0.526531	 1
1463570589.806	 0	 0.153434	 1.642355	 -3.578117	 1.834403	 -0.762200	 -0.305600	 -0.111354	 0.762781	 -0.377754	 0.512900	 1
1463570589.816	 0	 0.133945	 1.070539	 -3.236896	 1.854096	 -0.794560	 -0.294659	 -0.121436	 0.763656	 -0.387364	 0.502027	 1
1463570589.826	 0	 0.342995	 0.697482	 -2.822277	 1.867864	 -0.823413	 -0.286380	 -0.130399	 0.763203	 -0.396203	 0.493498	 1
1463570589.836	 0	 0.726866	 0.513197	 -2.412752	 1.875015	 -0.849306	 -0.284107	 -0.137382	 0.761612	 -0.405109	 0.486786	 1
1463570589.846	 0	 1.201756	 0.341860	 -1.941020	 1.874019	 -0.872197	 -0.290490	 -0.141805	 0.758889	 -0.414477	 0.481859	 1
1463570589.856	 0	 1.588891	 0.150298	 -1.507079	 1.864278	 -0.892012	 -0.305677	 -0.143869	 0.755060	 -0.424182	 0.478806	 1
1463570589.866	 0	 1.704238	 -0.148292	 -1.128253	 1.847473	 -0.908454	 -0.326197	 -0.144581	 0.750392	 -0.433391	 0.477682	 1
1463570589.876	 0	 1.684814	 -0.467083	 -0.802796	 1.825381	 -0.921412	 -0.349220	 -0.144667	 0.745128	 -0.441558	 0.478417	 1
1463570589.886	 0	 1.558227	 -0.834877	 -0.531215	 1.799248	 -0.931006	 -0.372638	 -0.144697	 0.739369	 -0.448370	 0.480999	 1
1463570589.896	 0	 1.369647	 -1.160488	 -0.334372	 1.770774	 -0.937712	 -0.394534	 -0.145125	 0.733282	 -0.453704	 0.485169	 1
1463570589.906	 0	 1.253032	 -1.333615	 -0.201747	 1.741193	 -0.942354	 -0.415075	 -0.145826	 0.727035	 -0.457987	 0.490309	 1
1463570589.916	 1	 1.171037	 -1.396324	 -0.082251	 1.711322	 -0.945295	 -0.434817	 -0.146486	 0.720795	 -0.461553	 0.495948	 1
1463570589.936	 1	 0.987296	 -1.222479	 0.202327	 1.655481	 -0.946077	 -0.471557	 -0.146566	 0.709404	 -0.466904	 0.507213	 1
1463570589.946	 1	 0.748288	 -1.161776	 0.409600	 1.632317	 -0.943117	 -0.485650	 -0.146009	 0.704794	 -0.467974	 0.512783	 1
1463570589.956	 1	 0.587184	 -1.103410	 0.619369	 1.612159	 -0.937766	 -0.496735	 -0.145022	 0.700857	 -0.467891	 0.518504	 1
1463570589.966	 1	 0.457169	 -1.013242	 0.827032	 1.594844	 -0.930183	 -0.505373	 -0.143464	 0.697570	 -0.466832	 0.524292	 1
1463570589.976	 1	 0.291065	 -0.893090	 1.048078	 1.580931	 -0.920330	 -0.511217	 -0.141283	 0.695059	 -0.464726	 0.530057	 1
1463570589.996	 2	 -0.417004	 -1.179869	 1.256201	 1.563314	 -0.895691	 -0.508901	 -0.137608	 0.691900	 -0.456260	 0.542370	 1
1463570590.006	 2	 -1.160753	 -1.906593	 1.064077	 1.558297	 -0.884565	 -0.493357	 -0.140239	 0.690198	 -0.448665	 0.550145	 1
1463570590.016	 2	 -1.829801	 -2.581868	 0.809967	 1.554416	 -0.876099	 -0.466818	 -0.147293	 0.687795	 -0.438720	 0.559256	 1
1463570590.026	 2	 -2.196442	 -3.026542	 0.650223	 1.550484	 -0.869700	 -0.433550	 -0.157331	 0.684614	 -0.427270	 0.569203	 1
1463570590.036	 2	 -2.159448	 -2.785108	 0.810946	 1.547628	 -0.862704	 -0.399410	 -0.167160	 0.681560	 -0.415283	 0.578855	 1
1463570590.046	 2	 -1.797918	 -2.202044	 1.131886	 1.546379	 -0.852519	 -0.369939	 -0.173909	 0.679501	 -0.403697	 0.587420	 1
1463570590.056	 2	 -1.311181	 -1.523809	 1.427044	 1.545970	 -0.839511	 -0.347776	 -0.177005	 0.678513	 -0.393378	 0.594595	 1
1463570590.066	 2	 -0.882121	 -0.718073	 1.827270	 1.547984	 -0.822431	 -0.332618	 -0.175841	 0.679205	 -0.384065	 0.600212	 1
1463570590.076	 2	 -0.610446	 -0.083462	 2.033304	 1.553220	 -0.802613	 -0.322291	 -0.171499	 0.681529	 -0.375581	 0.604190	 1
1463570590.086	 2	 -0.509835	 0.436307	 2.027673	 1.561736	 -0.782244	 -0.314519	 -0.165531	 0.685118	 -0.367874	 0.606533	 1
1463570590.096	 2	 -0.590282	 0.891169	 1.652129	 1.575252	 -0.764632	 -0.306571	 -0.159733	 0.689995	 -0.361235	 0.606549	 1
1463570590.106	 2	 -0.788047	 1.175846	 1.228063	 1.593117	 -0.751181	 -0.296728	 -0.155336	 0.695721	 -0.355527	 0.604520	 1
1463570590.116	 2	 -0.954401	 1.445455	 0.938936	 1.615212	 -0.740929	 -0.284624	 -0.152189	 0.702295	 -0.350372	 0.600716	 1
1463570590.126	 2	 -0.889967	 1.336504	 0.901125	 1.637055	 -0.731462	 -0.272836	 -0.149370	 0.708749	 -0.345475	 0.596666	 1
1463570590.136	 2	 -0.545984	 0.856689	 1.022623	 1.652053	 -0.721149	 -0.265165	 -0.146093	 0.713538	 -0.340966	 0.594358	 1
1463570590.146	 2	 -0.021983	 0.281892	 1.172576	 1.656812	 -0.709661	 -0.264331	 -0.141778	 0.715880	 -0.337315	 0.594671	 1
1463570590.156	 2	 0.373610	 -0.085598	 1.257367	 1.653249	 -0.697554	 -0.269605	 -0.136473	 0.716195	 -0.334679	 0.597017	 1
1463570590.166	 2	 0.340693	 -0.154797	 1.381704	 1.647777	 -0.684477	 -0.275837	 -0.130798	 0.716019	 -0.331905	 0.600040	 1
1463570590.176	 2	 0.066769	 -0.048104	 1.609958	 1.644905	 -0.669102	 -0.279081	 -0.124968	 0.716534	 -0.327670	 0.602988	 1
1463570590.186	 2	 -0.096095	 0.168068	 1.726358	 1.645546	 -0.652038	 -0.279823	 -0.118878	 0.718017	 -0.322338	 0.605325	 1
1463570590.196	 2	 -0.061408	 0.384943	 1.873018	 1.648446	 -0.633749	 -0.280570	 -0.112011	 0.720213	 -0.316704	 0.606996	 1
1463570590.206	 2	 0.007314	 0.507660	 2.102700	 1.652258	 -0.613377	 -0.282473	 -0.103892	 0.722825	 -0.310733	 0.608421	 1
1463570590.216	 2	 0.008781	 0.557943	 2.143655	 1.656101	 -0.591897	 -0.284833	 -0.095242	 0.725453	 -0.304476	 0.609869	 1
1463570590.226	 2	 -0.044005	 0.978654	 2.056373	 1.663643	 -0.571176	 -0.286671	 -0.086493	 0.729052	 -0.298415	 0.609877	 1
1463570590.236	 2	 -0.074608	 1.639141	 1.895461	 1.677468	 -0.551717	 -0.288098	 -0.077434	 0.734398	 -0.292815	 0.607391	 1
1463570590.246	 2	 -0.064038	 2.638072	 1.487952	 1.700434	 -0.535635	 -0.289526	 -0.068246	 0.742245	 -0.288558	 0.600957	 1
1463570590.256	 2	 -0.033579	 3.447830	 0.669256	 1.732968	 -0.526691	 -0.290477	 -0.060291	 0.752433	 -0.286767	 0.589894	 1
1463570590.266	 2	 0.180463	 2.389030	 -0.340014	 1.760466	 -0.527760	 -0.291519	 -0.056287	 0.760442	 -0.288251	 0.579198	 1
1463570590.276	 2	 0.692977	 0.012542	 -1.211740	 1.764368	 -0.538695	 -0.295536	 -0.057674	 0.761075	 -0.293413	 0.575628	 1
1463570590.286	 2	 1.256451	 -1.199333	 -1.921734	 1.749611	 -0.557985	 -0.304675	 -0.062567	 0.755995	 -0.302421	 0.577147	 1
1463570590.296	 2	 1.341615	 -1.037398	 -2.436798	 1.732082	 -0.583266	 -0.316155	 -0.069090	 0.749830	 -0.313969	 0.578278	 1
1463570590.316	 2	 -0.562507	 0.323748	 -2.510932	 1.731208	 -0.633259	 -0.309271	 -0.087959	 0.746083	 -0.329142	 0.572091	 1
1463570590.326	 3	 -0.629945	 0.296154	 -2.529785	 1.742977	 -0.657163	 -0.295975	 -0.098645	 0.747056	 -0.334093	 0.566179	 1
1463570590.336	 3	 -0.258220	 -0.486220	 -2.318624	 1.746161	 -0.680086	 -0.286167	 -0.109076	 0.745606	 -0.339342	 0.563046	 1
1463570590.356	 4	 -0.196156	 -0.535277	 -1.139833	 1.739668	 -0.712324	 -0.275933	 -0.124238	 0.740382	 -0.347070	 0.562086	 1
1463570590.366	 4	 -0.422154	 -0.397436	 -0.703884	 1.739818	 -0.719555	 -0.269284	 -0.128967	 0.739341	 -0.347664	 0.562025	 1
1463570590.376	 4	 -0.466231	 -0.439190	 -0.466223	 1.740431	 -0.723855	 -0.261995	 -0.132916	 0.738633	 -0.347114	 0.562375	 1
1463570590.386	 4	 -0.404366	 -0.533277	 -0.362127	 1.739578	 -0.726902	 -0.255572	 -0.136399	 0.737669	 -0.346284	 0.563318	 1
1463570590.396	 4	 -0.349022	 -0.592761	 -0.329058	 1.737418	 -0.729606	 -0.250064	 -0.139658	 0.736418	 -0.345500	 0.564636	 1
1463570590.406	 4	 -0.330779	 -0.598958	 -0.296236	 1.734841	 -0.732060	 -0.244960	 -0.142756	 0.735089	 -0.344708	 0.566076	 1
1463570590.416	 4	 -0.317086	 -0.684740	 -0.239602	 1.731545	 -0.734063	 -0.240130	 -0.145731	 0.733608	 -0.343780	 0.567800	 1
1463570590.426	 4	 -0.294729	 -0.726027	 -0.203945	 1.727237	 -0.735666	 -0.235689	 -0.148605	 0.731896	 -0.342743	 0.569888	 1
1463570590.436	 4	 -0.295245	 -0.588767	 -0.213424	 1.736953	 -0.741634	 -0.222509	 -0.153654	 0.733054	 -0.341755	 0.567649	 1
1463570590.446	 4	 -0.294487	 -0.431329	 -0.209834	 1.735298	 -0.743250	 -0.218061	 -0.156075	 0.732070	 -0.340913	 0.568764	 1
1463570590.456	 4	 -0.250160	 -0.357658	 -0.153049	 1.734218	 -0.744481	 -0.214146	 -0.158078	 0.731326	 -0.340134	 0.569634	 1
1463570590.476	 5	 -0.064517	 -0.132791	 -0.163231	 1.732413	 -0.746684	 -0.209902	 -0.160628	 0.730239	 -0.339530	 0.570674	 1
1463570590.486	 5	 0.026498	 -0.028107	 -0.211008	 1.732151	 -0.748674	 -0.209523	 -0.161437	 0.729922	 -0.340078	 0.570526	 1
1463570590.496	 5	 0.107037	 0.084609	 -0.203265	 1.747952	 -0.751422	 -0.199508	 -0.163275	 0.733300	 -0.339454	 0.566024	 1
1463570590.506	 5	 0.147521	 0.253969	 -0.153017	 1.749015	 -0.753304	 -0.200991	 -0.163136	 0.733514	 -0.340606	 0.565095	 1
1463570590.516	 5	 0.129927	 0.329883	 -0.105263	 1.751136	 -0.754687	 -0.202576	 -0.162622	 0.734089	 -0.341701	 0.563834	 1
1463570590.526	 5	 0.088083	 0.285311	 -0.108511	 1.753414	 -0.755883	 -0.203639	 -0.162213	 0.734684	 -0.342596	 0.562632	 1
1463570590.536	 5	 0.068268	 0.215609	 -0.183630	 1.747717	 -0.762197	 -0.209450	 -0.163023	 0.732854	 -0.345929	 0.562744	 1
1463570590.546	 5	 0.077248	 0.183869	 -0.303369	 1.749371	 -0.765027	 -0.209774	 -0.163498	 0.733032	 -0.347122	 0.561640	 1
1463570590.556	 5	 0.076917	 0.179051	 -0.381211	 1.751012	 -0.768748	 -0.209969	 -0.164297	 0.733092	 -0.348581	 0.560423	 1
1463570590.566	 5	 0.047810	 0.160676	 -0.433351	 1.752907	 -0.772993	 -0.209661	 -0.165395	 0.733120	 -0.350100	 0.559115	 1
1463570590.576	 5	 0.018321	 0.053013	 -0.476719	 1.753291	 -0.777371	 -0.209547	 -0.166726	 0.732721	 -0.351594	 0.558305	 1
1463570590.586	 5	 0.021115	 0.009077	 -0.524065	 1.756624	 -0.783122	 -0.206792	 -0.168926	 0.732758	 -0.353067	 0.556662	 1
1463570590.596	 5	 0.011373	 0.035219	 -0.589815	 1.757779	 -0.788778	 -0.205493	 -0.170942	 0.732312	 -0.354734	 0.555574	 1
1463570590.606	 5	 0.002752	 0.082545	 -0.667100	 1.759708	 -0.795145	 -0.203825	 -0.173169	 0.731954	 -0.356607	 0.554155	 1
1463570590.616	 5	 0.012468	 0.113233	 -0.687335	 1.762010	 -0.801902	 -0.202073	 -0.175473	 0.731631	 -0.358626	 0.552551	 1
1463570590.626	 5	 0.041820	 0.202718	 -0.656924	 1.766107	 -0.809074	 -0.199726	 -0.177790	 0.731684	 -0.360785	 0.550330	 1
1463570590.636	 5	 0.079866	 0.307209	 -0.606192	 1.769500	 -0.815270	 -0.198960	 -0.179346	 0.731786	 -0.362990	 0.548236	 1
1463570590.646	 5	 0.121001	 0.353489	 -0.514464	 1.772934	 -0.820773	 -0.198993	 -0.180383	 0.732044	 -0.365185	 0.546090	 1
1463570590.656	 5	 0.130836	 0.354933	 -0.458051	 1.776188	 -0.825657	 -0.199465	 -0.181096	 0.732360	 -0.367273	 0.544025	 1
1463570590.666	 5	 0.121208	 0.300065	 -0.399861	 1.776926	 -0.830389	 -0.201478	 -0.181656	 0.732145	 -0.369499	 0.542619	 1
1463570590.676	 5	 0.117782	 0.257489	 -0.405556	 1.779228	 -0.834548	 -0.201983	 -0.182303	 0.732286	 -0.371261	 0.541007	 1
1463570590.686	 5	 0.130146	 0.201816	 -0.450944	 1.781014	 -0.839078	 -0.202469	 -0.183161	 0.732232	 -0.373097	 0.539524	 1
1463570590.696	 5	 0.127673	 0.221244	 -0.559450	 1.782931	 -0.844525	 -0.202718	 -0.184353	 0.732069	 -0.375193	 0.537884	 1
1463570590.706	 5	 0.131431	 0.253017	 -0.724402	 1.787514	 -0.853492	 -0.200997	 -0.186815	 0.731966	 -0.378205	 0.535058	 1
1463570590.716	 5	 0.134266	 0.304015	 -0.877422	 1.791005	 -0.861966	 -0.200208	 -0.188978	 0.731698	 -0.381203	 0.532532	 1
1463570590.726	 5	 0.116907	 0.354165	 -1.008959	 1.795577	 -0.871770	 -0.198718	 -0.191571	 0.731446	 -0.384572	 0.529520	 1
1463570590.736	 5	 0.084541	 0.338859	 -1.079160	 1.800836	 -0.882372	 -0.196376	 -0.194558	 0.731149	 -0.388062	 0.526285	 1
1463570590.746	 5	 0.058501	 0.254851	 -1.087173	 1.805646	 -0.892919	 -0.193645	 -0.197732	 0.730663	 -0.391398	 0.523298	 1
1463570590.756	 5	 0.007029	 0.172301	 -1.051257	 1.810392	 -0.903288	 -0.189975	 -0.201184	 0.730052	 -0.394434	 0.520549	 1
1463570590.766	 5	 -0.011887	 0.176051	 -0.981783	 1.815345	 -0.912956	 -0.185904	 -0.204513	 0.729514	 -0.397162	 0.517925	 1
1463570590.776	 5	 0.058488	 0.165196	 -0.983563	 1.819717	 -0.922485	 -0.182567	 -0.207626	 0.728884	 -0.399986	 0.515394	 1
1463570590.786	 5	 0.173445	 0.126358	 -1.012635	 1.822515	 -0.932626	 -0.180734	 -0.210664	 0.727880	 -0.403248	 0.513032	 1
1463570590.796	 5	 0.271582	 0.131266	 -1.029430	 1.823992	 -0.943165	 -0.180479	 -0.213495	 0.726616	 -0.406909	 0.510760	 1
1463570590.806	 5	 0.346493	 0.208404	 -1.068798	 1.825104	 -0.954241	 -0.181407	 -0.216113	 0.725279	 -0.411005	 0.508273	 1
1463570590.816	 5	 0.383117	 0.299601	 -1.091715	 1.826586	 -0.965683	 -0.182963	 -0.218524	 0.724024	 -0.415412	 0.505440	 1
1463570590.826	 5	 0.402415	 0.368250	 -1.150928	 1.828842	 -0.977737	 -0.184562	 -0.220919	 0.722847	 -0.420107	 0.502192	 1
1463570590.836	 5	 0.398637	 0.366161	 -1.293727	 1.831622	 -0.990915	 -0.185725	 -0.223665	 0.721542	 -0.425115	 0.498626	 1
1463570590.846	 5	 0.397503	 0.239675	 -1.429180	 1.834042	 -1.005416	 -0.186124	 -0.227118	 0.719806	 -0.430320	 0.495097	 1
1463570590.856	 5	 0.395058	 0.076896	 -1.583078	 1.835509	 -1.021342	 -0.185756	 -0.231431	 0.717464	 -0.435684	 0.491797	 1
1463570590.866	 5	 0.359606	 -0.060340	 -1.748175	 1.836692	 -1.038912	 -0.184027	 -0.236732	 0.714557	 -0.441204	 0.488575	 1
1463570590.876	 5	 0.293356	 -0.219358	 -1.849259	 1.838000	 -1.057398	 -0.180473	 -0.242879	 0.711231	 -0.446574	 0.485523	 1
1463570590.886	 5	 0.221402	 -0.109421	 -1.825229	 1.841214	 -1.075702	 -0.174903	 -0.249219	 0.708060	 -0.451615	 0.482270	 1
1463570590.896	 5	 0.283451	 0.010717	 -1.660524	 1.845178	 -1.092915	 -0.170492	 -0.254623	 0.705317	 -0.456674	 0.478689	 1
1463570590.906	 5	 0.356846	 -0.034394	 -1.398339	 1.846201	 -1.107934	 -0.168989	 -0.259032	 0.702576	 -0.461331	 0.475880	 1
1463570590.916	 5	 0.432120	 0.222324	 -1.021458	 1.845760	 -1.119844	 -0.171065	 -0.261659	 0.700500	 -0.465622	 0.473319	 1
1463570590.926	 5	 0.524476	 0.479005	 -0.642593	 1.844082	 -1.128295	 -0.177650	 -0.262054	 0.699366	 -0.469677	 0.470764	 1
1463570590.936	 5	 0.561619	 0.580462	 -0.277482	 1.840369	 -1.133348	 -0.187947	 -0.260713	 0.698884	 -0.473227	 0.468664	 1
1463570590.946	 5	 0.528486	 0.740408	 0.057878	 1.836249	 -1.134980	 -0.200109	 -0.257889	 0.699191	 -0.476057	 0.466900	 1
1463570590.956	 5	 0.466352	 0.943331	 0.294775	 1.833857	 -1.133888	 -0.212634	 -0.253775	 0.700438	 -0.478323	 0.464963	 1
1463570590.966	 5	 0.392469	 1.037830	 0.389019	 1.833524	 -1.131337	 -0.224282	 -0.249060	 0.702294	 -0.480179	 0.462796	 1
1463570590.976	 5	 0.304766	 1.039840	 0.337579	 1.835295	 -1.128727	 -0.233837	 -0.244545	 0.704357	 -0.481782	 0.460397	 1
1463570590.986	 5	 0.220999	 1.035964	 0.209315	 1.839400	 -1.127011	 -0.240766	 -0.240630	 0.706449	 -0.483331	 0.457622	 1
1463570590.996	 5	 0.144544	 0.991708	 0.089138	 1.845505	 -1.126312	 -0.245152	 -0.237406	 0.708491	 -0.484841	 0.454542	 1
1463570591.006	 5	 0.089268	 0.871167	 0.018158	 1.852265	 -1.126240	 -0.247686	 -0.234846	 0.710334	 -0.486190	 0.451543	 1
1463570591.016	 5	 0.053243	 0.712685	 0.003142	 1.858544	 -1.126372	 -0.249059	 -0.232866	 0.711885	 -0.487275	 0.448950	 1
1463570591.026	 5	 0.036713	 0.578920	 0.030817	 1.863683	 -1.126272	 -0.250113	 -0.231210	 0.713176	 -0.488076	 0.446882	 1
1463570591.036	 5	 0.030120	 0.512160	 0.062226	 1.867974	 -1.125836	 -0.251166	 -0.229666	 0.714334	 -0.488667	 0.445181	 1
1463570591.046	 5	 0.047199	 0.489958	 0.088525	 1.870094	 -1.124460	 -0.253978	 -0.227762	 0.715376	 -0.489097	 0.444011	 1
1463570591.056	 5	 0.086580	 0.449583	 0.110187	 1.872545	 -1.123675	 -0.256369	 -0.226090	 0.716332	 -0.489656	 0.442706	 1
1463570591.066	 5	 0.115163	 0.382648	 0.131697	 1.873587	 -1.122794	 -0.259663	 -0.224411	 0.717092	 -0.490222	 0.441702	 1
1463570591.076	 5	 0.114742	 0.282763	 0.144626	 1.873473	 -1.121786	 -0.263216	 -0.222886	 0.717646	 -0.490673	 0.441074	 1
1463570591.086	 5	 0.082318	 0.192489	 0.149419	 1.873570	 -1.118810	 -0.265616	 -0.221176	 0.718467	 -0.490268	 0.441049	 1
1463570591.096	 5	 0.075470	 0.155849	 0.080929	 1.873121	 -1.118000	 -0.267904	 -0.220239	 0.718765	 -0.490466	 0.440812	 1
1463570591.106	 5	 0.159037	 0.172188	 -0.125339	 1.872561	 -1.119078	 -0.270374	 -0.219788	 0.718721	 -0.491290	 0.440190	 1
1463570591.116	 5	 0.206046	 0.238552	 -0.193340	 1.869032	 -1.121858	 -0.276131	 -0.219362	 0.718083	 -0.493048	 0.439477	 1
1463570591.126	 5	 0.153939	 0.209513	 -0.112159	 1.868728	 -1.123659	 -0.279009	 -0.218906	 0.718013	 -0.494214	 0.438509	 1
1463570591.136	 5	 0.077714	 0.047570	 -0.034136	 1.868056	 -1.124423	 -0.280752	 -0.218660	 0.717921	 -0.494763	 0.438164	 1
1463570591.146	 5	 0.050526	 -0.074540	 -0.016917	 1.866594	 -1.124759	 -0.281805	 -0.218737	 0.717656	 -0.494940	 0.438359	 1
1463570591.156	 5	 0.066378	 -0.113853	 -0.006837	 1.867338	 -1.130258	 -0.280415	 -0.220586	 0.716691	 -0.496444	 0.437309	 1
1463570591.166	 5	 0.071587	 -0.152060	 0.006617	 1.864436	 -1.130436	 -0.282030	 -0.220777	 0.716203	 -0.496533	 0.437911	 1
1463570591.176	 5	 0.068508	 -0.142339	 0.025918	 1.861413	 -1.130433	 -0.283722	 -0.220921	 0.715727	 -0.496569	 0.438574	 1
1463570591.186	 5	 0.055988	 -0.090111	 0.036105	 1.858942	 -1.130276	 -0.285304	 -0.220925	 0.715388	 -0.496594	 0.439098	 1
1463570591.196	 5	 0.039175	 -0.033626	 0.041011	 1.864192	 -1.131579	 -0.280352	 -0.221758	 0.715760	 -0.496496	 0.438180	 1
1463570591.206	 5	 0.009372	 -0.011253	 0.034018	 1.863479	 -1.131278	 -0.280992	 -0.221622	 0.715729	 -0.496464	 0.438338	 1
1463570591.216	 5	 -0.030394	 -0.063317	 0.025354	 1.863258	 -1.130943	 -0.280748	 -0.221670	 0.715713	 -0.496281	 0.438547	 1
1463570591.226	 5	 -0.092788	 -0.151562	 0.004826	 1.863433	 -1.130631	 -0.279103	 -0.222128	 0.715624	 -0.495841	 0.438956	 1
1463570591.236	 5	 -0.138913	 -0.195074	 -0.001604	 1.865799	 -1.132417	 -0.274758	 -0.223595	 0.715340	 -0.495712	 0.438821	 1
1463570591.246	 5	 -0.163569	 -0.219458	 -0.000550	 1.866885	 -1.131966	 -0.271175	 -0.224481	 0.715258	 -0.494905	 0.439412	 1
1463570591.256	 5	 -0.152874	 -0.216283	 0.001518	 1.867898	 -1.131503	 -0.267655	 -0.225361	 0.715168	 -0.494099	 0.440014	 1
1463570591.266	 5	 -0.135750	 -0.212026	 0.008869	 1.868560	 -1.131035	 -0.264564	 -0.226173	 0.715049	 -0.493346	 0.440636	 1
1463570591.276	 5	 -0.116452	 -0.196106	 0.012037	 1.868757	 -1.131193	 -0.262096	 -0.227051	 0.714785	 -0.492874	 0.441142	 1
1463570591.286	 5	 -0.099290	 -0.181235	 0.016289	 1.868915	 -1.130749	 -0.259872	 -0.227684	 0.714647	 -0.492261	 0.441723	 1
1463570591.296	 5	 -0.083179	 -0.161058	 0.018468	 1.868912	 -1.130327	 -0.258042	 -0.228221	 0.714514	 -0.491723	 0.442259	 1
1463570591.316	 6	 -0.055275	 -0.129214	 0.020657	 1.868884	 -1.129231	 -0.255032	 -0.229000	 0.714363	 -0.490706	 0.443229	 1
1463570591.326	 6	 -0.044534	 -0.110138	 0.015413	 1.868576	 -1.128926	 -0.254109	 -0.229322	 0.714244	 -0.490370	 0.443627	 1
1463570591.336	 6	 -0.035924	 -0.092105	 0.012308	 1.868313	 -1.128691	 -0.253334	 -0.229598	 0.714140	 -0.490093	 0.443958	 1
1463570591.346	 6	 -0.030524	 -0.074077	 0.007100	 1.868128	 -1.128517	 -0.252660	 -0.229835	 0.714053	 -0.489867	 0.444224	 1
1463570591.356	 6	 -0.024059	 -0.056050	 0.001884	 1.868578	 -1.128254	 -0.251603	 -0.230030	 0.714079	 -0.489601	 0.444375	 1
1463570591.366	 6	 -0.020814	 -0.040156	 -0.005458	 1.869143	 -1.128284	 -0.250603	 -0.230257	 0.714084	 -0.489453	 0.444411	 1
1463570591.376	 6	 -0.016505	 -0.029547	 -0.007528	 1.869521	 -1.128214	 -0.249885	 -0.230402	 0.714098	 -0.489314	 0.444467	 1
1463570591.386	 6	 -0.014352	 -0.025297	 -0.007506	 1.869940	 -1.128107	 -0.249196	 -0.230516	 0.714131	 -0.489176	 0.444507	 1
1463570591.396	 6	 -0.010080	 -0.026359	 -0.005417	 1.869805	 -1.127903	 -0.249031	 -0.230551	 0.714120	 -0.489059	 0.444636	 1
1463570591.406	 6	 -0.006869	 -0.025298	 -0.004367	 1.869544	 -1.127779	 -0.249005	 -0.230590	 0.714081	 -0.488984	 0.444760	 1
1463570591.416	 6	 -0.002592	 -0.026352	 -0.001212	 1.869065	 -1.127495	 -0.249179	 -0.230566	 0.714046	 -0.488877	 0.444945	 1
1463570591.426	 6	 -0.001534	 -0.027427	 -0.002294	 1.868759	 -1.127348	 -0.249196	 -0.230595	 0.714007	 -0.488799	 0.445080	 1
1463570591.436	 6	 -0.001533	 -0.027429	 -0.002291	 1.868326	 -1.127172	 -0.249329	 -0.230605	 0.713958	 -0.488723	 0.445237	 1
1463570591.446	 6	 0.000628	 -0.024221	 0.000920	 1.868147	 -1.127028	 -0.249265	 -0.230631	 0.713937	 -0.488642	 0.445345	 1
1463570591.456	 6	 0.000652	 -0.017845	 -0.000085	 1.868283	 -1.126895	 -0.248970	 -0.230667	 0.713957	 -0.488550	 0.445395	 1
1463570591.466	 6	 0.001770	 -0.006155	 -0.001051	 1.868271	 -1.126871	 -0.248894	 -0.230690	 0.713950	 -0.488524	 0.445423	 1
1463570591.476	 6	 0.008189	 0.001232	 -0.006373	 1.867915	 -1.127270	 -0.249231	 -0.230767	 0.713837	 -0.488684	 0.445388	 1
1463570591.486	 6	 0.011380	 0.002254	 -0.010662	 1.867661	 -1.127866	 -0.249510	 -0.230894	 0.713704	 -0.488906	 0.445291	 1
1463570591.496	 6	 0.012426	 0.001156	 -0.014952	 1.867500	 -1.128494	 -0.249705	 -0.231038	 0.713577	 -0.489130	 0.445176	 1
1463570591.506	 6	 0.012428	 0.003269	 -0.017073	 1.867575	 -1.129211	 -0.249697	 -0.231220	 0.713462	 -0.489364	 0.445008	 1
1463570591.516	 6	 0.010275	 0.001134	 -0.019216	 1.867776	 -1.129994	 -0.249557	 -0.231437	 0.713348	 -0.489605	 0.444813	 1
1463570591.526	 6	 0.009180	 -0.003133	 -0.021389	 1.867809	 -1.130805	 -0.249516	 -0.231667	 0.713203	 -0.489857	 0.444649	 1
1463570591.536	 6	 0.009161	 -0.006330	 -0.022493	 1.867920	 -1.131535	 -0.249366	 -0.231895	 0.713077	 -0.490068	 0.444500	 1
1463570591.556	 7	 0.007027	 -0.009482	 -0.018256	 1.868146	 -1.132709	 -0.249032	 -0.232282	 0.712874	 -0.490391	 0.444266	 1
1463570591.566	 7	 0.007027	 -0.008424	 -0.019318	 1.868372	 -1.133222	 -0.248758	 -0.232466	 0.712798	 -0.490520	 0.444150	 1
1463570591.576	 7	 0.008098	 -0.006306	 -0.020381	 1.868657	 -1.133780	 -0.248439	 -0.232663	 0.712722	 -0.490659	 0.444015	 1
1463570591.586	 7	 0.009168	 -0.004187	 -0.021442	 1.869175	 -1.134261	 -0.247945	 -0.232845	 0.712691	 -0.490762	 0.443855	 1
1463570591.596	 7	 0.007066	 0.001155	 -0.019248	 1.869556	 -1.134686	 -0.247601	 -0.232991	 0.712658	 -0.490865	 0.443718	 1
1463570591.606	 7	 0.006016	 0.003302	 -0.017091	 1.869757	 -1.135058	 -0.247452	 -0.233097	 0.712617	 -0.490973	 0.443609	 1
1463570591.616	 7	 0.006005	 -0.000936	 -0.015002	 1.869844	 -1.135390	 -0.247379	 -0.233193	 0.712567	 -0.491072	 0.443529	 1
1463570591.626	 7	 0.004969	 -0.001945	 -0.013015	 1.870019	 -1.135757	 -0.247212	 -0.233311	 0.712518	 -0.491172	 0.443435	 1
1463570591.636	 7	 0.002834	 -0.001939	 -0.013000	 1.870143	 -1.136121	 -0.247076	 -0.233429	 0.712463	 -0.491271	 0.443351	 1
1463570591.646	 7	 0.000709	 -0.001916	 -0.010854	 1.870301	 -1.136505	 -0.246908	 -0.233555	 0.712408	 -0.491374	 0.443259	 1
1463570591.656	 7	 0.001780	 -0.001911	 -0.009802	 1.870501	 -1.136920	 -0.246697	 -0.233695	 0.712351	 -0.491482	 0.443156	 1
1463570591.666	 7	 -0.002516	 -0.008272	 -0.008762	 1.870807	 -1.137227	 -0.246347	 -0.233829	 0.712322	 -0.491538	 0.443072	 1
1463570591.676	 7	 -0.002522	 -0.008278	 -0.009831	 1.871276	 -1.137468	 -0.245824	 -0.233967	 0.712320	 -0.491553	 0.442985	 1
1463570591.686	 7	 -0.000371	 -0.006140	 -0.007700	 1.871719	 -1.137643	 -0.245347	 -0.234075	 0.712330	 -0.491555	 0.442909	 1
1463570591.696	 7	 0.000679	 -0.009333	 -0.007740	 1.872130	 -1.137766	 -0.244890	 -0.234171	 0.712345	 -0.491541	 0.442851	 1
1463570591.706	 7	 -0.000402	 -0.009352	 -0.010930	 1.872448	 -1.137943	 -0.244502	 -0.234279	 0.712337	 -0.491548	 0.442798	 1
1463570591.716	 7	 -0.000393	 -0.006167	 -0.011968	 1.872791	 -1.138125	 -0.244105	 -0.234387	 0.712332	 -0.491558	 0.442737	 1
1463570591.726	 7	 -0.000383	 -0.002983	 -0.013006	 1.873040	 -1.138310	 -0.243821	 -0.234477	 0.712320	 -0.491583	 0.442681	 1
1463570591.736	 7	 0.001756	 -0.000869	 -0.014073	 1.873312	 -1.138552	 -0.243550	 -0.234573	 0.712304	 -0.491632	 0.442602	 1
1463570591.746	 7	 0.004971	 0.001257	 -0.013016	 1.873515	 -1.138752	 -0.243373	 -0.234641	 0.712291	 -0.491680	 0.442533	 1
1463570591.756	 7	 0.009252	 0.003380	 -0.011969	 1.873821	 -1.138923	 -0.243149	 -0.234693	 0.712301	 -0.491720	 0.442446	 1
1463570591.766	 7	 0.013516	 0.004417	 -0.014129	 1.874040	 -1.139111	 -0.243022	 -0.234736	 0.712299	 -0.491778	 0.442361	 1
1463570591.776	 7	 0.016724	 0.004423	 -0.012027	 1.874103	 -1.139344	 -0.243050	 -0.234774	 0.712273	 -0.491866	 0.442285	 1
1463570591.786	 7	 0.019919	 0.003351	 -0.012067	 1.874097	 -1.139607	 -0.243146	 -0.234813	 0.712234	 -0.491969	 0.442211	 1
1463570591.796	 7	 0.020981	 0.003341	 -0.013146	 1.874108	 -1.139969	 -0.243232	 -0.234879	 0.712180	 -0.492105	 0.442114	 1
1463570591.806	 7	 0.024167	 0.001198	 -0.014261	 1.874035	 -1.140238	 -0.243392	 -0.234914	 0.712132	 -0.492217	 0.442047	 1
1463570591.816	 7	 0.027378	 0.005429	 -0.016383	 1.874022	 -1.140536	 -0.243523	 -0.234952	 0.712090	 -0.492339	 0.441960	 1
1463570591.826	 7	 0.026326	 0.009679	 -0.017401	 1.873903	 -1.140844	 -0.243798	 -0.234967	 0.712039	 -0.492483	 0.441873	 1
1463570591.836	 7	 0.026335	 0.012863	 -0.018440	 1.873824	 -1.141182	 -0.244064	 -0.234985	 0.711990	 -0.492640	 0.441768	 1
1463570591.846	 7	 0.026336	 0.014976	 -0.020553	 1.873685	 -1.141540	 -0.244399	 -0.234998	 0.711932	 -0.492811	 0.441663	 1
1463570591.856	 7	 0.026352	 0.019223	 -0.021582	 1.873571	 -1.141952	 -0.244753	 -0.235013	 0.711872	 -0.493006	 0.441534	 1
1463570591.866	 7	 0.022058	 0.012862	 -0.020541	 1.873427	 -1.142344	 -0.245080	 -0.235039	 0.711806	 -0.493186	 0.441426	 1
1463570591.876	 7	 0.019917	 0.009693	 -0.018423	 1.873359	 -1.142760	 -0.245296	 -0.235093	 0.711739	 -0.493357	 0.441314	 1
1463570591.886	 7	 0.020978	 0.007571	 -0.017390	 1.873241	 -1.143174	 -0.245535	 -0.235150	 0.711664	 -0.493527	 0.441213	 1
1463570591.896	 7	 0.022066	 0.008663	 -0.013130	 1.873345	 -1.143529	 -0.245583	 -0.235205	 0.711627	 -0.493662	 0.441094	 1
1463570591.906	 7	 0.022085	 0.009760	 -0.008860	 1.873519	 -1.143817	 -0.245585	 -0.235240	 0.711612	 -0.493774	 0.440974	 1
1463570591.916	 7	 0.019963	 0.010846	 -0.006704	 1.873542	 -1.144131	 -0.245732	 -0.235269	 0.711576	 -0.493909	 0.440866	 1
1463570591.926	 7	 0.021038	 0.009803	 -0.003529	 1.873427	 -1.144392	 -0.246008	 -0.235270	 0.711534	 -0.494039	 0.440786	 1
1463570591.936	 7	 0.021036	 0.007692	 -0.001421	 1.873243	 -1.144646	 -0.246330	 -0.235271	 0.711484	 -0.494168	 0.440721	 1
1463570591.946	 7	 0.019967	 0.005584	 0.000697	 1.872934	 -1.144878	 -0.246758	 -0.235258	 0.711424	 -0.494300	 0.440679	 1
1463570591.956	 7	 0.021049	 0.006660	 0.002826	 1.872588	 -1.145083	 -0.247212	 -0.235238	 0.711363	 -0.494424	 0.440648	 1
1463570591.966	 7	 0.021039	 0.004532	 0.002803	 1.872284	 -1.145276	 -0.247622	 -0.235221	 0.711308	 -0.494540	 0.440616	 1
1463570591.976	 7	 0.018894	 0.001356	 0.003857	 1.871920	 -1.145388	 -0.248057	 -0.235187	 0.711258	 -0.494628	 0.440616	 1
1463570591.986	 7	 0.019959	 -0.000759	 0.005957	 1.871510	 -1.145530	 -0.248506	 -0.235167	 0.711194	 -0.494723	 0.440622	 1
1463570591.996	 7	 0.017816	 -0.001824	 0.004897	 1.871161	 -1.145639	 -0.248887	 -0.235148	 0.711142	 -0.494801	 0.440630	 1
1463570592.006	 7	 0.015677	 -0.001825	 0.003849	 1.870845	 -1.145722	 -0.249231	 -0.235127	 0.711097	 -0.494866	 0.440640	 1
1463570592.016	 7	 0.016754	 0.001356	 0.002801	 1.870677	 -1.145803	 -0.249459	 -0.235109	 0.711072	 -0.494922	 0.440627	 1
1463570592.026	 7	 0.014615	 0.001355	 0.001753	 1.870456	 -1.145895	 -0.249730	 -0.235093	 0.711038	 -0.494985	 0.440620	 1
1463570592.036	 7	 0.014620	 0.002418	 0.001761	 1.870176	 -1.145996	 -0.250061	 -0.235073	 0.710997	 -0.495056	 0.440617	 1
1463570592.046	 7	 0.013559	 0.004541	 0.000723	 1.869923	 -1.146133	 -0.250380	 -0.235060	 0.710953	 -0.495140	 0.440601	 1
1463570592.056	 7	 0.012498	 0.006664	 -0.000316	 1.869821	 -1.146245	 -0.250572	 -0.235047	 0.710932	 -0.495206	 0.440567	 1
1463570592.066	 7	 0.011449	 0.008811	 0.001843	 1.869763	 -1.146356	 -0.250744	 -0.235031	 0.710919	 -0.495272	 0.440522	 1
1463570592.076	 7	 0.010390	 0.009886	 0.002925	 1.869764	 -1.146502	 -0.250873	 -0.235025	 0.710908	 -0.495346	 0.440460	 1
1463570592.086	 7	 0.011456	 0.009884	 0.002912	 1.869828	 -1.146652	 -0.250955	 -0.235021	 0.710904	 -0.495419	 0.440387	 1
1463570592.096	 7	 0.012533	 0.012008	 0.002920	 1.869784	 -1.146770	 -0.251152	 -0.234995	 0.710895	 -0.495495	 0.440330	 1
1463570592.106	 7	 0.013593	 0.009886	 0.003954	 1.869763	 -1.146869	 -0.251331	 -0.234963	 0.710893	 -0.495563	 0.440273	 1
1463570592.116	 7	 0.012526	 0.009890	 0.003962	 1.869640	 -1.146938	 -0.251590	 -0.234920	 0.710884	 -0.495627	 0.440239	 1
1463570592.126	 7	 0.012520	 0.007770	 0.005006	 1.869476	 -1.147043	 -0.251871	 -0.234890	 0.710861	 -0.495703	 0.440206	 1
1463570592.136	 7	 0.011444	 0.005646	 0.004993	 1.869302	 -1.147148	 -0.252130	 -0.234870	 0.710834	 -0.495772	 0.440183	 1
1463570592.146	 7	 0.010360	 0.001403	 0.006026	 1.869170	 -1.147219	 -0.252313	 -0.234857	 0.710813	 -0.495819	 0.440170	 1
1463570592.156	 7	 0.009288	 0.000343	 0.006023	 1.869054	 -1.147307	 -0.252470	 -0.234855	 0.710790	 -0.495868	 0.440154	 1
1463570592.167	 7	 0.007154	 0.001406	 0.004983	 1.869023	 -1.147377	 -0.252548	 -0.234854	 0.710779	 -0.495904	 0.440132	 1
1463570592.177	 7	 0.009306	 0.004599	 0.006058	 1.869088	 -1.147398	 -0.252572	 -0.234835	 0.710793	 -0.495923	 0.440099	 1
1463570592.186	 7	 0.009306	 0.005655	 0.005001	 1.868968	 -1.147438	 -0.252772	 -0.234805	 0.710782	 -0.495966	 0.440083	 1
1463570592.197	 7	 0.009292	 0.004576	 0.002858	 1.868865	 -1.147485	 -0.252949	 -0.234780	 0.710772	 -0.496007	 0.440067	 1
1463570592.206	 7	 0.010369	 0.006701	 0.002867	 1.868769	 -1.147561	 -0.253135	 -0.234759	 0.710758	 -0.496061	 0.440039	 1
1463570592.216	 7	 0.007187	 0.010965	 0.002933	 1.868846	 -1.147600	 -0.253188	 -0.234731	 0.710774	 -0.496094	 0.439991	 1
1463570592.227	 7	 0.007192	 0.012029	 0.002942	 1.868907	 -1.147628	 -0.253271	 -0.234695	 0.710792	 -0.496128	 0.439943	 1
1463570592.237	 7	 0.005048	 0.010964	 0.001883	 1.868926	 -1.147704	 -0.253381	 -0.234672	 0.710795	 -0.496178	 0.439894	 1
1463570592.247	 7	 0.003970	 0.006728	 0.003983	 1.868851	 -1.147759	 -0.253540	 -0.234649	 0.710787	 -0.496222	 0.439870	 1
1463570592.257	 7	 0.001807	 0.000352	 0.003941	 1.868703	 -1.147807	 -0.253706	 -0.234640	 0.710765	 -0.496256	 0.439871	 1
1463570592.267	 7	 0.002853	 -0.003905	 0.003890	 1.868704	 -1.147859	 -0.253693	 -0.234658	 0.710754	 -0.496270	 0.439864	 1
1463570592.277	 7	 0.001790	 -0.004950	 0.006019	 1.868607	 -1.147901	 -0.253754	 -0.234673	 0.710732	 -0.496285	 0.439875	 1
1463570592.287	 7	 0.001780	 -0.007077	 0.005996	 1.868568	 -1.147976	 -0.253739	 -0.234708	 0.710708	 -0.496301	 0.439877	 1
1463570592.296	 7	 0.000712	 -0.008130	 0.007060	 1.868455	 -1.147980	 -0.253785	 -0.234721	 0.710688	 -0.496299	 0.439905	 1
1463570592.306	 7	 -0.000356	 -0.009182	 0.008122	 1.868372	 -1.148030	 -0.253791	 -0.234753	 0.710661	 -0.496306	 0.439922	 1
1463570592.317	 7	 -0.003557	 -0.008116	 0.007091	 1.868409	 -1.148087	 -0.253675	 -0.234801	 0.710645	 -0.496303	 0.439926	 1
1463570592.326	 7	 -0.004618	 -0.005993	 0.006050	 1.868482	 -1.148183	 -0.253536	 -0.234859	 0.710627	 -0.496311	 0.439916	 1
1463570592.336	 7	 -0.005688	 -0.004942	 0.003935	 1.868570	 -1.148226	 -0.253391	 -0.234900	 0.710622	 -0.496303	 0.439912	 1
1463570592.347	 7	 -0.007813	 -0.003864	 0.005028	 1.868652	 -1.148217	 -0.253256	 -0.234925	 0.710625	 -0.496280	 0.439918	 1
1463570592.357	 7	 -0.006747	 -0.004923	 0.006073	 1.868792	 -1.148195	 -0.253067	 -0.234952	 0.710638	 -0.496248	 0.439920	 1
1463570592.367	 7	 -0.006751	 -0.004930	 0.005005	 1.868905	 -1.148224	 -0.252896	 -0.234993	 0.710637	 -0.496233	 0.439916	 1
1463570592.377	 7	 -0.008881	 -0.003860	 0.005032	 1.869157	 -1.148221	 -0.252599	 -0.235034	 0.710659	 -0.496196	 0.439901	 1
1463570592.387	 7	 -0.007826	 -0.008102	 0.007113	 1.869247	 -1.148204	 -0.252427	 -0.235069	 0.710661	 -0.496163	 0.439915	 1
1463570592.397	 7	 -0.009988	 -0.012366	 0.004957	 1.869310	 -1.148268	 -0.252242	 -0.235136	 0.710642	 -0.496150	 0.439925	 1
1463570592.407	 7	 -0.012120	 -0.015519	 0.009206	 1.869385	 -1.148291	 -0.252009	 -0.235207	 0.710626	 -0.496115	 0.439952	 1
1463570592.417	 7	 -0.008914	 -0.016577	 0.011297	 1.869390	 -1.148285	 -0.251835	 -0.235266	 0.710608	 -0.496076	 0.439994	 1
1463570592.427	 7	 -0.008912	 -0.018681	 0.014471	 1.869419	 -1.148249	 -0.251625	 -0.235323	 0.710596	 -0.496022	 0.440044	 1
1463570592.437	 7	 -0.006756	 -0.016536	 0.017667	 1.869487	 -1.148166	 -0.251396	 -0.235365	 0.710600	 -0.495953	 0.440093	 1
1463570592.447	 7	 -0.002478	 -0.013364	 0.016591	 1.869566	 -1.148057	 -0.251205	 -0.235384	 0.710615	 -0.495886	 0.440134	 1
1463570592.457	 7	 -0.002474	 -0.010187	 0.014487	 1.869730	 -1.147954	 -0.250966	 -0.235399	 0.710642	 -0.495820	 0.440156	 1
1463570592.467	 7	 -0.001395	 -0.006998	 0.014506	 1.869905	 -1.147840	 -0.250747	 -0.235402	 0.710676	 -0.495757	 0.440171	 1
1463570592.477	 7	 -0.001386	 -0.004870	 0.014523	 1.870005	 -1.147771	 -0.250621	 -0.235403	 0.710696	 -0.495719	 0.440181	 1
1463570592.487	 7	 -0.001372	 -0.000622	 0.013495	 1.870129	 -1.147705	 -0.250509	 -0.235395	 0.710722	 -0.495688	 0.440178	 1
1463570592.497	 7	 -0.003496	 0.001512	 0.013530	 1.870247	 -1.147659	 -0.250416	 -0.235386	 0.710746	 -0.495667	 0.440169	 1
1463570592.507	 7	 -0.003488	 0.001528	 0.015660	 1.870344	 -1.147576	 -0.250357	 -0.235360	 0.710776	 -0.495639	 0.440165	 1
1463570592.517	 7	 -0.001363	 0.000450	 0.014563	 1.870334	 -1.147535	 -0.250383	 -0.235342	 0.710784	 -0.495631	 0.440171	 1
1463570592.527	 7	 -0.001354	 0.002578	 0.014580	 1.870475	 -1.147484	 -0.250286	 -0.235327	 0.710813	 -0.495610	 0.440155	 1
1463570592.537	 7	 -0.002441	 0.000440	 0.012433	 1.870732	 -1.147549	 -0.250061	 -0.235361	 0.710831	 -0.495611	 0.440106	 1
1463570592.547	 7	 -0.001378	 0.000429	 0.011355	 1.870755	 -1.147526	 -0.250060	 -0.235350	 0.710840	 -0.495607	 0.440103	 1
1463570592.557	 7	 -0.001378	 0.000429	 0.011353	 1.870742	 -1.147508	 -0.250081	 -0.235340	 0.710843	 -0.495604	 0.440106	 1
1463570592.567	 7	 -0.001392	 -0.000649	 0.009210	 1.870836	 -1.147467	 -0.250002	 -0.235334	 0.710862	 -0.495585	 0.440101	 1
1463570592.577	 7	 -0.000315	 0.000419	 0.010275	 1.870802	 -1.147426	 -0.250044	 -0.235316	 0.710867	 -0.495577	 0.440110	 1
1463570592.587	 7	 -0.003508	 0.002556	 0.010320	 1.870958	 -1.147414	 -0.249924	 -0.235317	 0.710890	 -0.495565	 0.440087	 1
1463570592.597	 7	 -0.003509	 -0.000611	 0.013485	 1.870954	 -1.147416	 -0.249938	 -0.235314	 0.710890	 -0.495569	 0.440085	 1
1463570592.607	 7	 -0.003520	 -0.004851	 0.015574	 1.870868	 -1.147373	 -0.249984	 -0.235307	 0.710885	 -0.495555	 0.440112	 1
1463570592.617	 7	 -0.004602	 -0.008038	 0.015551	 1.870830	 -1.147300	 -0.249957	 -0.235306	 0.710887	 -0.495522	 0.440147	 1
1463570592.627	 7	 -0.005646	 -0.011155	 0.018606	 1.870844	 -1.147207	 -0.249853	 -0.235314	 0.710895	 -0.495471	 0.440187	 1
1463570592.637	 7	 -0.006729	 -0.014342	 0.018583	 1.870869	 -1.147130	 -0.249698	 -0.235342	 0.710896	 -0.495416	 0.440232	 1
1463570592.647	 7	 -0.005658	 -0.014337	 0.019638	 1.870896	 -1.147002	 -0.249537	 -0.235357	 0.710907	 -0.495343	 0.440288	 1
1463570592.657	 7	 -0.006725	 -0.013278	 0.018589	 1.870867	 -1.146909	 -0.249437	 -0.235374	 0.710906	 -0.495288	 0.440342	 1
1463570592.667	 7	 -0.005657	 -0.012225	 0.017524	 1.870756	 -1.146723	 -0.249419	 -0.235357	 0.710914	 -0.495213	 0.440423	 1
1463570592.677	 7	 -0.007795	 -0.010114	 0.014363	 1.870854	 -1.146630	 -0.249226	 -0.235376	 0.710930	 -0.495152	 0.440455	 1
1463570592.687	 7	 -0.008861	 -0.010111	 0.014371	 1.870801	 -1.146547	 -0.249162	 -0.235389	 0.710927	 -0.495106	 0.440507	 1
1463570592.697	 7	 -0.009927	 -0.009052	 0.013323	 1.870853	 -1.146480	 -0.249012	 -0.235411	 0.710933	 -0.495057	 0.440539	 1
1463570592.707	 7	 -0.012065	 -0.007997	 0.011219	 1.870943	 -1.146359	 -0.248820	 -0.235424	 0.710952	 -0.494988	 0.440579	 1
1463570592.717	 7	 -0.014218	 -0.011190	 0.010141	 1.871005	 -1.146286	 -0.248627	 -0.235457	 0.710957	 -0.494929	 0.440619	 1
1463570592.727	 7	 -0.014231	 -0.012269	 0.007998	 1.871165	 -1.146221	 -0.248336	 -0.235503	 0.710970	 -0.494863	 0.440647	 1
1463570592.737	 7	 -0.015290	 -0.012250	 0.010138	 1.871311	 -1.146158	 -0.248033	 -0.235557	 0.710978	 -0.494794	 0.440683	 1
1463570592.747	 7	 -0.017431	 -0.015419	 0.012257	 1.871484	 -1.146105	 -0.247688	 -0.235622	 0.710986	 -0.494722	 0.440717	 1
1463570592.767	 8	 -0.018511	 -0.020711	 0.015409	 1.871981	 -1.145970	 -0.246780	 -0.235785	 0.711013	 -0.494538	 0.440793	 1
1463570592.777	 8	 -0.020647	 -0.022816	 0.017537	 1.872208	 -1.145868	 -0.246308	 -0.235869	 0.711026	 -0.494428	 0.440849	 1
1463570592.787	 8	 -0.019600	 -0.026017	 0.016429	 1.872419	 -1.145787	 -0.245831	 -0.235964	 0.711032	 -0.494322	 0.440908	 1
1463570592.797	 8	 -0.018524	 -0.024949	 0.017494	 1.872565	 -1.145659	 -0.245422	 -0.236039	 0.711040	 -0.494209	 0.440983	 1
1463570592.807	 8	 -0.018534	 -0.027076	 0.017471	 1.872662	 -1.145569	 -0.245041	 -0.236126	 0.711033	 -0.494108	 0.441061	 1
1463570592.817	 8	 -0.016390	 -0.024954	 0.017471	 1.872835	 -1.145416	 -0.244605	 -0.236196	 0.711048	 -0.493984	 0.441138	 1
1463570592.827	 8	 -0.014262	 -0.026024	 0.017441	 1.872918	 -1.145260	 -0.244260	 -0.236255	 0.711055	 -0.493868	 0.441225	 1
1463570592.837	 8	 -0.013189	 -0.023907	 0.016384	 1.872974	 -1.145121	 -0.243954	 -0.236312	 0.711057	 -0.493763	 0.441308	 1
1463570592.847	 8	 -0.015310	 -0.020709	 0.016431	 1.873225	 -1.144968	 -0.243497	 -0.236371	 0.711086	 -0.493643	 0.441363	 1
1463570592.857	 8	 -0.014234	 -0.019640	 0.017495	 1.873374	 -1.144817	 -0.243146	 -0.236418	 0.711106	 -0.493536	 0.441427	 1
1463570592.867	 8	 -0.013159	 -0.018572	 0.018561	 1.873540	 -1.144645	 -0.242795	 -0.236454	 0.711133	 -0.493424	 0.441488	 1
1463570592.877	 8	 -0.013169	 -0.019643	 0.017483	 1.873633	 -1.144513	 -0.242500	 -0.236500	 0.711143	 -0.493328	 0.441555	 1
1463570592.887	 8	 -0.014240	 -0.019647	 0.016426	 1.873628	 -1.144354	 -0.242295	 -0.236531	 0.711148	 -0.493231	 0.441639	 1
1463570592.897	 8	 -0.013165	 -0.018578	 0.017490	 1.873785	 -1.144228	 -0.241952	 -0.236579	 0.711165	 -0.493134	 0.441693	 1
1463570592.907	 8	 -0.011035	 -0.017536	 0.015348	 1.873933	 -1.144117	 -0.241630	 -0.236627	 0.711181	 -0.493046	 0.441742	 1
1463570592.917	 8	 -0.011011	 -0.011161	 0.014339	 1.874260	 -1.144012	 -0.241191	 -0.236674	 0.711221	 -0.492954	 0.441755	 1
1463570592.927	 8	 -0.009934	 -0.006919	 0.011125	 1.874542	 -1.143942	 -0.240836	 -0.236712	 0.711254	 -0.492887	 0.441756	 1
1463570592.937	 8	 -0.009910	 -0.001600	 0.011173	 1.874988	 -1.143841	 -0.240385	 -0.236734	 0.711318	 -0.492808	 0.441728	 1
1463570592.947	 8	 -0.006699	 0.001574	 0.010108	 1.875292	 -1.143758	 -0.240110	 -0.236734	 0.711368	 -0.492757	 0.441705	 1
1463570592.957	 8	 -0.004560	 0.003688	 0.009042	 1.875590	 -1.143724	 -0.239864	 -0.236739	 0.711411	 -0.492727	 0.441666	 1
1463570592.967	 8	 -0.003489	 0.003692	 0.010097	 1.875705	 -1.143651	 -0.239787	 -0.236719	 0.711441	 -0.492700	 0.441659	 1
1463570592.977	 8	 -0.003504	 0.000501	 0.010066	 1.875823	 -1.143618	 -0.239693	 -0.236714	 0.711462	 -0.492683	 0.441647	 1
1463570592.987	 8	 -0.001375	 -0.001625	 0.011092	 1.875789	 -1.143646	 -0.239720	 -0.236720	 0.711452	 -0.492694	 0.441647	 1
1463570592.997	 8	 -0.004583	 -0.004791	 0.013220	 1.875709	 -1.143650	 -0.239765	 -0.236725	 0.711439	 -0.492696	 0.441663	 1
1463570593.007	 8	 -0.004596	 -0.006926	 0.012132	 1.875594	 -1.143641	 -0.239804	 -0.236737	 0.711420	 -0.492688	 0.441696	 1
1463570593.017	 8	 -0.005668	 -0.006930	 0.011074	 1.875654	 -1.143634	 -0.239676	 -0.236766	 0.711420	 -0.492664	 0.441708	 1
1463570593.027	 8	 -0.005671	 -0.005882	 0.008951	 1.875755	 -1.143596	 -0.239520	 -0.236786	 0.711430	 -0.492630	 0.441718	 1
1463570593.037	 8	 -0.007801	 -0.004812	 0.008977	 1.875921	 -1.143580	 -0.239310	 -0.236816	 0.711445	 -0.492598	 0.441714	 1
1463570593.047	 8	 -0.009930	 -0.002685	 0.007949	 1.876124	 -1.143540	 -0.239071	 -0.236840	 0.711469	 -0.492557	 0.441708	 1
1463570593.057	 8	 -0.007795	 -0.001635	 0.006873	 1.876349	 -1.143517	 -0.238827	 -0.236865	 0.711495	 -0.492522	 0.441693	 1
1463570593.067	 8	 -0.005656	 -0.000578	 0.006863	 1.876550	 -1.143490	 -0.238621	 -0.236881	 0.711520	 -0.492492	 0.441677	 1
1463570593.077	 8	 -0.004631	 0.000399	 0.005881	 1.876769	 -1.143492	 -0.238414	 -0.236902	 0.711543	 -0.492473	 0.441650	 1
1463570593.087	 8	 -0.003584	 -0.002802	 0.004774	 1.876994	 -1.143540	 -0.238186	 -0.236941	 0.711557	 -0.492464	 0.441617	 1
1463570593.097	 8	 -0.003590	 -0.004921	 0.005819	 1.877143	 -1.143583	 -0.238005	 -0.236980	 0.711560	 -0.492456	 0.441600	 1
1463570593.107	 8	 -0.001458	 -0.007040	 0.007910	 1.877195	 -1.143591	 -0.237905	 -0.237005	 0.711558	 -0.492442	 0.441604	 1
1463570593.117	 8	 -0.000392	 -0.008098	 0.008955	 1.877247	 -1.143624	 -0.237791	 -0.237041	 0.711550	 -0.492434	 0.441607	 1
1463570593.127	 8	 0.001741	 -0.009160	 0.009991	 1.877154	 -1.143631	 -0.237802	 -0.237062	 0.711530	 -0.492427	 0.441636	 1
1463570593.137	 8	 0.002817	 -0.007036	 0.010000	 1.877180	 -1.143564	 -0.237729	 -0.237064	 0.711539	 -0.492393	 0.441658	 1
1463570593.147	 8	 0.004961	 -0.004914	 0.010000	 1.877147	 -1.143520	 -0.237727	 -0.237061	 0.711540	 -0.492375	 0.441679	 1
1463570593.157	 8	 0.004962	 -0.002802	 0.007887	 1.877186	 -1.143524	 -0.237684	 -0.237068	 0.711542	 -0.492371	 0.441675	 1
1463570593.167	 8	 0.006043	 0.000386	 0.007906	 1.877199	 -1.143514	 -0.237703	 -0.237055	 0.711550	 -0.492374	 0.441668	 1
1463570593.177	 8	 0.007116	 0.003559	 0.005793	 1.877290	 -1.143528	 -0.237682	 -0.237044	 0.711565	 -0.492384	 0.441638	 1
1463570593.187	 8	 0.006072	 0.007825	 0.006907	 1.877419	 -1.143530	 -0.237654	 -0.237022	 0.711589	 -0.492394	 0.441599	 1
1463570593.197	 8	 0.006073	 0.009937	 0.004794	 1.877513	 -1.143543	 -0.237684	 -0.236992	 0.711611	 -0.492416	 0.441555	 1
1463570593.207	 8	 0.006069	 0.010986	 0.002671	 1.877614	 -1.143579	 -0.237720	 -0.236964	 0.711631	 -0.492447	 0.441503	 1
1463570593.217	 8	 0.009271	 0.012033	 0.001586	 1.877619	 -1.143660	 -0.237852	 -0.236938	 0.711633	 -0.492503	 0.441453	 1
1463570593.227	 8	 0.007132	 0.012031	 0.000537	 1.877697	 -1.143757	 -0.237922	 -0.236920	 0.711640	 -0.492558	 0.441388	 1
1463570593.237	 8	 0.009280	 0.014160	 0.001602	 1.877807	 -1.143885	 -0.237986	 -0.236905	 0.711648	 -0.492626	 0.441308	 1
1463570593.247	 8	 0.007097	 0.016183	 0.002799	 1.877881	 -1.144015	 -0.238096	 -0.236883	 0.711653	 -0.492700	 0.441229	 1
1463570593.257	 8	 0.006025	 0.014066	 0.003853	 1.877890	 -1.144136	 -0.238246	 -0.236861	 0.711650	 -0.492773	 0.441164	 1
1463570593.267	 8	 0.007080	 0.010880	 0.004878	 1.877957	 -1.144207	 -0.238326	 -0.236835	 0.711661	 -0.492821	 0.441107	 1
1463570593.277	 8	 0.007065	 0.006633	 0.005903	 1.877859	 -1.144259	 -0.238518	 -0.236806	 0.711652	 -0.492868	 0.441084	 1
1463570593.287	 8	 0.007059	 0.004514	 0.006948	 1.877791	 -1.144316	 -0.238669	 -0.236784	 0.711644	 -0.492912	 0.441060	 1
1463570593.297	 8	 0.005990	 0.002405	 0.009067	 1.877752	 -1.144353	 -0.238766	 -0.236769	 0.711640	 -0.492940	 0.441042	 1
1463570593.307	 8	 0.003855	 0.001356	 0.010140	 1.877695	 -1.144392	 -0.238856	 -0.236762	 0.711631	 -0.492966	 0.441033	 1
1463570593.317	 8	 0.002782	 -0.000760	 0.011194	 1.877576	 -1.144381	 -0.238986	 -0.236742	 0.711622	 -0.492977	 0.441045	 1
1463570593.327	 8	 0.002767	 -0.003951	 0.011163	 1.877399	 -1.144373	 -0.239144	 -0.236727	 0.711604	 -0.492989	 0.441070	 1
1463570593.337	 8	 0.002747	 -0.008206	 0.011122	 1.877273	 -1.144357	 -0.239220	 -0.236727	 0.711588	 -0.492985	 0.441100	 1
1463570593.347	 8	 0.001680	 -0.008203	 0.011131	 1.877069	 -1.144340	 -0.239355	 -0.236724	 0.711562	 -0.492985	 0.441143	 1
1463570593.357	 8	 0.001680	 -0.007147	 0.010073	 1.876971	 -1.144330	 -0.239392	 -0.236732	 0.711547	 -0.492979	 0.441170	 1
1463570593.367	 8	 -0.000467	 -0.008219	 0.007949	 1.876908	 -1.144326	 -0.239385	 -0.236749	 0.711533	 -0.492969	 0.441195	 1
1463570593.377	 8	 -0.001539	 -0.009280	 0.007948	 1.876764	 -1.144316	 -0.239441	 -0.236762	 0.711509	 -0.492960	 0.441235	 1
1463570593.387	 8	 0.000582	 -0.009310	 0.004730	 1.876653	 -1.144337	 -0.239459	 -0.236789	 0.711483	 -0.492958	 0.441266	 1
1463570593.397	 8	 -0.001541	 -0.006120	 0.003712	 1.876624	 -1.144369	 -0.239419	 -0.236819	 0.711466	 -0.492956	 0.441279	 1
1463570593.407	 8	 -0.002597	 -0.001877	 0.001628	 1.876776	 -1.144362	 -0.239246	 -0.236841	 0.711480	 -0.492934	 0.441269	 1
1463570593.417	 8	 -0.002607	 -0.002948	 0.000552	 1.876969	 -1.144375	 -0.239040	 -0.236870	 0.711496	 -0.492915	 0.441249	 1
1463570593.427	 8	 -0.001593	 -0.002005	 0.001876	 1.877124	 -1.144406	 -0.238876	 -0.236899	 0.711505	 -0.492907	 0.441228	 1
1463570593.437	 8	 -0.002674	 -0.004136	 0.000798	 1.877232	 -1.144479	 -0.238736	 -0.236942	 0.711499	 -0.492912	 0.441210	 1
1463570593.447	 8	 -0.002686	 -0.008376	 0.002889	 1.877193	 -1.144582	 -0.238692	 -0.236995	 0.711466	 -0.492931	 0.441214	 1
1463570593.457	 8	 -0.003753	 -0.009428	 0.003952	 1.877182	 -1.144653	 -0.238608	 -0.237047	 0.711440	 -0.492933	 0.441224	 1
1463570593.467	 8	 -0.003755	 -0.011540	 0.006063	 1.877122	 -1.144718	 -0.238551	 -0.237100	 0.711408	 -0.492934	 0.441247	 1
1463570593.477	 8	 -0.002701	 -0.012622	 0.003910	 1.877062	 -1.144762	 -0.238492	 -0.237148	 0.711379	 -0.492928	 0.441274	 1
1463570593.487	 8	 -0.002696	 -0.012615	 0.004974	 1.877015	 -1.144842	 -0.238419	 -0.237207	 0.711345	 -0.492932	 0.441293	 1
1463570593.497	 8	 -0.001625	 -0.011554	 0.004974	 1.877105	 -1.144836	 -0.238229	 -0.237251	 0.711344	 -0.492899	 0.441308	 1
1463570593.507	 8	 -0.000548	 -0.009429	 0.004983	 1.877199	 -1.144857	 -0.238057	 -0.237295	 0.711340	 -0.492879	 0.441313	 1
1463570593.517	 8	 0.001590	 -0.008372	 0.004973	 1.877247	 -1.144892	 -0.237951	 -0.237330	 0.711331	 -0.492872	 0.441315	 1
1463570593.537	 9	 0.000522	 -0.008368	 0.004980	 1.877361	 -1.144949	 -0.237723	 -0.237399	 0.711319	 -0.492853	 0.441320	 1
1463570593.547	 9	 0.000532	 -0.006240	 0.004998	 1.877328	 -1.144978	 -0.237702	 -0.237422	 0.711304	 -0.492854	 0.441331	 1
1463570593.557	 9	 0.000497	 -0.007377	 0.005095	 1.877223	 -1.145042	 -0.237742	 -0.237452	 0.711273	 -0.492871	 0.441346	 1
1463570593.567	 9	 0.000498	 -0.007377	 0.005094	 1.877141	 -1.145088	 -0.237758	 -0.237479	 0.711248	 -0.492879	 0.441362	 1
1463570593.577	 9	 0.002612	 -0.010582	 0.003978	 1.877060	 -1.145160	 -0.237758	 -0.237518	 0.711217	 -0.492892	 0.441376	 1
1463570593.587	 9	 0.001527	 -0.012722	 0.001835	 1.876910	 -1.145227	 -0.237798	 -0.237559	 0.711176	 -0.492904	 0.441406	 1
1463570593.597	 9	 -0.002715	 -0.005279	 -0.000191	 1.876840	 -1.145290	 -0.237780	 -0.237600	 0.711147	 -0.492912	 0.441423	 1
1463570593.607	 9	 -0.003740	 0.006402	 -0.003272	 1.877187	 -1.145377	 -0.237481	 -0.237644	 0.711171	 -0.492915	 0.441356	 1
1463570593.617	 9	 -0.001648	 0.002103	 -0.008660	 1.877621	 -1.145506	 -0.237117	 -0.237702	 0.711200	 -0.492927	 0.441266	 1
1463570593.627	 9	 0.007784	 -0.029875	 -0.014369	 1.877122	 -1.145669	 -0.237377	 -0.237777	 0.711090	 -0.492977	 0.441347	 1
1463570593.637	 9	 0.015077	 -0.061864	 -0.022191	 1.875453	 -1.146071	 -0.238429	 -0.237924	 0.710771	 -0.493138	 0.441601	 1
1463570593.647	 9	 0.031896	 -0.111947	 -0.028133	 1.873366	 -1.146572	 -0.239508	 -0.238192	 0.710345	 -0.493287	 0.441976	 1
1463570593.657	 9	 0.044530	 -0.149206	 -0.027526	 1.871143	 -1.147134	 -0.240358	 -0.238592	 0.709850	 -0.493388	 0.442443	 1
1463570593.667	 9	 0.045627	 -0.145987	 -0.023246	 1.869413	 -1.147654	 -0.240732	 -0.239029	 0.709414	 -0.493429	 0.442860	 1
1463570593.677	 9	 0.039425	 -0.110795	 -0.013275	 1.868411	 -1.148028	 -0.240694	 -0.239392	 0.709118	 -0.493419	 0.443150	 1
1463570593.687	 9	 0.028996	 -0.066025	 -0.004244	 1.868041	 -1.148228	 -0.240453	 -0.239623	 0.708970	 -0.493384	 0.443300	 1
1463570593.697	 9	 0.019591	 -0.029777	 0.003634	 1.867903	 -1.148334	 -0.240333	 -0.239729	 0.708905	 -0.493374	 0.443358	 1
1463570593.717	 10	 0.003746	 0.007478	 0.000918	 1.867850	 -1.148434	 -0.240383	 -0.239752	 0.708880	 -0.493411	 0.443344	 1
1463570593.727	 10	 0.001617	 0.010624	 0.003276	 1.867925	 -1.148464	 -0.240429	 -0.239725	 0.708897	 -0.493440	 0.443300	 1
1463570593.737	 10	 -0.002656	 0.010629	 0.002247	 1.868124	 -1.148515	 -0.240334	 -0.239724	 0.708920	 -0.493458	 0.443243	 1
1463570593.747	 10	 -0.010125	 0.010651	 0.002311	 1.868262	 -1.148588	 -0.240267	 -0.239733	 0.708929	 -0.493483	 0.443195	 1
1463570593.757	 10	 -0.011203	 0.006414	 0.004411	 1.868409	 -1.148664	 -0.240163	 -0.239755	 0.708935	 -0.493502	 0.443154	 1
1463570593.767	 10	 -0.009101	 -0.003142	 0.007498	 1.868614	 -1.148766	 -0.239929	 -0.239815	 0.708933	 -0.493506	 0.443118	 1
1463570593.787	 11	 -0.016626	 -0.013763	 0.006396	 1.869261	 -1.148758	 -0.239019	 -0.239976	 0.708969	 -0.493380	 0.443115	 1
1463570593.797	 11	 -0.012409	 -0.021253	 0.002025	 1.869176	 -1.148779	 -0.238874	 -0.240054	 0.708929	 -0.493344	 0.443177	 1
1463570593.807	 11	 -0.010342	 -0.031927	 -0.002357	 1.869228	 -1.148921	 -0.238527	 -0.240203	 0.708872	 -0.493318	 0.443216	 1
1463570593.817	 11	 -0.012556	 -0.046827	 -0.004611	 1.869269	 -1.149189	 -0.238040	 -0.240439	 0.708772	 -0.493300	 0.443268	 1
1463570593.827	 11	 -0.009466	 -0.064965	 -0.011205	 1.869090	 -1.149503	 -0.237600	 -0.240725	 0.708621	 -0.493281	 0.443376	 1
1463570593.837	 11	 -0.022389	 -0.085175	 -0.016611	 1.868937	 -1.149748	 -0.236924	 -0.241069	 0.708460	 -0.493190	 0.443548	 1
1463570593.847	 11	 -0.024549	 -0.091543	 -0.015588	 1.868592	 -1.150003	 -0.236307	 -0.241442	 0.708261	 -0.493092	 0.443771	 1
1463570593.857	 11	 -0.028874	 -0.106398	 -0.012493	 1.868061	 -1.150264	 -0.235720	 -0.241852	 0.708023	 -0.492980	 0.444052	 1
1463570593.877	 12	 -0.023648	 -0.136178	 -0.003095	 1.866477	 -1.150656	 -0.234693	 -0.242713	 0.707473	 -0.492683	 0.444787	 1
1463570593.887	 12	 -0.021508	 -0.141449	 0.004297	 1.865477	 -1.150680	 -0.234241	 -0.243126	 0.707191	 -0.492469	 0.445247	 1
1463570593.897	 12	 -0.021472	 -0.142435	 0.014944	 1.864709	 -1.150573	 -0.233573	 -0.243522	 0.706959	 -0.492193	 0.445705	 1
1463570593.907	 12	 -0.018162	 -0.126427	 0.023590	 1.864015	 -1.150271	 -0.232962	 -0.243826	 0.706786	 -0.491877	 0.446161	 1
1463570593.917	 12	 -0.014864	 -0.103058	 0.020581	 1.863677	 -1.149959	 -0.232227	 -0.244083	 0.706680	 -0.491573	 0.446523	 1
1463570593.927	 12	 -0.013666	 -0.077509	 0.024006	 1.863596	 -1.149630	 -0.231497	 -0.244271	 0.706634	 -0.491296	 0.446797	 1
1463570593.937	 12	 -0.009265	 -0.046698	 0.021057	 1.863531	 -1.149325	 -0.231056	 -0.244359	 0.706623	 -0.491093	 0.446990	 1
1463570593.947	 12	 -0.005947	 -0.021187	 0.020200	 1.863439	 -1.148999	 -0.230898	 -0.244348	 0.706645	 -0.490944	 0.447126	 1
1463570593.957	 12	 -0.002687	 -0.003161	 0.013947	 1.863482	 -1.148698	 -0.230799	 -0.244291	 0.706699	 -0.490832	 0.447195	 1
1463570593.967	 12	 0.002711	 0.012755	 0.010852	 1.863504	 -1.148414	 -0.230877	 -0.244180	 0.706766	 -0.490762	 0.447225	 1
1463570593.977	 12	 0.002749	 0.023368	 0.007755	 1.863571	 -1.148213	 -0.231028	 -0.244055	 0.706837	 -0.490740	 0.447204	 1
1463570593.987	 12	 -0.000440	 0.028673	 0.004635	 1.863738	 -1.148128	 -0.231134	 -0.243953	 0.706904	 -0.490758	 0.447136	 1
1463570593.997	 12	 -0.005739	 0.038246	 0.002639	 1.864173	 -1.148081	 -0.231042	 -0.243866	 0.706999	 -0.490775	 0.447015	 1
1463570594.007	 12	 -0.010976	 0.057424	 0.004994	 1.865106	 -1.148001	 -0.230630	 -0.243761	 0.707172	 -0.490772	 0.446801	 1
1463570594.017	 12	 -0.013040	 0.072322	 0.005150	 1.866259	 -1.147924	 -0.230153	 -0.243626	 0.707386	 -0.490782	 0.446526	 1
1463570594.027	 12	 -0.016198	 0.080849	 0.006322	 1.867574	 -1.147857	 -0.229622	 -0.243473	 0.707627	 -0.490802	 0.446205	 1
1463570594.037	 12	 -0.017284	 0.079733	 0.004291	 1.868768	 -1.147915	 -0.229208	 -0.243342	 0.707832	 -0.490873	 0.445872	 1
1463570594.047	 12	 -0.017347	 0.069073	 0.000992	 1.869835	 -1.148076	 -0.228832	 -0.243257	 0.707994	 -0.490970	 0.445555	 1
1463570594.057	 12	 -0.018464	 0.057383	 0.001957	 1.870607	 -1.148237	 -0.228605	 -0.243192	 0.708108	 -0.491065	 0.445305	 1
1463570594.067	 12	 -0.016401	 0.040373	 0.003910	 1.871212	 -1.148394	 -0.228390	 -0.243162	 0.708187	 -0.491140	 0.445113	 1
1463570594.077	 12	 -0.017530	 0.024444	 0.006967	 1.871719	 -1.148515	 -0.228113	 -0.243168	 0.708243	 -0.491179	 0.444977	 1
1463570594.087	 12	 -0.014400	 0.007431	 0.008911	 1.871999	 -1.148617	 -0.227916	 -0.243197	 0.708262	 -0.491201	 0.444906	 1
1463570594.097	 12	 -0.014442	 -0.004246	 0.011997	 1.872126	 -1.148693	 -0.227738	 -0.243250	 0.708254	 -0.491201	 0.444890	 1
1463570594.107	 12	 -0.015538	 -0.014841	 0.017236	 1.872166	 -1.148663	 -0.227546	 -0.243300	 0.708245	 -0.491154	 0.444929	 1
1463570594.117	 12	 -0.016634	 -0.019108	 0.015072	 1.872249	 -1.148622	 -0.227266	 -0.243368	 0.708237	 -0.491089	 0.444976	 1
1463570594.127	 12	 -0.018775	 -0.022277	 0.017192	 1.872442	 -1.148515	 -0.226834	 -0.243444	 0.708248	 -0.490982	 0.445035	 1
1463570594.137	 12	 -0.021951	 -0.015893	 0.016212	 1.872895	 -1.148377	 -0.226197	 -0.243521	 0.708298	 -0.490852	 0.445058	 1
1463570594.147	 12	 -0.024061	 -0.006352	 0.010989	 1.873275	 -1.148255	 -0.225709	 -0.243567	 0.708346	 -0.490750	 0.445068	 1
1463570594.157	 12	 -0.017699	 -0.010665	 0.005563	 1.873524	 -1.148304	 -0.225330	 -0.243654	 0.708346	 -0.490712	 0.445063	 1
1463570594.167	 12	 -0.008127	 -0.013915	 0.001184	 1.873589	 -1.148504	 -0.225128	 -0.243763	 0.708298	 -0.490739	 0.445050	 1
1463570594.177	 12	 0.001402	 -0.025683	 -0.004340	 1.873230	 -1.148788	 -0.225248	 -0.243886	 0.708179	 -0.490812	 0.445091	 1
1463570594.187	 12	 0.013013	 -0.050206	 -0.007869	 1.872383	 -1.149167	 -0.225653	 -0.244054	 0.707968	 -0.490919	 0.445217	 1
1463570594.197	 12	 0.021395	 -0.065278	 -0.029401	 1.871404	 -1.149765	 -0.226026	 -0.244325	 0.707682	 -0.491073	 0.445353	 1
1463570594.207	 12	 0.024450	 -0.081374	 -0.047699	 1.870336	 -1.150669	 -0.226333	 -0.244724	 0.707310	 -0.491297	 0.445476	 1
1463570594.217	 12	 0.025412	 -0.095295	 -0.056282	 1.869515	 -1.151765	 -0.226285	 -0.245241	 0.706914	 -0.491533	 0.445560	 1
1463570594.227	 12	 0.025336	 -0.113362	 -0.054324	 1.868384	 -1.153012	 -0.226357	 -0.245834	 0.706435	 -0.491806	 0.445694	 1
1463570594.237	 12	 0.025290	 -0.129263	 -0.047011	 1.866921	 -1.153560	 -0.226596	 -0.246258	 0.706034	 -0.491852	 0.446043	 1
1463570594.247	 12	 0.026295	 -0.161014	 -0.024934	 1.865033	 -1.153936	 -0.226993	 -0.246685	 0.705590	 -0.491827	 0.446537	 1
1463570594.257	 12	 0.027250	 -0.207618	 0.002333	 1.862516	 -1.154064	 -0.227614	 -0.247120	 0.705080	 -0.491696	 0.447246	 1
1463570594.267	 12	 0.015447	 -0.246723	 0.031909	 1.858964	 -1.154462	 -0.228789	 -0.247688	 0.704355	 -0.491645	 0.448129	 1
1463570594.277	 12	 -0.012252	 -0.264483	 0.065023	 1.856125	 -1.153922	 -0.229059	 -0.248143	 0.703854	 -0.491183	 0.449170	 1
1463570594.287	 12	 -0.036727	 -0.342318	 0.175351	 1.852831	 -1.152497	 -0.229235	 -0.248497	 0.703402	 -0.490366	 0.450572	 1
1463570594.297	 12	 -0.047224	 -0.397857	 0.285765	 1.848233	 -1.149813	 -0.229947	 -0.248633	 0.702955	 -0.489112	 0.452554	 1
1463570594.307	 12	 -0.021298	 -0.359402	 0.318936	 1.843129	 -1.146749	 -0.231418	 -0.248515	 0.702550	 -0.487850	 0.454606	 1
1463570594.317	 12	 -0.020879	 -0.311190	 0.367340	 1.838298	 -1.143290	 -0.233234	 -0.248094	 0.702313	 -0.486581	 0.456557	 1
1463570594.327	 12	 -0.010128	 -0.357475	 0.442485	 1.832795	 -1.139175	 -0.235542	 -0.247472	 0.702094	 -0.485140	 0.458760	 1
1463570594.337	 12	 0.026079	 -0.423098	 0.501242	 1.825677	 -1.134500	 -0.238900	 -0.246706	 0.701719	 -0.483574	 0.461392	 1
1463570594.347	 12	 0.055896	 -0.489735	 0.564308	 1.817005	 -1.129333	 -0.243240	 -0.245818	 0.701172	 -0.481903	 0.464436	 1
1463570594.357	 12	 0.037117	 -0.478354	 0.659430	 1.808057	 -1.123286	 -0.247757	 -0.244666	 0.700708	 -0.479983	 0.467720	 1
1463570594.367	 12	 0.015454	 -0.410471	 0.770081	 1.799871	 -1.116112	 -0.252125	 -0.243040	 0.700568	 -0.477791	 0.471012	 1
1463570594.377	 12	 -0.006337	 -0.379756	 0.889922	 1.792112	 -1.107713	 -0.256441	 -0.240952	 0.700693	 -0.475281	 0.474425	 1
1463570594.387	 12	 -0.011873	 -0.269554	 0.977323	 1.785239	 -1.098337	 -0.260768	 -0.238338	 0.701153	 -0.472598	 0.477735	 1
1463570594.397	 12	 -0.019960	 -0.230750	 1.044897	 1.779096	 -1.088247	 -0.265092	 -0.235316	 0.701860	 -0.469800	 0.480944	 1
1463570594.407	 12	 -0.020008	 -0.300434	 1.115655	 1.772464	 -1.077468	 -0.269450	 -0.232163	 0.702516	 -0.466759	 0.484467	 1
1463570594.417	 12	 -0.009676	 -0.432892	 1.187870	 1.764585	 -1.065957	 -0.273954	 -0.228997	 0.702945	 -0.463406	 0.488552	 1
1463570594.427	 12	 0.029927	 -0.685703	 1.249119	 1.753951	 -1.053876	 -0.279077	 -0.226036	 0.702790	 -0.459745	 0.493588	 1
1463570594.437	 12	 0.039318	 -0.982258	 1.279316	 1.740280	 -1.041402	 -0.284368	 -0.223537	 0.701870	 -0.455704	 0.499742	 1
1463570594.447	 12	 0.005049	 -1.224737	 1.268832	 1.724826	 -1.028853	 -0.288711	 -0.221686	 0.700302	 -0.451252	 0.506758	 1
1463570594.457	 12	 -0.086158	 -1.290753	 1.222118	 1.710047	 -1.016554	 -0.291037	 -0.220393	 0.698536	 -0.446479	 0.513937	 1
1463570594.467	 12	 -0.243605	 -1.140712	 1.168400	 1.698568	 -1.004590	 -0.290350	 -0.219455	 0.697149	 -0.441417	 0.520551	 1
1463570594.477	 12	 -0.587971	 -0.352966	 1.122243	 1.698757	 -0.992891	 -0.283533	 -0.218134	 0.698049	 -0.436105	 0.524364	 1
1463570594.487	 12	 -0.570051	 0.356622	 1.298146	 1.706998	 -0.979701	 -0.275891	 -0.214903	 0.701178	 -0.430951	 0.525783	 1
1463570594.497	 12	 -0.376793	 0.726023	 1.421398	 1.717124	 -0.965199	 -0.271736	 -0.209682	 0.705361	 -0.426440	 0.525974	 1
1463570594.507	 12	 -0.205198	 0.216144	 1.434343	 1.721525	 -0.950776	 -0.271384	 -0.204393	 0.708413	 -0.422292	 0.527299	 1
1463570594.517	 12	 -0.152285	 -0.753214	 1.399283	 1.715713	 -0.936357	 -0.272292	 -0.200800	 0.708856	 -0.417415	 0.531946	 1
1463570594.527	 12	 -0.298744	 -1.460131	 1.099830	 1.703788	 -0.924388	 -0.270732	 -0.200073	 0.707039	 -0.412042	 0.538783	 1
1463570594.537	 12	 -0.216437	 -1.814093	 1.016953	 1.688134	 -0.913945	 -0.268701	 -0.200693	 0.703893	 -0.406651	 0.546710	 1
1463570594.547	 12	 -0.056093	 -2.293527	 1.116606	 1.666099	 -0.903035	 -0.269042	 -0.201537	 0.699175	 -0.401131	 0.556445	 1
1463570594.557	 12	 0.188134	 -2.390482	 1.192444	 1.639326	 -0.891478	 -0.272415	 -0.201952	 0.693344	 -0.395813	 0.567294	 1
1463570594.567	 12	 0.683176	 -1.854878	 1.329535	 1.611673	 -0.878835	 -0.282058	 -0.199907	 0.687804	 -0.391943	 0.577359	 1
1463570594.577	 12	 1.225223	 -1.245507	 1.391235	 1.584423	 -0.865275	 -0.299700	 -0.194652	 0.683029	 -0.390317	 0.585863	 1
1463570594.587	 12	 1.625077	 -1.017576	 1.303547	 1.556061	 -0.851884	 -0.323186	 -0.187637	 0.678189	 -0.390585	 0.593545	 1
1463570594.597	 12	 1.745512	 -1.069709	 1.056888	 1.526463	 -0.840150	 -0.348920	 -0.180672	 0.672733	 -0.392159	 0.600832	 1
1463570594.607	 12	 1.575351	 -1.283975	 0.922090	 1.496986	 -0.829779	 -0.372190	 -0.175018	 0.666693	 -0.393648	 0.608220	 1
1463570594.617	 12	 1.532914	 -1.779550	 0.767575	 1.465057	 -0.820238	 -0.393601	 -0.170800	 0.659420	 -0.394817	 0.616532	 1
1463570594.627	 12	 1.491707	 -2.149267	 0.508781	 1.428797	 -0.812738	 -0.414527	 -0.168394	 0.650380	 -0.396233	 0.625818	 1
1463570594.647	 13	 1.057854	 -1.934109	 0.376012	 1.364235	 -0.801214	 -0.447272	 -0.166431	 0.633202	 -0.398256	 0.642455	 1
1463570594.657	 13	 0.860905	 -1.724048	 0.516099	 1.338347	 -0.794569	 -0.458553	 -0.165525	 0.626025	 -0.398112	 0.649770	 1
1463570594.667	 13	 0.599378	 -1.432713	 0.690543	 1.318311	 -0.786709	 -0.465553	 -0.164332	 0.620314	 -0.396842	 0.656294	 1
1463570594.677	 13	 0.351785	 -1.184544	 0.931607	 1.304119	 -0.777295	 -0.467977	 -0.162780	 0.616100	 -0.394228	 0.662199	 1
1463570594.687	 13	 0.153214	 -0.972493	 1.198552	 1.295032	 -0.765857	 -0.466474	 -0.160619	 0.613248	 -0.390272	 0.667695	 1
1463570594.697	 13	 -0.007170	 -0.816863	 1.474232	 1.289871	 -0.752256	 -0.461546	 -0.157871	 0.611442	 -0.384970	 0.673063	 1
1463570594.707	 13	 -0.129633	 -0.769802	 1.753900	 1.287447	 -0.736393	 -0.453863	 -0.154534	 0.610370	 -0.378385	 0.678522	 1
1463570594.717	 13	 -0.283046	 -0.795416	 2.119488	 1.286666	 -0.717641	 -0.443195	 -0.150655	 0.609681	 -0.370157	 0.684526	 1
1463570594.727	 13	 -0.497548	 -0.932047	 2.551718	 1.287197	 -0.695453	 -0.428636	 -0.146366	 0.609231	 -0.359755	 0.691369	 1
1463570594.737	 13	 -0.732610	 -1.101822	 2.951846	 1.288375	 -0.669888	 -0.410031	 -0.141866	 0.608807	 -0.347012	 0.699150	 1
1463570594.747	 13	 -0.987765	 -1.349066	 3.221405	 1.289144	 -0.642094	 -0.387741	 -0.137674	 0.608072	 -0.332188	 0.707775	 1
1463570594.757	 13	 -1.202036	 -1.622019	 3.335833	 1.288299	 -0.613450	 -0.362679	 -0.134227	 0.606646	 -0.315824	 0.717091	 1
1463570594.767	 13	 -1.394402	 -1.931806	 3.366598	 1.285156	 -0.584988	 -0.335610	 -0.131753	 0.604303	 -0.298393	 0.726926	 1
1463570594.777	 13	 -1.522364	 -2.384342	 3.392277	 1.277865	 -0.556793	 -0.307108	 -0.130308	 0.600373	 -0.280006	 0.737678	 1
1463570594.787	 13	 -1.596011	 -2.840403	 3.394003	 1.265748	 -0.528988	 -0.277800	 -0.129719	 0.594583	 -0.260889	 0.749387	 1
1463570594.797	 13	 -1.622933	 -3.289637	 3.329309	 1.248523	 -0.502097	 -0.248222	 -0.129928	 0.586773	 -0.241380	 0.761939	 1
1463570594.807	 13	 -1.601700	 -3.594304	 3.125925	 1.226881	 -0.477240	 -0.219201	 -0.130922	 0.577156	 -0.222157	 0.774853	 1
1463570594.817	 13	 -1.536747	 -3.756805	 2.744436	 1.202008	 -0.455943	 -0.191749	 -0.132812	 0.566154	 -0.204121	 0.787505	 1
1463570594.827	 13	 -1.409706	 -3.820016	 2.292990	 1.174624	 -0.439113	 -0.167005	 -0.135562	 0.554060	 -0.188029	 0.799553	 1
1463570594.837	 13	 -1.293797	 -3.825322	 2.194947	 1.145989	 -0.424251	 -0.144001	 -0.138326	 0.541352	 -0.172941	 0.811107	 1
1463570594.847	 13	 -1.135052	 -3.780040	 2.343193	 1.117098	 -0.408472	 -0.121648	 -0.140133	 0.528437	 -0.157764	 0.822330	 1
1463570594.857	 13	 -0.898393	 -3.770816	 2.537318	 1.087801	 -0.390595	 -0.100133	 -0.140442	 0.515314	 -0.142305	 0.833353	 1
1463570594.867	 13	 -0.629091	 -3.807830	 2.675310	 1.057345	 -0.370687	 -0.079916	 -0.139194	 0.501710	 -0.126780	 0.844298	 1
1463570594.877	 13	 -0.377016	 -3.833471	 2.761335	 1.025685	 -0.349222	 -0.061087	 -0.136549	 0.487593	 -0.111405	 0.855100	 1
1463570594.887	 13	 -0.176004	 -3.777474	 2.791013	 0.993584	 -0.326809	 -0.043367	 -0.132784	 0.473249	 -0.096322	 0.865521	 1
1463570594.897	 13	 0.001687	 -3.638873	 2.761980	 0.961977	 -0.304072	 -0.026684	 -0.128154	 0.459070	 -0.081755	 0.875299	 1
1463570594.907	 13	 0.234784	 -3.085462	 2.755508	 0.933830	 -0.280757	 -0.011350	 -0.122410	 0.446408	 -0.067999	 0.883805	 1
1463570594.917	 13	 0.688079	 -2.384585	 2.932868	 0.911883	 -0.254464	 0.002059	 -0.114376	 0.436631	 -0.054953	 0.890647	 1
1463570594.927	 13	 1.331727	 -1.901652	 3.200330	 0.894381	 -0.222629	 0.012619	 -0.102871	 0.429117	 -0.042382	 0.896370	 1
1463570594.937	 13	 1.929760	 -1.703513	 3.337647	 0.878315	 -0.185701	 0.019893	 -0.088126	 0.422490	 -0.030455	 0.901559	 1
1463570594.947	 13	 2.467896	 -1.430579	 3.351488	 0.863985	 -0.144916	 0.023685	 -0.070685	 0.416774	 -0.019582	 0.906046	 1
1463570594.957	 13	 2.814950	 -1.207634	 3.141651	 0.851395	 -0.102722	 0.023906	 -0.051683	 0.411823	 -0.010327	 0.909738	 1
1463570594.967	 13	 2.859501	 -1.005791	 2.833005	 0.840714	 -0.061935	 0.021708	 -0.032692	 0.407560	 -0.002730	 0.912589	 1
1463570594.977	 13	 2.645365	 -1.004330	 2.654769	 0.830697	 -0.023849	 0.019618	 -0.014868	 0.403354	 0.004163	 0.914914	 1
1463570594.987	 13	 2.366126	 -1.126065	 2.621963	 0.819804	 0.011948	 0.019551	 0.001583	 0.398547	 0.011346	 0.917076	 1
1463570594.997	 13	 2.153595	 -1.340687	 2.567463	 0.806936	 0.045857	 0.021310	 0.016902	 0.392709	 0.018798	 0.919315	 1
1463570595.007	 13	 1.997120	 -1.617549	 2.459672	 0.791309	 0.077860	 0.024066	 0.031277	 0.385525	 0.026094	 0.921798	 1
1463570595.017	 13	 1.859850	 -1.920837	 2.382376	 0.772534	 0.108229	 0.027776	 0.044874	 0.376841	 0.033220	 0.924594	 1
1463570595.027	 13	 1.723600	 -2.201012	 2.265853	 0.750618	 0.136800	 0.032301	 0.057675	 0.366682	 0.040041	 0.927693	 1
1463570595.047	 14	 1.659155	 -2.335327	 2.052012	 0.702518	 0.189670	 0.042267	 0.081653	 0.344336	 0.052327	 0.933824	 1
1463570595.057	 14	 1.761316	 -2.310839	 1.950103	 0.678475	 0.215611	 0.046556	 0.093737	 0.333108	 0.057617	 0.936447	 1
1463570595.067	 14	 1.884845	 -2.291642	 1.860748	 0.654782	 0.241799	 0.049968	 0.106189	 0.321980	 0.062253	 0.938711	 1
1463570595.077	 14	 1.970816	 -2.334926	 1.793519	 0.630840	 0.268279	 0.052828	 0.118976	 0.310680	 0.066356	 0.940702	 1
1463570595.087	 14	 1.962105	 -2.317289	 1.728748	 0.606743	 0.294439	 0.055712	 0.131705	 0.299292	 0.070098	 0.942425	 1
1463570595.097	 14	 1.904888	 -2.187728	 1.678229	 0.583496	 0.319803	 0.059112	 0.144035	 0.288340	 0.073718	 0.943758	 1
1463570595.107	 14	 1.885918	 -2.098662	 1.632329	 0.561096	 0.344571	 0.062922	 0.156070	 0.277830	 0.077222	 0.944717	 1
1463570595.117	 14	 1.916828	 -2.068241	 1.586516	 0.539001	 0.369183	 0.066828	 0.168077	 0.267491	 0.080496	 0.945367	 1
1463570595.127	 14	 1.976353	 -2.056189	 1.512572	 0.517049	 0.393837	 0.070465	 0.180198	 0.257221	 0.083384	 0.945734	 1
1463570595.137	 14	 2.042186	 -2.020078	 1.385508	 0.495662	 0.418308	 0.073283	 0.192363	 0.247169	 0.085638	 0.945817	 1
1463570595.147	 14	 2.069573	 -1.964922	 1.229111	 0.475316	 0.441943	 0.074969	 0.204259	 0.237524	 0.087101	 0.945661	 1
1463570595.157	 14	 2.027493	 -1.917127	 1.056201	 0.455792	 0.464883	 0.075664	 0.215922	 0.228183	 0.087861	 0.945299	 1
1463570595.167	 14	 1.893625	 -1.872249	 0.884065	 0.436963	 0.486314	 0.075667	 0.226919	 0.219111	 0.087987	 0.944858	 1
1463570595.177	 14	 1.659788	 -1.813797	 0.783266	 0.418595	 0.505318	 0.075809	 0.236725	 0.210298	 0.087793	 0.944473	 1
1463570595.187	 14	 1.388211	 -1.722369	 0.814191	 0.400276	 0.521853	 0.077579	 0.245187	 0.201735	 0.087967	 0.944165	 1
1463570595.197	 14	 1.162244	 -1.710669	 0.869555	 0.381291	 0.536343	 0.081414	 0.252517	 0.193156	 0.088698	 0.943959	 1
1463570595.207	 14	 1.015418	 -1.827366	 0.851629	 0.360912	 0.549103	 0.086310	 0.259012	 0.184102	 0.089465	 0.943936	 1
1463570595.217	 14	 0.949035	 -2.010878	 0.746054	 0.338802	 0.560789	 0.091018	 0.265121	 0.174249	 0.089698	 0.944088	 1
1463570595.227	 14	 0.948636	 -2.183314	 0.581392	 0.315545	 0.571744	 0.094430	 0.271067	 0.163718	 0.088977	 0.944353	 1
1463570595.237	 14	 0.984779	 -2.292115	 0.406345	 0.291956	 0.582384	 0.096061	 0.277023	 0.152813	 0.087214	 0.944616	 1
1463570595.247	 14	 1.028914	 -2.314580	 0.259742	 0.268797	 0.592978	 0.096070	 0.283042	 0.141902	 0.084611	 0.944771	 1
1463570595.257	 14	 1.043877	 -2.221787	 0.154965	 0.246892	 0.603512	 0.094932	 0.289025	 0.131431	 0.081513	 0.944747	 1
1463570595.267	 14	 1.027703	 -2.010260	 0.130430	 0.227034	 0.613862	 0.093582	 0.294811	 0.121902	 0.078487	 0.944493	 1
1463570595.277	 14	 0.994668	 -1.754007	 0.106458	 0.209561	 0.623916	 0.092261	 0.300324	 0.113511	 0.075714	 0.944027	 1
1463570595.287	 14	 0.917090	 -1.429630	 0.071785	 0.195252	 0.633283	 0.090914	 0.305365	 0.106612	 0.073296	 0.943405	 1
1463570595.297	 14	 0.793280	 -1.180613	 0.040010	 0.183734	 0.641493	 0.089540	 0.309735	 0.101023	 0.071187	 0.942757	 1
1463570595.307	 14	 0.653697	 -1.114433	 0.016262	 0.173281	 0.648308	 0.088304	 0.313383	 0.095951	 0.069216	 0.942228	 1
1463570595.317	 14	 0.519768	 -1.167734	 -0.054474	 0.162728	 0.653709	 0.086726	 0.316366	 0.090771	 0.066988	 0.941905	 1
1463570595.327	 14	 0.388882	 -1.220275	 -0.165728	 0.152190	 0.657657	 0.084176	 0.318688	 0.085433	 0.064234	 0.941814	 1
1463570595.337	 14	 0.261691	 -1.212881	 -0.224234	 0.141984	 0.660243	 0.080997	 0.320360	 0.080139	 0.061179	 0.941915	 1
1463570595.347	 14	 0.168914	 -1.139728	 -0.294152	 0.132668	 0.661740	 0.077213	 0.321490	 0.075155	 0.057941	 0.942146	 1
1463570595.357	 14	 0.114858	 -0.980725	 -0.390252	 0.125359	 0.662532	 0.072421	 0.322244	 0.070945	 0.054526	 0.942418	 1
1463570595.367	 14	 0.094221	 -0.733684	 -0.506073	 0.121114	 0.662914	 0.066287	 0.322750	 0.067958	 0.050960	 0.942665	 1
1463570595.377	 14	 0.071675	 -0.392380	 -0.677486	 0.121276	 0.662931	 0.058229	 0.323025	 0.066734	 0.047188	 0.942854	 1
1463570595.387	 14	 0.062838	 -0.176898	 -0.740415	 0.124870	 0.662647	 0.048937	 0.323120	 0.066926	 0.043381	 0.942991	 1
1463570595.397	 14	 0.115689	 -0.091676	 -0.700649	 0.129421	 0.662737	 0.039711	 0.323378	 0.067581	 0.039769	 0.943015	 1
1463570595.407	 14	 0.146635	 -0.038163	 -0.495794	 0.133403	 0.663420	 0.032467	 0.323871	 0.068285	 0.037017	 0.942908	 1
1463570595.417	 14	 0.108172	 -0.060447	 -0.211108	 0.135202	 0.664248	 0.028747	 0.324356	 0.068527	 0.035579	 0.942779	 1
1463570595.427	 14	 0.035601	 -0.192053	 -0.055034	 0.134375	 0.664680	 0.027608	 0.324613	 0.067951	 0.034921	 0.942756	 1
1463570595.437	 14	 -0.029416	 -0.408772	 -0.045827	 0.131186	 0.664474	 0.027109	 0.324587	 0.066367	 0.034162	 0.942906	 1
1463570595.447	 14	 -0.072479	 -0.670672	 -0.097980	 0.125713	 0.663743	 0.026172	 0.324365	 0.063638	 0.032811	 0.943219	 1
1463570595.457	 14	 -0.109004	 -0.882785	 -0.175305	 0.118471	 0.662566	 0.024378	 0.323980	 0.059935	 0.030760	 0.943662	 1
1463570595.467	 14	 -0.143143	 -1.038560	 -0.256389	 0.110158	 0.660946	 0.021591	 0.323417	 0.055567	 0.028058	 0.944207	 1
1463570595.477	 14	 -0.183266	 -1.112360	 -0.329199	 0.101385	 0.658895	 0.017935	 0.322662	 0.050841	 0.024867	 0.944821	 1
1463570595.487	 14	 -0.197378	 -1.113807	 -0.387706	 0.093042	 0.656536	 0.013393	 0.321753	 0.046177	 0.021325	 0.945456	 1
1463570595.497	 14	 -0.113014	 -0.944347	 -0.305866	 0.085458	 0.654847	 0.009342	 0.321119	 0.041947	 0.018156	 0.945935	 1
1463570595.507	 14	 0.044274	 -0.543690	 -0.140446	 0.080335	 0.654709	 0.007027	 0.321144	 0.039153	 0.016236	 0.946081	 1
1463570595.517	 14	 0.200475	 -0.113541	 -0.015240	 0.078583	 0.656328	 0.006354	 0.321937	 0.038208	 0.015666	 0.945860	 1
1463570595.527	 14	 0.270342	 0.185415	 0.024235	 0.079825	 0.658902	 0.006337	 0.323145	 0.038780	 0.015905	 0.945421	 1
1463570595.537	 14	 0.283198	 0.419395	 0.027366	 0.083312	 0.661813	 0.006395	 0.324491	 0.040422	 0.016552	 0.944880	 1
1463570595.547	 14	 0.204854	 0.585262	 -0.011973	 0.089050	 0.664054	 0.006148	 0.325506	 0.043080	 0.017412	 0.944398	 1
1463570595.557	 14	 0.112886	 0.580965	 -0.054909	 0.095361	 0.665361	 0.005429	 0.326083	 0.045934	 0.018128	 0.944050	 1
1463570595.567	 14	 0.051455	 0.496747	 -0.106314	 0.101377	 0.665889	 0.004177	 0.326307	 0.048566	 0.018531	 0.943834	 1
1463570595.577	 14	 0.041940	 0.329445	 -0.153616	 0.106277	 0.666161	 0.002319	 0.326436	 0.050573	 0.018460	 0.943685	 1
1463570595.587	 14	 0.037651	 0.128230	 -0.184262	 0.114242	 0.662725	 -0.002917	 0.324880	 0.053511	 0.017196	 0.944084	 1
1463570595.597	 14	 0.027124	 -0.055841	 -0.197606	 0.115648	 0.662794	 -0.005418	 0.324967	 0.053767	 0.016246	 0.944056	 1
