% Gyrometer data recorded with 'snsrlog'
% 
% 
% Label description:
% 	 0: Default Label
% 	 1: still_drop
% 	 2: walk_drop
% 	 3: other
% 	 4: dtw_same
% 	 5: dtw_diff
% 	 6: delete
% 	 7: steal
% 
% Column description:
% 	 1: Seconds.milliseconds since 1970
% 	 2: Number of skipped measurements
% 	 3: Gyro X
% 	 4: Gyro Y
% 	 5: Gyro Z
% 	 6: Roll of the device
% 	 7: Pitch of the device
% 	 8: Yaw of the device
% 	 9: Quaternion X
% 	 10: Quaternion Y
% 	 11: Quaternion Z
% 	 12: Quaternion W
% 	 13: Label used for the current sample
% 
% 
1463623935.448	 0	 -1.109601	 0.043632	 -0.802787	 0.207201	 0.568213	 -0.094962	 0.283194	 0.085925	 -0.016361	 0.955066	 1
1463623935.458	 0	 -1.125290	 0.283456	 -0.738604	 0.212645	 0.555639	 -0.100919	 0.277511	 0.088168	 -0.019162	 0.956476	 1
1463623935.468	 0	 -1.104829	 0.498676	 -0.679228	 0.219789	 0.543299	 -0.106061	 0.271927	 0.091366	 -0.021368	 0.957732	 1
1463623935.478	 0	 -1.087671	 0.709504	 -0.640114	 0.228689	 0.531226	 -0.110599	 0.266473	 0.095512	 -0.023080	 0.958821	 1
1463623935.488	 0	 -1.080127	 0.919290	 -0.601992	 0.239343	 0.519291	 -0.114577	 0.261090	 0.100600	 -0.024342	 0.959749	 1
1463623935.498	 0	 -1.081100	 1.120700	 -0.548953	 0.251652	 0.507438	 -0.117822	 0.255742	 0.106604	 -0.025096	 0.960522	 1
1463623935.508	 0	 -1.090635	 1.329473	 -0.510691	 0.265664	 0.495588	 -0.120371	 0.250388	 0.113541	 -0.025373	 0.961130	 1
1463623935.518	 0	 -1.092902	 1.512549	 -0.492981	 0.281307	 0.483743	 -0.122438	 0.245038	 0.121345	 -0.025298	 0.961557	 1
1463623935.528	 0	 -1.136842	 1.708305	 -0.503566	 0.298697	 0.471560	 -0.124212	 0.239535	 0.130061	 -0.024985	 0.961812	 1
1463623935.538	 0	 -1.244957	 1.906095	 -0.553007	 0.318017	 0.458365	 -0.125828	 0.233567	 0.139791	 -0.024556	 0.961926	 1
1463623935.558	 1	 -1.606779	 2.062070	 -0.750900	 0.360009	 0.426338	 -0.129042	 0.218989	 0.161197	 -0.024202	 0.962015	 1
1463623935.568	 1	 -1.813217	 2.043886	 -0.848388	 0.381086	 0.406939	 -0.130484	 0.210082	 0.172155	 -0.024507	 0.962095	 1
1463623935.578	 1	 -2.021620	 2.030233	 -0.908514	 0.401739	 0.385309	 -0.131305	 0.200058	 0.183100	 -0.024978	 0.962199	 1
1463623935.588	 1	 -2.184241	 1.975131	 -0.945979	 0.421660	 0.361874	 -0.131297	 0.189092	 0.193868	 -0.025524	 0.962293	 1
1463623935.598	 1	 -2.286017	 1.919876	 -0.979711	 0.440725	 0.337249	 -0.130620	 0.177482	 0.204336	 -0.026176	 0.962321	 1
1463623935.608	 1	 -2.327660	 1.927338	 -0.994200	 0.459544	 0.312032	 -0.129388	 0.165529	 0.214737	 -0.026869	 0.962167	 1
1463623935.618	 1	 -2.323079	 2.019633	 -1.025354	 0.478984	 0.286715	 -0.127843	 0.153503	 0.225431	 -0.027598	 0.961694	 1
1463623935.628	 1	 -2.196910	 2.105119	 -1.066156	 0.499491	 0.262004	 -0.126610	 0.141823	 0.236541	 -0.028554	 0.960791	 1
1463623935.638	 1	 -1.969081	 2.254083	 -1.112581	 0.521485	 0.238927	 -0.126303	 0.131075	 0.248183	 -0.029879	 0.959339	 1
1463623935.648	 1	 -1.742392	 2.610484	 -1.154935	 0.546713	 0.217635	 -0.127030	 0.121394	 0.261190	 -0.031494	 0.957106	 1
1463623935.658	 1	 -1.538533	 3.106265	 -1.200055	 0.576834	 0.197873	 -0.128671	 0.112697	 0.276370	 -0.033297	 0.953840	 1
1463623935.668	 1	 -1.395584	 3.622113	 -1.289221	 0.612250	 0.179009	 -0.131185	 0.104720	 0.293928	 -0.035368	 0.949415	 1
1463623935.678	 1	 -1.360219	 4.027034	 -1.464809	 0.652188	 0.159631	 -0.134605	 0.096833	 0.313523	 -0.038021	 0.943865	 1
1463623935.688	 1	 -1.363050	 4.252323	 -1.639605	 0.694840	 0.139014	 -0.138652	 0.088673	 0.334311	 -0.041385	 0.937369	 1
1463623935.698	 1	 -1.336225	 4.383264	 -1.759051	 0.738890	 0.117487	 -0.142897	 0.080343	 0.355647	 -0.045310	 0.930058	 1
1463623935.708	 1	 -1.272863	 4.532488	 -1.836015	 0.784261	 0.095605	 -0.147191	 0.072105	 0.377441	 -0.049659	 0.921886	 1
1463623935.718	 1	 -1.218980	 4.687238	 -1.888332	 0.831092	 0.073514	 -0.151196	 0.063993	 0.399725	 -0.054259	 0.912787	 1
1463623935.728	 1	 -1.036166	 4.831765	 -1.978103	 0.879335	 0.051629	 -0.155815	 0.056402	 0.422388	 -0.059450	 0.902703	 1
1463623935.738	 1	 -0.831937	 5.003775	 -2.082725	 0.929144	 0.030028	 -0.161617	 0.049541	 0.445445	 -0.065452	 0.891538	 1
1463623935.748	 1	 -0.671677	 5.137563	 -2.195847	 0.980360	 0.008243	 -0.168347	 0.043204	 0.468808	 -0.072240	 0.879280	 1
1463623935.758	 1	 -0.553324	 5.209790	 -2.308110	 1.032264	 -0.014131	 -0.175642	 0.037163	 0.492144	 -0.079754	 0.866055	 1
1463623935.768	 1	 -0.487496	 5.241678	 -2.430949	 1.084420	 -0.037488	 -0.183031	 0.031163	 0.515248	 -0.087898	 0.851952	 1
1463623935.778	 1	 -0.472706	 5.089685	 -2.557186	 1.135534	 -0.062201	 -0.190088	 0.024910	 0.537553	 -0.096619	 0.837306	 1
1463623935.788	 1	 -0.589810	 5.028501	 -2.681430	 1.185240	 -0.088729	 -0.195522	 0.017851	 0.558913	 -0.105535	 0.822289	 1
1463623935.798	 1	 -0.521045	 5.259025	 -2.838683	 1.236734	 -0.116858	 -0.200138	 0.010471	 0.580575	 -0.114947	 0.805984	 1
1463623935.808	 1	 -0.147935	 5.569168	 -3.040474	 1.290676	 -0.146142	 -0.206809	 0.003905	 0.602680	 -0.125919	 0.787976	 1
1463623935.818	 1	 0.343115	 5.984363	 -3.228460	 1.347801	 -0.176416	 -0.216988	 -0.001122	 0.625411	 -0.138932	 0.767826	 1
1463623935.828	 1	 0.894076	 6.345873	 -3.315155	 1.407704	 -0.207388	 -0.230989	 -0.004208	 0.648488	 -0.153920	 0.745489	 1
1463623935.838	 1	 1.443281	 6.483640	 -3.309062	 1.468464	 -0.238484	 -0.248763	 -0.005094	 0.671076	 -0.170532	 0.721492	 1
1463623935.848	 1	 1.906044	 6.414093	 -3.325462	 1.527570	 -0.270306	 -0.269803	 -0.004255	 0.692214	 -0.188597	 0.696601	 1
1463623935.858	 1	 2.192580	 6.078184	 -3.330017	 1.582975	 -0.303250	 -0.292562	 -0.002515	 0.711200	 -0.207568	 0.671643	 1
1463623935.868	 1	 2.277855	 5.377032	 -3.327692	 1.631516	 -0.337416	 -0.315142	 -0.000991	 0.727069	 -0.226777	 0.648029	 1
1463623935.878	 1	 2.202726	 4.548157	 -3.255885	 1.671879	 -0.371832	 -0.336009	 -0.000268	 0.739599	 -0.245395	 0.626717	 1
1463623935.888	 1	 1.998755	 3.630718	 -3.275435	 1.703696	 -0.406722	 -0.353936	 -0.001190	 0.748898	 -0.263156	 0.608194	 1
1463623935.898	 1	 1.717095	 2.672770	 -3.192372	 1.726920	 -0.441154	 -0.368249	 -0.003980	 0.755173	 -0.279581	 0.592902	 1
1463623935.908	 1	 1.453927	 1.896735	 -3.069485	 1.742800	 -0.474205	 -0.379249	 -0.008296	 0.758991	 -0.294468	 0.580649	 1
1463623935.918	 1	 1.275690	 1.363989	 -2.978037	 1.753579	 -0.506049	 -0.387897	 -0.013681	 0.761121	 -0.308173	 0.570558	 1
1463623935.928	 1	 1.196535	 1.000257	 -2.860302	 1.760619	 -0.536704	 -0.395438	 -0.019565	 0.762033	 -0.321059	 0.562000	 1
1463623935.938	 1	 1.196310	 0.825857	 -2.709519	 1.765233	 -0.565967	 -0.403013	 -0.025310	 0.762170	 -0.333371	 0.554365	 1
1463623935.948	 1	 1.259629	 0.766213	 -2.548629	 1.768329	 -0.593733	 -0.411530	 -0.030427	 0.761844	 -0.345320	 0.547195	 1
1463623935.958	 1	 1.378831	 0.728202	 -2.315553	 1.769803	 -0.619741	 -0.421906	 -0.034533	 0.761099	 -0.357049	 0.540417	 1
1463623935.968	 1	 1.512517	 0.751365	 -2.001036	 1.769581	 -0.643043	 -0.434785	 -0.037125	 0.760026	 -0.368392	 0.534106	 1
1463623935.978	 1	 1.620699	 0.837013	 -1.733674	 1.768466	 -0.663833	 -0.450030	 -0.038198	 0.758868	 -0.379386	 0.527945	 1
1463623935.988	 1	 1.666720	 0.849601	 -1.446202	 1.766379	 -0.681971	 -0.467045	 -0.037962	 0.757624	 -0.389826	 0.522111	 1
1463623935.998	 1	 1.636609	 0.790048	 -1.164067	 1.763084	 -0.697251	 -0.484952	 -0.036745	 0.756242	 -0.399426	 0.516921	 1
1463623936.008	 1	 1.527186	 0.686873	 -0.915752	 1.758812	 -0.709781	 -0.502613	 -0.034974	 0.754760	 -0.407956	 0.512529	 1
1463623936.028	 2	 1.163155	 0.322854	 -0.513112	 1.747960	 -0.727384	 -0.533588	 -0.031263	 0.751558	 -0.421283	 0.506659	 1
1463623936.038	 2	 0.974930	 0.101228	 -0.350473	 1.741119	 -0.732997	 -0.546167	 -0.029821	 0.749730	 -0.426125	 0.505405	 1
1463623936.048	 2	 0.827408	 -0.075954	 -0.202697	 1.733449	 -0.736779	 -0.557070	 -0.028619	 0.747763	 -0.429944	 0.505154	 1
1463623936.058	 2	 0.686691	 -0.167013	 -0.056309	 1.725577	 -0.738849	 -0.566528	 -0.027466	 0.745807	 -0.432863	 0.505616	 1
1463623936.068	 2	 0.565616	 -0.144510	 0.064320	 1.718616	 -0.739372	 -0.574516	 -0.026173	 0.744129	 -0.434950	 0.506365	 1
1463623936.078	 2	 0.522734	 -0.023644	 0.140421	 1.713088	 -0.738912	 -0.581823	 -0.024509	 0.742841	 -0.436591	 0.506926	 1
1463623936.088	 2	 0.550724	 0.220133	 0.180813	 1.709504	 -0.737957	 -0.589381	 -0.022170	 0.742062	 -0.438176	 0.506809	 1
1463623936.098	 2	 0.615171	 0.535823	 0.178927	 1.708457	 -0.736979	 -0.597746	 -0.018971	 0.741922	 -0.439987	 0.505573	 1
1463623936.108	 2	 0.605560	 0.790857	 0.143016	 1.710056	 -0.736313	 -0.606265	 -0.015235	 0.742424	 -0.441948	 0.503246	 1
1463623936.118	 2	 0.469380	 0.919606	 0.095309	 1.714307	 -0.735976	 -0.613278	 -0.011577	 0.743550	 -0.443635	 0.500187	 1
1463623936.128	 2	 0.162612	 0.842637	 0.064225	 1.720691	 -0.735651	 -0.616901	 -0.008704	 0.745172	 -0.444473	 0.497078	 1
1463623936.138	 2	 -0.469110	 0.419941	 0.041279	 1.728833	 -0.734734	 -0.612988	 -0.008053	 0.747211	 -0.443259	 0.495109	 1
1463623936.148	 2	 -0.983225	 -0.172301	 0.006140	 1.736231	 -0.733152	 -0.601431	 -0.010222	 0.749053	 -0.439949	 0.495237	 1
1463623936.158	 2	 -1.266602	 -0.502404	 -0.014713	 1.742661	 -0.731252	 -0.585362	 -0.014216	 0.750631	 -0.435419	 0.496751	 1
1463623936.168	 2	 -1.325943	 -0.679506	 0.033180	 1.747857	 -0.728796	 -0.567900	 -0.018848	 0.751892	 -0.430353	 0.499098	 1
1463623936.178	 2	 -1.208185	 -0.698161	 0.148149	 1.751570	 -0.725405	 -0.551766	 -0.023019	 0.752816	 -0.425292	 0.501861	 1
1463623936.188	 2	 -0.990874	 -0.598447	 0.199408	 1.754018	 -0.721610	 -0.538487	 -0.026269	 0.753460	 -0.420784	 0.504529	 1
1463623936.198	 2	 -0.741925	 -0.339399	 0.234821	 1.756482	 -0.717937	 -0.528506	 -0.028324	 0.754137	 -0.417128	 0.506438	 1
1463623936.208	 2	 -0.543018	 -0.061016	 0.276178	 1.759726	 -0.714218	 -0.521520	 -0.029083	 0.755055	 -0.414217	 0.507415	 1
1463623936.218	 2	 -0.405823	 0.262172	 0.311030	 1.764718	 -0.710423	 -0.516608	 -0.028683	 0.756454	 -0.411825	 0.507302	 1
1463623936.228	 2	 -0.380082	 0.785016	 0.259185	 1.774010	 -0.706901	 -0.512399	 -0.027237	 0.758938	 -0.409751	 0.505346	 1
1463623936.238	 2	 -0.235598	 1.042474	 0.326400	 1.785814	 -0.703465	 -0.509545	 -0.024810	 0.762064	 -0.408068	 0.502119	 1
1463623936.248	 2	 -0.027017	 1.155400	 0.582484	 1.796830	 -0.698262	 -0.510034	 -0.020726	 0.765115	 -0.406611	 0.498835	 1
1463623936.268	 3	 0.189239	 1.382562	 0.754302	 1.817517	 -0.684553	 -0.517795	 -0.009230	 0.771048	 -0.404155	 0.491994	 1
1463623936.278	 3	 0.245661	 1.422217	 0.672116	 1.828555	 -0.678389	 -0.522908	 -0.003097	 0.774097	 -0.403384	 0.487898	 1
1463623936.288	 3	 0.287944	 1.201143	 0.564181	 1.837884	 -0.673421	 -0.528318	 0.002428	 0.776626	 -0.403035	 0.484158	 1
1463623936.298	 3	 0.270176	 0.925938	 0.447738	 1.844544	 -0.669541	 -0.533419	 0.006956	 0.778421	 -0.402945	 0.481297	 1
1463623936.308	 3	 0.102485	 0.817724	 0.271275	 1.851069	 -0.666865	 -0.536413	 0.010264	 0.780111	 -0.402733	 0.478673	 1
1463623936.318	 3	 -0.087699	 0.761095	 0.012357	 1.858977	 -0.665990	 -0.536151	 0.012023	 0.782044	 -0.402330	 0.475808	 1
1463623936.328	 3	 -0.242442	 0.734297	 -0.225275	 1.868306	 -0.667027	 -0.533009	 0.012351	 0.784221	 -0.401881	 0.472585	 1
1463623936.338	 3	 -0.321195	 0.682370	 -0.377477	 1.878423	 -0.669417	 -0.527952	 0.011669	 0.786504	 -0.401446	 0.469166	 1
1463623936.348	 3	 -0.353644	 0.652150	 -0.451013	 1.888709	 -0.672516	 -0.522008	 0.010453	 0.788766	 -0.401065	 0.465711	 1
1463623936.358	 3	 -0.339896	 0.639229	 -0.467239	 1.898897	 -0.675823	 -0.515925	 0.009098	 0.790964	 -0.400746	 0.462273	 1
1463623936.368	 3	 -0.335343	 0.728309	 -0.501620	 1.909753	 -0.679375	 -0.509768	 0.007772	 0.793270	 -0.400516	 0.458529	 1
1463623936.378	 3	 -0.321789	 0.897293	 -0.514021	 1.922104	 -0.683090	 -0.503616	 0.006699	 0.795872	 -0.400364	 0.454150	 1
1463623936.398	 4	 -0.180847	 1.501955	 -0.676946	 1.954745	 -0.692211	 -0.491737	 0.005822	 0.802590	 -0.400818	 0.441770	 1
1463623936.408	 4	 -0.069756	 1.869668	 -0.819435	 1.975819	 -0.699110	 -0.486706	 0.006046	 0.806700	 -0.402115	 0.433014	 1
1463623936.418	 4	 0.022423	 2.086302	 -0.975955	 1.999434	 -0.707632	 -0.481711	 0.006371	 0.811098	 -0.404036	 0.422889	 1
1463623936.428	 4	 0.161340	 2.303457	 -1.188296	 2.025071	 -0.718381	 -0.476805	 0.006579	 0.815562	 -0.406824	 0.411472	 1
1463623936.438	 4	 0.367373	 2.522314	 -1.432113	 2.052837	 -0.732015	 -0.472211	 0.006646	 0.819982	 -0.410782	 0.398551	 1
1463623936.448	 4	 0.788444	 2.585624	 -1.624896	 2.080177	 -0.749119	 -0.469922	 0.006771	 0.823711	 -0.416531	 0.384651	 1
1463623936.458	 4	 1.404217	 2.620761	 -1.664035	 2.103869	 -0.769762	 -0.473372	 0.007733	 0.826073	 -0.424716	 0.370351	 1
1463623936.468	 4	 1.932022	 2.636165	 -1.526741	 2.122834	 -0.792638	 -0.483960	 0.010233	 0.827019	 -0.434992	 0.355974	 1
1463623936.478	 4	 1.208052	 1.840649	 -1.224097	 2.137939	 -0.811660	 -0.492139	 0.012033	 0.827490	 -0.443339	 0.344334	 1
1463623936.488	 4	 0.242787	 1.252140	 -0.927019	 2.153601	 -0.822338	 -0.489482	 0.011695	 0.828932	 -0.446724	 0.336411	 1
1463623936.498	 4	 -0.047670	 0.582163	 -0.444737	 2.164653	 -0.827253	 -0.484775	 0.010974	 0.830219	 -0.447689	 0.331950	 1
1463623936.508	 4	 -0.176766	 0.088039	 0.151814	 2.167784	 -0.826296	 -0.483017	 0.011184	 0.830863	 -0.447026	 0.331223	 1
1463623936.518	 4	 -0.184568	 -0.003399	 0.446247	 2.167059	 -0.821961	 -0.483999	 0.012516	 0.831260	 -0.445586	 0.332120	 1
1463623936.528	 4	 -0.121020	 0.053366	 0.526154	 2.165653	 -0.816971	 -0.486506	 0.014498	 0.831604	 -0.444162	 0.333084	 1
1463623936.538	 4	 -0.026840	 -0.019181	 0.680260	 2.162412	 -0.811452	 -0.490996	 0.017034	 0.831675	 -0.442890	 0.334476	 1
1463623936.548	 4	 -0.013806	 -0.100002	 0.833930	 2.157090	 -0.804708	 -0.497323	 0.020191	 0.831500	 -0.441503	 0.336564	 1
1463623936.558	 4	 -0.032483	 -0.240112	 0.865828	 2.150272	 -0.797328	 -0.503897	 0.023296	 0.831104	 -0.439958	 0.339351	 1
1463623936.568	 4	 -0.136642	 -0.251518	 0.717422	 2.144726	 -0.790345	 -0.508399	 0.025732	 0.830869	 -0.438214	 0.341999	 1
1463623936.578	 4	 -0.331511	 -0.470227	 0.546561	 2.139839	 -0.783950	 -0.509532	 0.026775	 0.830700	 -0.436112	 0.345003	 1
1463623936.588	 4	 -0.413806	 -0.674610	 0.489956	 2.134450	 -0.777516	 -0.508422	 0.026798	 0.830458	 -0.433617	 0.348708	 1
1463623936.598	 4	 -0.443124	 -0.885112	 0.344375	 2.127582	 -0.771941	 -0.506307	 0.025876	 0.829859	 -0.431278	 0.353077	 1
1463623936.608	 4	 -0.617607	 -0.963433	 0.033963	 2.121994	 -0.767879	 -0.500472	 0.023308	 0.829356	 -0.428810	 0.357419	 1
1463623936.618	 4	 -0.779806	 -0.999503	 -0.458409	 2.119871	 -0.766778	 -0.489274	 0.018497	 0.829205	 -0.426414	 0.360900	 1
1463623936.628	 4	 -0.848553	 -0.868132	 -0.996929	 2.122107	 -0.769780	 -0.472972	 0.011435	 0.829416	 -0.424561	 0.362885	 1
1463623936.638	 4	 -0.756987	 -0.892863	 -1.289976	 2.126206	 -0.776221	 -0.454641	 0.003044	 0.829530	 -0.423616	 0.363897	 1
1463623936.648	 4	 -0.737803	 -0.986815	 -1.184441	 2.129132	 -0.782779	 -0.436635	 -0.005481	 0.829315	 -0.422787	 0.365318	 1
1463623936.658	 4	 -0.680906	 -0.950689	 -0.873397	 2.130493	 -0.787153	 -0.421060	 -0.012763	 0.828987	 -0.421582	 0.367269	 1
1463623936.668	 4	 -0.530698	 -0.813807	 -0.564364	 2.130265	 -0.789738	 -0.409344	 -0.018321	 0.828548	 -0.420394	 0.369379	 1
1463623936.678	 4	 -0.378134	 -0.576355	 -0.319423	 2.129461	 -0.790737	 -0.401509	 -0.021988	 0.828200	 -0.419312	 0.371185	 1
1463623936.688	 4	 -0.281732	 -0.467548	 -0.090111	 2.128019	 -0.790421	 -0.396768	 -0.024173	 0.827916	 -0.418294	 0.372829	 1
1463623936.698	 4	 -0.269309	 -0.485324	 0.103584	 2.125172	 -0.788473	 -0.394000	 -0.025420	 0.827584	 -0.417007	 0.374918	 1
1463623936.708	 4	 -0.289071	 -0.414574	 0.156566	 2.131479	 -0.787900	 -0.385297	 -0.027567	 0.828720	 -0.415244	 0.374214	 1
1463623936.718	 4	 -0.277882	 -0.287128	 0.135274	 2.129851	 -0.785201	 -0.382994	 -0.028180	 0.828711	 -0.413767	 0.375820	 1
1463623936.728	 4	 -0.237839	 -0.116460	 0.072568	 2.130000	 -0.783075	 -0.380633	 -0.028593	 0.828964	 -0.412518	 0.376602	 1
1463623936.738	 4	 -0.164950	 0.025213	 -0.015207	 2.131355	 -0.782058	 -0.378529	 -0.028931	 0.829313	 -0.411755	 0.376644	 1
1463623936.748	 4	 -0.114528	 0.177790	 -0.110373	 2.154894	 -0.791003	 -0.361789	 -0.033255	 0.832325	 -0.412415	 0.368841	 1
1463623936.758	 4	 -0.110110	 0.314079	 -0.234904	 2.159759	 -0.792063	 -0.358905	 -0.033713	 0.833036	 -0.412373	 0.367238	 1
1463623936.768	 4	 -0.053894	 0.351251	 -0.366136	 2.165804	 -0.794442	 -0.355362	 -0.034522	 0.833774	 -0.412742	 0.365065	 1
1463623936.778	 4	 0.031914	 0.295017	 -0.459062	 2.171313	 -0.798122	 -0.351992	 -0.035681	 0.834237	 -0.413642	 0.362872	 1
1463623936.788	 4	 0.088908	 0.243086	 -0.557026	 2.176324	 -0.802936	 -0.348569	 -0.037230	 0.834443	 -0.414971	 0.360719	 1
1463623936.798	 4	 0.109864	 0.219123	 -0.625675	 2.180851	 -0.810930	 -0.345103	 -0.039651	 0.834114	 -0.417519	 0.358274	 1
1463623936.808	 4	 0.118161	 0.199681	 -0.663230	 2.185839	 -0.816972	 -0.341032	 -0.041747	 0.834095	 -0.419225	 0.356081	 1
1463623936.818	 4	 0.103292	 0.265233	 -0.723239	 2.191683	 -0.823340	 -0.336321	 -0.043994	 0.834144	 -0.420974	 0.353623	 1
1463623936.828	 4	 0.085490	 0.415640	 -0.816537	 2.199691	 -0.830298	 -0.330553	 -0.046349	 0.834437	 -0.422831	 0.350401	 1
1463623936.838	 4	 0.103852	 0.543597	 -0.912497	 2.210761	 -0.838134	 -0.323149	 -0.048918	 0.835054	 -0.424843	 0.346122	 1
1463623936.848	 4	 0.123287	 0.729540	 -1.077195	 2.223451	 -0.847076	 -0.315262	 -0.051566	 0.835709	 -0.427282	 0.341117	 1
1463623936.858	 4	 0.184972	 0.815450	 -1.232536	 2.238548	 -0.857589	 -0.305972	 -0.054594	 0.836413	 -0.430212	 0.335188	 1
1463623936.868	 4	 0.296409	 0.761283	 -1.323536	 2.253582	 -0.869493	 -0.296565	 -0.057933	 0.836776	 -0.433728	 0.329134	 1
1463623936.878	 4	 0.426879	 0.603399	 -1.335734	 2.266720	 -0.882378	 -0.287953	 -0.061496	 0.836581	 -0.437766	 0.323592	 1
1463623936.888	 4	 0.513887	 0.544241	 -1.391396	 2.278485	 -0.896097	 -0.279880	 -0.065242	 0.835933	 -0.442228	 0.318425	 1
1463623936.898	 4	 0.545772	 0.536529	 -1.415192	 2.290430	 -0.910303	 -0.271521	 -0.069097	 0.835110	 -0.446890	 0.313218	 1
1463623936.908	 4	 0.578832	 0.511913	 -1.440092	 2.302448	 -0.924806	 -0.262953	 -0.073006	 0.834125	 -0.451688	 0.308032	 1
1463623936.918	 4	 0.614668	 0.450890	 -1.480405	 2.314529	 -0.939789	 -0.253761	 -0.077175	 0.832921	 -0.456631	 0.302945	 1
1463623936.928	 4	 0.602663	 0.475750	 -1.577053	 2.327545	 -0.955214	 -0.243469	 -0.081586	 0.831604	 -0.461673	 0.297719	 1
1463623936.938	 4	 0.533682	 0.509511	 -1.789291	 2.344155	 -0.971570	 -0.229334	 -0.086837	 0.830331	 -0.466734	 0.291837	 1
1463623936.948	 4	 0.467914	 0.515872	 -1.965580	 2.364904	 -0.988884	 -0.210762	 -0.092997	 0.829070	 -0.471828	 0.285259	 1
1463623936.958	 4	 0.405003	 0.453052	 -2.146796	 2.388600	 -1.006444	 -0.188192	 -0.099978	 0.827730	 -0.476751	 0.278524	 1
1463623936.968	 4	 0.330270	 0.393280	 -2.352394	 2.416257	 -1.024544	 -0.160404	 -0.108045	 0.826249	 -0.481577	 0.271520	 1
1463623936.978	 4	 0.275007	 0.312834	 -2.467763	 2.447685	 -1.042645	 -0.127791	 -0.116931	 0.824639	 -0.486223	 0.264358	 1
1463623936.988	 4	 0.319732	 0.054349	 -2.453506	 2.479404	 -1.060444	 -0.092825	 -0.126372	 0.822588	 -0.490754	 0.257952	 1
1463623936.998	 4	 0.358802	 -0.082551	 -2.395436	 2.509713	 -1.077665	 -0.057483	 -0.135925	 0.820071	 -0.495199	 0.252558	 1
1463623937.008	 4	 0.396366	 -0.124452	 -2.291708	 2.540310	 -1.094239	 -0.021618	 -0.145231	 0.817338	 -0.499600	 0.247519	 1
1463623937.018	 4	 0.447037	 -0.169012	 -2.109252	 2.569508	 -1.109815	 0.012870	 -0.153903	 0.814440	 -0.503904	 0.243067	 1
1463623937.028	 4	 0.455351	 -0.200193	 -1.859161	 2.595993	 -1.123910	 0.044560	 -0.161682	 0.811522	 -0.507931	 0.239370	 1
1463623937.038	 4	 0.426634	 -0.209595	 -1.554191	 2.618950	 -1.135986	 0.072267	 -0.168310	 0.808810	 -0.511471	 0.236422	 1
1463623937.048	 4	 0.354843	 -0.128007	 -1.186184	 2.637752	 -1.145552	 0.094626	 -0.173434	 0.806573	 -0.514365	 0.234071	 1
1463623937.058	 4	 0.279066	 -0.014256	 -0.784805	 2.651477	 -1.152347	 0.110132	 -0.176753	 0.804992	 -0.516543	 0.232225	 1
1463623937.068	 4	 0.268709	 0.047321	 -0.510230	 2.657865	 -1.157086	 0.117166	 -0.178337	 0.803828	 -0.518237	 0.231274	 1
1463623937.078	 4	 0.319564	 0.049493	 -0.336933	 2.662768	 -1.161518	 0.121974	 -0.179365	 0.802761	 -0.519935	 0.230371	 1
1463623937.088	 4	 0.379564	 0.024443	 -0.247099	 2.664664	 -1.166000	 0.123664	 -0.179918	 0.801605	 -0.521745	 0.229871	 1
1463623937.098	 4	 0.404209	 -0.037661	 -0.147710	 2.663758	 -1.170358	 0.122929	 -0.180218	 0.800376	 -0.523528	 0.229867	 1
1463623937.108	 4	 0.376779	 -0.077079	 -0.021012	 2.659959	 -1.174024	 0.119554	 -0.180166	 0.799238	 -0.525069	 0.230351	 1
1463623937.118	 4	 0.316453	 -0.067553	 0.094704	 2.654099	 -1.176651	 0.113990	 -0.179705	 0.798341	 -0.526253	 0.231117	 1
1463623937.128	 4	 0.228537	 0.057277	 0.112618	 2.648619	 -1.178272	 0.107932	 -0.178870	 0.797805	 -0.527122	 0.231635	 1
1463623937.138	 4	 0.096475	 0.234248	 -0.030595	 2.649214	 -1.179422	 0.106466	 -0.178228	 0.797689	 -0.527812	 0.230959	 1
1463623937.148	 4	 -0.001377	 0.280472	 -0.002669	 2.652147	 -1.179698	 0.106624	 -0.177541	 0.797937	 -0.528166	 0.229818	 1
1463623937.158	 4	 -0.070898	 0.173891	 0.085403	 2.653549	 -1.178915	 0.105854	 -0.176796	 0.798381	 -0.528061	 0.229091	 1
1463623937.168	 4	 -0.083132	 -0.209582	 0.145773	 2.664775	 -1.186513	 0.116799	 -0.178826	 0.796593	 -0.530896	 0.227177	 1
1463623937.178	 4	 -0.092329	 -0.558566	 0.125553	 2.657946	 -1.185118	 0.114723	 -0.179694	 0.796386	 -0.529955	 0.229406	 1
1463623937.188	 4	 -0.120810	 -0.686355	 0.092639	 2.650453	 -1.183642	 0.113805	 -0.181188	 0.796011	 -0.528786	 0.232212	 1
1463623937.198	 4	 -0.205432	 -0.793185	 0.140341	 2.642400	 -1.181537	 0.113233	 -0.182905	 0.795702	 -0.527266	 0.235360	 1
1463623937.208	 4	 -0.200295	 -0.538544	 0.056339	 2.636709	 -1.179301	 0.113917	 -0.184479	 0.795581	 -0.525755	 0.237908	 1
1463623937.218	 4	 -0.187106	 -0.397640	 -0.014936	 2.634866	 -1.177630	 0.116356	 -0.185785	 0.795594	 -0.524616	 0.239359	 1
1463623937.228	 4	 -0.132730	 -0.387344	 -0.039827	 2.633421	 -1.176496	 0.119041	 -0.187132	 0.795481	 -0.523698	 0.240689	 1
1463623937.238	 4	 -0.069516	 -0.331275	 -0.049421	 2.621095	 -1.177955	 0.111182	 -0.187369	 0.794325	 -0.524087	 0.243460	 1
1463623937.248	 4	 -0.022319	 -0.285632	 -0.043013	 2.619496	 -1.177896	 0.112646	 -0.188363	 0.794009	 -0.523735	 0.244482	 1
1463623937.258	 4	 0.010128	 -0.213236	 -0.020241	 2.617659	 -1.178068	 0.113178	 -0.189071	 0.793687	 -0.523566	 0.245342	 1
1463623937.268	 4	 0.020088	 -0.187312	 0.038531	 2.615210	 -1.178129	 0.112550	 -0.189469	 0.793429	 -0.523436	 0.246146	 1
1463623937.278	 4	 0.013770	 -0.192375	 0.069475	 2.611056	 -1.174309	 0.110247	 -0.189283	 0.794178	 -0.521780	 0.247384	 1
1463623937.288	 4	 -0.015001	 -0.151048	 0.034969	 2.608267	 -1.170318	 0.109057	 -0.189159	 0.795033	 -0.520046	 0.248384	 1
1463623937.298	 4	 -0.035048	 -0.097798	 0.033522	 2.609350	 -1.166819	 0.111020	 -0.189326	 0.795932	 -0.518485	 0.248639	 1
1463623937.308	 4	 -0.045563	 -0.083737	 0.059323	 2.610674	 -1.164700	 0.112925	 -0.189541	 0.796491	 -0.517513	 0.248710	 1
1463623937.318	 4	 -0.042348	 -0.103738	 0.087881	 2.610591	 -1.163280	 0.113563	 -0.189682	 0.796805	 -0.516848	 0.248978	 1
1463623937.328	 4	 -0.033768	 -0.110001	 0.106930	 2.608984	 -1.162183	 0.112803	 -0.189691	 0.796974	 -0.516344	 0.249476	 1
1463623937.338	 4	 -0.028343	 -0.110913	 0.130324	 2.605123	 -1.161219	 0.109918	 -0.189446	 0.797025	 -0.515947	 0.250319	 1
1463623937.348	 4	 -0.025000	 -0.107514	 0.161240	 2.599728	 -1.160211	 0.105504	 -0.188980	 0.797039	 -0.515580	 0.251382	 1
1463623937.358	 4	 -0.019522	 -0.105182	 0.193196	 2.592883	 -1.159277	 0.099610	 -0.188303	 0.796983	 -0.515298	 0.252640	 1
1463623937.368	 4	 -0.008717	 -0.103934	 0.224025	 2.585955	 -1.158381	 0.093505	 -0.187564	 0.796921	 -0.515057	 0.253878	 1
1463623937.378	 4	 0.000929	 -0.113398	 0.244106	 2.578515	 -1.157587	 0.086921	 -0.186774	 0.796802	 -0.514877	 0.255192	 1
1463623937.388	 4	 0.011707	 -0.096362	 0.250556	 2.573672	 -1.156822	 0.082530	 -0.186191	 0.796797	 -0.514677	 0.256037	 1
1463623937.398	 4	 0.015989	 -0.078417	 0.232548	 2.570633	 -1.156668	 0.079686	 -0.185823	 0.796714	 -0.514696	 0.256525	 1
1463623937.408	 4	 0.017010	 -0.062669	 0.202820	 2.569635	 -1.156538	 0.078609	 -0.185637	 0.796720	 -0.514689	 0.256653	 1
1463623937.418	 4	 0.006288	 -0.033179	 0.156271	 2.570011	 -1.156279	 0.078732	 -0.185561	 0.796826	 -0.514604	 0.256551	 1
1463623937.428	 4	 -0.000221	 -0.018563	 0.113812	 2.571305	 -1.156030	 0.079696	 -0.185586	 0.796969	 -0.514499	 0.256298	 1
1463623937.438	 4	 -0.003581	 -0.017762	 0.074399	 2.572934	 -1.155690	 0.081047	 -0.185669	 0.797143	 -0.514340	 0.256017	 1
1463623937.448	 4	 -0.006861	 0.004270	 0.029862	 2.574307	 -1.155215	 0.082233	 -0.185738	 0.797335	 -0.514123	 0.255803	 1
1463623937.458	 4	 -0.007991	 0.024212	 -0.008315	 2.576071	 -1.154907	 0.083685	 -0.185831	 0.797508	 -0.513977	 0.255492	 1
1463623937.468	 4	 -0.016547	 0.027377	 -0.015667	 2.577000	 -1.154277	 0.084346	 -0.185789	 0.797733	 -0.513723	 0.255328	 1
1463623937.478	 4	 -0.034673	 0.031685	 -0.015457	 2.577156	 -1.153257	 0.084318	 -0.185630	 0.798028	 -0.513328	 0.255319	 1
1463623937.488	 4	 -0.043245	 0.015828	 -0.004857	 2.576393	 -1.152228	 0.083551	 -0.185411	 0.798275	 -0.512938	 0.255487	 1
1463623937.498	 4	 -0.049682	 0.003129	 0.001475	 2.577022	 -1.151816	 0.084182	 -0.185458	 0.798407	 -0.512748	 0.255423	 1
1463623937.508	 4	 -0.048664	 -0.010671	 0.005601	 2.577465	 -1.151380	 0.084726	 -0.185516	 0.798529	 -0.512543	 0.255411	 1
1463623937.518	 4	 -0.039050	 0.003028	 -0.008210	 2.577911	 -1.151057	 0.085315	 -0.185602	 0.798617	 -0.512378	 0.255402	 1
1463623937.528	 4	 -0.033630	 0.022135	 -0.010197	 2.576789	 -1.150361	 0.084248	 -0.185390	 0.798758	 -0.512128	 0.255618	 1
1463623937.538	 4	 -0.039883	 0.046680	 -0.001388	 2.577760	 -1.150054	 0.084841	 -0.185346	 0.798909	 -0.512018	 0.255400	 1
1463623937.548	 4	 -0.032392	 0.040369	 0.011277	 2.578431	 -1.149728	 0.085111	 -0.185248	 0.799056	 -0.511913	 0.255220	 1
1463623937.558	 4	 -0.026023	 0.029744	 0.015386	 2.578802	 -1.149415	 0.085163	 -0.185141	 0.799182	 -0.511814	 0.255103	 1
1463623937.568	 4	 -0.015458	 0.008424	 0.014047	 2.576981	 -1.148516	 0.083351	 -0.184788	 0.799356	 -0.511512	 0.255420	 1
1463623937.578	 4	 -0.014263	 0.047668	 -0.000519	 2.577462	 -1.148384	 0.083496	 -0.184709	 0.799439	 -0.511484	 0.255273	 1
1463623937.588	 4	 -0.008864	 0.053040	 0.009076	 2.577969	 -1.148266	 0.083494	 -0.184566	 0.799535	 -0.511483	 0.255076	 1
1463623937.598	 4	 -0.009782	 0.076513	 0.018894	 2.578520	 -1.148092	 0.083295	 -0.184326	 0.799670	 -0.511489	 0.254815	 1
1463623937.608	 4	 -0.008680	 0.073395	 0.030595	 2.576649	 -1.147490	 0.080835	 -0.183758	 0.799818	 -0.511386	 0.254970	 1
1463623937.618	 4	 -0.002281	 0.068096	 0.035819	 2.576708	 -1.147273	 0.080154	 -0.183447	 0.799945	 -0.511390	 0.254785	 1
1463623937.628	 4	 0.014700	 0.050997	 0.032327	 2.575060	 -1.146861	 0.077981	 -0.182955	 0.800043	 -0.511348	 0.254913	 1
1463623937.638	 4	 0.020139	 0.091233	 0.010285	 2.573896	 -1.146592	 0.076113	 -0.182477	 0.800137	 -0.511371	 0.254918	 1
1463623937.648	 4	 0.023358	 0.089136	 0.016642	 2.572924	 -1.146500	 0.074312	 -0.181995	 0.800201	 -0.511475	 0.254852	 1
1463623937.658	 4	 0.021345	 0.108338	 0.024310	 2.572046	 -1.146220	 0.072416	 -0.181430	 0.800336	 -0.511523	 0.254735	 1
1463623937.668	 4	 0.024531	 0.094579	 0.035886	 2.570832	 -1.146196	 0.070248	 -0.180870	 0.800384	 -0.511679	 0.254668	 1
1463623937.678	 4	 0.030948	 0.092466	 0.041147	 2.569479	 -1.146186	 0.067969	 -0.180303	 0.800420	 -0.511843	 0.254627	 1
1463623937.688	 4	 0.034176	 0.097771	 0.041176	 2.568333	 -1.146050	 0.065833	 -0.179727	 0.800503	 -0.511957	 0.254547	 1
1463623937.698	 4	 0.034209	 0.102044	 0.044422	 2.567062	 -1.145866	 0.063530	 -0.179110	 0.800596	 -0.512061	 0.254478	 1
1463623937.718	 5	 0.040635	 0.103101	 0.047591	 2.564142	 -1.145751	 0.058495	 -0.177830	 0.800704	 -0.512395	 0.254365	 1
1463623937.728	 5	 0.043859	 0.106285	 0.048666	 2.562652	 -1.145769	 0.055915	 -0.177181	 0.800739	 -0.512598	 0.254299	 1
1463623937.738	 5	 0.043897	 0.113726	 0.048741	 2.561448	 -1.145799	 0.053536	 -0.176540	 0.800788	 -0.512806	 0.254169	 1
1463623937.748	 5	 0.044982	 0.119023	 0.046655	 2.560547	 -1.145841	 0.051375	 -0.175911	 0.800853	 -0.513018	 0.253973	 1
1463623937.758	 5	 0.048183	 0.121115	 0.043452	 2.559830	 -1.146007	 0.049357	 -0.175305	 0.800896	 -0.513278	 0.253731	 1
1463623937.768	 5	 0.048195	 0.123240	 0.043475	 2.559178	 -1.146199	 0.047380	 -0.174703	 0.800936	 -0.513549	 0.253472	 1
1463623937.778	 5	 0.051383	 0.121094	 0.042363	 2.558732	 -1.146374	 0.045600	 -0.174125	 0.800988	 -0.513807	 0.253182	 1
1463623937.788	 5	 0.048187	 0.122165	 0.042404	 2.558232	 -1.146510	 0.043775	 -0.173538	 0.801048	 -0.514049	 0.252903	 1
1463623937.798	 5	 0.047124	 0.122175	 0.043482	 2.557746	 -1.146581	 0.041959	 -0.172944	 0.801125	 -0.514265	 0.252626	 1
1463623937.808	 5	 0.045001	 0.124306	 0.043525	 2.557161	 -1.146666	 0.040042	 -0.172336	 0.801195	 -0.514491	 0.252361	 1
1463623937.818	 5	 0.040732	 0.122206	 0.045676	 2.556772	 -1.146749	 0.038322	 -0.171757	 0.801272	 -0.514708	 0.252069	 1
1463623937.828	 5	 0.039679	 0.122231	 0.048884	 2.556387	 -1.146824	 0.036604	 -0.171176	 0.801351	 -0.514922	 0.251775	 1
1463623937.838	 5	 0.040751	 0.122234	 0.049941	 2.556111	 -1.146898	 0.034979	 -0.170605	 0.801436	 -0.515132	 0.251463	 1
1463623937.848	 5	 0.037526	 0.117982	 0.048862	 2.555984	 -1.147008	 0.033525	 -0.170068	 0.801515	 -0.515349	 0.251131	 1
1463623937.858	 5	 0.033200	 0.107342	 0.046667	 2.555857	 -1.147177	 0.032165	 -0.169575	 0.801570	 -0.515577	 0.250819	 1
1463623937.868	 5	 0.026724	 0.094576	 0.043403	 2.555955	 -1.147291	 0.031143	 -0.169154	 0.801639	 -0.515759	 0.250508	 1
1463623937.878	 5	 0.021311	 0.081799	 0.039064	 2.556220	 -1.147395	 0.030417	 -0.168807	 0.801706	 -0.515914	 0.250207	 1
1463623937.888	 5	 0.016985	 0.072218	 0.035808	 2.556603	 -1.147544	 0.029921	 -0.168526	 0.801757	 -0.516069	 0.249915	 1
1463623937.898	 5	 0.010531	 0.064762	 0.031526	 2.556898	 -1.147646	 0.029446	 -0.168272	 0.801807	 -0.516194	 0.249667	 1
1463623937.908	 5	 0.005167	 0.057341	 0.032564	 2.557050	 -1.147775	 0.028922	 -0.168037	 0.801837	 -0.516324	 0.249461	 1
1463623937.918	 5	 0.002977	 0.046695	 0.030348	 2.557091	 -1.147920	 0.028401	 -0.167835	 0.801848	 -0.516451	 0.249300	 1
1463623937.928	 5	 -0.000115	 0.040505	 0.028196	 2.556976	 -1.148120	 0.027810	 -0.167651	 0.801830	 -0.516595	 0.249179	 1
1463623937.938	 5	 0.000928	 0.036231	 0.026011	 2.557040	 -1.148380	 0.027439	 -0.167516	 0.801801	 -0.516752	 0.249038	 1
1463623937.948	 5	 0.001957	 0.031935	 0.020628	 2.557149	 -1.148664	 0.027154	 -0.167407	 0.801765	 -0.516911	 0.248900	 1
1463623937.958	 5	 0.002992	 0.028703	 0.015255	 2.557307	 -1.149022	 0.026957	 -0.167329	 0.801707	 -0.517093	 0.248760	 1
1463623937.968	 5	 0.004035	 0.025486	 0.012013	 2.557514	 -1.149362	 0.026855	 -0.167275	 0.801652	 -0.517260	 0.248626	 1
1463623937.978	 5	 0.005064	 0.016973	 0.011921	 2.557655	 -1.149623	 0.026766	 -0.167233	 0.801609	 -0.517388	 0.248527	 1
1463623937.988	 5	 0.005008	 0.007377	 0.008633	 2.557499	 -1.149802	 0.026502	 -0.167189	 0.801565	 -0.517480	 0.248509	 1
1463623937.998	 5	 0.001773	 -0.001115	 0.009647	 2.557248	 -1.149925	 0.026230	 -0.167160	 0.801524	 -0.517542	 0.248530	 1
1463623938.008	 5	 -0.000381	 -0.005364	 0.009626	 2.557004	 -1.149933	 0.026012	 -0.167136	 0.801510	 -0.517552	 0.248571	 1
1463623938.018	 5	 -0.005716	 -0.005348	 0.009672	 2.556732	 -1.149864	 0.025790	 -0.167109	 0.801513	 -0.517529	 0.248627	 1
1463623938.028	 5	 -0.009983	 -0.004280	 0.008654	 2.556522	 -1.149751	 0.025625	 -0.167084	 0.801530	 -0.517487	 0.248677	 1
1463623938.038	 5	 -0.013170	 -0.002136	 0.009769	 2.556326	 -1.149595	 0.025467	 -0.167053	 0.801560	 -0.517427	 0.248726	 1
1463623938.048	 5	 -0.014218	 0.000010	 0.011930	 2.556235	 -1.149403	 0.025389	 -0.167023	 0.801605	 -0.517352	 0.248756	 1
1463623938.058	 5	 -0.015287	 -0.002099	 0.014051	 2.556052	 -1.149199	 0.025212	 -0.166975	 0.801651	 -0.517276	 0.248799	 1
1463623938.068	 5	 -0.017458	 -0.005322	 0.008711	 2.556186	 -1.148989	 0.025378	 -0.166983	 0.801708	 -0.517183	 0.248804	 1
1463623938.078	 5	 -0.015369	 -0.008573	 0.001200	 2.556529	 -1.148886	 0.025787	 -0.167046	 0.801744	 -0.517119	 0.248779	 1
1463623938.088	 5	 -0.015397	 -0.014946	 0.002206	 2.556792	 -1.148708	 0.026168	 -0.167109	 0.801791	 -0.517021	 0.248785	 1
1463623938.098	 5	 -0.020767	 -0.025536	 0.006417	 2.556696	 -1.148492	 0.026320	 -0.167170	 0.801823	 -0.516908	 0.248879	 1
1463623938.108	 5	 -0.023997	 -0.031910	 0.006389	 2.556125	 -1.148233	 0.026104	 -0.167200	 0.801838	 -0.516782	 0.249071	 1
1463623938.118	 5	 -0.026133	 -0.034017	 0.008523	 2.555502	 -1.147908	 0.025876	 -0.167232	 0.801864	 -0.516628	 0.249286	 1
1463623938.128	 5	 -0.025049	 -0.035048	 0.013839	 2.554576	 -1.147473	 0.025366	 -0.167215	 0.801905	 -0.516438	 0.249557	 1
1463623938.138	 5	 -0.016570	 -0.052056	 0.018940	 2.553425	 -1.147149	 0.024712	 -0.167212	 0.801900	 -0.516294	 0.249874	 1
1463623938.148	 5	 -0.010102	 -0.029812	 0.009511	 2.551809	 -1.146543	 0.023607	 -0.167113	 0.801949	 -0.516052	 0.250281	 1
1463623938.158	 5	 -0.007920	 -0.033953	 0.026516	 2.550165	 -1.146015	 0.022312	 -0.166956	 0.801989	 -0.515865	 0.250646	 1
1463623938.168	 5	 -0.014244	 -0.027462	 0.039431	 2.548558	 -1.145294	 0.021011	 -0.166762	 0.802084	 -0.515603	 0.251009	 1
1463623938.178	 5	 -0.017446	 -0.041160	 0.056394	 2.546599	 -1.144472	 0.019429	 -0.166533	 0.802183	 -0.515308	 0.251448	 1
1463623938.188	 5	 -0.019538	 -0.043183	 0.070259	 2.544337	 -1.143479	 0.017569	 -0.166249	 0.802312	 -0.514954	 0.251951	 1
1463623938.198	 5	 -0.022733	 -0.046322	 0.076663	 2.541960	 -1.142405	 0.015615	 -0.165946	 0.802453	 -0.514571	 0.252484	 1
1463623938.208	 5	 -0.024849	 -0.045223	 0.080965	 2.539683	 -1.141309	 0.013738	 -0.165644	 0.802605	 -0.514178	 0.252999	 1
1463623938.218	 5	 -0.025921	 -0.046278	 0.082039	 2.537424	 -1.140228	 0.011884	 -0.165348	 0.802751	 -0.513791	 0.253514	 1
1463623938.228	 5	 -0.012162	 -0.065506	 0.076417	 2.535170	 -1.139426	 0.010146	 -0.165130	 0.802816	 -0.513503	 0.254035	 1
1463623938.238	 5	 -0.015259	 -0.030505	 0.061856	 2.533442	 -1.138633	 0.008716	 -0.164900	 0.802919	 -0.513223	 0.254424	 1
1463623938.248	 5	 -0.021524	 -0.009144	 0.071705	 2.532028	 -1.137902	 0.007385	 -0.164637	 0.803037	 -0.512982	 0.254708	 1
1463623938.258	 5	 -0.024617	 -0.001558	 0.089921	 2.530716	 -1.137229	 0.005982	 -0.164325	 0.803158	 -0.512782	 0.254929	 1
1463623938.268	 5	 -0.017098	 0.005888	 0.093122	 2.529348	 -1.136580	 0.004426	 -0.163969	 0.803278	 -0.512607	 0.255131	 1
1463623938.278	 5	 -0.007444	 0.019657	 0.088899	 2.528268	 -1.136149	 0.003001	 -0.163619	 0.803368	 -0.512528	 0.255234	 1
1463623938.288	 5	 0.000022	 0.028061	 0.077183	 2.527556	 -1.135918	 0.001842	 -0.163307	 0.803431	 -0.512525	 0.255242	 1
1463623938.298	 5	 0.007468	 0.033266	 0.064369	 2.527204	 -1.135901	 0.000985	 -0.163050	 0.803460	 -0.512598	 0.255165	 1
1463623938.308	 5	 0.012779	 0.041638	 0.047340	 2.527171	 -1.136064	 0.000402	 -0.162846	 0.803462	 -0.512735	 0.255016	 1
1463623938.318	 5	 0.018114	 0.053217	 0.032472	 2.527427	 -1.136332	 0.000014	 -0.162658	 0.803457	 -0.512913	 0.254792	 1
1463623938.328	 5	 0.026628	 0.058419	 0.019650	 2.527794	 -1.136696	 -0.000305	 -0.162482	 0.803437	 -0.513130	 0.254533	 1
1463623938.338	 5	 0.031976	 0.065803	 0.013273	 2.527997	 -1.137079	 -0.000831	 -0.162268	 0.803407	 -0.513367	 0.254285	 1
1463623938.348	 5	 0.043757	 0.075333	 0.012192	 2.528011	 -1.137455	 -0.001622	 -0.161994	 0.803376	 -0.513620	 0.254045	 1
1463623938.358	 5	 0.051252	 0.078516	 0.014288	 2.527872	 -1.137842	 -0.002616	 -0.161680	 0.803340	 -0.513890	 0.253814	 1
1463623938.368	 5	 0.055550	 0.078557	 0.021712	 2.527571	 -1.138155	 -0.003814	 -0.161316	 0.803318	 -0.514144	 0.253602	 1
1463623938.378	 5	 0.055612	 0.088161	 0.026065	 2.527241	 -1.138415	 -0.005112	 -0.160913	 0.803314	 -0.514386	 0.253379	 1
1463623938.388	 5	 0.053514	 0.095613	 0.026153	 2.526988	 -1.138704	 -0.006409	 -0.160494	 0.803312	 -0.514646	 0.253123	 1
1463623938.398	 5	 0.054606	 0.099873	 0.027247	 2.526966	 -1.139040	 -0.007549	 -0.160085	 0.803314	 -0.514923	 0.252811	 1
1463623938.408	 5	 0.056732	 0.100907	 0.024039	 2.526956	 -1.139408	 -0.008695	 -0.159674	 0.803310	 -0.515214	 0.252489	 1
1463623938.418	 5	 0.056715	 0.099821	 0.020830	 2.526989	 -1.139803	 -0.009785	 -0.159279	 0.803300	 -0.515513	 0.252162	 1
1463623938.428	 5	 0.057763	 0.097676	 0.018667	 2.527161	 -1.140205	 -0.010723	 -0.158909	 0.803293	 -0.515806	 0.251817	 1
1463623938.438	 5	 0.060969	 0.100843	 0.016536	 2.527300	 -1.140545	 -0.011713	 -0.158520	 0.803302	 -0.516078	 0.251478	 1
1463623938.448	 5	 0.062039	 0.101904	 0.016535	 2.527457	 -1.140942	 -0.012691	 -0.158138	 0.803297	 -0.516372	 0.251128	 1
1463623938.458	 5	 0.063116	 0.105085	 0.015488	 2.527665	 -1.141374	 -0.013650	 -0.157754	 0.803289	 -0.516682	 0.250761	 1
1463623938.468	 5	 0.064195	 0.109322	 0.013384	 2.527948	 -1.141878	 -0.014578	 -0.157374	 0.803267	 -0.517022	 0.250365	 1
1463623938.478	 5	 0.059940	 0.114631	 0.010270	 2.528320	 -1.142449	 -0.015452	 -0.157000	 0.803236	 -0.517390	 0.249941	 1
1463623938.488	 5	 0.057809	 0.116750	 0.008173	 2.528830	 -1.143041	 -0.016214	 -0.156638	 0.803208	 -0.517761	 0.249489	 1
1463623938.498	 5	 0.057792	 0.114609	 0.006017	 2.529455	 -1.143643	 -0.016856	 -0.156296	 0.803181	 -0.518131	 0.249021	 1
1463623938.508	 5	 0.059916	 0.111419	 0.007032	 2.529811	 -1.144182	 -0.017716	 -0.155928	 0.803154	 -0.518482	 0.248609	 1
1463623938.518	 5	 0.057773	 0.110355	 0.005974	 2.530206	 -1.144659	 -0.018524	 -0.155562	 0.803144	 -0.518804	 0.248200	 1
1463623938.528	 5	 0.056696	 0.109287	 0.004906	 2.530640	 -1.145140	 -0.019278	 -0.155209	 0.803132	 -0.519124	 0.247789	 1
1463623938.538	 5	 0.062003	 0.110274	 -0.003660	 2.531193	 -1.145718	 -0.019904	 -0.154889	 0.803101	 -0.519475	 0.247356	 1
1463623938.548	 5	 0.059881	 0.109247	 0.000612	 2.531476	 -1.146229	 -0.020788	 -0.154526	 0.803072	 -0.519811	 0.246968	 1
1463623938.558	 5	 0.061970	 0.096500	 0.003670	 2.531718	 -1.146857	 -0.021635	 -0.154204	 0.803006	 -0.520185	 0.246597	 1
1463623938.568	 5	 0.064082	 0.093287	 0.001490	 2.531779	 -1.147429	 -0.022585	 -0.153881	 0.802940	 -0.520535	 0.246277	 1
1463623938.578	 5	 0.066241	 0.096487	 0.003633	 2.531678	 -1.147969	 -0.023716	 -0.153522	 0.802875	 -0.520882	 0.245976	 1
1463623938.588	 5	 0.067314	 0.095434	 0.005747	 2.531371	 -1.148535	 -0.025037	 -0.153145	 0.802793	 -0.521247	 0.245706	 1
1463623938.598	 5	 0.068378	 0.093310	 0.006785	 2.531050	 -1.149119	 -0.026364	 -0.152772	 0.802705	 -0.521619	 0.245438	 1
1463623938.608	 5	 0.067280	 0.087978	 0.004614	 2.530707	 -1.149754	 -0.027667	 -0.152421	 0.802599	 -0.522006	 0.245181	 1
1463623938.618	 5	 0.066203	 0.089013	 0.000370	 2.530499	 -1.150352	 -0.028823	 -0.152089	 0.802507	 -0.522370	 0.244910	 1
1463623938.628	 5	 0.065125	 0.087936	 -0.001761	 2.530284	 -1.150960	 -0.029973	 -0.151763	 0.802411	 -0.522737	 0.244643	 1
1463623938.638	 5	 0.060863	 0.090068	 -0.002769	 2.530298	 -1.151500	 -0.030913	 -0.151452	 0.802345	 -0.523069	 0.244344	 1
1463623938.648	 5	 0.061917	 0.087929	 -0.003863	 2.530365	 -1.152031	 -0.031799	 -0.151148	 0.802284	 -0.523393	 0.244038	 1
1463623938.658	 5	 0.069345	 0.084660	 -0.011418	 2.530121	 -1.152742	 -0.032867	 -0.150877	 0.802151	 -0.523788	 0.243794	 1
1463623938.668	 5	 0.064110	 0.103844	 -0.007992	 2.530264	 -1.153109	 -0.033788	 -0.150518	 0.802143	 -0.524058	 0.243463	 1
1463623938.678	 5	 0.065153	 0.093251	 -0.001706	 2.530556	 -1.153709	 -0.034540	 -0.150218	 0.802081	 -0.524410	 0.243095	 1
1463623938.688	 5	 0.065132	 0.087941	 -0.000691	 2.530730	 -1.154319	 -0.035351	 -0.149926	 0.802006	 -0.524765	 0.242758	 1
1463623938.698	 5	 0.067281	 0.090070	 0.000374	 2.530906	 -1.154921	 -0.036164	 -0.149633	 0.801932	 -0.525116	 0.242421	 1
1463623938.708	 5	 0.067311	 0.095397	 0.001488	 2.531012	 -1.155496	 -0.037085	 -0.149311	 0.801866	 -0.525464	 0.242085	 1
1463623938.718	 5	 0.068396	 0.097537	 0.003629	 2.531180	 -1.156048	 -0.037990	 -0.148976	 0.801811	 -0.525806	 0.241730	 1
1463623938.728	 5	 0.066277	 0.101790	 0.002620	 2.531336	 -1.156588	 -0.038927	 -0.148630	 0.801760	 -0.526145	 0.241373	 1
1463623938.738	 5	 0.070551	 0.102841	 0.002592	 2.531478	 -1.157156	 -0.039910	 -0.148273	 0.801704	 -0.526500	 0.241006	 1
1463623938.748	 5	 0.068441	 0.108166	 0.002659	 2.531674	 -1.157688	 -0.040874	 -0.147905	 0.801661	 -0.526842	 0.240626	 1
1463623938.758	 5	 0.070571	 0.108153	 0.001574	 2.531850	 -1.158285	 -0.041881	 -0.147533	 0.801603	 -0.527213	 0.240236	 1
1463623938.768	 5	 0.072710	 0.109210	 0.001566	 2.531996	 -1.158819	 -0.042922	 -0.147147	 0.801559	 -0.527561	 0.239855	 1
1463623938.778	 5	 0.073755	 0.106000	 -0.000605	 2.532012	 -1.159486	 -0.044048	 -0.146779	 0.801471	 -0.527963	 0.239490	 1
1463623938.788	 5	 0.069484	 0.106004	 -0.001633	 2.532056	 -1.160121	 -0.045139	 -0.146414	 0.801392	 -0.528348	 0.239127	 1
1463623938.798	 5	 0.069467	 0.104917	 -0.004840	 2.532112	 -1.160755	 -0.046196	 -0.146059	 0.801312	 -0.528731	 0.238767	 1
1463623938.808	 5	 0.067327	 0.101747	 -0.002719	 2.532241	 -1.161369	 -0.047156	 -0.145721	 0.801239	 -0.529098	 0.238405	 1
1463623938.818	 5	 0.068390	 0.099624	 -0.001684	 2.532362	 -1.162022	 -0.048114	 -0.145391	 0.801154	 -0.529480	 0.238043	 1
1463623938.828	 5	 0.066267	 0.101758	 -0.001646	 2.532533	 -1.162614	 -0.049026	 -0.145058	 0.801088	 -0.529836	 0.237679	 1
1463623938.838	 5	 0.063076	 0.102839	 -0.000543	 2.532740	 -1.163205	 -0.049917	 -0.144724	 0.801024	 -0.530191	 0.237305	 1
1463623938.848	 5	 0.060924	 0.100702	 -0.002676	 2.532910	 -1.163772	 -0.050835	 -0.144386	 0.800963	 -0.530537	 0.236941	 1
1463623938.858	 5	 0.059875	 0.100737	 0.001595	 2.533144	 -1.164339	 -0.051684	 -0.144059	 0.800906	 -0.530878	 0.236570	 1
1463623938.868	 5	 0.057727	 0.097552	 0.001583	 2.533394	 -1.164857	 -0.052494	 -0.143736	 0.800859	 -0.531198	 0.236206	 1
1463623938.878	 5	 0.058793	 0.096493	 0.002628	 2.533633	 -1.165383	 -0.053304	 -0.143418	 0.800809	 -0.531519	 0.235847	 1
1463623938.888	 5	 0.059871	 0.097562	 0.003692	 2.533824	 -1.165927	 -0.054159	 -0.143097	 0.800752	 -0.531848	 0.235493	 1
1463623938.898	 5	 0.058822	 0.101811	 0.002675	 2.533868	 -1.166457	 -0.055177	 -0.142747	 0.800693	 -0.532181	 0.235155	 1
1463623938.908	 5	 0.055581	 0.093311	 0.002624	 2.533909	 -1.166947	 -0.056164	 -0.142406	 0.800641	 -0.532494	 0.234830	 1
1463623938.918	 5	 0.052364	 0.091177	 0.000501	 2.533919	 -1.167481	 -0.057125	 -0.142089	 0.800572	 -0.532819	 0.234520	 1
1463623938.928	 5	 0.049230	 0.082882	 -0.000615	 2.533927	 -1.167990	 -0.058013	 -0.141799	 0.800504	 -0.533125	 0.234232	 1
1463623938.938	 5	 0.047058	 0.074378	 -0.000676	 2.533871	 -1.168502	 -0.058869	 -0.141539	 0.800425	 -0.533423	 0.233978	 1
1463623938.948	 5	 0.042753	 0.067993	 -0.002829	 2.533825	 -1.168973	 -0.059634	 -0.141308	 0.800352	 -0.533696	 0.233748	 1
1463623938.958	 5	 0.040574	 0.058426	 -0.002900	 2.533976	 -1.169400	 -0.060138	 -0.141122	 0.800294	 -0.533934	 0.233513	 1
1463623938.968	 5	 0.039492	 0.055239	 -0.002922	 2.534176	 -1.169796	 -0.060544	 -0.140959	 0.800243	 -0.534152	 0.233287	 1
1463623938.978	 5	 0.038419	 0.052066	 -0.000811	 2.534223	 -1.170163	 -0.061067	 -0.140786	 0.800190	 -0.534361	 0.233094	 1
1463623938.988	 5	 0.035204	 0.049941	 -0.001870	 2.534384	 -1.170522	 -0.061452	 -0.140636	 0.800143	 -0.534559	 0.232892	 1
1463623938.998	 5	 0.030914	 0.043587	 0.000239	 2.534456	 -1.170862	 -0.061869	 -0.140496	 0.800093	 -0.534747	 0.232720	 1
1463623939.008	 5	 0.029822	 0.037216	 0.001254	 2.534443	 -1.171177	 -0.062310	 -0.140365	 0.800040	 -0.534922	 0.232577	 1
1463623939.018	 5	 0.031950	 0.035090	 0.002282	 2.534248	 -1.171424	 -0.062895	 -0.140215	 0.799994	 -0.535074	 0.232475	 1
1463623939.028	 5	 0.034100	 0.037219	 0.003348	 2.534086	 -1.171734	 -0.063461	 -0.140074	 0.799935	 -0.535250	 0.232359	 1
1463623939.038	 5	 0.031988	 0.039376	 0.006583	 2.534000	 -1.171962	 -0.063986	 -0.139917	 0.799902	 -0.535396	 0.232231	 1
1463623939.048	 5	 0.029872	 0.041525	 0.008752	 2.533968	 -1.172214	 -0.064482	 -0.139761	 0.799868	 -0.535551	 0.232087	 1
1463623939.068	 6	 0.027776	 0.046874	 0.012014	 2.534050	 -1.172684	 -0.065415	 -0.139428	 0.799820	 -0.535850	 0.231760	 1
1463623939.078	 6	 0.024576	 0.047940	 0.010984	 2.534131	 -1.172880	 -0.065862	 -0.139254	 0.799810	 -0.535985	 0.231589	 1
1463623939.088	 6	 0.023490	 0.044745	 0.009897	 2.534159	 -1.173091	 -0.066338	 -0.139084	 0.799791	 -0.536125	 0.231430	 1
1463623939.098	 6	 0.019193	 0.039432	 0.008819	 2.534038	 -1.173260	 -0.066896	 -0.138916	 0.799772	 -0.536248	 0.231312	 1
1463623939.108	 6	 0.019155	 0.031978	 0.007684	 2.533792	 -1.173432	 -0.067508	 -0.138760	 0.799742	 -0.536369	 0.231230	 1
1463623939.118	 6	 0.018073	 0.027734	 0.008719	 2.533608	 -1.173600	 -0.068007	 -0.138632	 0.799711	 -0.536480	 0.231153	 1
1463623939.128	 6	 0.014878	 0.028807	 0.008756	 2.533455	 -1.173740	 -0.068479	 -0.138503	 0.799690	 -0.536579	 0.231075	 1
1463623939.138	 6	 0.014872	 0.026687	 0.009802	 2.533424	 -1.173824	 -0.068817	 -0.138387	 0.799688	 -0.536649	 0.230988	 1
1463623939.148	 6	 0.010628	 0.029907	 0.011999	 2.533415	 -1.173917	 -0.069159	 -0.138266	 0.799686	 -0.536725	 0.230891	 1
1463623939.158	 6	 0.009542	 0.026711	 0.010912	 2.533363	 -1.173977	 -0.069527	 -0.138141	 0.799690	 -0.536787	 0.230808	 1
1463623939.168	 6	 0.008463	 0.021419	 0.014069	 2.533191	 -1.174031	 -0.069957	 -0.138022	 0.799686	 -0.536846	 0.230756	 1
1463623939.188	 7	 0.006274	 0.008669	 0.015035	 2.532592	 -1.174119	 -0.070898	 -0.137818	 0.799659	 -0.536948	 0.230734	 1
1463623939.198	 7	 0.003044	 0.002296	 0.015003	 2.532149	 -1.174141	 -0.071398	 -0.137740	 0.799637	 -0.536984	 0.230775	 1
1463623939.208	 7	 -0.000175	 -0.000893	 0.013935	 2.531807	 -1.174146	 -0.071753	 -0.137691	 0.799620	 -0.537004	 0.230815	 1
1463623939.218	 7	 -0.001277	 -0.009392	 0.014931	 2.531362	 -1.174093	 -0.072143	 -0.137647	 0.799610	 -0.536997	 0.230894	 1
1463623939.228	 7	 -0.002342	 -0.008333	 0.013884	 2.530978	 -1.174073	 -0.072454	 -0.137623	 0.799592	 -0.536999	 0.230966	 1
1463623939.248	 8	 -0.004447	 -0.003000	 0.015017	 2.530478	 -1.173875	 -0.072862	 -0.137568	 0.799613	 -0.536934	 0.231075	 1
1463623939.258	 8	 -0.005486	 0.001273	 0.017197	 2.530306	 -1.173682	 -0.073066	 -0.137506	 0.799658	 -0.536869	 0.231108	 1
1463623939.268	 8	 -0.007622	 0.000224	 0.018271	 2.530168	 -1.173541	 -0.073245	 -0.137453	 0.799691	 -0.536825	 0.231130	 1
1463623939.278	 8	 -0.010866	 -0.008284	 0.017154	 2.529839	 -1.173430	 -0.073530	 -0.137412	 0.799701	 -0.536791	 0.231195	 1
1463623939.288	 8	 -0.013057	 -0.018930	 0.014941	 2.529399	 -1.173365	 -0.073800	 -0.137414	 0.799685	 -0.536767	 0.231305	 1
1463623939.298	 8	 -0.016296	 -0.027430	 0.014891	 2.528844	 -1.173246	 -0.074090	 -0.137431	 0.799672	 -0.536715	 0.231461	 1
1463623939.308	 8	 -0.018463	 -0.033814	 0.013784	 2.528330	 -1.173107	 -0.074269	 -0.137478	 0.799661	 -0.536646	 0.231632	 1
1463623939.318	 8	 -0.020592	 -0.033800	 0.014867	 2.528080	 -1.172932	 -0.074193	 -0.137552	 0.799672	 -0.536551	 0.231769	 1
1463623939.328	 8	 -0.020590	 -0.030632	 0.011699	 2.527870	 -1.172688	 -0.074092	 -0.137615	 0.799704	 -0.536429	 0.231904	 1
1463623939.338	 8	 -0.020589	 -0.028520	 0.009587	 2.527735	 -1.172457	 -0.073943	 -0.137680	 0.799738	 -0.536312	 0.232021	 1
1463623939.348	 8	 -0.021650	 -0.026397	 0.008550	 2.527620	 -1.172240	 -0.073788	 -0.137743	 0.799770	 -0.536200	 0.232130	 1
1463623939.368	 9	 -0.021683	 -0.033843	 0.008480	 2.527132	 -1.171891	 -0.073622	 -0.137894	 0.799792	 -0.536010	 0.232404	 1
1463623939.378	 9	 -0.023846	 -0.039163	 0.007383	 2.526953	 -1.171711	 -0.073407	 -0.138003	 0.799803	 -0.535902	 0.232551	 1
1463623939.388	 9	 -0.023856	 -0.041290	 0.007363	 2.526696	 -1.171519	 -0.073240	 -0.138112	 0.799811	 -0.535789	 0.232717	 1
1463623939.398	 9	 -0.024924	 -0.042343	 0.008428	 2.526481	 -1.171254	 -0.073014	 -0.138225	 0.799839	 -0.535643	 0.232890	 1
1463623939.408	 9	 -0.024910	 -0.039152	 0.008458	 2.526309	 -1.170999	 -0.072771	 -0.138333	 0.799868	 -0.535503	 0.233049	 1
1463623939.418	 9	 -0.023823	 -0.034901	 0.008488	 2.526106	 -1.170730	 -0.072605	 -0.138417	 0.799903	 -0.535364	 0.233200	 1
1463623939.428	 9	 -0.020596	 -0.029592	 0.008510	 2.525949	 -1.170484	 -0.072440	 -0.138492	 0.799936	 -0.535236	 0.233332	 1
1463623939.438	 9	 -0.020585	 -0.025353	 0.006418	 2.525730	 -1.170244	 -0.072377	 -0.138543	 0.799968	 -0.535120	 0.233460	 1
1463623939.448	 9	 -0.016284	 -0.021088	 0.009618	 2.525564	 -1.170024	 -0.072320	 -0.138580	 0.800002	 -0.535015	 0.233563	 1
1463623939.458	 9	 -0.017351	 -0.021085	 0.009628	 2.525381	 -1.169802	 -0.072289	 -0.138612	 0.800036	 -0.534911	 0.233666	 1
1463623939.468	 9	 -0.015226	 -0.021107	 0.007478	 2.525190	 -1.169604	 -0.072263	 -0.138646	 0.800063	 -0.534816	 0.233769	 1
1463623939.478	 9	 -0.015226	 -0.020051	 0.006422	 2.525144	 -1.169430	 -0.072102	 -0.138699	 0.800091	 -0.534726	 0.233847	 1
1463623939.488	 9	 -0.015216	 -0.017924	 0.006442	 2.525025	 -1.169286	 -0.072034	 -0.138739	 0.800110	 -0.534653	 0.233927	 1
1463623939.498	 9	 -0.014129	 -0.014728	 0.007527	 2.525021	 -1.169167	 -0.071892	 -0.138781	 0.800130	 -0.534589	 0.233979	 1
1463623939.508	 9	 -0.016271	 -0.015793	 0.006469	 2.524926	 -1.169054	 -0.071823	 -0.138818	 0.800143	 -0.534530	 0.234046	 1
1463623939.518	 9	 -0.014147	 -0.018983	 0.007486	 2.524823	 -1.168943	 -0.071735	 -0.138866	 0.800154	 -0.534469	 0.234122	 1
1463623939.528	 9	 -0.014157	 -0.021110	 0.007465	 2.524709	 -1.168830	 -0.071644	 -0.138918	 0.800163	 -0.534406	 0.234203	 1
1463623939.538	 9	 -0.013099	 -0.023240	 0.007436	 2.524486	 -1.168728	 -0.071633	 -0.138968	 0.800163	 -0.534349	 0.234305	 1
1463623939.548	 9	 -0.013108	 -0.024312	 0.006359	 2.524390	 -1.168644	 -0.071494	 -0.139037	 0.800164	 -0.534293	 0.234389	 1
1463623939.558	 9	 -0.012035	 -0.023251	 0.006359	 2.524254	 -1.168528	 -0.071397	 -0.139097	 0.800171	 -0.534226	 0.234480	 1
1463623939.568	 9	 -0.014159	 -0.021117	 0.006396	 2.524193	 -1.168438	 -0.071245	 -0.139161	 0.800177	 -0.534169	 0.234554	 1
1463623939.578	 9	 -0.016293	 -0.020055	 0.005358	 2.524164	 -1.168277	 -0.071062	 -0.139220	 0.800202	 -0.534082	 0.234630	 1
1463623939.588	 9	 -0.018421	 -0.018985	 0.005386	 2.524094	 -1.168146	 -0.070929	 -0.139275	 0.800218	 -0.534010	 0.234706	 1
1463623939.598	 9	 -0.019501	 -0.020061	 0.003253	 2.524107	 -1.168026	 -0.070706	 -0.139344	 0.800235	 -0.533937	 0.234772	 1
1463623939.608	 9	 -0.021664	 -0.026436	 0.003212	 2.524068	 -1.167907	 -0.070477	 -0.139430	 0.800245	 -0.533861	 0.234861	 1
1463623939.618	 9	 -0.022760	 -0.032815	 0.003162	 2.523951	 -1.167786	 -0.070257	 -0.139533	 0.800247	 -0.533779	 0.234978	 1
1463623939.628	 9	 -0.022788	 -0.037085	 0.000990	 2.523878	 -1.167673	 -0.069950	 -0.139660	 0.800247	 -0.533693	 0.235101	 1
1463623939.638	 9	 -0.022798	 -0.040269	 0.002025	 2.523797	 -1.167526	 -0.069608	 -0.139798	 0.800251	 -0.533589	 0.235239	 1
1463623939.648	 9	 -0.023878	 -0.041344	 -0.000109	 2.523841	 -1.167422	 -0.069134	 -0.139962	 0.800250	 -0.533495	 0.235357	 1
1463623939.658	 9	 -0.027111	 -0.044556	 -0.004376	 2.524038	 -1.167281	 -0.068489	 -0.140148	 0.800264	 -0.533378	 0.235464	 1
1463623939.668	 9	 -0.027140	 -0.047769	 -0.007606	 2.524443	 -1.167146	 -0.067583	 -0.140384	 0.800283	 -0.533246	 0.235557	 1
1463623939.678	 9	 -0.022821	 -0.041361	 -0.002255	 2.524436	 -1.166930	 -0.067124	 -0.140541	 0.800306	 -0.533107	 0.235703	 1
1463623939.688	 9	 -0.019573	 -0.034958	 0.002041	 2.524204	 -1.166699	 -0.066952	 -0.140640	 0.800326	 -0.532979	 0.235864	 1
1463623939.698	 9	 -0.015292	 -0.034948	 0.005202	 2.523895	 -1.166487	 -0.066904	 -0.140713	 0.800341	 -0.532868	 0.236021	 1
1463623939.708	 9	 -0.013162	 -0.036018	 0.005173	 2.523642	 -1.166392	 -0.066796	 -0.140811	 0.800328	 -0.532800	 0.236160	 1
1463623939.718	 9	 -0.014229	 -0.036015	 0.005182	 2.523458	 -1.166292	 -0.066613	 -0.140919	 0.800319	 -0.532725	 0.236293	 1
1463623939.728	 9	 -0.015299	 -0.034963	 0.003068	 2.523290	 -1.166180	 -0.066419	 -0.141027	 0.800315	 -0.532647	 0.236422	 1
1463623939.738	 9	 -0.017406	 -0.027527	 0.001025	 2.523150	 -1.166043	 -0.066247	 -0.141114	 0.800321	 -0.532562	 0.236538	 1
1463623939.748	 9	 -0.017380	 -0.021152	 0.000018	 2.523168	 -1.165915	 -0.065977	 -0.141200	 0.800337	 -0.532481	 0.236615	 1
1463623939.758	 9	 -0.016317	 -0.020108	 -0.002113	 2.523201	 -1.165762	 -0.065720	 -0.141273	 0.800363	 -0.532393	 0.236684	 1
1463623939.768	 9	 -0.012053	 -0.021184	 -0.002161	 2.523265	 -1.165669	 -0.065430	 -0.141360	 0.800374	 -0.532326	 0.236745	 1
1463623939.778	 9	 -0.008857	 -0.020145	 -0.004312	 2.523479	 -1.165603	 -0.065013	 -0.141461	 0.800387	 -0.532266	 0.236777	 1
1463623939.788	 9	 -0.007781	 -0.020132	 -0.002190	 2.523463	 -1.165576	 -0.064817	 -0.141540	 0.800378	 -0.532231	 0.236838	 1
1463623939.798	 9	 -0.007767	 -0.017997	 -0.001105	 2.523512	 -1.165524	 -0.064576	 -0.141616	 0.800380	 -0.532186	 0.236888	 1
1463623939.808	 9	 -0.010948	 -0.013733	 -0.001038	 2.523570	 -1.165448	 -0.064360	 -0.141677	 0.800391	 -0.532134	 0.236929	 1
1463623939.818	 9	 -0.013082	 -0.012670	 -0.002077	 2.523801	 -1.165411	 -0.064000	 -0.141755	 0.800402	 -0.532093	 0.236936	 1
1463623939.828	 9	 -0.013071	 -0.011598	 -0.001002	 2.523901	 -1.165365	 -0.063760	 -0.141818	 0.800409	 -0.532054	 0.236964	 1
1463623939.838	 9	 -0.014139	 -0.012651	 0.000062	 2.524030	 -1.165311	 -0.063495	 -0.141882	 0.800419	 -0.532010	 0.236989	 1
1463623939.848	 9	 -0.012005	 -0.013713	 0.001098	 2.524140	 -1.165232	 -0.063244	 -0.141943	 0.800435	 -0.531957	 0.237019	 1
1463623939.858	 9	 -0.012019	 -0.016904	 0.001068	 2.524114	 -1.165221	 -0.063088	 -0.142010	 0.800424	 -0.531932	 0.237071	 1
1463623939.868	 9	 -0.010955	 -0.016915	 -0.000009	 2.524190	 -1.165228	 -0.062841	 -0.142090	 0.800414	 -0.531911	 0.237106	 1
1463623939.878	 9	 -0.010888	 -0.016755	 -0.000006	 2.524122	 -1.165196	 -0.062723	 -0.142151	 0.800405	 -0.531879	 0.237168	 1
1463623939.888	 9	 -0.010901	 -0.018890	 -0.001092	 2.524037	 -1.165167	 -0.062603	 -0.142218	 0.800394	 -0.531848	 0.237237	 1
1463623939.898	 9	 -0.010896	 -0.017826	 -0.001082	 2.524029	 -1.165124	 -0.062415	 -0.142289	 0.800391	 -0.531808	 0.237294	 1
1463623939.908	 9	 -0.010909	 -0.019962	 -0.002168	 2.523973	 -1.165100	 -0.062253	 -0.142366	 0.800379	 -0.531775	 0.237362	 1
1463623939.918	 9	 -0.009837	 -0.019957	 -0.001112	 2.523825	 -1.165074	 -0.062177	 -0.142432	 0.800363	 -0.531745	 0.237444	 1
1463623939.928	 9	 -0.013066	 -0.024218	 -0.003255	 2.523716	 -1.165064	 -0.062023	 -0.142521	 0.800341	 -0.531716	 0.237529	 1
1463623939.938	 9	 -0.012031	 -0.030611	 -0.004390	 2.523587	 -1.165082	 -0.061834	 -0.142634	 0.800308	 -0.531691	 0.237629	 1
1463623939.948	 9	 -0.014169	 -0.030613	 -0.005437	 2.523481	 -1.165056	 -0.061602	 -0.142751	 0.800285	 -0.531646	 0.237736	 1
1463623939.958	 9	 -0.015230	 -0.029546	 -0.005419	 2.523539	 -1.165014	 -0.061227	 -0.142880	 0.800277	 -0.531588	 0.237817	 1
1463623939.968	 9	 -0.015207	 -0.026339	 -0.003259	 2.523761	 -1.164955	 -0.060722	 -0.143015	 0.800282	 -0.531521	 0.237867	 1
1463623939.978	 9	 -0.016255	 -0.022080	 -0.003212	 2.524111	 -1.164871	 -0.060140	 -0.143144	 0.800304	 -0.531444	 0.237890	 1
1463623939.988	 9	 -0.014111	 -0.019959	 -0.003212	 2.524335	 -1.164778	 -0.059703	 -0.143247	 0.800323	 -0.531371	 0.237926	 1
1463623939.998	 9	 -0.013030	 -0.018883	 -0.001081	 2.524471	 -1.164697	 -0.059371	 -0.143332	 0.800336	 -0.531309	 0.237967	 1
1463623940.008	 9	 -0.013026	 -0.018875	 -0.000016	 2.524555	 -1.164614	 -0.059089	 -0.143412	 0.800347	 -0.531249	 0.238016	 1
1463623940.018	 9	 -0.015170	 -0.020996	 -0.000018	 2.524610	 -1.164563	 -0.058816	 -0.143500	 0.800348	 -0.531200	 0.238071	 1
1463623940.028	 9	 -0.012042	 -0.023226	 -0.000077	 2.524640	 -1.164504	 -0.058557	 -0.143587	 0.800348	 -0.531148	 0.238134	 1
1463623940.038	 9	 -0.016325	 -0.026404	 -0.000070	 2.524616	 -1.164428	 -0.058315	 -0.143680	 0.800347	 -0.531088	 0.238215	 1
1463623940.048	 9	 -0.015254	 -0.027456	 0.002042	 2.524573	 -1.164336	 -0.058080	 -0.143774	 0.800349	 -0.531020	 0.238303	 1
1463623940.058	 9	 -0.013120	 -0.027462	 0.002023	 2.524495	 -1.164228	 -0.057878	 -0.143861	 0.800353	 -0.530948	 0.238399	 1
1463623940.068	 9	 -0.013094	 -0.021088	 0.001016	 2.524452	 -1.164121	 -0.057684	 -0.143935	 0.800362	 -0.530879	 0.238477	 1
1463623940.078	 9	 -0.012012	 -0.018956	 0.002092	 2.524480	 -1.164040	 -0.057456	 -0.144008	 0.800369	 -0.530822	 0.238534	 1
1463623940.088	 9	 -0.012016	 -0.017907	 -0.000030	 2.524443	 -1.163959	 -0.057297	 -0.144071	 0.800375	 -0.530768	 0.238599	 1
1463623940.098	 9	 -0.010938	 -0.015783	 -0.000020	 2.524488	 -1.163880	 -0.057079	 -0.144135	 0.800385	 -0.530714	 0.238646	 1
1463623940.108	 9	 -0.009865	 -0.014723	 -0.000020	 2.524435	 -1.163845	 -0.056964	 -0.144191	 0.800379	 -0.530683	 0.238702	 1
1463623940.118	 9	 -0.010930	 -0.012608	 -0.002123	 2.524499	 -1.163821	 -0.056748	 -0.144257	 0.800377	 -0.530652	 0.238735	 1
1463623940.128	 9	 -0.009860	 -0.013659	 -0.000011	 2.524608	 -1.163778	 -0.056496	 -0.144323	 0.800383	 -0.530613	 0.238763	 1
1463623940.138	 9	 -0.009859	 -0.013659	 -0.000012	 2.524667	 -1.163750	 -0.056287	 -0.144388	 0.800382	 -0.530581	 0.238797	 1
1463623940.148	 9	 -0.011984	 -0.012581	 0.001081	 2.524792	 -1.163703	 -0.056032	 -0.144450	 0.800391	 -0.530541	 0.238819	 1
1463623940.158	 9	 -0.010927	 -0.014711	 0.001051	 2.524937	 -1.163677	 -0.055740	 -0.144525	 0.800394	 -0.530506	 0.238841	 1
1463623940.168	 9	 -0.009874	 -0.016849	 -0.000045	 2.525115	 -1.163649	 -0.055405	 -0.144608	 0.800398	 -0.530468	 0.238861	 1
1463623940.178	 9	 -0.009899	 -0.022167	 -0.000096	 2.525123	 -1.163621	 -0.055190	 -0.144688	 0.800391	 -0.530432	 0.238918	 1
1463623940.188	 9	 -0.008925	 -0.022324	 -0.000130	 2.525175	 -1.163621	 -0.054908	 -0.144788	 0.800376	 -0.530402	 0.238972	 1
1463623940.198	 9	 -0.008895	 -0.015943	 -0.000071	 2.525106	 -1.163534	 -0.054788	 -0.144842	 0.800382	 -0.530349	 0.239040	 1
1463623940.208	 9	 -0.011022	 -0.011705	 -0.003210	 2.525178	 -1.163437	 -0.054575	 -0.144895	 0.800400	 -0.530290	 0.239076	 1
1463623940.218	 9	 -0.009945	 -0.010637	 -0.002143	 2.525197	 -1.163351	 -0.054433	 -0.144935	 0.800415	 -0.530240	 0.239114	 1
1463623940.228	 9	 -0.007821	 -0.012770	 -0.002182	 2.525339	 -1.163322	 -0.054157	 -0.145004	 0.800419	 -0.530206	 0.239133	 1
1463623940.238	 9	 -0.007811	 -0.010643	 -0.002163	 2.525453	 -1.163276	 -0.053925	 -0.145061	 0.800428	 -0.530169	 0.239154	 1
1463623940.248	 9	 -0.006730	 -0.008511	 -0.001087	 2.525597	 -1.163202	 -0.053687	 -0.145108	 0.800447	 -0.530121	 0.239166	 1
1463623940.258	 9	 -0.006744	 -0.009590	 -0.003229	 2.525699	 -1.163209	 -0.053490	 -0.145161	 0.800443	 -0.530108	 0.239176	 1
1463623940.268	 9	 -0.006738	 -0.008526	 -0.003220	 2.525781	 -1.163222	 -0.053311	 -0.145212	 0.800436	 -0.530098	 0.239190	 1
1463623940.278	 9	 -0.006752	 -0.010661	 -0.004305	 2.525787	 -1.163231	 -0.053193	 -0.145259	 0.800426	 -0.530087	 0.239218	 1
1463623940.288	 9	 -0.004621	 -0.010676	 -0.005390	 2.525777	 -1.163283	 -0.053073	 -0.145317	 0.800403	 -0.530093	 0.239249	 1
1463623940.298	 9	 -0.004630	 -0.011747	 -0.006466	 2.525849	 -1.163317	 -0.052866	 -0.145385	 0.800388	 -0.530087	 0.239272	 1
1463623940.308	 9	 -0.004625	 -0.011739	 -0.005401	 2.525952	 -1.163372	 -0.052641	 -0.145455	 0.800369	 -0.530089	 0.239285	 1
1463623940.318	 9	 -0.004610	 -0.008548	 -0.005372	 2.526122	 -1.163373	 -0.052379	 -0.145515	 0.800370	 -0.530070	 0.239287	 1
1463623940.328	 9	 -0.007791	 -0.004284	 -0.005305	 2.526311	 -1.163407	 -0.052127	 -0.145570	 0.800366	 -0.530068	 0.239274	 1
1463623940.338	 9	 -0.006734	 -0.006414	 -0.005336	 2.526609	 -1.163446	 -0.051771	 -0.145639	 0.800365	 -0.530062	 0.239246	 1
1463623940.348	 9	 -0.004600	 -0.007476	 -0.004299	 2.526749	 -1.163467	 -0.051550	 -0.145693	 0.800361	 -0.530054	 0.239247	 1
1463623940.358	 9	 -0.002461	 -0.007475	 -0.003253	 2.526918	 -1.163509	 -0.051304	 -0.145752	 0.800352	 -0.530054	 0.239240	 1
1463623940.368	 9	 -0.000411	 -0.008684	 -0.000119	 2.527012	 -1.163504	 -0.051132	 -0.145796	 0.800352	 -0.530038	 0.239249	 1
1463623940.378	 9	 0.002798	 -0.009734	 0.003040	 2.527067	 -1.163549	 -0.051012	 -0.145835	 0.800338	 -0.530045	 0.239254	 1
1463623940.388	 9	 0.001754	 -0.006524	 0.005209	 2.527128	 -1.163549	 -0.050908	 -0.145861	 0.800338	 -0.530037	 0.239257	 1
1463623940.398	 9	 0.000697	 -0.004393	 0.005238	 2.527075	 -1.163570	 -0.050928	 -0.145870	 0.800328	 -0.530044	 0.239271	 1
1463623940.408	 9	 -0.001437	 -0.003330	 0.004200	 2.527083	 -1.163557	 -0.050900	 -0.145877	 0.800330	 -0.530036	 0.239277	 1
1463623940.418	 9	 -0.003555	 0.000923	 0.003192	 2.527026	 -1.163516	 -0.050953	 -0.145865	 0.800338	 -0.530022	 0.239289	 1
1463623940.428	 9	 -0.002486	 0.003032	 0.001071	 2.527077	 -1.163501	 -0.050928	 -0.145860	 0.800346	 -0.530017	 0.239277	 1
1463623940.438	 9	 0.000740	 0.007284	 0.002148	 2.527108	 -1.163472	 -0.050957	 -0.145836	 0.800359	 -0.530011	 0.239259	 1
1463623940.448	 9	 0.002875	 0.008334	 0.001073	 2.527231	 -1.163476	 -0.050933	 -0.145813	 0.800371	 -0.530019	 0.239216	 1
1463623940.458	 9	 0.005009	 0.008328	 0.001054	 2.527265	 -1.163531	 -0.050993	 -0.145788	 0.800365	 -0.530050	 0.239181	 1
1463623940.468	 9	 0.007139	 0.008314	 -0.000031	 2.527336	 -1.163617	 -0.051021	 -0.145769	 0.800354	 -0.530093	 0.239138	 1
1463623940.478	 9	 0.010359	 0.011503	 0.001036	 2.527399	 -1.163701	 -0.051083	 -0.145739	 0.800344	 -0.530138	 0.239088	 1
1463623940.488	 9	 0.005024	 0.010463	 0.002138	 2.527418	 -1.163816	 -0.051189	 -0.145707	 0.800324	 -0.530198	 0.239042	 1
1463623940.498	 9	 0.001819	 0.010465	 0.001100	 2.527450	 -1.163892	 -0.051268	 -0.145677	 0.800314	 -0.530240	 0.239001	 1
1463623940.508	 9	 -0.003530	 0.007289	 0.001116	 2.527368	 -1.164000	 -0.051413	 -0.145655	 0.800287	 -0.530294	 0.238986	 1
1463623940.518	 9	 -0.007871	 0.001944	 0.002140	 2.527356	 -1.164154	 -0.051447	 -0.145665	 0.800248	 -0.530358	 0.238967	 1
1463623940.528	 9	 -0.008973	 -0.006554	 0.003136	 2.527408	 -1.164180	 -0.051351	 -0.145693	 0.800241	 -0.530361	 0.238969	 1
1463623940.538	 9	 -0.008994	 -0.012921	 0.005208	 2.527312	 -1.164176	 -0.051334	 -0.145725	 0.800229	 -0.530350	 0.239013	 1
1463623940.548	 9	 -0.007933	 -0.016099	 0.007299	 2.527235	 -1.164151	 -0.051268	 -0.145768	 0.800221	 -0.530327	 0.239063	 1
1463623940.558	 9	 -0.011154	 -0.020344	 0.007287	 2.527028	 -1.164100	 -0.051284	 -0.145810	 0.800211	 -0.530293	 0.239146	 1
1463623940.568	 9	 -0.010100	 -0.021427	 0.005137	 2.526720	 -1.164038	 -0.051363	 -0.145852	 0.800196	 -0.530256	 0.239255	 1
1463623940.578	 9	 -0.007975	 -0.023561	 0.005098	 2.526520	 -1.163970	 -0.051326	 -0.145911	 0.800187	 -0.530210	 0.239350	 1
1463623940.588	 9	 -0.009041	 -0.021446	 0.002995	 2.526429	 -1.163866	 -0.051192	 -0.145974	 0.800193	 -0.530146	 0.239432	 1
1463623940.598	 9	 -0.007988	 -0.022528	 0.000844	 2.526282	 -1.163826	 -0.051116	 -0.146038	 0.800180	 -0.530110	 0.239515	 1
1463623940.608	 9	 -0.010100	 -0.017211	 -0.000154	 2.526225	 -1.163788	 -0.050985	 -0.146101	 0.800174	 -0.530075	 0.239576	 1
1463623940.618	 9	 -0.010108	 -0.017227	 -0.002286	 2.526181	 -1.163780	 -0.050838	 -0.146170	 0.800160	 -0.530051	 0.239633	 1
1463623940.628	 9	 -0.012260	 -0.019363	 -0.004419	 2.526205	 -1.163778	 -0.050603	 -0.146258	 0.800146	 -0.530024	 0.239686	 1
1463623940.638	 9	 -0.015466	 -0.020417	 -0.004401	 2.526249	 -1.163745	 -0.050331	 -0.146350	 0.800140	 -0.529982	 0.239744	 1
1463623940.648	 9	 -0.014404	 -0.021484	 -0.004421	 2.526351	 -1.163713	 -0.049988	 -0.146456	 0.800135	 -0.529935	 0.239797	 1
1463623940.658	 9	 -0.013356	 -0.024686	 -0.005526	 2.526461	 -1.163681	 -0.049618	 -0.146571	 0.800130	 -0.529886	 0.239854	 1
1463623940.668	 9	 -0.013374	 -0.022600	 -0.005533	 2.526643	 -1.163656	 -0.049194	 -0.146689	 0.800127	 -0.529839	 0.239896	 1
1463623940.678	 9	 -0.013361	 -0.021521	 -0.003392	 2.526874	 -1.163588	 -0.048739	 -0.146801	 0.800139	 -0.529774	 0.239930	 1
1463623940.688	 9	 -0.012285	 -0.020452	 -0.002326	 2.526994	 -1.163497	 -0.048400	 -0.146893	 0.800152	 -0.529706	 0.239980	 1
1463623940.698	 9	 -0.013337	 -0.017258	 -0.002288	 2.527182	 -1.163451	 -0.048031	 -0.146984	 0.800159	 -0.529658	 0.240007	 1
1463623940.708	 9	 -0.013332	 -0.016194	 -0.002279	 2.527323	 -1.163357	 -0.047717	 -0.147060	 0.800177	 -0.529593	 0.240042	 1
1463623940.718	 9	 -0.011202	 -0.017264	 -0.002308	 2.527338	 -1.163314	 -0.047517	 -0.147131	 0.800176	 -0.529553	 0.240093	 1
1463623940.728	 9	 -0.010159	 -0.022586	 -0.002366	 2.527187	 -1.163333	 -0.047427	 -0.147209	 0.800146	 -0.529539	 0.240176	 1
1463623940.738	 9	 -0.013383	 -0.025783	 -0.004500	 2.527101	 -1.163330	 -0.047233	 -0.147309	 0.800122	 -0.529508	 0.240262	 1
1463623940.748	 9	 -0.014469	 -0.028979	 -0.005586	 2.527057	 -1.163333	 -0.046965	 -0.147428	 0.800096	 -0.529474	 0.240350	 1
1463623940.758	 9	 -0.014479	 -0.031106	 -0.005606	 2.527040	 -1.163303	 -0.046657	 -0.147552	 0.800079	 -0.529424	 0.240441	 1
1463623940.768	 9	 -0.015525	 -0.026849	 -0.005558	 2.527015	 -1.163285	 -0.046376	 -0.147669	 0.800060	 -0.529381	 0.240527	 1
1463623940.778	 9	 -0.016573	 -0.024702	 -0.003398	 2.527125	 -1.163230	 -0.045995	 -0.147785	 0.800060	 -0.529321	 0.240590	 1
1463623940.788	 9	 -0.018688	 -0.021497	 -0.002285	 2.527301	 -1.163124	 -0.045583	 -0.147889	 0.800078	 -0.529243	 0.240638	 1
1463623940.798	 9	 -0.018683	 -0.020433	 -0.002275	 2.527459	 -1.163049	 -0.045194	 -0.147993	 0.800087	 -0.529178	 0.240684	 1
1463623940.808	 9	 -0.020818	 -0.022539	 -0.000145	 2.527550	 -1.162966	 -0.044853	 -0.148094	 0.800095	 -0.529111	 0.240746	 1
1463623940.818	 9	 -0.022978	 -0.028907	 0.000879	 2.527600	 -1.162871	 -0.044509	 -0.148206	 0.800100	 -0.529035	 0.240826	 1
1463623940.828	 9	 -0.021961	 -0.039568	 0.001813	 2.527569	 -1.162788	 -0.044148	 -0.148348	 0.800091	 -0.528957	 0.240941	 1
1463623940.838	 9	 -0.023038	 -0.042749	 0.002858	 2.527390	 -1.162651	 -0.043883	 -0.148483	 0.800085	 -0.528857	 0.241095	 1
1463623940.848	 9	 -0.025188	 -0.046989	 0.003902	 2.527260	 -1.162538	 -0.043535	 -0.148642	 0.800073	 -0.528761	 0.241250	 1
1463623940.858	 9	 -0.026269	 -0.050177	 0.003881	 2.527193	 -1.162426	 -0.043102	 -0.148818	 0.800061	 -0.528659	 0.241401	 1
1463623940.868	 9	 -0.027336	 -0.050173	 0.003889	 2.527122	 -1.162262	 -0.042660	 -0.148992	 0.800062	 -0.528535	 0.241562	 1
1463623940.878	 9	 -0.027369	 -0.054451	 0.000652	 2.526983	 -1.162090	 -0.042230	 -0.149178	 0.800058	 -0.528405	 0.241746	 1
1463623940.888	 9	 -0.029489	 -0.052309	 0.001755	 2.527035	 -1.161870	 -0.041634	 -0.149374	 0.800077	 -0.528250	 0.241903	 1
1463623940.898	 9	 -0.030554	 -0.050194	 -0.000348	 2.527011	 -1.161668	 -0.041120	 -0.149559	 0.800088	 -0.528106	 0.242067	 1
1463623940.908	 9	 -0.031636	 -0.052326	 -0.001425	 2.527036	 -1.161475	 -0.040548	 -0.149756	 0.800098	 -0.527961	 0.242225	 1
1463623940.918	 9	 -0.032689	 -0.051243	 0.000725	 2.527008	 -1.161273	 -0.040027	 -0.149945	 0.800108	 -0.527816	 0.242393	 1
1463623940.928	 9	 -0.034837	 -0.053372	 -0.000342	 2.526969	 -1.161115	 -0.039509	 -0.150141	 0.800105	 -0.527688	 0.242559	 1
1463623940.938	 9	 -0.034867	 -0.060810	 0.000654	 2.526877	 -1.160925	 -0.038979	 -0.150353	 0.800103	 -0.527541	 0.242753	 1
1463623940.948	 9	 -0.038092	 -0.064007	 -0.001480	 2.526891	 -1.160684	 -0.038297	 -0.150590	 0.800116	 -0.527364	 0.242949	 1
1463623940.958	 9	 -0.040230	 -0.064008	 -0.002528	 2.526911	 -1.160404	 -0.037600	 -0.150827	 0.800139	 -0.527169	 0.243150	 1
1463623940.968	 9	 -0.039186	 -0.066161	 -0.005755	 2.527035	 -1.160176	 -0.036784	 -0.151091	 0.800151	 -0.526989	 0.243336	 1
1463623940.978	 9	 -0.040287	 -0.072548	 -0.006872	 2.527158	 -1.160005	 -0.035906	 -0.151387	 0.800144	 -0.526824	 0.243534	 1
1463623940.988	 9	 -0.042438	 -0.077869	 -0.009054	 2.527152	 -1.159863	 -0.035084	 -0.151699	 0.800118	 -0.526666	 0.243766	 1
1463623940.998	 9	 -0.045679	 -0.085312	 -0.010162	 2.527115	 -1.159680	 -0.034213	 -0.152033	 0.800094	 -0.526485	 0.244026	 1
1463623941.008	 9	 -0.047836	 -0.089568	 -0.011249	 2.527117	 -1.159510	 -0.033258	 -0.152393	 0.800066	 -0.526301	 0.244292	 1
1463623941.018	 9	 -0.048918	 -0.093812	 -0.010214	 2.526969	 -1.159335	 -0.032394	 -0.152754	 0.800027	 -0.526115	 0.244594	 1
1463623941.028	 9	 -0.055336	 -0.098040	 -0.009133	 2.526941	 -1.159106	 -0.031379	 -0.153138	 0.800005	 -0.525897	 0.244893	 1
1463623941.038	 9	 -0.054287	 -0.101242	 -0.010239	 2.527013	 -1.158836	 -0.030226	 -0.153545	 0.799996	 -0.525654	 0.245191	 1
1463623941.048	 9	 -0.051112	 -0.108681	 -0.008205	 2.526933	 -1.158565	 -0.029163	 -0.153955	 0.799975	 -0.525410	 0.245526	 1
1463623941.058	 9	 -0.053257	 -0.111858	 -0.007151	 2.526844	 -1.158246	 -0.028088	 -0.154368	 0.799963	 -0.525144	 0.245873	 1
1463623941.068	 9	 -0.053278	 -0.116112	 -0.007192	 2.526754	 -1.157884	 -0.026965	 -0.154793	 0.799959	 -0.524855	 0.246235	 1
1463623941.078	 9	 -0.056488	 -0.117174	 -0.008241	 2.526755	 -1.157566	 -0.025742	 -0.155241	 0.799947	 -0.524578	 0.246584	 1
1463623941.088	 9	 -0.053299	 -0.117206	 -0.011468	 2.526734	 -1.157313	 -0.024521	 -0.155702	 0.799915	 -0.524325	 0.246934	 1
1463623941.098	 9	 -0.051151	 -0.110861	 -0.015692	 2.526812	 -1.157082	 -0.023252	 -0.156159	 0.799885	 -0.524082	 0.247256	 1
1463623941.108	 9	 -0.047905	 -0.097081	 -0.020922	 2.526985	 -1.156893	 -0.021991	 -0.156593	 0.799857	 -0.523865	 0.247534	 1
1463623941.118	 9	 -0.043593	 -0.084361	 -0.025105	 2.527276	 -1.156697	 -0.020733	 -0.156995	 0.799845	 -0.523654	 0.247764	 1
1463623941.128	 9	 -0.036076	 -0.073755	 -0.026137	 2.527325	 -1.156590	 -0.019816	 -0.157335	 0.799807	 -0.523501	 0.247993	 1
1463623941.138	 9	 -0.028567	 -0.067380	 -0.024011	 2.527250	 -1.156469	 -0.019100	 -0.157625	 0.799773	 -0.523358	 0.248221	 1
1463623941.148	 9	 -0.026418	 -0.065252	 -0.022942	 2.527038	 -1.156319	 -0.018557	 -0.157878	 0.799743	 -0.523214	 0.248461	 1
1463623941.158	 9	 -0.022138	 -0.067354	 -0.017669	 2.526682	 -1.156216	 -0.018158	 -0.158118	 0.799694	 -0.523095	 0.248717	 1
1463623941.168	 9	 -0.022114	 -0.070509	 -0.014516	 2.526336	 -1.156067	 -0.017733	 -0.158359	 0.799655	 -0.522956	 0.248979	 1
1463623941.178	 9	 -0.025292	 -0.067293	 -0.012327	 2.526105	 -1.155879	 -0.017232	 -0.158595	 0.799636	 -0.522800	 0.249219	 1
1463623941.188	 9	 -0.031679	 -0.063027	 -0.013297	 2.526145	 -1.155655	 -0.016504	 -0.158847	 0.799641	 -0.522623	 0.249412	 1
1463623941.198	 9	 -0.030612	 -0.061974	 -0.014363	 2.526271	 -1.155503	 -0.015703	 -0.159115	 0.799632	 -0.522473	 0.249584	 1
1463623941.208	 9	 -0.027396	 -0.060905	 -0.012250	 2.526300	 -1.155377	 -0.015013	 -0.159367	 0.799614	 -0.522339	 0.249764	 1
1463623941.218	 9	 -0.025267	 -0.061975	 -0.012279	 2.526363	 -1.155281	 -0.014297	 -0.159624	 0.799589	 -0.522217	 0.249933	 1
1463623941.228	 9	 -0.024215	 -0.064113	 -0.013374	 2.526419	 -1.155173	 -0.013566	 -0.159888	 0.799566	 -0.522087	 0.250111	 1
1463623941.238	 9	 -0.027437	 -0.069414	 -0.012330	 2.526365	 -1.155075	 -0.012891	 -0.160160	 0.799531	 -0.521958	 0.250318	 1
1463623941.248	 9	 -0.029608	 -0.072637	 -0.017670	 2.526428	 -1.154985	 -0.012048	 -0.160468	 0.799494	 -0.521822	 0.250520	 1
1463623941.258	 9	 -0.031728	 -0.070496	 -0.016566	 2.526498	 -1.154819	 -0.011207	 -0.160765	 0.799479	 -0.521656	 0.250725	 1
1463623941.268	 9	 -0.032800	 -0.070500	 -0.017623	 2.526613	 -1.154603	 -0.010317	 -0.161063	 0.799478	 -0.521468	 0.250930	 1
1463623941.278	 9	 -0.032799	 -0.070500	 -0.017622	 2.526527	 -1.154431	 -0.009618	 -0.161343	 0.799455	 -0.521304	 0.251161	 1
1463623941.288	 9	 -0.033863	 -0.071546	 -0.015491	 2.526442	 -1.154233	 -0.008910	 -0.161623	 0.799439	 -0.521130	 0.251396	 1
1463623941.298	 9	 -0.032801	 -0.072613	 -0.015510	 2.526380	 -1.154042	 -0.008182	 -0.161905	 0.799422	 -0.520957	 0.251627	 1
1463623941.308	 9	 -0.031714	 -0.069417	 -0.014423	 2.526231	 -1.153851	 -0.007553	 -0.162171	 0.799401	 -0.520789	 0.251866	 1
1463623941.318	 9	 -0.027375	 -0.061958	 -0.014403	 2.526075	 -1.153714	 -0.006989	 -0.162420	 0.799371	 -0.520651	 0.252087	 1
1463623941.328	 9	 -0.024120	 -0.053436	 -0.011155	 2.525892	 -1.153570	 -0.006547	 -0.162626	 0.799350	 -0.520523	 0.252287	 1
1463623941.338	 9	 -0.020884	 -0.047056	 -0.010057	 2.525754	 -1.153431	 -0.006149	 -0.162803	 0.799336	 -0.520406	 0.252457	 1
1463623941.348	 9	 -0.014461	 -0.042821	 -0.010073	 2.525581	 -1.153372	 -0.005842	 -0.162963	 0.799304	 -0.520330	 0.252612	 1
1463623941.358	 9	 -0.010178	 -0.041755	 -0.007969	 2.525345	 -1.153372	 -0.005622	 -0.163112	 0.799257	 -0.520282	 0.252763	 1
1463623941.368	 9	 -0.009116	 -0.042821	 -0.007989	 2.525229	 -1.153402	 -0.005287	 -0.163280	 0.799207	 -0.520243	 0.252894	 1
1463623941.378	 9	 -0.008050	 -0.043881	 -0.006942	 2.525051	 -1.153395	 -0.005007	 -0.163438	 0.799163	 -0.520190	 0.253038	 1
1463623941.388	 9	 -0.009102	 -0.040686	 -0.006904	 2.525038	 -1.153372	 -0.004594	 -0.163603	 0.799134	 -0.520128	 0.253153	 1
1463623941.398	 9	 -0.015515	 -0.042794	 -0.006868	 2.525091	 -1.153334	 -0.004101	 -0.163782	 0.799110	 -0.520054	 0.253263	 1
1463623941.408	 9	 -0.017658	 -0.043859	 -0.007926	 2.525213	 -1.153305	 -0.003530	 -0.163974	 0.799086	 -0.519980	 0.253365	 1
1463623941.418	 9	 -0.020870	 -0.045976	 -0.007919	 2.525367	 -1.153219	 -0.002897	 -0.164176	 0.799076	 -0.519878	 0.253476	 1
1463623941.428	 9	 -0.024072	 -0.045966	 -0.007892	 2.525571	 -1.153139	 -0.002213	 -0.164386	 0.799067	 -0.519776	 0.253579	 1
1463623941.438	 9	 -0.021954	 -0.050219	 -0.006885	 2.525757	 -1.153024	 -0.001514	 -0.164602	 0.799063	 -0.519657	 0.253696	 1
1463623941.448	 9	 -0.023045	 -0.053422	 -0.009037	 2.525845	 -1.152902	 -0.000871	 -0.164821	 0.799053	 -0.519534	 0.253837	 1
1463623941.458	 9	 -0.024135	 -0.055569	 -0.012245	 2.526066	 -1.152748	 -0.000071	 -0.165064	 0.799054	 -0.519389	 0.253970	 1
1463623941.468	 9	 -0.024083	 -0.053428	 -0.014367	 2.526327	 -1.152660	 0.000763	 -0.165318	 0.799042	 -0.519270	 0.254089	 1
1463623941.478	 9	 -0.024057	 -0.045997	 -0.016431	 2.526728	 -1.152563	 0.001679	 -0.165567	 0.799042	 -0.519148	 0.254175	 1
1463623941.488	 9	 -0.020839	 -0.040703	 -0.018542	 2.527205	 -1.152501	 0.002603	 -0.165805	 0.799042	 -0.519045	 0.254229	 1
1463623941.498	 9	 -0.019764	 -0.036475	 -0.021710	 2.527601	 -1.152527	 0.003418	 -0.166031	 0.799018	 -0.518985	 0.254281	 1
1463623941.508	 9	 -0.019761	 -0.032251	 -0.025934	 2.528200	 -1.152583	 0.004401	 -0.166275	 0.798998	 -0.518932	 0.254291	 1
1463623941.518	 9	 -0.013321	 -0.022713	 -0.028033	 2.528633	 -1.152694	 0.005156	 -0.166478	 0.798961	 -0.518917	 0.254305	 1
1463623941.528	 9	 -0.012218	 -0.014214	 -0.029030	 2.529176	 -1.152756	 0.005928	 -0.166654	 0.798950	 -0.518888	 0.254284	 1
1463623941.538	 9	 -0.008999	 -0.008921	 -0.031140	 2.529763	 -1.152875	 0.006674	 -0.166815	 0.798932	 -0.518890	 0.254233	 1
1463623941.548	 9	 -0.012206	 -0.009975	 -0.031122	 2.530324	 -1.152947	 0.007402	 -0.166969	 0.798923	 -0.518873	 0.254192	 1
1463623941.558	 9	 -0.014380	 -0.017422	 -0.032238	 2.530897	 -1.153013	 0.008199	 -0.167147	 0.798913	 -0.518846	 0.254165	 1
1463623941.568	 9	 -0.020853	 -0.032295	 -0.032320	 2.531361	 -1.153092	 0.009043	 -0.167373	 0.798880	 -0.518809	 0.254192	 1
1463623941.578	 9	 -0.021954	 -0.038681	 -0.033436	 2.531916	 -1.153144	 0.010047	 -0.167637	 0.798853	 -0.518749	 0.254227	 1
1463623941.588	 9	 -0.026251	 -0.042938	 -0.035570	 2.532649	 -1.153236	 0.011281	 -0.167951	 0.798819	 -0.518690	 0.254246	 1
1463623941.598	 9	 -0.029487	 -0.042990	 -0.044070	 2.533628	 -1.153279	 0.012782	 -0.168302	 0.798806	 -0.518599	 0.254241	 1
1463623941.608	 9	 -0.037030	 -0.049427	 -0.054723	 2.534894	 -1.153385	 0.014632	 -0.168726	 0.798783	 -0.518513	 0.254207	 1
1463623941.618	 9	 -0.043480	 -0.050548	 -0.065336	 2.536390	 -1.153498	 0.016765	 -0.169204	 0.798764	 -0.518413	 0.254154	 1
1463623941.628	 9	 -0.044485	 -0.048321	 -0.073839	 2.538023	 -1.153571	 0.019044	 -0.169700	 0.798759	 -0.518291	 0.254087	 1
1463623941.638	 9	 -0.048796	 -0.048386	 -0.084460	 2.539780	 -1.153695	 0.021484	 -0.170234	 0.798742	 -0.518181	 0.254007	 1
1463623941.648	 9	 -0.050901	 -0.038837	 -0.088617	 2.541771	 -1.153829	 0.024078	 -0.170770	 0.798739	 -0.518075	 0.253874	 1
1463623941.658	 9	 -0.049855	 -0.039935	 -0.092899	 2.543610	 -1.154071	 0.026547	 -0.171309	 0.798698	 -0.518016	 0.253761	 1
1463623941.668	 9	 -0.049872	 -0.035750	 -0.102452	 2.545616	 -1.154402	 0.029174	 -0.171878	 0.798640	 -0.517987	 0.253616	 1
1463623941.678	 9	 -0.050990	 -0.031624	 -0.120523	 2.548168	 -1.154814	 0.032310	 -0.172518	 0.798585	 -0.517975	 0.253378	 1
1463623941.688	 9	 -0.037144	 -0.018007	 -0.143966	 2.551405	 -1.155518	 0.036030	 -0.173248	 0.798488	 -0.518067	 0.252998	 1
1463623941.698	 9	 -0.016843	 0.013611	 -0.175824	 2.555473	 -1.156583	 0.040321	 -0.174031	 0.798349	 -0.518307	 0.252410	 1
1463623941.708	 9	 -0.006149	 0.053691	 -0.218178	 2.560626	 -1.157991	 0.045354	 -0.174866	 0.798186	 -0.518689	 0.251559	 1
1463623941.718	 9	 0.006660	 0.090565	 -0.261647	 2.567285	 -1.159776	 0.051550	 -0.175812	 0.798006	 -0.519214	 0.250388	 1
1463623941.728	 9	 0.027014	 0.126501	 -0.284941	 2.574801	 -1.161770	 0.058262	 -0.176757	 0.797822	 -0.519843	 0.249001	 1
1463623941.738	 9	 0.051818	 0.181740	 -0.284645	 2.582476	 -1.163513	 0.064630	 -0.177489	 0.797744	 -0.520435	 0.247484	 1
1463623941.748	 9	 0.057289	 0.231531	 -0.309810	 2.590656	 -1.165709	 0.071048	 -0.178150	 0.797594	 -0.521258	 0.245758	 1
1463623941.758	 9	 0.059650	 0.283607	 -0.314676	 2.599370	 -1.167911	 0.077512	 -0.178681	 0.797491	 -0.522135	 0.243838	 1
1463623941.768	 9	 0.064092	 0.322926	 -0.317546	 2.608131	 -1.169982	 0.083610	 -0.179031	 0.797449	 -0.523016	 0.241820	 1
1463623941.778	 9	 0.067349	 0.319856	 -0.299481	 2.615949	 -1.171756	 0.088739	 -0.179203	 0.797451	 -0.523817	 0.239948	 1
1463623941.788	 9	 0.064304	 0.304333	 -0.240975	 2.621927	 -1.173004	 0.092129	 -0.179107	 0.797523	 -0.524452	 0.238386	 1
1463623941.798	 9	 0.058213	 0.274244	 -0.158059	 2.625457	 -1.173776	 0.093269	 -0.178708	 0.797630	 -0.524945	 0.237237	 1
1463623941.808	 9	 0.041892	 0.166159	 -0.108827	 2.627281	 -1.174628	 0.093544	 -0.178418	 0.797590	 -0.525421	 0.236538	 1
1463623941.818	 9	 0.048212	 0.122751	 -0.078375	 2.628699	 -1.175328	 0.093829	 -0.178224	 0.797541	 -0.525798	 0.236011	 1
1463623941.828	 9	 0.054562	 0.098383	 -0.062669	 2.629996	 -1.176044	 0.094194	 -0.178095	 0.797466	 -0.526161	 0.235553	 1
1463623941.838	 9	 0.063089	 0.097286	 -0.063820	 2.631876	 -1.176900	 0.095142	 -0.178057	 0.797369	 -0.526563	 0.235010	 1
1463623941.848	 9	 0.063066	 0.100408	 -0.073383	 2.633598	 -1.177802	 0.095925	 -0.177998	 0.797255	 -0.526990	 0.234484	 1
1463623941.858	 9	 0.055647	 0.117395	 -0.080621	 2.635719	 -1.178681	 0.097013	 -0.177953	 0.797166	 -0.527408	 0.233881	 1
1463623941.868	 9	 0.048269	 0.137619	 -0.081434	 2.638190	 -1.179511	 0.098250	 -0.177870	 0.797117	 -0.527820	 0.233181	 1
1463623941.878	 9	 0.050503	 0.151503	 -0.072800	 2.641288	 -1.180338	 0.099909	 -0.177787	 0.797103	 -0.528237	 0.232344	 1
1463623941.888	 9	 0.051619	 0.148425	 -0.056852	 2.643502	 -1.181084	 0.100670	 -0.177572	 0.797088	 -0.528648	 0.231627	 1
1463623941.898	 9	 0.049444	 0.128322	 -0.043165	 2.645236	 -1.181746	 0.101095	 -0.177341	 0.797068	 -0.529021	 0.231016	 1
1463623941.908	 9	 0.045044	 0.096463	 -0.038094	 2.646578	 -1.182343	 0.101416	 -0.177167	 0.797031	 -0.529345	 0.230538	 1
1463623941.918	 9	 0.042819	 0.070995	 -0.030851	 2.647200	 -1.182912	 0.101301	 -0.177006	 0.796956	 -0.529645	 0.230232	 1
1463623941.928	 9	 0.040587	 0.042352	 -0.021506	 2.647718	 -1.183386	 0.101334	 -0.176923	 0.796882	 -0.529879	 0.230012	 1
1463623941.938	 9	 0.036256	 0.027489	 -0.019475	 2.648039	 -1.183805	 0.101338	 -0.176877	 0.796804	 -0.530076	 0.229865	 1
1463623941.948	 9	 0.031024	 0.012978	 -0.013152	 2.648162	 -1.184167	 0.101297	 -0.176859	 0.796722	 -0.530239	 0.229788	 1
1463623941.958	 9	 0.025688	 0.005610	 -0.004649	 2.648162	 -1.184543	 0.101214	 -0.176859	 0.796625	 -0.530400	 0.229748	 1
1463623941.968	 9	 0.022585	 0.018454	 0.005089	 2.647955	 -1.184737	 0.100849	 -0.176786	 0.796580	 -0.530503	 0.229724	 1
1463623941.978	 9	 0.023785	 0.041890	 0.010626	 2.647834	 -1.184884	 0.100335	 -0.176626	 0.796571	 -0.530611	 0.229629	 1
1463623941.988	 9	 0.028175	 0.067405	 0.010825	 2.647889	 -1.185065	 0.099737	 -0.176389	 0.796581	 -0.530757	 0.229440	 1
1463623941.998	 9	 0.030451	 0.090853	 0.018483	 2.648169	 -1.185324	 0.099096	 -0.176082	 0.796598	 -0.530960	 0.229146	 1
1463623942.008	 9	 0.028400	 0.099446	 0.029239	 2.648209	 -1.185479	 0.098078	 -0.175680	 0.796650	 -0.531143	 0.228852	 1
1463623942.018	 9	 0.025235	 0.096357	 0.042027	 2.647926	 -1.185629	 0.096739	 -0.175235	 0.796693	 -0.531332	 0.228602	 1
1463623942.028	 9	 0.020929	 0.074156	 0.058910	 2.647133	 -1.185626	 0.095045	 -0.174770	 0.796752	 -0.531455	 0.228468	 1
1463623942.038	 9	 0.022991	 0.040275	 0.080957	 2.645734	 -1.185517	 0.092992	 -0.174314	 0.796801	 -0.531523	 0.228485	 1
1463623942.048	 9	 0.019627	 -0.001137	 0.089127	 2.643694	 -1.185347	 0.090711	 -0.173932	 0.796813	 -0.531538	 0.228700	 1
1463623942.058	 9	 0.006768	 -0.020175	 0.098653	 2.641627	 -1.185070	 0.088592	 -0.173613	 0.796837	 -0.531489	 0.228974	 1
1463623942.068	 9	 -0.010387	 -0.054014	 0.118736	 2.639201	 -1.184535	 0.086409	 -0.173339	 0.796895	 -0.531312	 0.229388	 1
1463623942.078	 9	 -0.031778	 -0.071962	 0.128345	 2.636704	 -1.183732	 0.084367	 -0.173115	 0.797006	 -0.531006	 0.229883	 1
1463623942.088	 9	 -0.055304	 -0.081472	 0.127393	 2.634624	 -1.182851	 0.082824	 -0.172970	 0.797141	 -0.530647	 0.230349	 1
1463623942.098	 9	 -0.074585	 -0.093144	 0.123186	 2.633016	 -1.181898	 0.081884	 -0.172934	 0.797298	 -0.530231	 0.230792	 1
1463623942.108	 9	 -0.094997	 -0.112313	 0.111458	 2.631713	 -1.180930	 0.081468	 -0.173022	 0.797448	 -0.529775	 0.231253	 1
1463623942.118	 9	 -0.111988	 -0.123638	 0.096612	 2.630800	 -1.179884	 0.081608	 -0.173222	 0.797617	 -0.529256	 0.231710	 1
1463623942.128	 9	 -0.129290	 -0.157747	 0.079389	 2.629667	 -1.178945	 0.081843	 -0.173527	 0.797721	 -0.528751	 0.232275	 1
1463623942.138	 9	 -0.142156	 -0.159928	 0.066690	 2.628885	 -1.177683	 0.082645	 -0.173935	 0.797905	 -0.528079	 0.232867	 1
1463623942.148	 9	 -0.148688	 -0.158035	 0.031591	 2.629008	 -1.176587	 0.084332	 -0.174472	 0.798071	 -0.527450	 0.233321	 1
1463623942.158	 9	 -0.147648	 -0.163364	 0.030466	 2.628545	 -1.175443	 0.085644	 -0.175010	 0.798214	 -0.526792	 0.233913	 1
1463623942.168	 9	 -0.148099	 -0.063122	 0.066572	 2.628065	 -1.173867	 0.086167	 -0.175197	 0.798542	 -0.526050	 0.234325	 1
1463623942.178	 9	 -0.137787	 0.068891	 0.087961	 2.628441	 -1.172224	 0.086116	 -0.174923	 0.799037	 -0.525423	 0.234249	 1
1463623942.188	 9	 -0.099357	 0.029783	 0.137353	 2.627736	 -1.170668	 0.084780	 -0.174428	 0.799493	 -0.524887	 0.234262	 1
1463623942.208	 10	 -0.020167	 -0.169193	 0.158256	 2.620157	 -1.169515	 0.078822	 -0.173924	 0.799434	 -0.524459	 0.235791	 1
1463623942.218	 10	 0.023437	 -0.219155	 0.179793	 2.614286	 -1.168763	 0.074761	 -0.173766	 0.799297	 -0.524124	 0.237115	 1
1463623942.238	 11	 0.076405	 -0.127397	 0.240936	 2.600253	 -1.167414	 0.063179	 -0.172679	 0.798990	 -0.523744	 0.239768	 1
1463623942.248	 11	 0.125853	 -0.095256	 0.293027	 2.592418	 -1.167025	 0.055656	 -0.171685	 0.798801	 -0.523816	 0.240952	 1
1463623942.268	 12	 0.026819	 -0.107166	 0.313022	 2.575898	 -1.164671	 0.039946	 -0.169480	 0.798769	 -0.523362	 0.243592	 1
1463623942.278	 12	 0.016892	 -0.144635	 0.275456	 2.568909	 -1.163807	 0.033768	 -0.168744	 0.798668	 -0.523178	 0.244827	 1
1463623942.298	 13	 0.110288	 -0.240747	 0.259893	 2.553160	 -1.162127	 0.021105	 -0.167612	 0.798237	 -0.522739	 0.247927	 1
1463623942.308	 13	 0.181769	 -0.285280	 0.307882	 2.542714	 -1.161842	 0.012708	 -0.166958	 0.797714	 -0.522796	 0.249922	 1
1463623942.328	 14	 0.290768	 -0.548790	 0.388677	 2.512137	 -1.162173	 -0.010831	 -0.165619	 0.795718	 -0.523363	 0.255919	 1
1463623942.338	 14	 0.320149	 -0.265412	 0.463530	 2.496294	 -1.162064	 -0.024490	 -0.164321	 0.794835	 -0.523770	 0.258652	 1
1463623942.358	 15	 0.299277	 -0.118094	 0.676104	 2.462421	 -1.159895	 -0.057912	 -0.159619	 0.793676	 -0.524536	 0.263557	 1
1463623942.368	 15	 0.217688	 -0.075670	 0.773127	 2.444894	 -1.156967	 -0.076143	 -0.156542	 0.793536	 -0.524421	 0.266039	 1
1463623942.378	 15	 0.135527	 -0.116536	 0.824619	 2.427548	 -1.152859	 -0.093993	 -0.153367	 0.793626	 -0.523867	 0.268700	 1
1463623942.388	 15	 0.068373	 -0.145724	 0.879286	 2.410409	 -1.147794	 -0.111169	 -0.150219	 0.793863	 -0.522926	 0.271595	 1
1463623942.398	 15	 0.041561	 -0.042718	 0.992383	 2.393319	 -1.141634	 -0.129114	 -0.146529	 0.794358	 -0.521734	 0.274441	 1
1463623942.408	 15	 0.049032	 0.086793	 1.107560	 2.376229	 -1.134549	 -0.148565	 -0.142030	 0.795098	 -0.520465	 0.277060	 1
1463623942.418	 15	 0.071216	 0.164178	 1.227452	 2.358587	 -1.126662	 -0.169696	 -0.136802	 0.795966	 -0.519166	 0.279625	 1
1463623942.428	 15	 0.065591	 0.219387	 1.358038	 2.340288	 -1.117714	 -0.192288	 -0.130894	 0.796963	 -0.517717	 0.282287	 1
1463623942.438	 15	 0.038470	 0.229037	 1.504373	 2.321429	 -1.107387	 -0.215890	 -0.124380	 0.798110	 -0.515963	 0.285189	 1
1463623942.448	 15	 0.007889	 0.194994	 1.637543	 2.301873	 -1.095640	 -0.240105	 -0.117420	 0.799334	 -0.513844	 0.288517	 1
1463623942.458	 15	 -0.026287	 0.107522	 1.735076	 2.281856	 -1.082653	 -0.264226	 -0.110245	 0.800553	 -0.511361	 0.292353	 1
1463623942.468	 15	 -0.066442	 -0.059131	 1.764782	 2.261455	 -1.068808	 -0.287275	 -0.103291	 0.801620	 -0.508532	 0.296869	 1
1463623942.478	 15	 -0.146696	 -0.291106	 1.717495	 2.241322	 -1.054589	 -0.307643	 -0.097134	 0.802447	 -0.505331	 0.302133	 1
1463623942.488	 15	 -0.230772	 -0.433682	 1.676401	 2.222298	 -1.039978	 -0.324994	 -0.091697	 0.803168	 -0.501719	 0.307881	 1
1463623942.498	 15	 -0.313504	 -0.519871	 1.637952	 2.204586	 -1.025048	 -0.339722	 -0.086795	 0.803841	 -0.497765	 0.313904	 1
1463623942.508	 15	 -0.428475	 -0.431496	 1.604605	 2.190125	 -1.009629	 -0.351391	 -0.082093	 0.804811	 -0.493389	 0.319541	 1
1463623942.518	 15	 -0.450157	 -0.285645	 1.614677	 2.177974	 -0.993910	 -0.361842	 -0.077149	 0.806004	 -0.488875	 0.324664	 1
1463623942.528	 15	 -0.449516	 0.032750	 1.666660	 2.169015	 -0.977742	 -0.372023	 -0.071345	 0.807643	 -0.484332	 0.328702	 1
1463623942.538	 15	 -0.345369	 0.112678	 1.730442	 2.160722	 -0.961410	 -0.383441	 -0.064768	 0.809326	 -0.480005	 0.332254	 1
1463623942.548	 15	 -0.222175	 0.003674	 1.709172	 2.150602	 -0.945681	 -0.396297	 -0.058121	 0.810508	 -0.476134	 0.336147	 1
1463623942.558	 15	 -0.157085	 -0.131334	 1.598641	 2.139485	 -0.931089	 -0.408844	 -0.052045	 0.811191	 -0.472664	 0.340366	 1
1463623942.568	 15	 -0.089385	 -0.405560	 1.504910	 2.126717	 -0.917601	 -0.420808	 -0.046803	 0.811274	 -0.469527	 0.345236	 1
1463623942.578	 15	 -0.006683	 -0.699755	 1.450296	 2.110788	 -0.904950	 -0.432914	 -0.042392	 0.810554	 -0.466727	 0.351242	 1
1463623942.588	 15	 0.045552	 -0.832706	 1.324975	 2.093682	 -0.893399	 -0.444455	 -0.038704	 0.809321	 -0.464290	 0.357682	 1
1463623942.598	 15	 0.065192	 -0.851845	 1.187143	 2.077190	 -0.883086	 -0.454784	 -0.035634	 0.807880	 -0.462175	 0.363943	 1
1463623942.608	 15	 0.097878	 -0.890622	 1.133209	 2.060936	 -0.873517	 -0.464533	 -0.032895	 0.806263	 -0.460298	 0.370113	 1
1463623942.618	 15	 0.094231	 -1.040103	 1.198993	 2.043494	 -0.863511	 -0.474349	 -0.030243	 0.804365	 -0.458334	 0.376846	 1
1463623942.628	 15	 0.084759	 -1.234744	 1.195133	 2.024509	 -0.853137	 -0.483806	 -0.027940	 0.802084	 -0.456229	 0.384363	 1
1463623942.638	 15	 -0.032957	 -1.576479	 1.250529	 2.003813	 -0.842151	 -0.491764	 -0.026404	 0.799377	 -0.453679	 0.393032	 1
1463623942.648	 15	 -0.217942	 -1.848661	 1.483009	 1.981117	 -0.828418	 -0.498090	 -0.025128	 0.796371	 -0.449909	 0.403416	 1
1463623942.658	 15	 -0.311323	 -1.876950	 1.650883	 1.958504	 -0.812407	 -0.503285	 -0.023532	 0.793382	 -0.445207	 0.414466	 1
1463623942.668	 15	 -0.263095	 -1.890427	 1.718547	 1.935973	 -0.795461	 -0.508541	 -0.021507	 0.790266	 -0.440281	 0.425641	 1
1463623942.678	 15	 -0.122365	 -2.085998	 1.647293	 1.911447	 -0.779224	 -0.514583	 -0.019702	 0.786423	 -0.435833	 0.437265	 1
1463623942.688	 15	 0.095679	 -2.379875	 1.544609	 1.883154	 -0.764480	 -0.522100	 -0.018471	 0.781381	 -0.432279	 0.449709	 1
1463623942.698	 15	 0.385553	 -2.647004	 1.492706	 1.850360	 -0.751026	 -0.532206	 -0.017495	 0.774950	 -0.429827	 0.463029	 1
1463623942.708	 15	 0.703021	 -2.771249	 1.501575	 1.813793	 -0.738177	 -0.545655	 -0.016149	 0.767287	 -0.428483	 0.476878	 1
1463623942.718	 15	 0.894271	 -2.978961	 1.536345	 1.774057	 -0.725202	 -0.561506	 -0.014477	 0.758501	 -0.427857	 0.491329	 1
1463623942.728	 15	 0.908017	 -3.235303	 1.540234	 1.732033	 -0.711684	 -0.577120	 -0.013178	 0.748740	 -0.427222	 0.506652	 1
1463623942.738	 15	 0.847152	 -3.448028	 1.515338	 1.688978	 -0.697810	 -0.591158	 -0.012535	 0.738252	 -0.426304	 0.522582	 1
1463623942.748	 15	 0.731081	 -3.610508	 1.503114	 1.645779	 -0.683505	 -0.602887	 -0.012579	 0.727244	 -0.424862	 0.538935	 1
1463623942.758	 15	 0.551254	 -3.665800	 1.432759	 1.603792	 -0.669212	 -0.611556	 -0.013409	 0.716071	 -0.422777	 0.555268	 1
1463623942.768	 15	 0.302377	 -3.571632	 1.264215	 1.564807	 -0.656034	 -0.616430	 -0.015260	 0.705262	 -0.420097	 0.570869	 1
1463623942.778	 15	 -0.027488	 -3.409526	 1.044787	 1.530202	 -0.644753	 -0.616770	 -0.018355	 0.695302	 -0.416737	 0.585276	 1
1463623942.788	 15	 -0.403211	 -3.244060	 0.830056	 1.500599	 -0.635198	 -0.611982	 -0.022692	 0.686480	 -0.412375	 0.598479	 1
1463623942.798	 15	 -0.764997	 -3.132288	 0.696773	 1.475685	 -0.626633	 -0.602181	 -0.028013	 0.678788	 -0.406757	 0.610746	 1
1463623942.808	 15	 -1.132530	 -3.196311	 0.666339	 1.451944	 -0.621090	 -0.588557	 -0.035361	 0.671219	 -0.400680	 0.622632	 1
1463623942.818	 15	 -1.486729	 -3.397381	 0.663290	 1.429157	 -0.616102	 -0.570385	 -0.044094	 0.663664	 -0.393176	 0.634837	 1
1463623942.828	 15	 -1.784338	 -3.595398	 0.664039	 1.406350	 -0.612066	 -0.548412	 -0.054263	 0.655791	 -0.384495	 0.647424	 1
1463623942.838	 15	 -1.971800	 -3.741656	 0.660047	 1.383438	 -0.608935	 -0.523749	 -0.065466	 0.647551	 -0.374917	 0.660174	 1
1463623942.848	 15	 -2.075817	 -3.823457	 0.631416	 1.360192	 -0.606727	 -0.497738	 -0.077290	 0.638871	 -0.364838	 0.672877	 1
1463623942.858	 15	 -2.164449	 -3.835956	 0.632071	 1.337302	 -0.605316	 -0.470599	 -0.089472	 0.629969	 -0.354299	 0.685278	 1
1463623942.868	 15	 -2.218373	 -3.788489	 0.702257	 1.315166	 -0.604084	 -0.442608	 -0.101610	 0.620985	 -0.343247	 0.697305	 1
1463623942.878	 15	 -2.273477	 -3.665471	 0.923429	 1.294758	 -0.601759	 -0.413401	 -0.113150	 0.612259	 -0.331282	 0.708934	 1
1463623942.888	 15	 -2.285383	 -3.546926	 1.278468	 1.276300	 -0.596818	 -0.382780	 -0.123519	 0.603906	 -0.317976	 0.720369	 1
1463623942.898	 15	 -2.232306	 -3.434048	 1.611575	 1.259233	 -0.588745	 -0.351368	 -0.132406	 0.595819	 -0.303405	 0.731719	 1
1463623942.908	 15	 -2.141109	 -3.309170	 1.854937	 1.243140	 -0.578479	 -0.319961	 -0.140007	 0.587934	 -0.288093	 0.742788	 1
1463623942.918	 15	 -2.028564	 -3.149549	 2.057937	 1.227992	 -0.566293	 -0.288987	 -0.146315	 0.580313	 -0.272288	 0.753451	 1
1463623942.928	 15	 -1.907040	 -2.975364	 2.278179	 1.214010	 -0.552072	 -0.258517	 -0.151247	 0.573093	 -0.256029	 0.763635	 1
1463623942.938	 15	 -1.734883	 -2.853096	 2.487773	 1.200476	 -0.535623	 -0.228953	 -0.154717	 0.566082	 -0.239390	 0.773503	 1
1463623942.948	 15	 -1.531045	 -2.743126	 2.627702	 1.186909	 -0.517288	 -0.200848	 -0.156768	 0.559161	 -0.222662	 0.783061	 1
1463623942.958	 15	 -1.336639	 -2.512604	 2.667588	 1.173838	 -0.497938	 -0.174623	 -0.157585	 0.552569	 -0.206308	 0.792005	 1
1463623942.968	 15	 -1.094368	 -2.262470	 2.644360	 1.161834	 -0.478084	 -0.150768	 -0.157214	 0.546579	 -0.190737	 0.800097	 1
1463623942.978	 15	 -0.801394	 -2.126264	 2.624958	 1.149711	 -0.457564	 -0.129911	 -0.155565	 0.540784	 -0.176107	 0.807674	 1
1463623942.988	 15	 -0.521487	 -2.087507	 2.655920	 1.136617	 -0.435959	 -0.111825	 -0.152614	 0.534836	 -0.162194	 0.815078	 1
1463623942.998	 15	 -0.301282	 -2.096974	 2.759425	 1.122414	 -0.412787	 -0.095536	 -0.148426	 0.528603	 -0.148509	 0.822492	 1
1463623943.008	 15	 -0.100687	 -2.214668	 2.890870	 1.106544	 -0.387771	 -0.080413	 -0.143070	 0.521801	 -0.134721	 0.830124	 1
1463623943.018	 15	 0.034876	 -2.277220	 2.973303	 1.089033	 -0.361434	 -0.065976	 -0.136851	 0.514362	 -0.120806	 0.837920	 1
1463623943.028	 15	 0.143313	 -2.174066	 3.014883	 1.071787	 -0.334356	 -0.052013	 -0.129932	 0.507041	 -0.106983	 0.845329	 1
1463623943.038	 15	 0.261053	 -2.041961	 2.945812	 1.055173	 -0.307263	 -0.038891	 -0.122521	 0.499997	 -0.093630	 0.852189	 1
1463623943.048	 15	 0.490904	 -2.061754	 2.802946	 1.037905	 -0.280554	 -0.027906	 -0.114545	 0.492745	 -0.081335	 0.858759	 1
1463623943.058	 15	 0.777034	 -2.158145	 2.680193	 1.018722	 -0.253709	 -0.019674	 -0.105691	 0.484764	 -0.070207	 0.865392	 1
1463623943.068	 15	 1.036564	 -2.230061	 2.548306	 0.997960	 -0.226661	 -0.013973	 -0.095975	 0.476142	 -0.060210	 0.872039	 1
1463623943.078	 15	 1.240416	 -2.307423	 2.376356	 0.975827	 -0.199874	 -0.010511	 -0.085676	 0.466902	 -0.051389	 0.878648	 1
1463623943.088	 15	 1.365169	 -2.378460	 2.164653	 0.952531	 -0.174011	 -0.008832	 -0.075208	 0.457066	 -0.043748	 0.885167	 1
1463623943.098	 15	 1.430181	 -2.457719	 1.968315	 0.928273	 -0.149398	 -0.008397	 -0.064860	 0.446679	 -0.037151	 0.891567	 1
1463623943.108	 15	 1.455824	 -2.567235	 1.837050	 0.902882	 -0.125762	 -0.008564	 -0.054679	 0.435639	 -0.031260	 0.897915	 1
1463623943.118	 15	 1.448596	 -2.695250	 1.781568	 0.876211	 -0.102700	 -0.008565	 -0.044665	 0.423861	 -0.025647	 0.904262	 1
1463623943.128	 15	 1.402538	 -2.724950	 1.774232	 0.849005	 -0.080029	 -0.007783	 -0.034851	 0.411676	 -0.020020	 0.910443	 1
1463623943.138	 15	 1.349708	 -2.608897	 1.769377	 0.822633	 -0.057753	 -0.006003	 -0.025265	 0.399727	 -0.014294	 0.916174	 1
1463623943.148	 15	 1.378713	 -2.220751	 1.624596	 0.799203	 -0.036211	 -0.004201	 -0.015861	 0.389022	 -0.008978	 0.921048	 1
1463623943.158	 15	 1.488029	 -1.663625	 1.347467	 0.781214	 -0.015953	 -0.004699	 -0.006481	 0.380754	 -0.005209	 0.924639	 1
1463623943.168	 15	 1.453756	 -1.532109	 1.428921	 0.765922	 0.004252	 -0.005189	 0.002941	 0.373661	 -0.001612	 0.927559	 1
1463623943.178	 15	 1.350202	 -1.700595	 1.620092	 0.749436	 0.025108	 -0.003068	 0.012244	 0.365963	 0.003167	 0.930543	 1
1463623943.188	 15	 1.289986	 -2.021639	 1.618695	 0.729838	 0.045730	 0.000136	 0.021333	 0.356782	 0.008223	 0.933908	 1
1463623943.198	 15	 1.234339	 -2.215612	 1.541705	 0.707814	 0.065422	 0.003689	 0.030039	 0.346436	 0.013064	 0.937502	 1
1463623943.208	 15	 1.195232	 -2.245220	 1.403221	 0.685140	 0.083891	 0.007033	 0.038316	 0.335750	 0.017395	 0.941011	 1
1463623943.218	 15	 1.214848	 -2.249638	 1.242079	 0.662460	 0.101300	 0.009521	 0.046330	 0.325013	 0.020960	 0.944341	 1
1463623943.228	 15	 1.303787	 -2.320773	 1.148987	 0.639297	 0.118527	 0.011070	 0.054492	 0.313988	 0.023857	 0.947562	 1
1463623943.238	 15	 1.426016	 -2.412716	 1.133213	 0.615266	 0.136485	 0.012074	 0.063163	 0.302486	 0.026388	 0.950693	 1
1463623943.248	 15	 1.522822	 -2.464171	 1.116970	 0.590619	 0.155212	 0.012809	 0.072312	 0.290629	 0.028672	 0.953668	 1
1463623943.258	 15	 1.567497	 -2.458240	 1.072940	 0.565897	 0.174208	 0.013375	 0.081673	 0.278682	 0.030684	 0.956412	 1
1463623943.268	 15	 1.563376	 -2.369381	 1.004528	 0.541836	 0.192904	 0.013846	 0.090944	 0.267008	 0.032411	 0.958846	 1
1463623943.278	 15	 1.555060	 -2.251907	 0.920433	 0.518994	 0.211073	 0.014110	 0.100011	 0.255879	 0.033810	 0.960927	 1
1463623943.288	 15	 1.581897	 -2.161013	 0.851770	 0.497241	 0.228962	 0.014031	 0.109001	 0.245227	 0.034863	 0.962687	 1
1463623943.298	 15	 1.641689	 -2.106298	 0.794207	 0.476240	 0.247017	 0.013537	 0.118132	 0.234884	 0.035586	 0.964162	 1
1463623943.308	 15	 1.683406	 -2.048245	 0.749621	 0.455902	 0.265239	 0.012745	 0.127380	 0.224814	 0.036034	 0.965368	 1
1463623943.318	 15	 1.680568	 -1.951619	 0.726030	 0.436588	 0.283219	 0.011967	 0.136502	 0.215217	 0.036348	 0.966296	 1
1463623943.328	 15	 1.654270	 -1.866486	 0.720640	 0.419656	 0.298878	 0.011105	 0.144472	 0.206776	 0.036381	 0.966979	 1
1463623943.338	 15	 1.611843	 -1.806839	 0.715167	 0.401660	 0.316286	 0.011135	 0.153220	 0.197850	 0.036802	 0.967484	 1
1463623943.348	 15	 1.559766	 -1.739864	 0.689599	 0.384040	 0.333354	 0.011545	 0.161768	 0.189134	 0.037249	 0.967818	 1
1463623943.358	 15	 1.498020	 -1.668761	 0.642839	 0.366997	 0.349834	 0.012124	 0.170012	 0.180720	 0.037623	 0.967998	 1
1463623943.378	 16	 1.404101	 -1.554615	 0.505104	 0.334784	 0.380614	 0.012862	 0.185460	 0.164800	 0.037742	 0.967998	 1
1463623943.388	 16	 1.381756	 -1.484833	 0.438805	 0.319824	 0.395200	 0.012691	 0.192817	 0.157359	 0.037402	 0.967812	 1
1463623943.398	 16	 1.346762	 -1.406294	 0.401473	 0.305703	 0.409374	 0.012371	 0.199965	 0.150318	 0.036933	 0.967499	 1
1463623943.408	 16	 1.278792	 -1.329575	 0.393187	 0.292238	 0.422934	 0.012307	 0.206778	 0.143631	 0.036512	 0.967099	 1
1463623943.418	 16	 1.188436	 -1.254855	 0.393603	 0.279349	 0.435660	 0.012695	 0.213140	 0.137286	 0.036224	 0.966650	 1
1463623943.428	 16	 1.098148	 -1.174739	 0.404727	 0.266998	 0.447528	 0.013624	 0.219038	 0.131280	 0.036118	 0.966170	 1
1463623943.438	 16	 1.032497	 -1.078710	 0.420047	 0.255326	 0.458730	 0.015088	 0.224567	 0.125680	 0.036233	 0.965640	 1
1463623943.448	 16	 0.982965	 -0.957217	 0.433332	 0.244565	 0.469433	 0.016998	 0.229814	 0.120591	 0.036571	 0.965042	 1
1463623943.468	 17	 0.892625	 -0.609525	 0.381934	 0.227692	 0.489383	 0.021155	 0.239510	 0.112756	 0.037715	 0.963586	 1
1463623943.478	 17	 0.847282	 -0.436520	 0.313598	 0.222211	 0.498482	 0.022650	 0.243915	 0.110220	 0.038255	 0.962753	 1
1463623943.488	 17	 0.815482	 -0.328478	 0.239212	 0.218325	 0.507073	 0.023461	 0.248082	 0.108380	 0.038612	 0.961883	 1
1463623943.498	 17	 0.795177	 -0.282072	 0.176940	 0.215315	 0.515304	 0.023645	 0.252089	 0.106891	 0.038743	 0.961002	 1
1463623943.508	 17	 0.781185	 -0.248503	 0.107034	 0.212986	 0.523238	 0.023131	 0.255975	 0.105642	 0.038598	 0.960118	 1
1463623943.518	 17	 0.766237	 -0.186258	 0.031009	 0.211599	 0.530869	 0.021820	 0.259734	 0.104744	 0.038170	 0.959224	 1
1463623943.528	 17	 0.738681	 -0.099364	 -0.024428	 0.211413	 0.538146	 0.019851	 0.263331	 0.104332	 0.037562	 0.958311	 1
1463623943.538	 17	 0.679108	 -0.066157	 -0.016140	 0.211735	 0.544905	 0.017898	 0.266666	 0.104163	 0.037005	 0.957429	 1
1463623943.548	 17	 0.591361	 -0.133823	 0.004244	 0.211391	 0.550911	 0.016386	 0.269626	 0.103734	 0.036533	 0.956664	 1
1463623943.558	 17	 0.480985	 -0.237671	 0.012764	 0.209884	 0.555913	 0.015257	 0.272105	 0.102808	 0.036037	 0.956081	 1
1463623943.568	 17	 0.372801	 -0.338258	 0.031954	 0.207083	 0.559871	 0.014590	 0.274082	 0.101335	 0.035529	 0.955692	 1
1463623943.578	 17	 0.297839	 -0.415489	 0.058532	 0.203191	 0.563060	 0.014434	 0.275683	 0.099420	 0.035074	 0.955450	 1
1463623943.588	 17	 0.263462	 -0.464307	 0.059443	 0.198602	 0.565817	 0.014514	 0.277076	 0.097210	 0.034608	 0.955291	 1
1463623943.598	 17	 0.261229	 -0.470807	 0.042350	 0.193909	 0.568466	 0.014459	 0.278425	 0.094934	 0.034052	 0.955148	 1
1463623943.608	 17	 0.284885	 -0.425209	 0.032976	 0.189638	 0.571247	 0.014229	 0.279837	 0.092835	 0.033471	 0.954962	 1
1463623943.618	 17	 0.342973	 -0.335964	 0.042893	 0.186170	 0.574538	 0.013971	 0.281478	 0.091110	 0.033006	 0.954662	 1
1463623943.628	 17	 0.397116	 -0.213431	 0.094718	 0.183700	 0.578490	 0.013990	 0.283405	 0.089895	 0.032837	 0.954213	 1
1463623943.638	 17	 0.414994	 -0.124503	 0.191308	 0.181658	 0.582830	 0.015130	 0.285458	 0.089042	 0.033275	 0.953666	 1
1463623943.648	 17	 0.409752	 -0.095846	 0.180963	 0.179865	 0.587238	 0.016479	 0.287530	 0.088340	 0.033847	 0.953088	 1
1463623943.658	 17	 0.359437	 -0.048533	 0.084857	 0.178994	 0.591122	 0.017005	 0.289373	 0.087965	 0.034134	 0.952554	 1
1463623943.668	 17	 0.270470	 -0.075346	 0.018239	 0.178533	 0.594080	 0.016700	 0.290804	 0.087675	 0.034044	 0.952149	 1
1463623943.678	 17	 0.143130	 -0.174727	 0.049330	 0.177040	 0.595875	 0.016764	 0.291681	 0.086958	 0.033932	 0.951950	 1
1463623943.688	 17	 0.028562	 -0.300567	 0.103511	 0.173806	 0.596578	 0.017728	 0.292029	 0.085553	 0.033947	 0.951970	 1
1463623943.698	 17	 -0.041083	 -0.396829	 0.147983	 0.169104	 0.596549	 0.019412	 0.292024	 0.083561	 0.034061	 0.952145	 1
1463623943.708	 17	 -0.068800	 -0.427276	 0.191638	 0.163578	 0.596202	 0.021700	 0.291859	 0.081266	 0.034330	 0.952384	 1
1463623943.718	 17	 -0.056835	 -0.402646	 0.219472	 0.157981	 0.595940	 0.024366	 0.291724	 0.078991	 0.034774	 0.952601	 1
1463623943.728	 17	 -0.032032	 -0.352688	 0.225050	 0.152765	 0.595918	 0.027121	 0.291698	 0.076909	 0.035324	 0.952759	 1
1463623943.738	 17	 -0.012451	 -0.265602	 0.215032	 0.148383	 0.596079	 0.029762	 0.291752	 0.075205	 0.035949	 0.952855	 1
1463623943.748	 17	 -0.001347	 -0.148855	 0.185115	 0.145293	 0.596333	 0.032085	 0.291842	 0.074071	 0.036613	 0.952891	 1
1463623943.758	 17	 -0.013731	 -0.029949	 0.150093	 0.143631	 0.596467	 0.034001	 0.291866	 0.073559	 0.037288	 0.952897	 1
1463623943.768	 17	 -0.050719	 0.059395	 0.135260	 0.143078	 0.596260	 0.035711	 0.291715	 0.073545	 0.038016	 0.952916	 1
1463623943.778	 17	 -0.063369	 0.090295	 0.137790	 0.142849	 0.595854	 0.037501	 0.291460	 0.073698	 0.038822	 0.952949	 1
1463623943.788	 18	 -0.103494	 0.254636	 0.050144	 0.144352	 0.595051	 0.038585	 0.291007	 0.074573	 0.039532	 0.952990	 1
1463623943.808	 18	 -0.167676	 0.315710	 -0.060634	 0.150837	 0.592134	 0.038301	 0.289498	 0.077627	 0.040243	 0.953177	 1
1463623943.818	 18	 -0.200908	 0.307099	 -0.088134	 0.154282	 0.590093	 0.037676	 0.288479	 0.079183	 0.040375	 0.953352	 1
1463623943.828	 18	 -0.230856	 0.300736	 -0.097525	 0.157700	 0.587742	 0.036946	 0.287317	 0.080712	 0.040437	 0.953572	 1
1463623943.838	 18	 -0.257592	 0.281735	 -0.088948	 0.161660	 0.584362	 0.035939	 0.285665	 0.082466	 0.040404	 0.953919	 1
