% Gyrometer data recorded with 'snsrlog'
% 
% 
% Label description:
% 	 0: Default Label
% 	 1: still_drop
% 	 2: walk_drop
% 	 3: other
% 	 4: dtw_same
% 	 5: dtw_diff
% 	 6: delete
% 
% Column description:
% 	 1: Seconds.milliseconds since 1970
% 	 2: Number of skipped measurements
% 	 3: Gyro X
% 	 4: Gyro Y
% 	 5: Gyro Z
% 	 6: Roll of the device
% 	 7: Pitch of the device
% 	 8: Yaw of the device
% 	 9: Quaternion X
% 	 10: Quaternion Y
% 	 11: Quaternion Z
% 	 12: Quaternion W
% 	 13: Label used for the current sample
% 
% 
1462068113.740	 1	 0.243394	 0.112111	 0.102672	 0.111677	 0.634915	 -0.033050	 0.312499	 0.047863	 0.001744	 0.948710	 1
1462068113.750	 1	 0.248642	 0.097213	 0.101407	 0.112537	 0.637336	 -0.032359	 0.313629	 0.048339	 0.002277	 0.948312	 1
1462068113.760	 1	 0.208969	 0.067497	 0.094012	 0.112834	 0.639406	 -0.031521	 0.314589	 0.048578	 0.002782	 0.947980	 1
1462068113.770	 1	 0.138278	 0.031382	 0.074052	 0.112476	 0.640961	 -0.030557	 0.315303	 0.048535	 0.003228	 0.947744	 1
1462068113.780	 1	 0.063167	 -0.016612	 0.029517	 0.111644	 0.641775	 -0.029826	 0.315672	 0.048243	 0.003467	 0.947635	 1
1462068113.800	 2	 -0.065524	 -0.083892	 -0.049866	 0.109333	 0.641454	 -0.029564	 0.315518	 0.047194	 0.003217	 0.947740	 1
1462068113.810	 2	 -0.128600	 -0.095618	 -0.073906	 0.108175	 0.640731	 -0.029876	 0.315184	 0.046608	 0.002866	 0.947881	 1
1462068113.820	 2	 -0.196955	 -0.113588	 -0.081975	 0.107029	 0.639547	 -0.030332	 0.314635	 0.046011	 0.002436	 0.948094	 1
1462068113.830	 2	 -0.256647	 -0.122905	 -0.068734	 0.105920	 0.637716	 -0.030775	 0.313779	 0.045444	 0.002002	 0.948406	 1
1462068113.840	 2	 -0.284215	 -0.126785	 -0.031239	 0.105085	 0.635367	 -0.031120	 0.312674	 0.045031	 0.001642	 0.948791	 1
1462068113.860	 3	 -0.222527	 -0.070581	 0.112603	 0.102465	 0.630564	 -0.029783	 0.310368	 0.044069	 0.001739	 0.949593	 1
1462068113.870	 3	 -0.147949	 0.037416	 0.221667	 0.100974	 0.629105	 -0.027142	 0.309619	 0.043792	 0.002724	 0.949848	 1
1462068113.880	 3	 -0.093001	 0.089875	 0.290951	 0.099748	 0.628334	 -0.023603	 0.309178	 0.043767	 0.004195	 0.949987	 1
1462068113.890	 3	 -0.045351	 0.050168	 0.274235	 0.097105	 0.627055	 -0.019326	 0.308484	 0.043189	 0.005787	 0.950231	 1
1462068113.900	 3	 -0.022477	 -0.003719	 0.186142	 0.095628	 0.626999	 -0.016705	 0.308406	 0.042892	 0.006803	 0.950263	 1
1462068113.910	 3	 -0.023829	 0.012639	 0.094650	 0.094833	 0.626877	 -0.015260	 0.308320	 0.042738	 0.007364	 0.950294	 1
1462068113.920	 3	 -0.031289	 0.054860	 0.047149	 0.094851	 0.626629	 -0.014535	 0.308187	 0.042861	 0.007705	 0.950329	 1
1462068113.930	 3	 -0.032329	 0.079124	 0.033602	 0.094088	 0.626123	 -0.013344	 0.307924	 0.042688	 0.008142	 0.950418	 1
1462068113.940	 3	 -0.025829	 0.100371	 0.032677	 0.094785	 0.625881	 -0.012911	 0.307797	 0.043088	 0.008449	 0.950438	 1
1462068113.950	 3	 -0.005529	 0.104572	 0.033605	 0.095590	 0.625799	 -0.012491	 0.307745	 0.043536	 0.008771	 0.950432	 1
1462068113.960	 3	 0.013682	 0.097138	 0.042961	 0.096298	 0.625936	 -0.012014	 0.307797	 0.043944	 0.009110	 0.950393	 1
1462068113.970	 3	 0.020034	 0.095038	 0.052487	 0.096650	 0.625611	 -0.011260	 0.307624	 0.044231	 0.009514	 0.950432	 1
1462068113.980	 3	 0.017847	 0.086512	 0.049229	 0.097189	 0.625843	 -0.010658	 0.307718	 0.044577	 0.009889	 0.950381	 1
1462068113.990	 3	 0.012356	 0.061994	 0.039457	 0.097584	 0.626018	 -0.010156	 0.307788	 0.044841	 0.010192	 0.950343	 1
1462068114.000	 3	 0.011068	 0.023636	 0.029519	 0.097692	 0.626155	 -0.009773	 0.307844	 0.044949	 0.010394	 0.950318	 1
1462068114.010	 3	 0.022482	 -0.005189	 0.022757	 0.097310	 0.625286	 -0.009371	 0.307424	 0.044838	 0.010506	 0.950458	 1
1462068114.020	 3	 0.049115	 -0.014842	 0.022435	 0.097048	 0.625726	 -0.009158	 0.307630	 0.044742	 0.010577	 0.950395	 1
1462068114.040	 4	 0.084552	 0.025526	 0.029963	 0.096869	 0.627284	 -0.008670	 0.308360	 0.044717	 0.010818	 0.950156	 1
1462068114.050	 4	 0.085698	 0.056323	 0.024911	 0.097153	 0.627869	 -0.008407	 0.308630	 0.044887	 0.011001	 0.950059	 1
1462068114.060	 4	 0.090166	 0.094633	 0.029492	 0.097864	 0.628781	 -0.008179	 0.309055	 0.045252	 0.011241	 0.949901	 1
1462068114.070	 4	 0.087226	 0.136241	 0.045891	 0.098885	 0.629694	 -0.007781	 0.309473	 0.045789	 0.011610	 0.949734	 1
1462068114.080	 4	 0.079024	 0.185381	 0.071998	 0.100200	 0.630566	 -0.007074	 0.309863	 0.046515	 0.012170	 0.949565	 1
1462068114.090	 4	 0.083657	 0.228109	 0.091507	 0.102303	 0.631960	 -0.006393	 0.310495	 0.047606	 0.012854	 0.949295	 1
1462068114.100	 4	 0.095539	 0.248368	 0.103316	 0.104090	 0.632982	 -0.005270	 0.310941	 0.048619	 0.013690	 0.949086	 1
1462068114.110	 4	 0.103032	 0.245224	 0.112813	 0.105835	 0.634105	 -0.004049	 0.311432	 0.049626	 0.014569	 0.948860	 1
1462068114.120	 4	 0.103023	 0.233609	 0.124429	 0.107399	 0.635263	 -0.002695	 0.311936	 0.050569	 0.015485	 0.948630	 1
1462068114.130	 4	 0.095465	 0.213629	 0.140221	 0.109464	 0.636043	 -0.001622	 0.312262	 0.051708	 0.016337	 0.948447	 1
1462068114.140	 4	 0.086807	 0.182854	 0.146404	 0.110372	 0.637093	 0.000060	 0.312708	 0.052393	 0.017303	 0.948245	 1
1462068114.150	 4	 0.073789	 0.149819	 0.132356	 0.110999	 0.638015	 0.001649	 0.313098	 0.052930	 0.018179	 0.948070	 1
1462068114.160	 4	 0.057573	 0.119470	 0.099929	 0.111530	 0.638751	 0.002906	 0.313408	 0.053373	 0.018877	 0.947929	 1
1462068114.170	 4	 0.029599	 0.101206	 0.064840	 0.111585	 0.639157	 0.004052	 0.313570	 0.053575	 0.019439	 0.947853	 1
1462068114.180	 4	 0.000657	 0.104215	 0.029959	 0.111716	 0.639197	 0.004883	 0.313565	 0.053767	 0.019855	 0.947835	 1
1462068114.190	 4	 -0.015406	 0.112589	 0.006739	 0.112142	 0.639025	 0.005395	 0.313466	 0.054051	 0.020160	 0.947846	 1
1462068114.200	 4	 -0.021734	 0.133833	 0.000599	 0.113301	 0.638786	 0.005498	 0.313338	 0.054618	 0.020384	 0.947851	 1
1462068114.210	 4	 -0.019435	 0.162601	 0.008306	 0.114869	 0.638552	 0.005558	 0.313209	 0.055373	 0.020652	 0.947844	 1
1462068114.220	 4	 -0.003323	 0.179628	 0.015782	 0.116632	 0.638311	 0.005691	 0.313073	 0.056231	 0.020984	 0.947831	 1
1462068114.230	 4	 0.014775	 0.173195	 0.015560	 0.118446	 0.638071	 0.005776	 0.312938	 0.057106	 0.021302	 0.947816	 1
1462068114.240	 4	 0.019996	 0.158237	 0.007912	 0.120139	 0.637894	 0.005790	 0.312835	 0.057911	 0.021568	 0.947795	 1
1462068114.250	 4	 0.012390	 0.135884	 0.002440	 0.121584	 0.637824	 0.005782	 0.312786	 0.058596	 0.021789	 0.947764	 1
1462068114.260	 4	 -0.005852	 0.116783	 0.001355	 0.122728	 0.637664	 0.005830	 0.312697	 0.059147	 0.021986	 0.947755	 1
1462068114.270	 4	 -0.024024	 0.106241	 0.006743	 0.123805	 0.637432	 0.005899	 0.312573	 0.059669	 0.022180	 0.947758	 1
1462068114.280	 4	 -0.016538	 0.100985	 0.017281	 0.125012	 0.637205	 0.005916	 0.312451	 0.060246	 0.022370	 0.947758	 1
1462068114.290	 4	 0.005983	 0.119074	 0.025769	 0.126464	 0.636990	 0.005904	 0.312333	 0.060934	 0.022585	 0.947747	 1
1462068114.300	 4	 0.024397	 0.170161	 0.035663	 0.128457	 0.636970	 0.005895	 0.312301	 0.061877	 0.022892	 0.947689	 1
1462068114.310	 4	 0.044972	 0.224452	 0.047698	 0.131033	 0.637263	 0.005931	 0.312409	 0.063101	 0.023320	 0.947563	 1
1462068114.320	 4	 0.050550	 0.278692	 0.046003	 0.134363	 0.637616	 0.005855	 0.312540	 0.064663	 0.023815	 0.947402	 1
1462068114.330	 4	 0.041031	 0.330598	 0.008174	 0.138794	 0.637785	 0.005215	 0.312588	 0.066661	 0.024209	 0.947238	 1
1462068114.340	 4	 0.041021	 0.390686	 -0.065870	 0.142922	 0.638108	 0.004603	 0.312711	 0.068517	 0.024576	 0.947055	 1
1462068114.350	 4	 0.073889	 0.452417	 -0.193473	 0.148505	 0.638514	 0.002536	 0.312907	 0.070832	 0.024484	 0.946822	 1
1462068114.360	 4	 0.123806	 0.530921	 -0.347713	 0.155998	 0.639139	 -0.001462	 0.313257	 0.073746	 0.023787	 0.946502	 1
1462068114.370	 4	 0.199509	 0.639194	 -0.493374	 0.165669	 0.640167	 -0.007470	 0.313858	 0.077366	 0.022501	 0.946045	 1
1462068114.380	 4	 0.307761	 0.817936	 -0.588572	 0.177888	 0.641927	 -0.015042	 0.314859	 0.081925	 0.020914	 0.945365	 1
1462068114.390	 4	 0.442222	 1.084153	 -0.637356	 0.193180	 0.644784	 -0.023685	 0.316420	 0.087730	 0.019374	 0.944355	 1
1462068114.400	 4	 0.561065	 1.425994	 -0.677840	 0.212295	 0.648661	 -0.033217	 0.318505	 0.095148	 0.018105	 0.942960	 1
1462068114.410	 4	 0.622334	 1.779699	 -0.718779	 0.235506	 0.653047	 -0.043614	 0.320881	 0.104301	 0.017163	 0.941202	 1
1462068114.420	 4	 0.638845	 2.135758	 -0.746516	 0.262694	 0.657393	 -0.054647	 0.323296	 0.115169	 0.016628	 0.939116	 1
1462068114.430	 4	 0.649479	 2.378021	 -0.775262	 0.293076	 0.661529	 -0.066217	 0.325681	 0.127388	 0.016422	 0.936715	 1
1462068114.440	 4	 0.482559	 2.510402	 -0.774708	 0.325086	 0.664376	 -0.077811	 0.327520	 0.140348	 0.016449	 0.934217	 1
1462068114.450	 4	 0.236310	 2.599131	 -0.812237	 0.357454	 0.664475	 -0.088505	 0.328084	 0.153692	 0.016774	 0.931911	 1
1462068114.460	 4	 0.054136	 2.604620	 -1.008832	 0.390614	 0.661885	 -0.100233	 0.327551	 0.167338	 0.016504	 0.929750	 1
1462068114.470	 4	 -0.075206	 2.758564	 -1.246070	 0.426075	 0.656728	 -0.113760	 0.326072	 0.181890	 0.015479	 0.927552	 1
1462068114.480	 4	 -0.133148	 2.863613	 -1.450280	 0.463778	 0.649591	 -0.129050	 0.323971	 0.197322	 0.013712	 0.925159	 1
1462068114.490	 4	 -0.159966	 2.943581	 -1.580391	 0.502778	 0.641009	 -0.145337	 0.321478	 0.213304	 0.011419	 0.922509	 1
1462068114.500	 4	 -0.149038	 3.090588	 -1.691023	 0.543317	 0.631356	 -0.162265	 0.318764	 0.229993	 0.008818	 0.919465	 1
1462068114.510	 4	 -0.063671	 3.215812	 -1.841939	 0.585855	 0.620949	 -0.180443	 0.316080	 0.247478	 0.005722	 0.915869	 1
1462068114.520	 4	 0.059954	 3.311107	 -1.997730	 0.630208	 0.609995	 -0.200371	 0.313641	 0.265574	 0.001893	 0.911645	 1
1462068114.530	 4	 0.095489	 3.452884	 -2.086245	 0.676098	 0.598174	 -0.221037	 0.311231	 0.284332	 -0.002309	 0.906799	 1
1462068114.540	 4	 0.002744	 3.511332	 -2.130721	 0.722176	 0.584791	 -0.240850	 0.308347	 0.303452	 -0.006519	 0.901552	 1
1462068114.550	 4	 -0.235337	 3.522388	 -2.169044	 0.766971	 0.568946	 -0.258413	 0.304369	 0.322589	 -0.010554	 0.896205	 1
1462068114.560	 4	 -0.549512	 3.521476	 -2.275025	 0.809963	 0.549735	 -0.273112	 0.298765	 0.341721	 -0.014479	 0.890930	 1
1462068114.570	 4	 -0.830591	 3.603799	 -2.476438	 0.852095	 0.526698	 -0.285518	 0.291405	 0.361242	 -0.018602	 0.885574	 1
1462068114.580	 4	 -1.000548	 3.763021	 -2.735654	 0.894768	 0.500045	 -0.296695	 0.282577	 0.381582	 -0.023251	 0.879775	 1
1462068114.590	 4	 -1.053991	 3.952833	 -2.982810	 0.938798	 0.470493	 -0.307398	 0.272767	 0.402881	 -0.028583	 0.873194	 1
1462068114.600	 4	 -0.995293	 4.146696	 -3.212788	 0.984533	 0.438789	 -0.318212	 0.262460	 0.425081	 -0.034714	 0.865572	 1
1462068114.610	 4	 -0.834300	 4.288311	 -3.419630	 1.031827	 0.405596	 -0.329750	 0.252130	 0.447912	 -0.041826	 0.856771	 1
1462068114.620	 4	 -0.613615	 4.386390	 -3.592227	 1.080225	 0.371380	 -0.342335	 0.242115	 0.471036	 -0.050022	 0.846761	 1
1462068114.630	 4	 -0.370691	 4.427149	 -3.739972	 1.129169	 0.336346	 -0.355972	 0.232567	 0.494147	 -0.059317	 0.835591	 1
1462068114.640	 4	 -0.141152	 4.331922	 -3.871814	 1.177368	 0.300449	 -0.370469	 0.223455	 0.516697	 -0.069770	 0.823544	 1
1462068114.650	 4	 0.022569	 4.091113	 -4.011898	 1.223100	 0.263359	 -0.385340	 0.214497	 0.538051	 -0.081430	 0.811087	 1
1462068114.660	 4	 0.035087	 3.730259	 -4.193347	 1.264746	 0.224248	 -0.399463	 0.204992	 0.557766	 -0.094216	 0.798748	 1
1462068114.670	 4	 -0.121058	 3.380354	 -4.399870	 1.301799	 0.182352	 -0.411315	 0.194125	 0.575879	 -0.107778	 0.786806	 1
1462068114.680	 4	 -0.343401	 3.032689	 -4.617519	 1.334389	 0.137492	 -0.420028	 0.181471	 0.592509	 -0.121810	 0.775347	 1
1462068114.690	 4	 -0.569014	 2.707054	 -4.878631	 1.362871	 0.089435	 -0.425654	 0.166855	 0.607747	 -0.136364	 0.764335	 1
1462068114.700	 4	 -0.762070	 2.457176	 -5.093493	 1.388184	 0.038555	 -0.428396	 0.150427	 0.621804	 -0.151305	 0.753551	 1
1462068114.710	 4	 -0.830378	 2.342592	 -5.228251	 1.411792	 -0.014058	 -0.429121	 0.132893	 0.634964	 -0.166488	 0.742591	 1
1462068114.720	 4	 -0.721594	 2.399094	 -5.312867	 1.435521	 -0.067557	 -0.429376	 0.115182	 0.647654	 -0.182091	 0.730836	 1
1462068114.730	 4	 -0.449849	 2.522916	 -5.288503	 1.460313	 -0.120810	 -0.430661	 0.098315	 0.660005	 -0.198244	 0.717933	 1
1462068114.740	 4	 -0.084043	 2.607719	 -5.180059	 1.485729	 -0.172843	 -0.434009	 0.083007	 0.671759	 -0.215001	 0.704005	 1
1462068114.750	 4	 0.277173	 2.611813	 -5.056341	 1.510757	 -0.223424	 -0.439709	 0.069376	 0.682592	 -0.232368	 0.689392	 1
1462068114.760	 4	 0.541818	 2.522437	 -4.953966	 1.534444	 -0.272919	 -0.447169	 0.056991	 0.692281	 -0.250202	 0.674462	 1
1462068114.770	 4	 0.664812	 2.294967	 -4.884682	 1.555707	 -0.321712	 -0.455201	 0.045138	 0.700575	 -0.268172	 0.659728	 1
1462068114.780	 4	 0.669475	 1.930102	 -4.889184	 1.573410	 -0.370501	 -0.462688	 0.032955	 0.707200	 -0.286087	 0.645706	 1
1462068114.790	 4	 0.625218	 1.607869	 -4.901388	 1.587779	 -0.419565	 -0.469037	 0.020070	 0.712286	 -0.303774	 0.632429	 1
1462068114.800	 4	 0.657870	 1.450927	 -4.823201	 1.600030	 -0.468191	 -0.474892	 0.007064	 0.716235	 -0.321141	 0.619537	 1
1462068114.810	 4	 0.832547	 1.461230	 -4.651973	 1.611237	 -0.515406	 -0.481880	 -0.005013	 0.719419	 -0.338333	 0.606582	 1
1462068114.820	 4	 1.110126	 1.535324	 -4.442679	 1.621398	 -0.560806	 -0.491560	 -0.015485	 0.721926	 -0.355640	 0.593383	 1
1462068114.830	 4	 1.414918	 1.674632	 -4.176530	 1.630497	 -0.603949	 -0.504759	 -0.023930	 0.723866	 -0.373097	 0.579865	 1
1462068114.840	 4	 1.699534	 1.770946	 -3.833870	 1.638096	 -0.644135	 -0.521748	 -0.030123	 0.725244	 -0.390484	 0.566247	 1
1462068114.850	 4	 1.910059	 1.733783	 -3.447046	 1.643030	 -0.680807	 -0.542205	 -0.034273	 0.725855	 -0.407454	 0.553119	 1
1462068114.860	 4	 1.979039	 1.540790	 -3.045518	 1.644456	 -0.713592	 -0.564843	 -0.036974	 0.725570	 -0.423486	 0.541148	 1
1462068114.870	 4	 1.917462	 1.211493	 -2.572716	 1.641984	 -0.741949	 -0.588199	 -0.038742	 0.724372	 -0.438024	 0.530960	 1
1462068114.880	 4	 1.694704	 0.818273	 -2.033029	 1.636073	 -0.764744	 -0.610208	 -0.039911	 0.722455	 -0.450264	 0.523191	 1
1462068114.890	 4	 1.404541	 0.467113	 -1.587216	 1.628180	 -0.782544	 -0.629382	 -0.040915	 0.720181	 -0.460111	 0.517652	 1
1462068114.900	 4	 1.109930	 0.155714	 -1.233715	 1.619329	 -0.796318	 -0.645154	 -0.042056	 0.717771	 -0.467805	 0.513999	 1
1462068114.910	 4	 0.825587	 -0.189139	 -0.942429	 1.609521	 -0.806825	 -0.657377	 -0.043628	 0.715184	 -0.473587	 0.512175	 1
1462068114.920	 4	 0.545639	 -0.477885	 -0.685830	 1.599208	 -0.814509	 -0.665922	 -0.045705	 0.712501	 -0.477603	 0.512004	 1
1462068114.930	 4	 0.318478	 -0.633021	 -0.463617	 1.589388	 -0.819765	 -0.671126	 -0.048043	 0.709954	 -0.480097	 0.512995	 1
1462068114.940	 4	 0.212358	 -0.675915	 -0.261663	 1.580242	 -0.822915	 -0.674440	 -0.050172	 0.707598	 -0.481549	 0.514683	 1
1462068114.950	 4	 0.214555	 -0.611656	 -0.053261	 1.571647	 -0.823982	 -0.677504	 -0.051536	 0.705431	 -0.482398	 0.516724	 1
1462068114.960	 4	 0.264196	 -0.444362	 0.155687	 1.564034	 -0.822948	 -0.681198	 -0.051708	 0.703581	 -0.482891	 0.518764	 1
1462068114.970	 4	 0.291458	 -0.275891	 0.371236	 1.557814	 -0.819744	 -0.685383	 -0.050604	 0.702146	 -0.482998	 0.520714	 1
1462068114.980	 4	 0.262868	 -0.162742	 0.562243	 1.553112	 -0.814532	 -0.689266	 -0.048528	 0.701126	 -0.482563	 0.522686	 1
1462068114.990	 4	 0.192111	 -0.122168	 0.701786	 1.549743	 -0.807798	 -0.692142	 -0.045939	 0.700439	 -0.481519	 0.524799	 1
1462068115.000	 4	 0.095253	 -0.144622	 0.793010	 1.547315	 -0.800032	 -0.693658	 -0.043228	 0.699966	 -0.479882	 0.527155	 1
1462068115.010	 4	 -0.048218	 -0.262106	 0.814481	 1.545371	 -0.791910	 -0.693207	 -0.040958	 0.699566	 -0.477646	 0.529891	 1
1462068115.020	 4	 -0.194103	 -0.421214	 0.815337	 1.543361	 -0.783803	 -0.690638	 -0.039444	 0.699092	 -0.474844	 0.533139	 1
1462068115.030	 4	 -0.277869	 -0.536866	 0.820319	 1.541054	 -0.775695	 -0.686639	 -0.038493	 0.698501	 -0.471642	 0.536814	 1
1462068115.040	 4	 -0.328280	 -0.593067	 0.823432	 1.538566	 -0.767559	 -0.681833	 -0.037849	 0.697834	 -0.468198	 0.540727	 1
1462068115.050	 4	 -0.318322	 -0.530239	 0.837785	 1.536398	 -0.759346	 -0.676963	 -0.037116	 0.697245	 -0.464704	 0.544539	 1
1462068115.060	 4	 -0.271683	 -0.407746	 0.881149	 1.534967	 -0.750766	 -0.672637	 -0.035884	 0.696862	 -0.461259	 0.548029	 1
1462068115.070	 4	 -0.213244	 -0.283068	 0.937220	 1.534226	 -0.741635	 -0.669073	 -0.034026	 0.696680	 -0.457874	 0.551209	 1
1462068115.080	 4	 -0.179008	 -0.106027	 1.017436	 1.534678	 -0.731759	 -0.666093	 -0.031424	 0.696835	 -0.454456	 0.553988	 1
1462068115.090	 4	 -0.207463	 0.111761	 1.117760	 1.537340	 -0.720910	 -0.662955	 -0.028031	 0.697603	 -0.450747	 0.556229	 1
1462068115.100	 4	 -0.305454	 0.305192	 1.204609	 1.542632	 -0.709161	 -0.658819	 -0.024087	 0.699095	 -0.446519	 0.557948	 1
1462068115.110	 4	 -0.457973	 0.500705	 1.263176	 1.550949	 -0.696761	 -0.652945	 -0.019874	 0.701424	 -0.441612	 0.559096	 1
1462068115.120	 4	 -0.606710	 0.638381	 1.267883	 1.561927	 -0.684131	 -0.645302	 -0.015662	 0.704498	 -0.436104	 0.559688	 1
1462068115.130	 4	 -0.727550	 0.650934	 1.190186	 1.574155	 -0.671991	 -0.636276	 -0.011904	 0.707935	 -0.430275	 0.559955	 1
1462068115.140	 4	 -0.772285	 0.555433	 1.056466	 1.585827	 -0.661033	 -0.626767	 -0.008924	 0.711233	 -0.424569	 0.560187	 1
1462068115.150	 4	 -0.808929	 0.383176	 0.901713	 1.596225	 -0.651483	 -0.616826	 -0.006925	 0.714186	 -0.419080	 0.560591	 1
1462068115.160	 4	 -0.759103	 0.202282	 0.764244	 1.604351	 -0.643270	 -0.607416	 -0.005730	 0.716512	 -0.414077	 0.561354	 1
1462068115.170	 4	 -0.698417	 0.045952	 0.645027	 1.610315	 -0.636288	 -0.598842	 -0.005146	 0.718235	 -0.409633	 0.562417	 1
1462068115.180	 4	 -0.671514	 -0.076866	 0.581639	 1.614618	 -0.630075	 -0.590758	 -0.005016	 0.719495	 -0.405527	 0.563782	 1
1462068115.190	 4	 -0.640895	 -0.138714	 0.572271	 1.617844	 -0.624078	 -0.583068	 -0.005054	 0.720456	 -0.401575	 0.565380	 1
1462068115.200	 4	 -0.619208	 -0.100192	 0.612939	 1.620935	 -0.617778	 -0.575777	 -0.004883	 0.721390	 -0.397627	 0.566979	 1
1462068115.210	 4	 -0.634452	 0.003526	 0.682246	 1.624872	 -0.610829	 -0.568516	 -0.004323	 0.722578	 -0.393475	 0.568366	 1
1462068115.220	 4	 -0.710232	 0.152239	 0.771682	 1.630452	 -0.602955	 -0.560698	 -0.003343	 0.724253	 -0.388864	 0.569413	 1
1462068115.230	 4	 -0.843712	 0.298881	 0.845615	 1.638243	 -0.594160	 -0.551574	 -0.002123	 0.726580	 -0.383573	 0.570043	 1
1462068115.240	 4	 -1.005639	 0.350484	 0.856031	 1.647717	 -0.584900	 -0.540747	 -0.001090	 0.729407	 -0.377617	 0.570412	 1
1462068115.250	 4	 -1.184450	 0.277169	 0.794026	 1.657742	 -0.575860	 -0.527973	 -0.000800	 0.732404	 -0.371136	 0.570826	 1
1462068115.260	 4	 -1.353254	 0.101386	 0.686218	 1.667258	 -0.567535	 -0.513192	 -0.001650	 0.735258	 -0.364273	 0.571576	 1
1462068115.270	 4	 -1.451221	 -0.175984	 0.532086	 1.674885	 -0.560403	 -0.497016	 -0.003822	 0.737557	 -0.357361	 0.572965	 1
1462068115.280	 4	 -1.475595	 -0.466300	 0.382521	 1.679760	 -0.554691	 -0.480269	 -0.007219	 0.739033	 -0.350713	 0.575134	 1
1462068115.290	 4	 -1.447163	 -0.698895	 0.293783	 1.682059	 -0.549991	 -0.463646	 -0.011386	 0.739730	 -0.344394	 0.577982	 1
1462068115.300	 4	 -1.398090	 -0.924558	 0.289124	 1.681746	 -0.545589	 -0.447611	 -0.015894	 0.739643	 -0.338295	 0.581578	 1
1462068115.310	 4	 -1.344518	 -1.144544	 0.335635	 1.678815	 -0.540896	 -0.432224	 -0.020498	 0.738776	 -0.332226	 0.586018	 1
1462068115.320	 4	 -1.334329	 -1.332096	 0.437180	 1.673586	 -0.535401	 -0.417291	 -0.025022	 0.737224	 -0.325949	 0.591297	 1
1462068115.330	 4	 -1.340224	 -1.537667	 0.540829	 1.666321	 -0.528954	 -0.402429	 -0.029493	 0.735053	 -0.319292	 0.597395	 1
1462068115.340	 4	 -1.356201	 -1.816834	 0.611908	 1.656372	 -0.521779	 -0.387499	 -0.034114	 0.732042	 -0.312262	 0.604519	 1
1462068115.350	 4	 -1.368924	 -2.060062	 0.653452	 1.643792	 -0.514273	 -0.372404	 -0.039015	 0.728166	 -0.304945	 0.612585	 1
1462068115.360	 4	 -1.344996	 -2.194119	 0.657325	 1.629392	 -0.506811	 -0.357425	 -0.044069	 0.723642	 -0.297551	 0.621178	 1
1462068115.370	 4	 -1.269036	 -2.112799	 0.608395	 1.614853	 -0.499930	 -0.343050	 -0.049023	 0.718974	 -0.290442	 0.629537	 1
1462068115.380	 4	 -1.090915	 -1.850042	 0.540015	 1.601684	 -0.493933	 -0.330297	 -0.053409	 0.714663	 -0.284089	 0.636944	 1
1462068115.390	 4	 -0.820376	 -1.472506	 0.496411	 1.590674	 -0.488662	 -0.320339	 -0.056672	 0.711030	 -0.278866	 0.643008	 1
1462068115.400	 4	 -0.523796	 -1.026780	 0.479858	 1.582349	 -0.483744	 -0.313655	 -0.058476	 0.708304	 -0.274855	 0.647565	 1
1462068115.410	 4	 -0.204611	 -0.554405	 0.480409	 1.577148	 -0.478928	 -0.310455	 -0.058630	 0.706669	 -0.272087	 0.650500	 1
1462068115.420	 4	 0.118236	 -0.190700	 0.457535	 1.574211	 -0.474260	 -0.310936	 -0.057218	 0.705865	 -0.270630	 0.652105	 1
1462068115.430	 4	 0.349650	 0.060182	 0.386449	 1.572701	 -0.470202	 -0.314302	 -0.054806	 0.705581	 -0.270358	 0.652731	 1
1462068115.440	 4	 0.472745	 0.224997	 0.283532	 1.572340	 -0.467104	 -0.319323	 -0.051992	 0.705681	 -0.270974	 0.652598	 1
1462068115.450	 4	 0.496051	 0.274177	 0.181473	 1.572520	 -0.465054	 -0.324885	 -0.049282	 0.705933	 -0.272123	 0.652057	 1
1462068115.460	 4	 0.443218	 0.219569	 0.110019	 1.572613	 -0.463802	 -0.330031	 -0.047012	 0.706118	 -0.273393	 0.651493	 1
1462068115.470	 4	 0.358210	 0.108876	 0.064967	 1.572101	 -0.463072	 -0.334276	 -0.045326	 0.706066	 -0.274526	 0.651192	 1
1462068115.480	 4	 0.302539	 0.141406	 -0.018441	 1.571542	 -0.462960	 -0.337781	 -0.044126	 0.705965	 -0.275618	 0.650923	 1
1462068115.490	 4	 0.304957	 0.022928	 -0.074984	 1.570856	 -0.463749	 -0.341174	 -0.043301	 0.705798	 -0.276964	 0.650588	 1
1462068115.500	 4	 0.248716	 -0.432582	 0.009726	 1.566414	 -0.463871	 -0.344175	 -0.042903	 0.704415	 -0.277885	 0.651720	 1
1462068115.510	 4	 0.153827	 -0.672396	 0.048819	 1.559173	 -0.463384	 -0.346119	 -0.043054	 0.702102	 -0.278206	 0.654064	 1
1462068115.520	 4	 0.131275	 -0.681023	 0.023357	 1.551694	 -0.463093	 -0.347605	 -0.043470	 0.699690	 -0.278438	 0.656519	 1
1462068115.530	 4	 0.138732	 -0.692669	 0.033841	 1.544136	 -0.462755	 -0.349117	 -0.043874	 0.697243	 -0.278662	 0.658995	 1
1462068115.540	 4	 0.152603	 -0.688494	 0.028431	 1.536489	 -0.462399	 -0.350757	 -0.044242	 0.694761	 -0.278921	 0.661477	 1
1462068115.550	 4	 0.182657	 -0.638707	 0.012646	 1.529081	 -0.462164	 -0.352705	 -0.044516	 0.692354	 -0.279327	 0.663808	 1
1462068115.560	 4	 0.204400	 -0.535758	 -0.008967	 1.522434	 -0.462102	 -0.354932	 -0.044653	 0.690195	 -0.279900	 0.665802	 1
1462068115.570	 4	 0.179298	 -0.408219	 -0.032074	 1.517099	 -0.462271	 -0.357053	 -0.044730	 0.688462	 -0.280541	 0.667320	 1
1462068115.580	 4	 0.091115	 -0.316563	 -0.042176	 1.513148	 -0.462610	 -0.358385	 -0.044950	 0.687167	 -0.281003	 0.668444	 1
1462068115.590	 4	 -0.001370	 -0.246045	 -0.035386	 1.510396	 -0.462982	 -0.358632	 -0.045386	 0.686247	 -0.281140	 0.669302	 1
1462068115.600	 4	 -0.056373	 -0.158527	 -0.015975	 1.508806	 -0.463225	 -0.358142	 -0.045866	 0.685701	 -0.281016	 0.669881	 1
1462068115.610	 4	 -0.074070	 -0.085858	 0.012531	 1.511666	 -0.463411	 -0.355772	 -0.046345	 0.686601	 -0.280347	 0.669206	 1
1462068115.620	 4	 -0.055759	 -0.063460	 0.028566	 1.511331	 -0.463188	 -0.355067	 -0.046554	 0.686475	 -0.280033	 0.669452	 1
1462068115.630	 4	 -0.040028	 -0.100914	 0.006737	 1.509649	 -0.464588	 -0.355030	 -0.047310	 0.685890	 -0.280420	 0.669836	 1
1462068115.640	 4	 -0.031935	 -0.158686	 -0.036502	 1.508366	 -0.464865	 -0.354675	 -0.047712	 0.685448	 -0.280358	 0.670287	 1
1462068115.650	 4	 -0.030055	 -0.182346	 -0.066632	 1.505102	 -0.468135	 -0.355098	 -0.049213	 0.684314	 -0.281443	 0.670882	 1
1462068115.660	 4	 -0.041692	 -0.166309	 -0.059987	 1.503546	 -0.468790	 -0.354732	 -0.049795	 0.683773	 -0.281486	 0.671372	 1
1462068115.670	 4	 -0.058528	 -0.139423	 -0.030823	 1.503821	 -0.469081	 -0.353493	 -0.050286	 0.683830	 -0.281168	 0.671411	 1
1462068115.680	 4	 -0.066866	 -0.124275	 0.001363	 1.502863	 -0.469197	 -0.352768	 -0.050711	 0.683488	 -0.280936	 0.671824	 1
1462068115.690	 4	 -0.059123	 -0.083731	 0.021922	 1.502233	 -0.469065	 -0.352050	 -0.050996	 0.683260	 -0.280638	 0.672159	 1
1462068115.700	 4	 -0.040775	 -0.041231	 0.023224	 1.501956	 -0.468860	 -0.351528	 -0.051139	 0.683157	 -0.280391	 0.672356	 1
1462068115.720	 5	 -0.041592	 0.022560	 0.013140	 1.504174	 -0.468980	 -0.349806	 -0.051460	 0.683856	 -0.279907	 0.671822	 1
1462068115.730	 5	 -0.054342	 0.040627	 0.005959	 1.504817	 -0.468950	 -0.349224	 -0.051559	 0.684058	 -0.279719	 0.671688	 1
1462068115.740	 5	 -0.057563	 0.036382	 0.005948	 1.505500	 -0.468923	 -0.348563	 -0.051679	 0.684271	 -0.279506	 0.671550	 1
1462068115.750	 5	 -0.043789	 0.016134	 0.005635	 1.506060	 -0.469047	 -0.347970	 -0.051849	 0.684441	 -0.279360	 0.671424	 1
1462068115.760	 5	 -0.019243	 0.018172	 0.003308	 1.506343	 -0.469025	 -0.347686	 -0.051899	 0.684529	 -0.279265	 0.671370	 1
1462068115.770	 5	 -0.001049	 0.043522	 -0.013666	 1.506737	 -0.469117	 -0.347639	 -0.051893	 0.684658	 -0.279288	 0.671229	 1
1462068115.780	 5	 0.003295	 0.070008	 -0.026247	 1.507348	 -0.469367	 -0.347693	 -0.051880	 0.684861	 -0.279401	 0.670977	 1
1462068115.790	 5	 0.001273	 0.083938	 -0.014374	 1.508606	 -0.469330	 -0.347520	 -0.051750	 0.685279	 -0.279364	 0.670575	 1
1462068115.800	 5	 -0.001761	 0.108505	 -0.001330	 1.509614	 -0.469365	 -0.347514	 -0.051624	 0.685616	 -0.279399	 0.670226	 1
1462068115.810	 5	 -0.009042	 0.144732	 0.002280	 1.511691	 -0.468671	 -0.347113	 -0.051220	 0.686313	 -0.279100	 0.669667	 1
1462068115.820	 5	 -0.018571	 0.171277	 -0.010177	 1.514160	 -0.468469	 -0.346607	 -0.050976	 0.687130	 -0.278930	 0.668918	 1
1462068115.830	 5	 -0.023902	 0.192402	 -0.033388	 1.516370	 -0.468974	 -0.346273	 -0.050965	 0.687851	 -0.279034	 0.668134	 1
1462068115.840	 5	 -0.021797	 0.211309	 -0.064130	 1.518199	 -0.469338	 -0.346203	 -0.050866	 0.688454	 -0.279172	 0.667463	 1
1462068115.850	 5	 -0.021746	 0.250411	 -0.098924	 1.520722	 -0.469763	 -0.346003	 -0.050736	 0.689282	 -0.279303	 0.666562	 1
1462068115.860	 5	 -0.036501	 0.323568	 -0.139667	 1.524704	 -0.470385	 -0.345346	 -0.050630	 0.690580	 -0.279382	 0.665193	 1
1462068115.870	 5	 -0.058681	 0.414759	 -0.190832	 1.529955	 -0.471273	 -0.344332	 -0.050567	 0.692281	 -0.279459	 0.663394	 1
1462068115.880	 5	 -0.087299	 0.525949	 -0.273738	 1.536429	 -0.473307	 -0.343020	 -0.050847	 0.694351	 -0.279836	 0.661047	 1
1462068115.890	 5	 -0.108213	 0.750344	 -0.432398	 1.543692	 -0.477162	 -0.341970	 -0.051573	 0.696637	 -0.280905	 0.658126	 1
1462068115.900	 5	 -0.090997	 0.955122	 -0.640597	 1.553277	 -0.483190	 -0.341059	 -0.052688	 0.699620	 -0.282786	 0.654056	 1
1462068115.910	 5	 -0.111522	 0.928367	 -0.671575	 1.563250	 -0.489916	 -0.339978	 -0.054036	 0.702674	 -0.284862	 0.649756	 1
1462068115.930	 6	 -0.142298	 0.928768	 -0.628672	 1.582360	 -0.502716	 -0.336818	 -0.056919	 0.708397	 -0.288514	 0.641633	 1
1462068115.950	 7	 -0.065492	 1.127617	 -0.604043	 1.605473	 -0.515418	 -0.334364	 -0.058862	 0.715275	 -0.292549	 0.631928	 1
1462068115.960	 7	 -0.052614	 1.060221	 -0.505666	 1.616677	 -0.520694	 -0.333483	 -0.059356	 0.718589	 -0.294339	 0.627273	 1
1462068115.970	 7	 0.004842	 0.955348	 -0.424012	 1.626672	 -0.525089	 -0.333115	 -0.059524	 0.721539	 -0.295973	 0.623088	 1
1462068115.980	 7	 -0.035992	 1.081495	 -0.645227	 1.637065	 -0.530524	 -0.332591	 -0.060029	 0.724538	 -0.297925	 0.618613	 1
1462068115.990	 7	 -0.084593	 1.428571	 -1.204297	 1.651498	 -0.541219	 -0.330700	 -0.062186	 0.728477	 -0.301351	 0.612079	 1
1462068116.000	 7	 -0.076440	 1.785150	 -1.456833	 1.669610	 -0.555194	 -0.328332	 -0.065008	 0.733275	 -0.305896	 0.603747	 1
1462068116.010	 7	 -0.155242	 2.183060	 -1.618703	 1.692387	 -0.570713	 -0.324765	 -0.067977	 0.739198	 -0.310831	 0.593590	 1
1462068116.020	 7	 -0.309596	 2.517433	 -1.919055	 1.720114	 -0.588500	 -0.318633	 -0.071748	 0.746137	 -0.316068	 0.581577	 1
1462068116.030	 7	 -0.477679	 2.777409	 -2.363859	 1.752740	 -0.609925	 -0.308934	 -0.077091	 0.753800	 -0.321892	 0.567651	 1
1462068116.040	 7	 -0.632304	 2.995466	 -2.863523	 1.790277	 -0.635559	 -0.295024	 -0.084349	 0.761899	 -0.328481	 0.551811	 1
1462068116.050	 7	 -0.762258	 3.218954	 -3.337774	 1.833144	 -0.665088	 -0.276439	 -0.093422	 0.770265	 -0.335825	 0.534028	 1
1462068116.060	 7	 -0.869532	 3.478717	 -3.787371	 1.882243	 -0.697952	 -0.252619	 -0.104078	 0.778818	 -0.343870	 0.514164	 1
1462068116.070	 7	 -0.961802	 3.750151	 -4.234859	 1.938748	 -0.733679	 -0.222678	 -0.116165	 0.787455	 -0.352585	 0.492041	 1
1462068116.080	 7	 -1.029170	 4.033760	 -4.606782	 2.003538	 -0.771405	 -0.185711	 -0.129461	 0.795969	 -0.361853	 0.467692	 1
1462068116.090	 7	 -1.096620	 4.225479	 -4.890035	 2.077076	 -0.809578	 -0.141060	 -0.143546	 0.804144	 -0.371374	 0.441395	 1
1462068116.100	 7	 -1.258855	 4.342957	 -5.035670	 2.159868	 -0.846012	 -0.087245	 -0.158252	 0.811866	 -0.380434	 0.413641	 1
1462068116.110	 7	 -1.584002	 4.181250	 -5.025818	 2.251630	 -0.877782	 -0.022888	 -0.173547	 0.819111	 -0.387989	 0.385230	 1
1462068116.120	 7	 -1.076543	 -0.738525	 -3.874902	 2.307402	 -0.901520	 0.037745	 -0.191983	 0.819472	 -0.391349	 0.372095	 1
1462068116.130	 7	 -0.011230	 -4.295178	 -2.264277	 2.294470	 -0.919372	 0.068843	 -0.210360	 0.810237	 -0.391544	 0.382045	 1
1462068116.140	 7	 0.243449	 -4.000976	 -1.632825	 2.265307	 -0.934022	 0.084903	 -0.225152	 0.799739	 -0.391248	 0.395788	 1
1462068116.150	 7	 0.055443	 -2.742724	 -1.561928	 2.246870	 -0.946844	 0.100059	 -0.237113	 0.791561	 -0.391299	 0.405084	 1
1462068116.170	 8	 -0.532724	 -0.283920	 -1.835538	 2.261226	 -0.969695	 0.146388	 -0.256597	 0.783740	 -0.392946	 0.406820	 1
1462068116.180	 8	 -0.735671	 0.694223	 -1.969613	 2.292268	 -0.979949	 0.178178	 -0.264656	 0.783534	 -0.394759	 0.400247	 1
1462068116.190	 8	 -0.628574	 1.070883	 -2.053367	 2.330950	 -0.990349	 0.212230	 -0.271961	 0.784200	 -0.397480	 0.391252	 1
1462068116.200	 8	 -0.061811	 0.630899	 -2.053857	 2.363333	 -1.003516	 0.241611	 -0.278900	 0.783291	 -0.401682	 0.383825	 1
1462068116.210	 8	 0.393106	 0.032734	 -2.074042	 2.385483	 -1.019983	 0.265684	 -0.286037	 0.780106	 -0.407032	 0.379398	 1
1462068116.220	 8	 0.442504	 -0.206932	 -2.249356	 2.405353	 -1.038214	 0.290947	 -0.294075	 0.775657	 -0.412686	 0.376252	 1
1462068116.230	 8	 0.257170	 -0.095909	 -2.561109	 2.432727	 -1.056894	 0.324068	 -0.303352	 0.771075	 -0.418308	 0.372074	 1
1462068116.240	 8	 0.129293	 0.000929	 -2.899072	 2.470106	 -1.076026	 0.366983	 -0.313935	 0.766366	 -0.424073	 0.366456	 1
1462068116.250	 8	 0.120091	 0.084109	 -3.165725	 2.516410	 -1.095693	 0.418613	 -0.325456	 0.761271	 -0.430247	 0.359768	 1
1462068116.260	 8	 0.219186	 0.219573	 -3.365690	 2.570683	 -1.115962	 0.477308	 -0.337296	 0.755680	 -0.437178	 0.352213	 1
1462068116.270	 8	 0.295355	 0.460502	 -3.551686	 2.634832	 -1.136358	 0.543967	 -0.349135	 0.749737	 -0.445006	 0.343465	 1
1462068116.280	 8	 0.377213	 0.728417	 -3.680994	 2.709953	 -1.156047	 0.619157	 -0.360686	 0.743577	 -0.453681	 0.333426	 1
1462068116.290	 8	 0.518168	 1.042234	 -3.763496	 2.796094	 -1.174671	 0.702445	 -0.371566	 0.737198	 -0.463344	 0.322164	 1
1462068116.300	 8	 0.720413	 1.411542	 -3.795925	 2.893353	 -1.192171	 0.793267	 -0.381339	 0.730573	 -0.474262	 0.309709	 1
1462068116.310	 8	 0.979687	 1.813169	 -3.748617	 3.001119	 -1.208398	 0.890500	 -0.389542	 0.723719	 -0.486577	 0.296193	 1
1462068116.320	 8	 1.260611	 2.183657	 -3.586686	 3.117088	 -1.223331	 0.991858	 -0.395732	 0.716661	 -0.500242	 0.282049	 1
1462068116.330	 8	 1.355638	 2.457292	 -3.362223	 -3.044882	 -1.235553	 1.095057	 -0.399958	 0.709764	 -0.514483	 0.267537	 1
1462068116.340	 8	 1.218982	 2.563919	 -3.234280	 -2.919851	 -1.242929	 1.200244	 -0.403169	 0.703225	 -0.528344	 0.252552	 1
1462068116.350	 8	 0.747220	 2.159357	 -3.038903	 -2.802050	 -1.242905	 1.300284	 -0.406752	 0.697412	 -0.539929	 0.238005	 1
1462068116.360	 8	 0.077741	 1.173109	 -2.761956	 -2.708842	 -1.234455	 1.383659	 -0.412418	 0.692616	 -0.547001	 0.225796	 1
1462068116.370	 8	 -0.481524	 0.160712	 -2.379635	 -2.647197	 -1.220183	 1.444857	 -0.420278	 0.688868	 -0.549359	 0.216869	 1
1462068116.380	 8	 -0.809107	 -0.489768	 -1.863810	 -2.613865	 -1.203876	 1.484248	 -0.428939	 0.686280	 -0.548185	 0.211009	 1
1462068116.390	 8	 -0.839005	 -0.640849	 -1.149829	 -2.601858	 -1.189730	 1.503977	 -0.436162	 0.685042	 -0.545295	 0.207685	 1
1462068116.400	 8	 -0.625336	 -0.363346	 -0.344456	 -2.603568	 -1.181036	 1.506975	 -0.439955	 0.685261	 -0.542515	 0.206238	 1
1462068116.410	 8	 -0.343546	 0.052828	 0.250592	 -2.611822	 -1.178122	 1.498654	 -0.440104	 0.686594	 -0.540849	 0.205862	 1
1462068116.420	 8	 -0.136865	 0.485526	 0.454248	 -2.619110	 -1.178681	 1.486612	 -0.437789	 0.688419	 -0.540625	 0.205294	 1
1462068116.430	 8	 -0.000595	 0.708966	 0.374143	 -2.621333	 -1.180434	 1.476944	 -0.434602	 0.690079	 -0.541563	 0.204012	 1
1462068116.440	 8	 0.084570	 0.618878	 0.159411	 -2.618518	 -1.182093	 1.472868	 -0.432000	 0.691038	 -0.543000	 0.202470	 1
1462068116.450	 8	 0.098361	 0.327992	 -0.053371	 -2.613141	 -1.182925	 1.474286	 -0.430811	 0.691169	 -0.544223	 0.201266	 1
1462068116.460	 8	 0.074137	 0.023186	 -0.147652	 -2.608343	 -1.182950	 1.478425	 -0.430928	 0.690756	 -0.544847	 0.200744	 1
1462068116.470	 8	 0.062610	 -0.180798	 -0.120674	 -2.606144	 -1.182829	 1.482307	 -0.431701	 0.690155	 -0.544902	 0.201003	 1
1462068116.480	 8	 0.064813	 -0.223912	 -0.051820	 -2.606130	 -1.183028	 1.484718	 -0.432477	 0.689611	 -0.544711	 0.201720	 1
1462068116.490	 8	 0.062052	 -0.159836	 -0.017096	 -2.606661	 -1.183454	 1.486083	 -0.432980	 0.689209	 -0.544562	 0.202413	 1
1462068116.500	 8	 0.036774	 -0.084285	 -0.022567	 -2.606708	 -1.183732	 1.487138	 -0.433283	 0.688942	 -0.544513	 0.202807	 1
1462068116.510	 8	 0.013584	 -0.025698	 -0.019688	 -2.606416	 -1.183780	 1.487874	 -0.433445	 0.688806	 -0.544514	 0.202922	 1
1462068116.520	 8	 0.012780	 0.018016	 -0.005420	 -2.606019	 -1.183838	 1.488218	 -0.433439	 0.688764	 -0.544579	 0.202898	 1
1462068116.530	 8	 0.021419	 0.046648	 -0.013755	 -2.605164	 -1.183948	 1.488700	 -0.433344	 0.688733	 -0.544742	 0.202771	 1
1462068116.540	 8	 0.025532	 0.037917	 -0.042647	 -2.603652	 -1.183983	 1.489872	 -0.433326	 0.688628	 -0.544960	 0.202580	 1
1462068116.550	 8	 0.019989	 0.016466	 -0.069443	 -2.601806	 -1.183837	 1.491636	 -0.433469	 0.688451	 -0.545146	 0.202378	 1
1462068116.560	 8	 0.018860	 -0.003678	 -0.061094	 -2.600164	 -1.183671	 1.493391	 -0.433669	 0.688256	 -0.545284	 0.202237	 1
1462068116.570	 8	 0.008184	 -0.032126	 -0.028227	 -2.599492	 -1.183572	 1.494384	 -0.433854	 0.688121	 -0.545305	 0.202245	 1
1462068116.580	 8	 0.018795	 -0.066010	 -0.003057	 -2.599734	 -1.183655	 1.494738	 -0.434020	 0.688010	 -0.545237	 0.202451	 1
1462068116.590	 8	 0.038969	 -0.098944	 0.010316	 -2.600335	 -1.183977	 1.495077	 -0.434215	 0.687836	 -0.545150	 0.202856	 1
1462068116.600	 8	 0.050690	 -0.122210	 0.033444	 -2.601468	 -1.184528	 1.495116	 -0.434392	 0.687645	 -0.545034	 0.203436	 1
1462068116.610	 8	 0.049551	 -0.138154	 0.034372	 -2.602987	 -1.185159	 1.494938	 -0.434578	 0.687452	 -0.544875	 0.204115	 1
1462068116.620	 8	 0.041956	 -0.140468	 0.005641	 -2.604111	 -1.185597	 1.495246	 -0.434874	 0.687217	 -0.544706	 0.204729	 1
1462068116.630	 8	 0.038751	 -0.122525	 -0.015491	 -2.603711	 -1.185466	 1.496925	 -0.435377	 0.686908	 -0.544589	 0.205006	 1
1462068116.640	 8	 0.024046	 -0.059839	 -0.030766	 -2.603567	 -1.185569	 1.497933	 -0.435656	 0.686691	 -0.544542	 0.205264	 1
1462068116.650	 8	 0.005179	 0.024164	 -0.042582	 -2.606958	 -1.185054	 1.494903	 -0.435674	 0.687066	 -0.543989	 0.205436	 1
1462068116.660	 8	 -0.021215	 0.090137	 -0.049198	 -2.605374	 -1.184687	 1.495800	 -0.435648	 0.687078	 -0.544153	 0.205016	 1
1462068116.670	 8	 -0.045579	 0.128476	 -0.050722	 -2.607758	 -1.184919	 1.492559	 -0.435122	 0.687511	 -0.544023	 0.205029	 1
1462068116.680	 8	 -0.068920	 0.156209	 -0.049195	 -2.606012	 -1.184125	 1.492831	 -0.434950	 0.687728	 -0.544181	 0.204245	 1
1462068116.690	 8	 -0.077445	 0.155202	 -0.044867	 -2.604424	 -1.183227	 1.492848	 -0.434760	 0.687997	 -0.544306	 0.203410	 1
1462068116.700	 8	 -0.084860	 0.162671	 -0.042584	 -2.603892	 -1.183294	 1.491835	 -0.434249	 0.688262	 -0.544541	 0.202973	 1
1462068116.710	 8	 -0.083855	 0.149865	 -0.045892	 -2.603229	 -1.183373	 1.490992	 -0.433757	 0.688503	 -0.544789	 0.202541	 1
1462068116.720	 8	 -0.061685	 0.098711	 -0.048677	 -2.602587	 -1.183646	 1.490572	 -0.433366	 0.688625	 -0.545037	 0.202295	 1
1462068116.730	 8	 -0.045852	 0.048760	 -0.035415	 -2.601895	 -1.183744	 1.490653	 -0.433179	 0.688666	 -0.545203	 0.202110	 1
1462068116.740	 8	 -0.025658	 0.010582	 -0.011435	 -2.601266	 -1.183556	 1.491031	 -0.433187	 0.688671	 -0.545256	 0.201936	 1
1462068116.750	 8	 -0.028798	 0.009653	 0.005632	 -2.601212	 -1.183220	 1.490922	 -0.433224	 0.688741	 -0.545196	 0.201778	 1
1462068116.760	 8	 -0.050886	 0.077797	 0.006458	 -2.601546	 -1.182726	 1.490004	 -0.433129	 0.688966	 -0.545096	 0.201482	 1
1462068116.770	 8	 -0.089969	 0.172499	 -0.004031	 -2.602967	 -1.181910	 1.487201	 -0.432765	 0.689530	 -0.544871	 0.200942	 1
1462068116.780	 8	 -0.144008	 0.270369	 -0.022875	 -2.604740	 -1.180954	 1.483079	 -0.432077	 0.690361	 -0.544667	 0.200120	 1
1462068116.790	 8	 -0.202410	 0.358583	 -0.054546	 -2.607039	 -1.179626	 1.477580	 -0.431152	 0.691483	 -0.544393	 0.198986	 1
1462068116.800	 8	 -0.260776	 0.454242	 -0.086147	 -2.608662	 -1.177616	 1.471854	 -0.430137	 0.692806	 -0.544113	 0.197338	 1
1462068116.810	 8	 -0.307323	 0.564788	 -0.114554	 -2.604718	 -1.174541	 1.470349	 -0.429345	 0.693899	 -0.544345	 0.194566	 1
1462068116.820	 8	 -0.341052	 0.674262	 -0.138820	 -2.599638	 -1.171005	 1.468881	 -0.428375	 0.695140	 -0.544697	 0.191258	 1
1462068116.830	 8	 -0.369370	 0.789132	 -0.150294	 -2.593496	 -1.167143	 1.467317	 -0.427167	 0.696528	 -0.545200	 0.187443	 1
1462068116.840	 8	 -0.379733	 0.864591	 -0.162288	 -2.586822	 -1.163139	 1.465411	 -0.425729	 0.698036	 -0.545805	 0.183297	 1
1462068116.850	 8	 -0.346852	 0.835657	 -0.178830	 -2.579257	 -1.159170	 1.464375	 -0.424341	 0.699413	 -0.546521	 0.179082	 1
1462068116.860	 8	 -0.271763	 0.695010	 -0.182924	 -2.571948	 -1.155705	 1.464286	 -0.423221	 0.700486	 -0.547218	 0.175371	 1
1462068116.870	 8	 -0.169262	 0.472479	 -0.174163	 -2.565643	 -1.153073	 1.465329	 -0.422553	 0.701118	 -0.547810	 0.172589	 1
1462068116.880	 8	 -0.066815	 0.210806	 -0.134855	 -2.560877	 -1.152266	 1.467431	 -0.422196	 0.701176	 -0.548437	 0.171231	 1
1462068116.890	 8	 0.001649	 -0.011422	 -0.098085	 -2.558658	 -1.151595	 1.469450	 -0.422473	 0.701015	 -0.548568	 0.170787	 1
1462068116.900	 8	 0.030951	 -0.150698	 -0.078321	 -2.557966	 -1.151359	 1.471520	 -0.423070	 0.700663	 -0.548479	 0.171035	 1
1462068116.910	 8	 0.013244	 -0.278333	 -0.085749	 -2.558669	 -1.151079	 1.473471	 -0.424021	 0.700221	 -0.548094	 0.171724	 1
1462068116.920	 8	 -0.029516	 -0.284688	 -0.098209	 -2.561143	 -1.151026	 1.474145	 -0.424948	 0.699871	 -0.547498	 0.172757	 1
1462068116.930	 8	 -0.080551	 -0.238851	 -0.104799	 -2.562562	 -1.149899	 1.475352	 -0.426056	 0.699618	 -0.546816	 0.173215	 1
1462068116.940	 8	 -0.117256	 -0.101542	 -0.105333	 -2.563377	 -1.148411	 1.476032	 -0.426909	 0.699569	 -0.546218	 0.173197	 1
1462068116.950	 8	 -0.139639	 0.129336	 -0.104055	 -2.562395	 -1.146710	 1.476355	 -0.427203	 0.699775	 -0.545982	 0.172384	 1
1462068116.960	 8	 -0.148095	 0.386714	 -0.113334	 -2.559035	 -1.142703	 1.476532	 -0.427404	 0.700470	 -0.545700	 0.169941	 1
1462068116.970	 8	 -0.165279	 0.617329	 -0.146208	 -2.552827	 -1.140625	 1.477144	 -0.426472	 0.701090	 -0.546464	 0.167249	 1
1462068116.980	 8	 -0.222613	 0.731914	 -0.208589	 -2.544768	 -1.137840	 1.478188	 -0.425371	 0.701835	 -0.547412	 0.163791	 1
1462068116.990	 8	 -0.278578	 0.691151	 -0.278821	 -2.536238	 -1.134171	 1.479762	 -0.424561	 0.702579	 -0.548203	 0.160016	 1
1462068117.000	 8	 -0.308173	 0.562225	 -0.322393	 -2.528500	 -1.129891	 1.481730	 -0.424269	 0.703216	 -0.548649	 0.156419	 1
1462068117.010	 8	 -0.302347	 0.440948	 -0.323573	 -2.521904	 -1.125520	 1.483821	 -0.424360	 0.703725	 -0.548828	 0.153223	 1
1462068117.020	 8	 -0.294158	 0.335897	 -0.286254	 -2.516836	 -1.121383	 1.485429	 -0.424639	 0.704180	 -0.548781	 0.150505	 1
1462068117.030	 8	 -0.278331	 0.249053	 -0.228583	 -2.513503	 -1.117664	 1.486142	 -0.424969	 0.704641	 -0.548538	 0.148289	 1
1462068117.040	 8	 -0.234438	 0.227033	 -0.167356	 -2.511205	 -1.114589	 1.486175	 -0.425171	 0.705100	 -0.548281	 0.146463	 1
1462068117.050	 8	 -0.166682	 0.294221	 -0.115098	 -2.508606	 -1.112344	 1.486030	 -0.425007	 0.705535	 -0.548301	 0.144759	 1
1462068117.060	 8	 -0.091290	 0.411248	 -0.080561	 -2.504685	 -1.110942	 1.486138	 -0.424344	 0.705927	 -0.548788	 0.142937	 1
1462068117.070	 8	 -0.029882	 0.515459	 -0.058811	 -2.499288	 -1.110209	 1.486700	 -0.423257	 0.706260	 -0.549715	 0.140941	 1
1462068117.080	 8	 0.013292	 0.616395	 -0.056116	 -2.492434	 -1.109906	 1.487757	 -0.421825	 0.706544	 -0.551016	 0.138710	 1
1462068117.090	 8	 0.027551	 0.710904	 -0.071347	 -2.484195	 -1.109708	 1.489275	 -0.420142	 0.706808	 -0.552599	 0.136151	 1
1462068117.100	 8	 0.013954	 0.794751	 -0.101356	 -2.474742	 -1.109288	 1.491189	 -0.418316	 0.707081	 -0.554352	 0.133198	 1
1462068117.110	 8	 -0.040216	 0.881841	 -0.140573	 -2.464395	 -1.108287	 1.493136	 -0.416403	 0.707443	 -0.556147	 0.129744	 1
1462068117.120	 8	 -0.122405	 0.912632	 -0.181135	 -2.453889	 -1.106425	 1.494698	 -0.414538	 0.707948	 -0.557793	 0.125834	 1
1462068117.130	 8	 -0.212534	 0.832925	 -0.208802	 -2.444584	 -1.103665	 1.495482	 -0.412974	 0.708590	 -0.559027	 0.121826	 1
1462068117.140	 8	 -0.282749	 0.657597	 -0.214085	 -2.437702	 -1.100250	 1.495297	 -0.411920	 0.709318	 -0.559663	 0.118181	 1
1462068117.150	 8	 -0.320908	 0.465378	 -0.188898	 -2.433627	 -1.096578	 1.494136	 -0.411376	 0.710086	 -0.559717	 0.115168	 1
1462068117.160	 8	 -0.311640	 0.342419	 -0.127242	 -2.431835	 -1.093247	 1.492025	 -0.411040	 0.710884	 -0.559431	 0.112814	 1
1462068117.170	 8	 -0.273124	 0.316122	 -0.071337	 -2.431013	 -1.090550	 1.489368	 -0.410604	 0.711686	 -0.559120	 0.110867	 1
1462068117.180	 8	 -0.224922	 0.336342	 -0.050253	 -2.429890	 -1.088401	 1.486906	 -0.410003	 0.712420	 -0.558983	 0.109053	 1
1462068117.190	 8	 -0.193860	 0.364930	 -0.055587	 -2.428039	 -1.086548	 1.484966	 -0.409302	 0.713062	 -0.559033	 0.107225	 1
1462068117.200	 8	 -0.200307	 0.418647	 -0.130700	 -2.424950	 -1.084382	 1.483923	 -0.408659	 0.713606	 -0.559212	 0.105100	 1
1462068117.210	 8	 -0.249391	 0.518978	 -0.248704	 -2.419794	 -1.081156	 1.484173	 -0.408191	 0.714067	 -0.559496	 0.102240	 1
1462068117.220	 8	 -0.318261	 0.619061	 -0.249309	 -2.413927	 -1.077194	 1.484092	 -0.407607	 0.714672	 -0.559769	 0.098782	 1
1462068117.230	 8	 -0.402729	 0.709530	 -0.128366	 -2.409503	 -1.073270	 1.481302	 -0.406449	 0.715741	 -0.559886	 0.095091	 1
1462068117.240	 8	 -0.438433	 0.737049	 -0.014828	 -2.406948	 -1.069785	 1.475851	 -0.404737	 0.717217	 -0.559839	 0.091472	 1
1462068117.250	 8	 -0.403134	 0.702298	 0.047421	 -2.405253	 -1.066906	 1.469555	 -0.402792	 0.718772	 -0.559785	 0.088130	 1
1462068117.260	 8	 -0.317848	 0.601712	 0.144858	 -2.404744	 -1.065183	 1.462997	 -0.400762	 0.720236	 -0.559763	 0.085531	 1
1462068117.270	 8	 -0.234540	 0.516178	 0.263768	 -2.405466	 -1.064827	 1.456013	 -0.398544	 0.721627	 -0.559829	 0.083717	 1
1462068117.280	 8	 -0.187131	 0.437776	 0.471515	 -2.408904	 -1.066190	 1.446880	 -0.395835	 0.723196	 -0.559854	 0.082858	 1
1462068117.290	 8	 -0.199825	 0.376856	 0.572306	 -2.414891	 -1.068479	 1.435580	 -0.392797	 0.724999	 -0.559696	 0.082627	 1
1462068117.300	 8	 -0.274968	 0.296133	 0.557289	 -2.422458	 -1.070304	 1.423339	 -0.389975	 0.726936	 -0.559167	 0.082555	 1
1462068117.310	 8	 -0.370605	 0.191876	 0.515587	 -2.431762	 -1.071156	 1.410218	 -0.387568	 0.729031	 -0.558112	 0.082558	 1
1462068117.320	 8	 -0.404661	 0.095303	 0.384962	 -2.441254	 -1.070835	 1.398090	 -0.385873	 0.731012	 -0.556696	 0.082537	 1
1462068117.330	 8	 -0.372326	 0.048509	 0.252090	 -2.449084	 -1.069679	 1.388502	 -0.384849	 0.732641	 -0.555289	 0.082360	 1
1462068117.340	 8	 -0.318880	 0.054839	 0.266604	 -2.456022	 -1.068708	 1.380086	 -0.383945	 0.734062	 -0.554052	 0.082254	 1
1462068117.350	 8	 -0.272128	 0.141685	 0.381042	 -2.463070	 -1.068745	 1.370697	 -0.382436	 0.735567	 -0.553097	 0.082257	 1
1462068117.360	 8	 -0.221421	 0.213186	 0.434554	 -2.469791	 -1.069561	 1.360765	 -0.380423	 0.737106	 -0.552438	 0.082249	 1
1462068117.370	 8	 -0.165233	 0.212175	 0.610972	 -2.477514	 -1.071586	 1.349453	 -0.377854	 0.738731	 -0.551975	 0.082623	 1
1462068117.380	 8	 -0.169111	 0.092683	 0.851822	 -2.489787	 -1.075185	 1.334044	 -0.374607	 0.740747	 -0.551270	 0.084055	 1
1462068117.390	 8	 -0.152684	 -0.015046	 0.816572	 -2.504111	 -1.078989	 1.317789	 -0.371546	 0.742759	 -0.550320	 0.086088	 1
1462068117.400	 8	 -0.117854	 0.089601	 0.594498	 -2.514905	 -1.081819	 1.304984	 -0.369033	 0.744343	 -0.549653	 0.087462	 1
1462068117.410	 8	 -0.080518	 0.279273	 0.364668	 -2.519972	 -1.083544	 1.296606	 -0.366868	 0.745464	 -0.549565	 0.087581	 1
1462068117.420	 8	 -0.052889	 0.401301	 0.189712	 -2.520358	 -1.084393	 1.291915	 -0.365010	 0.746206	 -0.549934	 0.086698	 1
1462068117.430	 8	 -0.067659	 0.479686	 0.139413	 -2.518579	 -1.084720	 1.288725	 -0.363247	 0.746825	 -0.550486	 0.085257	 1
1462068117.440	 8	 -0.135506	 0.494413	 0.236060	 -2.518049	 -1.084989	 1.283676	 -0.361147	 0.747730	 -0.550871	 0.083752	 1
1462068117.450	 8	 -0.203713	 0.420964	 0.346809	 -2.520621	 -1.085331	 1.275760	 -0.358807	 0.749007	 -0.550833	 0.082639	 1
1462068117.460	 8	 -0.236200	 0.268356	 0.409618	 -2.526176	 -1.085749	 1.265949	 -0.356554	 0.750482	 -0.550361	 0.082148	 1
1462068117.470	 8	 -0.186976	 0.056675	 0.426403	 -2.533994	 -1.086531	 1.255919	 -0.354742	 0.751848	 -0.549606	 0.082563	 1
1462068117.480	 8	 -0.088410	 -0.006010	 0.329043	 -2.540843	 -1.087623	 1.248187	 -0.353444	 0.752796	 -0.549026	 0.083346	 1
1462068117.490	 8	 -0.005119	 0.055000	 0.269203	 -2.545063	 -1.088967	 1.243029	 -0.352328	 0.753358	 -0.548884	 0.083923	 1
1462068117.500	 8	 -0.015159	 0.197479	 0.258893	 -2.547726	 -1.090392	 1.238218	 -0.350896	 0.753909	 -0.549029	 0.084032	 1
1462068117.510	 8	 -0.091752	 0.335228	 0.156397	 -2.548420	 -1.090851	 1.234039	 -0.349397	 0.754552	 -0.549215	 0.083283	 1
1462068117.520	 8	 -0.203397	 0.391129	 0.193059	 -2.549072	 -1.090329	 1.228970	 -0.347791	 0.755476	 -0.549159	 0.081982	 1
1462068117.530	 8	 -0.335858	 0.405868	 0.411765	 -2.553928	 -1.089803	 1.218958	 -0.345466	 0.757083	 -0.548572	 0.080915	 1
1462068117.540	 8	 -0.435734	 0.395357	 0.535100	 -2.562624	 -1.089170	 1.204654	 -0.342580	 0.759278	 -0.547466	 0.080106	 1
1462068117.550	 8	 -0.394443	 0.373549	 0.478052	 -2.571185	 -1.088419	 1.190726	 -0.339806	 0.761416	 -0.546337	 0.079333	 1
1462068117.560	 8	 -0.253975	 0.371361	 0.379824	 -2.576973	 -1.088113	 1.180021	 -0.337380	 0.763042	 -0.545688	 0.078527	 1
1462068117.570	 8	 -0.104761	 0.380069	 0.321055	 -2.579976	 -1.088690	 1.172358	 -0.335136	 0.764132	 -0.545656	 0.077749	 1
1462068117.580	 8	 0.011479	 0.374310	 0.307200	 -2.581454	 -1.090264	 1.166479	 -0.332921	 0.764833	 -0.546114	 0.077161	 1
1462068117.590	 8	 0.061221	 0.368138	 0.209725	 -2.581115	 -1.091964	 1.162674	 -0.330972	 0.765234	 -0.546833	 0.076477	 1
1462068117.600	 8	 0.120129	 0.299983	 0.075358	 -2.578563	 -1.093434	 1.161920	 -0.329638	 0.765244	 -0.547729	 0.075714	 1
1462068117.610	 8	 0.143613	 0.158795	 -0.024211	 -2.575073	 -1.094614	 1.163629	 -0.329056	 0.764925	 -0.548597	 0.075185	 1
1462068117.620	 8	 0.128699	 -0.012823	 -0.082163	 -2.572262	 -1.095372	 1.166444	 -0.329181	 0.764459	 -0.549183	 0.075099	 1
1462068117.630	 8	 0.120275	 -0.161106	 -0.146350	 -2.570161	 -1.095697	 1.170235	 -0.329975	 0.763868	 -0.549484	 0.075431	 1
1462068117.640	 8	 0.124778	 -0.259644	 -0.238962	 -2.567771	 -1.095578	 1.175611	 -0.331399	 0.763086	 -0.549640	 0.075962	 1
1462068117.650	 8	 0.190537	 -0.135088	 -0.489895	 -2.560957	 -1.094678	 1.185280	 -0.333428	 0.761863	 -0.550137	 0.075762	 1
1462068117.660	 8	 0.358926	 -0.287835	 -0.364891	 -2.552987	 -1.094978	 1.196813	 -0.335549	 0.760195	 -0.551121	 0.075992	 1
1462068117.670	 8	 0.484486	 -0.798016	 -0.119212	 -2.551790	 -1.097838	 1.205530	 -0.337833	 0.758386	 -0.551827	 0.078780	 1
1462068117.680	 8	 0.573969	 -1.422483	 0.045786	 -2.558724	 -1.102536	 1.212081	 -0.341083	 0.756353	 -0.551758	 0.084594	 1
1462068117.690	 8	 0.522564	 -1.742003	 0.111469	 -2.571433	 -1.107627	 1.216756	 -0.345115	 0.754288	 -0.550861	 0.092180	 1
1462068117.700	 8	 0.417503	 -1.604597	 0.096610	 -2.585024	 -1.111952	 1.220183	 -0.349100	 0.752437	 -0.549604	 0.099512	 1
1462068117.710	 8	 0.202174	 -1.104045	 0.099946	 -2.596418	 -1.114675	 1.221395	 -0.352028	 0.751255	 -0.548345	 0.104926	 1
1462068117.720	 8	 -0.007953	 -0.398295	 0.094488	 -2.603461	 -1.115524	 1.219965	 -0.353218	 0.751012	 -0.547429	 0.107428	 1
1462068117.730	 8	 -0.122965	 0.105132	 0.094845	 -2.606111	 -1.115129	 1.216981	 -0.352916	 0.751453	 -0.547004	 0.107492	 1
1462068117.740	 8	 -0.149056	 0.205397	 0.123715	 -2.607611	 -1.114449	 1.213042	 -0.352007	 0.752166	 -0.546750	 0.106780	 1
1462068117.750	 8	 -0.123095	 0.028972	 0.152754	 -2.610683	 -1.114038	 1.208681	 -0.351303	 0.752829	 -0.546320	 0.106625	 1
1462068117.760	 8	 -0.049498	 -0.224219	 0.175336	 -2.615989	 -1.114285	 1.204550	 -0.351138	 0.753234	 -0.545683	 0.107567	 1
1462068117.770	 8	 0.024511	 -0.406013	 0.216696	 -2.623199	 -1.115390	 1.200627	 -0.351367	 0.753367	 -0.544961	 0.109531	 1
1462068117.780	 8	 0.011633	 -0.467266	 0.271658	 -2.632104	 -1.116819	 1.195822	 -0.351648	 0.753503	 -0.544092	 0.111988	 1
1462068117.790	 8	 -0.009285	 -0.456941	 0.366789	 -2.642870	 -1.118391	 1.188990	 -0.351635	 0.753854	 -0.543062	 0.114636	 1
1462068117.800	 8	 0.014624	 -0.431976	 0.445679	 -2.655098	 -1.120501	 1.180296	 -0.351190	 0.754343	 -0.542061	 0.117485	 1
1462068117.810	 8	 0.004171	 -0.333479	 0.383807	 -2.666083	 -1.122485	 1.172143	 -0.350638	 0.754806	 -0.541227	 0.119979	 1
1462068117.820	 8	 -0.076459	 -0.103556	 0.229981	 -2.673304	 -1.123250	 1.165986	 -0.350094	 0.755326	 -0.540569	 0.121254	 1
1462068117.830	 8	 -0.185121	 0.090077	 0.047287	 -2.676175	 -1.122253	 1.162341	 -0.349716	 0.755951	 -0.539978	 0.121077	 1
1462068117.840	 8	 -0.248295	 0.202711	 -0.139755	 -2.674682	 -1.119708	 1.161958	 -0.349738	 0.756522	 -0.539472	 0.119703	 1
1462068117.850	 8	 -0.266468	 0.233287	 -0.184074	 -2.671531	 -1.116519	 1.162903	 -0.349960	 0.757059	 -0.538975	 0.117879	 1
1462068117.860	 8	 -0.214319	 0.178044	 -0.154135	 -2.668694	 -1.113704	 1.163850	 -0.350185	 0.757511	 -0.538542	 0.116277	 1
1462068117.870	 8	 -0.132443	 0.038074	 -0.062364	 -2.667766	 -1.111936	 1.164035	 -0.350402	 0.757815	 -0.538144	 0.115482	 1
1462068117.880	 8	 -0.050906	 -0.190035	 0.048840	 -2.670039	 -1.111377	 1.162902	 -0.350709	 0.757971	 -0.537638	 0.115884	 1
1462068117.890	 8	 0.025289	 -0.375958	 0.108261	 -2.675187	 -1.111900	 1.160938	 -0.351231	 0.757931	 -0.537012	 0.117452	 1
1462068117.900	 8	 0.081423	 -0.447548	 0.085791	 -2.680580	 -1.112928	 1.159764	 -0.352005	 0.757652	 -0.536454	 0.119465	 1
1462068117.910	 8	 0.115301	 -0.506137	 0.087082	 -2.686073	 -1.114272	 1.159115	 -0.352934	 0.757217	 -0.535946	 0.121744	 1
1462068117.920	 8	 0.122604	 -0.540204	 0.085636	 -2.691939	 -1.115756	 1.158551	 -0.353964	 0.756713	 -0.535409	 0.124222	 1
1462068117.930	 8	 0.107706	 -0.513722	 0.064697	 -2.697506	 -1.117084	 1.158195	 -0.355027	 0.756209	 -0.534862	 0.126599	 1
1462068117.940	 8	 0.072639	 -0.458515	 0.036740	 -2.702323	 -1.118013	 1.158101	 -0.356075	 0.755764	 -0.534303	 0.128650	 1
1462068117.950	 8	 0.038765	 -0.383047	 0.016422	 -2.706338	 -1.118507	 1.158114	 -0.357044	 0.755420	 -0.533743	 0.130306	 1
1462068117.960	 8	 0.031663	 -0.301161	 0.011917	 -2.709497	 -1.118850	 1.158168	 -0.357832	 0.755146	 -0.533283	 0.131607	 1
1462068117.970	 8	 0.038399	 -0.225706	 0.006166	 -2.711776	 -1.119211	 1.158356	 -0.358432	 0.754901	 -0.532976	 0.132616	 1
1462068117.980	 8	 0.047206	 -0.172517	 0.010847	 -2.713383	 -1.119656	 1.158605	 -0.358858	 0.754675	 -0.532811	 0.133411	 1
1462068117.990	 8	 0.056871	 -0.165054	 0.017227	 -2.714863	 -1.120214	 1.158794	 -0.359202	 0.754449	 -0.532709	 0.134173	 1
1462068118.000	 8	 0.063203	 -0.186293	 0.024435	 -2.716563	 -1.120874	 1.158905	 -0.359553	 0.754203	 -0.532605	 0.135024	 1
1462068118.010	 8	 0.066263	 -0.215029	 0.023075	 -2.718529	 -1.121566	 1.159025	 -0.359972	 0.753931	 -0.532462	 0.135987	 1
1462068118.020	 8	 0.062977	 -0.225718	 0.014478	 -2.720535	 -1.122216	 1.159292	 -0.360465	 0.753637	 -0.532287	 0.136991	 1
1462068118.030	 8	 0.055513	 -0.218304	 0.007152	 -2.722420	 -1.122773	 1.159646	 -0.360980	 0.753349	 -0.532099	 0.137948	 1
1462068118.040	 8	 0.055536	 -0.204554	 -0.003378	 -2.724003	 -1.123282	 1.160187	 -0.361495	 0.753055	 -0.531937	 0.138827	 1
1462068118.050	 8	 0.049150	 -0.199232	 -0.005405	 -2.725447	 -1.123710	 1.160789	 -0.362013	 0.752773	 -0.531769	 0.139648	 1
1462068118.060	 8	 0.056591	 -0.198252	 -0.013986	 -2.726775	 -1.124160	 1.161521	 -0.362544	 0.752471	 -0.531619	 0.140465	 1
1462068118.070	 8	 0.069414	 -0.197226	 -0.014095	 -2.726364	 -1.125423	 1.163840	 -0.363034	 0.751864	 -0.531929	 0.141272	 1
1462068118.080	 8	 0.080078	 -0.196217	 -0.017376	 -2.727350	 -1.126064	 1.164922	 -0.363564	 0.751489	 -0.531875	 0.142105	 1
1462068118.090	 8	 0.089669	 -0.199456	 -0.019614	 -2.728476	 -1.127593	 1.165912	 -0.363905	 0.750968	 -0.532082	 0.143210	 1
1462068118.100	 8	 0.090702	 -0.206934	 -0.022880	 -2.729922	 -1.129301	 1.166709	 -0.364220	 0.750427	 -0.532300	 0.144432	 1
1462068118.110	 8	 0.083221	 -0.216445	 -0.016493	 -2.732340	 -1.130805	 1.166655	 -0.364518	 0.750004	 -0.532337	 0.145735	 1
1462068118.120	 8	 0.088546	 -0.220733	 -0.017624	 -2.735476	 -1.132677	 1.166031	 -0.364714	 0.749566	 -0.532401	 0.147256	 1
1462068118.130	 8	 0.102482	 -0.216466	 -0.009162	 -2.738365	 -1.134348	 1.165592	 -0.364959	 0.749143	 -0.532433	 0.148677	 1
1462068118.140	 8	 0.103667	 -0.196238	 -0.004699	 -2.741982	 -1.135900	 1.164335	 -0.365117	 0.748833	 -0.532356	 0.150119	 1
1462068118.150	 8	 0.086719	 -0.172772	 -0.001113	 -2.745708	 -1.137162	 1.162732	 -0.365238	 0.748624	 -0.532196	 0.151429	 1
1462068118.160	 8	 0.062271	 -0.151440	 -0.001748	 -2.749260	 -1.137986	 1.161041	 -0.365374	 0.748519	 -0.531936	 0.152532	 1
1462068118.170	 8	 0.048473	 -0.133339	 -0.003574	 -2.752494	 -1.138551	 1.159451	 -0.365518	 0.748462	 -0.531646	 0.153473	 1
1462068118.180	 8	 0.036811	 -0.117356	 -0.003305	 -2.755693	 -1.139187	 1.157715	 -0.365583	 0.748421	 -0.531397	 0.154380	 1
1462068118.190	 8	 0.032627	 -0.101388	 -0.002036	 -2.758428	 -1.140019	 1.156250	 -0.365585	 0.748329	 -0.531275	 0.155238	 1
1462068118.200	 8	 0.031658	 -0.082238	 -0.000767	 -2.761042	 -1.140687	 1.154719	 -0.365565	 0.748286	 -0.531129	 0.155989	 1
1462068118.210	 8	 0.029658	 -0.060910	 0.006923	 -2.763185	 -1.141369	 1.153394	 -0.365495	 0.748239	 -0.531058	 0.156622	 1
1462068118.220	 8	 0.028682	 -0.043878	 0.009234	 -2.765089	 -1.141968	 1.152106	 -0.365392	 0.748217	 -0.531002	 0.157152	 1
1462068118.230	 8	 0.023393	 -0.034292	 0.009378	 -2.766538	 -1.142414	 1.151117	 -0.365313	 0.748204	 -0.530957	 0.157551	 1
1462068118.240	 8	 0.018107	 -0.025845	 0.008426	 -2.767366	 -1.142707	 1.150624	 -0.365287	 0.748176	 -0.530938	 0.157808	 1
1462068118.250	 8	 0.012782	 -0.022647	 0.007438	 -2.768025	 -1.142865	 1.150221	 -0.365278	 0.748169	 -0.530900	 0.157990	 1
1462068118.260	 8	 0.013867	 -0.017348	 0.005348	 -2.768335	 -1.143108	 1.150101	 -0.365264	 0.748122	 -0.530931	 0.158139	 1
1462068118.270	 8	 0.016020	 -0.014156	 0.006425	 -2.768608	 -1.143287	 1.149986	 -0.365256	 0.748089	 -0.530947	 0.158258	 1
1462068118.280	 8	 0.019224	 -0.012054	 0.004285	 -2.768651	 -1.143513	 1.150064	 -0.365249	 0.748031	 -0.531005	 0.158355	 1
1462068118.290	 8	 0.020283	 -0.011016	 0.001088	 -2.768552	 -1.143645	 1.150274	 -0.365274	 0.747976	 -0.531049	 0.158409	 1
1462068118.300	 8	 0.019215	 -0.007844	 -0.002073	 -2.768392	 -1.143579	 1.150532	 -0.365341	 0.747954	 -0.531037	 0.158400	 1
1462068118.310	 8	 0.014969	 -0.002512	 -0.001989	 -2.768008	 -1.143514	 1.150954	 -0.365411	 0.747919	 -0.531053	 0.158351	 1
1462068118.320	 8	 0.009652	 0.001759	 -0.001905	 -2.767665	 -1.143434	 1.151286	 -0.365461	 0.747900	 -0.531064	 0.158290	 1
1462068118.330	 8	 0.010714	 0.001749	 -0.002981	 -2.767389	 -1.143440	 1.151548	 -0.365484	 0.747873	 -0.531095	 0.158258	 1
1462068118.340	 8	 0.012865	 0.005990	 -0.004027	 -2.766917	 -1.143577	 1.151963	 -0.365485	 0.747810	 -0.531192	 0.158228	 1
1462068118.350	 8	 0.016073	 0.007044	 -0.004045	 -2.766541	 -1.143831	 1.152280	 -0.365450	 0.747736	 -0.531317	 0.158240	 1
1462068118.360	 8	 0.021425	 0.008107	 -0.001950	 -2.766102	 -1.144218	 1.152646	 -0.365389	 0.747634	 -0.531492	 0.158277	 1
1462068118.370	 8	 0.017165	 0.010238	 -0.002958	 -2.765800	 -1.144604	 1.152868	 -0.365310	 0.747547	 -0.531652	 0.158326	 1
1462068118.380	 8	 0.017186	 0.012380	 -0.000805	 -2.765616	 -1.144949	 1.152943	 -0.365217	 0.747486	 -0.531790	 0.158369	 1
1462068118.390	 8	 0.015065	 0.015569	 -0.001821	 -2.765439	 -1.145265	 1.153000	 -0.365125	 0.747433	 -0.531918	 0.158403	 1
1462068118.400	 8	 0.015072	 0.016632	 -0.001810	 -2.765203	 -1.145536	 1.153103	 -0.365043	 0.747384	 -0.532039	 0.158414	 1
1462068118.410	 8	 0.010814	 0.019828	 -0.002808	 -2.764956	 -1.145681	 1.153189	 -0.364979	 0.747362	 -0.532124	 0.158384	 1
1462068118.420	 8	 0.008691	 0.024073	 -0.004881	 -2.764725	 -1.145704	 1.153216	 -0.364923	 0.747371	 -0.532171	 0.158311	 1
1462068118.430	 8	 0.005480	 0.023011	 -0.005928	 -2.764447	 -1.145697	 1.153289	 -0.364877	 0.747381	 -0.532214	 0.158224	 1
1462068118.440	 8	 0.004406	 0.020894	 -0.004872	 -2.764177	 -1.145690	 1.153371	 -0.364838	 0.747388	 -0.532254	 0.158143	 1
1462068118.450	 8	 0.003329	 0.019826	 -0.005938	 -2.763996	 -1.145696	 1.153384	 -0.364793	 0.747399	 -0.532288	 0.158081	 1
1462068118.460	 8	 0.005464	 0.018763	 -0.004899	 -2.763727	 -1.145809	 1.153481	 -0.364734	 0.747383	 -0.532366	 0.158036	 1
1462068118.470	 8	 0.003371	 0.027278	 -0.004801	 -2.763417	 -1.145954	 1.153560	 -0.364650	 0.747367	 -0.532462	 0.157980	 1
1462068118.480	 8	 0.001259	 0.032595	 -0.005798	 -2.762966	 -1.146026	 1.153702	 -0.364568	 0.747363	 -0.532556	 0.157869	 1
1462068118.490	 8	 0.001265	 0.032602	 -0.004731	 -2.762714	 -1.146154	 1.153660	 -0.364458	 0.747368	 -0.532646	 0.157798	 1
1462068118.500	 8	 0.002333	 0.032598	 -0.004738	 -2.762447	 -1.146272	 1.153625	 -0.364349	 0.747374	 -0.532735	 0.157720	 1
1462068118.510	 8	 0.003407	 0.029441	 0.000554	 -2.762408	 -1.146394	 1.153395	 -0.364226	 0.747397	 -0.532799	 0.157677	 1
1462068118.520	 8	 0.002318	 0.023077	 0.002638	 -2.762463	 -1.146488	 1.153113	 -0.364116	 0.747427	 -0.532841	 0.157648	 1
1462068118.530	 8	 0.004432	 0.017759	 0.003637	 -2.762507	 -1.146574	 1.152892	 -0.364027	 0.747448	 -0.532878	 0.157628	 1
1462068118.540	 8	 0.002287	 0.015638	 0.003636	 -2.762447	 -1.146631	 1.152789	 -0.363961	 0.747461	 -0.532915	 0.157594	 1
1462068118.550	 8	 -0.000913	 0.017760	 0.001552	 -2.762182	 -1.146608	 1.152865	 -0.363923	 0.747473	 -0.532950	 0.157509	 1
1462068118.560	 8	 -0.000916	 0.016696	 0.001541	 -2.761836	 -1.146703	 1.153026	 -0.363871	 0.747453	 -0.533030	 0.157448	 1
1462068118.570	 8	 -0.000908	 0.018817	 0.000493	 -2.761324	 -1.146802	 1.153315	 -0.363821	 0.747423	 -0.533132	 0.157360	 1
1462068118.580	 8	 0.000152	 0.017742	 -0.000591	 -2.761088	 -1.146950	 1.153365	 -0.363746	 0.747406	 -0.533218	 0.157325	 1
1462068118.590	 8	 0.000147	 0.014566	 0.001511	 -2.760805	 -1.147088	 1.153477	 -0.363683	 0.747383	 -0.533305	 0.157286	 1
1462068118.600	 8	 0.001201	 0.011372	 0.001472	 -2.760570	 -1.147205	 1.153573	 -0.363631	 0.747363	 -0.533377	 0.157255	 1
1462068118.610	 8	 0.003306	 0.006040	 0.000338	 -2.760437	 -1.147269	 1.153620	 -0.363600	 0.747354	 -0.533418	 0.157235	 1
1462068118.620	 8	 0.005410	 -0.001405	 0.001316	 -2.760335	 -1.147347	 1.153707	 -0.363589	 0.747332	 -0.533454	 0.157241	 1
1462068118.630	 8	 0.006457	 -0.005663	 0.001267	 -2.760299	 -1.147429	 1.153785	 -0.363591	 0.747306	 -0.533481	 0.157270	 1
1462068118.640	 8	 0.006454	 -0.004614	 -0.000855	 -2.760158	 -1.147492	 1.153977	 -0.363612	 0.747270	 -0.533512	 0.157286	 1
1462068118.650	 8	 0.003285	 0.001778	 -0.000770	 -2.759789	 -1.147644	 1.154318	 -0.363608	 0.747210	 -0.533600	 0.157279	 1
1462068118.660	 8	 0.000125	 0.009241	 0.000393	 -2.759652	 -1.147797	 1.154374	 -0.363560	 0.747183	 -0.533669	 0.157284	 1
1462068118.670	 8	 -0.000935	 0.010307	 0.000414	 -2.759592	 -1.147970	 1.154336	 -0.363493	 0.747164	 -0.533738	 0.157298	 1
1462068118.680	 8	 -0.002005	 0.008190	 0.001470	 -2.759534	 -1.148159	 1.154304	 -0.363426	 0.747140	 -0.533811	 0.157319	 1
1462068118.690	 8	 -0.000914	 0.009281	 0.005735	 -2.759617	 -1.148343	 1.154129	 -0.363344	 0.747132	 -0.533868	 0.157352	 1
1462068118.700	 8	 -0.001981	 0.006116	 0.008914	 -2.759819	 -1.148505	 1.153856	 -0.363261	 0.747137	 -0.533904	 0.157398	 1
1462068118.710	 8	 -0.003049	 0.004007	 0.011036	 -2.760041	 -1.148618	 1.153566	 -0.363188	 0.747152	 -0.533923	 0.157434	 1
1462068118.720	 8	 -0.004134	 -0.000244	 0.011005	 -2.760123	 -1.148724	 1.153431	 -0.363137	 0.747151	 -0.533952	 0.157457	 1
1462068118.730	 8	 -0.000957	 -0.004516	 0.009872	 -2.760271	 -1.148771	 1.153285	 -0.363112	 0.747157	 -0.533951	 0.157486	 1
1462068118.740	 8	 -0.000960	 -0.003467	 0.007748	 -2.760245	 -1.148795	 1.153316	 -0.363112	 0.747149	 -0.533961	 0.157491	 1
1462068118.750	 8	 -0.006262	 0.007155	 0.003628	 -2.759936	 -1.148730	 1.153539	 -0.363126	 0.747145	 -0.533979	 0.157417	 1
1462068118.760	 8	 -0.007290	 0.017773	 0.000537	 -2.759564	 -1.148727	 1.153725	 -0.363097	 0.747141	 -0.534031	 0.157327	 1
1462068118.770	 8	 -0.007276	 0.020956	 -0.000500	 -2.759177	 -1.148814	 1.153882	 -0.363034	 0.747127	 -0.534117	 0.157248	 1
1462068118.780	 8	 -0.004088	 0.015644	 0.001554	 -2.758729	 -1.148982	 1.154123	 -0.362969	 0.747088	 -0.534232	 0.157190	 1
1462068118.790	 8	 0.001253	 0.014581	 0.003628	 -2.758349	 -1.149117	 1.154323	 -0.362913	 0.747057	 -0.534328	 0.157138	 1
1462068118.800	 8	 0.003380	 0.012448	 0.003587	 -2.757814	 -1.149241	 1.154686	 -0.362879	 0.747011	 -0.534436	 0.157068	 1
1462068118.810	 8	 0.006563	 0.010296	 0.001405	 -2.757241	 -1.149318	 1.155102	 -0.362865	 0.746967	 -0.534532	 0.156986	 1
1462068118.820	 8	 0.007592	 0.003897	 -0.000797	 -2.756732	 -1.149381	 1.155528	 -0.362875	 0.746918	 -0.534611	 0.156927	 1
1462068118.830	 8	 0.008620	 -0.002503	 -0.002999	 -2.756322	 -1.149364	 1.155933	 -0.362920	 0.746880	 -0.534648	 0.156878	 1
1462068118.840	 8	 0.008594	 -0.006765	 -0.004106	 -2.756031	 -1.149338	 1.156272	 -0.362975	 0.746846	 -0.534666	 0.156853	 1
1462068118.850	 8	 0.004305	 -0.011007	 -0.004109	 -2.755878	 -1.149321	 1.156527	 -0.363032	 0.746815	 -0.534668	 0.156859	 1
1462068118.860	 8	 0.004296	 -0.012078	 -0.005185	 -2.755896	 -1.149349	 1.156645	 -0.363075	 0.746787	 -0.534665	 0.156905	 1
1462068118.870	 8	 0.003238	 -0.011004	 -0.004099	 -2.755944	 -1.149356	 1.156727	 -0.363117	 0.746767	 -0.534652	 0.156946	 1
1462068118.880	 8	 0.001089	 -0.013133	 -0.005166	 -2.755990	 -1.149382	 1.156821	 -0.363159	 0.746742	 -0.534644	 0.156996	 1
1462068118.890	 8	 0.000019	 -0.013137	 -0.006222	 -2.755974	 -1.149411	 1.156982	 -0.363209	 0.746709	 -0.534644	 0.157040	 1
1462068118.900	 8	 -0.003198	 -0.016319	 -0.006224	 -2.756052	 -1.149352	 1.157080	 -0.363279	 0.746695	 -0.534603	 0.157080	 1
1462068118.910	 8	 -0.005362	 -0.021638	 -0.007320	 -2.756080	 -1.149295	 1.157260	 -0.363365	 0.746671	 -0.534566	 0.157123	 1
1462068118.920	 8	 -0.003276	 -0.030170	 -0.009550	 -2.756147	 -1.149246	 1.157484	 -0.363478	 0.746633	 -0.534521	 0.157195	 1
1462068118.930	 8	 -0.001152	 -0.031248	 -0.010643	 -2.756340	 -1.149177	 1.157630	 -0.363599	 0.746604	 -0.534452	 0.157288	 1
1462068118.940	 8	 -0.001149	 -0.032296	 -0.008521	 -2.756586	 -1.149098	 1.157739	 -0.363722	 0.746579	 -0.534374	 0.157387	 1
1462068118.950	 8	 -0.000068	 -0.030165	 -0.007444	 -2.756952	 -1.149059	 1.157714	 -0.363819	 0.746562	 -0.534297	 0.157507	 1
1462068118.960	 8	 -0.000059	 -0.030150	 -0.005311	 -2.757345	 -1.149111	 1.157652	 -0.363889	 0.746533	 -0.534247	 0.157651	 1
1462068118.970	 8	 0.000991	 -0.032297	 -0.007470	 -2.757678	 -1.149194	 1.157660	 -0.363963	 0.746490	 -0.534212	 0.157799	 1
1462068118.980	 8	 0.000978	 -0.033377	 -0.009609	 -2.758035	 -1.149287	 1.157678	 -0.364046	 0.746442	 -0.534175	 0.157962	 1
1462068118.990	 8	 -0.000051	 -0.025929	 -0.009528	 -2.758423	 -1.149412	 1.157615	 -0.364099	 0.746400	 -0.534149	 0.158124	 1
1462068119.000	 8	 -0.001099	 -0.019568	 -0.012654	 -2.758806	 -1.149536	 1.157503	 -0.364133	 0.746368	 -0.534127	 0.158271	 1
1462068119.010	 8	 -0.001075	 -0.017419	 -0.009433	 -2.759262	 -1.149645	 1.157283	 -0.364150	 0.746353	 -0.534096	 0.158411	 1
1462068119.020	 8	 0.001082	 -0.016332	 -0.005175	 -2.759757	 -1.149769	 1.157007	 -0.364153	 0.746341	 -0.534067	 0.158556	 1
1462068119.030	 8	 0.004288	 -0.017391	 -0.003078	 -2.760177	 -1.149931	 1.156795	 -0.364151	 0.746317	 -0.534059	 0.158699	 1
1462068119.040	 8	 0.004288	 -0.018448	 -0.002020	 -2.760559	 -1.150058	 1.156632	 -0.364165	 0.746294	 -0.534043	 0.158832	 1
1462068119.050	 8	 0.006404	 -0.021654	 -0.003132	 -2.760832	 -1.150191	 1.156589	 -0.364194	 0.746256	 -0.534038	 0.158958	 1
1462068119.060	 8	 0.005337	 -0.021651	 -0.003121	 -2.761140	 -1.150302	 1.156538	 -0.364233	 0.746221	 -0.534022	 0.159089	 1
1462068119.070	 8	 0.001102	 -0.012089	 -0.006191	 -2.761416	 -1.150381	 1.156450	 -0.364258	 0.746201	 -0.534003	 0.159190	 1
1462068119.080	 8	 -0.003115	 -0.002497	 -0.004996	 -2.761697	 -1.150455	 1.156252	 -0.364243	 0.746201	 -0.533991	 0.159262	 1
1462068119.090	 8	 -0.003075	 0.003900	 -0.002803	 -2.761911	 -1.150567	 1.156040	 -0.364198	 0.746202	 -0.534005	 0.159315	 1
1462068119.100	 8	 -0.003055	 0.007097	 -0.001705	 -2.762207	 -1.150639	 1.155708	 -0.364137	 0.746226	 -0.534000	 0.159356	 1
1462068119.110	 8	 -0.004113	 0.008171	 -0.000618	 -2.762467	 -1.150631	 1.155399	 -0.364093	 0.746263	 -0.533975	 0.159369	 1
1462068119.120	 8	 -0.006239	 0.008192	 0.001535	 -2.762780	 -1.150620	 1.155033	 -0.364043	 0.746307	 -0.533943	 0.159385	 1
1462068119.130	 8	 -0.006238	 0.009247	 0.000480	 -2.762994	 -1.150609	 1.154740	 -0.363993	 0.746345	 -0.533924	 0.159383	 1
1462068119.140	 8	 -0.004109	 0.008176	 0.000453	 -2.763076	 -1.150600	 1.154578	 -0.363956	 0.746370	 -0.533920	 0.159368	 1
1462068119.150	 8	 -0.000932	 0.002848	 0.000376	 -2.763078	 -1.150634	 1.154537	 -0.363934	 0.746371	 -0.533933	 0.159367	 1
1462068119.160	 8	 0.000117	 0.000702	 -0.001784	 -2.763088	 -1.150666	 1.154526	 -0.363926	 0.746366	 -0.533943	 0.159377	 1
1462068119.170	 8	 0.000123	 0.002821	 -0.002830	 -2.763066	 -1.150708	 1.154532	 -0.363913	 0.746359	 -0.533959	 0.159381	 1
1462068119.180	 8	 0.003321	 0.001748	 -0.002867	 -2.762958	 -1.150780	 1.154630	 -0.363905	 0.746337	 -0.533994	 0.159386	 1
1462068119.190	 8	 0.003326	 0.002811	 -0.002857	 -2.762938	 -1.150800	 1.154639	 -0.363900	 0.746333	 -0.534003	 0.159387	 1
1462068119.200	 8	 0.001212	 0.008128	 -0.003853	 -2.762986	 -1.150803	 1.154551	 -0.363879	 0.746345	 -0.534003	 0.159382	 1
1462068119.210	 8	 0.001234	 0.011333	 -0.001691	 -2.763092	 -1.150779	 1.154368	 -0.363844	 0.746374	 -0.533990	 0.159366	 1
1462068119.220	 8	 -0.003026	 0.012416	 -0.000575	 -2.763366	 -1.150770	 1.154009	 -0.363785	 0.746419	 -0.533966	 0.159370	 1
1462068119.230	 8	 -0.005132	 0.016692	 0.001616	 -2.763600	 -1.150748	 1.153636	 -0.363713	 0.746472	 -0.533946	 0.159352	 1
1462068119.240	 8	 -0.002999	 0.014573	 0.003712	 -2.763926	 -1.150742	 1.153170	 -0.363627	 0.746532	 -0.533922	 0.159348	 1
1462068119.250	 8	 -0.002990	 0.015643	 0.004790	 -2.764104	 -1.150764	 1.152833	 -0.363544	 0.746575	 -0.533924	 0.159330	 1
1462068119.260	 8	 -0.005115	 0.016632	 0.003759	 -2.764165	 -1.150792	 1.152605	 -0.363470	 0.746607	 -0.533940	 0.159299	 1
1462068119.270	 8	 -0.004073	 0.011310	 0.003701	 -2.764157	 -1.150781	 1.152477	 -0.363422	 0.746633	 -0.533948	 0.159259	 1
1462068119.280	 8	 -0.004110	 0.008081	 -0.001659	 -2.764025	 -1.150719	 1.152508	 -0.363411	 0.746649	 -0.533950	 0.159202	 1
1462068119.290	 8	 -0.005176	 0.010196	 -0.003762	 -2.763781	 -1.150655	 1.152654	 -0.363414	 0.746653	 -0.533962	 0.159133	 1
1462068119.300	 8	 -0.007299	 0.012330	 -0.003723	 -2.763606	 -1.150606	 1.152712	 -0.363400	 0.746666	 -0.533974	 0.159070	 1
1462068119.310	 8	 -0.005128	 0.020825	 -0.004729	 -2.763349	 -1.150590	 1.152820	 -0.363375	 0.746669	 -0.534007	 0.158998	 1
1462068119.320	 8	 0.001263	 0.015511	 -0.001637	 -2.763029	 -1.150629	 1.152960	 -0.363333	 0.746662	 -0.534066	 0.158927	 1
1462068119.330	 8	 -0.006154	 0.028282	 -0.003585	 -2.762634	 -1.150616	 1.153103	 -0.363284	 0.746670	 -0.534122	 0.158814	 1
1462068119.340	 8	 -0.005123	 0.019777	 -0.002608	 -2.762401	 -1.150593	 1.153141	 -0.363241	 0.746686	 -0.534154	 0.158731	 1
1462068119.350	 8	 -0.005117	 0.021896	 -0.003654	 -2.762150	 -1.150557	 1.153214	 -0.363209	 0.746699	 -0.534183	 0.158647	 1
1462068119.360	 8	 -0.008329	 0.019779	 -0.003646	 -2.761899	 -1.150443	 1.153234	 -0.363173	 0.746736	 -0.534191	 0.158528	 1
1462068119.370	 8	 -0.006226	 0.013390	 -0.003724	 -2.761717	 -1.150328	 1.153264	 -0.363160	 0.746766	 -0.534185	 0.158437	 1
1462068119.380	 8	 -0.004122	 0.007002	 -0.003802	 -2.761594	 -1.150211	 1.153276	 -0.363157	 0.746794	 -0.534169	 0.158363	 1
1462068119.390	 8	 -0.006261	 0.007000	 -0.004849	 -2.761445	 -1.150090	 1.153330	 -0.363163	 0.746818	 -0.534153	 0.158290	 1
1462068119.400	 8	 -0.005214	 0.003798	 -0.005954	 -2.761319	 -1.149986	 1.153435	 -0.363190	 0.746828	 -0.534135	 0.158242	 1
1462068119.410	 8	 -0.006265	 0.010160	 -0.009083	 -2.761192	 -1.149872	 1.153499	 -0.363205	 0.746847	 -0.534117	 0.158182	 1
1462068119.420	 8	 -0.005198	 0.009101	 -0.008036	 -2.761114	 -1.149817	 1.153542	 -0.363211	 0.746855	 -0.534110	 0.158150	 1
1462068119.430	 8	 -0.005164	 0.013378	 -0.004797	 -2.761076	 -1.149863	 1.153460	 -0.363161	 0.746865	 -0.534138	 0.158126	 1
1462068119.440	 8	 -0.007262	 0.019774	 -0.003653	 -2.761013	 -1.149885	 1.153365	 -0.363104	 0.746883	 -0.534164	 0.158083	 1
1462068119.450	 8	 -0.007252	 0.019789	 -0.001520	 -2.760893	 -1.149979	 1.153309	 -0.363031	 0.746886	 -0.534220	 0.158048	 1
1462068119.460	 8	 -0.006163	 0.021928	 0.000623	 -2.760693	 -1.150116	 1.153289	 -0.362941	 0.746881	 -0.534301	 0.158005	 1
1462068119.470	 8	 -0.008300	 0.022983	 -0.001480	 -2.760499	 -1.150153	 1.153251	 -0.362867	 0.746896	 -0.534351	 0.157932	 1
1462068119.480	 8	 -0.008303	 0.021920	 -0.001490	 -2.760189	 -1.150157	 1.153325	 -0.362811	 0.746906	 -0.534403	 0.157837	 1
1462068119.490	 8	 -0.007241	 0.020853	 -0.001509	 -2.759870	 -1.150113	 1.153417	 -0.362770	 0.746923	 -0.534439	 0.157731	 1
1462068119.500	 8	 -0.005126	 0.017648	 -0.002625	 -2.759484	 -1.150032	 1.153600	 -0.362752	 0.746935	 -0.534469	 0.157614	 1
1462068119.510	 8	 -0.003030	 0.011245	 -0.004835	 -2.759102	 -1.149978	 1.153850	 -0.362755	 0.746929	 -0.534502	 0.157524	 1
1462068119.520	 8	 -0.000935	 0.004841	 -0.007045	 -2.758719	 -1.149909	 1.154166	 -0.362785	 0.746914	 -0.534525	 0.157446	 1
1462068119.530	 8	 -0.000953	 0.001643	 -0.008142	 -2.758320	 -1.149900	 1.154538	 -0.362819	 0.746880	 -0.534565	 0.157394	 1
1462068119.540	 8	 0.000124	 0.002712	 -0.007076	 -2.757994	 -1.149879	 1.154841	 -0.362850	 0.746854	 -0.534593	 0.157348	 1
1462068119.550	 8	 0.000125	 0.003767	 -0.008132	 -2.757791	 -1.149863	 1.155018	 -0.362865	 0.746841	 -0.534611	 0.157315	 1
1462068119.560	 8	 0.000143	 0.005910	 -0.005980	 -2.757701	 -1.149863	 1.155074	 -0.362861	 0.746838	 -0.534623	 0.157297	 1
1462068119.570	 8	 -0.000929	 0.004849	 -0.005979	 -2.757754	 -1.149861	 1.154996	 -0.362847	 0.746848	 -0.534619	 0.157295	 1
1462068119.580	 8	 -0.003070	 0.002735	 -0.004913	 -2.757872	 -1.149824	 1.154862	 -0.362837	 0.746870	 -0.534597	 0.157293	 1
1462068119.590	 8	 -0.002014	 -0.000452	 -0.003885	 -2.758053	 -1.149760	 1.154704	 -0.362839	 0.746896	 -0.534556	 0.157302	 1
1462068119.600	 8	 -0.002020	 -0.001517	 -0.003894	 -2.758333	 -1.149707	 1.154471	 -0.362839	 0.746926	 -0.534507	 0.157330	 1
1462068119.610	 8	 -0.004150	 -0.000447	 -0.003864	 -2.758582	 -1.149658	 1.154252	 -0.362834	 0.746955	 -0.534463	 0.157351	 1
1462068119.620	 8	 -0.004141	 0.000623	 -0.002787	 -2.758789	 -1.149643	 1.154065	 -0.362822	 0.746975	 -0.534436	 0.157374	 1
1462068119.630	 8	 -0.004131	 0.001694	 -0.001709	 -2.759069	 -1.149691	 1.153799	 -0.362788	 0.746993	 -0.534421	 0.157421	 1
1462068119.640	 8	 -0.004119	 0.003821	 -0.001688	 -2.759136	 -1.149794	 1.153712	 -0.362751	 0.746984	 -0.534448	 0.157450	 1
1462068119.650	 8	 -0.000903	 0.004890	 0.000426	 -2.759161	 -1.149865	 1.153650	 -0.362720	 0.746981	 -0.534471	 0.157462	 1
1462068119.660	 8	 -0.001962	 0.008069	 -0.001666	 -2.758993	 -1.149958	 1.153736	 -0.362687	 0.746962	 -0.534524	 0.157447	 1
1462068119.670	 8	 -0.003020	 0.008088	 0.000475	 -2.758835	 -1.149974	 1.153802	 -0.362666	 0.746960	 -0.534553	 0.157410	 1
1462068119.680	 8	 -0.004076	 0.010218	 0.000503	 -2.758677	 -1.149980	 1.153850	 -0.362641	 0.746962	 -0.534580	 0.157366	 1
1462068119.690	 8	 -0.006219	 0.010210	 -0.001611	 -2.758448	 -1.149883	 1.153966	 -0.362644	 0.746977	 -0.534581	 0.157285	 1
1462068119.700	 8	 -0.005191	 0.004865	 -0.004868	 -2.758281	 -1.149743	 1.154070	 -0.362667	 0.746996	 -0.534559	 0.157213	 1
1462068119.710	 8	 -0.003105	 -0.004781	 -0.007094	 -2.758229	 -1.149586	 1.154160	 -0.362721	 0.747012	 -0.534511	 0.157175	 1
1462068119.720	 8	 -0.001009	 -0.013290	 -0.006126	 -2.758361	 -1.149417	 1.154162	 -0.362793	 0.747032	 -0.534434	 0.157180	 1
1462068119.730	 8	 0.001084	 -0.021806	 -0.006223	 -2.758539	 -1.149338	 1.154212	 -0.362875	 0.747023	 -0.534373	 0.157238	 1
1462068119.740	 8	 -0.000013	 -0.027129	 -0.007328	 -2.758737	 -1.149310	 1.154299	 -0.362967	 0.746997	 -0.534321	 0.157328	 1
1462068119.750	 8	 -0.000001	 -0.022890	 -0.009420	 -2.758813	 -1.149317	 1.154480	 -0.363053	 0.746957	 -0.534295	 0.157407	 1
1462068119.760	 8	 -0.004220	 -0.014352	 -0.007171	 -2.759017	 -1.149348	 1.154467	 -0.363096	 0.746937	 -0.534269	 0.157488	 1
1462068119.770	 8	 -0.004173	 -0.004780	 -0.007081	 -2.759216	 -1.149430	 1.154373	 -0.363097	 0.746924	 -0.534266	 0.157559	 1
1462068119.780	 8	 -0.005192	 0.001635	 -0.002748	 -2.759416	 -1.149494	 1.154191	 -0.363069	 0.746930	 -0.534265	 0.157602	 1
1462068119.790	 8	 -0.005167	 0.004841	 -0.000585	 -2.759641	 -1.149607	 1.153938	 -0.363010	 0.746938	 -0.534279	 0.157649	 1
1462068119.800	 8	 -0.004105	 0.001662	 0.001510	 -2.759865	 -1.149697	 1.153698	 -0.362962	 0.746947	 -0.534286	 0.157693	 1
1462068119.810	 8	 -0.003057	 -0.001540	 0.000406	 -2.760069	 -1.149751	 1.153515	 -0.362936	 0.746955	 -0.534281	 0.157734	 1
1462068119.820	 8	 -0.003040	 0.002706	 -0.000620	 -2.760219	 -1.149782	 1.153362	 -0.362913	 0.746965	 -0.534276	 0.157758	 1
1462068119.830	 8	 -0.003024	 0.008009	 -0.002701	 -2.760289	 -1.149772	 1.153237	 -0.362887	 0.746984	 -0.534270	 0.157748	 1
1462068119.840	 8	 -0.003019	 0.009072	 -0.002690	 -2.760373	 -1.149739	 1.153092	 -0.362862	 0.747010	 -0.534255	 0.157732	 1
1462068119.850	 8	 -0.000895	 0.006938	 -0.002728	 -2.760390	 -1.149726	 1.153027	 -0.362845	 0.747022	 -0.534253	 0.157717	 1
1462068119.860	 8	 0.001228	 0.003753	 -0.002770	 -2.760380	 -1.149733	 1.153007	 -0.362833	 0.747025	 -0.534259	 0.157710	 1
1462068119.870	 8	 0.002314	 0.006949	 -0.001684	 -2.760340	 -1.149757	 1.153002	 -0.362816	 0.747025	 -0.534274	 0.157700	 1
1462068119.880	 8	 0.001258	 0.010135	 -0.002711	 -2.760069	 -1.149763	 1.153177	 -0.362807	 0.747014	 -0.534311	 0.157647	 1
1462068119.890	 8	 0.001252	 0.008016	 -0.001665	 -2.759870	 -1.149811	 1.153288	 -0.362785	 0.747001	 -0.534354	 0.157616	 1
1462068119.900	 8	 0.000171	 0.005884	 -0.002741	 -2.759801	 -1.149845	 1.153297	 -0.362763	 0.746998	 -0.534377	 0.157601	 1
1462068119.910	 8	 -0.003045	 0.003758	 -0.003799	 -2.759665	 -1.149804	 1.153391	 -0.362771	 0.746999	 -0.534381	 0.157565	 1
1462068119.920	 8	 -0.005180	 0.002708	 -0.002724	 -2.759749	 -1.149755	 1.153288	 -0.362765	 0.747020	 -0.534358	 0.157555	 1
1462068119.930	 8	 -0.005195	 0.000573	 -0.003809	 -2.759801	 -1.149670	 1.153230	 -0.362775	 0.747042	 -0.534326	 0.157536	 1
1462068119.940	 8	 -0.004144	 -0.003677	 -0.002791	 -2.759909	 -1.149639	 1.153155	 -0.362783	 0.747052	 -0.534303	 0.157549	 1
1462068119.950	 8	 -0.002023	 -0.004763	 -0.004951	 -2.760025	 -1.149623	 1.153100	 -0.362797	 0.747056	 -0.534281	 0.157573	 1
1462068119.960	 8	 -0.000948	 -0.004751	 -0.002828	 -2.760212	 -1.149593	 1.152984	 -0.362809	 0.747068	 -0.534247	 0.157603	 1
1462068119.970	 8	 -0.003077	 -0.003682	 -0.002798	 -2.760458	 -1.149587	 1.152800	 -0.362808	 0.747083	 -0.534215	 0.157645	 1
1462068119.980	 8	 -0.008375	 0.001675	 0.000497	 -2.760799	 -1.149524	 1.152480	 -0.362793	 0.747126	 -0.534158	 0.157670	 1
1462068119.990	 8	 -0.011571	 0.003803	 -0.000520	 -2.761135	 -1.149412	 1.152123	 -0.362773	 0.747184	 -0.534090	 0.157670	 1
1462068120.000	 8	 -0.009412	 0.009115	 -0.000489	 -2.761194	 -1.149351	 1.151986	 -0.362750	 0.747216	 -0.534070	 0.157639	 1
1462068120.010	 8	 -0.007257	 0.012307	 0.000588	 -2.761237	 -1.149364	 1.151825	 -0.362699	 0.747239	 -0.534079	 0.157616	 1
1462068120.020	 8	 -0.004039	 0.015508	 -0.000469	 -2.761206	 -1.149350	 1.151710	 -0.362650	 0.747265	 -0.534090	 0.157570	 1
1462068120.030	 8	 -0.002966	 0.015512	 0.000588	 -2.761064	 -1.149407	 1.151690	 -0.362593	 0.747269	 -0.534135	 0.157526	 1
1462068120.040	 8	 -0.002979	 0.014433	 -0.001554	 -2.760791	 -1.149420	 1.151804	 -0.362560	 0.747268	 -0.534180	 0.157458	 1
1462068120.050	 8	 -0.001922	 0.012303	 -0.001583	 -2.760570	 -1.149436	 1.151886	 -0.362528	 0.747267	 -0.534218	 0.157402	 1
1462068120.060	 8	 -0.000879	 0.008037	 -0.002697	 -2.760504	 -1.149479	 1.151870	 -0.362496	 0.747268	 -0.534245	 0.157385	 1
1462068120.070	 8	 -0.001941	 0.009104	 -0.002677	 -2.760461	 -1.149504	 1.151835	 -0.362466	 0.747273	 -0.534264	 0.157366	 1
1462068120.080	 8	 -0.005147	 0.008049	 -0.002659	 -2.760487	 -1.149479	 1.151734	 -0.362440	 0.747294	 -0.534259	 0.157342	 1
1462068120.090	 8	 -0.006214	 0.008052	 -0.002649	 -2.760445	 -1.149479	 1.151695	 -0.362414	 0.747304	 -0.534270	 0.157316	 1
1462068120.100	 8	 -0.006218	 0.006988	 -0.002658	 -2.760408	 -1.149469	 1.151660	 -0.362394	 0.747315	 -0.534276	 0.157290	 1
1462068120.110	 8	 -0.006241	 0.004838	 -0.005875	 -2.760353	 -1.149455	 1.151678	 -0.362389	 0.747319	 -0.534280	 0.157270	 1
1462068120.120	 8	 -0.005188	 0.001643	 -0.005914	 -2.760323	 -1.149412	 1.151709	 -0.362401	 0.747323	 -0.534269	 0.157256	 1
1462068120.130	 8	 -0.006264	 0.001631	 -0.008036	 -2.760112	 -1.149367	 1.151906	 -0.362428	 0.747312	 -0.534278	 0.157218	 1
1462068120.140	 8	 -0.006254	 0.002702	 -0.006960	 -2.760000	 -1.149352	 1.152005	 -0.362438	 0.747306	 -0.534286	 0.157198	 1
1462068120.150	 8	 -0.004113	 0.004815	 -0.008024	 -2.759891	 -1.149334	 1.152081	 -0.362442	 0.747304	 -0.534294	 0.157173	 1
1462068120.160	 8	 -0.001954	 0.009071	 -0.006937	 -2.759770	 -1.149332	 1.152152	 -0.362436	 0.747301	 -0.534309	 0.157146	 1
1462068120.170	 8	 -0.004069	 0.012276	 -0.005822	 -2.759730	 -1.149323	 1.152107	 -0.362410	 0.747314	 -0.534317	 0.157117	 1
1462068120.180	 8	 -0.004059	 0.013347	 -0.004746	 -2.759744	 -1.149315	 1.151986	 -0.362371	 0.747336	 -0.534322	 0.157088	 1
1462068120.190	 8	 -0.004039	 0.014438	 -0.003659	 -2.759787	 -1.149329	 1.151823	 -0.362318	 0.747360	 -0.534331	 0.157064	 1
1462068120.200	 8	 -0.005093	 0.014464	 -0.000451	 -2.759991	 -1.149367	 1.151502	 -0.362245	 0.747395	 -0.534332	 0.157065	 1
1462068120.210	 8	 -0.001902	 0.011271	 0.000559	 -2.760138	 -1.149418	 1.151249	 -0.362179	 0.747420	 -0.534341	 0.157066	 1
1462068120.220	 8	 -0.002990	 0.007019	 0.000529	 -2.760253	 -1.149406	 1.151069	 -0.362145	 0.747446	 -0.534331	 0.157058	 1
1462068120.230	 8	 -0.004076	 0.004879	 -0.001612	 -2.760402	 -1.149377	 1.150888	 -0.362123	 0.747472	 -0.534308	 0.157057	 1
1462068120.239	 8	 -0.006195	 0.008076	 -0.001563	 -2.760527	 -1.149309	 1.150704	 -0.362102	 0.747508	 -0.534279	 0.157036	 1
1462068120.250	 8	 -0.009405	 0.008070	 -0.003667	 -2.760481	 -1.149267	 1.150677	 -0.362088	 0.747524	 -0.534276	 0.157001	 1
1462068120.260	 8	 -0.010475	 0.008065	 -0.004723	 -2.760273	 -1.149230	 1.150791	 -0.362083	 0.747526	 -0.534293	 0.156943	 1
1462068120.270	 8	 -0.009430	 0.005912	 -0.007950	 -2.760084	 -1.149184	 1.150918	 -0.362090	 0.747526	 -0.534303	 0.156894	 1
1462068120.280	 8	 -0.010522	 0.000597	 -0.007990	 -2.759964	 -1.149107	 1.151026	 -0.362115	 0.747530	 -0.534291	 0.156858	 1
1462068120.290	 8	 -0.007315	 0.001651	 -0.008008	 -2.759716	 -1.149070	 1.151267	 -0.362147	 0.747513	 -0.534305	 0.156820	 1
1462068120.300	 8	 -0.003054	 0.001623	 -0.010177	 -2.759373	 -1.149074	 1.151595	 -0.362177	 0.747479	 -0.534343	 0.156780	 1
1462068120.310	 8	 0.000144	 0.001606	 -0.011271	 -2.758975	 -1.149091	 1.151991	 -0.362214	 0.747436	 -0.534390	 0.156742	 1
1462068120.320	 8	 0.002278	 0.001599	 -0.011290	 -2.758700	 -1.149115	 1.152272	 -0.362241	 0.747402	 -0.534425	 0.156721	 1
1462068120.330	 8	 0.002273	 -0.000521	 -0.010243	 -2.758596	 -1.149157	 1.152422	 -0.362260	 0.747376	 -0.534445	 0.156733	 1
1462068120.340	 8	 0.002310	 0.002700	 -0.008067	 -2.758673	 -1.149199	 1.152379	 -0.362256	 0.747370	 -0.534448	 0.156762	 1
1462068120.350	 8	 0.002333	 0.004850	 -0.004849	 -2.758785	 -1.149213	 1.152257	 -0.362237	 0.747380	 -0.534442	 0.156775	 1
1462068120.360	 8	 0.003389	 0.001663	 -0.003822	 -2.758791	 -1.149266	 1.152241	 -0.362222	 0.747374	 -0.534459	 0.156786	 1
1462068120.370	 8	 0.002313	 0.000595	 -0.004887	 -2.758907	 -1.149310	 1.152145	 -0.362208	 0.747374	 -0.534459	 0.156816	 1
1462068120.380	 8	 0.000188	 0.002728	 -0.004848	 -2.758998	 -1.149306	 1.152064	 -0.362202	 0.747382	 -0.534448	 0.156827	 1
1462068120.390	 8	 -0.004061	 0.005939	 -0.003714	 -2.759065	 -1.149284	 1.151970	 -0.362190	 0.747398	 -0.534436	 0.156821	 1
1462068120.400	 8	 -0.004044	 0.011242	 -0.005796	 -2.759088	 -1.149255	 1.151905	 -0.362178	 0.747413	 -0.534428	 0.156805	 1
1462068120.410	 8	 -0.002978	 0.010182	 -0.004749	 -2.759167	 -1.149206	 1.151773	 -0.362160	 0.747439	 -0.534409	 0.156786	 1
1462068120.420	 8	 -0.007223	 0.014457	 -0.003606	 -2.759190	 -1.149120	 1.151633	 -0.362132	 0.747479	 -0.534388	 0.156734	 1
1462068120.430	 8	 -0.008308	 0.012317	 -0.005747	 -2.759071	 -1.149053	 1.151629	 -0.362113	 0.747501	 -0.534389	 0.156671	 1
1462068120.440	 8	 -0.004080	 0.004851	 -0.006919	 -2.758985	 -1.148964	 1.151664	 -0.362122	 0.747517	 -0.534373	 0.156624	 1
1462068120.450	 8	 -0.006220	 0.003794	 -0.006911	 -2.758863	 -1.148843	 1.151764	 -0.362152	 0.747530	 -0.534349	 0.156573	 1
1462068120.460	 8	 -0.003050	 -0.003654	 -0.005942	 -2.758687	 -1.148726	 1.151954	 -0.362201	 0.747531	 -0.534329	 0.156527	 1
1462068120.470	 8	 -0.000915	 -0.002604	 -0.007017	 -2.758554	 -1.148665	 1.152124	 -0.362242	 0.747521	 -0.534320	 0.156506	 1
1462068120.480	 8	 -0.000875	 0.004849	 -0.005882	 -2.758387	 -1.148661	 1.152286	 -0.362259	 0.747506	 -0.534336	 0.156486	 1
1462068120.489	 8	 -0.001942	 0.004852	 -0.005873	 -2.758181	 -1.148645	 1.152447	 -0.362268	 0.747496	 -0.534356	 0.156447	 1
1462068120.500	 8	 -0.002997	 0.009095	 -0.007956	 -2.757908	 -1.148677	 1.152639	 -0.362259	 0.747477	 -0.534401	 0.156405	 1
1462068120.510	 8	 0.000189	 0.004838	 -0.006957	 -2.757759	 -1.148723	 1.152746	 -0.362250	 0.747461	 -0.534434	 0.156390	 1
1462068120.519	 8	 -0.001904	 0.010169	 -0.007935	 -2.757701	 -1.148762	 1.152760	 -0.362231	 0.747456	 -0.534456	 0.156383	 1
1462068120.530	 8	 0.003369	 -0.004723	 -0.005987	 -2.757750	 -1.148775	 1.152725	 -0.362229	 0.747456	 -0.534454	 0.156396	 1
1462068120.540	 8	 -0.000907	 -0.003670	 -0.009137	 -2.757671	 -1.148782	 1.152871	 -0.362261	 0.747434	 -0.534459	 0.156407	 1
1462068120.549	 8	 -0.000931	 -0.006877	 -0.011298	 -2.757608	 -1.148770	 1.153062	 -0.362318	 0.747407	 -0.534451	 0.156431	 1
1462068120.560	 8	 0.002252	 -0.007974	 -0.014533	 -2.757511	 -1.148766	 1.153309	 -0.362385	 0.747370	 -0.534448	 0.156460	 1
1462068120.570	 8	 0.001210	 -0.003708	 -0.013418	 -2.757504	 -1.148750	 1.153428	 -0.362431	 0.747352	 -0.534435	 0.156485	 1
1462068120.580	 8	 -0.000906	 -0.001560	 -0.011247	 -2.757516	 -1.148759	 1.153493	 -0.362457	 0.747338	 -0.534431	 0.156509	 1
1462068120.590	 8	 0.000136	 -0.006882	 -0.011305	 -2.757573	 -1.148768	 1.153534	 -0.362485	 0.747324	 -0.534420	 0.156544	 1
1462068120.600	 8	 0.001221	 -0.006854	 -0.007050	 -2.757629	 -1.148834	 1.153565	 -0.362498	 0.747302	 -0.534429	 0.156590	 1
1462068120.609	 8	 0.002293	 -0.005794	 -0.007049	 -2.757697	 -1.148861	 1.153590	 -0.362519	 0.747288	 -0.534423	 0.156630	 1
1462068120.620	 8	 0.003381	 -0.000487	 -0.008074	 -2.757672	 -1.148925	 1.153655	 -0.362523	 0.747266	 -0.534443	 0.156655	 1
1462068120.630	 8	 0.003388	 0.001632	 -0.009119	 -2.757642	 -1.149015	 1.153709	 -0.362516	 0.747243	 -0.534472	 0.156683	 1
1462068120.639	 8	 0.003392	 0.001639	 -0.008052	 -2.757707	 -1.149093	 1.153667	 -0.362502	 0.747231	 -0.534489	 0.156716	 1
1462068120.650	 8	 0.002344	 0.003785	 -0.005890	 -2.757857	 -1.149148	 1.153523	 -0.362476	 0.747236	 -0.534490	 0.156749	 1
1462068120.660	 8	 0.003419	 0.003796	 -0.003767	 -2.758021	 -1.149180	 1.153361	 -0.362453	 0.747247	 -0.534483	 0.156775	 1
1462068120.669	 8	 0.001328	 0.008072	 -0.002624	 -2.758186	 -1.149201	 1.153170	 -0.362421	 0.747264	 -0.534475	 0.156791	 1
1462068120.680	 8	 0.000287	 0.014449	 -0.003621	 -2.758101	 -1.149160	 1.153143	 -0.362397	 0.747283	 -0.534480	 0.156742	 1
1462068120.690	 8	 -0.000765	 0.017643	 -0.003582	 -2.757980	 -1.149128	 1.153104	 -0.362357	 0.747306	 -0.534494	 0.156677	 1
1462068120.699	 8	 -0.001839	 0.015526	 -0.002526	 -2.757919	 -1.149111	 1.153028	 -0.362316	 0.747327	 -0.534506	 0.156630	 1
1462068120.710	 8	 -0.000792	 0.010212	 -0.001518	 -2.757881	 -1.149142	 1.152961	 -0.362274	 0.747337	 -0.534528	 0.156606	 1
1462068120.720	 8	 0.000264	 0.007025	 -0.000490	 -2.757942	 -1.149179	 1.152835	 -0.362235	 0.747348	 -0.534538	 0.156605	 1
1462068120.730	 8	 -0.000809	 0.004909	 0.000565	 -2.757957	 -1.149198	 1.152769	 -0.362211	 0.747355	 -0.534547	 0.156598	 1
1462068120.740	 8	 0.001315	 0.002775	 0.000527	 -2.758020	 -1.149235	 1.152688	 -0.362189	 0.747359	 -0.534554	 0.156610	 1
1462068120.750	 8	 0.002374	 0.002756	 -0.001613	 -2.758033	 -1.149287	 1.152660	 -0.362171	 0.747353	 -0.534570	 0.156621	 1
1462068120.759	 8	 0.001317	 0.005942	 -0.002640	 -2.758015	 -1.149279	 1.152642	 -0.362162	 0.747359	 -0.534572	 0.156607	 1
1462068120.770	 8	 0.000255	 0.005953	 -0.001564	 -2.758071	 -1.149317	 1.152549	 -0.362134	 0.747365	 -0.534581	 0.156614	 1
1462068120.780	 8	 0.001328	 0.008069	 -0.002619	 -2.758024	 -1.149361	 1.152532	 -0.362105	 0.747364	 -0.534605	 0.156603	 1
1462068120.789	 8	 0.002388	 0.004890	 -0.000526	 -2.758053	 -1.149405	 1.152461	 -0.362077	 0.747366	 -0.534619	 0.156607	 1
1462068120.800	 8	 0.001355	 0.011283	 0.000609	 -2.758083	 -1.149407	 1.152348	 -0.362042	 0.747384	 -0.534623	 0.156589	 1
1462068120.810	 8	 -0.001840	 0.013412	 -0.000410	 -2.757960	 -1.149391	 1.152341	 -0.362010	 0.747398	 -0.534641	 0.156536	 1
1462068120.819	 8	 -0.001821	 0.013403	 -0.001454	 -2.757946	 -1.149352	 1.152228	 -0.361973	 0.747427	 -0.534640	 0.156490	 1
1462068120.830	 8	 -0.000759	 0.012336	 -0.001473	 -2.757874	 -1.149332	 1.152183	 -0.361941	 0.747444	 -0.534650	 0.156446	 1
1462068120.840	 8	 0.000303	 0.011269	 -0.001492	 -2.757755	 -1.149332	 1.152184	 -0.361910	 0.747453	 -0.534672	 0.156402	 1
1462068120.850	 8	 0.000331	 0.014483	 0.001735	 -2.757654	 -1.149372	 1.152153	 -0.361862	 0.747459	 -0.534705	 0.156366	 1
1462068120.860	 8	 -0.000724	 0.018726	 -0.000348	 -2.757569	 -1.149386	 1.152069	 -0.361805	 0.747479	 -0.534732	 0.156316	 1
1462068120.870	 8	 -0.002825	 0.024066	 0.001852	 -2.757425	 -1.149372	 1.151983	 -0.361737	 0.747508	 -0.534760	 0.156236	 1
1462068120.880	 8	 -0.001758	 0.024062	 0.001843	 -2.757233	 -1.149337	 1.151922	 -0.361671	 0.747540	 -0.534788	 0.156138	 1
1462068120.889	 8	 0.000333	 0.016595	 -0.000377	 -2.756962	 -1.149358	 1.152005	 -0.361625	 0.747542	 -0.534838	 0.156065	 1
1462068120.899	 8	 0.003514	 0.012330	 -0.000444	 -2.756839	 -1.149353	 1.152002	 -0.361592	 0.747553	 -0.534858	 0.156017	 1
1462068120.909	 8	 0.000309	 0.013388	 -0.002538	 -2.756577	 -1.149362	 1.152130	 -0.361568	 0.747549	 -0.534899	 0.155955	 1
1462068120.920	 8	 0.001357	 0.011242	 -0.004699	 -2.756256	 -1.149367	 1.152340	 -0.361560	 0.747535	 -0.534942	 0.155893	 1
1462068120.930	 8	 0.000305	 0.014437	 -0.004660	 -2.755928	 -1.149320	 1.152531	 -0.361553	 0.747535	 -0.534971	 0.155809	 1
1462068120.939	 8	 -0.000776	 0.012305	 -0.005737	 -2.755560	 -1.149293	 1.152762	 -0.361547	 0.747527	 -0.535011	 0.155725	 1
1462068120.950	 8	 0.000282	 0.011230	 -0.006822	 -2.755315	 -1.149298	 1.152903	 -0.361533	 0.747519	 -0.535046	 0.155673	 1
1462068120.959	 8	 0.000285	 0.010182	 -0.004700	 -2.755112	 -1.149310	 1.153017	 -0.361519	 0.747512	 -0.535078	 0.155631	 1
1462068120.969	 8	 -0.002901	 0.012326	 -0.003586	 -2.755092	 -1.149325	 1.152945	 -0.361483	 0.747524	 -0.535092	 0.155608	 1
1462068120.979	 8	 -0.001789	 0.014454	 -0.002481	 -2.755132	 -1.149337	 1.152777	 -0.361429	 0.747549	 -0.535101	 0.155582	 1
1462068120.989	 8	 -0.002862	 0.013393	 -0.002480	 -2.755182	 -1.149317	 1.152606	 -0.361383	 0.747580	 -0.535099	 0.155549	 1
1462068120.999	 8	 -0.003929	 0.012340	 -0.001414	 -2.755213	 -1.149346	 1.152457	 -0.361328	 0.747599	 -0.535115	 0.155528	 1
1462068121.009	 8	 -0.003930	 0.011283	 -0.000358	 -2.755303	 -1.149318	 1.152262	 -0.361286	 0.747633	 -0.535105	 0.155503	 1
1462068121.019	 8	 -0.006060	 0.012353	 -0.000329	 -2.755342	 -1.149294	 1.152113	 -0.361246	 0.747661	 -0.535102	 0.155471	 1
1462068121.029	 8	 -0.004983	 0.013421	 0.000738	 -2.755293	 -1.149323	 1.152028	 -0.361195	 0.747675	 -0.535126	 0.155438	 1
1462068121.039	 8	 -0.004987	 0.012358	 0.000728	 -2.755157	 -1.149356	 1.152024	 -0.361150	 0.747680	 -0.535162	 0.155395	 1
1462068121.049	 8	 -0.001794	 0.012332	 -0.001431	 -2.755097	 -1.149448	 1.151965	 -0.361092	 0.747679	 -0.535206	 0.155381	 1
1462068121.059	 8	 -0.001798	 0.011269	 -0.001441	 -2.754897	 -1.149510	 1.152045	 -0.361055	 0.747669	 -0.535256	 0.155344	 1
1462068121.069	 8	 -0.002860	 0.011280	 -0.000366	 -2.754744	 -1.149561	 1.152083	 -0.361018	 0.747665	 -0.535296	 0.155311	 1
1462068121.079	 8	 -0.003921	 0.013403	 -0.001403	 -2.754509	 -1.149584	 1.152181	 -0.360986	 0.747661	 -0.535339	 0.155255	 1
1462068121.089	 8	 -0.003916	 0.013410	 -0.000337	 -2.754347	 -1.149616	 1.152208	 -0.360947	 0.747663	 -0.535376	 0.155211	 1
1462068121.099	 8	 -0.004973	 0.015541	 -0.000308	 -2.754091	 -1.149625	 1.152307	 -0.360913	 0.747663	 -0.535417	 0.155144	 1
1462068121.109	 8	 -0.004971	 0.017653	 -0.002420	 -2.753921	 -1.149617	 1.152304	 -0.360868	 0.747679	 -0.535446	 0.155077	 1
1462068121.119	 8	 -0.006044	 0.015536	 -0.001365	 -2.753743	 -1.149547	 1.152322	 -0.360842	 0.747702	 -0.535454	 0.154997	 1
1462068121.129	 8	 -0.006054	 0.013409	 -0.001384	 -2.753602	 -1.149518	 1.152325	 -0.360811	 0.747717	 -0.535470	 0.154937	 1
1462068121.139	 8	 -0.006034	 0.009151	 0.000740	 -2.753529	 -1.149503	 1.152286	 -0.360781	 0.747733	 -0.535482	 0.154896	 1
1462068121.149	 8	 -0.004987	 0.004893	 0.000691	 -2.753520	 -1.149466	 1.152224	 -0.360763	 0.747751	 -0.535476	 0.154865	 1
1462068121.159	 8	 -0.003970	 -0.003635	 -0.001529	 -2.753558	 -1.149408	 1.152198	 -0.360776	 0.747763	 -0.535453	 0.154857	 1
1462068121.169	 8	 0.000270	 -0.008974	 -0.002681	 -2.753589	 -1.149424	 1.152258	 -0.360803	 0.747747	 -0.535448	 0.154889	 1
1462068121.179	 8	 0.001342	 -0.007913	 -0.002680	 -2.753624	 -1.149443	 1.152318	 -0.360831	 0.747730	 -0.535443	 0.154923	 1
1462068121.189	 8	 0.000296	 -0.002599	 -0.003688	 -2.753582	 -1.149466	 1.152407	 -0.360848	 0.747713	 -0.535451	 0.154938	 1
1462068121.199	 8	 -0.000750	 0.002714	 -0.004695	 -2.753575	 -1.149463	 1.152420	 -0.360851	 0.747712	 -0.535450	 0.154938	 1
1462068121.209	 8	 -0.001782	 0.010163	 -0.004616	 -2.753464	 -1.149464	 1.152463	 -0.360838	 0.747713	 -0.535467	 0.154908	 1
1462068121.219	 8	 -0.001761	 0.014417	 -0.004576	 -2.753373	 -1.149494	 1.152440	 -0.360798	 0.747719	 -0.535495	 0.154876	 1
1462068121.229	 8	 -0.001769	 0.010185	 -0.001417	 -2.753451	 -1.149532	 1.152267	 -0.360747	 0.747737	 -0.535506	 0.154869	 1
1462068121.239	 8	 -0.002847	 0.007005	 -0.000371	 -2.753570	 -1.149524	 1.152080	 -0.360710	 0.747763	 -0.535497	 0.154861	 1
1462068121.249	 8	 -0.003936	 -0.000415	 0.002767	 -2.753754	 -1.149551	 1.151883	 -0.360680	 0.747779	 -0.535487	 0.154885	 1
1462068121.259	 8	 -0.006094	 -0.003615	 0.000625	 -2.753832	 -1.149517	 1.151825	 -0.360686	 0.747790	 -0.535467	 0.154889	 1
1462068121.269	 8	 -0.007181	 -0.006810	 -0.000462	 -2.753904	 -1.149458	 1.151801	 -0.360709	 0.747799	 -0.535437	 0.154894	 1
1462068121.279	 8	 -0.007209	 -0.010024	 -0.003689	 -2.753804	 -1.149388	 1.151975	 -0.360763	 0.747788	 -0.535420	 0.154884	 1
1462068121.289	 8	 -0.007217	 -0.010039	 -0.005821	 -2.753613	 -1.149320	 1.152245	 -0.360827	 0.747766	 -0.535412	 0.154867	 1
1462068121.299	 8	 -0.006134	 -0.014314	 -0.004764	 -2.753490	 -1.149287	 1.152493	 -0.360894	 0.747737	 -0.535404	 0.154879	 1
1462068121.309	 8	 -0.006133	 -0.013258	 -0.005820	 -2.753505	 -1.149187	 1.152618	 -0.360966	 0.747731	 -0.535360	 0.154891	 1
1462068121.319	 8	 -0.007215	 -0.015390	 -0.006897	 -2.753498	 -1.149049	 1.152774	 -0.361052	 0.747729	 -0.535306	 0.154893	 1
1462068121.329	 8	 -0.005130	 -0.023921	 -0.009126	 -2.753585	 -1.148943	 1.152913	 -0.361149	 0.747716	 -0.535246	 0.154934	 1
1462068121.339	 8	 -0.006220	 -0.027124	 -0.011278	 -2.753654	 -1.148914	 1.153122	 -0.361252	 0.747678	 -0.535208	 0.155008	 1
1462068121.349	 8	 -0.005149	 -0.028176	 -0.009165	 -2.753896	 -1.148911	 1.153181	 -0.361340	 0.747649	 -0.535158	 0.155113	 1
1462068121.359	 8	 -0.004062	 -0.023925	 -0.009134	 -2.754160	 -1.148935	 1.153197	 -0.361411	 0.747621	 -0.535117	 0.155223	 1
1462068121.369	 8	 -0.001885	 -0.018582	 -0.004839	 -2.754498	 -1.149004	 1.153087	 -0.361446	 0.747602	 -0.535087	 0.155338	 1
1462068121.379	 8	 -0.001881	 -0.019631	 -0.002716	 -2.754944	 -1.149109	 1.152861	 -0.361458	 0.747590	 -0.535057	 0.155473	 1
1462068121.389	 8	 -0.000829	 -0.023881	 -0.001698	 -2.755399	 -1.149154	 1.152667	 -0.361498	 0.747581	 -0.535004	 0.155603	 1
1462068121.399	 8	 0.002364	 -0.022851	 -0.004913	 -2.755784	 -1.149218	 1.152546	 -0.361542	 0.747562	 -0.534964	 0.155731	 1
1462068121.409	 8	 0.000246	 -0.018598	 -0.005920	 -2.756004	 -1.149271	 1.152551	 -0.361591	 0.747534	 -0.534940	 0.155829	 1
1462068121.419	 8	 0.000283	 -0.010096	 -0.006907	 -2.756107	 -1.149342	 1.152599	 -0.361622	 0.747505	 -0.534941	 0.155900	 1
1462068121.429	 8	 -0.000748	 -0.002648	 -0.006828	 -2.756259	 -1.149393	 1.152522	 -0.361623	 0.747498	 -0.534935	 0.155950	 1
1462068121.439	 8	 -0.001785	 0.002681	 -0.005702	 -2.756314	 -1.149457	 1.152479	 -0.361608	 0.747490	 -0.534949	 0.155976	 1
1462068121.449	 8	 -0.001773	 0.002704	 -0.002504	 -2.756466	 -1.149502	 1.152312	 -0.361577	 0.747500	 -0.534949	 0.156000	 1
1462068121.459	 8	 -0.001753	 -0.000511	 -0.001422	 -2.756660	 -1.149564	 1.152135	 -0.361549	 0.747506	 -0.534947	 0.156042	 1
1462068121.469	 8	 -0.000690	 -0.001579	 -0.001441	 -2.756837	 -1.149624	 1.151984	 -0.361527	 0.747508	 -0.534946	 0.156084	 1
1462068121.479	 8	 -0.001753	 -0.001568	 -0.000365	 -2.756897	 -1.149615	 1.151945	 -0.361531	 0.747512	 -0.534935	 0.156093	 1
1462068121.489	 8	 -0.001769	 -0.005815	 0.000661	 -2.757020	 -1.149608	 1.151862	 -0.361534	 0.747519	 -0.534918	 0.156115	 1
1462068121.499	 8	 -0.002865	 -0.010082	 -0.001501	 -2.757088	 -1.149578	 1.151888	 -0.361568	 0.747514	 -0.534894	 0.156139	 1
1462068121.509	 8	 -0.003943	 -0.012206	 -0.001511	 -2.757239	 -1.149533	 1.151861	 -0.361608	 0.747516	 -0.534854	 0.156177	 1
1462068121.519	 8	 -0.003961	 -0.014349	 -0.003662	 -2.757453	 -1.149517	 1.151800	 -0.361646	 0.747513	 -0.534815	 0.156236	 1
1462068121.529	 8	 -0.003947	 -0.012214	 -0.002576	 -2.757605	 -1.149491	 1.151780	 -0.361685	 0.747509	 -0.534781	 0.156280	 1
1462068121.539	 8	 -0.000746	 -0.012224	 -0.002604	 -2.757799	 -1.149492	 1.151716	 -0.361713	 0.747505	 -0.534751	 0.156336	 1
1462068121.549	 8	 -0.001828	 -0.015412	 -0.002624	 -2.758066	 -1.149461	 1.151617	 -0.361753	 0.747508	 -0.534701	 0.156401	 1
1462068121.559	 8	 -0.002890	 -0.013290	 -0.003660	 -2.758300	 -1.149404	 1.151541	 -0.361800	 0.747514	 -0.534646	 0.156453	 1
1462068121.569	 8	 -0.005019	 -0.012220	 -0.003631	 -2.758593	 -1.149328	 1.151394	 -0.361839	 0.747531	 -0.534581	 0.156503	 1
1462068121.579	 8	 -0.005020	 -0.012220	 -0.003630	 -2.758871	 -1.149276	 1.151252	 -0.361871	 0.747544	 -0.534525	 0.156555	 1
1462068121.589	 8	 -0.003933	 -0.009025	 -0.002544	 -2.759058	 -1.149243	 1.151172	 -0.361899	 0.747550	 -0.534487	 0.156595	 1
1462068121.599	 8	 -0.001789	 -0.006904	 -0.002543	 -2.759233	 -1.149252	 1.151087	 -0.361911	 0.747550	 -0.534465	 0.156640	 1
1462068121.609	 8	 -0.001765	 -0.003698	 -0.000381	 -2.759397	 -1.149258	 1.150977	 -0.361913	 0.747556	 -0.534446	 0.156674	 1
1462068121.619	 8	 -0.000687	 -0.000518	 -0.001427	 -2.759425	 -1.149251	 1.150966	 -0.361918	 0.747557	 -0.534439	 0.156679	 1
1462068121.629	 8	 -0.001711	 0.001604	 -0.000285	 -2.759474	 -1.149279	 1.150913	 -0.361905	 0.747558	 -0.534443	 0.156690	 1
1462068121.639	 8	 -0.002803	 -0.002655	 -0.001380	 -2.759552	 -1.149248	 1.150857	 -0.361912	 0.747568	 -0.534424	 0.156696	 1
1462068121.649	 8	 -0.002813	 -0.004783	 -0.001400	 -2.759664	 -1.149242	 1.150794	 -0.361919	 0.747571	 -0.534406	 0.156720	 1
1462068121.659	 8	 -0.002813	 -0.004783	 -0.001400	 -2.759802	 -1.149215	 1.150719	 -0.361934	 0.747579	 -0.534379	 0.156744	 1
1462068121.669	 8	 -0.005993	 0.000537	 -0.002388	 -2.759822	 -1.149145	 1.150707	 -0.361950	 0.747592	 -0.534354	 0.156730	 1
1462068121.679	 8	 -0.007079	 -0.001603	 -0.004530	 -2.759822	 -1.149078	 1.150720	 -0.361968	 0.747602	 -0.534332	 0.156715	 1
1462068121.689	 8	 -0.006021	 -0.002677	 -0.005615	 -2.759774	 -1.149018	 1.150796	 -0.361997	 0.747603	 -0.534315	 0.156702	 1
1462068121.699	 8	 -0.001753	 -0.002690	 -0.005652	 -2.759780	 -1.148999	 1.150843	 -0.362020	 0.747597	 -0.534305	 0.156711	 1
1462068121.709	 8	 -0.002820	 -0.002687	 -0.005643	 -2.759725	 -1.148953	 1.150924	 -0.362046	 0.747595	 -0.534294	 0.156700	 1
1462068121.719	 8	 -0.004930	 0.000525	 -0.003463	 -2.759747	 -1.148944	 1.150925	 -0.362054	 0.747595	 -0.534287	 0.156706	 1
1462068121.729	 8	 -0.002790	 0.002638	 -0.004527	 -2.759824	 -1.148902	 1.150843	 -0.362053	 0.747611	 -0.534266	 0.156702	 1
1462068121.739	 8	 -0.004925	 0.002644	 -0.004508	 -2.759902	 -1.148865	 1.150755	 -0.362048	 0.747628	 -0.534247	 0.156697	 1
1462068121.749	 8	 -0.005997	 0.001584	 -0.004508	 -2.759937	 -1.148807	 1.150719	 -0.362056	 0.747642	 -0.534225	 0.156685	 1
1462068121.759	 8	 -0.004945	 -0.001611	 -0.004546	 -2.760064	 -1.148758	 1.150620	 -0.362064	 0.747659	 -0.534194	 0.156693	 1
1462068121.769	 8	 -0.003888	 -0.003742	 -0.004575	 -2.760263	 -1.148729	 1.150474	 -0.362068	 0.747675	 -0.534160	 0.156721	 1
1462068121.779	 8	 -0.001732	 -0.004866	 -0.004559	 -2.760488	 -1.148691	 1.150331	 -0.362083	 0.747690	 -0.534119	 0.156757	 1
1462068121.789	 8	 -0.002800	 -0.005919	 -0.003493	 -2.760694	 -1.148685	 1.150199	 -0.362090	 0.747699	 -0.534090	 0.156797	 1
1462068121.799	 8	 -0.003846	 -0.000606	 -0.004500	 -2.760945	 -1.148666	 1.150002	 -0.362088	 0.747718	 -0.534054	 0.156833	 1
1462068121.809	 8	 -0.005955	 0.005774	 -0.005487	 -2.761172	 -1.148620	 1.149773	 -0.362072	 0.747750	 -0.534016	 0.156844	 1
1462068121.819	 8	 -0.009132	 0.010046	 -0.004353	 -2.761287	 -1.148564	 1.149594	 -0.362048	 0.747784	 -0.533992	 0.156825	 1
1462068121.829	 8	 -0.012333	 0.010055	 -0.004324	 -2.761465	 -1.148465	 1.149341	 -0.362022	 0.747834	 -0.533948	 0.156797	 1
1462068121.839	 8	 -0.013396	 0.010065	 -0.003248	 -2.761750	 -1.148382	 1.148981	 -0.361981	 0.747891	 -0.533898	 0.156786	 1
1462068121.849	 8	 -0.014445	 0.012211	 -0.001087	 -2.761924	 -1.148292	 1.148706	 -0.361943	 0.747944	 -0.533859	 0.156753	 1
1462068121.859	 8	 -0.015502	 0.014341	 -0.001058	 -2.762010	 -1.148170	 1.148479	 -0.361907	 0.748000	 -0.533822	 0.156692	 1
1462068121.869	 8	 -0.018709	 0.013287	 -0.001039	 -2.762103	 -1.147965	 1.148251	 -0.361890	 0.748071	 -0.533758	 0.156612	 1
1462068121.879	 8	 -0.020868	 0.009031	 -0.002126	 -2.762141	 -1.147739	 1.148112	 -0.361896	 0.748134	 -0.533690	 0.156528	 1
1462068121.889	 8	 -0.021925	 0.010105	 -0.001041	 -2.762300	 -1.147569	 1.147846	 -0.361875	 0.748201	 -0.533628	 0.156472	 1
1462068121.899	 8	 -0.021870	 0.020749	 0.000124	 -2.762410	 -1.147374	 1.147555	 -0.361836	 0.748280	 -0.533569	 0.156383	 1
1462068121.909	 8	 -0.025060	 0.019726	 0.004406	 -2.762583	 -1.147185	 1.147159	 -0.361774	 0.748372	 -0.533509	 0.156292	 1
1462068121.919	 8	 -0.026201	 0.005886	 0.002155	 -2.762745	 -1.147021	 1.146878	 -0.361747	 0.748440	 -0.533449	 0.156234	 1
1462068121.929	 8	 -0.026284	 -0.009028	 -0.001180	 -2.762942	 -1.146836	 1.146706	 -0.361774	 0.748489	 -0.533368	 0.156212	 1
1462068121.939	 8	 -0.026274	 -0.001629	 -0.007506	 -2.762957	 -1.146570	 1.146721	 -0.361840	 0.748534	 -0.533279	 0.156151	 1
1462068121.949	 8	 -0.024092	 0.012161	 -0.011660	 -2.762825	 -1.146244	 1.146757	 -0.361887	 0.748596	 -0.533196	 0.156024	 1
1462068121.959	 8	 -0.022955	 0.022742	 -0.014719	 -2.762573	 -1.145884	 1.146802	 -0.361912	 0.748673	 -0.533123	 0.155845	 1
1462068121.969	 8	 -0.022973	 0.016383	 -0.011581	 -2.762358	 -1.145562	 1.146848	 -0.361940	 0.748739	 -0.533056	 0.155692	 1
1462068121.979	 8	 -0.014522	 0.004603	 -0.019225	 -2.761991	 -1.145317	 1.147157	 -0.362010	 0.748756	 -0.533020	 0.155571	 1
1462068121.989	 8	 -0.013455	 0.010928	 -0.026636	 -2.761274	 -1.144954	 1.147785	 -0.362131	 0.748764	 -0.532985	 0.155373	 1
1462068121.999	 8	 -0.007168	 -0.013555	 -0.026919	 -2.760560	 -1.144844	 1.148583	 -0.362262	 0.748694	 -0.533018	 0.155289	 1
1462068122.009	 8	 -0.000792	 -0.004132	 -0.045006	 -2.759646	 -1.144697	 1.149621	 -0.362438	 0.748604	 -0.533056	 0.155184	 1
1462068122.019	 8	 0.019428	 0.000979	 -0.065385	 -2.757863	 -1.144576	 1.151505	 -0.362694	 0.748422	 -0.533195	 0.154987	 1
1462068122.029	 8	 0.041677	 -0.016253	 -0.085989	 -2.755373	 -1.144706	 1.154236	 -0.363024	 0.748096	 -0.533476	 0.154818	 1
1462068122.039	 8	 0.049910	 -0.066394	 -0.103580	 -2.753020	 -1.144975	 1.157350	 -0.363503	 0.747665	 -0.533748	 0.154842	 1
1462068122.049	 8	 0.069033	 -0.091909	 -0.094395	 -2.750482	 -1.144811	 1.160903	 -0.364189	 0.747244	 -0.533882	 0.154797	 1
1462068122.059	 8	 0.055178	 -0.076011	 -0.107986	 -2.747620	 -1.144314	 1.164743	 -0.364965	 0.746854	 -0.533950	 0.154619	 1
1462068122.069	 8	 0.010350	 -0.048468	 -0.141448	 -2.744221	 -1.143342	 1.168949	 -0.365838	 0.746519	 -0.533941	 0.154209	 1
1462068122.079	 8	 -0.074360	 0.016262	 -0.049516	 -2.744871	 -1.141908	 1.168581	 -0.366183	 0.746787	 -0.533399	 0.153963	 1
1462068122.089	 8	 -0.121813	 0.044854	 0.060940	 -2.747731	 -1.140791	 1.165136	 -0.365898	 0.747394	 -0.532789	 0.153810	 1
1462068122.099	 8	 -0.010671	 -0.174349	 0.092037	 -2.751111	 -1.140704	 1.162680	 -0.365898	 0.747598	 -0.532332	 0.154396	 1
1462068122.109	 8	 0.116002	 -0.270312	 0.117795	 -2.754977	 -1.141893	 1.161295	 -0.366156	 0.747341	 -0.532108	 0.155793	 1
1462068122.119	 8	 0.312409	 -0.113850	 0.212394	 -2.758343	 -1.145064	 1.159337	 -0.365646	 0.746871	 -0.532651	 0.157385	 1
1462068122.129	 8	 0.425100	 -0.002300	 0.240160	 -2.759855	 -1.149695	 1.157880	 -0.364520	 0.746188	 -0.533957	 0.158805	 1
1462068122.139	 8	 0.366737	 0.006911	 0.313225	 -2.762381	 -1.154237	 1.154999	 -0.363156	 0.745690	 -0.535165	 0.160195	 1
1462068122.149	 8	 0.251709	 -0.020815	 0.403492	 -2.767900	 -1.158217	 1.149050	 -0.361572	 0.745598	 -0.535906	 0.161722	 1
1462068122.159	 8	 0.121108	 0.003968	 0.541277	 -2.777902	 -1.161500	 1.138285	 -0.359548	 0.746118	 -0.536024	 0.163437	 1
1462068122.169	 8	 0.084114	 0.113336	 0.501052	 -2.787525	 -1.164103	 1.126896	 -0.357335	 0.746880	 -0.536068	 0.164658	 1
1462068122.179	 8	 0.181606	 0.194942	 0.499891	 -2.793015	 -1.166623	 1.118530	 -0.355162	 0.747438	 -0.536593	 0.165120	 1
1462068122.189	 8	 0.300407	 0.291180	 0.472042	 -2.798952	 -1.170898	 1.109271	 -0.352422	 0.747761	 -0.537692	 0.165952	 1
1462068122.199	 8	 0.300359	 0.305855	 0.442338	 -2.803306	 -1.175238	 1.101111	 -0.349660	 0.747984	 -0.539016	 0.166492	 1
1462068122.209	 8	 0.239919	 0.070704	 0.551515	 -2.811594	 -1.179391	 1.090500	 -0.347089	 0.748319	 -0.539812	 0.167781	 1
1462068122.219	 8	 0.158773	 -0.315965	 0.731932	 -2.826837	 -1.183462	 1.076126	 -0.345014	 0.748697	 -0.539727	 0.170623	 1
1462068122.229	 8	 0.034583	 -0.567295	 0.931038	 -2.852301	 -1.186672	 1.054306	 -0.343081	 0.749589	 -0.538298	 0.175065	 1
1462068122.239	 8	 0.020637	 -0.552795	 1.164697	 -2.884199	 -1.189798	 1.025976	 -0.340440	 0.750933	 -0.536417	 0.180161	 1
1462068122.249	 8	 0.083382	 -0.557764	 1.384717	 -2.921962	 -1.193618	 0.991328	 -0.336848	 0.752502	 -0.534507	 0.185949	 1
1462068122.259	 8	 0.102103	 -0.511510	 1.468159	 -2.962859	 -1.197483	 0.952985	 -0.332669	 0.754173	 -0.532639	 0.191963	 1
1462068122.269	 8	 0.089308	 -0.513561	 1.473580	 -3.005013	 -1.200736	 0.913258	 -0.328371	 0.755860	 -0.530708	 0.197983	 1
1462068122.279	 8	 0.058130	 -0.504397	 1.404662	 -3.046558	 -1.203051	 0.874203	 -0.324266	 0.757494	 -0.528696	 0.203804	 1
1462068122.289	 8	 0.078743	 -0.518438	 1.237027	 -3.084700	 -1.204690	 0.838731	 -0.320667	 0.758864	 -0.526815	 0.209200	 1
1462068122.299	 8	 0.102801	 -0.485648	 1.075127	 -3.118826	 -1.206110	 0.807576	 -0.317641	 0.759859	 -0.525199	 0.214205	 1
1462068122.309	 8	 0.129105	 -0.412592	 0.893332	 3.135579	 -1.207405	 0.781370	 -0.315085	 0.760553	 -0.523973	 0.218479	 1
1462068122.319	 8	 0.149952	 -0.387192	 0.737786	 3.111144	 -1.208711	 0.759384	 -0.312982	 0.760968	 -0.523058	 0.222217	 1
1462068122.329	 8	 0.194941	 -0.432191	 0.564322	 3.090774	 -1.210277	 0.742029	 -0.311552	 0.760978	 -0.522423	 0.225659	 1
1462068122.339	 8	 0.233691	 -0.501125	 0.461030	 3.072802	 -1.212271	 0.728045	 -0.310744	 0.760572	 -0.521988	 0.229123	 1
1462068122.349	 8	 0.227132	 -0.550951	 0.480873	 3.054592	 -1.214201	 0.714305	 -0.310106	 0.760077	 -0.521496	 0.232721	 1
1462068122.359	 8	 0.214525	 -0.692909	 0.700275	 3.030480	 -1.215749	 0.695564	 -0.309144	 0.759721	 -0.520568	 0.237198	 1
1462068122.369	 8	 0.203386	 -0.873161	 1.066382	 2.995566	 -1.216538	 0.667163	 -0.307373	 0.759686	 -0.518907	 0.243175	 1
1462068122.379	 8	 0.180717	 -0.958094	 1.371663	 2.950479	 -1.216211	 0.629184	 -0.304634	 0.760025	 -0.516566	 0.250438	 1
1462068122.389	 8	 0.162613	 -0.910693	 1.593940	 2.899812	 -1.214512	 0.585016	 -0.300965	 0.760753	 -0.513834	 0.258168	 1
1462068122.399	 8	 0.169878	 -0.912312	 1.813409	 2.844051	 -1.211448	 0.535188	 -0.296358	 0.761760	 -0.510809	 0.266398	 1
1462068122.409	 8	 0.139540	 -0.895299	 1.947052	 2.785723	 -1.206715	 0.482480	 -0.291140	 0.762973	 -0.507461	 0.274943	 1
1462068122.419	 8	 0.094310	 -0.820157	 2.023814	 2.727968	 -1.200159	 0.429604	 -0.285458	 0.764425	 -0.503851	 0.283376	 1
1462068122.429	 8	 0.073637	 -0.745065	 2.103559	 2.671626	 -1.191960	 0.377263	 -0.279294	 0.766072	 -0.500079	 0.291632	 1
1462068122.439	 8	 0.054087	 -0.646676	 2.169657	 2.617314	 -1.182211	 0.325938	 -0.272621	 0.767902	 -0.496197	 0.299654	 1
1462068122.449	 8	 0.087527	 -0.627142	 2.236690	 2.564728	 -1.171237	 0.275729	 -0.265525	 0.769758	 -0.492278	 0.307623	 1
1462068122.459	 8	 0.155845	 -0.683196	 2.308045	 2.512110	 -1.159389	 0.225810	 -0.258122	 0.771362	 -0.488364	 0.316030	 1
1462068122.469	 8	 0.091689	 -0.566359	 2.406676	 2.462101	 -1.145874	 0.177727	 -0.250254	 0.773121	 -0.484247	 0.324287	 1
1462068122.479	 8	 -0.029277	 -0.335042	 2.575074	 2.416324	 -1.129476	 0.131661	 -0.241398	 0.775593	 -0.479592	 0.331926	 1
1462068122.489	 8	 -0.049602	 -0.008520	 2.712576	 2.375291	 -1.110923	 0.087236	 -0.231316	 0.778704	 -0.474783	 0.338665	 1
1462068122.499	 8	 -0.088949	 0.433335	 2.759661	 2.341117	 -1.090980	 0.045289	 -0.219933	 0.782532	 -0.470168	 0.343825	 1
1462068122.509	 8	 -0.219137	 0.804567	 2.858036	 2.314627	 -1.069218	 0.006996	 -0.207474	 0.787233	 -0.465355	 0.347367	 1
1462068122.519	 8	 -0.313113	 0.758154	 3.166427	 2.289832	 -1.044199	 -0.030626	 -0.193914	 0.792412	 -0.459585	 0.351088	 1
1462068122.529	 8	 -0.328459	 0.414925	 3.203866	 2.264320	 -1.017627	 -0.066355	 -0.180551	 0.797075	 -0.453085	 0.356071	 1
1462068122.539	 8	 -0.426790	 0.239008	 3.106101	 2.240828	 -0.990881	 -0.097332	 -0.168180	 0.801160	 -0.446134	 0.361693	 1
1462068122.549	 8	 -0.490373	 0.063022	 3.159371	 2.219327	 -0.963104	 -0.124805	 -0.156189	 0.805012	 -0.438564	 0.367726	 1
1462068122.559	 8	 -0.227937	 -0.728262	 3.271219	 2.191227	 -0.935076	 -0.153471	 -0.144733	 0.807250	 -0.430886	 0.376478	 1
1462068122.569	 8	 0.262666	 -1.892482	 3.235865	 2.149275	 -0.908959	 -0.185917	 -0.134736	 0.806135	 -0.424097	 0.390044	 1
1462068122.579	 8	 0.537213	 -2.544815	 3.006792	 2.099605	 -0.885423	 -0.218474	 -0.126518	 0.802284	 -0.418372	 0.406569	 1
1462068122.589	 8	 0.508492	 -2.871113	 2.880377	 2.049425	 -0.862626	 -0.247515	 -0.119630	 0.797166	 -0.412768	 0.424072	 1
1462068122.599	 8	 0.513657	 -3.296056	 2.804972	 1.998246	 -0.839386	 -0.273158	 -0.113842	 0.790875	 -0.406770	 0.442825	 1
1462068122.609	 8	 0.456842	 -3.628176	 2.597749	 1.946586	 -0.816796	 -0.295155	 -0.109426	 0.783355	 -0.400683	 0.462421	 1
1462068122.619	 8	 0.160471	 -3.423244	 2.430649	 1.900538	 -0.794581	 -0.310665	 -0.106209	 0.775979	 -0.393949	 0.481020	 1
1462068122.629	 8	 -0.004234	 -3.816572	 2.539263	 1.856341	 -0.770858	 -0.321592	 -0.103640	 0.768300	 -0.385991	 0.499984	 1
1462068122.639	 8	 0.166549	 -4.640052	 2.720884	 1.804396	 -0.745167	 -0.332447	 -0.101616	 0.758116	 -0.377237	 0.522136	 1
1462068122.649	 8	 0.560009	 -4.965181	 2.486360	 1.746330	 -0.720783	 -0.345560	 -0.099874	 0.745403	 -0.369576	 0.545723	 1
1462068122.659	 8	 0.937788	 -4.326205	 1.724865	 1.691172	 -0.702847	 -0.360421	 -0.098695	 0.732169	 -0.365060	 0.566497	 1
1462068122.669	 8	 1.151164	 -3.263120	 0.712965	 1.645923	 -0.694225	 -0.376142	 -0.098364	 0.720532	 -0.364575	 0.581587	 1
1462068122.679	 8	 1.123335	 -2.888500	 -0.292584	 1.607251	 -0.695484	 -0.391032	 -0.100545	 0.709846	 -0.367416	 0.592465	 1
1462068122.689	 8	 0.839453	 -3.607229	 -0.516347	 1.565783	 -0.700677	 -0.402959	 -0.105799	 0.697775	 -0.370427	 0.603904	 1
1462068122.699	 8	 0.494351	 -4.578517	 -0.538367	 1.517272	 -0.705801	 -0.410707	 -0.113939	 0.683125	 -0.371643	 0.618256	 1
1462068122.709	 8	 0.234822	 -5.304165	 -0.533268	 1.463266	 -0.710936	 -0.415080	 -0.124351	 0.666239	 -0.371260	 0.634688	 1
1462068122.719	 8	 0.397674	 -6.851327	 -0.413731	 1.395270	 -0.715077	 -0.420418	 -0.136730	 0.644500	 -0.369674	 0.655184	 1
1462068122.729	 8	 0.533282	 -8.137210	 -0.209461	 1.311969	 -0.716390	 -0.427721	 -0.150257	 0.617177	 -0.366474	 0.679862	 1
1462068122.739	 8	 0.407807	 -8.936754	 -0.220072	 1.220082	 -0.717000	 -0.434303	 -0.165244	 0.585838	 -0.361654	 0.706183	 1
1462068122.749	 8	 0.144291	 -9.315123	 -0.288441	 1.124937	 -0.718722	 -0.438396	 -0.181827	 0.551956	 -0.355250	 0.732175	 1
1462068122.759	 8	 -1.256522	 -7.366506	 0.183113	 1.049963	 -0.722440	 -0.429085	 -0.198992	 0.523214	 -0.345411	 0.753220	 1
1462068122.769	 8	 -2.399402	 -4.232015	 1.045000	 1.022013	 -0.726666	 -0.398113	 -0.213475	 0.509401	 -0.331597	 0.764841	 1
1462068122.779	 8	 -2.021513	 -3.320755	 1.602254	 1.010460	 -0.725404	 -0.362740	 -0.223757	 0.501100	 -0.316483	 0.773738	 1
1462068122.789	 8	 -1.032663	 -2.888527	 2.057010	 0.999073	 -0.715985	 -0.334552	 -0.228586	 0.493599	 -0.302389	 0.782732	 1
1462068122.799	 8	 -0.411096	 -1.885581	 2.595944	 0.992347	 -0.698189	 -0.311110	 -0.227861	 0.488550	 -0.288898	 0.791161	 1
1462068122.809	 8	 -0.203644	 -0.563234	 3.011432	 0.998318	 -0.675063	 -0.287859	 -0.222961	 0.488710	 -0.275709	 0.797142	 1
1462068122.819	 8	 -0.042462	 0.183317	 3.208813	 1.012518	 -0.648683	 -0.265456	 -0.215433	 0.492468	 -0.262878	 0.801224	 1
1462068122.829	 8	 -0.005747	 0.306315	 3.171270	 1.027938	 -0.621511	 -0.244623	 -0.207172	 0.497079	 -0.250364	 0.804556	 1
1462068122.839	 8	 0.026410	 0.003128	 3.029620	 1.039771	 -0.595107	 -0.225675	 -0.199349	 0.500580	 -0.238148	 0.808062	 1
1462068122.849	 8	 0.077071	 -0.477495	 2.921327	 1.045593	 -0.569313	 -0.208617	 -0.192099	 0.501941	 -0.226038	 0.812441	 1
1462068122.859	 8	 0.082565	 -0.828027	 2.840217	 1.046545	 -0.544177	 -0.192580	 -0.185428	 0.501484	 -0.213887	 0.817547	 1
1462068122.869	 8	 0.151703	 -1.136385	 2.880442	 1.043733	 -0.518803	 -0.177214	 -0.178850	 0.499608	 -0.201510	 0.823285	 1
1462068122.879	 8	 0.315572	 -1.373934	 3.043064	 1.037654	 -0.491588	 -0.162579	 -0.171554	 0.496528	 -0.188653	 0.829722	 1
1462068122.889	 8	 0.511946	 -1.581162	 3.293077	 1.028824	 -0.461534	 -0.148454	 -0.163054	 0.492428	 -0.175078	 0.836825	 1
1462068122.899	 8	 0.741569	 -1.735461	 3.521978	 1.017631	 -0.428349	 -0.134903	 -0.153111	 0.487441	 -0.160820	 0.844450	 1
1462068122.909	 8	 0.970518	 -1.746687	 3.679744	 1.005157	 -0.392653	 -0.122247	 -0.141768	 0.481993	 -0.146290	 0.852164	 1
1462068122.919	 8	 1.187145	 -1.446093	 3.857572	 0.994077	 -0.354308	 -0.110424	 -0.128768	 0.477195	 -0.131650	 0.859286	 1
1462068122.929	 8	 1.205934	 -1.063418	 3.834325	 0.986378	 -0.315487	 -0.098734	 -0.115128	 0.473818	 -0.117208	 0.865161	 1
1462068122.939	 8	 1.205588	 -0.791103	 3.691919	 0.981140	 -0.277766	 -0.087592	 -0.101565	 0.471491	 -0.103406	 0.869878	 1
1462068122.949	 8	 1.247950	 -0.683202	 3.481533	 0.976635	 -0.241504	 -0.077771	 -0.088194	 0.469508	 -0.090552	 0.873833	 1
1462068122.959	 8	 1.288697	 -0.631127	 3.199236	 0.972005	 -0.207245	 -0.069758	 -0.075203	 0.467496	 -0.078954	 0.877245	 1
1462068122.969	 8	 1.363057	 -0.667646	 2.887046	 0.966620	 -0.175203	 -0.063919	 -0.062636	 0.465170	 -0.068822	 0.880317	 1
1462068122.979	 8	 1.538916	 -0.897050	 2.564717	 0.958855	 -0.145011	 -0.060986	 -0.050219	 0.461805	 -0.060380	 0.883498	 1
1462068122.999	 9	 2.187586	 -1.449013	 2.100984	 0.931832	 -0.085697	 -0.065745	 -0.023498	 0.449844	 -0.048569	 0.891476	 1
1462068123.009	 9	 2.428335	 -1.556833	 1.850628	 0.916198	 -0.056060	 -0.073243	 -0.008934	 0.442694	 -0.045212	 0.895488	 1
1462068123.019	 9	 2.404022	 -1.961807	 1.583828	 0.897406	 -0.028131	 -0.082172	 0.005154	 0.433909	 -0.043101	 0.899911	 1
1462068123.029	 9	 2.293987	 -2.539045	 1.434471	 0.873285	 -0.002190	 -0.090929	 0.018229	 0.422507	 -0.041647	 0.905219	 1
1462068123.039	 9	 2.274840	 -2.895124	 1.605043	 0.845086	 0.024430	 -0.097998	 0.031211	 0.409013	 -0.039665	 0.911132	 1
1462068123.049	 9	 2.270858	 -2.933609	 1.723019	 0.815938	 0.052339	 -0.103296	 0.044462	 0.394841	 -0.037004	 0.916927	 1
1462068123.059	 9	 2.174148	 -2.805001	 1.671770	 0.787683	 0.079839	 -0.107376	 0.057376	 0.380903	 -0.034222	 0.922198	 1
1462068123.069	 9	 2.024229	 -2.326046	 1.510208	 0.763324	 0.105450	 -0.110713	 0.069413	 0.368670	 -0.031677	 0.926424	 1
1462068123.079	 9	 1.959971	 -1.726607	 1.277614	 0.745077	 0.128926	 -0.114430	 0.080672	 0.359199	 -0.029742	 0.929292	 1
1462068123.089	 9	 2.122116	 -1.344589	 1.075131	 0.731635	 0.151782	 -0.120121	 0.092084	 0.351790	 -0.028819	 0.931093	 1
1462068123.099	 9	 2.354855	 -1.190085	 0.914678	 0.720801	 0.175314	 -0.128379	 0.104286	 0.345317	 -0.028985	 0.932223	 1
1462068123.109	 9	 2.460221	 -1.137127	 0.779967	 0.711214	 0.199081	 -0.138471	 0.116902	 0.339161	 -0.030015	 0.932954	 1
1462068123.119	 9	 2.405458	 -1.101726	 0.652882	 0.702389	 0.221979	 -0.149270	 0.129206	 0.333196	 -0.031585	 0.933428	 1
1462068123.129	 9	 2.227504	 -1.182807	 0.547101	 0.693315	 0.243111	 -0.159824	 0.140601	 0.327069	 -0.033458	 0.933883	 1
1462068123.139	 9	 1.982568	 -1.498219	 0.514325	 0.681581	 0.262178	 -0.169117	 0.150743	 0.319776	 -0.035385	 0.934756	 1
1462068123.149	 9	 1.710794	 -1.935108	 0.586164	 0.665206	 0.279604	 -0.176075	 0.159627	 0.310487	 -0.036973	 0.936349	 1
1462068123.159	 9	 1.372027	 -2.352388	 0.695004	 0.643737	 0.295269	 -0.179842	 0.167079	 0.299103	 -0.037917	 0.938714	 1
1462068123.169	 9	 0.947257	 -2.649461	 0.771607	 0.618000	 0.308249	 -0.180004	 0.172661	 0.286141	 -0.038113	 0.941732	 1
1462068123.179	 9	 0.529153	 -2.853283	 0.803192	 0.588936	 0.317968	 -0.176843	 0.176215	 0.272072	 -0.037671	 0.945254	 1
1462068123.189	 9	 0.224144	 -2.987883	 0.745979	 0.557769	 0.324564	 -0.171725	 0.178053	 0.257345	 -0.037047	 0.949051	 1
1462068123.199	 9	 0.089500	 -3.136329	 0.608286	 0.525135	 0.328867	 -0.166499	 0.178828	 0.242028	 -0.036879	 0.952934	 1
1462068123.209	 9	 0.053831	 -3.311919	 0.434309	 0.491116	 0.331731	 -0.162399	 0.179072	 0.225981	 -0.037593	 0.956793	 1
1462068123.219	 9	 0.047713	 -3.339685	 0.269977	 0.456720	 0.333553	 -0.159718	 0.178988	 0.209629	 -0.039164	 0.960461	 1
1462068123.229	 9	 0.087198	 -3.029951	 0.170202	 0.424971	 0.335040	 -0.158208	 0.178910	 0.194408	 -0.041110	 0.963591	 1
1462068123.239	 9	 0.205528	 -2.557400	 0.113886	 0.398035	 0.337091	 -0.157698	 0.179279	 0.181347	 -0.043057	 0.965981	 1
1462068123.249	 9	 0.450759	 -2.149712	 0.111282	 0.375766	 0.341008	 -0.158175	 0.180715	 0.170326	 -0.044896	 0.967634	 1
1462068123.259	 9	 0.784608	 -1.822347	 0.214800	 0.357015	 0.348193	 -0.159024	 0.183818	 0.160784	 -0.046325	 0.968614	 1
1462068123.269	 9	 1.062478	 -1.460019	 0.423576	 0.341484	 0.358845	 -0.159012	 0.188589	 0.152690	 -0.046784	 0.968985	 1
1462068123.279	 9	 1.191176	 -1.075746	 0.664762	 0.329044	 0.371868	 -0.157003	 0.194429	 0.146161	 -0.045845	 0.968882	 1
