% Gyrometer data recorded with 'snsrlog'
% 
% 
% Label description:
% 	 0: Default Label
% 	 1: still_drop
% 	 2: walk_drop
% 	 3: other
% 	 4: dtw_same
% 	 5: dtw_diff
% 	 6: delete
% 	 7: steal
% 
% Column description:
% 	 1: Seconds.milliseconds since 1970
% 	 2: Number of skipped measurements
% 	 3: Gyro X
% 	 4: Gyro Y
% 	 5: Gyro Z
% 	 6: Roll of the device
% 	 7: Pitch of the device
% 	 8: Yaw of the device
% 	 9: Quaternion X
% 	 10: Quaternion Y
% 	 11: Quaternion Z
% 	 12: Quaternion W
% 	 13: Label used for the current sample
% 
% 
1463630685.281	 0	 0.029501	 1.454574	 1.954914	 0.369411	 0.140246	 -0.083470	 0.076457	 0.180173	 -0.028056	 0.980258	 2
1463630685.291	 0	 -0.064705	 1.689466	 1.600890	 0.383307	 0.146147	 -0.067364	 0.078029	 0.187453	 -0.019072	 0.978984	 2
1463630685.301	 0	 -0.169138	 1.917987	 1.097688	 0.400188	 0.149502	 -0.055298	 0.078643	 0.196107	 -0.012180	 0.977348	 2
1463630685.311	 0	 -0.219437	 2.156363	 0.508846	 0.420048	 0.150189	 -0.048335	 0.078378	 0.206062	 -0.007931	 0.975363	 2
1463630685.321	 0	 -0.209603	 2.505960	 -0.118917	 0.443998	 0.148380	 -0.047057	 0.077449	 0.217812	 -0.006570	 0.972891	 2
1463630685.331	 0	 -0.129022	 2.891773	 -0.710724	 0.472508	 0.144456	 -0.051560	 0.076155	 0.231566	 -0.008110	 0.969800	 2
1463630685.341	 0	 0.000148	 3.397459	 -1.033267	 0.506480	 0.139614	 -0.060046	 0.074998	 0.247792	 -0.011523	 0.965837	 2
1463630685.351	 0	 0.075655	 3.487477	 -1.206813	 0.543729	 0.134330	 -0.070653	 0.074072	 0.265472	 -0.015935	 0.961137	 2
1463630685.361	 0	 0.066498	 3.073391	 -1.406693	 0.577801	 0.127558	 -0.082658	 0.072789	 0.281552	 -0.021382	 0.956542	 2
1463630685.371	 0	 0.034016	 2.519542	 -1.672676	 0.606011	 0.118961	 -0.096270	 0.071004	 0.294788	 -0.028126	 0.952506	 2
1463630685.381	 0	 0.008475	 2.143806	 -2.014862	 0.630018	 0.107902	 -0.112126	 0.068526	 0.306015	 -0.036518	 0.948855	 2
1463630685.391	 0	 0.020046	 2.016200	 -2.438544	 0.652330	 0.094077	 -0.130971	 0.065391	 0.316457	 -0.046886	 0.945188	 2
1463630685.401	 0	 0.063008	 1.924123	 -2.797871	 0.673614	 0.077744	 -0.152771	 0.061772	 0.326464	 -0.059164	 0.941332	 2
1463630685.411	 0	 0.126004	 2.066355	 -2.959092	 0.695361	 0.060056	 -0.176240	 0.058089	 0.336759	 -0.072513	 0.936996	 2
1463630685.421	 0	 0.165555	 2.456179	 -2.868417	 0.719996	 0.042377	 -0.199404	 0.054786	 0.348471	 -0.085709	 0.931784	 2
1463630685.431	 0	 0.130285	 3.098741	 -2.570112	 0.749911	 0.025667	 -0.220076	 0.052084	 0.362675	 -0.097507	 0.925336	 2
1463630685.441	 0	 0.019100	 3.864464	 -2.185804	 0.786935	 0.010200	 -0.236856	 0.049975	 0.380147	 -0.107180	 0.917335	 2
1463630685.461	 1	 -0.336975	 5.124032	 -1.709510	 0.881586	 -0.019829	 -0.258581	 0.046115	 0.424231	 -0.120795	 0.896276	 2
1463630685.471	 1	 -0.480207	 5.305233	 -1.714037	 0.934450	 -0.036057	 -0.265587	 0.043673	 0.448504	 -0.126242	 0.883742	 2
1463630685.481	 1	 -0.576449	 5.064905	 -1.746342	 0.985573	 -0.053473	 -0.270991	 0.040545	 0.471760	 -0.131498	 0.870923	 2
1463630685.491	 1	 -0.596371	 4.702148	 -1.763399	 1.033226	 -0.071567	 -0.275304	 0.036921	 0.493221	 -0.136738	 0.858296	 2
1463630685.501	 1	 -0.530432	 4.448640	 -1.787648	 1.077916	 -0.089737	 -0.279284	 0.033245	 0.513093	 -0.142134	 0.845830	 2
1463630685.511	 1	 -0.426657	 4.392035	 -1.924430	 1.121394	 -0.108561	 -0.283811	 0.029613	 0.532154	 -0.148159	 0.833057	 2
1463630685.521	 1	 -0.342353	 4.556286	 -2.120802	 1.165745	 -0.128914	 -0.289146	 0.025919	 0.551299	 -0.155116	 0.819351	 2
1463630685.531	 1	 -0.287686	 4.932847	 -2.239270	 1.213274	 -0.150610	 -0.294654	 0.022311	 0.571407	 -0.162687	 0.804071	 2
1463630685.541	 1	 -0.249354	 5.386723	 -2.263091	 1.265172	 -0.172814	 -0.299661	 0.019103	 0.592817	 -0.170389	 0.786874	 2
1463630685.551	 1	 -0.272578	 5.641214	 -2.232810	 1.320509	 -0.195095	 -0.303365	 0.016191	 0.615017	 -0.177825	 0.768030	 2
1463630685.561	 1	 -0.398297	 5.661993	 -2.204878	 1.376827	 -0.217427	 -0.304751	 0.013044	 0.636962	 -0.184658	 0.748338	 2
1463630685.571	 1	 -0.607518	 5.689920	 -2.251822	 1.434043	 -0.240349	 -0.302926	 0.009106	 0.658569	 -0.190792	 0.727876	 2
1463630685.581	 1	 -0.806915	 5.640357	 -2.420003	 1.491985	 -0.264729	 -0.297731	 0.003927	 0.679699	 -0.196556	 0.706654	 2
1463630685.591	 1	 -0.457584	 5.245080	 -2.665454	 1.547018	 -0.291060	 -0.292900	 -0.001769	 0.699006	 -0.203533	 0.685538	 2
1463630685.601	 1	 0.114491	 4.416445	 -2.738894	 1.593522	 -0.318387	 -0.292560	 -0.006714	 0.714665	 -0.212749	 0.666294	 2
1463630685.611	 1	 0.671165	 3.669098	 -2.756024	 1.630433	 -0.346131	 -0.297056	 -0.010678	 0.726581	 -0.223919	 0.649482	 2
1463630685.621	 1	 0.941608	 3.276138	 -2.714076	 1.661287	 -0.373996	 -0.304439	 -0.013920	 0.736116	 -0.236161	 0.634167	 2
1463630685.631	 1	 0.894474	 3.201082	 -2.669602	 1.690802	 -0.401599	 -0.311281	 -0.017068	 0.744852	 -0.248208	 0.619109	 2
1463630685.641	 1	 0.751215	 3.117728	 -2.635026	 1.720411	 -0.428834	 -0.315886	 -0.020574	 0.753231	 -0.259519	 0.604045	 2
1463630685.651	 1	 0.710753	 2.899903	 -2.621780	 1.748686	 -0.455889	 -0.318931	 -0.024464	 0.760817	 -0.270381	 0.589452	 2
1463630685.661	 1	 0.789305	 2.559537	 -2.591527	 1.774054	 -0.482888	 -0.321845	 -0.028490	 0.767188	 -0.281242	 0.575772	 2
1463630685.671	 1	 0.869334	 1.992312	 -2.456821	 1.793761	 -0.509110	 -0.325254	 -0.032634	 0.771670	 -0.291952	 0.564114	 2
1463630685.681	 1	 0.920063	 1.470515	 -2.229782	 1.807686	 -0.533489	 -0.329484	 -0.036552	 0.774402	 -0.302164	 0.554674	 2
1463630685.701	 2	 0.760415	 0.088064	 -1.821346	 1.816454	 -0.575548	 -0.337472	 -0.045151	 0.774576	 -0.319646	 0.543893	 2
1463630685.711	 2	 0.669563	 -0.758173	 -1.656842	 1.809212	 -0.593688	 -0.340639	 -0.050723	 0.771559	 -0.326801	 0.543438	 2
1463630685.721	 2	 0.530177	 -1.469339	 -1.513039	 1.794818	 -0.610049	 -0.343050	 -0.057272	 0.766655	 -0.332849	 0.546051	 2
1463630685.731	 2	 0.351624	 -2.177533	 -1.561771	 1.774751	 -0.625829	 -0.343785	 -0.065324	 0.760139	 -0.337944	 0.551104	 2
1463630685.741	 2	 0.087431	 -2.857487	 -1.710741	 1.748721	 -0.642613	 -0.341792	 -0.075849	 0.751724	 -0.342248	 0.558591	 2
1463630685.751	 2	 -0.208419	 -3.136334	 -1.708628	 1.721058	 -0.659343	 -0.336564	 -0.087954	 0.742579	 -0.345310	 0.567099	 2
1463630685.761	 2	 -0.420046	 -3.303975	 -1.591112	 1.693075	 -0.674929	 -0.329060	 -0.100658	 0.733133	 -0.347041	 0.576148	 2
1463630685.771	 2	 -0.555554	 -3.438514	 -1.424925	 1.664525	 -0.688959	 -0.320265	 -0.113458	 0.723360	 -0.347560	 0.585730	 2
1463630685.781	 2	 -0.607990	 -3.396614	 -1.241833	 1.636173	 -0.701323	 -0.311130	 -0.125802	 0.713533	 -0.347159	 0.595420	 2
1463630685.791	 2	 -0.585632	 -3.140875	 -1.021167	 1.609596	 -0.711811	 -0.302580	 -0.136988	 0.704216	 -0.346184	 0.604542	 2
1463630685.801	 2	 -0.493682	 -2.903910	 -0.721349	 1.584830	 -0.719643	 -0.295332	 -0.146479	 0.695572	 -0.344678	 0.613123	 2
1463630685.821	 3	 -0.047793	 -3.054413	 -0.321642	 1.529308	 -0.728346	 -0.290019	 -0.160851	 0.677237	 -0.341426	 0.631589	 2
1463630685.831	 3	 -0.209176	 -3.338919	 -0.312227	 1.497627	 -0.731488	 -0.288423	 -0.167890	 0.666792	 -0.339252	 0.641957	 2
1463630685.841	 3	 -1.191843	 -2.853072	 -0.300216	 1.474550	 -0.735399	 -0.277184	 -0.176899	 0.658084	 -0.334780	 0.650810	 2
1463630685.851	 3	 -3.159936	 -1.564564	 -0.003584	 1.479921	 -0.738739	 -0.241374	 -0.188976	 0.656309	 -0.324569	 0.654371	 2
1463630685.861	 3	 -3.922605	 -1.331976	 0.080890	 1.501811	 -0.741066	 -0.189431	 -0.203395	 0.658182	 -0.310410	 0.655036	 2
1463630685.871	 3	 -3.292090	 -1.792512	 0.043405	 1.517285	 -0.742634	 -0.141896	 -0.217235	 0.658109	 -0.296928	 0.656913	 2
1463630685.881	 3	 -2.171330	 -2.150391	 -0.013380	 1.519350	 -0.743909	 -0.108478	 -0.228344	 0.654935	 -0.286545	 0.660917	 2
1463630685.891	 3	 -0.959866	 -2.554943	 -0.015969	 1.506197	 -0.744822	 -0.091431	 -0.236075	 0.648489	 -0.279642	 0.667481	 2
1463630685.901	 3	 -0.024346	 -2.456269	 0.035421	 1.483181	 -0.744783	 -0.088200	 -0.240299	 0.640382	 -0.275804	 0.675352	 2
1463630685.911	 3	 0.597444	 -1.504245	 0.152903	 1.460807	 -0.743207	 -0.094297	 -0.240883	 0.633691	 -0.274699	 0.681874	 2
1463630685.921	 3	 0.905900	 0.055268	 0.459945	 1.450295	 -0.738554	 -0.105191	 -0.237238	 0.631881	 -0.275754	 0.684401	 2
1463630685.931	 3	 0.929538	 0.851829	 0.897719	 1.450118	 -0.729576	 -0.116335	 -0.230546	 0.634017	 -0.276838	 0.684274	 2
1463630685.941	 3	 1.009851	 0.999552	 1.060390	 1.452148	 -0.718025	 -0.127646	 -0.222554	 0.637101	 -0.277453	 0.683807	 2
1463630685.951	 3	 1.204123	 1.384843	 0.882170	 1.456044	 -0.707326	 -0.141347	 -0.213813	 0.640912	 -0.279326	 0.682270	 2
1463630685.961	 3	 1.231902	 1.435608	 0.560541	 1.460758	 -0.699505	 -0.156649	 -0.205436	 0.644812	 -0.282666	 0.679789	 2
1463630685.971	 3	 0.841714	 1.151160	 0.192537	 1.465197	 -0.695624	 -0.168747	 -0.199506	 0.647874	 -0.286046	 0.677225	 2
1463630685.981	 3	 0.421792	 1.160046	 -0.218305	 1.472235	 -0.696211	 -0.175390	 -0.196547	 0.650860	 -0.289164	 0.673895	 2
1463630685.991	 3	 0.488551	 1.220324	 -0.678735	 1.480241	 -0.701434	 -0.181901	 -0.195118	 0.653749	 -0.293721	 0.669529	 2
1463630686.001	 3	 0.852713	 1.112510	 -1.025019	 1.484693	 -0.710201	 -0.192748	 -0.194023	 0.655555	 -0.300433	 0.665088	 2
1463630686.011	 3	 1.341845	 0.962354	 -1.292852	 1.483125	 -0.721366	 -0.210295	 -0.192477	 0.655804	 -0.309470	 0.661137	 2
1463630686.021	 3	 1.658439	 0.891357	 -1.568039	 1.476790	 -0.734848	 -0.233401	 -0.190707	 0.654835	 -0.320505	 0.657342	 2
1463630686.031	 3	 1.738207	 0.821209	 -1.821972	 1.467859	 -0.750681	 -0.259124	 -0.189416	 0.653110	 -0.332739	 0.653340	 2
1463630686.041	 3	 1.723307	 0.515865	 -1.986679	 1.455623	 -0.768193	 -0.285735	 -0.189112	 0.650318	 -0.345300	 0.649685	 2
1463630686.051	 3	 1.620313	 0.090558	 -2.155999	 1.438849	 -0.787076	 -0.312450	 -0.190230	 0.646046	 -0.357690	 0.646912	 2
1463630686.061	 3	 1.323130	 -0.290882	 -2.367982	 1.419276	 -0.808029	 -0.337074	 -0.193495	 0.640637	 -0.369510	 0.644676	 2
1463630686.071	 3	 0.893581	 -0.727891	 -2.522844	 1.398183	 -0.830962	 -0.357501	 -0.199343	 0.634323	 -0.380121	 0.642965	 2
1463630686.081	 3	 0.466289	 -1.182610	 -2.625668	 1.375892	 -0.855501	 -0.373045	 -0.207777	 0.627152	 -0.389182	 0.641909	 2
1463630686.091	 3	 0.112943	 -1.593745	 -2.702086	 1.352166	 -0.881368	 -0.384545	 -0.218448	 0.619111	 -0.396812	 0.641500	 2
1463630686.101	 3	 -0.158837	 -1.695486	 -2.761415	 1.328464	 -0.908335	 -0.393044	 -0.230624	 0.610750	 -0.403402	 0.641143	 2
1463630686.111	 3	 -0.385975	 -1.640736	 -2.783441	 1.307187	 -0.936083	 -0.399287	 -0.243429	 0.602902	 -0.409378	 0.640048	 2
1463630686.121	 3	 -0.614697	 -1.745093	 -2.746185	 1.286888	 -0.964145	 -0.402897	 -0.257045	 0.595046	 -0.414359	 0.638870	 2
1463630686.131	 3	 -0.793584	 -1.477232	 -2.695241	 1.270349	 -0.992232	 -0.403998	 -0.270700	 0.588053	 -0.418713	 0.636863	 2
1463630686.141	 3	 -0.922349	 -0.989363	 -2.645884	 1.260021	 -1.020262	 -0.403011	 -0.283664	 0.582706	 -0.422989	 0.633300	 2
1463630686.151	 3	 -0.926269	 -0.503996	 -2.597637	 1.255312	 -1.047977	 -0.401350	 -0.295498	 0.578979	 -0.427619	 0.628177	 2
1463630686.161	 3	 -0.711827	 -0.134945	 -2.514006	 1.252176	 -1.074515	 -0.402351	 -0.305752	 0.576139	 -0.432954	 0.622198	 2
1463630686.171	 3	 -0.214250	 0.217013	 -2.326423	 1.245600	 -1.098253	 -0.411335	 -0.313401	 0.573646	 -0.439529	 0.616055	 2
1463630686.181	 3	 0.462794	 0.230457	 -1.959176	 1.229205	 -1.116779	 -0.432497	 -0.317850	 0.570537	 -0.447072	 0.611216	 2
1463630686.191	 3	 1.120038	 -0.138671	 -1.554818	 1.198122	 -1.128871	 -0.466688	 -0.319654	 0.565650	 -0.454806	 0.609108	 2
1463630686.201	 3	 1.457801	 -0.903731	 -1.316555	 1.152469	 -1.136034	 -0.509559	 -0.320769	 0.558171	 -0.461805	 0.610154	 2
1463630686.211	 3	 1.245157	 -1.849864	 -1.336297	 1.097857	 -1.142170	 -0.551812	 -0.324105	 0.547994	 -0.466893	 0.613734	 2
1463630686.221	 3	 0.570162	 -2.433606	 -1.584175	 1.043749	 -1.151790	 -0.585700	 -0.331297	 0.536584	 -0.469811	 0.617736	 2
1463630686.231	 3	 -0.261420	 -2.417760	 -1.934883	 0.998157	 -1.167831	 -0.608628	 -0.342159	 0.526007	 -0.471234	 0.619824	 2
1463630686.241	 3	 -0.771537	 -1.944043	 -2.230841	 0.961675	 -1.189583	 -0.625553	 -0.354818	 0.517370	 -0.472553	 0.618972	 2
1463630686.271	 5	 0.288373	 -1.044260	 -1.367364	 0.844254	 -1.241078	 -0.710556	 -0.381361	 0.497014	 -0.481511	 0.612934	 2
1463630686.281	 5	 0.758265	 -0.468900	 -0.891837	 0.803879	 -1.243966	 -0.746448	 -0.383371	 0.491567	 -0.484961	 0.613353	 2
1463630686.291	 5	 0.951336	 0.225659	 -0.664311	 0.770711	 -1.242436	 -0.782219	 -0.382093	 0.488185	 -0.489515	 0.613233	 2
1463630686.301	 5	 0.833267	 0.527066	 -0.656215	 0.744000	 -1.240488	 -0.815454	 -0.379808	 0.486239	 -0.494544	 0.612163	 2
1463630686.311	 5	 0.468422	 0.626431	 -0.741638	 0.723333	 -1.241059	 -0.843713	 -0.378302	 0.485313	 -0.499275	 0.609986	 2
1463630686.321	 5	 0.046543	 0.586965	 -0.780962	 0.709332	 -1.245054	 -0.864940	 -0.378213	 0.485328	 -0.503151	 0.606837	 2
1463630686.331	 5	 -0.214861	 0.325428	 -0.724634	 0.699610	 -1.251117	 -0.879450	 -0.379494	 0.485555	 -0.505768	 0.603671	 2
1463630686.341	 5	 -0.234009	 -0.010619	 -0.578388	 0.690470	 -1.256965	 -0.889759	 -0.381569	 0.485188	 -0.507173	 0.601476	 2
1463630686.351	 5	 -0.083220	 -0.116986	 -0.371801	 0.681787	 -1.260631	 -0.897807	 -0.383237	 0.484394	 -0.507942	 0.600406	 2
1463630686.361	 5	 0.047490	 -0.126978	 -0.230220	 0.673772	 -1.262081	 -0.904860	 -0.384126	 0.483454	 -0.508520	 0.600106	 2
1463630686.371	 5	 0.055899	 0.034986	 -0.186156	 0.667646	 -1.262792	 -0.911075	 -0.384457	 0.482867	 -0.509206	 0.599785	 2
1463630686.381	 5	 -0.060873	 0.164041	 -0.183938	 0.664992	 -1.264113	 -0.915395	 -0.384599	 0.483010	 -0.509984	 0.598917	 2
1463630686.391	 5	 -0.283868	 -0.087082	 -0.142769	 0.665556	 -1.266819	 -0.914870	 -0.385623	 0.483299	 -0.509921	 0.598079	 2
1463630686.411	 6	 -0.704318	 -0.778123	 -0.124353	 0.669848	 -1.277387	 -0.897268	 -0.392842	 0.481990	 -0.505446	 0.598235	 2
1463630686.421	 6	 -0.730201	 -0.386611	 -0.120485	 0.676856	 -1.283886	 -0.884734	 -0.396592	 0.482092	 -0.503069	 0.597682	 2
1463630686.431	 6	 -0.587158	 0.011304	 -0.045556	 0.687912	 -1.289267	 -0.872408	 -0.398855	 0.483316	 -0.501593	 0.596426	 2
1463630686.441	 6	 -0.177981	 0.203727	 0.107208	 0.697905	 -1.291154	 -0.863692	 -0.399184	 0.484678	 -0.500997	 0.595601	 2
1463630686.451	 6	 0.407839	 0.744461	 0.255280	 0.703533	 -1.287736	 -0.863681	 -0.396463	 0.486135	 -0.502091	 0.595310	 2
1463630686.461	 6	 0.921464	 1.766591	 0.462814	 0.711221	 -1.279064	 -0.871341	 -0.389323	 0.489372	 -0.505811	 0.594220	 2
1463630686.471	 6	 1.325749	 2.714165	 0.905074	 0.728829	 -1.264648	 -0.878944	 -0.377420	 0.495120	 -0.511290	 0.592447	 2
1463630686.481	 6	 1.578437	 3.595645	 1.411984	 0.759996	 -1.244705	 -0.881689	 -0.361007	 0.503563	 -0.517522	 0.590143	 2
1463630686.492	 6	 1.883556	 4.203397	 1.741106	 0.798716	 -1.220124	 -0.883852	 -0.340830	 0.513816	 -0.524315	 0.587300	 2
1463630686.501	 6	 2.249896	 4.459997	 1.779737	 0.833644	 -1.192335	 -0.893693	 -0.318225	 0.523976	 -0.531961	 0.584123	 2
1463630686.511	 6	 2.345628	 4.518201	 1.631305	 0.863088	 -1.164261	 -0.910713	 -0.294861	 0.533408	 -0.540205	 0.580268	 2
1463630686.522	 6	 2.244566	 4.312737	 1.418186	 0.888822	 -1.138427	 -0.930446	 -0.272437	 0.541957	 -0.548270	 0.575726	 2
1463630686.531	 6	 2.129781	 4.091770	 1.261528	 0.911523	 -1.114815	 -0.951122	 -0.251273	 0.549543	 -0.555871	 0.570852	 2
1463630686.541	 6	 1.657082	 3.989033	 1.130402	 0.936930	 -1.094632	 -0.967666	 -0.231680	 0.557302	 -0.562427	 0.565168	 2
1463630686.552	 6	 0.941529	 3.875188	 1.129178	 0.970913	 -1.079097	 -0.973249	 -0.214433	 0.566348	 -0.566750	 0.558626	 2
1463630686.562	 6	 0.754766	 3.832315	 1.448002	 1.011326	 -1.063724	 -0.970990	 -0.197590	 0.576272	 -0.569119	 0.552243	 2
1463630686.572	 6	 1.177314	 3.839079	 1.964478	 1.050401	 -1.042591	 -0.970136	 -0.178450	 0.585542	 -0.570730	 0.547324	 2
1463630686.582	 6	 1.675025	 3.801288	 2.380769	 1.084235	 -1.015093	 -0.975280	 -0.156547	 0.593428	 -0.572306	 0.543876	 2
1463630686.592	 6	 1.877319	 3.635173	 2.729163	 1.114110	 -0.983143	 -0.983548	 -0.133091	 0.600039	 -0.573320	 0.541798	 2
1463630686.602	 6	 1.787287	 3.462674	 3.105622	 1.143842	 -0.948157	 -0.989948	 -0.109055	 0.606102	 -0.572802	 0.540968	 2
1463630686.612	 6	 1.556283	 3.447345	 3.538059	 1.176632	 -0.910295	 -0.991908	 -0.084424	 0.612427	 -0.570130	 0.541071	 2
1463630686.622	 6	 1.292183	 3.602744	 4.033121	 1.214289	 -0.868956	 -0.989239	 -0.058610	 0.619599	 -0.565010	 0.541689	 2
1463630686.632	 6	 1.021812	 3.840651	 4.462927	 1.256679	 -0.824114	 -0.983058	 -0.031438	 0.627759	 -0.557412	 0.542422	 2
1463630686.642	 6	 0.720624	 4.111747	 4.617280	 1.302811	 -0.777847	 -0.975072	 -0.003601	 0.636919	 -0.547826	 0.542410	 2
1463630686.652	 6	 0.482251	 4.326675	 4.531830	 1.351248	 -0.732175	 -0.967025	 0.024164	 0.646861	 -0.536928	 0.541013	 2
1463630686.662	 6	 0.305427	 4.111072	 4.063494	 1.397363	 -0.690288	 -0.960695	 0.049949	 0.656487	 -0.525942	 0.538437	 2
1463630686.672	 6	 0.084192	 3.378220	 3.237964	 1.436309	 -0.655803	 -0.955790	 0.071151	 0.664683	 -0.516042	 0.535570	 2
1463630686.692	 7	 -1.111949	 0.611058	 1.191287	 1.483146	 -0.618334	 -0.936039	 0.090021	 0.675449	 -0.500302	 0.534194	 2
1463630686.702	 7	 -1.995280	 -0.993284	 0.483843	 1.490025	 -0.613453	 -0.913778	 0.085953	 0.677957	 -0.492863	 0.538583	 2
1463630686.712	 7	 -2.748171	 -2.107737	 0.062249	 1.489301	 -0.613989	 -0.882157	 0.074856	 0.679064	 -0.484445	 0.546426	 2
1463630686.722	 7	 -3.071873	 -2.127287	 -0.270830	 1.488590	 -0.618341	 -0.845386	 0.060615	 0.680346	 -0.475421	 0.554463	 2
1463630686.732	 7	 -2.926176	 -0.880794	 -0.806170	 1.496750	 -0.627209	 -0.809491	 0.047087	 0.683984	 -0.467441	 0.558075	 2
1463630686.752	 8	 -2.086876	 3.362770	 -1.965512	 1.570032	 -0.660966	 -0.749362	 0.031067	 0.706210	 -0.458330	 0.538735	 2
1463630686.762	 8	 -0.989476	 4.262329	 -2.143612	 1.622004	 -0.681935	 -0.731965	 0.029439	 0.720418	 -0.458675	 0.519373	 2
1463630686.772	 8	 0.533210	 4.015040	 -1.894862	 1.663370	 -0.701815	 -0.731976	 0.032149	 0.730934	 -0.463612	 0.499767	 2
1463630686.782	 8	 1.994552	 3.076647	 -1.491079	 1.683969	 -0.719349	 -0.751437	 0.038155	 0.735540	 -0.472982	 0.483542	 2
1463630686.792	 8	 2.916115	 2.336346	 -1.269392	 1.685973	 -0.735482	 -0.785710	 0.045783	 0.735195	 -0.485616	 0.470711	 2
1463630686.802	 8	 3.216708	 2.255747	 -1.262102	 1.680671	 -0.751480	 -0.826646	 0.054084	 0.732895	 -0.499613	 0.458613	 2
1463630686.812	 8	 3.177395	 2.609258	 -1.370375	 1.676894	 -0.768270	 -0.868500	 0.062744	 0.730849	 -0.513614	 0.445111	 2
1463630686.822	 8	 3.006068	 2.969002	 -1.406035	 1.677267	 -0.785508	 -0.909050	 0.071788	 0.729667	 -0.526890	 0.429906	 2
1463630686.832	 8	 2.790090	 3.598791	 -1.181944	 1.684145	 -0.801030	 -0.947240	 0.082285	 0.729786	 -0.538547	 0.413048	 2
1463630686.842	 8	 2.744594	 4.743789	 -0.830915	 1.701349	 -0.813517	 -0.985161	 0.096594	 0.731699	 -0.548472	 0.393019	 2
1463630686.862	 8	 0.777984	 4.272016	 0.051480	 1.765387	 -0.823465	 -1.039383	 0.130951	 0.740652	 -0.557347	 0.351640	 2
1463630686.872	 9	 -0.274368	 3.345494	 0.049889	 1.801076	 -0.822743	 -1.038103	 0.140632	 0.746895	 -0.554525	 0.338929	 2
1463630686.882	 9	 -0.142466	 2.470671	 0.175952	 1.831020	 -0.820893	 -1.035215	 0.148427	 0.752098	 -0.551410	 0.329035	 2
1463630686.892	 9	 0.743433	 0.439817	 0.475464	 1.834461	 -0.818433	 -1.043778	 0.153385	 0.752012	 -0.551924	 0.326082	 2
1463630686.902	 9	 1.263036	 -0.606217	 0.615742	 1.815891	 -0.815542	 -1.062849	 0.156322	 0.747481	 -0.555753	 0.328594	 2
1463630686.912	 9	 1.091935	 -0.443085	 0.601697	 1.797292	 -0.812453	 -1.081258	 0.158995	 0.742926	 -0.559492	 0.331286	 2
1463630686.922	 9	 0.813974	 -0.030325	 0.793401	 1.785260	 -0.807239	 -1.096112	 0.162825	 0.739643	 -0.561659	 0.333100	 2
1463630686.942	 10	 0.190126	 0.239807	 1.124272	 1.775859	 -0.788382	 -1.114034	 0.172946	 0.736117	 -0.560912	 0.337044	 2
1463630686.952	 10	 -0.060442	 0.334784	 1.066589	 1.776714	 -0.777694	 -1.117181	 0.177824	 0.735678	 -0.558799	 0.338969	 2
1463630686.962	 10	 -0.292219	 0.479563	 0.844013	 1.781588	 -0.768331	 -1.116604	 0.182013	 0.736273	 -0.555994	 0.340063	 2
1463630686.972	 10	 -0.500597	 0.455583	 0.533336	 1.789344	 -0.761349	 -1.112278	 0.184829	 0.737776	 -0.552838	 0.340432	 2
1463630686.982	 10	 -0.630462	 0.174471	 0.143913	 1.796975	 -0.757641	 -1.104963	 0.185428	 0.739643	 -0.549969	 0.340703	 2
1463630686.992	 10	 -0.797140	 -0.301520	 -0.146821	 1.802355	 -0.756801	 -1.094617	 0.183344	 0.741492	 -0.547497	 0.341791	 2
1463630687.002	 10	 -1.030853	 -0.719134	 -0.188105	 1.805316	 -0.756424	 -1.081068	 0.179244	 0.743219	 -0.544809	 0.344500	 2
1463630687.012	 10	 -1.284429	 -0.717647	 -0.085702	 1.809209	 -0.754689	 -1.064395	 0.174654	 0.745329	 -0.541134	 0.348072	 2
1463630687.022	 10	 -1.446029	 -0.270359	 0.074403	 1.818121	 -0.750986	 -1.045622	 0.171230	 0.748439	 -0.536123	 0.350845	 2
1463630687.032	 10	 -1.212928	 0.113284	 0.270978	 1.829606	 -0.745575	 -1.029182	 0.169854	 0.751775	 -0.530824	 0.352435	 2
1463630687.042	 10	 -0.570488	 0.260979	 0.363743	 1.837592	 -0.740246	 -1.020645	 0.170446	 0.753838	 -0.527209	 0.353166	 2
1463630687.052	 10	 -0.115799	 0.543273	 0.314452	 1.843347	 -0.736462	 -1.019286	 0.172646	 0.754922	 -0.525453	 0.352399	 2
1463630687.062	 10	 -0.007942	 0.623402	 -0.032115	 1.849620	 -0.735829	 -1.019165	 0.174447	 0.756027	 -0.524715	 0.350237	 2
1463630687.072	 10	 -0.023120	 0.540937	 -0.262955	 1.855812	 -0.737903	 -1.018249	 0.175072	 0.757210	 -0.524580	 0.347561	 2
1463630687.082	 10	 -0.156541	 0.585570	 -0.322126	 1.863418	 -0.740567	 -1.015420	 0.175157	 0.758799	 -0.524154	 0.344684	 2
1463630687.092	 10	 -0.203385	 0.595400	 -0.305640	 1.871933	 -0.742993	 -1.011634	 0.175190	 0.760609	 -0.523426	 0.341772	 2
1463630687.102	 10	 -0.217362	 0.542528	 -0.268709	 1.880262	 -0.744973	 -1.007698	 0.175251	 0.762381	 -0.522574	 0.339084	 2
1463630687.112	 10	 -0.185270	 0.370862	 -0.314282	 1.886928	 -0.747204	 -1.003961	 0.174872	 0.763841	 -0.521980	 0.336902	 2
1463630687.122	 10	 -0.203808	 0.152089	 -0.422733	 1.891676	 -0.750272	 -0.999831	 0.173581	 0.765002	 -0.521729	 0.335320	 2
1463630687.132	 10	 -0.362000	 -0.850926	 -0.637446	 1.891585	 -0.754898	 -0.993122	 0.169555	 0.765558	 -0.521906	 0.335835	 2
1463630687.142	 10	 -0.494108	 -2.538949	 -0.994114	 1.876772	 -0.762131	 -0.982831	 0.159495	 0.763877	 -0.523399	 0.342207	 2
1463630687.152	 10	 -0.229406	 -2.657575	 -1.111559	 1.855453	 -0.771491	 -0.974516	 0.147790	 0.760800	 -0.526186	 0.349957	 2
1463630687.162	 10	 0.019657	 -2.756334	 -1.429046	 1.832315	 -0.784322	 -0.968861	 0.135455	 0.757074	 -0.530322	 0.356722	 2
1463630687.172	 10	 0.312291	 -2.696496	 -1.712398	 1.806852	 -0.800851	 -0.966287	 0.122381	 0.752609	 -0.535917	 0.362485	 2
1463630687.182	 10	 0.610733	 -2.076222	 -2.005507	 1.782869	 -0.820908	 -0.967904	 0.109994	 0.748085	 -0.542835	 0.365514	 2
1463630687.192	 10	 0.762041	 -0.887244	 -2.402882	 1.768221	 -0.844788	 -0.971484	 0.099484	 0.745126	 -0.550328	 0.363359	 2
1463630687.202	 10	 1.001287	 0.127554	 -3.023256	 1.763023	 -0.874636	 -0.977138	 0.090286	 0.743710	 -0.559003	 0.355330	 2
1463630687.212	 10	 1.638937	 -0.099342	 -3.692757	 1.754727	 -0.911959	 -0.988705	 0.079847	 0.741356	 -0.570386	 0.344494	 2
1463630687.222	 10	 2.735266	 -1.404076	 -3.939320	 1.719148	 -0.954760	 -1.019314	 0.066481	 0.733677	 -0.586694	 0.336285	 2
1463630687.232	 10	 2.840147	 -2.868388	 -4.005015	 1.659855	 -0.997612	 -1.061597	 0.049574	 0.722260	 -0.604450	 0.332450	 2
1463630687.242	 10	 1.979836	 -5.287354	 -4.396248	 1.580109	 -1.041531	 -1.100258	 0.023650	 0.708373	 -0.620474	 0.335649	 2
1463630687.252	 10	 0.927057	 -6.551577	 -4.911477	 1.492635	 -1.088925	 -1.127917	 -0.010952	 0.694109	 -0.632913	 0.342804	 2
1463630687.262	 10	 0.221155	 -6.851494	 -5.486831	 1.403653	 -1.141465	 -1.151215	 -0.050352	 0.680322	 -0.642399	 0.349213	 2
1463630687.272	 10	 -0.305916	 -6.856789	 -5.989594	 1.309310	 -1.199340	 -1.178979	 -0.092691	 0.666702	 -0.649696	 0.353289	 2
1463630687.282	 10	 -0.476561	 -5.829713	 -6.109640	 1.207286	 -1.258871	 -1.221189	 -0.133988	 0.653826	 -0.655353	 0.353654	 2
1463630687.292	 10	 0.114884	 -2.173784	 -5.829250	 1.095211	 -1.313032	 -1.306435	 -0.163188	 0.644214	 -0.663374	 0.343938	 2
1463630687.302	 10	 0.621320	 -0.135450	 -5.415031	 0.951785	 -1.357587	 -1.448231	 -0.181834	 0.636827	 -0.673796	 0.327698	 2
1463630687.312	 10	 0.886136	 0.973417	 -5.080895	 0.756659	 -1.391202	 -1.654569	 -0.194377	 0.630296	 -0.685340	 0.308631	 2
1463630687.322	 10	 1.203022	 1.344981	 -4.463120	 0.512472	 -1.410006	 -1.915394	 -0.202841	 0.623770	 -0.697064	 0.289600	 2
1463630687.332	 10	 1.581166	 1.614685	 -3.346985	 0.283923	 -1.410376	 -2.162438	 -0.206658	 0.616947	 -0.708404	 0.273556	 2
1463630687.342	 10	 1.962879	 1.820724	 -2.062016	 0.140509	 -1.397016	 -2.325848	 -0.205104	 0.610189	 -0.719153	 0.261573	 2
1463630687.352	 10	 2.190185	 2.028331	 -1.502538	 0.064112	 -1.377247	 -2.423573	 -0.199989	 0.603349	 -0.729680	 0.252075	 2
1463630687.362	 10	 2.204044	 2.185386	 -1.693034	 0.003370	 -1.355623	 -2.507732	 -0.194186	 0.596267	 -0.740481	 0.241755	 2
1463630687.372	 10	 1.888901	 1.793610	 -1.577768	 -0.046668	 -1.335384	 -2.578792	 -0.189500	 0.589572	 -0.750150	 0.231885	 2
1463630687.382	 10	 1.327487	 1.338678	 -1.324527	 -0.083998	 -1.319726	 -2.631984	 -0.186478	 0.584332	 -0.757405	 0.223875	 2
1463630687.392	 10	 0.746797	 1.432729	 -1.203494	 -0.113599	 -1.309703	 -2.676799	 -0.183858	 0.581343	 -0.762609	 0.216019	 2
1463630687.402	 10	 0.362013	 1.864574	 -1.063018	 -0.134501	 -1.303946	 -2.716547	 -0.179906	 0.580498	 -0.766648	 0.207141	 2
1463630687.412	 10	 0.197910	 2.284837	 -0.963891	 -0.146661	 -1.300309	 -2.751897	 -0.174098	 0.580968	 -0.770243	 0.197212	 2
1463630687.422	 10	 0.173648	 2.410908	 -1.042439	 -0.157395	 -1.297102	 -2.788041	 -0.167572	 0.581761	 -0.773761	 0.186464	 2
1463630687.432	 10	 0.225111	 2.174272	 -1.239058	 -0.175176	 -1.293076	 -2.829872	 -0.162131	 0.582005	 -0.777296	 0.175485	 2
1463630687.442	 10	 0.321220	 1.827522	 -1.348632	 -0.199382	 -1.287662	 -2.874979	 -0.158281	 0.581404	 -0.780830	 0.164987	 2
1463630687.452	 10	 0.285230	 1.546953	 -1.478820	 -0.229161	 -1.281543	 -2.922678	 -0.155979	 0.580328	 -0.784146	 0.154935	 2
1463630687.462	 10	 -0.181065	 1.964604	 -1.421849	 -0.258732	 -1.278344	 -2.972165	 -0.153219	 0.580664	 -0.786518	 0.144022	 2
1463630687.472	 10	 -0.970329	 3.744222	 -1.273723	 -0.274566	 -1.282761	 -3.023584	 -0.144415	 0.585175	 -0.787522	 0.128543	 2
1463630687.482	 10	 -0.889159	 3.458506	 -1.186499	 -0.286343	 -1.288604	 -3.074382	 -0.133988	 0.590326	 -0.788013	 0.112241	 2
1463630687.492	 10	 -0.403168	 1.370451	 -1.016191	 -0.307689	 -1.290541	 -3.116632	 -0.129835	 0.592737	 -0.788289	 0.102006	 2
1463630687.502	 10	 -0.119121	 -0.142224	 -0.785483	 -0.335799	 -1.289456	 3.135738	 -0.131831	 0.592918	 -0.788315	 0.098124	 2
1463630687.512	 10	 -0.122908	 -0.432207	 -0.587786	 -0.361785	 -1.288342	 3.112966	 -0.135384	 0.592736	 -0.788017	 0.096772	 2
1463630687.522	 10	 -0.180239	 -0.510589	 -0.419625	 -0.383452	 -1.288200	 3.095313	 -0.138694	 0.592844	 -0.787426	 0.096230	 2
1463630687.532	 10	 -0.299992	 -0.998716	 -0.165210	 -0.402958	 -1.289711	 3.083890	 -0.142877	 0.593293	 -0.786164	 0.097650	 2
1463630687.542	 10	 -0.637937	 -1.609414	 0.112345	 -0.423685	 -1.294796	 3.077544	 -0.148751	 0.594698	 -0.783485	 0.101777	 2
1463630687.552	 10	 -1.203046	 -1.926211	 0.345588	 -0.448852	 -1.305596	 3.070929	 -0.155760	 0.598054	 -0.778757	 0.107736	 2
1463630687.562	 10	 -1.800127	 -1.700114	 0.481847	 -0.479659	 -1.322415	 3.057556	 -0.162255	 0.603843	 -0.772112	 0.113531	 2
1463630687.572	 10	 -2.247653	 -1.239197	 0.645634	 -0.513918	 -1.344124	 3.036189	 -0.166879	 0.611799	 -0.764131	 0.118140	 2
1463630687.582	 10	 -2.576980	 -0.989994	 0.996127	 -0.546116	 -1.370306	 3.013792	 -0.169480	 0.621438	 -0.755010	 0.122687	 2
1463630687.592	 10	 -2.934879	 -0.930787	 1.095713	 -0.588654	 -1.400003	 2.980129	 -0.171436	 0.632401	 -0.744638	 0.127249	 2
1463630687.602	 10	 -3.299235	 -0.692569	 1.237520	 -0.653837	 -1.433163	 2.921981	 -0.172524	 0.644813	 -0.732931	 0.131392	 2
1463630687.612	 10	 -3.529558	 -0.218432	 1.258858	 -0.765829	 -1.467868	 2.812660	 -0.171969	 0.658329	 -0.720448	 0.134106	 2
1463630687.622	 10	 -3.593796	 0.277702	 1.154260	 -0.996156	 -1.500015	 2.579924	 -0.169890	 0.672248	 -0.707860	 0.134737	 2
1463630687.632	 10	 -3.528793	 0.716723	 1.146056	 -1.501709	 -1.522764	 2.067433	 -0.166275	 0.686072	 -0.695551	 0.133664	 2
1463630687.642	 10	 -3.320242	 0.962289	 1.505687	 -2.292597	 -1.525245	 1.266616	 -0.160573	 0.699471	 -0.683664	 0.132512	 2
1463630687.652	 10	 -3.019094	 1.173222	 2.113578	 -2.897489	 -1.508161	 0.649697	 -0.151917	 0.712243	 -0.672309	 0.132779	 2
1463630687.662	 10	 -2.608880	 1.295817	 2.610990	 3.041411	 -1.482404	 0.291635	 -0.140495	 0.724002	 -0.661805	 0.134523	 2
1463630687.672	 10	 -1.988585	 1.097302	 2.913879	 2.823570	 -1.455239	 0.060948	 -0.127730	 0.733788	 -0.652796	 0.138198	 2
1463630687.682	 10	 -1.303643	 0.729232	 3.035579	 2.660569	 -1.429849	 -0.111716	 -0.114965	 0.740981	 -0.645740	 0.144049	 2
1463630687.692	 10	 -0.722219	 0.320507	 2.936123	 2.528271	 -1.407000	 -0.249842	 -0.103177	 0.745672	 -0.640588	 0.151572	 2
1463630687.702	 10	 -0.347834	 0.048402	 2.672417	 2.421464	 -1.386636	 -0.359283	 -0.092937	 0.748459	 -0.636905	 0.159762	 2
1463630687.712	 10	 -0.205039	 0.064653	 2.331347	 2.340559	 -1.368333	 -0.442136	 -0.083951	 0.750284	 -0.634097	 0.167176	 2
1463630687.722	 10	 -0.358930	 0.235535	 2.073165	 2.285573	 -1.350602	 -0.500277	 -0.075613	 0.752239	 -0.631234	 0.173095	 2
1463630687.732	 10	 -0.732291	 0.571001	 1.981487	 2.256378	 -1.331295	 -0.535170	 -0.067171	 0.755369	 -0.627266	 0.177322	 2
1463630687.742	 10	 -1.028547	 1.004625	 2.109599	 2.243883	 -1.309117	 -0.557265	 -0.057413	 0.759830	 -0.622031	 0.180110	 2
1463630687.752	 10	 -1.093541	 1.360024	 2.250955	 2.238141	 -1.284932	 -0.576521	 -0.045984	 0.764949	 -0.616183	 0.181816	 2
1463630687.762	 10	 -0.990935	 1.554919	 2.327544	 2.233092	 -1.260442	 -0.597684	 -0.033392	 0.769924	 -0.610458	 0.182875	 2
1463630687.772	 10	 -0.846846	 1.556646	 2.330569	 2.226848	 -1.236585	 -0.620823	 -0.020414	 0.774358	 -0.605125	 0.183788	 2
1463630687.782	 10	 -0.744697	 1.364057	 2.214916	 2.220029	 -1.214025	 -0.643178	 -0.008098	 0.778144	 -0.600167	 0.185001	 2
1463630687.792	 10	 -0.640323	 1.090603	 1.949286	 2.213834	 -1.193838	 -0.662266	 0.002646	 0.781251	 -0.595696	 0.186512	 2
1463630687.802	 10	 -0.467958	 0.857515	 1.557678	 2.208691	 -1.177463	 -0.677627	 0.011349	 0.783576	 -0.592094	 0.187895	 2
1463630687.812	 10	 -0.218314	 0.678785	 1.212798	 2.203213	 -1.165357	 -0.691452	 0.018297	 0.785007	 -0.589703	 0.188892	 2
1463630687.822	 10	 0.064936	 0.535705	 0.957480	 2.195218	 -1.157115	 -0.706333	 0.023944	 0.785450	 -0.588662	 0.189662	 2
1463630687.832	 10	 0.334969	 0.444471	 0.806139	 2.184011	 -1.151896	 -0.723690	 0.028840	 0.784992	 -0.588866	 0.190244	 2
1463630687.842	 10	 0.515515	 0.586654	 0.685459	 2.171470	 -1.148658	 -0.743369	 0.033731	 0.783994	 -0.589957	 0.190176	 2
1463630687.862	 11	 0.663565	 0.766019	 0.399149	 2.151058	 -1.147526	 -0.781562	 0.042948	 0.781504	 -0.593616	 0.187154	 2
1463630687.872	 11	 0.683887	 0.906290	 0.243610	 2.143615	 -1.148836	 -0.799260	 0.047282	 0.780226	 -0.595808	 0.184455	 2
1463630687.882	 11	 0.722304	 1.047478	 0.075133	 2.138993	 -1.151687	 -0.815404	 0.051401	 0.779005	 -0.598216	 0.180684	 2
1463630687.892	 11	 0.809810	 1.177976	 -0.081081	 2.136011	 -1.156263	 -0.831195	 0.055369	 0.777685	 -0.601003	 0.175887	 2
1463630687.902	 11	 0.924167	 1.329798	 -0.219213	 2.133929	 -1.162609	 -0.847594	 0.059322	 0.776166	 -0.604263	 0.170041	 2
1463630687.912	 11	 1.062462	 1.343362	 -0.346051	 2.131077	 -1.170745	 -0.865387	 0.063047	 0.774281	 -0.608088	 0.163534	 2
1463630687.922	 11	 1.237682	 1.229507	 -0.428568	 2.124782	 -1.180537	 -0.885950	 0.066276	 0.771800	 -0.612607	 0.156988	 2
1463630687.932	 11	 1.462488	 1.188112	 -0.472476	 2.113037	 -1.191819	 -0.911437	 0.069222	 0.768551	 -0.617968	 0.150508	 2
1463630687.942	 11	 1.728297	 1.215958	 -0.485189	 2.094795	 -1.204396	 -0.943999	 0.072355	 0.764455	 -0.624257	 0.143797	 2
1463630687.952	 11	 1.994721	 1.197638	 -0.556953	 2.069051	 -1.218477	 -0.984396	 0.075467	 0.759447	 -0.631528	 0.136811	 2
1463630687.962	 11	 2.236313	 1.174651	 -0.695688	 2.035516	 -1.234414	 -1.032542	 0.078168	 0.753561	 -0.639754	 0.129420	 2
1463630687.972	 11	 2.350981	 1.204887	 -0.879717	 1.995761	 -1.252054	 -1.086986	 0.080291	 0.747097	 -0.648591	 0.121368	 2
1463630687.982	 11	 2.108531	 1.603484	 -0.866436	 1.958632	 -1.268846	 -1.141518	 0.083113	 0.741165	 -0.656662	 0.112082	 2
1463630687.992	 11	 1.415245	 2.375287	 -0.612356	 1.939079	 -1.281228	 -1.184548	 0.088561	 0.737262	 -0.662098	 0.101131	 2
1463630688.002	 11	 0.376052	 2.744139	 -0.183162	 1.950079	 -1.286275	 -1.201731	 0.096894	 0.736598	 -0.663311	 0.089742	 2
1463630688.012	 11	 -0.333834	 1.208170	 0.246754	 1.971006	 -1.284203	 -1.197380	 0.102894	 0.737890	 -0.661703	 0.084144	 2
1463630688.022	 11	 -0.490806	 -0.590371	 0.479708	 1.978163	 -1.278308	 -1.188105	 0.103737	 0.739160	 -0.659851	 0.086476	 2
1463630688.032	 11	 -0.395965	 -1.791111	 0.528457	 1.969159	 -1.271818	 -1.181532	 0.100431	 0.739623	 -0.658804	 0.094069	 2
1463630688.042	 11	 -0.203446	 -2.431513	 0.591162	 1.946648	 -1.265577	 -1.180979	 0.094831	 0.739026	 -0.658718	 0.104591	 2
1463630688.052	 11	 -0.076998	 -2.673297	 0.741281	 1.915732	 -1.258676	 -1.185831	 0.088686	 0.737599	 -0.659149	 0.116645	 2
1463630688.062	 11	 0.028641	 -2.644271	 0.972967	 1.879972	 -1.250064	 -1.195330	 0.083227	 0.735552	 -0.659749	 0.129492	 2
1463630688.072	 11	 -0.017545	 -2.239211	 1.223330	 1.846176	 -1.238958	 -1.206036	 0.079698	 0.733444	 -0.659955	 0.142010	 2
1463630688.082	 11	 -0.133902	 -1.470896	 1.376436	 1.822515	 -1.225666	 -1.213300	 0.079002	 0.732046	 -0.659215	 0.152653	 2
1463630688.092	 11	 0.002658	 -0.350238	 1.378215	 1.808249	 -1.212061	 -1.221497	 0.081874	 0.731156	 -0.658193	 0.159652	 2
1463630688.102	 11	 0.412318	 1.151003	 1.171202	 1.800603	 -1.200707	 -1.237822	 0.089147	 0.730238	 -0.657983	 0.160821	 2
1463630688.112	 11	 0.552474	 2.479218	 0.756036	 1.803754	 -1.193511	 -1.257920	 0.099946	 0.729749	 -0.658267	 0.155440	 2
1463630688.122	 11	 0.237513	 2.844729	 0.284718	 1.821426	 -1.190403	 -1.269311	 0.110964	 0.730568	 -0.657695	 0.146272	 2
1463630688.132	 11	 -0.148920	 2.276905	 -0.144572	 1.847740	 -1.190641	 -1.267411	 0.118833	 0.732534	 -0.656087	 0.137192	 2
1463630688.142	 11	 -0.312739	 1.512578	 -0.447606	 1.874480	 -1.193488	 -1.256967	 0.122814	 0.734848	 -0.654256	 0.129861	 2
1463630688.152	 11	 -0.215862	 0.878631	 -0.559859	 1.895086	 -1.197854	 -1.245802	 0.123999	 0.736663	 -0.653034	 0.124490	 2
1463630688.162	 11	 0.005297	 0.480191	 -0.560163	 1.906671	 -1.203011	 -1.239432	 0.123739	 0.737524	 -0.652841	 0.120603	 2
1463630688.172	 11	 0.126156	 0.285415	 -0.529989	 1.912001	 -1.208448	 -1.237184	 0.122866	 0.737706	 -0.653350	 0.117585	 2
1463630688.182	 11	 0.163526	 0.194654	 -0.417122	 1.914270	 -1.213216	 -1.237029	 0.121988	 0.737600	 -0.654054	 0.115233	 2
1463630688.192	 11	 0.246304	 0.183912	 -0.251684	 1.913124	 -1.216728	 -1.240166	 0.121617	 0.737158	 -0.654928	 0.113475	 2
1463630688.202	 11	 0.434370	 0.322827	 -0.086836	 1.907332	 -1.219183	 -1.249322	 0.122284	 0.736147	 -0.656228	 0.111798	 2
1463630688.212	 11	 0.683707	 0.583633	 0.044509	 1.896277	 -1.221070	 -1.266558	 0.124366	 0.734381	 -0.658188	 0.109574	 2
1463630688.222	 11	 0.868883	 0.864425	 0.119047	 1.881623	 -1.222622	 -1.290603	 0.127835	 0.732006	 -0.660668	 0.106502	 2
1463630688.232	 11	 0.941648	 1.161767	 0.083878	 1.867228	 -1.224480	 -1.317479	 0.132271	 0.729438	 -0.663303	 0.102243	 2
1463630688.242	 11	 0.920657	 1.289007	 0.021300	 1.854819	 -1.226783	 -1.344216	 0.137112	 0.726949	 -0.665821	 0.097099	 2
1463630688.252	 11	 0.833396	 1.173888	 -0.048286	 1.844088	 -1.229447	 -1.368506	 0.141453	 0.724684	 -0.668103	 0.091988	 2
1463630688.262	 11	 0.709323	 0.909232	 -0.073116	 1.834265	 -1.232100	 -1.389379	 0.144826	 0.722697	 -0.670113	 0.087653	 2
1463630688.272	 11	 0.579196	 0.667373	 -0.036932	 1.825144	 -1.234113	 -1.406742	 0.147353	 0.721005	 -0.671796	 0.084430	 2
1463630688.282	 11	 0.521524	 0.381864	 0.022728	 1.814804	 -1.235393	 -1.422429	 0.149091	 0.719397	 -0.673382	 0.082437	 2
1463630688.292	 11	 0.539269	 0.246116	 0.084190	 1.802300	 -1.235926	 -1.438573	 0.150495	 0.717673	 -0.675046	 0.081303	 2
1463630688.302	 11	 0.636969	 0.101550	 0.135282	 1.785830	 -1.236107	 -1.457547	 0.151664	 0.715572	 -0.677080	 0.080728	 2
1463630688.312	 11	 0.691548	 0.277598	 0.233430	 1.767880	 -1.235360	 -1.478946	 0.153477	 0.713213	 -0.679226	 0.080143	 2
1463630688.322	 11	 0.732620	 0.588271	 0.263673	 1.751242	 -1.234216	 -1.501932	 0.156392	 0.710758	 -0.681307	 0.078647	 2
1463630688.332	 11	 0.821613	 0.896511	 0.271095	 1.735712	 -1.232889	 -1.527116	 0.160481	 0.708137	 -0.683380	 0.076028	 2
1463630688.342	 11	 0.858771	 1.125760	 0.218551	 1.721458	 -1.231927	 -1.553580	 0.165286	 0.705427	 -0.685434	 0.072346	 2
1463630688.352	 11	 0.879647	 1.299724	 0.162437	 1.708839	 -1.231454	 -1.580353	 0.170543	 0.702721	 -0.687390	 0.067767	 2
1463630688.362	 11	 0.905795	 1.245958	 0.092434	 1.695863	 -1.231502	 -1.607557	 0.175599	 0.699945	 -0.689406	 0.062936	 2
1463630688.372	 11	 0.914169	 1.301527	 -0.014764	 1.682881	 -1.232493	 -1.634878	 0.180320	 0.697170	 -0.691456	 0.057688	 2
1463630688.382	 11	 0.925934	 1.324738	 -0.035965	 1.670076	 -1.233828	 -1.662424	 0.185012	 0.694375	 -0.693467	 0.052133	 2
1463630688.392	 11	 0.948355	 1.312038	 -0.018161	 1.656493	 -1.234927	 -1.690801	 0.189750	 0.691448	 -0.695503	 0.046596	 2
1463630688.402	 11	 0.963032	 1.257725	 -0.022097	 1.641779	 -1.235871	 -1.719824	 0.194314	 0.688403	 -0.697599	 0.041229	 2
1463630688.412	 11	 0.962881	 1.255342	 -0.057288	 1.626641	 -1.236932	 -1.749059	 0.198704	 0.685319	 -0.699693	 0.035839	 2
1463630688.422	 11	 0.945690	 1.275217	 -0.110241	 1.612092	 -1.238361	 -1.777941	 0.202995	 0.682297	 -0.701678	 0.030187	 2
1463630688.432	 11	 0.918616	 1.235563	 -0.162597	 1.597884	 -1.240163	 -1.806185	 0.207006	 0.679371	 -0.703566	 0.024462	 2
1463630688.442	 11	 0.881480	 1.114967	 -0.233736	 1.583417	 -1.242483	 -1.833606	 0.210419	 0.676578	 -0.705414	 0.018886	 2
1463630688.452	 11	 0.826075	 0.982595	 -0.322944	 1.568759	 -1.245537	 -1.859806	 0.213058	 0.674004	 -0.707208	 0.013502	 2
1463630688.462	 11	 0.731518	 0.916318	 -0.406932	 1.555369	 -1.249338	 -1.883703	 0.215079	 0.671792	 -0.708780	 0.008206	 2
1463630688.472	 11	 0.723879	 0.711635	 -0.474848	 1.541392	 -1.253759	 -1.906703	 0.216352	 0.669783	 -0.710333	 0.003176	 2
1463630688.482	 11	 0.773978	 0.760944	 -0.548363	 1.524152	 -1.258757	 -1.932275	 0.217101	 0.667615	 -0.712147	 -0.001909	 2
1463630688.492	 11	 0.760851	 0.925784	 -0.556306	 1.508342	 -1.263934	 -1.958322	 0.218424	 0.665481	 -0.713699	 -0.007737	 2
1463630688.502	 11	 0.720578	 0.915863	 -0.473984	 1.493238	 -1.268419	 -1.983896	 0.220040	 0.663360	 -0.715092	 -0.013418	 2
1463630688.512	 11	 0.632030	 0.829704	 -0.364242	 1.479612	 -1.271742	 -2.006978	 0.221714	 0.661384	 -0.716295	 -0.018320	 2
1463630688.522	 11	 0.558323	 0.769681	 -0.310870	 1.467809	 -1.274379	 -2.027540	 0.223410	 0.659601	 -0.717286	 -0.022703	 2
1463630688.532	 11	 0.479365	 0.726700	 -0.256221	 1.461633	 -1.276279	 -2.042052	 0.225356	 0.658333	 -0.717711	 -0.026530	 2
1463630688.542	 11	 0.359834	 0.654275	 -0.171659	 1.454793	 -1.277763	 -2.056230	 0.227081	 0.657052	 -0.718209	 -0.029880	 2
1463630688.552	 11	 0.243385	 0.576353	 -0.110622	 1.451346	 -1.278676	 -2.066052	 0.228771	 0.656129	 -0.718399	 -0.032590	 2
1463630688.562	 11	 0.142982	 0.515323	 -0.060224	 1.450820	 -1.279191	 -2.072112	 0.230403	 0.655523	 -0.718328	 -0.034771	 2
1463630688.572	 11	 0.065249	 0.501098	 0.000003	 1.453131	 -1.279234	 -2.074957	 0.232151	 0.655159	 -0.718008	 -0.036564	 2
1463630688.582	 11	 0.061090	 0.510799	 0.016116	 1.456366	 -1.279024	 -2.076878	 0.234009	 0.654842	 -0.717607	 -0.038241	 2
1463630688.592	 11	 0.115602	 0.543486	 -0.001107	 1.458381	 -1.278873	 -2.080338	 0.235913	 0.654372	 -0.717311	 -0.040090	 2
1463630688.602	 11	 0.180840	 0.597330	 -0.029950	 1.458687	 -1.278907	 -2.086094	 0.237894	 0.653689	 -0.717154	 -0.042266	 2
1463630688.612	 11	 0.262324	 0.681086	 -0.034143	 1.457123	 -1.279023	 -2.094582	 0.240068	 0.652728	 -0.717150	 -0.044838	 2
1463630688.622	 11	 0.343540	 0.745404	 -0.080062	 1.465132	 -1.281029	 -2.094904	 0.242397	 0.652822	 -0.716058	 -0.048256	 2
1463630688.632	 11	 0.398605	 0.733921	 -0.174435	 1.459073	 -1.282125	 -2.108950	 0.244455	 0.651439	 -0.716378	 -0.051686	 2
1463630688.642	 11	 0.439699	 0.682231	 -0.245614	 1.450714	 -1.283890	 -2.124949	 0.246100	 0.649988	 -0.716862	 -0.055302	 2
1463630688.652	 11	 0.461466	 0.609293	 -0.321086	 1.440243	 -1.286317	 -2.142385	 0.247233	 0.648543	 -0.717488	 -0.058981	 2
1463630688.662	 11	 0.465118	 0.531206	 -0.381507	 1.440421	 -1.290544	 -2.148933	 0.248077	 0.648443	 -0.716961	 -0.062822	 2
1463630688.672	 11	 0.452781	 0.432089	 -0.414294	 1.427217	 -1.293952	 -2.167442	 0.248258	 0.647158	 -0.717742	 -0.066337	 2
1463630688.682	 11	 0.419149	 0.333120	 -0.435172	 1.413536	 -1.297565	 -2.185367	 0.248004	 0.646037	 -0.718534	 -0.069566	 2
1463630688.702	 12	 0.361863	 0.206423	 -0.470884	 1.451423	 -1.297715	 -2.156071	 0.252053	 0.648390	 -0.714818	 -0.071379	 2
1463630688.712	 12	 0.314787	 0.168379	 -0.455907	 1.439498	 -1.301899	 -2.170293	 0.251071	 0.647744	 -0.715480	 -0.074019	 2
1463630688.722	 12	 0.300548	 0.078125	 -0.440637	 1.427351	 -1.305814	 -2.183971	 0.249916	 0.647165	 -0.716168	 -0.076303	 2
1463630688.732	 12	 0.292785	 0.079726	 -0.516224	 1.414788	 -1.310246	 -2.197863	 0.248517	 0.646704	 -0.716812	 -0.078704	 2
1463630688.742	 12	 0.216729	 0.173105	 -0.430497	 1.404633	 -1.314461	 -2.209907	 0.247452	 0.646375	 -0.717205	 -0.081146	 2
1463630688.752	 12	 0.198086	 0.156262	 -0.267430	 1.396692	 -1.317187	 -2.219812	 0.246955	 0.645974	 -0.717520	 -0.083040	 2
1463630688.762	 12	 0.191207	 0.200590	 -0.171039	 1.389774	 -1.318738	 -2.228834	 0.246904	 0.645437	 -0.717844	 -0.084559	 2
1463630688.772	 12	 0.145055	 0.292870	 -0.078123	 1.385628	 -1.319436	 -2.235922	 0.247486	 0.644868	 -0.717984	 -0.085996	 2
1463630688.782	 12	 0.019918	 0.356884	 0.045059	 1.387011	 -1.319225	 -2.238054	 0.248735	 0.644504	 -0.717742	 -0.087137	 2
1463630688.792	 12	 -0.181198	 0.358523	 0.189638	 1.396497	 -1.317939	 -2.231977	 0.250576	 0.644608	 -0.716952	 -0.087590	 2
1463630688.802	 12	 -0.431493	 0.359090	 0.313319	 1.415826	 -1.315723	 -2.215707	 0.252940	 0.645406	 -0.715443	 -0.087260	 2
1463630688.812	 12	 -0.704323	 0.366877	 0.396765	 1.445446	 -1.312883	 -2.188852	 0.255733	 0.647037	 -0.713091	 -0.086285	 2
1463630688.822	 12	 -0.984566	 0.384283	 0.483562	 1.485293	 -1.309255	 -2.151544	 0.258968	 0.649534	 -0.709836	 -0.084695	 2
1463630688.832	 12	 -1.262360	 0.457085	 0.583643	 1.534969	 -1.304411	 -2.104585	 0.262820	 0.652848	 -0.705617	 -0.082579	 2
1463630688.842	 12	 -1.511069	 0.585128	 0.686116	 1.593175	 -1.297905	 -2.049911	 0.267507	 0.656853	 -0.700402	 -0.080136	 2
1463630688.852	 12	 -1.685866	 0.758803	 0.804356	 1.656656	 -1.289298	 -1.991316	 0.273185	 0.661272	 -0.694315	 -0.077563	 2
1463630688.862	 12	 -1.767464	 0.995065	 0.937288	 1.721348	 -1.278247	 -1.933579	 0.280071	 0.665723	 -0.687555	 -0.075104	 2
1463630688.872	 12	 -1.753824	 1.292681	 1.062501	 1.783685	 -1.264912	 -1.881069	 0.288327	 0.669836	 -0.680323	 -0.073131	 2
1463630688.882	 12	 -1.673060	 1.568814	 1.185864	 1.841017	 -1.249640	 -1.836604	 0.297903	 0.673339	 -0.672841	 -0.071786	 2
1463630688.892	 12	 -1.565899	 1.793742	 1.298929	 1.892154	 -1.232824	 -1.800953	 0.308585	 0.676121	 -0.665279	 -0.070986	 2
1463630688.902	 12	 -1.436695	 1.973651	 1.373016	 1.937081	 -1.215101	 -1.773709	 0.320083	 0.678165	 -0.657751	 -0.070726	 2
1463630688.912	 12	 -1.308830	 2.112998	 1.426488	 1.976487	 -1.196973	 -1.753803	 0.332155	 0.679509	 -0.650309	 -0.070986	 2
1463630688.922	 12	 -1.201484	 2.196076	 1.486009	 2.011068	 -1.178528	 -1.740034	 0.344643	 0.680208	 -0.642974	 -0.071569	 2
1463630688.932	 12	 -1.106069	 2.249315	 1.532567	 2.041563	 -1.159888	 -1.731205	 0.357377	 0.680345	 -0.635752	 -0.072328	 2
1463630688.942	 12	 -0.988689	 2.221540	 1.563259	 2.067961	 -1.141384	 -1.726792	 0.370105	 0.679930	 -0.628780	 -0.073166	 2
1463630688.952	 12	 -0.880028	 2.155498	 1.593671	 2.090032	 -1.123111	 -1.726371	 0.382615	 0.678975	 -0.622208	 -0.073866	 2
1463630688.962	 12	 -0.806683	 2.108360	 1.576608	 2.109410	 -1.105289	 -1.728405	 0.394855	 0.677653	 -0.615887	 -0.074557	 2
1463630688.972	 12	 -0.778466	 2.047089	 1.499057	 2.127631	 -1.088224	 -1.731117	 0.406620	 0.676231	 -0.609672	 -0.075311	 2
1463630688.982	 12	 -0.769718	 1.966420	 1.378865	 2.145534	 -1.072180	 -1.733370	 0.417712	 0.674906	 -0.603505	 -0.076161	 2
1463630688.992	 12	 -0.764491	 1.846166	 1.225296	 2.163267	 -1.057401	 -1.734573	 0.427912	 0.673810	 -0.597437	 -0.077077	 2
1463630689.002	 12	 -0.747790	 1.686382	 1.052076	 2.180555	 -1.044103	 -1.734586	 0.437040	 0.673001	 -0.591591	 -0.078015	 2
1463630689.012	 12	 -0.737827	 1.477503	 0.852880	 2.197228	 -1.032452	 -1.733020	 0.444880	 0.672587	 -0.586077	 -0.078878	 2
1463630689.022	 12	 -0.718500	 1.214379	 0.657360	 2.212790	 -1.022481	 -1.729828	 0.451283	 0.672610	 -0.581048	 -0.079513	 2
1463630689.032	 12	 -0.688420	 0.958754	 0.473540	 2.226914	 -1.014136	 -1.725211	 0.456255	 0.673046	 -0.576595	 -0.079860	 2
1463630689.042	 12	 -0.637552	 0.785194	 0.321209	 2.239792	 -1.007313	 -1.719701	 0.460079	 0.673767	 -0.572668	 -0.080106	 2
1463630689.052	 12	 -0.572208	 0.727625	 0.182622	 2.252257	 -1.001939	 -1.713643	 0.463143	 0.674655	 -0.569070	 -0.080606	 2
1463630689.062	 12	 -0.500288	 0.700930	 0.050658	 2.264796	 -0.997997	 -1.707211	 0.465659	 0.675643	 -0.565698	 -0.081569	 2
1463630689.072	 12	 -0.411997	 0.746555	 -0.075446	 2.277657	 -0.995547	 -1.700554	 0.467734	 0.676675	 -0.562515	 -0.083142	 2
1463630689.082	 12	 -0.347099	 0.785020	 -0.171572	 2.291175	 -0.994304	 -1.693765	 0.469579	 0.677705	 -0.559397	 -0.085361	 2
1463630689.092	 12	 -0.307069	 0.753373	 -0.266002	 2.304912	 -0.994010	 -1.686473	 0.471021	 0.678827	 -0.556426	 -0.087878	 2
1463630689.102	 12	 -0.287558	 0.665458	 -0.354382	 2.318595	 -0.994496	 -1.678406	 0.471942	 0.680112	 -0.553655	 -0.090466	 2
1463630689.112	 12	 -0.282196	 0.499051	 -0.418857	 2.331481	 -0.995514	 -1.669532	 0.472196	 0.681599	 -0.551224	 -0.092770	 2
1463630689.122	 12	 -0.283246	 0.315776	 -0.465316	 2.343102	 -0.996826	 -1.659993	 0.471773	 0.683279	 -0.549194	 -0.094586	 2
1463630689.132	 12	 -0.267132	 0.148428	 -0.508578	 2.353421	 -0.998453	 -1.649954	 0.470717	 0.685113	 -0.547576	 -0.095951	 2
1463630689.142	 12	 -0.224196	 0.003407	 -0.542274	 2.362307	 -1.000566	 -1.639843	 0.469095	 0.687001	 -0.546418	 -0.096993	 2
1463630689.152	 12	 -0.169198	 -0.113647	 -0.527856	 2.369414	 -1.002997	 -1.630379	 0.467110	 0.688795	 -0.545729	 -0.097725	 2
1463630689.162	 12	 -0.104493	 -0.229488	 -0.488998	 2.374388	 -1.005602	 -1.622118	 0.464902	 0.690388	 -0.545531	 -0.098116	 2
1463630689.172	 12	 -0.036553	 -0.334733	 -0.454333	 2.377154	 -1.008417	 -1.615194	 0.462490	 0.691757	 -0.545834	 -0.098186	 2
1463630689.182	 12	 0.023845	 -0.440087	 -0.437722	 2.377985	 -1.011540	 -1.609324	 0.459827	 0.692952	 -0.546605	 -0.097980	 2
1463630689.192	 12	 0.069365	 -0.542121	 -0.409226	 2.376957	 -1.014852	 -1.604411	 0.456930	 0.693999	 -0.547798	 -0.097455	 2
1463630689.202	 12	 0.101249	 -0.556160	 -0.425621	 2.375238	 -1.018406	 -1.599913	 0.453918	 0.694965	 -0.549178	 -0.096883	 2
1463630689.212	 12	 0.140638	 -0.545904	 -0.462104	 2.373573	 -1.022511	 -1.595395	 0.450755	 0.695899	 -0.550663	 -0.096514	 2
1463630689.222	 12	 0.190916	 -0.519471	 -0.463362	 2.371782	 -1.027008	 -1.591333	 0.447603	 0.696709	 -0.552236	 -0.096358	 2
1463630689.232	 12	 0.263685	 -0.485573	 -0.453022	 2.369438	 -1.031934	 -1.588298	 0.444530	 0.697287	 -0.553971	 -0.096439	 2
1463630689.242	 12	 0.354608	 -0.451707	 -0.439644	 2.366261	 -1.037395	 -1.586629	 0.441547	 0.697572	 -0.555933	 -0.096792	 2
1463630689.252	 12	 0.459439	 -0.410437	 -0.426318	 2.362107	 -1.043497	 -1.586564	 0.438664	 0.697518	 -0.558159	 -0.097475	 2
1463630689.262	 12	 0.548344	 -0.353156	 -0.411638	 2.357085	 -1.050176	 -1.588096	 0.435920	 0.697133	 -0.560604	 -0.098505	 2
1463630689.272	 12	 0.610707	 -0.266021	 -0.397515	 2.351754	 -1.057225	 -1.590893	 0.433410	 0.696477	 -0.563109	 -0.099918	 2
1463630689.292	 13	 0.755157	 -0.008625	 -0.338827	 2.340873	 -1.072170	 -1.600908	 0.429571	 0.694215	 -0.568038	 -0.104241	 2
1463630689.302	 13	 0.836965	 0.097862	 -0.288457	 2.334590	 -1.080015	 -1.608879	 0.428300	 0.692499	 -0.570554	 -0.107108	 2
1463630689.312	 13	 0.899597	 0.184428	 -0.206133	 2.327057	 -1.087778	 -1.619247	 0.427494	 0.690365	 -0.573145	 -0.110221	 2
1463630689.322	 13	 0.900307	 0.245822	 -0.100058	 2.318355	 -1.094892	 -1.631695	 0.427223	 0.687906	 -0.575693	 -0.113329	 2
1463630689.332	 13	 0.796232	 0.231230	 0.045656	 2.308737	 -1.100443	 -1.645194	 0.427464	 0.685364	 -0.578029	 -0.115902	 2
1463630689.342	 13	 0.600132	 0.125770	 0.237154	 2.298255	 -1.103440	 -1.658710	 0.428174	 0.682980	 -0.580039	 -0.117303	 2
1463630689.352	 13	 0.345324	 -0.005905	 0.456628	 2.287156	 -1.103150	 -1.671438	 0.429376	 0.680911	 -0.581620	 -0.117111	 2
1463630689.362	 13	 0.097075	 -0.082481	 0.649914	 2.276366	 -1.099595	 -1.682778	 0.431142	 0.679194	 -0.582650	 -0.115459	 2
1463630689.372	 13	 -0.084640	 -0.045753	 0.801045	 2.266778	 -1.093460	 -1.692840	 0.433577	 0.677706	 -0.583074	 -0.112917	 2
1463630689.382	 13	 -0.163431	 0.119134	 0.919433	 2.258812	 -1.085632	 -1.702633	 0.436889	 0.676163	 -0.582907	 -0.110232	 2
1463630689.392	 13	 -0.151348	 0.349433	 1.001403	 2.252346	 -1.077005	 -1.713242	 0.441141	 0.674310	 -0.582270	 -0.107995	 2
1463630689.402	 13	 -0.058301	 0.580285	 1.044170	 2.246844	 -1.068397	 -1.725450	 0.446194	 0.671983	 -0.581376	 -0.106547	 2
1463630689.412	 13	 0.043621	 0.698018	 1.040115	 2.241686	 -1.060383	 -1.739190	 0.451669	 0.669218	 -0.580461	 -0.105867	 2
1463630689.422	 13	 0.086628	 0.557344	 1.019248	 2.235425	 -1.052834	 -1.753326	 0.456798	 0.666348	 -0.579889	 -0.105095	 2
1463630689.432	 13	 0.089468	 0.255265	 1.018544	 2.226725	 -1.045349	 -1.767291	 0.461124	 0.663571	 -0.579939	 -0.103484	 2
1463630689.442	 13	 0.059292	 -0.253108	 1.010879	 2.214169	 -1.037713	 -1.780531	 0.464114	 0.661082	 -0.580949	 -0.100336	 2
1463630689.452	 13	 -0.033209	 -0.873851	 1.029355	 2.196889	 -1.029443	 -1.792274	 0.465398	 0.659077	 -0.583098	 -0.094972	 2
1463630689.462	 13	 -0.091845	 -1.342480	 1.063872	 2.175559	 -1.020341	 -1.802694	 0.465278	 0.657433	 -0.586195	 -0.087603	 2
1463630689.472	 13	 -0.082942	 -1.498791	 1.072997	 2.152223	 -1.010981	 -1.812734	 0.464480	 0.655807	 -0.589806	 -0.079395	 2
1463630689.482	 13	 -0.088402	 -1.265074	 1.032589	 2.130941	 -1.001699	 -1.821935	 0.463947	 0.654146	 -0.593051	 -0.071672	 2
1463630689.492	 13	 -0.040113	 -0.666122	 0.924771	 2.115620	 -0.993246	 -1.830248	 0.464615	 0.652390	 -0.595120	 -0.065970	 2
1463630689.502	 13	 0.139113	 0.139422	 0.758053	 2.107535	 -0.986818	 -1.839126	 0.467001	 0.650286	 -0.595816	 -0.063569	 2
1463630689.512	 13	 0.320929	 0.849997	 0.549930	 2.106162	 -0.983048	 -1.849078	 0.470935	 0.647810	 -0.595298	 -0.064670	 2
1463630689.522	 13	 0.370102	 1.108355	 0.263084	 2.109612	 -0.981997	 -1.857875	 0.475116	 0.645561	 -0.594046	 -0.068006	 2
1463630689.532	 13	 0.332346	 0.844451	 -0.063034	 2.114453	 -0.983617	 -1.863368	 0.477846	 0.644166	 -0.592922	 -0.071808	 2
1463630689.542	 13	 0.244631	 0.150106	 -0.365014	 2.116695	 -0.987522	 -1.864814	 0.477827	 0.643937	 -0.592863	 -0.074432	 2
1463630689.552	 13	 0.088973	 -0.752014	 -0.599060	 2.114043	 -0.992879	 -1.861738	 0.474469	 0.645035	 -0.594332	 -0.074685	 2
1463630689.562	 13	 -0.137425	 -1.562914	 -0.749579	 2.107033	 -0.998635	 -1.853716	 0.468084	 0.647466	 -0.597053	 -0.072198	 2
1463630689.572	 13	 -0.352636	 -2.097858	 -0.829417	 2.097737	 -1.004114	 -1.841219	 0.459615	 0.650953	 -0.600382	 -0.067498	 2
1463630689.582	 13	 -0.439342	 -2.361538	 -0.851366	 2.087210	 -1.009339	 -1.826347	 0.450027	 0.654920	 -0.603960	 -0.061539	 2
1463630689.592	 13	 -0.309143	 -2.399873	 -0.804897	 2.074549	 -1.014757	 -1.812931	 0.440156	 0.658527	 -0.607900	 -0.055338	 2
1463630689.612	 14	 0.473581	 -1.799674	 -0.590843	 2.038867	 -1.028044	 -1.805645	 0.422784	 0.661639	 -0.617533	 -0.046268	 2
1463630689.622	 14	 0.924697	 -1.285345	 -0.471685	 2.016090	 -1.036135	 -1.815666	 0.416550	 0.660472	 -0.623098	 -0.044848	 2
1463630689.632	 14	 1.206058	 -0.799126	 -0.337456	 1.991842	 -1.044348	 -1.833192	 0.412203	 0.657854	 -0.628695	 -0.045389	 2
1463630689.642	 14	 1.297806	 -0.469732	 -0.198772	 1.967574	 -1.051570	 -1.854956	 0.409442	 0.654398	 -0.633966	 -0.046979	 2
1463630689.652	 14	 1.274394	 -0.277797	 -0.141362	 1.944373	 -1.057780	 -1.877978	 0.407637	 0.650685	 -0.638776	 -0.049043	 2
1463630689.672	 15	 1.032766	 -0.319029	 -0.204654	 1.902808	 -1.068976	 -1.919447	 0.404199	 0.644218	 -0.647139	 -0.053082	 2
1463630689.682	 15	 0.876415	 -0.409191	 -0.233973	 1.884331	 -1.074028	 -1.936063	 0.401963	 0.641811	 -0.650803	 -0.054411	 2
1463630689.692	 15	 0.734091	 -0.470644	 -0.258884	 1.867569	 -1.078746	 -1.949904	 0.399449	 0.639937	 -0.654112	 -0.055308	 2
1463630689.702	 15	 0.628394	 -0.482020	 -0.257004	 1.852423	 -1.083104	 -1.961588	 0.396848	 0.638456	 -0.657084	 -0.055914	 2
1463630689.712	 15	 0.568007	 -0.429371	 -0.208029	 1.838513	 -1.086828	 -1.972270	 0.394504	 0.637110	 -0.659757	 -0.056374	 2
1463630689.722	 15	 0.527325	 -0.299956	 -0.125472	 1.825982	 -1.089647	 -1.982614	 0.392767	 0.635724	 -0.662086	 -0.056848	 2
1463630689.732	 15	 0.496664	 -0.104437	 -0.016810	 1.815266	 -1.091328	 -1.992935	 0.391962	 0.634187	 -0.663978	 -0.057489	 2
1463630689.742	 15	 0.468276	 0.113475	 0.100568	 1.806653	 -1.091771	 -2.003312	 0.392247	 0.632452	 -0.665387	 -0.058374	 2
1463630689.752	 15	 0.448266	 0.305763	 0.208042	 1.799976	 -1.091043	 -2.013771	 0.393554	 0.630510	 -0.666359	 -0.059479	 2
1463630689.762	 15	 0.439686	 0.450005	 0.294719	 1.794739	 -1.089356	 -2.024389	 0.395679	 0.628375	 -0.667003	 -0.060748	 2
1463630689.772	 15	 0.431673	 0.512140	 0.352919	 1.790272	 -1.086992	 -2.035103	 0.398289	 0.626101	 -0.667468	 -0.062049	 2
1463630689.782	 15	 0.423190	 0.494338	 0.387997	 1.785886	 -1.084190	 -2.045744	 0.401023	 0.623767	 -0.667909	 -0.063197	 2
1463630689.792	 15	 0.422936	 0.428499	 0.402307	 1.780989	 -1.081169	 -2.056349	 0.403628	 0.621408	 -0.668452	 -0.064101	 2
1463630689.802	 15	 0.435242	 0.335813	 0.386417	 1.775192	 -1.078222	 -2.067015	 0.405911	 0.619055	 -0.669186	 -0.064783	 2
1463630689.812	 15	 0.455917	 0.224873	 0.350034	 1.768179	 -1.075591	 -2.077848	 0.407723	 0.616731	 -0.670182	 -0.065273	 2
1463630689.822	 15	 0.488271	 0.118006	 0.293338	 1.759850	 -1.073482	 -2.088960	 0.409000	 0.614448	 -0.671462	 -0.065660	 2
1463630689.832	 15	 0.535543	 0.022655	 0.217436	 1.750050	 -1.072107	 -2.100642	 0.409711	 0.612188	 -0.673051	 -0.066075	 2
1463630689.842	 15	 0.562460	 -0.087542	 0.139442	 1.738871	 -1.071512	 -2.112705	 0.409812	 0.610002	 -0.674929	 -0.066506	 2
1463630689.852	 15	 0.536021	 -0.192307	 0.055567	 1.727089	 -1.071633	 -2.124203	 0.409294	 0.608058	 -0.676960	 -0.066849	 2
1463630689.862	 15	 0.463831	 -0.268216	 -0.027640	 1.715827	 -1.072438	 -2.134175	 0.408259	 0.606518	 -0.678938	 -0.067104	 2
1463630689.872	 15	 0.353190	 -0.361999	 -0.097890	 1.705683	 -1.073774	 -2.141898	 0.406744	 0.605491	 -0.680758	 -0.067143	 2
1463630689.882	 15	 0.200715	 -0.510883	 -0.156564	 1.696903	 -1.075497	 -2.146527	 0.404628	 0.605116	 -0.682395	 -0.066691	 2
1463630689.892	 15	 0.019260	 -0.690566	 -0.220602	 1.689724	 -1.077603	 -2.147370	 0.401790	 0.605517	 -0.683823	 -0.065572	 2
1463630689.902	 15	 -0.157094	 -0.926578	 -0.276682	 1.683791	 -1.080089	 -2.144303	 0.398072	 0.606717	 -0.685116	 -0.063627	 2
1463630689.912	 15	 -0.322486	 -1.097769	 -0.336518	 1.679040	 -1.082960	 -2.137607	 0.393532	 0.608647	 -0.686272	 -0.060928	 2
1463630689.922	 15	 -0.463962	 -1.184930	 -0.386188	 1.676256	 -1.086245	 -2.127560	 0.388506	 0.611212	 -0.687125	 -0.057820	 2
1463630689.932	 15	 -0.522526	 -1.172923	 -0.367449	 1.674958	 -1.089452	 -2.115682	 0.383435	 0.614041	 -0.687722	 -0.054501	 2
1463630689.942	 15	 -0.484373	 -1.056640	 -0.303819	 1.674230	 -1.092137	 -2.104190	 0.378820	 0.616663	 -0.688179	 -0.051295	 2
1463630689.952	 15	 -0.371999	 -0.846712	 -0.203728	 1.673397	 -1.094021	 -2.094948	 0.375095	 0.618713	 -0.688580	 -0.048539	 2
1463630689.962	 15	 -0.245309	 -0.563262	 -0.079631	 1.672525	 -1.094834	 -2.088735	 0.372618	 0.620017	 -0.688897	 -0.046423	 2
1463630689.972	 15	 -0.182523	 -0.239325	 0.028347	 1.673022	 -1.094607	 -2.084573	 0.371569	 0.620746	 -0.688898	 -0.045061	 2
1463630689.982	 15	 -0.233150	 0.045394	 0.109238	 1.676737	 -1.093478	 -2.080170	 0.371832	 0.621313	 -0.688295	 -0.044291	 2
1463630689.992	 15	 -0.405054	 0.215336	 0.153881	 1.685047	 -1.091646	 -2.072849	 0.372984	 0.622224	 -0.686886	 -0.043694	 2
1463630690.002	 15	 -0.680096	 0.268334	 0.164229	 1.698798	 -1.089297	 -2.060282	 0.374516	 0.623936	 -0.684550	 -0.042816	 2
1463630690.012	 15	 -1.036472	 0.283191	 0.162142	 1.718987	 -1.086384	 -2.040643	 0.376178	 0.626793	 -0.681109	 -0.041364	 2
1463630690.022	 15	 -1.404356	 0.344899	 0.162722	 1.746261	 -1.082682	 -2.013456	 0.378047	 0.630882	 -0.676401	 -0.039360	 2
1463630690.032	 15	 -1.721639	 0.484244	 0.182767	 1.780352	 -1.077790	 -1.979866	 0.380426	 0.636005	 -0.670373	 -0.037053	 2
1463630690.042	 15	 -1.957690	 0.654161	 0.198127	 1.819892	 -1.071563	 -1.941851	 0.383427	 0.641870	 -0.663160	 -0.034719	 2
1463630690.052	 15	 -2.108331	 0.831276	 0.213876	 1.863070	 -1.063993	 -1.901546	 0.387043	 0.648170	 -0.654990	 -0.032568	 2
1463630690.062	 15	 -2.190595	 1.030477	 0.222840	 1.908469	 -1.055153	 -1.860708	 0.391290	 0.654653	 -0.646043	 -0.030804	 2
1463630690.072	 15	 -2.266473	 1.225412	 0.232775	 1.955456	 -1.045083	 -1.820136	 0.396160	 0.661219	 -0.636375	 -0.029532	 2
1463630690.082	 15	 -2.287563	 1.586400	 0.136136	 2.004847	 -1.034443	 -1.780088	 0.401745	 0.667871	 -0.625848	 -0.029380	 2
1463630690.092	 15	 -2.274162	 1.866882	 -0.047879	 2.056929	 -1.024308	 -1.740446	 0.407707	 0.674668	 -0.614530	 -0.030840	 2
1463630690.102	 15	 -2.182868	 1.936390	 -0.252653	 2.109224	 -1.015242	 -1.701725	 0.413248	 0.681507	 -0.603038	 -0.033466	 2
1463630690.112	 15	 -2.007944	 1.830433	 -0.419290	 2.158896	 -1.007474	 -1.665136	 0.417882	 0.688114	 -0.592052	 -0.036718	 2
1463630690.122	 15	 -1.786200	 1.676642	 -0.563332	 2.204426	 -1.001222	 -1.631382	 0.421419	 0.694299	 -0.582007	 -0.040290	 2
1463630690.142	 16	 -1.358558	 0.791879	 -0.661615	 2.276657	 -0.992625	 -1.573011	 0.424204	 0.705197	 -0.566265	 -0.045741	 2
1463630690.152	 16	 -1.211737	 0.438606	 -0.623550	 2.302507	 -0.989199	 -1.548279	 0.423702	 0.709931	 -0.560618	 -0.046715	 2
1463630690.162	 16	 -1.082460	 0.177156	 -0.543979	 2.323163	 -0.985845	 -1.526392	 0.422609	 0.714189	 -0.556010	 -0.046789	 2
1463630690.172	 16	 -0.914199	 -0.015893	 -0.403363	 2.338485	 -0.982438	 -1.508333	 0.421328	 0.717773	 -0.552413	 -0.046090	 2
1463630690.182	 16	 -0.694140	 -0.122638	 -0.220830	 2.348308	 -0.979109	 -1.495295	 0.420257	 0.720431	 -0.549862	 -0.044884	 2
1463630690.192	 16	 -0.426851	 -0.166806	 -0.043454	 2.352856	 -0.976231	 -1.487888	 0.419618	 0.722012	 -0.548386	 -0.043503	 2
1463630690.202	 16	 -0.123023	 -0.120987	 0.090744	 2.352928	 -0.974389	 -1.486110	 0.419495	 0.722465	 -0.547968	 -0.042411	 2
1463630690.212	 16	 0.144856	 0.040486	 0.171978	 2.350384	 -0.973881	 -1.489116	 0.420021	 0.721910	 -0.548317	 -0.042143	 2
1463630690.232	 17	 0.389330	 0.491973	 0.195366	 2.346168	 -0.975591	 -1.502199	 0.423112	 0.719172	 -0.549327	 -0.044801	 2
1463630690.242	 17	 0.450603	 0.604377	 0.173498	 2.345534	 -0.977354	 -1.510001	 0.425260	 0.717460	 -0.549696	 -0.047325	 2
1463630690.252	 17	 0.514559	 0.610382	 0.147418	 2.344784	 -0.979743	 -1.518306	 0.427376	 0.715613	 -0.550210	 -0.050166	 2
1463630690.262	 17	 0.584581	 0.542998	 0.123801	 2.343004	 -0.982772	 -1.527224	 0.429243	 0.713631	 -0.551062	 -0.053035	 2
1463630690.272	 17	 0.657578	 0.423523	 0.105001	 2.339504	 -0.986436	 -1.536893	 0.430716	 0.711508	 -0.552389	 -0.055729	 2
1463630690.282	 17	 0.746431	 0.273146	 0.084710	 2.333749	 -0.990803	 -1.547512	 0.431692	 0.709224	 -0.554313	 -0.058146	 2
1463630690.292	 17	 0.851234	 0.120509	 0.052536	 2.325498	 -0.996022	 -1.559250	 0.432108	 0.706754	 -0.556906	 -0.060314	 2
1463630690.302	 17	 0.990313	 0.008073	 0.004451	 2.314768	 -1.002380	 -1.572390	 0.431971	 0.704040	 -0.560205	 -0.062435	 2
1463630690.312	 17	 1.149698	 -0.081169	 -0.063844	 2.301711	 -1.010176	 -1.587146	 0.431290	 0.701043	 -0.564212	 -0.064750	 2
1463630690.322	 17	 1.315521	 -0.157713	 -0.138472	 2.286225	 -1.019509	 -1.603732	 0.430053	 0.697740	 -0.568928	 -0.067345	 2
1463630690.332	 17	 1.468653	 -0.206595	 -0.216995	 2.268447	 -1.030297	 -1.622237	 0.428315	 0.694139	 -0.574261	 -0.070296	 2
1463630690.342	 17	 1.583534	 -0.222372	 -0.292746	 2.248862	 -1.042300	 -1.642428	 0.426167	 0.690313	 -0.580022	 -0.073648	 2
1463630690.352	 17	 1.643232	 -0.196299	 -0.339917	 2.228091	 -1.055003	 -1.664036	 0.423819	 0.686332	 -0.585951	 -0.077378	 2
1463630690.362	 17	 1.633776	 -0.156984	 -0.349060	 2.206768	 -1.067664	 -1.686541	 0.421481	 0.682311	 -0.591773	 -0.081295	 2
1463630690.372	 17	 1.595729	 -0.096093	 -0.327913	 2.185250	 -1.079765	 -1.709733	 0.419341	 0.678289	 -0.597331	 -0.085277	 2
1463630690.392	 18	 1.617752	 0.250779	 -0.300364	 2.142731	 -1.102729	 -1.759713	 0.416385	 0.669867	 -0.607443	 -0.094420	 2
1463630690.402	 18	 1.646834	 0.536771	 -0.306604	 2.122758	 -1.114025	 -1.787195	 0.415986	 0.665275	 -0.611805	 -0.100297	 2
1463630690.412	 18	 1.636122	 0.774874	 -0.330939	 2.104395	 -1.125290	 -1.815623	 0.416275	 0.660533	 -0.615581	 -0.107104	 2
1463630690.422	 18	 1.537918	 0.995335	 -0.330164	 2.088563	 -1.136052	 -1.843527	 0.417210	 0.655869	 -0.618595	 -0.114501	 2
1463630690.432	 18	 1.350131	 1.160277	 -0.248127	 2.076016	 -1.145304	 -1.869644	 0.418954	 0.651435	 -0.620678	 -0.121939	 2
1463630690.442	 18	 1.101804	 1.322758	 -0.089918	 2.067504	 -1.152062	 -1.893029	 0.421775	 0.647291	 -0.621682	 -0.128961	 2
1463630690.452	 18	 0.845199	 1.281331	 0.106965	 2.062029	 -1.155866	 -1.913462	 0.425467	 0.643473	 -0.621855	 -0.134970	 2
1463630690.462	 18	 0.591833	 0.810074	 0.287032	 2.055749	 -1.156789	 -1.930669	 0.428745	 0.640268	 -0.622102	 -0.138652	 2
1463630690.472	 18	 0.340712	 0.159919	 0.438769	 2.046764	 -1.155097	 -1.944098	 0.430773	 0.637928	 -0.622954	 -0.139326	 2
1463630690.482	 18	 0.153730	 -0.478628	 0.603912	 2.033827	 -1.150974	 -1.954658	 0.431402	 0.636334	 -0.624672	 -0.136949	 2
1463630690.492	 18	 0.049028	 -0.870639	 0.771698	 2.017393	 -1.144724	 -1.963975	 0.431190	 0.635080	 -0.627095	 -0.132292	 2
1463630690.502	 18	 0.052686	 -0.878074	 0.911367	 1.999400	 -1.136945	 -1.982950	 0.433996	 0.631665	 -0.629161	 -0.129627	 2
1463630690.512	 18	 0.178558	 -0.502430	 0.988370	 1.982003	 -1.128633	 -1.995335	 0.435026	 0.629500	 -0.631567	 -0.124917	 2
1463630690.522	 18	 0.342804	 0.162982	 0.991112	 1.967863	 -1.120667	 -2.017462	 0.439989	 0.624929	 -0.632755	 -0.124476	 2
1463630690.532	 18	 0.481387	 0.902162	 0.890292	 1.959349	 -1.113853	 -2.040400	 0.446555	 0.619809	 -0.632786	 -0.126514	 2
1463630690.542	 18	 0.591960	 1.444866	 0.678030	 1.956430	 -1.109160	 -2.058492	 0.452675	 0.615512	 -0.632015	 -0.129561	 2
1463630690.552	 18	 0.621488	 1.587550	 0.419054	 1.957052	 -1.107042	 -2.075457	 0.458730	 0.611410	 -0.630639	 -0.134306	 2
1463630690.562	 18	 0.545150	 1.387716	 0.253802	 1.958882	 -1.106521	 -2.093695	 0.465022	 0.607023	 -0.628937	 -0.140409	 2
1463630690.572	 18	 0.417984	 0.975810	 0.162618	 1.960053	 -1.106544	 -2.104546	 0.468669	 0.604409	 -0.627893	 -0.144182	 2
1463630690.582	 18	 0.308191	 0.583461	 0.131208	 1.959578	 -1.106552	 -2.115875	 0.471934	 0.601781	 -0.627179	 -0.147597	 2
1463630690.592	 18	 0.236778	 0.371061	 0.143762	 1.957990	 -1.106221	 -2.124780	 0.474213	 0.599759	 -0.626878	 -0.149786	 2
1463630690.602	 18	 0.217544	 0.337328	 0.177720	 1.956039	 -1.105483	 -2.130712	 0.475604	 0.598422	 -0.626863	 -0.150780	 2
1463630690.612	 18	 0.253370	 0.440614	 0.208210	 1.954164	 -1.104526	 -2.137384	 0.477302	 0.596876	 -0.626765	 -0.151948	 2
1463630690.622	 18	 0.313986	 0.621317	 0.214740	 1.952771	 -1.103640	 -2.147604	 0.480180	 0.594443	 -0.626280	 -0.154398	 2
1463630690.632	 18	 0.360401	 0.729697	 0.218542	 1.951829	 -1.102916	 -2.156618	 0.482779	 0.592269	 -0.625778	 -0.156664	 2
1463630690.642	 18	 0.379723	 0.758376	 0.218684	 1.950837	 -1.102289	 -2.168033	 0.486032	 0.589514	 -0.625093	 -0.159702	 2
1463630690.652	 18	 0.384922	 0.728638	 0.224795	 1.949576	 -1.101648	 -2.179346	 0.489159	 0.586787	 -0.624467	 -0.162622	 2
1463630690.662	 18	 0.339303	 0.554385	 0.231031	 1.947481	 -1.100822	 -2.188446	 0.491420	 0.584634	 -0.624210	 -0.164535	 2
1463630690.672	 18	 0.306360	 0.355606	 0.233731	 1.944121	 -1.099799	 -2.196742	 0.493101	 0.582752	 -0.624321	 -0.165754	 2
1463630690.682	 18	 0.314368	 0.230191	 0.249547	 1.939293	 -1.098636	 -2.205037	 0.494357	 0.580970	 -0.624791	 -0.166497	 2
1463630690.692	 18	 0.366592	 0.195119	 0.274344	 1.933000	 -1.097396	 -2.214332	 0.495458	 0.579046	 -0.625541	 -0.167107	 2
1463630690.702	 18	 0.451224	 0.246077	 0.295397	 1.925471	 -1.096174	 -2.225363	 0.496656	 0.576791	 -0.626457	 -0.167919	 2
1463630690.712	 18	 0.541362	 0.348999	 0.297701	 1.917193	 -1.095151	 -2.238291	 0.498087	 0.574145	 -0.627406	 -0.169201	 2
1463630690.722	 18	 0.596225	 0.458247	 0.277990	 1.908991	 -1.094445	 -2.252376	 0.499756	 0.571237	 -0.628243	 -0.171006	 2
1463630690.732	 18	 0.598626	 0.539919	 0.247822	 1.901579	 -1.094010	 -2.266589	 0.501605	 0.568259	 -0.628870	 -0.173197	 2
1463630690.742	 18	 0.545344	 0.577122	 0.223054	 1.895578	 -1.093652	 -2.279767	 0.503558	 0.565422	 -0.629226	 -0.175505	 2
1463630690.752	 18	 0.465236	 0.569846	 0.214092	 1.891113	 -1.093146	 -2.291275	 0.505549	 0.562842	 -0.629333	 -0.177675	 2
1463630690.762	 18	 0.381590	 0.484995	 0.212965	 1.887592	 -1.092379	 -2.301000	 0.507398	 0.560585	 -0.629354	 -0.179456	 2
1463630690.772	 18	 0.313736	 0.339597	 0.229255	 1.883999	 -1.091281	 -2.309304	 0.508914	 0.558640	 -0.629518	 -0.180649	 2
1463630690.782	 18	 0.268365	 0.195320	 0.262412	 1.879736	 -1.089718	 -2.316714	 0.510096	 0.556910	 -0.629935	 -0.181203	 2
1463630690.792	 18	 0.235988	 0.084051	 0.306420	 1.877093	 -1.088548	 -2.321518	 0.510943	 0.555750	 -0.630177	 -0.181540	 2
1463630690.802	 18	 0.224094	 0.019481	 0.344290	 1.871405	 -1.086023	 -2.328306	 0.511770	 0.554152	 -0.631025	 -0.181149	 2
1463630690.812	 18	 0.231603	 0.002656	 0.373910	 1.865261	 -1.083186	 -2.335291	 0.512588	 0.552487	 -0.631982	 -0.180585	 2
1463630690.822	 18	 0.254251	 0.043093	 0.385812	 1.859026	 -1.080224	 -2.342686	 0.513515	 0.550693	 -0.632936	 -0.180089	 2
1463630690.832	 18	 0.282332	 0.132298	 0.381050	 1.865726	 -1.085934	 -2.339471	 0.513090	 0.551795	 -0.631464	 -0.183069	 2
1463630690.842	 18	 0.313681	 0.236275	 0.358297	 1.860299	 -1.083320	 -2.347993	 0.514481	 0.549698	 -0.632099	 -0.183283	 2
1463630690.852	 18	 0.329935	 0.321034	 0.319511	 1.855668	 -1.081081	 -2.356657	 0.516040	 0.547538	 -0.632520	 -0.183909	 2
1463630690.862	 18	 0.326775	 0.370681	 0.270976	 1.851907	 -1.079276	 -2.365004	 0.517651	 0.545439	 -0.632745	 -0.184843	 2
1463630690.872	 18	 0.314813	 0.380954	 0.218931	 1.860556	 -1.086597	 -2.362473	 0.517582	 0.546453	 -0.630649	 -0.189157	 2
1463630690.892	 19	 0.250163	 0.330459	 0.123105	 1.855875	 -1.085169	 -2.375736	 0.520131	 0.543230	 -0.630621	 -0.191527	 2
1463630690.902	 19	 0.218985	 0.305878	 0.094372	 1.854332	 -1.084832	 -2.381000	 0.521169	 0.541953	 -0.630523	 -0.192641	 2
1463630690.912	 19	 0.191116	 0.310045	 0.073301	 1.861779	 -1.094890	 -2.378106	 0.519833	 0.543593	 -0.628699	 -0.197530	 2
1463630690.922	 19	 0.177197	 0.316330	 0.054297	 1.861265	 -1.094838	 -2.382225	 0.520804	 0.542564	 -0.628426	 -0.198665	 2
1463630690.932	 19	 0.187809	 0.317246	 0.038227	 1.860784	 -1.094956	 -2.386329	 0.521732	 0.541561	 -0.628140	 -0.199868	 2
1463630690.942	 19	 0.209062	 0.311747	 0.022004	 1.859977	 -1.095287	 -2.390767	 0.522584	 0.540537	 -0.627900	 -0.201168	 2
1463630690.952	 19	 0.217398	 0.292441	 0.004659	 1.863405	 -1.105135	 -2.391312	 0.520966	 0.541621	 -0.626754	 -0.205962	 2
1463630690.962	 19	 0.226832	 0.264688	 -0.005274	 1.861878	 -1.105808	 -2.396066	 0.521580	 0.540647	 -0.626647	 -0.207291	 2
1463630690.972	 19	 0.237286	 0.225246	 -0.013192	 1.859816	 -1.106589	 -2.401010	 0.522044	 0.539697	 -0.626653	 -0.208576	 2
1463630690.982	 19	 0.234916	 0.177372	 -0.015748	 1.857282	 -1.107409	 -2.405969	 0.522350	 0.538799	 -0.626777	 -0.209754	 2
1463630690.992	 19	 0.226059	 0.114662	 -0.012023	 1.859620	 -1.115621	 -2.406006	 0.520722	 0.539866	 -0.625958	 -0.213470	 2
1463630691.002	 19	 0.223630	 0.046648	 -0.005175	 1.855914	 -1.116327	 -2.410827	 0.520659	 0.539121	 -0.626389	 -0.214244	 2
1463630691.012	 19	 0.242626	 -0.009684	 0.007991	 1.851252	 -1.116948	 -2.416061	 0.520428	 0.538360	 -0.627023	 -0.214860	 2
1463630691.022	 19	 0.268052	 -0.057548	 0.017981	 1.845536	 -1.117511	 -2.421904	 0.520045	 0.537547	 -0.627865	 -0.215365	 2
1463630691.032	 19	 0.290253	 -0.094832	 0.020611	 1.846634	 -1.125241	 -2.421370	 0.518016	 0.538838	 -0.627397	 -0.218373	 2
1463630691.042	 19	 0.306061	 -0.132147	 0.014797	 1.839203	 -1.125885	 -2.428241	 0.517346	 0.537977	 -0.628548	 -0.218769	 2
1463630691.052	 19	 0.312188	 -0.176956	 -0.001660	 1.831228	 -1.126665	 -2.435233	 0.516492	 0.537174	 -0.629816	 -0.219115	 2
1463630691.062	 19	 0.317163	 -0.231405	 -0.027788	 1.822743	 -1.127670	 -2.442220	 0.515404	 0.536472	 -0.631201	 -0.219412	 2
1463630691.072	 19	 0.311437	 -0.278432	 -0.060169	 1.821765	 -1.134524	 -2.441925	 0.513045	 0.537824	 -0.631211	 -0.221590	 2
1463630691.082	 19	 0.289768	 -0.315814	 -0.089120	 1.820010	 -1.140563	 -2.441851	 0.510730	 0.539064	 -0.631420	 -0.223324	 2
1463630691.092	 19	 0.251081	 -0.343562	 -0.116764	 1.817840	 -1.145929	 -2.441709	 0.508455	 0.540253	 -0.631762	 -0.224672	 2
1463630691.102	 19	 0.203925	 -0.359568	 -0.142092	 1.815611	 -1.150892	 -2.441218	 0.506180	 0.541468	 -0.632167	 -0.225742	 2
1463630691.112	 19	 0.149446	 -0.359506	 -0.155472	 1.809265	 -1.152773	 -2.444213	 0.504438	 0.541746	 -0.633349	 -0.225662	 2
1463630691.122	 19	 0.109014	 -0.331752	 -0.158059	 1.804096	 -1.154588	 -2.446146	 0.502797	 0.542152	 -0.634348	 -0.225540	 2
1463630691.132	 19	 0.092248	 -0.272089	 -0.150964	 1.799917	 -1.156291	 -2.447553	 0.501359	 0.542563	 -0.635157	 -0.225478	 2
1463630691.142	 19	 0.105492	 -0.181668	 -0.142783	 1.801732	 -1.160045	 -2.444268	 0.499954	 0.543823	 -0.634894	 -0.226302	 2
1463630691.152	 19	 0.132717	 -0.072144	 -0.135607	 1.798647	 -1.161673	 -2.446537	 0.499118	 0.543884	 -0.635328	 -0.226780	 2
1463630691.162	 19	 0.168547	 0.049078	 -0.125199	 1.795929	 -1.163277	 -2.449710	 0.498651	 0.543677	 -0.635566	 -0.227635	 2
1463630691.172	 19	 0.206482	 0.158640	 -0.108523	 1.793343	 -1.164824	 -2.453974	 0.498539	 0.543176	 -0.635645	 -0.228853	 2
1463630691.182	 19	 0.201482	 0.221547	 -0.087630	 1.804856	 -1.166350	 -2.446020	 0.499587	 0.544101	 -0.633608	 -0.230016	 2
1463630691.192	 19	 0.166519	 0.256908	 -0.065682	 1.803697	 -1.167445	 -2.449975	 0.499976	 0.543433	 -0.633388	 -0.231355	 2
1463630691.202	 19	 0.106981	 0.290176	 -0.048867	 1.803967	 -1.168247	 -2.452753	 0.500582	 0.542843	 -0.632958	 -0.232601	 2
1463630691.212	 19	 0.007921	 0.319277	 -0.036011	 1.806534	 -1.168708	 -2.453351	 0.501422	 0.542473	 -0.632222	 -0.233655	 2
1463630691.222	 19	 -0.103924	 0.360141	 -0.017572	 1.830318	 -1.166732	 -2.434367	 0.504339	 0.544140	 -0.628550	 -0.233407	 2
1463630691.232	 19	 -0.212439	 0.415901	 0.000944	 1.838548	 -1.166282	 -2.429769	 0.505803	 0.544266	 -0.627028	 -0.234037	 2
1463630691.242	 19	 -0.281385	 0.490681	 0.018227	 1.849190	 -1.165422	 -2.423313	 0.507630	 0.544518	 -0.625122	 -0.234595	 2
1463630691.252	 19	 -0.285190	 0.574839	 0.035029	 1.860965	 -1.164321	 -2.416532	 0.509781	 0.544687	 -0.622964	 -0.235277	 2
1463630691.262	 19	 -0.235663	 0.651408	 0.053429	 1.872085	 -1.163058	 -2.411239	 0.512170	 0.544535	 -0.620789	 -0.236190	 2
1463630691.272	 19	 -0.155221	 0.717285	 0.076788	 1.882504	 -1.161855	 -2.407533	 0.514745	 0.544070	 -0.618590	 -0.237428	 2
1463630691.282	 19	 -0.070616	 0.762925	 0.097791	 1.891372	 -1.160686	 -2.406076	 0.517432	 0.543216	 -0.616508	 -0.238952	 2
1463630691.292	 19	 0.004207	 0.779797	 0.107954	 1.898638	 -1.159641	 -2.406615	 0.520123	 0.542050	 -0.614588	 -0.240698	 2
1463630691.302	 19	 0.067223	 0.784981	 0.114914	 1.904497	 -1.158745	 -2.408779	 0.522772	 0.540646	 -0.612822	 -0.242612	 2
1463630691.312	 19	 0.113073	 0.776342	 0.115500	 1.909193	 -1.157982	 -2.412150	 0.525344	 0.539079	 -0.611201	 -0.244625	 2
1463630691.322	 19	 0.147094	 0.760192	 0.102265	 1.913045	 -1.157456	 -2.416290	 0.527788	 0.537439	 -0.609692	 -0.246728	 2
1463630691.332	 19	 0.174708	 0.744053	 0.088019	 1.916233	 -1.157156	 -2.420978	 0.530106	 0.535760	 -0.608275	 -0.248898	 2
1463630691.342	 19	 0.202321	 0.732131	 0.068484	 1.918845	 -1.157126	 -2.426145	 0.532289	 0.534057	 -0.606937	 -0.251155	 2
1463630691.352	 19	 0.246963	 0.705312	 0.055057	 1.920476	 -1.157377	 -2.432146	 0.534310	 0.532288	 -0.605738	 -0.253503	 2
1463630691.362	 19	 0.287324	 0.674267	 0.043759	 1.921009	 -1.157893	 -2.439012	 0.536145	 0.530459	 -0.604706	 -0.255917	 2
1463630691.372	 19	 0.320239	 0.646451	 0.034687	 1.920560	 -1.158626	 -2.446634	 0.537812	 0.528579	 -0.603825	 -0.258376	 2
1463630691.382	 19	 0.345754	 0.631436	 0.027931	 1.919360	 -1.159516	 -2.454861	 0.539360	 0.526653	 -0.603052	 -0.260876	 2
1463630691.392	 19	 0.354404	 0.628198	 0.026585	 1.917802	 -1.160471	 -2.463417	 0.540861	 0.524691	 -0.602319	 -0.263403	 2
1463630691.402	 19	 0.332052	 0.637861	 0.030067	 1.916572	 -1.161356	 -2.471670	 0.542394	 0.522753	 -0.601528	 -0.265897	 2
1463630691.412	 19	 0.300135	 0.658167	 0.030534	 1.916169	 -1.162119	 -2.479212	 0.544019	 0.520876	 -0.600602	 -0.268344	 2
1463630691.422	 19	 0.264983	 0.680532	 0.020390	 1.916779	 -1.162821	 -2.485908	 0.545739	 0.519078	 -0.599506	 -0.270775	 2
1463630691.432	 19	 0.220104	 0.692158	 -0.007886	 1.918625	 -1.163604	 -2.491412	 0.547491	 0.517444	 -0.598222	 -0.273195	 2
1463630691.442	 19	 0.192145	 0.679199	 -0.046131	 1.921441	 -1.164623	 -2.495788	 0.549168	 0.516017	 -0.596808	 -0.275611	 2
1463630691.452	 19	 0.173636	 0.638517	 -0.090045	 1.924689	 -1.165981	 -2.499328	 0.550655	 0.514805	 -0.595369	 -0.278012	 2
1463630691.462	 19	 0.170063	 0.586183	 -0.121408	 1.927888	 -1.167650	 -2.502368	 0.551904	 0.513779	 -0.593994	 -0.280364	 2
1463630691.472	 19	 0.187939	 0.539250	 -0.132658	 1.930480	 -1.169511	 -2.505525	 0.552945	 0.512829	 -0.592756	 -0.282663	 2
1463630691.482	 19	 0.223004	 0.503018	 -0.127971	 1.931929	 -1.171488	 -2.509494	 0.553817	 0.511831	 -0.591708	 -0.284950	 2
1463630691.492	 19	 0.253855	 0.473228	 -0.116794	 1.932265	 -1.173480	 -2.514343	 0.554579	 0.510747	 -0.590835	 -0.287216	 2
1463630691.502	 19	 0.285719	 0.431734	 -0.105734	 1.931391	 -1.175480	 -2.520091	 0.555208	 0.509589	 -0.590159	 -0.289438	 2
1463630691.512	 19	 0.301536	 0.383890	 -0.096725	 1.929459	 -1.177451	 -2.526473	 0.555692	 0.508405	 -0.589677	 -0.291566	 2
1463630691.522	 19	 0.307705	 0.333887	 -0.096178	 1.926750	 -1.179422	 -2.533138	 0.556017	 0.507259	 -0.589360	 -0.293579	 2
1463630691.532	 19	 0.303230	 0.285017	 -0.090199	 1.923551	 -1.181333	 -2.539806	 0.556212	 0.506179	 -0.589172	 -0.295445	 2
1463630691.542	 19	 0.293498	 0.252126	 -0.082961	 1.920061	 -1.183147	 -2.546392	 0.556326	 0.505154	 -0.589072	 -0.297178	 2
1463630691.552	 19	 0.277426	 0.236272	 -0.075527	 1.922070	 -1.188387	 -2.547637	 0.555720	 0.505347	 -0.588047	 -0.300000	 2
1463630691.562	 19	 0.257186	 0.233234	 -0.062590	 1.918825	 -1.189904	 -2.553652	 0.555846	 0.504407	 -0.587961	 -0.301513	 2
1463630691.572	 19	 0.225251	 0.241909	 -0.052639	 1.916205	 -1.191217	 -2.559054	 0.556059	 0.503514	 -0.587799	 -0.302928	 2
1463630691.582	 19	 0.188972	 0.235697	 -0.043855	 1.914286	 -1.192321	 -2.563685	 0.556342	 0.502697	 -0.587566	 -0.304215	 2
1463630691.592	 19	 0.153492	 0.175258	 -0.032409	 1.919428	 -1.197428	 -2.561226	 0.555759	 0.503422	 -0.586214	 -0.306678	 2
1463630691.602	 19	 0.114874	 0.134938	 -0.034579	 1.918125	 -1.198159	 -2.564147	 0.555901	 0.502928	 -0.586084	 -0.307477	 2
1463630691.612	 19	 0.075186	 0.100942	 -0.045208	 1.917602	 -1.198842	 -2.565901	 0.555991	 0.502632	 -0.585920	 -0.308112	 2
1463630691.622	 19	 0.054611	 0.037190	 -0.044556	 1.917175	 -1.199458	 -2.566953	 0.555953	 0.502505	 -0.585840	 -0.308540	 2
1463630691.632	 19	 0.058569	 -0.028746	 -0.042046	 1.917596	 -1.206060	 -2.566594	 0.554076	 0.503606	 -0.585381	 -0.310981	 2
1463630691.642	 19	 0.059253	 -0.107476	 -0.044916	 1.915635	 -1.206673	 -2.567759	 0.553618	 0.503687	 -0.585705	 -0.311055	 2
1463630691.652	 19	 0.047122	 -0.198839	 -0.035003	 1.912998	 -1.207231	 -2.568702	 0.552922	 0.503927	 -0.586254	 -0.310874	 2
1463630691.662	 19	 0.022253	 -0.267897	 -0.034364	 1.910028	 -1.207634	 -2.569190	 0.552057	 0.504318	 -0.586973	 -0.310417	 2
1463630691.672	 19	 -0.007878	 -0.309344	 -0.041987	 1.914422	 -1.214400	 -2.562212	 0.549619	 0.506648	 -0.586429	 -0.311974	 2
1463630691.682	 19	 -0.036694	 -0.307154	 -0.044913	 1.912403	 -1.214714	 -2.561033	 0.548636	 0.507337	 -0.587148	 -0.311232	 2
1463630691.692	 19	 -0.091942	 -0.250660	 -0.050301	 1.912134	 -1.214936	 -2.558492	 0.547847	 0.508110	 -0.587603	 -0.310500	 2
1463630691.702	 19	 -0.175888	 -0.188599	 -0.033006	 1.914330	 -1.214787	 -2.553984	 0.547389	 0.508981	 -0.587710	 -0.309678	 2
1463630691.712	 19	 -0.281141	 -0.089381	 -0.033319	 1.943684	 -1.218621	 -2.524491	 0.547326	 0.513094	 -0.584032	 -0.309959	 2
1463630691.722	 19	 -0.418124	 0.057778	 -0.036085	 1.953909	 -1.217556	 -2.513802	 0.547879	 0.514282	 -0.582939	 -0.309070	 2
1463630691.732	 19	 -0.561380	 0.218900	 -0.022681	 1.969080	 -1.215792	 -2.499517	 0.549140	 0.515607	 -0.581061	 -0.308161	 2
1463630691.742	 19	 -0.686529	 0.384123	 -0.023251	 1.988935	 -1.213392	 -2.481992	 0.551086	 0.517043	 -0.578389	 -0.307306	 2
1463630691.752	 19	 -0.787383	 0.508751	 -0.038266	 2.012646	 -1.210514	 -2.461804	 0.553558	 0.518603	 -0.575030	 -0.306538	 2
1463630691.762	 19	 -0.863993	 0.568439	 -0.051964	 2.038876	 -1.207235	 -2.439726	 0.556326	 0.520309	 -0.571208	 -0.305780	 2
1463630691.772	 19	 -0.919523	 0.566423	 -0.058960	 2.066293	 -1.203538	 -2.416474	 0.559184	 0.522182	 -0.567165	 -0.304898	 2
1463630691.782	 19	 -0.953801	 0.535710	 -0.054684	 2.093786	 -1.199407	 -2.392846	 0.562021	 0.524179	 -0.563077	 -0.303830	 2
1463630691.792	 19	 -0.986006	 0.485899	 -0.043144	 2.120829	 -1.194811	 -2.369170	 0.564784	 0.526296	 -0.559030	 -0.302520	 2
1463630691.802	 19	 -1.028965	 0.405389	 -0.015809	 2.147018	 -1.189584	 -2.345575	 0.567442	 0.528550	 -0.555106	 -0.300833	 2
1463630691.812	 19	 -1.099653	 0.334480	 0.004396	 2.172721	 -1.183565	 -2.321629	 0.570036	 0.531009	 -0.551250	 -0.298683	 2
1463630691.822	 19	 -1.165135	 0.251725	 0.006328	 2.198179	 -1.176891	 -2.297067	 0.572514	 0.533740	 -0.547417	 -0.296116	 2
1463630691.832	 19	 -1.224239	 0.174176	 -0.004537	 2.223223	 -1.169653	 -2.271967	 0.574818	 0.536764	 -0.543630	 -0.293148	 2
1463630691.842	 19	 -1.259747	 0.152660	 -0.052387	 2.248347	 -1.162221	 -2.246318	 0.576961	 0.540044	 -0.539753	 -0.290060	 2
1463630691.852	 19	 -1.247226	 0.141560	 -0.111217	 2.273268	 -1.154991	 -2.220682	 0.578892	 0.543483	 -0.535808	 -0.287088	 2
1463630691.862	 19	 -1.206951	 0.137777	 -0.176614	 2.297645	 -1.148221	 -2.195516	 0.580566	 0.546997	 -0.531859	 -0.284365	 2
1463630691.882	 20	 -1.096997	 0.028023	 -0.306484	 2.343475	 -1.136508	 -2.147023	 0.582804	 0.554255	 -0.524376	 -0.279591	 2
1463630691.893	 20	 -1.066821	 -0.085243	 -0.366418	 2.364480	 -1.131430	 -2.123206	 0.583170	 0.558161	 -0.521073	 -0.277223	 2
1463630691.902	 20	 -1.072706	 -0.157927	 -0.418202	 2.385362	 -1.126782	 -2.098613	 0.583069	 0.562379	 -0.517886	 -0.274872	 2
1463630691.912	 20	 -1.120926	 -0.162362	 -0.462585	 2.406313	 -1.121726	 -2.073551	 0.582879	 0.566777	 -0.514629	 -0.272348	 2
1463630691.923	 20	 -1.189224	 -0.125254	 -0.506407	 2.428606	 -1.116237	 -2.047267	 0.582708	 0.571409	 -0.511017	 -0.269822	 2
1463630691.933	 20	 -1.221317	 -0.111593	 -0.542237	 2.451700	 -1.110386	 -2.020277	 0.582527	 0.576208	 -0.507139	 -0.267314	 2
1463630691.943	 20	 -1.189529	 -0.139514	 -0.566220	 2.474254	 -1.104546	 -1.993614	 0.582175	 0.581053	 -0.503291	 -0.264854	 2
1463630691.953	 20	 -1.095969	 -0.205804	 -0.576177	 2.494868	 -1.099169	 -1.968396	 0.581508	 0.585784	 -0.499809	 -0.262481	 2
1463630691.963	 20	 -0.992748	 -0.269911	 -0.574475	 2.513146	 -1.094402	 -1.944982	 0.580513	 0.590328	 -0.496803	 -0.260202	 2
1463630691.973	 20	 -0.894831	 -0.329724	 -0.569490	 2.529279	 -1.090246	 -1.923275	 0.579233	 0.594669	 -0.494249	 -0.258024	 2
1463630691.983	 20	 -0.794818	 -0.447613	 -0.505381	 2.542462	 -1.086515	 -1.903791	 0.577699	 0.598753	 -0.492297	 -0.255740	 2
1463630691.993	 20	 -0.733255	 -0.563336	 -0.451574	 2.552243	 -1.082860	 -1.886774	 0.575992	 0.602571	 -0.490991	 -0.253118	 2
1463630692.003	 20	 -0.693167	 -0.613859	 -0.508878	 2.561089	 -1.079728	 -1.869835	 0.573893	 0.606470	 -0.490009	 -0.250463	 2
1463630692.013	 20	 -0.688284	 -0.648438	 -0.581715	 2.570534	 -1.077029	 -1.851922	 0.571484	 0.610556	 -0.489031	 -0.247944	 2
1463630692.023	 20	 -0.698630	 -0.746769	 -0.651814	 2.580174	 -1.074559	 -1.832780	 0.568637	 0.614955	 -0.488168	 -0.245304	 2
1463630692.033	 20	 -0.725090	 -0.884260	 -0.701888	 2.589543	 -1.072173	 -1.812537	 0.565311	 0.619688	 -0.487508	 -0.242376	 2
1463630692.043	 20	 -0.753361	 -0.976871	 -0.723819	 2.598282	 -1.069486	 -1.791597	 0.561637	 0.624701	 -0.487021	 -0.239006	 2
1463630692.053	 20	 -0.741365	 -0.878371	 -0.776295	 2.607901	 -1.066995	 -1.770139	 0.557903	 0.629727	 -0.486358	 -0.235891	 2
1463630692.063	 20	 -0.697938	 -0.930761	 -0.796344	 2.617751	 -1.064884	 -1.748509	 0.554009	 0.634732	 -0.485704	 -0.232983	 2
1463630692.073	 20	 -0.615583	 -0.910635	 -0.774493	 2.626415	 -1.063212	 -1.728035	 0.550022	 0.639503	 -0.485317	 -0.230171	 2
1463630692.093	 21	 -0.474234	 -0.856393	 -0.717668	 2.641625	 -1.061515	 -1.691007	 0.542228	 0.648016	 -0.484997	 -0.225479	 2
1463630692.103	 21	 -0.435547	 -0.853910	 -0.652970	 2.647394	 -1.060789	 -1.674593	 0.538477	 0.651865	 -0.485111	 -0.223117	 2
1463630692.113	 21	 -0.387272	 -0.843046	 -0.602133	 2.651971	 -1.060161	 -1.659651	 0.534863	 0.655422	 -0.485393	 -0.220767	 2
1463630692.123	 21	 -0.335713	 -0.803574	 -0.564913	 2.655765	 -1.059768	 -1.645951	 0.531382	 0.658692	 -0.485793	 -0.218550	 2
1463630692.133	 21	 -0.301219	 -0.751379	 -0.540215	 2.659306	 -1.059586	 -1.633144	 0.528060	 0.661716	 -0.486204	 -0.216543	 2
1463630692.143	 21	 -0.314877	 -0.731967	 -0.509008	 2.662679	 -1.059244	 -1.620853	 0.524890	 0.664620	 -0.486557	 -0.214554	 2
1463630692.153	 21	 -0.352202	 -0.760281	 -0.468448	 2.665588	 -1.058322	 -1.608927	 0.521854	 0.667519	 -0.486841	 -0.212304	 2
1463630692.163	 21	 -0.382215	 -0.828975	 -0.419800	 2.667344	 -1.056952	 -1.597623	 0.518839	 0.670408	 -0.487235	 -0.209668	 2
1463630692.173	 21	 -0.386691	 -0.911588	 -0.373637	 2.667611	 -1.055263	 -1.587083	 0.515779	 0.673273	 -0.487838	 -0.206612	 2
1463630692.183	 21	 -0.356919	 -0.969870	 -0.331808	 2.666338	 -1.053565	 -1.577536	 0.512665	 0.676027	 -0.488714	 -0.203274	 2
1463630692.193	 21	 -0.302370	 -0.978242	 -0.290796	 2.663806	 -1.052124	 -1.569200	 0.509575	 0.678557	 -0.489835	 -0.199889	 2
1463630692.203	 21	 -0.253054	 -0.952667	 -0.264343	 2.660490	 -1.051020	 -1.561932	 0.506562	 0.680843	 -0.491115	 -0.196606	 2
1463630692.213	 21	 -0.199663	 -0.951710	 -0.257339	 2.656744	 -1.050348	 -1.555308	 0.503547	 0.682949	 -0.492534	 -0.193472	 2
1463630692.223	 21	 -0.170749	 -0.947395	 -0.237301	 2.652442	 -1.049920	 -1.549348	 0.500552	 0.684901	 -0.494076	 -0.190387	 2
1463630692.233	 21	 -0.151372	 -0.920783	 -0.226564	 2.647916	 -1.049617	 -1.543835	 0.497616	 0.686734	 -0.495648	 -0.187369	 2
1463630692.243	 21	 -0.129690	 -0.838996	 -0.233463	 2.648869	 -1.048280	 -1.534201	 0.494866	 0.689171	 -0.495962	 -0.184859	 2
1463630692.253	 21	 -0.116529	 -0.746650	 -0.254034	 2.645949	 -1.048419	 -1.528712	 0.492213	 0.690780	 -0.497223	 -0.182536	 2
1463630692.263	 21	 -0.122763	 -0.697818	 -0.269512	 2.643952	 -1.048625	 -1.522875	 0.489647	 0.692373	 -0.498297	 -0.180461	 2
1463630692.273	 21	 -0.129192	 -0.698901	 -0.274795	 2.642245	 -1.048819	 -1.516813	 0.487073	 0.693986	 -0.499308	 -0.178422	 2
1463630692.283	 21	 -0.132528	 -0.726498	 -0.268634	 2.644974	 -1.046766	 -1.506719	 0.484746	 0.696409	 -0.499000	 -0.176169	 2
1463630692.293	 21	 -0.126193	 -0.765657	 -0.239213	 2.642252	 -1.046824	 -1.501137	 0.482107	 0.697990	 -0.500161	 -0.173845	 2
1463630692.303	 21	 -0.112417	 -0.831252	 -0.185589	 2.638122	 -1.046773	 -1.496517	 0.479470	 0.699462	 -0.501539	 -0.171228	 2
1463630692.313	 21	 -0.100844	 -0.926492	 -0.114104	 2.632002	 -1.046508	 -1.493185	 0.476832	 0.700805	 -0.503215	 -0.168161	 2
1463630692.323	 21	 -0.092585	 -1.038787	 -0.049144	 2.624419	 -1.045432	 -1.490496	 0.474241	 0.702186	 -0.504957	 -0.164467	 2
1463630692.333	 21	 -0.089681	 -1.144785	 0.002067	 2.614147	 -1.044688	 -1.489427	 0.471448	 0.703348	 -0.507276	 -0.160341	 2
1463630692.343	 21	 -0.090852	 -1.202967	 0.045232	 2.602498	 -1.043743	 -1.489118	 0.468611	 0.704436	 -0.509789	 -0.155849	 2
1463630692.353	 21	 -0.114166	 -1.201547	 0.084881	 2.590306	 -1.042434	 -1.489275	 0.465876	 0.705462	 -0.512283	 -0.151157	 2
1463630692.363	 21	 -0.133993	 -1.132123	 0.116604	 2.579456	 -1.040519	 -1.488805	 0.463404	 0.706561	 -0.514340	 -0.146569	 2
1463630692.373	 21	 -0.109868	 -1.006588	 0.130351	 2.568311	 -1.038822	 -1.489666	 0.461262	 0.707325	 -0.516415	 -0.142285	 2
1463630692.383	 21	 -0.038677	 -0.839866	 0.122757	 2.558240	 -1.037635	 -1.491097	 0.459462	 0.707811	 -0.518326	 -0.138696	 2
1463630692.393	 21	 0.068823	 -0.654221	 0.099036	 2.549352	 -1.037388	 -1.493275	 0.457988	 0.707944	 -0.520152	 -0.136033	 2
1463630692.403	 21	 0.179478	 -0.486836	 0.052604	 2.541722	 -1.038278	 -1.496028	 0.456748	 0.707752	 -0.521937	 -0.134348	 2
1463630692.413	 21	 0.282231	 -0.361099	 -0.020658	 2.535324	 -1.040394	 -1.498906	 0.455553	 0.707342	 -0.523740	 -0.133549	 2
1463630692.423	 21	 0.396933	 -0.169636	 -0.118991	 2.530769	 -1.043921	 -1.501556	 0.454388	 0.706744	 -0.525487	 -0.133821	 2
1463630692.433	 21	 0.522907	 0.180004	 -0.254318	 2.529815	 -1.049210	 -1.503629	 0.453506	 0.705887	 -0.526889	 -0.135811	 2
1463630692.443	 21	 0.569802	 0.522295	 -0.408208	 2.533915	 -1.055979	 -1.504068	 0.452992	 0.704920	 -0.527620	 -0.139652	 2
1463630692.453	 21	 0.398286	 0.432825	 -0.494940	 2.541268	 -1.062411	 -1.501238	 0.452273	 0.704470	 -0.527763	 -0.143658	 2
1463630692.463	 21	 0.115664	 -0.275185	 -0.413806	 2.545501	 -1.066522	 -1.495753	 0.450396	 0.705028	 -0.528234	 -0.145079	 2
1463630692.473	 21	 -0.054961	 -1.388380	 -0.133858	 2.537869	 -1.067467	 -1.491840	 0.446751	 0.706366	 -0.530463	 -0.141667	 2
1463630692.483	 21	 -0.010490	 -2.156476	 0.153824	 2.516877	 -1.066715	 -1.492928	 0.441741	 0.707640	 -0.534863	 -0.134284	 2
1463630692.493	 21	 0.084675	 -2.302988	 0.375442	 2.488508	 -1.065291	 -1.499072	 0.436665	 0.708253	 -0.540345	 -0.125414	 2
1463630692.503	 21	 0.106883	 -2.027488	 0.534479	 2.459074	 -1.063027	 -1.508515	 0.432622	 0.708161	 -0.545625	 -0.116788	 2
1463630692.513	 21	 0.090456	 -1.495142	 0.602456	 2.433479	 -1.059959	 -1.519076	 0.430179	 0.707553	 -0.549826	 -0.109575	 2
1463630692.523	 21	 0.102439	 -0.955175	 0.559417	 2.413808	 -1.056893	 -1.529208	 0.429175	 0.706631	 -0.552802	 -0.104361	 2
1463630692.533	 21	 0.159365	 -0.586828	 0.482417	 2.398886	 -1.054586	 -1.538729	 0.429038	 0.705496	 -0.554990	 -0.100935	 2
1463630692.543	 21	 0.231054	 -0.419032	 0.329884	 2.386964	 -1.053594	 -1.547254	 0.429003	 0.704320	 -0.556899	 -0.098759	 2
1463630692.553	 21	 0.248180	 -0.411436	 0.064431	 2.378203	 -1.054458	 -1.552704	 0.428238	 0.703534	 -0.558701	 -0.097496	 2
1463630692.563	 21	 0.213002	 -0.600728	 -0.238635	 2.372136	 -1.057212	 -1.553478	 0.426044	 0.703516	 -0.560564	 -0.096536	 2
1463630692.573	 21	 0.141719	 -1.005592	 -0.509288	 2.366878	 -1.061479	 -1.549276	 0.421894	 0.704431	 -0.562814	 -0.094989	 2
1463630692.583	 21	 0.041328	 -1.523734	 -0.718928	 2.360729	 -1.066666	 -1.540396	 0.415571	 0.706297	 -0.565650	 -0.092116	 2
1463630692.593	 21	 -0.041475	 -2.010416	 -0.836772	 2.352579	 -1.072242	 -1.528080	 0.407330	 0.708889	 -0.569098	 -0.087668	 2
1463630692.603	 21	 -0.031494	 -2.354239	 -0.870965	 2.341571	 -1.078129	 -1.514690	 0.397764	 0.711719	 -0.573169	 -0.081964	 2
1463630692.613	 21	 0.118334	 -2.504528	 -0.854485	 2.326977	 -1.084838	 -1.503131	 0.387533	 0.714180	 -0.577952	 -0.075741	 2
1463630692.623	 21	 0.400385	 -2.469977	 -0.816120	 2.308307	 -1.093097	 -1.496141	 0.377242	 0.715726	 -0.583561	 -0.069870	 2
1463630692.633	 21	 0.727863	 -2.329009	 -0.751582	 2.285163	 -1.103148	 -1.495527	 0.367316	 0.716061	 -0.590025	 -0.064853	 2
1463630692.643	 21	 1.004398	 -2.156801	 -0.653272	 2.257535	 -1.114386	 -1.501829	 0.358070	 0.715193	 -0.597160	 -0.060702	 2
1463630692.653	 21	 1.208395	 -1.972730	 -0.561680	 2.226027	 -1.126174	 -1.514393	 0.349576	 0.713331	 -0.604709	 -0.057295	 2
1463630692.663	 21	 1.332236	 -1.784419	 -0.504520	 2.191938	 -1.138094	 -1.531833	 0.341806	 0.710764	 -0.612374	 -0.054606	 2
1463630692.673	 21	 1.374800	 -1.614110	 -0.469202	 2.156522	 -1.149805	 -1.552560	 0.334648	 0.707790	 -0.619907	 -0.052526	 2
1463630692.683	 21	 1.323314	 -1.484902	 -0.419592	 2.121049	 -1.160669	 -1.574807	 0.328060	 0.704715	 -0.627038	 -0.050759	 2
1463630692.693	 21	 1.205910	 -1.270697	 -0.409116	 2.087752	 -1.170490	 -1.596565	 0.322120	 0.701812	 -0.633450	 -0.049384	 2
1463630692.703	 21	 1.058734	 -1.025625	 -0.407686	 2.058625	 -1.179349	 -1.616379	 0.316971	 0.699244	 -0.638923	 -0.048636	 2
1463630692.713	 21	 0.911351	 -0.824163	 -0.406659	 2.033824	 -1.187292	 -1.633754	 0.312531	 0.697057	 -0.643502	 -0.048386	 2
1463630692.723	 21	 0.787067	 -0.678291	 -0.435127	 2.012979	 -1.194690	 -1.648547	 0.308559	 0.695254	 -0.647345	 -0.048553	 2
1463630692.733	 21	 0.706239	 -0.585810	 -0.475127	 1.995088	 -1.201951	 -1.661228	 0.304794	 0.693767	 -0.650677	 -0.049062	 2
1463630692.743	 21	 0.677836	 -0.472151	 -0.506861	 1.979026	 -1.209287	 -1.673023	 0.301245	 0.692427	 -0.653680	 -0.049979	 2
1463630692.753	 21	 0.700934	 -0.298032	 -0.540612	 1.964092	 -1.216886	 -1.685281	 0.298098	 0.691047	 -0.656455	 -0.051565	 2
1463630692.763	 21	 0.760466	 -0.105823	 -0.558525	 1.949397	 -1.224821	 -1.699289	 0.295484	 0.689464	 -0.659103	 -0.053962	 2
1463630692.773	 21	 0.832809	 0.067379	 -0.552215	 1.933988	 -1.232952	 -1.715936	 0.293436	 0.687584	 -0.661713	 -0.057090	 2
1463630692.783	 21	 0.881481	 0.173864	 -0.515412	 1.917241	 -1.240914	 -1.735264	 0.291874	 0.685424	 -0.664325	 -0.060629	 2
1463630692.793	 21	 0.909743	 0.222171	 -0.442737	 1.898669	 -1.248262	 -1.757106	 0.290717	 0.683023	 -0.666964	 -0.064207	 2
1463630692.803	 21	 0.911165	 0.217537	 -0.347939	 1.878184	 -1.254650	 -1.781015	 0.289888	 0.680441	 -0.669630	 -0.067531	 2
1463630692.813	 21	 0.883594	 0.162049	 -0.237376	 1.856018	 -1.259798	 -1.806190	 0.289276	 0.677769	 -0.672312	 -0.070320	 2
1463630692.823	 21	 0.829013	 0.038551	 -0.129342	 1.832643	 -1.263581	 -1.831493	 0.288692	 0.675128	 -0.675004	 -0.072311	 2
1463630692.833	 21	 0.780764	 -0.094586	 -0.027848	 1.808179	 -1.266046	 -1.856499	 0.288017	 0.672552	 -0.677738	 -0.073421	 2
1463630692.843	 21	 0.747379	 -0.232123	 0.059621	 1.782473	 -1.267346	 -1.881364	 0.287197	 0.670006	 -0.680571	 -0.073709	 2
1463630692.853	 21	 0.745983	 -0.356090	 0.124557	 1.755241	 -1.267742	 -1.906484	 0.286176	 0.667435	 -0.683563	 -0.073314	 2
1463630692.863	 21	 0.776901	 -0.417396	 0.189794	 1.726060	 -1.267335	 -1.932781	 0.285073	 0.664709	 -0.686764	 -0.072457	 2
1463630692.873	 21	 0.851923	 -0.384345	 0.231014	 1.694884	 -1.266282	 -1.961288	 0.284146	 0.661677	 -0.690163	 -0.071552	 2
1463630692.883	 21	 0.947194	 -0.312385	 0.219130	 1.661658	 -1.265013	 -1.992661	 0.283424	 0.658277	 -0.693760	 -0.070987	 2
1463630692.893	 21	 1.028333	 -0.241911	 0.143410	 1.626867	 -1.264111	 -2.026458	 0.282714	 0.654624	 -0.697495	 -0.071001	 2
1463630692.903	 21	 1.102761	 -0.212045	 0.038596	 1.590393	 -1.263852	 -2.062426	 0.281782	 0.650815	 -0.701367	 -0.071584	 2
1463630692.913	 21	 1.180184	 -0.207872	 -0.087800	 1.551717	 -1.264411	 -2.100830	 0.280457	 0.646890	 -0.705398	 -0.072739	 2
1463630692.923	 21	 1.274562	 -0.247197	 -0.192366	 1.509610	 -1.265637	 -2.142551	 0.278619	 0.642795	 -0.709689	 -0.074350	 2
1463630692.933	 21	 1.371828	 -0.314520	 -0.343046	 1.463011	 -1.267498	 -2.188325	 0.276104	 0.638515	 -0.714307	 -0.076357	 2
1463630692.943	 21	 1.443199	 -0.452931	 -0.480308	 1.411578	 -1.270071	 -2.237868	 0.272636	 0.634183	 -0.719237	 -0.078615	 2
1463630692.953	 21	 1.486720	 -0.655772	 -0.566769	 1.355182	 -1.272687	 -2.290580	 0.268144	 0.629825	 -0.724507	 -0.080682	 2
1463630692.963	 21	 1.462123	 -0.831724	 -0.639598	 1.295574	 -1.275139	 -2.344619	 0.262708	 0.625614	 -0.729931	 -0.082410	 2
1463630692.973	 21	 1.323887	 -0.906170	 -0.694507	 1.236922	 -1.277549	 -2.396570	 0.256740	 0.621869	 -0.735068	 -0.083894	 2
1463630692.983	 21	 1.078468	 -0.867437	 -0.732509	 1.183946	 -1.280284	 -2.442674	 0.250759	 0.618940	 -0.739433	 -0.085278	 2
1463630692.993	 21	 0.774502	 -0.827209	 -0.734817	 1.139424	 -1.283648	 -2.480407	 0.245024	 0.617053	 -0.742785	 -0.086481	 2
1463630693.003	 21	 0.434760	 -0.836399	 -0.819337	 1.103363	 -1.288516	 -2.509412	 0.239295	 0.616427	 -0.745047	 -0.087525	 2
1463630693.013	 21	 0.074906	 -1.016944	 -0.927657	 1.074009	 -1.295754	 -2.529967	 0.232860	 0.617298	 -0.746293	 -0.088131	 2
1463630693.023	 21	 -0.268298	 -1.340664	 -0.972443	 1.050361	 -1.305095	 -2.541475	 0.225269	 0.619651	 -0.746730	 -0.087637	 2
1463630693.033	 21	 -0.523710	 -1.639873	 -0.975135	 1.031247	 -1.315880	 -2.545003	 0.216574	 0.623154	 -0.746591	 -0.085888	 2
1463630693.043	 21	 -0.660042	 -1.840230	 -0.938511	 1.015041	 -1.327298	 -2.543189	 0.207163	 0.627283	 -0.746114	 -0.083153	 2
1463630693.053	 21	 -0.682537	 -1.935221	 -0.846478	 1.000494	 -1.338320	 -2.538433	 0.197548	 0.631493	 -0.745548	 -0.079682	 2
1463630693.063	 21	 -0.638165	 -1.909976	 -0.720869	 0.987060	 -1.348209	 -2.532466	 0.188237	 0.635400	 -0.745045	 -0.075772	 2
1463630693.073	 21	 -0.598369	 -1.762070	 -0.549317	 0.976826	 -1.356512	 -2.524476	 0.179850	 0.638865	 -0.744558	 -0.071683	 2
1463630693.083	 21	 -0.635599	 -1.661736	 -0.369012	 0.973164	 -1.363414	 -2.511048	 0.172493	 0.642120	 -0.743908	 -0.067298	 2
1463630693.093	 21	 -0.769293	 -1.652567	 -0.185517	 0.979476	 -1.369420	 -2.487763	 0.165850	 0.645556	 -0.742884	 -0.062240	 2
1463630693.103	 21	 -1.061878	 -1.624794	 0.005929	 1.002746	 -1.375029	 -2.447225	 0.159927	 0.649691	 -0.741056	 -0.056226	 2
1463630693.113	 21	 -1.501434	 -1.480054	 0.133666	 1.050938	 -1.381372	 -2.382600	 0.154979	 0.655144	 -0.737759	 -0.049803	 2
1463630693.123	 21	 -1.952126	 -1.062299	 0.357827	 1.133247	 -1.387230	 -2.286766	 0.152031	 0.661977	 -0.732660	 -0.043381	 2
1463630693.133	 21	 -2.119702	 -0.350766	 0.580125	 1.244389	 -1.390274	 -2.168183	 0.152182	 0.669370	 -0.726179	 -0.038065	 2
1463630693.143	 21	 -2.222735	 0.266776	 0.774343	 1.371329	 -1.388780	 -2.040551	 0.155575	 0.676656	 -0.718864	 -0.034177	 2
1463630693.153	 21	 -2.366423	 0.793736	 0.781563	 1.507784	 -1.384113	 -1.908390	 0.160942	 0.684291	 -0.710517	 -0.031764	 2
1463630693.163	 21	 -2.347454	 1.340013	 0.878137	 1.642054	 -1.375516	 -1.783938	 0.168494	 0.691750	 -0.701522	 -0.030975	 2
1463630693.173	 21	 -2.190076	 1.814648	 0.978168	 1.761333	 -1.363084	 -1.679572	 0.178104	 0.698432	 -0.692440	 -0.031616	 2
1463630693.183	 21	 -2.035447	 2.196433	 1.033662	 1.863438	 -1.348283	 -1.596655	 0.189249	 0.704284	 -0.683402	 -0.033628	 2
1463630693.193	 21	 -1.880288	 2.574960	 1.226605	 1.948982	 -1.330930	 -1.534222	 0.202118	 0.709231	 -0.674392	 -0.036538	 2
1463630693.203	 21	 -1.651000	 2.975258	 1.518221	 2.016542	 -1.310865	 -1.494143	 0.217193	 0.712903	 -0.665572	 -0.040127	 2
1463630693.213	 21	 -1.407900	 3.358535	 1.814887	 2.067674	 -1.288708	 -1.474958	 0.234511	 0.715087	 -0.657028	 -0.044372	 2
1463630693.223	 21	 -1.259365	 3.624904	 2.085710	 2.107435	 -1.264785	 -1.470660	 0.253669	 0.716003	 -0.648532	 -0.048963	 2
1463630693.233	 21	 -1.266057	 3.803321	 2.338948	 2.141279	 -1.238781	 -1.474883	 0.274351	 0.716062	 -0.639628	 -0.053510	 2
1463630693.243	 21	 -1.401078	 3.610785	 2.427856	 2.172405	 -1.211159	 -1.480880	 0.295040	 0.715921	 -0.630199	 -0.057076	 2
1463630693.253	 21	 -1.627188	 3.474769	 2.353956	 2.204598	 -1.182625	 -1.483735	 0.314935	 0.716164	 -0.619968	 -0.059703	 2
1463630693.263	 21	 -1.740857	 3.262323	 2.199499	 2.238219	 -1.154369	 -1.483350	 0.333703	 0.716817	 -0.609080	 -0.061944	 2
1463630693.273	 21	 -1.707034	 2.897119	 2.013561	 2.268964	 -1.127486	 -1.482509	 0.350694	 0.717548	 -0.598418	 -0.063516	 2
1463630693.283	 21	 -1.556841	 2.354679	 1.781264	 2.294240	 -1.103107	 -1.482226	 0.365234	 0.718207	 -0.588783	 -0.064173	 2
1463630693.293	 21	 -1.364559	 1.649695	 1.591850	 2.311665	 -1.081541	 -1.483254	 0.376920	 0.718700	 -0.580850	 -0.063369	 2
1463630693.303	 21	 -1.257290	 0.977246	 1.454636	 2.321795	 -1.061914	 -1.484635	 0.385937	 0.719220	 -0.574534	 -0.060705	 2
1463630693.313	 21	 -1.113762	 0.493232	 1.356161	 2.326101	 -1.043973	 -1.486639	 0.392958	 0.719665	 -0.569607	 -0.056694	 2
1463630693.323	 21	 -0.859287	 0.141517	 1.359198	 2.324115	 -1.027749	 -1.491511	 0.398703	 0.719569	 -0.566191	 -0.051806	 2
1463630693.333	 21	 -0.564409	 -0.070513	 1.427130	 2.315813	 -1.013116	 -1.500952	 0.403848	 0.718546	 -0.564305	 -0.046462	 2
1463630693.343	 21	 -0.357336	 -0.151184	 1.533284	 2.303122	 -0.999291	 -1.514331	 0.408942	 0.716652	 -0.563475	 -0.040907	 2
1463630693.353	 21	 -0.258379	 -0.068865	 1.631238	 2.288906	 -0.985410	 -1.530067	 0.414459	 0.714138	 -0.563006	 -0.035433	 2
1463630693.363	 21	 -0.259392	 0.354800	 1.678886	 2.277799	 -0.971128	 -1.546173	 0.421081	 0.711327	 -0.561910	 -0.031015	 2
1463630693.373	 21	 -0.319855	 0.866728	 1.700162	 2.272892	 -0.956214	 -1.561422	 0.429295	 0.708450	 -0.559467	 -0.028309	 2
1463630693.383	 21	 -0.262611	 0.996450	 1.717923	 2.270247	 -0.941265	 -1.576551	 0.438075	 0.705417	 -0.556583	 -0.026317	 2
1463630693.393	 21	 -0.096141	 1.209650	 1.704482	 2.268440	 -0.927260	 -1.593266	 0.447344	 0.701867	 -0.553737	 -0.025350	 2
1463630693.403	 21	 0.081884	 1.234088	 1.626424	 2.266491	 -0.914848	 -1.611229	 0.456524	 0.697881	 -0.551283	 -0.025201	 2
1463630693.413	 21	 0.277779	 1.231617	 1.511725	 2.263896	 -0.904467	 -1.630133	 0.465245	 0.693548	 -0.549431	 -0.025774	 2
1463630693.423	 21	 0.457780	 1.261035	 1.387869	 2.260984	 -0.896175	 -1.649831	 0.473531	 0.688915	 -0.548110	 -0.027179	 2
1463630693.433	 21	 0.604285	 1.241292	 1.218019	 2.258039	 -0.890029	 -1.669611	 0.481199	 0.684173	 -0.547260	 -0.029353	 2
1463630693.443	 21	 0.751053	 1.283187	 1.041280	 2.255479	 -0.886161	 -1.689255	 0.488254	 0.679396	 -0.546788	 -0.032441	 2
1463630693.453	 21	 0.881213	 1.417718	 0.871942	 2.254145	 -0.884449	 -1.708781	 0.494966	 0.674589	 -0.546435	 -0.036697	 2
1463630693.463	 21	 0.964895	 1.653431	 0.702885	 2.255323	 -0.884652	 -1.727795	 0.501623	 0.669833	 -0.545806	 -0.042360	 2
1463630693.473	 21	 1.008229	 1.937083	 0.528231	 2.260053	 -0.886557	 -1.745743	 0.508384	 0.665235	 -0.544568	 -0.049538	 2
1463630693.483	 21	 1.013433	 2.284640	 0.350240	 2.269349	 -0.890001	 -1.762095	 0.515394	 0.660878	 -0.542407	 -0.058347	 2
1463630693.493	 21	 1.018144	 2.526909	 0.173405	 2.282791	 -0.894919	 -1.776642	 0.522487	 0.656786	 -0.539389	 -0.068549	 2
1463630693.513	 22	 1.089953	 2.714076	 -0.241126	 2.317043	 -0.910309	 -1.800898	 0.535425	 0.649284	 -0.532243	 -0.092019	 2
1463630693.523	 22	 1.248235	 2.528986	 -0.473365	 2.335380	 -0.921511	 -1.810498	 0.540380	 0.645956	 -0.528925	 -0.104733	 2
1463630693.533	 22	 1.607005	 1.747606	 -0.570086	 2.345869	 -0.936096	 -1.822103	 0.542954	 0.642386	 -0.528132	 -0.116695	 2
1463630693.543	 22	 1.826608	 0.923492	 -0.456039	 2.344216	 -0.952066	 -1.837961	 0.543260	 0.638325	 -0.530498	 -0.126417	 2
1463630693.553	 22	 1.933414	 0.269016	 -0.461993	 2.332803	 -0.968583	 -1.856719	 0.541659	 0.634148	 -0.535247	 -0.134062	 2
1463630693.563	 22	 1.672661	 0.103735	 -0.625388	 2.320992	 -0.984951	 -1.872496	 0.538936	 0.630895	 -0.540087	 -0.140804	 2
1463630693.573	 22	 1.112628	 0.179606	 -0.656042	 2.315126	 -0.998386	 -1.881190	 0.536325	 0.629155	 -0.543209	 -0.146434	 2
1463630693.583	 22	 0.462427	 0.660253	 -0.493504	 2.318868	 -1.006651	 -1.882889	 0.535551	 0.628524	 -0.543392	 -0.151224	 2
1463630693.593	 22	 -0.064228	 0.969265	 -0.188696	 2.330626	 -1.008934	 -1.880095	 0.537217	 0.628396	 -0.540816	 -0.155032	 2
1463630693.603	 22	 -0.263833	 0.503854	 0.085810	 2.339544	 -1.007144	 -1.877280	 0.539241	 0.628445	 -0.538347	 -0.156393	 2
1463630693.613	 22	 -0.293235	 -0.256022	 0.303871	 2.339496	 -1.003365	 -1.876650	 0.540088	 0.628593	 -0.537794	 -0.154768	 2
1463630693.623	 22	 -0.219167	 -0.958285	 0.441635	 2.329829	 -0.998701	 -1.878752	 0.539450	 0.628723	 -0.539486	 -0.150518	 2
1463630693.633	 22	 -0.089060	 -1.436167	 0.449910	 2.313118	 -0.994543	 -1.882753	 0.537351	 0.628829	 -0.543022	 -0.144761	 2
1463630693.643	 22	 0.018175	 -1.584054	 0.487033	 2.292654	 -0.990986	 -1.888474	 0.534570	 0.628684	 -0.547541	 -0.138528	 2
1463630693.653	 22	 0.000925	 -1.480098	 0.588333	 2.271729	 -0.986848	 -1.895346	 0.532145	 0.628175	 -0.552019	 -0.132260	 2
1463630693.663	 22	 -0.074799	 -1.144808	 0.739187	 2.253308	 -0.981075	 -1.902505	 0.530925	 0.627301	 -0.555583	 -0.126251	 2
1463630693.673	 22	 0.058928	 -0.547214	 0.918368	 2.237974	 -0.974316	 -1.912436	 0.531680	 0.625387	 -0.558046	 -0.121623	 2
1463630693.683	 22	 0.284309	 0.083632	 1.026721	 2.225646	 -0.967796	 -1.926613	 0.534504	 0.622096	 -0.559540	 -0.119234	 2
1463630693.693	 22	 0.312442	 0.341376	 1.086426	 2.215602	 -0.961245	 -1.942546	 0.538484	 0.618129	 -0.560369	 -0.118057	 2
1463630693.703	 22	 -0.067496	 0.020992	 1.193329	 2.206543	 -0.952241	 -1.955353	 0.542431	 0.614753	 -0.560834	 -0.115377	 2
1463630693.713	 22	 -0.601081	 -0.749879	 1.304838	 2.196000	 -0.939073	 -1.961621	 0.545097	 0.612926	 -0.561562	 -0.108805	 2
1463630693.723	 22	 -0.771589	 -1.164072	 1.320586	 2.182895	 -0.923910	 -1.964170	 0.546434	 0.612015	 -0.562956	 -0.099636	 2
1463630693.733	 22	 -0.600162	 -0.983021	 1.276016	 2.169817	 -0.909575	 -1.967325	 0.547705	 0.610851	 -0.564450	 -0.090973	 2
1463630693.753	 23	 0.268243	 0.279366	 1.317504	 2.148601	 -0.887147	 -1.987257	 0.553970	 0.604657	 -0.566455	 -0.081458	 2
1463630693.763	 23	 0.662761	 1.608402	 1.264622	 2.146557	 -0.879502	 -2.006288	 0.561217	 0.598828	 -0.565251	 -0.083252	 2
1463630693.773	 23	 0.447171	 2.382649	 0.876174	 2.157147	 -0.874131	 -2.021689	 0.570255	 0.593577	 -0.560908	 -0.088647	 2
1463630693.783	 23	 0.130914	 2.229282	 0.426683	 2.174970	 -0.870835	 -2.028900	 0.578255	 0.590421	 -0.555038	 -0.094642	 2
1463630693.793	 23	 -0.054913	 1.138145	 0.076038	 2.188561	 -0.869453	 -2.030130	 0.582747	 0.589299	 -0.550854	 -0.098448	 2
1463630693.803	 23	 -0.172212	 -0.191977	 -0.201759	 2.192222	 -0.869696	 -2.027042	 0.582779	 0.590037	 -0.549972	 -0.098773	 2
1463630693.813	 23	 -0.118271	 -1.267741	 -0.389155	 2.185865	 -0.871693	 -2.022039	 0.579011	 0.591954	 -0.552325	 -0.096300	 2
1463630693.823	 23	 0.159863	 -1.983708	 -0.445133	 2.169785	 -0.875763	 -2.019170	 0.572599	 0.593856	 -0.557620	 -0.092334	 2
1463630693.833	 23	 0.420051	 -2.287304	 -0.404395	 2.146562	 -0.881251	 -2.020267	 0.564913	 0.595036	 -0.564873	 -0.087886	 2
1463630693.843	 23	 0.563582	 -2.247744	 -0.317884	 2.120559	 -0.886982	 -2.024500	 0.557204	 0.595454	 -0.572689	 -0.083586	 2
1463630693.853	 23	 0.683576	 -2.020695	 -0.200648	 2.094244	 -0.892303	 -2.031530	 0.550238	 0.595065	 -0.580310	 -0.079852	 2
1463630693.873	 24	 1.073970	 -1.509329	 0.218490	 2.036882	 -0.899202	 -2.058877	 0.539554	 0.590504	 -0.595629	 -0.073568	 2
1463630693.883	 24	 1.294538	 -0.967864	 0.026573	 2.011284	 -0.903869	 -2.077505	 0.536062	 0.586952	 -0.602275	 -0.073418	 2
1463630693.893	 24	 1.387441	 -0.548510	 -0.188815	 1.989627	 -0.910859	 -2.096831	 0.533196	 0.583410	 -0.607960	 -0.075630	 2
1463630693.903	 24	 1.407095	 -0.403293	 -0.249449	 1.969942	 -0.918677	 -2.116336	 0.530653	 0.579941	 -0.613069	 -0.078876	 2
1463630693.913	 24	 1.431876	 -0.544067	 -0.291473	 1.949124	 -0.926619	 -2.136436	 0.527809	 0.576478	 -0.618344	 -0.082104	 2
1463630693.923	 24	 1.378306	 -1.177533	 -0.398149	 1.923274	 -0.935129	 -2.156215	 0.523050	 0.573499	 -0.624857	 -0.084089	 2
1463630693.933	 24	 1.029150	 -1.870201	 -0.428198	 1.893562	 -0.942945	 -2.171902	 0.515983	 0.571771	 -0.632351	 -0.083503	 2
1463630693.943	 24	 0.583220	 -2.364955	 -0.339396	 1.863463	 -0.948541	 -2.181245	 0.507486	 0.571436	 -0.639936	 -0.080003	 2
1463630693.953	 24	 0.318848	 -2.645041	 -0.202217	 1.833512	 -0.951831	 -2.186217	 0.498328	 0.571846	 -0.647412	 -0.074287	 2
1463630693.963	 24	 0.295772	 -2.665333	 -0.076445	 1.803184	 -0.953583	 -2.190624	 0.489214	 0.572114	 -0.654806	 -0.067708	 2
1463630693.973	 24	 0.366218	 -2.545475	 0.053014	 1.772568	 -0.954112	 -2.196506	 0.480665	 0.571762	 -0.662056	 -0.061087	 2
1463630693.983	 24	 0.518118	 -2.347188	 0.177165	 1.741599	 -0.953573	 -2.205070	 0.472958	 0.570525	 -0.669178	 -0.054892	 2
1463630693.993	 24	 0.627521	 -2.160033	 0.362331	 1.710425	 -0.951436	 -2.216225	 0.466259	 0.568330	 -0.676169	 -0.048981	 2
1463630694.003	 24	 0.649265	 -1.918062	 0.444326	 1.680926	 -0.947879	 -2.228172	 0.460635	 0.565575	 -0.682685	 -0.043376	 2
1463630694.013	 24	 0.646625	 -1.783114	 0.425355	 1.653267	 -0.944268	 -2.239925	 0.455488	 0.562744	 -0.688755	 -0.038291	 2
1463630694.023	 24	 0.643029	 -1.519484	 0.550402	 1.627980	 -0.939647	 -2.251417	 0.451269	 0.559659	 -0.694273	 -0.033502	 2
1463630694.033	 24	 0.686930	 -1.219159	 0.768098	 1.605541	 -0.932815	 -2.263315	 0.448679	 0.555906	 -0.699155	 -0.028941	 2
1463630694.043	 24	 0.800838	 -1.198020	 0.942085	 1.583903	 -0.924342	 -2.275934	 0.446931	 0.551543	 -0.703889	 -0.024360	 2
1463630694.053	 24	 0.927443	 -1.378359	 1.058670	 1.558632	 -0.913815	 -2.290882	 0.444993	 0.546138	 -0.709474	 -0.018986	 2
1463630694.063	 24	 0.856793	 -1.542875	 0.930929	 1.532545	 -0.903963	 -2.304871	 0.442177	 0.540974	 -0.715294	 -0.013425	 2
1463630694.073	 24	 0.739548	 -1.583396	 1.015768	 1.507694	 -0.893833	 -2.316423	 0.439087	 0.536145	 -0.720900	 -0.007362	 2
1463630694.083	 24	 0.471750	 -1.563687	 1.278328	 1.486987	 -0.881487	 -2.323263	 0.436710	 0.531662	 -0.725686	 -0.000053	 2
1463630694.093	 24	 0.156254	 -1.485256	 1.552508	 1.470817	 -0.866482	 -2.324618	 0.435145	 0.527573	 -0.729545	 0.008872	 2
1463630694.103	 24	 0.061568	 -1.368625	 1.756913	 1.458117	 -0.849403	 -2.322890	 0.434524	 0.523506	 -0.732654	 0.018655	 2
1463630694.113	 24	 0.177586	 -1.299036	 1.866324	 1.445919	 -0.830937	 -2.321716	 0.434545	 0.518830	 -0.735644	 0.028519	 2
1463630694.123	 24	 0.268505	 -1.410527	 1.782431	 1.432054	 -0.812562	 -2.321848	 0.434210	 0.513724	 -0.738977	 0.038241	 2
1463630694.133	 24	 0.307322	 -1.397090	 1.597841	 1.417196	 -0.795935	 -2.322704	 0.433183	 0.508756	 -0.742485	 0.047289	 2
1463630694.143	 24	 0.324940	 -1.088412	 1.636796	 1.405150	 -0.779501	 -2.323340	 0.433038	 0.503824	 -0.745354	 0.055571	 2
1463630694.153	 24	 0.378265	 -0.789495	 1.810701	 1.395906	 -0.761478	 -2.324220	 0.434350	 0.498366	 -0.747620	 0.063526	 2
1463630694.163	 24	 0.322280	 -0.578614	 1.974081	 1.389702	 -0.741830	 -2.324188	 0.436929	 0.492649	 -0.749180	 0.071554	 2
1463630694.173	 24	 0.195020	 -0.521955	 2.108937	 1.385854	 -0.720988	 -2.322089	 0.440136	 0.487048	 -0.750096	 0.080133	 2
1463630694.183	 24	 0.066874	 -0.590277	 2.169099	 1.382623	 -0.699588	 -2.318111	 0.443221	 0.481656	 -0.750711	 0.089421	 2
1463630694.193	 24	 -0.105218	 -0.220494	 2.197485	 1.383111	 -0.678210	 -2.312053	 0.447172	 0.476854	 -0.750287	 0.098570	 2
1463630694.203	 24	 -0.256431	 0.088279	 2.181426	 1.388300	 -0.657079	 -2.304107	 0.452362	 0.472780	 -0.748566	 0.107223	 2
1463630694.213	 24	 -0.303558	 0.129231	 2.089496	 1.394716	 -0.636788	 -2.295697	 0.457682	 0.469156	 -0.746378	 0.115495	 2
1463630694.223	 24	 -0.286639	 -0.035431	 1.976977	 1.399471	 -0.617562	 -2.287864	 0.462248	 0.465648	 -0.744461	 0.123597	 2
1463630694.233	 24	 -0.243695	 -0.342658	 1.869299	 1.400900	 -0.599314	 -2.280846	 0.465520	 0.462044	 -0.743252	 0.131845	 2
1463630694.243	 24	 -0.167313	 -0.813669	 1.776859	 1.397391	 -0.581929	 -2.274949	 0.467002	 0.458082	 -0.743185	 0.140517	 2
1463630694.253	 24	 -0.098514	 -1.544094	 1.695925	 1.386627	 -0.565205	 -2.269938	 0.465823	 0.453524	 -0.744813	 0.150263	 2
1463630694.263	 24	 -0.028278	 -2.330625	 1.505750	 1.367336	 -0.549948	 -2.265884	 0.461312	 0.448396	 -0.748466	 0.161034	 2
1463630694.283	 25	 -0.064969	 -3.098783	 0.433159	 1.311832	 -0.532243	 -2.260611	 0.443382	 0.439414	 -0.759996	 0.180926	 2
1463630694.293	 25	 -0.346990	 -3.241377	 -0.276575	 1.281062	 -0.533880	 -2.258036	 0.430687	 0.437651	 -0.766531	 0.188151	 2
1463630694.303	 25	 -0.791313	 -3.304746	 -0.833882	 1.250871	 -0.541964	 -2.252954	 0.416036	 0.438406	 -0.772642	 0.194265	 2
1463630694.313	 25	 -1.306088	 -3.380769	 -1.111465	 1.222036	 -0.555407	 -2.243972	 0.399653	 0.441695	 -0.777917	 0.200068	 2
1463630694.323	 25	 -1.787175	 -3.546406	 -1.119409	 1.198393	 -0.563008	 -2.228093	 0.385067	 0.444832	 -0.781064	 0.209252	 2
1463630694.333	 25	 -2.147530	 -3.791296	 -1.007708	 1.170905	 -0.580040	 -2.209915	 0.366021	 0.450786	 -0.784533	 0.217551	 2
1463630694.343	 25	 -2.396858	 -3.877381	 -0.805973	 1.144460	 -0.597068	 -2.188207	 0.346402	 0.457177	 -0.787012	 0.227173	 2
1463630694.353	 25	 -2.534695	 -3.932295	 -0.514330	 1.119270	 -0.613112	 -2.163679	 0.326698	 0.463504	 -0.788518	 0.238060	 2
1463630694.363	 25	 -2.574636	 -3.925968	 -0.098276	 1.095595	 -0.626479	 -2.136629	 0.307535	 0.469154	 -0.789035	 0.250480	 2
1463630694.373	 25	 -2.606281	 -3.658927	 0.485327	 1.076307	 -0.635378	 -2.106126	 0.290346	 0.474042	 -0.788026	 0.264571	 2
1463630694.383	 25	 -2.567476	 -3.245654	 1.168794	 1.063575	 -0.638581	 -2.071702	 0.276264	 0.478188	 -0.785158	 0.280254	 2
1463630694.393	 25	 -2.387185	 -2.899152	 1.794866	 1.055966	 -0.635796	 -2.034919	 0.265242	 0.481206	 -0.780853	 0.297247	 2
1463630694.403	 25	 -2.104384	 -2.618943	 2.268209	 1.050801	 -0.627812	 -1.998221	 0.256664	 0.482762	 -0.775800	 0.314959	 2
1463630694.413	 25	 -1.864404	 -2.235510	 2.585154	 1.048298	 -0.615534	 -1.962347	 0.250595	 0.483192	 -0.770060	 0.332768	 2
1463630694.423	 25	 -1.712191	 -1.777423	 2.747955	 1.049355	 -0.600712	 -1.927397	 0.246922	 0.483288	 -0.763556	 0.349920	 2
1463630694.433	 25	 -1.557180	 -1.317966	 2.807366	 1.053696	 -0.584378	 -1.893942	 0.245364	 0.483357	 -0.756455	 0.365976	 2
1463630694.443	 25	 -1.344638	 -0.843037	 2.823790	 1.061011	 -0.566685	 -1.862860	 0.245952	 0.483376	 -0.748978	 0.380640	 2
1463630694.453	 25	 -1.068573	 -0.449354	 2.809063	 1.070338	 -0.547606	 -1.835071	 0.248535	 0.483113	 -0.741443	 0.393821	 2
1463630694.463	 25	 -0.799578	 -0.245615	 2.852314	 1.079935	 -0.526774	 -1.810543	 0.252560	 0.482155	 -0.734061	 0.406072	 2
1463630694.473	 25	 -0.577418	 -0.099520	 2.994551	 1.089594	 -0.503615	 -1.788280	 0.257886	 0.480422	 -0.726627	 0.417975	 2
1463630694.483	 25	 -0.371544	 -0.085693	 3.224157	 1.098543	 -0.477470	 -1.767584	 0.264271	 0.477652	 -0.719019	 0.430141	 2
1463630694.493	 25	 -0.216209	 -0.179971	 3.486237	 1.105854	 -0.448083	 -1.747834	 0.271321	 0.473636	 -0.711160	 0.443063	 2
1463630694.503	 25	 -0.158468	 -0.364471	 3.734471	 1.110952	 -0.415949	 -1.728155	 0.278487	 0.468467	 -0.702936	 0.457017	 2
1463630694.513	 25	 -0.170594	 -0.628761	 3.951664	 1.113276	 -0.381719	 -1.707810	 0.285228	 0.462255	 -0.694279	 0.472169	 2
1463630694.523	 25	 -0.213088	 -0.931810	 4.092026	 1.112232	 -0.346164	 -1.686683	 0.291111	 0.455030	 -0.685302	 0.488429	 2
1463630694.533	 25	 -0.286679	 -1.180205	 4.129789	 1.108072	 -0.310396	 -1.664790	 0.295935	 0.447096	 -0.676098	 0.505391	 2
1463630694.543	 25	 -0.375349	 -1.392955	 4.090214	 1.101160	 -0.275335	 -1.642250	 0.299609	 0.438722	 -0.666773	 0.522658	 2
1463630694.553	 25	 -0.426873	 -1.610403	 4.004444	 1.091479	 -0.241419	 -1.619370	 0.302104	 0.429923	 -0.657500	 0.539993	 2
1463630694.563	 25	 -0.390111	 -1.901393	 3.933208	 1.078277	 -0.208373	 -1.596791	 0.303439	 0.420256	 -0.648567	 0.557378	 2
1463630694.573	 25	 -0.295619	 -2.161787	 3.851095	 1.061407	 -0.175955	 -1.574973	 0.303783	 0.409461	 -0.640134	 0.574705	 2
1463630694.583	 25	 -0.157976	 -2.311795	 3.754714	 1.041912	 -0.144116	 -1.554263	 0.303588	 0.397699	 -0.632182	 0.591622	 2
1463630694.593	 25	 0.028215	 -2.355542	 3.664227	 1.020854	 -0.112607	 -1.534997	 0.303345	 0.385120	 -0.624659	 0.607836	 2
1463630694.613	 25	 0.441987	 -2.125464	 3.584964	 0.979012	 -0.049056	 -1.500744	 0.304699	 0.358570	 -0.610084	 0.637482	 2
1463630694.603	 25	 0.235382	 -2.278924	 3.606650	 0.999565	 -0.081091	 -1.517234	 0.303582	 0.372011	 -0.617379	 0.623128	 2
1463630694.623	 25	 0.631771	 -1.922985	 3.569208	 0.959849	 -0.016405	 -1.485349	 0.306868	 0.345035	 -0.602633	 0.650859	 2
1463630694.633	 25	 0.776789	 -1.712895	 3.558176	 0.942310	 0.016784	 -1.470726	 0.310047	 0.331590	 -0.594917	 0.663320	 2
1463630694.643	 25	 0.847980	 -1.540900	 3.544235	 0.926132	 0.050133	 -1.456346	 0.313921	 0.318380	 -0.586877	 0.675028	 2
1463630694.653	 25	 0.862243	 -1.452711	 3.537469	 0.910583	 0.083355	 -1.441676	 0.318085	 0.305359	 -0.578502	 0.686231	 2
1463630694.663	 25	 0.930769	 -1.636864	 3.544750	 0.893612	 0.116602	 -1.426740	 0.322006	 0.291786	 -0.570106	 0.697247	 2
1463630694.673	 25	 1.074125	 -2.013805	 3.544256	 0.872578	 0.150484	 -1.412194	 0.325262	 0.276423	 -0.562252	 0.708284	 2
1463630694.683	 25	 1.028330	 -2.189431	 3.507849	 0.848552	 0.183896	 -1.397070	 0.327699	 0.260099	 -0.554657	 0.719248	 2
1463630694.693	 25	 0.821992	 -2.187397	 3.411614	 0.823291	 0.215290	 -1.380185	 0.329177	 0.244098	 -0.546900	 0.730040	 2
1463630694.703	 25	 0.660776	 -2.296555	 3.254269	 0.796640	 0.243945	 -1.362020	 0.329510	 0.228508	 -0.539314	 0.740505	 2
1463630694.713	 25	 0.587825	 -2.686858	 3.083948	 0.766162	 0.270241	 -1.343480	 0.328301	 0.212146	 -0.532566	 0.750724	 2
1463630694.723	 25	 0.517755	 -3.139966	 2.907688	 0.730661	 0.294268	 -1.324785	 0.325313	 0.194451	 -0.526913	 0.760739	 2
1463630694.733	 25	 0.405466	 -3.494034	 2.731652	 0.690797	 0.315676	 -1.305713	 0.320596	 0.175758	 -0.522203	 0.770474	 2
1463630694.743	 25	 0.327731	 -3.756782	 2.548704	 0.647718	 0.334475	 -1.286486	 0.314477	 0.156428	 -0.518294	 0.779747	 2
1463630694.753	 25	 0.303434	 -3.983687	 2.343244	 0.602127	 0.350988	 -1.267769	 0.307284	 0.136501	 -0.515236	 0.788338	 2
1463630694.763	 25	 0.300262	 -4.019309	 2.123390	 0.555760	 0.365105	 -1.250142	 0.299419	 0.116600	 -0.512974	 0.795997	 2
1463630694.773	 25	 0.353856	 -3.791269	 1.910824	 0.511650	 0.377471	 -1.233919	 0.291848	 0.097713	 -0.511066	 0.802551	 2
1463630694.783	 25	 0.505814	 -3.558967	 1.739004	 0.470554	 0.389290	 -1.219544	 0.285170	 0.079777	 -0.509424	 0.807961	 2
1463630694.793	 25	 0.730807	 -3.259608	 1.603391	 0.434628	 0.399936	 -1.207672	 0.279649	 0.063809	 -0.508147	 0.812103	 2
1463630694.803	 25	 0.961304	 -2.919876	 1.463857	 0.401140	 0.413443	 -1.197152	 0.276036	 0.047752	 -0.506632	 0.815382	 2
1463630694.813	 25	 1.100766	 -2.485735	 1.399535	 0.371646	 0.428332	 -1.187472	 0.274128	 0.032780	 -0.504723	 0.817945	 2
1463630694.823	 25	 1.139891	 -2.103011	 1.391030	 0.345861	 0.443607	 -1.177632	 0.273437	 0.019233	 -0.502212	 0.820150	 2
1463630694.833	 25	 1.090031	 -1.788260	 1.360286	 0.323018	 0.458333	 -1.167427	 0.273394	 0.007106	 -0.499251	 0.822164	 2
1463630694.843	 25	 0.969488	 -1.491680	 1.288424	 0.302991	 0.471665	 -1.157081	 0.273625	 -0.003439	 -0.496054	 0.824043	 2
1463630694.853	 25	 0.842034	 -1.274040	 1.181779	 0.285834	 0.482818	 -1.147235	 0.273811	 -0.012250	 -0.492964	 0.825750	 2
1463630694.863	 25	 0.738625	 -1.153337	 1.064431	 0.270250	 0.492432	 -1.138007	 0.273855	 -0.020060	 -0.490119	 0.827275	 2
1463630694.873	 25	 0.677496	 -1.129455	 0.959669	 0.255449	 0.500883	 -1.129554	 0.273689	 -0.027326	 -0.487640	 0.828586	 2
1463630694.883	 25	 0.661012	 -1.143984	 0.856294	 0.240665	 0.508935	 -1.121854	 0.273417	 -0.034571	 -0.485530	 0.829644	 2
1463630694.893	 25	 0.679758	 -1.161755	 0.760045	 0.225970	 0.516924	 -1.115026	 0.273177	 -0.041872	 -0.483789	 0.830403	 2
1463630694.903	 25	 0.750700	 -1.204101	 0.669509	 0.211080	 0.525545	 -1.109059	 0.273169	 -0.049530	 -0.482376	 0.830806	 2
1463630694.923	 26	 1.052379	 -1.337222	 0.474872	 0.181317	 0.545921	 -1.100769	 0.274426	 -0.066109	 -0.480781	 0.830162	 2
1463630694.933	 26	 1.172331	 -1.422038	 0.414421	 0.165927	 0.557962	 -1.098164	 0.275666	 -0.075272	 -0.480534	 0.829113	 2
1463630694.943	 26	 1.164584	 -1.473133	 0.405487	 0.149941	 0.570212	 -1.095635	 0.276862	 -0.084717	 -0.480413	 0.827873	 2
