% Gyrometer data recorded with 'snsrlog'
% 
% 
% Label description:
% 	 0: Default Label
% 	 1: still_drop
% 	 2: walk_drop
% 	 3: other
% 	 4: dtw_same
% 	 5: dtw_diff
% 	 6: delete
% 
% Column description:
% 	 1: Seconds.milliseconds since 1970
% 	 2: Number of skipped measurements
% 	 3: Gyro X
% 	 4: Gyro Y
% 	 5: Gyro Z
% 	 6: Roll of the device
% 	 7: Pitch of the device
% 	 8: Yaw of the device
% 	 9: Quaternion X
% 	 10: Quaternion Y
% 	 11: Quaternion Z
% 	 12: Quaternion W
% 	 13: Label used for the current sample
% 
% 
1462068308.842	 0	 -0.737163	 0.187994	 -0.343359	 0.095086	 0.545677	 -0.065158	 0.270510	 0.036975	 -0.018533	 0.961828	 1
1462068308.852	 0	 -0.726002	 0.300626	 -0.354132	 0.099511	 0.538082	 -0.068436	 0.266963	 0.038835	 -0.019727	 0.962722	 1
1462068308.862	 0	 -0.733716	 0.455045	 -0.330247	 0.105158	 0.530459	 -0.071470	 0.263414	 0.041333	 -0.020663	 0.963576	 1
1462068308.872	 0	 -0.722791	 0.705218	 -0.294975	 0.112837	 0.522900	 -0.074052	 0.259910	 0.044882	 -0.021137	 0.964358	 1
1462068308.882	 0	 -0.682116	 0.951901	 -0.288771	 0.122938	 0.515671	 -0.076396	 0.256589	 0.049637	 -0.021204	 0.965012	 1
1462068308.892	 0	 -0.657940	 1.161888	 -0.362696	 0.135477	 0.508682	 -0.079284	 0.253430	 0.055509	 -0.021252	 0.965526	 1
1462068308.902	 0	 -0.651015	 1.351570	 -0.456910	 0.150358	 0.501597	 -0.083141	 0.250286	 0.062411	 -0.021521	 0.965918	 1
1462068308.912	 0	 -0.646004	 1.579620	 -0.541159	 0.167798	 0.494378	 -0.087822	 0.247150	 0.070472	 -0.021928	 0.966162	 1
1462068308.922	 0	 -0.637655	 1.830051	 -0.617767	 0.188003	 0.487015	 -0.093222	 0.244027	 0.079810	 -0.022414	 0.966219	 1
1462068308.932	 0	 -0.627059	 2.090173	 -0.677253	 0.211015	 0.479519	 -0.099167	 0.240929	 0.090469	 -0.022900	 0.966046	 1
1462068308.942	 0	 -0.597083	 2.367418	 -0.714368	 0.236823	 0.472047	 -0.105391	 0.237928	 0.102470	 -0.023266	 0.965582	 1
1462068308.952	 0	 -0.540453	 2.641376	 -0.753876	 0.265497	 0.464822	 -0.111900	 0.235143	 0.115832	 -0.023501	 0.964748	 1
1462068308.962	 0	 -0.501330	 2.855550	 -0.831090	 0.296738	 0.457684	 -0.119020	 0.232523	 0.130373	 -0.023813	 0.963519	 1
1462068308.972	 0	 -0.542620	 2.969101	 -0.882962	 0.329465	 0.449981	 -0.126453	 0.229737	 0.145630	 -0.024246	 0.961990	 1
1462068308.982	 0	 -0.673864	 2.980061	 -0.891309	 0.362268	 0.440962	 -0.133336	 0.226353	 0.161063	 -0.024632	 0.960321	 1
1462068308.992	 0	 -0.833352	 2.895297	 -0.910959	 0.394028	 0.430259	 -0.139357	 0.222150	 0.176191	 -0.025017	 0.958635	 1
1462068309.002	 0	 -1.054108	 2.732936	 -0.948915	 0.423885	 0.417406	 -0.144483	 0.216881	 0.190638	 -0.025561	 0.957061	 1
1462068309.012	 0	 -1.304738	 2.572784	 -0.987656	 0.451605	 0.402023	 -0.148347	 0.210314	 0.204357	 -0.026191	 0.955678	 1
1462068309.022	 0	 -1.513893	 2.432286	 -1.086259	 0.477389	 0.384170	 -0.151489	 0.202524	 0.217384	 -0.027167	 0.954458	 1
1462068309.032	 0	 -1.646681	 2.421296	 -1.188584	 0.502599	 0.364404	 -0.154327	 0.193833	 0.230290	 -0.028507	 0.953196	 1
1462068309.042	 0	 -1.680738	 2.524904	 -1.288571	 0.528519	 0.343575	 -0.157222	 0.184710	 0.243597	 -0.030177	 0.951647	 1
1462068309.052	 0	 -1.621531	 2.721797	 -1.393830	 0.556317	 0.322460	 -0.160652	 0.175611	 0.257764	 -0.032217	 0.949568	 1
1462068309.062	 0	 -1.511026	 2.950309	 -1.518426	 0.586604	 0.301472	 -0.165037	 0.166824	 0.273015	 -0.034743	 0.946798	 1
1462068309.072	 0	 -1.382932	 3.074426	 -1.658001	 0.618756	 0.280616	 -0.170625	 0.158412	 0.289027	 -0.037942	 0.943361	 1
1462068309.082	 0	 -1.271446	 3.045655	 -1.766881	 0.651107	 0.259847	 -0.177217	 0.150336	 0.305031	 -0.041863	 0.939469	 1
1462068309.092	 0	 -1.237772	 2.958224	 -1.782909	 0.682552	 0.239055	 -0.183768	 0.142382	 0.320590	 -0.046105	 0.935320	 1
1462068309.102	 0	 -1.256331	 2.817274	 -1.720113	 0.712321	 0.218327	 -0.189216	 0.134396	 0.335407	 -0.050194	 0.931086	 1
1462068309.112	 0	 -1.346032	 2.718307	 -1.616874	 0.740438	 0.197545	 -0.192836	 0.126166	 0.349534	 -0.053795	 0.926830	 1
1462068309.122	 0	 -1.484345	 2.714200	 -1.505934	 0.767768	 0.176506	 -0.194104	 0.117489	 0.363392	 -0.056643	 0.922461	 1
1462068309.132	 0	 -1.600074	 2.794701	 -1.451955	 0.795339	 0.155045	 -0.193366	 0.108340	 0.377412	 -0.058880	 0.917800	 1
1462068309.142	 0	 -1.643118	 2.982761	 -1.496724	 0.824367	 0.133057	 -0.191682	 0.098883	 0.392062	 -0.060976	 0.912574	 1
1462068309.152	 0	 -1.632288	 3.371955	 -1.650930	 0.856761	 0.110174	 -0.190209	 0.089244	 0.408138	 -0.063481	 0.906327	 1
1462068309.162	 0	 -1.613173	 3.988264	 -1.870237	 0.894898	 0.085883	 -0.189371	 0.079397	 0.426673	 -0.066668	 0.898444	 1
1462068309.172	 0	 -1.531683	 4.734965	 -2.124044	 0.940333	 0.060063	 -0.189501	 0.069490	 0.448267	 -0.070763	 0.888381	 1
1462068309.182	 0	 -1.329524	 5.529962	 -2.415754	 0.993719	 0.032910	 -0.191385	 0.059936	 0.473040	 -0.076175	 0.875693	 1
1462068309.192	 0	 -1.075606	 6.196246	 -2.688864	 1.054196	 0.004560	 -0.195333	 0.051012	 0.500436	 -0.083135	 0.860261	 1
1462068309.202	 0	 -0.852411	 6.598523	 -2.859717	 1.119328	 -0.024656	 -0.200443	 0.042720	 0.529243	 -0.091294	 0.842462	 1
1462068309.212	 0	 -0.608215	 6.623835	 -2.937277	 1.185490	 -0.054093	 -0.206191	 0.035160	 0.557779	 -0.100353	 0.823150	 1
1462068309.222	 0	 -0.328804	 6.367660	 -2.949553	 1.249462	 -0.083139	 -0.212651	 0.028499	 0.584651	 -0.110175	 0.803264	 1
1462068309.232	 0	 -0.039176	 6.012564	 -2.958577	 1.309750	 -0.111770	 -0.220104	 0.022756	 0.609296	 -0.120787	 0.783359	 1
1462068309.242	 0	 0.221575	 5.666925	 -2.994971	 1.366201	 -0.140440	 -0.228573	 0.017739	 0.631744	 -0.132229	 0.763610	 1
1462068309.252	 0	 0.485673	 5.397468	 -3.085038	 1.419306	 -0.169821	 -0.238216	 0.013266	 0.652268	 -0.144683	 0.743934	 1
1462068309.262	 0	 0.747872	 5.233889	 -3.242313	 1.469947	 -0.200682	 -0.249220	 0.009187	 0.671258	 -0.158391	 0.724045	 1
1462068309.272	 0	 0.971104	 5.042013	 -3.503957	 1.518269	 -0.234210	 -0.261257	 0.005005	 0.688796	 -0.173579	 0.703850	 1
1462068309.282	 0	 1.119281	 4.773792	 -3.763526	 1.563671	 -0.270904	 -0.273625	 0.000285	 0.704675	 -0.190153	 0.683575	 1
1462068309.292	 0	 1.172047	 4.361653	 -3.960723	 1.605118	 -0.310163	 -0.285177	 -0.005274	 0.718548	 -0.207511	 0.663778	 1
1462068309.302	 0	 1.204900	 3.765865	 -4.116826	 1.641040	 -0.351599	 -0.295581	 -0.011895	 0.729935	 -0.225397	 0.645175	 1
1462068309.312	 0	 1.140377	 2.996947	 -4.133011	 1.669830	 -0.393804	 -0.304250	 -0.019643	 0.738421	 -0.243089	 0.628694	 1
1462068309.322	 0	 0.973772	 2.206848	 -4.031271	 1.691359	 -0.435314	 -0.310445	 -0.028520	 0.744119	 -0.259788	 0.614804	 1
1462068309.332	 0	 0.813121	 1.451597	 -3.815221	 1.706043	 -0.474823	 -0.314298	 -0.038197	 0.747329	 -0.275023	 0.603658	 1
1462068309.342	 0	 0.753339	 0.772984	 -3.550312	 1.714053	 -0.511699	 -0.317141	 -0.048126	 0.748281	 -0.288908	 0.595224	 1
1462068309.352	 0	 0.786146	 0.265347	 -3.284617	 1.716174	 -0.545958	 -0.320416	 -0.057806	 0.747370	 -0.301814	 0.589071	 1
1462068309.362	 0	 0.853004	 -0.006533	 -3.055393	 1.714253	 -0.577927	 -0.324885	 -0.066889	 0.745251	 -0.314063	 0.584372	 1
1462068309.372	 0	 0.935616	 -0.055535	 -2.886047	 1.710383	 -0.608159	 -0.330817	 -0.075194	 0.742590	 -0.325953	 0.580225	 1
1462068309.382	 0	 1.066673	 0.043714	 -2.787148	 1.705982	 -0.637375	 -0.338620	 -0.082601	 0.739820	 -0.337883	 0.575915	 1
1462068309.392	 0	 1.239858	 0.282957	 -2.726747	 1.701847	 -0.666106	 -0.348965	 -0.088915	 0.737201	 -0.350245	 0.570927	 1
1462068309.402	 0	 1.421881	 0.616570	 -2.702847	 1.698943	 -0.694726	 -0.362023	 -0.094021	 0.735016	 -0.363239	 0.564773	 1
1462068309.412	 0	 1.600470	 0.879120	 -2.652933	 1.696834	 -0.723168	 -0.377907	 -0.097925	 0.733166	 -0.376835	 0.557561	 1
1462068309.422	 0	 1.810190	 0.958601	 -2.608192	 1.693478	 -0.751246	 -0.397010	 -0.100811	 0.731133	 -0.390947	 0.549948	 1
1462068309.432	 0	 2.054531	 0.855528	 -2.496176	 1.686300	 -0.778790	 -0.420313	 -0.102823	 0.728314	 -0.405612	 0.542646	 1
1462068309.442	 0	 2.201156	 0.722998	 -2.232245	 1.674432	 -0.804088	 -0.447478	 -0.103793	 0.724646	 -0.420115	 0.536300	 1
1462068309.452	 0	 2.245936	 0.658297	 -1.896457	 1.659533	 -0.825943	 -0.477183	 -0.103541	 0.720635	 -0.433830	 0.530806	 1
1462068309.462	 0	 2.236145	 0.590328	 -1.593262	 1.642390	 -0.844345	 -0.508481	 -0.102271	 0.716448	 -0.446595	 0.526114	 1
1462068309.472	 0	 2.177220	 0.528749	 -1.308763	 1.623763	 -0.859465	 -0.540449	 -0.100210	 0.712207	 -0.458322	 0.522168	 1
1462068309.482	 0	 2.091381	 0.448897	 -1.061502	 1.604234	 -0.871569	 -0.572281	 -0.097593	 0.707979	 -0.468975	 0.518945	 1
1462068309.492	 0	 1.989243	 0.331656	 -0.843222	 1.583923	 -0.881000	 -0.603429	 -0.094682	 0.703713	 -0.478581	 0.516511	 1
1462068309.502	 0	 1.893215	 0.163248	 -0.638261	 1.562666	 -0.887947	 -0.633634	 -0.091652	 0.699310	 -0.487177	 0.514998	 1
1462068309.512	 0	 1.793664	 -0.085874	 -0.418034	 1.539877	 -0.892340	 -0.662697	 -0.088671	 0.694577	 -0.494733	 0.514723	 1
1462068309.522	 0	 1.650388	 -0.332706	 -0.193142	 1.516033	 -0.894105	 -0.689793	 -0.085861	 0.689558	 -0.501102	 0.515786	 1
1462068309.532	 0	 1.463374	 -0.555129	 0.006780	 1.492232	 -0.893521	 -0.713915	 -0.083359	 0.684441	 -0.506192	 0.518036	 1
1462068309.542	 0	 1.259413	 -0.755125	 0.212387	 1.469125	 -0.890754	 -0.734492	 -0.081209	 0.679333	 -0.509958	 0.521397	 1
1462068309.552	 0	 1.011205	 -0.856936	 0.445937	 1.448091	 -0.885711	 -0.750772	 -0.079230	 0.674537	 -0.512255	 0.525659	 1
1462068309.562	 0	 0.724222	 -0.808659	 0.680155	 1.431201	 -0.878497	 -0.761911	 -0.077159	 0.670551	 -0.512965	 0.530354	 1
1462068309.572	 0	 0.461075	 -0.674389	 0.902177	 1.419373	 -0.869354	 -0.768082	 -0.074746	 0.667639	 -0.512193	 0.535098	 1
1462068309.582	 0	 0.242668	 -0.533016	 1.095100	 1.412184	 -0.858527	 -0.770064	 -0.071907	 0.665744	 -0.510145	 0.539783	 1
1462068309.592	 0	 0.049549	 -0.413394	 1.232181	 1.408875	 -0.846524	 -0.768595	 -0.068777	 0.664726	 -0.507056	 0.544338	 1
1462068309.602	 0	 -0.128009	 -0.349463	 1.322780	 1.408543	 -0.833799	 -0.764187	 -0.065591	 0.664390	 -0.503090	 0.548802	 1
1462068309.612	 0	 -0.293274	 -0.349769	 1.360452	 1.410158	 -0.820852	 -0.757290	 -0.062660	 0.664502	 -0.498412	 0.553259	 1
1462068309.622	 0	 -0.447172	 -0.396126	 1.359229	 1.412894	 -0.808042	 -0.748270	 -0.060211	 0.664870	 -0.493153	 0.557783	 1
1462068309.632	 0	 -0.606606	 -0.459701	 1.328053	 1.416387	 -0.795747	 -0.737218	 -0.058456	 0.665412	 -0.487397	 0.562365	 1
1462068309.642	 0	 -0.718953	 -0.494684	 1.321896	 1.420447	 -0.783722	 -0.724620	 -0.057195	 0.666096	 -0.481209	 0.566995	 1
1462068309.652	 0	 -0.787249	 -0.498695	 1.327782	 1.424896	 -0.771758	 -0.711172	 -0.056167	 0.666894	 -0.474727	 0.571605	 1
1462068309.662	 0	 -0.835149	 -0.485679	 1.343241	 1.429666	 -0.759681	 -0.697219	 -0.055215	 0.667800	 -0.468003	 0.576166	 1
1462068309.672	 0	 -0.884049	 -0.455665	 1.355670	 1.434873	 -0.747489	 -0.682820	 -0.054295	 0.668851	 -0.461051	 0.580622	 1
1462068309.682	 0	 -0.932113	 -0.451382	 1.340142	 1.440368	 -0.735378	 -0.668039	 -0.053499	 0.670010	 -0.453932	 0.584953	 1
1462068309.692	 0	 -0.956775	 -0.437813	 1.294655	 1.445862	 -0.723610	 -0.653134	 -0.052906	 0.671199	 -0.446780	 0.589135	 1
1462068309.702	 0	 -0.950450	 -0.383140	 1.209848	 1.451468	 -0.712531	 -0.638551	 -0.052469	 0.672462	 -0.439822	 0.592957	 1
1462068309.712	 0	 -0.902407	 -0.275685	 1.086801	 1.457321	 -0.702466	 -0.624858	 -0.052088	 0.673851	 -0.433326	 0.596189	 1
1462068309.722	 0	 -0.828758	 -0.140900	 0.929681	 1.463531	 -0.693762	 -0.612457	 -0.051730	 0.675402	 -0.427521	 0.598650	 1
1462068309.732	 0	 -0.745516	 0.007546	 0.753421	 1.470220	 -0.686606	 -0.601498	 -0.051385	 0.677150	 -0.422527	 0.600249	 1
1462068309.742	 0	 -0.673248	 0.115403	 0.549169	 1.477196	 -0.681279	 -0.591911	 -0.051217	 0.679027	 -0.418409	 0.601027	 1
1462068309.752	 0	 -0.667488	 0.166946	 0.325788	 1.484387	 -0.678087	 -0.582961	 -0.051594	 0.680980	 -0.415047	 0.601117	 1
1462068309.762	 0	 -0.723789	 0.158260	 0.132229	 1.491811	 -0.676903	 -0.573738	 -0.052772	 0.682980	 -0.412148	 0.600739	 1
1462068309.772	 0	 -0.800291	 0.113919	 0.000328	 1.499330	 -0.677199	 -0.563735	 -0.054756	 0.684965	 -0.409428	 0.600161	 1
1462068309.782	 0	 -0.886115	 0.071172	 -0.062202	 1.507057	 -0.678282	 -0.552699	 -0.057357	 0.686958	 -0.406633	 0.599540	 1
1462068309.792	 0	 -0.953534	 0.052050	 -0.086306	 1.515135	 -0.679678	 -0.540706	 -0.060351	 0.689002	 -0.403667	 0.598906	 1
1462068309.802	 0	 -1.008951	 0.036531	 -0.048666	 1.523565	 -0.680814	 -0.528001	 -0.063448	 0.691108	 -0.400444	 0.598321	 1
1462068309.812	 0	 -1.202461	 -0.044738	 -0.040277	 1.532562	 -0.681675	 -0.513315	 -0.067048	 0.693299	 -0.396590	 0.597961	 1
1462068309.822	 0	 -1.430497	 -0.029748	 0.027925	 1.543367	 -0.682164	 -0.495527	 -0.071270	 0.695900	 -0.391788	 0.597617	 1
1462068309.832	 0	 -1.487927	 0.046529	 0.256142	 1.555698	 -0.680529	 -0.476389	 -0.074966	 0.698937	 -0.386045	 0.597358	 1
1462068309.842	 0	 -1.329218	 0.241315	 0.486778	 1.568645	 -0.676356	 -0.458477	 -0.077288	 0.702273	 -0.379955	 0.597053	 1
1462068309.852	 0	 -0.937178	 0.534734	 0.772785	 1.581589	 -0.669321	 -0.445230	 -0.077043	 0.705901	 -0.374393	 0.596320	 1
1462068309.862	 0	 -0.613147	 0.755238	 0.949997	 1.593843	 -0.660023	 -0.436713	 -0.074535	 0.709610	 -0.369495	 0.595291	 1
1462068309.872	 0	 -0.457508	 0.921971	 0.977904	 1.606192	 -0.650132	 -0.430947	 -0.070887	 0.713484	 -0.365188	 0.593762	 1
1462068309.882	 0	 -0.426343	 0.973944	 0.970656	 1.618819	 -0.640220	 -0.426098	 -0.066908	 0.717476	 -0.361102	 0.591909	 1
1462068309.892	 0	 -0.461189	 0.862060	 0.928353	 1.630745	 -0.630573	 -0.421145	 -0.063238	 0.721246	 -0.356992	 0.590221	 1
1462068309.902	 0	 -0.510238	 0.701111	 0.861205	 1.641344	 -0.621482	 -0.415718	 -0.060214	 0.724589	 -0.352831	 0.588944	 1
1462068309.912	 0	 -0.531587	 0.519962	 0.806417	 1.650326	 -0.612923	 -0.409983	 -0.057812	 0.727427	 -0.348664	 0.588168	 1
1462068309.922	 0	 -0.476085	 0.321742	 0.775314	 1.657031	 -0.604723	 -0.404760	 -0.055775	 0.729600	 -0.344668	 0.588028	 1
1462068309.932	 0	 -0.327674	 0.136024	 0.745650	 1.660873	 -0.596891	 -0.401116	 -0.053801	 0.730962	 -0.341155	 0.588569	 1
1462068309.942	 0	 -0.134061	 0.034170	 0.712109	 1.662218	 -0.589537	 -0.399688	 -0.051613	 0.731627	 -0.338369	 0.589546	 1
1462068309.952	 0	 0.084325	 0.014907	 0.637557	 1.661774	 -0.582998	 -0.400748	 -0.049093	 0.731787	 -0.336531	 0.590613	 1
1462068309.962	 0	 0.297640	 0.082610	 0.526556	 1.660447	 -0.577677	 -0.404276	 -0.046229	 0.731686	 -0.335800	 0.591385	 1
1462068309.972	 0	 0.468290	 0.187384	 0.376838	 1.659033	 -0.573901	 -0.409815	 -0.043163	 0.731532	 -0.336172	 0.591596	 1
1462068309.982	 0	 0.550118	 0.276152	 0.184049	 1.658020	 -0.572044	 -0.416402	 -0.040296	 0.731436	 -0.337492	 0.591166	 1
1462068309.992	 0	 0.546461	 0.366023	 -0.037827	 1.657907	 -0.572339	 -0.422947	 -0.038022	 0.731520	 -0.339519	 0.590050	 1
1462068310.002	 0	 0.518256	 0.467559	 -0.274302	 1.659096	 -0.574938	 -0.428939	 -0.036507	 0.731895	 -0.342152	 0.588157	 1
1462068310.012	 0	 0.483603	 0.554270	 -0.504464	 1.661490	 -0.579837	 -0.434323	 -0.035782	 0.732532	 -0.345367	 0.585524	 1
1462068310.022	 0	 0.433044	 0.649646	 -0.719486	 1.665218	 -0.586890	 -0.438910	 -0.035838	 0.733463	 -0.349062	 0.582154	 1
1462068310.032	 0	 0.409228	 0.735570	 -0.907119	 1.670158	 -0.595873	 -0.442856	 -0.036552	 0.734653	 -0.353208	 0.578094	 1
1462068310.042	 0	 0.429246	 0.801477	 -1.050558	 1.675896	 -0.606423	 -0.446677	 -0.037675	 0.735990	 -0.357832	 0.573460	 1
1462068310.052	 0	 0.483322	 0.819665	 -1.160633	 1.681636	 -0.618188	 -0.450869	 -0.039043	 0.737256	 -0.362945	 0.568507	 1
1462068310.062	 0	 0.537306	 0.913610	 -1.384039	 1.687797	 -0.631967	 -0.455441	 -0.040837	 0.738530	 -0.368812	 0.562924	 1
1462068310.072	 0	 0.577967	 0.931619	 -1.377835	 1.694421	 -0.646836	 -0.460277	 -0.042774	 0.739845	 -0.375096	 0.556869	 1
1462068310.082	 0	 0.613250	 0.751318	 -1.146418	 1.699065	 -0.659615	 -0.465940	 -0.044048	 0.740676	 -0.380874	 0.551718	 1
1462068310.092	 0	 0.534835	 0.392091	 -0.847467	 1.700545	 -0.669510	 -0.471549	 -0.044971	 0.740746	 -0.385619	 0.548243	 1
1462068310.102	 0	 0.271309	 -0.039192	 -0.585943	 1.699155	 -0.676332	 -0.474872	 -0.046274	 0.740117	 -0.388675	 0.546825	 1
1462068310.112	 0	 -0.009228	 -0.302644	 -0.508151	 1.696723	 -0.681533	 -0.474730	 -0.048528	 0.739198	 -0.390232	 0.546764	 1
1462068310.122	 0	 -0.180323	 -0.388189	 -0.493603	 1.694675	 -0.686289	 -0.472087	 -0.051485	 0.738338	 -0.390968	 0.547129	 1
1462068310.132	 0	 -0.298054	 -0.481263	 -0.468931	 1.692816	 -0.690675	 -0.467874	 -0.054862	 0.737496	 -0.391155	 0.547802	 1
1462068310.142	 0	 -0.427840	 -0.603344	 -0.489187	 1.690803	 -0.694960	 -0.462038	 -0.058832	 0.736557	 -0.390855	 0.548868	 1
1462068310.152	 0	 -0.558765	 -0.697082	 -0.561391	 1.688986	 -0.699717	 -0.454372	 -0.063591	 0.735568	 -0.390199	 0.550128	 1
1462068310.162	 0	 -0.653384	 -0.783507	 -0.637040	 1.687269	 -0.705119	 -0.445211	 -0.069090	 0.734490	 -0.389328	 0.551520	 1
1462068310.172	 0	 -0.692401	 -0.813998	 -0.751025	 1.685880	 -0.711730	 -0.435032	 -0.075294	 0.733354	 -0.388561	 0.552760	 1
1462068310.182	 0	 -0.678805	 -0.740726	 -0.908195	 1.685001	 -0.719568	 -0.424708	 -0.081853	 0.732225	 -0.388153	 0.553610	 1
1462068310.192	 0	 -0.608126	 -0.570714	 -1.048975	 1.685374	 -0.728944	 -0.414813	 -0.088512	 0.731302	 -0.388400	 0.553632	 1
1462068310.202	 0	 -0.480383	 -0.327192	 -1.150134	 1.687250	 -0.739542	 -0.406165	 -0.094818	 0.730704	 -0.389453	 0.552636	 1
1462068310.212	 0	 -0.300164	 -0.084529	 -1.202739	 1.690894	 -0.751278	 -0.399194	 -0.100529	 0.730529	 -0.391428	 0.550459	 1
1462068310.222	 0	 -0.159460	 0.167672	 -1.275155	 1.695166	 -0.763491	 -0.394489	 -0.105428	 0.730543	 -0.394228	 0.547518	 1
1462068310.232	 0	 -0.068790	 0.393880	 -1.285563	 1.701018	 -0.776185	 -0.390990	 -0.109709	 0.730955	 -0.397611	 0.543667	 1
1462068310.242	 0	 -0.029310	 0.528559	 -1.178078	 1.707989	 -0.788124	 -0.388216	 -0.113227	 0.731711	 -0.401035	 0.539398	 1
1462068310.252	 0	 -0.025415	 0.539296	 -1.016016	 1.715175	 -0.798571	 -0.385769	 -0.116069	 0.732613	 -0.404105	 0.535262	 1
1462068310.262	 0	 -0.046608	 0.405711	 -0.818842	 1.721382	 -0.807107	 -0.383358	 -0.118454	 0.733378	 -0.406538	 0.531838	 1
1462068310.272	 0	 -0.074706	 0.209018	 -0.673353	 1.725792	 -0.813949	 -0.380843	 -0.120683	 0.733782	 -0.408310	 0.529417	 1
1462068310.282	 0	 -0.091358	 0.025448	 -0.618426	 1.727358	 -0.819890	 -0.378939	 -0.122970	 0.733534	 -0.409792	 0.528088	 1
1462068310.292	 0	 -0.088766	 -0.139114	 -0.576283	 1.728331	 -0.825564	 -0.376251	 -0.125577	 0.733093	 -0.410947	 0.527189	 1
1462068310.302	 0	 -0.047644	 -0.277222	 -0.537427	 1.727468	 -0.830862	 -0.374106	 -0.128239	 0.732227	 -0.412010	 0.526922	 1
1462068310.312	 0	 0.017073	 -0.381543	 -0.513407	 1.718440	 -0.838282	 -0.377628	 -0.131201	 0.729366	 -0.414699	 0.528050	 1
1462068310.322	 0	 0.059340	 -0.483659	 -0.497673	 1.714127	 -0.843322	 -0.377283	 -0.133846	 0.727722	 -0.415905	 0.528705	 1
1462068310.332	 0	 0.082469	 -0.572938	 -0.479522	 1.708476	 -0.848218	 -0.377414	 -0.136555	 0.725765	 -0.417090	 0.529768	 1
1462068310.352	 1	 0.075925	 -0.429911	 -0.414202	 1.698712	 -0.857972	 -0.377424	 -0.141751	 0.722232	 -0.419446	 0.531368	 1
1462068310.362	 1	 0.068224	 -0.303940	 -0.353280	 1.695097	 -0.861725	 -0.377762	 -0.143605	 0.720931	 -0.420437	 0.531854	 1
1462068310.372	 1	 0.074553	 -0.171398	 -0.260446	 1.692636	 -0.864643	 -0.378317	 -0.144871	 0.720032	 -0.421307	 0.532040	 1
1462068310.382	 1	 0.091610	 -0.038786	 -0.153850	 1.691152	 -0.866536	 -0.379307	 -0.145444	 0.719525	 -0.422045	 0.531986	 1
1462068310.392	 1	 0.111697	 0.079024	 -0.053916	 1.703222	 -0.871324	 -0.371100	 -0.147404	 0.721648	 -0.422229	 0.528411	 1
1462068310.402	 1	 0.135880	 0.168812	 0.017049	 1.703188	 -0.871486	 -0.373093	 -0.146744	 0.721769	 -0.422803	 0.527970	 1
1462068310.412	 1	 0.161972	 0.231823	 0.063236	 1.703436	 -0.871172	 -0.375602	 -0.145685	 0.722050	 -0.423386	 0.527413	 1
1462068310.422	 1	 0.195388	 0.280838	 0.088980	 1.703779	 -0.870592	 -0.378664	 -0.144319	 0.722420	 -0.424039	 0.526756	 1
1462068310.432	 1	 0.240265	 0.304239	 0.094979	 1.711039	 -0.880921	 -0.376935	 -0.146728	 0.723155	 -0.427306	 0.522425	 1
1462068310.442	 1	 0.297876	 0.302987	 0.092334	 1.710546	 -0.880394	 -0.381531	 -0.145002	 0.723415	 -0.428307	 0.521726	 1
1462068310.452	 1	 0.367216	 0.287973	 0.103314	 1.709126	 -0.879895	 -0.387164	 -0.143108	 0.723501	 -0.429519	 0.521133	 1
1462068310.462	 1	 0.439783	 0.263508	 0.132296	 1.706575	 -0.879227	 -0.393984	 -0.140974	 0.723388	 -0.430909	 0.520724	 1
1462068310.472	 1	 0.488907	 0.264683	 0.154162	 1.711268	 -0.882535	 -0.395517	 -0.140474	 0.724385	 -0.432653	 0.518019	 1
1462068310.482	 1	 0.534014	 0.323066	 0.156444	 1.707752	 -0.881706	 -0.404028	 -0.137886	 0.724149	 -0.434358	 0.517618	 1
1462068310.492	 1	 0.528019	 0.378658	 0.193250	 1.704761	 -0.880631	 -0.412673	 -0.135059	 0.724070	 -0.436062	 0.517042	 1
1462068310.502	 1	 0.466377	 0.430971	 0.195339	 1.702705	 -0.879232	 -0.420669	 -0.132159	 0.724206	 -0.437565	 0.516330	 1
1462068310.512	 1	 0.380177	 0.615141	 0.036873	 1.703634	 -0.879009	 -0.426996	 -0.129590	 0.724880	 -0.439189	 0.514653	 1
1462068310.522	 1	 0.319850	 0.827132	 -0.088522	 1.707703	 -0.880123	 -0.431900	 -0.127278	 0.726135	 -0.441046	 0.511865	 1
1462068310.532	 1	 0.267282	 1.089354	 -0.470364	 1.714957	 -0.883625	 -0.435594	 -0.125467	 0.727890	 -0.443508	 0.507675	 1
1462068310.542	 1	 0.270841	 1.293852	 -1.162304	 1.726060	 -0.893994	 -0.437389	 -0.125685	 0.729815	 -0.447807	 0.501041	 1
1462068310.552	 1	 0.322883	 1.407305	 -1.629571	 1.739127	 -0.909519	 -0.438333	 -0.127372	 0.731588	 -0.453589	 0.492760	 1
1462068310.562	 1	 0.386799	 1.474570	 -2.007847	 1.753323	 -0.929015	 -0.438844	 -0.130140	 0.733071	 -0.460558	 0.483277	 1
1462068310.572	 1	 0.454780	 1.485564	 -2.370696	 1.768195	 -0.952237	 -0.438829	 -0.134007	 0.734100	 -0.468596	 0.472818	 1
1462068310.582	 1	 0.529149	 1.466988	 -2.701902	 1.783423	 -0.978947	 -0.438201	 -0.138968	 0.734543	 -0.477594	 0.461561	 1
1462068310.592	 1	 0.610374	 1.461867	 -2.934994	 1.798894	 -1.008379	 -0.437179	 -0.144693	 0.734406	 -0.487363	 0.449654	 1
1462068310.602	 1	 0.690890	 1.419439	 -3.033074	 1.814126	 -1.039281	 -0.436187	 -0.150734	 0.733715	 -0.497581	 0.437442	 1
1462068310.612	 1	 0.583252	 0.817191	 -2.817128	 1.826193	 -1.069024	 -0.434268	 -0.157384	 0.732110	 -0.507014	 0.426828	 1
1462068310.622	 1	 -0.013772	 -0.684951	 -2.223752	 1.831951	 -1.092363	 -0.424101	 -0.166609	 0.729162	 -0.512289	 0.422048	 1
1462068310.632	 1	 -0.337310	 -1.371701	 -1.721088	 1.834001	 -1.109348	 -0.407624	 -0.177114	 0.725639	 -0.514051	 0.421700	 1
1462068310.642	 1	 -0.375044	 -1.287543	 -1.409739	 1.835944	 -1.122615	 -0.390536	 -0.186706	 0.722439	 -0.514578	 0.422412	 1
1462068310.652	 1	 -0.266407	 -1.005989	 -1.260989	 1.838503	 -1.134257	 -0.375843	 -0.194746	 0.719718	 -0.515196	 0.422673	 1
1462068310.662	 1	 -0.071713	 -0.905530	 -1.262815	 1.839194	 -1.146014	 -0.365003	 -0.201875	 0.716862	 -0.516488	 0.422605	 1
1462068310.672	 1	 0.168464	 -1.010339	 -1.391642	 1.835130	 -1.159340	 -0.358790	 -0.209003	 0.713137	 -0.518728	 0.422700	 1
1462068310.682	 1	 0.416140	 -1.222506	 -1.654753	 1.824921	 -1.175525	 -0.357218	 -0.216899	 0.708065	 -0.522091	 0.423107	 1
1462068310.692	 1	 0.618932	 -1.434655	 -1.933459	 1.808581	 -1.195040	 -0.359912	 -0.225898	 0.701563	 -0.526535	 0.423723	 1
1462068310.702	 1	 0.710119	 -1.629848	 -2.119381	 1.787278	 -1.216850	 -0.365770	 -0.235861	 0.693969	 -0.531538	 0.424551	 1
1462068310.712	 1	 0.725950	 -1.787162	 -2.245677	 1.762574	 -1.240025	 -0.373434	 -0.246644	 0.685652	 -0.536630	 0.425530	 1
1462068310.722	 1	 0.752909	 -1.881466	 -2.332050	 1.734060	 -1.264118	 -0.383860	 -0.257951	 0.676754	 -0.541756	 0.426575	 1
1462068310.742	 2	 0.770049	 -1.783330	 -2.432534	 1.665253	 -1.313568	 -0.416355	 -0.280931	 0.658084	 -0.552037	 0.428087	 1
1462068310.752	 2	 0.839141	 -1.368902	 -2.456988	 1.624904	 -1.338580	 -0.442501	 -0.291336	 0.649112	 -0.557798	 0.427362	 1
1462068310.762	 2	 0.782468	 -0.557495	 -2.643979	 1.584722	 -1.364647	 -0.475734	 -0.300108	 0.641374	 -0.564760	 0.423817	 1
1462068310.772	 2	 0.532039	 0.331425	 -3.073687	 1.554251	 -1.394172	 -0.507882	 -0.307946	 0.635386	 -0.573066	 0.415991	 1
1462068310.782	 2	 0.203679	 1.058303	 -3.586287	 1.540386	 -1.428661	 -0.531050	 -0.315699	 0.631016	 -0.582461	 0.403600	 1
1462068310.792	 2	 -0.052566	 1.533178	 -3.913221	 1.546004	 -1.467231	 -0.539594	 -0.323704	 0.627642	 -0.592343	 0.387829	 1
1462068310.802	 2	 -0.113132	 1.993249	 -3.856190	 1.571816	 -1.506179	 -0.532597	 -0.330472	 0.625157	 -0.602473	 0.370126	 1
1462068310.812	 2	 -0.106661	 2.360857	 -3.469151	 1.646256	 -1.541908	 -0.480867	 -0.334922	 0.623631	 -0.612391	 0.351977	 1
1462068310.822	 2	 -0.148405	 2.623863	 -3.005931	 -2.571040	 -1.566228	 1.559443	 -0.336965	 0.623199	 -0.621634	 0.334139	 1
1462068310.832	 2	 -0.240810	 2.797523	 -2.563351	 -1.757785	 -1.540947	 2.345154	 -0.337014	 0.623856	 -0.629965	 0.316812	 1
1462068310.842	 2	 -0.358057	 2.904285	 -2.115848	 -1.717192	 -1.518440	 2.356963	 -0.335353	 0.625584	 -0.637224	 0.300214	 1
1462068310.852	 2	 -0.494720	 2.971710	 -1.673871	 -1.718916	 -1.500117	 2.325597	 -0.332147	 0.628402	 -0.643328	 0.284461	 1
1462068310.862	 2	 -0.611634	 2.945325	 -1.253188	 -1.736049	 -1.485819	 2.278744	 -0.327674	 0.632148	 -0.648248	 0.269802	 1
1462068310.872	 2	 -0.702495	 2.829149	 -0.883658	 -1.762263	 -1.475047	 2.223668	 -0.322341	 0.636548	 -0.652023	 0.256455	 1
1462068310.882	 2	 -0.773730	 2.626323	 -0.574789	 -1.796056	 -1.467143	 2.162745	 -0.316593	 0.641345	 -0.654702	 0.244560	 1
1462068310.892	 2	 -0.808416	 2.319646	 -0.345004	 -1.835872	 -1.461342	 2.098541	 -0.310958	 0.646231	 -0.656361	 0.234266	 1
1462068310.902	 2	 -0.782061	 1.905791	 -0.203075	 -1.877657	 -1.456867	 2.036210	 -0.306005	 0.650792	 -0.657169	 0.225742	 1
1462068310.912	 2	 -0.670171	 1.365608	 -0.139802	 -1.915775	 -1.453177	 1.982655	 -0.302327	 0.654554	 -0.657333	 0.219253	 1
1462068310.922	 2	 -0.474697	 0.719476	 -0.132595	 -1.944449	 -1.450089	 1.944843	 -0.300417	 0.657059	 -0.657076	 0.215116	 1
1462068310.932	 2	 -0.204777	 0.036809	 -0.146627	 -1.958884	 -1.447737	 1.928230	 -0.300508	 0.657967	 -0.656634	 0.213557	 1
1462068310.942	 2	 0.071008	 -0.553173	 -0.137466	 -1.958396	 -1.446440	 1.932906	 -0.302332	 0.657294	 -0.656174	 0.214463	 1
1462068310.952	 2	 0.281669	 -0.958649	 -0.085522	 -1.946715	 -1.446372	 1.953442	 -0.305264	 0.655435	 -0.655730	 0.217340	 1
1462068310.962	 2	 0.392060	 -1.159350	 0.003305	 -1.929550	 -1.447527	 1.982041	 -0.308595	 0.652958	 -0.655244	 0.221516	 1
1462068310.972	 2	 0.399607	 -1.176105	 0.042517	 -1.911593	 -1.449275	 2.012023	 -0.311882	 0.650375	 -0.654686	 0.226114	 1
1462068310.982	 2	 0.335843	 -1.075259	 -0.010344	 -1.895179	 -1.450511	 2.039713	 -0.315074	 0.647959	 -0.654097	 0.230292	 1
1462068310.992	 2	 0.220080	 -0.893588	 -0.085446	 -1.883070	 -1.450646	 2.061413	 -0.318088	 0.645935	 -0.653496	 0.233517	 1
1462068311.002	 2	 0.084445	 -0.667890	 -0.110940	 -1.878332	 -1.449971	 2.073502	 -0.320672	 0.644525	 -0.652844	 0.235694	 1
1462068311.012	 2	 -0.038062	 -0.426884	 -0.073527	 -1.881773	 -1.449128	 2.074942	 -0.322548	 0.643841	 -0.652133	 0.236969	 1
1462068311.022	 2	 -0.118967	 -0.195521	 -0.029105	 -1.891229	 -1.448442	 2.067953	 -0.323615	 0.643813	 -0.651443	 0.237488	 1
1462068311.032	 2	 -0.143603	 0.002460	 -0.018522	 -1.901983	 -1.447812	 2.057564	 -0.323987	 0.644187	 -0.650941	 0.237342	 1
1462068311.042	 2	 -0.125790	 0.162976	 -0.023578	 -1.910128	 -1.447164	 2.048096	 -0.323809	 0.644726	 -0.650748	 0.236651	 1
1462068311.052	 2	 -0.094277	 0.282014	 -0.022744	 -1.914679	 -1.446595	 2.040941	 -0.323178	 0.645321	 -0.650858	 0.235586	 1
1462068311.062	 2	 -0.066179	 0.343731	 -0.007494	 -1.916532	 -1.446237	 2.035712	 -0.322216	 0.645932	 -0.651174	 0.234353	 1
1462068311.072	 2	 -0.050175	 0.327859	 0.010337	 -1.917313	 -1.446104	 2.031536	 -0.321167	 0.646507	 -0.651536	 0.233197	 1
1462068311.082	 2	 -0.040928	 0.244934	 0.019077	 -1.918311	 -1.446136	 2.027815	 -0.320278	 0.646989	 -0.651809	 0.232319	 1
1462068311.092	 2	 -0.029835	 0.117189	 0.008199	 -1.919554	 -1.446136	 2.025050	 -0.319788	 0.647287	 -0.651932	 0.231820	 1
1462068311.102	 2	 -0.017686	 -0.013742	 -0.001651	 -1.921008	 -1.446064	 2.023396	 -0.319751	 0.647380	 -0.651891	 0.231725	 1
1462068311.112	 2	 -0.001101	 -0.120129	 0.001478	 -1.922388	 -1.446041	 2.022969	 -0.320071	 0.647288	 -0.651719	 0.232024	 1
1462068311.122	 2	 0.019932	 -0.187188	 0.002802	 -1.923094	 -1.446119	 2.023993	 -0.320606	 0.647045	 -0.651487	 0.232615	 1
1462068311.132	 2	 0.041132	 -0.217035	 0.002340	 -1.922559	 -1.446268	 2.026671	 -0.321246	 0.646683	 -0.651262	 0.233367	 1
1462068311.142	 2	 0.055013	 -0.211789	 -0.001995	 -1.920786	 -1.446432	 2.030629	 -0.321892	 0.646260	 -0.651084	 0.234142	 1
1462068311.152	 2	 0.062614	 -0.178884	 -0.008150	 -1.917848	 -1.446575	 2.035488	 -0.322456	 0.645827	 -0.650988	 0.234827	 1
1462068311.162	 2	 0.052195	 -0.121453	 -0.012853	 -1.914737	 -1.446654	 2.040003	 -0.322874	 0.645468	 -0.650959	 0.235320	 1
1462068311.172	 2	 0.033262	 -0.055518	 -0.021667	 -1.912082	 -1.446606	 2.043398	 -0.323122	 0.645230	 -0.650988	 0.235552	 1
1462068311.182	 2	 0.009956	 -0.003467	 -0.040163	 -1.910122	 -1.446334	 2.045526	 -0.323264	 0.645105	 -0.651055	 0.235514	 1
1462068311.192	 2	 -0.012299	 0.038006	 -0.050241	 -1.909068	 -1.445846	 2.046313	 -0.323342	 0.645081	 -0.651135	 0.235254	 1
1462068311.202	 2	 -0.031292	 0.080633	 -0.046482	 -1.909110	 -1.445301	 2.045549	 -0.323296	 0.645175	 -0.651220	 0.234822	 1
1462068311.212	 2	 -0.038594	 0.105213	 -0.033400	 -1.909965	 -1.444836	 2.043681	 -0.323132	 0.645356	 -0.651303	 0.234322	 1
1462068311.232	 3	 -0.018279	 0.107333	 -0.026097	 -1.910487	 -1.444060	 2.040895	 -0.322669	 0.645711	 -0.651546	 0.233303	 1
1462068311.242	 3	 -0.008596	 0.106380	 -0.005851	 -1.938218	 -1.448533	 2.012331	 -0.320924	 0.647234	 -0.650435	 0.234584	 1
1462068311.252	 3	 -0.001053	 0.118088	 -0.001544	 -1.937247	 -1.448513	 2.012157	 -0.320559	 0.647375	 -0.650611	 0.234206	 1
1462068311.262	 3	 0.002195	 0.137133	 -0.013044	 -1.959761	 -1.452206	 1.988509	 -0.318945	 0.648620	 -0.649825	 0.235146	 1
1462068311.272	 3	 0.005474	 0.149918	 -0.008690	 -1.957538	 -1.452126	 1.989282	 -0.318501	 0.648756	 -0.650087	 0.234648	 1
1462068311.292	 4	 -0.008254	 0.172375	 0.002334	 -1.971615	 -1.453689	 1.971980	 -0.316920	 0.649889	 -0.649904	 0.234159	 1
1462068311.302	 4	 -0.006213	 0.155337	 0.000032	 -1.975568	 -1.453737	 1.966457	 -0.316392	 0.650302	 -0.649925	 0.233667	 1
1462068311.312	 4	 -0.002019	 0.140436	 -0.000144	 -1.976192	 -1.453516	 1.964387	 -0.315998	 0.650553	 -0.650064	 0.233117	 1
1462068311.322	 4	 0.007540	 0.131903	 -0.000314	 -1.975913	 -1.452950	 1.963343	 -0.315763	 0.650741	 -0.650217	 0.232483	 1
1462068311.332	 4	 0.007517	 0.126605	 0.001761	 -1.975345	 -1.452343	 1.962653	 -0.315563	 0.650905	 -0.650374	 0.231854	 1
1462068311.342	 4	 0.009608	 0.117048	 0.003771	 -1.972763	 -1.451404	 1.964026	 -0.315494	 0.650971	 -0.650602	 0.231122	 1
1462068311.352	 4	 0.011625	 0.094703	 0.002462	 -1.969263	 -1.450366	 1.966492	 -0.315515	 0.650967	 -0.650849	 0.230410	 1
1462068311.362	 4	 0.015697	 0.053207	 0.002040	 -1.967521	 -1.450451	 1.967614	 -0.315284	 0.650992	 -0.650996	 0.230239	 1
1462068311.372	 4	 0.029281	 -0.012736	 0.007703	 -1.965693	 -1.450610	 1.969423	 -0.315223	 0.650920	 -0.651079	 0.230290	 1
1462068311.382	 4	 0.038636	 -0.082812	 0.028285	 -1.964294	 -1.450964	 1.971500	 -0.315322	 0.650761	 -0.651066	 0.230639	 1
1462068311.392	 4	 0.042703	 -0.142276	 0.044739	 -1.951922	 -1.451693	 1.985099	 -0.315464	 0.650062	 -0.651459	 0.231307	 1
1462068311.402	 4	 0.028750	 -0.158197	 0.043646	 -1.952304	 -1.452237	 1.986308	 -0.315794	 0.649841	 -0.651266	 0.232021	 1
1462068311.412	 4	 0.005263	 -0.143382	 0.023739	 -1.953811	 -1.452554	 1.986292	 -0.316170	 0.649677	 -0.651034	 0.232620	 1
1462068311.422	 4	 -0.018071	 -0.090329	 -0.003274	 -1.956009	 -1.452530	 1.985111	 -0.316510	 0.649607	 -0.650823	 0.232941	 1
1462068311.432	 4	 -0.043354	 -0.008462	 -0.017165	 -1.974599	 -1.454347	 1.966914	 -0.316015	 0.650354	 -0.650038	 0.233720	 1
1462068311.442	 4	 -0.056767	 0.093645	 -0.022492	 -1.977559	 -1.453940	 1.963248	 -0.315925	 0.650580	 -0.649990	 0.233345	 1
1462068311.452	 4	 -0.055318	 0.205056	 -0.058770	 -1.978534	 -1.453269	 1.960512	 -0.315583	 0.650888	 -0.650140	 0.232530	 1
1462068311.462	 4	 -0.055962	 0.331311	 -0.102351	 -1.976882	 -1.452222	 1.959160	 -0.314967	 0.651276	 -0.650533	 0.231175	 1
1462068311.472	 4	 -0.041769	 0.417265	 -0.124056	 -1.972443	 -1.450924	 1.959611	 -0.314117	 0.651694	 -0.651151	 0.229407	 1
1462068311.482	 4	 -0.029771	 0.454667	 -0.097182	 -1.976818	 -1.448234	 1.950829	 -0.313606	 0.652529	 -0.651404	 0.227002	 1
1462068311.492	 4	 -0.013718	 0.436776	 -0.064450	 -1.971445	 -1.447508	 1.951762	 -0.312409	 0.652979	 -0.652122	 0.225291	 1
1462068311.502	 4	 0.003122	 0.374084	 -0.049193	 -1.965992	 -1.447027	 1.953306	 -0.311300	 0.653342	 -0.652788	 0.223840	 1
1462068311.512	 4	 0.021910	 0.280470	 -0.043834	 -1.960297	 -1.446681	 1.955973	 -0.310431	 0.653557	 -0.653368	 0.222725	 1
1462068311.522	 4	 0.041718	 0.176141	 -0.046020	 -1.942335	 -1.448649	 1.971871	 -0.309074	 0.653139	 -0.654414	 0.222765	 1
1462068311.532	 4	 0.046680	 0.098470	 -0.047852	 -1.936326	 -1.448368	 1.976772	 -0.308804	 0.653044	 -0.654793	 0.222306	 1
1462068311.542	 4	 0.041193	 0.066576	 -0.048101	 -1.930872	 -1.448070	 1.981538	 -0.308677	 0.652905	 -0.655102	 0.221979	 1
1462068311.552	 4	 0.026212	 0.063383	 -0.054394	 -1.926515	 -1.447695	 1.985289	 -0.308603	 0.652798	 -0.655354	 0.221650	 1
1462068311.562	 4	 -0.000422	 0.088869	 -0.070955	 -1.933775	 -1.447770	 1.977324	 -0.308355	 0.653225	 -0.655118	 0.221438	 1
1462068311.572	 4	 -0.035424	 0.139977	 -0.077635	 -1.932308	 -1.446953	 1.977542	 -0.308227	 0.653331	 -0.655310	 0.220735	 1
1462068311.582	 4	 -0.068176	 0.203942	 -0.070360	 -1.932854	 -1.446050	 1.975103	 -0.307921	 0.653621	 -0.655483	 0.219789	 1
1462068311.592	 4	 -0.088096	 0.258427	 -0.045167	 -1.935216	 -1.445255	 1.970243	 -0.307380	 0.654088	 -0.655641	 0.218681	 1
1462068311.602	 4	 -0.084646	 0.284205	 -0.009770	 -1.949087	 -1.445007	 1.953612	 -0.306568	 0.655121	 -0.655322	 0.217681	 1
1462068311.612	 4	 -0.063301	 0.259893	 0.019659	 -1.951910	 -1.444873	 1.948062	 -0.305721	 0.655661	 -0.655490	 0.216739	 1
1462068311.622	 4	 -0.027247	 0.205591	 0.026300	 -1.953113	 -1.444975	 1.944628	 -0.304954	 0.656058	 -0.655680	 0.216044	 1
1462068311.632	 4	 0.010801	 0.123548	 0.023049	 -1.932403	 -1.445146	 1.963727	 -0.304362	 0.655387	 -0.656777	 0.215582	 1
1462068311.642	 4	 0.050860	 0.029739	 0.010104	 -1.929256	 -1.445415	 1.966357	 -0.304097	 0.655333	 -0.656976	 0.215512	 1
1462068311.652	 4	 0.052282	 -0.107588	 -0.006107	 -1.925568	 -1.445603	 1.970736	 -0.304255	 0.655070	 -0.657068	 0.215810	 1
1462068311.662	 4	 -0.014914	 -0.318260	 -0.033014	 -1.927404	 -1.445356	 1.971583	 -0.305221	 0.654735	 -0.656693	 0.216600	 1
1462068311.672	 4	 -0.057115	 -0.434136	 -0.042265	 -1.928206	 -1.444044	 1.974831	 -0.306999	 0.654114	 -0.656201	 0.217456	 1
1462068311.682	 4	 -0.082908	 -0.476568	 -0.037106	 -1.937411	 -1.443412	 1.970270	 -0.308743	 0.653794	 -0.655273	 0.218742	 1
1462068311.692	 4	 -0.100011	 -0.487115	 -0.031727	 -1.948379	 -1.442754	 1.964127	 -0.310553	 0.653526	 -0.654238	 0.220078	 1
1462068311.702	 4	 -0.086872	 -0.411679	 -0.037534	 -1.958367	 -1.442073	 1.958453	 -0.312198	 0.653292	 -0.653296	 0.221240	 1
1462068311.712	 4	 -0.057394	 -0.262929	 -0.047064	 -1.964768	 -1.441415	 1.955051	 -0.313403	 0.653101	 -0.652657	 0.221982	 1
1462068311.722	 4	 -0.053581	 -0.118419	 -0.064936	 -1.968142	 -1.440658	 1.953174	 -0.314152	 0.653007	 -0.652318	 0.222198	 1
1462068311.732	 4	 -0.088426	 -0.011138	 -0.098805	 -1.971366	 -1.439522	 1.950281	 -0.314649	 0.653083	 -0.652105	 0.221896	 1
1462068311.742	 4	 -0.128703	 0.080165	 -0.138103	 -1.975214	 -1.437878	 1.945810	 -0.315009	 0.653332	 -0.651951	 0.221101	 1
1462068311.752	 4	 -0.162666	 0.145983	 -0.169168	 -1.979677	 -1.435774	 1.939984	 -0.315283	 0.653725	 -0.651832	 0.219899	 1
1462068311.762	 4	 -0.174205	 0.195940	 -0.178195	 -1.984239	 -1.433453	 1.933526	 -0.315456	 0.654210	 -0.651750	 0.218446	 1
1462068311.772	 4	 -0.162206	 0.241720	 -0.167215	 -1.987906	 -1.431216	 1.927486	 -0.315442	 0.654735	 -0.651756	 0.216869	 1
1462068311.782	 4	 -0.142925	 0.241794	 -0.149265	 -1.990483	 -1.429209	 1.922404	 -0.315306	 0.655235	 -0.651830	 0.215330	 1
1462068311.792	 4	 -0.144161	 0.187712	 -0.127376	 -1.993771	 -1.427420	 1.917015	 -0.315225	 0.655712	 -0.651826	 0.214004	 1
1462068311.802	 4	 -0.148807	 0.082646	 -0.097406	 -1.998871	 -1.425850	 1.910726	 -0.315363	 0.656145	 -0.651633	 0.213059	 1
1462068311.812	 4	 -0.158936	 -0.059579	 -0.060274	 -2.006764	 -1.424560	 1.902976	 -0.315832	 0.656519	 -0.651160	 0.212658	 1
1462068311.822	 4	 -0.170195	 -0.211404	 -0.027484	 -2.017747	 -1.423533	 1.893639	 -0.316692	 0.656823	 -0.650371	 0.212855	 1
1462068311.832	 4	 -0.172858	 -0.343115	 -0.004174	 -2.030986	 -1.422696	 1.883396	 -0.317915	 0.657037	 -0.649323	 0.213572	 1
1462068311.842	 4	 -0.157153	 -0.415415	 0.005674	 -2.044878	 -1.422000	 1.873430	 -0.319385	 0.657140	 -0.648140	 0.214653	 1
1462068311.852	 4	 -0.102493	 -0.367698	 0.007774	 -2.055964	 -1.421535	 1.866136	 -0.320736	 0.657118	 -0.647124	 0.215765	 1
1462068311.862	 4	 -0.030342	 -0.224371	 0.001019	 -2.061548	 -1.421340	 1.863170	 -0.321635	 0.656992	 -0.646537	 0.216571	 1
1462068311.872	 4	 0.035618	 -0.025738	 -0.009414	 -2.080601	 -1.420723	 1.845126	 -0.322067	 0.657840	 -0.645387	 0.216783	 1
1462068311.882	 4	 0.079206	 0.172963	 -0.018602	 -2.074818	 -1.420918	 1.849715	 -0.321643	 0.657725	 -0.645833	 0.216432	 1
1462068311.892	 4	 0.087437	 0.339874	 -0.025647	 -2.065902	 -1.421131	 1.855676	 -0.320650	 0.657728	 -0.646634	 0.215503	 1
1462068311.902	 4	 0.061220	 0.437804	 -0.025573	 -2.056898	 -1.421234	 1.860565	 -0.319310	 0.657911	 -0.647556	 0.214161	 1
1462068311.912	 4	 0.011232	 0.476256	 -0.023699	 -2.062243	 -1.421146	 1.850690	 -0.317820	 0.658915	 -0.647753	 0.212691	 1
1462068311.922	 4	 -0.043207	 0.478500	 -0.029598	 -2.058282	 -1.420761	 1.849841	 -0.316388	 0.659474	 -0.648447	 0.210971	 1
1462068311.932	 4	 -0.089263	 0.445641	 -0.032701	 -2.057339	 -1.420107	 1.846181	 -0.315097	 0.660159	 -0.648940	 0.209237	 1
1462068311.942	 4	 -0.127992	 0.381920	 -0.035088	 -2.059247	 -1.419241	 1.840217	 -0.314042	 0.660909	 -0.649208	 0.207620	 1
1462068311.952	 4	 -0.149737	 0.294750	 -0.036766	 -2.058792	 -1.419399	 1.837359	 -0.312895	 0.661402	 -0.649585	 0.206598	 1
1462068311.962	 4	 -0.159939	 0.169266	 -0.037845	 -2.064665	 -1.418318	 1.829329	 -0.312514	 0.662069	 -0.649424	 0.205544	 1
1462068311.972	 4	 -0.152235	 -0.009424	 -0.035312	 -2.072110	 -1.417252	 1.821461	 -0.312687	 0.662553	 -0.648995	 0.205072	 1
1462068311.982	 4	 -0.107834	 -0.112603	 -0.018540	 -2.079135	 -1.416460	 1.815292	 -0.313191	 0.662814	 -0.648473	 0.205114	 1
1462068311.992	 4	 -0.040569	 -0.125417	 0.002072	 -2.079331	 -1.416737	 1.816284	 -0.313489	 0.662633	 -0.648360	 0.205600	 1
1462068312.002	 4	 0.020491	 -0.075614	 0.000938	 -2.079903	 -1.416806	 1.816604	 -0.313757	 0.662522	 -0.648243	 0.205918	 1
1462068312.012	 4	 0.037721	 -0.027932	 -0.016886	 -2.077888	 -1.416863	 1.819049	 -0.313894	 0.662345	 -0.648311	 0.206064	 1
1462068312.022	 4	 0.033702	 0.027368	 -0.019534	 -2.075204	 -1.416864	 1.821633	 -0.313880	 0.662216	 -0.648466	 0.206013	 1
1462068312.032	 4	 0.011638	 0.106124	 -0.021782	 -2.084970	 -1.417282	 1.811176	 -0.313439	 0.662841	 -0.648042	 0.206009	 1
1462068312.042	 4	 -0.033860	 0.198707	 -0.033313	 -2.083447	 -1.416918	 1.810932	 -0.312988	 0.663044	 -0.648279	 0.205294	 1
1462068312.052	 4	 -0.102919	 0.275391	 -0.046919	 -2.084222	 -1.416118	 1.807528	 -0.312382	 0.663515	 -0.648447	 0.204161	 1
1462068312.062	 4	 -0.174284	 0.315916	 -0.060841	 -2.088065	 -1.414844	 1.800512	 -0.311730	 0.664250	 -0.648465	 0.202704	 1
1462068312.072	 4	 -0.229765	 0.326646	 -0.069821	 -2.102430	 -1.414425	 1.782866	 -0.310662	 0.665555	 -0.647981	 0.201610	 1
1462068312.082	 4	 -0.266118	 0.311863	 -0.069642	 -2.111077	 -1.412496	 1.770905	 -0.310131	 0.666605	 -0.647678	 0.199926	 1
1462068312.092	 4	 -0.264114	 0.279985	 -0.064627	 -2.120236	 -1.410551	 1.758714	 -0.309684	 0.667651	 -0.647302	 0.198339	 1
1462068312.102	 4	 -0.230121	 0.238477	 -0.054652	 -2.128513	 -1.408804	 1.747805	 -0.309305	 0.668588	 -0.646939	 0.196951	 1
1462068312.112	 4	 -0.184443	 0.188358	 -0.053379	 -2.129031	 -1.408480	 1.745081	 -0.308671	 0.668971	 -0.647096	 0.196128	 1
1462068312.122	 4	 -0.133481	 0.141334	 -0.063852	 -2.133133	 -1.407181	 1.739388	 -0.308529	 0.669502	 -0.646897	 0.195197	 1
1462068312.132	 4	 -0.065247	 0.132581	 -0.069857	 -2.133837	 -1.406151	 1.737330	 -0.308413	 0.669794	 -0.646890	 0.194400	 1
1462068312.142	 4	 0.004205	 0.154680	 -0.074519	 -2.130708	 -1.405471	 1.739010	 -0.308191	 0.669867	 -0.647144	 0.193653	 1
1462068312.152	 4	 0.064205	 0.213983	 -0.086231	 -2.118036	 -1.404379	 1.749713	 -0.308038	 0.669484	 -0.647960	 0.192486	 1
1462068312.162	 4	 0.106228	 0.315823	 -0.105899	 -2.107127	 -1.404021	 1.757842	 -0.307343	 0.669293	 -0.648826	 0.191343	 1
1462068312.172	 4	 0.115156	 0.421956	 -0.133765	 -2.093444	 -1.403520	 1.767697	 -0.306366	 0.669100	 -0.649943	 0.189786	 1
1462068312.182	 4	 0.087604	 0.491986	 -0.168043	 -2.079050	 -1.402607	 1.777447	 -0.305254	 0.668993	 -0.651148	 0.187815	 1
1462068312.192	 4	 0.036227	 0.493973	 -0.208075	 -2.067082	 -1.401061	 1.784569	 -0.304259	 0.669061	 -0.652184	 0.185577	 1
1462068312.202	 4	 -0.032510	 0.423783	 -0.234774	 -2.057151	 -1.398972	 1.790125	 -0.303585	 0.669175	 -0.653021	 0.183316	 1
1462068312.212	 4	 -0.090692	 0.317496	 -0.248046	 -2.051112	 -1.396435	 1.792758	 -0.303353	 0.669370	 -0.653508	 0.181243	 1
1462068312.222	 4	 -0.124147	 0.234667	 -0.243196	 -2.048086	 -1.393712	 1.793260	 -0.303454	 0.669610	 -0.653719	 0.179414	 1
1462068312.232	 4	 -0.140337	 0.182718	 -0.226473	 -2.050629	 -1.391530	 1.788817	 -0.303536	 0.670091	 -0.653567	 0.178028	 1
1462068312.242	 4	 -0.157410	 0.160625	 -0.199885	 -2.051104	 -1.388992	 1.786665	 -0.303828	 0.670417	 -0.653492	 0.176570	 1
1462068312.252	 4	 -0.182876	 0.162020	 -0.164481	 -2.053597	 -1.386643	 1.782500	 -0.304039	 0.670870	 -0.653298	 0.175200	 1
1462068312.262	 4	 -0.216708	 0.197494	 -0.126554	 -2.058216	 -1.384469	 1.775911	 -0.304071	 0.671507	 -0.652998	 0.173816	 1
1462068312.272	 4	 -0.246131	 0.266964	 -0.091503	 -2.074941	 -1.384078	 1.756739	 -0.303215	 0.672976	 -0.652089	 0.173042	 1
1462068312.282	 4	 -0.263746	 0.355496	 -0.063882	 -2.081789	 -1.382202	 1.746379	 -0.302589	 0.674005	 -0.651778	 0.171299	 1
1462068312.292	 4	 -0.263318	 0.432195	 -0.047185	 -2.088377	 -1.380459	 1.735450	 -0.301635	 0.675145	 -0.651553	 0.169336	 1
1462068312.302	 4	 -0.243920	 0.479933	 -0.056502	 -2.093497	 -1.378762	 1.725450	 -0.300492	 0.676272	 -0.651463	 0.167201	 1
1462068312.312	 4	 -0.211910	 0.494587	 -0.075810	 -2.099394	 -1.377872	 1.714516	 -0.299010	 0.677451	 -0.651401	 0.165318	 1
1462068312.322	 4	 -0.178018	 0.455005	 -0.093525	 -2.100618	 -1.376157	 1.708507	 -0.297945	 0.678308	 -0.651540	 0.163164	 1
1462068312.332	 4	 -0.145372	 0.373975	 -0.107353	 -2.100628	 -1.374487	 1.704463	 -0.297134	 0.678970	 -0.651697	 0.161255	 1
1462068312.342	 4	 -0.126635	 0.280268	 -0.114782	 -2.100321	 -1.372853	 1.701675	 -0.296632	 0.679468	 -0.651799	 0.159660	 1
1462068312.352	 4	 -0.118519	 0.180316	 -0.107246	 -2.097545	 -1.372532	 1.702294	 -0.296045	 0.679609	 -0.652128	 0.158804	 1
1462068312.362	 4	 -0.112444	 0.096399	 -0.089962	 -2.098872	 -1.371140	 1.699757	 -0.296079	 0.679930	 -0.651989	 0.157932	 1
1462068312.372	 4	 -0.107246	 0.048680	 -0.068070	 -2.101046	 -1.369951	 1.696945	 -0.296228	 0.680218	 -0.651766	 0.157332	 1
1462068312.382	 4	 -0.097555	 0.050917	 -0.048950	 -2.103492	 -1.368984	 1.693973	 -0.296336	 0.680503	 -0.651536	 0.156851	 1
1462068312.392	 4	 -0.083483	 0.085006	 -0.035963	 -2.109129	 -1.367831	 1.687607	 -0.296388	 0.681049	 -0.651076	 0.156286	 1
1462068312.402	 4	 -0.065071	 0.139222	 -0.032421	 -2.109968	 -1.367201	 1.685469	 -0.296143	 0.681326	 -0.651051	 0.155652	 1
1462068312.412	 4	 -0.048846	 0.197568	 -0.046941	 -2.109318	 -1.366570	 1.684273	 -0.295733	 0.681578	 -0.651171	 0.154817	 1
1462068312.422	 4	 -0.040209	 0.245175	 -0.078546	 -2.106980	 -1.365754	 1.684271	 -0.295242	 0.681792	 -0.651429	 0.153730	 1
1462068312.432	 4	 -0.037034	 0.268347	 -0.109291	 -2.102323	 -1.363079	 1.686285	 -0.295301	 0.681953	 -0.651674	 0.151847	 1
1462068312.442	 4	 -0.037176	 0.260708	 -0.136005	 -2.098048	 -1.361767	 1.687947	 -0.294910	 0.682080	 -0.652039	 0.150464	 1
1462068312.452	 4	 -0.035326	 0.206408	 -0.142921	 -2.093895	 -1.360355	 1.689919	 -0.294698	 0.682151	 -0.652354	 0.149188	 1
1462068312.462	 4	 -0.023956	 0.118182	 -0.131052	 -2.090448	 -1.359054	 1.691997	 -0.294716	 0.682147	 -0.652570	 0.148227	 1
1462068312.472	 4	 -0.015775	 0.024715	 -0.109612	 -2.088064	 -1.357962	 1.693950	 -0.294967	 0.682072	 -0.652663	 0.147662	 1
1462068312.482	 4	 -0.014832	 -0.027183	 -0.079196	 -2.086838	 -1.357135	 1.695396	 -0.295336	 0.681976	 -0.652650	 0.147420	 1
1462068312.492	 4	 -0.018902	 -0.012048	 -0.047047	 -2.086478	 -1.356569	 1.695965	 -0.295600	 0.681937	 -0.652603	 0.147281	 1
1462068312.502	 4	 -0.024941	 0.042411	 -0.019843	 -2.086587	 -1.356231	 1.695572	 -0.295615	 0.681998	 -0.652581	 0.147070	 1
1462068312.512	 4	 -0.024689	 0.099811	 -0.024640	 -2.086270	 -1.355923	 1.695027	 -0.295428	 0.682112	 -0.652635	 0.146674	 1
1462068312.522	 4	 -0.023526	 0.136889	 -0.044555	 -2.085044	 -1.355463	 1.694952	 -0.295155	 0.682227	 -0.652774	 0.146067	 1
1462068312.532	 4	 -0.015054	 0.140964	 -0.065906	 -2.082954	 -1.354851	 1.695642	 -0.294912	 0.682297	 -0.652968	 0.145361	 1
1462068312.542	 4	 -0.011891	 0.136652	 -0.072363	 -2.079793	 -1.354619	 1.697436	 -0.294570	 0.682269	 -0.653280	 0.144786	 1
1462068312.552	 4	 -0.009812	 0.119673	 -0.066144	 -2.077446	 -1.353972	 1.698560	 -0.294402	 0.682293	 -0.653478	 0.144122	 1
1462068312.562	 4	 -0.010896	 0.109101	 -0.057707	 -2.075479	 -1.353394	 1.699441	 -0.294252	 0.682322	 -0.653645	 0.143532	 1
1462068312.572	 4	 -0.003376	 0.113388	 -0.050272	 -2.073437	 -1.352908	 1.700388	 -0.294070	 0.682343	 -0.653828	 0.142971	 1
1462068312.582	 4	 0.010616	 0.126211	 -0.036429	 -2.069020	 -1.352354	 1.703559	 -0.293891	 0.682207	 -0.654195	 0.142303	 1
1462068312.592	 4	 0.025697	 0.143293	 -0.021481	 -2.066237	 -1.352242	 1.704990	 -0.293507	 0.682198	 -0.654491	 0.141782	 1
1462068312.602	 4	 0.042896	 0.157178	 -0.006580	 -2.062959	 -1.352337	 1.706750	 -0.293003	 0.682169	 -0.654856	 0.141274	 1
1462068312.612	 4	 0.052583	 0.176287	 -0.007547	 -2.060634	 -1.352630	 1.707468	 -0.292388	 0.682221	 -0.655175	 0.140821	 1
1462068312.622	 4	 0.032395	 0.202885	 -0.014579	 -2.059418	 -1.352575	 1.706813	 -0.291785	 0.682403	 -0.655393	 0.140172	 1
1462068312.632	 4	 0.003580	 0.196658	 -0.004793	 -2.059168	 -1.352288	 1.705138	 -0.291227	 0.682672	 -0.655518	 0.139435	 1
1462068312.642	 4	 -0.027445	 0.164987	 0.015436	 -2.060518	 -1.352163	 1.702074	 -0.290665	 0.683027	 -0.655523	 0.138847	 1
1462068312.652	 4	 -0.051157	 0.108744	 0.023651	 -2.062672	 -1.352353	 1.698655	 -0.290140	 0.683369	 -0.655466	 0.138530	 1
1462068312.662	 4	 -0.058863	 0.050334	 0.032768	 -2.064371	 -1.352526	 1.696222	 -0.289807	 0.683599	 -0.655405	 0.138375	 1
1462068312.672	 4	 -0.056934	 -0.012460	 0.037535	 -2.065399	 -1.352619	 1.695028	 -0.289705	 0.683699	 -0.655348	 0.138369	 1
1462068312.682	 4	 -0.035852	 -0.052025	 0.016725	 -2.064237	 -1.352514	 1.696501	 -0.289863	 0.683568	 -0.655404	 0.138417	 1
1462068312.692	 4	 -0.014511	 -0.040504	 0.000651	 -2.062237	 -1.352267	 1.698858	 -0.290095	 0.683372	 -0.655506	 0.138417	 1
1462068312.702	 4	 -0.001623	 -0.004546	 -0.022582	 -2.059502	 -1.351824	 1.701682	 -0.290311	 0.683163	 -0.655664	 0.138250	 1
1462068312.712	 4	 -0.005800	 0.033590	 -0.045645	 -2.056530	 -1.351215	 1.704375	 -0.290460	 0.682992	 -0.655849	 0.137900	 1
1462068312.722	 4	 -0.012162	 0.055823	 -0.062442	 -2.053459	 -1.350396	 1.706914	 -0.290593	 0.682855	 -0.656040	 0.137391	 1
1462068312.732	 4	 -0.016412	 0.062195	 -0.065545	 -2.051290	 -1.349681	 1.708464	 -0.290650	 0.682795	 -0.656179	 0.136903	 1
1462068312.742	 4	 -0.019620	 0.050589	 -0.053898	 -2.050456	 -1.349307	 1.708764	 -0.290604	 0.682817	 -0.656244	 0.136583	 1
1462068312.752	 4	 -0.018606	 0.024124	 -0.036029	 -2.050755	 -1.349214	 1.708173	 -0.290531	 0.682884	 -0.656232	 0.136458	 1
1462068312.762	 4	 -0.009101	 -0.009827	 -0.020432	 -2.052676	 -1.349367	 1.706307	 -0.290474	 0.683021	 -0.656095	 0.136556	 1
1462068312.772	 4	 0.001432	 -0.051235	 -0.005981	 -2.054252	 -1.349676	 1.705180	 -0.290502	 0.683069	 -0.655973	 0.136835	 1
1462068312.782	 4	 0.006660	 -0.084141	 0.005396	 -2.055215	 -1.350049	 1.704992	 -0.290629	 0.683022	 -0.655883	 0.137236	 1
1462068312.792	 4	 0.006622	 -0.095811	 0.009555	 -2.056425	 -1.350419	 1.704741	 -0.290816	 0.682966	 -0.655761	 0.137699	 1
1462068312.802	 4	 0.007718	 -0.091544	 0.011721	 -2.057937	 -1.350752	 1.704182	 -0.291010	 0.682935	 -0.655612	 0.138152	 1
1462068312.812	 4	 0.003552	 -0.067091	 0.008789	 -2.059140	 -1.350929	 1.703728	 -0.291190	 0.682913	 -0.655486	 0.138477	 1
1462068312.822	 4	 -0.004922	 -0.043750	 -0.002644	 -2.060240	 -1.350842	 1.703134	 -0.291377	 0.682926	 -0.655358	 0.138627	 1
1462068312.832	 4	 -0.010229	 -0.031024	 -0.009939	 -2.061105	 -1.350664	 1.702610	 -0.291541	 0.682947	 -0.655251	 0.138687	 1
1462068312.842	 4	 -0.012365	 -0.028914	 -0.013096	 -2.061865	 -1.350642	 1.702128	 -0.291633	 0.682965	 -0.655171	 0.138781	 1
1462068312.852	 4	 -0.009148	 -0.025733	 -0.013091	 -2.062654	 -1.350688	 1.701604	 -0.291697	 0.682985	 -0.655097	 0.138895	 1
1462068312.862	 4	 -0.000569	 -0.022522	 -0.006737	 -2.063209	 -1.350852	 1.701296	 -0.291719	 0.682987	 -0.655054	 0.139042	 1
1462068312.872	 4	 0.003713	 -0.023568	 -0.002513	 -2.064170	 -1.351272	 1.700594	 -0.291653	 0.683012	 -0.655005	 0.139290	 1
1462068312.882	 4	 0.004765	 -0.027819	 -0.001491	 -2.064700	 -1.351530	 1.700342	 -0.291655	 0.683005	 -0.654971	 0.139481	 1
1462068312.892	 4	 0.006895	 -0.025722	 -0.004685	 -2.065209	 -1.351609	 1.700114	 -0.291717	 0.683000	 -0.654921	 0.139609	 1
1462068312.902	 4	 0.006850	 -0.034239	 -0.005828	 -2.065585	 -1.351614	 1.700073	 -0.291825	 0.682980	 -0.654869	 0.139726	 1
1462068312.912	 4	 0.006780	 -0.047019	 -0.008077	 -2.065857	 -1.351628	 1.700256	 -0.291972	 0.682934	 -0.654818	 0.139883	 1
1462068312.922	 4	 0.005659	 -0.055548	 -0.011343	 -2.066199	 -1.351616	 1.700467	 -0.292160	 0.682879	 -0.654752	 0.140065	 1
1462068312.932	 4	 0.008866	 -0.050271	 -0.015583	 -2.066979	 -1.351502	 1.700248	 -0.292378	 0.682860	 -0.654642	 0.140219	 1
1462068312.942	 4	 0.009977	 -0.038590	 -0.017613	 -2.067778	 -1.351420	 1.699911	 -0.292552	 0.682855	 -0.654540	 0.140352	 1
1462068312.952	 4	 0.009986	 -0.034351	 -0.019702	 -2.068280	 -1.351346	 1.699791	 -0.292700	 0.682840	 -0.654468	 0.140458	 1
1462068312.962	 4	 0.008874	 -0.041809	 -0.021891	 -2.068491	 -1.351290	 1.700014	 -0.292864	 0.682794	 -0.654416	 0.140583	 1
1462068312.972	 4	 0.007763	 -0.051372	 -0.020902	 -2.069258	 -1.351225	 1.699784	 -0.293058	 0.682775	 -0.654313	 0.140746	 1
1462068312.982	 4	 0.006671	 -0.053520	 -0.024104	 -2.070278	 -1.351208	 1.699349	 -0.293249	 0.682768	 -0.654192	 0.140946	 1
1462068312.992	 4	 0.004476	 -0.064167	 -0.026312	 -2.070966	 -1.351175	 1.699315	 -0.293473	 0.682725	 -0.654091	 0.141158	 1
1462068313.002	 4	 0.008689	 -0.075881	 -0.026452	 -2.071566	 -1.351229	 1.699481	 -0.293708	 0.682657	 -0.653996	 0.141436	 1
1462068313.012	 4	 0.011887	 -0.080115	 -0.022248	 -2.072687	 -1.351436	 1.699214	 -0.293915	 0.682611	 -0.653872	 0.141805	 1
1462068313.022	 4	 0.013023	 -0.071556	 -0.014709	 -2.074319	 -1.351733	 1.698388	 -0.294067	 0.682608	 -0.653721	 0.142199	 1
1462068313.032	 4	 0.007807	 -0.050230	 -0.009128	 -2.076134	 -1.351963	 1.697197	 -0.294177	 0.682647	 -0.653562	 0.142511	 1
1462068313.042	 4	 0.003629	 -0.032120	 -0.006785	 -2.077913	 -1.352132	 1.695826	 -0.294234	 0.682717	 -0.653416	 0.142731	 1
1462068313.052	 4	 -0.007002	 -0.019356	 -0.010832	 -2.079693	 -1.352154	 1.694299	 -0.294287	 0.682814	 -0.653265	 0.142847	 1
1462068313.062	 4	 -0.013401	 -0.017218	 -0.011818	 -2.081107	 -1.352118	 1.693087	 -0.294347	 0.682892	 -0.653140	 0.142921	 1
1462068313.072	 4	 -0.021924	 -0.012946	 -0.012767	 -2.082651	 -1.351957	 1.691703	 -0.294432	 0.682991	 -0.652995	 0.142939	 1
1462068313.082	 4	 -0.025127	 -0.012937	 -0.012738	 -2.084004	 -1.351767	 1.690465	 -0.294514	 0.683082	 -0.652864	 0.142929	 1
1462068313.092	 4	 -0.021960	 -0.021449	 -0.011775	 -2.084942	 -1.351756	 1.689696	 -0.294562	 0.683129	 -0.652779	 0.142995	 1
1462068313.102	 4	 -0.016700	 -0.036371	 -0.014091	 -2.084896	 -1.351694	 1.690040	 -0.294685	 0.683083	 -0.652755	 0.143069	 1
1462068313.112	 4	 -0.009246	 -0.037481	 -0.017363	 -2.084846	 -1.351609	 1.690466	 -0.294842	 0.683027	 -0.652723	 0.143161	 1
1462068313.122	 4	 -0.003836	 -0.020493	 -0.019382	 -2.084825	 -1.351538	 1.690750	 -0.294955	 0.682989	 -0.652698	 0.143221	 1
1462068313.132	 4	 -0.004773	 0.005053	 -0.017002	 -2.084781	 -1.351517	 1.690809	 -0.294969	 0.682984	 -0.652698	 0.143218	 1
1462068313.142	 4	 -0.007889	 0.021033	 -0.014692	 -2.084551	 -1.351486	 1.690866	 -0.294923	 0.682993	 -0.652725	 0.143146	 1
1462068313.152	 4	 -0.012131	 0.027419	 -0.015660	 -2.084497	 -1.351351	 1.690652	 -0.294877	 0.683033	 -0.652734	 0.143010	 1
1462068313.162	 4	 -0.015346	 0.026350	 -0.017774	 -2.084334	 -1.351100	 1.690545	 -0.294871	 0.683068	 -0.652739	 0.142830	 1
1462068313.172	 4	 -0.016376	 0.031694	 -0.014517	 -2.084669	 -1.350918	 1.689916	 -0.294826	 0.683143	 -0.652715	 0.142674	 1
1462068313.182	 4	 -0.017413	 0.032807	 -0.008101	 -2.085195	 -1.350867	 1.689060	 -0.294722	 0.683233	 -0.652694	 0.142556	 1
1462068313.192	 4	 -0.014251	 0.024288	 -0.008206	 -2.085257	 -1.350864	 1.688707	 -0.294623	 0.683281	 -0.652709	 0.142461	 1
1462068313.202	 4	 -0.010093	 0.001923	 -0.010580	 -2.084747	 -1.350888	 1.689107	 -0.294586	 0.683257	 -0.652758	 0.142426	 1
1462068313.212	 4	 -0.005909	 -0.014068	 -0.013962	 -2.083988	 -1.350908	 1.689960	 -0.294622	 0.683185	 -0.652812	 0.142453	 1
1462068313.222	 4	 0.001569	 -0.011971	 -0.015072	 -2.083416	 -1.350933	 1.690660	 -0.294666	 0.683122	 -0.652849	 0.142495	 1
1462068313.232	 4	 0.003759	 0.002883	 -0.019214	 -2.082686	 -1.350878	 1.691407	 -0.294701	 0.683066	 -0.652897	 0.142469	 1
1462068313.242	 4	 0.005961	 0.017760	 -0.020158	 -2.082034	 -1.350877	 1.691933	 -0.294668	 0.683035	 -0.652956	 0.142418	 1
1462068313.252	 4	 0.007084	 0.031569	 -0.022169	 -2.081422	 -1.350779	 1.692300	 -0.294627	 0.683027	 -0.653009	 0.142294	 1
1462068313.262	 4	 0.001783	 0.041142	 -0.024164	 -2.081218	 -1.350579	 1.692146	 -0.294574	 0.683071	 -0.653030	 0.142103	 1
1462068313.272	 4	 -0.005701	 0.037980	 -0.023060	 -2.081335	 -1.350384	 1.691657	 -0.294510	 0.683140	 -0.653026	 0.141913	 1
1462068313.282	 4	 -0.012173	 0.022059	 -0.021018	 -2.081720	 -1.350214	 1.691033	 -0.294479	 0.683210	 -0.652996	 0.141780	 1
1462068313.292	 4	 -0.015411	 0.012511	 -0.018946	 -2.081878	 -1.350031	 1.690733	 -0.294489	 0.683249	 -0.652975	 0.141672	 1
1462068313.302	 4	 -0.016470	 0.012529	 -0.016802	 -2.082383	 -1.349937	 1.690111	 -0.294473	 0.683308	 -0.652935	 0.141607	 1
1462068313.312	 4	 -0.014329	 0.014643	 -0.017866	 -2.082340	 -1.349764	 1.690004	 -0.294480	 0.683332	 -0.652930	 0.141496	 1
1462068313.322	 4	 -0.011102	 0.017839	 -0.015732	 -2.082097	 -1.349632	 1.690067	 -0.294466	 0.683344	 -0.652948	 0.141386	 1
1462068313.332	 4	 -0.009998	 0.021066	 -0.010382	 -2.082122	 -1.349539	 1.689840	 -0.294428	 0.683378	 -0.652950	 0.141288	 1
1462068313.342	 4	 -0.005720	 0.021068	 -0.008286	 -2.081775	 -1.349553	 1.689961	 -0.294351	 0.683385	 -0.652994	 0.141213	 1
1462068313.352	 4	 -0.002558	 0.010437	 -0.006279	 -2.081408	 -1.349599	 1.690185	 -0.294292	 0.683376	 -0.653037	 0.141178	 1
1462068313.362	 4	 -0.002608	 -0.002311	 -0.004265	 -2.081066	 -1.349652	 1.690515	 -0.294276	 0.683350	 -0.653070	 0.141187	 1
1462068313.372	 4	 -0.000490	 -0.007620	 -0.002200	 -2.080997	 -1.349706	 1.690652	 -0.294282	 0.683333	 -0.653076	 0.141228	 1
1462068313.382	 4	 0.002716	 -0.006567	 -0.002218	 -2.081063	 -1.349695	 1.690662	 -0.294311	 0.683327	 -0.653064	 0.141250	 1
1462068313.392	 4	 0.003763	 -0.010824	 -0.002268	 -2.080948	 -1.349621	 1.690868	 -0.294368	 0.683308	 -0.653059	 0.141251	 1
1462068313.402	 4	 0.003717	 -0.019341	 -0.003415	 -2.080659	 -1.349484	 1.691328	 -0.294476	 0.683265	 -0.653055	 0.141254	 1
1462068313.412	 4	 0.001514	 -0.031058	 -0.006705	 -2.080549	 -1.349291	 1.691715	 -0.294637	 0.683221	 -0.653023	 0.141274	 1
1462068313.422	 4	 -0.001727	 -0.037446	 -0.008870	 -2.080527	 -1.349122	 1.692095	 -0.294816	 0.683172	 -0.652982	 0.141330	 1
1462068313.432	 4	 0.000399	 -0.037468	 -0.011021	 -2.080483	 -1.348988	 1.692520	 -0.294991	 0.683116	 -0.652944	 0.141406	 1
1462068313.442	 4	 0.000400	 -0.037468	 -0.011021	 -2.080588	 -1.348926	 1.692790	 -0.295139	 0.683071	 -0.652903	 0.141508	 1
1462068313.452	 4	 0.005735	 -0.040652	 -0.007897	 -2.080432	 -1.349033	 1.693352	 -0.295244	 0.682996	 -0.652898	 0.141676	 1
1462068313.462	 4	 0.008956	 -0.040630	 -0.003659	 -2.080274	 -1.349237	 1.693923	 -0.295320	 0.682917	 -0.652902	 0.141882	 1
1462068313.472	 4	 0.013281	 -0.031055	 -0.001472	 -2.080041	 -1.349506	 1.694505	 -0.295352	 0.682839	 -0.652923	 0.142088	 1
1462068313.482	 4	 0.013324	 -0.021490	 -0.002446	 -2.079698	 -1.349723	 1.695098	 -0.295371	 0.682769	 -0.652954	 0.142242	 1
1462068313.492	 4	 0.011251	 -0.008720	 -0.002306	 -2.079492	 -1.349933	 1.695447	 -0.295352	 0.682726	 -0.652982	 0.142360	 1
1462068313.502	 4	 0.004856	 -0.005525	 -0.004349	 -2.079468	 -1.350112	 1.695535	 -0.295315	 0.682709	 -0.652998	 0.142445	 1
1462068313.512	 4	 0.000624	 -0.003339	 0.002107	 -2.079733	 -1.350313	 1.695317	 -0.295260	 0.682717	 -0.652995	 0.142536	 1
1462068313.522	 4	 -0.000440	 -0.004385	 0.004242	 -2.080279	 -1.350511	 1.694819	 -0.295203	 0.682745	 -0.652971	 0.142631	 1
1462068313.532	 4	 0.004904	 -0.005442	 0.007386	 -2.080611	 -1.350756	 1.694558	 -0.295140	 0.682753	 -0.652966	 0.142746	 1
1462068313.542	 4	 0.005990	 -0.003302	 0.009531	 -2.080796	 -1.350984	 1.694418	 -0.295078	 0.682753	 -0.652972	 0.142845	 1
1462068313.552	 4	 0.004945	 0.004123	 0.006415	 -2.081331	 -1.351186	 1.693869	 -0.294997	 0.682790	 -0.652954	 0.142920	 1
1462068313.562	 4	 0.002821	 0.007312	 0.005401	 -2.081745	 -1.351410	 1.693399	 -0.294898	 0.682823	 -0.652949	 0.142988	 1
1462068313.572	 4	 -0.002517	 0.005215	 0.007563	 -2.082486	 -1.351587	 1.692600	 -0.294808	 0.682882	 -0.652916	 0.143044	 1
1462068313.582	 4	 -0.004707	 -0.006479	 0.007476	 -2.083150	 -1.351747	 1.691973	 -0.294757	 0.682922	 -0.652880	 0.143123	 1
1462068313.592	 4	 -0.006885	 -0.013934	 0.005295	 -2.083639	 -1.351799	 1.691598	 -0.294772	 0.682940	 -0.652840	 0.143186	 1
1462068313.602	 4	 -0.002622	 -0.015010	 0.005247	 -2.084120	 -1.351816	 1.691266	 -0.294809	 0.682954	 -0.652795	 0.143248	 1
1462068313.612	 4	 0.000567	 -0.013987	 0.000965	 -2.084212	 -1.351773	 1.691320	 -0.294872	 0.682941	 -0.652773	 0.143282	 1
1462068313.622	 4	 0.000552	 -0.011906	 -0.005412	 -2.084080	 -1.351671	 1.691582	 -0.294952	 0.682915	 -0.652763	 0.143285	 1
1462068313.632	 4	 -0.000525	 -0.011918	 -0.007536	 -2.084051	 -1.351545	 1.691722	 -0.295033	 0.682901	 -0.652744	 0.143276	 1
1462068313.642	 4	 -0.002670	 -0.014039	 -0.007537	 -2.084236	 -1.351443	 1.691677	 -0.295112	 0.682897	 -0.652709	 0.143288	 1
1462068313.652	 4	 -0.005854	 -0.011887	 -0.005356	 -2.084712	 -1.351394	 1.691330	 -0.295165	 0.682916	 -0.652658	 0.143321	 1
1462068313.662	 4	 -0.005846	 -0.012928	 -0.002166	 -2.085432	 -1.351451	 1.690740	 -0.295180	 0.682950	 -0.652600	 0.143394	 1
1462068313.672	 4	 -0.003651	 -0.010867	 -0.002127	 -2.085865	 -1.351532	 1.690425	 -0.295186	 0.682962	 -0.652568	 0.143468	 1
1462068313.682	 4	 -0.004696	 -0.009770	 0.002157	 -2.086547	 -1.351648	 1.689849	 -0.295173	 0.682995	 -0.652520	 0.143555	 1
1462068313.692	 4	 -0.006798	 -0.006542	 0.006471	 -2.087360	 -1.351789	 1.689104	 -0.295137	 0.683042	 -0.652469	 0.143639	 1
1462068313.702	 4	 -0.004672	 -0.011836	 0.010669	 -2.088118	 -1.351994	 1.688448	 -0.295092	 0.683077	 -0.652426	 0.143757	 1
1462068313.712	 4	 -0.004666	 -0.010772	 0.010681	 -2.088728	 -1.352193	 1.687943	 -0.295053	 0.683101	 -0.652394	 0.143872	 1
1462068313.722	 4	 -0.004675	 -0.011844	 0.009606	 -2.089337	 -1.352297	 1.687449	 -0.295049	 0.683127	 -0.652350	 0.143956	 1
1462068313.732	 4	 -0.005742	 -0.010785	 0.008559	 -2.089841	 -1.352323	 1.687044	 -0.295065	 0.683150	 -0.652308	 0.144005	 1
1462068313.742	 4	 -0.003605	 -0.006567	 0.004316	 -2.090199	 -1.352314	 1.686755	 -0.295086	 0.683167	 -0.652275	 0.144030	 1
1462068313.752	 4	 -0.003625	 -0.009766	 0.003219	 -2.090415	 -1.352250	 1.686607	 -0.295128	 0.683175	 -0.652247	 0.144032	 1
1462068313.762	 4	 -0.005817	 -0.019356	 -0.000050	 -2.090398	 -1.352176	 1.686772	 -0.295203	 0.683154	 -0.652230	 0.144054	 1
1462068313.772	 4	 -0.002647	 -0.023643	 -0.003316	 -2.090049	 -1.352112	 1.687338	 -0.295304	 0.683098	 -0.652233	 0.144097	 1
1462068313.782	 4	 -0.007941	 -0.014061	 -0.004248	 -2.090188	 -1.351995	 1.687371	 -0.295400	 0.683087	 -0.652198	 0.144113	 1
1462068313.792	 4	 -0.011149	 -0.017227	 -0.002119	 -2.090397	 -1.351831	 1.687305	 -0.295499	 0.683087	 -0.652155	 0.144105	 1
1462068313.802	 4	 -0.009079	 -0.026845	 -0.007556	 -2.090287	 -1.351773	 1.687630	 -0.295594	 0.683049	 -0.652141	 0.144152	 1
1462068313.812	 4	 -0.012202	 -0.014041	 -0.003146	 -2.090746	 -1.351739	 1.687317	 -0.295648	 0.683064	 -0.652092	 0.144195	 1
1462068313.822	 4	 -0.003696	 -0.023616	 -0.000111	 -2.090832	 -1.351817	 1.687426	 -0.295687	 0.683039	 -0.652080	 0.144287	 1
1462068313.832	 4	 0.000575	 -0.023628	 -0.000147	 -2.090707	 -1.351910	 1.687733	 -0.295721	 0.682999	 -0.652086	 0.144378	 1
1462068313.842	 4	 -0.001510	 -0.010881	 -0.003208	 -2.090686	 -1.351890	 1.687842	 -0.295758	 0.682985	 -0.652079	 0.144399	 1
1462068313.852	 4	 -0.008913	 0.004025	 -0.004071	 -2.090741	 -1.351800	 1.687763	 -0.295778	 0.682996	 -0.652067	 0.144360	 1
1462068313.862	 4	 -0.011087	 -0.003422	 -0.005187	 -2.090827	 -1.351729	 1.687718	 -0.295814	 0.682999	 -0.652050	 0.144350	 1
1462068313.872	 4	 -0.006854	 -0.012992	 -0.003182	 -2.090851	 -1.351681	 1.687769	 -0.295856	 0.682991	 -0.652038	 0.144358	 1
1462068313.882	 4	 -0.002566	 -0.010862	 -0.001067	 -2.091009	 -1.351689	 1.687666	 -0.295870	 0.682995	 -0.652023	 0.144381	 1
1462068313.892	 4	 -0.002542	 -0.005544	 -0.001017	 -2.091436	 -1.351654	 1.687256	 -0.295880	 0.683026	 -0.651985	 0.144380	 1
1462068313.902	 4	 0.000662	 -0.003442	 -0.003156	 -2.091527	 -1.351678	 1.687201	 -0.295883	 0.683027	 -0.651978	 0.144402	 1
1462068313.912	 4	 -0.006805	 0.000804	 -0.007314	 -2.091593	 -1.351614	 1.687156	 -0.295910	 0.683031	 -0.651965	 0.144387	 1
1462068313.922	 4	 -0.003646	 -0.007715	 -0.007421	 -2.091959	 -1.351540	 1.686849	 -0.295950	 0.683052	 -0.651925	 0.144386	 1
1462068313.932	 4	 -0.004728	 -0.009847	 -0.008495	 -2.092422	 -1.351490	 1.686455	 -0.295983	 0.683079	 -0.651880	 0.144398	 1
1462068313.942	 4	 -0.010052	 -0.005592	 -0.010540	 -2.092797	 -1.351395	 1.686129	 -0.296025	 0.683103	 -0.651837	 0.144386	 1
1462068313.952	 4	 -0.011120	 -0.005590	 -0.010530	 -2.093303	 -1.351277	 1.685731	 -0.296093	 0.683129	 -0.651779	 0.144387	 1
1462068313.962	 4	 -0.012172	 -0.007668	 -0.004145	 -2.093899	 -1.351197	 1.685229	 -0.296143	 0.683164	 -0.651718	 0.144398	 1
1462068313.972	 4	 -0.014306	 -0.005550	 -0.006237	 -2.094723	 -1.351101	 1.684411	 -0.296163	 0.683229	 -0.651645	 0.144379	 1
1462068313.982	 4	 -0.014280	 0.000824	 -0.007242	 -2.095424	 -1.351057	 1.683700	 -0.296164	 0.683285	 -0.651587	 0.144371	 1
1462068313.992	 4	 -0.008909	 -0.007725	 -0.000911	 -2.096055	 -1.351178	 1.683129	 -0.296134	 0.683319	 -0.651548	 0.144444	 1
1462068314.002	 4	 -0.004651	 -0.011977	 0.001147	 -2.096451	 -1.351349	 1.682848	 -0.296110	 0.683326	 -0.651529	 0.144548	 1
1462068314.012	 4	 -0.003559	 -0.007718	 0.002245	 -2.096719	 -1.351510	 1.682666	 -0.296081	 0.683328	 -0.651520	 0.144638	 1
1462068314.022	 4	 -0.006721	 -0.000256	 0.003409	 -2.097516	 -1.351621	 1.681892	 -0.296040	 0.683381	 -0.651470	 0.144698	 1
1462068314.032	 4	 -0.013113	 0.002947	 0.002430	 -2.098241	 -1.351631	 1.681136	 -0.296015	 0.683440	 -0.651418	 0.144702	 1
1462068314.042	 4	 -0.015239	 0.001913	 0.005636	 -2.098736	 -1.351627	 1.680605	 -0.295996	 0.683483	 -0.651383	 0.144697	 1
1462068314.052	 4	 -0.011999	 0.008300	 0.007799	 -2.099310	 -1.351622	 1.679952	 -0.295961	 0.683539	 -0.651345	 0.144679	 1
1462068314.062	 4	 -0.005557	 0.015735	 0.008878	 -2.099761	 -1.351648	 1.679356	 -0.295896	 0.683593	 -0.651324	 0.144649	 1
1462068314.072	 4	 -0.005529	 0.020004	 0.011049	 -2.100253	 -1.351697	 1.678664	 -0.295803	 0.683658	 -0.651307	 0.144609	 1
1462068314.082	 4	 -0.007698	 0.013621	 0.009944	 -2.100906	 -1.351773	 1.677843	 -0.295710	 0.683730	 -0.651278	 0.144592	 1
1462068314.092	 4	 -0.010966	 -0.002309	 0.011957	 -2.101607	 -1.351933	 1.677119	 -0.295638	 0.683780	 -0.651244	 0.144652	 1
1462068314.102	 4	 -0.013158	 -0.011899	 0.008691	 -2.102470	 -1.352091	 1.676333	 -0.295597	 0.683828	 -0.651191	 0.144748	 1
1462068314.112	 4	 -0.014276	 -0.022533	 0.008604	 -2.103644	 -1.352223	 1.675347	 -0.295599	 0.683883	 -0.651103	 0.144875	 1
1462068314.122	 4	 -0.007895	 -0.025759	 0.006389	 -2.104306	 -1.352393	 1.674923	 -0.295613	 0.683892	 -0.651055	 0.145024	 1
1462068314.132	 4	 -0.005793	 -0.031099	 0.004190	 -2.104767	 -1.352526	 1.674740	 -0.295657	 0.683880	 -0.651015	 0.145169	 1
1462068314.142	 4	 -0.003640	 -0.040783	 0.004159	 -2.105108	 -1.352650	 1.674767	 -0.295736	 0.683847	 -0.650977	 0.145339	 1
1462068314.152	 4	 -0.001499	 -0.038669	 0.003095	 -2.105295	 -1.352762	 1.674964	 -0.295827	 0.683800	 -0.650947	 0.145507	 1
1462068314.162	 4	 -0.001463	 -0.031224	 0.003165	 -2.105792	 -1.352876	 1.674788	 -0.295891	 0.683785	 -0.650899	 0.145660	 1
1462068314.172	 4	 -0.003539	 -0.022678	 0.007528	 -2.106547	 -1.353072	 1.674282	 -0.295898	 0.683797	 -0.650846	 0.145823	 1
1462068314.182	 4	 -0.005667	 -0.019496	 0.005446	 -2.107352	 -1.353230	 1.673670	 -0.295899	 0.683823	 -0.650790	 0.145955	 1
1462068314.192	 4	 -0.003537	 -0.019510	 0.004362	 -2.107808	 -1.353253	 1.673402	 -0.295948	 0.683828	 -0.650744	 0.146032	 1
1462068314.202	 4	 -0.002451	 -0.015259	 0.004393	 -2.108680	 -1.353287	 1.672699	 -0.295980	 0.683867	 -0.650670	 0.146114	 1
1462068314.212	 4	 -0.003516	 -0.012088	 0.001234	 -2.109082	 -1.353272	 1.672422	 -0.296021	 0.683880	 -0.650629	 0.146156	 1
1462068314.222	 4	 -0.008870	 -0.013159	 -0.001927	 -2.109557	 -1.353196	 1.672068	 -0.296080	 0.683900	 -0.650576	 0.146176	 1
1462068314.232	 4	 -0.012065	 -0.011030	 -0.002945	 -2.109977	 -1.353127	 1.671753	 -0.296131	 0.683919	 -0.650530	 0.146192	 1
1462068314.242	 4	 -0.014202	 -0.008919	 -0.006103	 -2.110445	 -1.353039	 1.671374	 -0.296183	 0.683944	 -0.650478	 0.146198	 1
1462068314.252	 4	 -0.010953	 -0.001460	 -0.002864	 -2.111196	 -1.352988	 1.670663	 -0.296201	 0.683997	 -0.650413	 0.146206	 1
1462068314.262	 4	 -0.009835	 0.002845	 0.004629	 -2.111993	 -1.353103	 1.669852	 -0.296145	 0.684054	 -0.650367	 0.146255	 1
1462068314.272	 4	 -0.004495	 0.002836	 0.005650	 -2.112512	 -1.353237	 1.669300	 -0.296081	 0.684092	 -0.650346	 0.146301	 1
1462068314.282	 4	 -0.004517	 -0.002474	 0.006667	 -2.113072	 -1.353302	 1.668757	 -0.296055	 0.684129	 -0.650310	 0.146339	 1
1462068314.292	 4	 -0.003460	 -0.004605	 0.006639	 -2.113647	 -1.353356	 1.668227	 -0.296043	 0.684163	 -0.650270	 0.146382	 1
1462068314.302	 4	 -0.005519	 -0.004747	 0.004702	 -2.114248	 -1.353389	 1.667671	 -0.296038	 0.684200	 -0.650226	 0.146419	 1
1462068314.312	 4	 -0.005509	 -0.000508	 0.002610	 -2.114911	 -1.353368	 1.667030	 -0.296041	 0.684247	 -0.650172	 0.146430	 1
1462068314.322	 4	 -0.007652	 0.000538	 -0.000559	 -2.115696	 -1.353276	 1.666251	 -0.296060	 0.684309	 -0.650102	 0.146412	 1
1462068314.332	 4	 -0.012997	 0.002650	 -0.004755	 -2.116897	 -1.353144	 1.665035	 -0.296077	 0.684407	 -0.649998	 0.146381	 1
1462068314.342	 4	 -0.016197	 0.000555	 -0.001548	 -2.118059	 -1.353059	 1.663857	 -0.296080	 0.684500	 -0.649903	 0.146366	 1
1462068314.352	 4	 -0.014068	 0.000541	 -0.002632	 -2.119093	 -1.352984	 1.662812	 -0.296083	 0.684582	 -0.649817	 0.146354	 1
1462068314.362	 4	 -0.018374	 -0.009004	 -0.000550	 -2.120212	 -1.352946	 1.661741	 -0.296093	 0.684660	 -0.649726	 0.146375	 1
1462068314.372	 4	 -0.018388	 -0.016412	 0.004711	 -2.121405	 -1.352959	 1.660683	 -0.296114	 0.684729	 -0.649628	 0.146445	 1
1462068314.382	 4	 -0.018344	 -0.013167	 0.012202	 -2.122816	 -1.353017	 1.659398	 -0.296113	 0.684813	 -0.649520	 0.146531	 1
1462068314.392	 4	 -0.015141	 -0.012121	 0.011120	 -2.124022	 -1.353106	 1.658297	 -0.296098	 0.684884	 -0.649433	 0.146618	 1
1462068314.402	 4	 -0.016259	 -0.023810	 0.012087	 -2.124866	 -1.353198	 1.657622	 -0.296111	 0.684918	 -0.649368	 0.146721	 1
1462068314.412	 4	 -0.012079	 -0.041913	 0.010817	 -2.125691	 -1.353370	 1.657157	 -0.296163	 0.684918	 -0.649300	 0.146913	 1
1462068314.422	 4	 -0.006763	 -0.047239	 0.011788	 -2.126358	 -1.353499	 1.656925	 -0.296257	 0.684898	 -0.649234	 0.147111	 1
1462068314.432	 4	 -0.004666	 -0.052587	 0.008522	 -2.126749	 -1.353602	 1.657026	 -0.296385	 0.684850	 -0.649181	 0.147315	 1
1462068314.442	 4	 -0.004638	 -0.045157	 0.006460	 -2.127458	 -1.353670	 1.656789	 -0.296511	 0.684829	 -0.649101	 0.147505	 1
1462068314.452	 4	 -0.001391	 -0.034538	 0.005464	 -2.128116	 -1.353660	 1.656499	 -0.296629	 0.684824	 -0.649024	 0.147632	 1
1462068314.462	 4	 -0.001353	 -0.022868	 0.001309	 -2.128504	 -1.353618	 1.656360	 -0.296721	 0.684818	 -0.648971	 0.147705	 1
1462068314.472	 4	 -0.005504	 -0.017661	 0.000520	 -2.128921	 -1.353574	 1.656128	 -0.296791	 0.684824	 -0.648921	 0.147757	 1
1462068314.482	 4	 -0.008721	 -0.019786	 -0.000538	 -2.129604	 -1.353514	 1.655639	 -0.296865	 0.684849	 -0.648849	 0.147811	 1
1462068314.492	 4	 -0.009806	 -0.020870	 -0.003736	 -2.130179	 -1.353398	 1.655260	 -0.296960	 0.684868	 -0.648778	 0.147844	 1
1462068314.502	 4	 -0.015166	 -0.025117	 -0.004795	 -2.130544	 -1.353279	 1.655112	 -0.297067	 0.684868	 -0.648720	 0.147879	 1
1462068314.512	 4	 -0.016231	 -0.023001	 -0.006898	 -2.131089	 -1.353188	 1.654787	 -0.297163	 0.684881	 -0.648653	 0.147928	 1
1462068314.522	 4	 -0.018333	 -0.015557	 -0.007876	 -2.131645	 -1.353040	 1.654397	 -0.297258	 0.684904	 -0.648581	 0.147940	 1
1462068314.532	 4	 -0.015048	 0.000404	 -0.005624	 -2.132256	 -1.352939	 1.653816	 -0.297291	 0.684950	 -0.648521	 0.147925	 1
1462068314.542	 4	 -0.010738	 0.008900	 -0.005582	 -2.132428	 -1.352901	 1.653561	 -0.297272	 0.684977	 -0.648510	 0.147887	 1
1462068314.552	 4	 -0.009674	 0.008889	 -0.006656	 -2.132400	 -1.352875	 1.653485	 -0.297245	 0.684992	 -0.648517	 0.147844	 1
1462068314.562	 4	 -0.008611	 0.008878	 -0.007731	 -2.132455	 -1.352794	 1.653336	 -0.297238	 0.685013	 -0.648510	 0.147786	 1
1462068314.572	 4	 -0.009669	 0.011009	 -0.007702	 -2.132749	 -1.352699	 1.652948	 -0.297232	 0.685054	 -0.648483	 0.147727	 1
1462068314.582	 4	 -0.009635	 0.017398	 -0.006576	 -2.133036	 -1.352579	 1.652514	 -0.297216	 0.685103	 -0.648458	 0.147642	 1
1462068314.592	 4	 -0.006415	 0.019531	 -0.004453	 -2.133285	 -1.352511	 1.652073	 -0.297168	 0.685153	 -0.648446	 0.147561	 1
1462068314.602	 4	 -0.004297	 0.015278	 -0.003444	 -2.133325	 -1.352526	 1.651859	 -0.297103	 0.685181	 -0.648457	 0.147511	 1
1462068314.612	 4	 -0.004338	 0.005712	 -0.002466	 -2.133428	 -1.352508	 1.651674	 -0.297079	 0.685202	 -0.648454	 0.147479	 1
1462068314.622	 4	 -0.007426	 0.005647	 0.002002	 -2.133746	 -1.352471	 1.651312	 -0.297070	 0.685234	 -0.648429	 0.147458	 1
1462068314.632	 4	 -0.009522	 0.012050	 0.004212	 -2.134369	 -1.352451	 1.650575	 -0.297026	 0.685299	 -0.648388	 0.147425	 1
1462068314.642	 4	 -0.010588	 0.014165	 0.002109	 -2.134786	 -1.352362	 1.650007	 -0.296996	 0.685357	 -0.648357	 0.147353	 1
1462068314.652	 4	 -0.011666	 0.009929	 0.004210	 -2.134932	 -1.352365	 1.649732	 -0.296948	 0.685387	 -0.648356	 0.147314	 1
1462068314.662	 4	 -0.005312	 0.001386	 0.001943	 -2.134701	 -1.352311	 1.649906	 -0.296950	 0.685380	 -0.648371	 0.147273	 1
1462068314.672	 4	 0.002112	 -0.003993	 -0.003502	 -2.134065	 -1.352174	 1.650559	 -0.297013	 0.685337	 -0.648401	 0.147218	 1
1462068314.682	 4	 0.007401	 -0.010422	 -0.007873	 -2.133066	 -1.352038	 1.651641	 -0.297105	 0.685256	 -0.648453	 0.147178	 1
1462068314.692	 4	 0.006303	 -0.012585	 -0.013214	 -2.132066	 -1.351873	 1.652765	 -0.297220	 0.685170	 -0.648499	 0.147142	 1
1462068314.702	 4	 0.004175	 -0.003075	 -0.022701	 -2.131103	 -1.351569	 1.653799	 -0.297362	 0.685102	 -0.648530	 0.147040	 1
1462068314.712	 4	 -0.004318	 0.010740	 -0.027829	 -2.130330	 -1.351196	 1.654513	 -0.297478	 0.685069	 -0.648548	 0.146874	 1
1462068314.722	 4	 -0.014984	 0.011836	 -0.027726	 -2.129771	 -1.350857	 1.654939	 -0.297555	 0.685063	 -0.648559	 0.146701	 1
1462068314.732	 4	 -0.008639	 0.003276	 -0.032124	 -2.129435	 -1.350588	 1.655232	 -0.297635	 0.685056	 -0.648556	 0.146586	 1
1462068314.742	 4	 -0.004395	 -0.007327	 -0.025863	 -2.129231	 -1.350462	 1.655497	 -0.297701	 0.685037	 -0.648551	 0.146558	 1
1462068314.752	 4	 -0.002277	 -0.017909	 -0.017453	 -2.129183	 -1.350372	 1.655710	 -0.297788	 0.685013	 -0.648532	 0.146578	 1
1462068314.762	 4	 0.001961	 -0.030631	 -0.010146	 -2.129527	 -1.350382	 1.655650	 -0.297876	 0.684996	 -0.648487	 0.146680	 1
1462068314.772	 4	 0.002965	 -0.045511	 -0.008160	 -2.130032	 -1.350445	 1.655581	 -0.297995	 0.684967	 -0.648424	 0.146853	 1
1462068314.782	 4	 0.003019	 -0.057290	 -0.007032	 -2.130784	 -1.350481	 1.655398	 -0.298164	 0.684937	 -0.648330	 0.147064	 1
1462068314.792	 4	 0.000914	 -0.050902	 -0.006954	 -2.131556	 -1.350435	 1.655172	 -0.298352	 0.684916	 -0.648226	 0.147239	 1
1462068314.802	 4	 0.000973	 -0.038138	 -0.006835	 -2.132597	 -1.350351	 1.654563	 -0.298509	 0.684934	 -0.648105	 0.147368	 1
1462068314.812	 4	 -0.002192	 -0.028572	 -0.008848	 -2.133454	 -1.350302	 1.654038	 -0.298622	 0.684952	 -0.648010	 0.147474	 1
1462068314.822	 4	 -0.004317	 -0.025382	 -0.009865	 -2.134360	 -1.350224	 1.653405	 -0.298725	 0.684983	 -0.647912	 0.147552	 1
1462068314.832	 4	 -0.004342	 -0.029645	 -0.010969	 -2.135104	 -1.350191	 1.652963	 -0.298826	 0.684996	 -0.647829	 0.147652	 1
1462068314.842	 4	 -0.007592	 -0.036049	 -0.015262	 -2.136004	 -1.350069	 1.652431	 -0.298975	 0.685014	 -0.647719	 0.147745	 1
1462068314.852	 4	 -0.010792	 -0.032872	 -0.018401	 -2.137033	 -1.349907	 1.651756	 -0.299130	 0.685047	 -0.647596	 0.147821	 1
1462068314.862	 4	 -0.016122	 -0.029681	 -0.020454	 -2.138172	 -1.349764	 1.650934	 -0.299264	 0.685093	 -0.647469	 0.147895	 1
1462068314.872	 4	 -0.016084	 -0.025395	 -0.016150	 -2.138904	 -1.349700	 1.650469	 -0.299363	 0.685111	 -0.647386	 0.147972	 1
1462068314.882	 4	 -0.009633	 -0.017946	 -0.012938	 -2.139428	 -1.349708	 1.650144	 -0.299419	 0.685121	 -0.647332	 0.148049	 1
1462068314.892	 4	 -0.002105	 -0.009428	 -0.008660	 -2.139392	 -1.349754	 1.650295	 -0.299444	 0.685098	 -0.647332	 0.148103	 1
1462068314.902	 4	 0.007547	 -0.004100	 -0.003364	 -2.139313	 -1.349885	 1.650438	 -0.299424	 0.685077	 -0.647349	 0.148168	 1
1462068314.912	 4	 0.011839	 -0.000907	 -0.001238	 -2.139183	 -1.350052	 1.650602	 -0.299384	 0.685054	 -0.647377	 0.148235	 1
1462068314.922	 4	 0.013948	 -0.006232	 -0.001305	 -2.139033	 -1.350193	 1.650821	 -0.299364	 0.685025	 -0.647401	 0.148305	 1
1462068314.932	 4	 0.010712	 -0.010500	 -0.004513	 -2.138995	 -1.350260	 1.650967	 -0.299379	 0.685003	 -0.647404	 0.148363	 1
1462068314.942	 4	 0.006433	 -0.011559	 -0.005550	 -2.139410	 -1.350286	 1.650694	 -0.299412	 0.685012	 -0.647365	 0.148426	 1
1462068314.952	 4	 0.000152	 -0.009476	 -0.005319	 -2.140043	 -1.350276	 1.650188	 -0.299446	 0.685041	 -0.647306	 0.148475	 1
1462068314.962	 4	 -0.007295	 -0.006248	 -0.003092	 -2.140965	 -1.350224	 1.649342	 -0.299472	 0.685102	 -0.647225	 0.148499	 1
1462068314.972	 4	 -0.010507	 -0.008365	 -0.003083	 -2.141674	 -1.350185	 1.648710	 -0.299498	 0.685146	 -0.647161	 0.148523	 1
1462068314.982	 4	 -0.010513	 -0.010485	 -0.002036	 -2.142278	 -1.350156	 1.648200	 -0.299528	 0.685179	 -0.647105	 0.148555	 1
1462068314.992	 4	 -0.006251	 -0.013674	 0.000029	 -2.142630	 -1.350190	 1.647966	 -0.299551	 0.685186	 -0.647074	 0.148612	 1
1462068315.002	 4	 -0.005202	 -0.016876	 -0.001075	 -2.142854	 -1.350262	 1.647886	 -0.299572	 0.685178	 -0.647055	 0.148688	 1
1462068315.012	 4	 0.000124	 -0.019019	 -0.001141	 -2.142665	 -1.350330	 1.648255	 -0.299615	 0.685133	 -0.647064	 0.148767	 1
1462068315.022	 4	 0.005449	 -0.018002	 -0.005441	 -2.142281	 -1.350390	 1.648834	 -0.299670	 0.685072	 -0.647086	 0.148844	 1
1462068315.032	 4	 0.008652	 -0.015900	 -0.007580	 -2.141851	 -1.350430	 1.649443	 -0.299726	 0.685011	 -0.647110	 0.148908	 1
1462068315.042	 4	 0.006564	 -0.006320	 -0.007472	 -2.141616	 -1.350523	 1.649776	 -0.299733	 0.684974	 -0.647132	 0.148968	 1
1462068315.052	 4	 0.001284	 0.005396	 -0.007316	 -2.141623	 -1.350552	 1.649755	 -0.299719	 0.684975	 -0.647136	 0.148974	 1
1462068315.062	 4	 -0.000853	 0.003290	 -0.005184	 -2.141949	 -1.350583	 1.649402	 -0.299693	 0.685002	 -0.647117	 0.148982	 1
1462068315.072	 4	 -0.006185	 0.001201	 -0.001958	 -2.142451	 -1.350700	 1.648890	 -0.299642	 0.685036	 -0.647094	 0.149030	 1
1462068315.082	 4	 -0.010423	 0.002324	 0.004487	 -2.143280	 -1.350930	 1.648043	 -0.299544	 0.685090	 -0.647061	 0.149121	 1
1462068315.092	 4	 -0.009354	 -0.000840	 0.008713	 -2.144355	 -1.351153	 1.646961	 -0.299448	 0.685160	 -0.647009	 0.149218	 1
1462068315.102	 4	 -0.003923	 -0.009348	 0.015109	 -2.145313	 -1.351404	 1.646065	 -0.299369	 0.685210	 -0.646963	 0.149345	 1
1462068315.112	 4	 0.001377	 -0.018922	 0.017107	 -2.146051	 -1.351748	 1.645483	 -0.299295	 0.685225	 -0.646939	 0.149531	 1
1462068315.122	 4	 0.005587	 -0.029586	 0.014840	 -2.146277	 -1.352000	 1.645525	 -0.299300	 0.685189	 -0.646933	 0.149711	 1
1462068315.132	 4	 0.007734	 -0.024298	 0.011674	 -2.146246	 -1.352217	 1.645806	 -0.299315	 0.685138	 -0.646943	 0.149868	 1
1462068315.142	 4	 0.009954	 -0.000950	 0.005477	 -2.145905	 -1.352305	 1.646220	 -0.299318	 0.685098	 -0.646974	 0.149916	 1
1462068315.152	 4	 0.005755	 0.018170	 0.000362	 -2.145729	 -1.352303	 1.646271	 -0.299279	 0.685103	 -0.646996	 0.149871	 1
1462068315.162	 4	 -0.002745	 0.028809	 -0.002662	 -2.145617	 -1.352281	 1.646123	 -0.299199	 0.685135	 -0.647021	 0.149777	 1
1462068315.172	 4	 -0.012324	 0.033100	 -0.001473	 -2.145607	 -1.352243	 1.645800	 -0.299098	 0.685186	 -0.647042	 0.149655	 1
1462068315.182	 4	 -0.015521	 0.033117	 -0.000377	 -2.146236	 -1.352274	 1.644840	 -0.298962	 0.685281	 -0.647024	 0.149572	 1
1462068315.192	 4	 -0.017629	 0.034226	 0.004982	 -2.147093	 -1.352390	 1.643635	 -0.298789	 0.685391	 -0.647000	 0.149516	 1
1462068315.202	 4	 -0.014434	 0.031041	 0.007057	 -2.147585	 -1.352531	 1.642806	 -0.298617	 0.685471	 -0.647006	 0.149467	 1
1462068315.212	 4	 -0.014461	 0.027826	 0.003831	 -2.147655	 -1.352602	 1.642428	 -0.298487	 0.685518	 -0.647033	 0.149394	 1
1462068315.222	 4	 -0.011268	 0.025690	 0.003783	 -2.147406	 -1.352639	 1.642395	 -0.298383	 0.685540	 -0.647077	 0.149310	 1
1462068315.232	 4	 -0.006978	 0.029932	 0.003785	 -2.146850	 -1.352719	 1.642637	 -0.298260	 0.685541	 -0.647152	 0.149226	 1
1462068315.242	 4	 -0.004854	 0.032014	 -0.001542	 -2.146143	 -1.352791	 1.643010	 -0.298136	 0.685535	 -0.647238	 0.149130	 1
1462068315.252	 4	 -0.001655	 0.033053	 -0.003692	 -2.145238	 -1.352792	 1.643571	 -0.298034	 0.685518	 -0.647332	 0.149002	 1
1462068315.262	 4	 -0.000594	 0.035146	 -0.007945	 -2.144443	 -1.352748	 1.644017	 -0.297944	 0.685513	 -0.647412	 0.148858	 1
1462068315.272	 4	 -0.003800	 0.035148	 -0.008983	 -2.144000	 -1.352643	 1.644107	 -0.297866	 0.685538	 -0.647458	 0.148698	 1
1462068315.282	 4	 -0.006877	 0.037259	 -0.012010	 -2.143548	 -1.352511	 1.644193	 -0.297793	 0.685566	 -0.647503	 0.148525	 1
1462068315.292	 4	 -0.011135	 0.040455	 -0.013008	 -2.143752	 -1.352344	 1.643607	 -0.297713	 0.685646	 -0.647495	 0.148346	 1
1462068315.302	 4	 -0.015389	 0.043658	 -0.012941	 -2.143943	 -1.352157	 1.642994	 -0.297626	 0.685733	 -0.647489	 0.148147	 1
1462068315.312	 4	 -0.020678	 0.050087	 -0.008571	 -2.144613	 -1.351987	 1.641845	 -0.297505	 0.685863	 -0.647453	 0.147945	 1
1462068315.322	 4	 -0.018531	 0.045887	 -0.000102	 -2.145467	 -1.351928	 1.640509	 -0.297342	 0.686001	 -0.647418	 0.147784	 1
1462068315.332	 4	 -0.012153	 0.035278	 0.006140	 -2.146099	 -1.352025	 1.639483	 -0.297163	 0.686102	 -0.647412	 0.147704	 1
1462068315.342	 4	 -0.011125	 0.027821	 0.004997	 -2.146436	 -1.352145	 1.638834	 -0.297010	 0.686167	 -0.647424	 0.147651	 1
1462068315.352	 4	 -0.010061	 0.028866	 0.002866	 -2.146266	 -1.352235	 1.638706	 -0.296882	 0.686194	 -0.647470	 0.147583	 1
1462068315.362	 4	 -0.010011	 0.042663	 -0.001269	 -2.145930	 -1.352225	 1.638641	 -0.296754	 0.686229	 -0.647524	 0.147443	 1
1462068315.372	 4	 -0.011040	 0.053279	 -0.004358	 -2.145600	 -1.352192	 1.638452	 -0.296593	 0.686283	 -0.647583	 0.147257	 1
1462068315.382	 4	 -0.008900	 0.055393	 -0.005422	 -2.145442	 -1.352114	 1.638054	 -0.296431	 0.686358	 -0.647626	 0.147046	 1
1462068315.392	 4	 -0.003597	 0.045827	 -0.002360	 -2.145282	 -1.352120	 1.637729	 -0.296265	 0.686418	 -0.647674	 0.146888	 1
1462068315.402	 4	 -0.000476	 0.029854	 -0.003600	 -2.145168	 -1.352166	 1.637509	 -0.296138	 0.686456	 -0.647713	 0.146794	 1
1462068315.412	 4	 0.001635	 0.022425	 -0.000490	 -2.145032	 -1.352186	 1.637416	 -0.296056	 0.686479	 -0.647742	 0.146724	 1
1462068315.422	 4	 -0.004773	 0.021380	 -0.000444	 -2.145146	 -1.352169	 1.637086	 -0.295985	 0.686520	 -0.647747	 0.146651	 1
1462068315.432	 4	 -0.005724	 0.022458	 -0.000322	 -2.145375	 -1.352136	 1.636634	 -0.295915	 0.686572	 -0.647742	 0.146571	 1
1462068315.442	 4	 -0.007834	 0.025671	 0.001858	 -2.145615	 -1.352156	 1.636143	 -0.295817	 0.686626	 -0.647745	 0.146502	 1
1462068315.452	 4	 -0.006767	 0.025667	 0.001850	 -2.145699	 -1.352199	 1.635801	 -0.295713	 0.686668	 -0.647763	 0.146436	 1
1462068315.462	 4	 -0.002513	 0.023520	 0.000727	 -2.145564	 -1.352211	 1.635691	 -0.295627	 0.686694	 -0.647793	 0.146358	 1
1462068315.472	 4	 -0.001476	 0.018190	 -0.000398	 -2.145480	 -1.352179	 1.635570	 -0.295569	 0.686719	 -0.647810	 0.146278	 1
1462068315.482	 4	 0.000605	 0.009651	 -0.003693	 -2.145375	 -1.352128	 1.635561	 -0.295549	 0.686731	 -0.647820	 0.146221	 1
1462068315.492	 4	 0.002729	 0.008573	 -0.004787	 -2.145445	 -1.352070	 1.635418	 -0.295541	 0.686750	 -0.647813	 0.146178	 1
1462068315.502	 4	 -0.000472	 0.009639	 -0.005814	 -2.145693	 -1.352017	 1.635090	 -0.295526	 0.686783	 -0.647794	 0.146139	 1
1462068315.512	 4	 -0.004746	 0.009643	 -0.006842	 -2.146028	 -1.351952	 1.634665	 -0.295510	 0.686825	 -0.647767	 0.146093	 1
1462068315.522	 4	 -0.006890	 0.007522	 -0.006843	 -2.146036	 -1.351948	 1.634574	 -0.295483	 0.686838	 -0.647772	 0.146065	 1
1462068315.532	 4	 -0.009025	 0.006473	 -0.005767	 -2.146224	 -1.351940	 1.634313	 -0.295457	 0.686863	 -0.647762	 0.146042	 1
1462068315.542	 4	 -0.009020	 0.005424	 -0.003645	 -2.146201	 -1.352006	 1.634265	 -0.295411	 0.686869	 -0.647777	 0.146042	 1
1462068315.552	 4	 -0.004754	 0.000132	 0.001599	 -2.146145	 -1.352138	 1.634291	 -0.295359	 0.686862	 -0.647800	 0.146078	 1
1462068315.562	 4	 -0.002604	 0.003317	 0.001610	 -2.146136	 -1.352286	 1.634268	 -0.295299	 0.686858	 -0.647822	 0.146120	 1
1462068315.572	 4	 -0.001508	 0.011800	 -0.001517	 -2.145773	 -1.352366	 1.634531	 -0.295246	 0.686842	 -0.647866	 0.146108	 1
1462068315.582	 4	 -0.009986	 0.028805	 -0.006614	 -2.145605	 -1.352328	 1.634443	 -0.295174	 0.686869	 -0.647893	 0.146008	 1
1462068315.592	 4	 -0.014203	 0.040510	 -0.007533	 -2.145719	 -1.352245	 1.633945	 -0.295067	 0.686938	 -0.647902	 0.145857	 1
1462068315.602	 4	 -0.017393	 0.043703	 -0.008541	 -2.145656	 -1.352113	 1.633565	 -0.294959	 0.687006	 -0.647922	 0.145666	 1
1462068315.612	 4	 -0.015172	 0.036291	 -0.008516	 -2.145651	 -1.351980	 1.633181	 -0.294869	 0.687070	 -0.647934	 0.145493	 1
1462068315.622	 4	 -0.009891	 0.025631	 -0.009727	 -2.145391	 -1.351835	 1.633155	 -0.294824	 0.687100	 -0.647956	 0.145344	 1
1462068315.632	 4	 -0.005661	 0.020277	 -0.013011	 -2.144805	 -1.351630	 1.633521	 -0.294827	 0.687100	 -0.647990	 0.145189	 1
1462068315.642	 4	 -0.006741	 0.019201	 -0.015144	 -2.144161	 -1.351378	 1.633968	 -0.294854	 0.687094	 -0.648021	 0.145024	 1
1462068315.652	 4	 -0.004619	 0.020227	 -0.019417	 -2.143166	 -1.351132	 1.634753	 -0.294882	 0.687063	 -0.648080	 0.144850	 1
1462068315.662	 4	 -0.003570	 0.018082	 -0.021579	 -2.142120	 -1.350869	 1.635612	 -0.294925	 0.687025	 -0.648139	 0.144676	 1
1462068315.672	 4	 -0.001455	 0.014876	 -0.022693	 -2.141294	 -1.350679	 1.636281	 -0.294949	 0.686996	 -0.648189	 0.144542	 1
1462068315.682	 4	 0.003855	 0.008486	 -0.021732	 -2.140591	 -1.350618	 1.636899	 -0.294954	 0.686959	 -0.648240	 0.144480	 1
1462068315.692	 4	 0.009164	 0.001040	 -0.019715	 -2.139992	 -1.350630	 1.637491	 -0.294959	 0.686914	 -0.648287	 0.144470	 1
1462068315.702	 4	 0.011294	 0.001025	 -0.020798	 -2.139586	 -1.350613	 1.637932	 -0.294984	 0.686879	 -0.648313	 0.144468	 1
1462068315.712	 4	 0.003856	 0.005325	 -0.017495	 -2.139755	 -1.350574	 1.637758	 -0.294992	 0.686895	 -0.648296	 0.144455	 1
1462068315.722	 4	 0.004946	 0.008528	 -0.015341	 -2.139901	 -1.350597	 1.637560	 -0.294964	 0.686912	 -0.648292	 0.144449	 1
1462068315.732	 4	 0.002801	 0.007463	 -0.016397	 -2.140217	 -1.350559	 1.637203	 -0.294956	 0.686944	 -0.648266	 0.144429	 1
1462068315.742	 4	 -0.000391	 0.008543	 -0.015292	 -2.140355	 -1.350502	 1.637004	 -0.294951	 0.686966	 -0.648253	 0.144392	 1
1462068315.752	 4	 0.000649	 0.002166	 -0.014294	 -2.140578	 -1.350423	 1.636756	 -0.294964	 0.686991	 -0.648228	 0.144360	 1
1462068315.762	 4	 -0.000272	 0.016019	 -0.018327	 -2.140828	 -1.350298	 1.636423	 -0.294972	 0.687028	 -0.648200	 0.144294	 1
1462068315.772	 4	 -0.002373	 0.021359	 -0.016127	 -2.140720	 -1.350152	 1.636337	 -0.294955	 0.687056	 -0.648204	 0.144177	 1
1462068315.782	 4	 -0.005579	 0.021360	 -0.017164	 -2.140830	 -1.350010	 1.636033	 -0.294933	 0.687100	 -0.648192	 0.144067	 1
1462068315.792	 4	 -0.003459	 0.013947	 -0.011922	 -2.140904	 -1.349946	 1.635800	 -0.294898	 0.687132	 -0.648190	 0.143994	 1
1462068315.802	 4	 -0.004573	 0.003321	 -0.010945	 -2.140966	 -1.349926	 1.635679	 -0.294883	 0.687147	 -0.648187	 0.143969	 1
1462068315.812	 4	 -0.006763	 -0.009429	 -0.009978	 -2.140906	 -1.349900	 1.635801	 -0.294914	 0.687134	 -0.648184	 0.143979	 1
1462068315.822	 4	 -0.007845	 -0.012617	 -0.009998	 -2.141151	 -1.349843	 1.635683	 -0.294971	 0.687137	 -0.648149	 0.144005	 1
1462068315.832	 4	 -0.007809	 -0.004115	 -0.010984	 -2.141339	 -1.349743	 1.635568	 -0.295026	 0.687146	 -0.648117	 0.143997	 1
1462068315.842	 4	 -0.007739	 0.009720	 -0.009790	 -2.141516	 -1.349612	 1.635337	 -0.295047	 0.687174	 -0.648091	 0.143937	 1
1462068315.852	 4	 -0.007664	 0.025675	 -0.009642	 -2.141539	 -1.349472	 1.635092	 -0.295016	 0.687215	 -0.648088	 0.143816	 1
1462068315.862	 4	 -0.008719	 0.030973	 -0.012781	 -2.141507	 -1.349306	 1.634820	 -0.294967	 0.687266	 -0.648091	 0.143659	 1
1462068315.872	 4	 -0.011979	 0.020330	 -0.014983	 -2.141018	 -1.349133	 1.635070	 -0.294951	 0.687273	 -0.648124	 0.143510	 1
1462068315.882	 4	 -0.016300	 0.011811	 -0.018222	 -2.140876	 -1.348942	 1.635069	 -0.294967	 0.687293	 -0.648121	 0.143394	 1
1462068315.892	 4	 -0.022748	 0.002257	 -0.018255	 -2.140797	 -1.348739	 1.635081	 -0.295012	 0.687307	 -0.648106	 0.143299	 1
1462068315.902	 4	 -0.025993	 -0.006251	 -0.019372	 -2.140866	 -1.348507	 1.635040	 -0.295097	 0.687320	 -0.648070	 0.143228	 1
1462068315.912	 4	 -0.024827	 -0.009364	 -0.015062	 -2.140858	 -1.348344	 1.635101	 -0.295168	 0.687320	 -0.648046	 0.143187	 1
1462068315.922	 4	 -0.024794	 -0.000870	 -0.017115	 -2.140959	 -1.348153	 1.635011	 -0.295233	 0.687336	 -0.648014	 0.143126	 1
1462068315.932	 4	 -0.018351	 0.005508	 -0.014980	 -2.140614	 -1.347972	 1.635285	 -0.295274	 0.687329	 -0.648023	 0.143032	 1
1462068315.942	 4	 -0.013002	 0.011843	 -0.019231	 -2.140229	 -1.347793	 1.635552	 -0.295300	 0.687326	 -0.648038	 0.142923	 1
1462068315.952	 4	 -0.006574	 0.015031	 -0.017126	 -2.139424	 -1.347659	 1.636201	 -0.295306	 0.687295	 -0.648094	 0.142810	 1
1462068315.962	 4	 -0.004486	 0.008612	 -0.021467	 -2.138229	 -1.347560	 1.637277	 -0.295322	 0.687226	 -0.648181	 0.142713	 1
1462068315.972	 4	 -0.005600	 0.002202	 -0.025780	 -2.137293	 -1.347352	 1.638182	 -0.295397	 0.687169	 -0.648229	 0.142611	 1
1462068315.982	 4	 -0.008815	 0.000077	 -0.026837	 -2.136729	 -1.347110	 1.638742	 -0.295486	 0.687139	 -0.648242	 0.142513	 1
1462068315.992	 4	 -0.007762	 -0.001006	 -0.028988	 -2.136365	 -1.346811	 1.639126	 -0.295598	 0.687123	 -0.648232	 0.142407	 1
1462068316.002	 4	 -0.006603	 0.019193	 -0.029876	 -2.136007	 -1.346540	 1.639378	 -0.295657	 0.687124	 -0.648233	 0.142270	 1
1462068316.012	 4	 -0.011784	 0.049015	 -0.026355	 -2.135568	 -1.346361	 1.639408	 -0.295585	 0.687159	 -0.648274	 0.142066	 1
1462068316.022	 4	 -0.012692	 0.073559	 -0.015460	 -2.135259	 -1.346294	 1.639055	 -0.295385	 0.687237	 -0.648336	 0.141822	 1
1462068316.032	 4	 -0.006215	 0.083167	 -0.007965	 -2.135189	 -1.346365	 1.638314	 -0.295085	 0.687348	 -0.648408	 0.141582	 1
1462068316.042	 4	 0.006513	 0.064005	 -0.005055	 -2.134425	 -1.346516	 1.638392	 -0.294814	 0.687383	 -0.648534	 0.141399	 1
1462068316.052	 4	 0.014918	 0.035268	 -0.004329	 -2.133422	 -1.346634	 1.638988	 -0.294655	 0.687360	 -0.648654	 0.141289	 1
1462068316.062	 4	 0.015949	 0.010796	 -0.008747	 -2.132742	 -1.346662	 1.639527	 -0.294610	 0.687328	 -0.648719	 0.141240	 1
1462068316.072	 4	 0.008422	 0.004390	 -0.015136	 -2.132657	 -1.346500	 1.639599	 -0.294660	 0.687331	 -0.648707	 0.141176	 1
1462068316.082	 4	 0.003092	 0.008637	 -0.018247	 -2.133112	 -1.346252	 1.639111	 -0.294722	 0.687383	 -0.648644	 0.141087	 1
1462068316.092	 4	 -0.007562	 0.011867	 -0.017058	 -2.133968	 -1.345963	 1.638173	 -0.294772	 0.687474	 -0.648548	 0.140975	 1
1462068316.102	 4	 -0.013972	 0.009766	 -0.015956	 -2.134729	 -1.345746	 1.637328	 -0.294799	 0.687556	 -0.648468	 0.140886	 1
1462068316.112	 4	 -0.015040	 0.008713	 -0.014890	 -2.135246	 -1.345563	 1.636729	 -0.294822	 0.687617	 -0.648412	 0.140805	 1
1462068316.122	 4	 -0.013945	 0.012980	 -0.012728	 -2.135608	 -1.345439	 1.636250	 -0.294814	 0.687668	 -0.648377	 0.140731	 1
1462068316.132	 4	 -0.009643	 0.017245	 -0.009527	 -2.135735	 -1.345429	 1.635955	 -0.294758	 0.687703	 -0.648377	 0.140675	 1
1462068316.142	 4	 -0.005334	 0.024686	 -0.008429	 -2.135283	 -1.345458	 1.636168	 -0.294675	 0.687702	 -0.648432	 0.140599	 1
1462068316.152	 4	 -0.002074	 0.034272	 -0.005170	 -2.134733	 -1.345502	 1.636392	 -0.294559	 0.687705	 -0.648503	 0.140498	 1
1462068316.162	 4	 0.001125	 0.036367	 -0.008376	 -2.134015	 -1.345424	 1.636759	 -0.294478	 0.687706	 -0.648574	 0.140343	 1
1462068316.172	 4	 0.000067	 0.037441	 -0.007292	 -2.133321	 -1.345338	 1.637087	 -0.294394	 0.687710	 -0.648642	 0.140180	 1
1462068316.182	 4	 -0.005308	 0.031060	 -0.009436	 -2.133051	 -1.345166	 1.637030	 -0.294343	 0.687746	 -0.648664	 0.140008	 1
1462068316.192	 4	 -0.008547	 0.021512	 -0.007365	 -2.133187	 -1.345023	 1.636650	 -0.294304	 0.687799	 -0.648653	 0.139881	 1
1462068316.202	 4	 -0.007483	 0.017285	 -0.003151	 -2.133286	 -1.344922	 1.636376	 -0.294275	 0.687837	 -0.648645	 0.139791	 1
1462068316.212	 4	 -0.002140	 0.016228	 -0.000010	 -2.133168	 -1.344907	 1.636327	 -0.294225	 0.687854	 -0.648664	 0.139729	 1
1462068316.222	 4	 -0.000948	 0.019431	 0.002221	 -2.132832	 -1.344968	 1.636475	 -0.294147	 0.687852	 -0.648711	 0.139683	 1
1462068316.232	 4	 -0.001994	 0.023689	 0.002270	 -2.132251	 -1.345072	 1.636811	 -0.294039	 0.687838	 -0.648786	 0.139629	 1
1462068316.242	 4	 -0.007262	 0.033317	 0.007734	 -2.131598	 -1.345189	 1.637136	 -0.293901	 0.687831	 -0.648873	 0.139551	 1
1462068316.252	 4	 -0.010344	 0.049359	 0.018569	 -2.131590	 -1.345491	 1.636668	 -0.293638	 0.687885	 -0.648945	 0.139503	 1
1462068316.262	 4	 -0.007116	 0.060995	 0.011190	 -2.131549	 -1.345761	 1.636101	 -0.293341	 0.687958	 -0.649024	 0.139400	 1
1462068316.272	 4	 -0.007121	 0.071532	 -0.002568	 -2.131216	 -1.345586	 1.635737	 -0.293165	 0.688043	 -0.649076	 0.139106	 1
1462068316.282	 4	 -0.012584	 0.056556	 -0.016516	 -2.130383	 -1.345197	 1.635981	 -0.293107	 0.688084	 -0.649133	 0.138761	 1
1462068316.292	 4	 -0.021266	 0.040503	 -0.033643	 -2.130130	 -1.344650	 1.635792	 -0.293139	 0.688156	 -0.649116	 0.138419	 1
1462068316.302	 4	 -0.034166	 0.028771	 -0.043231	 -2.130606	 -1.344186	 1.635019	 -0.293180	 0.688258	 -0.649042	 0.138169	 1
1462068316.312	 4	 -0.059726	 0.029996	 -0.031271	 -2.132773	 -1.343959	 1.632548	 -0.293107	 0.688482	 -0.648866	 0.138033	 1
1462068316.322	 4	 -0.069356	 -0.014318	 0.014235	 -2.136007	 -1.344563	 1.629263	 -0.292828	 0.688710	 -0.648695	 0.138294	 1
1462068316.332	 4	 -0.055563	 -0.074618	 0.064717	 -2.139531	 -1.345831	 1.626246	 -0.292515	 0.688843	 -0.648549	 0.138975	 1
1462068316.342	 4	 0.028373	 -0.183094	 0.100278	 -2.143226	 -1.346619	 1.623990	 -0.292678	 0.688874	 -0.648266	 0.139793	 1
1462068316.352	 4	 0.091005	 -0.269293	 0.119180	 -2.145606	 -1.348001	 1.624108	 -0.293038	 0.688617	 -0.648086	 0.141138	 1
1462068316.362	 4	 0.098532	 -0.278703	 0.144605	 -2.148011	 -1.349685	 1.624500	 -0.293401	 0.688299	 -0.647921	 0.142685	 1
1462068316.372	 4	 0.059552	 -0.204913	 0.184001	 -2.151290	 -1.351865	 1.623421	 -0.293378	 0.688103	 -0.647797	 0.144229	 1
1462068316.382	 4	 0.024034	 -0.072663	 0.219645	 -2.156383	 -1.353794	 1.619298	 -0.292978	 0.688231	 -0.647598	 0.145324	 1
1462068316.392	 4	 0.020712	 0.087037	 0.243623	 -2.161278	 -1.355859	 1.613782	 -0.291990	 0.688561	 -0.647553	 0.145947	 1
1462068316.402	 4	 0.037502	 0.244473	 0.253468	 -2.164464	 -1.358119	 1.608374	 -0.290421	 0.688981	 -0.647781	 0.146084	 1
1462068316.412	 4	 0.087182	 0.341358	 0.286981	 -2.167520	 -1.361402	 1.602042	 -0.288158	 0.689470	 -0.648238	 0.146232	 1
1462068316.422	 4	 0.130365	 0.408566	 0.331992	 -2.167428	 -1.364741	 1.598114	 -0.285684	 0.689828	 -0.648983	 0.146091	 1
1462068316.432	 4	 0.170045	 0.432003	 0.353180	 -2.166264	 -1.368522	 1.594898	 -0.282962	 0.690126	 -0.649887	 0.145963	 1
1462068316.442	 4	 0.194458	 0.416930	 0.337906	 -2.163894	 -1.372407	 1.592980	 -0.280259	 0.690315	 -0.650877	 0.145875	 1
1462068316.452	 4	 0.208039	 0.389995	 0.295974	 -2.160263	 -1.376225	 1.592586	 -0.277692	 0.690384	 -0.651915	 0.145822	 1
1462068316.462	 4	 0.219211	 0.299301	 0.260928	 -2.155462	 -1.379660	 1.594174	 -0.275548	 0.690289	 -0.652912	 0.145879	 1
1462068316.472	 4	 0.232321	 0.169230	 0.223368	 -2.150112	 -1.382869	 1.597536	 -0.273906	 0.690010	 -0.653814	 0.146249	 1
1462068316.482	 4	 0.234639	 0.025262	 0.171917	 -2.144388	 -1.385702	 1.602740	 -0.272896	 0.689538	 -0.654574	 0.146965	 1
1462068316.492	 4	 0.232691	 -0.112365	 0.113102	 -2.137031	 -1.388230	 1.610983	 -0.272494	 0.688800	 -0.655282	 0.148013	 1
1462068316.502	 4	 0.236354	 -0.180962	 0.042092	 -2.129490	 -1.390000	 1.620380	 -0.272671	 0.687974	 -0.655825	 0.149117	 1
1462068316.512	 4	 0.237464	 -0.135544	 -0.001191	 -2.120183	 -1.391305	 1.631385	 -0.272968	 0.687095	 -0.656425	 0.149985	 1
1462068316.522	 4	 0.263674	 -0.002724	 -0.008710	 -2.108239	 -1.392544	 1.643950	 -0.272947	 0.686211	 -0.657252	 0.150447	 1
1462068316.532	 4	 0.306424	 0.215381	 0.017450	 -2.090681	 -1.392591	 1.660108	 -0.272696	 0.685323	 -0.658439	 0.149758	 1
1462068316.542	 4	 0.348258	 0.451507	 0.040680	 -2.071221	 -1.394573	 1.675907	 -0.271028	 0.684545	 -0.660107	 0.149003	 1
1462068316.552	 4	 0.353454	 0.665129	 0.020242	 -2.048173	 -1.396482	 1.693025	 -0.268622	 0.683874	 -0.662129	 0.147455	 1
1462068316.562	 4	 0.325913	 0.761542	 -0.042567	 -2.023018	 -1.397765	 1.711015	 -0.265995	 0.683273	 -0.664287	 0.145280	 1
1462068316.572	 4	 0.246629	 0.765423	 -0.126037	 -1.998683	 -1.397862	 1.727914	 -0.263638	 0.682785	 -0.666301	 0.142625	 1
1462068316.582	 4	 0.153414	 0.719678	 -0.165084	 -1.978432	 -1.397118	 1.741023	 -0.261611	 0.682505	 -0.667980	 0.139819	 1
1462068316.592	 4	 0.061026	 0.577537	 -0.149616	 -1.964427	 -1.396019	 1.748943	 -0.260007	 0.682454	 -0.669181	 0.137294	 1
1462068316.602	 4	 -0.029727	 0.325871	 -0.129852	 -1.957931	 -1.394749	 1.751536	 -0.259151	 0.682570	 -0.669763	 0.135489	 1
1462068316.612	 4	 -0.115515	 0.009196	 -0.125659	 -1.961295	 -1.392773	 1.747273	 -0.259497	 0.682909	 -0.669482	 0.134501	 1
1462068316.622	 4	 -0.180062	 -0.292967	 -0.165211	 -1.968698	 -1.390732	 1.741992	 -0.260866	 0.683115	 -0.668733	 0.134529	 1
1462068316.632	 4	 -0.226357	 -0.532768	 -0.251234	 -1.979469	 -1.387797	 1.735898	 -0.263383	 0.683219	 -0.667521	 0.135120	 1
1462068316.642	 4	 -0.273324	 -0.628440	 -0.409448	 -1.990509	 -1.383420	 1.730975	 -0.266870	 0.683180	 -0.666060	 0.135681	 1
1462068316.652	 4	 -0.339537	 -0.487031	 -0.589801	 -1.999430	 -1.377057	 1.727317	 -0.270746	 0.683159	 -0.664607	 0.135230	 1
1462068316.662	 4	 -0.363027	 -0.229859	 -0.629834	 -2.005547	 -1.369858	 1.724139	 -0.274127	 0.683291	 -0.663398	 0.133683	 1
1462068316.672	 4	 -0.396439	 0.095136	 -0.561508	 -2.010419	 -1.362906	 1.719007	 -0.276336	 0.683783	 -0.662478	 0.131155	 1
1462068316.682	 4	 -0.394607	 0.346263	 -0.398257	 -2.015457	 -1.357194	 1.710878	 -0.277148	 0.684676	 -0.661807	 0.128140	 1
1462068316.692	 4	 -0.350537	 0.504709	 -0.238367	 -2.020157	 -1.353201	 1.701257	 -0.276749	 0.685783	 -0.661402	 0.125137	 1
1462068316.702	 4	 -0.281295	 0.596906	 -0.110220	 -2.023761	 -1.350628	 1.691644	 -0.275506	 0.686939	 -0.661257	 0.122274	 1
1462068316.712	 4	 -0.193265	 0.579434	 0.017904	 -2.026119	 -1.349550	 1.683165	 -0.273733	 0.687983	 -0.661342	 0.119897	 1
1462068316.722	 4	 -0.113347	 0.458770	 0.131187	 -2.028589	 -1.349928	 1.675590	 -0.271816	 0.688861	 -0.661494	 0.118377	 1
1462068316.732	 4	 -0.059686	 0.296937	 0.130285	 -2.030880	 -1.351714	 1.669757	 -0.269965	 0.689471	 -0.661706	 0.117873	 1
1462068316.742	 4	 -0.048220	 0.095171	 0.032389	 -2.032500	 -1.352026	 1.666608	 -0.269310	 0.689792	 -0.661705	 0.117501	 1
1462068316.752	 4	 -0.087867	 -0.096753	 -0.048984	 -2.035411	 -1.351412	 1.664147	 -0.269630	 0.689969	 -0.661395	 0.117473	 1
1462068316.762	 4	 -0.165724	 -0.262880	 -0.108469	 -2.041493	 -1.349920	 1.660205	 -0.270779	 0.690186	 -0.660651	 0.117737	 1
1462068316.772	 4	 -0.270118	 -0.393872	 -0.173790	 -2.051564	 -1.347420	 1.653606	 -0.272659	 0.690565	 -0.659408	 0.118147	 1
1462068316.782	 4	 -0.381951	 -0.506860	 -0.252735	 -2.065227	 -1.343704	 1.644493	 -0.275247	 0.691128	 -0.657668	 0.118546	 1
1462068316.792	 4	 -0.473457	 -0.624032	 -0.313777	 -2.081924	 -1.338883	 1.633452	 -0.278510	 0.691843	 -0.655460	 0.118986	 1
1462068316.802	 4	 -0.557350	 -0.721988	 -0.361917	 -2.101093	 -1.333183	 1.620929	 -0.282326	 0.692690	 -0.652832	 0.119510	 1
1462068316.812	 4	 -0.617706	 -0.812522	 -0.403799	 -2.121844	 -1.326685	 1.607692	 -0.286627	 0.693627	 -0.649848	 0.120101	 1
1462068316.822	 4	 -0.637280	 -0.880616	 -0.414919	 -2.143043	 -1.319812	 1.594775	 -0.291255	 0.694562	 -0.646644	 0.120857	 1
1462068316.832	 4	 -0.626413	 -0.863421	 -0.386078	 -2.163678	 -1.313029	 1.582473	 -0.295830	 0.695489	 -0.643407	 0.121686	 1
1462068316.842	 4	 -0.562711	 -0.777906	 -0.301642	 -2.182753	 -1.307053	 1.571062	 -0.299901	 0.696377	 -0.640386	 0.122576	 1
1462068316.852	 4	 -0.477284	 -0.613728	 -0.214531	 -2.199245	 -1.302258	 1.560803	 -0.303128	 0.697212	 -0.637799	 0.123376	 1
1462068316.862	 4	 -0.395993	 -0.398683	 -0.154621	 -2.212186	 -1.298417	 1.552079	 -0.305424	 0.697994	 -0.635766	 0.123782	 1
1462068316.872	 4	 -0.319716	 -0.171688	 -0.050762	 -2.222399	 -1.295743	 1.543846	 -0.306637	 0.698806	 -0.634282	 0.123810	 1
1462068316.882	 4	 -0.255195	 0.091413	 0.028925	 -2.230087	 -1.294214	 1.535636	 -0.306685	 0.699700	 -0.633360	 0.123369	 1
1462068316.892	 4	 -0.181420	 0.358068	 0.015843	 -2.233177	 -1.293147	 1.529320	 -0.305787	 0.700556	 -0.633097	 0.122084	 1
1462068316.902	 4	 -0.075851	 0.491361	 0.105688	 -2.232880	 -1.293035	 1.524810	 -0.304147	 0.701270	 -0.633397	 0.120513	 1
1462068316.912	 4	 0.005634	 0.613963	 0.324601	 -2.233290	 -1.295138	 1.518387	 -0.301365	 0.702059	 -0.634074	 0.119343	 1
1462068316.922	 4	 -0.002385	 0.707722	 0.343661	 -2.233923	 -1.297996	 1.510533	 -0.297911	 0.702977	 -0.634930	 0.118052	 1
1462068316.932	 4	 -0.105645	 0.687570	 0.163193	 -2.233815	 -1.299205	 1.503378	 -0.294982	 0.703949	 -0.635570	 0.116154	 1
1462068316.942	 4	 -0.193287	 0.547508	 0.027301	 -2.234038	 -1.298561	 1.497065	 -0.293030	 0.704916	 -0.635791	 0.114007	 1
1462068316.952	 4	 -0.214339	 0.398532	 0.009046	 -2.235854	 -1.297290	 1.490667	 -0.291748	 0.705851	 -0.635667	 0.112181	 1
1462068316.962	 4	 -0.170537	 0.266678	 0.177960	 -2.240700	 -1.297105	 1.482543	 -0.290477	 0.706778	 -0.635383	 0.111248	 1
1462068316.972	 4	 -0.167917	 0.149448	 0.440089	 -2.251899	 -1.299093	 1.469096	 -0.288659	 0.707931	 -0.634864	 0.111611	 1
1462068316.982	 4	 -0.311001	 0.100155	 0.478178	 -2.269426	 -1.301103	 1.449786	 -0.286754	 0.709545	 -0.633791	 0.112374	 1
1462068316.992	 4	 -0.428262	 0.134474	 0.469927	 -2.290307	 -1.301953	 1.426864	 -0.284959	 0.711562	 -0.632257	 0.112820	 1
1462068317.002	 4	 -0.409061	 0.235462	 0.616709	 -2.313637	 -1.303458	 1.400550	 -0.282493	 0.713818	 -0.630729	 0.113322	 1
1462068317.012	 4	 -0.355629	 0.440894	 0.659720	 -2.336292	 -1.305745	 1.373093	 -0.279131	 0.716129	 -0.629571	 0.113515	 1
1462068317.022	 4	 -0.239631	 0.709747	 0.526925	 -2.351931	 -1.307884	 1.350271	 -0.275235	 0.718150	 -0.629143	 0.112630	 1
1462068317.032	 4	 -0.046512	 0.910522	 0.277724	 -2.354794	 -1.309666	 1.338283	 -0.271303	 0.719406	 -0.629801	 0.110454	 1
1462068317.042	 4	 0.111003	 0.828263	 -0.001511	 -2.345804	 -1.310675	 1.338592	 -0.268283	 0.719727	 -0.631213	 0.107639	 1
1462068317.052	 4	 0.156913	 0.529033	 -0.178415	 -2.331787	 -1.310717	 1.346795	 -0.266793	 0.719371	 -0.632661	 0.105202	 1
1462068317.062	 4	 0.087009	 0.215247	 -0.209501	 -2.320551	 -1.309941	 1.355399	 -0.266561	 0.718903	 -0.633548	 0.103636	 1
1462068317.072	 4	 0.007033	 -0.014114	 -0.189624	 -2.314563	 -1.308685	 1.361232	 -0.267136	 0.718581	 -0.633787	 0.102926	 1
1462068317.082	 4	 -0.037100	 -0.078998	 -0.207962	 -2.311171	 -1.307012	 1.365535	 -0.268108	 0.718373	 -0.633677	 0.102529	 1
1462068317.092	 4	 -0.033478	 -0.000211	 -0.195537	 -2.307142	 -1.305271	 1.369911	 -0.268925	 0.718190	 -0.633639	 0.101903	 1
1462068317.102	 4	 -0.139877	 -0.001432	 -0.113624	 -2.306577	 -1.303562	 1.370453	 -0.269454	 0.718339	 -0.633340	 0.101316	 1
1462068317.112	 4	 -0.238693	 0.017565	 -0.027325	 -2.311298	 -1.301731	 1.365509	 -0.269721	 0.718974	 -0.632579	 0.100853	 1
1462068317.122	 4	 -0.222617	 0.192518	 0.050897	 -2.316859	 -1.300399	 1.358279	 -0.269276	 0.719821	 -0.631918	 0.100136	 1
1462068317.132	 4	 -0.170155	 0.412891	 0.100451	 -2.320347	 -1.299819	 1.350971	 -0.267919	 0.720697	 -0.631692	 0.098897	 1
1462068317.142	 4	 -0.082322	 0.699876	 0.109817	 -2.319888	 -1.299871	 1.345072	 -0.265632	 0.721500	 -0.632053	 0.096884	 1
1462068317.152	 4	 0.076957	 0.990771	 0.100479	 -2.312191	 -1.300857	 1.343424	 -0.262309	 0.721969	 -0.633354	 0.093903	 1
1462068317.162	 4	 0.191737	 1.122269	 0.093243	 -2.298871	 -1.302711	 1.345861	 -0.258409	 0.722050	 -0.635361	 0.090465	 1
1462068317.172	 4	 0.278627	 0.990135	 0.094454	 -2.283696	 -1.305160	 1.350861	 -0.254649	 0.721805	 -0.637587	 0.087372	 1
1462068317.182	 4	 0.253932	 0.746518	 0.077482	 -2.269981	 -1.307542	 1.356703	 -0.251657	 0.721393	 -0.639550	 0.085063	 1
1462068317.192	 4	 0.092687	 0.509715	 0.064959	 -2.262012	 -1.308905	 1.359047	 -0.249537	 0.721287	 -0.640721	 0.083383	 1
1462068317.202	 4	 -0.020013	 0.363349	 0.076301	 -2.259705	 -1.309475	 1.357406	 -0.248032	 0.721525	 -0.641189	 0.082211	 1
1462068317.212	 4	 -0.045446	 0.340550	 0.148782	 -2.260582	 -1.310176	 1.352965	 -0.246498	 0.721962	 -0.641401	 0.081332	 1
1462068317.222	 4	 -0.034458	 0.331602	 0.239193	 -2.263502	 -1.311610	 1.346442	 -0.244643	 0.722487	 -0.641592	 0.080762	 1
1462068317.232	 4	 -0.014342	 0.243728	 0.303212	 -2.268403	 -1.313713	 1.338574	 -0.242734	 0.723012	 -0.641734	 0.080690	 1
1462068317.242	 4	 0.012942	 0.089907	 0.369752	 -2.275661	 -1.316448	 1.329709	 -0.241030	 0.723477	 -0.641769	 0.081354	 1
1462068317.252	 4	 0.052851	 -0.077988	 0.407275	 -2.284981	 -1.319799	 1.320488	 -0.239674	 0.723808	 -0.641713	 0.082846	 1
1462068317.262	 4	 0.093810	 -0.188973	 0.372847	 -2.294178	 -1.323274	 1.312737	 -0.238778	 0.723928	 -0.641656	 0.084801	 1
1462068317.272	 4	 0.134860	 -0.271325	 0.326962	 -2.301903	 -1.326668	 1.307398	 -0.238309	 0.723812	 -0.641672	 0.086966	 1
1462068317.282	 4	 0.141636	 -0.400198	 0.305454	 -2.309625	 -1.329918	 1.303187	 -0.238294	 0.723561	 -0.641619	 0.089443	 1
1462068317.292	 4	 0.132422	 -0.581719	 0.350738	 -2.320169	 -1.333280	 1.297819	 -0.238736	 0.723286	 -0.641318	 0.092599	 1
1462068317.302	 4	 0.137320	 -0.754410	 0.446073	 -2.335206	 -1.337227	 1.289660	 -0.239440	 0.723024	 -0.640750	 0.096665	 1
1462068317.312	 4	 0.152292	 -0.886208	 0.610975	 -2.356062	 -1.342290	 1.276985	 -0.240052	 0.722808	 -0.639980	 0.101729	 1
1462068317.322	 4	 0.139721	 -1.025993	 0.836791	 -2.385945	 -1.348763	 1.256452	 -0.240313	 0.722764	 -0.638909	 0.107963	 1
1462068317.332	 4	 0.125878	 -1.183017	 1.031551	 -2.426457	 -1.356297	 1.226694	 -0.240346	 0.722903	 -0.637440	 0.115393	 1
1462068317.342	 4	 0.154967	 -1.318632	 1.262372	 -2.478511	 -1.365041	 1.186601	 -0.240005	 0.723122	 -0.635696	 0.124031	 1
1462068317.352	 4	 0.249274	 -1.476363	 1.549971	 -2.545109	 -1.375517	 1.133265	 -0.239075	 0.723263	 -0.633826	 0.134159	 1
1462068317.362	 4	 0.348011	 -1.640141	 1.885433	 -2.631765	 -1.387677	 1.061300	 -0.237431	 0.723254	 -0.631837	 0.145984	 1
1462068317.372	 4	 0.345480	 -1.783382	 2.225167	 -2.748756	 -1.400316	 0.960258	 -0.234907	 0.723315	 -0.629433	 0.159522	 1
1462068317.382	 4	 0.206452	 -2.326406	 2.528264	 -2.905338	 -1.410226	 0.823176	 -0.232538	 0.723634	 -0.625759	 0.175229	 1
1462068317.392	 4	 0.295937	 -2.855085	 2.848688	 -3.103969	 -1.416540	 0.650125	 -0.230918	 0.723495	 -0.620907	 0.194181	 1
1462068317.402	 4	 0.498491	 -2.885753	 3.101357	 2.951290	 -1.418682	 0.448763	 -0.228401	 0.722655	 -0.616093	 0.214553	 1
1462068317.412	 4	 0.695248	 -2.728658	 3.283350	 2.711486	 -1.414967	 0.234243	 -0.224506	 0.721200	 -0.611650	 0.235269	 1
1462068317.422	 4	 0.876083	 -2.292092	 3.423321	 2.482209	 -1.404452	 0.026433	 -0.218645	 0.719464	 -0.607811	 0.255209	 1
1462068317.432	 4	 1.008582	 -1.878098	 3.511281	 2.280558	 -1.387433	 -0.158315	 -0.210761	 0.717628	 -0.604608	 0.273932	 1
1462068317.442	 4	 0.980839	 -1.594523	 3.443821	 2.119248	 -1.365163	 -0.305806	 -0.201911	 0.715863	 -0.601561	 0.291370	 1
1462068317.452	 4	 0.821965	 -1.412440	 3.261456	 1.999974	 -1.340000	 -0.413116	 -0.193124	 0.714351	 -0.598288	 0.307338	 1
1462068317.462	 4	 0.491617	 -1.317645	 2.999840	 1.917948	 -1.313724	 -0.483810	 -0.185220	 0.713403	 -0.594272	 0.321855	 1
1462068317.472	 4	 0.070247	 -1.346356	 2.537503	 1.868096	 -1.289022	 -0.521779	 -0.179354	 0.713134	 -0.589323	 0.334620	 1
1462068317.482	 4	 -0.345139	 -1.555992	 1.915698	 1.841423	 -1.268369	 -0.533960	 -0.176746	 0.713142	 -0.583585	 0.345857	 1
1462068317.492	 4	 -0.668148	 -2.012443	 1.469840	 1.828105	 -1.251878	 -0.528300	 -0.177708	 0.712962	 -0.577082	 0.356486	 1
1462068317.502	 4	 -0.714323	 -2.557486	 1.239229	 1.814913	 -1.237454	 -0.516546	 -0.181349	 0.711797	 -0.569961	 0.368241	 1
1462068317.512	 4	 -0.462894	 -3.123684	 0.998369	 1.793182	 -1.226023	 -0.507969	 -0.187098	 0.708708	 -0.563330	 0.381297	 1
1462068317.522	 4	 -0.126708	 -2.887529	 0.992311	 1.763233	 -1.215911	 -0.508154	 -0.192335	 0.704440	 -0.557870	 0.394401	 1
1462068317.532	 4	 -0.013587	 -2.293637	 1.092771	 1.734249	 -1.205512	 -0.512556	 -0.195613	 0.700571	 -0.553245	 0.406024	 1
1462068317.542	 4	 0.124261	 -1.337085	 1.345597	 1.711313	 -1.192924	 -0.520265	 -0.195278	 0.698357	 -0.549366	 0.415164	 1
1462068317.552	 4	 0.275282	 -0.684309	 1.514484	 1.692562	 -1.178621	 -0.531669	 -0.191879	 0.697420	 -0.546317	 0.422287	 1
1462068317.562	 4	 0.278138	 -0.412173	 1.641685	 1.676625	 -1.162980	 -0.543927	 -0.186907	 0.697146	 -0.543490	 0.428569	 1
1462068317.572	 4	 0.038626	 -0.203872	 1.815165	 1.667511	 -1.145435	 -0.550929	 -0.181228	 0.697911	 -0.539777	 0.434416	 1
1462068317.582	 4	 -0.161425	 0.108664	 1.858183	 1.666659	 -1.126837	 -0.552335	 -0.174886	 0.699979	 -0.535341	 0.439152	 1
1462068317.592	 4	 -0.153075	 -0.108754	 1.800667	 1.666497	 -1.108534	 -0.552410	 -0.168904	 0.701982	 -0.530708	 0.443894	 1
1462068317.602	 4	 0.076630	 -0.846407	 1.668175	 1.656889	 -1.091605	 -0.556018	 -0.164603	 0.701946	 -0.526404	 0.450640	 1
1462068317.612	 4	 0.212737	 -1.547367	 1.570943	 1.636684	 -1.075881	 -0.562876	 -0.162276	 0.699501	 -0.522327	 0.459934	 1
1462068317.622	 4	 0.181186	 -1.307233	 1.671502	 1.617420	 -1.059700	 -0.568635	 -0.159846	 0.697028	 -0.518043	 0.469290	 1
1462068317.632	 4	 0.286158	 -0.607335	 2.012816	 1.603878	 -1.040539	 -0.575207	 -0.154563	 0.696042	 -0.513737	 0.477190	 1
1462068317.642	 4	 0.541315	 -0.050579	 2.183100	 1.593285	 -1.019046	 -0.585453	 -0.146375	 0.696037	 -0.510032	 0.483708	 1
1462068317.652	 4	 0.780612	 -0.011808	 2.199495	 1.581470	 -0.997289	 -0.599851	 -0.136887	 0.695814	 -0.507280	 0.489665	 1
1462068317.662	 4	 0.796555	 -0.520950	 2.251104	 1.565385	 -0.974879	 -0.614517	 -0.128084	 0.694317	 -0.504283	 0.497209	 1
1462068317.672	 4	 0.771330	 -0.997346	 2.108342	 1.545758	 -0.953202	 -0.627601	 -0.120891	 0.691474	 -0.501021	 0.506188	 1
1462068317.682	 4	 0.729660	 -1.477649	 1.860176	 1.523139	 -0.933709	 -0.639024	 -0.115706	 0.687345	 -0.497868	 0.516039	 1
1462068317.692	 4	 0.701369	 -1.921100	 1.712417	 1.496683	 -0.915908	 -0.649021	 -0.112484	 0.681761	 -0.494703	 0.527084	 1
1462068317.702	 4	 0.693413	 -2.072580	 1.501122	 1.469309	 -0.899757	 -0.658008	 -0.110349	 0.675518	 -0.491768	 0.538203	 1
1462068317.712	 4	 0.746106	 -2.236526	 1.226446	 1.440167	 -0.886046	 -0.667166	 -0.109413	 0.668458	 -0.489487	 0.549177	 1
1462068317.722	 4	 0.857602	 -2.358959	 0.962158	 1.408833	 -0.874690	 -0.677661	 -0.109391	 0.660554	 -0.488118	 0.559859	 1
1462068317.732	 4	 0.925264	 -2.509880	 0.711842	 1.375044	 -0.865444	 -0.689511	 -0.110296	 0.651756	 -0.487579	 0.570364	 1
1462068317.742	 4	 0.893191	 -2.530810	 0.452947	 1.340659	 -0.858477	 -0.701418	 -0.112199	 0.642546	 -0.487610	 0.580329	 1
1462068317.752	 4	 0.812619	 -2.469328	 0.245331	 1.307309	 -0.853600	 -0.712702	 -0.114876	 0.633411	 -0.488014	 0.589437	 1
1462068317.762	 4	 0.699017	 -2.459326	 0.112127	 1.275172	 -0.850247	 -0.722741	 -0.118276	 0.624419	 -0.488455	 0.597933	 1
1462068317.772	 4	 0.572229	 -2.563860	 0.019537	 1.243458	 -0.847969	 -0.731260	 -0.122501	 0.615344	 -0.488674	 0.606253	 1
1462068317.782	 4	 0.406592	 -2.756587	 -0.076733	 1.211429	 -0.846971	 -0.737953	 -0.127892	 0.605963	 -0.488528	 0.614648	 1
1462068317.792	 4	 0.191712	 -3.019044	 -0.128461	 1.178805	 -0.847172	 -0.742109	 -0.134685	 0.596144	 -0.487708	 0.623388	 1
1462068317.802	 4	 -0.093483	 -3.291626	 -0.138106	 1.146130	 -0.848502	 -0.742701	 -0.142990	 0.585969	 -0.485853	 0.632567	 1
1462068317.812	 4	 -0.486164	 -3.511680	 -0.134602	 1.115052	 -0.851138	 -0.738159	 -0.152883	 0.575826	 -0.482541	 0.642032	 1
1462068317.822	 4	 -0.980043	 -3.672051	 -0.155240	 1.087076	 -0.856003	 -0.727326	 -0.164642	 0.566104	 -0.477591	 0.651404	 1
1462068317.832	 4	 -1.524505	 -3.736207	 -0.128712	 1.063712	 -0.863298	 -0.709190	 -0.178215	 0.557159	 -0.470771	 0.660446	 1
1462068317.842	 4	 -2.039347	 -3.493346	 0.005928	 1.048938	 -0.871679	 -0.682593	 -0.192412	 0.550070	 -0.461847	 0.668654	 1
1462068317.852	 4	 -2.475223	 -3.190788	 0.337603	 1.043888	 -0.880028	 -0.647487	 -0.206561	 0.545104	 -0.450827	 0.675981	 1
1462068317.862	 4	 -2.847817	 -2.926862	 0.794122	 1.047569	 -0.887645	 -0.604244	 -0.220583	 0.541881	 -0.437732	 0.682715	 1
1462068317.872	 4	 -3.010727	 -2.381232	 1.314315	 1.061439	 -0.892149	 -0.553620	 -0.233127	 0.540928	 -0.422688	 0.688755	 1
1462068317.882	 4	 -3.008233	 -1.871952	 1.875360	 1.084627	 -0.891301	 -0.498243	 -0.242978	 0.542360	 -0.406154	 0.694152	 1
1462068317.892	 4	 -2.765639	 -1.506637	 2.334925	 1.112366	 -0.884427	 -0.441982	 -0.250009	 0.545224	 -0.388688	 0.699391	 1
1462068317.902	 4	 -2.219888	 -1.244177	 2.667265	 1.138528	 -0.871247	 -0.391042	 -0.253719	 0.548413	 -0.371473	 0.704895	 1
1462068317.912	 4	 -1.549397	 -1.165608	 2.919007	 1.158831	 -0.852219	 -0.348939	 -0.254072	 0.551044	 -0.355143	 0.711106	 1
1462068317.922	 4	 -0.899633	 -1.384993	 3.142579	 1.170168	 -0.828028	 -0.316114	 -0.251610	 0.552095	 -0.339534	 0.718749	 1
1462068317.932	 4	 -0.361388	 -1.919088	 3.337548	 1.170862	 -0.799595	 -0.290894	 -0.247220	 0.550629	 -0.324076	 0.728468	 1
1462068317.942	 4	 0.039353	 -2.538787	 3.406093	 1.160769	 -0.768529	 -0.271327	 -0.241857	 0.546085	 -0.308527	 0.740343	 1
1462068317.952	 4	 0.271460	 -2.974547	 3.250811	 1.142766	 -0.737510	 -0.255709	 -0.236404	 0.538984	 -0.293384	 0.753350	 1
1462068317.962	 4	 0.522119	 -3.586601	 3.139554	 1.116771	 -0.707050	 -0.243250	 -0.231148	 0.529005	 -0.278606	 0.767531	 1
1462068317.972	 4	 0.888654	 -4.180994	 3.163871	 1.082492	 -0.675373	 -0.233780	 -0.225321	 0.515906	 -0.263835	 0.783239	 1
1462068317.982	 4	 1.454899	 -4.960063	 3.176203	 1.038281	 -0.641265	 -0.228510	 -0.218178	 0.498976	 -0.249287	 0.800798	 1
1462068317.992	 4	 1.902333	 -5.602346	 2.936126	 0.983434	 -0.605964	 -0.228034	 -0.210041	 0.477632	 -0.235680	 0.819881	 1
1462068318.002	 4	 1.100689	 -4.247422	 2.889637	 0.939941	 -0.574727	 -0.221683	 -0.203107	 0.459577	 -0.222142	 0.835577	 1
1462068318.012	 4	 0.610021	 -3.080328	 3.174407	 0.915672	 -0.545967	 -0.205944	 -0.196806	 0.448245	 -0.207326	 0.846971	 1
1462068318.022	 4	 0.954078	 -3.076338	 3.276959	 0.893042	 -0.515047	 -0.190257	 -0.189012	 0.437522	 -0.192331	 0.857822	 1
1462068318.032	 4	 1.256740	 -2.890447	 3.219568	 0.869481	 -0.482406	 -0.177158	 -0.179622	 0.426545	 -0.178124	 0.868371	 1
1462068318.042	 4	 1.523759	 -2.260572	 3.064306	 0.849895	 -0.449463	 -0.166834	 -0.168832	 0.417425	 -0.165554	 0.877408	 1
1462068318.052	 4	 1.904401	 -1.583717	 2.979897	 0.835346	 -0.415073	 -0.159658	 -0.156084	 0.410685	 -0.154640	 0.884908	 1
1462068318.062	 4	 2.327626	 -0.925104	 2.890686	 0.825875	 -0.378585	 -0.156111	 -0.141090	 0.406372	 -0.145427	 0.890958	 1
1462068318.072	 4	 2.763127	 -0.368718	 2.789758	 0.820789	 -0.339908	 -0.156425	 -0.123895	 0.404139	 -0.137887	 0.895717	 1
1462068318.082	 4	 3.237968	 -0.036094	 2.649104	 0.818364	 -0.298996	 -0.161122	 -0.104543	 0.403142	 -0.132072	 0.899502	 1
1462068318.092	 4	 3.620550	 -0.050831	 2.531599	 0.815713	 -0.256157	 -0.169721	 -0.083486	 0.401916	 -0.127649	 0.902884	 1
1462068318.102	 4	 3.812339	 -0.276377	 2.454293	 0.811115	 -0.212280	 -0.180466	 -0.061600	 0.399487	 -0.123962	 0.906228	 1
1462068318.112	 4	 3.855668	 -0.531237	 2.381204	 0.804224	 -0.168263	 -0.191926	 -0.039608	 0.395594	 -0.120597	 0.909612	 1
1462068318.122	 4	 3.717383	 -0.788029	 2.261719	 0.795461	 -0.125654	 -0.203076	 -0.018403	 0.390439	 -0.117460	 0.912919	 1
1462068318.132	 4	 3.540479	 -1.086196	 2.141119	 0.784290	 -0.085011	 -0.213274	 0.001595	 0.383837	 -0.114414	 0.916284	 1
1462068318.142	 4	 3.426114	 -1.459133	 2.002227	 0.770049	 -0.046129	 -0.223003	 0.020539	 0.375528	 -0.111705	 0.919825	 1
1462068318.152	 4	 3.319545	 -1.789321	 1.894572	 0.752651	 -0.008680	 -0.232194	 0.038561	 0.365496	 -0.109313	 0.923567	 1
1462068318.162	 4	 3.232612	 -2.060795	 1.824594	 0.732866	 0.027708	 -0.240661	 0.055845	 0.354110	 -0.107132	 0.927367	 1
1462068318.172	 4	 3.143317	 -2.459214	 1.848308	 0.709491	 0.063619	 -0.247800	 0.072500	 0.340829	 -0.104867	 0.931441	 1
1462068318.182	 4	 3.276647	 -2.943566	 2.138921	 0.681416	 0.101553	 -0.252742	 0.089517	 0.325034	 -0.101813	 0.935935	 1
1462068318.192	 4	 3.068682	 -2.632866	 2.072217	 0.654376	 0.139239	 -0.255610	 0.106199	 0.309592	 -0.098229	 0.939801	 1
1462068318.202	 4	 2.837215	 -2.231455	 1.891458	 0.631284	 0.173807	 -0.257444	 0.121522	 0.296106	 -0.094844	 0.942634	 1
1462068318.212	 4	 2.672080	 -1.768773	 1.679784	 0.612959	 0.205566	 -0.259192	 0.135785	 0.284953	 -0.091865	 0.944418	 1
1462068318.232	 4	 2.545111	 -1.182231	 1.256844	 0.586750	 0.263972	 -0.265118	 0.162764	 0.267504	 -0.087700	 0.945652	 1
1462068318.242	 4	 2.557578	 -1.147031	 1.129170	 0.576627	 0.291324	 -0.269647	 0.175708	 0.260067	 -0.086607	 0.945511	 1
1462068318.222	 4	 2.607701	 -1.447770	 1.478704	 0.598271	 0.235614	 -0.261579	 0.149523	 0.275504	 -0.089421	 0.945381	 1
1462068318.252	 4	 2.769116	 -1.366381	 1.180706	 0.564907	 0.320318	 -0.274719	 0.189388	 0.251583	 -0.085790	 0.945240	 1
1462068318.262	 4	 2.812725	 -1.303503	 1.069005	 0.553576	 0.349730	 -0.280607	 0.203341	 0.243052	 -0.085395	 0.944609	 1
1462068318.272	 4	 2.809392	 -1.198284	 0.910144	 0.543886	 0.377628	 -0.287638	 0.216743	 0.235193	 -0.085709	 0.943589	 1
1462068318.282	 4	 2.839075	 -1.121753	 0.768849	 0.535746	 0.405569	 -0.295957	 0.230317	 0.227789	 -0.086544	 0.942113	 1
1462068318.302	 5	 2.760111	 -1.302713	 0.716693	 0.519070	 0.460869	 -0.313953	 0.257096	 0.212265	 -0.089209	 0.938556	 1
1462068318.312	 5	 2.568225	 -1.288071	 0.751538	 0.509465	 0.487140	 -0.321194	 0.269489	 0.204081	 -0.090191	 0.936799	 1
