% Gyrometer data recorded with 'snsrlog'
% 
% 
% Label description:
% 	 0: Default Label
% 	 1: still_drop
% 	 2: walk_drop
% 	 3: other
% 	 4: dtw_same
% 	 5: dtw_diff
% 	 6: delete
% 	 7: steal
% 
% Column description:
% 	 1: Seconds.milliseconds since 1970
% 	 2: Number of skipped measurements
% 	 3: Gyro X
% 	 4: Gyro Y
% 	 5: Gyro Z
% 	 6: Roll of the device
% 	 7: Pitch of the device
% 	 8: Yaw of the device
% 	 9: Quaternion X
% 	 10: Quaternion Y
% 	 11: Quaternion Z
% 	 12: Quaternion W
% 	 13: Label used for the current sample
% 
% 
1463623843.484	 0	 -0.681020	 0.741797	 0.739596	 0.264944	 0.668871	 0.029066	 0.323513	 0.129482	 0.056957	 0.935591	 1
1463623843.494	 0	 -0.698971	 0.841318	 0.669272	 0.266448	 0.663994	 0.039818	 0.320479	 0.131983	 0.061939	 0.935968	 1
1463623843.504	 0	 -0.749855	 0.979169	 0.591066	 0.269768	 0.658519	 0.049749	 0.317142	 0.135181	 0.066790	 0.936315	 1
1463623843.514	 0	 -0.832673	 1.132022	 0.515408	 0.275096	 0.652152	 0.058985	 0.313335	 0.139190	 0.071573	 0.936656	 1
1463623843.524	 0	 -0.927369	 1.247752	 0.449101	 0.282030	 0.644751	 0.067709	 0.308984	 0.143849	 0.076289	 0.937025	 1
1463623843.534	 1	 -1.031654	 1.360374	 0.390309	 0.290315	 0.636252	 0.076089	 0.304048	 0.149063	 0.080958	 0.937433	 1
1463623843.554	 1	 -1.187245	 1.760703	 0.237656	 0.313251	 0.616268	 0.091536	 0.292454	 0.162190	 0.090322	 0.938087	 1
1463623843.564	 1	 -1.178250	 1.948364	 0.108267	 0.328718	 0.605477	 0.097754	 0.286135	 0.170363	 0.094730	 0.938152	 1
1463623843.574	 1	 -1.093047	 2.054311	 -0.060945	 0.346614	 0.594867	 0.102072	 0.279891	 0.179381	 0.098514	 0.937965	 1
1463623843.584	 1	 -0.920161	 2.012859	 -0.280252	 0.366109	 0.585016	 0.103632	 0.274129	 0.188753	 0.101184	 0.937543	 1
1463623843.594	 1	 -0.677831	 1.804909	 -0.550738	 0.385885	 0.576351	 0.101553	 0.269240	 0.197761	 0.102184	 0.936995	 1
1463623843.604	 1	 -0.403691	 1.573292	 -0.845167	 0.405520	 0.569015	 0.095269	 0.265420	 0.206150	 0.101224	 0.936380	 1
1463623843.614	 1	 -0.146698	 1.537560	 -1.121638	 0.426416	 0.562864	 0.084809	 0.262582	 0.214596	 0.098516	 0.935572	 1
1463623843.624	 1	 -0.018015	 1.827246	 -1.309769	 0.450856	 0.557125	 0.071425	 0.260173	 0.224339	 0.094884	 0.934334	 1
1463623843.634	 1	 -0.121971	 2.456824	 -1.362688	 0.480920	 0.550313	 0.057619	 0.257169	 0.236697	 0.091602	 0.932442	 1
1463623843.644	 1	 -0.365030	 3.207231	 -1.383430	 0.517635	 0.541077	 0.045191	 0.252711	 0.252403	 0.089429	 0.929749	 1
1463623843.654	 1	 -0.527375	 3.721711	 -1.491266	 0.559645	 0.529355	 0.033618	 0.246907	 0.270756	 0.087831	 0.926290	 1
1463623843.664	 1	 -0.526554	 4.075400	 -1.705397	 0.605734	 0.515818	 0.021153	 0.240387	 0.290952	 0.085830	 0.922060	 1
1463623843.674	 1	 -0.437332	 4.450659	 -1.989372	 0.656431	 0.500798	 0.006571	 0.233536	 0.313070	 0.082889	 0.916830	 1
1463623843.684	 1	 -0.359812	 4.578385	 -2.238247	 0.709911	 0.484106	 -0.009929	 0.226427	 0.336297	 0.078786	 0.910730	 1
1463623843.694	 1	 -0.357001	 4.383812	 -2.374368	 0.762105	 0.465735	 -0.026841	 0.219053	 0.358952	 0.073693	 0.904289	 1
1463623843.704	 1	 -0.445031	 4.107016	 -2.445451	 0.810803	 0.445603	 -0.042612	 0.211201	 0.380226	 0.068032	 0.897883	 1
1463623843.714	 1	 -0.590209	 3.764995	 -2.586985	 0.855424	 0.423077	 -0.056981	 0.202525	 0.399937	 0.061713	 0.891754	 1
1463623843.724	 1	 -0.807404	 3.383231	 -2.811391	 0.895339	 0.397159	 -0.069926	 0.192562	 0.417883	 0.054450	 0.886188	 1
1463623843.734	 1	 -1.095723	 3.135223	 -3.100010	 0.931381	 0.366970	 -0.081125	 0.180797	 0.434528	 0.046238	 0.881113	 1
1463623843.744	 1	 -1.364035	 3.071034	 -3.406276	 0.965364	 0.332344	 -0.090526	 0.167073	 0.450665	 0.037171	 0.876131	 1
1463623843.754	 1	 -1.534362	 3.169480	 -3.686304	 0.999164	 0.293929	 -0.098526	 0.151719	 0.466990	 0.027307	 0.870721	 1
1463623843.764	 1	 -1.571428	 3.397877	 -3.886351	 1.034441	 0.252980	 -0.105657	 0.135400	 0.484041	 0.016761	 0.864344	 1
1463623843.774	 1	 -1.455036	 3.659008	 -3.910513	 1.071926	 0.211575	 -0.112218	 0.119119	 0.501924	 0.005890	 0.856649	 1
1463623843.784	 1	 -1.163900	 3.766233	 -3.820394	 1.110788	 0.171673	 -0.119043	 0.103967	 0.520073	 -0.005235	 0.847754	 1
1463623843.794	 1	 -0.828734	 3.633577	 -3.644433	 1.148736	 0.134384	 -0.126652	 0.090559	 0.537425	 -0.016604	 0.838271	 1
1463623843.804	 1	 -0.555989	 3.383100	 -3.460499	 1.184134	 0.099754	 -0.134813	 0.078819	 0.553331	 -0.028061	 0.828749	 1
1463623843.814	 1	 -0.403982	 3.167506	 -3.355121	 1.216988	 0.066714	 -0.142994	 0.068107	 0.567900	 -0.039566	 0.819320	 1
1463623843.824	 1	 -0.336759	 2.923877	 -3.336658	 1.247312	 0.034102	 -0.150788	 0.057783	 0.581221	 -0.051205	 0.810075	 1
1463623843.834	 1	 -0.404691	 2.615063	 -3.414609	 1.274122	 0.000689	 -0.157500	 0.047071	 0.592970	 -0.063033	 0.801372	 1
1463623843.844	 1	 -0.446990	 2.794101	 -3.529809	 1.301332	 -0.034181	 -0.163025	 0.035759	 0.604724	 -0.075094	 0.792080	 1
1463623843.854	 1	 -0.345998	 3.025971	 -3.635106	 1.330726	 -0.070056	 -0.168444	 0.024447	 0.617097	 -0.087681	 0.781605	 1
1463623843.864	 1	 -0.131761	 3.332606	 -3.798246	 1.362664	 -0.107044	 -0.174965	 0.013556	 0.630152	 -0.101332	 0.769712	 1
1463623843.874	 1	 0.099910	 3.509257	 -3.985128	 1.396354	 -0.145645	 -0.182950	 0.003064	 0.643529	 -0.116363	 0.756519	 1
1463623843.884	 1	 0.298766	 3.727613	 -4.154284	 1.431578	 -0.185847	 -0.191985	 -0.007071	 0.657085	 -0.132620	 0.742025	 1
1463623843.894	 1	 0.427982	 3.862372	 -4.292704	 1.468024	 -0.227676	 -0.201316	 -0.017038	 0.670625	 -0.149834	 0.726307	 1
1463623843.904	 1	 0.496408	 3.904583	 -4.311025	 1.504861	 -0.270250	 -0.210009	 -0.026827	 0.683763	 -0.167377	 0.709742	 1
1463623843.914	 1	 0.615781	 3.774259	 -4.193911	 1.540761	 -0.312254	 -0.218135	 -0.036043	 0.695997	 -0.184810	 0.692917	 1
1463623843.924	 1	 0.879751	 3.383128	 -3.902502	 1.572725	 -0.352002	 -0.227289	 -0.043869	 0.706386	 -0.202001	 0.676972	 1
1463623843.934	 1	 1.189326	 2.844774	 -3.507349	 1.598416	 -0.388256	 -0.238591	 -0.049849	 0.714350	 -0.218722	 0.662857	 1
1463623843.944	 1	 1.557012	 2.398873	 -3.100117	 1.617654	 -0.420787	 -0.253182	 -0.053695	 0.720065	 -0.235122	 0.650646	 1
1463623843.954	 1	 1.909443	 2.130481	 -2.714549	 1.631748	 -0.449823	 -0.271602	 -0.055294	 0.724134	 -0.251369	 0.639833	 1
1463623843.964	 1	 2.206991	 2.057383	 -2.407683	 1.642543	 -0.475949	 -0.293600	 -0.054820	 0.727223	 -0.267551	 0.629728	 1
1463623843.974	 1	 2.438332	 2.095126	 -2.243087	 1.651668	 -0.500440	 -0.318557	 -0.052784	 0.729830	 -0.283900	 0.619647	 1
1463623843.984	 1	 2.567583	 2.067555	 -2.179457	 1.659322	 -0.524436	 -0.345502	 -0.049932	 0.731964	 -0.300466	 0.609472	 1
1463623843.994	 1	 2.511244	 1.823649	 -2.102370	 1.664383	 -0.547918	 -0.372677	 -0.047117	 0.733256	 -0.316658	 0.599869	 1
1463623844.004	 1	 2.219007	 1.504414	 -1.948261	 1.667058	 -0.569941	 -0.397513	 -0.044994	 0.733782	 -0.331411	 0.591360	 1
1463623844.024	 2	 1.315767	 0.964293	 -1.407212	 1.670202	 -0.605795	 -0.433478	 -0.043328	 0.734107	 -0.353714	 0.578010	 1
1463623844.034	 2	 0.964509	 0.685589	 -1.114728	 1.671315	 -0.618543	 -0.444687	 -0.043304	 0.734169	 -0.361083	 0.573359	 1
1463623844.044	 2	 0.766618	 0.434356	 -0.932032	 1.671135	 -0.629083	 -0.453425	 -0.043677	 0.733887	 -0.366961	 0.569949	 1
1463623844.054	 2	 0.588740	 0.317389	 -0.706696	 1.670457	 -0.637319	 -0.460282	 -0.044059	 0.733513	 -0.371528	 0.567437	 1
1463623844.064	 2	 0.433888	 0.329066	 -0.479297	 1.670563	 -0.643132	 -0.465452	 -0.044101	 0.733421	 -0.374845	 0.565367	 1
1463623844.074	 2	 0.333592	 0.386163	 -0.273267	 1.671908	 -0.646676	 -0.469418	 -0.043586	 0.733744	 -0.377119	 0.563473	 1
1463623844.084	 2	 0.341994	 0.470079	 -0.138273	 1.673962	 -0.648692	 -0.473386	 -0.042420	 0.734325	 -0.378919	 0.561595	 1
1463623844.094	 2	 0.371066	 0.660101	 -0.030181	 1.677299	 -0.649648	 -0.477865	 -0.040462	 0.735314	 -0.380546	 0.559340	 1
1463623844.114	 3	 0.301637	 1.301864	 -0.002290	 1.692743	 -0.649579	 -0.486419	 -0.034336	 0.739768	 -0.383190	 0.552024	 1
1463623844.124	 3	 0.232444	 1.812584	 -0.297480	 1.707937	 -0.652105	 -0.489147	 -0.031245	 0.743877	 -0.384996	 0.545389	 1
1463623844.144	 4	 0.158392	 2.291667	 -0.703762	 1.750143	 -0.664138	 -0.491357	 -0.026183	 0.754685	 -0.390090	 0.526872	 1
1463623844.154	 4	 0.130572	 2.316923	 -0.752309	 1.773322	 -0.671726	 -0.491266	 -0.024126	 0.760356	 -0.392847	 0.516671	 1
1463623844.164	 4	 0.118780	 2.296826	 -0.741736	 1.796712	 -0.679267	 -0.490763	 -0.022110	 0.765931	 -0.395485	 0.506411	 1
1463623844.174	 4	 0.055452	 2.204607	 -0.723925	 1.819778	 -0.686523	 -0.489526	 -0.020294	 0.771288	 -0.397844	 0.496411	 1
1463623844.184	 4	 -0.114496	 2.112877	 -0.681734	 1.843141	 -0.693065	 -0.486366	 -0.018891	 0.776601	 -0.399502	 0.486757	 1
1463623844.194	 4	 -0.310759	 2.045083	 -0.576211	 1.867239	 -0.698169	 -0.480880	 -0.017775	 0.782029	 -0.400140	 0.477497	 1
1463623844.204	 4	 -0.503680	 1.915319	 -0.361521	 1.891546	 -0.700806	 -0.473513	 -0.016602	 0.787535	 -0.399514	 0.468936	 1
1463623844.224	 4	 -0.253852	 1.296854	 0.402161	 1.929285	 -0.696051	 -0.462770	 -0.011946	 0.796542	 -0.395631	 0.457006	 1
1463623844.214	 4	 -0.575223	 1.625466	 -0.026814	 1.913495	 -0.700057	 -0.465945	 -0.014995	 0.792637	 -0.397665	 0.461913	 1
1463623844.234	 4	 0.208221	 0.961208	 0.797873	 1.936886	 -0.689866	 -0.467212	 -0.006866	 0.798754	 -0.394487	 0.454230	 1
1463623844.244	 4	 0.459449	 0.833684	 1.060939	 1.939185	 -0.681862	 -0.476907	 -0.000204	 0.799872	 -0.393847	 0.452867	 1
1463623844.254	 4	 0.473732	 0.937727	 1.040468	 1.941555	 -0.673777	 -0.487563	 0.006884	 0.800952	 -0.393379	 0.451310	 1
1463623844.264	 4	 0.403357	 1.005526	 0.974568	 1.945593	 -0.666133	 -0.497164	 0.013752	 0.802323	 -0.392801	 0.449218	 1
1463623844.274	 4	 0.327923	 0.854678	 0.969558	 1.949302	 -0.658373	 -0.505771	 0.020193	 0.803580	 -0.391935	 0.447480	 1
1463623844.284	 4	 0.314259	 0.722405	 0.910895	 1.951813	 -0.650899	 -0.513791	 0.026080	 0.804510	 -0.391033	 0.446292	 1
1463623844.294	 4	 0.370516	 0.700599	 0.860112	 1.954006	 -0.644143	 -0.521921	 0.031742	 0.805283	 -0.390402	 0.445082	 1
1463623844.304	 4	 0.461764	 0.625558	 0.815988	 1.955113	 -0.638095	 -0.530896	 0.037328	 0.805719	 -0.390220	 0.444018	 1
1463623844.314	 4	 0.526880	 0.508525	 0.690704	 1.955009	 -0.633301	 -0.540177	 0.042439	 0.805773	 -0.390571	 0.443152	 1
1463623844.324	 4	 0.560215	 0.445787	 0.559807	 1.954181	 -0.629916	 -0.549286	 0.046930	 0.805564	 -0.391400	 0.442347	 1
1463623844.334	 4	 0.517922	 0.386692	 0.460509	 1.953308	 -0.627414	 -0.557636	 0.050850	 0.805293	 -0.392377	 0.441540	 1
1463623844.344	 4	 0.424361	 0.298170	 0.388003	 1.952364	 -0.627536	 -0.564700	 0.053472	 0.804895	 -0.394003	 0.440508	 1
1463623844.354	 4	 0.285448	 0.249912	 0.130849	 1.952050	 -0.626662	 -0.569431	 0.055569	 0.804739	 -0.394743	 0.439870	 1
1463623844.364	 4	 0.110025	 0.318400	 -0.322067	 1.954574	 -0.629167	 -0.570258	 0.055671	 0.805150	 -0.395741	 0.438205	 1
1463623844.374	 4	 -0.099420	 0.423071	 -0.786073	 1.960628	 -0.635200	 -0.566635	 0.053657	 0.806272	 -0.396921	 0.435315	 1
1463623844.384	 4	 -0.387566	 0.605440	 -1.274250	 1.971604	 -0.644621	 -0.557541	 0.049443	 0.808387	 -0.398016	 0.430870	 1
1463623844.394	 4	 -0.732850	 0.879551	 -1.748286	 1.989145	 -0.657025	 -0.541941	 0.043065	 0.811778	 -0.398709	 0.424492	 1
1463623844.404	 4	 -1.072810	 1.094573	 -2.154709	 2.013440	 -0.671603	 -0.519598	 0.034701	 0.816364	 -0.398801	 0.416298	 1
1463623844.414	 4	 -1.293261	 0.966684	 -2.425751	 2.041316	 -0.687504	 -0.491685	 0.024428	 0.821331	 -0.398450	 0.407500	 1
1463623844.424	 4	 -1.344149	 0.433328	 -2.513400	 2.066800	 -0.703408	 -0.461085	 0.012597	 0.825420	 -0.397921	 0.400228	 1
1463623844.434	 4	 -1.230960	 -0.282366	 -2.451771	 2.085684	 -0.718898	 -0.430563	 -0.000372	 0.827821	 -0.397587	 0.395774	 1
1463623844.444	 4	 -0.805489	 -0.667873	 -2.346092	 2.097525	 -0.734875	 -0.403978	 -0.013194	 0.828438	 -0.398408	 0.393431	 1
1463623844.454	 4	 -0.249260	 -0.719690	 -2.226723	 2.103597	 -0.752402	 -0.383956	 -0.024792	 0.827526	 -0.401171	 0.391980	 1
1463623844.464	 4	 0.215458	 -0.266000	 -2.103985	 2.109130	 -0.771302	 -0.370194	 -0.034202	 0.826218	 -0.405727	 0.389332	 1
1463623844.474	 4	 0.576194	 0.325115	 -1.992917	 2.117037	 -0.791143	 -0.361469	 -0.041223	 0.825170	 -0.411703	 0.384571	 1
1463623844.484	 4	 0.759079	 0.740432	 -1.848899	 2.127434	 -0.811041	 -0.356162	 -0.046256	 0.824502	 -0.418450	 0.378095	 1
1463623844.494	 4	 0.761489	 0.929509	 -1.735255	 2.139493	 -0.830024	 -0.351942	 -0.050174	 0.824136	 -0.425131	 0.370873	 1
1463623844.504	 4	 0.639816	 0.891875	 -1.694047	 2.152602	 -0.847995	 -0.346608	 -0.053983	 0.823918	 -0.431290	 0.363640	 1
1463623844.514	 5	 0.338152	 0.721672	 -1.672755	 2.166912	 -0.864300	 -0.337787	 -0.058467	 0.823902	 -0.436277	 0.356972	 1
1463623844.534	 5	 -0.183652	 0.193208	 -1.569750	 2.198640	 -0.890288	 -0.307325	 -0.070198	 0.824539	 -0.441835	 0.346394	 1
1463623844.544	 5	 -0.156978	 -0.166292	 -1.412398	 2.210362	 -0.901045	 -0.291306	 -0.076681	 0.824244	 -0.443623	 0.343424	 1
1463623844.554	 5	 -0.134251	 -0.280723	 -1.196245	 2.218561	 -0.910257	 -0.277428	 -0.082665	 0.823574	 -0.445112	 0.341712	 1
1463623844.564	 5	 -0.205544	 -0.213877	 -0.954140	 2.226283	 -0.917208	 -0.264850	 -0.087680	 0.823180	 -0.445975	 0.340284	 1
1463623844.574	 5	 -0.203731	 -0.288392	 -0.686256	 2.232428	 -0.922155	 -0.254069	 -0.091841	 0.822890	 -0.446329	 0.339423	 1
1463623844.594	 5	 -0.197965	 -0.562851	 -0.250832	 2.234417	 -0.925986	 -0.240882	 -0.097661	 0.821935	 -0.445663	 0.340984	 1
1463623844.604	 6	 -0.222310	 -0.698276	 -0.308365	 2.232047	 -0.926816	 -0.235263	 -0.100679	 0.821105	 -0.444906	 0.343088	 1
1463623844.614	 6	 -0.266460	 -0.548072	 -0.586879	 2.233006	 -0.929298	 -0.226600	 -0.104562	 0.820385	 -0.444429	 0.344263	 1
1463623844.624	 6	 -0.240584	 -0.344150	 -0.763189	 2.237828	 -0.933488	 -0.215717	 -0.108861	 0.819884	 -0.444441	 0.344110	 1
1463623844.634	 6	 -0.160068	 -0.231742	 -0.776699	 2.243847	 -0.938501	 -0.205139	 -0.112933	 0.819422	 -0.444908	 0.343294	 1
1463623844.644	 6	 -0.127916	 -0.321211	 -0.635009	 2.249055	 -0.944207	 -0.195482	 -0.116940	 0.818709	 -0.445776	 0.342525	 1
1463623844.654	 6	 -0.093118	 -0.373915	 -0.408795	 2.250457	 -0.947129	 -0.189145	 -0.119837	 0.818031	 -0.445914	 0.342966	 1
1463623844.664	 6	 -0.011247	 -0.229353	 -0.387914	 2.251426	 -0.949871	 -0.184607	 -0.122051	 0.817409	 -0.446265	 0.343210	 1
1463623844.674	 6	 0.062651	 -0.097279	 -0.478984	 2.253690	 -0.953703	 -0.180271	 -0.124119	 0.816808	 -0.447157	 0.342738	 1
1463623844.684	 6	 0.108851	 -0.000919	 -0.518902	 2.255420	 -0.946616	 -0.177226	 -0.123501	 0.818254	 -0.443969	 0.343656	 1
1463623844.694	 6	 0.116647	 0.080845	 -0.534195	 2.259487	 -0.951465	 -0.173014	 -0.125326	 0.817773	 -0.445400	 0.342286	 1
1463623844.704	 6	 0.097627	 0.122370	 -0.535775	 2.264322	 -0.956254	 -0.168463	 -0.127095	 0.817397	 -0.446806	 0.340695	 1
1463623844.714	 6	 0.075523	 0.173605	 -0.521200	 2.271387	 -0.953148	 -0.162412	 -0.127360	 0.818810	 -0.445006	 0.339558	 1
1463623844.724	 6	 0.046945	 0.214187	 -0.509916	 2.277558	 -0.957408	 -0.157385	 -0.128906	 0.818710	 -0.446229	 0.337604	 1
1463623844.734	 6	 0.046883	 0.217239	 -0.529071	 2.284101	 -0.961662	 -0.152054	 -0.130480	 0.818637	 -0.447434	 0.335576	 1
1463623844.744	 6	 0.085178	 0.235884	 -0.582519	 2.290956	 -0.966408	 -0.146486	 -0.132166	 0.818484	 -0.448827	 0.333421	 1
1463623844.754	 6	 0.168469	 0.296897	 -0.642352	 2.298436	 -0.971029	 -0.140894	 -0.133682	 0.818437	 -0.450223	 0.331042	 1
1463623844.764	 6	 0.253034	 0.361444	 -0.654211	 2.306040	 -0.977336	 -0.135998	 -0.135195	 0.818095	 -0.452424	 0.328260	 1
1463623844.774	 6	 0.273547	 0.376575	 -0.612684	 2.312949	 -0.983877	 -0.132151	 -0.136459	 0.817636	 -0.454856	 0.325510	 1
1463623844.784	 6	 0.238552	 0.381298	 -0.562244	 2.319830	 -0.989735	 -0.128479	 -0.137506	 0.817299	 -0.457054	 0.322825	 1
1463623844.794	 6	 0.165856	 0.338044	 -0.542830	 2.326927	 -0.994992	 -0.124179	 -0.138628	 0.817055	 -0.458938	 0.320280	 1
1463623844.804	 6	 0.058720	 0.273271	 -0.571276	 2.334951	 -0.999651	 -0.118190	 -0.140098	 0.816945	 -0.460391	 0.317826	 1
1463623844.814	 6	 -0.037030	 0.103431	 -0.563496	 2.342763	 -1.003635	 -0.110660	 -0.142105	 0.816811	 -0.461334	 0.315905	 1
1463623844.824	 6	 -0.097562	 -0.088630	 -0.528488	 2.352737	 -1.001165	 -0.099589	 -0.143887	 0.818117	 -0.459317	 0.314658	 1
1463623844.834	 6	 -0.142014	 -0.247941	 -0.514663	 2.357789	 -1.003897	 -0.091078	 -0.146695	 0.817709	 -0.459439	 0.314243	 1
1463623844.844	 6	 -0.172206	 -0.323287	 -0.503378	 2.362207	 -1.006284	 -0.082173	 -0.149741	 0.817229	 -0.459324	 0.314222	 1
1463623844.854	 6	 -0.174389	 -0.342349	 -0.492879	 2.366314	 -1.008498	 -0.073278	 -0.152818	 0.816722	 -0.459125	 0.314349	 1
1463623844.874	 7	 -0.061048	 -0.280035	 -0.510341	 2.378196	 -1.012486	 -0.053048	 -0.159033	 0.816137	 -0.458480	 0.313727	 1
1463623844.884	 7	 0.047144	 -0.168889	 -0.540090	 2.382216	 -1.016281	 -0.045995	 -0.161625	 0.815362	 -0.459228	 0.313325	 1
1463623844.894	 7	 0.170279	 -0.043020	 -0.586885	 2.386686	 -1.021251	 -0.039848	 -0.163927	 0.814452	 -0.460636	 0.312426	 1
1463623844.904	 7	 0.272967	 0.062649	 -0.648677	 2.405960	 -1.030275	 -0.022198	 -0.168125	 0.813936	 -0.463148	 0.307793	 1
1463623844.914	 7	 0.323087	 0.134141	 -0.743301	 2.412638	 -1.037418	 -0.015817	 -0.170296	 0.812783	 -0.465627	 0.305899	 1
1463623844.934	 8	 0.303707	 0.245665	 -0.919011	 2.431307	 -1.053508	 0.001460	 -0.175403	 0.810372	 -0.471139	 0.300932	 1
1463623844.944	 8	 0.294596	 0.384724	 -0.960268	 2.443924	 -1.062052	 0.012046	 -0.177973	 0.809297	 -0.474134	 0.297593	 1
1463623844.954	 8	 0.278105	 0.508152	 -0.960041	 2.458924	 -1.070365	 0.023688	 -0.180307	 0.808472	 -0.477132	 0.293611	 1
1463623844.964	 8	 0.289212	 0.555308	 -0.906411	 2.474486	 -1.078331	 0.035103	 -0.182300	 0.807766	 -0.480117	 0.289427	 1
1463623844.974	 8	 0.392669	 0.420978	 -0.761487	 2.486941	 -1.086127	 0.043970	 -0.183926	 0.806826	 -0.483155	 0.285946	 1
1463623844.984	 8	 0.457423	 0.435809	 -0.596718	 2.495191	 -1.093548	 0.048664	 -0.184790	 0.805721	 -0.486268	 0.283213	 1
1463623844.994	 8	 0.454411	 0.572020	 -0.441954	 2.502701	 -1.100077	 0.051092	 -0.184776	 0.804919	 -0.489275	 0.280310	 1
1463623845.004	 8	 0.469429	 0.691103	 -0.294968	 2.509159	 -1.105778	 0.050881	 -0.183829	 0.804401	 -0.492217	 0.277252	 1
1463623845.014	 8	 0.495716	 0.741814	 -0.184951	 2.514033	 -1.110963	 0.048173	 -0.182187	 0.804007	 -0.495142	 0.274253	 1
1463623845.024	 8	 0.494816	 0.736846	 -0.137030	 2.517965	 -1.115849	 0.044275	 -0.180254	 0.803654	 -0.498012	 0.271353	 1
1463623845.034	 8	 0.487512	 0.742442	 -0.101744	 2.521335	 -1.120466	 0.039811	 -0.178193	 0.803331	 -0.500787	 0.268549	 1
1463623845.044	 8	 0.460920	 0.733188	 -0.068560	 2.524287	 -1.124680	 0.034914	 -0.176009	 0.803080	 -0.503408	 0.265825	 1
1463623845.054	 8	 0.409583	 0.677245	 -0.030266	 2.526798	 -1.128372	 0.029997	 -0.173859	 0.802896	 -0.505770	 0.263302	 1
1463623845.064	 8	 0.340101	 0.593933	 0.039904	 2.528243	 -1.131170	 0.024796	 -0.171752	 0.802816	 -0.507707	 0.261193	 1
1463623845.074	 8	 0.276922	 0.503040	 0.093962	 2.528450	 -1.133079	 0.019218	 -0.169698	 0.802828	 -0.509220	 0.259546	 1
1463623845.084	 8	 0.214497	 0.398915	 0.083934	 2.528537	 -1.135693	 0.014567	 -0.168137	 0.802560	 -0.510882	 0.258122	 1
1463623845.094	 8	 0.161554	 0.299818	 0.037645	 2.528744	 -1.136824	 0.011226	 -0.166885	 0.802576	 -0.511785	 0.257096	 1
1463623845.104	 8	 0.115087	 0.213490	 -0.005384	 2.529410	 -1.137831	 0.009402	 -0.166109	 0.802554	 -0.512479	 0.256282	 1
1463623845.114	 8	 0.084816	 0.158037	 -0.037609	 2.530529	 -1.138742	 0.008754	 -0.165676	 0.802516	 -0.513021	 0.255594	 1
1463623845.124	 8	 0.080304	 0.118575	 -0.053956	 2.532657	 -1.143243	 0.009526	 -0.166003	 0.801562	 -0.514907	 0.254583	 1
1463623845.134	 8	 0.080301	 0.125952	 -0.063479	 2.533978	 -1.144251	 0.009653	 -0.165839	 0.801458	 -0.515406	 0.254006	 1
1463623845.144	 8	 0.082540	 0.151442	 -0.067524	 2.535588	 -1.145300	 0.009833	 -0.165627	 0.801376	 -0.515938	 0.253325	 1
1463623845.154	 8	 0.080449	 0.157854	 -0.064249	 2.537334	 -1.146341	 0.010030	 -0.165383	 0.801310	 -0.516475	 0.252594	 1
1463623845.174	 9	 0.074208	 0.152861	 -0.019467	 2.535258	 -1.148462	 0.005165	 -0.164235	 0.800899	 -0.517768	 0.251999	 1
1463623845.184	 9	 0.067913	 0.148857	 0.012523	 2.535816	 -1.149013	 0.004130	 -0.163745	 0.800911	 -0.518166	 0.251463	 1
1463623845.194	 9	 0.058405	 0.141679	 0.045578	 2.535786	 -1.149297	 0.002533	 -0.163148	 0.800964	 -0.518477	 0.251039	 1
1463623845.204	 9	 0.053102	 0.129071	 0.066829	 2.531569	 -1.150038	 -0.002855	 -0.162178	 0.800681	 -0.519108	 0.251269	 1
1463623845.214	 9	 0.043498	 0.121701	 0.074298	 2.529666	 -1.151116	 -0.006068	 -0.161523	 0.800422	 -0.519788	 0.251107	 1
1463623845.224	 9	 0.037107	 0.118581	 0.080702	 2.530850	 -1.152188	 -0.006428	 -0.161207	 0.800322	 -0.520358	 0.250451	 1
1463623845.234	 9	 0.030738	 0.121842	 0.086092	 2.533982	 -1.153268	 -0.005028	 -0.161088	 0.800320	 -0.520867	 0.249472	 1
1463623845.244	 9	 0.027518	 0.118679	 0.086059	 2.538507	 -1.154500	 -0.002336	 -0.161141	 0.800346	 -0.521389	 0.248262	 1
1463623845.254	 9	 0.025308	 0.110143	 0.078502	 2.544147	 -1.155834	 0.001458	 -0.161354	 0.800390	 -0.521907	 0.246887	 1
1463623845.264	 9	 0.020913	 0.089919	 0.071924	 2.549223	 -1.156968	 0.004934	 -0.161558	 0.800438	 -0.522343	 0.245673	 1
1463623845.274	 9	 0.013265	 0.059067	 0.065282	 2.553773	 -1.157656	 0.008230	 -0.161772	 0.800549	 -0.522583	 0.244659	 1
1463623845.284	 9	 0.004545	 0.026093	 0.059702	 2.556685	 -1.158044	 0.010367	 -0.161913	 0.800630	 -0.522713	 0.244022	 1
1463623845.294	 9	 -0.008417	 -0.002610	 0.055272	 2.558149	 -1.158067	 0.011495	 -0.161985	 0.800711	 -0.522703	 0.243729	 1
1463623845.304	 9	 -0.017051	 -0.019620	 0.051985	 2.558840	 -1.157710	 0.012129	 -0.162016	 0.800838	 -0.522539	 0.243645	 1
1463623845.314	 9	 -0.022442	 -0.028133	 0.048753	 2.558779	 -1.157149	 0.012196	 -0.161992	 0.800972	 -0.522301	 0.243729	 1
1463623845.324	 9	 -0.023512	 -0.026026	 0.045584	 2.557922	 -1.156696	 0.011550	 -0.161903	 0.801039	 -0.522128	 0.243938	 1
1463623845.334	 9	 -0.019187	 -0.013282	 0.044600	 2.557166	 -1.156282	 0.010904	 -0.161792	 0.801108	 -0.521979	 0.244104	 1
1463623845.344	 9	 -0.017017	 -0.000571	 0.038304	 2.556578	 -1.155912	 0.010309	 -0.161663	 0.801181	 -0.521856	 0.244213	 1
1463623845.354	 9	 -0.011614	 0.019566	 0.030987	 2.555593	 -1.155619	 0.009187	 -0.161436	 0.801228	 -0.521796	 0.244337	 1
1463623845.364	 9	 -0.004119	 0.036462	 0.017224	 2.555599	 -1.155451	 0.008840	 -0.161275	 0.801301	 -0.521771	 0.244257	 1
1463623845.374	 9	 0.004461	 0.053385	 0.007715	 2.555879	 -1.155423	 0.008609	 -0.161106	 0.801361	 -0.521811	 0.244087	 1
1463623845.384	 9	 0.013034	 0.066073	 0.001370	 2.555294	 -1.155350	 0.007465	 -0.160792	 0.801401	 -0.521874	 0.244029	 1
1463623845.394	 9	 0.018400	 0.072439	 0.001382	 2.555781	 -1.155486	 0.007218	 -0.160582	 0.801445	 -0.521998	 0.243758	 1
1463623845.404	 9	 0.019467	 0.072433	 0.001382	 2.555205	 -1.155239	 0.005984	 -0.160208	 0.801538	 -0.522003	 0.243686	 1
1463623845.414	 9	 0.016249	 0.068193	 0.002444	 2.554892	 -1.154928	 0.005018	 -0.159865	 0.801659	 -0.521971	 0.243584	 1
1463623845.424	 9	 0.013013	 0.060764	 0.003475	 2.554963	 -1.154522	 0.004462	 -0.159575	 0.801818	 -0.521881	 0.243442	 1
1463623845.434	 9	 0.009769	 0.052263	 0.003431	 2.554858	 -1.154122	 0.003826	 -0.159299	 0.801960	 -0.521790	 0.243350	 1
1463623845.444	 9	 0.004400	 0.044839	 0.004480	 2.554741	 -1.153784	 0.003273	 -0.159067	 0.802078	 -0.521712	 0.243278	 1
1463623845.454	 9	 -0.002047	 0.034236	 0.006576	 2.554542	 -1.153330	 0.002738	 -0.158849	 0.802215	 -0.521579	 0.243254	 1
1463623845.464	 9	 -0.009588	 0.020421	 0.005455	 2.554127	 -1.152838	 0.002133	 -0.158655	 0.802341	 -0.521422	 0.243301	 1
1463623845.474	 9	 -0.016049	 0.006625	 0.007521	 2.553604	 -1.152357	 0.001565	 -0.158506	 0.802448	 -0.521257	 0.243401	 1
1463623845.494	 10	 -0.025752	 -0.015673	 0.009542	 2.552338	 -1.151338	 0.000598	 -0.158323	 0.802636	 -0.520866	 0.243737	 1
1463623845.504	 10	 -0.026838	 -0.017814	 0.007403	 2.552005	 -1.150948	 0.000483	 -0.158317	 0.802706	 -0.520696	 0.243872	 1
1463623845.524	 11	 -0.022605	 -0.018947	 -0.000099	 2.551497	 -1.150251	 0.000479	 -0.158362	 0.802826	 -0.520377	 0.244130	 1
1463623845.534	 11	 -0.018341	 -0.017913	 -0.002254	 2.551217	 -1.149913	 0.000437	 -0.158377	 0.802883	 -0.520224	 0.244258	 1
1463623845.544	 11	 -0.018350	 -0.018987	 -0.003323	 2.550555	 -1.149558	 0.000056	 -0.158353	 0.802925	 -0.520076	 0.244453	 1
1463623845.554	 11	 -0.017265	 -0.017907	 -0.000118	 2.549815	 -1.149176	 -0.000412	 -0.158311	 0.802971	 -0.519921	 0.244658	 1
1463623845.564	 11	 -0.019416	 -0.023207	 0.001992	 2.548778	 -1.148731	 -0.001121	 -0.158241	 0.803015	 -0.519747	 0.244926	 1
1463623845.574	 11	 -0.021531	 -0.028441	 0.004124	 2.547733	 -1.148366	 -0.001796	 -0.158196	 0.803036	 -0.519601	 0.245199	 1
1463623845.584	 11	 -0.019386	 -0.027379	 0.005186	 2.546628	 -1.148003	 -0.002523	 -0.158147	 0.803052	 -0.519457	 0.245483	 1
1463623845.594	 11	 -0.016159	 -0.017857	 -0.000078	 2.545714	 -1.147789	 -0.003143	 -0.158109	 0.803044	 -0.519375	 0.245706	 1
1463623845.604	 11	 -0.010763	 -0.013551	 0.009509	 2.545022	 -1.147644	 -0.003639	 -0.158072	 0.803036	 -0.519323	 0.245867	 1
1463623845.614	 11	 -0.004321	 -0.008230	 0.012702	 2.544237	 -1.147558	 -0.004293	 -0.158002	 0.803013	 -0.519307	 0.246019	 1
1463623845.624	 11	 0.002130	 0.003434	 0.010624	 2.543635	 -1.147501	 -0.004894	 -0.157910	 0.803001	 -0.519310	 0.246110	 1
1463623845.634	 11	 0.009650	 0.014048	 0.010660	 2.543101	 -1.147410	 -0.005545	 -0.157776	 0.803010	 -0.519312	 0.246162	 1
1463623845.644	 11	 0.006465	 0.018303	 0.009664	 2.542639	 -1.147308	 -0.006177	 -0.157630	 0.803030	 -0.519312	 0.246192	 1
1463623845.654	 11	 0.010733	 0.018289	 0.009629	 2.542146	 -1.147189	 -0.006856	 -0.157470	 0.803054	 -0.519309	 0.246223	 1
1463623845.664	 11	 0.012874	 0.021456	 0.007512	 2.541499	 -1.147103	 -0.007683	 -0.157295	 0.803061	 -0.519326	 0.246275	 1
1463623845.674	 11	 0.009683	 0.019375	 0.012854	 2.540755	 -1.146912	 -0.008607	 -0.157094	 0.803092	 -0.519305	 0.246350	 1
1463623845.684	 11	 0.007553	 0.019388	 0.013942	 2.540113	 -1.146690	 -0.009435	 -0.156900	 0.803135	 -0.519267	 0.246411	 1
1463623845.704	 12	 0.007581	 0.025767	 0.014010	 2.538899	 -1.146177	 -0.011073	 -0.156492	 0.803246	 -0.519168	 0.246515	 1
1463623845.714	 12	 0.005459	 0.031067	 0.010885	 2.538475	 -1.145961	 -0.011786	 -0.156289	 0.803305	 -0.519137	 0.246518	 1
1463623845.724	 12	 0.006547	 0.038486	 0.007750	 2.538347	 -1.145720	 -0.012277	 -0.156095	 0.803390	 -0.519090	 0.246462	 1
1463623845.734	 12	 0.008691	 0.041662	 0.006698	 2.538352	 -1.145546	 -0.012686	 -0.155907	 0.803468	 -0.519072	 0.246369	 1
1463623845.744	 12	 0.006584	 0.045938	 0.008891	 2.538300	 -1.145372	 -0.013195	 -0.155694	 0.803546	 -0.519060	 0.246272	 1
1463623845.764	 13	 0.004423	 0.039568	 0.009922	 2.538034	 -1.145131	 -0.014302	 -0.155288	 0.803661	 -0.519079	 0.246112	 1
1463623845.774	 13	 0.003341	 0.036379	 0.009904	 2.537887	 -1.145030	 -0.014810	 -0.155109	 0.803709	 -0.519090	 0.246047	 1
1463623845.784	 13	 0.003344	 0.035329	 0.012028	 2.537669	 -1.144875	 -0.015383	 -0.154916	 0.803766	 -0.519082	 0.245999	 1
1463623845.794	 13	 0.007602	 0.032132	 0.013029	 2.537324	 -1.144832	 -0.016054	 -0.154730	 0.803787	 -0.519120	 0.245967	 1
1463623845.804	 13	 0.009732	 0.030005	 0.014058	 2.536921	 -1.144857	 -0.016770	 -0.154550	 0.803786	 -0.519187	 0.245941	 1
1463623845.814	 13	 0.012939	 0.031058	 0.014042	 2.536481	 -1.144824	 -0.017536	 -0.154352	 0.803800	 -0.519234	 0.245922	 1
1463623845.824	 13	 0.014036	 0.036379	 0.015149	 2.536047	 -1.144846	 -0.018328	 -0.154149	 0.803802	 -0.519307	 0.245889	 1
1463623845.834	 13	 0.017243	 0.037432	 0.015133	 2.535669	 -1.144866	 -0.019099	 -0.153940	 0.803809	 -0.519380	 0.245839	 1
1463623845.844	 13	 0.020487	 0.045931	 0.015185	 2.535366	 -1.144996	 -0.019882	 -0.153721	 0.803799	 -0.519505	 0.245746	 1
1463623845.854	 13	 0.022637	 0.049115	 0.015196	 2.535109	 -1.145137	 -0.020662	 -0.153492	 0.803791	 -0.519638	 0.245635	 1
1463623845.864	 13	 0.024797	 0.054427	 0.015227	 2.534960	 -1.145287	 -0.021394	 -0.153256	 0.803790	 -0.519776	 0.245492	 1
1463623845.874	 13	 0.028010	 0.057600	 0.014162	 2.534998	 -1.145478	 -0.021987	 -0.153032	 0.803791	 -0.519928	 0.245306	 1
1463623845.884	 13	 0.029088	 0.060781	 0.013115	 2.535107	 -1.145686	 -0.022551	 -0.152804	 0.803794	 -0.520089	 0.245098	 1
1463623845.894	 13	 0.029074	 0.059703	 0.010972	 2.535369	 -1.145860	 -0.022963	 -0.152592	 0.803813	 -0.520229	 0.244870	 1
1463623845.904	 13	 0.025847	 0.055450	 0.009894	 2.535545	 -1.146044	 -0.023414	 -0.152389	 0.803822	 -0.520371	 0.244667	 1
1463623845.914	 13	 0.025792	 0.044806	 0.008729	 2.535642	 -1.146178	 -0.023850	 -0.152206	 0.803832	 -0.520486	 0.244503	 1
1463623845.924	 13	 0.025757	 0.038417	 0.007604	 2.535622	 -1.146354	 -0.024323	 -0.152044	 0.803820	 -0.520612	 0.244373	 1
1463623845.944	 14	 0.025745	 0.038394	 0.004405	 2.535607	 -1.146807	 -0.025179	 -0.151762	 0.803767	 -0.520897	 0.244117	 1
1463623845.954	 14	 0.027886	 0.042619	 0.001229	 2.535601	 -1.146982	 -0.025633	 -0.151603	 0.803756	 -0.521022	 0.243986	 1
1463623845.964	 14	 0.027910	 0.046881	 0.002335	 2.535578	 -1.147155	 -0.026144	 -0.151426	 0.803747	 -0.521152	 0.243848	 1
1463623845.974	 14	 0.029002	 0.052195	 0.002377	 2.535600	 -1.147296	 -0.026660	 -0.151231	 0.803753	 -0.521272	 0.243692	 1
1463623845.984	 14	 0.027942	 0.053270	 0.003463	 2.535702	 -1.147377	 -0.027133	 -0.151025	 0.803780	 -0.521370	 0.243520	 1
1463623846.004	 15	 0.018334	 0.052243	 0.004606	 2.536037	 -1.147440	 -0.027943	 -0.150620	 0.803866	 -0.521519	 0.243169	 1
1463623846.014	 15	 0.011929	 0.051206	 0.005719	 2.536337	 -1.147430	 -0.028195	 -0.150439	 0.803924	 -0.521569	 0.242984	 1
1463623846.024	 15	 0.009777	 0.045909	 0.007821	 2.536495	 -1.147391	 -0.028539	 -0.150255	 0.803979	 -0.521607	 0.242834	 1
1463623846.034	 15	 0.009758	 0.040607	 0.009904	 2.536700	 -1.147303	 -0.028788	 -0.150090	 0.804045	 -0.521617	 0.242694	 1
1463623846.044	 15	 0.009720	 0.032105	 0.010892	 2.536746	 -1.147204	 -0.029122	 -0.149931	 0.804101	 -0.521621	 0.242597	 1
1463623846.054	 15	 0.007548	 0.023610	 0.011899	 2.536732	 -1.147116	 -0.029430	 -0.149799	 0.804145	 -0.521622	 0.242530	 1
1463623846.064	 15	 0.006439	 0.015104	 0.011829	 2.536663	 -1.147068	 -0.029702	 -0.149702	 0.804169	 -0.521631	 0.242491	 1
1463623846.074	 15	 0.003198	 0.007660	 0.010723	 2.536561	 -1.146994	 -0.029923	 -0.149630	 0.804193	 -0.521621	 0.242481	 1
1463623846.084	 15	 0.005323	 0.007639	 0.008572	 2.536473	 -1.147002	 -0.030112	 -0.149578	 0.804194	 -0.521640	 0.242466	 1
1463623846.094	 15	 0.006420	 0.012962	 0.009678	 2.536358	 -1.146974	 -0.030367	 -0.149502	 0.804206	 -0.521651	 0.242448	 1
1463623846.104	 15	 0.008585	 0.019337	 0.009719	 2.536188	 -1.146998	 -0.030735	 -0.149402	 0.804207	 -0.521693	 0.242419	 1
1463623846.114	 15	 0.012884	 0.025706	 0.009740	 2.536068	 -1.147053	 -0.031132	 -0.149280	 0.804208	 -0.521754	 0.242359	 1
1463623846.124	 15	 0.015027	 0.026771	 0.010797	 2.536045	 -1.147098	 -0.031466	 -0.149158	 0.804219	 -0.521811	 0.242277	 1
1463623846.134	 15	 0.015012	 0.023581	 0.010766	 2.535994	 -1.147218	 -0.031804	 -0.149051	 0.804207	 -0.521896	 0.242199	 1
1463623846.144	 15	 0.018205	 0.022500	 0.009661	 2.535863	 -1.147380	 -0.032202	 -0.148946	 0.804179	 -0.521999	 0.242134	 1
1463623846.154	 15	 0.019255	 0.021410	 0.006443	 2.535769	 -1.147559	 -0.032558	 -0.148850	 0.804148	 -0.522107	 0.242062	 1
1463623846.164	 15	 0.020325	 0.023519	 0.004320	 2.535819	 -1.147794	 -0.032796	 -0.148772	 0.804111	 -0.522233	 0.241960	 1
1463623846.174	 15	 0.023543	 0.026700	 0.004320	 2.535763	 -1.148066	 -0.033151	 -0.148679	 0.804061	 -0.522381	 0.241866	 1
1463623846.184	 15	 0.023549	 0.027764	 0.004329	 2.535655	 -1.148294	 -0.033573	 -0.148567	 0.804021	 -0.522514	 0.241779	 1
1463623846.194	 15	 0.023564	 0.029899	 0.005414	 2.535549	 -1.148471	 -0.034006	 -0.148444	 0.803994	 -0.522630	 0.241693	 1
1463623846.204	 15	 0.020358	 0.028845	 0.005431	 2.535525	 -1.148674	 -0.034364	 -0.148332	 0.803966	 -0.522752	 0.241591	 1
1463623846.214	 15	 0.019292	 0.029904	 0.004384	 2.535477	 -1.148863	 -0.034742	 -0.148218	 0.803940	 -0.522869	 0.241495	 1
1463623846.224	 15	 0.016072	 0.026715	 0.003315	 2.535583	 -1.149043	 -0.034940	 -0.148134	 0.803921	 -0.522973	 0.241385	 1
1463623846.234	 15	 0.013948	 0.028849	 0.003353	 2.535680	 -1.149162	 -0.035151	 -0.148039	 0.803918	 -0.523053	 0.241280	 1
1463623846.244	 15	 0.013934	 0.026715	 0.002265	 2.535859	 -1.149329	 -0.035284	 -0.147960	 0.803906	 -0.523149	 0.241159	 1
1463623846.254	 15	 0.011803	 0.026730	 0.003348	 2.536113	 -1.149431	 -0.035339	 -0.147885	 0.803915	 -0.523215	 0.241033	 1
1463623846.264	 15	 0.009634	 0.021403	 0.001185	 2.536338	 -1.149516	 -0.035363	 -0.147827	 0.803922	 -0.523269	 0.240929	 1
1463623846.274	 15	 0.007473	 0.015035	 0.002209	 2.536454	 -1.149597	 -0.035436	 -0.147778	 0.803920	 -0.523319	 0.240856	 1
1463623846.284	 15	 0.003189	 0.011858	 0.002216	 2.536593	 -1.149602	 -0.035437	 -0.147742	 0.803936	 -0.523331	 0.240799	 1
1463623846.294	 15	 0.001028	 0.005490	 0.003241	 2.536647	 -1.149584	 -0.035460	 -0.147716	 0.803949	 -0.523330	 0.240773	 1
1463623846.304	 15	 -0.001122	 0.002305	 0.003231	 2.536654	 -1.149549	 -0.035485	 -0.147700	 0.803960	 -0.523320	 0.240767	 1
1463623846.314	 15	 0.001007	 0.001235	 0.003202	 2.536668	 -1.149533	 -0.035493	 -0.147691	 0.803967	 -0.523316	 0.240761	 1
1463623846.324	 15	 0.002089	 0.003367	 0.004279	 2.536505	 -1.149523	 -0.035692	 -0.147652	 0.803964	 -0.523323	 0.240775	 1
1463623846.334	 15	 0.004262	 0.008701	 0.007508	 2.536261	 -1.149528	 -0.036010	 -0.147589	 0.803957	 -0.523346	 0.240790	 1
1463623846.344	 15	 0.006425	 0.014020	 0.008605	 2.536096	 -1.149483	 -0.036311	 -0.147505	 0.803971	 -0.523352	 0.240781	 1
1463623846.354	 15	 0.007522	 0.019343	 0.009712	 2.535877	 -1.149491	 -0.036728	 -0.147396	 0.803973	 -0.523389	 0.240760	 1
1463623846.364	 15	 0.010743	 0.021475	 0.011836	 2.535584	 -1.149503	 -0.037254	 -0.147263	 0.803974	 -0.523436	 0.240738	 1
1463623846.374	 15	 0.012888	 0.024652	 0.010782	 2.535421	 -1.149532	 -0.037688	 -0.147135	 0.803979	 -0.523488	 0.240688	 1
1463623846.384	 15	 0.015027	 0.024653	 0.011830	 2.535230	 -1.149571	 -0.038162	 -0.147000	 0.803980	 -0.523546	 0.240637	 1
1463623846.394	 15	 0.015011	 0.021462	 0.011800	 2.535022	 -1.149615	 -0.038631	 -0.146871	 0.803979	 -0.523605	 0.240594	 1
1463623846.404	 15	 0.013940	 0.021457	 0.010744	 2.534861	 -1.149655	 -0.039043	 -0.146753	 0.803979	 -0.523658	 0.240547	 1
1463623846.414	 15	 0.012877	 0.022524	 0.010762	 2.534842	 -1.149709	 -0.039329	 -0.146650	 0.803984	 -0.523713	 0.240475	 1
1463623846.424	 15	 0.010743	 0.023587	 0.009724	 2.534861	 -1.149774	 -0.039582	 -0.146552	 0.803988	 -0.523771	 0.240396	 1
1463623846.434	 15	 0.010744	 0.023587	 0.009723	 2.534756	 -1.149867	 -0.039950	 -0.146443	 0.803979	 -0.523844	 0.240333	 1
1463623846.444	 15	 0.008618	 0.026769	 0.007639	 2.534708	 -1.149976	 -0.040283	 -0.146336	 0.803969	 -0.523924	 0.240255	 1
1463623846.454	 15	 0.008635	 0.028903	 0.008724	 2.534607	 -1.150092	 -0.040675	 -0.146220	 0.803956	 -0.524010	 0.240183	 1
1463623846.464	 15	 0.008649	 0.032086	 0.007688	 2.534491	 -1.150234	 -0.041111	 -0.146094	 0.803937	 -0.524111	 0.240103	 1
1463623846.474	 15	 0.006508	 0.032076	 0.005575	 2.534513	 -1.150309	 -0.041415	 -0.145976	 0.803943	 -0.524179	 0.240007	 1
1463623846.484	 15	 0.005437	 0.032071	 0.004518	 2.534622	 -1.150362	 -0.041638	 -0.145864	 0.803959	 -0.524235	 0.239900	 1
1463623846.494	 15	 0.006494	 0.029941	 0.004489	 2.534760	 -1.150380	 -0.041824	 -0.145756	 0.803984	 -0.524274	 0.239795	 1
1463623846.504	 15	 0.005431	 0.031007	 0.004509	 2.534941	 -1.150365	 -0.041970	 -0.145648	 0.804020	 -0.524299	 0.239685	 1
1463623846.514	 15	 0.006493	 0.029940	 0.004491	 2.535005	 -1.150343	 -0.042219	 -0.145528	 0.804052	 -0.524324	 0.239596	 1
1463623846.524	 15	 0.007564	 0.029944	 0.005549	 2.534964	 -1.150341	 -0.042572	 -0.145397	 0.804073	 -0.524363	 0.239520	 1
1463623846.534	 15	 0.007563	 0.028887	 0.006607	 2.534931	 -1.150309	 -0.042902	 -0.145268	 0.804101	 -0.524387	 0.239449	 1
1463623846.544	 15	 0.009695	 0.027824	 0.007647	 2.534818	 -1.150257	 -0.043315	 -0.145125	 0.804131	 -0.524408	 0.239391	 1
1463623846.554	 15	 0.010783	 0.027859	 0.012968	 2.534570	 -1.150221	 -0.043861	 -0.144966	 0.804150	 -0.524441	 0.239351	 1
1463623846.564	 15	 0.011847	 0.024687	 0.016130	 2.534225	 -1.150124	 -0.044488	 -0.144792	 0.804179	 -0.524452	 0.239334	 1
1463623846.574	 15	 0.012951	 0.024787	 0.018252	 2.533867	 -1.150011	 -0.045131	 -0.144612	 0.804212	 -0.524458	 0.239320	 1
1463623846.584	 15	 0.008677	 0.024792	 0.017224	 2.533718	 -1.149923	 -0.045581	 -0.144459	 0.804249	 -0.524466	 0.239269	 1
1463623846.594	 15	 0.009749	 0.026908	 0.016169	 2.533615	 -1.149915	 -0.045989	 -0.144321	 0.804268	 -0.524505	 0.239205	 1
1463623846.604	 15	 0.007641	 0.033289	 0.015181	 2.533501	 -1.149874	 -0.046452	 -0.144159	 0.804299	 -0.524536	 0.239133	 1
1463623846.614	 15	 0.007661	 0.038599	 0.014165	 2.533512	 -1.149815	 -0.046842	 -0.143992	 0.804343	 -0.524559	 0.239031	 1
1463623846.624	 15	 0.007671	 0.039670	 0.015242	 2.533391	 -1.149768	 -0.047382	 -0.143800	 0.804380	 -0.524596	 0.238943	 1
1463623846.634	 15	 0.005521	 0.036486	 0.015230	 2.533504	 -1.149732	 -0.047681	 -0.143645	 0.804424	 -0.524626	 0.238822	 1
1463623846.644	 15	 0.006553	 0.029037	 0.015151	 2.533533	 -1.149741	 -0.047997	 -0.143511	 0.804448	 -0.524669	 0.238727	 1
1463623846.654	 15	 0.008668	 0.025833	 0.014035	 2.533621	 -1.149813	 -0.048226	 -0.143406	 0.804456	 -0.524732	 0.238625	 1
1463623846.664	 15	 0.008664	 0.024769	 0.014023	 2.533600	 -1.149910	 -0.048540	 -0.143298	 0.804451	 -0.524806	 0.238542	 1
1463623846.674	 15	 0.007590	 0.024758	 0.011898	 2.533734	 -1.150022	 -0.048701	 -0.143213	 0.804450	 -0.524880	 0.238436	 1
1463623846.684	 15	 0.004391	 0.025823	 0.010868	 2.533770	 -1.150133	 -0.048947	 -0.143119	 0.804444	 -0.524956	 0.238347	 1
1463623846.694	 15	 0.002243	 0.023695	 0.009800	 2.533848	 -1.150184	 -0.049136	 -0.143029	 0.804453	 -0.525004	 0.238261	 1
1463623846.704	 15	 0.001144	 0.019420	 0.006571	 2.534015	 -1.150256	 -0.049206	 -0.142967	 0.804460	 -0.525053	 0.238169	 1
1463623846.714	 15	 -0.000999	 0.016244	 0.007624	 2.534084	 -1.150330	 -0.049324	 -0.142911	 0.804457	 -0.525102	 0.238103	 1
1463623846.724	 15	 -0.003161	 0.011980	 0.005470	 2.534198	 -1.150384	 -0.049356	 -0.142875	 0.804459	 -0.525135	 0.238044	 1
1463623846.734	 15	 -0.004275	 0.004514	 0.002212	 2.534298	 -1.150417	 -0.049319	 -0.142868	 0.804460	 -0.525151	 0.238010	 1
1463623846.744	 15	 -0.007512	 -0.001866	 0.001115	 2.534387	 -1.150329	 -0.049218	 -0.142874	 0.804486	 -0.525110	 0.238009	 1
1463623846.754	 15	 -0.006465	 -0.006124	 0.001068	 2.534267	 -1.150212	 -0.049265	 -0.142871	 0.804505	 -0.525060	 0.238056	 1
1463623846.764	 15	 -0.008609	 -0.007190	 0.000013	 2.534120	 -1.150072	 -0.049321	 -0.142868	 0.804528	 -0.525001	 0.238113	 1
1463623846.774	 15	 -0.008604	 -0.010343	 0.005314	 2.533852	 -1.149904	 -0.049474	 -0.142855	 0.804550	 -0.524933	 0.238196	 1
1463623846.784	 15	 -0.009690	 -0.013539	 0.004230	 2.533622	 -1.149755	 -0.049564	 -0.142860	 0.804567	 -0.524868	 0.238279	 1
1463623846.794	 15	 -0.009691	 -0.014595	 0.005287	 2.533364	 -1.149644	 -0.049666	 -0.142872	 0.804572	 -0.524818	 0.238366	 1
1463623846.804	 15	 -0.008623	 -0.015655	 0.006334	 2.533010	 -1.149581	 -0.049846	 -0.142884	 0.804559	 -0.524789	 0.238467	 1
1463623846.814	 15	 -0.006481	 -0.013543	 0.005269	 2.532685	 -1.149572	 -0.050013	 -0.142901	 0.804534	 -0.524782	 0.238555	 1
1463623846.824	 15	 -0.004314	 -0.006111	 0.004253	 2.532537	 -1.149563	 -0.050076	 -0.142913	 0.804523	 -0.524775	 0.238598	 1
1463623846.834	 15	 -0.003221	 -0.000796	 0.004293	 2.532420	 -1.149523	 -0.050174	 -0.142899	 0.804527	 -0.524763	 0.238623	 1
1463623846.844	 15	 -0.002144	 0.001327	 0.004304	 2.532317	 -1.149469	 -0.050285	 -0.142874	 0.804536	 -0.524747	 0.238640	 1
1463623846.854	 15	 -0.002145	 0.001327	 0.004305	 2.532302	 -1.149358	 -0.050326	 -0.142847	 0.804566	 -0.524707	 0.238646	 1
1463623846.864	 15	 -0.001079	 0.001324	 0.004295	 2.532357	 -1.149282	 -0.050300	 -0.142833	 0.804590	 -0.524677	 0.238637	 1
1463623846.874	 15	 -0.002157	 -0.000800	 0.004285	 2.532336	 -1.149216	 -0.050326	 -0.142819	 0.804606	 -0.524653	 0.238645	 1
1463623846.884	 15	 -0.004297	 -0.000801	 0.003238	 2.532432	 -1.149125	 -0.050233	 -0.142820	 0.804634	 -0.524612	 0.238639	 1
1463623846.894	 15	 -0.007514	 -0.002926	 0.002180	 2.532550	 -1.149001	 -0.050093	 -0.142829	 0.804670	 -0.524554	 0.238640	 1
1463623846.904	 15	 -0.009656	 -0.005039	 0.003246	 2.532611	 -1.148845	 -0.049986	 -0.142835	 0.804710	 -0.524484	 0.238658	 1
1463623846.914	 15	 -0.010739	 -0.008227	 0.003226	 2.532647	 -1.148693	 -0.049882	 -0.142847	 0.804745	 -0.524413	 0.238684	 1
1463623846.924	 15	 -0.010745	 -0.009290	 0.003216	 2.532670	 -1.148539	 -0.049761	 -0.142869	 0.804779	 -0.524339	 0.238721	 1
1463623846.934	 15	 -0.010751	 -0.010354	 0.003206	 2.532712	 -1.148428	 -0.049612	 -0.142904	 0.804801	 -0.524280	 0.238753	 1
1463623846.944	 15	 -0.009684	 -0.010357	 0.003197	 2.532672	 -1.148306	 -0.049549	 -0.142924	 0.804823	 -0.524221	 0.238797	 1
1463623846.954	 15	 -0.009676	 -0.010341	 0.005328	 2.532645	 -1.148178	 -0.049477	 -0.142943	 0.804848	 -0.524160	 0.238839	 1
1463623846.964	 15	 -0.006459	 -0.007160	 0.005331	 2.532429	 -1.148084	 -0.049602	 -0.142936	 0.804855	 -0.524122	 0.238901	 1
1463623846.974	 15	 -0.005382	 -0.005037	 0.005342	 2.532284	 -1.147975	 -0.049686	 -0.142926	 0.804872	 -0.524078	 0.238947	 1
1463623846.984	 15	 -0.002151	 0.000279	 0.006431	 2.531967	 -1.147882	 -0.049980	 -0.142879	 0.804879	 -0.524054	 0.239006	 1
1463623846.994	 15	 -0.003217	 0.001337	 0.005386	 2.531718	 -1.147799	 -0.050223	 -0.142835	 0.804887	 -0.524032	 0.239051	 1
1463623847.004	 15	 -0.001072	 0.003457	 0.005389	 2.531434	 -1.147726	 -0.050526	 -0.142778	 0.804894	 -0.524018	 0.239092	 1
1463623847.014	 15	 0.000014	 0.006653	 0.006476	 2.531308	 -1.147640	 -0.050712	 -0.142725	 0.804914	 -0.523997	 0.239102	 1
1463623847.024	 15	 0.003224	 0.007714	 0.007525	 2.531186	 -1.147564	 -0.050920	 -0.142663	 0.804934	 -0.523983	 0.239103	 1
1463623847.034	 15	 0.004282	 0.007696	 0.005384	 2.531141	 -1.147549	 -0.051062	 -0.142616	 0.804942	 -0.523991	 0.239086	 1
1463623847.044	 15	 0.004270	 0.004512	 0.006420	 2.531085	 -1.147509	 -0.051188	 -0.142574	 0.804955	 -0.523987	 0.239079	 1
1463623847.054	 15	 0.002129	 0.003456	 0.006429	 2.531092	 -1.147460	 -0.051246	 -0.142542	 0.804972	 -0.523974	 0.239065	 1
1463623847.064	 15	 0.004259	 0.004498	 0.004288	 2.531081	 -1.147430	 -0.051322	 -0.142511	 0.804984	 -0.523970	 0.239053	 1
1463623847.074	 15	 0.005311	 0.002360	 0.003193	 2.531067	 -1.147459	 -0.051391	 -0.142491	 0.804980	 -0.523989	 0.239038	 1
1463623847.084	 15	 0.003182	 0.004486	 0.002165	 2.531112	 -1.147471	 -0.051410	 -0.142473	 0.804984	 -0.523999	 0.239014	 1
1463623847.094	 15	 0.002112	 0.002382	 0.003251	 2.531085	 -1.147472	 -0.051472	 -0.142455	 0.804984	 -0.524005	 0.239008	 1
1463623847.104	 15	 0.001050	 0.004505	 0.002215	 2.531110	 -1.147441	 -0.051497	 -0.142434	 0.804997	 -0.523998	 0.238994	 1
1463623847.114	 15	 -0.000011	 0.007684	 0.000122	 2.531171	 -1.147397	 -0.051497	 -0.142412	 0.805016	 -0.523985	 0.238974	 1
1463623847.124	 15	 0.001075	 0.009824	 0.002264	 2.531231	 -1.147379	 -0.051533	 -0.142380	 0.805030	 -0.523986	 0.238942	 1
1463623847.134	 15	 -0.001070	 0.007703	 0.002262	 2.531371	 -1.147368	 -0.051485	 -0.142361	 0.805046	 -0.523986	 0.238899	 1
1463623847.144	 15	 -0.003215	 0.006638	 0.001206	 2.531516	 -1.147282	 -0.051411	 -0.142341	 0.805080	 -0.523953	 0.238868	 1
1463623847.154	 15	 -0.002148	 0.005578	 0.002253	 2.531454	 -1.147244	 -0.051520	 -0.142309	 0.805090	 -0.523947	 0.238868	 1
1463623847.164	 15	 -0.000013	 0.007684	 0.000123	 2.531528	 -1.147199	 -0.051521	 -0.142283	 0.805111	 -0.523934	 0.238842	 1
1463623847.174	 15	 0.001062	 0.006640	 0.003300	 2.531577	 -1.147205	 -0.051546	 -0.142261	 0.805117	 -0.523943	 0.238815	 1
1463623847.184	 15	 0.002110	 0.004495	 0.001139	 2.531665	 -1.147214	 -0.051522	 -0.142249	 0.805123	 -0.523950	 0.238786	 1
1463623847.194	 15	 0.006383	 0.004490	 0.002167	 2.531727	 -1.147252	 -0.051525	 -0.142236	 0.805121	 -0.523970	 0.238756	 1
1463623847.204	 15	 0.004247	 0.003440	 0.003241	 2.531775	 -1.147274	 -0.051530	 -0.142225	 0.805122	 -0.523983	 0.238733	 1
1463623847.214	 15	 0.003169	 0.001317	 0.003231	 2.531785	 -1.147230	 -0.051554	 -0.142207	 0.805136	 -0.523969	 0.238727	 1
1463623847.224	 15	 0.002028	 -0.002053	 0.005449	 2.531706	 -1.147208	 -0.051642	 -0.142189	 0.805138	 -0.523965	 0.238738	 1
1463623847.234	 15	 0.004180	 -0.000973	 0.008638	 2.531493	 -1.147147	 -0.051862	 -0.142148	 0.805144	 -0.523952	 0.238772	 1
1463623847.244	 15	 0.006349	 0.006466	 0.008689	 2.531278	 -1.147126	 -0.052145	 -0.142088	 0.805144	 -0.523962	 0.238786	 1
1463623847.254	 15	 0.010677	 0.018161	 0.009826	 2.531091	 -1.147087	 -0.052507	 -0.141986	 0.805157	 -0.523976	 0.238770	 1
1463623847.264	 15	 0.014981	 0.025594	 0.009859	 2.530900	 -1.147090	 -0.052960	 -0.141854	 0.805166	 -0.524018	 0.238728	 1
1463623847.274	 15	 0.018213	 0.034078	 0.007779	 2.530862	 -1.147085	 -0.053364	 -0.141700	 0.805191	 -0.524061	 0.238638	 1
1463623847.284	 15	 0.018212	 0.035134	 0.006723	 2.530887	 -1.147127	 -0.053735	 -0.141550	 0.805210	 -0.524124	 0.238527	 1
1463623847.294	 15	 0.017129	 0.031946	 0.006704	 2.530920	 -1.147145	 -0.054075	 -0.141407	 0.805233	 -0.524174	 0.238423	 1
1463623847.304	 15	 0.014958	 0.024507	 0.006653	 2.531010	 -1.147180	 -0.054298	 -0.141298	 0.805251	 -0.524221	 0.238324	 1
1463623847.314	 15	 0.012822	 0.024514	 0.006672	 2.531170	 -1.147180	 -0.054426	 -0.141205	 0.805279	 -0.524248	 0.238227	 1
1463623847.324	 15	 0.007460	 0.019212	 0.006668	 2.531365	 -1.147214	 -0.054472	 -0.141140	 0.805296	 -0.524281	 0.238133	 1
1463623847.334	 15	 0.005310	 0.017084	 0.005600	 2.531605	 -1.147217	 -0.054450	 -0.141086	 0.805323	 -0.524296	 0.238042	 1
1463623847.344	 15	 0.003177	 0.018147	 0.004561	 2.531877	 -1.147290	 -0.054389	 -0.141049	 0.805332	 -0.524337	 0.237942	 1
1463623847.354	 15	 0.002115	 0.018159	 0.005634	 2.532091	 -1.147411	 -0.054378	 -0.141014	 0.805326	 -0.524399	 0.237847	 1
1463623847.364	 15	 0.006360	 0.013884	 0.004490	 2.532241	 -1.147531	 -0.054408	 -0.140978	 0.805315	 -0.524461	 0.237768	 1
1463623847.374	 15	 0.005270	 0.010681	 0.002336	 2.532528	 -1.147671	 -0.054283	 -0.140971	 0.805305	 -0.524522	 0.237672	 1
1463623847.384	 15	 0.003115	 0.006434	 0.002313	 2.532758	 -1.147792	 -0.054166	 -0.140974	 0.805293	 -0.524572	 0.237599	 1
1463623847.394	 15	 0.000828	 0.000735	 0.000316	 2.532932	 -1.147863	 -0.054033	 -0.140992	 0.805286	 -0.524597	 0.237557	 1
1463623847.404	 15	 0.000818	 -0.001392	 0.000295	 2.533059	 -1.147925	 -0.053906	 -0.141018	 0.805276	 -0.524616	 0.237534	 1
1463623847.414	 15	 -0.000258	 -0.001404	 -0.001828	 2.533210	 -1.147922	 -0.053741	 -0.141044	 0.805283	 -0.524606	 0.237516	 1
1463623847.424	 15	 0.001894	 -0.000324	 0.001361	 2.533178	 -1.147918	 -0.053768	 -0.141041	 0.805283	 -0.524605	 0.237523	 1
1463623847.434	 15	 0.002965	 -0.000319	 0.002417	 2.533148	 -1.147938	 -0.053806	 -0.141036	 0.805277	 -0.524615	 0.237523	 1
1463623847.444	 15	 0.000820	 -0.002440	 0.002416	 2.533107	 -1.147937	 -0.053844	 -0.141032	 0.805275	 -0.524617	 0.237530	 1
1463623847.454	 15	 -0.000241	 -0.000317	 0.001378	 2.533165	 -1.147951	 -0.053791	 -0.141040	 0.805274	 -0.524620	 0.237519	 1
1463623847.464	 15	 -0.002380	 -0.001375	 0.001387	 2.533142	 -1.147990	 -0.053798	 -0.141048	 0.805262	 -0.524635	 0.237522	 1
1463623847.474	 15	 -0.001297	 0.000757	 0.002462	 2.533113	 -1.148030	 -0.053829	 -0.141049	 0.805251	 -0.524652	 0.237522	 1
1463623847.484	 15	 -0.001286	 0.003940	 0.001426	 2.533088	 -1.148102	 -0.053887	 -0.141041	 0.805233	 -0.524686	 0.237511	 1
1463623847.494	 15	 0.001924	 0.007106	 -0.000705	 2.533100	 -1.148238	 -0.053931	 -0.141039	 0.805203	 -0.524746	 0.237482	 1
1463623847.504	 15	 0.005131	 0.007104	 0.000332	 2.533012	 -1.148390	 -0.054083	 -0.141021	 0.805164	 -0.524819	 0.237463	 1
1463623847.514	 15	 0.007261	 0.006034	 0.000303	 2.533000	 -1.148501	 -0.054171	 -0.141003	 0.805141	 -0.524872	 0.237435	 1
1463623847.524	 15	 0.009395	 0.006028	 0.000283	 2.533095	 -1.148618	 -0.054162	 -0.140997	 0.805121	 -0.524925	 0.237388	 1
1463623847.534	 15	 0.008318	 0.003904	 0.000272	 2.533152	 -1.148749	 -0.054168	 -0.140997	 0.805095	 -0.524982	 0.237351	 1
1463623847.544	 15	 0.004975	 -0.000693	 -0.000646	 2.533288	 -1.148838	 -0.054061	 -0.141016	 0.805081	 -0.525014	 0.237317	 1
1463623847.554	 15	 0.002816	 -0.004949	 -0.001734	 2.533407	 -1.148970	 -0.053919	 -0.141060	 0.805051	 -0.525058	 0.237294	 1
1463623847.564	 15	 -0.003611	 -0.009192	 -0.002785	 2.533567	 -1.149022	 -0.053687	 -0.141118	 0.805041	 -0.525062	 0.237286	 1
1463623847.574	 15	 -0.005739	 -0.008122	 -0.002757	 2.533608	 -1.149086	 -0.053550	 -0.141171	 0.805020	 -0.525075	 0.237299	 1
1463623847.584	 15	 -0.005734	 -0.007058	 -0.002748	 2.533724	 -1.149148	 -0.053351	 -0.141229	 0.805003	 -0.525084	 0.237299	 1
1463623847.594	 15	 -0.005737	 -0.007066	 -0.003814	 2.533702	 -1.149170	 -0.053277	 -0.141267	 0.804990	 -0.525082	 0.237325	 1
1463623847.604	 15	 -0.007881	 -0.008131	 -0.004871	 2.533804	 -1.149166	 -0.053079	 -0.141320	 0.804989	 -0.525065	 0.237337	 1
1463623847.614	 15	 -0.006800	 -0.008111	 -0.001683	 2.533788	 -1.149144	 -0.052988	 -0.141358	 0.804986	 -0.525044	 0.237369	 1
1463623847.624	 15	 -0.007881	 -0.009187	 -0.003815	 2.533810	 -1.149097	 -0.052861	 -0.141397	 0.804992	 -0.525011	 0.237398	 1
1463623847.634	 15	 -0.005738	 -0.008123	 -0.002757	 2.533763	 -1.149025	 -0.052804	 -0.141423	 0.805001	 -0.524973	 0.237438	 1
1463623847.644	 15	 -0.005713	 -0.002805	 -0.002707	 2.533780	 -1.148959	 -0.052729	 -0.141439	 0.805015	 -0.524939	 0.237457	 1
1463623847.654	 15	 -0.003569	 -0.001740	 -0.001650	 2.533751	 -1.148913	 -0.052722	 -0.141444	 0.805022	 -0.524918	 0.237475	 1
1463623847.664	 15	 -0.002498	 -0.001736	 -0.000592	 2.533721	 -1.148864	 -0.052728	 -0.141443	 0.805032	 -0.524896	 0.237490	 1
1463623847.674	 15	 -0.002494	 -0.001728	 0.000474	 2.533660	 -1.148826	 -0.052761	 -0.141440	 0.805037	 -0.524881	 0.237509	 1
1463623847.684	 15	 -0.004647	 -0.004921	 -0.000603	 2.533619	 -1.148786	 -0.052749	 -0.141451	 0.805041	 -0.524861	 0.237533	 1
1463623847.694	 15	 -0.003581	 -0.005980	 0.000444	 2.533520	 -1.148740	 -0.052781	 -0.141458	 0.805043	 -0.524839	 0.237568	 1
1463623847.704	 15	 -0.002610	 -0.004162	 0.002740	 2.533330	 -1.148718	 -0.052912	 -0.141452	 0.805036	 -0.524833	 0.237612	 1
1463623847.714	 15	 -0.001528	 -0.000974	 0.002760	 2.533253	 -1.148674	 -0.052970	 -0.141443	 0.805042	 -0.524817	 0.237632	 1
1463623847.724	 15	 0.001693	 0.002215	 0.003828	 2.533115	 -1.148629	 -0.053122	 -0.141412	 0.805048	 -0.524807	 0.237652	 1
1463623847.734	 15	 0.001704	 0.005398	 0.002793	 2.532982	 -1.148609	 -0.053298	 -0.141374	 0.805049	 -0.524811	 0.237661	 1
1463623847.744	 15	 0.001718	 0.006477	 0.004935	 2.532788	 -1.148596	 -0.053544	 -0.141324	 0.805047	 -0.524821	 0.237676	 1
1463623847.754	 15	 0.004940	 0.011777	 0.003891	 2.532580	 -1.148591	 -0.053848	 -0.141255	 0.805045	 -0.524840	 0.237680	 1
1463623847.764	 15	 0.006043	 0.019220	 0.003951	 2.532529	 -1.148633	 -0.054081	 -0.141180	 0.805045	 -0.524881	 0.237636	 1
1463623847.774	 15	 0.003906	 0.020274	 0.001848	 2.532488	 -1.148696	 -0.054327	 -0.141100	 0.805041	 -0.524933	 0.237582	 1
1463623847.784	 15	 0.001725	 0.013867	 -0.002456	 2.532612	 -1.148787	 -0.054370	 -0.141063	 0.805036	 -0.524983	 0.237513	 1
1463623847.794	 15	 -0.005813	 0.001110	 -0.004641	 2.532785	 -1.148854	 -0.054227	 -0.141084	 0.805029	 -0.525005	 0.237474	 1
1463623847.804	 15	 -0.015488	 -0.008480	 -0.011041	 2.533106	 -1.148859	 -0.053821	 -0.141164	 0.805037	 -0.524981	 0.237451	 1
1463623847.814	 15	 -0.031626	 -0.030816	 -0.017505	 2.533615	 -1.148872	 -0.053010	 -0.141358	 0.805037	 -0.524926	 0.237458	 1
1463623847.824	 15	 -0.053116	 -0.052109	 -0.029243	 2.534823	 -1.148812	 -0.051285	 -0.141727	 0.805074	 -0.524783	 0.237430	 1
1463623847.834	 15	 -0.065052	 -0.085124	 -0.040106	 2.535631	 -1.148758	 -0.049625	 -0.142177	 0.805066	 -0.524621	 0.237545	 1
1463623847.844	 15	 -0.088757	 -0.122375	 -0.053036	 2.536570	 -1.148363	 -0.047344	 -0.142797	 0.805116	 -0.524260	 0.237801	 1
1463623847.854	 15	 -0.111231	 -0.131912	 -0.057191	 2.537656	 -1.147696	 -0.044735	 -0.143475	 0.805229	 -0.523761	 0.238107	 1
1463623847.864	 15	 -0.117362	 -0.059678	 -0.072449	 2.539918	 -1.146386	 -0.041288	 -0.144101	 0.805587	 -0.522990	 0.238215	 1
1463623847.874	 15	 -0.161725	 -0.153674	 -0.087713	 2.540998	 -1.146197	 -0.038733	 -0.144823	 0.805579	 -0.522688	 0.238465	 1
1463623847.884	 15	 -0.125555	 -0.199325	 -0.061813	 2.542984	 -1.145537	 -0.034554	 -0.145903	 0.805682	 -0.522070	 0.238814	 1
1463623847.894	 15	 -0.114674	 -0.149410	 -0.067841	 2.544911	 -1.144973	 -0.030818	 -0.146833	 0.805784	 -0.521539	 0.239061	 1
1463623847.904	 15	 -0.118820	 -0.099611	 -0.096122	 2.547952	 -1.144675	 -0.026448	 -0.147763	 0.805902	 -0.521121	 0.239000	 1
1463623847.914	 15	 -0.108062	 -0.045702	 -0.138351	 2.552385	 -1.144728	 -0.021177	 -0.148739	 0.806027	 -0.520842	 0.238583	 1
1463623847.924	 15	 -0.098472	 -0.007792	 -0.187113	 2.557808	 -1.145065	 -0.015287	 -0.149743	 0.806146	 -0.520680	 0.237903	 1
1463623847.934	 15	 -0.091192	 -0.008153	 -0.234075	 2.563616	 -1.145467	 -0.008864	 -0.150870	 0.806249	 -0.520515	 0.237202	 1
1463623847.944	 15	 -0.100529	 0.282175	 -0.243016	 2.571147	 -1.145987	 -0.002525	 -0.151527	 0.806525	 -0.520545	 0.235774	 1
1463623847.954	 15	 -0.102964	 0.418550	 -0.211884	 2.580709	 -1.146321	 0.003342	 -0.151444	 0.807116	 -0.520716	 0.233419	 1
1463623847.964	 15	 -0.110352	 0.179522	 -0.175677	 2.587877	 -1.146355	 0.008527	 -0.151675	 0.807548	 -0.520669	 0.231873	 1
1463623847.974	 15	 -0.086357	 0.069830	 -0.185437	 2.593504	 -1.147158	 0.013742	 -0.152406	 0.807592	 -0.520818	 0.230901	 1
1463623847.984	 15	 -0.029502	 0.136633	 -0.190640	 2.598759	 -1.147752	 0.018264	 -0.152930	 0.807697	 -0.520939	 0.229915	 1
1463623847.994	 15	 0.010359	 0.213121	 -0.187078	 2.604303	 -1.148744	 0.022164	 -0.153169	 0.807773	 -0.521318	 0.228624	 1
1463623848.004	 15	 0.024212	 0.204609	 -0.181949	 2.609705	 -1.149858	 0.025778	 -0.153340	 0.807819	 -0.521772	 0.227311	 1
1463623848.014	 15	 0.049874	 0.189865	 -0.151400	 2.614086	 -1.150807	 0.028505	 -0.153398	 0.807856	 -0.522184	 0.226190	 1
1463623848.024	 15	 0.059693	 0.210262	 -0.121455	 2.617920	 -1.151957	 0.030512	 -0.153328	 0.807830	 -0.522719	 0.225092	 1
1463623848.034	 15	 0.051395	 0.243230	 -0.075134	 2.621477	 -1.152873	 0.031760	 -0.152998	 0.807891	 -0.523223	 0.223923	 1
1463623848.044	 15	 0.015114	 0.167419	 0.016132	 2.623250	 -1.153102	 0.031626	 -0.152503	 0.808039	 -0.523466	 0.223157	 1
1463623848.054	 15	 0.000934	 0.088865	 0.031511	 2.623327	 -1.153185	 0.030582	 -0.152070	 0.808105	 -0.523623	 0.222847	 1
1463623848.064	 15	 0.013372	 0.014346	 0.027511	 2.623171	 -1.153125	 0.029998	 -0.151869	 0.808148	 -0.523651	 0.222761	 1
1463623848.074	 15	 0.034312	 -0.084515	 0.043461	 2.621244	 -1.153196	 0.028646	 -0.151834	 0.808017	 -0.523684	 0.223181	 1
1463623848.084	 15	 0.009966	 -0.025031	 0.022912	 2.620088	 -1.153203	 0.027870	 -0.151824	 0.807945	 -0.523686	 0.223444	 1
1463623848.094	 15	 0.011337	 0.026129	 0.038299	 2.618942	 -1.153087	 0.026528	 -0.151570	 0.807949	 -0.523702	 0.223563	 1
1463623848.104	 15	 0.049837	 -0.004415	 0.095230	 2.617007	 -1.153034	 0.024344	 -0.151189	 0.807912	 -0.523778	 0.223777	 1
1463623848.114	 15	 0.079734	 -0.048762	 0.152109	 2.613056	 -1.152981	 0.020445	 -0.150643	 0.807778	 -0.523896	 0.224355	 1
1463623848.124	 15	 0.062629	 -0.100437	 0.206131	 2.607628	 -1.152592	 0.015484	 -0.150019	 0.807643	 -0.523888	 0.225274	 1
1463623848.134	 15	 0.019938	 -0.109801	 0.217066	 2.603906	 -1.151773	 0.012254	 -0.149600	 0.807681	 -0.523642	 0.225988	 1
1463623848.144	 15	 -0.007998	 -0.097410	 0.154545	 2.599633	 -1.150869	 0.008675	 -0.149174	 0.807702	 -0.523362	 0.226840	 1
1463623848.154	 15	 -0.011428	 -0.100977	 0.101253	 2.596624	 -1.150188	 0.006479	 -0.148998	 0.807703	 -0.523112	 0.227529	 1
1463623848.164	 15	 0.009791	 -0.106537	 0.076504	 2.593961	 -1.149797	 0.004716	 -0.148938	 0.807633	 -0.522956	 0.228172	 1
1463623848.174	 15	 0.035380	 -0.096109	 0.058262	 2.591132	 -1.149575	 0.002782	 -0.148872	 0.807512	 -0.522877	 0.228825	 1
1463623848.184	 15	 0.066463	 -0.055883	 0.044511	 2.588850	 -1.149827	 0.001004	 -0.148780	 0.807317	 -0.523012	 0.229263	 1
1463623848.194	 15	 0.097487	 -0.038965	 0.043333	 2.586589	 -1.150365	 -0.001029	 -0.148612	 0.807068	 -0.523295	 0.229604	 1
1463623848.204	 15	 0.114374	 -0.066935	 0.053680	 2.583718	 -1.151039	 -0.003533	 -0.148431	 0.806748	 -0.523641	 0.230056	 1
1463623848.214	 15	 0.130476	 -0.062591	 0.072769	 2.579481	 -1.151333	 -0.007303	 -0.148055	 0.806463	 -0.523880	 0.230755	 1
1463623848.224	 15	 0.146703	 -0.035878	 0.096323	 2.575613	 -1.152055	 -0.011069	 -0.147635	 0.806106	 -0.524319	 0.231271	 1
1463623848.234	 15	 0.159708	 -0.008137	 0.113520	 2.571474	 -1.152780	 -0.015428	 -0.147051	 0.805759	 -0.524811	 0.231738	 1
1463623848.244	 15	 0.157801	 0.039734	 0.113982	 2.567643	 -1.153505	 -0.019933	 -0.146330	 0.805456	 -0.525343	 0.232041	 1
1463623848.254	 15	 0.137772	 0.101404	 0.103004	 2.565465	 -1.154287	 -0.023383	 -0.145608	 0.805252	 -0.525897	 0.231947	 1
1463623848.264	 15	 0.098519	 0.175755	 0.073130	 2.564138	 -1.154750	 -0.026545	 -0.144740	 0.805207	 -0.526353	 0.231611	 1
1463623848.274	 15	 0.055962	 0.238330	 0.031453	 2.564762	 -1.155072	 -0.028317	 -0.143902	 0.805324	 -0.526732	 0.230867	 1
1463623848.284	 15	 0.025082	 0.287050	 -0.009390	 2.567108	 -1.155325	 -0.028757	 -0.143138	 0.805559	 -0.527053	 0.229785	 1
1463623848.294	 15	 0.026312	 0.346389	 -0.039759	 2.570969	 -1.156239	 -0.028211	 -0.142452	 0.805725	 -0.527632	 0.228298	 1
1463623848.304	 15	 0.044600	 0.394052	 -0.059724	 2.575371	 -1.156868	 -0.027573	 -0.141623	 0.806016	 -0.528124	 0.226641	 1
1463623848.314	 15	 0.077799	 0.425802	 -0.068244	 2.580026	 -1.157808	 -0.027074	 -0.140707	 0.806261	 -0.528773	 0.224820	 1
1463623848.324	 15	 0.110936	 0.449003	 -0.082171	 2.584711	 -1.159105	 -0.026791	 -0.139735	 0.806426	 -0.529590	 0.222901	 1
1463623848.334	 15	 0.125902	 0.473260	 -0.104456	 2.589715	 -1.160610	 -0.026409	 -0.138741	 0.806561	 -0.530500	 0.220863	 1
1463623848.344	 15	 0.114624	 0.563761	 -0.096056	 2.595633	 -1.162159	 -0.025812	 -0.137591	 0.806763	 -0.531465	 0.218512	 1
1463623848.354	 15	 0.112582	 0.588188	 -0.081882	 2.601904	 -1.163533	 -0.025462	 -0.136223	 0.807058	 -0.532408	 0.215967	 1
1463623848.364	 15	 0.121414	 0.444402	 -0.105677	 2.607320	 -1.165080	 -0.024849	 -0.135204	 0.807191	 -0.533331	 0.213824	 1
1463623848.374	 15	 0.086492	 0.276482	 -0.101604	 2.610007	 -1.166740	 -0.025127	 -0.134563	 0.807058	 -0.534209	 0.212536	 1
1463623848.384	 15	 0.051901	 0.162949	 -0.077847	 2.612868	 -1.167677	 -0.024077	 -0.134328	 0.807042	 -0.534667	 0.211590	 1
1463623848.394	 15	 0.038536	 0.036488	 -0.068250	 2.614541	 -1.168384	 -0.022996	 -0.134396	 0.806959	 -0.534949	 0.211150	 1
1463623848.404	 15	 0.073608	 -0.012384	 -0.046629	 2.614853	 -1.169197	 -0.022626	 -0.134552	 0.806752	 -0.535257	 0.211061	 1
1463623848.414	 15	 0.096096	 -0.061870	 0.031577	 2.613918	 -1.170250	 -0.023259	 -0.134665	 0.806417	 -0.535684	 0.211188	 1
1463623848.424	 15	 0.102597	 -0.111272	 0.115256	 2.609754	 -1.170642	 -0.026692	 -0.134440	 0.806103	 -0.535924	 0.211917	 1
1463623848.434	 15	 0.118789	 -0.108876	 0.158834	 2.604188	 -1.170845	 -0.031500	 -0.134017	 0.805781	 -0.536143	 0.212855	 1
1463623848.444	 15	 0.175358	 -0.122734	 0.177396	 2.597638	 -1.171302	 -0.037418	 -0.133443	 0.805357	 -0.536519	 0.213869	 1
1463623848.454	 15	 0.262461	 -0.209137	 0.177965	 2.589115	 -1.172415	 -0.044561	 -0.132988	 0.804625	 -0.537162	 0.215290	 1
1463623848.464	 15	 0.343944	 -0.138037	 0.188575	 2.579672	 -1.174202	 -0.053029	 -0.132338	 0.803696	 -0.538162	 0.216657	 1
1463623848.474	 15	 0.393492	 -0.069863	 0.222882	 2.569619	 -1.176300	 -0.063022	 -0.131293	 0.802712	 -0.539418	 0.217815	 1
1463623848.484	 15	 0.398171	 -0.033278	 0.282865	 2.558576	 -1.178206	 -0.074530	 -0.129902	 0.801759	 -0.540708	 0.218961	 1
1463623848.494	 15	 0.355766	 -0.033697	 0.354636	 2.546583	 -1.179385	 -0.087198	 -0.128226	 0.800952	 -0.541790	 0.220224	 1
1463623848.504	 15	 0.307665	 -0.100132	 0.414119	 2.533409	 -1.179760	 -0.100589	 -0.126488	 0.800251	 -0.542578	 0.221829	 1
1463623848.514	 15	 0.249781	 -0.198663	 0.478807	 2.518847	 -1.179252	 -0.114474	 -0.124816	 0.799632	 -0.543012	 0.223939	 1
1463623848.524	 15	 0.197259	 -0.309651	 0.552835	 2.502668	 -1.177809	 -0.128935	 -0.123220	 0.799075	 -0.543076	 0.226638	 1
1463623848.534	 15	 0.170488	 -0.403589	 0.641718	 2.484349	 -1.175434	 -0.144640	 -0.121564	 0.798547	 -0.542828	 0.229964	 1
1463623848.544	 15	 0.159754	 -0.503849	 0.745324	 2.463763	 -1.172319	 -0.161784	 -0.119820	 0.797974	 -0.542373	 0.233905	 1
1463623848.554	 15	 0.146541	 -0.547954	 0.964575	 2.439808	 -1.167692	 -0.181962	 -0.117510	 0.797484	 -0.541564	 0.238579	 1
1463623848.564	 15	 0.113848	 -0.425003	 1.185551	 2.413003	 -1.161262	 -0.205943	 -0.114104	 0.797198	 -0.540459	 0.243637	 1
1463623848.574	 15	 0.041793	 -0.224734	 1.345775	 2.387572	 -1.152840	 -0.230795	 -0.109556	 0.797455	 -0.538918	 0.248257	 1
1463623848.584	 15	 0.019313	 -0.165912	 1.527697	 2.361833	 -1.142735	 -0.257140	 -0.104086	 0.797969	 -0.537063	 0.252934	 1
1463623848.594	 15	 0.009175	 -0.197603	 1.700144	 2.334673	 -1.130978	 -0.285016	 -0.097947	 0.798540	 -0.534890	 0.258133	 1
1463623848.604	 15	 -0.004366	 -0.204343	 1.791855	 2.307413	 -1.118004	 -0.313027	 -0.091396	 0.799120	 -0.532482	 0.263661	 1
1463623848.614	 15	 -0.019532	 -0.322811	 1.876146	 2.279989	 -1.103992	 -0.340362	 -0.084789	 0.799592	 -0.529813	 0.269744	 1
1463623848.624	 15	 -0.059607	 -0.440814	 1.867936	 2.253158	 -1.089283	 -0.365954	 -0.078416	 0.799925	 -0.526900	 0.276311	 1
1463623848.634	 15	 -0.132030	 -0.594123	 1.818115	 2.227847	 -1.074273	 -0.388287	 -0.072726	 0.800119	 -0.523694	 0.283309	 1
1463623848.644	 15	 -0.304910	 -0.393432	 1.849198	 2.206879	 -1.058070	 -0.406920	 -0.066961	 0.800764	 -0.519872	 0.289872	 1
1463623848.654	 15	 -0.353152	 -0.271541	 1.917895	 2.189482	 -1.040626	 -0.423629	 -0.060611	 0.801851	 -0.515593	 0.295846	 1
1463623848.664	 15	 -0.360898	 -0.193103	 2.024203	 2.173090	 -1.022266	 -0.440158	 -0.053723	 0.803006	 -0.511123	 0.301741	 1
1463623848.674	 15	 -0.338873	 0.038834	 2.189231	 2.158206	 -1.002542	 -0.457460	 -0.045675	 0.804388	 -0.506459	 0.307202	 1
1463623848.684	 15	 -0.260632	 0.234127	 2.310798	 2.144469	 -0.981893	 -0.476097	 -0.036437	 0.805853	 -0.501830	 0.312154	 1
1463623848.694	 15	 -0.161792	 0.301470	 2.396891	 2.131028	 -0.960848	 -0.495916	 -0.026420	 0.807153	 -0.497386	 0.316880	 1
1463623848.704	 15	 -0.003156	 0.104194	 2.537552	 2.115012	 -0.939336	 -0.517683	 -0.016007	 0.807814	 -0.493211	 0.322371	 1
1463623848.714	 15	 0.207256	 -0.242852	 2.726459	 2.093438	 -0.917047	 -0.542715	 -0.005297	 0.807318	 -0.489472	 0.329587	 1
1463623848.724	 15	 0.281153	 -0.436447	 2.753855	 2.069161	 -0.894329	 -0.568427	 0.005297	 0.805973	 -0.485977	 0.337943	 1
1463623848.734	 15	 0.278889	 -0.657949	 2.715578	 2.044847	 -0.871571	 -0.592365	 0.015326	 0.804158	 -0.482475	 0.346861	 1
1463623848.744	 15	 0.310937	 -1.391397	 2.789472	 2.015610	 -0.848172	 -0.615321	 0.024100	 0.801066	 -0.478949	 0.358219	 1
1463623848.754	 15	 0.210688	 -2.318427	 3.102513	 1.978581	 -0.821858	 -0.637190	 0.031583	 0.796247	 -0.474736	 0.373656	 1
1463623848.764	 15	 -0.036484	 -2.797635	 3.508393	 1.937632	 -0.790316	 -0.656271	 0.038797	 0.790365	 -0.468791	 0.392497	 1
1463623848.774	 15	 -0.177352	 -3.125001	 3.629136	 1.896855	 -0.755767	 -0.671283	 0.045652	 0.783881	 -0.461513	 0.412859	 1
1463623848.784	 15	 -0.092590	 -3.522507	 3.409415	 1.853988	 -0.722143	 -0.683916	 0.051138	 0.776030	 -0.454499	 0.434273	 1
1463623848.794	 15	 -0.014537	 -3.521066	 2.906775	 1.812029	 -0.692675	 -0.693940	 0.054818	 0.767409	 -0.448564	 0.454829	 1
1463623848.804	 15	 -0.037330	 -3.546658	 2.302448	 1.772577	 -0.668702	 -0.700641	 0.056275	 0.758590	 -0.443776	 0.473748	 1
1463623848.814	 15	 -0.237698	 -3.703259	 1.747473	 1.734627	 -0.649922	 -0.702737	 0.054824	 0.749612	 -0.439591	 0.491768	 1
1463623848.824	 15	 -0.521949	 -3.683973	 1.358993	 1.699276	 -0.634975	 -0.699839	 0.050978	 0.740930	 -0.435290	 0.508867	 1
1463623848.834	 15	 -0.773598	 -3.416080	 1.091907	 1.668557	 -0.622698	 -0.692598	 0.045798	 0.733175	 -0.430500	 0.524430	 1
1463623848.844	 15	 -0.814400	 -3.040131	 0.850635	 1.642545	 -0.612946	 -0.683532	 0.040248	 0.726429	 -0.425770	 0.537961	 1
1463623848.854	 15	 -0.641380	 -2.853739	 0.663289	 1.618211	 -0.605488	 -0.675599	 0.034794	 0.719913	 -0.421883	 0.550027	 1
1463623848.864	 15	 -0.385896	 -2.896769	 0.553022	 1.592487	 -0.599571	 -0.670409	 0.029587	 0.712796	 -0.419138	 0.561578	 1
1463623848.874	 15	 -0.137101	 -3.096360	 0.557525	 1.563343	 -0.594038	 -0.668048	 0.024606	 0.704490	 -0.417278	 0.573556	 1
1463623848.884	 15	 0.026815	 -3.244193	 0.625062	 1.531314	 -0.587969	 -0.667852	 0.020030	 0.695109	 -0.415870	 0.586066	 1
1463623848.894	 15	 -0.083410	 -3.093806	 0.638079	 1.500350	 -0.581635	 -0.666915	 0.015568	 0.685821	 -0.414116	 0.598260	 1
1463623848.904	 15	 -0.317604	 -2.985557	 0.657112	 1.472398	 -0.575397	 -0.663205	 0.010812	 0.677254	 -0.411481	 0.609831	 1
1463623848.914	 15	 -0.606409	 -3.203153	 0.748191	 1.445046	 -0.568850	 -0.656007	 0.005203	 0.668684	 -0.407617	 0.621838	 1
1463623848.924	 15	 -0.968261	 -3.614379	 0.948945	 1.416123	 -0.561262	 -0.644298	 -0.001711	 0.659383	 -0.401953	 0.635331	 1
1463623848.934	 15	 -1.419312	 -3.770577	 1.227451	 1.387745	 -0.552069	 -0.626909	 -0.009586	 0.649934	 -0.393879	 0.649887	 1
1463623848.944	 15	 -1.938094	 -3.579843	 1.505512	 1.363855	 -0.541448	 -0.602882	 -0.017944	 0.641591	 -0.383061	 0.664307	 1
1463623848.954	 15	 -2.354541	 -3.493838	 1.610120	 1.344079	 -0.530723	 -0.573195	 -0.027022	 0.634303	 -0.370094	 0.678203	 1
1463623848.964	 15	 -2.560282	 -3.853125	 1.556346	 1.323143	 -0.521341	 -0.540594	 -0.037469	 0.626350	 -0.356156	 0.692413	 1
1463623848.974	 15	 -2.734164	 -4.293986	 1.560152	 1.298221	 -0.513272	 -0.506147	 -0.049372	 0.616686	 -0.341473	 0.707572	 1
1463623848.984	 15	 -2.890617	 -4.542509	 1.693487	 1.271252	 -0.505467	 -0.469408	 -0.062022	 0.605856	 -0.325573	 0.723253	 1
1463623848.994	 15	 -2.943019	 -4.736584	 1.896764	 1.242783	 -0.497008	 -0.431080	 -0.074664	 0.593997	 -0.308426	 0.739233	 1
1463623849.004	 15	 -2.899193	 -4.931663	 2.147153	 1.212420	 -0.487216	 -0.391994	 -0.086750	 0.580951	 -0.290116	 0.755515	 1
1463623849.014	 15	 -2.780538	 -5.113021	 2.413004	 1.179864	 -0.475651	 -0.352730	 -0.097876	 0.566608	 -0.270720	 0.772067	 1
1463623849.024	 15	 -2.597458	 -5.134623	 2.588126	 1.145916	 -0.462725	 -0.314146	 -0.107769	 0.551320	 -0.250724	 0.788396	 1
1463623849.034	 15	 -2.361526	 -4.929698	 2.634872	 1.112252	 -0.449304	 -0.277225	 -0.116276	 0.535840	 -0.230870	 0.803775	 1
1463623849.044	 15	 -2.074867	 -4.543571	 2.609325	 1.080489	 -0.435842	 -0.242836	 -0.123221	 0.520941	 -0.211797	 0.817667	 1
1463623849.054	 15	 -1.741509	 -3.993713	 2.593421	 1.052137	 -0.421967	 -0.211457	 -0.128278	 0.507373	 -0.193810	 0.829792	 1
1463623849.064	 15	 -1.357130	 -3.323279	 2.651733	 1.028571	 -0.406652	 -0.183184	 -0.131005	 0.495841	 -0.176907	 0.840050	 1
1463623849.074	 15	 -0.890124	 -2.656481	 2.828656	 1.010124	 -0.388302	 -0.158033	 -0.130842	 0.486617	 -0.160843	 0.848654	 1
1463623849.084	 15	 -0.341115	 -2.084077	 3.075394	 0.995986	 -0.365512	 -0.136233	 -0.127326	 0.479487	 -0.145410	 0.856000	 1
1463623849.094	 15	 0.245603	 -1.665974	 3.326761	 0.984648	 -0.337660	 -0.118014	 -0.120337	 0.473876	 -0.130515	 0.862512	 1
1463623849.104	 15	 0.827277	 -1.355767	 3.511092	 0.974940	 -0.305026	 -0.103616	 -0.110072	 0.469285	 -0.116286	 0.868409	 1
1463623849.114	 15	 1.326887	 -1.169382	 3.601197	 0.965911	 -0.268633	 -0.092910	 -0.097097	 0.465227	 -0.102879	 0.873815	 1
1463623849.124	 15	 1.751626	 -1.214904	 3.655693	 0.956008	 -0.229370	 -0.085311	 -0.082028	 0.460903	 -0.090207	 0.879035	 1
1463623849.134	 15	 2.181522	 -1.534762	 3.722511	 0.942528	 -0.187173	 -0.080527	 -0.065001	 0.455011	 -0.078101	 0.884669	 1
1463623849.144	 15	 2.518800	 -1.813869	 3.797975	 0.925461	 -0.142273	 -0.077670	 -0.046267	 0.447398	 -0.066359	 0.890669	 1
1463623849.154	 15	 2.685243	 -1.885069	 3.873664	 0.906939	 -0.095519	 -0.075234	 -0.026429	 0.438892	 -0.054669	 0.896486	 1
1463623849.164	 15	 2.656154	 -1.712720	 3.868061	 0.889460	 -0.048529	 -0.071978	 -0.006413	 0.430597	 -0.042903	 0.901501	 1
1463623849.174	 15	 2.479506	 -1.456103	 3.689741	 0.874454	 -0.003550	 -0.067692	 0.012721	 0.423240	 -0.031407	 0.905384	 1
1463623849.184	 15	 2.241464	 -1.432151	 3.376571	 0.860151	 0.037726	 -0.062873	 0.030238	 0.416120	 -0.020703	 0.908571	 1
1463623849.194	 15	 1.957559	 -1.589221	 3.016288	 0.844431	 0.074491	 -0.057717	 0.045769	 0.408348	 -0.011049	 0.911611	 1
1463623849.204	 15	 1.636973	 -1.855516	 2.686215	 0.826059	 0.106516	 -0.051884	 0.059137	 0.399417	 -0.002364	 0.914857	 1
1463623849.214	 15	 1.362577	 -2.104528	 2.411320	 0.804785	 0.134320	 -0.045248	 0.070573	 0.389241	 0.005506	 0.918412	 1
1463623849.224	 15	 1.187957	 -2.290656	 2.194759	 0.781283	 0.158896	 -0.038153	 0.080613	 0.378112	 0.012633	 0.922157	 1
1463623849.234	 15	 1.118406	 -2.436137	 2.052264	 0.756044	 0.181494	 -0.030928	 0.089898	 0.366218	 0.019131	 0.925979	 1
1463623849.244	 15	 1.115308	 -2.579180	 1.979554	 0.729237	 0.203176	 -0.023640	 0.098933	 0.353610	 0.025175	 0.929806	 1
1463623849.254	 15	 1.142459	 -2.672080	 1.940086	 0.701107	 0.224513	 -0.016196	 0.107968	 0.340393	 0.030911	 0.933552	 1
1463623849.264	 15	 1.196640	 -2.694827	 1.905298	 0.672445	 0.245779	 -0.008679	 0.117137	 0.326930	 0.036376	 0.937055	 1
1463623849.274	 15	 1.294922	 -2.611624	 1.831679	 0.644236	 0.267146	 -0.001528	 0.126566	 0.313660	 0.041442	 0.940149	 1
1463623849.284	 15	 1.420864	 -2.500187	 1.702662	 0.617329	 0.288606	 0.004545	 0.136323	 0.300940	 0.045828	 0.942736	 1
1463623849.294	 15	 1.552007	 -2.392174	 1.543727	 0.591754	 0.310105	 0.009159	 0.146400	 0.288754	 0.049357	 0.944855	 1
1463623849.304	 15	 1.701369	 -2.265092	 1.381613	 0.567889	 0.331799	 0.012095	 0.156853	 0.277252	 0.051988	 0.946481	 1
1463623849.314	 15	 1.888788	 -2.231572	 1.239612	 0.545190	 0.354148	 0.013252	 0.167886	 0.266140	 0.053705	 0.947681	 1
1463623849.324	 15	 2.075655	 -2.337193	 1.124032	 0.522370	 0.377488	 0.012807	 0.179634	 0.254795	 0.054525	 0.948598	 1
1463623849.334	 15	 2.183944	 -2.372274	 1.023646	 0.499152	 0.401512	 0.011230	 0.191870	 0.243114	 0.054584	 0.949264	 1
1463623849.344	 15	 2.165924	 -2.285533	 0.951073	 0.476844	 0.425256	 0.009430	 0.203969	 0.231815	 0.054317	 0.949583	 1
1463623849.354	 15	 2.111211	 -2.291167	 0.885419	 0.454732	 0.448160	 0.007757	 0.215637	 0.220615	 0.053773	 0.949704	 1
1463623849.364	 15	 2.003360	 -2.257231	 0.828053	 0.432784	 0.469724	 0.006396	 0.226613	 0.209539	 0.053002	 0.949701	 1
1463623849.374	 15	 1.862873	 -2.140137	 0.784536	 0.411556	 0.489971	 0.005695	 0.236860	 0.198903	 0.052262	 0.949528	 1
1463623849.384	 15	 1.719270	 -2.011280	 0.748617	 0.391154	 0.508986	 0.005780	 0.246411	 0.188786	 0.051668	 0.949196	 1
1463623849.394	 15	 1.550100	 -1.872773	 0.713011	 0.371650	 0.526480	 0.006654	 0.255136	 0.179243	 0.051233	 0.948764	 1
1463623849.404	 15	 1.342642	 -1.718104	 0.690678	 0.353165	 0.541989	 0.008444	 0.262810	 0.170366	 0.051028	 0.948315	 1
1463623849.414	 15	 1.137415	 -1.574863	 0.706587	 0.335493	 0.555528	 0.011479	 0.269431	 0.162111	 0.051223	 0.947894	 1
1463623849.424	 15	 0.954377	 -1.487979	 0.733502	 0.318126	 0.567309	 0.015841	 0.275120	 0.154248	 0.051835	 0.947539	 1
1463623849.434	 15	 0.792169	 -1.492773	 0.740198	 0.300354	 0.577481	 0.021212	 0.280003	 0.146398	 0.052651	 0.947309	 1
1463623849.444	 15	 0.663561	 -1.592513	 0.721206	 0.281478	 0.586188	 0.027166	 0.284209	 0.138166	 0.053398	 0.947251	 1
1463623849.454	 15	 0.590219	 -1.713917	 0.670624	 0.261273	 0.593873	 0.033181	 0.287993	 0.129360	 0.053838	 0.947327	 1
1463623849.464	 15	 0.555182	 -1.802949	 0.552867	 0.240552	 0.600759	 0.038354	 0.291493	 0.120226	 0.053680	 0.947468	 1
1463623849.474	 15	 0.562706	 -1.893388	 0.404885	 0.219747	 0.607191	 0.042036	 0.294886	 0.110860	 0.052708	 0.947615	 1
1463623849.484	 15	 0.584667	 -1.901650	 0.301238	 0.199300	 0.613540	 0.044412	 0.298303	 0.101489	 0.051098	 0.947684	 1
1463623849.494	 15	 0.579822	 -1.742571	 0.235617	 0.180412	 0.619732	 0.046095	 0.301634	 0.092769	 0.049321	 0.947617	 1
1463623849.504	 15	 0.578675	 -1.461334	 0.149786	 0.164529	 0.625729	 0.046986	 0.304823	 0.085367	 0.047559	 0.947382	 1
1463623849.514	 15	 0.584102	 -1.128135	 0.045197	 0.152558	 0.631584	 0.046720	 0.307890	 0.079650	 0.045799	 0.946975	 1
1463623849.524	 15	 0.605558	 -0.805490	 -0.041511	 0.144541	 0.637474	 0.045352	 0.310914	 0.075640	 0.044097	 0.946396	 1
1463623849.544	 16	 0.738009	 -0.469443	 -0.141851	 0.136586	 0.650676	 0.040237	 0.317519	 0.071062	 0.040825	 0.944704	 1
1463623849.554	 16	 0.806119	 -0.491075	 -0.163960	 0.133824	 0.658285	 0.036912	 0.321286	 0.069214	 0.039033	 0.943643	 1
1463623849.564	 16	 0.863258	 -0.581760	 -0.179157	 0.130470	 0.666484	 0.033289	 0.325342	 0.067027	 0.037016	 0.942491	 1
1463623849.574	 16	 0.879867	 -0.662796	 -0.200305	 0.126445	 0.674940	 0.029395	 0.329527	 0.064467	 0.034757	 0.941301	 1
1463623849.585	 16	 0.868793	 -0.716218	 -0.238007	 0.122103	 0.683309	 0.025094	 0.333674	 0.061679	 0.032240	 0.940116	 1
1463623849.595	 16	 0.843077	 -0.713530	 -0.272698	 0.117907	 0.691429	 0.020376	 0.337698	 0.058877	 0.029533	 0.938947	 1
1463623849.605	 16	 0.813519	 -0.625334	 -0.296132	 0.114592	 0.699249	 0.015377	 0.341559	 0.056428	 0.026827	 0.937781	 1
1463623849.615	 16	 0.777794	 -0.485022	 -0.322226	 0.112785	 0.706717	 0.010096	 0.345229	 0.054624	 0.024233	 0.936614	 1
1463623849.634	 17	 0.646884	 -0.166767	 -0.342637	 0.114239	 0.719979	 -0.000831	 0.351712	 0.053283	 0.019722	 0.934382	 1
1463623849.645	 17	 0.520432	 -0.043095	 -0.353174	 0.117154	 0.725096	 -0.006341	 0.354221	 0.053615	 0.017803	 0.933454	 1
1463623849.654	 17	 0.335229	 0.043742	 -0.333701	 0.120836	 0.728500	 -0.011483	 0.355917	 0.054377	 0.016155	 0.932794	 1
1463623849.664	 17	 0.144381	 0.041455	 -0.286233	 0.124185	 0.730027	 -0.015787	 0.356720	 0.055151	 0.014791	 0.932465	 1
1463623849.675	 17	 -0.014740	 -0.036317	 -0.221626	 0.126179	 0.729950	 -0.018981	 0.356759	 0.055512	 0.013655	 0.932446	 1
1463623849.684	 17	 -0.140866	 -0.126998	 -0.163820	 0.126591	 0.728611	 -0.021140	 0.356192	 0.055340	 0.012679	 0.932686	 1
1463623849.694	 17	 -0.210586	 -0.227615	 -0.133242	 0.125562	 0.726487	 -0.022648	 0.355249	 0.054627	 0.011726	 0.933100	 1
1463623849.705	 17	 -0.230052	 -0.280748	 -0.134633	 0.123760	 0.724067	 -0.024026	 0.354168	 0.053581	 0.010688	 0.933584	 1
1463623849.714	 17	 -0.209687	 -0.246903	 -0.152613	 0.122224	 0.721735	 -0.025636	 0.353130	 0.052618	 0.009593	 0.934044	 1
1463623849.724	 17	 -0.159140	 -0.155655	 -0.162862	 0.121660	 0.719815	 -0.027493	 0.352285	 0.052060	 0.008567	 0.934404	 1
1463623849.735	 17	 -0.073494	 -0.106905	 -0.152497	 0.121769	 0.718657	 -0.029402	 0.351793	 0.051795	 0.007658	 0.934612	 1
1463623849.744	 17	 0.021724	 -0.083549	 -0.120070	 0.121981	 0.718481	 -0.031106	 0.351755	 0.051597	 0.006894	 0.934644	 1
1463623849.754	 17	 0.085077	 -0.036628	 -0.077554	 0.122320	 0.719100	 -0.032388	 0.352076	 0.051519	 0.006374	 0.934531	 1
1463623849.765	 17	 0.075861	 0.026320	 -0.054507	 0.123042	 0.719855	 -0.033294	 0.352449	 0.051683	 0.006101	 0.934383	 1
1463623849.774	 17	 0.004493	 0.045749	 -0.044113	 0.123918	 0.720038	 -0.033947	 0.352549	 0.051974	 0.005957	 0.934330	 1
1463623849.784	 17	 -0.088429	 0.000537	 -0.009620	 0.124178	 0.719369	 -0.034101	 0.352240	 0.052080	 0.005909	 0.934441	 1
1463623849.795	 17	 -0.163405	 -0.095701	 0.035965	 0.123111	 0.717948	 -0.033541	 0.351565	 0.051707	 0.005938	 0.934715	 1
1463623849.805	 17	 -0.208480	 -0.191990	 0.086618	 0.120564	 0.716061	 -0.032239	 0.350658	 0.050780	 0.006040	 0.935107	 1
1463623849.815	 17	 -0.211945	 -0.270491	 0.113627	 0.116900	 0.714060	 -0.030468	 0.349689	 0.049412	 0.006165	 0.935541	 1
1463623849.825	 17	 -0.164213	 -0.331264	 0.112646	 0.112555	 0.712417	 -0.028701	 0.348892	 0.047715	 0.006185	 0.935927	 1
1463623849.834	 17	 -0.106618	 -0.326219	 0.098337	 0.108255	 0.711326	 -0.027191	 0.348359	 0.045983	 0.006111	 0.936213	 1
1463623849.844	 17	 -0.061534	 -0.257330	 0.082599	 0.104671	 0.710714	 -0.025975	 0.348056	 0.044527	 0.006040	 0.936396	 1
1463623849.855	 17	 -0.063090	 -0.128682	 0.075283	 0.102337	 0.710207	 -0.024884	 0.347802	 0.043632	 0.006131	 0.936532	 1
1463623849.864	 17	 -0.098799	 0.000061	 0.067200	 0.101369	 0.709394	 -0.023854	 0.347402	 0.043369	 0.006424	 0.936691	 1
1463623849.874	 17	 -0.134692	 0.104215	 0.041838	 0.101648	 0.708182	 -0.023049	 0.346816	 0.043657	 0.006818	 0.936892	 1
1463623849.895	 17	 -0.156116	 0.156865	 -0.040622	 0.105886	 0.704680	 -0.023725	 0.345176	 0.045576	 0.007143	 0.937403	 1
1463623849.885	 17	 -0.151690	 0.153965	 0.001950	 0.102851	 0.706708	 -0.022678	 0.346114	 0.044305	 0.007163	 0.937118	 1
1463623849.905	 17	 -0.130646	 0.160749	 -0.081306	 0.107918	 0.703247	 -0.024462	 0.344515	 0.046423	 0.007109	 0.937606	 1
1463623849.915	 17	 -0.107212	 0.189074	 -0.126009	 0.110633	 0.701987	 -0.025794	 0.343946	 0.047486	 0.006916	 0.937762	 1
1463623849.925	 17	 -0.084985	 0.172858	 -0.152997	 0.113579	 0.700940	 -0.027598	 0.343489	 0.048574	 0.006547	 0.937877	 1
1463623849.935	 17	 -0.103263	 0.151580	 -0.161561	 0.116837	 0.700587	 -0.029812	 0.343368	 0.049727	 0.006057	 0.937864	 1
1463623849.945	 17	 -0.152467	 0.127262	 -0.161359	 0.119374	 0.699016	 -0.031693	 0.342671	 0.050621	 0.005563	 0.938074	 1
