% Gyrometer data recorded with 'snsrlog'
% 
% 
% Label description:
% 	 0: Default Label
% 	 1: still_drop
% 	 2: walk_drop
% 	 3: other
% 	 4: dtw_same
% 	 5: dtw_diff
% 	 6: delete
% 	 7: steal
% 
% Column description:
% 	 1: Seconds.milliseconds since 1970
% 	 2: Number of skipped measurements
% 	 3: Gyro X
% 	 4: Gyro Y
% 	 5: Gyro Z
% 	 6: Roll of the device
% 	 7: Pitch of the device
% 	 8: Yaw of the device
% 	 9: Quaternion X
% 	 10: Quaternion Y
% 	 11: Quaternion Z
% 	 12: Quaternion W
% 	 13: Label used for the current sample
% 
% 
1463629468.167	 0	 -0.887100	 4.840734	 0.231052	 0.767499	 0.183344	 -0.128454	 0.108639	 0.366611	 -0.025061	 0.923670	 2
1463629468.177	 0	 -0.951564	 5.240499	 0.184177	 0.817451	 0.178156	 -0.120277	 0.105277	 0.390243	 -0.019640	 0.914463	 2
1463629468.187	 0	 -0.949564	 5.517410	 0.089752	 0.870625	 0.172698	 -0.112218	 0.101636	 0.415076	 -0.014350	 0.903978	 2
1463629468.197	 0	 -0.835733	 5.637698	 -0.143522	 0.925709	 0.166671	 -0.105765	 0.097896	 0.440396	 -0.010018	 0.892394	 2
1463629468.207	 0	 -0.580057	 5.658458	 -0.550545	 0.981751	 0.159291	 -0.102930	 0.094247	 0.465672	 -0.007769	 0.879890	 2
1463629468.217	 0	 -0.186435	 5.944886	 -0.933915	 1.040544	 0.150542	 -0.104989	 0.091170	 0.491602	 -0.008067	 0.865997	 2
1463629468.227	 0	 0.315776	 6.276748	 -1.168602	 1.103727	 0.141595	 -0.112022	 0.089419	 0.518769	 -0.010523	 0.850160	 2
1463629468.247	 1	 1.404420	 5.501715	 -1.561506	 1.225581	 0.123506	 -0.141945	 0.091066	 0.569031	 -0.022494	 0.816949	 2
1463629468.257	 1	 1.663808	 5.076630	 -1.846950	 1.279705	 0.111773	 -0.163027	 0.093199	 0.590517	 -0.031974	 0.800988	 2
1463629468.267	 1	 1.453318	 4.913674	 -2.255887	 1.331279	 0.095103	 -0.183574	 0.093769	 0.610841	 -0.042778	 0.785017	 2
1463629468.277	 1	 0.888961	 4.656754	 -2.711641	 1.379978	 0.071928	 -0.199319	 0.090884	 0.630202	 -0.053912	 0.769207	 2
1463629468.287	 1	 0.318619	 4.164573	 -3.051234	 1.423554	 0.043394	 -0.208785	 0.084385	 0.647760	 -0.064790	 0.754380	 2
1463629468.307	 2	 -0.386247	 3.418714	 -3.372831	 1.495660	 -0.022294	 -0.212269	 0.063910	 0.677046	 -0.085201	 0.728192	 2
1463629468.317	 2	 -0.336265	 3.426687	 -3.426480	 1.529851	 -0.056590	 -0.210583	 0.052452	 0.690518	 -0.095273	 0.715093	 2
1463629468.327	 2	 -0.053728	 3.608694	 -3.441102	 1.565438	 -0.091014	 -0.210033	 0.041770	 0.703980	 -0.106147	 0.701000	 2
1463629468.337	 2	 0.367515	 3.752286	 -3.416789	 1.602477	 -0.125287	 -0.212149	 0.032578	 0.717393	 -0.118235	 0.685789	 2
1463629468.347	 2	 0.842039	 3.661655	 -3.402580	 1.638690	 -0.159646	 -0.217730	 0.025023	 0.729975	 -0.131859	 0.670167	 2
1463629468.357	 2	 1.263951	 3.314525	 -3.432931	 1.671276	 -0.194738	 -0.226588	 0.018672	 0.740850	 -0.147110	 0.655096	 2
1463629468.367	 2	 1.522805	 2.778632	 -3.451895	 1.698184	 -0.230686	 -0.237501	 0.012845	 0.749449	 -0.163535	 0.641418	 2
1463629468.377	 2	 1.567847	 2.085557	 -3.378804	 1.718113	 -0.266545	 -0.248722	 0.006975	 0.755481	 -0.180141	 0.629880	 2
1463629468.397	 3	 1.198514	 0.384490	 -2.990690	 1.733573	 -0.333034	 -0.266500	 -0.006465	 0.759299	 -0.210028	 0.615882	 2
1463629468.407	 3	 0.978136	 -0.359976	 -2.778284	 1.729661	 -0.362619	 -0.272479	 -0.014239	 0.757464	 -0.222618	 0.613585	 2
1463629468.417	 3	 0.791899	 -0.829508	 -2.626496	 1.720722	 -0.390179	 -0.276948	 -0.022560	 0.754030	 -0.233862	 0.613383	 2
1463629468.427	 3	 0.640405	 -1.097710	 -2.564792	 1.709037	 -0.416637	 -0.280205	 -0.031410	 0.749680	 -0.244169	 0.614309	 2
1463629468.437	 3	 0.504854	 -1.171166	 -2.482232	 1.696487	 -0.442216	 -0.282412	 -0.040587	 0.744985	 -0.253676	 0.615628	 2
1463629468.447	 3	 0.427818	 -1.158821	 -2.277886	 1.684050	 -0.465934	 -0.284207	 -0.049398	 0.740299	 -0.262256	 0.617040	 2
1463629468.457	 3	 0.391841	 -1.104550	 -1.995706	 1.671946	 -0.486932	 -0.286171	 -0.057294	 0.735757	 -0.269818	 0.618529	 2
1463629468.467	 3	 0.369038	 -1.169692	 -1.747791	 1.659484	 -0.505196	 -0.288489	 -0.064277	 0.731178	 -0.276424	 0.620352	 2
1463629468.477	 3	 0.233195	 -1.487093	 -1.717589	 1.644893	 -0.522482	 -0.290080	 -0.071575	 0.725915	 -0.282290	 0.623086	 2
1463629468.487	 3	 -0.090224	 -2.339724	 -1.795179	 1.624659	 -0.540186	 -0.288761	 -0.080958	 0.718701	 -0.287041	 0.628110	 2
1463629468.497	 3	 -0.539097	 -3.588329	 -1.819942	 1.595025	 -0.558237	 -0.282987	 -0.093504	 0.708189	 -0.289879	 0.636942	 2
1463629468.507	 3	 -1.082504	 -4.685234	 -1.644238	 1.556715	 -0.575222	 -0.271705	 -0.108941	 0.694424	 -0.289805	 0.649554	 2
1463629468.517	 3	 -1.632188	 -5.253048	 -1.258929	 1.514833	 -0.589395	 -0.254317	 -0.125969	 0.678884	 -0.286115	 0.664369	 2
1463629468.527	 3	 -2.035993	 -5.288816	 -0.781482	 1.474422	 -0.599890	 -0.231693	 -0.143050	 0.663193	 -0.279044	 0.679593	 2
1463629468.537	 3	 -2.219184	 -4.912738	 -0.329833	 1.438806	 -0.606748	 -0.205895	 -0.158900	 0.648608	 -0.269579	 0.693819	 2
1463629468.547	 3	 -2.157004	 -4.228722	 0.004245	 1.409661	 -0.610639	 -0.179639	 -0.172620	 0.635987	 -0.259139	 0.706094	 2
1463629468.557	 3	 -1.864276	 -3.381863	 0.153455	 1.387302	 -0.612702	 -0.155901	 -0.183718	 0.625788	 -0.249319	 0.715875	 2
1463629468.567	 3	 -1.386491	 -2.487129	 0.086214	 1.370820	 -0.614473	 -0.137425	 -0.192148	 0.618000	 -0.241644	 0.723023	 2
1463629468.577	 3	 -0.765981	 -1.545861	 -0.106530	 1.359306	 -0.616901	 -0.126432	 -0.197820	 0.612581	 -0.237245	 0.727549	 2
1463629468.587	 3	 -0.024035	 -0.626440	 -0.329310	 1.351943	 -0.620019	 -0.124546	 -0.200442	 0.609486	 -0.236731	 0.729595	 2
1463629468.597	 3	 0.818340	 0.130676	 -0.599237	 1.346354	 -0.623840	 -0.133223	 -0.199909	 0.608043	 -0.240441	 0.729732	 2
1463629468.607	 3	 1.684286	 0.934292	 -0.900910	 1.341936	 -0.628576	 -0.153178	 -0.196172	 0.608082	 -0.248634	 0.727966	 2
1463629468.617	 3	 2.497461	 1.667592	 -1.240079	 1.338584	 -0.634562	 -0.184194	 -0.189429	 0.609468	 -0.261271	 0.724157	 2
1463629468.627	 3	 3.128077	 2.139950	 -1.555574	 1.334830	 -0.641994	 -0.224717	 -0.180395	 0.611424	 -0.277623	 0.718710	 2
1463629468.637	 3	 3.014501	 2.342974	 -1.911858	 1.331911	 -0.652442	 -0.267751	 -0.171622	 0.613626	 -0.295636	 0.711765	 2
1463629468.647	 3	 1.573524	 2.291986	 -2.191805	 1.335978	 -0.668353	 -0.299185	 -0.167413	 0.616984	 -0.311422	 0.703079	 2
1463629468.657	 3	 -0.653047	 2.415774	 -2.448365	 1.356278	 -0.691807	 -0.304347	 -0.171514	 0.623390	 -0.321296	 0.691908	 2
1463629468.667	 3	 -1.315333	 2.565060	 -2.516878	 1.388090	 -0.719066	 -0.294457	 -0.179684	 0.631949	 -0.328169	 0.678719	 2
1463629468.677	 3	 0.026629	 2.323953	 -2.368810	 1.412170	 -0.743312	 -0.295290	 -0.184388	 0.638634	 -0.337370	 0.666581	 2
1463629468.687	 3	 1.538937	 1.670709	 -2.369938	 1.415770	 -0.764851	 -0.315930	 -0.185086	 0.640345	 -0.350506	 0.657911	 2
1463629468.697	 3	 2.347356	 2.120535	 -2.494288	 1.410086	 -0.785650	 -0.352085	 -0.182174	 0.640509	 -0.367466	 0.649253	 2
1463629468.707	 3	 2.226991	 2.451182	 -2.561569	 1.406816	 -0.807124	 -0.390337	 -0.178439	 0.641647	 -0.385201	 0.638803	 2
1463629468.727	 4	 1.892414	 2.702837	 -2.461462	 1.407013	 -0.849713	 -0.459248	 -0.171926	 0.645460	 -0.417786	 0.615856	 2
1463629468.737	 4	 2.262694	 2.644761	 -2.400215	 1.404639	 -0.870083	 -0.497702	 -0.167520	 0.647006	 -0.434357	 0.603866	 2
1463629468.747	 4	 2.685717	 2.724435	 -2.389302	 1.395538	 -0.889134	 -0.544324	 -0.161493	 0.647293	 -0.452115	 0.592050	 2
1463629468.757	 4	 2.760825	 2.843056	 -2.428285	 1.384267	 -0.908002	 -0.594838	 -0.154745	 0.647301	 -0.470358	 0.579499	 2
1463629468.767	 4	 2.686832	 2.799388	 -2.466414	 1.371481	 -0.926877	 -0.646370	 -0.148166	 0.647004	 -0.488294	 0.566570	 2
1463629468.777	 4	 2.681071	 2.748016	 -2.512670	 1.356608	 -0.945904	 -0.699091	 -0.141932	 0.646283	 -0.505929	 0.553362	 2
1463629468.787	 4	 2.933932	 2.746118	 -2.525547	 1.336702	 -0.964153	 -0.757057	 -0.135201	 0.644669	 -0.523951	 0.539998	 2
1463629468.797	 4	 3.091299	 2.680290	 -2.592541	 1.310840	 -0.981646	 -0.821069	 -0.128102	 0.642011	 -0.542464	 0.526446	 2
1463629468.807	 4	 3.087046	 2.476984	 -2.615711	 1.279979	 -0.998377	 -0.888311	 -0.121426	 0.638434	 -0.560745	 0.513052	 2
1463629468.817	 4	 2.918259	 2.189456	 -2.586010	 1.245498	 -1.014148	 -0.955892	 -0.115736	 0.634175	 -0.578109	 0.500217	 2
1463629468.827	 4	 2.733776	 1.880396	 -2.451928	 1.208715	 -1.028286	 -1.022005	 -0.111014	 0.629473	 -0.594149	 0.488289	 2
1463629468.837	 4	 2.644926	 1.597553	 -2.184148	 1.169741	 -1.039341	 -1.086726	 -0.106660	 0.624260	 -0.608849	 0.477729	 2
1463629468.847	 4	 2.548120	 1.356913	 -1.819988	 1.130161	 -1.046333	 -1.148915	 -0.102176	 0.618685	 -0.622123	 0.468776	 2
1463629468.857	 4	 2.200086	 1.007590	 -1.437600	 1.093482	 -1.049769	 -1.204110	 -0.097993	 0.613238	 -0.633377	 0.461704	 2
1463629468.867	 4	 1.328345	 0.355889	 -1.163239	 1.064449	 -1.053160	 -1.243656	 -0.096443	 0.608857	 -0.641246	 0.456942	 2
1463629468.877	 4	 0.578015	 -0.172355	 -0.829104	 1.044511	 -1.057622	 -1.265809	 -0.097810	 0.605909	 -0.645540	 0.454516	 2
1463629468.887	 4	 0.389199	 -0.194157	 -0.245756	 1.032401	 -1.059090	 -1.277143	 -0.098849	 0.603895	 -0.647581	 0.454069	 2
1463629468.897	 4	 0.528723	 0.230093	 0.525391	 1.029060	 -1.053757	 -1.282152	 -0.096417	 0.602715	 -0.648344	 0.455070	 2
1463629468.907	 4	 0.597745	 0.773582	 1.137332	 1.035586	 -1.042170	 -1.282102	 -0.089965	 0.602737	 -0.648161	 0.456620	 2
1463629468.917	 4	 0.494993	 1.155427	 1.683187	 1.051657	 -1.026161	 -1.275864	 -0.080628	 0.604131	 -0.646683	 0.458613	 2
1463629468.927	 4	 0.325716	 1.407109	 2.293422	 1.076630	 -1.005711	 -1.262290	 -0.068986	 0.606837	 -0.643385	 0.461569	 2
1463629468.937	 4	 0.169345	 1.686325	 2.892086	 1.109331	 -0.980366	 -1.242571	 -0.054959	 0.610768	 -0.638159	 0.465506	 2
1463629468.947	 4	 0.071049	 1.872532	 3.448871	 1.147049	 -0.950051	 -1.219017	 -0.038775	 0.615562	 -0.631101	 0.470415	 2
1463629468.957	 4	 0.069793	 1.985735	 3.804834	 1.185584	 -0.915463	 -1.195409	 -0.020944	 0.620535	 -0.622771	 0.476081	 2
1463629468.967	 4	 0.074590	 2.032023	 3.883024	 1.222486	 -0.879008	 -1.174196	 -0.002412	 0.625405	 -0.613829	 0.481744	 2
1463629468.977	 4	 0.109686	 1.797776	 3.862420	 1.254811	 -0.842123	 -1.156308	 0.015678	 0.629517	 -0.604708	 0.487637	 2
1463629468.987	 4	 0.043680	 1.398947	 3.839034	 1.281443	 -0.805172	 -1.140487	 0.032508	 0.632517	 -0.595317	 0.494432	 2
1463629468.997	 4	 -0.285644	 0.933011	 3.695819	 1.304046	 -0.769748	 -1.123454	 0.046998	 0.634939	 -0.585218	 0.502159	 2
1463629469.007	 4	 -0.852346	 0.407873	 3.506161	 1.324221	 -0.737101	 -1.101802	 0.058101	 0.637387	 -0.573841	 0.510949	 2
1463629469.027	 5	 -2.182392	 -0.181528	 2.507243	 1.364062	 -0.687917	 -1.040813	 0.067958	 0.645051	 -0.547820	 0.528378	 2
1463629469.037	 5	 -2.465631	 -0.445660	 1.904030	 1.382739	 -0.672518	 -1.005015	 0.067115	 0.649903	 -0.534623	 0.536004	 2
1463629469.057	 6	 -2.511052	 -0.105498	 0.540218	 1.416613	 -0.660286	 -0.938767	 0.058801	 0.660224	 -0.513066	 0.545353	 2
1463629469.067	 6	 -2.756215	 0.451286	 0.219279	 1.440900	 -0.661425	 -0.904470	 0.053166	 0.667881	 -0.503285	 0.545722	 2
1463629469.077	 6	 -2.850529	 0.771052	 0.275298	 1.470118	 -0.662256	 -0.868401	 0.048013	 0.676804	 -0.492905	 0.544679	 2
1463629469.087	 6	 -2.871439	 0.925685	 0.469822	 1.501496	 -0.660533	 -0.831719	 0.043785	 0.686107	 -0.481789	 0.543341	 2
1463629469.097	 6	 -2.670722	 1.180104	 0.727291	 1.534018	 -0.655425	 -0.796649	 0.041248	 0.695502	 -0.470294	 0.541663	 2
1463629469.107	 6	 -2.106227	 1.603886	 1.019404	 1.566365	 -0.646429	 -0.767910	 0.041905	 0.704610	 -0.459491	 0.539108	 2
1463629469.117	 6	 -1.305723	 2.087383	 1.281242	 1.597274	 -0.634110	 -0.749175	 0.046626	 0.713085	 -0.450417	 0.535220	 2
1463629469.127	 6	 -0.429594	 2.557741	 1.522050	 1.625820	 -0.619253	 -0.741948	 0.055576	 0.720627	 -0.443593	 0.529937	 2
1463629469.137	 6	 0.304482	 3.299140	 1.680288	 1.655274	 -0.603169	 -0.744817	 0.068629	 0.728035	 -0.438807	 0.522211	 2
1463629469.147	 6	 0.816000	 4.141355	 1.570697	 1.688920	 -0.588092	 -0.755136	 0.084859	 0.736087	 -0.435748	 0.510978	 2
1463629469.157	 6	 1.067471	 4.946273	 1.053774	 1.728804	 -0.577503	 -0.769137	 0.102238	 0.745294	 -0.434227	 0.495511	 2
1463629469.177	 7	 1.169056	 5.761104	 -0.942095	 1.827457	 -0.585024	 -0.795320	 0.131219	 0.767202	 -0.436994	 0.450798	 2
1463629469.187	 7	 1.050780	 5.039594	 -1.921886	 1.876290	 -0.604384	 -0.802330	 0.138643	 0.777509	 -0.441388	 0.425952	 2
1463629469.197	 7	 -0.425300	 3.099577	 -2.077359	 1.916898	 -0.624360	 -0.794572	 0.138524	 0.786402	 -0.443400	 0.407161	 2
1463629469.207	 7	 -1.511477	 2.562336	 -1.652991	 1.956812	 -0.636209	 -0.771326	 0.134615	 0.795801	 -0.439913	 0.393773	 2
1463629469.217	 7	 -1.440290	 1.769634	 -0.788128	 1.990615	 -0.639762	 -0.749014	 0.132045	 0.803777	 -0.434512	 0.384325	 2
1463629469.227	 7	 -0.842028	 0.635648	 0.454777	 2.005800	 -0.634484	 -0.738434	 0.132580	 0.807540	 -0.429680	 0.381676	 2
1463629469.237	 7	 -0.726096	 0.503156	 1.590769	 2.010825	 -0.619315	 -0.737531	 0.137611	 0.809005	 -0.423943	 0.383205	 2
1463629469.247	 7	 -0.931208	 0.963494	 2.065773	 2.019090	 -0.597547	 -0.738143	 0.145761	 0.811120	 -0.415914	 0.384518	 2
1463629469.257	 7	 -0.779330	 1.059625	 2.036570	 2.028751	 -0.575339	 -0.739881	 0.154694	 0.813350	 -0.407732	 0.385079	 2
1463629469.267	 7	 -0.407081	 0.885420	 1.925132	 2.035356	 -0.555638	 -0.744916	 0.163570	 0.814592	 -0.401209	 0.385638	 2
1463629469.277	 7	 -0.247733	 0.831964	 1.804947	 2.040150	 -0.538036	 -0.751751	 0.172186	 0.815203	 -0.395864	 0.386120	 2
1463629469.287	 7	 -0.278937	 0.891697	 1.669357	 2.045740	 -0.521648	 -0.758007	 0.180349	 0.815910	 -0.390722	 0.386137	 2
1463629469.297	 7	 -0.326108	 0.997947	 1.488511	 2.052953	 -0.506562	 -0.762898	 0.187871	 0.816967	 -0.385582	 0.385482	 2
1463629469.307	 7	 -0.282011	 1.251521	 1.273071	 2.062803	 -0.493411	 -0.766965	 0.194990	 0.818538	 -0.380671	 0.383491	 2
1463629469.317	 7	 -0.171862	 1.511023	 1.021941	 2.075508	 -0.482895	 -0.770854	 0.201814	 0.820611	 -0.376330	 0.379795	 2
1463629469.327	 7	 -0.020600	 1.680906	 0.749370	 2.090173	 -0.475482	 -0.774727	 0.208122	 0.822998	 -0.372846	 0.374626	 2
1463629469.337	 7	 0.155506	 1.681659	 0.484600	 2.105222	 -0.471296	 -0.778951	 0.213760	 0.825358	 -0.370504	 0.368535	 2
1463629469.347	 7	 0.269854	 1.453135	 0.258734	 2.118577	 -0.469887	 -0.783075	 0.218300	 0.827357	 -0.369295	 0.362556	 2
1463629469.357	 7	 0.376679	 1.164430	 0.090990	 2.129017	 -0.470631	 -0.787192	 0.221740	 0.828781	 -0.369163	 0.357313	 2
1463629469.367	 7	 0.422735	 1.018196	 0.038072	 2.137556	 -0.472479	 -0.791402	 0.224590	 0.829819	 -0.369643	 0.352596	 2
1463629469.377	 7	 0.474485	 0.868379	 0.079923	 2.144505	 -0.474410	 -0.796146	 0.227352	 0.830491	 -0.370407	 0.348416	 2
1463629469.387	 7	 0.546287	 0.669588	 0.123276	 2.149094	 -0.476310	 -0.801850	 0.230090	 0.830625	 -0.371577	 0.345038	 2
1463629469.397	 7	 0.607750	 0.389354	 0.078568	 2.150981	 -0.478737	 -0.807999	 0.232380	 0.830226	 -0.373317	 0.342577	 2
1463629469.407	 7	 0.785145	 -0.136400	 -0.041905	 2.147871	 -0.482847	 -0.814867	 0.233603	 0.828873	 -0.376375	 0.341673	 2
1463629469.417	 7	 1.017683	 -0.709346	 -0.194205	 2.138325	 -0.489309	 -0.823056	 0.233534	 0.826256	 -0.381268	 0.342634	 2
1463629469.427	 7	 1.203247	 -1.001865	 -0.415958	 2.124506	 -0.498493	 -0.832089	 0.232234	 0.822797	 -0.387778	 0.344531	 2
1463629469.437	 7	 1.298483	 -0.937180	 -0.697547	 2.110472	 -0.510459	 -0.840864	 0.229966	 0.819324	 -0.395233	 0.345854	 2
1463629469.447	 7	 1.339683	 -0.483746	 -1.074163	 2.100600	 -0.525633	 -0.848305	 0.227035	 0.816717	 -0.403063	 0.344918	 2
1463629469.457	 7	 1.331977	 0.231508	 -1.446852	 2.098161	 -0.544113	 -0.853852	 0.223887	 0.815576	 -0.410826	 0.340487	 2
1463629469.467	 7	 1.139759	 1.079138	 -1.680285	 2.105552	 -0.564336	 -0.856247	 0.221003	 0.816372	 -0.417518	 0.332225	 2
1463629469.477	 7	 0.837051	 1.834140	 -1.678084	 2.122799	 -0.583523	 -0.855163	 0.219085	 0.819031	 -0.422181	 0.320863	 2
1463629469.487	 7	 0.560380	 2.253626	 -1.438369	 2.146350	 -0.599638	 -0.851810	 0.218458	 0.822767	 -0.424755	 0.308080	 2
1463629469.497	 7	 0.321215	 2.381362	 -1.081265	 2.172327	 -0.611509	 -0.847745	 0.219226	 0.826811	 -0.425507	 0.295411	 2
1463629469.507	 7	 0.065504	 2.257197	 -0.560102	 2.197507	 -0.618026	 -0.844034	 0.221376	 0.830657	 -0.424523	 0.284220	 2
1463629469.517	 7	 -0.101028	 1.986410	 0.018603	 2.219078	 -0.618619	 -0.842458	 0.225137	 0.833830	 -0.422108	 0.275437	 2
1463629469.527	 7	 -0.146705	 1.588328	 0.546046	 2.234952	 -0.614399	 -0.844255	 0.230271	 0.835948	 -0.419015	 0.269429	 2
1463629469.537	 7	 -0.077235	 1.105525	 0.877729	 2.244305	 -0.607434	 -0.849438	 0.236097	 0.836861	 -0.416081	 0.266080	 2
1463629469.547	 7	 -0.007663	 0.574575	 1.023521	 2.247070	 -0.599564	 -0.856839	 0.241685	 0.836630	 -0.413861	 0.265249	 2
1463629469.557	 7	 -0.212241	 0.530408	 1.157046	 2.247991	 -0.589998	 -0.863964	 0.247179	 0.836206	 -0.411198	 0.265665	 2
1463629469.567	 7	 -0.880386	 1.610959	 1.462805	 2.258027	 -0.575100	 -0.868170	 0.254581	 0.837474	 -0.405034	 0.264146	 2
1463629469.577	 7	 -1.735081	 2.942173	 1.791705	 2.285210	 -0.552039	 -0.867325	 0.265106	 0.841811	 -0.392847	 0.258351	 2
1463629469.587	 7	 -2.148259	 2.910359	 1.784349	 2.317601	 -0.524502	 -0.863367	 0.275990	 0.847243	 -0.377584	 0.251872	 2
1463629469.597	 7	 -1.969903	 1.219341	 1.140393	 2.338231	 -0.500821	 -0.856881	 0.282333	 0.851352	 -0.364825	 0.249781	 2
1463629469.607	 7	 -1.318546	 -0.908662	 0.269770	 2.337560	 -0.486815	 -0.848407	 0.281671	 0.852798	 -0.358437	 0.254793	 2
1463629469.617	 7	 -0.240638	 -1.544588	 -0.305058	 2.325942	 -0.484503	 -0.842487	 0.277573	 0.852178	 -0.358402	 0.261329	 2
1463629469.627	 7	 1.018919	 -0.574066	 -0.312322	 2.314295	 -0.491960	 -0.845894	 0.275266	 0.850016	 -0.363338	 0.263983	 2
1463629469.637	 7	 1.565620	 1.894746	 -0.214177	 2.322335	 -0.503613	 -0.856596	 0.278682	 0.849314	 -0.368092	 0.255951	 2
1463629469.647	 7	 1.471294	 2.469679	 -0.464855	 2.342291	 -0.517031	 -0.866153	 0.283461	 0.850111	 -0.371623	 0.242608	 2
1463629469.657	 7	 1.050799	 1.668187	 -0.862984	 2.359916	 -0.530455	 -0.869501	 0.285234	 0.851318	 -0.374661	 0.231363	 2
1463629469.667	 7	 0.675348	 0.054639	 -1.314889	 2.366695	 -0.544400	 -0.865770	 0.281888	 0.852139	 -0.378622	 0.225928	 2
1463629469.677	 7	 0.397007	 -1.395923	 -1.692586	 2.361111	 -0.558852	 -0.856068	 0.273534	 0.852300	 -0.383835	 0.226793	 2
1463629469.687	 7	 0.475609	 -2.350281	 -1.995235	 2.346409	 -0.575542	 -0.843564	 0.261670	 0.851591	 -0.390740	 0.231611	 2
1463629469.697	 7	 0.816104	 -2.658724	 -2.150277	 2.326366	 -0.595850	 -0.832217	 0.248306	 0.849772	 -0.399668	 0.237691	 2
1463629469.707	 7	 1.058284	 -2.226500	 -2.144100	 2.307593	 -0.618539	 -0.823452	 0.235568	 0.847480	 -0.409421	 0.242197	 2
1463629469.717	 8	 1.097703	 -1.226877	 -2.005119	 2.296592	 -0.641072	 -0.816748	 0.225179	 0.845736	 -0.418280	 0.243037	 2
1463629469.737	 8	 0.905472	 0.376288	 -2.333834	 2.304853	 -0.685546	 -0.798993	 0.208937	 0.845941	 -0.431758	 0.233054	 2
1463629469.747	 8	 0.967746	 0.515103	 -2.673063	 2.318959	 -0.711048	 -0.785273	 0.200202	 0.847137	 -0.438185	 0.224215	 2
1463629469.757	 8	 1.052755	 0.018039	 -2.981105	 2.331638	 -0.739345	 -0.768670	 0.189364	 0.847875	 -0.445605	 0.216068	 2
1463629469.777	 9	 0.908004	 -1.043967	 -2.965214	 2.344023	 -0.796959	 -0.730278	 0.162546	 0.847140	 -0.461788	 0.206602	 2
1463629469.787	 9	 0.664393	 -1.262074	 -2.779680	 2.347411	 -0.822162	 -0.709064	 0.148539	 0.846437	 -0.468661	 0.204542	 2
1463629469.797	 9	 0.585522	 -1.583112	 -2.641300	 2.348295	 -0.845385	 -0.687526	 0.134299	 0.845379	 -0.474977	 0.204192	 2
1463629469.807	 9	 0.577097	 -1.821027	 -2.598679	 2.346975	 -0.867974	 -0.665940	 0.119684	 0.843852	 -0.481188	 0.205053	 2
1463629469.817	 9	 0.607840	 -2.021671	 -2.680746	 2.344452	 -0.891124	 -0.643528	 0.104323	 0.841851	 -0.487551	 0.206631	 2
1463629469.827	 9	 0.676366	 -2.127792	 -2.766525	 2.341805	 -0.915397	 -0.620102	 0.088277	 0.839385	 -0.494172	 0.208410	 2
1463629469.837	 9	 0.793038	 -2.080044	 -2.735123	 2.338961	 -0.940433	 -0.597338	 0.072321	 0.836388	 -0.501084	 0.210093	 2
1463629469.847	 9	 0.927068	 -1.816888	 -2.619805	 2.336887	 -0.965732	 -0.576661	 0.057415	 0.833001	 -0.508220	 0.211011	 2
1463629469.867	 10	 1.186308	 -0.902469	 -2.114777	 2.336312	 -1.014400	 -0.546528	 0.033764	 0.825732	 -0.522743	 0.209205	 2
1463629469.877	 10	 1.336127	 -0.378585	 -1.826648	 2.337559	 -1.037055	 -0.539216	 0.025986	 0.822079	 -0.530131	 0.206084	 2
1463629469.887	 10	 1.453278	 -0.020289	 -1.505671	 2.337908	 -1.058476	 -0.537664	 0.020634	 0.818345	 -0.537639	 0.202065	 2
1463629469.897	 10	 1.441459	 0.032971	 -1.054232	 2.327987	 -1.075990	 -0.547952	 0.018192	 0.814098	 -0.544977	 0.199783	 2
1463629469.907	 10	 1.351906	 -0.240773	 -0.705363	 2.317452	 -1.091114	 -0.558031	 0.015939	 0.810227	 -0.551364	 0.198183	 2
1463629469.917	 10	 1.197482	 -0.594942	 -0.472847	 2.301422	 -1.103336	 -0.570368	 0.013648	 0.806332	 -0.556929	 0.198678	 2
1463629469.927	 10	 1.060914	 -0.922255	 -0.344686	 2.281443	 -1.113318	 -0.583239	 0.010879	 0.802461	 -0.561736	 0.200975	 2
1463629469.937	 10	 0.993146	 -1.089647	 -0.280636	 2.257893	 -1.121512	 -0.597455	 0.007953	 0.798549	 -0.566035	 0.204600	 2
1463629469.947	 10	 0.948491	 -1.153539	 -0.162542	 2.233299	 -1.129020	 -0.612042	 0.004927	 0.794648	 -0.570094	 0.208572	 2
1463629469.957	 10	 0.914667	 -1.146522	 -0.088645	 2.207481	 -1.135376	 -0.627838	 0.002203	 0.790809	 -0.573862	 0.212834	 2
1463629469.977	 11	 1.044917	 -0.798991	 -0.219765	 2.156395	 -1.149524	 -0.662497	 -0.002605	 0.782942	 -0.582052	 0.219569	 2
1463629469.987	 11	 1.011587	 -0.578071	 -0.276037	 2.133936	 -1.157254	 -0.680232	 -0.004310	 0.779260	 -0.586323	 0.221272	 2
1463629469.997	 11	 0.955105	 -0.471259	 -0.383259	 2.114288	 -1.165354	 -0.696268	 -0.006063	 0.775853	 -0.590469	 0.222176	 2
1463629470.017	 12	 0.793829	 -0.284385	 -0.639096	 2.085107	 -1.183378	 -0.720421	 -0.010406	 0.769947	 -0.598271	 0.221688	 2
1463629470.027	 12	 0.742267	 -0.260593	 -0.752462	 2.074953	 -1.193380	 -0.728530	 -0.013153	 0.767357	 -0.601947	 0.220565	 2
1463629470.047	 13	 0.698230	 -0.444289	 -0.874219	 2.056392	 -1.215004	 -0.740913	 -0.020188	 0.762156	 -0.609166	 0.218236	 2
1463629470.057	 13	 0.696032	 -0.673051	 -0.886986	 2.044574	 -1.226054	 -0.747010	 -0.024651	 0.759268	 -0.612707	 0.217932	 2
1463629470.067	 13	 0.693651	 -0.936946	 -0.904342	 2.029758	 -1.237221	 -0.753493	 -0.029978	 0.756061	 -0.616203	 0.218557	 2
1463629470.077	 13	 0.676379	 -1.201759	 -0.907721	 2.011930	 -1.248359	 -0.760329	 -0.036159	 0.752556	 -0.619585	 0.220150	 2
1463629470.087	 13	 0.618528	 -1.466504	 -0.918207	 1.991992	 -1.259331	 -0.766603	 -0.043230	 0.748851	 -0.622709	 0.222681	 2
1463629470.097	 13	 0.516021	 -1.699182	 -0.924809	 1.971425	 -1.269971	 -0.770824	 -0.051237	 0.745087	 -0.625378	 0.226102	 2
1463629470.107	 13	 0.472905	 -1.817938	 -0.891434	 1.950346	 -1.280120	 -0.774163	 -0.059648	 0.741306	 -0.627680	 0.230055	 2
1463629470.117	 13	 0.546535	 -1.826598	 -0.882564	 1.926295	 -1.290228	 -0.780158	 -0.068060	 0.737263	 -0.630045	 0.234210	 2
1463629470.127	 13	 0.589206	 -1.834133	 -0.877677	 1.898924	 -1.300477	 -0.789595	 -0.076374	 0.732937	 -0.632575	 0.238368	 2
1463629470.137	 13	 0.536573	 -1.928450	 -0.851452	 1.870305	 -1.310349	 -0.799569	 -0.084862	 0.728552	 -0.634864	 0.242811	 2
1463629470.147	 13	 0.426362	 -2.021453	 -0.814056	 1.842332	 -1.319532	 -0.807766	 -0.093660	 0.724272	 -0.636641	 0.247680	 2
1463629470.157	 13	 0.248336	 -1.996332	 -0.795220	 1.818961	 -1.328019	 -0.811141	 -0.102577	 0.720418	 -0.637730	 0.252539	 2
1463629470.167	 13	 -0.010511	 -1.909298	 -0.778302	 1.804962	 -1.335777	 -0.805704	 -0.111468	 0.717350	 -0.637914	 0.257002	 2
1463629470.177	 13	 -0.345118	 -1.847333	 -0.728984	 1.804241	 -1.342409	 -0.787313	 -0.120396	 0.715327	 -0.636876	 0.261154	 2
1463629470.187	 13	 -0.761725	 -1.754238	 -0.673334	 1.821200	 -1.347516	 -0.751626	 -0.129376	 0.714630	 -0.634331	 0.264934	 2
1463629470.197	 13	 -1.149146	 -1.559317	 -0.644700	 1.858067	 -1.350965	 -0.697286	 -0.138214	 0.715395	 -0.630328	 0.267943	 2
1463629470.207	 13	 -1.436263	 -1.189836	 -0.557764	 1.911717	 -1.352317	 -0.629005	 -0.146239	 0.717530	 -0.625286	 0.269782	 2
1463629470.227	 14	 -1.808166	 0.613874	 -0.145541	 2.058586	 -1.345343	 -0.475335	 -0.154318	 0.727029	 -0.613843	 0.266104	 2
1463629470.237	 14	 -1.808922	 1.551912	 0.431246	 2.132826	 -1.333829	 -0.412656	 -0.151666	 0.734540	 -0.607842	 0.260723	 2
1463629470.247	 14	 -1.597103	 2.162984	 1.180055	 2.186857	 -1.316446	 -0.378007	 -0.144029	 0.742934	 -0.601938	 0.254903	 2
1463629470.257	 14	 -1.252619	 2.590968	 1.962242	 2.213056	 -1.294228	 -0.376683	 -0.131614	 0.751305	 -0.596424	 0.249994	 2
1463629470.267	 14	 -1.005969	 2.743047	 2.352645	 2.222444	 -1.269563	 -0.395352	 -0.116186	 0.759259	 -0.591266	 0.245828	 2
1463629470.277	 14	 -0.794345	 2.581851	 2.356762	 2.225082	 -1.245572	 -0.420271	 -0.100417	 0.766254	 -0.586565	 0.242306	 2
1463629470.287	 14	 -0.575006	 2.273791	 2.058901	 2.225349	 -1.224657	 -0.444989	 -0.085985	 0.771933	 -0.582660	 0.239236	 2
1463629470.297	 14	 -0.457726	 1.775161	 1.548069	 2.226877	 -1.208420	 -0.463647	 -0.074513	 0.776255	 -0.579579	 0.236567	 2
1463629470.307	 14	 -0.498636	 1.451417	 1.035978	 2.233436	 -1.196318	 -0.472794	 -0.066209	 0.779828	 -0.576876	 0.233875	 2
1463629470.317	 14	 -0.654742	 1.459937	 0.681452	 2.248005	 -1.186614	 -0.472614	 -0.059814	 0.783487	 -0.574077	 0.230232	 2
1463629470.327	 14	 -0.896250	 1.654958	 0.636345	 2.270052	 -1.176529	 -0.466033	 -0.053760	 0.787866	 -0.570549	 0.225501	 2
1463629470.337	 14	 -1.091249	 1.985605	 1.124975	 2.292862	 -1.162378	 -0.461822	 -0.045734	 0.793194	 -0.565802	 0.220499	 2
1463629470.347	 14	 -1.180467	 2.389649	 2.097224	 2.307795	 -1.140938	 -0.470569	 -0.033247	 0.799334	 -0.559617	 0.216308	 2
1463629470.357	 14	 -1.140860	 2.630376	 3.187263	 2.310407	 -1.111602	 -0.496298	 -0.015613	 0.805682	 -0.552160	 0.213898	 2
1463629470.367	 14	 -0.972379	 2.651272	 3.936287	 2.302373	 -1.076515	 -0.535298	 0.005956	 0.811433	 -0.544008	 0.213530	 2
1463629470.377	 14	 -0.650108	 2.492302	 3.852069	 2.291186	 -1.042433	 -0.577148	 0.027912	 0.815781	 -0.536646	 0.213852	 2
1463629470.387	 14	 -0.446385	 2.296775	 3.519156	 2.281682	 -1.012046	 -0.615750	 0.048395	 0.818910	 -0.530354	 0.213936	 2
1463629470.397	 14	 -0.379929	 1.985493	 3.155453	 2.274168	 -0.984804	 -0.649278	 0.066759	 0.821213	 -0.524685	 0.214146	 2
1463629470.407	 14	 -0.428228	 1.632391	 2.698573	 2.269307	 -0.960639	 -0.675988	 0.082393	 0.823075	 -0.519343	 0.214574	 2
1463629470.417	 14	 -0.539418	 1.304913	 2.229690	 2.267551	 -0.939387	 -0.695132	 0.095069	 0.824842	 -0.514104	 0.215165	 2
1463629470.427	 14	 -0.606213	 1.061773	 1.821953	 2.268317	 -0.920878	 -0.708107	 0.105201	 0.826604	 -0.509028	 0.215754	 2
1463629470.437	 14	 -0.612524	 0.853512	 1.554695	 2.270047	 -0.904573	 -0.717369	 0.113505	 0.828257	 -0.504248	 0.216429	 2
1463629470.447	 14	 -0.551353	 0.620200	 1.380404	 2.270869	 -0.890020	 -0.725011	 0.120476	 0.829601	 -0.499936	 0.217514	 2
1463629470.457	 14	 -0.425049	 0.346692	 1.262723	 2.269226	 -0.877203	 -0.732559	 0.126370	 0.830405	 -0.496367	 0.219267	 2
1463629470.467	 14	 -0.280751	 0.041227	 1.145653	 2.264317	 -0.866138	 -0.740476	 0.131186	 0.830563	 -0.493674	 0.221905	 2
1463629470.478	 14	 -0.037326	 -0.093035	 1.063418	 2.256535	 -0.857117	 -0.749771	 0.135375	 0.830025	 -0.492071	 0.224943	 2
1463629470.488	 14	 0.315117	 -0.013421	 1.037643	 2.246558	 -0.850424	 -0.762356	 0.139820	 0.828708	 -0.491846	 0.227553	 2
1463629470.498	 14	 0.730637	 0.280106	 1.054875	 2.235578	 -0.846086	 -0.779643	 0.145369	 0.826644	 -0.493098	 0.228870	 2
1463629470.508	 14	 1.066180	 0.594013	 1.063400	 2.224618	 -0.843759	 -0.801254	 0.152175	 0.823999	 -0.495586	 0.228612	 2
1463629470.518	 14	 1.267640	 0.820596	 1.003006	 2.214393	 -0.843000	 -0.825215	 0.159684	 0.821032	 -0.498856	 0.227046	 2
1463629470.528	 14	 1.377083	 1.034358	 0.897466	 2.205803	 -0.843662	 -0.849850	 0.167454	 0.817993	 -0.502559	 0.224233	 2
1463629470.538	 14	 1.393461	 1.210029	 0.781724	 2.199444	 -0.845348	 -0.874014	 0.175271	 0.815081	 -0.506347	 0.220306	 2
1463629470.557	 15	 1.236975	 1.569721	 0.451784	 2.196233	 -0.851117	 -0.916296	 0.190101	 0.810438	 -0.513060	 0.209335	 2
1463629470.568	 15	 1.157826	 1.701440	 0.250139	 2.200060	 -0.855586	 -0.933455	 0.196837	 0.808847	 -0.515889	 0.202188	 2
1463629470.578	 15	 1.090778	 1.683160	 0.049123	 2.206009	 -0.861325	 -0.948010	 0.202723	 0.807569	 -0.518568	 0.194483	 2
1463629470.588	 15	 1.062906	 1.595662	 -0.147548	 2.212843	 -0.868466	 -0.960293	 0.207548	 0.806441	 -0.521301	 0.186605	 2
1463629470.598	 15	 1.074851	 1.583519	 -0.350260	 2.220606	 -0.877296	 -0.970762	 0.211439	 0.805402	 -0.524228	 0.178341	 2
1463629470.608	 15	 1.181712	 1.627928	 -0.636402	 2.229818	 -0.888565	 -0.979836	 0.214511	 0.804385	 -0.527573	 0.169166	 2
1463629470.618	 15	 1.485660	 1.521578	 -1.098316	 2.239394	 -0.904919	 -0.987624	 0.215827	 0.803048	 -0.532287	 0.158757	 2
1463629470.627	 15	 1.945798	 1.311072	 -1.339814	 2.244386	 -0.926636	 -0.998173	 0.215611	 0.800509	 -0.539275	 0.147917	 2
1463629470.637	 15	 1.041081	 2.095909	 -1.133862	 2.259326	 -0.944600	 -1.002993	 0.216802	 0.799494	 -0.543515	 0.135636	 2
1463629470.648	 15	 -0.723539	 3.562096	 -0.600749	 2.299095	 -0.948680	 -0.991569	 0.221925	 0.802927	 -0.539681	 0.121666	 2
1463629470.658	 15	 -1.781365	 4.542088	 0.053840	 2.361858	 -0.938091	 -0.970411	 0.232828	 0.809962	 -0.527970	 0.104885	 2
1463629470.668	 15	 -1.417144	 2.356117	 0.312755	 2.403310	 -0.924981	 -0.955763	 0.240906	 0.815191	 -0.518010	 0.095360	 2
1463629470.678	 15	 -0.917289	 0.363965	 0.366600	 2.416798	 -0.914969	 -0.949002	 0.243999	 0.817759	 -0.512696	 0.094222	 2
1463629470.688	 15	 -0.752849	 -1.117760	 0.270382	 2.412889	 -0.907130	 -0.944183	 0.242875	 0.819021	 -0.510290	 0.099099	 2
1463629470.698	 15	 -0.697733	 -1.957298	 0.097963	 2.399652	 -0.900924	 -0.938273	 0.238547	 0.819720	 -0.509477	 0.107644	 2
1463629470.708	 15	 -0.766722	 -2.051144	 0.035876	 2.384757	 -0.895249	 -0.930614	 0.232966	 0.820388	 -0.508882	 0.117175	 2
1463629470.718	 15	 -0.752774	 -1.499008	 0.205020	 2.373543	 -0.888621	 -0.923829	 0.228921	 0.821181	 -0.507521	 0.125218	 2
1463629470.728	 15	 -0.624048	 -0.903956	 0.471614	 2.365140	 -0.881066	 -0.921193	 0.227527	 0.821712	 -0.505750	 0.131291	 2
1463629470.738	 15	 -0.484566	 -0.397187	 0.595546	 2.359297	 -0.873336	 -0.921940	 0.228225	 0.822006	 -0.503844	 0.135501	 2
1463629470.748	 15	 -0.397278	 0.016231	 0.585844	 2.357181	 -0.866239	 -0.923865	 0.230200	 0.822332	 -0.501808	 0.137722	 2
1463629470.758	 15	 -0.510248	 0.063232	 0.568081	 2.356807	 -0.858899	 -0.925264	 0.232455	 0.822844	 -0.499453	 0.139424	 2
1463629470.768	 15	 -0.870186	 -0.159473	 0.219573	 2.359678	 -0.851013	 -0.920393	 0.233063	 0.824356	 -0.496085	 0.141490	 2
1463629470.778	 15	 -0.877869	 -0.677962	 -0.293554	 2.362912	 -0.845708	 -0.908935	 0.230404	 0.826414	 -0.493069	 0.144348	 2
1463629470.788	 15	 -0.125418	 -0.862245	 -0.321004	 2.359883	 -0.845709	 -0.901161	 0.226444	 0.827081	 -0.492848	 0.147517	 2
1463629470.798	 15	 0.411920	 0.128608	 -0.016983	 2.355985	 -0.848773	 -0.904107	 0.225966	 0.826169	 -0.494562	 0.147621	 2
1463629470.808	 15	 -0.239212	 1.126036	 -0.166159	 2.366260	 -0.849243	 -0.902668	 0.227796	 0.827036	 -0.493454	 0.143610	 2
1463629470.818	 15	 -0.789580	 1.127293	 -0.361719	 2.386409	 -0.846545	 -0.891813	 0.228888	 0.829961	 -0.489450	 0.138612	 2
1463629470.828	 15	 -0.623482	 0.275653	 -0.251725	 2.399487	 -0.843324	 -0.881311	 0.228461	 0.832387	 -0.486101	 0.136543	 2
1463629470.838	 15	 0.200290	 -0.790205	 -0.082307	 2.395372	 -0.843938	 -0.879692	 0.226645	 0.832225	 -0.486674	 0.138497	 2
1463629470.848	 15	 0.828538	 -1.308974	 -0.084078	 2.378190	 -0.849583	 -0.886251	 0.223852	 0.829710	 -0.491050	 0.142624	 2
1463629470.858	 15	 1.043801	 -1.218417	 -0.269487	 2.359281	 -0.858228	 -0.894547	 0.220566	 0.826565	 -0.496749	 0.146226	 2
1463629470.868	 15	 1.317875	 -1.022372	 -0.551410	 2.342348	 -0.870352	 -0.902871	 0.216838	 0.823219	 -0.503364	 0.148041	 2
1463629470.878	 15	 1.692416	 -1.117210	 -0.717549	 2.323326	 -0.886360	 -0.913610	 0.212486	 0.819092	 -0.511601	 0.149002	 2
1463629470.888	 15	 1.892235	 -1.455475	 -0.788514	 2.299154	 -0.904602	 -0.927232	 0.207231	 0.814088	 -0.521191	 0.150585	 2
1463629470.898	 15	 1.813386	 -2.009173	 -0.905951	 2.269904	 -0.923269	 -0.940719	 0.200212	 0.808709	 -0.531230	 0.153946	 2
1463629470.908	 15	 1.583708	 -2.570462	 -1.104208	 2.237353	 -0.941841	 -0.950990	 0.190736	 0.803423	 -0.541068	 0.159303	 2
1463629470.918	 15	 1.265179	 -3.024605	 -1.230355	 2.203428	 -0.959642	 -0.956852	 0.179028	 0.798491	 -0.550148	 0.166427	 2
1463629470.928	 15	 0.978868	 -3.265644	 -1.290867	 2.168863	 -0.977227	 -0.959478	 0.165642	 0.793741	 -0.558616	 0.174603	 2
1463629470.938	 15	 0.821414	 -3.309465	 -1.385827	 2.135640	 -0.993810	 -0.959328	 0.151571	 0.789319	 -0.566082	 0.183175	 2
1463629470.948	 15	 0.805294	 -3.031546	 -1.495222	 2.086574	 -1.036225	 -0.974180	 0.131048	 0.780042	 -0.582841	 0.186166	 2
1463629470.958	 15	 0.867835	 -2.565698	 -1.618258	 2.060066	 -1.054204	 -0.973752	 0.117802	 0.776009	 -0.589306	 0.191447	 2
1463629470.968	 15	 0.998575	 -2.114992	 -1.748422	 2.036621	 -1.073877	 -0.975138	 0.105502	 0.771966	 -0.595933	 0.194427	 2
1463629470.978	 15	 1.171328	 -1.632060	 -1.817904	 2.014990	 -1.095040	 -0.979788	 0.094397	 0.767789	 -0.602899	 0.195197	 2
1463629470.988	 15	 1.406573	 -1.308342	 -1.816940	 1.992100	 -1.117178	 -0.990026	 0.084585	 0.763185	 -0.610431	 0.194340	 2
1463629470.998	 15	 1.700335	 -1.264384	 -1.796708	 1.963025	 -1.140171	 -1.008263	 0.075435	 0.757689	 -0.618864	 0.192936	 2
1463629471.008	 15	 1.914650	 -1.286439	 -1.817963	 1.925935	 -1.163827	 -1.034821	 0.066413	 0.751271	 -0.628107	 0.191475	 2
1463629471.018	 15	 1.970564	 -1.395334	 -1.851436	 1.882217	 -1.187724	 -1.067490	 0.057096	 0.744314	 -0.637652	 0.190094	 2
1463629471.028	 15	 1.771945	 -1.698504	 -1.790713	 1.834076	 -1.210306	 -1.101853	 0.046953	 0.737356	 -0.646597	 0.189771	 2
1463629471.038	 15	 1.384640	 -2.001808	 -1.678259	 1.786252	 -1.230418	 -1.132195	 0.035822	 0.731029	 -0.654087	 0.191008	 2
1463629471.048	 15	 0.962515	 -2.191458	 -1.600679	 1.743460	 -1.248332	 -1.154703	 0.023893	 0.725708	 -0.659836	 0.193371	 2
1463629471.058	 15	 0.699880	 -2.249943	 -1.558437	 1.705537	 -1.264973	 -1.171002	 0.011534	 0.721172	 -0.664284	 0.196226	 2
1463629471.068	 15	 0.639401	 -2.201680	 -1.527620	 1.668349	 -1.280958	 -1.186685	 -0.000741	 0.716880	 -0.668169	 0.199077	 2
1463629471.078	 15	 0.724174	 -2.131484	 -1.493601	 1.626939	 -1.296448	 -1.207466	 -0.012590	 0.712350	 -0.672087	 0.201738	 2
1463629471.088	 15	 0.886261	 -2.179634	 -1.467750	 1.576213	 -1.311449	 -1.237713	 -0.024232	 0.707183	 -0.676379	 0.204492	 2
1463629471.098	 15	 1.005977	 -2.373489	 -1.457807	 1.513239	 -1.325763	 -1.278742	 -0.036234	 0.701220	 -0.681002	 0.207878	 2
1463629471.108	 15	 0.910011	 -2.560587	 -1.483220	 1.446014	 -1.339114	 -1.322151	 -0.048809	 0.695219	 -0.685102	 0.211953	 2
1463629471.118	 15	 0.594876	 -2.587663	 -1.530819	 1.380044	 -1.353039	 -1.363196	 -0.062247	 0.689670	 -0.688376	 0.215915	 2
1463629471.128	 15	 0.190798	 -2.247471	 -1.569963	 1.327328	 -1.367663	 -1.392983	 -0.075428	 0.685561	 -0.690267	 0.218741	 2
1463629471.138	 15	 -0.102816	 -1.614687	 -1.550861	 1.291182	 -1.382844	 -1.411677	 -0.086963	 0.683121	 -0.691111	 0.219429	 2
1463629471.148	 15	 -0.156006	 -0.988372	 -1.446519	 1.264756	 -1.397441	 -1.426989	 -0.096103	 0.681748	 -0.691668	 0.218128	 2
1463629471.158	 15	 -0.057374	 -0.538966	 -1.329160	 1.237737	 -1.410579	 -1.447892	 -0.103029	 0.680666	 -0.692536	 0.215575	 2
1463629471.168	 15	 0.021546	 -0.193757	 -1.214729	 1.207449	 -1.422286	 -1.475746	 -0.108223	 0.679701	 -0.693734	 0.212197	 2
1463629471.178	 15	 0.174914	 0.061141	 -1.057026	 1.171028	 -1.432007	 -1.512596	 -0.111802	 0.678659	 -0.695325	 0.208435	 2
1463629471.188	 15	 0.408738	 0.193358	 -0.917151	 1.120413	 -1.439210	 -1.565363	 -0.114075	 0.677074	 -0.697589	 0.204762	 2
1463629471.198	 15	 0.608104	 0.069045	 -0.818796	 1.053165	 -1.444048	 -1.634417	 -0.115918	 0.674750	 -0.700415	 0.201727	 2
1463629471.208	 15	 0.692271	 -0.468904	 -0.752063	 0.971945	 -1.446955	 -1.713180	 -0.118896	 0.671602	 -0.703298	 0.200467	 2
1463629471.218	 15	 0.521832	 -1.358208	 -0.691711	 0.888444	 -1.449134	 -1.786018	 -0.124625	 0.667984	 -0.705286	 0.202086	 2
1463629471.228	 15	 -0.011665	 -2.314337	 -0.606439	 0.824112	 -1.452973	 -1.829856	 -0.133924	 0.664939	 -0.705068	 0.206881	 2
1463629471.238	 15	 -0.800701	 -2.975685	 -0.455451	 0.803789	 -1.460703	 -1.821746	 -0.146190	 0.663705	 -0.701620	 0.214136	 2
1463629471.248	 15	 -1.495333	 -3.159072	 -0.211312	 0.847968	 -1.471837	 -1.745717	 -0.159558	 0.664728	 -0.695081	 0.222575	 2
1463629471.258	 15	 -1.887713	 -2.957298	 0.173393	 0.974537	 -1.482397	 -1.588214	 -0.171825	 0.667599	 -0.686473	 0.231394	 2
1463629471.268	 15	 -2.043113	 -2.588602	 0.644981	 1.182799	 -1.487394	 -1.352307	 -0.181598	 0.671761	 -0.676752	 0.240344	 2
1463629471.278	 15	 -2.171759	 -2.052353	 1.205287	 1.433552	 -1.482576	 -1.078428	 -0.188040	 0.677210	 -0.666196	 0.249420	 2
1463629471.288	 15	 -2.299589	 -1.221478	 1.620187	 1.660679	 -1.467763	 -0.835925	 -0.190449	 0.684358	 -0.655171	 0.257168	 2
1463629471.298	 15	 -2.270438	 -0.283136	 1.664901	 1.828111	 -1.447035	 -0.662091	 -0.189314	 0.692725	 -0.644577	 0.262323	 2
1463629471.308	 15	 -2.153709	 0.812196	 1.539791	 1.950616	 -1.425380	 -0.543862	 -0.185049	 0.701868	 -0.635420	 0.263400	 2
1463629471.318	 15	 -2.126122	 1.879172	 1.575058	 2.048339	 -1.402337	 -0.461363	 -0.177206	 0.712128	 -0.627320	 0.260653	 2
1463629471.328	 15	 -2.108907	 2.735995	 1.667076	 2.129659	 -1.377631	 -0.404483	 -0.166139	 0.723388	 -0.619806	 0.254849	 2
1463629471.338	 15	 -2.075758	 3.547295	 1.794768	 2.198714	 -1.351333	 -0.367999	 -0.152060	 0.735408	 -0.612628	 0.246456	 2
1463629471.348	 15	 -1.864384	 4.559322	 1.953683	 2.257102	 -1.324438	 -0.352164	 -0.134220	 0.747833	 -0.606244	 0.234945	 2
1463629471.358	 15	 -1.470526	 5.500162	 2.196673	 2.302721	 -1.298014	 -0.359604	 -0.112044	 0.759915	 -0.601129	 0.220498	 2
1463629471.368	 15	 -1.055313	 5.987872	 2.443788	 2.335305	 -1.272660	 -0.387186	 -0.086447	 0.770836	 -0.597101	 0.204475	 2
1463629471.378	 15	 -0.738669	 5.880942	 2.493324	 2.358173	 -1.249249	 -0.425477	 -0.059924	 0.779978	 -0.593700	 0.188583	 2
1463629471.388	 15	 -0.583210	 5.385640	 2.456454	 2.374851	 -1.227627	 -0.466314	 -0.034455	 0.787383	 -0.590372	 0.174074	 2
1463629471.398	 15	 -0.547088	 4.688735	 2.437931	 2.386027	 -1.206818	 -0.506370	 -0.010928	 0.793374	 -0.586703	 0.161921	 2
1463629471.408	 15	 -0.606714	 3.778758	 2.479008	 2.390995	 -1.185776	 -0.544410	 0.010179	 0.798262	 -0.582457	 0.153029	 2
1463629471.418	 15	 -0.778727	 2.473238	 2.637814	 2.385621	 -1.162671	 -0.580731	 0.028205	 0.802243	 -0.577315	 0.149393	 2
1463629471.428	 15	 -1.036912	 1.110635	 2.663618	 2.371912	 -1.137234	 -0.611519	 0.042328	 0.805639	 -0.571158	 0.151434	 2
1463629471.438	 15	 -1.271808	 0.054305	 2.546060	 2.354244	 -1.110436	 -0.634385	 0.052662	 0.808699	 -0.564190	 0.157869	 2
1463629471.448	 15	 -1.474460	 -0.613819	 2.293285	 2.337120	 -1.083607	 -0.648288	 0.059738	 0.811639	 -0.556640	 0.166808	 2
1463629471.458	 15	 -1.608854	 -0.824911	 2.023919	 2.323926	 -1.057544	 -0.654300	 0.064680	 0.814693	 -0.548647	 0.176291	 2
1463629471.468	 15	 -1.484234	 -0.925715	 1.814072	 2.312235	 -1.033477	 -0.657219	 0.068410	 0.817407	 -0.541028	 0.185620	 2
1463629471.488	 16	 -1.002853	 -0.197595	 1.506519	 2.295602	 -0.993734	 -0.664098	 0.076323	 0.821600	 -0.528551	 0.199455	 2
1463629471.498	 16	 -0.682279	 0.391355	 1.449526	 2.292124	 -0.977738	 -0.671171	 0.082185	 0.823280	 -0.523842	 0.202599	 2
1463629471.508	 16	 -0.395978	 0.888440	 1.470842	 2.290868	 -0.963710	 -0.682088	 0.089757	 0.824646	 -0.520120	 0.203415	 2
1463629471.518	 16	 -0.183935	 1.238034	 1.510616	 2.290874	 -0.950886	 -0.696253	 0.098723	 0.825718	 -0.517090	 0.202638	 2
1463629471.528	 16	 -0.017457	 1.475692	 1.496458	 2.291976	 -0.939197	 -0.712452	 0.108548	 0.826524	 -0.514594	 0.200670	 2
1463629471.538	 16	 0.159070	 1.608847	 1.449266	 2.293612	 -0.928989	 -0.730089	 0.118754	 0.826982	 -0.512707	 0.197815	 2
1463629471.548	 16	 0.333128	 1.655990	 1.420480	 2.294691	 -0.920223	 -0.749387	 0.129158	 0.826970	 -0.511489	 0.194470	 2
1463629471.558	 16	 0.486595	 1.644623	 1.381736	 2.294795	 -0.912764	 -0.770063	 0.139566	 0.826478	 -0.510893	 0.190902	 2
1463629471.568	 16	 0.635321	 1.559651	 1.311441	 2.293567	 -0.906752	 -0.791694	 0.149670	 0.825489	 -0.510957	 0.187322	 2
1463629471.578	 16	 0.790330	 1.480772	 1.203847	 2.290982	 -0.902458	 -0.814009	 0.159278	 0.824001	 -0.511759	 0.183726	 2
1463629471.588	 16	 0.947864	 1.501717	 1.075845	 2.288049	 -0.900118	 -0.836796	 0.168489	 0.822118	 -0.513275	 0.179672	 2
1463629471.598	 16	 1.048692	 1.500417	 0.937472	 2.285264	 -0.899516	 -0.859544	 0.177263	 0.819967	 -0.515331	 0.175116	 2
1463629471.608	 16	 1.086367	 1.487359	 0.765434	 2.283191	 -0.900465	 -0.881208	 0.185357	 0.817729	 -0.517705	 0.170128	 2
1463629471.618	 16	 1.087774	 1.482871	 0.587398	 2.282407	 -0.902789	 -0.901156	 0.192708	 0.815550	 -0.520216	 0.164672	 2
1463629471.628	 16	 1.096552	 1.447600	 0.420734	 2.282627	 -0.906433	 -0.919420	 0.199271	 0.813428	 -0.522864	 0.158867	 2
1463629471.638	 16	 1.137319	 1.392155	 0.271723	 2.283187	 -0.911444	 -0.936562	 0.205095	 0.811264	 -0.525769	 0.152820	 2
1463629471.648	 16	 1.205590	 1.291899	 0.114594	 2.283404	 -0.918020	 -0.952937	 0.210091	 0.808963	 -0.529086	 0.146655	 2
1463629471.658	 16	 1.321643	 1.175250	 -0.083602	 2.282861	 -0.926691	 -0.968775	 0.214100	 0.806436	 -0.533040	 0.140325	 2
1463629471.668	 16	 1.452061	 1.023770	 -0.385626	 2.281641	 -0.938243	 -0.983502	 0.216696	 0.803689	 -0.537816	 0.133719	 2
1463629471.678	 16	 1.612717	 0.783388	 -0.761213	 2.279684	 -0.953491	 -0.996419	 0.217357	 0.800728	 -0.543609	 0.126807	 2
1463629471.688	 16	 1.893285	 0.390633	 -1.126473	 2.274396	 -0.973258	 -1.008883	 0.215673	 0.797170	 -0.551003	 0.120004	 2
1463629471.698	 16	 1.713098	 0.152432	 -1.339207	 2.268072	 -0.994795	 -1.018697	 0.212084	 0.793660	 -0.558736	 0.113743	 2
1463629471.708	 16	 0.871216	 0.666190	 -1.381450	 2.273360	 -1.012519	 -1.018025	 0.208556	 0.792245	 -0.563417	 0.106831	 2
1463629471.718	 16	 -0.422796	 2.361911	 -1.126331	 2.306768	 -1.021047	 -1.001462	 0.209120	 0.794757	 -0.561644	 0.095843	 2
1463629471.728	 16	 -0.915844	 2.002687	 -0.701207	 2.348563	 -1.020987	 -0.978921	 0.211834	 0.799032	 -0.556205	 0.085506	 2
1463629471.738	 16	 -0.639764	 0.204420	 -0.255672	 2.368103	 -1.018343	 -0.964008	 0.211950	 0.801754	 -0.552680	 0.082536	 2
1463629471.748	 16	 -0.191899	 -1.237100	 0.026494	 2.362450	 -1.016371	 -0.959709	 0.209159	 0.802211	 -0.552470	 0.086521	 2
1463629471.768	 16	 -0.011167	 -2.345410	 0.095605	 2.319856	 -1.015985	 -0.961276	 0.198073	 0.800077	 -0.556761	 0.103253	 2
1463629471.778	 17	 -0.225661	 -2.319633	 0.336443	 2.295470	 -1.012823	 -0.962325	 0.192515	 0.799017	 -0.558222	 0.113570	 2
1463629471.788	 17	 -0.397242	 -1.814118	 0.601621	 2.274466	 -1.006417	 -0.963812	 0.188931	 0.798341	 -0.558351	 0.123294	 2
1463629471.798	 17	 -0.471750	 -1.026527	 0.789712	 2.260269	 -0.997695	 -0.966175	 0.188230	 0.798146	 -0.557181	 0.130695	 2
1463629471.808	 17	 -0.375964	 -0.507927	 0.914135	 2.250423	 -0.988258	 -0.970552	 0.189757	 0.798045	 -0.555535	 0.136003	 2
1463629471.818	 17	 -0.101177	 -0.269634	 1.031194	 2.239922	 -0.979308	 -0.979419	 0.192782	 0.797354	 -0.554440	 0.140206	 2
1463629471.828	 17	 0.086364	 -0.161198	 1.099845	 2.227551	 -0.971104	 -0.991999	 0.196582	 0.796021	 -0.554067	 0.143931	 2
1463629471.838	 17	 -0.008834	 0.641521	 1.165694	 2.220441	 -0.962178	 -1.005093	 0.202249	 0.794995	 -0.553053	 0.145637	 2
1463629471.848	 17	 -0.508760	 1.651613	 0.917269	 2.230839	 -0.951898	 -1.010322	 0.209986	 0.796092	 -0.549280	 0.142953	 2
1463629471.858	 17	 -0.612537	 1.041575	 0.501112	 2.245504	 -0.943251	 -1.008302	 0.215521	 0.798086	 -0.544963	 0.140088	 2
1463629471.868	 17	 0.119306	 -0.619395	 0.264000	 2.241922	 -0.940135	 -1.010007	 0.216061	 0.797915	 -0.544523	 0.141926	 2
1463629471.878	 17	 0.365198	 -0.449537	 0.172850	 2.228953	 -0.941252	 -1.018113	 0.215452	 0.796019	 -0.546841	 0.144568	 2
1463629471.888	 17	 -1.182820	 1.632125	 -0.574440	 2.251226	 -0.939092	 -1.003958	 0.216454	 0.799315	 -0.542773	 0.140147	 2
1463629471.898	 17	 -1.924221	 2.240087	 -1.225231	 2.301709	 -0.935788	 -0.968717	 0.216756	 0.806850	 -0.533891	 0.130270	 2
1463629471.908	 17	 -1.912180	 1.424052	 -1.254245	 2.349731	 -0.931705	 -0.930117	 0.214850	 0.814466	 -0.524951	 0.122111	 2
1463629471.918	 17	 -1.353873	 -0.251650	 -1.099914	 2.377003	 -0.928795	 -0.898574	 0.209791	 0.819789	 -0.519176	 0.119956	 2
1463629471.928	 17	 -0.159613	 -1.970484	 -0.916351	 2.375176	 -0.931918	 -0.881254	 0.201461	 0.821096	 -0.519362	 0.124409	 2
1463629471.938	 17	 0.937461	 -2.666961	 -0.887574	 2.351131	 -0.943035	 -0.879123	 0.191615	 0.818464	 -0.525333	 0.132005	 2
1463629471.948	 17	 1.453995	 -2.458583	 -1.130995	 2.322554	 -0.960037	 -0.883118	 0.181473	 0.814182	 -0.533908	 0.138266	 2
1463629471.958	 17	 2.036205	 -2.426332	 -1.288168	 2.290607	 -0.981913	 -0.892711	 0.171206	 0.808561	 -0.544496	 0.142973	 2
1463629471.968	 17	 2.740222	 -2.746195	 -1.257841	 2.246224	 -1.008245	 -0.913891	 0.160605	 0.800586	 -0.557994	 0.148023	 2
1463629471.978	 17	 3.014151	 -2.920539	 -1.135022	 2.189850	 -1.035509	 -0.946033	 0.150042	 0.790873	 -0.572984	 0.153936	 2
1463629471.988	 17	 2.714468	 -2.911932	 -1.096097	 2.130598	 -1.060335	 -0.980750	 0.139476	 0.781197	 -0.587047	 0.160168	 2
1463629471.998	 17	 2.046301	 -2.909138	 -1.127555	 2.076818	 -1.081288	 -1.008875	 0.128320	 0.772972	 -0.598558	 0.166664	 2
1463629472.008	 17	 1.365867	 -2.779846	 -1.173716	 2.033049	 -1.098670	 -1.026342	 0.116616	 0.766687	 -0.607144	 0.173113	 2
1463629472.018	 17	 0.955604	 -2.377025	 -1.232473	 1.999852	 -1.114129	 -1.035578	 0.105268	 0.761998	 -0.613570	 0.178354	 2
1463629472.028	 17	 0.828879	 -1.789157	 -1.326081	 1.975321	 -1.129428	 -1.041242	 0.095102	 0.758301	 -0.618920	 0.181312	 2
1463629472.038	 17	 0.907186	 -1.146808	 -1.450808	 1.956491	 -1.145901	 -1.047559	 0.086464	 0.755026	 -0.624125	 0.181460	 2
1463629472.048	 17	 1.079300	 -0.566085	 -1.528967	 1.940362	 -1.163769	 -1.057512	 0.079494	 0.751784	 -0.629669	 0.178936	 2
1463629472.068	 17	 1.537545	 0.004548	 -1.562817	 1.901324	 -1.202378	 -1.096782	 0.069352	 0.744064	 -0.642647	 0.169010	 2
1463629472.058	 17	 1.296666	 -0.158530	 -1.561171	 1.923330	 -1.182682	 -1.073296	 0.073980	 0.748238	 -0.635786	 0.174475	 2
1463629472.078	 17	 1.731177	 -0.145779	 -1.533929	 1.870326	 -1.222278	 -1.128909	 0.064742	 0.739048	 -0.650220	 0.163796	 2
1463629472.088	 17	 1.768109	 -0.499732	 -1.487453	 1.829735	 -1.241586	 -1.167666	 0.059331	 0.733397	 -0.658077	 0.159824	 2
1463629472.098	 17	 1.640728	 -0.847875	 -1.439493	 1.783013	 -1.259619	 -1.208807	 0.052825	 0.727636	 -0.665579	 0.157354	 2
1463629472.108	 17	 1.423363	 -1.046809	 -1.386163	 1.734861	 -1.276158	 -1.248727	 0.045542	 0.722247	 -0.672285	 0.155943	 2
1463629472.118	 17	 1.235818	 -1.261757	 -1.328979	 1.686265	 -1.291238	 -1.286823	 0.037634	 0.717272	 -0.678181	 0.155484	 2
1463629472.128	 17	 1.097515	 -1.441774	 -1.275096	 1.636144	 -1.305085	 -1.324293	 0.029133	 0.712548	 -0.683456	 0.155928	 2
1463629472.138	 17	 0.999232	 -1.498617	 -1.233205	 1.584732	 -1.317904	 -1.362095	 0.020419	 0.708044	 -0.688232	 0.156824	 2
1463629472.148	 17	 0.955388	 -1.530288	 -1.218197	 1.530524	 -1.329985	 -1.402234	 0.011593	 0.703608	 -0.692720	 0.157926	 2
1463629472.158	 17	 0.936299	 -1.506815	 -1.215681	 1.473096	 -1.341451	 -1.445925	 0.002888	 0.699216	 -0.697018	 0.158914	 2
1463629472.168	 17	 0.953468	 -1.678405	 -1.256860	 1.408307	 -1.352568	 -1.495641	 -0.006395	 0.694584	 -0.701307	 0.160253	 2
1463629472.178	 17	 0.898584	 -1.741292	 -1.297467	 1.337601	 -1.363395	 -1.550232	 -0.016214	 0.689887	 -0.705422	 0.161779	 2
1463629472.188	 17	 0.776920	 -1.710367	 -1.335553	 1.265079	 -1.374022	 -1.606690	 -0.026201	 0.685487	 -0.709099	 0.163095	 2
1463629472.198	 17	 0.637591	 -1.591003	 -1.358807	 1.192581	 -1.384531	 -1.663939	 -0.036071	 0.681548	 -0.712258	 0.163954	 2
1463629472.208	 17	 0.493930	 -1.303193	 -1.329300	 1.122882	 -1.394697	 -1.720706	 -0.045142	 0.678252	 -0.714874	 0.163987	 2
1463629472.218	 17	 0.401143	 -0.908781	 -1.245955	 1.057453	 -1.404010	 -1.776891	 -0.052696	 0.675618	 -0.717084	 0.162956	 2
1463629472.228	 17	 0.406297	 -0.577303	 -1.148063	 0.993085	 -1.411962	 -1.835498	 -0.058673	 0.673327	 -0.719199	 0.161061	 2
1463629472.238	 17	 0.455967	 -0.316107	 -1.043752	 0.926997	 -1.418167	 -1.898516	 -0.063289	 0.671093	 -0.721432	 0.158636	 2
1463629472.248	 17	 0.473303	 -0.116554	 -0.946127	 0.861218	 -1.422798	 -1.963552	 -0.066705	 0.668966	 -0.723719	 0.155776	 2
1463629472.258	 17	 0.503880	 -0.072145	 -0.823417	 0.796488	 -1.425755	 -2.028170	 -0.069469	 0.666816	 -0.726007	 0.153114	 2
1463629472.268	 17	 0.520615	 0.000831	 -0.726965	 0.734385	 -1.427218	 -2.090722	 -0.071645	 0.664654	 -0.728293	 0.150637	 2
1463629472.278	 17	 0.507942	 -0.048451	 -0.634592	 0.676392	 -1.427565	 -2.149071	 -0.073530	 0.662522	 -0.730482	 0.148507	 2
1463629472.288	 17	 0.433077	 -0.390013	 -0.538003	 0.623213	 -1.427320	 -2.199907	 -0.076101	 0.660421	 -0.732309	 0.147566	 2
1463629472.298	 17	 0.164928	 -1.007345	 -0.413521	 0.579424	 -1.427784	 -2.235613	 -0.080484	 0.658704	 -0.733134	 0.148814	 2
1463629472.308	 17	 -0.392444	 -1.666048	 -0.244276	 0.556133	 -1.431351	 -2.243918	 -0.087138	 0.658318	 -0.731938	 0.152612	 2
1463629472.318	 17	 -1.056138	 -2.078196	 0.000661	 0.566897	 -1.439268	 -2.212930	 -0.095333	 0.659996	 -0.728138	 0.158532	 2
1463629472.328	 17	 -1.550977	 -2.264908	 0.306975	 0.623408	 -1.449963	 -2.133526	 -0.103822	 0.663542	 -0.722063	 0.166006	 2
1463629472.338	 17	 -1.806155	 -2.335210	 0.629337	 0.731417	 -1.460221	 -2.001364	 -0.111855	 0.668151	 -0.714505	 0.174771	 2
1463629472.348	 17	 -2.019446	 -2.164896	 1.001533	 0.900264	 -1.467127	 -1.809167	 -0.118485	 0.673653	 -0.705818	 0.184320	 2
1463629472.358	 17	 -2.245900	 -1.816100	 1.340334	 1.125805	 -1.468014	 -1.563301	 -0.122950	 0.680295	 -0.696059	 0.193865	 2
1463629472.368	 17	 -2.533741	 -1.470246	 1.542158	 1.374108	 -1.461473	 -1.297963	 -0.125630	 0.688154	 -0.685213	 0.202839	 2
1463629472.378	 17	 -2.839073	 -1.130369	 1.646029	 1.609505	 -1.447392	 -1.048794	 -0.126990	 0.697320	 -0.673191	 0.210790	 2
1463629472.388	 17	 -2.998705	 -0.599029	 1.664087	 1.804269	 -1.426681	 -0.844654	 -0.126822	 0.707481	 -0.660482	 0.217141	 2
1463629472.398	 17	 -2.947121	 0.224520	 1.581777	 1.953485	 -1.402370	 -0.693666	 -0.124361	 0.718215	 -0.648142	 0.220486	 2
1463629472.408	 17	 -2.717680	 1.342865	 1.595515	 2.064741	 -1.376185	 -0.591153	 -0.118354	 0.729270	 -0.636953	 0.220112	 2
1463629472.418	 17	 -2.307349	 2.745142	 1.675331	 2.147647	 -1.349627	 -0.530822	 -0.107393	 0.740464	 -0.627595	 0.215184	 2
1463629472.428	 17	 -1.734089	 3.973378	 1.874672	 2.206208	 -1.324017	 -0.508587	 -0.091100	 0.751128	 -0.620499	 0.206130	 2
1463629472.438	 17	 -1.207382	 4.669248	 2.270893	 2.241920	 -1.298801	 -0.518570	 -0.070263	 0.760655	 -0.615139	 0.195116	 2
1463629472.448	 17	 -0.840372	 4.675037	 2.777186	 2.256879	 -1.272428	 -0.552106	 -0.046578	 0.768729	 -0.610482	 0.184927	 2
1463629472.458	 17	 -0.603201	 4.125595	 3.227220	 2.254358	 -1.244121	 -0.599828	 -0.022085	 0.775142	 -0.605866	 0.177748	 2
1463629472.468	 17	 -0.484460	 3.240503	 3.545139	 2.238971	 -1.213850	 -0.653059	 0.001483	 0.779896	 -0.601033	 0.174697	 2
1463629472.478	 17	 -0.570713	 2.296955	 3.639424	 2.218210	 -1.181834	 -0.702469	 0.022775	 0.783481	 -0.595616	 0.175728	 2
1463629472.488	 17	 -0.801340	 1.516721	 3.462584	 2.200145	 -1.149163	 -0.740622	 0.040971	 0.786618	 -0.589320	 0.179600	 2
1463629472.498	 17	 -1.065122	 0.822919	 3.164274	 2.186977	 -1.117015	 -0.766139	 0.055751	 0.789660	 -0.582194	 0.185416	 2
1463629472.508	 17	 -1.336264	 0.185228	 2.827117	 2.177812	 -1.085857	 -0.780186	 0.067059	 0.792751	 -0.574313	 0.192905	 2
1463629472.518	 17	 -1.497972	 -0.278788	 2.429875	 2.171826	 -1.056692	 -0.785011	 0.075170	 0.795859	 -0.566057	 0.201339	 2
1463629472.528	 17	 -1.493130	 -0.513454	 2.046107	 2.167756	 -1.030558	 -0.784272	 0.080822	 0.798768	 -0.558047	 0.209810	 2
1463629472.538	 17	 -1.363956	 -0.472450	 1.739490	 2.165102	 -1.007698	 -0.781493	 0.085174	 0.801370	 -0.550709	 0.217420	 2
1463629472.548	 17	 -1.075262	 -0.160152	 1.507546	 2.164003	 -0.988344	 -0.779885	 0.089472	 0.803584	 -0.544468	 0.223166	 2
1463629472.558	 17	 -0.779337	 0.213738	 1.411464	 2.163789	 -0.971744	 -0.781564	 0.094582	 0.805363	 -0.539385	 0.226954	 2
1463629472.568	 17	 -0.539505	 0.626598	 1.386574	 2.164937	 -0.956883	 -0.786502	 0.100899	 0.806883	 -0.535138	 0.228880	 2
1463629472.578	 17	 -0.332728	 1.013244	 1.400095	 2.167623	 -0.943180	 -0.794520	 0.108554	 0.808227	 -0.531513	 0.229085	 2
1463629472.588	 17	 -0.150923	 1.316936	 1.404535	 2.171537	 -0.930488	 -0.805150	 0.117312	 0.809377	 -0.528416	 0.227868	 2
1463629472.598	 17	 -0.011585	 1.461040	 1.385479	 2.175894	 -0.918792	 -0.817705	 0.126693	 0.810266	 -0.525796	 0.225738	 2
1463629472.608	 17	 0.047783	 1.439062	 1.312286	 2.180151	 -0.908044	 -0.830667	 0.135952	 0.810921	 -0.523495	 0.223331	 2
1463629472.618	 17	 0.084260	 1.354063	 1.192877	 2.184238	 -0.898444	 -0.842983	 0.144591	 0.811400	 -0.521468	 0.220896	 2
1463629472.628	 17	 0.172026	 1.295395	 1.058347	 2.187959	 -0.890365	 -0.854960	 0.152585	 0.811643	 -0.519890	 0.218332	 2
1463629472.638	 17	 0.315350	 1.270427	 0.900200	 2.191260	 -0.884310	 -0.867194	 0.160027	 0.811571	 -0.518998	 0.215370	 2
1463629472.648	 17	 0.454040	 1.188920	 0.717054	 2.193824	 -0.880555	 -0.879583	 0.166723	 0.811151	 -0.518899	 0.212086	 2
1463629472.658	 17	 0.547951	 1.110785	 0.540724	 2.195774	 -0.878902	 -0.891663	 0.172569	 0.810469	 -0.519472	 0.208590	 2
1463629472.668	 17	 0.608372	 1.165757	 0.372319	 2.198476	 -0.879031	 -0.903005	 0.177831	 0.809744	 -0.520448	 0.204513	 2
1463629472.678	 17	 0.672249	 1.269687	 0.209669	 2.202737	 -0.880871	 -0.913629	 0.182749	 0.809068	 -0.521726	 0.199535	 2
1463629472.688	 17	 0.744355	 1.316091	 0.037885	 2.208130	 -0.884515	 -0.923591	 0.187212	 0.808384	 -0.523369	 0.193785	 2
1463629472.698	 17	 0.831030	 1.303779	 -0.158019	 2.214068	 -0.890210	 -0.932840	 0.190985	 0.807615	 -0.525498	 0.187442	 2
1463629472.708	 17	 0.919519	 1.241321	 -0.374654	 2.220143	 -0.898166	 -0.941199	 0.193836	 0.806719	 -0.528202	 0.180654	 2
1463629472.718	 17	 0.994907	 1.129858	 -0.607618	 2.226143	 -0.908444	 -0.948349	 0.195568	 0.805696	 -0.531489	 0.173570	 2
1463629472.728	 17	 1.093370	 0.944838	 -0.854257	 2.231450	 -0.921207	 -0.954225	 0.195947	 0.804478	 -0.535469	 0.166408	 2
1463629472.738	 17	 1.282887	 0.628535	 -1.127422	 2.234415	 -0.937109	 -0.959552	 0.194643	 0.802794	 -0.540564	 0.159456	 2
1463629472.748	 17	 1.589406	 0.005556	 -1.402329	 2.231128	 -0.956898	 -0.965834	 0.190963	 0.800128	 -0.547469	 0.153646	 2
1463629472.758	 17	 1.689776	 -0.698352	 -1.627168	 2.220230	 -0.979745	 -0.972612	 0.184485	 0.796527	 -0.555935	 0.149821	 2
1463629472.768	 17	 1.099254	 -0.774287	 -1.630194	 2.211311	 -1.000677	 -0.973417	 0.176595	 0.793781	 -0.563046	 0.147326	 2
1463629472.778	 17	 -0.392970	 1.085800	 -1.230073	 2.229145	 -1.011800	 -0.958326	 0.172589	 0.795265	 -0.563711	 0.141410	 2
1463629472.788	 17	 -1.206919	 1.467658	 -0.529885	 2.265070	 -1.010483	 -0.934154	 0.173381	 0.799974	 -0.558539	 0.134224	 2
1463629472.798	 17	 -1.146524	 0.175452	 0.091694	 2.285558	 -1.003161	 -0.916480	 0.173910	 0.803710	 -0.553306	 0.132885	 2
1463629472.808	 17	 -0.751818	 -1.297184	 0.461426	 2.281864	 -0.994482	 -0.909207	 0.172221	 0.805087	 -0.550402	 0.138680	 2
1463629472.818	 17	 -0.286350	 -2.148507	 0.443056	 2.262244	 -0.988364	 -0.909137	 0.168392	 0.804374	 -0.550145	 0.148216	 2
1463629472.828	 17	 -0.062505	 -2.502548	 0.259831	 2.236102	 -0.985377	 -0.911297	 0.162850	 0.802511	 -0.551544	 0.158919	 2
1463629472.838	 17	 -0.180224	 -2.534438	 0.214731	 2.210272	 -0.982894	 -0.911693	 0.156543	 0.800615	 -0.552873	 0.169827	 2
1463629472.848	 17	 -0.440455	 -2.120370	 0.300782	 2.189855	 -0.978442	 -0.909166	 0.151099	 0.799472	 -0.552859	 0.179889	 2
1463629472.858	 17	 -0.551650	 -1.349220	 0.406976	 2.177648	 -0.972255	 -0.905128	 0.147811	 0.799257	 -0.551513	 0.187546	 2
1463629472.868	 17	 -0.393143	 -0.715420	 0.602265	 2.170053	 -0.965201	 -0.904122	 0.147259	 0.799282	 -0.549826	 0.192753	 2
1463629472.878	 17	 -0.169466	 -0.571676	 0.860635	 2.160446	 -0.957452	 -0.908688	 0.148587	 0.798724	 -0.548622	 0.197421	 2
1463629472.888	 17	 -0.197286	 -0.262220	 1.281536	 2.149665	 -0.946782	 -0.917277	 0.152027	 0.797945	 -0.547052	 0.202252	 2
1463629472.898	 17	 -0.391317	 0.814308	 1.664128	 2.146914	 -0.931739	 -0.927111	 0.159394	 0.798158	 -0.543707	 0.204745	 2
1463629472.908	 17	 -0.721527	 1.639433	 1.644840	 2.156562	 -0.914156	 -0.933722	 0.169532	 0.800001	 -0.538232	 0.203871	 2
1463629472.918	 17	 -0.971173	 1.404601	 1.135394	 2.172736	 -0.898300	 -0.932731	 0.177828	 0.802960	 -0.531839	 0.201941	 2
1463629472.928	 17	 -0.419762	 0.167748	 0.642688	 2.178859	 -0.888605	 -0.931371	 0.181551	 0.804446	 -0.528129	 0.202449	 2
1463629472.938	 17	 0.003503	 0.209211	 0.223772	 2.176981	 -0.885734	 -0.934247	 0.182994	 0.804211	 -0.527694	 0.203217	 2
1463629472.948	 17	 -0.601054	 1.784559	 -0.440524	 2.196902	 -0.885439	 -0.926434	 0.185170	 0.806948	 -0.524985	 0.197328	 2
1463629472.958	 17	 -1.073322	 2.367853	 -1.010759	 2.236208	 -0.886547	 -0.905533	 0.186678	 0.812572	 -0.519680	 0.186579	 2
1463629472.968	 17	 -1.029415	 1.749700	 -1.313176	 2.275892	 -0.889463	 -0.879723	 0.185662	 0.818308	 -0.514601	 0.176317	 2
1463629472.978	 17	 -0.355372	 0.293868	 -1.299553	 2.298861	 -0.895694	 -0.859153	 0.181557	 0.821569	 -0.512794	 0.170601	 2
1463629472.988	 17	 0.514095	 -1.219237	 -1.184785	 2.297255	 -0.906844	 -0.849978	 0.174588	 0.821084	 -0.515909	 0.170818	 2
1463629472.998	 17	 0.892470	 -1.792392	 -1.160375	 2.281994	 -0.920995	 -0.847647	 0.166112	 0.818456	 -0.521745	 0.174121	 2
1463629473.008	 17	 1.133259	 -1.769553	 -1.286953	 2.263922	 -0.937315	 -0.847841	 0.157284	 0.815092	 -0.528623	 0.177326	 2
1463629473.018	 17	 1.613228	 -1.720808	 -1.411109	 2.242831	 -0.957446	 -0.852485	 0.148335	 0.810665	 -0.537204	 0.179528	 2
1463629473.028	 17	 2.098134	 -1.453810	 -1.357427	 2.216782	 -0.980542	 -0.865376	 0.140376	 0.804872	 -0.547601	 0.180579	 2
1463629473.038	 17	 2.218207	 -1.178112	 -1.278107	 2.188854	 -1.004034	 -0.884076	 0.133804	 0.798531	 -0.558478	 0.180410	 2
1463629473.048	 17	 2.036848	 -1.342857	 -1.335612	 2.160373	 -1.026724	 -0.902609	 0.126882	 0.792340	 -0.568815	 0.180410	 2
1463629473.058	 17	 1.757952	 -1.767321	 -1.459696	 2.130945	 -1.048676	 -0.917531	 0.118141	 0.786467	 -0.578348	 0.181731	 2
1463629473.068	 17	 1.441143	 -2.089526	 -1.578235	 2.101906	 -1.069808	 -0.927689	 0.107587	 0.781061	 -0.586867	 0.184270	 2
1463629473.078	 17	 1.106619	 -2.298074	 -1.724339	 2.075689	 -1.090332	 -0.931880	 0.095479	 0.776317	 -0.594202	 0.187458	 2
1463629473.088	 17	 0.898694	 -2.308579	 -1.936844	 2.053897	 -1.111443	 -0.930338	 0.082123	 0.772162	 -0.600654	 0.190358	 2
1463629473.098	 17	 0.823547	 -2.120585	 -2.003715	 2.035504	 -1.132984	 -0.926549	 0.068671	 0.768300	 -0.606605	 0.192429	 2
1463629473.108	 17	 0.840050	 -1.769813	 -2.027239	 2.020123	 -1.154805	 -0.922996	 0.056047	 0.764605	 -0.612320	 0.193139	 2
1463629473.118	 17	 0.896212	 -1.406187	 -2.022213	 2.006799	 -1.176867	 -0.921200	 0.044571	 0.760960	 -0.618008	 0.192403	 2
1463629473.128	 17	 0.985588	 -1.036092	 -1.991837	 1.994513	 -1.199056	 -0.922278	 0.034395	 0.757291	 -0.623793	 0.190287	 2
1463629473.138	 17	 1.101413	 -0.727654	 -1.946279	 1.981614	 -1.221295	 -0.927548	 0.025514	 0.753475	 -0.629805	 0.187000	 2
1463629473.148	 17	 1.237741	 -0.594793	 -1.903599	 1.965268	 -1.243613	 -0.938366	 0.017500	 0.749299	 -0.636168	 0.183124	 2
1463629473.158	 17	 1.339200	 -0.627638	 -1.845106	 1.943006	 -1.265826	 -0.955249	 0.009746	 0.744651	 -0.642820	 0.179396	 2
1463629473.168	 17	 1.413890	 -0.708020	 -1.752717	 1.913569	 -1.287330	 -0.978896	 0.002203	 0.739592	 -0.649593	 0.176146	 2
1463629473.178	 17	 1.457880	 -0.937428	 -1.689157	 1.875154	 -1.308093	 -1.009748	 -0.005648	 0.734085	 -0.656415	 0.173802	 2
1463629473.188	 17	 1.427909	 -1.236809	 -1.624539	 1.827561	 -1.327850	 -1.046874	 -0.014242	 0.728247	 -0.663040	 0.172718	 2
1463629473.198	 17	 1.358830	 -1.455249	 -1.560959	 1.772225	 -1.346323	 -1.089294	 -0.023452	 0.722300	 -0.669259	 0.172701	 2
1463629473.208	 17	 1.303946	 -1.580351	 -1.527541	 1.709385	 -1.363662	 -1.137703	 -0.033055	 0.716319	 -0.675094	 0.173327	 2
1463629473.218	 17	 1.298270	 -1.653713	 -1.526042	 1.636762	 -1.380152	 -1.195107	 -0.042905	 0.710214	 -0.680732	 0.174238	 2
1463629473.228	 17	 1.285819	 -1.824743	 -1.501947	 1.551172	 -1.395529	 -1.264133	 -0.053157	 0.703892	 -0.686189	 0.175659	 2
1463629473.238	 17	 1.271501	 -2.102669	 -1.552368	 1.449530	 -1.409946	 -1.346658	 -0.064387	 0.697257	 -0.691416	 0.177853	 2
1463629473.248	 17	 1.190272	 -2.480876	 -1.671348	 1.329489	 -1.423900	 -1.444022	 -0.077250	 0.690321	 -0.696261	 0.180858	 2
1463629473.258	 17	 0.980884	 -2.885253	 -1.784127	 1.193155	 -1.437503	 -1.553586	 -0.092060	 0.683391	 -0.700272	 0.184717	 2
1463629473.268	 17	 0.605917	 -3.147261	 -1.838720	 1.049373	 -1.450920	 -1.667319	 -0.108478	 0.677088	 -0.702848	 0.189182	 2
1463629473.278	 17	 0.099191	 -3.120127	 -1.822326	 0.925950	 -1.464878	 -1.760049	 -0.125241	 0.672712	 -0.703035	 0.193686	 2
1463629473.288	 17	 -0.325659	 -2.761964	 -1.738559	 0.798598	 -1.479815	 -1.859139	 -0.141490	 0.669541	 -0.702067	 0.196969	 2
1463629473.298	 17	 -0.454371	 -2.114942	 -1.596066	 0.666737	 -1.494047	 -1.968500	 -0.155405	 0.667625	 -0.700498	 0.198569	 2
1463629473.308	 17	 -0.239048	 -1.376448	 -1.461046	 0.500423	 -1.504906	 -2.119580	 -0.166161	 0.665963	 -0.699688	 0.198294	 2
1463629473.318	 17	 0.180631	 -0.769236	 -1.306645	 0.291621	 -1.509484	 -2.319733	 -0.173739	 0.663680	 -0.700481	 0.196645	 2
1463629473.328	 17	 0.587901	 -0.540542	 -1.139673	 0.086415	 -1.506850	 -2.519633	 -0.179154	 0.660358	 -0.702760	 0.194833	 2
1463629473.338	 17	 0.832361	 -0.628639	 -1.015795	 -0.074306	 -1.499060	 -2.674750	 -0.183933	 0.656072	 -0.705812	 0.193822	 2
1463629473.348	 17	 0.877970	 -0.838070	 -0.836962	 -0.182417	 -1.489178	 -2.775340	 -0.188753	 0.651371	 -0.708825	 0.194049	 2
1463629473.358	 17	 0.667389	 -1.139672	 -0.565100	 -0.246821	 -1.480617	 -2.829353	 -0.193853	 0.647114	 -0.710825	 0.195938	 2
1463629473.368	 17	 0.209500	 -1.382054	 -0.293730	 -0.288293	 -1.476428	 -2.857619	 -0.199427	 0.644251	 -0.710954	 0.199283	 2
1463629473.378	 17	 -0.289948	 -1.400822	 -0.003932	 -0.315756	 -1.477851	 -2.871027	 -0.204861	 0.643366	 -0.709048	 0.203377	 2
1463629473.388	 17	 -0.607941	 -1.190348	 0.290683	 -0.324417	 -1.483661	 -2.867121	 -0.209160	 0.644212	 -0.705788	 0.207622	 2
1463629473.398	 17	 -0.805774	 -0.863074	 0.606653	 -0.301697	 -1.492510	 -2.834837	 -0.211585	 0.646448	 -0.701790	 0.211725	 2
1463629473.408	 17	 -1.013651	 -0.667325	 0.968381	 -0.226898	 -1.504033	 -2.752793	 -0.212232	 0.649966	 -0.697011	 0.216049	 2
1463629473.418	 17	 -1.336211	 -0.605010	 1.363969	 -0.052698	 -1.518214	 -2.572097	 -0.211623	 0.654960	 -0.690903	 0.221123	 2
1463629473.428	 17	 -1.749188	 -0.501826	 1.785238	 0.364694	 -1.532155	 -2.148951	 -0.209767	 0.661780	 -0.683047	 0.226918	 2
1463629473.438	 17	 -2.116943	 -0.255691	 2.137103	 1.137843	 -1.533061	 -1.372025	 -0.206365	 0.670447	 -0.673564	 0.232864	 2
1463629473.448	 17	 -2.300130	 0.165909	 2.266250	 1.690477	 -1.513634	 -0.819315	 -0.201268	 0.680369	 -0.663316	 0.237909	 2
1463629473.458	 17	 -2.321740	 0.642831	 2.169629	 1.939237	 -1.486424	 -0.575295	 -0.194740	 0.690834	 -0.653240	 0.241042	 2
1463629473.468	 17	 -2.316415	 0.853695	 1.915761	 2.075282	 -1.458585	 -0.446836	 -0.187975	 0.701233	 -0.643564	 0.242412	 2
1463629473.478	 17	 -2.270906	 0.800321	 1.614324	 2.168031	 -1.432190	 -0.361675	 -0.182149	 0.711105	 -0.634200	 0.242780	 2
1463629473.488	 17	 -2.098011	 0.760996	 1.395037	 2.234101	 -1.407882	 -0.302509	 -0.177224	 0.720087	 -0.625441	 0.242672	 2
1463629473.498	 17	 -1.706409	 0.966270	 1.406327	 2.273720	 -1.385703	 -0.271474	 -0.171613	 0.728035	 -0.617981	 0.242104	 2
1463629473.508	 17	 -1.152041	 1.255211	 1.727114	 2.281949	 -1.364866	 -0.275116	 -0.163594	 0.734826	 -0.612244	 0.241713	 2
1463629473.518	 17	 -0.512942	 1.546785	 2.151634	 2.259970	 -1.344878	 -0.312758	 -0.152339	 0.740280	 -0.608462	 0.241978	 2
1463629473.528	 17	 -0.070279	 1.891519	 2.494163	 2.220872	 -1.324990	 -0.371418	 -0.138139	 0.744686	 -0.606255	 0.242519	 2
1463629473.538	 17	 0.025339	 2.401208	 2.856169	 2.180610	 -1.302668	 -0.436348	 -0.120930	 0.749159	 -0.604421	 0.242512	 2
1463629473.548	 17	 -0.023632	 3.168552	 3.049179	 2.152066	 -1.277667	 -0.496923	 -0.100681	 0.754448	 -0.602380	 0.240434	 2
1463629473.558	 17	 -0.056090	 3.843089	 3.211339	 2.135937	 -1.250766	 -0.552586	 -0.077624	 0.760403	 -0.600073	 0.235954	 2
1463629473.568	 17	 -0.127667	 4.298357	 3.188489	 2.131040	 -1.223040	 -0.602100	 -0.052953	 0.766644	 -0.597299	 0.229539	 2
1463629473.578	 17	 -0.478694	 4.830809	 2.842667	 2.143766	 -1.196133	 -0.638541	 -0.028013	 0.773572	 -0.593539	 0.220256	 2
1463629473.588	 17	 -1.208770	 4.713890	 2.412039	 2.179390	 -1.169751	 -0.652364	 -0.005174	 0.782027	 -0.587252	 0.208667	 2
1463629473.598	 17	 -1.601988	 4.010245	 2.317259	 2.217970	 -1.141807	 -0.655661	 0.014586	 0.790685	 -0.578737	 0.199169	 2
1463629473.608	 17	 -1.527501	 3.569201	 2.249627	 2.251466	 -1.114341	 -0.659331	 0.032606	 0.798516	 -0.569863	 0.191219	 2
1463629473.618	 17	 -1.249867	 2.919592	 2.251803	 2.270505	 -1.092223	 -0.671937	 0.048557	 0.803695	 -0.563418	 0.185139	 2
1463629473.628	 17	 -0.961032	 2.008738	 2.166209	 2.280878	 -1.068805	 -0.685478	 0.062710	 0.808025	 -0.556620	 0.182585	 2
1463629473.638	 17	 -0.723294	 1.418657	 1.999850	 2.283076	 -1.048282	 -0.700645	 0.074528	 0.810881	 -0.551088	 0.182260	 2
1463629473.648	 17	 -0.581166	 1.111024	 1.876384	 2.281563	 -1.029870	 -0.716020	 0.084918	 0.812873	 -0.546398	 0.182961	 2
1463629473.658	 17	 -0.452883	 0.991013	 1.805942	 2.278354	 -1.012885	 -0.731648	 0.094631	 0.814309	 -0.542294	 0.184018	 2
1463629473.668	 17	 -0.311500	 0.497494	 1.715923	 2.271189	 -0.997353	 -0.747776	 0.103155	 0.814981	 -0.538950	 0.186274	 2
1463629473.678	 17	 -0.136646	 0.712688	 1.687627	 2.263176	 -0.983237	 -0.764942	 0.111563	 0.815162	 -0.536284	 0.188322	 2
1463629473.688	 17	 0.077854	 0.917514	 1.712178	 2.255477	 -0.970220	 -0.784569	 0.120816	 0.814924	 -0.534264	 0.189378	 2
1463629473.698	 17	 0.312798	 1.359674	 1.765404	 2.249066	 -0.958235	 -0.807381	 0.131475	 0.814306	 -0.532871	 0.188863	 2
1463629473.708	 17	 0.504961	 1.995644	 1.833594	 2.246305	 -0.946944	 -0.833207	 0.144169	 0.813543	 -0.531778	 0.185942	 2
1463629473.718	 17	 0.683898	 2.598200	 1.835512	 2.248246	 -0.936572	 -0.861234	 0.158774	 0.812711	 -0.530816	 0.180348	 2
1463629473.728	 17	 0.898317	 2.892511	 1.733004	 2.252847	 -0.928138	 -0.890851	 0.174217	 0.811512	 -0.530316	 0.172804	 2
1463629473.748	 17	 1.301892	 2.838230	 1.304812	 2.262323	 -0.920142	 -0.951946	 0.203548	 0.807281	 -0.531868	 0.154865	 2
1463629473.758	 17	 1.237451	 2.468943	 1.102639	 2.265617	 -0.919378	 -0.980178	 0.216003	 0.804636	 -0.533406	 0.146226	 2
1463629473.768	 17	 1.092601	 2.027511	 0.893035	 2.267698	 -0.919314	 -1.004408	 0.226309	 0.802110	 -0.534883	 0.138937	 2
1463629473.778	 17	 1.076798	 1.592938	 0.654661	 2.267932	 -0.920729	 -1.025542	 0.234461	 0.799573	 -0.536729	 0.132786	 2
1463629473.788	 17	 1.167748	 1.137027	 0.450329	 2.264658	 -0.924210	 -1.045320	 0.240552	 0.796729	 -0.539471	 0.127787	 2
1463629473.798	 17	 1.317870	 0.747189	 0.287662	 2.257190	 -0.929845	 -1.065173	 0.244921	 0.793406	 -0.543325	 0.123770	 2
1463629473.808	 17	 1.498395	 0.375083	 0.235734	 2.244581	 -0.937103	 -1.086661	 0.248029	 0.789436	 -0.548344	 0.120792	 2
1463629473.818	 17	 1.677535	 0.343715	 0.236014	 2.228093	 -0.945336	 -1.110998	 0.250817	 0.784822	 -0.554242	 0.118154	 2
1463629473.828	 17	 1.760417	 0.722099	 0.233484	 2.212622	 -0.954037	 -1.137390	 0.254426	 0.779999	 -0.560192	 0.114258	 2
1463629473.838	 17	 1.592505	 1.609124	 0.162202	 2.205679	 -0.962402	 -1.162459	 0.259888	 0.775852	 -0.564785	 0.107377	 2
1463629473.848	 17	 1.078651	 2.781378	 -0.023845	 2.216177	 -0.969434	 -1.180008	 0.267683	 0.773628	 -0.566207	 0.096200	 2
1463629473.738	 17	 1.131518	 2.945739	 1.540698	 2.257886	 -0.922581	 -0.921403	 0.189385	 0.809700	 -0.530645	 0.164120	 2
1463629473.858	 17	 0.618690	 3.456182	 -0.290659	 2.243291	 -0.975579	 -1.187589	 0.276568	 0.773400	 -0.564526	 0.081685	 2
1463629473.868	 17	 0.458846	 3.373937	 -0.403003	 2.275165	 -0.981758	 -1.190201	 0.284854	 0.773780	 -0.561845	 0.066725	 2
1463629473.878	 17	 -0.551256	 3.992068	 -0.200882	 2.318987	 -0.982109	 -1.183479	 0.294395	 0.776022	 -0.555398	 0.051517	 2
1463629473.888	 17	 -1.102935	 3.736471	 0.117008	 2.368160	 -0.974546	 -1.170800	 0.304986	 0.779667	 -0.545570	 0.038163	 2
1463629473.898	 17	 -0.841133	 2.720486	 0.336545	 2.404439	 -0.965849	 -1.163223	 0.314071	 0.782237	 -0.537256	 0.028642	 2
1463629473.908	 17	 -0.602035	 1.440583	 0.527180	 2.423220	 -0.957787	 -1.162002	 0.320633	 0.783436	 -0.531833	 0.024006	 2
1463629473.918	 17	 -0.619443	 -0.051053	 0.604041	 2.425705	 -0.949363	 -1.162950	 0.323755	 0.784106	 -0.528888	 0.025272	 2
1463629473.928	 17	 -0.731203	 -1.340899	 0.600496	 2.415397	 -0.940064	 -1.162747	 0.323260	 0.784842	 -0.527725	 0.032120	 2
1463629473.938	 17	 -0.674963	 -2.010735	 0.509578	 2.397522	 -0.931260	 -1.161515	 0.320256	 0.785483	 -0.527905	 0.042072	 2
1463629473.948	 17	 -0.563546	 -2.063885	 0.412194	 2.377828	 -0.924057	 -1.160116	 0.316316	 0.785843	 -0.528826	 0.052316	 2
1463629473.958	 17	 -0.539471	 -1.696078	 0.394092	 2.361067	 -0.917401	 -1.158493	 0.312934	 0.786153	 -0.529411	 0.061311	 2
1463629473.968	 17	 -0.570982	 -1.156566	 0.417505	 2.349444	 -0.910552	 -1.156781	 0.310934	 0.786568	 -0.529109	 0.068371	 2
1463629473.978	 17	 -0.680317	 -0.496644	 0.586593	 2.343981	 -0.902262	 -1.155239	 0.311007	 0.787228	 -0.527410	 0.073394	 2
1463629473.988	 17	 -0.542545	 0.337450	 0.966172	 2.343088	 -0.891806	 -1.157913	 0.314499	 0.787525	 -0.524496	 0.076152	 2
1463629473.998	 17	 0.103245	 1.003702	 1.286478	 2.342050	 -0.882501	 -1.170448	 0.321535	 0.786130	 -0.522331	 0.076057	 2
1463629474.008	 17	 0.886400	 1.126457	 1.370325	 2.335831	 -0.877501	 -1.193131	 0.330086	 0.782523	 -0.522698	 0.074075	 2
1463629474.018	 17	 1.443659	 0.791252	 1.279225	 2.322401	 -0.877160	 -1.222277	 0.338018	 0.777186	 -0.525904	 0.071776	 2
1463629474.028	 17	 1.664189	 0.371637	 1.145508	 2.303036	 -0.879428	 -1.253496	 0.344393	 0.771052	 -0.530969	 0.070320	 2
1463629474.038	 17	 1.318589	 0.468902	 1.071622	 2.284115	 -0.881095	 -1.282475	 0.350036	 0.765283	 -0.535733	 0.069334	 2
1463629474.048	 17	 0.164462	 0.731629	 0.900804	 2.280235	 -0.876834	 -1.297102	 0.355721	 0.762744	 -0.535747	 0.068253	 2
1463629474.068	 18	 -0.123381	 -0.449994	 0.497983	 2.273312	 -0.863891	 -1.307864	 0.361428	 0.761051	 -0.533822	 0.072152	 2
1463629474.078	 18	 -0.278123	 -1.164862	 0.272066	 2.263157	 -0.860059	 -1.308317	 0.359913	 0.760718	 -0.534624	 0.077123	 2
1463629474.088	 18	 -0.478852	 -1.804021	 0.200723	 2.248931	 -0.855632	 -1.305204	 0.356112	 0.760836	 -0.535840	 0.084786	 2
1463629474.098	 18	 -0.377898	 -2.092798	 0.167315	 2.231064	 -0.851594	 -1.301737	 0.351091	 0.760763	 -0.537750	 0.093807	 2
1463629474.108	 18	 0.076159	 -1.959279	 0.135829	 2.210415	 -0.850136	 -1.302424	 0.346181	 0.759669	 -0.540991	 0.101937	 2
1463629474.118	 18	 0.668209	 -1.584261	 0.168268	 2.187768	 -0.851922	 -1.310140	 0.342461	 0.757116	 -0.545768	 0.107855	 2
1463629474.128	 18	 1.229152	 -1.189405	 0.137217	 2.163633	 -0.856881	 -1.325176	 0.340129	 0.753150	 -0.551999	 0.111241	 2
1463629474.138	 18	 1.620209	 -1.018863	 0.052269	 2.137761	 -0.864698	 -1.345521	 0.338361	 0.748169	 -0.559501	 0.112754	 2
1463629474.148	 18	 1.787079	 -1.081737	 -0.043556	 2.109664	 -0.874053	 -1.368544	 0.336335	 0.742653	 -0.567825	 0.113664	 2
1463629474.158	 18	 1.766135	 -1.513835	 -0.236034	 2.078147	 -0.884674	 -1.391561	 0.332730	 0.737020	 -0.576904	 0.115215	 2
1463629474.168	 18	 0.719204	 -2.322114	 -0.357003	 2.047989	 -0.892505	 -1.403506	 0.326046	 0.733340	 -0.584341	 0.120220	 2
1463629474.178	 18	 -0.201037	 -3.429568	 -0.468003	 2.019220	 -0.896356	 -1.399958	 0.315148	 0.732153	 -0.589576	 0.130515	 2
1463629474.188	 18	 -0.262891	 -4.092072	 -0.475759	 1.985419	 -0.899234	 -1.392402	 0.301501	 0.731043	 -0.594888	 0.144157	 2
1463629474.198	 18	 -0.071256	 -3.914545	 -0.264756	 1.947608	 -0.901943	 -1.389205	 0.288198	 0.728715	 -0.600791	 0.158011	 2
1463629474.208	 18	 0.102058	 -3.190519	 0.058067	 1.912773	 -0.902673	 -1.390171	 0.277812	 0.725739	 -0.605949	 0.170144	 2
1463629474.218	 18	 0.409171	 -2.379679	 0.379470	 1.881975	 -0.900776	 -1.396687	 0.271403	 0.722087	 -0.610371	 0.179940	 2
1463629474.228	 18	 0.878947	 -1.931779	 0.439230	 1.851087	 -0.898788	 -1.410337	 0.267481	 0.717332	 -0.615403	 0.187533	 2
1463629474.238	 18	 1.302454	 -1.701490	 0.392923	 1.817559	 -0.898014	 -1.430788	 0.264664	 0.711380	 -0.621668	 0.193442	 2
1463629474.248	 18	 1.448981	 -1.596934	 0.349990	 1.782868	 -0.897777	 -1.454456	 0.262277	 0.704850	 -0.628516	 0.198407	 2
1463629474.258	 18	 1.383817	 -1.547302	 0.274284	 1.749354	 -0.897597	 -1.477487	 0.259828	 0.698469	 -0.635171	 0.202949	 2
1463629474.268	 18	 1.301814	 -1.664689	 0.187579	 1.716275	 -0.897690	 -1.498951	 0.256702	 0.692309	 -0.641661	 0.207567	 2
1463629474.278	 18	 1.224015	 -1.799075	 0.104942	 1.682941	 -0.898013	 -1.518973	 0.252748	 0.686285	 -0.648057	 0.212492	 2
1463629474.288	 18	 1.088708	 -1.902497	 0.015634	 1.650000	 -0.898730	 -1.537024	 0.247956	 0.680550	 -0.654222	 0.217630	 2
1463629474.298	 18	 0.908128	 -1.942454	 0.006177	 1.618679	 -0.899324	 -1.552354	 0.242666	 0.675280	 -0.659831	 0.223011	 2
1463629474.308	 18	 0.703754	 -1.786068	 0.221498	 1.590591	 -0.898087	 -1.564596	 0.237897	 0.670501	 -0.664435	 0.228823	 2
1463629474.318	 18	 0.527693	 -1.526451	 0.456717	 1.567652	 -0.894088	 -1.573665	 0.234620	 0.666310	 -0.667721	 0.234805	 2
1463629474.328	 18	 0.402709	 -1.277794	 0.667943	 1.549146	 -0.887861	 -1.580309	 0.232717	 0.662580	 -0.669959	 0.240804	 2
1463629474.338	 18	 0.511838	 -1.063718	 0.752114	 1.532458	 -0.880299	 -1.587388	 0.231981	 0.658770	 -0.671914	 0.246451	 2
1463629474.358	 19	 0.747199	 -0.906228	 0.711032	 1.498331	 -0.865085	 -1.607640	 0.232179	 0.650088	 -0.676785	 0.255814	 2
1463629474.368	 19	 0.701679	 -0.825283	 0.707918	 1.482157	 -0.857466	 -1.617760	 0.232513	 0.645736	 -0.679189	 0.260126	 2
1463629474.378	 19	 0.537330	 -0.690009	 0.815053	 1.469041	 -0.849175	 -1.625531	 0.233315	 0.641881	 -0.680907	 0.264421	 2
1463629474.388	 19	 0.296132	 -0.461906	 1.078256	 1.460952	 -0.838809	 -1.629294	 0.235212	 0.638781	 -0.681332	 0.269111	 2
1463629474.398	 19	 0.052034	 -0.028849	 1.442507	 1.459872	 -0.825309	 -1.628754	 0.239152	 0.636602	 -0.680039	 0.274030	 2
1463629474.408	 19	 -0.233727	 0.501094	 1.949769	 1.467262	 -0.807481	 -1.623584	 0.245916	 0.635454	 -0.676582	 0.279214	 2
1463629474.418	 19	 -0.503881	 1.057508	 2.593559	 1.483304	 -0.783701	 -1.614030	 0.256123	 0.635181	 -0.670602	 0.285024	 2
1463629474.428	 19	 -0.765601	 1.473634	 3.109144	 1.506050	 -0.754362	 -1.601155	 0.269227	 0.635565	 -0.662251	 0.291544	 2
1463629474.438	 19	 -1.045501	 1.700279	 3.302330	 1.533015	 -0.722130	 -1.585715	 0.283658	 0.636684	 -0.652024	 0.298390	 2
1463629474.448	 19	 -1.294223	 1.607199	 3.126713	 1.560731	 -0.690520	 -1.568473	 0.297308	 0.638536	 -0.640868	 0.305233	 2
1463629474.458	 19	 -1.438694	 1.217241	 2.682051	 1.585258	 -0.662425	 -1.550466	 0.308318	 0.640813	 -0.630020	 0.312047	 2
1463629474.468	 19	 -1.484209	 0.651592	 2.103803	 1.604135	 -0.639576	 -1.532584	 0.315726	 0.643187	 -0.620476	 0.318805	 2
1463629474.478	 19	 -1.463932	 -0.026704	 1.565500	 1.615843	 -0.622041	 -1.515176	 0.319261	 0.645268	 -0.612767	 0.325912	 2
1463629474.488	 19	 -1.343929	 -0.640096	 1.070628	 1.620265	 -0.609494	 -1.499002	 0.319336	 0.646759	 -0.607138	 0.333334	 2
1463629474.498	 19	 -1.154749	 -1.136102	 0.657244	 1.618124	 -0.601375	 -1.484816	 0.316656	 0.647483	 -0.603593	 0.340837	 2
1463629474.508	 19	 -0.948653	 -1.549312	 0.374506	 1.610309	 -0.596582	 -1.472966	 0.311979	 0.647309	 -0.601887	 0.348414	 2
1463629474.518	 19	 -0.773510	 -1.853999	 0.230531	 1.597897	 -0.593723	 -1.463260	 0.306013	 0.646209	 -0.601561	 0.356222	 2
1463629474.538	 20	 -0.675014	 -1.964265	 0.172167	 1.567431	 -0.589067	 -1.446782	 0.293025	 0.642446	 -0.602256	 0.372407	 2
1463629474.548	 20	 -0.720877	 -1.903978	 0.107050	 1.553023	 -0.587904	 -1.438283	 0.286334	 0.640795	 -0.602529	 0.379938	 2
1463629474.558	 20	 -0.799205	 -1.980444	 0.091034	 1.538702	 -0.587215	 -1.428904	 0.279241	 0.639271	 -0.602628	 0.387552	 2
1463629474.568	 20	 -0.870835	 -2.092245	 0.191865	 1.523736	 -0.585960	 -1.418579	 0.271846	 0.637575	 -0.602438	 0.395810	 2
1463629474.578	 20	 -0.922373	 -2.122361	 0.417975	 1.508692	 -0.582929	 -1.407447	 0.264771	 0.635601	 -0.601675	 0.404839	 2
1463629474.598	 21	 -0.965319	 -1.910386	 1.177013	 1.481787	 -0.567031	 -1.383018	 0.254240	 0.630771	 -0.597186	 0.425276	 2
1463629474.608	 21	 -0.942774	 -1.807211	 1.626462	 1.470307	 -0.552847	 -1.370162	 0.251511	 0.627737	 -0.593246	 0.436746	 2
1463629474.618	 21	 -0.918601	 -1.742921	 1.994538	 1.459516	 -0.534821	 -1.357065	 0.250256	 0.624179	 -0.588326	 0.449049	 2
1463629474.628	 21	 -0.907960	 -1.699945	 2.204800	 1.449118	 -0.514402	 -1.343727	 0.249913	 0.620249	 -0.582708	 0.461829	 2
1463629474.638	 21	 -0.931056	 -1.651732	 2.243818	 1.439081	 -0.493312	 -1.330035	 0.249862	 0.616223	 -0.576682	 0.474632	 2
1463629474.658	 22	 -1.069950	 -1.294317	 2.046924	 1.422948	 -0.453841	 -1.300748	 0.249603	 0.609507	 -0.563748	 0.498384	 2
1463629474.668	 22	 -1.112906	 -1.023847	 1.926186	 1.418684	 -0.436193	 -1.285429	 0.249721	 0.607429	 -0.556834	 0.508532	 2
1463629474.678	 22	 -1.192147	 -0.879812	 1.955926	 1.416230	 -0.418850	 -1.269511	 0.250093	 0.605914	 -0.549459	 0.518089	 2
1463629474.688	 22	 -1.288174	 -0.810072	 2.147117	 1.414814	 -0.400119	 -1.252340	 0.250868	 0.604587	 -0.541184	 0.527882	 2
1463629474.698	 22	 -1.334317	 -0.834824	 2.381756	 1.413497	 -0.379260	 -1.234264	 0.252145	 0.603045	 -0.532022	 0.538249	 2
1463629474.708	 22	 -1.304348	 -1.038270	 2.646043	 1.410311	 -0.355889	 -1.215969	 0.253750	 0.600599	 -0.522286	 0.549645	 2
1463629474.718	 22	 -1.183271	 -1.393988	 2.923039	 1.403291	 -0.329714	 -1.198284	 0.255558	 0.596506	 -0.512361	 0.562456	 2
1463629474.728	 22	 -1.038974	 -1.786094	 3.178180	 1.391594	 -0.300873	 -1.181488	 0.257453	 0.590423	 -0.502463	 0.576758	 2
1463629474.738	 22	 -0.878430	 -2.091345	 3.390292	 1.375856	 -0.269760	 -1.165612	 0.259538	 0.582485	 -0.492619	 0.592180	 2
1463629474.748	 22	 -0.737668	 -2.217432	 3.513653	 1.357627	 -0.237151	 -1.150535	 0.261946	 0.573206	 -0.482799	 0.608050	 2
1463629474.758	 22	 -0.555157	 -2.259045	 3.569228	 1.338209	 -0.203814	 -1.136406	 0.264797	 0.563045	 -0.473084	 0.623742	 2
1463629474.768	 22	 -0.319945	 -2.178812	 3.581783	 1.317828	 -0.169902	 -1.124021	 0.268321	 0.551966	 -0.463772	 0.638947	 2
1463629474.778	 22	 -0.077709	 -1.968877	 3.591221	 1.294743	 -0.135907	 -1.113858	 0.272070	 0.539402	 -0.455424	 0.653921	 2
1463629474.788	 22	 0.121363	 -1.649084	 3.623369	 1.277535	 -0.101266	 -1.104491	 0.277777	 0.528245	 -0.446315	 0.666784	 2
1463629474.798	 22	 0.259674	 -1.354298	 3.702708	 1.262981	 -0.065789	 -1.095832	 0.284692	 0.517484	 -0.436797	 0.678505	 2
1463629474.808	 22	 0.344122	 -1.183667	 3.800540	 1.248873	 -0.029870	 -1.087351	 0.292023	 0.506555	 -0.427095	 0.689721	 2
1463629474.818	 22	 0.383547	 -1.225064	 3.829645	 1.233932	 0.006119	 -1.078563	 0.299243	 0.495168	 -0.417325	 0.700786	 2
1463629474.828	 22	 0.431180	 -1.712797	 3.768204	 1.214074	 0.042204	 -1.069537	 0.305565	 0.481854	 -0.408141	 0.712648	 2
1463629474.838	 22	 0.467170	 -2.086544	 3.582081	 1.184920	 0.064404	 -1.060157	 0.305227	 0.468018	 -0.403702	 0.724445	 2
1463629474.848	 22	 0.435963	 -2.618939	 3.341857	 1.158766	 0.096376	 -1.051023	 0.309211	 0.452861	 -0.396484	 0.736279	 2
1463629474.868	 23	 0.341671	 -3.378796	 2.803789	 1.093484	 0.153445	 -1.031594	 0.312634	 0.418643	 -0.385423	 0.760557	 2
1463629474.878	 23	 0.356334	 -3.657386	 2.527168	 1.056065	 0.177903	 -1.022208	 0.312400	 0.400175	 -0.381811	 0.772325	 2
1463629474.888	 23	 0.422849	 -3.630413	 2.313686	 1.017628	 0.200065	 -1.013483	 0.311498	 0.381466	 -0.379197	 0.783366	 2
1463629474.898	 23	 0.559427	 -3.544382	 2.205653	 0.980524	 0.221297	 -1.005594	 0.310868	 0.363117	 -0.376960	 0.793353	 2
1463629474.908	 23	 0.741988	 -3.672202	 2.106950	 0.942918	 0.241950	 -0.998999	 0.310338	 0.344283	 -0.375499	 0.802596	 2
1463629474.918	 23	 0.917134	 -4.069683	 2.072912	 0.902835	 0.258656	 -0.993499	 0.308186	 0.325008	 -0.375790	 0.811279	 2
1463629474.928	 23	 1.015752	 -4.463214	 2.113144	 0.857764	 0.280043	 -0.987713	 0.306955	 0.302415	 -0.375771	 0.820439	 2
1463629474.938	 23	 0.601042	 -4.060853	 2.280316	 0.815648	 0.295898	 -0.978903	 0.303860	 0.282603	 -0.375269	 0.828842	 2
1463629474.948	 23	 -0.082106	 -2.927644	 2.507828	 0.778765	 0.313647	 -0.961439	 0.301501	 0.265647	 -0.369983	 0.837640	 2
1463629474.958	 23	 -0.208194	 -2.548220	 2.561525	 0.746507	 0.329594	 -0.940533	 0.299166	 0.251442	 -0.362881	 0.845928	 2
1463629474.968	 23	 -0.084424	 -2.697128	 2.464202	 0.714045	 0.344528	 -0.920257	 0.296798	 0.237185	 -0.356227	 0.853672	 2
1463629474.978	 23	 0.004213	 -2.794114	 2.326108	 0.679764	 0.359204	 -0.900995	 0.294437	 0.221956	 -0.350290	 0.861010	 2
1463629474.988	 23	 -0.066841	 -2.584304	 2.189058	 0.646936	 0.371708	 -0.882163	 0.291796	 0.207687	 -0.344693	 0.867703	 2
1463629474.998	 23	 -0.187721	 -2.288334	 2.032992	 0.616881	 0.381574	 -0.863316	 0.288813	 0.195131	 -0.339114	 0.873792	 2
1463629475.008	 23	 -0.206085	 -2.167417	 1.832845	 0.588360	 0.390034	 -0.845327	 0.285821	 0.183353	 -0.333884	 0.879323	 2
1463629475.018	 23	 -0.081954	 -2.144848	 1.622019	 0.560776	 0.398125	 -0.829404	 0.283217	 0.171705	 -0.329452	 0.884176	 2
1463629475.028	 23	 0.123272	 -2.143625	 1.433735	 0.534119	 0.406410	 -0.816069	 0.281236	 0.160007	 -0.325980	 0.888280	 2
1463629475.038	 23	 0.390381	 -2.177403	 1.284020	 0.508179	 0.415765	 -0.805324	 0.280166	 0.148001	 -0.323391	 0.891639	 2
1463629475.048	 23	 0.683838	 -2.294111	 1.149290	 0.482258	 0.426747	 -0.797099	 0.280087	 0.135290	 -0.321703	 0.894290	 2
1463629475.058	 23	 0.946659	 -2.572384	 1.016521	 0.454777	 0.439399	 -0.791199	 0.280713	 0.121200	 -0.321081	 0.896336	 2
1463629475.068	 24	 1.105294	 -2.758946	 0.874854	 0.425778	 0.452990	 -0.787132	 0.281668	 0.105975	 -0.321435	 0.897838	 2
1463629475.088	 24	 1.061360	 -2.408167	 0.681335	 0.371251	 0.479177	 -0.781720	 0.283943	 0.076912	 -0.323250	 0.899428	 2
1463629475.098	 24	 0.953669	 -2.152669	 0.669727	 0.347676	 0.490381	 -0.778546	 0.284875	 0.064502	 -0.323772	 0.899921	 2
1463629475.108	 24	 0.854192	 -1.935743	 0.622517	 0.326293	 0.500161	 -0.775049	 0.285558	 0.053421	 -0.324064	 0.900325	 2
1463629475.118	 24	 0.793395	 -1.832171	 0.506766	 0.306609	 0.507906	 -0.772192	 0.285669	 0.043428	 -0.324682	 0.900605	 2
1463629475.128	 24	 0.770528	 -1.819234	 0.374916	 0.287749	 0.514026	 -0.770412	 0.285237	 0.033981	 -0.325878	 0.900716	 2
1463629475.148	 25	 0.859000	 -1.778388	 0.030281	 0.252064	 0.529807	 -0.771653	 0.286299	 0.014649	 -0.329827	 0.899462	 2
1463629475.158	 25	 0.981517	 -1.647311	 -0.178456	 0.237320	 0.538693	 -0.775721	 0.287762	 0.005703	 -0.332847	 0.897983	 2
1463629475.168	 25	 1.149639	 -1.574881	 -0.389203	 0.225038	 0.548303	 -0.782551	 0.289908	 -0.002675	 -0.336703	 0.895867	 2
1463629475.178	 25	 1.294207	 -1.570006	 -0.538560	 0.214262	 0.559205	 -0.791697	 0.292801	 -0.010977	 -0.341265	 0.893132	 2
1463629475.188	 25	 1.277052	 -1.570102	 -0.558663	 0.203833	 0.570467	 -0.801439	 0.295830	 -0.019297	 -0.346018	 0.890160	 2
1463629475.208	 26	 0.776685	 -1.426206	 -0.425075	 0.182627	 0.588065	 -0.817148	 0.299524	 -0.034574	 -0.354414	 0.885144	 2
1463629475.218	 26	 0.511084	 -1.398841	 -0.425706	 0.172199	 0.592986	 -0.823406	 0.299673	 -0.041115	 -0.358267	 0.883261	 2
1463629475.228	 26	 0.275690	 -1.522649	 -0.433334	 0.160540	 0.595552	 -0.829214	 0.298551	 -0.047647	 -0.362330	 0.881654	 2
1463629475.238	 26	 0.127931	 -1.551576	 -0.521841	 0.148476	 0.596368	 -0.835374	 0.296548	 -0.054043	 -0.366762	 0.880127	 2
1463629475.258	 26	 0.078772	 -1.262626	 -0.883215	 0.130478	 0.595831	 -0.853505	 0.292430	 -0.064506	 -0.377422	 0.876285	 2
1463629475.268	 27	 0.106545	 -0.974954	 -0.950054	 0.126410	 0.595619	 -0.864972	 0.291186	 -0.067915	 -0.383053	 0.873996	 2
1463629475.278	 27	 0.135753	 -0.745669	 -0.854388	 0.124627	 0.595776	 -0.875816	 0.290535	 -0.070303	 -0.388031	 0.871825	 2
1463629475.288	 27	 0.156475	 -0.824007	 -0.648539	 0.121571	 0.596417	 -0.884458	 0.289904	 -0.073023	 -0.392180	 0.869953	 2
1463629475.298	 27	 0.149104	 -0.957726	 -0.464277	 0.115853	 0.597348	 -0.890767	 0.288939	 -0.076620	 -0.395667	 0.868384	 2
1463629475.308	 27	 0.104420	 -1.049088	 -0.320860	 0.108044	 0.598115	 -0.895185	 0.287542	 -0.080808	 -0.398642	 0.867107	 2
1463629475.318	 27	 0.062180	 -1.034446	 -0.225503	 0.099311	 0.598568	 -0.898234	 0.285862	 -0.085126	 -0.401176	 0.866080	 2
1463629475.328	 27	 0.058737	 -0.910615	 -0.164638	 0.091105	 0.598972	 -0.900481	 0.284286	 -0.089085	 -0.403284	 0.865221	 2
1463629475.338	 27	 0.062019	 -0.737713	 -0.080994	 0.083943	 0.599463	 -0.901730	 0.282993	 -0.092464	 -0.404799	 0.864583	 2
1463629475.348	 27	 0.090986	 -0.471957	 -0.089431	 0.079104	 0.600232	 -0.902796	 0.282290	 -0.094870	 -0.405881	 0.864044	 2
1463629475.358	 27	 0.126861	 -0.046077	 -0.161450	 0.078457	 0.601296	 -0.904608	 0.282527	 -0.095632	 -0.406668	 0.863513	 2
1463629475.368	 27	 0.197999	 0.370294	 -0.210417	 0.082718	 0.602873	 -0.907168	 0.283944	 -0.094494	 -0.407040	 0.862998	 2
1463629475.378	 27	 0.326523	 0.762860	 -0.292078	 0.091343	 0.605567	 -0.910764	 0.286679	 -0.091866	 -0.407135	 0.862332	 2
1463629475.388	 27	 0.428776	 1.171008	 -0.289171	 0.104413	 0.609315	 -0.914856	 0.290745	 -0.087635	 -0.406687	 0.861622	 2
1463629475.398	 27	 0.527610	 1.489139	 -0.233783	 0.120704	 0.614032	 -0.918550	 0.295892	 -0.082191	 -0.405461	 0.860984	 2
1463629475.408	 27	 0.639505	 1.632819	 -0.175869	 0.138724	 0.619832	 -0.921849	 0.301852	 -0.076204	 -0.403637	 0.860323	 2
1463629475.418	 27	 0.761372	 1.601209	 -0.085569	 0.156463	 0.626893	 -0.924523	 0.308289	 -0.070549	 -0.401378	 0.859579	 2
1463629475.428	 27	 0.871881	 1.420756	 0.008774	 0.172298	 0.635215	 -0.926397	 0.314874	 -0.065893	 -0.398851	 0.858738	 2
1463629475.438	 27	 0.950941	 1.132980	 0.104524	 0.185028	 0.644535	 -0.927473	 0.321252	 -0.062688	 -0.396283	 0.857804	 2
1463629475.448	 27	 1.003391	 0.885481	 0.169973	 0.194682	 0.654574	 -0.927895	 0.327313	 -0.060873	 -0.393782	 0.856794	 2
1463629475.458	 27	 0.985815	 0.779173	 0.170203	 0.202843	 0.664660	 -0.928213	 0.333079	 -0.059701	 -0.391420	 0.855736	 2
1463629475.468	 27	 0.969706	 0.795907	 0.124671	 0.211154	 0.674509	 -0.929055	 0.338737	 -0.058510	 -0.389234	 0.854594	 2
1463629475.478	 27	 0.862016	 0.905007	 0.018982	 0.221211	 0.683309	 -0.930921	 0.344252	 -0.056525	 -0.387260	 0.853420	 2
1463629475.488	 27	 0.755221	 0.764047	 -0.101831	 0.231335	 0.690793	 -0.934082	 0.349184	 -0.054457	 -0.385935	 0.852150	 2
