% Gyrometer data recorded with 'snsrlog'
% 
% 
% Label description:
% 	 0: Default Label
% 	 1: still_drop
% 	 2: walk_drop
% 	 3: other
% 	 4: dtw_same
% 	 5: dtw_diff
% 	 6: delete
% 	 7: steal
% 
% Column description:
% 	 1: Seconds.milliseconds since 1970
% 	 2: Number of skipped measurements
% 	 3: Gyro X
% 	 4: Gyro Y
% 	 5: Gyro Z
% 	 6: Roll of the device
% 	 7: Pitch of the device
% 	 8: Yaw of the device
% 	 9: Quaternion X
% 	 10: Quaternion Y
% 	 11: Quaternion Z
% 	 12: Quaternion W
% 	 13: Label used for the current sample
% 
% 
1463630485.751	 0	 -2.362194	 0.778353	 0.489587	 0.519945	 0.228547	 -0.026093	 0.113516	 0.253918	 0.016782	 0.960395	 2
1463630485.761	 0	 -2.491560	 0.855105	 0.607595	 0.524396	 0.209995	 -0.008258	 0.102286	 0.257357	 0.023200	 0.960608	 2
1463630485.771	 0	 -2.304024	 1.002550	 0.628650	 0.530441	 0.192676	 0.009477	 0.091588	 0.261343	 0.029765	 0.960430	 2
1463630485.781	 0	 -1.824291	 1.226796	 0.505063	 0.539377	 0.178613	 0.024412	 0.082718	 0.266399	 0.035478	 0.959651	 2
1463630485.791	 0	 -1.206469	 1.445251	 0.225684	 0.551621	 0.168532	 0.034216	 0.076331	 0.272706	 0.039320	 0.958258	 2
1463630485.801	 0	 -0.667318	 1.552879	 -0.114790	 0.566312	 0.161661	 0.038212	 0.072193	 0.279906	 0.040839	 0.956438	 2
1463630485.811	 0	 -0.331563	 1.520756	 -0.448399	 0.581796	 0.156305	 0.037328	 0.069443	 0.287283	 0.040213	 0.954478	 2
1463630485.821	 0	 -0.174306	 1.463337	 -0.822253	 0.597299	 0.150557	 0.032395	 0.067117	 0.294522	 0.037561	 0.952545	 2
1463630485.831	 0	 -0.093817	 1.475864	 -1.261932	 0.613272	 0.143121	 0.023482	 0.064625	 0.301860	 0.032745	 0.950596	 2
1463630485.841	 0	 -0.083518	 1.726127	 -1.654024	 0.631320	 0.133325	 0.011116	 0.061599	 0.310102	 0.025951	 0.948351	 2
1463630485.861	 1	 -0.005394	 2.664284	 -1.908152	 0.681587	 0.109817	 -0.017977	 0.054722	 0.333253	 0.009884	 0.941196	 2
1463630485.871	 1	 0.081861	 3.000665	 -1.834376	 0.712298	 0.098352	 -0.032705	 0.051760	 0.347446	 0.001830	 0.936269	 2
1463630485.891	 2	 0.124902	 3.540569	 -1.580338	 0.781786	 0.077611	 -0.059045	 0.047092	 0.379502	 -0.012496	 0.923907	 2
1463630485.901	 2	 0.094785	 3.704559	 -1.565761	 0.819315	 0.067108	 -0.070681	 0.044818	 0.396735	 -0.019038	 0.916641	 2
1463630485.911	 2	 0.109740	 3.785737	 -1.658923	 0.857730	 0.055681	 -0.082347	 0.042405	 0.414283	 -0.025854	 0.908792	 2
1463630485.921	 2	 0.187273	 3.840727	 -1.817885	 0.896581	 0.043078	 -0.094976	 0.039957	 0.431915	 -0.033445	 0.900408	 2
1463630485.931	 2	 0.293091	 4.038966	 -2.011996	 0.936852	 0.029127	 -0.109026	 0.037572	 0.450056	 -0.042046	 0.891218	 2
1463630485.951	 3	 0.409715	 4.909846	 -2.434410	 1.028137	 -0.004276	 -0.140659	 0.032697	 0.490638	 -0.062237	 0.868523	 2
1463630485.961	 3	 0.286207	 5.389290	 -2.664407	 1.080647	 -0.025310	 -0.156368	 0.029356	 0.513649	 -0.073462	 0.854346	 2
1463630485.971	 3	 0.016769	 5.756998	 -2.961315	 1.136903	 -0.050671	 -0.170027	 0.024423	 0.538024	 -0.085123	 0.838265	 2
1463630485.981	 3	 -0.319632	 5.915716	 -3.210561	 1.195093	 -0.080611	 -0.180318	 0.017438	 0.562875	 -0.096953	 0.820651	 2
1463630485.991	 3	 -0.618777	 5.950778	 -3.336587	 1.254000	 -0.113600	 -0.186395	 0.008741	 0.587508	 -0.108403	 0.801877	 2
1463630486.001	 3	 -0.799014	 5.824089	 -3.425721	 1.312337	 -0.148376	 -0.188770	 -0.001127	 0.611234	 -0.119486	 0.782377	 2
1463630486.011	 3	 -0.881446	 5.618403	 -3.515375	 1.369157	 -0.184357	 -0.188250	 -0.011813	 0.633577	 -0.130449	 0.762512	 2
1463630486.021	 3	 -0.812818	 5.535667	 -3.603070	 1.424996	 -0.221078	 -0.186117	 -0.022741	 0.654682	 -0.141692	 0.742157	 2
1463630486.031	 3	 -0.609276	 5.704153	 -3.607537	 1.481995	 -0.257738	 -0.183685	 -0.033021	 0.675301	 -0.153488	 0.720638	 2
1463630486.041	 3	 -0.343003	 6.017381	 -3.573902	 1.541967	 -0.293742	 -0.181595	 -0.042025	 0.696016	 -0.165891	 0.697335	 2
1463630486.051	 3	 -0.028921	 6.254159	 -3.503027	 1.604342	 -0.328997	 -0.180363	 -0.049506	 0.716533	 -0.179001	 0.672375	 2
1463630486.061	 3	 0.284076	 6.426583	 -3.360270	 1.668249	 -0.363054	 -0.180202	 -0.055241	 0.736496	 -0.192636	 0.646075	 2
1463630486.081	 4	 0.767812	 6.284426	 -3.114285	 1.796456	 -0.428191	 -0.181750	 -0.062452	 0.773223	 -0.220754	 0.591179	 2
1463630486.091	 4	 1.038210	 5.625824	 -3.036441	 1.853848	 -0.460174	 -0.183588	 -0.064949	 0.787971	 -0.235207	 0.565297	 2
1463630486.111	 5	 1.717718	 3.506393	 -3.007725	 1.935977	 -0.526649	 -0.194319	 -0.069724	 0.805917	 -0.266506	 0.524033	 2
1463630486.121	 5	 1.613876	 2.478658	 -2.942847	 1.960536	 -0.560421	 -0.199511	 -0.073724	 0.809616	 -0.281869	 0.509545	 2
1463630486.131	 5	 1.216900	 1.606177	 -2.707713	 1.977728	 -0.591096	 -0.201314	 -0.078972	 0.811223	 -0.294928	 0.498696	 2
1463630486.141	 5	 0.669857	 0.799193	 -2.448282	 1.989506	 -0.617373	 -0.198062	 -0.085681	 0.811432	 -0.304842	 0.491231	 2
1463630486.151	 5	 0.140982	 0.240893	 -2.209075	 1.998143	 -0.639107	 -0.189582	 -0.093647	 0.810899	 -0.311619	 0.486381	 2
1463630486.171	 6	 -0.474166	 -0.263070	 -1.992059	 2.013125	 -0.673802	 -0.160994	 -0.112076	 0.809128	 -0.319005	 0.480611	 2
1463630486.181	 6	 -0.613234	 -0.370832	 -1.948155	 2.020781	 -0.688950	 -0.143333	 -0.121949	 0.808085	 -0.321137	 0.478538	 2
1463630486.191	 6	 -0.680494	 -0.450829	 -1.859855	 2.028372	 -0.702971	 -0.124743	 -0.131853	 0.806929	 -0.322670	 0.476826	 2
1463630486.201	 6	 -0.704117	 -0.548036	 -1.780622	 2.035434	 -0.715963	 -0.105897	 -0.141624	 0.805593	 -0.323767	 0.475540	 2
1463630486.211	 6	 -0.657350	 -0.643421	 -1.714774	 2.041389	 -0.728398	 -0.087501	 -0.151196	 0.803939	 -0.324725	 0.474737	 2
1463630486.221	 6	 -0.566322	 -0.741177	 -1.518244	 2.045443	 -0.739754	 -0.070707	 -0.160112	 0.801967	 -0.325530	 0.474598	 2
1463630486.231	 6	 -0.442106	 -0.888399	 -1.236137	 2.046401	 -0.749193	 -0.056917	 -0.167813	 0.799673	 -0.326056	 0.475448	 2
1463630486.241	 6	 -0.430421	 -1.143717	 -0.945530	 2.043611	 -0.756351	 -0.045331	 -0.174655	 0.796938	 -0.325878	 0.477692	 2
1463630486.261	 7	 -0.571920	 -1.823547	 -0.295180	 2.025086	 -0.761068	 -0.025991	 -0.186491	 0.789998	 -0.321393	 0.487678	 2
1463630486.271	 7	 -0.562704	 -2.066814	 -0.103556	 2.010507	 -0.759908	 -0.018023	 -0.191670	 0.785843	 -0.317603	 0.494814	 2
1463630486.291	 8	 -0.273583	 -2.246018	 0.088360	 1.972696	 -0.756040	 -0.008262	 -0.200433	 0.775967	 -0.309936	 0.511509	 2
1463630486.301	 8	 -0.082236	 -2.219628	 0.138096	 1.951112	 -0.754378	 -0.007299	 -0.203703	 0.770556	 -0.306865	 0.520176	 2
1463630486.311	 8	 0.061867	 -2.227366	 0.155953	 1.928101	 -0.753039	 -0.008439	 -0.206428	 0.764839	 -0.304292	 0.528976	 2
1463630486.321	 8	 0.145411	 -2.180660	 0.176975	 1.904464	 -0.751885	 -0.010882	 -0.208771	 0.758961	 -0.302051	 0.537734	 2
1463630486.331	 8	 0.189982	 -2.065421	 0.245868	 1.881251	 -0.750321	 -0.014168	 -0.210595	 0.753245	 -0.299919	 0.546187	 2
1463630486.341	 8	 0.255040	 -1.947752	 0.364697	 1.858539	 -0.747838	 -0.018592	 -0.211640	 0.747823	 -0.297811	 0.554326	 2
1463630486.351	 8	 0.312664	 -2.075531	 0.515410	 1.834420	 -0.744083	 -0.024295	 -0.212032	 0.742225	 -0.295459	 0.562892	 2
1463630486.361	 8	 0.283191	 -2.324448	 0.645505	 1.807725	 -0.738838	 -0.030249	 -0.212246	 0.736009	 -0.292395	 0.572492	 2
1463630486.371	 8	 0.205081	 -2.398409	 0.681733	 1.780460	 -0.732702	 -0.035238	 -0.212579	 0.729500	 -0.288714	 0.582482	 2
1463630486.381	 8	 0.135410	 -2.371342	 0.572818	 1.754266	 -0.727036	 -0.038842	 -0.213334	 0.722941	 -0.284950	 0.592155	 2
1463630486.391	 8	 0.074371	 -2.241842	 0.365665	 1.729991	 -0.723046	 -0.040971	 -0.214794	 0.716445	 -0.281569	 0.601073	 2
1463630486.401	 8	 -0.038342	 -1.928643	 0.095659	 1.709614	 -0.721383	 -0.041322	 -0.217012	 0.710533	 -0.278890	 0.608497	 2
1463630486.411	 8	 -0.096859	 -1.450635	 -0.159429	 1.694740	 -0.722267	 -0.039957	 -0.219838	 0.705727	 -0.277157	 0.613844	 2
1463630486.421	 8	 -0.094667	 -0.798149	 -0.383581	 1.686217	 -0.725402	 -0.038134	 -0.222640	 0.702507	 -0.276743	 0.616708	 2
1463630486.431	 8	 -0.159789	 -0.166703	 -0.603080	 1.684851	 -0.730694	 -0.035577	 -0.225385	 0.701127	 -0.277636	 0.616880	 2
1463630486.441	 8	 -0.602693	 0.250894	 -0.837266	 1.691307	 -0.737866	 -0.028182	 -0.229319	 0.701347	 -0.278580	 0.614750	 2
1463630486.451	 8	 -1.545613	 0.631994	 -1.172948	 1.709664	 -0.746929	 -0.009051	 -0.236282	 0.703532	 -0.278023	 0.609851	 2
1463630486.461	 8	 -2.690703	 0.864138	 -1.450705	 1.742374	 -0.757076	 0.026576	 -0.247394	 0.707705	 -0.274775	 0.602037	 2
1463630486.471	 8	 -3.152743	 0.444826	 -0.939018	 1.779198	 -0.762111	 0.071455	 -0.259803	 0.712275	 -0.267835	 0.594502	 2
1463630486.481	 8	 -2.765108	 -0.120005	 -0.203747	 1.806884	 -0.759423	 0.111655	 -0.269749	 0.715578	 -0.258605	 0.590175	 2
1463630486.491	 8	 -2.046715	 -0.091526	 0.346591	 1.825462	 -0.751802	 0.140702	 -0.275696	 0.718332	 -0.249743	 0.587894	 2
1463630486.501	 8	 -1.174683	 0.251733	 0.512714	 1.838503	 -0.743381	 0.157396	 -0.277806	 0.721243	 -0.243478	 0.585961	 2
1463630486.511	 8	 -0.291474	 0.324334	 0.321323	 1.845395	 -0.738289	 0.162634	 -0.277491	 0.723379	 -0.240974	 0.584511	 2
1463630486.521	 8	 0.440752	 0.224735	 -0.063259	 1.845168	 -0.738670	 0.158869	 -0.276258	 0.723771	 -0.242187	 0.584109	 2
1463630486.531	 8	 0.740083	 0.470679	 -0.494145	 1.844033	 -0.744306	 0.151285	 -0.275171	 0.723551	 -0.246378	 0.583140	 2
1463630486.541	 8	 0.773969	 0.608241	 -0.724430	 1.844699	 -0.752976	 0.143612	 -0.274651	 0.723360	 -0.251981	 0.581225	 2
1463630486.551	 8	 0.812615	 0.669702	 -0.740181	 1.845862	 -0.762327	 0.135840	 -0.274212	 0.723206	 -0.257922	 0.579015	 2
1463630486.561	 8	 0.866933	 0.787280	 -0.638313	 1.847229	 -0.771103	 0.126905	 -0.273166	 0.723356	 -0.263994	 0.576580	 2
1463630486.571	 8	 0.835891	 0.879824	 -0.502895	 1.849283	 -0.778557	 0.117554	 -0.271515	 0.723971	 -0.269764	 0.573910	 2
1463630486.581	 8	 0.844758	 0.934176	 -0.484349	 1.851844	 -0.785464	 0.108115	 -0.269606	 0.724823	 -0.275403	 0.571049	 2
1463630486.591	 8	 1.018317	 0.966704	 -0.621975	 1.853689	 -0.793726	 0.097162	 -0.267600	 0.725434	 -0.281864	 0.568057	 2
1463630486.601	 8	 0.984872	 0.875629	 -0.874051	 1.855029	 -0.804301	 0.086369	 -0.266338	 0.725476	 -0.289049	 0.564977	 2
1463630486.611	 8	 0.696205	 0.824010	 -1.215193	 1.858861	 -0.817246	 0.080322	 -0.267060	 0.725171	 -0.296085	 0.561373	 2
1463630486.621	 8	 0.792839	 0.995797	 -1.540559	 1.865318	 -0.833399	 0.076189	 -0.268904	 0.724761	 -0.304112	 0.556712	 2
1463630486.631	 8	 1.123561	 1.058972	 -1.641967	 1.869973	 -0.852111	 0.068277	 -0.270283	 0.723860	 -0.313873	 0.551777	 2
1463630486.641	 8	 1.102447	 1.091084	 -1.622301	 1.873736	 -0.870965	 0.059099	 -0.271340	 0.722806	 -0.323871	 0.546839	 2
1463630486.651	 8	 1.076820	 1.281823	 -1.584067	 1.879543	 -0.889445	 0.050782	 -0.272234	 0.722207	 -0.333726	 0.541233	 2
1463630486.661	 8	 1.499593	 1.608508	 -1.391805	 1.883966	 -0.907409	 0.036928	 -0.271178	 0.722023	 -0.344642	 0.535133	 2
1463630486.671	 8	 1.917661	 1.840565	 -1.196130	 1.883671	 -0.925887	 0.014231	 -0.267869	 0.721636	 -0.357371	 0.528937	 2
1463630486.681	 8	 2.050409	 2.032682	 -1.050555	 1.881933	 -0.942449	 -0.012676	 -0.262827	 0.721733	 -0.370191	 0.522477	 2
1463630486.691	 8	 2.080370	 2.173872	 -0.929071	 1.879799	 -0.957886	 -0.041574	 -0.256882	 0.722137	 -0.382930	 0.515650	 2
1463630486.701	 8	 2.214586	 2.284635	 -0.854605	 1.876297	 -0.972758	 -0.073320	 -0.250066	 0.722591	 -0.395869	 0.508544	 2
1463630486.711	 8	 2.367671	 2.342002	 -0.802116	 1.869973	 -0.987492	 -0.109002	 -0.242420	 0.722773	 -0.409236	 0.501356	 2
1463630486.721	 8	 2.384850	 2.316832	 -0.746015	 1.861511	 -1.001718	 -0.146872	 -0.234384	 0.722698	 -0.422536	 0.494201	 2
1463630486.731	 8	 2.358791	 2.146322	 -0.655719	 1.850482	 -1.014889	 -0.185844	 -0.226327	 0.722229	 -0.435273	 0.487544	 2
1463630486.741	 8	 2.321701	 1.917197	 -0.586122	 1.836266	 -1.026952	 -0.225753	 -0.218468	 0.721213	 -0.447350	 0.481665	 2
1463630486.751	 8	 2.238799	 1.507142	 -0.550848	 1.818224	 -1.038090	 -0.265645	 -0.211390	 0.719378	 -0.458572	 0.476992	 2
1463630486.761	 8	 2.065775	 0.936196	 -0.444881	 1.795721	 -1.047707	 -0.304270	 -0.205561	 0.716557	 -0.468443	 0.474186	 2
1463630486.771	 8	 1.785952	 0.296872	 -0.277872	 1.769691	 -1.054777	 -0.339522	 -0.201228	 0.712919	 -0.476319	 0.473681	 2
1463630486.781	 8	 1.474139	 -0.356022	 -0.088329	 1.741173	 -1.058968	 -0.370086	 -0.198480	 0.708609	 -0.481974	 0.475583	 2
1463630486.791	 8	 1.151231	 -1.085576	 0.085676	 1.710426	 -1.060465	 -0.395062	 -0.197565	 0.703534	 -0.485332	 0.480064	 2
1463630486.801	 8	 0.850687	 -1.835315	 0.272087	 1.677036	 -1.059365	 -0.414374	 -0.198562	 0.697512	 -0.486385	 0.487319	 2
1463630486.811	 8	 0.532845	 -2.382062	 0.429631	 1.642855	 -1.056013	 -0.427654	 -0.201170	 0.690836	 -0.485312	 0.496738	 2
1463630486.821	 8	 0.024234	 -2.596849	 0.525848	 1.613789	 -1.051068	 -0.431540	 -0.205237	 0.684507	 -0.481997	 0.506958	 2
1463630486.831	 8	 -0.696117	 -2.293349	 0.432631	 1.598308	 -1.046196	 -0.421738	 -0.210674	 0.680078	 -0.476578	 0.515737	 2
1463630486.841	 8	 -1.294893	 -1.666796	 0.202813	 1.599790	 -1.043186	 -0.398649	 -0.217165	 0.678334	 -0.469940	 0.521400	 2
1463630486.851	 8	 -1.554683	 -1.051403	 -0.108928	 1.613796	 -1.042913	 -0.368703	 -0.223966	 0.678724	 -0.463586	 0.523700	 2
1463630486.861	 8	 -1.624819	 -0.696349	 -0.456715	 1.634103	 -1.045766	 -0.336262	 -0.231234	 0.679990	 -0.458200	 0.523638	 2
1463630486.881	 9	 -1.518783	 -0.325659	 -1.070199	 1.684325	 -1.060050	 -0.269316	 -0.247157	 0.683083	 -0.450899	 0.518654	 2
1463630486.891	 9	 -1.381838	 -0.503294	 -1.309644	 1.708009	 -1.070714	 -0.236998	 -0.256142	 0.683509	 -0.448714	 0.515619	 2
1463630486.911	 10	 -0.576800	 -0.832541	 -1.359150	 1.737542	 -1.095087	 -0.187462	 -0.273689	 0.680514	 -0.447349	 0.511736	 2
1463630486.921	 10	 -0.057981	 -0.913712	 -1.489117	 1.736555	 -1.109013	 -0.178325	 -0.281081	 0.676573	 -0.449170	 0.511360	 2
1463630486.931	 10	 0.302539	 -0.560961	 -1.687205	 1.730795	 -1.125590	 -0.177195	 -0.287590	 0.672009	 -0.453147	 0.510249	 2
1463630486.941	 10	 0.703559	 0.048530	 -1.665841	 1.722692	 -1.143191	 -0.184883	 -0.291991	 0.667919	 -0.459269	 0.507639	 2
1463630486.951	 10	 1.167724	 0.725483	 -1.409932	 1.709735	 -1.159418	 -0.205204	 -0.292977	 0.664721	 -0.467357	 0.503873	 2
1463630486.971	 11	 1.870423	 1.504689	 -0.597755	 1.662210	 -1.181424	 -0.283846	 -0.284867	 0.660437	 -0.486459	 0.496016	 2
1463630486.981	 11	 2.017774	 1.751699	 -0.063858	 1.631136	 -1.184982	 -0.335882	 -0.276431	 0.659494	 -0.495927	 0.492656	 2
1463630486.991	 11	 1.960618	 1.594375	 0.511753	 1.598371	 -1.182172	 -0.389103	 -0.266180	 0.659069	 -0.503837	 0.490840	 2
1463630487.001	 11	 1.552899	 1.594061	 1.036458	 1.573312	 -1.173304	 -0.433179	 -0.255102	 0.659856	 -0.509163	 0.490170	 2
1463630487.021	 11	 0.264711	 2.303275	 1.512551	 1.579982	 -1.144855	 -0.470358	 -0.231627	 0.669512	 -0.512049	 0.485703	 2
1463630487.011	 11	 0.889134	 1.960369	 1.413334	 1.566844	 -1.159957	 -0.460255	 -0.243378	 0.663308	 -0.511720	 0.488806	 2
1463630487.031	 11	 -0.200131	 2.637607	 1.227691	 1.606550	 -1.131534	 -0.469087	 -0.220844	 0.677369	 -0.511430	 0.480457	 2
1463630487.041	 11	 -1.177377	 2.161327	 -0.016240	 1.648337	 -1.127309	 -0.448962	 -0.215650	 0.685649	 -0.510109	 0.472408	 2
1463630487.051	 11	 -2.352026	 1.698666	 -1.808259	 1.713209	 -1.138609	 -0.396529	 -0.220803	 0.693520	 -0.508003	 0.460661	 2
1463630487.061	 11	 -2.834551	 1.335953	 -3.031994	 1.800276	 -1.160751	 -0.317283	 -0.233018	 0.700745	 -0.506287	 0.445346	 2
1463630487.071	 11	 -2.282794	 0.476010	 -3.617114	 1.886957	 -1.187834	 -0.230852	 -0.249018	 0.704330	 -0.506075	 0.431043	 2
1463630487.081	 11	 -0.933178	 -0.429659	 -3.439061	 1.947850	 -1.216737	 -0.163387	 -0.264777	 0.702651	 -0.508771	 0.421101	 2
1463630487.091	 11	 0.667282	 -1.400963	 -2.091464	 1.955755	 -1.240983	 -0.142812	 -0.275930	 0.696184	 -0.513398	 0.419062	 2
1463630487.101	 11	 1.606886	 -2.062559	 -0.104299	 1.900887	 -1.251574	 -0.179883	 -0.279890	 0.687403	 -0.516991	 0.426451	 2
1463630487.111	 11	 0.561132	 -1.082171	 0.902956	 1.853552	 -1.247457	 -0.214605	 -0.279147	 0.682936	 -0.516579	 0.434536	 2
1463630487.131	 12	 -1.495327	 0.272527	 0.904692	 1.895319	 -1.222153	 -0.174043	 -0.275760	 0.691680	 -0.505693	 0.435672	 2
1463630487.141	 12	 -1.563960	 0.087756	 0.771415	 1.928679	 -1.209494	 -0.139697	 -0.276087	 0.696914	 -0.498750	 0.435128	 2
1463630487.151	 12	 -1.706470	 0.346190	 0.857125	 1.963693	 -1.195746	 -0.104855	 -0.276231	 0.702725	 -0.491470	 0.433972	 2
1463630487.161	 12	 -1.610324	 0.845406	 1.095400	 1.998512	 -1.179645	 -0.075095	 -0.274421	 0.709763	 -0.484359	 0.431655	 2
1463630487.171	 12	 -0.987008	 1.258700	 1.431666	 2.021881	 -1.162540	 -0.062456	 -0.269347	 0.716930	 -0.478889	 0.429102	 2
1463630487.181	 12	 -0.144820	 1.660996	 1.806422	 2.027737	 -1.145608	 -0.073101	 -0.260226	 0.723380	 -0.476012	 0.427102	 2
1463630487.191	 12	 0.640051	 2.087220	 2.230925	 2.018802	 -1.128479	 -0.104763	 -0.246854	 0.729225	 -0.475624	 0.425530	 2
1463630487.201	 12	 1.253549	 2.649722	 2.604901	 2.001022	 -1.110416	 -0.152380	 -0.229305	 0.734895	 -0.477335	 0.423675	 2
1463630487.221	 13	 1.738195	 3.675683	 3.035467	 1.962750	 -1.070569	 -0.269720	 -0.184841	 0.746620	 -0.484450	 0.416775	 2
1463630487.231	 13	 0.909865	 4.043470	 2.816962	 1.963691	 -1.048241	 -0.314282	 -0.161909	 0.754539	 -0.486272	 0.409874	 2
1463630487.241	 13	 -0.143707	 3.390841	 2.450243	 1.981573	 -1.025268	 -0.335771	 -0.143213	 0.763602	 -0.484296	 0.402317	 2
1463630487.251	 13	 -0.882651	 2.218486	 2.116447	 2.002543	 -1.002192	 -0.340376	 -0.130199	 0.771822	 -0.478817	 0.397585	 2
1463630487.261	 13	 -1.247284	 1.473388	 1.743935	 2.023271	 -0.980579	 -0.335243	 -0.121522	 0.779032	 -0.471649	 0.394828	 2
1463630487.271	 13	 -1.420643	 1.089535	 1.542575	 2.042636	 -0.960268	 -0.325890	 -0.115325	 0.785487	 -0.463829	 0.393157	 2
1463630487.281	 13	 -1.582721	 0.925919	 1.501965	 2.061617	 -0.939797	 -0.314320	 -0.110231	 0.791761	 -0.455329	 0.391967	 2
1463630487.291	 13	 -1.674800	 0.831790	 1.538126	 2.079785	 -0.918440	 -0.302280	 -0.105476	 0.797987	 -0.446213	 0.391133	 2
1463630487.311	 14	 -1.583067	 0.811406	 1.550993	 2.112468	 -0.874832	 -0.281157	 -0.095931	 0.809981	 -0.427576	 0.389752	 2
1463630487.321	 14	 -1.398834	 0.764822	 1.508456	 2.125470	 -0.854356	 -0.274395	 -0.090904	 0.815272	 -0.419128	 0.389101	 2
1463630487.331	 14	 -1.300701	 0.551614	 1.481106	 2.135409	 -0.834820	 -0.269405	 -0.086131	 0.819870	 -0.411136	 0.389052	 2
1463630487.341	 14	 -1.303603	 0.407867	 1.457417	 2.143033	 -0.815436	 -0.264948	 -0.081729	 0.823977	 -0.403120	 0.389713	 2
1463630487.351	 14	 -1.385094	 0.232530	 1.299828	 2.150021	 -0.796736	 -0.259120	 -0.078250	 0.827766	 -0.394998	 0.390714	 2
1463630487.361	 14	 -1.494546	 0.065322	 1.078612	 2.157110	 -0.779192	 -0.250530	 -0.076241	 0.831274	 -0.386720	 0.391942	 2
1463630487.371	 14	 -1.472514	 0.117295	 0.921171	 2.164969	 -0.762973	 -0.240658	 -0.075008	 0.834679	 -0.378677	 0.392795	 2
1463630487.381	 14	 -1.233286	 0.177031	 0.895132	 2.172082	 -0.748239	 -0.232747	 -0.073519	 0.837791	 -0.371526	 0.393281	 2
1463630487.391	 14	 -1.048016	 0.107189	 0.872619	 2.176935	 -0.734830	 -0.227538	 -0.071677	 0.840360	 -0.365311	 0.393962	 2
1463630487.401	 14	 -1.004890	 -0.256479	 0.608814	 2.179430	 -0.723356	 -0.221625	 -0.071041	 0.842164	 -0.359619	 0.395457	 2
1463630487.411	 14	 -0.838605	 -0.501616	 0.313066	 2.179265	 -0.715173	 -0.214764	 -0.072061	 0.842962	 -0.354950	 0.397785	 2
1463630487.431	 15	 -0.258967	 -0.683161	 0.299935	 2.171578	 -0.705396	 -0.208568	 -0.073749	 0.842469	 -0.349476	 0.403329	 2
1463630487.441	 15	 -0.045246	 -0.921408	 0.386447	 2.161846	 -0.701894	 -0.210250	 -0.073917	 0.841008	 -0.348043	 0.407564	 2
1463630487.451	 15	 0.074648	 -0.852543	 0.397768	 2.150969	 -0.698764	 -0.213632	 -0.073645	 0.839301	 -0.347074	 0.411935	 2
1463630487.461	 15	 0.242069	 -0.818461	 0.325221	 2.139772	 -0.696935	 -0.218262	 -0.073209	 0.837382	 -0.346886	 0.416056	 2
1463630487.481	 15	 0.630871	 -0.820724	 -0.122608	 2.115545	 -0.700600	 -0.230221	 -0.073330	 0.832283	 -0.349971	 0.423614	 2
1463630487.491	 16	 0.752718	 -0.709843	 -0.476471	 2.104489	 -0.707648	 -0.235817	 -0.074693	 0.829280	 -0.353539	 0.426293	 2
1463630487.501	 16	 0.810188	 -0.475143	 -0.795581	 2.096270	 -0.717890	 -0.240115	 -0.076931	 0.826433	 -0.358173	 0.427553	 2
1463630487.511	 16	 0.833978	 -0.123499	 -1.135692	 2.092422	 -0.731091	 -0.242699	 -0.079867	 0.824073	 -0.363740	 0.426870	 2
1463630487.521	 16	 0.844102	 0.277068	 -1.481623	 2.093814	 -0.747417	 -0.243145	 -0.083519	 0.822315	 -0.370254	 0.423951	 2
1463630487.541	 16	 0.779290	 1.305394	 -1.826388	 2.115345	 -0.785781	 -0.238212	 -0.090981	 0.821465	 -0.385077	 0.410650	 2
1463630487.531	 16	 0.840082	 0.761372	 -1.726469	 2.101253	 -0.766116	 -0.241578	 -0.087435	 0.821367	 -0.377509	 0.418568	 2
1463630487.551	 16	 0.476202	 1.632809	 -1.680022	 2.135399	 -0.803543	 -0.232230	 -0.093855	 0.822744	 -0.391699	 0.401069	 2
1463630487.561	 16	 0.038651	 1.612807	 -1.388643	 2.159102	 -0.816499	 -0.222187	 -0.096400	 0.825055	 -0.395898	 0.391479	 2
1463630487.571	 16	 -0.121074	 1.628502	 -1.049259	 2.182733	 -0.825535	 -0.211634	 -0.098161	 0.827739	 -0.398557	 0.382577	 2
1463630487.581	 16	 -0.556455	 2.480650	 -0.172140	 2.211257	 -0.826494	 -0.202888	 -0.096323	 0.832547	 -0.398673	 0.372353	 2
1463630487.591	 16	 -0.892087	 3.555916	 0.565506	 2.248527	 -0.818032	 -0.197177	 -0.089457	 0.840437	 -0.395969	 0.358988	 2
1463630487.601	 16	 -0.841938	 3.642052	 0.729999	 2.287546	 -0.807093	 -0.194167	 -0.080729	 0.848912	 -0.392658	 0.344457	 2
1463630487.611	 16	 -0.892336	 2.741910	 0.664510	 2.319688	 -0.796047	 -0.191547	 -0.073317	 0.856012	 -0.388913	 0.332588	 2
1463630487.621	 16	 -0.852749	 1.161609	 0.418190	 2.338421	 -0.786509	 -0.187270	 -0.069637	 0.860462	 -0.384922	 0.326482	 2
1463630487.631	 16	 -0.653868	 -0.314244	 0.119232	 2.342510	 -0.780159	 -0.181921	 -0.069914	 0.861949	 -0.381544	 0.326466	 2
1463630487.641	 16	 -0.279208	 -1.209597	 -0.140684	 2.335453	 -0.778081	 -0.177320	 -0.072832	 0.860954	 -0.379669	 0.330614	 2
1463630487.651	 16	 0.076671	 -1.598303	 -0.357355	 2.322328	 -0.780292	 -0.174325	 -0.077048	 0.858303	 -0.379599	 0.336576	 2
1463630487.661	 16	 0.240225	 -1.700392	 -0.435398	 2.306756	 -0.784892	 -0.172451	 -0.081730	 0.854857	 -0.380572	 0.343082	 2
1463630487.671	 16	 0.166086	 -1.356787	 -0.164049	 2.292306	 -0.788207	 -0.172006	 -0.085346	 0.851815	 -0.381261	 0.348953	 2
1463630487.681	 16	 0.006495	 -0.619379	 0.695747	 2.280808	 -0.784958	 -0.176711	 -0.084863	 0.850506	 -0.380260	 0.353327	 2
1463630487.691	 16	 0.086566	 -0.115306	 1.450037	 2.270019	 -0.775456	 -0.189027	 -0.079685	 0.850563	 -0.378100	 0.356699	 2
1463630487.701	 16	 0.452072	 -0.286063	 1.517737	 2.255874	 -0.765726	 -0.206486	 -0.072859	 0.850149	 -0.376708	 0.360596	 2
1463630487.711	 16	 0.961204	 -0.719041	 0.978526	 2.236456	 -0.762102	 -0.225426	 -0.067694	 0.847816	 -0.377989	 0.365719	 2
1463630487.721	 16	 1.155785	 -0.322302	 0.326145	 2.219944	 -0.765299	 -0.242011	 -0.064523	 0.844876	 -0.381782	 0.369140	 2
1463630487.731	 16	 0.699464	 1.759127	 -0.158882	 2.225010	 -0.770740	 -0.251107	 -0.060930	 0.845321	 -0.385797	 0.364528	 2
1463630487.741	 16	 0.133405	 3.865458	 -0.627801	 2.260694	 -0.776331	 -0.249353	 -0.055999	 0.850833	 -0.388784	 0.348990	 2
1463630487.751	 16	 0.407774	 3.701746	 -0.945048	 2.302446	 -0.784893	 -0.244567	 -0.051706	 0.856536	 -0.392582	 0.330986	 2
1463630487.761	 16	 0.762578	 2.670300	 -1.206057	 2.335007	 -0.797908	 -0.240534	 -0.049662	 0.859710	 -0.398097	 0.316151	 2
1463630487.771	 16	 0.946531	 1.332481	 -1.397024	 2.354575	 -0.813957	 -0.236363	 -0.050717	 0.860113	 -0.404549	 0.306552	 2
1463630487.781	 16	 0.863974	 0.353256	 -1.673990	 2.365909	 -0.831650	 -0.228870	 -0.055072	 0.858745	 -0.411001	 0.301001	 2
1463630487.791	 16	 0.603531	 -0.596548	 -1.632601	 2.370366	 -0.848112	 -0.218028	 -0.061963	 0.856324	 -0.416280	 0.299299	 2
1463630487.811	 17	 0.460525	 -1.971568	 -1.072902	 2.353632	 -0.872225	 -0.200016	 -0.077779	 0.848968	 -0.422846	 0.307255	 2
1463630487.821	 17	 0.577216	 -2.426439	 -0.976904	 2.333899	 -0.883193	 -0.195436	 -0.086035	 0.843763	 -0.425788	 0.315225	 2
1463630487.831	 17	 0.453499	 -2.809435	 -1.040139	 2.310799	 -0.894057	 -0.190251	 -0.095298	 0.837888	 -0.428300	 0.324685	 2
1463630487.841	 17	 0.078777	 -3.140425	 -1.220070	 2.288589	 -0.903887	 -0.179746	 -0.106426	 0.831922	 -0.429390	 0.334967	 2
1463630487.851	 17	 0.028588	 -3.605929	 -1.482951	 2.263517	 -0.915660	 -0.166370	 -0.119768	 0.824745	 -0.430381	 0.346731	 2
1463630487.861	 17	 0.037957	 -3.643619	 -1.808703	 2.205013	 -0.958571	 -0.177898	 -0.136983	 0.807156	 -0.445450	 0.362366	 2
1463630487.871	 17	 0.160615	 -3.345719	 -2.184318	 2.183829	 -0.980213	 -0.160669	 -0.153365	 0.797916	 -0.449046	 0.371708	 2
1463630487.881	 17	 0.430390	 -2.835646	 -2.578384	 2.171166	 -1.002625	 -0.140231	 -0.169243	 0.789527	 -0.452716	 0.378221	 2
1463630487.891	 17	 0.724482	 -2.177547	 -2.937180	 2.164906	 -1.029852	 -0.120053	 -0.184525	 0.781074	 -0.458619	 0.381501	 2
1463630487.901	 17	 0.966287	 -1.573068	 -3.231008	 2.165156	 -1.061159	 -0.099876	 -0.199036	 0.772645	 -0.466551	 0.381752	 2
1463630487.911	 17	 1.083833	 -1.133581	 -3.446428	 2.171542	 -1.095729	 -0.078557	 -0.213001	 0.764136	 -0.476064	 0.379591	 2
1463630487.921	 17	 1.086632	 -0.923605	 -3.529756	 2.183005	 -1.130796	 -0.054720	 -0.226475	 0.755710	 -0.485858	 0.376235	 2
1463630487.931	 17	 1.019349	 -0.772886	 -3.453160	 2.200343	 -1.164951	 -0.026654	 -0.239495	 0.747573	 -0.495293	 0.372104	 2
1463630487.941	 17	 0.979341	 -0.592693	 -3.261425	 2.222088	 -1.197164	 0.003877	 -0.251462	 0.739866	 -0.504250	 0.367556	 2
1463630487.951	 17	 0.953421	 -0.398445	 -3.032377	 2.246814	 -1.226926	 0.035243	 -0.262007	 0.732682	 -0.512728	 0.362821	 2
1463630487.961	 17	 1.012833	 -0.236151	 -2.775601	 2.274526	 -1.255156	 0.067465	 -0.271299	 0.725830	 -0.521092	 0.357813	 2
1463630487.971	 17	 1.134465	 0.004585	 -2.530360	 2.301886	 -1.281902	 0.096739	 -0.278847	 0.719273	 -0.529589	 0.352742	 2
1463630487.981	 17	 1.281640	 0.233520	 -2.288649	 2.327587	 -1.307638	 0.121587	 -0.284612	 0.712950	 -0.538415	 0.347574	 2
1463630487.991	 17	 1.410435	 0.365062	 -1.991199	 2.348146	 -1.332124	 0.139298	 -0.288643	 0.706820	 -0.547379	 0.342734	 2
1463630488.001	 17	 1.452205	 0.356605	 -1.674044	 2.361041	 -1.354750	 0.148757	 -0.291333	 0.700915	 -0.555989	 0.338701	 2
1463630488.011	 17	 1.445185	 0.203487	 -1.378060	 2.364269	 -1.375237	 0.149495	 -0.293252	 0.695167	 -0.563852	 0.335883	 2
1463630488.021	 17	 1.429937	 -0.085959	 -1.110983	 2.354860	 -1.393693	 0.140007	 -0.294943	 0.689358	 -0.570772	 0.334684	 2
1463630488.031	 17	 1.420742	 -0.426673	 -0.871079	 2.329625	 -1.410271	 0.117859	 -0.296724	 0.683333	 -0.576707	 0.335290	 2
1463630488.041	 17	 1.398598	 -0.743356	 -0.695851	 2.287560	 -1.425167	 0.082052	 -0.298792	 0.677045	 -0.581730	 0.337526	 2
1463630488.051	 17	 1.348734	 -0.987149	 -0.600701	 2.231236	 -1.438624	 0.034580	 -0.301291	 0.670557	 -0.585977	 0.340892	 2
1463630488.061	 17	 1.252170	 -1.131219	 -0.559636	 2.164708	 -1.450727	 -0.021366	 -0.304228	 0.664049	 -0.589549	 0.344842	 2
1463630488.071	 17	 1.113262	 -1.173312	 -0.553489	 2.093938	 -1.461532	 -0.080837	 -0.307524	 0.657776	 -0.592523	 0.348822	 2
1463630488.081	 17	 0.943905	 -1.114233	 -0.541873	 2.023765	 -1.470978	 -0.139995	 -0.310941	 0.652013	 -0.594959	 0.352445	 2
1463630488.091	 17	 0.768245	 -1.013829	 -0.554330	 1.959607	 -1.479293	 -0.193981	 -0.314391	 0.646899	 -0.596931	 0.355462	 2
1463630488.101	 17	 0.630708	 -0.946761	 -0.601534	 1.903007	 -1.487141	 -0.241195	 -0.317965	 0.642280	 -0.598606	 0.357834	 2
1463630488.111	 17	 0.493907	 -0.940403	 -0.659966	 1.854917	 -1.494893	 -0.279985	 -0.321902	 0.637971	 -0.599951	 0.359765	 2
1463630488.121	 17	 0.334875	 -0.890421	 -0.725259	 1.821584	 -1.502715	 -0.304303	 -0.326202	 0.634061	 -0.600950	 0.361134	 2
1463630488.131	 17	 0.199800	 -0.760549	 -0.764440	 1.807466	 -1.510619	 -0.310463	 -0.330580	 0.630688	 -0.601734	 0.361753	 2
1463630488.141	 17	 0.139705	 -0.592431	 -0.779404	 1.807492	 -1.518510	 -0.304100	 -0.334653	 0.627802	 -0.602557	 0.361659	 2
1463630488.151	 17	 0.134747	 -0.515808	 -0.775451	 1.813687	 -1.526400	 -0.292639	 -0.338437	 0.625138	 -0.603501	 0.361178	 2
1463630488.161	 17	 0.132221	 -0.639888	 -0.726492	 1.819833	 -1.533921	 -0.280537	 -0.342300	 0.622393	 -0.604250	 0.361025	 2
1463630488.171	 17	 0.063526	 -0.995597	 -0.671653	 1.837994	 -1.540753	 -0.253426	 -0.346965	 0.619339	 -0.604215	 0.361882	 2
1463630488.181	 17	 -0.129809	 -1.507496	 -0.644892	 1.922806	 -1.546721	 -0.154845	 -0.353245	 0.615929	 -0.602765	 0.364039	 2
1463630488.191	 17	 -0.456607	 -2.011743	 -0.643541	 2.188363	 -1.550751	 0.129709	 -0.361585	 0.612421	 -0.599432	 0.367258	 2
1463630488.201	 17	 -0.833746	 -2.363447	 -0.600900	 2.629396	 -1.549348	 0.593677	 -0.371652	 0.609280	 -0.594126	 0.371034	 2
1463630488.211	 17	 -1.213207	 -2.621806	 -0.447596	 2.935068	 -1.540526	 0.925076	 -0.382793	 0.606861	 -0.586824	 0.375268	 2
1463630488.221	 17	 -1.685494	 -2.698660	 -0.236375	 3.046130	 -1.525506	 1.063177	 -0.394458	 0.605753	 -0.577407	 0.379561	 2
1463630488.231	 17	 -2.242160	 -2.388741	 0.034599	 3.061715	 -1.504567	 1.103758	 -0.405727	 0.606936	 -0.566116	 0.382789	 2
1463630488.241	 17	 -2.623149	 -1.772506	 0.376168	 3.035990	 -1.478978	 1.097368	 -0.415148	 0.610935	 -0.553850	 0.384267	 2
1463630488.251	 17	 -2.805723	 -1.177029	 0.722211	 2.996013	 -1.450725	 1.070406	 -0.422113	 0.617316	 -0.541374	 0.384260	 2
1463630488.261	 17	 -2.927028	 -0.658792	 1.001990	 2.955289	 -1.420590	 1.037264	 -0.426866	 0.625549	 -0.528898	 0.383068	 2
1463630488.271	 17	 -3.038484	 0.037015	 1.131998	 2.924882	 -1.388845	 1.008047	 -0.429535	 0.635498	 -0.516943	 0.380015	 2
1463630488.281	 17	 -3.024892	 1.334574	 1.131165	 2.912932	 -1.356663	 0.986085	 -0.429181	 0.647525	 -0.507107	 0.373306	 2
1463630488.291	 17	 -2.683645	 3.251818	 1.207849	 2.918554	 -1.326783	 0.963501	 -0.423526	 0.662143	 -0.501689	 0.361249	 2
1463630488.301	 17	 -2.030352	 5.018142	 1.572430	 2.928176	 -1.302110	 0.925932	 -0.410979	 0.678836	 -0.501311	 0.344915	 2
1463630488.321	 18	 -0.958247	 6.887110	 2.473600	 2.934269	 -1.267872	 0.797696	 -0.367701	 0.714673	 -0.510521	 0.305624	 2
1463630488.331	 18	 -0.744453	 6.367443	 2.913457	 2.918898	 -1.254266	 0.712882	 -0.341901	 0.731366	 -0.515140	 0.287818	 2
1463630488.341	 18	 -0.805551	 5.278712	 3.079800	 2.891462	 -1.239580	 0.625133	 -0.317298	 0.746230	 -0.517180	 0.273840	 2
1463630488.351	 18	 -1.122764	 3.788253	 2.904565	 2.859844	 -1.221874	 0.547200	 -0.296678	 0.759068	 -0.515751	 0.264193	 2
1463630488.361	 18	 -1.651308	 1.940341	 2.339907	 2.832085	 -1.200140	 0.491736	 -0.282899	 0.769725	 -0.510210	 0.259187	 2
1463630488.371	 18	 -2.094731	 0.060085	 1.749694	 2.808517	 -1.175236	 0.460692	 -0.276861	 0.778089	 -0.500771	 0.259141	 2
1463630488.381	 18	 -2.190374	 -1.483421	 1.535800	 2.780593	 -1.149333	 0.442575	 -0.276438	 0.784185	 -0.488612	 0.264375	 2
1463630488.391	 18	 -1.917561	 -2.416573	 1.742157	 2.740803	 -1.124498	 0.423302	 -0.277925	 0.788333	 -0.475385	 0.274403	 2
1463630488.401	 18	 -1.511742	 -2.558527	 1.984560	 2.692798	 -1.101912	 0.398332	 -0.278534	 0.791195	 -0.462777	 0.286823	 2
1463630488.411	 18	 -1.419251	 -2.320411	 2.150098	 2.645109	 -1.079625	 0.371656	 -0.277740	 0.793862	 -0.450702	 0.299185	 2
1463630488.421	 18	 -1.432922	 -1.619280	 2.173793	 2.605323	 -1.056398	 0.347041	 -0.275309	 0.797293	 -0.439165	 0.309294	 2
1463630488.431	 18	 -1.349406	 -0.443946	 1.920760	 2.580523	 -1.034207	 0.327262	 -0.271114	 0.801819	 -0.429488	 0.314840	 2
1463630488.441	 18	 -1.188705	 0.467461	 1.531378	 2.572122	 -1.015098	 0.313783	 -0.265906	 0.807116	 -0.422380	 0.315362	 2
1463630488.451	 18	 -0.960479	 0.881823	 1.268937	 2.570925	 -0.999357	 0.303094	 -0.260474	 0.812234	 -0.417202	 0.313642	 2
1463630488.461	 18	 -0.705663	 1.248494	 1.040992	 2.574561	 -0.986941	 0.293751	 -0.254821	 0.817040	 -0.413824	 0.310262	 2
1463630488.471	 18	 -0.451208	 1.514333	 0.841952	 2.582121	 -0.977868	 0.285187	 -0.248948	 0.821476	 -0.412206	 0.305431	 2
1463630488.481	 18	 -0.218799	 1.548026	 0.742192	 2.590232	 -0.971531	 0.276261	 -0.243042	 0.825322	 -0.411833	 0.300279	 2
1463630488.491	 18	 -0.048608	 1.423143	 0.750206	 2.596314	 -0.966958	 0.265864	 -0.237086	 0.828567	 -0.412143	 0.295645	 2
1463630488.501	 18	 -0.098250	 0.939499	 0.917726	 2.596979	 -0.961855	 0.253501	 -0.231363	 0.831321	 -0.411840	 0.292856	 2
1463630488.511	 18	 -0.163400	 0.592837	 1.048287	 2.592148	 -0.955160	 0.239667	 -0.225984	 0.833770	 -0.410421	 0.292086	 2
1463630488.521	 18	 -0.047426	 0.566559	 0.991613	 2.586254	 -0.949112	 0.225534	 -0.220719	 0.835897	 -0.409213	 0.291725	 2
1463630488.531	 18	 0.168110	 0.680810	 0.846922	 2.581482	 -0.945355	 0.211702	 -0.215541	 0.837580	 -0.409084	 0.290951	 2
1463630488.541	 18	 0.426551	 0.843839	 0.699114	 2.578240	 -0.944483	 0.197797	 -0.210290	 0.838790	 -0.410380	 0.289477	 2
1463630488.551	 18	 0.677206	 0.943047	 0.547582	 2.576064	 -0.946556	 0.183692	 -0.205033	 0.839465	 -0.413083	 0.287441	 2
1463630488.561	 18	 0.882415	 0.961111	 0.334942	 2.574855	 -0.951499	 0.170375	 -0.200210	 0.839507	 -0.416998	 0.285057	 2
1463630488.571	 18	 1.046059	 0.949872	 0.171417	 2.574259	 -0.958868	 0.157948	 -0.195899	 0.838958	 -0.421872	 0.282486	 2
1463630488.581	 18	 1.177439	 0.888713	 0.004511	 2.573896	 -0.968259	 0.146459	 -0.192163	 0.837850	 -0.427481	 0.279895	 2
1463630488.601	 19	 1.463575	 0.656646	 -0.493588	 2.575931	 -0.994118	 0.129880	 -0.187570	 0.833651	 -0.441013	 0.274502	 2
1463630488.611	 19	 1.734335	 0.312939	 -0.699507	 2.574637	 -1.011639	 0.123510	 -0.187094	 0.829899	 -0.449199	 0.272915	 2
1463630488.621	 19	 1.949390	 -0.076331	 -0.904299	 2.569749	 -1.032266	 0.117596	 -0.187987	 0.824803	 -0.458251	 0.272701	 2
1463630488.631	 19	 1.869662	 -0.079582	 -1.091210	 2.565835	 -1.054055	 0.114356	 -0.189928	 0.819223	 -0.467457	 0.272552	 2
1463630488.641	 19	 1.195962	 0.188430	 -1.219267	 2.571321	 -1.072376	 0.119284	 -0.192616	 0.814920	 -0.474951	 0.270604	 2
1463630488.651	 19	 -0.122647	 0.612382	 -1.078081	 2.591826	 -1.080386	 0.136969	 -0.195756	 0.813924	 -0.477903	 0.266112	 2
1463630488.661	 19	 -1.148581	 0.660740	 -0.691419	 2.620444	 -1.076172	 0.161570	 -0.198561	 0.816343	 -0.475725	 0.260469	 2
1463630488.671	 19	 -1.090845	 0.212780	 -0.399808	 2.641881	 -1.068340	 0.182033	 -0.201168	 0.819071	 -0.471932	 0.256775	 2
1463630488.681	 19	 -0.479077	 -0.448271	 -0.081966	 2.647193	 -1.063443	 0.191315	 -0.203317	 0.820064	 -0.469214	 0.256897	 2
1463630488.691	 19	 0.060008	 -1.023906	 0.105150	 2.637705	 -1.062576	 0.190626	 -0.205186	 0.819127	 -0.467968	 0.260643	 2
1463630488.701	 19	 0.364274	 -1.474500	 0.133478	 2.619249	 -1.064554	 0.185176	 -0.207444	 0.816752	 -0.467616	 0.266867	 2
1463630488.711	 19	 0.484202	 -1.613138	 0.131144	 2.596925	 -1.067887	 0.178049	 -0.210062	 0.813628	 -0.467649	 0.274203	 2
1463630488.721	 19	 0.492278	 -1.324355	 0.209430	 2.575092	 -1.071122	 0.169309	 -0.211930	 0.810698	 -0.467911	 0.280916	 2
1463630488.731	 19	 0.428663	 -0.877708	 0.320716	 2.556228	 -1.073283	 0.159085	 -0.212426	 0.808559	 -0.468260	 0.286076	 2
1463630488.741	 19	 0.401325	 -0.431178	 0.430620	 2.540440	 -1.074338	 0.147386	 -0.211511	 0.807259	 -0.468709	 0.289668	 2
1463630488.751	 19	 0.591178	 0.158082	 0.510119	 2.527401	 -1.075852	 0.132512	 -0.208738	 0.806546	 -0.470127	 0.291365	 2
1463630488.761	 19	 0.822148	 0.652459	 0.575589	 2.516064	 -1.078969	 0.113452	 -0.204088	 0.806076	 -0.473019	 0.291277	 2
1463630488.771	 19	 0.699729	 0.751268	 0.804581	 2.504186	 -1.080727	 0.091386	 -0.198223	 0.806126	 -0.475758	 0.290727	 2
1463630488.781	 19	 0.232022	 0.277764	 1.028058	 2.489799	 -1.077735	 0.070113	 -0.192692	 0.806855	 -0.476224	 0.291660	 2
1463630488.791	 19	 -0.475329	 -0.594379	 1.037824	 2.473873	 -1.069106	 0.056316	 -0.189767	 0.807961	 -0.473197	 0.295417	 2
1463630488.801	 19	 -1.213597	 -1.086931	 0.872344	 2.462575	 -1.055195	 0.054917	 -0.189968	 0.809789	 -0.466642	 0.300664	 2
1463630488.811	 19	 -1.425116	 -0.913772	 0.611488	 2.459091	 -1.039838	 0.062206	 -0.191617	 0.812250	 -0.458904	 0.304862	 2
1463630488.821	 19	 -0.438878	 -0.711772	 0.411878	 2.454332	 -1.030988	 0.065275	 -0.192726	 0.813329	 -0.454332	 0.308116	 2
1463630488.831	 19	 1.108643	 -0.289344	 0.474806	 2.435486	 -1.033990	 0.048618	 -0.190677	 0.811296	 -0.456341	 0.311760	 2
1463630488.841	 19	 1.208146	 0.881688	 0.221594	 2.423035	 -1.041628	 0.027513	 -0.186105	 0.809547	 -0.461577	 0.311361	 2
1463630488.851	 19	 0.296736	 1.797118	 -0.339596	 2.435360	 -1.046991	 0.023162	 -0.182280	 0.810583	 -0.465566	 0.304922	 2
1463630488.871	 20	 -1.194453	 1.036306	 -1.134079	 2.506682	 -1.046600	 0.069690	 -0.184567	 0.816960	 -0.465063	 0.286752	 2
1463630488.881	 20	 -1.387342	 0.100770	 -1.297772	 2.541500	 -1.042736	 0.106031	 -0.190901	 0.819433	 -0.461565	 0.281149	 2
1463630488.891	 20	 -0.963956	 -0.863045	 -1.298704	 2.564390	 -1.040743	 0.139812	 -0.199261	 0.819836	 -0.458227	 0.279629	 2
1463630488.901	 20	 -0.021939	 -1.664072	 -1.229099	 2.570029	 -1.045204	 0.163532	 -0.208143	 0.817108	 -0.457341	 0.282577	 2
1463630488.911	 20	 0.780733	 -1.884237	 -1.197637	 2.563090	 -1.056856	 0.177114	 -0.216450	 0.811763	 -0.459552	 0.288101	 2
1463630488.931	 21	 1.461689	 -1.612048	 -1.228743	 2.541762	 -1.090678	 0.190910	 -0.230397	 0.798463	 -0.469224	 0.298668	 2
1463630488.941	 21	 1.826036	 -1.717589	 -1.261673	 2.525567	 -1.112085	 0.191660	 -0.236729	 0.790354	 -0.476043	 0.304440	 2
1463630488.951	 21	 2.031423	 -1.783560	 -1.329087	 2.505594	 -1.135920	 0.189178	 -0.243064	 0.781270	 -0.483765	 0.310658	 2
1463630488.961	 21	 2.056761	 -1.745115	 -1.444052	 2.485423	 -1.160808	 0.186387	 -0.249601	 0.771759	 -0.491784	 0.316601	 2
1463630488.981	 22	 1.992573	 -1.687217	 -1.552728	 2.450549	 -1.212113	 0.185127	 -0.263581	 0.752182	 -0.507941	 0.326716	 2
1463630488.991	 22	 1.880084	 -1.667816	 -1.416216	 2.430300	 -1.236096	 0.181383	 -0.270126	 0.742596	 -0.515251	 0.331812	 2
1463630489.001	 22	 1.663875	 -1.670626	 -1.304586	 2.409366	 -1.257804	 0.176957	 -0.276487	 0.733518	 -0.521542	 0.336899	 2
1463630489.011	 22	 1.423097	 -1.387813	 -1.270017	 2.392729	 -1.277342	 0.174984	 -0.282492	 0.725351	 -0.527045	 0.341009	 2
1463630489.021	 22	 1.223266	 -1.014771	 -1.243490	 2.383211	 -1.295159	 0.176547	 -0.287754	 0.718321	 -0.532196	 0.343482	 2
1463630489.031	 22	 1.096377	 -0.827736	 -1.170305	 2.377707	 -1.311514	 0.179803	 -0.292386	 0.712100	 -0.537014	 0.345023	 2
1463630489.041	 22	 1.000105	 -0.706773	 -1.102264	 2.374124	 -1.326626	 0.183704	 -0.296567	 0.706427	 -0.541486	 0.346125	 2
1463630489.051	 22	 0.915258	 -0.621207	 -1.070888	 2.372868	 -1.340839	 0.188966	 -0.300464	 0.701172	 -0.545694	 0.346840	 2
1463630489.061	 22	 0.845025	 -0.591113	 -1.056141	 2.374158	 -1.354386	 0.196420	 -0.304311	 0.696177	 -0.549633	 0.347326	 2
1463630489.071	 22	 0.830125	 -0.555143	 -1.088715	 2.378053	 -1.367847	 0.206131	 -0.308154	 0.691262	 -0.553529	 0.347567	 2
1463630489.081	 22	 0.827014	 -0.592932	 -1.020831	 2.381437	 -1.381040	 0.215503	 -0.311919	 0.686335	 -0.557295	 0.347955	 2
1463630489.091	 22	 0.834541	 -0.646630	 -0.942530	 2.381713	 -1.393669	 0.222208	 -0.315515	 0.681408	 -0.560816	 0.348739	 2
1463630489.101	 22	 0.868567	 -0.718660	 -0.888077	 2.378204	 -1.406098	 0.225768	 -0.319051	 0.676340	 -0.564189	 0.349946	 2
1463630489.111	 22	 0.927334	 -0.714480	 -0.874695	 2.370900	 -1.418725	 0.225637	 -0.322432	 0.671102	 -0.567640	 0.351347	 2
1463630489.131	 23	 0.968262	 -0.918319	 -0.806607	 2.341364	 -1.444442	 0.212696	 -0.329397	 0.659838	 -0.574376	 0.355251	 2
1463630489.141	 23	 0.931792	 -0.975494	 -0.785507	 2.320189	 -1.456616	 0.201085	 -0.333083	 0.654111	 -0.577267	 0.357712	 2
1463630489.151	 23	 0.935701	 -1.010956	 -0.833830	 2.297392	 -1.468942	 0.188223	 -0.336972	 0.648246	 -0.580094	 0.360163	 2
1463630489.161	 23	 0.956647	 -1.040210	 -0.899296	 2.272321	 -1.481849	 0.173426	 -0.341108	 0.642114	 -0.583007	 0.362545	 2
1463630489.171	 23	 0.947710	 -1.090470	 -0.940185	 2.244501	 -1.495110	 0.156248	 -0.345493	 0.635784	 -0.585908	 0.364863	 2
1463630489.181	 23	 0.908396	 -1.046811	 -0.949028	 2.212619	 -1.508239	 0.134978	 -0.349945	 0.629485	 -0.588697	 0.367046	 2
1463630489.191	 23	 0.918481	 -0.962664	 -0.928084	 2.166801	 -1.521158	 0.098948	 -0.354096	 0.623331	 -0.591547	 0.368979	 2
1463630489.201	 23	 0.950806	 -0.927396	 -0.891801	 2.081865	 -1.533769	 0.023205	 -0.357891	 0.617226	 -0.594483	 0.370860	 2
1463630489.211	 23	 0.939539	 -1.079237	 -0.861143	 1.909236	 -1.545635	 -0.139181	 -0.361874	 0.610920	 -0.597151	 0.373141	 2
1463630489.221	 23	 0.809628	 -1.271142	 -0.829825	 1.545768	 -1.555381	 -0.490463	 -0.366491	 0.604559	 -0.599071	 0.375908	 2
1463630489.231	 23	 0.575407	 -1.362072	 -0.849947	 0.789314	 -1.560972	 -1.233516	 -0.371842	 0.598560	 -0.600090	 0.378618	 2
1463630489.241	 23	 0.333583	 -1.436347	 -0.923136	 -0.199703	 -1.559709	 -2.208458	 -0.378032	 0.593008	 -0.600327	 0.380843	 2
1463630489.251	 23	 0.170591	 -1.572265	 -0.958152	 -0.749751	 -1.553305	 -2.743170	 -0.385073	 0.587638	 -0.599816	 0.382912	 2
1463630489.261	 23	 0.049385	 -1.729095	 -0.926583	 -1.015505	 -1.545483	 -2.992143	 -0.392700	 0.582336	 -0.598583	 0.385189	 2
1463630489.271	 23	 -0.170043	 -1.912076	 -0.874152	 -1.203088	 -1.538003	 3.122093	 -0.401061	 0.577284	 -0.596272	 0.387754	 2
1463630489.281	 23	 -0.503243	 -2.057062	 -0.761761	 -1.393755	 -1.531368	 2.951440	 -0.410156	 0.572975	 -0.592559	 0.390314	 2
1463630489.291	 23	 -0.834696	 -2.210311	 -0.468282	 -1.605468	 -1.526420	 2.761406	 -0.419647	 0.569794	 -0.586935	 0.393367	 2
1463630489.301	 23	 -1.054917	 -2.290677	 -0.199607	 -1.833921	 -1.522362	 2.555480	 -0.428997	 0.567678	 -0.579766	 0.396957	 2
1463630489.311	 23	 -1.391728	 -2.091920	 -0.061604	 -2.082621	 -1.516586	 2.328121	 -0.438063	 0.566894	 -0.571587	 0.400024	 2
1463630489.321	 23	 -1.877610	 -1.568565	 0.043415	 -2.337903	 -1.506172	 2.089554	 -0.446389	 0.568461	 -0.562802	 0.401052	 2
1463630489.331	 23	 -2.362211	 -0.830934	 0.216494	 -2.562631	 -1.489826	 1.874526	 -0.453275	 0.573055	 -0.553748	 0.399390	 2
1463630489.341	 23	 -2.642365	 -0.021074	 0.458805	 -2.736095	 -1.468803	 1.702596	 -0.457897	 0.580612	 -0.544996	 0.395221	 2
1463630489.351	 23	 -2.685252	 0.841556	 0.734760	 -2.863861	 -1.445626	 1.567722	 -0.459535	 0.590641	 -0.537248	 0.389018	 2
1463630489.361	 23	 -2.571871	 1.558068	 1.023933	 -2.960207	 -1.422393	 1.456420	 -0.458001	 0.602455	 -0.530846	 0.381426	 2
1463630489.371	 23	 -2.475117	 2.349258	 1.337393	 -3.037894	 -1.399457	 1.356121	 -0.453245	 0.615924	 -0.525745	 0.372557	 2
1463630489.381	 23	 -2.409332	 3.534536	 1.714472	 -3.102041	 -1.376366	 1.258264	 -0.444271	 0.631785	 -0.522418	 0.361318	 2
1463630489.391	 23	 -2.255427	 4.969357	 2.217799	 3.126243	 -1.353548	 1.155014	 -0.429625	 0.650524	 -0.521433	 0.346913	 2
1463630489.401	 23	 -1.953222	 5.944262	 2.720885	 3.075302	 -1.332131	 1.043727	 -0.409483	 0.671020	 -0.522367	 0.330438	 2
1463630489.411	 23	 -1.616677	 6.159808	 3.099372	 3.024752	 -1.312428	 0.928136	 -0.385879	 0.691359	 -0.523958	 0.313986	 2
1463630489.421	 23	 -1.304955	 5.718487	 3.382439	 2.970804	 -1.294020	 0.811366	 -0.360978	 0.710166	 -0.525001	 0.299556	 2
1463630489.431	 23	 -1.062733	 4.721919	 3.485093	 2.912407	 -1.276169	 0.698402	 -0.337021	 0.726506	 -0.524613	 0.288767	 2
1463630489.441	 23	 -0.932963	 3.415279	 3.318335	 2.853430	 -1.258300	 0.597309	 -0.316184	 0.739869	 -0.522423	 0.282303	 2
1463630489.451	 23	 -1.008344	 2.033024	 2.908599	 2.800021	 -1.239686	 0.515929	 -0.300095	 0.750399	 -0.518222	 0.279803	 2
1463630489.461	 23	 -1.274707	 0.530310	 2.384304	 2.754930	 -1.219503	 0.458333	 -0.289908	 0.758490	 -0.511522	 0.281054	 2
1463630489.471	 23	 -1.527646	 -1.106128	 1.905540	 2.714464	 -1.198022	 0.422519	 -0.286092	 0.764128	 -0.502061	 0.286696	 2
1463630489.481	 23	 -1.590688	 -2.469402	 1.624831	 2.672134	 -1.176402	 0.400216	 -0.287310	 0.767328	 -0.490419	 0.296900	 2
1463630489.491	 23	 -1.423778	 -3.107445	 1.416012	 2.628270	 -1.156470	 0.385114	 -0.291187	 0.768475	 -0.478191	 0.309821	 2
1463630489.501	 23	 -1.166484	 -2.999392	 1.313529	 2.586026	 -1.139114	 0.372463	 -0.295272	 0.768473	 -0.466861	 0.322962	 2
1463630489.511	 23	 -1.063462	 -2.245202	 1.367610	 2.550010	 -1.122813	 0.359790	 -0.297567	 0.768911	 -0.456888	 0.333892	 2
1463630489.521	 23	 -1.090853	 -1.231965	 1.596824	 2.521951	 -1.105195	 0.345158	 -0.296864	 0.771115	 -0.447918	 0.341501	 2
1463630489.531	 23	 -1.140936	 -0.231827	 1.770694	 2.502910	 -1.085846	 0.329057	 -0.293150	 0.775371	 -0.439871	 0.345508	 2
1463630489.541	 23	 -1.079702	 0.484219	 1.827980	 2.491438	 -1.066067	 0.312386	 -0.287279	 0.780980	 -0.432883	 0.346632	 2
1463630489.551	 23	 -0.888700	 1.002089	 1.743744	 2.485476	 -1.047817	 0.295397	 -0.280062	 0.787048	 -0.427376	 0.345645	 2
1463630489.561	 23	 -0.650822	 1.357459	 1.563800	 2.483918	 -1.032323	 0.278759	 -0.272196	 0.792993	 -0.423550	 0.343040	 2
1463630489.571	 23	 -0.453545	 1.489476	 1.368276	 2.485164	 -1.019739	 0.263008	 -0.264308	 0.798454	 -0.421129	 0.339505	 2
1463630489.581	 23	 -0.296483	 1.448404	 1.194939	 2.487331	 -1.009534	 0.248297	 -0.256837	 0.803247	 -0.419605	 0.335798	 2
1463630489.591	 23	 -0.113300	 1.301849	 1.006537	 2.489092	 -1.001823	 0.234484	 -0.250043	 0.807169	 -0.418888	 0.332400	 2
1463630489.601	 23	 0.066359	 1.105156	 0.796385	 2.489911	 -0.996859	 0.221714	 -0.244143	 0.810081	 -0.419008	 0.329537	 2
1463630489.611	 23	 0.206534	 0.968685	 0.514665	 2.490916	 -0.994649	 0.211145	 -0.239392	 0.812054	 -0.419932	 0.326982	 2
1463630489.621	 23	 0.334745	 0.989846	 0.257962	 2.494051	 -0.995151	 0.203197	 -0.235560	 0.813388	 -0.421809	 0.324019	 2
1463630489.631	 23	 0.425314	 1.102158	 0.088763	 2.499404	 -0.997621	 0.196829	 -0.232123	 0.814404	 -0.424504	 0.320410	 2
1463630489.641	 23	 0.504844	 1.103111	 -0.040878	 2.506079	 -1.001557	 0.191599	 -0.229023	 0.815126	 -0.427766	 0.316440	 2
1463630489.651	 23	 0.591566	 1.069796	 -0.199676	 2.513588	 -1.007077	 0.187716	 -0.226456	 0.815420	 -0.431561	 0.312352	 2
1463630489.661	 23	 0.681705	 1.096969	 -0.376059	 2.522580	 -1.014346	 0.185542	 -0.224434	 0.815301	 -0.435975	 0.307959	 2
1463630489.671	 23	 0.799738	 1.157017	 -0.554510	 2.533628	 -1.023567	 0.185071	 -0.222831	 0.814795	 -0.441166	 0.303032	 2
1463630489.681	 23	 0.931155	 1.110688	 -0.729805	 2.545878	 -1.034846	 0.186177	 -0.221765	 0.813737	 -0.447106	 0.297906	 2
1463630489.691	 23	 1.072603	 0.921865	 -0.896921	 2.557983	 -1.048210	 0.188884	 -0.221518	 0.811901	 -0.453660	 0.293154	 2
1463630489.701	 23	 1.251428	 0.718217	 -1.039988	 2.568959	 -1.063782	 0.192672	 -0.222094	 0.809153	 -0.460850	 0.289073	 2
1463630489.711	 23	 1.473874	 0.436166	 -1.123415	 2.577149	 -1.081705	 0.196145	 -0.223316	 0.805360	 -0.468746	 0.286013	 2
1463630489.721	 23	 1.468361	 0.186117	 -1.139549	 2.582831	 -1.100417	 0.199895	 -0.225223	 0.800888	 -0.476628	 0.284039	 2
1463630489.731	 23	 1.014392	 0.218141	 -1.013801	 2.590182	 -1.115893	 0.206265	 -0.227401	 0.797129	 -0.482968	 0.282162	 2
1463630489.741	 23	 0.044874	 1.176471	 -0.670319	 2.609185	 -1.122551	 0.217616	 -0.227890	 0.796722	 -0.486296	 0.277157	 2
1463630489.751	 23	 -0.882102	 1.845653	 -0.288333	 2.640640	 -1.118480	 0.232830	 -0.225998	 0.800374	 -0.486103	 0.268384	 2
1463630489.761	 23	 -1.110153	 1.068150	 -0.087890	 2.666804	 -1.109285	 0.247171	 -0.224758	 0.804678	 -0.483321	 0.261490	 2
1463630489.771	 23	 -0.534119	 -0.224865	 0.044269	 2.673994	 -1.102868	 0.254055	 -0.225371	 0.806547	 -0.480549	 0.260311	 2
1463630489.781	 23	 0.253459	 -1.386243	 0.080959	 2.660919	 -1.103054	 0.251894	 -0.227651	 0.805025	 -0.479430	 0.265059	 2
1463630489.801	 24	 0.947717	 -2.662980	 -0.134133	 2.601090	 -1.117691	 0.235505	 -0.236564	 0.794805	 -0.480832	 0.284819	 2
1463630489.811	 24	 0.721885	 -2.842782	 -0.085880	 2.566121	 -1.125039	 0.228059	 -0.242657	 0.788649	 -0.480758	 0.296684	 2
1463630489.821	 24	 0.410630	 -2.554740	 0.200871	 2.531936	 -1.128374	 0.219582	 -0.247843	 0.783629	 -0.479217	 0.307979	 2
1463630489.831	 24	 0.312814	 -1.897529	 0.587250	 2.498787	 -1.128095	 0.205915	 -0.250396	 0.780221	 -0.477112	 0.317682	 2
1463630489.841	 24	 0.444935	 -1.098791	 0.929247	 2.466534	 -1.126100	 0.184545	 -0.249530	 0.778236	 -0.475705	 0.325252	 2
1463630489.861	 25	 0.176609	 0.431784	 1.412630	 2.414709	 -1.115599	 0.129167	 -0.238957	 0.779204	 -0.474248	 0.332910	 2
1463630489.871	 25	 -0.278823	 0.347272	 1.308167	 2.400578	 -1.105312	 0.108847	 -0.232954	 0.781864	 -0.471840	 0.334347	 2
1463630489.881	 25	 -0.729156	 0.031725	 0.880715	 2.395502	 -1.093944	 0.101922	 -0.229822	 0.784671	 -0.467847	 0.335548	 2
1463630489.891	 25	 -0.873925	 -0.179681	 0.417468	 2.398079	 -1.083953	 0.106311	 -0.229519	 0.787088	 -0.463381	 0.336290	 2
1463630489.901	 25	 -0.224927	 -0.374974	 0.149954	 2.397507	 -1.079329	 0.109495	 -0.230246	 0.787772	 -0.460912	 0.337583	 2
1463630489.911	 25	 0.603467	 0.033122	 -0.000537	 2.389888	 -1.082385	 0.102483	 -0.229684	 0.786534	 -0.462455	 0.338741	 2
1463630489.921	 25	 0.215280	 1.619665	 -0.207270	 2.398886	 -1.086132	 0.099262	 -0.226868	 0.787487	 -0.465534	 0.334176	 2
1463630489.931	 25	 -0.424231	 2.765529	 -0.562990	 2.434803	 -1.087116	 0.110966	 -0.223243	 0.791822	 -0.468052	 0.322657	 2
1463630489.941	 25	 -0.785055	 2.702213	 -0.786379	 2.481932	 -1.086340	 0.132833	 -0.220783	 0.797034	 -0.469513	 0.309110	 2
1463630489.951	 25	 -0.988420	 2.023133	 -0.936937	 2.528526	 -1.084021	 0.160492	 -0.220632	 0.801633	 -0.469509	 0.297098	 2
1463630489.961	 25	 -0.807662	 1.028757	 -0.996789	 2.566274	 -1.082254	 0.188538	 -0.222856	 0.804505	 -0.468854	 0.288589	 2
1463630489.981	 26	 0.570048	 -1.246005	 -0.985190	 2.587516	 -1.092697	 0.223381	 -0.232823	 0.800888	 -0.470598	 0.287939	 2
1463630490.001	 27	 1.404036	 -1.533964	 -1.049484	 2.568048	 -1.123111	 0.235633	 -0.245008	 0.788528	 -0.479074	 0.297796	 2
1463630490.011	 27	 1.835989	 -1.708448	 -1.175300	 2.551871	 -1.143824	 0.235924	 -0.250885	 0.780476	 -0.485525	 0.303612	 2
1463630490.021	 27	 2.162391	 -1.999493	 -1.137154	 2.527170	 -1.167630	 0.229996	 -0.256843	 0.770922	 -0.492982	 0.310934	 2
1463630490.031	 27	 2.200602	 -2.275032	 -1.130459	 2.495630	 -1.192078	 0.219732	 -0.263148	 0.760508	 -0.500333	 0.319450	 2
1463630490.041	 27	 2.041965	 -2.571974	 -1.221365	 2.461738	 -1.215915	 0.210144	 -0.270556	 0.749607	 -0.506835	 0.328644	 2
1463630490.051	 27	 1.786347	 -2.839921	 -1.313288	 2.428178	 -1.238425	 0.204147	 -0.279368	 0.738452	 -0.512053	 0.338296	 2
1463630490.061	 27	 1.455132	 -2.850209	 -1.398958	 2.399734	 -1.259093	 0.204319	 -0.289134	 0.727630	 -0.515995	 0.347425	 2
1463630490.071	 27	 1.158061	 -2.672024	 -1.441607	 2.379527	 -1.277912	 0.211670	 -0.299248	 0.717552	 -0.518956	 0.355324	 2
1463630490.081	 27	 0.975752	 -2.285567	 -1.318124	 2.364632	 -1.294619	 0.221082	 -0.308471	 0.708564	 -0.521368	 0.361882	 2
1463630490.091	 27	 0.866420	 -1.787858	 -1.224083	 2.354806	 -1.309659	 0.230734	 -0.316229	 0.700823	 -0.523766	 0.366764	 2
1463630490.101	 27	 0.854755	 -1.323002	 -1.220721	 2.350055	 -1.324289	 0.240649	 -0.322657	 0.693999	 -0.526687	 0.369944	 2
1463630490.121	 28	 0.925671	 -0.595246	 -1.158081	 2.349640	 -1.353862	 0.257711	 -0.332021	 0.682173	 -0.534507	 0.372431	 2
1463630490.131	 28	 0.993524	 -0.293956	 -1.090857	 2.350113	 -1.368570	 0.261837	 -0.334928	 0.677054	 -0.539278	 0.372292	 2
1463630490.141	 28	 1.092705	 -0.102620	 -1.066493	 2.348168	 -1.383676	 0.261388	 -0.336959	 0.672087	 -0.544612	 0.371693	 2
1463630490.151	 28	 1.171600	 0.082433	 -1.036683	 2.343512	 -1.399226	 0.256247	 -0.338213	 0.667236	 -0.550486	 0.370639	 2
1463630490.161	 28	 1.232099	 0.187990	 -0.976544	 2.333867	 -1.414832	 0.244789	 -0.338800	 0.662490	 -0.556654	 0.369402	 2
1463630490.181	 29	 1.379922	 -0.016893	 -0.862504	 2.283963	 -1.445844	 0.192293	 -0.339278	 0.652425	 -0.568968	 0.368113	 2
1463630490.191	 29	 1.425759	 -0.255264	 -0.860858	 2.235532	 -1.461485	 0.145392	 -0.339985	 0.646573	 -0.574838	 0.368665	 2
1463630490.201	 29	 1.406769	 -0.639359	 -0.886648	 2.168993	 -1.476954	 0.083919	 -0.341755	 0.639991	 -0.580100	 0.370268	 2
1463630490.211	 29	 1.288335	 -1.075191	 -0.900330	 2.084240	 -1.491580	 0.008509	 -0.344951	 0.632806	 -0.584332	 0.372991	 2
1463630490.221	 29	 1.076633	 -1.367224	 -0.922520	 1.988534	 -1.504868	 -0.074328	 -0.349546	 0.625445	 -0.587340	 0.376388	 2
1463630490.231	 29	 0.860044	 -1.568799	 -0.939562	 1.887690	 -1.516913	 -0.160187	 -0.355193	 0.618247	 -0.589283	 0.379940	 2
1463630490.241	 29	 0.672377	 -1.502590	 -0.978876	 1.780961	 -1.528133	 -0.251573	 -0.361354	 0.611451	 -0.590567	 0.383121	 2
1463630490.251	 29	 0.508651	 -1.138414	 -0.986851	 1.663065	 -1.538763	 -0.357127	 -0.366981	 0.605640	 -0.591879	 0.384972	 2
1463630490.261	 29	 0.417101	 -0.687808	 -0.927507	 1.500277	 -1.548287	 -0.511976	 -0.371369	 0.601076	 -0.593527	 0.385381	 2
1463630490.271	 29	 0.486501	 -0.271768	 -0.876281	 1.140081	 -1.555861	 -0.868523	 -0.374246	 0.597346	 -0.595917	 0.384709	 2
1463630490.281	 29	 0.640097	 -0.079555	 -0.855580	 0.385001	 -1.557545	 -1.622604	 -0.375961	 0.593728	 -0.599163	 0.383594	 2
1463630490.291	 29	 0.708003	 -0.156390	 -0.863281	 -0.186665	 -1.551190	 -2.193076	 -0.377547	 0.589768	 -0.602638	 0.382701	 2
1463630490.301	 29	 0.630351	 -0.327418	 -0.865262	 -0.446451	 -1.542154	 -2.450127	 -0.379681	 0.585600	 -0.605700	 0.382156	 2
1463630490.311	 29	 0.408183	 -0.602176	 -0.856292	 -0.605712	 -1.533751	 -2.604188	 -0.382887	 0.581527	 -0.607705	 0.381992	 2
1463630490.321	 29	 0.135585	 -0.953207	 -0.825213	 -0.744219	 -1.526941	 -2.734523	 -0.387440	 0.577724	 -0.608292	 0.382238	 2
1463630490.331	 29	 -0.138086	 -1.525518	 -0.801511	 -0.887748	 -1.521495	 -2.864401	 -0.394091	 0.573707	 -0.606953	 0.383615	 2
1463630490.341	 29	 -0.435070	 -2.121655	 -0.703195	 -1.047538	 -1.517465	 -3.004765	 -0.402839	 0.569563	 -0.603427	 0.386257	 2
1463630490.351	 29	 -0.695879	 -2.519027	 -0.604441	 -1.224031	 -1.514448	 3.126015	 -0.413137	 0.565462	 -0.597891	 0.389995	 2
1463630490.361	 29	 -0.985129	 -2.926186	 -0.400019	 -1.425136	 -1.512087	 2.952706	 -0.424586	 0.561666	 -0.590375	 0.394608	 2
1463630490.371	 29	 -1.268707	 -3.096713	 -0.123104	 -1.658750	 -1.510558	 2.749515	 -0.436507	 0.558664	 -0.580757	 0.400097	 2
1463630490.391	 30	 -1.943422	 -2.789930	 0.254379	 -2.211595	 -1.500596	 2.254978	 -0.459469	 0.556646	 -0.557722	 0.409852	 2
1463630490.401	 30	 -2.419458	 -2.329435	 0.495145	 -2.487816	 -1.487305	 2.002528	 -0.469785	 0.558928	 -0.544747	 0.412494	 2
1463630490.411	 30	 -2.744845	 -1.516144	 0.898812	 -2.725151	 -1.468152	 1.781667	 -0.477784	 0.564425	 -0.531456	 0.413159	 2
1463630490.421	 30	 -2.729520	 -0.663261	 1.326526	 -2.911690	 -1.445798	 1.602601	 -0.482268	 0.572812	 -0.519038	 0.412194	 2
1463630490.431	 30	 -2.514085	 -0.103829	 1.702872	 -3.059128	 -1.422890	 1.456052	 -0.483465	 0.582833	 -0.507765	 0.410782	 2
1463630490.441	 30	 -2.445799	 0.283487	 2.045860	 3.101104	 -1.398723	 1.329685	 -0.482270	 0.594102	 -0.496963	 0.409250	 2
1463630490.451	 30	 -2.402242	 1.082506	 2.390763	 2.998915	 -1.372436	 1.217164	 -0.478227	 0.607312	 -0.487008	 0.406563	 2
1463630490.461	 30	 -2.035074	 2.426933	 2.688898	 2.918013	 -1.346461	 1.113232	 -0.469523	 0.622903	 -0.480012	 0.401408	 2
1463630490.471	 30	 -1.391091	 3.697666	 2.910399	 2.853299	 -1.324110	 1.011673	 -0.455455	 0.640014	 -0.477280	 0.393887	 2
1463630490.481	 30	 -0.758326	 4.444754	 3.079166	 2.796680	 -1.305978	 0.908759	 -0.437119	 0.657333	 -0.477995	 0.385176	 2
1463630490.491	 30	 -0.259718	 4.616498	 3.203249	 2.741797	 -1.290932	 0.803931	 -0.416230	 0.673776	 -0.480540	 0.376643	 2
1463630490.501	 30	 0.078042	 4.255130	 3.228918	 2.685752	 -1.277574	 0.699870	 -0.394671	 0.688475	 -0.483413	 0.369526	 2
1463630490.511	 30	 0.157125	 3.429066	 3.164057	 2.628679	 -1.264139	 0.601905	 -0.374468	 0.700919	 -0.485142	 0.364860	 2
1463630490.521	 30	 -0.179209	 2.478380	 2.906620	 2.578205	 -1.248263	 0.520230	 -0.357464	 0.711485	 -0.484459	 0.362364	 2
1463630490.531	 30	 -0.807183	 1.541707	 2.556998	 2.542125	 -1.228363	 0.463382	 -0.344904	 0.720872	 -0.480475	 0.361287	 2
1463630490.551	 31	 -1.544776	 0.198149	 2.229058	 2.498127	 -1.179339	 0.402602	 -0.329942	 0.737399	 -0.464353	 0.362985	 2
1463630490.561	 31	 -1.523573	 -0.259475	 2.200103	 2.477624	 -1.153721	 0.381892	 -0.324915	 0.744275	 -0.454398	 0.366071	 2
1463630490.571	 31	 -1.387665	 -0.645844	 2.216639	 2.453867	 -1.128764	 0.361915	 -0.320542	 0.750015	 -0.444094	 0.370824	 2
1463630490.581	 31	 -1.134967	 -0.756651	 2.292274	 2.426984	 -1.104950	 0.340257	 -0.315916	 0.754878	 -0.434147	 0.376660	 2
1463630490.591	 31	 -0.850037	 -0.608980	 2.383889	 2.397865	 -1.082293	 0.315002	 -0.310104	 0.759294	 -0.425122	 0.382856	 2
1463630490.601	 31	 -0.681204	 -0.261263	 2.293999	 2.372273	 -1.061143	 0.289918	 -0.303379	 0.763676	 -0.417377	 0.388015	 2
1463630490.611	 31	 -0.650925	 0.204233	 2.109427	 2.354247	 -1.041339	 0.268211	 -0.296218	 0.768423	 -0.410793	 0.391190	 2
1463630490.621	 31	 -0.641761	 0.711330	 1.932886	 2.344639	 -1.022740	 0.250192	 -0.288684	 0.773778	 -0.405288	 0.392009	 2
1463630490.631	 31	 -0.545545	 1.108731	 1.771619	 2.341068	 -1.005746	 0.234121	 -0.280755	 0.779490	 -0.400938	 0.390923	 2
1463630490.641	 31	 -0.366482	 1.413437	 1.621557	 2.341246	 -0.990960	 0.218267	 -0.272373	 0.785241	 -0.397956	 0.388382	 2
1463630490.651	 31	 -0.187543	 1.482937	 1.451190	 2.342842	 -0.978637	 0.202426	 -0.263995	 0.790564	 -0.396141	 0.385211	 2
1463630490.661	 31	 -0.032906	 1.389675	 1.266730	 2.344291	 -0.968753	 0.187010	 -0.256116	 0.795132	 -0.395193	 0.382090	 2
1463630490.671	 31	 0.103390	 1.275016	 1.057719	 2.345260	 -0.961273	 0.172480	 -0.248997	 0.798859	 -0.394980	 0.379230	 2
1463630490.681	 31	 0.259095	 1.228149	 0.818262	 2.346743	 -0.956534	 0.159094	 -0.242620	 0.801856	 -0.395724	 0.376252	 2
1463630490.691	 31	 0.423773	 1.290661	 0.558429	 2.349317	 -0.954758	 0.146768	 -0.236885	 0.804214	 -0.397603	 0.372875	 2
1463630490.701	 31	 0.552316	 1.361984	 0.325638	 2.353711	 -0.955712	 0.135673	 -0.231690	 0.806116	 -0.400572	 0.368836	 2
1463630490.711	 31	 0.666567	 1.351391	 0.084748	 2.359398	 -0.959186	 0.126026	 -0.227193	 0.807489	 -0.404434	 0.364388	 2
1463630490.721	 31	 0.770625	 1.255402	 -0.202676	 2.366084	 -0.965385	 0.118473	 -0.223743	 0.808162	 -0.409125	 0.359762	 2
1463630490.731	 31	 0.854361	 1.147789	 -0.487899	 2.373673	 -0.974303	 0.113488	 -0.221537	 0.808065	 -0.414555	 0.355101	 2
1463630490.741	 31	 0.914956	 1.073545	 -0.727848	 2.382515	 -0.985425	 0.110999	 -0.220374	 0.807372	 -0.420572	 0.350292	 2
1463630490.751	 31	 0.981994	 0.997246	 -0.955083	 2.392634	 -0.998622	 0.110921	 -0.220170	 0.806107	 -0.427151	 0.345339	 2
1463630490.761	 31	 1.039328	 0.877559	 -1.155994	 2.403667	 -1.013670	 0.113180	 -0.220905	 0.804241	 -0.434186	 0.340412	 2
1463630490.771	 31	 1.048190	 0.645421	 -1.336213	 2.415006	 -1.030125	 0.118136	 -0.222760	 0.801709	 -0.441379	 0.335894	 2
1463630490.781	 31	 0.947416	 0.159102	 -1.411267	 2.424875	 -1.046764	 0.126132	 -0.226074	 0.798451	 -0.447985	 0.332681	 2
1463630490.791	 31	 0.684236	 -0.264000	 -1.341507	 2.432511	 -1.061503	 0.136973	 -0.230662	 0.794868	 -0.453098	 0.331183	 2
1463630490.801	 31	 0.123832	 0.335653	 -1.012385	 2.445294	 -1.070886	 0.150698	 -0.234431	 0.793048	 -0.456164	 0.328683	 2
1463630490.811	 31	 -0.566351	 1.899390	 -0.380077	 2.473340	 -1.071185	 0.164981	 -0.233737	 0.795855	 -0.457250	 0.320787	 2
1463630490.821	 31	 -0.678722	 2.350832	 0.079117	 2.504455	 -1.065770	 0.174040	 -0.229607	 0.801082	 -0.457187	 0.310690	 2
1463630490.831	 31	 -0.323869	 1.521424	 0.397630	 2.522308	 -1.060466	 0.173845	 -0.224856	 0.805181	 -0.457043	 0.303701	 2
1463630490.841	 31	 0.077782	 0.136391	 0.530452	 2.519744	 -1.057279	 0.165464	 -0.221711	 0.806528	 -0.456702	 0.302953	 2
1463630490.851	 31	 0.428168	 -0.996544	 0.352731	 2.502786	 -1.057653	 0.154532	 -0.221221	 0.805057	 -0.456648	 0.307273	 2
1463630490.861	 31	 0.612435	 -1.737294	 0.068201	 2.478904	 -1.061440	 0.145106	 -0.223343	 0.801450	 -0.457025	 0.314522	 2
1463630490.871	 31	 0.554824	 -2.265938	 -0.105672	 2.451813	 -1.066449	 0.138715	 -0.227610	 0.796602	 -0.457052	 0.323609	 2
1463630490.881	 31	 0.330058	 -2.411999	 -0.097614	 2.424754	 -1.070166	 0.135256	 -0.232903	 0.791632	 -0.456025	 0.333341	 2
1463630490.891	 31	 0.092720	 -2.128762	 -0.003388	 2.401059	 -1.071424	 0.133591	 -0.237808	 0.787514	 -0.454030	 0.342237	 2
1463630490.901	 31	 -0.006250	 -1.462044	 0.080413	 2.383765	 -1.071096	 0.132689	 -0.241325	 0.784715	 -0.451981	 0.348852	 2
1463630490.911	 31	 0.109575	 -0.656399	 0.341618	 2.371021	 -1.069793	 0.127806	 -0.242098	 0.783391	 -0.450771	 0.352836	 2
1463630490.921	 31	 0.247274	 -0.148105	 0.821545	 2.356555	 -1.066468	 0.114297	 -0.239570	 0.783270	 -0.450081	 0.355699	 2
1463630490.931	 31	 0.335230	 0.243326	 1.006667	 2.341486	 -1.061567	 0.095220	 -0.234732	 0.784032	 -0.449725	 0.357690	 2
1463630490.941	 31	 0.280358	 0.107873	 0.786337	 2.328751	 -1.057576	 0.078659	 -0.230465	 0.784632	 -0.449613	 0.359287	 2
1463630490.951	 31	 0.174261	 -0.204416	 0.507257	 2.317855	 -1.054687	 0.067702	 -0.228144	 0.784610	 -0.449184	 0.361347	 2
1463630490.961	 31	 0.385982	 -0.557013	 0.225034	 2.306349	 -1.054487	 0.059398	 -0.227439	 0.783517	 -0.449299	 0.364010	 2
1463630490.971	 31	 0.993088	 -1.514563	 -0.010841	 2.281551	 -1.059770	 0.045615	 -0.228542	 0.779298	 -0.451095	 0.370103	 2
1463630490.981	 31	 0.522341	 -1.006372	 -0.377162	 2.261638	 -1.066667	 0.037580	 -0.231140	 0.774899	 -0.453014	 0.375344	 2
1463630490.991	 31	 -0.666759	 0.773460	 -0.947073	 2.279849	 -1.070201	 0.054714	 -0.234278	 0.775477	 -0.453320	 0.371820	 2
1463630491.001	 31	 -0.743946	 2.071328	 -1.234869	 2.323478	 -1.073767	 0.083728	 -0.236249	 0.779206	 -0.454548	 0.361125	 2
1463630491.011	 31	 -0.313447	 2.482813	 -1.079187	 2.368000	 -1.078928	 0.106799	 -0.235906	 0.783123	 -0.457774	 0.348582	 2
1463630491.021	 31	 0.046543	 2.232659	 -0.962087	 2.405374	 -1.085345	 0.122643	 -0.234451	 0.786075	 -0.462040	 0.337102	 2
1463630491.031	 31	 0.537866	 1.411229	 -0.954825	 2.430421	 -1.094628	 0.132345	 -0.233707	 0.786774	 -0.467116	 0.328893	 2
1463630491.041	 31	 1.187841	 0.374795	 -1.051126	 2.438954	 -1.109062	 0.134851	 -0.234571	 0.784198	 -0.473548	 0.325211	 2
1463630491.051	 31	 1.696689	 -0.474170	 -1.166835	 2.432770	 -1.128522	 0.131098	 -0.237103	 0.778611	 -0.481270	 0.325465	 2
1463630491.061	 31	 1.874418	 -0.944482	 -1.268678	 2.418352	 -1.150664	 0.124601	 -0.240987	 0.771241	 -0.489454	 0.327944	 2
1463630491.071	 31	 1.891711	 -1.278069	 -1.355062	 2.400272	 -1.173585	 0.117760	 -0.245892	 0.763022	 -0.497446	 0.331485	 2
1463630491.081	 31	 1.961910	 -2.106845	 -1.504066	 2.375228	 -1.197778	 0.110796	 -0.252855	 0.753218	 -0.504943	 0.337281	 2
1463630491.091	 31	 1.887408	 -3.352704	 -1.585351	 2.338592	 -1.222542	 0.104012	 -0.263164	 0.741117	 -0.510919	 0.347061	 2
1463630491.101	 31	 1.445010	 -4.205051	 -1.525484	 2.295145	 -1.244581	 0.100682	 -0.276374	 0.727869	 -0.514003	 0.360035	 2
1463630491.111	 31	 0.822450	 -4.834201	 -1.414013	 2.253994	 -1.261896	 0.106655	 -0.291803	 0.714709	 -0.513527	 0.374611	 2
1463630491.121	 31	 0.270965	 -5.230406	 -1.418227	 2.220446	 -1.275472	 0.125403	 -0.309201	 0.701729	 -0.509914	 0.389819	 2
1463630491.131	 31	 -0.091460	 -5.330710	 -1.462898	 2.196624	 -1.287043	 0.156130	 -0.327788	 0.688877	 -0.504259	 0.404631	 2
1463630491.141	 31	 -0.176748	 -5.043656	 -1.513839	 2.180616	 -1.298267	 0.192923	 -0.346142	 0.676213	 -0.498095	 0.418118	 2
1463630491.152	 31	 -0.042423	 -4.402627	 -1.504780	 2.168748	 -1.310232	 0.228119	 -0.362736	 0.664032	 -0.492896	 0.429579	 2
1463630491.161	 31	 0.228794	 -3.485358	 -1.481554	 2.158455	 -1.323420	 0.256047	 -0.376461	 0.652805	 -0.489732	 0.438503	 2
1463630491.171	 31	 0.556523	 -2.320707	 -1.495951	 2.149572	 -1.338461	 0.273887	 -0.386655	 0.643018	 -0.489555	 0.444255	 2
1463630491.182	 31	 0.840662	 -1.328397	 -1.532887	 2.141834	 -1.355450	 0.281830	 -0.393588	 0.634695	 -0.492403	 0.446978	 2
1463630491.192	 31	 1.011026	 -0.726933	 -1.538366	 2.133382	 -1.373690	 0.281962	 -0.398384	 0.627309	 -0.497232	 0.447810	 2
1463630491.202	 31	 1.070090	 -0.450328	 -1.505399	 2.123184	 -1.392150	 0.276691	 -0.401990	 0.620504	 -0.502926	 0.447711	 2
1463630491.212	 31	 1.069429	 -0.386319	 -1.479219	 2.110725	 -1.410399	 0.268056	 -0.405168	 0.613914	 -0.508759	 0.447340	 2
1463630491.221	 31	 1.077081	 -0.393394	 -1.424998	 2.094105	 -1.428271	 0.255210	 -0.408175	 0.607360	 -0.514463	 0.447029	 2
1463630491.231	 31	 1.112875	 -0.370305	 -1.306795	 2.067457	 -1.445351	 0.232125	 -0.410733	 0.600922	 -0.520018	 0.446960	 2
1463630491.242	 31	 1.134823	 -0.379816	 -1.142947	 2.024360	 -1.461069	 0.192493	 -0.412719	 0.594688	 -0.525281	 0.447312	 2
1463630491.252	 31	 1.048678	 -0.449680	 -0.985115	 1.965507	 -1.474853	 0.137623	 -0.414457	 0.588765	 -0.529887	 0.448109	 2
1463630491.262	 31	 0.795647	 -0.591498	 -0.843551	 1.904962	 -1.486153	 0.082384	 -0.416553	 0.583394	 -0.533251	 0.449199	 2
1463630491.272	 31	 0.447591	 -0.728909	 -0.719236	 1.863324	 -1.494943	 0.047623	 -0.419393	 0.578823	 -0.535035	 0.450346	 2
1463630491.282	 31	 0.152565	 -0.718556	 -0.584416	 1.851252	 -1.501505	 0.042880	 -0.422654	 0.575279	 -0.535516	 0.451265	 2
1463630491.292	 31	 0.003812	 -0.495666	 -0.415854	 1.860470	 -1.505994	 0.057761	 -0.425409	 0.572953	 -0.535446	 0.451718	 2
1463630491.302	 31	 0.019910	 -0.170054	 -0.242442	 1.870073	 -1.508745	 0.069931	 -0.426894	 0.571754	 -0.535567	 0.451694	 2
1463630491.312	 31	 0.155205	 0.118766	 -0.107712	 1.858658	 -1.510384	 0.057978	 -0.426878	 0.571267	 -0.536319	 0.451433	 2
1463630491.322	 31	 0.301372	 0.292095	 -0.054084	 1.821110	 -1.511706	 0.017799	 -0.425772	 0.570993	 -0.537769	 0.451099	 2
1463630491.332	 31	 0.372972	 0.325810	 -0.069314	 1.766371	 -1.513087	 -0.040303	 -0.424248	 0.570629	 -0.539628	 0.450775	 2
1463630491.342	 31	 0.342495	 0.259476	 -0.137855	 1.711074	 -1.514861	 -0.098486	 -0.423034	 0.570044	 -0.541502	 0.450408	 2
1463630491.352	 31	 0.249830	 0.132649	 -0.210700	 1.667207	 -1.517097	 -0.144099	 -0.422510	 0.569271	 -0.543072	 0.449988	 2
1463630491.362	 31	 0.151753	 -0.021717	 -0.269899	 1.638213	 -1.519790	 -0.173305	 -0.422798	 0.568295	 -0.544179	 0.449613	 2
1463630491.372	 31	 0.078060	 -0.214409	 -0.324339	 1.621121	 -1.522947	 -0.188767	 -0.423916	 0.567008	 -0.544798	 0.449436	 2
1463630491.382	 31	 0.025924	 -0.375140	 -0.362682	 1.612731	 -1.526522	 -0.193753	 -0.425764	 0.565378	 -0.544985	 0.449515	 2
1463630491.392	 31	 -0.033965	 -0.372032	 -0.398368	 1.617246	 -1.530368	 -0.185367	 -0.427947	 0.563737	 -0.544976	 0.449514	 2
1463630491.402	 31	 -0.051762	 -0.305977	 -0.390138	 1.632954	 -1.534295	 -0.166458	 -0.430046	 0.562311	 -0.545037	 0.449222	 2
1463630491.412	 31	 -0.017268	 -0.314942	 -0.292471	 1.643386	 -1.537518	 -0.152926	 -0.431858	 0.560986	 -0.545029	 0.449151	 2
1463630491.422	 31	 -0.067603	 -0.312126	 -0.071394	 1.657612	 -1.538832	 -0.135548	 -0.433197	 0.560113	 -0.544525	 0.449563	 2
1463630491.432	 31	 -0.231876	 -0.322232	 0.228355	 1.705314	 -1.537098	 -0.084639	 -0.434047	 0.560234	 -0.542971	 0.450470	 2
1463630491.442	 31	 -0.420290	 -0.307283	 0.599955	 1.780203	 -1.531435	 -0.006464	 -0.434349	 0.561632	 -0.540061	 0.451934	 2
1463630491.452	 31	 -0.474338	 -0.239123	 0.883486	 1.837697	 -1.522394	 0.053631	 -0.433800	 0.564090	 -0.536340	 0.453827	 2
1463630491.462	 31	 -0.466715	 -0.206350	 1.152297	 1.863279	 -1.510679	 0.081384	 -0.432367	 0.567204	 -0.532088	 0.456312	 2
1463630491.472	 31	 -0.548689	 -0.128943	 1.379673	 1.877297	 -1.496515	 0.097008	 -0.430206	 0.571068	 -0.527248	 0.459144	 2
1463630491.482	 31	 -0.752723	 0.138780	 1.548068	 1.900696	 -1.479869	 0.119878	 -0.427293	 0.576306	 -0.521867	 0.461462	 2
1463630491.492	 31	 -0.933303	 0.489697	 1.611522	 1.934277	 -1.461881	 0.149688	 -0.423724	 0.582908	 -0.516445	 0.462559	 2
1463630491.502	 31	 -1.062343	 1.073910	 1.745974	 1.970429	 -1.442155	 0.176902	 -0.418747	 0.591277	 -0.511379	 0.462098	 2
1463630491.512	 31	 -1.139665	 1.723192	 1.927474	 2.005564	 -1.420401	 0.196601	 -0.411778	 0.601658	 -0.506920	 0.459868	 2
1463630491.522	 31	 -1.054027	 2.476699	 2.173536	 2.032072	 -1.396736	 0.200423	 -0.402109	 0.613880	 -0.503438	 0.456080	 2
1463630491.532	 31	 -0.935718	 3.327259	 2.469243	 2.051466	 -1.370998	 0.188410	 -0.389033	 0.628122	 -0.501172	 0.450492	 2
1463630491.542	 31	 -0.640536	 4.052371	 2.844305	 2.061378	 -1.343345	 0.158870	 -0.372266	 0.643846	 -0.500090	 0.443610	 2
1463630491.562	 32	 0.776923	 5.488471	 3.887642	 2.025910	 -1.283235	 0.019609	 -0.323464	 0.676538	 -0.503578	 0.429040	 2
1463630491.572	 32	 1.269252	 5.987890	 4.460318	 1.992732	 -1.249090	 -0.076834	 -0.291325	 0.692729	 -0.507448	 0.421608	 2
1463630491.582	 32	 1.393698	 5.998034	 4.882436	 1.963683	 -1.210550	 -0.171658	 -0.256288	 0.708376	 -0.510544	 0.414567	 2
1463630491.592	 32	 1.240190	 5.478202	 5.004695	 1.943481	 -1.169026	 -0.254057	 -0.221372	 0.722626	 -0.511612	 0.408729	 2
1463630491.602	 32	 0.976533	 4.730849	 4.801805	 1.932138	 -1.127292	 -0.320497	 -0.188901	 0.734961	 -0.510576	 0.404303	 2
1463630491.612	 32	 0.647384	 3.797550	 4.451745	 1.926892	 -1.087441	 -0.371536	 -0.160356	 0.745182	 -0.507705	 0.401528	 2
1463630491.622	 32	 0.301563	 2.834623	 3.969400	 1.924930	 -1.050212	 -0.408747	 -0.136427	 0.753412	 -0.503172	 0.400721	 2
1463630491.632	 32	 0.024107	 2.069862	 3.267690	 1.925798	 -1.018219	 -0.433794	 -0.117608	 0.759863	 -0.498031	 0.400927	 2
1463630491.642	 32	 -0.154172	 1.630179	 2.699232	 1.929184	 -0.991322	 -0.450156	 -0.102805	 0.765159	 -0.492864	 0.401309	 2
1463630491.652	 32	 -0.208404	 1.503438	 2.360678	 1.934377	 -0.967869	 -0.462172	 -0.090162	 0.769870	 -0.487944	 0.401350	 2
1463630491.662	 32	 -0.158237	 1.643559	 2.196352	 1.941265	 -0.946426	 -0.473206	 -0.078044	 0.774425	 -0.483462	 0.400548	 2
1463630491.672	 32	 -0.051457	 1.950047	 2.116210	 1.950364	 -0.926302	 -0.485091	 -0.065437	 0.779115	 -0.479559	 0.398397	 2
1463630491.692	 33	 0.366057	 2.552109	 1.999878	 1.973083	 -0.889789	 -0.516153	 -0.037354	 0.788576	 -0.474158	 0.389778	 2
1463630491.702	 33	 0.600130	 2.532219	 1.845250	 1.983434	 -0.874615	 -0.535794	 -0.022796	 0.792508	 -0.473042	 0.384244	 2
1463630491.712	 33	 0.731094	 2.387000	 1.673303	 1.991920	 -0.861809	 -0.556503	 -0.008907	 0.795609	 -0.472767	 0.378706	 2
1463630491.722	 33	 0.792198	 2.138805	 1.499939	 1.998527	 -0.850910	 -0.577036	 0.003948	 0.797951	 -0.472980	 0.373562	 2
1463630491.732	 33	 0.903488	 1.768364	 1.209899	 2.002138	 -0.842784	 -0.597091	 0.015133	 0.799291	 -0.473964	 0.369137	 2
1463630491.742	 33	 1.142868	 1.454716	 0.589951	 2.002832	 -0.840139	 -0.616617	 0.023859	 0.799468	 -0.476657	 0.364801	 2
1463630491.752	 33	 1.267618	 1.018279	 0.005029	 2.000917	 -0.844429	 -0.634531	 0.029325	 0.798505	 -0.481352	 0.360318	 2
1463630491.762	 33	 1.119887	 0.573221	 -0.119323	 1.996181	 -0.850250	 -0.649836	 0.032605	 0.796917	 -0.486084	 0.357187	 2
1463630491.772	 33	 0.969425	 0.342914	 -0.111630	 1.990140	 -0.855435	 -0.663001	 0.034866	 0.795180	 -0.490219	 0.355188	 2
1463630491.782	 33	 0.864231	 0.366193	 -0.024171	 1.984437	 -0.859547	 -0.675112	 0.037075	 0.793610	 -0.493795	 0.353519	 2
1463630491.792	 33	 0.721044	 0.444135	 0.105693	 1.980265	 -0.861842	 -0.686255	 0.039788	 0.792473	 -0.496575	 0.351876	 2
1463630491.802	 33	 0.502714	 0.185456	 -0.013113	 1.976781	 -0.863804	 -0.694327	 0.041541	 0.791540	 -0.498688	 0.350784	 2
1463630491.812	 33	 0.308591	 -0.125579	 -0.154998	 1.973026	 -0.866287	 -0.698569	 0.041550	 0.790597	 -0.500296	 0.350619	 2
1463630491.822	 33	 0.198482	 -0.510151	 -0.283377	 1.967794	 -0.869491	 -0.700194	 0.039934	 0.789393	 -0.501699	 0.351514	 2
1463630491.832	 33	 0.084139	 -1.228749	 -0.274148	 1.957514	 -0.872572	 -0.700163	 0.036426	 0.787338	 -0.502856	 0.354836	 2
1463630491.842	 33	 -0.174615	 -2.122597	 -0.142729	 1.940386	 -0.873907	 -0.697737	 0.030765	 0.784206	 -0.503125	 0.361855	 2
1463630491.852	 33	 -0.551616	 -2.884959	 -0.114568	 1.918837	 -0.873241	 -0.690431	 0.022694	 0.780399	 -0.501866	 0.372280	 2
1463630491.872	 34	 -0.391194	 -3.537728	 -0.596303	 1.867921	 -0.877462	 -0.669757	 0.000635	 0.770426	 -0.499479	 0.396188	 2
1463630491.882	 34	 0.003536	 -3.668637	 -0.741639	 1.834981	 -0.884069	 -0.665216	 -0.011407	 0.763313	 -0.500455	 0.408372	 2
1463630491.892	 34	 0.210481	 -3.648308	 -0.788013	 1.798481	 -0.892012	 -0.665044	 -0.023148	 0.755198	 -0.502435	 0.420357	 2
1463630491.902	 34	 0.079705	 -3.267768	 -0.579773	 1.764905	 -0.898755	 -0.664810	 -0.033860	 0.747596	 -0.503841	 0.431391	 2
1463630491.912	 34	 -0.163673	 -3.018826	 -0.084021	 1.736055	 -0.900691	 -0.662519	 -0.042610	 0.741127	 -0.503334	 0.442233	 2
1463630491.922	 34	 -0.355602	 -3.013041	 0.488952	 1.709269	 -0.896811	 -0.658415	 -0.049564	 0.735266	 -0.500721	 0.454099	 2
1463630491.932	 34	 -0.570136	 -3.270997	 1.057537	 1.682284	 -0.887093	 -0.652126	 -0.055340	 0.729435	 -0.495897	 0.467918	 2
1463630491.942	 34	 -0.861005	 -3.687759	 1.403630	 1.654297	 -0.872986	 -0.641920	 -0.061163	 0.723225	 -0.488813	 0.484011	 2
1463630491.952	 34	 -1.202263	 -4.036081	 1.340480	 1.626604	 -0.858446	 -0.626282	 -0.068529	 0.716612	 -0.480126	 0.501249	 2
1463630491.962	 34	 -1.601774	 -4.308390	 1.029156	 1.600823	 -0.846693	 -0.604277	 -0.078444	 0.709782	 -0.470395	 0.518444	 2
1463630491.972	 34	 -1.999434	 -4.629726	 0.704571	 1.576502	 -0.838541	 -0.575925	 -0.091271	 0.702550	 -0.459693	 0.535514	 2
1463630491.982	 34	 -2.309187	 -4.930560	 0.456146	 1.552717	 -0.833558	 -0.542513	 -0.106592	 0.694667	 -0.448082	 0.552538	 2
1463630491.992	 34	 -2.490135	 -5.141841	 0.288431	 1.528750	 -0.831046	 -0.505955	 -0.123619	 0.685967	 -0.435770	 0.569449	 2
1463630492.002	 34	 -2.563747	 -5.098350	 0.242583	 1.505511	 -0.829984	 -0.468012	 -0.141159	 0.676801	 -0.422985	 0.585745	 2
1463630492.012	 34	 -2.545771	 -4.801680	 0.385867	 1.484764	 -0.828543	 -0.429884	 -0.157781	 0.667880	 -0.409733	 0.600966	 2
1463630492.022	 34	 -2.385027	 -4.441697	 0.663850	 1.466406	 -0.824986	 -0.393271	 -0.172353	 0.659501	 -0.396121	 0.615176	 2
1463630492.032	 34	 -2.111978	 -4.079474	 1.002690	 1.449161	 -0.818369	 -0.359855	 -0.184275	 0.651599	 -0.382391	 0.628680	 2
1463630492.052	 35	 -1.399258	 -3.126604	 1.713017	 1.417745	 -0.794168	 -0.306654	 -0.198436	 0.638120	 -0.355714	 0.653371	 2
1463630492.062	 35	 -1.158764	 -2.631517	 2.026733	 1.405280	 -0.776826	 -0.285318	 -0.201045	 0.633113	 -0.342674	 0.664322	 2
1463630492.072	 35	 -0.995407	 -2.150460	 2.281307	 1.396020	 -0.756670	 -0.265968	 -0.201297	 0.629492	 -0.329696	 0.674181	 2
1463630492.082	 35	 -0.860681	 -1.765831	 2.427591	 1.389578	 -0.734658	 -0.248173	 -0.199800	 0.627064	 -0.316887	 0.682974	 2
1463630492.092	 35	 -0.698288	 -1.545756	 2.480447	 1.384081	 -0.711737	 -0.232433	 -0.197087	 0.625199	 -0.304506	 0.691057	 2
1463630492.102	 35	 -0.506484	 -1.421524	 2.528958	 1.378201	 -0.688091	 -0.219099	 -0.193329	 0.623455	 -0.292621	 0.698785	 2
1463630492.112	 35	 -0.294563	 -1.359854	 2.611882	 1.371275	 -0.663382	 -0.208254	 -0.188464	 0.621610	 -0.281134	 0.706432	 2
1463630492.122	 35	 -0.082733	 -1.346858	 2.729524	 1.362938	 -0.637237	 -0.199733	 -0.182433	 0.619505	 -0.269882	 0.714210	 2
1463630492.132	 35	 0.092138	 -1.283479	 2.886324	 1.353844	 -0.609316	 -0.192974	 -0.175172	 0.617298	 -0.258662	 0.722047	 2
1463630492.142	 35	 0.225625	 -1.185808	 3.061921	 1.344944	 -0.579444	 -0.187259	 -0.166697	 0.615240	 -0.247270	 0.729760	 2
1463630492.152	 35	 0.327271	 -1.045547	 3.230732	 1.336843	 -0.547704	 -0.182146	 -0.157099	 0.613484	 -0.235627	 0.737182	 2
1463630492.162	 35	 0.426866	 -0.852407	 3.357422	 1.330128	 -0.514411	 -0.177591	 -0.146452	 0.612209	 -0.223845	 0.744074	 2
1463630492.172	 35	 0.586031	 -0.655568	 3.431405	 1.324772	 -0.479988	 -0.174172	 -0.134763	 0.611412	 -0.212247	 0.750311	 2
1463630492.182	 35	 1.193438	 -0.862632	 3.723669	 1.316118	 -0.442113	 -0.175149	 -0.120621	 0.609586	 -0.201097	 0.757242	 2
1463630492.192	 35	 1.849349	 -0.846463	 3.871578	 1.304682	 -0.400601	 -0.182208	 -0.103330	 0.606829	 -0.191132	 0.764559	 2
1463630492.202	 35	 2.354887	 -0.675723	 3.860240	 1.292895	 -0.357285	 -0.194234	 -0.083694	 0.603729	 -0.182698	 0.771445	 2
1463630492.212	 35	 2.647660	 -0.304899	 3.780143	 1.283931	 -0.313589	 -0.209324	 -0.062595	 0.601255	 -0.175634	 0.776999	 2
1463630492.222	 35	 2.771553	 -0.042680	 3.762321	 1.278315	 -0.269694	 -0.225600	 -0.040679	 0.599493	 -0.169207	 0.781231	 2
1463630492.232	 35	 2.625168	 0.135455	 3.773779	 1.275462	 -0.225814	 -0.240857	 -0.018795	 0.598173	 -0.162503	 0.784492	 2
1463630492.242	 35	 2.130491	 0.264331	 3.745181	 1.275670	 -0.183271	 -0.251825	 0.001530	 0.597497	 -0.154523	 0.786840	 2
1463630492.252	 35	 1.644389	 0.024520	 3.626751	 1.275796	 -0.143170	 -0.258094	 0.019458	 0.596438	 -0.145356	 0.789148	 2
1463630492.262	 35	 1.324981	 -0.635789	 3.524271	 1.270915	 -0.105168	 -0.261065	 0.035210	 0.593189	 -0.135541	 0.792790	 2
1463630492.282	 36	 0.975787	 -2.284096	 3.276440	 1.237129	 -0.034245	 -0.260745	 0.061543	 0.576675	 -0.115744	 0.806388	 2
1463630492.292	 36	 0.960136	 -2.777447	 3.146226	 1.210424	 -0.001152	 -0.258973	 0.072994	 0.564234	 -0.106515	 0.815454	 2
1463630492.302	 36	 1.025984	 -3.005813	 3.068924	 1.180790	 0.031291	 -0.256976	 0.084212	 0.550368	 -0.097793	 0.824888	 2
1463630492.312	 36	 1.190742	 -3.155992	 2.813507	 1.149467	 0.062356	 -0.256114	 0.095340	 0.535556	 -0.090330	 0.834224	 2
1463630492.322	 36	 1.350620	 -3.189337	 2.533640	 1.117674	 0.091449	 -0.257027	 0.106315	 0.520312	 -0.084515	 0.843108	 2
1463630492.332	 36	 1.423015	 -3.084435	 2.362394	 1.085352	 0.118293	 -0.258638	 0.116678	 0.504694	 -0.079966	 0.851631	 2
1463630492.342	 36	 1.435426	 -2.861831	 2.264170	 1.054926	 0.144218	 -0.260063	 0.126826	 0.489724	 -0.075793	 0.859268	 2
1463630492.352	 36	 1.415871	 -2.651674	 2.195956	 1.028107	 0.170484	 -0.261189	 0.137304	 0.476100	 -0.071474	 0.865661	 2
1463630492.362	 36	 1.355726	 -2.494193	 2.180893	 1.002829	 0.196233	 -0.261376	 0.147506	 0.463081	 -0.067041	 0.871380	 2
1463630492.372	 36	 1.274263	 -2.370346	 2.212596	 0.978578	 0.221776	 -0.260092	 0.157427	 0.450501	 -0.062190	 0.876583	 2
1463630492.382	 36	 1.187049	 -2.316799	 2.225593	 0.954706	 0.246942	 -0.257351	 0.166991	 0.438126	 -0.056994	 0.881426	 2
1463630492.392	 36	 1.059737	 -2.372894	 2.212325	 0.930026	 0.271329	 -0.252992	 0.175976	 0.425513	 -0.051561	 0.886179	 2
1463630492.402	 36	 0.957384	 -2.447118	 2.055858	 0.904262	 0.294007	 -0.247761	 0.184148	 0.412579	 -0.046447	 0.890904	 2
1463630492.412	 36	 0.886670	 -2.483103	 1.758792	 0.878105	 0.313970	 -0.243029	 0.191362	 0.399605	 -0.042402	 0.895488	 2
1463630492.422	 36	 0.857458	 -2.520476	 1.433641	 0.851906	 0.331086	 -0.239589	 0.197692	 0.386686	 -0.039741	 0.899896	 2
1463630492.432	 36	 0.860501	 -2.554345	 1.164727	 0.825805	 0.345945	 -0.237669	 0.203398	 0.373804	 -0.038395	 0.904116	 2
1463630492.442	 36	 0.902629	 -2.514357	 0.976092	 0.800314	 0.359453	 -0.237082	 0.208812	 0.361128	 -0.038016	 0.908041	 2
1463630492.452	 36	 0.984576	 -2.469661	 0.866021	 0.775762	 0.372529	 -0.237716	 0.214297	 0.348735	 -0.038321	 0.911588	 2
1463630492.462	 36	 1.065941	 -2.419866	 0.872171	 0.751804	 0.386070	 -0.238772	 0.220085	 0.336476	 -0.038804	 0.914790	 2
1463630492.472	 36	 1.129563	 -2.322897	 0.922610	 0.728648	 0.400427	 -0.239632	 0.226233	 0.324485	 -0.039097	 0.917605	 2
1463630492.482	 36	 1.167706	 -2.156014	 0.923831	 0.706874	 0.415279	 -0.240327	 0.232614	 0.313063	 -0.039210	 0.919970	 2
1463630492.492	 36	 1.164388	 -1.901200	 0.860153	 0.687545	 0.429872	 -0.241161	 0.238957	 0.302740	 -0.039281	 0.921794	 2
1463630492.502	 36	 1.141691	 -1.663509	 0.774104	 0.670833	 0.443793	 -0.242275	 0.245094	 0.293626	 -0.039399	 0.923125	 2
1463630492.512	 36	 1.135551	 -1.535420	 0.687957	 0.655924	 0.457111	 -0.243835	 0.251058	 0.285323	 -0.039700	 0.924113	 2
1463630492.522	 36	 1.115992	 -1.531780	 0.595440	 0.641578	 0.469806	 -0.245915	 0.256818	 0.277251	 -0.040360	 0.924958	 2
1463630492.532	 36	 1.032353	 -1.540696	 0.505496	 0.627220	 0.481448	 -0.248186	 0.262117	 0.269226	 -0.041362	 0.925798	 2
1463630492.552	 37	 0.726418	 -1.517919	 0.296285	 0.598568	 0.499723	 -0.252198	 0.270331	 0.253696	 -0.044118	 0.927692	 2
1463630492.562	 37	 0.583005	 -1.496104	 0.166648	 0.584520	 0.505952	 -0.254227	 0.273102	 0.246313	 -0.046002	 0.928778	 2
1463630492.572	 37	 0.490887	 -1.461654	 0.039879	 0.571047	 0.510624	 -0.256752	 0.275219	 0.239264	 -0.048312	 0.929878	 2
1463630492.582	 37	 0.411665	 -1.437626	 -0.051929	 0.558078	 0.514109	 -0.259712	 0.276836	 0.232492	 -0.050958	 0.930974	 2
1463630492.592	 37	 0.312223	 -1.447179	 -0.089520	 0.545053	 0.516566	 -0.262567	 0.277944	 0.225796	 -0.053735	 0.932135	 2
1463630492.612	 38	 0.018496	 -1.444675	 -0.156214	 0.518089	 0.517576	 -0.266589	 0.278086	 0.212555	 -0.059217	 0.934870	 2
1463630492.622	 38	 -0.134213	 -1.408564	 -0.224888	 0.504641	 0.515725	 -0.268122	 0.276989	 0.206226	 -0.062055	 0.936428	 2
1463630492.642	 39	 -0.371939	 -1.243964	 -0.356639	 0.479985	 0.507579	 -0.271232	 0.272746	 0.194996	 -0.067988	 0.939661	 2
1463630492.652	 39	 -0.408227	 -1.205903	 -0.402862	 0.468789	 0.502197	 -0.273119	 0.270050	 0.189976	 -0.071090	 0.941238	 2
1463630492.662	 39	 -0.392434	 -1.217937	 -0.442545	 0.457810	 0.496697	 -0.275486	 0.267325	 0.184996	 -0.074376	 0.942752	 2
1463630492.672	 39	 -0.329695	 -1.230127	 -0.484769	 0.447003	 0.491494	 -0.278597	 0.264783	 0.179965	 -0.077927	 0.944156	 2
1463630492.682	 39	 -0.217637	 -1.189319	 -0.532259	 0.436902	 0.487023	 -0.282720	 0.262666	 0.175063	 -0.081752	 0.945344	 2
1463630492.692	 39	 -0.064863	 -1.111428	 -0.582955	 0.428094	 0.483681	 -0.288077	 0.261204	 0.170507	 -0.085839	 0.946220	 2
1463630492.702	 39	 0.067918	 -1.013972	 -0.584272	 0.421481	 0.481539	 -0.294725	 0.260476	 0.166711	 -0.090100	 0.946700	 2
1463630492.712	 39	 0.133832	 -0.904069	 -0.509220	 0.414977	 0.480492	 -0.300782	 0.260188	 0.162943	 -0.093937	 0.947063	 2
1463630492.722	 39	 0.124189	 -0.805160	 -0.367535	 0.408900	 0.480059	 -0.305566	 0.260081	 0.159484	 -0.097043	 0.947367	 2
1463630492.742	 40	 -0.022250	 -0.691528	 -0.012353	 0.402711	 0.492913	 -0.312260	 0.266292	 0.154425	 -0.099552	 0.946219	 2
1463630492.752	 40	 -0.161246	 -0.661193	 0.154333	 0.395173	 0.492223	 -0.310522	 0.265462	 0.151156	 -0.099809	 0.946953	 2
1463630492.762	 40	 -0.308870	 -0.597251	 0.258526	 0.387284	 0.490595	 -0.306824	 0.264033	 0.148065	 -0.099283	 0.947896	 2
1463630492.772	 40	 -0.403631	 -0.556509	 0.265059	 0.379532	 0.488046	 -0.302373	 0.262133	 0.145217	 -0.098471	 0.948948	 2
1463630492.782	 40	 -0.429111	 -0.496089	 0.226410	 0.372420	 0.484938	 -0.298111	 0.260022	 0.142688	 -0.097710	 0.949990	 2
1463630492.792	 40	 -0.380902	 -0.444221	 0.211552	 0.366047	 0.482014	 -0.294239	 0.258068	 0.140430	 -0.097004	 0.950931	 2
1463630492.802	 40	 -0.272918	 -0.394614	 0.202548	 0.360419	 0.479918	 -0.290863	 0.256577	 0.138378	 -0.096340	 0.951703	 2
1463630492.812	 40	 -0.131811	 -0.339756	 0.197567	 0.355606	 0.479030	 -0.288115	 0.255739	 0.136519	 -0.095739	 0.952257	 2
1463630492.832	 41	 0.148881	 -0.162490	 0.261784	 0.348918	 0.481518	 -0.283656	 0.256290	 0.133684	 -0.094221	 0.952663	 2
1463630492.842	 41	 0.241313	 -0.096192	 0.347923	 0.346623	 0.484696	 -0.281053	 0.257505	 0.132646	 -0.092959	 0.952604	 2
1463630492.852	 41	 0.290931	 -0.047925	 0.423609	 0.344462	 0.488737	 -0.277799	 0.259091	 0.131685	 -0.091287	 0.952469	 2
1463630492.862	 41	 0.263679	 0.019485	 0.468170	 0.342695	 0.492867	 -0.273956	 0.260702	 0.130987	 -0.089280	 0.952316	 2
1463630492.872	 41	 0.194609	 0.036042	 0.523279	 0.340861	 0.496573	 -0.269327	 0.262063	 0.130402	 -0.086952	 0.952238	 2
1463630492.882	 41	 0.126299	 -0.010177	 0.575666	 0.338260	 0.499800	 -0.263811	 0.263112	 0.129617	 -0.084353	 0.952290	 2
1463630492.892	 41	 0.067245	 -0.088689	 0.578647	 0.334722	 0.502478	 -0.257851	 0.263841	 0.128496	 -0.081723	 0.952469	 2
1463630492.902	 41	 0.021918	 -0.168562	 0.546325	 0.330388	 0.504594	 -0.251964	 0.264287	 0.127037	 -0.079290	 0.952747	 2
1463630492.922	 42	 0.040002	 -0.277162	 0.391688	 0.320738	 0.507913	 -0.242284	 0.264872	 0.123457	 -0.075645	 0.953351	 2
1463630492.932	 42	 0.079318	 -0.279693	 0.351888	 0.316160	 0.509687	 -0.238615	 0.265313	 0.121624	 -0.074341	 0.953567	 2
1463630492.942	 42	 0.131660	 -0.259717	 0.340961	 0.311863	 0.511869	 -0.235299	 0.265985	 0.119849	 -0.073135	 0.953698	 2
1463630492.952	 42	 0.180031	 -0.190684	 0.346511	 0.308193	 0.514517	 -0.232117	 0.266913	 0.118324	 -0.071871	 0.953725	 2
1463630492.962	 42	 0.212666	 -0.073661	 0.363302	 0.305536	 0.517562	 -0.228893	 0.268066	 0.117262	 -0.070422	 0.953641	 2
1463630492.982	 43	 0.200854	 0.132752	 0.368523	 0.303756	 0.523857	 -0.222226	 0.270588	 0.116851	 -0.066934	 0.953230	 2
1463630492.992	 43	 0.166346	 0.084749	 0.335338	 0.303188	 0.526564	 -0.219021	 0.271661	 0.116820	 -0.065249	 0.953046	 2
1463630493.002	 43	 0.133484	 -0.046395	 0.277919	 0.301679	 0.528791	 -0.216266	 0.272503	 0.116316	 -0.063950	 0.952955	 2
1463630493.012	 43	 0.113209	 -0.202228	 0.194581	 0.299055	 0.530546	 -0.214273	 0.273133	 0.115214	 -0.063208	 0.952958	 2
1463630493.022	 43	 0.107857	 -0.357080	 0.105795	 0.295323	 0.531964	 -0.213225	 0.273626	 0.113479	 -0.063098	 0.953032	 2
1463630493.032	 43	 0.098536	 -0.449163	 0.017626	 0.290973	 0.533044	 -0.213123	 0.273992	 0.111345	 -0.063555	 0.953148	 2
1463630493.042	 43	 0.099148	 -0.465809	 -0.077387	 0.286770	 0.533838	 -0.214045	 0.274284	 0.109160	 -0.064504	 0.953253	 2
1463630493.052	 43	 0.093837	 -0.387715	 -0.164006	 0.283620	 0.534361	 -0.215959	 0.274532	 0.107360	 -0.065806	 0.953297	 2
1463630493.062	 43	 0.049384	 -0.262485	 -0.220005	 0.281955	 0.534383	 -0.218498	 0.274623	 0.106216	 -0.067243	 0.953299	 2
1463630493.072	 43	 -0.048012	 -0.092058	 -0.225032	 0.281846	 0.533548	 -0.220972	 0.274355	 0.105883	 -0.068505	 0.953323	 2
1463630493.082	 43	 -0.157794	 0.115019	 -0.167795	 0.283311	 0.531765	 -0.222633	 0.273651	 0.106481	 -0.069242	 0.953406	 2
1463630493.102	 44	 -0.249975	 0.484168	 0.098620	 0.289911	 0.527238	 -0.221319	 0.271667	 0.110130	 -0.068091	 0.953641	 2
1463630493.112	 44	 -0.213923	 0.555176	 0.224727	 0.293867	 0.525638	 -0.218404	 0.270881	 0.112527	 -0.066298	 0.953711	 2
1463630493.122	 44	 -0.145308	 0.554495	 0.305121	 0.297582	 0.524916	 -0.214661	 0.270448	 0.114855	 -0.064072	 0.953709	 2
1463630493.132	 44	 -0.105965	 0.515106	 0.316135	 0.300880	 0.524790	 -0.210773	 0.270267	 0.116962	 -0.061783	 0.953655	 2
1463630493.142	 44	 -0.148015	 0.477539	 0.252206	 0.304017	 0.524349	 -0.207311	 0.269950	 0.118956	 -0.059746	 0.953628	 2
1463630493.152	 44	 -0.244815	 0.420564	 0.129956	 0.307102	 0.522744	 -0.204760	 0.269129	 0.120881	 -0.058253	 0.953711	 2
1463630493.162	 44	 -0.338633	 0.337874	 -0.017071	 0.310036	 0.519785	 -0.203427	 0.267734	 0.122662	 -0.057480	 0.953923	 2
1463630493.172	 44	 -0.374919	 0.233753	 -0.162668	 0.312703	 0.515868	 -0.203521	 0.265964	 0.124189	 -0.057511	 0.954218	 2
1463630493.182	 44	 -0.314177	 0.089123	 -0.281777	 0.314766	 0.511884	 -0.205109	 0.264238	 0.125235	 -0.058346	 0.954511	 2
1463630493.192	 44	 -0.141491	 -0.103483	 -0.371399	 0.315767	 0.508990	 -0.208249	 0.263094	 0.125499	 -0.059969	 0.954691	 2
1463630493.202	 44	 0.094153	 -0.321590	 -0.431966	 0.315374	 0.508012	 -0.212917	 0.262911	 0.124766	 -0.062335	 0.954686	 2
1463630493.212	 44	 0.312877	 -0.517224	 -0.480453	 0.313597	 0.509055	 -0.218956	 0.263722	 0.123048	 -0.065359	 0.954483	 2
1463630493.222	 44	 0.439048	 -0.658279	 -0.520166	 0.310752	 0.511432	 -0.225983	 0.265179	 0.120589	 -0.068878	 0.954146	 2
1463630493.232	 44	 0.432270	 -0.704283	 -0.559968	 0.307489	 0.513972	 -0.233543	 0.266714	 0.117839	 -0.072693	 0.953778	 2
1463630493.242	 44	 0.305195	 -0.689297	 -0.598155	 0.304281	 0.515477	 -0.241177	 0.267750	 0.115175	 -0.076630	 0.953505	 2
1463630493.252	 44	 0.102555	 -0.626266	 -0.641632	 0.301510	 0.515079	 -0.248626	 0.267878	 0.112887	 -0.080587	 0.953417	 2
1463630493.262	 44	 -0.143385	 -0.472653	 -0.678560	 0.299816	 0.512338	 -0.255716	 0.266912	 0.111349	 -0.084433	 0.953536	 2
1463630493.272	 44	 -0.413345	 -0.233657	 -0.684643	 0.299939	 0.507009	 -0.262033	 0.264753	 0.110996	 -0.087897	 0.953866	 2
1463630493.282	 44	 -0.651149	 0.023425	 -0.676983	 0.302123	 0.499308	 -0.267414	 0.261514	 0.111960	 -0.090856	 0.954369	 2
1463630493.302	 45	 -0.820939	 0.401943	 -0.616563	 0.311782	 0.480217	 -0.275937	 0.253433	 0.117064	 -0.095395	 0.955494	 2
1463630493.312	 45	 -0.714895	 0.410784	 -0.527880	 0.317499	 0.471384	 -0.279245	 0.249728	 0.120127	 -0.097064	 0.955920	 2
1463630493.322	 45	 -0.494206	 0.266337	 -0.410715	 0.321815	 0.464724	 -0.281969	 0.246955	 0.122422	 -0.098447	 0.956208	 2
1463630493.332	 45	 -0.195013	 0.049107	 -0.324751	 0.324074	 0.461054	 -0.284640	 0.245495	 0.123488	 -0.099790	 0.956308	 2
1463630493.342	 45	 0.096465	 -0.187513	 -0.277266	 0.324187	 0.460396	 -0.287783	 0.245384	 0.123214	 -0.101340	 0.956209	 2
1463630493.352	 45	 0.292735	 -0.446429	 -0.261135	 0.322037	 0.461943	 -0.291462	 0.246230	 0.121599	 -0.103218	 0.955997	 2
1463630493.362	 45	 0.331998	 -0.697746	 -0.287262	 0.317496	 0.464234	 -0.295579	 0.247323	 0.118718	 -0.105533	 0.955824	 2
1463630493.372	 45	 0.253103	 -0.864871	 -0.338221	 0.311117	 0.465880	 -0.300006	 0.248019	 0.114974	 -0.108286	 0.955794	 2
1463630493.382	 45	 0.069248	 -0.827973	 -0.457774	 0.304927	 0.465719	 -0.304887	 0.247879	 0.111425	 -0.111401	 0.955892	 2
1463630493.392	 45	 -0.087182	 -0.820210	 -0.623664	 0.299421	 0.463504	 -0.310932	 0.246852	 0.108247	 -0.115171	 0.956076	 2
1463630493.402	 45	 -0.205895	 -0.750735	 -0.771191	 0.294925	 0.459653	 -0.318210	 0.245157	 0.105557	 -0.119546	 0.956277	 2
1463630493.412	 45	 -0.270869	 -0.629052	 -0.884595	 0.291997	 0.454693	 -0.326544	 0.243068	 0.103604	 -0.124326	 0.956414	 2
1463630493.422	 45	 -0.287713	 -0.527353	 -0.947448	 0.290463	 0.449268	 -0.335589	 0.240871	 0.102295	 -0.129314	 0.956449	 2
