% Gyrometer data recorded with 'snsrlog'
% 
% 
% Label description:
% 	 0: Default Label
% 	 1: still_drop
% 	 2: walk_drop
% 	 3: other
% 	 4: dtw_same
% 	 5: dtw_diff
% 	 6: delete
% 
% Column description:
% 	 1: Seconds.milliseconds since 1970
% 	 2: Number of skipped measurements
% 	 3: Gyro X
% 	 4: Gyro Y
% 	 5: Gyro Z
% 	 6: Roll of the device
% 	 7: Pitch of the device
% 	 8: Yaw of the device
% 	 9: Quaternion X
% 	 10: Quaternion Y
% 	 11: Quaternion Z
% 	 12: Quaternion W
% 	 13: Label used for the current sample
% 
% 
1462073547.748	 0	 -0.705712	 2.067560	 -0.082990	 0.232382	 0.369552	 -0.038614	 0.184653	 0.110412	 0.002446	 0.976579	 2
1462073547.758	 0	 -0.746056	 2.189324	 -0.175292	 0.253969	 0.362108	 -0.038302	 0.180969	 0.121130	 0.004115	 0.975992	 2
1462073547.768	 0	 -0.955289	 1.844281	 -0.319493	 0.273682	 0.352788	 -0.038675	 0.176405	 0.130911	 0.005075	 0.975560	 2
1462073547.778	 0	 -1.085072	 1.682305	 -0.560733	 0.291511	 0.341168	 -0.040554	 0.170826	 0.139697	 0.004881	 0.975336	 2
1462073547.788	 0	 -1.086262	 1.483129	 -0.892962	 0.308308	 0.328364	 -0.045287	 0.164895	 0.147784	 0.003017	 0.975172	 2
1462073547.798	 0	 -1.013667	 1.356771	 -1.274182	 0.324816	 0.314863	 -0.053675	 0.158949	 0.155486	 -0.000812	 0.974966	 2
1462073547.808	 0	 -0.913387	 1.430402	 -1.639926	 0.342389	 0.300909	 -0.065843	 0.153160	 0.163482	 -0.006547	 0.974563	 2
1462073547.818	 0	 -0.831633	 1.790921	 -1.907989	 0.363647	 0.286539	 -0.080880	 0.147547	 0.173147	 -0.013558	 0.973687	 2
1462073547.828	 1	 -0.731305	 2.173264	 -2.090748	 0.389150	 0.271947	 -0.097807	 0.142203	 0.184835	 -0.021341	 0.972193	 2
1462073547.848	 1	 -0.520074	 2.646701	 -2.134009	 0.448023	 0.243853	 -0.133714	 0.133052	 0.212079	 -0.037697	 0.967419	 2
1462073547.858	 1	 -0.537542	 2.906156	 -2.003551	 0.480249	 0.230000	 -0.150006	 0.128844	 0.227237	 -0.045089	 0.964225	 2
1462073547.868	 1	 -0.536543	 3.085122	 -1.964593	 0.514053	 0.215872	 -0.165045	 0.124665	 0.243278	 -0.051966	 0.960507	 2
1462073547.878	 1	 -0.439628	 3.137203	 -2.076857	 0.548586	 0.201474	 -0.180604	 0.120715	 0.259665	 -0.059239	 0.956291	 2
1462073547.888	 1	 -0.236542	 3.120497	 -2.245040	 0.583162	 0.187177	 -0.197939	 0.117349	 0.275964	 -0.067491	 0.951587	 2
1462073547.898	 1	 0.031832	 3.129254	 -2.395436	 0.617907	 0.173550	 -0.217505	 0.114953	 0.292167	 -0.076814	 0.946321	 2
1462073547.908	 1	 0.268414	 3.171198	 -2.529260	 0.653105	 0.160461	 -0.239170	 0.113513	 0.308408	 -0.087107	 0.940432	 2
1462073547.918	 1	 0.337702	 3.274194	 -2.671717	 0.689030	 0.146714	 -0.262139	 0.112415	 0.324927	 -0.098143	 0.933892	 2
1462073547.928	 1	 0.172875	 3.622666	 -2.938809	 0.727387	 0.129848	 -0.285555	 0.110529	 0.342739	 -0.109861	 0.926414	 2
1462073547.938	 1	 -0.146416	 3.760308	 -3.154295	 0.767576	 0.108271	 -0.308147	 0.106957	 0.361758	 -0.122072	 0.918036	 2
1462073547.948	 1	 -0.551119	 3.743120	 -3.194628	 0.806854	 0.082495	 -0.327584	 0.101376	 0.380805	 -0.133872	 0.909279	 2
1462073547.958	 1	 -0.906890	 3.826560	 -3.125742	 0.845882	 0.053791	 -0.342862	 0.094156	 0.400098	 -0.144629	 0.900077	 2
1462073547.968	 1	 -1.114925	 4.017977	 -3.067796	 0.885939	 0.023396	 -0.354641	 0.086004	 0.420010	 -0.154421	 0.890140	 2
1462073547.978	 1	 -1.145199	 4.359718	 -3.035576	 0.928671	 -0.007704	 -0.364384	 0.077753	 0.441038	 -0.163697	 0.879001	 2
1462073547.988	 1	 -0.977378	 4.785400	 -2.935026	 0.975258	 -0.037795	 -0.373171	 0.070495	 0.463415	 -0.172554	 0.866315	 2
1462073547.998	 1	 -0.651606	 5.214856	 -2.836882	 1.025827	 -0.065858	 -0.382402	 0.065041	 0.486966	 -0.181355	 0.851906	 2
1462073548.008	 1	 -0.301387	 5.696788	 -2.825855	 1.080694	 -0.092267	 -0.393041	 0.061555	 0.511717	 -0.190529	 0.835497	 2
1462073548.028	 2	 -0.066875	 6.344846	 -3.126674	 1.201409	 -0.147368	 -0.416486	 0.057120	 0.564067	 -0.210797	 0.796323	 2
1462073548.038	 2	 -0.262870	 6.178760	 -3.374836	 1.262367	 -0.179246	 -0.425682	 0.053523	 0.589734	 -0.221478	 0.774788	 2
1462073548.048	 2	 -0.701916	 5.401715	 -3.636158	 1.317893	 -0.215114	 -0.430148	 0.046999	 0.612835	 -0.231977	 0.753931	 2
1462073548.058	 2	 -1.317102	 4.592394	 -3.872801	 1.366317	 -0.254917	 -0.427331	 0.036420	 0.632792	 -0.241539	 0.734784	 2
1462073548.068	 2	 -1.675163	 3.934935	 -4.037797	 1.409691	 -0.297147	 -0.418415	 0.022784	 0.650224	 -0.250271	 0.716976	 2
1462073548.078	 2	 -1.639211	 3.540189	 -4.189925	 1.449345	 -0.340598	 -0.407117	 0.007798	 0.665464	 -0.259193	 0.699940	 2
1462073548.088	 2	 -1.206295	 3.587842	 -4.337128	 1.488218	 -0.384754	 -0.397587	 -0.006595	 0.679507	 -0.269557	 0.682324	 2
1462073548.098	 2	 -0.489124	 3.938886	 -4.479721	 1.528412	 -0.429598	 -0.393193	 -0.018859	 0.693097	 -0.282428	 0.662944	 2
1462073548.108	 2	 0.431312	 4.190075	 -4.376690	 1.568329	 -0.473792	 -0.396427	 -0.027714	 0.705786	 -0.298018	 0.642093	 2
1462073548.118	 2	 1.459905	 4.290829	 -4.001034	 1.604967	 -0.515070	 -0.409322	 -0.031978	 0.716829	 -0.315902	 0.620758	 2
1462073548.128	 2	 2.437667	 4.113179	 -3.463398	 1.634671	 -0.552169	 -0.432856	 -0.031461	 0.725385	 -0.335525	 0.600209	 2
1462073548.138	 2	 3.093920	 3.820998	 -2.862215	 1.656236	 -0.584442	 -0.465163	 -0.026977	 0.731340	 -0.355767	 0.581244	 2
1462073548.148	 2	 3.302617	 3.453457	 -2.273822	 1.671088	 -0.611562	 -0.501953	 -0.019955	 0.735248	 -0.375133	 0.564170	 2
1462073548.158	 2	 3.062587	 2.833385	 -1.782989	 1.680046	 -0.633724	 -0.538058	 -0.012412	 0.737412	 -0.392252	 0.549734	 2
1462073548.168	 2	 2.439916	 2.022658	 -1.483500	 1.684231	 -0.651983	 -0.568365	 -0.006539	 0.738203	 -0.406203	 0.538528	 2
1462073548.178	 2	 1.592890	 1.104751	 -1.387683	 1.684849	 -0.667954	 -0.589163	 -0.004108	 0.738009	 -0.416676	 0.530761	 2
1462073548.188	 2	 0.652506	 0.194618	 -1.430594	 1.683231	 -0.683007	 -0.598421	 -0.006100	 0.737209	 -0.423698	 0.526275	 2
1462073548.198	 2	 -0.193970	 -0.462886	 -1.506078	 1.681379	 -0.697816	 -0.596304	 -0.012262	 0.736295	 -0.427606	 0.524283	 2
1462073548.208	 2	 -0.744698	 -0.919761	 -1.516191	 1.679979	 -0.712213	 -0.585942	 -0.021226	 0.735383	 -0.429210	 0.523966	 2
1462073548.218	 2	 -1.017840	 -1.192863	 -1.446014	 1.678385	 -0.725779	 -0.571060	 -0.031606	 0.734276	 -0.429361	 0.524870	 2
1462073548.228	 2	 -1.051604	 -1.258497	 -1.270480	 1.676541	 -0.737781	 -0.555057	 -0.041914	 0.733003	 -0.428727	 0.526443	 2
1462073548.238	 2	 -0.916610	 -1.153705	 -0.992516	 1.674425	 -0.747414	 -0.540643	 -0.050888	 0.731673	 -0.427772	 0.528276	 2
1462073548.248	 2	 -0.836400	 -0.986305	 -0.610114	 1.672662	 -0.753588	 -0.528077	 -0.057936	 0.730562	 -0.426255	 0.530310	 2
1462073548.258	 2	 -0.714590	 -0.765285	 -0.296850	 1.671826	 -0.756474	 -0.517266	 -0.063031	 0.729864	 -0.424227	 0.532312	 2
1462073548.268	 2	 -0.343748	 -0.386124	 -0.075938	 1.671285	 -0.757333	 -0.510983	 -0.065727	 0.729472	 -0.422795	 0.533662	 2
1462073548.278	 2	 0.062591	 0.026130	 0.175881	 1.670757	 -0.756206	 -0.510658	 -0.065578	 0.729381	 -0.422351	 0.534156	 2
1462073548.288	 2	 0.335322	 0.366685	 0.460168	 1.670662	 -0.752612	 -0.514965	 -0.062818	 0.729685	 -0.422412	 0.534025	 2
1462073548.308	 3	 0.455723	 0.776557	 1.001143	 1.673887	 -0.737423	 -0.529555	 -0.051697	 0.731720	 -0.421803	 0.532912	 2
1462073548.318	 3	 0.478072	 0.835260	 1.184806	 1.676899	 -0.726548	 -0.537404	 -0.044529	 0.733210	 -0.420670	 0.532407	 2
1462073548.328	 3	 0.538380	 0.835021	 1.322828	 1.679491	 -0.714277	 -0.546168	 -0.036642	 0.734602	 -0.419325	 0.532151	 2
1462073548.338	 3	 0.607196	 0.841031	 1.445913	 1.681533	 -0.700866	 -0.555943	 -0.028111	 0.735826	 -0.417872	 0.532120	 2
1462073548.348	 3	 0.645067	 0.827101	 1.593595	 1.683156	 -0.686129	 -0.566445	 -0.018951	 0.736896	 -0.416184	 0.532368	 2
1462073548.358	 3	 0.612372	 0.753031	 1.779698	 1.684310	 -0.669643	 -0.576957	 -0.009291	 0.737779	 -0.413944	 0.533147	 2
1462073548.368	 3	 0.404919	 0.556736	 1.907570	 1.685238	 -0.651383	 -0.585615	 0.000237	 0.738516	 -0.410648	 0.534755	 2
1462073548.378	 3	 -0.066308	 0.258765	 1.841757	 1.686420	 -0.632976	 -0.589163	 0.007978	 0.739219	 -0.405915	 0.537331	 2
1462073548.388	 3	 -0.715790	 -0.025045	 1.749918	 1.689293	 -0.614719	 -0.584971	 0.013138	 0.740349	 -0.399095	 0.540772	 2
1462073548.398	 3	 -1.224072	 -0.231684	 1.650107	 1.693641	 -0.596759	 -0.573937	 0.015928	 0.741906	 -0.390428	 0.544874	 2
1462073548.408	 3	 -1.486655	 -0.333138	 1.487322	 1.698753	 -0.579748	 -0.559237	 0.017140	 0.743697	 -0.380959	 0.549083	 2
1462073548.428	 4	 -1.568822	 -0.166277	 1.290293	 1.710321	 -0.549124	 -0.525847	 0.017026	 0.747679	 -0.361716	 0.556640	 2
1462073548.438	 4	 -1.231604	 0.281594	 1.292590	 1.718752	 -0.534453	 -0.512610	 0.018427	 0.750393	 -0.353116	 0.558462	 2
1462073548.448	 4	 -0.714421	 0.878859	 1.288316	 1.729728	 -0.520361	 -0.505192	 0.022192	 0.753768	 -0.346236	 0.558088	 2
1462073548.458	 4	 -0.254108	 1.455690	 1.229993	 1.743793	 -0.507459	 -0.503498	 0.028185	 0.757910	 -0.341241	 0.555278	 2
1462073548.468	 4	 -0.020361	 1.790232	 1.109574	 1.760307	 -0.496104	 -0.505117	 0.035283	 0.762620	 -0.337560	 0.550654	 2
1462073548.478	 4	 0.036530	 1.894008	 1.069545	 1.777806	 -0.485745	 -0.507805	 0.042577	 0.767507	 -0.334393	 0.545254	 2
1462073548.488	 4	 0.054197	 1.862343	 1.256671	 1.795030	 -0.474105	 -0.511270	 0.050476	 0.772249	 -0.330888	 0.539997	 2
1462073548.498	 4	 0.000445	 1.592889	 1.478442	 1.810058	 -0.460274	 -0.515142	 0.058803	 0.776340	 -0.326669	 0.535842	 2
1462073548.508	 4	 -0.124258	 1.119356	 1.543330	 1.821078	 -0.445126	 -0.518384	 0.066585	 0.779319	 -0.321833	 0.533528	 2
1462073548.518	 4	 -0.367749	 0.652951	 1.516597	 1.828342	 -0.429598	 -0.519350	 0.072945	 0.781320	 -0.316308	 0.533074	 2
1462073548.528	 4	 -0.552622	 0.189399	 1.467000	 1.831918	 -0.413919	 -0.518055	 0.077850	 0.782381	 -0.310211	 0.534404	 2
1462073548.538	 4	 -0.559036	 -0.188824	 1.376144	 1.831674	 -0.398950	 -0.515986	 0.081626	 0.782415	 -0.304281	 0.537193	 2
1462073548.548	 4	 -0.320285	 -0.240673	 1.362925	 1.829271	 -0.384778	 -0.515601	 0.085489	 0.781761	 -0.299165	 0.540409	 2
1462073548.558	 4	 0.255837	 0.181988	 1.358644	 1.828022	 -0.371791	 -0.520168	 0.091098	 0.781159	 -0.295763	 0.542232	 2
1462073548.568	 4	 1.373451	 0.792443	 1.509129	 1.829089	 -0.360518	 -0.535520	 0.100728	 0.780614	 -0.295796	 0.541295	 2
1462073548.578	 4	 2.188735	 1.435888	 1.539991	 1.832995	 -0.350746	 -0.560546	 0.114080	 0.780191	 -0.298808	 0.537589	 2
1462073548.588	 4	 2.428478	 2.045607	 1.527591	 1.842295	 -0.342366	 -0.589395	 0.129301	 0.780760	 -0.302927	 0.530970	 2
1462073548.598	 4	 2.414656	 2.217451	 1.604980	 1.854642	 -0.333795	 -0.618746	 0.145250	 0.781792	 -0.306724	 0.523091	 2
1462073548.608	 4	 2.172852	 1.917721	 1.536087	 1.865834	 -0.325175	 -0.646287	 0.160337	 0.782343	 -0.309915	 0.515930	 2
1462073548.618	 4	 1.594799	 1.477680	 1.343057	 1.874819	 -0.317060	 -0.668355	 0.172787	 0.782537	 -0.311903	 0.510389	 2
1462073548.628	 4	 0.843673	 0.989290	 1.159609	 1.881586	 -0.308623	 -0.682460	 0.181859	 0.782693	 -0.311846	 0.507022	 2
1462073548.638	 4	 0.509861	 0.532462	 0.950441	 1.885362	 -0.300823	 -0.691240	 0.188179	 0.782523	 -0.310902	 0.505555	 2
1462073548.648	 4	 0.737319	 0.271952	 0.759528	 1.885881	 -0.295136	 -0.700336	 0.193486	 0.781545	 -0.311096	 0.504946	 2
1462073548.658	 4	 1.272391	 0.286084	 0.578084	 1.884707	 -0.292752	 -0.713547	 0.199159	 0.779844	 -0.313683	 0.503768	 2
1462073548.668	 4	 1.892281	 0.597039	 0.441294	 1.884357	 -0.293601	 -0.732302	 0.206159	 0.777896	 -0.318733	 0.500784	 2
1462073548.678	 4	 2.461231	 1.027817	 0.233591	 1.886489	 -0.298024	 -0.756396	 0.214570	 0.776115	 -0.326088	 0.495250	 2
1462073548.688	 4	 2.853514	 1.420088	 -0.075245	 1.891588	 -0.306633	 -0.783915	 0.223574	 0.774803	 -0.335340	 0.487075	 2
1462073548.698	 5	 3.000602	 1.614409	 -0.352881	 1.898531	 -0.318904	 -0.812664	 0.232326	 0.773860	 -0.345796	 0.477065	 2
1462073548.718	 5	 1.974756	 1.134601	 -0.930321	 1.912699	 -0.348396	 -0.857513	 0.243682	 0.773426	 -0.364848	 0.457512	 2
1462073548.728	 5	 1.134400	 0.325060	 -1.434642	 1.915025	 -0.365059	 -0.866295	 0.242712	 0.773762	 -0.372294	 0.451421	 2
1462073548.748	 5	 -0.104921	 -1.606093	 -2.178263	 1.900980	 -0.405051	 -0.858596	 0.225454	 0.773409	 -0.385824	 0.449610	 2
1462073548.738	 5	 0.468441	 -0.586292	 -1.974468	 1.911638	 -0.384610	 -0.865918	 0.236281	 0.774016	 -0.379300	 0.448556	 2
1462073548.768	 5	 -0.955402	 -3.362260	 -1.955930	 1.857686	 -0.440072	 -0.830466	 0.195724	 0.767917	 -0.395678	 0.464149	 2
1462073548.758	 5	 -0.606362	 -2.551697	 -2.095304	 1.882772	 -0.423653	 -0.846174	 0.211630	 0.771437	 -0.391263	 0.454985	 2
1462073548.778	 5	 -1.167490	 -4.009167	 -1.921742	 1.823482	 -0.455792	 -0.814211	 0.177891	 0.761969	 -0.400215	 0.477060	 2
1462073548.788	 5	 -1.307499	 -4.374708	 -2.077396	 1.788578	 -0.472679	 -0.795285	 0.158412	 0.755706	 -0.404037	 0.490477	 2
1462073548.798	 5	 -1.522265	 -4.492493	 -2.272723	 1.753668	 -0.491617	 -0.774132	 0.137324	 0.749200	 -0.407392	 0.503858	 2
1462073548.808	 5	 -1.723456	 -4.503472	 -2.401096	 1.719933	 -0.512190	 -0.750785	 0.115021	 0.742650	 -0.410008	 0.516851	 2
1462073548.818	 5	 -1.791407	 -4.332857	 -2.517213	 1.688030	 -0.534483	 -0.726588	 0.092121	 0.736098	 -0.412205	 0.528924	 2
1462073548.828	 5	 -1.679840	 -3.835631	 -2.693671	 1.660372	 -0.559003	 -0.703372	 0.069629	 0.730117	 -0.414565	 0.538717	 2
1462073548.838	 5	 -1.345058	 -3.257542	 -2.922477	 1.637030	 -0.586479	 -0.683720	 0.048238	 0.724732	 -0.418128	 0.545533	 2
1462073548.848	 5	 -0.978917	 -2.719925	 -2.999529	 1.616960	 -0.615735	 -0.668717	 0.028500	 0.719739	 -0.422997	 0.549761	 2
1462073548.858	 5	 -0.601134	 -2.114146	 -2.912986	 1.600122	 -0.644883	 -0.658769	 0.011198	 0.715256	 -0.428840	 0.551706	 2
1462073548.868	 5	 -0.251632	 -1.486229	 -2.718349	 1.586825	 -0.672515	 -0.653720	 -0.003156	 0.711519	 -0.435318	 0.551570	 2
1462073548.878	 5	 0.072752	 -1.020615	 -2.474912	 1.575914	 -0.697896	 -0.653269	 -0.014645	 0.708340	 -0.442229	 0.549975	 2
1462073548.888	 5	 0.342102	 -0.693030	 -2.220558	 1.565730	 -0.720721	 -0.656991	 -0.023667	 0.705363	 -0.449417	 0.547656	 2
1462073548.898	 5	 0.501016	 -0.430386	 -2.019134	 1.556416	 -0.741317	 -0.663549	 -0.030772	 0.702673	 -0.456636	 0.544782	 2
1462073548.908	 5	 0.531392	 -0.213575	 -1.883095	 1.548470	 -0.760346	 -0.671322	 -0.036642	 0.700406	 -0.463656	 0.541397	 2
1462073548.918	 5	 0.440291	 -0.123505	 -1.819650	 1.542109	 -0.778518	 -0.678513	 -0.042091	 0.698583	 -0.470210	 0.537693	 2
1462073548.928	 5	 0.263046	 -0.150576	 -1.810898	 1.537021	 -0.796515	 -0.683727	 -0.047902	 0.697065	 -0.476116	 0.533966	 2
1462073548.938	 5	 0.076460	 -0.088563	 -1.841735	 1.533850	 -0.814764	 -0.686427	 -0.054244	 0.695979	 -0.481379	 0.530042	 2
1462073548.948	 5	 -0.167282	 0.384499	 -1.973760	 1.537076	 -0.834198	 -0.685832	 -0.060613	 0.696421	 -0.486196	 0.524345	 2
1462073548.958	 5	 -0.273654	 0.476124	 -1.995428	 1.544046	 -0.854329	 -0.682925	 -0.067095	 0.697650	 -0.490691	 0.517692	 2
1462073548.968	 5	 -0.320646	 0.267404	 -1.756099	 1.550527	 -0.872684	 -0.678799	 -0.073456	 0.698635	 -0.494429	 0.511912	 2
1462073548.978	 5	 -0.344552	 -0.068632	 -1.463801	 1.554467	 -0.888025	 -0.673911	 -0.079618	 0.698935	 -0.497147	 0.507934	 2
1462073548.988	 5	 -0.321953	 -0.368716	 -1.328241	 1.555210	 -0.901620	 -0.669035	 -0.085940	 0.698413	 -0.499310	 0.505493	 2
1462073548.998	 5	 -0.365994	 -0.485102	 -1.261798	 1.554865	 -0.914411	 -0.663649	 -0.092420	 0.697566	 -0.501092	 0.503753	 2
1462073549.008	 5	 -0.378452	 -0.542260	 -1.375192	 1.554250	 -0.927666	 -0.657684	 -0.099327	 0.696544	 -0.502820	 0.502128	 2
1462073549.018	 5	 -0.312912	 -0.660463	 -1.661421	 1.551947	 -0.943656	 -0.652651	 -0.107291	 0.694952	 -0.505348	 0.500154	 2
1462073549.028	 5	 -0.274452	 -0.685635	 -1.890063	 1.548613	 -0.962037	 -0.648368	 -0.116092	 0.692950	 -0.508547	 0.497717	 2
1462073549.038	 5	 -0.256736	 -0.595774	 -2.104665	 1.545400	 -0.982615	 -0.644685	 -0.125425	 0.690814	 -0.512373	 0.494488	 2
1462073549.048	 5	 -0.344394	 -0.506158	 -2.249078	 1.544124	 -1.004882	 -0.639975	 -0.135198	 0.688892	 -0.516411	 0.490377	 2
1462073549.058	 5	 -0.535589	 -0.511183	 -2.285827	 1.545870	 -1.027831	 -0.631949	 -0.145545	 0.687298	 -0.519970	 0.485870	 2
1462073549.068	 5	 -0.767534	 -0.393243	 -2.249671	 1.552709	 -1.050583	 -0.618920	 -0.156167	 0.686380	 -0.522667	 0.480952	 2
1462073549.078	 5	 -0.952132	 -0.009169	 -2.162427	 1.567415	 -1.072578	 -0.600718	 -0.166171	 0.686716	 -0.524677	 0.474891	 2
1462073549.088	 5	 -1.081984	 0.440534	 -1.803278	 1.590811	 -1.091622	 -0.578001	 -0.174349	 0.688633	 -0.525857	 0.467825	 2
1462073549.098	 5	 -1.195998	 0.778105	 -1.353656	 1.621729	 -1.105837	 -0.551229	 -0.180248	 0.692044	 -0.525856	 0.460502	 2
1462073549.108	 5	 -1.329271	 0.915460	 -0.947293	 1.658094	 -1.115382	 -0.520534	 -0.184510	 0.696513	 -0.524563	 0.453498	 2
1462073549.118	 5	 -1.468738	 1.007869	 -0.434719	 1.698488	 -1.119505	 -0.486597	 -0.187143	 0.701959	 -0.521751	 0.447220	 2
1462073549.128	 5	 -1.619562	 0.987290	 0.039601	 1.740932	 -1.117887	 -0.450583	 -0.188304	 0.708228	 -0.517288	 0.442005	 2
1462073549.138	 5	 -1.819833	 0.757589	 0.403698	 1.783247	 -1.111369	 -0.412651	 -0.188916	 0.714885	 -0.511081	 0.438230	 2
1462073549.148	 5	 -2.092838	 0.435175	 0.567202	 1.825169	 -1.101427	 -0.371531	 -0.190084	 0.721650	 -0.503127	 0.435835	 2
1462073549.168	 6	 -2.051081	 0.227911	 0.310193	 1.905382	 -1.080280	 -0.286558	 -0.195151	 0.734345	 -0.485778	 0.432057	 2
1462073549.178	 6	 -1.518002	 0.444597	 0.192465	 1.936727	 -1.072552	 -0.255214	 -0.197031	 0.739376	 -0.479558	 0.429565	 2
1462073549.198	 7	 -0.505661	 1.511413	 0.163737	 1.984469	 -1.063482	 -0.225277	 -0.194386	 0.748238	 -0.474801	 0.420616	 2
1462073549.208	 7	 -0.349878	 2.046082	 0.328286	 2.007603	 -1.059446	 -0.220764	 -0.189556	 0.753378	 -0.474688	 0.413716	 2
1462073549.218	 7	 -0.538068	 2.401869	 0.619925	 2.034203	 -1.052520	 -0.216935	 -0.182954	 0.759767	 -0.473964	 0.405760	 2
1462073549.228	 7	 -0.952370	 2.557312	 0.913800	 2.065668	 -1.041126	 -0.209795	 -0.175439	 0.767592	 -0.471313	 0.397351	 2
1462073549.238	 7	 -1.370005	 2.601977	 1.037218	 2.101828	 -1.025980	 -0.197937	 -0.167904	 0.776555	 -0.466624	 0.388629	 2
1462073549.258	 8	 -1.487275	 2.642949	 0.480161	 2.182022	 -0.996456	 -0.164885	 -0.155660	 0.794768	 -0.455866	 0.369187	 2
1462073549.268	 8	 -1.219640	 2.636829	 -0.108396	 2.224055	 -0.988489	 -0.146328	 -0.151812	 0.802544	 -0.452676	 0.357715	 2
1462073549.288	 9	 -0.798526	 2.023208	 -1.099339	 2.307450	 -0.988622	 -0.101895	 -0.150946	 0.813579	 -0.451354	 0.334042	 2
1462073549.298	 9	 -0.745081	 1.474331	 -1.231738	 2.344685	 -0.992299	 -0.076766	 -0.153463	 0.817021	 -0.451521	 0.324122	 2
1462073549.318	 10	 -0.935676	 0.232220	 -0.990117	 2.401152	 -0.995653	 -0.025775	 -0.162205	 0.821252	 -0.449224	 0.312141	 2
1462073549.328	 10	 -1.025387	 -0.198759	 -0.763142	 2.419880	 -0.993626	 -0.002178	 -0.167389	 0.822670	 -0.446267	 0.309905	 2
1462073549.338	 10	 -0.996429	 -0.377846	 -0.513540	 2.433217	 -0.989767	 0.017918	 -0.172107	 0.823891	 -0.442697	 0.309196	 2
1462073549.348	 10	 -0.824467	 -0.322365	 -0.273659	 2.442135	 -0.985228	 0.032797	 -0.175598	 0.824994	 -0.439292	 0.309148	 2
1462073549.358	 10	 -0.557846	 -0.060175	 -0.091295	 2.448313	 -0.981271	 0.041895	 -0.177422	 0.826035	 -0.436786	 0.308878	 2
1462073549.368	 10	 -0.271659	 0.336526	 0.020744	 2.453946	 -0.978637	 0.045874	 -0.177457	 0.827142	 -0.435575	 0.307604	 2
1462073549.378	 10	 0.018588	 0.745491	 0.065718	 2.460252	 -0.977846	 0.045681	 -0.175891	 0.828302	 -0.435831	 0.305007	 2
1462073549.388	 10	 0.277028	 1.028558	 0.043721	 2.467316	 -0.979198	 0.042508	 -0.173225	 0.829346	 -0.437494	 0.301294	 2
1462073549.398	 10	 0.464013	 1.140206	 -0.031471	 2.474737	 -0.982576	 0.037948	 -0.170180	 0.830086	 -0.440225	 0.296981	 2
1462073549.408	 10	 0.560575	 1.114671	 -0.140192	 2.482316	 -0.987536	 0.033480	 -0.167342	 0.830459	 -0.443595	 0.292502	 2
1462073549.418	 10	 0.572106	 0.971020	 -0.290835	 2.490188	 -0.993612	 0.030772	 -0.165303	 0.830446	 -0.447181	 0.288207	 2
1462073549.428	 10	 0.571395	 0.712606	 -0.431783	 2.497611	 -1.000558	 0.030263	 -0.164371	 0.829962	 -0.450765	 0.284527	 2
1462073549.438	 10	 0.625628	 0.345477	 -0.581681	 2.503150	 -1.008676	 0.031595	 -0.164763	 0.828765	 -0.454418	 0.281968	 2
1462073549.448	 10	 0.770428	 -0.059082	 -0.723124	 2.505541	 -1.018628	 0.033845	 -0.166473	 0.826600	 -0.458442	 0.280803	 2
1462073549.458	 10	 0.992841	 -0.433816	 -0.973673	 2.504837	 -1.031462	 0.037078	 -0.169665	 0.823210	 -0.463258	 0.280948	 2
1462073549.478	 11	 1.590766	 -0.228862	 -1.948947	 2.512250	 -1.072145	 0.055129	 -0.180555	 0.812840	 -0.478166	 0.279372	 2
1462073549.488	 11	 1.733910	 0.130562	 -2.341181	 2.528554	 -1.099139	 0.073058	 -0.187192	 0.806704	 -0.488245	 0.275325	 2
1462073549.498	 11	 1.680807	 0.421168	 -2.622573	 2.555367	 -1.127679	 0.099036	 -0.194279	 0.800525	 -0.498926	 0.269235	 2
1462073549.508	 11	 1.263436	 0.741534	 -2.760901	 2.595913	 -1.154176	 0.136454	 -0.201696	 0.795154	 -0.508786	 0.261122	 2
1462073549.518	 11	 0.272623	 1.002624	 -2.651795	 2.653672	 -1.172256	 0.188802	 -0.209217	 0.792226	 -0.515403	 0.250930	 2
1462073549.528	 11	 -0.449017	 0.368622	 -2.222975	 2.713459	 -1.179776	 0.247195	 -0.217380	 0.791272	 -0.517661	 0.242201	 2
1462073549.538	 11	 -0.374421	 -0.704922	 -1.509961	 2.751417	 -1.182503	 0.292992	 -0.225790	 0.789997	 -0.517476	 0.239043	 2
1462073549.548	 11	 0.292585	 -1.466063	 -0.598835	 2.756440	 -1.186581	 0.312459	 -0.232320	 0.787219	 -0.517384	 0.242132	 2
1462073549.558	 11	 1.130954	 -1.901976	 0.348995	 2.726664	 -1.194621	 0.299927	 -0.235431	 0.782732	 -0.518738	 0.250627	 2
1462073549.568	 11	 1.745614	 -2.144596	 1.167351	 2.665253	 -1.204978	 0.256338	 -0.234941	 0.777013	 -0.521335	 0.263180	 2
1462073549.578	 11	 1.874301	 -2.541208	 1.528097	 2.582457	 -1.213983	 0.193880	 -0.233069	 0.770537	 -0.523742	 0.278649	 2
1462073549.588	 11	 1.654778	 -2.774805	 1.347720	 2.496993	 -1.220099	 0.132035	 -0.232359	 0.763752	 -0.525098	 0.294897	 2
1462073549.598	 11	 1.427572	 -2.599792	 0.896247	 2.422978	 -1.225218	 0.081517	 -0.233227	 0.757029	 -0.526115	 0.309378	 2
1462073549.608	 11	 1.236736	 -2.433167	 0.476351	 2.362061	 -1.230691	 0.043110	 -0.235564	 0.750427	 -0.527135	 0.321711	 2
1462073549.618	 11	 1.018043	 -2.174037	 0.187582	 2.312295	 -1.236394	 0.014220	 -0.238786	 0.744187	 -0.528105	 0.332071	 2
1462073549.628	 11	 0.448293	 -1.860197	 0.114465	 2.277361	 -1.239746	 -0.002444	 -0.242387	 0.739432	 -0.527950	 0.340233	 2
1462073549.638	 11	 -0.937687	 -2.238256	 0.368140	 2.263019	 -1.233972	 0.004495	 -0.247725	 0.737632	 -0.522865	 0.348057	 2
1462073549.648	 11	 -2.107366	 -2.653237	 0.311583	 2.270697	 -1.219141	 0.040352	 -0.256445	 0.738359	 -0.512006	 0.356247	 2
1462073549.658	 11	 -2.026083	 -1.087029	 -0.162670	 2.297761	 -1.205528	 0.086757	 -0.264531	 0.740757	 -0.502090	 0.359453	 2
1462073549.668	 11	 -1.354071	 1.890505	 -0.556462	 2.346258	 -1.198568	 0.126618	 -0.266167	 0.745960	 -0.498763	 0.352044	 2
1462073549.678	 11	 -0.811992	 4.015440	 -0.945332	 2.414240	 -1.197695	 0.160711	 -0.261829	 0.753377	 -0.501539	 0.335153	 2
1462073549.688	 11	 -0.973894	 3.111861	 -1.675983	 2.492698	 -1.199860	 0.208312	 -0.260341	 0.759361	 -0.504873	 0.317327	 2
1462073549.698	 11	 -0.754448	 2.577793	 -2.485383	 2.580669	 -1.206067	 0.273947	 -0.263582	 0.762590	 -0.508750	 0.300257	 2
1462073549.708	 11	 -0.423812	 2.518834	 -3.001442	 2.679323	 -1.215853	 0.352599	 -0.268952	 0.763672	 -0.514380	 0.282635	 2
1462073549.718	 11	 -0.169232	 2.758537	 -3.137845	 2.787437	 -1.226145	 0.439042	 -0.274243	 0.763702	 -0.521420	 0.263953	 2
1462073549.728	 11	 0.135762	 3.013151	 -2.958018	 2.898127	 -1.235567	 0.525111	 -0.277936	 0.763147	 -0.529548	 0.244821	 2
1462073549.738	 11	 0.553669	 3.027688	 -2.544808	 3.002304	 -1.244969	 0.603057	 -0.279435	 0.761848	 -0.538611	 0.226721	 2
1462073549.748	 11	 1.116584	 2.647362	 -1.962816	 3.090915	 -1.256594	 0.667245	 -0.278917	 0.759300	 -0.548469	 0.211781	 2
1462073549.758	 11	 1.839950	 1.838411	 -1.314803	 -3.125706	 -1.273354	 0.715354	 -0.277074	 0.754818	 -0.559119	 0.202154	 2
1462073549.768	 11	 2.582634	 0.648217	 -0.723795	 -3.083538	 -1.297049	 0.749277	 -0.275205	 0.747800	 -0.570345	 0.199410	 2
1462073549.778	 11	 3.054376	 -0.659954	 -0.230641	 -3.066321	 -1.326364	 0.770566	 -0.274486	 0.738456	 -0.581237	 0.203725	 2
1462073549.788	 11	 3.106678	 -1.841490	 0.102151	 -3.073489	 -1.357478	 0.779208	 -0.275696	 0.727735	 -0.590492	 0.213805	 2
1462073549.798	 11	 2.860823	 -2.728878	 0.249504	 -3.102016	 -1.386885	 0.775940	 -0.279175	 0.716539	 -0.597324	 0.227678	 2
1462073549.808	 11	 2.523385	 -3.186639	 0.203420	 3.140016	 -1.413007	 0.765617	 -0.284593	 0.705390	 -0.601966	 0.243042	 2
1462073549.818	 11	 2.160420	 -3.261561	 -0.008334	 3.100571	 -1.435515	 0.758741	 -0.291439	 0.694580	 -0.605083	 0.257868	 2
1462073549.828	 11	 1.762161	 -3.044596	 -0.317247	 3.080617	 -1.454270	 0.769985	 -0.299217	 0.684465	 -0.607236	 0.270632	 2
1462073549.838	 11	 1.327070	 -2.711641	 -0.633286	 3.096431	 -1.468900	 0.814037	 -0.307637	 0.675402	 -0.608638	 0.280627	 2
1462073549.848	 11	 0.970372	 -2.341120	 -0.870793	 -3.128372	 -1.479554	 0.897154	 -0.316305	 0.667462	 -0.609533	 0.287950	 2
1462073549.858	 11	 0.725973	 -1.988406	 -1.025247	 -3.031096	 -1.486737	 1.015626	 -0.324785	 0.660484	 -0.610236	 0.293067	 2
1462073549.868	 11	 0.669013	 -1.549585	 -1.110192	 -2.902179	 -1.491452	 1.161717	 -0.332480	 0.654185	 -0.611305	 0.296321	 2
1462073549.878	 11	 0.775539	 -1.079226	 -1.180280	 -2.742116	 -1.494875	 1.334191	 -0.338799	 0.648193	 -0.613454	 0.297885	 2
1462073549.888	 11	 0.940997	 -0.769777	 -1.268365	 -2.547307	 -1.496837	 1.537959	 -0.344060	 0.642055	 -0.616774	 0.298293	 2
1462073549.898	 11	 1.096533	 -0.542069	 -1.339006	 -2.324795	 -1.496327	 1.767072	 -0.348555	 0.635590	 -0.621099	 0.297943	 2
1462073549.908	 11	 1.206362	 -0.318116	 -1.359194	 -2.098263	 -1.492470	 1.998026	 -0.352264	 0.628969	 -0.626195	 0.296963	 2
1462073549.918	 11	 1.269444	 -0.091540	 -1.329925	 -1.892516	 -1.485409	 2.205916	 -0.355049	 0.622433	 -0.631853	 0.295429	 2
1462073549.928	 11	 1.282075	 0.047126	 -1.270128	 -1.720951	 -1.475862	 2.377992	 -0.357087	 0.616100	 -0.637750	 0.293572	 2
1462073549.938	 11	 1.075434	 -0.160180	 -1.193523	 -1.598279	 -1.464775	 2.502135	 -0.359405	 0.610149	 -0.642873	 0.291994	 2
1462073549.948	 11	 0.885427	 -0.459020	 -1.118980	 -1.521655	 -1.453289	 2.583244	 -0.362806	 0.604559	 -0.646597	 0.291190	 2
1462073549.958	 11	 0.947532	 -0.484131	 -1.036625	 -1.459323	 -1.442009	 2.651009	 -0.366243	 0.598934	 -0.650006	 0.290922	 2
1462073549.968	 11	 1.084852	 -0.406243	 -0.947572	 -1.396714	 -1.430892	 2.718480	 -0.368993	 0.593100	 -0.653773	 0.290959	 2
1462073549.978	 11	 1.134313	 -0.407823	 -0.852099	 -1.337267	 -1.420019	 2.782597	 -0.371245	 0.587194	 -0.657642	 0.291354	 2
1462073549.988	 11	 1.078591	 -0.533561	 -0.760062	 -1.287421	 -1.409641	 2.838069	 -0.373563	 0.581394	 -0.661069	 0.292266	 2
1462073549.998	 11	 0.964880	 -0.723055	 -0.683035	 -1.249993	 -1.399978	 2.882870	 -0.376376	 0.575795	 -0.663707	 0.293759	 2
1462073550.008	 11	 0.859943	 -0.859422	 -0.609852	 -1.222732	 -1.391135	 2.919008	 -0.379638	 0.570439	 -0.665597	 0.295729	 2
1462073550.018	 11	 0.762099	 -0.864853	 -0.518461	 -1.202022	 -1.383287	 2.948934	 -0.382916	 0.565489	 -0.666976	 0.297894	 2
1462073550.028	 11	 0.641542	 -0.720145	 -0.412686	 -1.185642	 -1.376733	 2.973428	 -0.385705	 0.561253	 -0.668053	 0.299885	 2
1462073550.038	 11	 0.506668	 -0.439289	 -0.311914	 -1.172131	 -1.371553	 2.992451	 -0.387553	 0.558020	 -0.669080	 0.301245	 2
1462073550.048	 11	 0.364525	 -0.095832	 -0.235008	 -1.160870	 -1.367660	 3.005846	 -0.388279	 0.555912	 -0.670211	 0.301693	 2
1462073550.058	 11	 0.246939	 0.265503	 -0.176268	 -1.150697	 -1.364811	 3.014417	 -0.387797	 0.554891	 -0.671605	 0.301092	 2
1462073550.068	 11	 0.169083	 0.452290	 -0.117367	 -1.141017	 -1.362834	 3.019967	 -0.386460	 0.554648	 -0.673142	 0.299824	 2
1462073550.078	 11	 0.151610	 0.296608	 -0.032337	 -1.132014	 -1.361680	 3.025520	 -0.385185	 0.554559	 -0.674338	 0.298940	 2
1462073550.088	 11	 0.127549	 -0.148152	 0.080968	 -1.125411	 -1.361562	 3.032526	 -0.384922	 0.554160	 -0.674592	 0.299446	 2
1462073550.098	 11	 0.004026	 -0.656280	 0.215864	 -1.125230	 -1.362997	 3.038161	 -0.386155	 0.553559	 -0.673414	 0.301612	 2
1462073550.108	 11	 -0.259515	 -1.024321	 0.398045	 -1.135544	 -1.366936	 3.037256	 -0.388639	 0.553425	 -0.670548	 0.305034	 2
1462073550.118	 11	 -0.652315	 -1.240546	 0.636052	 -1.160498	 -1.374405	 3.023975	 -0.391881	 0.554538	 -0.665823	 0.309187	 2
1462073550.128	 11	 -1.129767	 -1.340274	 0.917445	 -1.205534	 -1.386049	 2.991577	 -0.395480	 0.557483	 -0.659100	 0.313680	 2
1462073550.138	 11	 -1.640879	 -1.316693	 1.175767	 -1.278535	 -1.401488	 2.930911	 -0.399088	 0.562543	 -0.650474	 0.318053	 2
1462073550.148	 11	 -2.213093	 -1.258631	 1.324101	 -1.397052	 -1.418878	 2.823771	 -0.402843	 0.569769	 -0.639996	 0.321692	 2
1462073550.158	 11	 -2.764265	 -1.164270	 1.353225	 -1.582318	 -1.434529	 2.648619	 -0.406988	 0.578916	 -0.627851	 0.324069	 2
1462073550.168	 11	 -3.191469	 -1.011955	 1.357296	 -1.839071	 -1.443694	 2.400274	 -0.411324	 0.589587	 -0.614459	 0.325022	 2
1462073550.178	 11	 -3.440482	 -0.885517	 1.385153	 -2.134246	 -1.442574	 2.112015	 -0.415539	 0.601228	 -0.600221	 0.324940	 2
1462073550.188	 11	 -3.525281	 -0.380521	 1.467326	 -2.408309	 -1.430875	 1.840965	 -0.418452	 0.613765	 -0.586096	 0.323544	 2
1462073550.198	 11	 -3.585229	 0.612847	 1.583667	 -2.626757	 -1.410809	 1.616632	 -0.418402	 0.627907	 -0.573227	 0.319504	 2
1462073550.208	 11	 -3.546262	 1.884421	 1.823234	 -2.788467	 -1.385717	 1.436660	 -0.414036	 0.644134	 -0.562378	 0.312084	 2
1462073550.218	 11	 -3.416012	 2.986114	 2.140357	 -2.908703	 -1.358537	 1.286145	 -0.404984	 0.662178	 -0.553541	 0.301830	 2
1462073550.228	 11	 -3.205892	 3.685847	 2.354994	 -2.998544	 -1.330747	 1.157687	 -0.392330	 0.680983	 -0.546217	 0.289802	 2
1462073550.238	 11	 -2.929965	 4.025499	 2.369606	 -3.063012	 -1.303487	 1.050196	 -0.377621	 0.699330	 -0.540103	 0.276818	 2
1462073550.248	 11	 -2.581884	 4.016551	 2.156537	 -3.105058	 -1.278050	 0.964392	 -0.362508	 0.716088	 -0.535120	 0.263536	 2
1462073550.258	 11	 -2.213373	 3.473708	 1.810431	 -3.130905	 -1.255482	 0.899049	 -0.348864	 0.730303	 -0.530842	 0.251312	 2
1462073550.268	 11	 -1.841276	 2.390056	 1.397446	 3.134371	 -1.236103	 0.851812	 -0.338621	 0.741331	 -0.526464	 0.242075	 2
1462073550.278	 11	 -1.341129	 1.092120	 0.967498	 3.119021	 -1.221236	 0.820439	 -0.332656	 0.748691	 -0.522082	 0.237132	 2
1462073550.288	 11	 -0.869502	 -0.178837	 0.579614	 3.102953	 -1.211244	 0.801925	 -0.330954	 0.752507	 -0.517825	 0.236772	 2
1462073550.298	 11	 -0.564986	 -1.199828	 0.273312	 3.085063	 -1.204805	 0.793094	 -0.332893	 0.753548	 -0.513451	 0.240242	 2
1462073550.308	 11	 -0.460086	 -1.894838	 0.103935	 3.064897	 -1.199996	 0.790124	 -0.337390	 0.752872	 -0.508587	 0.246356	 2
1462073550.318	 11	 -0.528123	 -2.263949	 0.071252	 3.042263	 -1.194895	 0.789401	 -0.343308	 0.751525	 -0.502858	 0.253934	 2
1462073550.328	 11	 -0.581528	 -2.120637	 0.158311	 3.018741	 -1.189074	 0.787672	 -0.349041	 0.750351	 -0.496754	 0.261494	 2
1462073550.338	 11	 -0.620499	 -1.508497	 0.366841	 2.996403	 -1.182626	 0.781689	 -0.352835	 0.750176	 -0.491115	 0.267488	 2
1462073550.348	 11	 -0.691937	 -0.799187	 0.614926	 2.975983	 -1.175110	 0.770103	 -0.354037	 0.751493	 -0.486123	 0.271295	 2
1462073550.358	 11	 -0.781254	 -0.236804	 0.835155	 2.957245	 -1.166277	 0.753719	 -0.353008	 0.754214	 -0.481557	 0.273219	 2
1462073550.368	 11	 -0.851281	 0.159231	 1.004643	 2.939764	 -1.156212	 0.733915	 -0.350332	 0.758013	 -0.477193	 0.273807	 2
1462073550.378	 11	 -0.898576	 0.465268	 1.093164	 2.924239	 -1.145288	 0.712623	 -0.346523	 0.762534	 -0.473028	 0.273329	 2
1462073550.388	 11	 -0.893169	 0.709852	 1.088998	 2.911907	 -1.134083	 0.691815	 -0.342009	 0.767436	 -0.469223	 0.271849	 2
1462073550.398	 11	 -0.814165	 0.832004	 0.951963	 2.903633	 -1.123632	 0.673738	 -0.337429	 0.772175	 -0.466024	 0.269646	 2
1462073550.408	 11	 -0.677854	 0.914389	 0.781021	 2.899729	 -1.114751	 0.659466	 -0.333151	 0.776403	 -0.463661	 0.266884	 2
1462073550.418	 11	 -0.465571	 0.910454	 0.764216	 2.896500	 -1.107837	 0.645626	 -0.328756	 0.780093	 -0.462132	 0.264213	 2
1462073550.428	 11	 -0.245284	 0.824328	 0.710340	 2.892369	 -1.103164	 0.631487	 -0.324333	 0.783091	 -0.461397	 0.262087	 2
1462073550.438	 11	 -0.069288	 0.674089	 0.597636	 2.888057	 -1.100513	 0.618621	 -0.320360	 0.785300	 -0.461289	 0.260549	 2
1462073550.448	 11	 0.039653	 0.580255	 0.462594	 2.884549	 -1.099414	 0.608005	 -0.317026	 0.786825	 -0.461656	 0.259372	 2
1462073550.458	 11	 0.125887	 0.682969	 0.288014	 2.884094	 -1.099566	 0.600284	 -0.314088	 0.787944	 -0.462645	 0.257782	 2
1462073550.468	 11	 0.186065	 0.949282	 0.075750	 2.889485	 -1.100935	 0.596461	 -0.311297	 0.788872	 -0.464545	 0.254898	 2
1462073550.478	 11	 0.188378	 1.202678	 -0.180893	 2.902230	 -1.103050	 0.597967	 -0.308867	 0.789691	 -0.467206	 0.250417	 2
1462073550.488	 11	 0.203620	 1.461533	 -0.413085	 2.922209	 -1.105796	 0.604696	 -0.306757	 0.790404	 -0.470581	 0.244367	 2
1462073550.498	 11	 0.280647	 1.683097	 -0.629109	 2.948769	 -1.109473	 0.616134	 -0.304866	 0.790885	 -0.474780	 0.236943	 2
1462073550.508	 11	 0.424577	 1.811074	 -0.816745	 2.980669	 -1.114630	 0.631821	 -0.303224	 0.790863	 -0.479917	 0.228628	 2
1462073550.518	 11	 0.613664	 1.931094	 -0.909996	 3.016195	 -1.121481	 0.650210	 -0.301540	 0.790280	 -0.486017	 0.219815	 2
1462073550.528	 11	 0.794290	 2.032295	 -0.961784	 3.054254	 -1.129989	 0.670203	 -0.299566	 0.789165	 -0.493022	 0.210731	 2
1462073550.538	 11	 0.670294	 2.176580	 -0.915665	 3.094693	 -1.138034	 0.691336	 -0.297245	 0.788102	 -0.500101	 0.201095	 2
1462073550.548	 11	 -0.262650	 2.141627	 -0.393104	 3.128646	 -1.137893	 0.704512	 -0.293933	 0.789519	 -0.503772	 0.190990	 2
1462073550.558	 11	 -0.519504	 1.291296	 0.166073	 -3.139947	 -1.132783	 0.703407	 -0.290287	 0.792341	 -0.503984	 0.184202	 2
1462073550.568	 11	 -0.098644	 -0.150738	 0.366406	 3.138465	 -1.130475	 0.695660	 -0.288629	 0.793604	 -0.503090	 0.183811	 2
1462073550.578	 11	 0.467390	 -1.527747	 0.498937	 3.116417	 -1.133712	 0.684557	 -0.289484	 0.792327	 -0.502229	 0.190218	 2
1462073550.588	 11	 0.827302	 -2.485094	 0.630772	 3.079965	 -1.141032	 0.669536	 -0.292099	 0.789057	 -0.501324	 0.201845	 2
1462073550.598	 11	 0.882749	 -2.771990	 0.691566	 3.035862	 -1.149273	 0.651275	 -0.295368	 0.784978	 -0.500057	 0.215662	 2
1462073550.608	 11	 0.795912	 -2.379471	 0.662936	 2.993340	 -1.156564	 0.632205	 -0.298078	 0.781144	 -0.498800	 0.228392	 2
1462073550.618	 11	 0.611637	 -1.564750	 0.587926	 2.959189	 -1.162112	 0.614526	 -0.299414	 0.778304	 -0.497999	 0.237891	 2
1462073550.628	 11	 0.347032	 -0.387921	 0.546827	 2.937852	 -1.165130	 0.598736	 -0.298455	 0.777277	 -0.497928	 0.242555	 2
1462073550.638	 11	 0.115355	 0.195365	 0.365632	 2.928421	 -1.165874	 0.587218	 -0.296298	 0.777639	 -0.498227	 0.243423	 2
1462073550.648	 11	 -0.045054	 -0.260853	 0.017476	 2.925050	 -1.165594	 0.584606	 -0.296132	 0.777692	 -0.497932	 0.244058	 2
1462073550.658	 11	 -0.146659	 -1.005803	 -0.228368	 2.921432	 -1.164729	 0.589694	 -0.299039	 0.776729	 -0.496419	 0.246649	 2
1462073550.668	 11	 -0.146685	 -1.347163	 -0.366896	 2.916861	 -1.163982	 0.598846	 -0.303748	 0.774987	 -0.494289	 0.250621	 2
1462073550.678	 11	 0.000743	 -1.041675	 -0.421822	 2.914999	 -1.164471	 0.609436	 -0.308288	 0.772997	 -0.492866	 0.254000	 2
1462073550.688	 11	 0.089998	 -0.299906	 -0.326173	 2.917410	 -1.166114	 0.617565	 -0.310771	 0.771595	 -0.492870	 0.255230	 2
1462073550.698	 11	 -0.225915	 0.360561	 -0.311948	 2.927435	 -1.165482	 0.626016	 -0.311586	 0.771728	 -0.493100	 0.253383	 2
1462073550.708	 11	 -0.293988	 0.413895	 -0.318319	 2.940533	 -1.163133	 0.635498	 -0.312120	 0.772542	 -0.492999	 0.250425	 2
1462073550.718	 11	 -0.041035	 0.219362	 -0.347910	 2.951383	 -1.162647	 0.644434	 -0.312919	 0.772631	 -0.493384	 0.248386	 2
1462073550.728	 11	 0.353294	 0.052927	 -0.552190	 2.962329	 -1.165988	 0.655286	 -0.314233	 0.771377	 -0.495100	 0.247206	 2
1462073550.738	 11	 0.732025	 -0.172652	 -0.851737	 2.976683	 -1.173657	 0.672085	 -0.316708	 0.768416	 -0.498360	 0.246718	 2
1462073550.748	 11	 0.999644	 -0.486713	 -1.077602	 2.993704	 -1.184530	 0.694862	 -0.320497	 0.763932	 -0.502583	 0.247185	 2
1462073550.758	 11	 1.207562	 -0.875360	 -1.199197	 3.011071	 -1.197624	 0.721905	 -0.325486	 0.758152	 -0.507193	 0.249038	 2
1462073550.768	 11	 1.377388	 -1.233776	 -1.274351	 3.028013	 -1.212412	 0.752320	 -0.331486	 0.751244	 -0.511928	 0.252347	 2
1462073550.778	 11	 1.538492	 -1.484061	 -1.255702	 3.043754	 -1.228651	 0.784366	 -0.337997	 0.743444	 -0.516735	 0.256969	 2
1462073550.788	 11	 1.677609	 -1.474278	 -1.170495	 3.058860	 -1.246113	 0.816168	 -0.344156	 0.735197	 -0.521817	 0.262199	 2
1462073550.798	 11	 1.772965	 -1.208311	 -1.123023	 3.076376	 -1.264426	 0.848133	 -0.349325	 0.726947	 -0.527480	 0.266993	 2
1462073550.808	 11	 1.778095	 -0.878813	 -1.297984	 3.104296	 -1.282906	 0.887291	 -0.353933	 0.718748	 -0.533928	 0.270287	 2
1462073550.818	 11	 1.584884	 -0.873962	 -1.586143	 -3.135565	 -1.299434	 0.941292	 -0.359445	 0.710506	 -0.540273	 0.272187	 2
1462073550.828	 11	 1.690628	 -0.889747	 -1.813152	 -3.077043	 -1.315232	 1.011215	 -0.365875	 0.701618	 -0.546846	 0.273545	 2
1462073550.838	 11	 2.021368	 -0.590504	 -1.921955	 -3.001019	 -1.332478	 1.096620	 -0.371725	 0.691875	 -0.554910	 0.274235	 2
1462073550.848	 11	 2.457608	 -0.198164	 -1.910379	 -2.903834	 -1.351955	 1.199390	 -0.375916	 0.681309	 -0.565059	 0.274249	 2
1462073550.858	 11	 2.715044	 -0.051009	 -1.754584	 -2.786245	 -1.372305	 1.320237	 -0.378513	 0.670196	 -0.576439	 0.274377	 2
1462073550.868	 11	 2.547284	 -0.257589	 -1.562143	 -2.655899	 -1.389646	 1.454826	 -0.380806	 0.659280	 -0.586996	 0.275269	 2
1462073550.878	 11	 2.158851	 -0.668557	 -1.336643	 -2.527936	 -1.401612	 1.590597	 -0.383944	 0.649166	 -0.595193	 0.277339	 2
1462073550.888	 11	 1.830035	 -0.826003	 -1.180710	 -2.407524	 -1.408990	 1.720784	 -0.387590	 0.639984	 -0.601507	 0.279972	 2
1462073550.898	 11	 1.470787	 -0.795775	 -1.117618	 -2.297892	 -1.411998	 1.840097	 -0.391444	 0.631923	 -0.606472	 0.282200	 2
1462073550.908	 11	 1.124982	 -0.571459	 -1.125309	 -2.201940	 -1.410857	 1.943711	 -0.395193	 0.625147	 -0.610601	 0.283160	 2
1462073550.918	 11	 0.877450	 -0.358860	 -1.095597	 -2.120920	 -1.406849	 2.029909	 -0.398558	 0.619528	 -0.614260	 0.282880	 2
1462073550.928	 11	 0.751090	 -0.276145	 -1.034044	 -2.052867	 -1.401543	 2.101826	 -0.401585	 0.614635	 -0.617561	 0.282084	 2
1462073550.938	 11	 0.705325	 -0.284223	 -0.993222	 -1.993614	 -1.395655	 2.164809	 -0.404512	 0.610016	 -0.620590	 0.281280	 2
1462073550.948	 11	 0.699041	 -0.300860	 -0.943231	 -1.940276	 -1.389495	 2.222041	 -0.407377	 0.605477	 -0.623453	 0.280621	 2
1462073550.958	 11	 0.686847	 -0.240661	 -0.860501	 -1.891992	 -1.383532	 2.273784	 -0.409876	 0.601156	 -0.626244	 0.280056	 2
1462073550.968	 11	 0.671537	 -0.151827	 -0.790267	 -1.847928	 -1.377824	 2.320452	 -0.411899	 0.597139	 -0.629028	 0.279443	 2
1462073550.978	 11	 0.699870	 -0.061213	 -0.750237	 -1.805590	 -1.372218	 2.364407	 -0.413445	 0.593305	 -0.631966	 0.278696	 2
1462073550.988	 11	 0.881487	 -0.038186	 -0.728158	 -1.758960	 -1.366776	 2.412414	 -0.414595	 0.589118	 -0.635339	 0.278200	 2
1462073550.998	 11	 1.240791	 -0.105218	 -0.732975	 -1.700584	 -1.361380	 2.472904	 -0.415410	 0.583856	 -0.639526	 0.278485	 2
1462073551.008	 11	 1.675334	 -0.256738	 -0.771208	 -1.627039	 -1.355263	 2.550377	 -0.416127	 0.576931	 -0.644687	 0.279941	 2
1462073551.018	 11	 2.005141	 -0.441975	 -0.807776	 -1.543723	 -1.347546	 2.639793	 -0.416979	 0.568447	 -0.650524	 0.282515	 2
1462073551.028	 11	 2.141974	 -0.606277	 -0.822219	 -1.460588	 -1.337909	 2.730990	 -0.418135	 0.558991	 -0.656480	 0.285878	 2
1462073551.038	 11	 2.056034	 -0.723048	 -0.825755	 -1.387513	 -1.326688	 2.813329	 -0.419704	 0.549384	 -0.661998	 0.289455	 2
1462073551.048	 11	 1.726008	 -0.781626	 -0.823426	 -1.331924	 -1.314765	 2.878591	 -0.421836	 0.540458	 -0.666575	 0.292638	 2
1462073551.058	 11	 1.026600	 -0.903703	 -0.780105	 -1.304121	 -1.304057	 2.916441	 -0.425103	 0.533438	 -0.669144	 0.294918	 2
1462073551.068	 11	 0.397303	 -0.826390	 -0.786696	 -1.301440	 -1.295094	 2.928120	 -0.429252	 0.528699	 -0.669899	 0.295730	 2
1462073551.078	 11	 -0.056696	 -0.709004	 -0.769927	 -1.314136	 -1.287459	 2.922582	 -0.433694	 0.525763	 -0.669591	 0.295181	 2
1462073551.088	 11	 -0.385744	 -0.622398	 -0.693785	 -1.336773	 -1.281239	 2.905639	 -0.438180	 0.524302	 -0.668436	 0.293767	 2
1462073551.098	 11	 -0.544034	 -0.580561	 -0.561994	 -1.363681	 -1.276551	 2.883729	 -0.442468	 0.523835	 -0.666661	 0.292203	 2
1462073551.108	 11	 -0.592962	 -0.582232	 -0.518953	 -1.391548	 -1.272534	 2.860624	 -0.446612	 0.523777	 -0.664610	 0.290671	 2
1462073551.118	 11	 -0.637577	 -0.571183	 -0.480094	 -1.419805	 -1.268687	 2.837146	 -0.450739	 0.523886	 -0.662390	 0.289166	 2
1462073551.128	 11	 -0.709141	 -0.484791	 -0.329461	 -1.448459	 -1.265915	 2.812452	 -0.454405	 0.524596	 -0.659962	 0.287691	 2
1462073551.138	 11	 -0.703515	 -0.406421	 -0.080458	 -1.475700	 -1.265224	 2.788250	 -0.457189	 0.526019	 -0.657347	 0.286666	 2
1462073551.148	 11	 -0.527381	 -0.599815	 0.162400	 -1.499049	 -1.266791	 2.769309	 -0.459465	 0.527411	 -0.654455	 0.287086	 2
1462073551.158	 11	 -0.431396	 -1.184052	 0.304269	 -1.522580	 -1.269755	 2.755318	 -0.462696	 0.527984	 -0.650574	 0.289654	 2
1462073551.168	 11	 -0.938112	 -1.977855	 0.491000	 -1.564554	 -1.274342	 2.729892	 -0.468367	 0.528886	 -0.643811	 0.293972	 2
1462073551.178	 11	 -2.010786	 -2.693847	 0.765446	 -1.647942	 -1.280630	 2.669276	 -0.477188	 0.532275	 -0.632207	 0.298814	 2
1462073551.188	 11	 -3.041966	 -3.012985	 1.074131	 -1.776222	 -1.286547	 2.566425	 -0.487984	 0.538956	 -0.616059	 0.303098	 2
1462073551.198	 11	 -3.664802	 -2.731356	 1.377391	 -1.934231	 -1.289075	 2.431510	 -0.498477	 0.548575	 -0.597435	 0.306034	 2
1462073551.208	 11	 -3.720474	 -1.701251	 1.721045	 -2.094996	 -1.287728	 2.285018	 -0.505592	 0.560603	 -0.579528	 0.306999	 2
1462073551.218	 11	 -3.453023	 -0.040326	 2.062427	 -2.237485	 -1.284307	 2.141547	 -0.506744	 0.574965	 -0.565285	 0.305089	 2
1462073551.228	 11	 -3.253613	 1.553949	 2.279086	 -2.358395	 -1.279129	 2.003235	 -0.501928	 0.591571	 -0.555268	 0.299650	 2
1462073551.238	 11	 -3.407294	 2.917871	 2.268603	 -2.461268	 -1.269380	 1.868391	 -0.492820	 0.610343	 -0.548318	 0.289754	 2
1462073551.248	 11	 -3.445748	 3.315119	 2.324857	 -2.550870	 -1.255187	 1.739994	 -0.481671	 0.629993	 -0.542335	 0.277444	 2
1462073551.258	 11	 -3.215608	 3.059645	 2.535760	 -2.633857	 -1.240096	 1.619303	 -0.469719	 0.649027	 -0.535944	 0.266256	 2
1462073551.268	 11	 -2.874462	 2.611080	 2.711927	 -2.712491	 -1.225732	 1.507027	 -0.457535	 0.666676	 -0.529040	 0.257528	 2
1462073551.278	 11	 -2.505328	 2.012251	 2.858742	 -2.788989	 -1.212469	 1.402441	 -0.445612	 0.682639	 -0.521582	 0.251767	 2
1462073551.288	 11	 -2.155896	 1.446328	 2.841907	 -2.862694	 -1.200047	 1.306641	 -0.434459	 0.696708	 -0.513757	 0.248790	 2
1462073551.298	 11	 -1.820733	 0.998887	 2.584371	 -2.928684	 -1.188026	 1.223813	 -0.424657	 0.708658	 -0.506124	 0.247608	 2
1462073551.308	 11	 -1.400462	 0.642456	 2.151090	 -2.982640	 -1.177343	 1.157654	 -0.416625	 0.718121	 -0.499462	 0.247516	 2
1462073551.318	 11	 -0.908328	 0.297018	 1.796152	 -3.026453	 -1.169696	 1.105990	 -0.410185	 0.725032	 -0.494209	 0.248665	 2
1462073551.328	 11	 -0.511624	 0.028900	 1.504579	 -3.063705	 -1.165240	 1.064505	 -0.404974	 0.729838	 -0.490239	 0.250995	 2
1462073551.338	 11	 -0.278683	 -0.137508	 1.238825	 -3.095367	 -1.162782	 1.031155	 -0.400879	 0.733129	 -0.487192	 0.253894	 2
1462073551.348	 11	 -0.169622	 -0.146765	 1.033163	 -3.121880	 -1.161225	 1.003907	 -0.397534	 0.735551	 -0.484813	 0.256685	 2
1462073551.358	 11	 -0.194728	 -0.214143	 0.972006	 3.136962	 -1.159567	 0.979354	 -0.394597	 0.737672	 -0.482551	 0.259382	 2
1462073551.368	 11	 -0.505152	 -0.459593	 1.026779	 3.110141	 -1.155235	 0.954434	 -0.392373	 0.740132	 -0.478914	 0.262467	 2
1462073551.378	 11	 -0.778947	 -0.455834	 1.141103	 3.081231	 -1.147523	 0.928039	 -0.390355	 0.743386	 -0.473837	 0.265479	 2
1462073551.388	 11	 -0.911878	 -0.225947	 1.254173	 3.052934	 -1.137781	 0.900093	 -0.387629	 0.747479	 -0.468340	 0.267725	 2
1462073551.398	 11	 -0.930760	 0.052917	 1.273984	 3.027692	 -1.127195	 0.872442	 -0.384152	 0.752087	 -0.463088	 0.268966	 2
1462073551.408	 11	 -0.820639	 0.363867	 1.223697	 3.007195	 -1.117195	 0.846522	 -0.379965	 0.756805	 -0.458749	 0.269115	 2
1462073551.418	 11	 -0.684093	 0.660570	 1.126153	 2.991998	 -1.108461	 0.823024	 -0.375213	 0.761409	 -0.455588	 0.268162	 2
1462073551.428	 11	 -0.550955	 0.926327	 1.013430	 2.981943	 -1.101082	 0.802101	 -0.370049	 0.765834	 -0.453574	 0.266145	 2
1462073551.438	 11	 -0.419223	 1.137694	 0.879964	 2.976608	 -1.095160	 0.783885	 -0.364670	 0.769974	 -0.452634	 0.263210	 2
1462073551.448	 11	 -0.323979	 1.302400	 0.750644	 2.975482	 -1.090465	 0.768373	 -0.359244	 0.773822	 -0.452569	 0.259471	 2
1462073551.458	 11	 -0.263273	 1.363161	 0.647302	 2.977253	 -1.086627	 0.755071	 -0.353927	 0.777391	 -0.453047	 0.255240	 2
1462073551.468	 11	 -0.180644	 1.319631	 0.544930	 2.980545	 -1.083689	 0.743703	 -0.348935	 0.780546	 -0.453874	 0.250979	 2
1462073551.478	 11	 -0.049159	 1.234410	 0.433219	 2.984759	 -1.082116	 0.734276	 -0.344387	 0.783101	 -0.455141	 0.246977	 2
1462073551.488	 11	 0.128296	 1.174509	 0.311751	 2.990005	 -1.082403	 0.726762	 -0.340228	 0.784957	 -0.457076	 0.243245	 2
1462073551.498	 11	 0.315325	 1.131398	 0.162646	 2.996922	 -1.084757	 0.721687	 -0.336505	 0.786059	 -0.459815	 0.239680	 2
1462073551.508	 11	 0.486454	 1.117000	 0.006487	 3.006054	 -1.089092	 0.719371	 -0.333214	 0.786441	 -0.463379	 0.236134	 2
1462073551.518	 11	 0.658756	 1.146023	 -0.174857	 3.018330	 -1.095349	 0.720400	 -0.330352	 0.786130	 -0.467829	 0.232388	 2
1462073551.528	 11	 0.838667	 1.231166	 -0.387718	 3.035091	 -1.103609	 0.725688	 -0.327912	 0.785102	 -0.473311	 0.228176	 2
1462073551.538	 11	 0.996645	 1.439562	 -0.626951	 3.058340	 -1.113702	 0.736269	 -0.325763	 0.783445	 -0.479964	 0.222996	 2
1462073551.548	 11	 1.041989	 1.738800	 -0.851569	 3.090003	 -1.124638	 0.752942	 -0.323717	 0.781455	 -0.487625	 0.216235	 2
1462073551.558	 11	 0.853174	 1.844937	 -0.958711	 3.127693	 -1.134112	 0.774284	 -0.321902	 0.779633	 -0.495172	 0.208221	 2
1462073551.568	 11	 0.419147	 1.617061	 -0.877120	 -3.118881	 -1.139481	 0.795953	 -0.320669	 0.778557	 -0.500931	 0.200224	 2
1462073551.578	 11	 -0.055310	 1.017463	 -0.590813	 -3.092283	 -1.139741	 0.812110	 -0.320249	 0.778526	 -0.503700	 0.193972	 2
1462073551.588	 11	 -0.145471	 0.177750	 -0.259995	 -3.081227	 -1.138014	 0.819950	 -0.320718	 0.778754	 -0.504054	 0.191342	 2
1462073551.598	 11	 0.120686	 -0.652673	 0.029440	 -3.084686	 -1.138382	 0.821106	 -0.321996	 0.778146	 -0.503528	 0.193044	 2
1462073551.608	 11	 0.474580	 -1.255335	 0.374584	 -3.101762	 -1.142391	 0.814721	 -0.323343	 0.776527	 -0.502937	 0.198770	 2
1462073551.618	 11	 0.712986	 -1.438740	 0.700122	 -3.129348	 -1.149185	 0.799985	 -0.323806	 0.774435	 -0.502584	 0.206905	 2
1462073551.628	 11	 0.744105	 -1.346950	 0.903200	 3.120498	 -1.156650	 0.778712	 -0.323179	 0.772473	 -0.502329	 0.215653	 2
1462073551.638	 11	 0.603412	 -0.969057	 1.035833	 3.086184	 -1.162701	 0.752950	 -0.321277	 0.771302	 -0.501987	 0.223345	 2
1462073551.648	 11	 0.414406	 -0.589442	 1.093233	 3.053519	 -1.166542	 0.724859	 -0.318312	 0.771091	 -0.501452	 0.229437	 2
1462073551.658	 11	 0.209760	 -0.170098	 1.195901	 3.022950	 -1.167945	 0.694580	 -0.314184	 0.771966	 -0.500680	 0.233828	 2
1462073551.668	 11	 -0.034155	 -0.036724	 1.155570	 2.995024	 -1.166694	 0.664606	 -0.309665	 0.773690	 -0.499354	 0.236974	 2
1462073551.678	 11	 -0.327201	 -0.400489	 0.889362	 2.970945	 -1.162659	 0.641549	 -0.306960	 0.775463	 -0.496773	 0.240102	 2
1462073551.688	 11	 -0.501853	 -0.734132	 0.571246	 2.951420	 -1.156869	 0.627580	 -0.306656	 0.776814	 -0.493131	 0.243605	 2
1462073551.698	 11	 -0.419317	 -0.624928	 0.263539	 2.939071	 -1.151684	 0.621588	 -0.307593	 0.777627	 -0.489868	 0.246399	 2
1462073551.708	 11	 -0.037273	 0.273972	 -0.001061	 2.938241	 -1.150165	 0.620826	 -0.307564	 0.778053	 -0.489218	 0.246382	 2
1462073551.718	 11	 -0.192149	 1.398639	 -0.297253	 2.954905	 -1.149740	 0.626393	 -0.305667	 0.779345	 -0.490922	 0.241214	 2
1462073551.728	 11	 -0.793341	 1.782325	 -0.578335	 2.986099	 -1.144096	 0.641531	 -0.304197	 0.782242	 -0.491602	 0.232142	 2
1462073551.738	 11	 -0.863649	 1.049515	 -0.750801	 3.017187	 -1.136371	 0.661337	 -0.304770	 0.784814	 -0.490956	 0.223928	 2
1462073551.748	 11	 -0.565102	 -0.312153	 -0.810833	 3.036103	 -1.130761	 0.681957	 -0.308596	 0.785220	 -0.489305	 0.220860	 2
1462073551.758	 11	 -0.028297	 -1.314774	 -0.690551	 3.041156	 -1.129799	 0.699608	 -0.314350	 0.783281	 -0.487746	 0.223065	 2
1462073551.768	 11	 0.542157	 -1.844393	 -0.452123	 3.033337	 -1.134256	 0.710356	 -0.320135	 0.779538	 -0.487075	 0.229329	 2
1462073551.778	 11	 1.198863	 -1.744363	 -0.472897	 3.022512	 -1.145001	 0.718288	 -0.325086	 0.774196	 -0.488694	 0.236894	 2
1462073551.788	 11	 1.871009	 -1.410426	 -0.646163	 3.016395	 -1.162654	 0.727867	 -0.329002	 0.767240	 -0.493552	 0.243940	 2
1462073551.798	 11	 2.384856	 -1.214817	 -0.744736	 3.014321	 -1.186142	 0.739208	 -0.332092	 0.758826	 -0.501063	 0.250668	 2
1462073551.808	 11	 2.452398	 -1.194414	 -0.690780	 3.012076	 -1.211445	 0.749767	 -0.334675	 0.749902	 -0.509224	 0.257546	 2
1462073551.818	 11	 2.410339	 -0.807385	 -0.724114	 3.013761	 -1.236339	 0.761368	 -0.336544	 0.741301	 -0.517616	 0.263219	 2
1462073551.828	 11	 2.311231	 -0.494884	 -0.791749	 3.022592	 -1.260561	 0.776469	 -0.337718	 0.733150	 -0.526359	 0.267179	 2
1462073551.838	 11	 2.045783	 -0.573575	 -0.896746	 3.037636	 -1.282590	 0.797765	 -0.339445	 0.725346	 -0.534356	 0.270397	 2
1462073551.848	 11	 1.725761	 -0.898954	 -1.014221	 3.057923	 -1.301478	 0.827286	 -0.342723	 0.717714	 -0.540825	 0.273746	 2
1462073551.858	 11	 1.457045	 -1.221172	 -1.115062	 3.083066	 -1.317412	 0.865193	 -0.347638	 0.710123	 -0.545770	 0.277505	 2
1462073551.868	 11	 1.299327	 -1.326639	 -1.202063	 3.114581	 -1.331199	 0.911260	 -0.353560	 0.702572	 -0.549808	 0.281245	 2
1462073551.878	 11	 1.290012	 -1.220638	 -1.255349	 -3.129157	 -1.344138	 0.964733	 -0.359564	 0.695030	 -0.553813	 0.284497	 2
1462073551.888	 11	 1.366847	 -0.994319	 -1.256044	 -3.081287	 -1.357123	 1.024595	 -0.364927	 0.687504	 -0.558349	 0.287077	 2
1462073551.898	 11	 1.452332	 -0.782585	 -1.211121	 -3.025540	 -1.370323	 1.090058	 -0.369382	 0.680039	 -0.563484	 0.289118	 2
1462073551.908	 11	 1.516437	 -0.597217	 -1.143877	 -2.962213	 -1.383484	 1.161167	 -0.372958	 0.672694	 -0.569052	 0.290800	 2
1462073551.918	 11	 1.538177	 -0.354198	 -1.064005	 -2.890532	 -1.396162	 1.238270	 -0.375545	 0.665670	 -0.574985	 0.291962	 2
1462073551.928	 11	 1.542731	 -0.135585	 -0.983143	 -2.809962	 -1.408070	 1.321882	 -0.377147	 0.659053	 -0.581210	 0.292583	 2
1462073551.938	 11	 1.520139	 -0.006316	 -0.913535	 -2.720408	 -1.418859	 1.412855	 -0.378047	 0.652796	 -0.587518	 0.292848	 2
1462073551.948	 11	 1.486020	 -0.029360	 -0.878282	 -2.621703	 -1.428180	 1.512784	 -0.378775	 0.646689	 -0.593641	 0.293110	 2
1462073551.958	 11	 1.457517	 -0.186715	 -0.881630	 -2.513409	 -1.435707	 1.623551	 -0.379875	 0.640452	 -0.599371	 0.293718	 2
1462073551.968	 11	 1.432955	 -0.388965	 -0.914205	 -2.395700	 -1.441090	 1.745714	 -0.381664	 0.633903	 -0.604638	 0.294810	 2
1462073551.978	 11	 1.415105	 -0.536895	 -0.933544	 -2.271092	 -1.444157	 1.876430	 -0.384036	 0.627067	 -0.609523	 0.296285	 2
1462073551.988	 11	 1.403006	 -0.626092	 -0.918283	 -2.144676	 -1.445105	 2.009967	 -0.386679	 0.620088	 -0.614110	 0.298061	 2
1462073551.998	 11	 1.373046	 -0.670438	 -0.885396	 -2.021748	 -1.444075	 2.140556	 -0.389413	 0.613105	 -0.618421	 0.300026	 2
1462073552.008	 11	 1.318858	 -0.662466	 -0.834759	 -1.907462	 -1.441355	 2.262511	 -0.392062	 0.606307	 -0.622459	 0.302034	 2
1462073552.018	 11	 1.259610	 -0.604417	 -0.774020	 -1.804421	 -1.437359	 2.372715	 -0.394452	 0.599839	 -0.626271	 0.303948	 2
1462073552.028	 11	 1.231398	 -0.530482	 -0.710207	 -1.711130	 -1.432526	 2.472404	 -0.396453	 0.593687	 -0.629982	 0.305751	 2
1462073552.038	 11	 1.232926	 -0.472707	 -0.662789	 -1.625051	 -1.427030	 2.564247	 -0.398083	 0.587720	 -0.633683	 0.307508	 2
1462073552.048	 11	 1.257539	 -0.454729	 -0.667099	 -1.544642	 -1.420585	 2.650127	 -0.399538	 0.581733	 -0.637446	 0.309224	 2
1462073552.058	 11	 1.330577	 -0.537223	 -0.719659	 -1.468498	 -1.412715	 2.732332	 -0.401169	 0.575348	 -0.641307	 0.311067	 2
1462073552.068	 11	 1.424123	 -0.760486	 -0.815272	 -1.397589	 -1.402958	 2.811247	 -0.403478	 0.568164	 -0.645147	 0.313337	 2
1462073552.078	 11	 1.444597	 -1.074082	 -0.930274	 -1.337127	 -1.391192	 2.882726	 -0.406961	 0.560090	 -0.648635	 0.316157	 2
1462073552.088	 11	 1.311848	 -1.314711	 -1.018749	 -1.293548	 -1.378092	 2.939924	 -0.411692	 0.551634	 -0.651403	 0.319192	 2
1462073552.098	 11	 1.032970	 -1.358813	 -1.052968	 -1.269340	 -1.364882	 2.978512	 -0.417226	 0.543663	 -0.653297	 0.321801	 2
1462073552.108	 11	 0.712623	 -1.178084	 -1.047431	 -1.261289	 -1.352479	 2.999373	 -0.422822	 0.536876	 -0.654539	 0.323363	 2
1462073552.118	 11	 0.469886	 -0.871748	 -0.996639	 -1.262402	 -1.341240	 3.007984	 -0.427794	 0.531469	 -0.655554	 0.323701	 2
1462073552.128	 11	 0.353245	 -0.559144	 -0.910651	 -1.265587	 -1.331217	 3.011236	 -0.431739	 0.527209	 -0.656690	 0.323126	 2
1462073552.138	 11	 0.336488	 -0.343573	 -0.817909	 -1.266749	 -1.322182	 3.014041	 -0.434685	 0.523656	 -0.658088	 0.322107	 2
1462073552.148	 11	 0.366957	 -0.301469	 -0.719733	 -1.265165	 -1.314000	 3.018764	 -0.437038	 0.520372	 -0.659570	 0.321214	 2
1462073552.158	 11	 0.362308	 -0.478247	 -0.605169	 -1.263346	 -1.306827	 3.024987	 -0.439478	 0.517087	 -0.660629	 0.321013	 2
1462073552.168	 11	 0.213978	 -0.829831	 -0.453679	 -1.267036	 -1.301319	 3.028819	 -0.442772	 0.513943	 -0.660471	 0.321861	 2
1462073552.178	 11	 -0.097157	 -1.127357	 -0.246981	 -1.281218	 -1.298461	 3.025131	 -0.447069	 0.511592	 -0.658566	 0.323565	 2
1462073552.188	 11	 -0.467057	 -1.241529	 -0.007158	 -1.307090	 -1.298838	 3.010965	 -0.451868	 0.510692	 -0.654966	 0.325621	 2
1462073552.198	 11	 -0.754483	 -1.256271	 0.190242	 -1.342475	 -1.301937	 2.987262	 -0.456713	 0.511225	 -0.650116	 0.327737	 2
1462073552.208	 11	 -0.967571	 -1.292982	 0.321779	 -1.385795	 -1.306605	 2.955574	 -0.461609	 0.512738	 -0.644383	 0.329830	 2
1462073552.218	 11	 -1.325934	 -1.431808	 0.539957	 -1.442250	 -1.313273	 2.911609	 -0.466875	 0.515464	 -0.637195	 0.332124	 2
1462073552.228	 11	 -1.804355	 -1.484956	 0.790885	 -1.519272	 -1.322054	 2.847381	 -0.472480	 0.520022	 -0.628144	 0.334326	 2
1462073552.238	 11	 -2.311614	 -1.248251	 0.959500	 -1.620134	 -1.331260	 2.757067	 -0.477854	 0.526788	 -0.617753	 0.335456	 2
1462073552.248	 11	 -2.783451	 -0.968041	 1.128211	 -1.746192	 -1.339072	 2.638090	 -0.482617	 0.535834	 -0.606348	 0.335118	 2
1462073552.258	 11	 -3.179239	 -0.623221	 1.290467	 -1.894722	 -1.343571	 2.492968	 -0.486551	 0.546919	 -0.594164	 0.333343	 2
1462073552.268	 11	 -3.409813	 -0.105423	 1.465684	 -2.055261	 -1.343372	 2.330723	 -0.488929	 0.559869	 -0.581900	 0.329981	 2
1462073552.278	 11	 -3.397068	 0.597091	 1.690591	 -2.212058	 -1.338914	 2.165463	 -0.488708	 0.574370	 -0.570559	 0.325154	 2
1462073552.288	 11	 -3.209136	 1.331037	 1.920660	 -2.354362	 -1.331666	 2.007301	 -0.485284	 0.589990	 -0.560864	 0.319129	 2
1462073552.298	 11	 -3.016846	 1.926112	 2.069467	 -2.479411	 -1.322253	 1.859987	 -0.479025	 0.606248	 -0.552820	 0.312071	 2
1462073552.308	 11	 -2.867958	 2.183804	 2.170750	 -2.589487	 -1.310621	 1.724148	 -0.471036	 0.622607	 -0.545686	 0.304487	 2
1462073552.318	 11	 -2.710905	 2.129890	 2.279720	 -2.688677	 -1.297317	 1.598909	 -0.462212	 0.638582	 -0.538662	 0.297351	 2
1462073552.328	 11	 -2.496344	 1.888062	 2.312904	 -2.777920	 -1.283006	 1.485640	 -0.453264	 0.653595	 -0.531489	 0.291349	 2
1462073552.338	 11	 -2.162149	 1.570336	 2.195132	 -2.854739	 -1.268804	 1.388079	 -0.444779	 0.666938	 -0.524548	 0.286732	 2
1462073552.348	 11	 -1.675396	 1.057166	 2.028386	 -2.920220	 -1.256517	 1.306844	 -0.437271	 0.677929	 -0.518139	 0.284144	 2
1462073552.358	 11	 -1.121851	 0.495551	 1.808385	 -2.976681	 -1.247764	 1.240696	 -0.431054	 0.686120	 -0.512586	 0.284055	 2
1462073552.368	 11	 -0.732558	 -0.053817	 1.597389	 -3.027447	 -1.242063	 1.186250	 -0.426324	 0.691823	 -0.507634	 0.286245	 2
1462073552.378	 11	 -0.941102	 -0.945432	 1.470477	 -3.079815	 -1.234951	 1.138237	 -0.424108	 0.696134	 -0.501055	 0.290645	 2
1462073552.388	 11	 -1.363205	 -1.464757	 1.407505	 -3.134798	 -1.222715	 1.094683	 -0.424487	 0.700253	 -0.491573	 0.296332	 2
1462073552.398	 11	 -1.515630	 -1.206859	 1.415495	 3.098143	 -1.207562	 1.054981	 -0.424928	 0.704924	 -0.481468	 0.301175	 2
1462073552.408	 11	 -1.550721	 -0.747111	 1.438197	 3.055341	 -1.191196	 1.018292	 -0.424246	 0.710353	 -0.471995	 0.304359	 2
1462073552.418	 11	 -1.480171	 -0.265545	 1.432472	 3.020374	 -1.174758	 0.984720	 -0.422338	 0.716309	 -0.463625	 0.305916	 2
1462073552.428	 11	 -1.399139	 0.174523	 1.428401	 2.992476	 -1.158781	 0.953558	 -0.419191	 0.722693	 -0.456497	 0.305948	 2
1462073552.438	 11	 -1.298862	 0.410197	 1.407340	 2.969596	 -1.143414	 0.924535	 -0.415268	 0.729205	 -0.450275	 0.305065	 2
1462073552.448	 11	 -1.153435	 0.516807	 1.353778	 2.950175	 -1.129222	 0.897648	 -0.410955	 0.735455	 -0.444855	 0.303851	 2
1462073552.458	 11	 -1.005334	 0.543361	 1.262145	 2.933642	 -1.116458	 0.873316	 -0.406592	 0.741208	 -0.440162	 0.302574	 2
1462073552.468	 11	 -0.852074	 0.534783	 1.168010	 2.919356	 -1.105218	 0.851385	 -0.402332	 0.746377	 -0.436138	 0.301387	 2
1462073552.478	 11	 -0.680659	 0.521958	 1.082203	 2.906742	 -1.095662	 0.831323	 -0.398152	 0.750950	 -0.432822	 0.300358	 2
1462073552.488	 11	 -0.501788	 0.506976	 0.995245	 2.895296	 -1.087957	 0.812698	 -0.394041	 0.754900	 -0.430256	 0.299562	 2
1462073552.498	 11	 -0.341988	 0.533426	 0.893918	 2.885453	 -1.081981	 0.795641	 -0.390005	 0.758305	 -0.428466	 0.298808	 2
1462073552.508	 11	 -0.206616	 0.593902	 0.781397	 2.877730	 -1.077592	 0.780339	 -0.386049	 0.761248	 -0.427471	 0.297886	 2
1462073552.518	 11	 -0.112801	 0.679922	 0.654555	 2.872658	 -1.074493	 0.767114	 -0.382223	 0.763830	 -0.427201	 0.296594	 2
1462073552.528	 11	 -0.053064	 0.802024	 0.502767	 2.871064	 -1.072413	 0.756535	 -0.378602	 0.766140	 -0.427613	 0.294681	 2
1462073552.538	 11	 0.002344	 0.924030	 0.336095	 2.873397	 -1.071292	 0.748999	 -0.375256	 0.768190	 -0.428700	 0.292033	 2
1462073552.548	 11	 0.059764	 1.012063	 0.178682	 2.879255	 -1.071147	 0.744366	 -0.372222	 0.769944	 -0.430408	 0.288767	 2
1462073552.558	 11	 0.131827	 1.041518	 0.016332	 2.888069	 -1.072088	 0.742595	 -0.369600	 0.771296	 -0.432682	 0.285106	 2
1462073552.568	 11	 0.221785	 1.030399	 -0.160405	 2.899580	 -1.074289	 0.743923	 -0.367520	 0.772118	 -0.435515	 0.281229	 2
1462073552.578	 11	 0.317117	 1.026717	 -0.336054	 2.913843	 -1.077826	 0.748480	 -0.365999	 0.772371	 -0.438937	 0.277168	 2
1462073552.588	 11	 0.381815	 1.081691	 -0.502365	 2.931407	 -1.082407	 0.756333	 -0.364929	 0.772183	 -0.442931	 0.272715	 2
1462073552.598	 11	 0.403220	 1.236751	 -0.671631	 2.953484	 -1.087592	 0.767841	 -0.364165	 0.771748	 -0.447501	 0.267453	 2
1462073552.608	 11	 0.334465	 1.478486	 -0.805200	 2.981105	 -1.092466	 0.783020	 -0.363499	 0.771401	 -0.452484	 0.260896	 2
1462073552.618	 11	 0.147123	 1.614881	 -0.845996	 3.012641	 -1.095687	 0.800576	 -0.362868	 0.771457	 -0.457244	 0.253198	 2
1462073552.628	 11	 -0.201798	 1.526348	 -0.728679	 3.043325	 -1.095529	 0.817500	 -0.362371	 0.772251	 -0.460636	 0.245215	 2
1462073552.638	 11	 -0.542974	 1.167459	 -0.489252	 3.067503	 -1.091285	 0.830376	 -0.362143	 0.773882	 -0.461780	 0.238157	 2
1462073552.648	 11	 -0.473250	 0.594602	 -0.255393	 3.081586	 -1.086315	 0.837878	 -0.362253	 0.775389	 -0.461486	 0.233613	 2
1462073552.658	 11	 -0.097907	 0.064828	 0.029494	 3.084659	 -1.084343	 0.839198	 -0.362241	 0.775983	 -0.461112	 0.232395	 2
1462073552.668	 11	 0.292033	 -0.425714	 0.449970	 3.075122	 -1.086130	 0.831730	 -0.361377	 0.775789	 -0.460964	 0.234671	 2
1462073552.678	 11	 0.528930	 -1.279175	 0.923822	 3.048692	 -1.090295	 0.813596	 -0.360066	 0.774898	 -0.460004	 0.241414	 2
1462073552.688	 11	 0.550222	 -2.298513	 1.317010	 3.003333	 -1.094455	 0.785684	 -0.359335	 0.773276	 -0.456956	 0.253206	 2
1462073552.698	 11	 0.391971	 -2.691768	 1.438357	 2.948075	 -1.096409	 0.753282	 -0.359253	 0.771409	 -0.452033	 0.267456	 2
1462073552.708	 11	 0.105474	 -2.338746	 1.162775	 2.898815	 -1.095519	 0.725607	 -0.359700	 0.769869	 -0.446606	 0.280107	 2
1462073552.718	 11	 -0.190126	 -1.452437	 0.648175	 2.867599	 -1.092316	 0.709681	 -0.360632	 0.769138	 -0.441940	 0.288204	 2
1462073552.728	 11	 -0.227953	 -0.193756	 0.106020	 2.859477	 -1.089286	 0.706355	 -0.361244	 0.769356	 -0.439714	 0.290252	 2
1462073552.738	 11	 0.311237	 1.244738	 -0.194360	 2.869873	 -1.091018	 0.708382	 -0.359674	 0.770038	 -0.442005	 0.286894	 2
1462073552.748	 11	 0.808732	 2.771623	 -0.349676	 2.896321	 -1.098957	 0.710688	 -0.354365	 0.771289	 -0.449644	 0.278134	 2
1462073552.758	 11	 0.402389	 3.271869	 -0.612187	 2.936477	 -1.105355	 0.719945	 -0.348532	 0.773453	 -0.458046	 0.265499	 2
1462073552.768	 11	 0.035073	 3.028101	 -0.642174	 2.982981	 -1.107403	 0.736088	 -0.343939	 0.776140	 -0.464839	 0.251470	 2
1462073552.778	 11	 -0.085917	 1.802209	 -0.629081	 3.017159	 -1.107576	 0.750234	 -0.341444	 0.777884	 -0.469021	 0.241519	 2
1462073552.788	 11	 0.108527	 0.545055	 -0.692563	 3.038579	 -1.108701	 0.765013	 -0.342072	 0.777636	 -0.471364	 0.236824	 2
1462073552.798	 11	 0.564509	 -0.033082	 -0.737083	 3.053395	 -1.113769	 0.780659	 -0.344237	 0.775425	 -0.474074	 0.235521	 2
1462073552.808	 11	 1.088547	 -0.301125	 -0.673800	 3.063389	 -1.123921	 0.794494	 -0.346341	 0.771662	 -0.478180	 0.236495	 2
1462073552.818	 11	 1.453766	 -0.460809	 -0.692318	 3.071473	 -1.138138	 0.808131	 -0.348362	 0.766663	 -0.483541	 0.238873	 2
1462073552.828	 11	 1.581104	 -0.594305	 -0.715985	 3.079321	 -1.154219	 0.822884	 -0.350565	 0.760939	 -0.489394	 0.242010	 2
1462073552.838	 11	 1.534416	 -0.759067	 -0.721374	 3.086677	 -1.170133	 0.838688	 -0.353161	 0.754982	 -0.494896	 0.245677	 2
1462073552.848	 11	 1.465355	 -0.919476	 -0.722266	 3.093446	 -1.185293	 0.855565	 -0.356241	 0.748924	 -0.499795	 0.249820	 2
1462073552.858	 11	 1.442637	 -1.006437	 -0.696233	 3.099609	 -1.200035	 0.872853	 -0.359533	 0.742791	 -0.504295	 0.254330	 2
1462073552.868	 11	 1.478994	 -0.997974	 -0.687945	 3.106145	 -1.214966	 0.890593	 -0.362738	 0.736544	 -0.508791	 0.258954	 2
1462073552.878	 11	 1.549646	 -0.941896	 -0.699761	 3.114416	 -1.230494	 0.909561	 -0.365730	 0.730114	 -0.513574	 0.263471	 2
1462073552.888	 11	 1.616957	 -0.895551	 -0.735086	 3.125361	 -1.246660	 0.930711	 -0.368572	 0.723450	 -0.518694	 0.267829	 2
1462073552.898	 11	 1.679811	 -0.873789	 -0.788719	 3.139823	 -1.263365	 0.955168	 -0.371405	 0.716494	 -0.524102	 0.272050	 2
1462073552.908	 11	 1.746816	 -0.860688	 -0.861652	 -3.124197	 -1.280596	 0.984251	 -0.374312	 0.709183	 -0.529813	 0.276130	 2
1462073552.918	 11	 1.815909	 -0.857166	 -0.934693	 -3.099238	 -1.298302	 1.019171	 -0.377331	 0.701476	 -0.535816	 0.280098	 2
1462073552.928	 11	 1.872236	 -0.848264	 -1.004375	 -3.067173	 -1.316290	 1.061168	 -0.380437	 0.693399	 -0.542084	 0.283919	 2
1462073552.938	 11	 1.884782	 -0.864590	 -1.050464	 -3.027340	 -1.334086	 1.111108	 -0.383679	 0.685039	 -0.548424	 0.287650	 2
1462073552.948	 11	 1.819851	 -0.828246	 -1.051692	 -2.979910	 -1.350881	 1.168449	 -0.386927	 0.676711	 -0.554596	 0.291158	 2
1462073552.958	 11	 1.695519	 -0.751002	 -1.010458	 -2.925972	 -1.365955	 1.231513	 -0.389987	 0.668775	 -0.560412	 0.294259	 2
1462073552.968	 11	 1.537261	 -0.648999	 -0.942053	 -2.867340	 -1.378942	 1.298207	 -0.392750	 0.661456	 -0.565755	 0.296891	 2
1462073552.978	 11	 1.370622	 -0.521380	 -0.864812	 -2.805703	 -1.389754	 1.366567	 -0.395131	 0.654880	 -0.570625	 0.298982	 2
1462073552.988	 11	 1.237061	 -0.398085	 -0.783635	 -2.742421	 -1.398703	 1.435179	 -0.397070	 0.649020	 -0.575117	 0.300582	 2
1462073552.998	 11	 1.154542	 -0.299522	 -0.719119	 -2.677625	 -1.406291	 1.504194	 -0.398609	 0.643690	 -0.579363	 0.301849	 2
1462073553.008	 11	 1.120979	 -0.206619	 -0.681727	 -2.609595	 -1.412916	 1.575486	 -0.399791	 0.638682	 -0.583554	 0.302848	 2
1462073553.018	 11	 1.115052	 -0.117159	 -0.668054	 -2.536420	 -1.418708	 1.650943	 -0.400636	 0.633868	 -0.587840	 0.303556	 2
1462073553.028	 11	 1.146181	 -0.084232	 -0.661624	 -2.456747	 -1.423792	 1.732393	 -0.401264	 0.629056	 -0.592259	 0.304147	 2
1462073553.038	 11	 1.208067	 -0.088648	 -0.659006	 -2.369424	 -1.428312	 1.821505	 -0.401766	 0.624059	 -0.596824	 0.304853	 2
1462073553.048	 11	 1.255976	 -0.107977	 -0.664932	 -2.274201	 -1.431961	 1.918708	 -0.402232	 0.618842	 -0.601498	 0.305686	 2
1462073553.058	 11	 1.300584	 -0.139073	 -0.681596	 -2.171851	 -1.434410	 2.023345	 -0.402736	 0.613391	 -0.606242	 0.306637	 2
1462073553.068	 11	 1.355834	 -0.176584	 -0.698413	 -2.063232	 -1.435461	 2.134656	 -0.403301	 0.607653	 -0.611067	 0.307738	 2
1462073553.078	 11	 1.404631	 -0.228928	 -0.709982	 -1.950937	 -1.434935	 2.250153	 -0.403950	 0.601625	 -0.615933	 0.309028	 2
1462073553.088	 11	 1.441493	 -0.316392	 -0.729235	 -1.838610	 -1.432632	 2.366486	 -0.404799	 0.595282	 -0.620749	 0.310560	 2
1462073553.098	 11	 1.498349	 -0.450826	 -0.764020	 -1.728792	 -1.428383	 2.481594	 -0.406018	 0.588485	 -0.625469	 0.312446	 2
1462073553.108	 11	 1.598631	 -0.649249	 -0.805107	 -1.622488	 -1.422118	 2.595057	 -0.407750	 0.581005	 -0.630093	 0.314891	 2
1462073553.118	 11	 1.728551	 -0.897763	 -0.847984	 -1.520712	 -1.413749	 2.706428	 -0.410106	 0.572624	 -0.634607	 0.318102	 2
1462073553.128	 11	 1.854727	 -1.250591	 -0.903522	 -1.426595	 -1.403124	 2.813504	 -0.413385	 0.563135	 -0.638832	 0.322313	 2
1462073553.138	 11	 1.899276	 -1.695869	 -0.980525	 -1.346409	 -1.390191	 2.910965	 -0.418046	 0.552497	 -0.642396	 0.327585	 2
1462073553.148	 11	 1.748870	 -2.081968	 -1.042491	 -1.288243	 -1.375707	 2.990480	 -0.424305	 0.541241	 -0.644816	 0.333521	 2
1462073553.158	 11	 1.371548	 -2.192695	 -1.063683	 -1.256433	 -1.361206	 3.045270	 -0.431719	 0.530521	 -0.645884	 0.339118	 2
1462073553.168	 11	 0.856359	 -1.938874	 -1.031257	 -1.248832	 -1.348210	 3.073781	 -0.439317	 0.521607	 -0.645851	 0.343225	 2
1462073553.178	 11	 0.387478	 -1.405157	 -0.957197	 -1.257150	 -1.337376	 3.081152	 -0.445997	 0.515174	 -0.645390	 0.345187	 2
1462073553.188	 11	 0.072511	 -0.842981	 -0.856502	 -1.272346	 -1.328541	 3.075547	 -0.451164	 0.511060	 -0.645086	 0.345156	 2
1462073553.198	 11	 -0.069481	 -0.496086	 -0.745461	 -1.288512	 -1.321261	 3.064670	 -0.455024	 0.508486	 -0.645031	 0.343991	 2
1462073553.208	 11	 -0.063951	 -0.543202	 -0.640437	 -1.303303	 -1.315044	 3.054620	 -0.458473	 0.506331	 -0.644834	 0.342959	 2
1462073553.218	 11	 -0.003562	 -0.979512	 -0.501145	 -1.317729	 -1.309890	 3.048528	 -0.462611	 0.503684	 -0.643747	 0.343340	 2
1462073553.228	 11	 -0.038307	 -1.463278	 -0.344414	 -1.335408	 -1.306165	 3.044179	 -0.467951	 0.500521	 -0.641232	 0.345430	 2
1462073553.238	 11	 -0.238055	 -1.725603	 -0.078676	 -1.359881	 -1.305086	 3.036213	 -0.474006	 0.497826	 -0.637093	 0.348712	 2
1462073553.248	 11	 -0.483492	 -1.779870	 0.258672	 -1.391727	 -1.307607	 3.021571	 -0.479937	 0.496479	 -0.631511	 0.352652	 2
1462073553.258	 11	 -0.713589	 -1.697425	 0.534277	 -1.430373	 -1.313243	 2.999372	 -0.485342	 0.496607	 -0.624912	 0.356806	 2
1462073553.268	 11	 -1.063224	 -1.646292	 0.843671	 -1.480683	 -1.321942	 2.964587	 -0.490339	 0.498483	 -0.617082	 0.360959	 2
1462073553.278	 11	 -1.520931	 -1.425764	 1.148122	 -1.549745	 -1.333460	 2.908876	 -0.494782	 0.502709	 -0.607930	 0.364549	 2
1462073553.288	 11	 -1.986851	 -1.051720	 1.351759	 -1.642153	 -1.346058	 2.825706	 -0.498349	 0.509503	 -0.597964	 0.366735	 2
1462073553.298	 11	 -2.502957	 -0.847186	 1.480719	 -1.765090	 -1.357325	 2.708769	 -0.501570	 0.518536	 -0.587015	 0.367371	 2
1462073553.318	 12	 -3.496200	 -0.902803	 1.623135	 -2.114369	 -1.364099	 2.370222	 -0.509939	 0.541326	 -0.559939	 0.365234	 2
1462073553.328	 12	 -3.670790	 -0.395704	 1.665610	 -2.303067	 -1.355645	 2.183023	 -0.513587	 0.554613	 -0.545504	 0.362019	 2
1462073553.338	 12	 -3.587931	 0.641183	 1.680932	 -2.463561	 -1.340821	 2.014819	 -0.514414	 0.569336	 -0.533235	 0.356223	 2
1462073553.348	 12	 -3.347643	 1.810429	 1.677997	 -2.585439	 -1.322602	 1.873665	 -0.511556	 0.585343	 -0.524352	 0.347475	 2
1462073553.358	 12	 -3.067153	 2.572059	 1.803073	 -2.677802	 -1.303805	 1.753187	 -0.505396	 0.602126	 -0.518172	 0.336924	 2
1462073553.368	 12	 -2.826800	 2.875142	 2.040400	 -2.755114	 -1.285662	 1.643497	 -0.496864	 0.619190	 -0.513169	 0.326172	 2
1462073553.378	 12	 -2.627362	 2.873110	 2.280572	 -2.825710	 -1.268186	 1.539576	 -0.486801	 0.636128	 -0.508305	 0.316215	 2
1462073553.388	 12	 -2.413382	 2.655365	 2.407772	 -2.891120	 -1.251111	 1.442272	 -0.476090	 0.652356	 -0.503188	 0.307524	 2
1462073553.398	 12	 -2.093192	 2.219337	 2.397729	 -2.950940	 -1.235091	 1.354366	 -0.465597	 0.667048	 -0.497843	 0.300698	 2
1462073553.408	 12	 -1.656987	 1.614920	 2.241232	 -3.004647	 -1.221349	 1.278520	 -0.456141	 0.679354	 -0.492554	 0.296317	 2
1462073553.418	 12	 -1.206657	 0.945710	 1.956117	 -3.052024	 -1.210586	 1.216094	 -0.448393	 0.688820	 -0.487581	 0.294509	 2
1462073553.428	 12	 -0.894190	 0.255454	 1.646428	 -3.094487	 -1.202187	 1.166073	 -0.442813	 0.695612	 -0.482676	 0.295067	 2
1462073553.438	 12	 -0.781913	 -0.393349	 1.398551	 -3.134665	 -1.194620	 1.125474	 -0.439477	 0.700385	 -0.477219	 0.297629	 2
1462073553.448	 12	 -0.849264	 -0.932755	 1.203347	 3.109448	 -1.186239	 1.092069	 -0.438227	 0.703871	 -0.470692	 0.301616	 2
1462073553.458	 12	 -1.045109	 -1.428455	 1.116244	 3.070054	 -1.175744	 1.063710	 -0.438821	 0.706663	 -0.462587	 0.306719	 2
1462073553.468	 12	 -1.167310	 -1.529263	 1.099318	 3.031355	 -1.163335	 1.038329	 -0.440211	 0.709332	 -0.453460	 0.312148	 2
1462073553.478	 12	 -1.163722	 -1.249301	 1.132799	 2.996075	 -1.150299	 1.014414	 -0.441074	 0.712323	 -0.444591	 0.316843	 2
1462073553.488	 12	 -1.110916	 -0.749034	 1.205203	 2.965472	 -1.137313	 0.990464	 -0.440564	 0.716011	 -0.436750	 0.320126	 2
1462073553.498	 12	 -1.102360	 -0.304371	 1.218858	 2.940345	 -1.124211	 0.967178	 -0.438828	 0.720428	 -0.429947	 0.321807	 2
1462073553.508	 12	 -1.104025	 0.067497	 1.163716	 2.921206	 -1.110925	 0.946162	 -0.436404	 0.725328	 -0.423998	 0.321988	 2
1462073553.518	 12	 -1.061018	 0.412601	 1.102607	 2.907685	 -1.097931	 0.927333	 -0.433370	 0.730554	 -0.419006	 0.320805	 2
1462073553.528	 12	 -0.989472	 0.700180	 1.040714	 2.898840	 -1.085639	 0.910238	 -0.429791	 0.735946	 -0.414986	 0.318511	 2
1462073553.538	 12	 -0.895910	 0.905782	 0.976801	 2.893591	 -1.074286	 0.894546	 -0.425808	 0.741337	 -0.411846	 0.315420	 2
1462073553.548	 12	 -0.754797	 1.018647	 0.904151	 2.890835	 -1.064318	 0.880034	 -0.421576	 0.746484	 -0.409559	 0.311924	 2
1462073553.558	 12	 -0.573636	 1.041904	 0.811135	 2.889509	 -1.056234	 0.866625	 -0.417288	 0.751113	 -0.408118	 0.308449	 2
1462073553.568	 12	 -0.411726	 1.069357	 0.702338	 2.889665	 -1.050054	 0.854595	 -0.413064	 0.755174	 -0.407505	 0.305009	 2
1462073553.578	 12	 -0.288376	 1.087175	 0.569276	 2.891736	 -1.045479	 0.844472	 -0.409052	 0.758705	 -0.407616	 0.301482	 2
1462073553.588	 12	 -0.179088	 1.085710	 0.411643	 2.895956	 -1.042378	 0.836766	 -0.405424	 0.761675	 -0.408373	 0.297850	 2
1462073553.598	 12	 -0.073294	 1.036275	 0.237609	 2.902205	 -1.040726	 0.831819	 -0.402345	 0.764007	 -0.409697	 0.294212	 2
1462073553.608	 12	 0.046092	 0.934616	 0.054444	 2.910089	 -1.040635	 0.829814	 -0.399965	 0.765584	 -0.411535	 0.290772	 2
1462073553.618	 12	 0.160186	 0.835162	 -0.120129	 2.919462	 -1.042097	 0.830724	 -0.398299	 0.766399	 -0.413867	 0.287586	 2
1462073553.628	 12	 0.257551	 0.787001	 -0.268500	 2.930487	 -1.044886	 0.834267	 -0.397208	 0.766586	 -0.416682	 0.284514	 2
1462073553.638	 12	 0.356236	 0.775148	 -0.396295	 2.943235	 -1.048868	 0.840037	 -0.396511	 0.766269	 -0.420004	 0.281440	 2
1462073553.648	 12	 0.473142	 0.795019	 -0.542072	 2.958303	 -1.054177	 0.848325	 -0.396162	 0.765435	 -0.423967	 0.278239	 2
1462073553.658	 12	 0.606277	 0.861644	 -0.687554	 2.976349	 -1.060946	 0.859385	 -0.396071	 0.764086	 -0.428724	 0.274766	 2
1462073553.668	 12	 0.741869	 0.960481	 -0.790128	 2.997462	 -1.069133	 0.872818	 -0.396020	 0.762311	 -0.434331	 0.270938	 2
1462073553.678	 12	 0.844756	 1.039009	 -0.773241	 3.019925	 -1.078322	 0.886768	 -0.395655	 0.760337	 -0.440532	 0.266974	 2
1462073553.688	 12	 0.859482	 0.981635	 -0.758983	 3.042530	 -1.087730	 0.900898	 -0.395160	 0.758260	 -0.446816	 0.263146	 2
1462073553.698	 12	 0.766761	 0.730276	 -0.697635	 3.062965	 -1.096282	 0.914914	 -0.395045	 0.756100	 -0.452344	 0.260072	 2
1462073553.708	 12	 0.651882	 0.445697	 -0.533023	 3.078528	 -1.103465	 0.926594	 -0.395182	 0.754079	 -0.456676	 0.258151	 2
1462073553.718	 12	 0.577164	 0.241314	 -0.293412	 3.087856	 -1.109590	 0.933830	 -0.395116	 0.752381	 -0.459935	 0.257422	 2
1462073553.728	 12	 0.564836	 0.090370	 0.006901	 3.089894	 -1.115248	 0.934704	 -0.394359	 0.751109	 -0.462387	 0.257904	 2
1462073553.738	 12	 0.611552	 0.028467	 0.289411	 3.085059	 -1.121093	 0.928912	 -0.392669	 0.750209	 -0.464417	 0.259452	 2
1462073553.748	 12	 0.672813	 -0.038415	 0.477961	 3.074892	 -1.127387	 0.917809	 -0.390198	 0.749519	 -0.466280	 0.261820	 2
1462073553.758	 12	 0.679473	 -0.253968	 0.530251	 3.060812	 -1.133811	 0.904347	 -0.387777	 0.748695	 -0.467776	 0.265086	 2
1462073553.768	 12	 0.614872	 -0.582591	 0.508572	 3.043527	 -1.139659	 0.890772	 -0.386162	 0.747547	 -0.468494	 0.269379	 2
1462073553.778	 12	 0.535299	 -0.885920	 0.448891	 3.023959	 -1.144660	 0.878213	 -0.385581	 0.746041	 -0.468357	 0.274577	 2
1462073553.788	 12	 0.471597	 -1.006235	 0.405696	 3.003545	 -1.148959	 0.866748	 -0.385699	 0.744317	 -0.467675	 0.280194	 2
1462073553.798	 12	 0.444816	 -0.793504	 0.396185	 2.984579	 -1.152794	 0.855464	 -0.385609	 0.742817	 -0.467103	 0.285208	 2
1462073553.808	 12	 0.478014	 -0.292849	 0.367516	 2.970165	 -1.156793	 0.844405	 -0.384549	 0.741831	 -0.467473	 0.288581	 2
1462073553.818	 12	 0.457502	 0.117693	 0.357660	 2.960593	 -1.160795	 0.833534	 -0.382448	 0.741473	 -0.468773	 0.290177	 2
1462073553.828	 12	 0.310911	 0.025670	 0.368739	 2.951566	 -1.163611	 0.822788	 -0.380372	 0.741462	 -0.469715	 0.291408	 2
1462073553.838	 12	 0.084521	 -0.383796	 0.280573	 2.941167	 -1.164398	 0.814456	 -0.379669	 0.741314	 -0.469266	 0.293419	 2
1462073553.848	 12	 -0.064701	 -0.676891	 0.137399	 2.931039	 -1.163703	 0.810211	 -0.380516	 0.740815	 -0.467694	 0.296081	 2
1462073553.858	 12	 -0.037842	 -0.672252	 -0.091931	 2.925134	 -1.163199	 0.811291	 -0.382328	 0.739867	 -0.466209	 0.298450	 2
1462073553.868	 12	 0.136079	 -0.269112	 -0.310307	 2.926583	 -1.164605	 0.817275	 -0.384108	 0.738559	 -0.466144	 0.299502	 2
1462073553.878	 12	 0.298485	 0.579123	 -0.463692	 2.938506	 -1.168175	 0.826389	 -0.384437	 0.737630	 -0.468474	 0.297729	 2
1462073553.888	 12	 -0.070331	 1.244963	 -0.609886	 2.962525	 -1.169785	 0.840527	 -0.383888	 0.738027	 -0.471630	 0.292423	 2
1462073553.898	 12	 -0.384937	 1.544513	 -0.643793	 2.993854	 -1.167510	 0.858295	 -0.383231	 0.739742	 -0.474192	 0.284707	 2
1462073553.908	 12	 -0.186951	 1.365856	 -0.559786	 3.022495	 -1.165702	 0.873789	 -0.382322	 0.741274	 -0.476798	 0.277500	 2
1462073553.918	 12	 0.184317	 0.851380	 -0.513453	 3.044318	 -1.167149	 0.886781	 -0.381779	 0.741420	 -0.479735	 0.272755	 2
1462073553.938	 13	 0.901937	 -0.287841	 -0.383226	 3.065174	 -1.180614	 0.906306	 -0.382564	 0.737067	 -0.486179	 0.272043	 2
1462073553.948	 13	 1.244006	 -0.783949	 -0.455833	 3.066944	 -1.192496	 0.915415	 -0.384186	 0.732501	 -0.489746	 0.275667	 2
1462073553.958	 13	 1.620625	 -1.138130	 -0.596694	 3.067840	 -1.208091	 0.927733	 -0.386715	 0.726204	 -0.494037	 0.281083	 2
1462073553.968	 13	 1.980003	 -1.292381	 -0.748333	 3.070885	 -1.227515	 0.944437	 -0.389743	 0.718310	 -0.499449	 0.287545	 2
1462073553.978	 13	 2.072278	 -1.364334	 -0.806292	 3.076307	 -1.248786	 0.964401	 -0.392936	 0.709578	 -0.505391	 0.294414	 2
1462073553.988	 13	 1.926882	 -1.362274	 -0.874281	 3.085414	 -1.268858	 0.988379	 -0.396525	 0.700870	 -0.510866	 0.300940	 2
1462073553.998	 13	 1.881997	 -1.330624	 -0.927950	 3.099344	 -1.288194	 1.016854	 -0.400262	 0.692166	 -0.516184	 0.307003	 2
1462073554.008	 13	 1.787865	 -1.311768	 -1.005821	 3.119163	 -1.306654	 1.051155	 -0.404264	 0.683431	 -0.521295	 0.312641	 2
1462073554.018	 13	 1.704142	 -1.130146	 -1.074808	 -3.135917	 -1.323960	 1.092493	 -0.408264	 0.674898	 -0.526392	 0.317402	 2
1462073554.028	 13	 1.643697	 -0.789896	 -1.113746	 -3.097617	 -1.340267	 1.140966	 -0.411654	 0.666841	 -0.531914	 0.320829	 2
1462073554.038	 13	 1.595032	 -0.456989	 -1.133671	 -3.048478	 -1.355520	 1.196834	 -0.414239	 0.659357	 -0.537948	 0.322903	 2
1462073554.048	 13	 1.569275	 -0.240122	 -1.159139	 -2.988034	 -1.369733	 1.261547	 -0.416249	 0.652240	 -0.544377	 0.323995	 2
1462073554.058	 13	 1.537734	 -0.121065	 -1.181203	 -2.916073	 -1.382720	 1.336366	 -0.417952	 0.645317	 -0.550999	 0.324472	 2
1462073554.068	 13	 1.478018	 -0.086009	 -1.211264	 -2.832757	 -1.393960	 1.421991	 -0.419633	 0.638518	 -0.557555	 0.324554	 2
1462073554.078	 13	 1.410231	 0.019514	 -1.207561	 -2.738993	 -1.403129	 1.517340	 -0.421218	 0.631938	 -0.564018	 0.324212	 2
1462073554.088	 13	 1.326113	 0.250863	 -1.166308	 -2.637578	 -1.410103	 1.618230	 -0.422204	 0.625937	 -0.570558	 0.323125	 2
1462073554.098	 13	 1.220616	 0.474831	 -1.124938	 -2.531694	 -1.414712	 1.721163	 -0.422513	 0.620641	 -0.577171	 0.321187	 2
1462073554.108	 13	 1.097463	 0.588128	 -1.098299	 -2.425912	 -1.416816	 1.822509	 -0.422481	 0.615939	 -0.583618	 0.318620	 2
1462073554.118	 13	 0.984861	 0.688520	 -1.086792	 -2.323680	 -1.416553	 1.919273	 -0.422275	 0.611724	 -0.589842	 0.315536	 2
1462073554.128	 13	 0.916991	 0.779129	 -1.086424	 -2.225923	 -1.414301	 2.010545	 -0.421877	 0.607864	 -0.595983	 0.311971	 2
1462073554.138	 13	 0.896790	 0.799360	 -1.091389	 -2.132801	 -1.410489	 2.096752	 -0.421392	 0.604118	 -0.602077	 0.308178	 2
1462073554.148	 13	 0.931675	 0.739605	 -1.103972	 -2.043359	 -1.405473	 2.179692	 -0.420997	 0.600180	 -0.608133	 0.304500	 2
1462073554.158	 13	 0.999292	 0.617957	 -1.131271	 -1.956905	 -1.399341	 2.260794	 -0.420884	 0.595804	 -0.614132	 0.301190	 2
1462073554.168	 13	 1.098874	 0.516160	 -1.194899	 -1.872046	 -1.391887	 2.341506	 -0.421101	 0.590826	 -0.620210	 0.298226	 2
1462073554.178	 13	 1.166322	 0.524962	 -1.420281	 -1.788393	 -1.381726	 2.421242	 -0.421742	 0.585167	 -0.626706	 0.294876	 2
1462073554.188	 14	 1.159940	 0.580908	 -1.481519	 -1.710853	 -1.369014	 2.494939	 -0.422739	 0.579035	 -0.633458	 0.291106	 2
1462073554.208	 14	 0.959649	 1.000053	 -0.818299	 -1.589895	 -1.349205	 2.599274	 -0.419937	 0.570746	 -0.646356	 0.283065	 2
1462073554.218	 14	 0.912680	 0.732324	 -0.502784	 -1.541612	 -1.343470	 2.640533	 -0.417643	 0.567703	 -0.651467	 0.280854	 2
1462073554.228	 14	 0.886389	 0.263145	 -0.384359	 -1.500444	 -1.338998	 2.678826	 -0.416265	 0.564490	 -0.655367	 0.280300	 2
1462073554.238	 14	 0.858318	 -0.031396	 -0.384723	 -1.465502	 -1.334437	 2.714524	 -0.416054	 0.560887	 -0.658381	 0.280784	 2
1462073554.248	 14	 0.874033	 -0.089969	 -0.388603	 -1.433007	 -1.329527	 2.748843	 -0.416205	 0.557103	 -0.661169	 0.281540	 2
1462073554.258	 14	 1.003199	 -0.073406	 -0.399165	 -1.398033	 -1.324130	 2.785656	 -0.416195	 0.552987	 -0.664241	 0.282438	 2
1462073554.278	 15	 1.422957	 -0.344641	 -0.524709	 -1.313311	 -1.309575	 2.877506	 -0.416492	 0.541896	 -0.671705	 0.285823	 2
1462073554.288	 15	 1.444012	 -0.531700	 -0.643867	 -1.273331	 -1.299702	 2.924011	 -0.417716	 0.535042	 -0.675462	 0.288087	 2
1462073554.298	 15	 1.369373	 -0.665117	 -0.738246	 -1.240858	 -1.288583	 2.964356	 -0.419757	 0.527913	 -0.678869	 0.290256	 2
1462073554.308	 15	 1.222692	 -0.741480	 -0.767520	 -1.216541	 -1.277119	 2.997294	 -0.422394	 0.520937	 -0.681774	 0.292219	 2
1462073554.318	 15	 0.986137	 -0.687417	 -0.741511	 -1.200440	 -1.266415	 3.021558	 -0.425215	 0.514737	 -0.684080	 0.293722	 2
1462073554.328	 15	 0.795684	 -0.538194	 -0.774700	 -1.190647	 -1.256259	 3.037946	 -0.427928	 0.509391	 -0.686102	 0.294385	 2
1462073554.338	 15	 0.690663	 -0.410207	 -0.768332	 -1.183802	 -1.246390	 3.049739	 -0.430343	 0.504635	 -0.688118	 0.294350	 2
1462073554.348	 15	 0.585512	 -0.396339	 -0.658579	 -1.178752	 -1.237671	 3.059231	 -0.432527	 0.500450	 -0.689829	 0.294287	 2
1462073554.358	 15	 0.458839	 -0.434403	 -0.532071	 -1.176212	 -1.230597	 3.066408	 -0.434671	 0.496916	 -0.690961	 0.294463	 2
1462073554.368	 15	 0.316900	 -0.499377	 -0.455770	 -1.176885	 -1.224886	 3.070818	 -0.436978	 0.493949	 -0.691486	 0.294809	 2
1462073554.378	 15	 0.107454	 -0.582580	 -0.427011	 -1.182879	 -1.220242	 3.070407	 -0.439746	 0.491602	 -0.691302	 0.295048	 2
1462073554.388	 15	 -0.151659	 -0.604640	 -0.347160	 -1.194879	 -1.217133	 3.064094	 -0.442879	 0.490187	 -0.690295	 0.295072	 2
1462073554.398	 15	 -0.380413	 -0.584797	 -0.196842	 -1.211311	 -1.216058	 3.052807	 -0.445966	 0.489916	 -0.688551	 0.294948	 2
1462073554.408	 15	 -0.572224	 -0.691287	 0.001003	 -1.231760	 -1.217432	 3.038044	 -0.449126	 0.490653	 -0.685847	 0.295226	 2
1462073554.418	 15	 -0.740025	 -0.856816	 0.134144	 -1.256945	 -1.220654	 3.019864	 -0.452676	 0.492070	 -0.682152	 0.296007	 2
1462073554.428	 15	 -0.954961	 -1.058384	 0.265228	 -1.288804	 -1.225491	 2.996682	 -0.456859	 0.494151	 -0.677309	 0.297232	 2
1462073554.438	 15	 -1.231690	 -1.285949	 0.453094	 -1.329567	 -1.232354	 2.966441	 -0.461727	 0.497141	 -0.671027	 0.298967	 2
1462073554.448	 15	 -1.645607	 -1.485884	 0.728739	 -1.383141	 -1.242035	 2.925046	 -0.467204	 0.501601	 -0.662862	 0.301216	 2
1462073554.458	 15	 -2.220567	 -1.450187	 1.018636	 -1.454838	 -1.254508	 2.865027	 -0.472802	 0.508395	 -0.652740	 0.303190	 2
1462073554.468	 15	 -2.831649	 -1.134818	 1.285871	 -1.548301	 -1.268562	 2.779859	 -0.477726	 0.518103	 -0.641072	 0.303931	 2
1462073554.478	 15	 -3.316808	 -0.533174	 1.480071	 -1.662255	 -1.281815	 2.668060	 -0.481048	 0.530666	 -0.628810	 0.302630	 2
1462073554.488	 15	 -3.581580	 0.225942	 1.624792	 -1.790041	 -1.292052	 2.534663	 -0.481999	 0.545526	 -0.616993	 0.298994	 2
1462073554.498	 15	 -3.619767	 1.036694	 1.794664	 -1.922238	 -1.298627	 2.388628	 -0.479975	 0.562046	 -0.606382	 0.293309	 2
1462073554.508	 15	 -3.473368	 1.821535	 1.986135	 -2.050484	 -1.302150	 2.238669	 -0.474644	 0.579621	 -0.597415	 0.286091	 2
1462073554.518	 15	 -3.228641	 2.437811	 2.146406	 -2.169836	 -1.303311	 2.091043	 -0.466254	 0.597596	 -0.590169	 0.277824	 2
1462073554.528	 15	 -2.976048	 2.719797	 2.266196	 -2.280607	 -1.302577	 1.948443	 -0.455768	 0.615329	 -0.584068	 0.269278	 2
1462073554.538	 15	 -2.748946	 2.622801	 2.329394	 -2.385381	 -1.299976	 1.812095	 -0.444511	 0.632229	 -0.578251	 0.261387	 2
1462073554.548	 15	 -2.557521	 2.254241	 2.330692	 -2.485501	 -1.295307	 1.683588	 -0.433605	 0.647887	 -0.572097	 0.254821	 2
1462073554.558	 15	 -2.367397	 1.645005	 2.290329	 -2.581679	 -1.288629	 1.564735	 -0.423969	 0.661975	 -0.565161	 0.250265	 2
1462073554.568	 15	 -2.106823	 0.837521	 2.220863	 -2.673808	 -1.280657	 1.457730	 -0.416252	 0.674099	 -0.557311	 0.248453	 2
1462073554.578	 15	 -1.754659	 0.081101	 2.043434	 -2.759569	 -1.272503	 1.365467	 -0.410713	 0.683862	 -0.548958	 0.249587	 2
1462073554.588	 15	 -1.363441	 -0.458108	 1.767504	 -2.834315	 -1.264947	 1.290703	 -0.407147	 0.691181	 -0.540936	 0.252762	 2
1462073554.598	 15	 -1.010832	 -0.858528	 1.547555	 -2.899300	 -1.258786	 1.230477	 -0.405048	 0.696376	 -0.533577	 0.257474	 2
1462073554.608	 15	 -0.851833	 -1.265702	 1.491225	 -2.961717	 -1.253267	 1.177198	 -0.404088	 0.700217	 -0.526158	 0.263754	 2
1462073554.618	 15	 -0.792772	 -1.395795	 1.469251	 -3.023035	 -1.247574	 1.127129	 -0.403582	 0.703433	 -0.518605	 0.270836	 2
1462073554.628	 15	 -0.842439	 -1.290365	 1.467467	 -3.081528	 -1.240645	 1.079375	 -0.402967	 0.706695	 -0.511008	 0.277615	 2
1462073554.638	 15	 -0.912672	 -1.064306	 1.518142	 -3.136851	 -1.232186	 1.032695	 -0.401743	 0.710415	 -0.503469	 0.283606	 2
1462073554.648	 15	 -0.997519	 -0.760632	 1.559008	 3.095188	 -1.222084	 0.987334	 -0.399731	 0.714755	 -0.496079	 0.288523	 2
1462073554.658	 15	 -1.120246	 -0.333550	 1.588563	 3.050071	 -1.210159	 0.944082	 -0.396759	 0.719916	 -0.488984	 0.291887	 2
1462073554.668	 15	 -1.235929	 0.254958	 1.587586	 3.013579	 -1.196391	 0.903795	 -0.392513	 0.726152	 -0.482505	 0.292960	 2
1462073554.678	 15	 -1.259327	 0.733569	 1.576257	 2.985266	 -1.181661	 0.866615	 -0.387109	 0.733163	 -0.476798	 0.292032	 2
1462073554.688	 15	 -1.166904	 1.095992	 1.576693	 2.962948	 -1.167255	 0.831476	 -0.380638	 0.740492	 -0.472042	 0.289762	 2
1462073554.698	 15	 -1.073838	 1.393319	 1.547742	 2.945738	 -1.153598	 0.798269	 -0.373314	 0.747906	 -0.468223	 0.286428	 2
1462073554.708	 15	 -0.979334	 1.568111	 1.488863	 2.932841	 -1.140732	 0.767306	 -0.365509	 0.755210	 -0.465139	 0.282324	 2
1462073554.718	 15	 -0.855705	 1.623342	 1.381725	 2.923409	 -1.129059	 0.739069	 -0.357645	 0.762088	 -0.462714	 0.277863	 2
1462073554.728	 15	 -0.736761	 1.567109	 1.302365	 2.916006	 -1.118702	 0.713252	 -0.349997	 0.768370	 -0.460783	 0.273474	 2
1462073554.738	 15	 -0.629875	 1.403829	 1.270074	 2.908151	 -1.109376	 0.688350	 -0.342615	 0.774072	 -0.459014	 0.269692	 2
1462073554.748	 15	 -0.481615	 1.237873	 1.178780	 2.900053	 -1.101467	 0.665006	 -0.335715	 0.779022	 -0.457536	 0.266610	 2
1462073554.758	 15	 -0.321312	 1.148357	 1.073173	 2.892585	 -1.095322	 0.643501	 -0.329231	 0.783216	 -0.456621	 0.263962	 2
1462073554.768	 15	 -0.219422	 1.100646	 0.988712	 2.885970	 -1.090468	 0.623567	 -0.323057	 0.786868	 -0.456157	 0.261520	 2
1462073554.778	 15	 -0.148185	 1.105232	 0.916729	 2.880551	 -1.086484	 0.605004	 -0.317075	 0.790175	 -0.456055	 0.259039	 2
1462073554.788	 15	 -0.083326	 1.097229	 0.865999	 2.876058	 -1.083267	 0.587444	 -0.311217	 0.793194	 -0.456275	 0.256515	 2
1462073554.798	 15	 0.041690	 1.170964	 0.817637	 2.872397	 -1.081097	 0.570360	 -0.305305	 0.795926	 -0.456986	 0.253878	 2
1462073554.808	 15	 0.266361	 1.282055	 0.827372	 2.869139	 -1.080874	 0.552465	 -0.298922	 0.798277	 -0.458659	 0.251061	 2
1462073554.818	 15	 0.559277	 1.381247	 0.836404	 2.865180	 -1.083261	 0.532584	 -0.291860	 0.800095	 -0.461555	 0.248259	 2
1462073554.828	 15	 0.853899	 1.364719	 0.876315	 2.859108	 -1.088406	 0.510163	 -0.284249	 0.801223	 -0.465606	 0.245876	 2
1462073554.838	 15	 1.100145	 1.255950	 0.937105	 2.849203	 -1.095777	 0.484536	 -0.276269	 0.801653	 -0.470447	 0.244350	 2
1462073554.848	 15	 1.296193	 1.146198	 0.988730	 2.835388	 -1.104864	 0.455876	 -0.268065	 0.801449	 -0.475871	 0.243655	 2
1462073554.858	 15	 1.426440	 1.058389	 1.106144	 2.816939	 -1.114816	 0.423234	 -0.259489	 0.800834	 -0.481582	 0.243740	 2
1462073554.868	 15	 1.496056	 1.016460	 1.219185	 2.793667	 -1.124879	 0.386088	 -0.250429	 0.800004	 -0.487356	 0.244463	 2
1462073554.878	 15	 1.422253	 1.132193	 1.308297	 2.768296	 -1.133935	 0.345926	 -0.240829	 0.799363	 -0.492935	 0.245023	 2
1462073554.888	 15	 1.114427	 1.378628	 1.432635	 2.743657	 -1.139871	 0.304336	 -0.230523	 0.799622	 -0.497595	 0.244668	 2
1462073554.898	 15	 0.613095	 1.722894	 1.622449	 2.722053	 -1.140469	 0.262639	 -0.219251	 0.801514	 -0.500497	 0.242914	 2
1462073554.909	 15	 0.026674	 2.095341	 1.850568	 2.705291	 -1.134658	 0.222050	 -0.206811	 0.805396	 -0.501192	 0.239525	 2
1462073554.918	 15	 -0.650280	 2.294556	 2.060811	 2.693812	 -1.121744	 0.184355	 -0.193598	 0.811280	 -0.499141	 0.234951	 2
1462073554.928	 15	 -1.212374	 2.013265	 2.204834	 2.685035	 -1.102465	 0.150922	 -0.180742	 0.818483	 -0.494165	 0.230693	 2
1462073554.939	 15	 -1.427200	 1.216619	 2.264302	 2.672669	 -1.079871	 0.120724	 -0.169541	 0.825549	 -0.487084	 0.229071	 2
1462073554.948	 15	 -1.288601	 0.098012	 2.216451	 2.651617	 -1.057711	 0.092342	 -0.160904	 0.831064	 -0.479293	 0.231778	 2
1462073554.958	 15	 -1.010799	 -1.099064	 2.111237	 2.620283	 -1.037871	 0.065328	 -0.155147	 0.834394	 -0.471639	 0.239315	 2
1462073554.969	 15	 -0.623417	 -2.317111	 1.945192	 2.577957	 -1.021336	 0.039532	 -0.152462	 0.835152	 -0.464592	 0.251853	 2
1462073554.978	 15	 -0.156679	 -2.996186	 1.772813	 2.527367	 -1.009063	 0.013745	 -0.151866	 0.833417	 -0.458950	 0.267801	 2
1462073554.988	 15	 0.117828	 -3.314658	 1.674738	 2.473099	 -0.999353	 -0.012152	 -0.152145	 0.830101	 -0.454366	 0.285193	 2
1462073554.999	 15	 0.347420	 -3.486769	 1.647691	 2.416086	 -0.991059	 -0.038943	 -0.152685	 0.825597	 -0.450547	 0.303453	 2
1462073555.008	 15	 0.402640	 -3.362113	 1.699527	 2.359385	 -0.982425	 -0.066027	 -0.152810	 0.820670	 -0.446935	 0.321559	 2
1462073555.018	 15	 0.466126	 -3.130586	 1.824757	 2.304160	 -0.972588	 -0.094001	 -0.151862	 0.815733	 -0.443396	 0.338995	 2
1462073555.029	 15	 0.645046	 -2.438600	 1.985240	 2.252897	 -0.961586	 -0.124129	 -0.148771	 0.811319	 -0.440407	 0.354501	 2
1462073555.039	 15	 1.026302	 -1.473980	 1.982370	 2.208137	 -0.951459	 -0.158002	 -0.142784	 0.807668	 -0.439295	 0.366476	 2
1462073555.049	 15	 1.430385	 -0.738210	 1.818374	 2.168939	 -0.943932	 -0.195186	 -0.134755	 0.804365	 -0.440575	 0.375142	 2
1462073555.059	 15	 1.716180	 -0.709724	 1.462317	 2.131657	 -0.939897	 -0.233235	 -0.126795	 0.800502	 -0.443817	 0.382291	 2
1462073555.068	 15	 1.965587	 -1.972048	 1.001845	 2.085505	 -0.940217	 -0.270732	 -0.122219	 0.793845	 -0.448324	 0.392273	 2
1462073555.078	 15	 1.847422	 -3.707437	 0.719219	 2.024755	 -0.942271	 -0.305362	 -0.122766	 0.783483	 -0.452275	 0.408083	 2
1462073555.089	 15	 1.381233	 -4.895272	 0.560884	 1.955623	 -0.943396	 -0.333217	 -0.127912	 0.770601	 -0.454162	 0.428427	 2
1462073555.098	 15	 0.808461	 -5.023633	 0.522044	 1.891592	 -0.942111	 -0.350300	 -0.135546	 0.757855	 -0.453259	 0.449265	 2
1462073555.108	 15	 0.493476	 -4.305593	 0.701987	 1.837136	 -0.937939	 -0.362139	 -0.142176	 0.746741	 -0.450823	 0.467893	 2
1462073555.119	 15	 0.392545	 -3.682939	 0.867356	 1.778912	 -0.949407	 -0.381736	 -0.151592	 0.732914	 -0.454851	 0.482668	 2
1462073555.128	 15	 0.506773	 -3.160514	 0.793419	 1.737094	 -0.942680	 -0.392643	 -0.155001	 0.724300	 -0.452242	 0.496832	 2
1462073555.138	 15	 0.696631	 -2.999910	 0.576910	 1.697022	 -0.937312	 -0.404989	 -0.157885	 0.715775	 -0.450596	 0.509610	 2
1462073555.149	 15	 1.060751	 -3.101474	 0.212567	 1.652897	 -0.935215	 -0.421667	 -0.161215	 0.705940	 -0.450762	 0.521988	 2
1462073555.159	 15	 1.450721	 -3.351191	 -0.184286	 1.601693	 -0.936860	 -0.444429	 -0.165368	 0.694120	 -0.453060	 0.534405	 2
1462073555.169	 15	 1.697203	 -3.528787	 -0.520603	 1.544285	 -0.941324	 -0.472371	 -0.170357	 0.680570	 -0.457005	 0.546763	 2
1462073555.179	 15	 1.667967	 -3.675870	 -0.721015	 1.483988	 -0.947161	 -0.501842	 -0.176334	 0.666026	 -0.461427	 0.558928	 2
1462073555.188	 15	 1.422763	 -3.802132	 -0.777606	 1.424310	 -0.953069	 -0.528916	 -0.183369	 0.651234	 -0.465140	 0.570889	 2
1462073555.198	 15	 1.023661	 -4.030638	 -0.768797	 1.367021	 -0.958732	 -0.550540	 -0.191842	 0.636444	 -0.467296	 0.582899	 2
1462073555.209	 15	 0.613479	 -4.286213	 -0.830484	 1.312054	 -0.964926	 -0.565925	 -0.202167	 0.621509	 -0.467742	 0.595040	 2
1462073555.219	 15	 0.190947	 -4.351117	 -1.004325	 1.260573	 -0.973300	 -0.575781	 -0.214346	 0.606784	 -0.467034	 0.606422	 2
1462073555.229	 15	 -0.322272	 -4.527485	 -1.038792	 1.214521	 -0.982731	 -0.577813	 -0.228077	 0.592651	 -0.464364	 0.617342	 2
1462073555.239	 15	 -0.986794	 -4.763267	 -0.673900	 1.175094	 -0.991601	 -0.568695	 -0.243277	 0.579074	 -0.458494	 0.628708	 2
1462073555.249	 15	 -1.594139	 -4.818832	 -0.368584	 1.144811	 -1.001645	 -0.547438	 -0.260151	 0.566548	 -0.449712	 0.639612	 2
1462073555.259	 15	 -1.870311	 -4.213022	 0.044447	 1.126537	 -1.009858	 -0.516998	 -0.275963	 0.556349	 -0.438882	 0.649386	 2
1462073555.269	 15	 -2.008927	 -3.689009	 0.526926	 1.119959	 -1.014868	 -0.479876	 -0.289600	 0.548781	 -0.426695	 0.657953	 2
1462073555.279	 15	 -1.869483	 -3.251023	 0.992328	 1.120331	 -1.015289	 -0.439812	 -0.300621	 0.542975	 -0.413563	 0.666161	 2
1462073555.289	 15	 -1.572400	 -2.788739	 1.352140	 1.124013	 -1.011045	 -0.401275	 -0.308641	 0.538546	 -0.400428	 0.674067	 2
1462073555.299	 15	 -1.171127	 -2.373872	 1.669038	 1.128336	 -1.002171	 -0.366914	 -0.313569	 0.535161	 -0.387761	 0.681850	 2
1462073555.309	 15	 -0.719809	 -1.924555	 1.916546	 1.131784	 -0.988908	 -0.338459	 -0.315364	 0.532675	 -0.375945	 0.689542	 2
1462073555.319	 15	 -0.255565	 -1.369606	 2.069013	 1.134569	 -0.970813	 -0.316868	 -0.313574	 0.531401	 -0.365256	 0.697045	 2
1462073555.329	 15	 0.240475	 -0.787731	 2.134062	 1.136742	 -0.949804	 -0.302933	 -0.308721	 0.531360	 -0.356395	 0.703797	 2
1462073555.339	 15	 0.714644	 -0.300598	 2.179240	 1.137634	 -0.925681	 -0.296730	 -0.300809	 0.532278	 -0.349296	 0.710061	 2
1462073555.349	 15	 1.075002	 0.047472	 2.215588	 1.137457	 -0.899782	 -0.296476	 -0.290767	 0.533770	 -0.343697	 0.715832	 2
1462073555.359	 15	 1.256164	 0.232950	 2.198684	 1.137148	 -0.874601	 -0.299369	 -0.280138	 0.535528	 -0.339312	 0.720833	 2
1462073555.369	 15	 1.247307	 0.253484	 2.093442	 1.137019	 -0.850053	 -0.303195	 -0.269429	 0.537327	 -0.335391	 0.725397	 2
1462073555.379	 15	 1.140666	 -0.136939	 2.039581	 1.134532	 -0.826571	 -0.306176	 -0.259716	 0.537985	 -0.331057	 0.730426	 2
1462073555.389	 15	 0.995990	 -0.546596	 2.105257	 1.128690	 -0.800256	 -0.307510	 -0.249808	 0.537210	 -0.325071	 0.737109	 2
1462073555.399	 15	 0.835104	 -0.837587	 2.247848	 1.121339	 -0.773446	 -0.305978	 -0.240631	 0.535407	 -0.317742	 0.744631	 2
1462073555.409	 15	 0.700278	 -0.627295	 2.444958	 1.117570	 -0.747073	 -0.300937	 -0.231920	 0.534402	 -0.309610	 0.751511	 2
1462073555.419	 15	 0.688661	 -0.305762	 2.631363	 1.118337	 -0.720840	 -0.293962	 -0.223033	 0.534828	 -0.301237	 0.757279	 2
1462073555.429	 15	 0.793746	 0.084662	 2.831247	 1.122703	 -0.692520	 -0.287049	 -0.212724	 0.536681	 -0.292701	 0.762265	 2
1462073555.439	 15	 0.963444	 0.557152	 3.080357	 1.130847	 -0.661318	 -0.281047	 -0.200458	 0.540151	 -0.284089	 0.766386	 2
1462073555.449	 15	 1.150187	 0.790339	 3.337750	 1.141214	 -0.627010	 -0.276330	 -0.186298	 0.544664	 -0.275247	 0.769983	 2
1462073555.459	 15	 1.295658	 0.668203	 3.567683	 1.150477	 -0.589755	 -0.272750	 -0.170816	 0.548872	 -0.265790	 0.773897	 2
1462073555.469	 15	 1.301638	 0.261607	 3.675752	 1.156092	 -0.551036	 -0.269348	 -0.155188	 0.551613	 -0.255508	 0.778688	 2
1462073555.479	 15	 1.214493	 -0.332753	 3.667783	 1.156375	 -0.512400	 -0.265360	 -0.140413	 0.552097	 -0.244443	 0.784679	 2
1462073555.489	 15	 1.090659	 -0.953050	 3.588485	 1.150661	 -0.474832	 -0.260391	 -0.126999	 0.549992	 -0.232760	 0.791961	 2
1462073555.499	 15	 1.003487	 -1.444121	 3.450389	 1.139866	 -0.438872	 -0.254736	 -0.114892	 0.545651	 -0.220884	 0.800172	 2
1462073555.509	 15	 1.011454	 -1.684379	 3.323390	 1.125797	 -0.404242	 -0.249063	 -0.103526	 0.539816	 -0.209205	 0.808774	 2
1462073555.519	 15	 1.114133	 -1.755795	 3.197137	 1.110027	 -0.370503	 -0.244380	 -0.092248	 0.533157	 -0.198156	 0.817293	 2
1462073555.529	 15	 1.240890	 -1.768192	 3.152222	 1.093746	 -0.336898	 -0.240614	 -0.080640	 0.526140	 -0.187615	 0.825515	 2
1462073555.539	 15	 1.407708	 -1.739593	 3.203258	 1.077091	 -0.302327	 -0.237711	 -0.068239	 0.518791	 -0.177321	 0.833521	 2
1462073555.549	 15	 1.527700	 -1.665278	 3.232746	 1.060994	 -0.266799	 -0.235236	 -0.055085	 0.511465	 -0.167149	 0.841089	 2
1462073555.559	 15	 1.632384	 -1.833947	 3.189766	 1.043827	 -0.231007	 -0.233264	 -0.041597	 0.503479	 -0.157268	 0.848555	 2
1462073555.569	 15	 1.616344	 -2.039414	 3.157086	 1.024312	 -0.195502	 -0.231074	 -0.028281	 0.494274	 -0.147518	 0.856231	 2
1462073555.579	 15	 1.520322	 -2.259309	 3.155876	 1.002927	 -0.160522	 -0.227436	 -0.015477	 0.484044	 -0.137474	 0.864038	 2
1462073555.589	 15	 1.386168	 -2.378395	 3.106911	 0.980098	 -0.126704	 -0.222208	 -0.003433	 0.473022	 -0.127244	 0.871807	 2
1462073555.599	 15	 1.392391	 -2.492626	 3.197449	 0.956276	 -0.092776	 -0.215584	 0.008517	 0.461393	 -0.116628	 0.879455	 2
1462073555.609	 15	 1.427262	 -2.659965	 3.309625	 0.930645	 -0.057885	 -0.207800	 0.020796	 0.448787	 -0.105562	 0.887139	 2
1462073555.619	 15	 1.439155	 -2.759898	 3.467391	 0.903628	 -0.021973	 -0.198366	 0.033394	 0.435405	 -0.093852	 0.894706	 2
1462073555.629	 15	 1.483232	 -2.746786	 3.533206	 0.876134	 0.014714	 -0.187583	 0.046359	 0.421690	 -0.081701	 0.901861	 2
1462073555.639	 15	 1.539522	 -2.707370	 3.417980	 0.848642	 0.050838	 -0.176683	 0.059383	 0.407920	 -0.069954	 0.908395	 2
1462073555.649	 15	 1.551800	 -2.584105	 3.407297	 0.821466	 0.086466	 -0.165249	 0.072412	 0.394277	 -0.058398	 0.914271	 2
1462073555.659	 15	 1.625699	 -2.204395	 3.290822	 0.797263	 0.121634	 -0.153798	 0.085613	 0.381992	 -0.047147	 0.918983	 2
1462073555.669	 15	 1.738813	 -1.953767	 2.990558	 0.775881	 0.155477	 -0.144116	 0.098855	 0.370986	 -0.037143	 0.922614	 2
1462073555.679	 15	 1.843201	 -1.946873	 2.663590	 0.755434	 0.187563	 -0.136836	 0.111942	 0.360369	 -0.028811	 0.925620	 2
1462073555.689	 15	 1.907433	 -2.364814	 2.404425	 0.731976	 0.218241	 -0.131448	 0.124836	 0.348297	 -0.022073	 0.928772	 2
1462073555.699	 15	 1.814564	 -2.864958	 2.186361	 0.703352	 0.246861	 -0.126615	 0.136978	 0.333854	 -0.016616	 0.932471	 2
1462073555.709	 15	 1.646703	 -3.142200	 2.168190	 0.670986	 0.273462	 -0.120575	 0.148124	 0.317815	 -0.011566	 0.936440	 2
1462073555.719	 15	 1.464760	 -3.242975	 2.424609	 0.635639	 0.298022	 -0.110503	 0.157876	 0.300774	 -0.005554	 0.940521	 2
1462073555.729	 15	 1.456469	 -3.255157	 2.501303	 0.599669	 0.324086	 -0.097963	 0.168224	 0.283596	 0.001430	 0.944072	 2
1462073555.739	 15	 1.494027	 -3.005149	 2.524612	 0.564271	 0.349377	 -0.084287	 0.178333	 0.266894	 0.008495	 0.947044	 2
1462073555.749	 15	 1.461060	 -2.659141	 2.410884	 0.531952	 0.374718	 -0.070220	 0.188670	 0.251784	 0.015654	 0.949086	 2
1462073555.759	 15	 1.326089	 -2.421524	 2.269327	 0.501752	 0.397979	 -0.055908	 0.198218	 0.237906	 0.022514	 0.950581	 2
1462073555.769	 15	 1.099958	 -2.304670	 2.158347	 0.472572	 0.418446	 -0.040792	 0.206557	 0.224823	 0.029215	 0.951806	 2
1462073555.779	 15	 0.881376	 -2.408968	 2.061229	 0.442187	 0.436021	 -0.024773	 0.213658	 0.211475	 0.035629	 0.953079	 2
1462073555.789	 15	 0.693338	 -2.588956	 1.952484	 0.409633	 0.450938	 -0.008195	 0.219701	 0.197341	 0.041559	 0.954495	 2
1462073555.799	 15	 0.510604	 -2.756366	 1.820363	 0.375111	 0.463164	 0.008522	 0.224717	 0.182439	 0.046870	 0.956045	 2
1462073555.809	 15	 0.328050	 -2.881268	 1.683306	 0.339102	 0.472668	 0.025077	 0.228708	 0.166930	 0.051520	 0.957691	 2
1462073555.819	 15	 0.155573	 -2.905154	 1.544975	 0.302637	 0.479535	 0.041238	 0.231694	 0.151239	 0.055589	 0.959351	 2
1462073555.829	 15	 -0.037812	 -2.825913	 1.393927	 0.266948	 0.483684	 0.056703	 0.233603	 0.135882	 0.059136	 0.960973	 2
1462073555.839	 15	 -0.245627	 -2.630765	 1.233425	 0.233345	 0.484944	 0.071171	 0.234299	 0.121415	 0.062235	 0.962543	 2
1462073555.849	 15	 -0.403907	 -2.367465	 1.104033	 0.202764	 0.483789	 0.084573	 0.233945	 0.108248	 0.065055	 0.964012	 2
1462073555.859	 15	 -0.485117	 -2.089202	 1.015674	 0.175373	 0.481126	 0.097053	 0.232929	 0.096465	 0.067770	 0.965322	 2
1462073555.869	 15	 -0.500926	 -1.761019	 0.944262	 0.151551	 0.477739	 0.108664	 0.231583	 0.086257	 0.070497	 0.966416	 2
1462073555.879	 15	 -0.437614	 -1.388506	 0.857653	 0.131902	 0.474441	 0.119209	 0.230259	 0.077912	 0.073235	 0.967237	 2
1462073555.889	 15	 -0.275267	 -1.020885	 0.723242	 0.116693	 0.472207	 0.128151	 0.229409	 0.071532	 0.075762	 0.967737	 2
1462073555.899	 15	 -0.100351	 -0.615767	 0.484627	 0.106623	 0.471415	 0.134495	 0.229191	 0.067366	 0.077662	 0.967937	 2
1462073555.909	 15	 0.043000	 -0.259132	 0.147785	 0.102078	 0.471748	 0.137105	 0.229443	 0.065474	 0.078410	 0.967947	 2
1462073555.919	 15	 0.200731	 -0.095473	 -0.100388	 0.101146	 0.473312	 0.136353	 0.230261	 0.064980	 0.077965	 0.967822	 2
1462073555.929	 15	 0.321155	 -0.090856	 -0.148287	 0.101211	 0.476083	 0.134389	 0.231666	 0.064859	 0.077068	 0.967566	 2
1462073555.939	 15	 0.429718	 -0.179219	 -0.115950	 0.100513	 0.479967	 0.132530	 0.233634	 0.064408	 0.076152	 0.967196	 2
1462073555.949	 15	 0.529645	 -0.269846	 -0.105940	 0.098841	 0.484883	 0.130778	 0.236134	 0.063521	 0.075189	 0.966723	 2
1462073555.959	 15	 0.629672	 -0.311784	 -0.128517	 0.096757	 0.490791	 0.128736	 0.239136	 0.062422	 0.074048	 0.966144	 2
1462073555.969	 15	 0.694637	 -0.309050	 -0.165293	 0.094821	 0.497423	 0.126237	 0.242492	 0.061352	 0.072710	 0.965478	 2
1462073555.979	 15	 0.710575	 -0.293406	 -0.201522	 0.093273	 0.504298	 0.123276	 0.245960	 0.060411	 0.071195	 0.964772	 2
1462073555.989	 15	 0.698900	 -0.265839	 -0.218216	 0.092079	 0.511079	 0.120102	 0.249372	 0.059602	 0.069617	 0.964062	 2
1462073555.999	 15	 0.720349	 -0.231966	 -0.231942	 0.091316	 0.517967	 0.116736	 0.252822	 0.058969	 0.068000	 0.963317	 2
1462073556.009	 15	 0.763617	 -0.130860	 -0.205800	 0.091332	 0.525259	 0.113458	 0.256433	 0.058719	 0.066530	 0.962480	 2
1462073556.019	 15	 0.826288	 0.002175	 -0.168872	 0.092487	 0.533118	 0.110548	 0.260266	 0.059063	 0.065396	 0.961507	 2
1462073556.029	 15	 0.946251	 0.060620	 -0.127808	 0.094372	 0.542094	 0.107947	 0.264601	 0.059808	 0.064530	 0.960336	 2
1462073556.049	 16	 1.007320	 -0.011882	 0.019127	 0.096545	 0.562236	 0.104785	 0.274299	 0.060808	 0.063623	 0.957609	 2
1462073556.059	 16	 0.924549	 -0.166684	 0.052511	 0.095598	 0.571709	 0.104285	 0.278883	 0.060459	 0.063402	 0.956321	 2
1462073556.069	 16	 0.823127	 -0.393007	 0.042762	 0.092464	 0.580209	 0.103888	 0.283062	 0.059061	 0.062900	 0.955213	 2
1462073556.079	 16	 0.691960	 -0.575760	 0.015560	 0.087386	 0.587468	 0.103380	 0.286705	 0.056697	 0.062036	 0.954325	 2
1462073556.089	 16	 0.545370	 -0.645633	 0.001265	 0.081329	 0.593271	 0.102826	 0.289679	 0.053835	 0.060973	 0.953662	 2
1462073556.109	 17	 0.256306	 -0.516058	 0.152063	 0.068813	 0.600469	 0.104645	 0.293446	 0.048274	 0.060089	 0.952863	 2
1462073556.119	 17	 0.149001	 -0.377791	 0.108456	 0.063842	 0.602292	 0.106022	 0.294432	 0.046145	 0.060029	 0.952668	 2
1462073556.129	 17	 0.077080	 -0.144416	 -0.005980	 0.061665	 0.603229	 0.106239	 0.294939	 0.045160	 0.059818	 0.952572	 2
1462073556.139	 17	 0.027632	 0.008863	 -0.009452	 0.061599	 0.603613	 0.105967	 0.295131	 0.045096	 0.059682	 0.952524	 2
1462073556.149	 17	 0.014320	 0.046828	 0.086936	 0.061633	 0.603788	 0.106701	 0.295196	 0.045224	 0.060037	 0.952475	 2
1462073556.169	 18	 0.274345	 -0.112768	 0.184434	 0.058501	 0.606949	 0.110314	 0.296717	 0.044335	 0.061314	 0.951963	 2
1462073556.179	 18	 0.494975	 -0.189836	 0.206309	 0.055576	 0.611437	 0.112484	 0.298897	 0.043366	 0.061934	 0.951286	 2
1462073556.189	 18	 0.694952	 -0.297051	 0.169465	 0.051836	 0.618022	 0.114285	 0.302108	 0.042010	 0.062257	 0.950310	 2
1462073556.199	 18	 0.768164	 -0.334940	 0.107727	 0.047887	 0.625669	 0.115327	 0.305844	 0.040473	 0.062175	 0.949187	 2
1462073556.209	 18	 0.671523	 -0.239952	 0.113715	 0.044667	 0.632770	 0.116249	 0.309297	 0.039257	 0.062131	 0.948121	 2
1462073556.219	 18	 0.460901	 -0.141091	 0.167626	 0.042013	 0.637991	 0.117964	 0.311823	 0.038393	 0.062538	 0.947302	 2
1462073556.229	 18	 0.246838	 0.033266	 0.070930	 0.041094	 0.641011	 0.119119	 0.313260	 0.038214	 0.062943	 0.946808	 2
1462073556.239	 18	 0.107607	 0.327855	 -0.136137	 0.044271	 0.642336	 0.117996	 0.313810	 0.039574	 0.062910	 0.946572	 2
1462073556.249	 18	 0.057001	 0.518936	 -0.207456	 0.050664	 0.642878	 0.115472	 0.313918	 0.042217	 0.062720	 0.946435	 2
1462073556.259	 18	 0.101246	 0.411255	 -0.224830	 0.056883	 0.643618	 0.112668	 0.314135	 0.044736	 0.062373	 0.946270	 2
1462073556.269	 18	 0.176666	 0.129022	 -0.246231	 0.060823	 0.645046	 0.109543	 0.314760	 0.046139	 0.061521	 0.946051	 2
1462073556.279	 18	 0.274111	 -0.244661	 -0.255885	 0.061361	 0.647369	 0.106168	 0.315921	 0.045910	 0.060023	 0.945771	 2
1462073556.289	 18	 0.349453	 -0.562889	 -0.254174	 0.058535	 0.650542	 0.102730	 0.317584	 0.044092	 0.057968	 0.945429	 2
1462073556.299	 18	 0.383757	 -0.754454	 -0.256255	 0.053528	 0.654156	 0.099244	 0.319510	 0.041241	 0.055542	 0.945054	 2
1462073556.309	 18	 0.382336	 -0.828908	 -0.256935	 0.047451	 0.657877	 0.095768	 0.321503	 0.037884	 0.052941	 0.944668	 2
1462073556.319	 18	 0.329424	 -0.729873	 -0.261948	 0.041921	 0.661225	 0.092275	 0.323292	 0.034772	 0.050411	 0.944316	 2
1462073556.329	 18	 0.219524	 -0.480828	 -0.284252	 0.038651	 0.663619	 0.088635	 0.324564	 0.032681	 0.048168	 0.944071	 2
1462073556.339	 18	 0.057680	 -0.142426	 -0.325521	 0.038848	 0.664502	 0.084590	 0.325042	 0.032133	 0.046292	 0.944019	 2
1462073556.349	 18	 -0.126684	 0.186355	 -0.382671	 0.042782	 0.663548	 0.079980	 0.324578	 0.033226	 0.044752	 0.944215	 2
1462073556.359	 18	 -0.270994	 0.416048	 -0.447486	 0.049701	 0.660966	 0.074645	 0.323297	 0.035592	 0.043341	 0.944634	 2
1462073556.369	 18	 -0.332443	 0.547795	 -0.491553	 0.058519	 0.657481	 0.068775	 0.321570	 0.038767	 0.041965	 0.945161	 2
1462073556.379	 18	 -0.290671	 0.594348	 -0.508535	 0.068113	 0.654107	 0.062664	 0.319900	 0.042287	 0.040583	 0.945637	 2
1462073556.389	 18	 -0.173406	 0.565309	 -0.505563	 0.077641	 0.651684	 0.056477	 0.318700	 0.045785	 0.039148	 0.945940	 2
1462073556.399	 18	 -0.040343	 0.461972	 -0.473588	 0.080750	 0.645124	 0.053772	 0.315596	 0.046784	 0.038266	 0.946967	 2
1462073556.409	 18	 0.069045	 0.305677	 -0.421641	 0.087519	 0.645192	 0.048297	 0.315632	 0.049124	 0.036743	 0.946897	 2
1462073556.419	 18	 0.134685	 0.144250	 -0.361901	 0.092249	 0.646069	 0.043467	 0.316083	 0.050604	 0.035219	 0.946726	 2
1462073556.429	 18	 0.144964	 0.019076	 -0.311999	 0.095261	 0.647221	 0.039268	 0.316684	 0.051368	 0.033730	 0.946538	 2
1462073556.439	 18	 0.086975	 -0.084752	 -0.279421	 0.096890	 0.647988	 0.035577	 0.317115	 0.051555	 0.032256	 0.946435	 2
1462073556.449	 18	 -0.009360	 -0.151429	 -0.272808	 0.097571	 0.647881	 0.032158	 0.317141	 0.051336	 0.030745	 0.946489	 2
1462073556.459	 18	 -0.111869	 -0.152294	 -0.286844	 0.098060	 0.646747	 0.028742	 0.316685	 0.051027	 0.029182	 0.946708	 2
1462073556.469	 18	 -0.178897	 -0.083186	 -0.317591	 0.099216	 0.644801	 0.025105	 0.315839	 0.051001	 0.027601	 0.947039	 2
1462073556.479	 18	 -0.183905	 0.018656	 -0.356033	 0.101581	 0.642598	 0.021034	 0.314868	 0.051485	 0.025997	 0.947381	 2
1462073556.489	 18	 -0.133445	 0.111854	 -0.390775	 0.105201	 0.640716	 0.016474	 0.314049	 0.052490	 0.024363	 0.947642	 2
1462073556.499	 18	 -0.049862	 0.205029	 -0.415148	 0.109981	 0.639551	 0.011485	 0.313573	 0.053978	 0.022720	 0.947756	 2
1462073556.509	 18	 0.053039	 0.307836	 -0.423614	 0.115953	 0.639340	 0.006209	 0.313553	 0.055982	 0.021151	 0.947683	 2
1462073556.519	 18	 0.154845	 0.396888	 -0.422605	 0.122955	 0.640139	 0.000771	 0.314015	 0.058439	 0.019696	 0.947413	 2
1462073556.529	 18	 0.222485	 0.467028	 -0.403358	 0.130694	 0.641676	 -0.004639	 0.314832	 0.061238	 0.018397	 0.946991	 2
1462073556.539	 18	 0.268759	 0.518209	 -0.367049	 0.138817	 0.643727	 -0.009734	 0.315890	 0.064254	 0.017332	 0.946459	 2
1462073556.549	 18	 0.300009	 0.552409	 -0.331832	 0.147109	 0.646148	 -0.014466	 0.317120	 0.067394	 0.016491	 0.945844	 2
1462073556.559	 18	 0.285048	 0.496527	 -0.270408	 0.154732	 0.648602	 -0.018577	 0.318360	 0.070306	 0.015849	 0.945226	 2
1462073556.579	 18	 0.174111	 0.454760	 -0.208016	 0.168500	 0.652413	 -0.025315	 0.320299	 0.075665	 0.015017	 0.944171	 2
1462073556.589	 18	 0.098153	 0.353408	 -0.134761	 0.173557	 0.653299	 -0.027466	 0.320761	 0.077689	 0.014849	 0.943852	 2
1462073556.599	 18	 -0.011583	 0.364606	 -0.101728	 0.177939	 0.653261	 -0.028776	 0.320762	 0.079548	 0.014933	 0.943695	 2
1462073556.569	 18	 0.256342	 0.497862	 -0.244567	 0.161872	 0.650838	 -0.022170	 0.319489	 0.073068	 0.015377	 0.944644	 2
1462073556.609	 18	 -0.049123	 0.343282	 -0.123981	 0.182301	 0.652612	 -0.030158	 0.320479	 0.081398	 0.014951	 0.943633	 2
1462073556.629	 18	 -0.064627	 0.244236	 -0.148214	 0.190262	 0.650869	 -0.033231	 0.319726	 0.084702	 0.014694	 0.943602	 2
1462073556.639	 19	 -0.074881	 0.111275	 -0.153625	 0.192744	 0.649883	 -0.034939	 0.319316	 0.085623	 0.014237	 0.943665	 2
