% Gyrometer data recorded with 'snsrlog'
% 
% 
% Label description:
% 	 0: Default Label
% 	 1: still_drop
% 	 2: walk_drop
% 	 3: other
% 	 4: dtw_same
% 	 5: dtw_diff
% 	 6: delete
% 
% Column description:
% 	 1: Seconds.milliseconds since 1970
% 	 2: Number of skipped measurements
% 	 3: Gyro X
% 	 4: Gyro Y
% 	 5: Gyro Z
% 	 6: Roll of the device
% 	 7: Pitch of the device
% 	 8: Yaw of the device
% 	 9: Quaternion X
% 	 10: Quaternion Y
% 	 11: Quaternion Z
% 	 12: Quaternion W
% 	 13: Label used for the current sample
% 
% 
1462091983.859	 0	 -3.283441	 3.023739	 -0.774276	 0.457168	 0.173392	 -0.128269	 0.098630	 0.219878	 -0.042609	 0.969593	 2
1462091983.869	 0	 -2.940604	 3.391083	 -0.874024	 0.488987	 0.142392	 -0.121750	 0.083582	 0.236806	 -0.041691	 0.967057	 2
1462091983.879	 0	 -2.234810	 3.860923	 -1.066569	 0.526022	 0.116232	 -0.118846	 0.071401	 0.255761	 -0.042175	 0.963177	 2
1462091983.889	 0	 -1.412971	 4.275088	 -1.262774	 0.567995	 0.096103	 -0.120845	 0.062925	 0.276577	 -0.044466	 0.957898	 2
1462091983.899	 0	 -0.750760	 4.452387	 -1.332967	 0.612839	 0.081248	 -0.126897	 0.057754	 0.298336	 -0.048177	 0.951493	 2
1462091983.909	 0	 -0.387586	 4.291825	 -1.326965	 0.656862	 0.069682	 -0.134885	 0.054621	 0.319408	 -0.052540	 0.944582	 2
1462091983.919	 0	 -0.304720	 4.017963	 -1.364340	 0.698315	 0.058770	 -0.143477	 0.052047	 0.339100	 -0.057298	 0.937560	 2
1462091983.929	 0	 -0.393896	 3.726263	 -1.437684	 0.736679	 0.046708	 -0.151775	 0.049014	 0.357281	 -0.062326	 0.930625	 2
1462091983.939	 0	 -0.580773	 3.546441	 -1.522991	 0.772801	 0.032564	 -0.159075	 0.044972	 0.374417	 -0.067470	 0.923708	 2
1462091983.949	 0	 -0.739507	 3.481142	 -1.644779	 0.807852	 0.016163	 -0.165360	 0.039864	 0.391062	 -0.072772	 0.916616	 2
1462091983.959	 0	 -0.748783	 3.701101	 -1.823831	 0.844118	 -0.002038	 -0.171840	 0.034227	 0.408208	 -0.078700	 0.908846	 2
1462091983.969	 0	 -0.576246	 4.297526	 -2.083027	 0.885275	 -0.021425	 -0.180088	 0.028873	 0.427435	 -0.085821	 0.899500	 2
1462091983.979	 0	 -0.342906	 5.058055	 -2.275147	 0.933631	 -0.041520	 -0.190724	 0.024390	 0.449669	 -0.094312	 0.887867	 2
1462091983.989	 0	 -0.285487	 5.710783	 -2.297283	 0.988669	 -0.061998	 -0.201581	 0.020571	 0.474557	 -0.103162	 0.873917	 2
1462091983.999	 0	 -0.396253	 6.022410	 -2.343510	 1.047642	 -0.083684	 -0.210713	 0.016535	 0.500793	 -0.111788	 0.858159	 2
1462091984.009	 0	 -0.538006	 5.861986	 -2.375741	 1.106399	 -0.106946	 -0.217567	 0.011755	 0.526497	 -0.120160	 0.841561	 2
1462091984.019	 0	 -0.709614	 5.208537	 -2.352618	 1.159836	 -0.131137	 -0.221576	 0.005980	 0.549485	 -0.127970	 0.825623	 2
1462091984.029	 0	 -0.905767	 4.300141	 -2.295417	 1.205120	 -0.155763	 -0.222381	 -0.001008	 0.568659	 -0.134966	 0.811425	 2
1462091984.039	 0	 -1.040684	 3.243794	 -2.228403	 1.240544	 -0.180310	 -0.220455	 -0.009136	 0.583442	 -0.141164	 0.799741	 2
1462091984.049	 0	 -1.050410	 2.283644	 -2.192491	 1.266264	 -0.204486	 -0.217203	 -0.018003	 0.594034	 -0.146957	 0.790698	 2
1462091984.059	 0	 -0.941282	 1.685389	 -2.218192	 1.284934	 -0.228439	 -0.214229	 -0.027085	 0.601612	 -0.152933	 0.783544	 2
1462091984.069	 0	 -0.743319	 1.629012	 -2.285451	 1.301386	 -0.252423	 -0.212734	 -0.035792	 0.608157	 -0.159618	 0.776779	 2
1462091984.079	 0	 -0.457817	 2.031853	 -2.353463	 1.320202	 -0.276388	 -0.213603	 -0.043454	 0.615490	 -0.167392	 0.768937	 2
1462091984.089	 0	 -0.058715	 2.775665	 -2.437409	 1.344731	 -0.300206	 -0.217883	 -0.049342	 0.624904	 -0.176693	 0.758841	 2
1462091984.099	 0	 0.403542	 3.562875	 -2.524699	 1.375861	 -0.324240	 -0.226407	 -0.053118	 0.636690	 -0.187956	 0.745974	 2
1462091984.109	 0	 0.826451	 4.168019	 -2.360754	 1.412121	 -0.346718	 -0.238401	 -0.054319	 0.650189	 -0.200257	 0.730890	 2
1462091984.129	 0	 1.864201	 4.789397	 -1.909993	 1.492144	 -0.384821	 -0.275208	 -0.047714	 0.679199	 -0.227443	 0.696191	 2
1462091984.139	 1	 2.240144	 4.679172	 -1.704336	 1.529952	 -0.401001	 -0.299637	 -0.040771	 0.692489	 -0.241895	 0.678442	 2
1462091984.149	 1	 2.449445	 4.385827	 -1.590589	 1.564059	 -0.416559	 -0.326283	 -0.032771	 0.704163	 -0.256528	 0.661267	 2
1462091984.159	 1	 2.484541	 3.916600	 -1.600590	 1.593323	 -0.432614	 -0.353409	 -0.024944	 0.713865	 -0.271100	 0.645197	 2
1462091984.179	 2	 2.126853	 2.597054	 -1.690752	 1.634102	 -0.468466	 -0.402848	 -0.013740	 0.726660	 -0.298988	 0.618371	 2
1462091984.199	 3	 1.661660	 1.338266	 -1.512972	 1.652252	 -0.502756	 -0.441160	 -0.008667	 0.731829	 -0.322093	 0.600506	 2
1462091984.209	 3	 1.486938	 0.748083	 -1.273949	 1.653287	 -0.517459	 -0.457390	 -0.007561	 0.731948	 -0.331769	 0.595084	 2
1462091984.219	 3	 1.319380	 0.196166	 -0.888623	 1.649095	 -0.528407	 -0.472116	 -0.006609	 0.730569	 -0.339686	 0.592316	 2
1462091984.229	 3	 1.165801	 -0.120618	 -0.487375	 1.641771	 -0.535134	 -0.485513	 -0.005276	 0.728336	 -0.345798	 0.591543	 2
1462091984.239	 3	 1.088858	 -0.401083	 -0.180244	 1.632120	 -0.538315	 -0.498113	 -0.003468	 0.725463	 -0.350522	 0.592305	 2
1462091984.249	 3	 1.027686	 -0.683078	 0.069184	 1.619741	 -0.538886	 -0.510306	 -0.001435	 0.721799	 -0.354305	 0.594535	 2
1462091984.259	 3	 0.887957	 -0.882894	 0.325390	 1.605725	 -0.536605	 -0.521203	 0.000786	 0.717639	 -0.356838	 0.598047	 2
1462091984.269	 3	 0.760231	 -0.903004	 0.433957	 1.591932	 -0.532694	 -0.530464	 0.002999	 0.713508	 -0.358417	 0.602025	 2
1462091984.279	 3	 0.743852	 -0.794135	 0.479875	 1.579232	 -0.528056	 -0.539107	 0.005424	 0.709658	 -0.359629	 0.605825	 2
1462091984.289	 3	 0.808709	 -0.487192	 0.591940	 1.568866	 -0.522558	 -0.548329	 0.008763	 0.706461	 -0.360790	 0.608824	 2
1462091984.299	 3	 0.813156	 0.027199	 0.832221	 1.563137	 -0.514810	 -0.557634	 0.013756	 0.704612	 -0.361310	 0.610564	 2
1462091984.309	 3	 0.864963	 0.666614	 1.025294	 1.563440	 -0.504965	 -0.567283	 0.020701	 0.704523	 -0.361274	 0.610492	 2
1462091984.319	 3	 0.874853	 1.253942	 1.205459	 1.569889	 -0.493302	 -0.577184	 0.029485	 0.706209	 -0.360673	 0.608535	 2
1462091984.329	 3	 0.851517	 1.635653	 1.325382	 1.580828	 -0.480341	 -0.586979	 0.039488	 0.709147	 -0.359503	 0.605235	 2
1462091984.339	 3	 0.694789	 1.802814	 1.432747	 1.594663	 -0.466485	 -0.595640	 0.049902	 0.712859	 -0.357544	 0.601253	 2
1462091984.349	 3	 0.386081	 1.699839	 1.481370	 1.609555	 -0.451844	 -0.601357	 0.059689	 0.716846	 -0.354300	 0.597529	 2
1462091984.359	 3	 0.007430	 1.155586	 1.371960	 1.621988	 -0.437839	 -0.603260	 0.067400	 0.720159	 -0.350074	 0.595212	 2
1462091984.369	 3	 -0.433206	 0.216259	 1.172022	 1.627769	 -0.425410	 -0.600436	 0.071660	 0.721663	 -0.345095	 0.595799	 2
1462091984.379	 3	 -0.771284	 -0.685206	 0.954490	 1.625916	 -0.414996	 -0.593421	 0.072389	 0.721088	 -0.339748	 0.599469	 2
1462091984.389	 3	 -0.848695	 -1.198164	 0.882182	 1.618365	 -0.405661	 -0.584680	 0.071181	 0.718874	 -0.334406	 0.605249	 2
1462091984.399	 3	 -0.631708	 -1.145437	 0.907427	 1.609283	 -0.396383	 -0.577501	 0.070302	 0.716104	 -0.329582	 0.611252	 2
1462091984.409	 3	 -0.303989	 -0.704727	 0.944911	 1.602445	 -0.386899	 -0.573637	 0.071087	 0.713862	 -0.325611	 0.615894	 2
1462091984.419	 3	 0.171026	 -0.087416	 1.047767	 1.599695	 -0.376783	 -0.574375	 0.074416	 0.712668	 -0.322710	 0.618405	 2
1462091984.429	 3	 0.763265	 0.647184	 1.238086	 1.601702	 -0.365072	 -0.581362	 0.081292	 0.712618	 -0.321048	 0.618463	 2
1462091984.439	 3	 1.283721	 1.377264	 1.362911	 1.609275	 -0.352077	 -0.594204	 0.091579	 0.713910	 -0.320515	 0.615805	 2
1462091984.449	 3	 1.747816	 1.801354	 1.363882	 1.620341	 -0.339105	 -0.612230	 0.104256	 0.715879	 -0.321323	 0.611064	 2
1462091984.459	 3	 2.057223	 1.878351	 1.253197	 1.631991	 -0.327385	 -0.634021	 0.117940	 0.717666	 -0.323511	 0.605299	 2
1462091984.469	 3	 2.244648	 1.701153	 1.094314	 1.641959	 -0.317502	 -0.658006	 0.131518	 0.718664	 -0.326909	 0.599463	 2
1462091984.479	 3	 2.176347	 1.393779	 0.921527	 1.649218	 -0.309451	 -0.681965	 0.144028	 0.718725	 -0.330947	 0.594276	 2
1462091984.489	 3	 2.002272	 1.148706	 0.643664	 1.654808	 -0.304015	 -0.703750	 0.154602	 0.718422	 -0.335215	 0.589575	 2
1462091984.499	 3	 2.246744	 0.859565	 0.471520	 1.657170	 -0.300835	 -0.726876	 0.164358	 0.717065	 -0.340792	 0.585376	 2
1462091984.509	 3	 2.506602	 0.856787	 0.340275	 1.657989	 -0.299242	 -0.752697	 0.174272	 0.715007	 -0.347739	 0.580923	 2
1462091984.519	 3	 2.703773	 0.961196	 0.150889	 1.659046	 -0.299511	 -0.780629	 0.184339	 0.712829	 -0.355806	 0.575583	 2
1462091984.529	 3	 2.729677	 1.029310	 -0.125801	 1.660804	 -0.302497	 -0.809141	 0.193822	 0.710870	 -0.364747	 0.569260	 2
1462091984.539	 3	 2.454039	 0.964349	 -0.394709	 1.662789	 -0.308054	 -0.835330	 0.201665	 0.709296	 -0.373707	 0.562649	 2
1462091984.549	 3	 2.040213	 0.775468	 -0.647580	 1.664395	 -0.315904	 -0.857194	 0.207150	 0.708172	 -0.382104	 0.556397	 2
1462091984.559	 3	 1.694541	 0.493328	 -0.826244	 1.664443	 -0.325355	 -0.874983	 0.210368	 0.707140	 -0.389942	 0.551038	 2
1462091984.569	 3	 1.541015	 0.220216	 -1.002234	 1.662282	 -0.336355	 -0.890539	 0.211848	 0.705861	 -0.397803	 0.546474	 2
1462091984.579	 3	 1.484637	 -0.090021	 -1.125061	 1.657251	 -0.348632	 -0.905348	 0.212043	 0.703998	 -0.406083	 0.542697	 2
1462091984.589	 3	 1.424594	 -0.350644	 -1.154673	 1.649318	 -0.361338	 -0.919631	 0.211268	 0.701465	 -0.414583	 0.539846	 2
1462091984.599	 3	 1.325199	 -0.444473	 -1.080077	 1.640175	 -0.373320	 -0.933195	 0.210158	 0.698647	 -0.422728	 0.537612	 2
1462091984.609	 3	 1.201463	 -0.539969	 -0.951997	 1.630396	 -0.383944	 -0.945755	 0.208939	 0.695671	 -0.430209	 0.536010	 2
1462091984.619	 3	 1.075146	 -0.663685	 -0.903024	 1.619750	 -0.393620	 -0.957173	 0.207381	 0.692524	 -0.437143	 0.535079	 2
1462091984.629	 3	 0.885543	 -0.811034	 -0.922963	 1.608246	 -0.403205	 -0.966914	 0.205015	 0.689339	 -0.443639	 0.534757	 2
1462091984.639	 3	 0.636780	 -1.031783	 -0.956956	 1.595621	 -0.412763	 -0.974183	 0.201490	 0.686127	 -0.449525	 0.535312	 2
1462091984.649	 3	 0.465389	 -1.214706	 -1.170318	 1.581742	 -0.423962	 -0.979459	 0.196378	 0.682952	 -0.455387	 0.536316	 2
1462091984.659	 3	 0.381110	 -1.277509	 -1.357743	 1.567260	 -0.437147	 -0.983766	 0.190046	 0.679912	 -0.461497	 0.537235	 2
1462091984.669	 3	 0.437432	 -1.201128	 -1.508861	 1.552954	 -0.451819	 -0.988520	 0.183316	 0.677030	 -0.468000	 0.537589	 2
1462091984.679	 3	 0.621873	 -1.114470	 -1.657801	 1.538570	 -0.467853	 -0.995340	 0.176705	 0.674089	 -0.475297	 0.537096	 2
1462091984.689	 3	 0.834838	 -1.082199	 -1.814956	 1.523303	 -0.485262	 -1.004936	 0.170236	 0.670837	 -0.483629	 0.535818	 2
1462091984.699	 3	 0.973716	 -1.162310	 -1.952263	 1.506360	 -0.503903	 -1.016869	 0.163587	 0.667117	 -0.492864	 0.534115	 2
1462091984.709	 3	 0.971377	 -1.397655	 -1.992800	 1.486689	 -0.523031	 -1.029787	 0.156267	 0.662716	 -0.502499	 0.532807	 2
1462091984.719	 3	 0.856415	 -1.668678	 -1.865364	 1.464371	 -0.541089	 -1.042165	 0.148303	 0.657633	 -0.511717	 0.532608	 2
1462091984.729	 3	 0.691914	 -1.804510	 -1.742633	 1.440814	 -0.557833	 -1.053179	 0.139861	 0.652269	 -0.520134	 0.533333	 2
1462091984.739	 3	 0.464163	 -1.865989	 -1.514180	 1.420714	 -0.570711	 -1.060283	 0.132288	 0.647756	 -0.526219	 0.534794	 2
1462091984.749	 3	 0.221251	 -1.864720	 -1.144365	 1.398926	 -0.582516	 -1.065948	 0.124087	 0.642801	 -0.531647	 0.537365	 2
1462091984.759	 3	 0.045153	 -1.754908	 -0.740018	 1.379486	 -0.590640	 -1.068761	 0.116847	 0.638264	 -0.535260	 0.540798	 2
1462091984.769	 3	 -0.055229	 -1.626432	 -0.371326	 1.362557	 -0.595200	 -1.069441	 0.110857	 0.634127	 -0.537334	 0.544854	 2
1462091984.779	 3	 -0.096952	 -1.590824	 -0.171325	 1.347356	 -0.596748	 -1.068693	 0.105964	 0.630180	 -0.538262	 0.549471	 2
1462091984.799	 4	 -0.233212	 -1.879455	 -0.280466	 1.313917	 -0.601413	 -1.065905	 0.094352	 0.621575	 -0.540073	 0.559521	 2
1462091984.809	 4	 -0.367201	 -1.847449	 -0.467642	 1.296553	 -0.606315	 -1.063370	 0.087046	 0.617373	 -0.541078	 0.564364	 2
1462091984.819	 4	 -0.731643	 -1.144525	 -0.631647	 1.286644	 -0.613880	 -1.057845	 0.079830	 0.615669	 -0.541343	 0.567033	 2
1462091984.829	 4	 -0.765488	 -1.063731	 -0.650850	 1.280134	 -0.622315	 -1.050983	 0.072789	 0.615038	 -0.541205	 0.568795	 2
1462091984.839	 4	 -0.629545	 -1.225601	 -0.623698	 1.271539	 -0.630298	 -1.045377	 0.065733	 0.613675	 -0.541368	 0.570966	 2
1462091984.859	 5	 -0.397821	 -1.271353	 -0.532355	 1.249945	 -0.644026	 -1.038418	 0.052557	 0.609211	 -0.542480	 0.576035	 2
1462091984.869	 5	 -0.326847	 -1.206255	 -0.473750	 1.238968	 -0.649738	 -1.036346	 0.046774	 0.606725	 -0.543159	 0.578511	 2
1462091984.879	 5	 -0.408334	 -1.097214	 -0.430461	 1.229261	 -0.655132	 -1.033738	 0.041289	 0.604565	 -0.543553	 0.580815	 2
1462091984.889	 5	 -0.661354	 -0.917565	 -0.399942	 1.222854	 -0.660963	 -1.028455	 0.035722	 0.603444	 -0.543141	 0.582732	 2
1462091984.899	 5	 -0.956411	 -0.818691	 -0.378335	 1.220001	 -0.667593	 -1.019570	 0.029726	 0.603475	 -0.541728	 0.584350	 2
1462091984.909	 5	 -1.213556	 -0.818915	 -0.366506	 1.219422	 -0.675024	 -1.007370	 0.023031	 0.604249	 -0.539436	 0.585971	 2
1462091984.919	 5	 -1.398837	 -0.763857	 -0.329211	 1.220937	 -0.682898	 -0.992481	 0.015905	 0.605638	 -0.536405	 0.587554	 2
1462091984.929	 5	 -1.457390	 -0.586445	 -0.235395	 1.224976	 -0.690306	 -0.976011	 0.009134	 0.607648	 -0.532818	 0.588886	 2
1462091984.939	 5	 -1.442614	 -0.276053	 -0.107941	 1.232326	 -0.696497	 -0.958911	 0.003489	 0.610437	 -0.528842	 0.589645	 2
1462091984.959	 6	 -1.570226	 0.379460	 0.032490	 1.259603	 -0.706038	 -0.921215	 -0.004628	 0.619258	 -0.519471	 0.588768	 2
1462091984.969	 6	 -1.493624	 0.556850	 0.031343	 1.277370	 -0.710256	 -0.901938	 -0.007652	 0.624735	 -0.514652	 0.587181	 2
1462091984.979	 6	 -1.299112	 0.613745	 0.035507	 1.294618	 -0.713639	 -0.884672	 -0.009945	 0.629944	 -0.510320	 0.585359	 2
1462091984.989	 6	 -1.184538	 0.787049	 -0.073651	 1.311978	 -0.717240	 -0.869459	 -0.011719	 0.635155	 -0.506684	 0.582848	 2
1462091984.999	 6	 -1.244944	 0.966203	 -0.180166	 1.331231	 -0.721793	 -0.854243	 -0.013446	 0.640910	 -0.503308	 0.579427	 2
1462091985.009	 6	 -1.350510	 1.177391	 -0.141046	 1.353505	 -0.726361	 -0.837481	 -0.014992	 0.647449	 -0.499578	 0.575332	 2
1462091985.019	 6	 -1.345320	 1.472027	 0.009792	 1.379285	 -0.729414	 -0.819764	 -0.015499	 0.654831	 -0.495354	 0.570597	 2
1462091985.029	 7	 -1.128328	 1.660623	 0.143943	 1.406254	 -0.730419	 -0.803678	 -0.014521	 0.662406	 -0.491210	 0.565438	 2
1462091985.049	 7	 -0.477345	 1.915690	 0.379380	 1.454994	 -0.727009	 -0.784397	 -0.007810	 0.675850	 -0.485296	 0.554665	 2
1462091985.059	 7	 -0.473109	 2.150426	 0.629850	 1.480467	 -0.721896	 -0.777552	 -0.002100	 0.682747	 -0.482245	 0.548901	 2
1462091985.069	 7	 -0.634722	 2.249879	 0.931661	 1.508564	 -0.713814	 -0.768887	 0.004604	 0.690271	 -0.477873	 0.543270	 2
1462091985.079	 7	 -0.831539	 2.096551	 1.268729	 1.537193	 -0.702375	 -0.757896	 0.011701	 0.697883	 -0.471883	 0.538655	 2
1462091985.089	 7	 -1.115133	 1.841633	 1.641843	 1.565110	 -0.687078	 -0.744033	 0.018815	 0.705300	 -0.463943	 0.535681	 2
1462091985.099	 7	 -1.482058	 1.475190	 1.855846	 1.591968	 -0.668796	 -0.726360	 0.025156	 0.712511	 -0.453978	 0.534415	 2
1462091985.109	 7	 -1.760827	 0.975030	 1.853619	 1.615668	 -0.649586	 -0.705651	 0.029760	 0.719009	 -0.442757	 0.534889	 2
1462091985.119	 7	 -1.892366	 0.559784	 1.740061	 1.635337	 -0.630879	 -0.683599	 0.032566	 0.724555	 -0.431169	 0.536706	 2
1462091985.129	 7	 -1.904545	 0.378874	 1.575422	 1.652245	 -0.613257	 -0.661644	 0.034225	 0.729449	 -0.419788	 0.538991	 2
1462091985.139	 7	 -1.767678	 0.309538	 1.456352	 1.667100	 -0.597028	 -0.641296	 0.035384	 0.733831	 -0.409143	 0.541148	 2
1462091985.149	 7	 -1.517966	 0.184366	 1.603285	 1.678752	 -0.579949	 -0.624255	 0.037247	 0.737345	 -0.399060	 0.543771	 2
1462091985.159	 7	 -1.270469	 -0.029524	 1.835735	 1.686017	 -0.561121	 -0.611017	 0.040128	 0.739634	 -0.389429	 0.547427	 2
1462091985.169	 7	 -1.030457	 0.044288	 1.990999	 1.691089	 -0.540271	 -0.601049	 0.044406	 0.741272	 -0.379988	 0.551501	 2
1462091985.179	 7	 -0.866628	 0.470655	 1.891227	 1.698385	 -0.519979	 -0.593466	 0.049743	 0.743464	 -0.371224	 0.554058	 2
1462091985.199	 8	 -0.767613	 1.802312	 1.054409	 1.732301	 -0.489860	 -0.579654	 0.060702	 0.753168	 -0.356630	 0.549426	 2
1462091985.209	 8	 -0.642127	 2.580076	 0.555383	 1.758998	 -0.482033	 -0.573405	 0.065608	 0.760646	 -0.351464	 0.541836	 2
1462091985.219	 8	 -0.398199	 3.181366	 0.262572	 1.791422	 -0.477888	 -0.568974	 0.070908	 0.769502	 -0.347758	 0.530945	 2
1462091985.229	 8	 0.091466	 3.490537	 0.120505	 1.826086	 -0.476411	 -0.568722	 0.077286	 0.778608	 -0.345897	 0.517834	 2
1462091985.239	 8	 1.089055	 2.711464	 0.453074	 1.851412	 -0.475354	 -0.578486	 0.085816	 0.784702	 -0.346994	 0.506432	 2
1462091985.249	 8	 2.357824	 1.383647	 1.199151	 1.856862	 -0.471431	 -0.603718	 0.097872	 0.784934	 -0.351717	 0.500594	 2
1462091985.259	 8	 3.221957	 0.833511	 1.513697	 1.849116	 -0.465678	 -0.641095	 0.112891	 0.781024	 -0.359450	 0.498049	 2
1462091985.269	 8	 3.612293	 0.796239	 1.225393	 1.838187	 -0.462440	 -0.683175	 0.128274	 0.775744	 -0.369445	 0.495255	 2
1462091985.279	 8	 2.982879	 -0.267477	 0.663582	 1.823212	 -0.463119	 -0.720888	 0.139828	 0.769524	 -0.380005	 0.493840	 2
1462091985.289	 8	 1.370722	 -1.152169	 0.190859	 1.802867	 -0.464329	 -0.740382	 0.143019	 0.763129	 -0.386678	 0.497653	 2
1462091985.299	 8	 0.476458	 0.001312	 -0.097561	 1.796731	 -0.466250	 -0.747616	 0.143980	 0.761132	 -0.389552	 0.498194	 2
1462091985.319	 9	 0.013892	 0.091424	 -0.325031	 1.803734	 -0.471513	 -0.747562	 0.143671	 0.763009	 -0.390762	 0.494450	 2
1462091985.329	 9	 0.277906	 -0.658694	 -0.402519	 1.798514	 -0.475676	 -0.748794	 0.141808	 0.761733	 -0.392805	 0.495336	 2
1462091985.339	 9	 0.543066	 -1.378092	 -0.496783	 1.784476	 -0.481359	 -0.752945	 0.138817	 0.758096	 -0.396672	 0.498669	 2
1462091985.349	 9	 0.679537	 -1.829703	 -0.529883	 1.764269	 -0.487844	 -0.758950	 0.134981	 0.752794	 -0.401647	 0.503746	 2
1462091985.359	 9	 0.688781	 -1.268854	 -0.481048	 1.746082	 -0.494017	 -0.765731	 0.131860	 0.747918	 -0.406535	 0.507898	 2
1462091985.369	 9	 0.290650	 0.183011	 -0.343641	 1.742207	 -0.498518	 -0.769636	 0.131070	 0.746811	 -0.409197	 0.507594	 2
1462091985.379	 9	 -0.201520	 1.327177	 -0.141134	 1.753959	 -0.500231	 -0.768240	 0.132396	 0.749922	 -0.408609	 0.503118	 2
1462091985.389	 9	 -0.485789	 1.734853	 0.080418	 1.772588	 -0.499223	 -0.763539	 0.134744	 0.754868	 -0.405869	 0.497281	 2
1462091985.399	 9	 -0.647240	 2.333033	 0.367686	 1.797166	 -0.495061	 -0.757435	 0.138714	 0.761253	 -0.401343	 0.490078	 2
1462091985.409	 9	 -0.678242	 2.935510	 0.713540	 1.827941	 -0.487403	 -0.751619	 0.145017	 0.768975	 -0.395241	 0.481074	 2
1462091985.419	 9	 -0.394324	 2.868166	 1.074932	 1.858515	 -0.476521	 -0.749315	 0.153471	 0.776223	 -0.388782	 0.471988	 2
1462091985.429	 9	 -0.006015	 1.968861	 1.301913	 1.879108	 -0.464265	 -0.752570	 0.162431	 0.780565	 -0.383771	 0.465891	 2
1462091985.439	 9	 0.081150	 1.123847	 1.413723	 1.889873	 -0.451262	 -0.758073	 0.170537	 0.782344	 -0.379712	 0.463329	 2
1462091985.449	 9	 0.145456	 0.521503	 1.392637	 1.893732	 -0.438311	 -0.764343	 0.177580	 0.782395	 -0.376384	 0.463313	 2
1462091985.459	 9	 0.207050	 0.409171	 1.181100	 1.894927	 -0.427057	 -0.770757	 0.183655	 0.781800	 -0.373890	 0.463968	 2
1462091985.469	 9	 0.204434	 0.873165	 0.776188	 1.900165	 -0.419331	 -0.776018	 0.188976	 0.782304	 -0.371956	 0.462534	 2
1462091985.479	 9	 0.159068	 1.369858	 0.316532	 1.911372	 -0.415932	 -0.779340	 0.193358	 0.784467	 -0.370473	 0.458230	 2
1462091985.489	 9	 -0.014614	 1.965243	 0.213811	 1.928792	 -0.414073	 -0.780563	 0.197599	 0.788256	 -0.368401	 0.451540	 2
1462091985.499	 9	 -0.239526	 2.475180	 0.480561	 1.952881	 -0.409677	 -0.780142	 0.203110	 0.793566	 -0.364348	 0.443001	 2
1462091985.509	 9	 -0.053349	 1.963382	 0.674541	 1.974189	 -0.403092	 -0.781513	 0.209382	 0.797934	 -0.360113	 0.435636	 2
1462091985.519	 9	 0.292301	 0.400607	 0.621819	 1.980185	 -0.398150	 -0.786494	 0.213835	 0.798581	 -0.358795	 0.433370	 2
1462091985.529	 9	 0.381625	 -0.925758	 0.505320	 1.971770	 -0.394603	 -0.792480	 0.215705	 0.796009	 -0.359734	 0.436385	 2
1462091985.539	 9	 0.411300	 -1.596191	 0.174831	 1.954839	 -0.393651	 -0.797636	 0.214964	 0.791706	 -0.362352	 0.442373	 2
1462091985.549	 9	 0.621866	 -0.943640	 -0.249366	 1.940976	 -0.396994	 -0.802579	 0.213438	 0.788205	 -0.366111	 0.446251	 2
1462091985.559	 9	 1.131606	 0.691859	 -0.675548	 1.940554	 -0.405855	 -0.810399	 0.213899	 0.787568	 -0.370994	 0.443111	 2
1462091985.569	 9	 1.565835	 1.985678	 -1.168198	 1.953300	 -0.421031	 -0.821200	 0.216197	 0.789673	 -0.377278	 0.432825	 2
1462091985.579	 9	 1.632867	 2.130641	 -1.391243	 1.970413	 -0.439715	 -0.832224	 0.218501	 0.792644	 -0.384268	 0.419894	 2
1462091985.589	 9	 1.428589	 1.464498	 -1.518226	 1.983222	 -0.459366	 -0.840804	 0.218833	 0.794828	 -0.391466	 0.408796	 2
1462091985.599	 9	 1.157567	 0.705583	 -1.412104	 1.989423	 -0.477594	 -0.846832	 0.217313	 0.795792	 -0.398313	 0.401045	 2
1462091985.609	 9	 0.797388	 -0.037425	 -1.201663	 1.989295	 -0.492670	 -0.850204	 0.214371	 0.795660	 -0.404186	 0.396995	 2
1462091985.619	 9	 0.592711	 -0.637146	 -0.969928	 1.983375	 -0.504596	 -0.852066	 0.210525	 0.794468	 -0.409261	 0.396239	 2
1462091985.629	 9	 0.415694	 -0.924092	 -0.863415	 1.974409	 -0.514489	 -0.852886	 0.206181	 0.792742	 -0.413718	 0.397351	 2
1462091985.639	 9	 0.375927	 -1.252264	 -0.812834	 1.962468	 -0.523626	 -0.853249	 0.201212	 0.790447	 -0.418086	 0.399889	 2
1462091985.649	 9	 0.213538	 -1.400798	 -0.680648	 1.948837	 -0.531283	 -0.853016	 0.196035	 0.787833	 -0.421952	 0.403541	 2
1462091985.659	 9	 -0.173598	 -1.665833	 -0.571036	 1.934704	 -0.536569	 -0.849809	 0.190235	 0.785344	 -0.424420	 0.408550	 2
1462091985.669	 9	 -0.648023	 -2.172408	 -0.656880	 1.918705	 -0.540535	 -0.841455	 0.182387	 0.782878	 -0.425496	 0.415679	 2
1462091985.679	 9	 -0.879193	 -2.559588	 -0.900398	 1.900232	 -0.545537	 -0.828932	 0.172066	 0.780172	 -0.426144	 0.424413	 2
1462091985.689	 9	 -0.834137	 -2.683381	 -1.232329	 1.880714	 -0.553755	 -0.815168	 0.160057	 0.777228	 -0.427492	 0.433070	 2
1462091985.699	 9	 -0.654190	 -2.545448	 -1.499053	 1.861683	 -0.565444	 -0.802190	 0.147369	 0.774186	 -0.429900	 0.440574	 2
1462091985.709	 9	 -0.433586	 -2.285294	 -1.615786	 1.844061	 -0.579398	 -0.791345	 0.135060	 0.771151	 -0.433212	 0.446556	 2
1462091985.719	 9	 -0.274566	 -2.010686	 -1.671101	 1.828121	 -0.594584	 -0.782542	 0.123458	 0.768224	 -0.437088	 0.451159	 2
1462091985.729	 9	 -0.179449	 -1.672392	 -1.770029	 1.814884	 -0.610971	 -0.774928	 0.112463	 0.765720	 -0.441297	 0.454182	 2
1462091985.739	 9	 -0.120152	 -1.406792	 -1.934332	 1.804283	 -0.629004	 -0.767844	 0.101674	 0.763680	 -0.445870	 0.455692	 2
1462091985.749	 9	 -0.058990	 -1.159614	 -2.144651	 1.796152	 -0.649198	 -0.761029	 0.090797	 0.762072	 -0.450940	 0.455692	 2
1462091985.759	 9	 0.028024	 -0.882551	 -2.330405	 1.790532	 -0.671492	 -0.754656	 0.079936	 0.760878	 -0.456550	 0.454134	 2
1462091985.769	 9	 0.217406	 -0.649166	 -2.484418	 1.786439	 -0.695718	 -0.749936	 0.069392	 0.759808	 -0.462977	 0.451142	 2
1462091985.779	 9	 0.452776	 -0.388318	 -2.646036	 1.783343	 -0.722033	 -0.747693	 0.059311	 0.758708	 -0.470468	 0.446660	 2
1462091985.789	 9	 0.721517	 -0.127043	 -2.735468	 1.780860	 -0.749986	 -0.748618	 0.050012	 0.757487	 -0.479027	 0.440733	 2
1462091985.799	 9	 0.989149	 -0.016634	 -2.655773	 1.777022	 -0.778149	 -0.753502	 0.041780	 0.755760	 -0.488412	 0.434206	 2
1462091985.809	 9	 1.219121	 -0.041652	 -2.492815	 1.770507	 -0.805425	 -0.762368	 0.034624	 0.753341	 -0.498279	 0.427781	 2
1462091985.819	 9	 1.415094	 -0.233961	 -2.092387	 1.758994	 -0.829691	 -0.775747	 0.028801	 0.749882	 -0.508127	 0.422676	 2
1462091985.829	 9	 1.586713	 -0.474360	 -1.586684	 1.741275	 -0.849318	 -0.793975	 0.024589	 0.745267	 -0.517578	 0.419626	 2
1462091985.839	 9	 1.695145	 -0.731852	 -1.116826	 1.717836	 -0.864108	 -0.816163	 0.021777	 0.739656	 -0.526429	 0.418697	 2
1462091985.849	 9	 1.766876	 -1.008976	 -0.728894	 1.689173	 -0.874560	 -0.841403	 0.019942	 0.733126	 -0.534700	 0.419791	 2
1462091985.859	 9	 1.746577	 -1.242001	 -0.456985	 1.656847	 -0.881511	 -0.867928	 0.018541	 0.725938	 -0.542312	 0.422572	 2
1462091985.869	 9	 1.657981	 -1.397846	 -0.276484	 1.623071	 -0.885832	 -0.894063	 0.017269	 0.718491	 -0.549186	 0.426459	 2
1462091985.879	 9	 1.490712	 -1.611798	 -0.220533	 1.588789	 -0.888632	 -0.918259	 0.015471	 0.710938	 -0.555290	 0.431255	 2
1462091985.889	 9	 1.224593	 -1.828789	 -0.330009	 1.554981	 -0.891584	 -0.938887	 0.012290	 0.703478	 -0.560643	 0.436631	 2
1462091985.899	 9	 0.889824	 -2.001929	 -0.580225	 1.523077	 -0.896379	 -0.954683	 0.007127	 0.696459	 -0.565267	 0.442003	 2
1462091985.909	 9	 0.587336	 -2.108246	 -0.842890	 1.493272	 -0.903749	 -0.966012	 -0.000052	 0.689959	 -0.569313	 0.447034	 2
1462091985.919	 9	 0.452249	 -1.927782	 -0.945545	 1.466294	 -0.912732	 -0.975029	 -0.007916	 0.684134	 -0.573012	 0.451171	 2
1462091985.929	 9	 0.484978	 -1.552578	 -0.673766	 1.442506	 -0.919654	 -0.984158	 -0.014165	 0.678990	 -0.576232	 0.454674	 2
1462091985.939	 9	 0.535805	 -1.134274	 -0.464624	 1.422356	 -0.923898	 -0.993958	 -0.018224	 0.674610	 -0.579064	 0.457444	 2
1462091985.949	 9	 0.591649	 -0.630094	 -0.438038	 1.406365	 -0.927340	 -1.004497	 -0.020586	 0.671172	 -0.581921	 0.458773	 2
1462091985.959	 9	 0.625124	 -0.324902	 -0.433358	 1.393293	 -0.930558	 -1.015998	 -0.021736	 0.668421	 -0.584965	 0.458865	 2
1462091985.969	 9	 0.572581	 -0.288297	 -0.540202	 1.381406	 -0.934452	 -1.027240	 -0.022912	 0.665986	 -0.588052	 0.458403	 2
1462091985.979	 9	 0.545880	 -0.390373	 -0.693323	 1.368779	 -0.939811	 -1.038491	 -0.024880	 0.663473	 -0.591335	 0.457720	 2
1462091985.989	 9	 0.553753	 -0.647673	 -0.823678	 1.353283	 -0.946435	 -1.050453	 -0.027977	 0.660409	 -0.594893	 0.457361	 2
1462091985.999	 9	 0.623098	 -0.833332	 -0.877166	 1.334398	 -0.953527	 -1.063887	 -0.031830	 0.656664	 -0.598738	 0.457485	 2
1462091986.009	 9	 0.693581	 -1.011488	 -0.922068	 1.312250	 -0.960662	 -1.079220	 -0.036129	 0.652263	 -0.602883	 0.458018	 2
1462091986.019	 9	 0.538101	 -1.292700	 -1.042696	 1.287888	 -0.968772	 -1.094059	 -0.041712	 0.647470	 -0.606898	 0.459041	 2
1462091986.029	 9	 0.023506	 -1.655051	 -1.203583	 1.264842	 -0.979416	 -1.103037	 -0.049822	 0.643083	 -0.609779	 0.460576	 2
1462091986.039	 9	 -0.660871	 -1.913920	 -1.243729	 1.247164	 -0.992692	 -1.101615	 -0.060669	 0.639869	 -0.610559	 0.462715	 2
1462091986.049	 9	 -1.203894	 -1.496902	 -1.158386	 1.241036	 -1.007490	 -1.089594	 -0.071963	 0.639034	 -0.609299	 0.463909	 2
1462091986.059	 9	 -1.413196	 -0.860309	 -0.873542	 1.246899	 -1.020989	 -1.070690	 -0.081322	 0.640497	 -0.606718	 0.463728	 2
1462091986.069	 9	 -1.388956	 -0.407133	 -0.413390	 1.261085	 -1.030483	 -1.048215	 -0.087826	 0.643347	 -0.603251	 0.463119	 2
1462091986.079	 9	 -1.389632	 0.022244	 -0.018254	 1.281789	 -1.035504	 -1.022989	 -0.091633	 0.647236	 -0.598975	 0.462512	 2
1462091986.089	 9	 -1.427201	 0.728838	 0.162368	 1.310829	 -1.038164	 -0.995475	 -0.092910	 0.652765	 -0.594322	 0.460485	 2
1462091986.099	 9	 -1.401220	 1.572341	 0.327724	 1.348805	 -1.038782	 -0.967163	 -0.091193	 0.660182	 -0.589670	 0.456215	 2
1462091986.109	 9	 -1.449694	 2.462908	 0.499494	 1.396410	 -1.037064	 -0.937839	 -0.086327	 0.669636	 -0.584873	 0.449509	 2
1462091986.119	 9	 -1.626330	 3.415880	 0.571714	 1.456030	 -1.033843	 -0.905582	 -0.078687	 0.681557	 -0.579609	 0.439707	 2
1462091986.129	 9	 -1.542133	 4.085591	 0.554839	 1.523943	 -1.028999	 -0.872748	 -0.068653	 0.695133	 -0.574080	 0.427210	 2
1462091986.139	 9	 -1.061511	 4.422171	 0.521820	 1.587710	 -1.023492	 -0.849178	 -0.056733	 0.707942	 -0.569998	 0.413161	 2
1462091986.149	 9	 -0.519579	 4.537115	 0.604503	 1.642960	 -1.017002	 -0.837393	 -0.042970	 0.719106	 -0.567563	 0.398638	 2
1462091986.159	 9	 -0.171807	 4.420927	 0.710174	 1.690261	 -1.009490	 -0.834171	 -0.028164	 0.728647	 -0.566049	 0.384537	 2
1462091986.169	 9	 0.019146	 4.125154	 0.775033	 1.730967	 -1.001910	 -0.835791	 -0.013510	 0.736732	 -0.564974	 0.371278	 2
1462091986.179	 9	 -0.041013	 3.828466	 0.758941	 1.767843	 -0.994350	 -0.838228	 0.000306	 0.743877	 -0.563685	 0.359034	 2
1462091986.189	 9	 -0.498738	 3.680403	 0.690143	 1.807886	 -0.986644	 -0.834677	 0.012758	 0.751401	 -0.560978	 0.347185	 2
1462091986.199	 9	 -1.185578	 3.447305	 0.536221	 1.855489	 -0.978399	 -0.819775	 0.023065	 0.760183	 -0.555844	 0.335600	 2
1462091986.209	 9	 -1.752839	 2.853667	 0.287314	 1.906992	 -0.970042	 -0.794125	 0.030098	 0.769632	 -0.548630	 0.325216	 2
1462091986.219	 9	 -2.093299	 1.911688	 0.055571	 1.955337	 -0.961933	 -0.761640	 0.033164	 0.778573	 -0.540318	 0.317458	 2
1462091986.229	 9	 -2.511424	 0.892336	 -0.023811	 1.998122	 -0.952568	 -0.723292	 0.032396	 0.786799	 -0.530764	 0.313348	 2
1462091986.239	 9	 -2.940928	 0.061200	 0.032943	 2.036095	 -0.940190	 -0.679561	 0.028655	 0.794645	 -0.519476	 0.312831	 2
1462091986.249	 9	 -3.173008	 -0.413389	 0.202135	 2.069342	 -0.924331	 -0.634229	 0.023545	 0.802158	 -0.506787	 0.314891	 2
1462091986.259	 9	 -3.227466	 -0.621023	 0.441539	 2.097581	 -0.905206	 -0.591264	 0.018525	 0.809252	 -0.493266	 0.318522	 2
1462091986.269	 9	 -3.178319	 -0.572728	 0.667502	 2.121801	 -0.883532	 -0.552473	 0.014427	 0.816006	 -0.479345	 0.322729	 2
1462091986.279	 9	 -3.026991	 -0.299725	 0.827512	 2.144181	 -0.861291	 -0.518435	 0.011557	 0.822537	 -0.465767	 0.326128	 2
1462091986.289	 9	 -2.624635	 0.064725	 0.939306	 2.164367	 -0.838526	 -0.491353	 0.010804	 0.828767	 -0.452935	 0.328449	 2
1462091986.299	 9	 -2.164953	 0.415806	 0.990792	 2.181971	 -0.817559	 -0.471815	 0.011847	 0.834332	 -0.441841	 0.329432	 2
1462091986.309	 9	 -1.647306	 0.851692	 1.026577	 2.198375	 -0.798924	 -0.459343	 0.014784	 0.839379	 -0.432656	 0.328685	 2
1462091986.319	 9	 -1.026867	 1.374368	 1.045223	 2.214160	 -0.783482	 -0.454560	 0.019889	 0.843862	 -0.425846	 0.325816	 2
1462091986.329	 9	 -0.423973	 1.882534	 0.962638	 2.230310	 -0.772163	 -0.456654	 0.026894	 0.847796	 -0.421638	 0.320530	 2
1462091986.339	 9	 0.016625	 2.224579	 0.787200	 2.247492	 -0.765107	 -0.462935	 0.034836	 0.851255	 -0.419634	 0.313143	 2
1462091986.349	 9	 0.304862	 2.355732	 0.655888	 2.264909	 -0.761377	 -0.471494	 0.043004	 0.854217	 -0.419164	 0.304573	 2
1462091986.359	 9	 0.302703	 2.104895	 0.679151	 2.280462	 -0.758424	 -0.480822	 0.050931	 0.856682	 -0.419046	 0.296483	 2
1462091986.369	 9	 0.066305	 1.443757	 0.789093	 2.291086	 -0.753528	 -0.489059	 0.057801	 0.858590	 -0.418048	 0.291065	 2
1462091986.379	 9	 -0.118264	 0.763700	 0.804622	 2.295782	 -0.746899	 -0.495544	 0.063067	 0.859839	 -0.416242	 0.288864	 2
1462091986.389	 9	 -0.100542	 0.554268	 0.678890	 2.298033	 -0.740767	 -0.500801	 0.067180	 0.860689	 -0.414514	 0.287889	 2
1462091986.399	 9	 0.121974	 0.544234	 0.558560	 2.299588	 -0.736754	 -0.506604	 0.070906	 0.861161	 -0.413714	 0.286731	 2
1462091986.409	 9	 0.478891	 0.490456	 0.473954	 2.299052	 -0.735620	 -0.514943	 0.074642	 0.860906	 -0.414481	 0.285437	 2
1462091986.419	 9	 0.852947	 0.507399	 0.321648	 2.296584	 -0.737949	 -0.525908	 0.078318	 0.859881	 -0.417049	 0.283799	 2
1462091986.429	 9	 1.177200	 0.662213	 0.094324	 2.294423	 -0.744088	 -0.538418	 0.081839	 0.858406	 -0.421299	 0.280979	 2
1462091986.439	 9	 1.496924	 0.686865	 -0.043583	 2.291571	 -0.753599	 -0.552764	 0.085202	 0.856373	 -0.427112	 0.277382	 2
1462091986.449	 9	 1.825611	 0.534227	 -0.132060	 2.285644	 -0.765895	 -0.569849	 0.088384	 0.853475	 -0.434458	 0.273890	 2
1462091986.459	 9	 2.177091	 0.224211	 -0.206214	 2.274466	 -0.780918	 -0.590275	 0.091107	 0.849399	 -0.443462	 0.271224	 2
1462091986.469	 9	 2.578032	 -0.277021	 -0.228224	 2.255562	 -0.798552	 -0.615091	 0.093159	 0.843789	 -0.454302	 0.270095	 2
1462091986.479	 9	 2.941042	 -0.933150	 -0.211912	 2.225817	 -0.817960	 -0.645648	 0.094384	 0.836267	 -0.466956	 0.271481	 2
1462091986.489	 9	 2.797242	 -1.134363	 -0.442737	 2.191477	 -0.838029	 -0.676658	 0.094079	 0.828052	 -0.479976	 0.274048	 2
1462091986.499	 9	 2.032388	 -0.591838	 -0.740100	 2.167350	 -0.856518	 -0.698739	 0.092525	 0.821856	 -0.490571	 0.274467	 2
1462091986.509	 9	 0.942834	 0.268014	 -0.677850	 2.160672	 -0.869253	 -0.708218	 0.091407	 0.819236	 -0.496536	 0.271934	 2
1462091986.519	 9	 -0.089306	 1.292696	 -0.596448	 2.173092	 -0.875162	 -0.705011	 0.091621	 0.820454	 -0.497554	 0.266273	 2
1462091986.529	 9	 -0.871176	 2.508512	 -0.603905	 2.207418	 -0.875876	 -0.690399	 0.093935	 0.825534	 -0.494302	 0.255608	 2
1462091986.539	 9	 -0.984920	 2.398044	 -0.629521	 2.245880	 -0.874839	 -0.672203	 0.096122	 0.831324	 -0.489834	 0.244385	 2
1462091986.549	 9	 -0.812898	 2.063815	 -0.448687	 2.279312	 -0.873250	 -0.656803	 0.098245	 0.836263	 -0.485797	 0.234551	 2
1462091986.559	 9	 -0.676773	 1.256212	 -0.145119	 2.302312	 -0.870296	 -0.646333	 0.100130	 0.839804	 -0.482372	 0.228082	 2
1462091986.569	 9	 -0.686559	 -0.062403	 0.033468	 2.310960	 -0.865695	 -0.638640	 0.100057	 0.841745	 -0.479377	 0.227271	 2
1462091986.579	 9	 -0.647587	 -1.088787	 0.049156	 2.307627	 -0.860912	 -0.631444	 0.097350	 0.842313	 -0.476955	 0.231399	 2
1462091986.589	 9	 -0.493040	 -1.458490	 0.171196	 2.297094	 -0.856188	 -0.626889	 0.094035	 0.841878	 -0.475183	 0.237906	 2
1462091986.599	 9	 -0.210028	 -1.360864	 0.107826	 2.284474	 -0.853304	 -0.624897	 0.090884	 0.840800	 -0.474465	 0.244290	 2
1462091986.609	 9	 0.091460	 -0.958109	 0.034346	 2.273289	 -0.853078	 -0.625593	 0.088575	 0.839417	 -0.474970	 0.248871	 2
1462091986.619	 9	 0.272929	 -0.494921	 0.032803	 2.264793	 -0.854397	 -0.628692	 0.087537	 0.838061	 -0.476214	 0.251419	 2
1462091986.629	 9	 0.218698	 0.021951	 0.005046	 2.261393	 -0.855802	 -0.631848	 0.087708	 0.837329	 -0.477271	 0.251794	 2
1462091986.639	 9	 -0.042357	 0.085830	 -0.238278	 2.263578	 -0.857327	 -0.630440	 0.087271	 0.837484	 -0.477554	 0.250892	 2
1462091986.649	 9	 -0.247750	 -0.302182	 -0.439398	 2.266366	 -0.859051	 -0.624178	 0.084897	 0.837897	 -0.477276	 0.250856	 2
1462091986.659	 9	 -0.371354	 -0.413085	 -0.528877	 2.269003	 -0.860846	 -0.615031	 0.081260	 0.838391	 -0.476673	 0.251556	 2
1462091986.669	 9	 -0.336804	 -0.298744	 -0.294712	 2.272160	 -0.861418	 -0.606939	 0.078481	 0.839041	 -0.475738	 0.252040	 2
1462091986.679	 9	 -0.104551	 -0.450041	 0.055691	 2.269726	 -0.860465	 -0.604829	 0.077246	 0.838933	 -0.475216	 0.253760	 2
1462091986.689	 9	 0.080093	 -0.644393	 0.023499	 2.262882	 -0.860304	 -0.605917	 0.076114	 0.838038	 -0.475559	 0.256404	 2
1462091986.699	 9	 0.027281	 -0.709336	 -0.299572	 2.256960	 -0.862283	 -0.604530	 0.073646	 0.837085	 -0.476326	 0.258803	 2
1462091986.709	 9	 -0.146848	 -0.987198	 -0.552161	 2.252706	 -0.865518	 -0.598392	 0.069282	 0.836354	 -0.476860	 0.261375	 2
1462091986.719	 9	 -0.163721	 -1.612638	 -0.564229	 2.244111	 -0.868880	 -0.590750	 0.063221	 0.835057	 -0.477364	 0.266095	 2
1462091986.729	 9	 -0.057754	 -2.196047	 -0.597224	 2.228431	 -0.872917	 -0.584230	 0.055768	 0.832635	 -0.478418	 0.273357	 2
1462091986.739	 9	 -0.128798	 -2.560406	 -0.855779	 2.210210	 -0.878558	 -0.575710	 0.046467	 0.829623	 -0.479741	 0.281806	 2
1462091986.749	 9	 -0.437294	 -2.812391	 -1.114418	 2.193729	 -0.885074	 -0.561250	 0.034896	 0.826742	 -0.480352	 0.290761	 2
1462091986.759	 9	 -0.625231	 -2.805725	 -1.151087	 2.179604	 -0.890958	 -0.543053	 0.022513	 0.824171	 -0.479980	 0.299758	 2
1462091986.769	 9	 -0.527713	 -2.406846	 -1.254801	 2.168798	 -0.897769	 -0.524527	 0.010576	 0.821803	 -0.479700	 0.307272	 2
1462091986.779	 9	 -0.193284	 -1.699865	 -1.456826	 2.162821	 -0.907770	 -0.507975	 -0.000182	 0.819597	 -0.480736	 0.311695	 2
1462091986.789	 9	 0.303681	 -0.886264	 -1.704036	 2.162027	 -0.922347	 -0.495313	 -0.009240	 0.817454	 -0.483974	 0.312175	 2
1462091986.799	 9	 0.958622	 -0.299607	 -1.941945	 2.163092	 -0.942385	 -0.488625	 -0.016760	 0.814746	 -0.490087	 0.309392	 2
1462091986.809	 9	 1.566965	 0.078162	 -2.109985	 2.162587	 -0.967561	 -0.489152	 -0.023005	 0.810991	 -0.499079	 0.304440	 2
1462091986.819	 9	 1.844002	 0.256723	 -2.161892	 2.160509	 -0.995491	 -0.494374	 -0.028453	 0.806524	 -0.509626	 0.298314	 2
1462091986.829	 9	 1.859635	 0.123132	 -2.097194	 2.156263	 -1.023474	 -0.501506	 -0.033751	 0.801652	 -0.520289	 0.292429	 2
1462091986.839	 9	 1.787873	 -0.275561	 -1.957467	 2.147587	 -1.050103	 -0.509608	 -0.039563	 0.796293	 -0.530377	 0.288189	 2
1462091986.849	 9	 1.708961	 -0.702124	 -1.703901	 2.132730	 -1.074349	 -0.519819	 -0.045711	 0.790445	 -0.539644	 0.286166	 2
1462091986.859	 9	 1.683065	 -1.177968	 -1.477898	 2.110027	 -1.096196	 -0.533438	 -0.052216	 0.783963	 -0.548204	 0.286614	 2
1462091986.869	 9	 1.730635	 -1.459426	 -1.257122	 2.079596	 -1.116145	 -0.551777	 -0.058767	 0.776858	 -0.556379	 0.288930	 2
1462091986.879	 9	 1.854517	 -1.504085	 -0.912243	 2.040750	 -1.133630	 -0.578246	 -0.064192	 0.769247	 -0.564454	 0.292456	 2
1462091986.889	 9	 1.918204	 -1.467275	 -0.504268	 1.994151	 -1.147268	 -0.613259	 -0.067873	 0.761454	 -0.572144	 0.297039	 2
1462091986.899	 9	 1.857184	 -1.477106	 -0.271492	 1.943184	 -1.157494	 -0.652931	 -0.070493	 0.753722	 -0.579241	 0.302348	 2
1462091986.909	 9	 1.649384	 -1.491774	 -0.178164	 1.892983	 -1.165086	 -0.691503	 -0.072926	 0.746436	 -0.585385	 0.307959	 2
1462091986.919	 9	 1.433504	 -1.525451	 -0.216031	 1.845831	 -1.171383	 -0.726262	 -0.075824	 0.739633	 -0.590657	 0.313557	 2
1462091986.929	 9	 1.246470	 -1.521194	 -0.291098	 1.802392	 -1.177247	 -0.756826	 -0.079306	 0.733294	 -0.595245	 0.318865	 2
1462091986.939	 9	 1.142781	 -1.486408	 -0.376198	 1.761656	 -1.183161	 -0.784706	 -0.083205	 0.727276	 -0.599451	 0.323736	 2
1462091986.949	 9	 1.095896	 -1.422873	 -0.433815	 1.722129	 -1.189194	 -0.811824	 -0.087257	 0.721427	 -0.603527	 0.328152	 2
1462091986.959	 9	 1.064050	 -1.381348	 -0.440612	 1.683014	 -1.194986	 -0.838977	 -0.091281	 0.715694	 -0.607487	 0.332280	 2
1462091986.969	 9	 1.027782	 -1.401248	 -0.412772	 1.643695	 -1.200135	 -0.866248	 -0.095288	 0.710008	 -0.611239	 0.336445	 2
1462091986.979	 9	 0.985903	 -1.492282	 -0.369558	 1.603802	 -1.204469	 -0.893296	 -0.099443	 0.704288	 -0.614692	 0.340946	 2
1462091986.989	 9	 0.968592	 -1.580183	 -0.324397	 1.562886	 -1.207950	 -0.920394	 -0.103761	 0.698448	 -0.617880	 0.345873	 2
1462091986.999	 9	 0.941211	 -1.565732	 -0.249421	 1.521934	 -1.210383	 -0.947359	 -0.107923	 0.692633	 -0.620811	 0.351008	 2
1462091987.009	 9	 1.000725	 -1.642279	 -0.220810	 1.479306	 -1.211920	 -0.975620	 -0.111989	 0.686596	 -0.623700	 0.356431	 2
1462091987.019	 9	 1.055522	 -1.760751	 -0.255428	 1.433552	 -1.213139	 -1.006015	 -0.116346	 0.680085	 -0.626719	 0.362176	 2
1462091987.029	 9	 1.035910	 -1.943681	 -0.408298	 1.385317	 -1.215068	 -1.037323	 -0.121607	 0.673125	 -0.629808	 0.368043	 2
1462091987.039	 9	 0.926840	 -2.091218	 -0.556862	 1.336415	 -1.218170	 -1.067472	 -0.128084	 0.665951	 -0.632695	 0.373899	 2
1462091987.049	 9	 0.774300	 -2.195930	 -0.684400	 1.288568	 -1.222402	 -1.095247	 -0.135610	 0.658841	 -0.635186	 0.379574	 2
1462091987.059	 9	 0.622223	 -2.196465	 -0.819498	 1.242537	 -1.227922	 -1.120765	 -0.143934	 0.651988	 -0.637308	 0.384750	 2
1462091987.069	 9	 0.535556	 -2.161823	 -0.917537	 1.197467	 -1.234461	 -1.145564	 -0.152701	 0.645367	 -0.639225	 0.389327	 2
1462091987.079	 9	 0.452689	 -2.078655	 -0.922436	 1.153438	 -1.241161	 -1.169879	 -0.161475	 0.639000	 -0.640907	 0.393501	 2
1462091987.089	 9	 0.355434	 -1.918517	 -0.879600	 1.112551	 -1.247648	 -1.192350	 -0.169857	 0.633174	 -0.642249	 0.397184	 2
1462091987.099	 9	 0.354658	 -1.909549	 -0.816630	 1.072928	 -1.253433	 -1.214193	 -0.177858	 0.627577	 -0.643348	 0.400769	 2
1462091987.109	 9	 0.263103	 -1.679171	 -0.765730	 1.035734	 -1.258806	 -1.234862	 -0.185365	 0.622401	 -0.644241	 0.403994	 2
1462091987.119	 9	 0.215243	 -1.500697	 -0.667734	 1.003186	 -1.263562	 -1.252966	 -0.192002	 0.617933	 -0.644888	 0.406711	 2
1462091987.129	 9	 0.233755	 -1.545423	 -0.521236	 0.972184	 -1.266984	 -1.269514	 -0.198171	 0.613547	 -0.645245	 0.409813	 2
1462091987.139	 9	 0.213404	 -1.701565	 -0.354122	 0.942403	 -1.268919	 -1.283328	 -0.204269	 0.609005	 -0.645079	 0.413837	 2
1462091987.149	 9	 0.007419	 -1.811722	 -0.227593	 0.917654	 -1.270548	 -1.290490	 -0.210670	 0.604776	 -0.643978	 0.418517	 2
1462091987.159	 9	 -0.361545	 -1.857593	 -0.102245	 0.903201	 -1.273224	 -1.286286	 -0.217566	 0.601585	 -0.641495	 0.423372	 2
1462091987.169	 9	 -0.808262	 -1.899801	 0.056853	 0.902476	 -1.277412	 -1.267288	 -0.225043	 0.599795	 -0.637291	 0.428325	 2
1462091987.179	 9	 -1.260684	 -1.835275	 0.264953	 0.918476	 -1.282796	 -1.231112	 -0.232804	 0.599661	 -0.631256	 0.433273	 2
1462091987.189	 9	 -1.764958	 -1.468384	 0.493371	 0.956419	 -1.288968	 -1.175081	 -0.240022	 0.601856	 -0.623528	 0.437460	 2
1462091987.199	 9	 -2.202725	 -0.799653	 0.717623	 1.020822	 -1.295029	 -1.097974	 -0.245654	 0.607040	 -0.614536	 0.439889	 2
1462091987.209	 9	 -2.361395	 -0.210680	 0.909928	 1.105145	 -1.298865	 -1.006800	 -0.249223	 0.614482	 -0.605060	 0.440684	 2
1462091987.219	 9	 -2.334437	 0.195384	 1.034969	 1.197784	 -1.299205	 -0.911710	 -0.250958	 0.623008	 -0.595716	 0.440458	 2
1462091987.229	 9	 -2.331578	 0.544503	 1.071231	 1.293289	 -1.296507	 -0.817269	 -0.251373	 0.632225	 -0.586641	 0.439267	 2
1462091987.239	 9	 -2.506960	 0.994277	 0.982091	 1.394137	 -1.292154	 -0.721484	 -0.250977	 0.642528	 -0.577713	 0.436367	 2
1462091987.249	 9	 -2.723629	 1.613497	 0.775521	 1.504511	 -1.287181	 -0.621659	 -0.249972	 0.654406	 -0.569013	 0.430687	 2
1462091987.259	 9	 -2.504202	 2.314943	 0.643720	 1.613988	 -1.280844	 -0.529855	 -0.247247	 0.667114	 -0.561709	 0.422268	 2
1462091987.269	 9	 -1.986063	 2.860332	 0.673059	 1.709103	 -1.272364	 -0.459079	 -0.241802	 0.679558	 -0.556545	 0.412299	 2
1462091987.279	 9	 -1.551122	 3.187932	 0.703228	 1.788116	 -1.262570	 -0.408972	 -0.234102	 0.691304	 -0.553192	 0.401589	 2
1462091987.289	 9	 -1.342354	 3.329840	 0.702731	 1.857067	 -1.252337	 -0.371262	 -0.225264	 0.702469	 -0.550791	 0.390414	 2
1462091987.299	 9	 -1.303113	 3.238594	 0.749499	 1.919809	 -1.241284	 -0.339570	 -0.216187	 0.713156	 -0.548371	 0.379422	 2
1462091987.319	 10	 -1.436984	 2.814389	 0.866083	 2.031809	 -1.215014	 -0.284160	 -0.198887	 0.733431	 -0.541541	 0.359523	 2
1462091987.329	 10	 -1.560613	 2.464242	 0.786100	 2.082919	 -1.200667	 -0.256855	 -0.191695	 0.742889	 -0.536953	 0.350786	 2
1462091987.339	 10	 -1.726648	 2.038977	 0.597080	 2.132518	 -1.186476	 -0.226579	 -0.186461	 0.751721	 -0.531563	 0.342913	 2
1462091987.349	 10	 -1.871258	 1.678122	 0.351988	 2.181659	 -1.172833	 -0.192471	 -0.183350	 0.759950	 -0.525538	 0.335661	 2
1462091987.359	 10	 -1.914460	 1.385561	 0.032044	 2.230655	 -1.160530	 -0.155068	 -0.182265	 0.767482	 -0.519370	 0.328641	 2
1462091987.369	 10	 -1.755277	 0.997873	 -0.270297	 2.276246	 -1.150646	 -0.117227	 -0.183131	 0.773756	 -0.513725	 0.322259	 2
1462091987.379	 10	 -1.517690	 0.623519	 -0.462357	 2.315738	 -1.143411	 -0.081736	 -0.185473	 0.778523	 -0.508965	 0.316948	 2
1462091987.389	 10	 -1.421532	 0.128174	 -0.382543	 2.347386	 -1.136617	 -0.049873	 -0.188707	 0.782178	 -0.504300	 0.313480	 2
1462091987.399	 10	 -1.460027	 -0.474853	 0.047012	 2.366968	 -1.126923	 -0.024516	 -0.192126	 0.785204	 -0.498429	 0.313227	 2
1462091987.409	 10	 -1.461883	 -0.670650	 0.619652	 2.374494	 -1.113083	 -0.008872	 -0.194185	 0.788264	 -0.491276	 0.315564	 2
1462091987.419	 10	 -1.337961	 -0.367597	 1.098855	 2.374647	 -1.096321	 -0.003488	 -0.193592	 0.791836	 -0.483826	 0.318482	 2
1462091987.439	 11	 -1.088471	 0.955560	 1.349857	 2.377485	 -1.061142	 -0.009399	 -0.184897	 0.801209	 -0.471048	 0.319360	 2
1462091987.449	 11	 -1.011005	 1.631010	 1.242497	 2.388497	 -1.044942	 -0.013740	 -0.177956	 0.807117	 -0.466239	 0.315460	 2
1462091987.459	 11	 -0.965044	 1.941912	 1.159729	 2.403930	 -1.029765	 -0.017718	 -0.170336	 0.813360	 -0.462078	 0.309702	 2
1462091987.469	 11	 -0.856308	 2.015200	 1.043296	 2.420534	 -1.015941	 -0.021776	 -0.162678	 0.819381	 -0.458463	 0.303253	 2
1462091987.479	 11	 -0.652516	 1.959874	 0.829986	 2.436989	 -1.004781	 -0.025702	 -0.155569	 0.824672	 -0.455796	 0.296589	 2
1462091987.489	 11	 -0.402131	 1.860519	 0.577493	 2.452896	 -0.997108	 -0.029226	 -0.149320	 0.828987	 -0.454371	 0.289882	 2
1462091987.499	 11	 -0.148469	 1.737038	 0.372706	 2.467617	 -0.992821	 -0.032762	 -0.143863	 0.832310	 -0.454186	 0.283334	 2
1462091987.509	 11	 0.083048	 1.616214	 0.232083	 2.480663	 -0.991395	 -0.036841	 -0.138987	 0.834743	 -0.455090	 0.277091	 2
1462091987.519	 11	 0.285972	 1.514854	 0.123862	 2.492009	 -0.992361	 -0.041651	 -0.134531	 0.836412	 -0.456926	 0.271173	 2
1462091987.529	 11	 0.460174	 1.436943	 0.010781	 2.502220	 -0.995454	 -0.046829	 -0.130470	 0.837436	 -0.459581	 0.265451	 2
1462091987.539	 11	 0.633129	 1.340783	 -0.125906	 2.511596	 -1.000728	 -0.051939	 -0.126920	 0.837815	 -0.463045	 0.259898	 2
1462091987.549	 11	 0.807112	 1.249821	 -0.278539	 2.520266	 -1.008338	 -0.056686	 -0.123988	 0.837513	 -0.467356	 0.254513	 2
1462091987.559	 11	 0.918642	 1.272799	 -0.438095	 2.529903	 -1.017932	 -0.060230	 -0.121578	 0.836764	 -0.472368	 0.248824	 2
1462091987.569	 11	 1.051673	 1.264367	 -0.520330	 2.539929	 -1.029135	 -0.063445	 -0.119390	 0.835619	 -0.478001	 0.242905	 2
1462091987.579	 11	 1.297233	 1.092139	 -0.557109	 2.547349	 -1.042348	 -0.068046	 -0.117477	 0.833714	 -0.484443	 0.237558	 2
1462091987.599	 12	 2.614395	 0.655729	 -0.510829	 2.538943	 -1.081835	 -0.096507	 -0.113158	 0.825032	 -0.503422	 0.230401	 2
1462091987.609	 12	 3.514049	 0.284421	 -0.602050	 2.514754	 -1.112126	 -0.128183	 -0.110660	 0.816728	 -0.517873	 0.229165	 2
1462091987.619	 12	 3.303532	 -0.479303	 -0.840725	 2.481223	 -1.144667	 -0.162239	 -0.110579	 0.806844	 -0.532740	 0.230139	 2
1462091987.629	 12	 1.354949	 -0.778055	 -0.731687	 2.460817	 -1.164414	 -0.176054	 -0.113648	 0.800419	 -0.540828	 0.232204	 2
1462091987.639	 12	 -0.838599	 0.683367	 -0.442140	 2.477216	 -1.164944	 -0.160672	 -0.115459	 0.801301	 -0.540195	 0.229729	 2
1462091987.659	 13	 -1.253056	 1.419752	 0.466759	 2.539281	 -1.141767	 -0.124231	 -0.110098	 0.811955	 -0.530554	 0.217071	 2
1462091987.669	 13	 -0.834337	 1.010261	 0.782228	 2.549201	 -1.130075	 -0.125780	 -0.105211	 0.816016	 -0.526612	 0.213842	 2
1462091987.679	 13	 -0.627700	 0.277465	 1.016604	 2.545082	 -1.119165	 -0.135654	 -0.100726	 0.818771	 -0.523108	 0.214072	 2
1462091987.689	 13	 -0.588736	 -0.552969	 1.066089	 2.530526	 -1.108210	 -0.147978	 -0.097894	 0.820469	 -0.519349	 0.217999	 2
1462091987.699	 13	 -0.551095	 -1.303720	 0.956462	 2.509955	 -1.097876	 -0.158466	 -0.097372	 0.821171	 -0.515391	 0.224874	 2
1462091987.709	 13	 -0.376140	 -1.883800	 0.823781	 2.484138	 -1.089250	 -0.167782	 -0.098842	 0.820691	 -0.511769	 0.234072	 2
1462091987.719	 13	 -0.036802	 -2.202946	 0.659058	 2.453860	 -1.083880	 -0.177823	 -0.101586	 0.818811	 -0.509331	 0.244562	 2
1462091987.729	 13	 0.407626	 -2.174722	 0.477468	 2.420577	 -1.082681	 -0.190462	 -0.104690	 0.815578	 -0.508723	 0.255096	 2
1462091987.749	 14	 0.916369	 -1.269343	 0.130828	 2.360158	 -1.091543	 -0.221609	 -0.109088	 0.807325	 -0.513011	 0.270455	 2
1462091987.759	 14	 0.791590	 -0.919084	 0.272657	 2.335813	 -1.095756	 -0.237880	 -0.109600	 0.803968	 -0.515500	 0.275468	 2
1462091987.769	 14	 0.614420	 -0.871322	 0.480336	 2.311960	 -1.097125	 -0.254936	 -0.109184	 0.801290	 -0.517081	 0.280431	 2
1462091987.779	 14	 0.358083	 -0.916308	 0.480018	 2.290175	 -1.096276	 -0.269170	 -0.108950	 0.799164	 -0.517591	 0.285598	 2
1462091987.789	 14	 0.162494	 -0.788680	 0.253769	 2.274794	 -1.095146	 -0.277090	 -0.109533	 0.797622	 -0.517472	 0.289870	 2
1462091987.799	 14	 0.176972	 -0.377427	 -0.083574	 2.267263	 -1.096144	 -0.279847	 -0.110595	 0.796469	 -0.517826	 0.291995	 2
1462091987.809	 14	 0.346016	 0.194227	 -0.386666	 2.267393	 -1.100477	 -0.280318	 -0.111291	 0.795609	 -0.519493	 0.291114	 2
1462091987.819	 14	 0.623389	 0.983607	 -0.542665	 2.273150	 -1.107958	 -0.282352	 -0.110562	 0.794982	 -0.522849	 0.287070	 2
1462091987.829	 14	 0.733009	 1.831980	 -0.551712	 2.285742	 -1.116889	 -0.286718	 -0.107392	 0.795107	 -0.527425	 0.279454	 2
1462091987.839	 14	 0.516053	 1.803563	 -0.598047	 2.303350	 -1.125115	 -0.287922	 -0.103954	 0.795825	 -0.531535	 0.270788	 2
1462091987.849	 14	 0.257707	 1.168808	 -0.672044	 2.321284	 -1.132064	 -0.283040	 -0.102532	 0.796455	 -0.534362	 0.263827	 2
1462091987.859	 14	 0.098612	 0.280862	 -0.713026	 2.334554	 -1.138198	 -0.273881	 -0.103851	 0.796363	 -0.536108	 0.260018	 2
1462091987.869	 14	 -0.054511	 -0.335112	 -0.648150	 2.342973	 -1.142806	 -0.262421	 -0.107059	 0.795818	 -0.536769	 0.259020	 2
1462091987.879	 14	 0.005326	 -0.804057	 -0.609338	 2.345957	 -1.147050	 -0.251566	 -0.111396	 0.794650	 -0.537097	 0.260095	 2
1462091987.889	 14	 0.273376	 -1.217515	 -0.608059	 2.341075	 -1.152734	 -0.244640	 -0.116552	 0.792318	 -0.538019	 0.263026	 2
1462091987.899	 14	 0.674352	 -1.476320	 -0.640603	 2.327478	 -1.161296	 -0.243912	 -0.122165	 0.788507	 -0.540271	 0.267282	 2
1462091987.909	 14	 1.058655	 -1.409736	 -0.690223	 2.307156	 -1.172780	 -0.250316	 -0.127419	 0.783528	 -0.544067	 0.271733	 2
1462091987.919	 14	 1.408623	 -1.207528	 -0.678599	 2.281459	 -1.186707	 -0.264419	 -0.131751	 0.777729	 -0.549360	 0.275652	 2
1462091987.929	 14	 1.693377	 -0.889520	 -0.565149	 2.249786	 -1.201713	 -0.287984	 -0.134508	 0.771484	 -0.555838	 0.278862	 2
1462091987.939	 14	 1.989748	 -0.602347	 -0.445691	 2.211025	 -1.217163	 -0.322412	 -0.135493	 0.764905	 -0.563391	 0.281340	 2
1462091987.949	 14	 2.425812	 -0.653924	 -0.488336	 2.159672	 -1.234260	 -0.370330	 -0.135763	 0.757149	 -0.572409	 0.283975	 2
1462091987.959	 14	 2.733287	 -0.926305	 -0.670464	 2.093836	 -1.253691	 -0.430929	 -0.136722	 0.747787	 -0.582796	 0.287175	 2
1462091987.969	 14	 2.604338	 -1.418593	 -0.846575	 2.018587	 -1.273249	 -0.496464	 -0.139609	 0.737549	 -0.592974	 0.291398	 2
1462091987.979	 14	 2.166132	 -2.097101	 -1.013201	 1.941570	 -1.291333	 -0.556610	 -0.145598	 0.727169	 -0.601415	 0.297198	 2
1462091987.989	 14	 1.603090	 -2.432834	 -1.043396	 1.871258	 -1.306943	 -0.605002	 -0.153922	 0.717567	 -0.607497	 0.303897	 2
1462091987.999	 14	 1.215654	 -2.494013	 -0.983041	 1.808865	 -1.320054	 -0.643698	 -0.163110	 0.708980	 -0.611687	 0.310777	 2
1462091988.009	 14	 1.038732	 -2.297116	 -0.890144	 1.751039	 -1.331226	 -0.679004	 -0.171885	 0.701231	 -0.614921	 0.317180	 2
1462091988.019	 14	 1.024706	 -1.968694	 -0.781455	 1.693385	 -1.340776	 -0.717129	 -0.179419	 0.694081	 -0.617971	 0.322756	 2
1462091988.029	 14	 1.076299	 -1.564646	 -0.631070	 1.633496	 -1.348423	 -0.761479	 -0.185170	 0.687475	 -0.621204	 0.327407	 2
1462091988.039	 14	 1.124252	 -1.224655	 -0.515353	 1.571314	 -1.354186	 -0.811834	 -0.189247	 0.681352	 -0.624688	 0.331224	 2
1462091988.049	 14	 1.138274	 -1.010533	 -0.463391	 1.507971	 -1.358558	 -0.865879	 -0.192261	 0.675591	 -0.628322	 0.334401	 2
1462091988.059	 14	 1.133176	 -0.944709	 -0.481918	 1.443372	 -1.362176	 -0.922179	 -0.194946	 0.669953	 -0.632013	 0.337223	 2
1462091988.069	 14	 1.101931	 -0.921957	 -0.583748	 1.377640	 -1.365880	 -0.979866	 -0.197856	 0.664321	 -0.635743	 0.339649	 2
1462091988.079	 14	 1.077146	 -0.852725	 -0.726766	 1.310036	 -1.370187	 -1.039950	 -0.201092	 0.658692	 -0.639626	 0.341417	 2
1462091988.089	 14	 1.068789	 -0.716343	 -0.843723	 1.239696	 -1.374891	 -1.104016	 -0.204360	 0.653144	 -0.643769	 0.342346	 2
1462091988.099	 14	 1.060723	 -0.560453	 -0.910411	 1.166532	 -1.379439	 -1.172425	 -0.207404	 0.647749	 -0.648147	 0.342507	 2
1462091988.109	 14	 1.094955	 -0.532985	 -0.922177	 1.089800	 -1.383137	 -1.245237	 -0.210223	 0.642378	 -0.652665	 0.342323	 2
1462091988.119	 14	 1.174144	 -0.723513	 -0.909719	 1.005894	 -1.385306	 -1.323851	 -0.213353	 0.636487	 -0.657221	 0.342675	 2
1462091988.129	 14	 1.190324	 -0.977209	 -0.833354	 0.918439	 -1.385507	 -1.403503	 -0.217036	 0.630060	 -0.661481	 0.344039	 2
1462091988.139	 14	 1.109935	 -1.129458	 -0.740284	 0.835172	 -1.384125	 -1.477062	 -0.221114	 0.623570	 -0.665149	 0.346188	 2
1462091988.149	 14	 1.014999	 -1.174448	 -0.675930	 0.759077	 -1.381808	 -1.542601	 -0.225353	 0.617309	 -0.668257	 0.348680	 2
1462091988.159	 14	 0.928931	 -1.107085	 -0.661765	 0.689396	 -1.379074	 -1.602063	 -0.229504	 0.611401	 -0.671049	 0.351014	 2
1462091988.169	 14	 0.897227	 -1.018906	 -0.688378	 0.623613	 -1.376122	 -1.658578	 -0.233464	 0.605786	 -0.673776	 0.352907	 2
1462091988.179	 14	 0.893149	 -0.941570	 -0.732385	 0.558476	 -1.372637	 -1.715080	 -0.237323	 0.600167	 -0.676632	 0.354466	 2
1462091988.189	 14	 0.808195	 -0.840382	 -0.746690	 0.497570	 -1.369233	 -1.768508	 -0.240973	 0.594953	 -0.679407	 0.355483	 2
1462091988.199	 14	 0.739526	 -0.916777	 -0.748934	 0.439722	 -1.365855	 -1.818501	 -0.244864	 0.589887	 -0.681902	 0.356490	 2
1462091988.209	 14	 0.636355	 -1.061198	 -0.758972	 0.383669	 -1.362772	 -1.865288	 -0.249396	 0.584847	 -0.683940	 0.357746	 2
1462091988.219	 14	 0.471526	 -1.153338	 -0.771183	 0.329877	 -1.360590	 -1.908675	 -0.254588	 0.580069	 -0.685397	 0.359077	 2
1462091988.229	 14	 0.289757	 -1.219875	 -0.779812	 0.278535	 -1.359773	 -1.948900	 -0.260359	 0.575777	 -0.686203	 0.360303	 2
1462091988.239	 14	 0.144559	 -1.231164	 -0.781850	 0.228581	 -1.359985	 -1.987315	 -0.266532	 0.571887	 -0.686506	 0.361407	 2
1462091988.249	 14	 0.056102	 -1.269706	 -0.705769	 0.182141	 -1.360776	 -2.022026	 -0.272762	 0.568406	 -0.686336	 0.362573	 2
1462091988.259	 14	 0.102163	 -1.314871	 -0.608540	 0.139109	 -1.360962	 -2.052712	 -0.278874	 0.564878	 -0.685930	 0.364201	 2
1462091988.269	 14	 0.177894	 -1.422719	 -0.489772	 0.100131	 -1.359987	 -2.078364	 -0.284806	 0.561056	 -0.685375	 0.366555	 2
1462091988.279	 14	 0.193156	 -1.687742	 -0.362348	 0.065000	 -1.358371	 -2.097828	 -0.291062	 0.556857	 -0.684327	 0.369986	 2
1462091988.289	 14	 0.055180	 -2.110585	 -0.206283	 0.033201	 -1.357469	 -2.109916	 -0.298393	 0.552416	 -0.682134	 0.374823	 2
1462091988.299	 14	 -0.312200	 -2.589631	 0.026926	 0.007106	 -1.359562	 -2.111363	 -0.307275	 0.548408	 -0.677888	 0.381181	 2
1462091988.309	 14	 -0.877262	 -2.955903	 0.331114	 -0.009894	 -1.366805	 -2.099307	 -0.317697	 0.545696	 -0.670928	 0.388768	 2
1462091988.319	 14	 -1.598453	 -2.959900	 0.661348	 -0.011427	 -1.381029	 -2.070423	 -0.328838	 0.545487	 -0.661099	 0.396557	 2
1462091988.329	 14	 -2.182429	 -2.558424	 0.933411	 0.009341	 -1.401561	 -2.022064	 -0.339359	 0.548293	 -0.649278	 0.403297	 2
1462091988.339	 14	 -2.578888	 -1.798809	 1.240214	 0.068578	 -1.426010	 -1.941792	 -0.347664	 0.554219	 -0.636619	 0.408273	 2
1462091988.349	 14	 -2.846466	 -0.906271	 1.595090	 0.197631	 -1.451679	 -1.800203	 -0.352732	 0.563311	 -0.623772	 0.411302	 2
1462091988.359	 14	 -3.012445	 -0.085168	 1.820526	 0.437608	 -1.474619	 -1.556117	 -0.354660	 0.575088	 -0.611156	 0.412285	 2
1462091988.369	 14	 -3.141957	 0.483427	 1.854654	 0.815575	 -1.489104	 -1.180140	 -0.354609	 0.588460	 -0.598929	 0.411402	 2
1462091988.379	 14	 -3.381856	 1.072581	 1.746057	 1.291913	 -1.490127	 -0.711583	 -0.353379	 0.603350	 -0.587034	 0.408022	 2
1462091988.389	 14	 -3.514990	 1.652021	 1.660952	 1.717525	 -1.475423	 -0.299443	 -0.350978	 0.619496	 -0.575603	 0.402144	 2
1462091988.399	 14	 -3.378474	 2.323728	 1.647896	 1.999758	 -1.449699	 -0.037210	 -0.346520	 0.636432	 -0.565301	 0.394098	 2
1462091988.409	 14	 -2.978781	 3.066500	 1.714208	 2.164982	 -1.419745	 0.100454	 -0.338992	 0.653610	 -0.556979	 0.384257	 2
1462091988.419	 14	 -2.517949	 3.644274	 1.785912	 2.262652	 -1.389816	 0.163805	 -0.328384	 0.670507	 -0.550792	 0.373113	 2
1462091988.429	 14	 -2.102509	 3.860678	 1.874899	 2.322845	 -1.361388	 0.186087	 -0.315650	 0.686564	 -0.546094	 0.361629	 2
1462091988.439	 14	 -1.771006	 3.668141	 2.005573	 2.358180	 -1.334400	 0.183954	 -0.301921	 0.701292	 -0.541959	 0.351161	 2
1462091988.449	 14	 -1.591331	 2.993964	 2.098982	 2.376373	 -1.308245	 0.169724	 -0.288748	 0.714297	 -0.537324	 0.343056	 2
1462091988.459	 14	 -1.593985	 1.750636	 2.102356	 2.381912	 -1.282255	 0.153739	 -0.278261	 0.725072	 -0.531010	 0.338924	 2
1462091988.469	 14	 -1.802500	 0.202637	 1.956547	 2.379654	 -1.255837	 0.145152	 -0.272329	 0.733416	 -0.522089	 0.339648	 2
1462091988.480	 14	 -2.059109	 -1.267318	 1.699977	 2.373751	 -1.229202	 0.148598	 -0.271619	 0.739406	 -0.510465	 0.344859	 2
1462091988.489	 14	 -2.143400	 -2.235268	 1.510525	 2.363609	 -1.203079	 0.159477	 -0.274709	 0.743352	 -0.497064	 0.353399	 2
1462091988.500	 14	 -2.068487	 -2.506820	 1.348547	 2.351175	 -1.178444	 0.172839	 -0.279378	 0.745958	 -0.483337	 0.363152	 2
1462091988.510	 14	 -1.891925	 -2.108039	 1.263328	 2.340289	 -1.155745	 0.185391	 -0.283523	 0.748261	 -0.470586	 0.371845	 2
1462091988.520	 14	 -1.667967	 -1.268161	 1.302232	 2.333119	 -1.134516	 0.193964	 -0.285427	 0.751296	 -0.459574	 0.377992	 2
1462091988.530	 14	 -1.430251	 -0.276857	 1.401042	 2.330642	 -1.114299	 0.196995	 -0.284263	 0.755652	 -0.450615	 0.380960	 2
1462091988.540	 14	 -1.238167	 0.550716	 1.490200	 2.332588	 -1.094813	 0.195145	 -0.280334	 0.761280	 -0.443458	 0.381066	 2
1462091988.550	 14	 -1.028002	 0.958780	 1.525206	 2.336135	 -1.076420	 0.189348	 -0.274678	 0.767404	 -0.437665	 0.379596	 2
1462091988.560	 14	 -0.902685	 1.271204	 1.537679	 2.340912	 -1.058895	 0.181081	 -0.267897	 0.773788	 -0.432802	 0.377049	 2
1462091988.570	 14	 -0.828560	 1.411071	 1.494639	 2.346939	 -1.042222	 0.172047	 -0.260639	 0.780197	 -0.428530	 0.373793	 2
1462091988.580	 14	 -0.795729	 1.417900	 1.423011	 2.353758	 -1.026257	 0.163367	 -0.253426	 0.786434	 -0.424514	 0.370251	 2
1462091988.590	 14	 -0.701379	 1.184667	 1.272944	 2.359575	 -1.011839	 0.155467	 -0.246939	 0.791924	 -0.420794	 0.367164	 2
1462091988.600	 14	 -0.586111	 0.872567	 1.109172	 2.363002	 -0.999373	 0.148296	 -0.241513	 0.796355	 -0.417402	 0.365056	 2
1462091988.610	 14	 -0.453236	 0.669996	 0.949463	 2.364547	 -0.988965	 0.141655	 -0.236978	 0.799847	 -0.414507	 0.363690	 2
1462091988.620	 14	 -0.297188	 0.622692	 0.796323	 2.365414	 -0.980702	 0.135185	 -0.232957	 0.802663	 -0.412371	 0.362510	 2
1462091988.630	 14	 -0.117070	 0.705046	 0.638854	 2.366710	 -0.974778	 0.128583	 -0.229134	 0.805010	 -0.411265	 0.360995	 2
1462091988.640	 14	 0.063328	 0.842742	 0.486160	 2.369124	 -0.971279	 0.121696	 -0.225327	 0.807019	 -0.411330	 0.358824	 2
1462091988.650	 14	 0.215853	 0.934945	 0.355667	 2.372406	 -0.969866	 0.114586	 -0.221563	 0.808719	 -0.412382	 0.356124	 2
1462091988.659	 14	 0.375655	 0.980379	 0.232136	 2.375978	 -0.970457	 0.107133	 -0.217899	 0.810038	 -0.414341	 0.353100	 2
1462091988.669	 14	 0.558818	 1.007606	 0.100771	 2.379377	 -0.973215	 0.099129	 -0.214372	 0.810881	 -0.417257	 0.349877	 2
1462091988.680	 14	 0.766396	 1.050344	 -0.081818	 2.382805	 -0.978589	 0.090755	 -0.211082	 0.811158	 -0.421303	 0.346369	 2
1462091988.690	 14	 0.994182	 1.093953	 -0.282693	 2.386595	 -0.986995	 0.082227	 -0.208109	 0.810804	 -0.426640	 0.342441	 2
1462091988.700	 14	 1.251497	 1.033497	 -0.448557	 2.389303	 -0.998440	 0.072850	 -0.205480	 0.809630	 -0.433231	 0.338508	 2
1462091988.710	 14	 1.514966	 0.936717	 -0.633997	 2.390022	 -1.013020	 0.062341	 -0.203308	 0.807480	 -0.441055	 0.334832	 2
1462091988.720	 14	 1.754940	 0.901137	 -0.896464	 2.390036	 -1.031041	 0.051718	 -0.201790	 0.804379	 -0.450179	 0.331051	 2
1462091988.730	 14	 2.007638	 0.908603	 -1.231112	 2.390724	 -1.053094	 0.042056	 -0.201145	 0.800278	 -0.460778	 0.326770	 2
1462091988.740	 14	 2.267086	 0.930388	 -1.495346	 2.391845	 -1.078979	 0.032726	 -0.201132	 0.795204	 -0.472819	 0.321930	 2
1462091988.750	 14	 2.412795	 0.732048	 -1.652996	 2.391299	 -1.107550	 0.023028	 -0.201794	 0.789122	 -0.485707	 0.317261	 2
1462091988.760	 14	 2.121981	 0.338928	 -1.859814	 2.391651	 -1.136150	 0.018486	 -0.204285	 0.782515	 -0.497754	 0.313336	 2
1462091988.769	 14	 1.279165	 -0.023724	 -1.901678	 2.400424	 -1.160313	 0.027544	 -0.209237	 0.776792	 -0.506724	 0.309910	 2
1462091988.780	 14	 -0.168943	 0.239478	 -1.393173	 2.425313	 -1.172410	 0.053329	 -0.214648	 0.774742	 -0.510133	 0.305720	 2
1462091988.790	 14	 -1.039064	 0.744528	 -0.741440	 2.461617	 -1.171185	 0.085772	 -0.217825	 0.777056	 -0.508662	 0.299997	 2
1462091988.800	 14	 -0.875301	 0.959706	 -0.336939	 2.492549	 -1.166267	 0.109457	 -0.218591	 0.780382	 -0.506560	 0.294312	 2
1462091988.810	 14	 -0.473888	 1.217880	 -0.067328	 2.514185	 -1.162545	 0.120568	 -0.217027	 0.783325	 -0.505804	 0.288902	 2
1462091988.820	 14	 -0.434308	 1.432710	 0.239134	 2.530820	 -1.158214	 0.123500	 -0.213491	 0.786551	 -0.505431	 0.283370	 2
1462091988.830	 14	 -0.595646	 1.306116	 0.610246	 2.541999	 -1.150690	 0.120784	 -0.208781	 0.790422	 -0.503952	 0.278704	 2
1462091988.840	 14	 -0.652761	 0.784526	 0.822240	 2.545040	 -1.140930	 0.113881	 -0.204224	 0.794151	 -0.501266	 0.276313	 2
1462091988.850	 14	 -0.530215	 0.040939	 0.854752	 2.539181	 -1.131353	 0.104833	 -0.201034	 0.796780	 -0.498031	 0.276932	 2
1462091988.860	 14	 -0.194222	 -0.625216	 0.797669	 2.523780	 -1.124322	 0.093075	 -0.199369	 0.797645	 -0.495270	 0.280575	 2
1462091988.870	 14	 0.219509	 -0.838808	 0.698292	 2.501979	 -1.120994	 0.077971	 -0.198340	 0.796920	 -0.493891	 0.285747	 2
1462091988.880	 14	 0.605449	 -0.575057	 0.557771	 2.479039	 -1.121470	 0.059903	 -0.196876	 0.795279	 -0.494419	 0.290380	 2
1462091988.890	 14	 0.877373	 -0.007139	 0.367785	 2.459995	 -1.125290	 0.040539	 -0.194413	 0.793423	 -0.496914	 0.292848	 2
1462091988.900	 14	 0.886535	 0.451447	 0.248344	 2.447126	 -1.130570	 0.022323	 -0.191134	 0.791954	 -0.500449	 0.292963	 2
1462091988.910	 14	 0.620531	 0.575979	 0.299778	 2.438594	 -1.134126	 0.006726	 -0.187609	 0.791283	 -0.503334	 0.292110	 2
1462091988.920	 14	 0.205268	 0.479936	 0.381367	 2.433378	 -1.134194	 -0.004776	 -0.184381	 0.791575	 -0.504554	 0.291270	 2
1462091988.930	 14	 -0.346962	 0.132826	 0.399997	 2.432150	 -1.130043	 -0.008662	 -0.182540	 0.792795	 -0.503365	 0.291169	 2
1462091988.940	 14	 -0.696454	 -0.225466	 0.425284	 2.432732	 -1.122502	 -0.006459	 -0.182154	 0.794562	 -0.500110	 0.292200	 2
1462091988.950	 14	 -0.571087	 -0.334407	 0.413587	 2.431272	 -1.114979	 -0.004275	 -0.182274	 0.796018	 -0.496669	 0.294027	 2
1462091988.960	 14	 -0.001339	 0.597304	 0.349087	 2.430530	 -1.111290	 -0.008187	 -0.180352	 0.797175	 -0.495709	 0.293695	 2
1462091988.970	 14	 0.491459	 2.656485	 0.259513	 2.442122	 -1.112543	 -0.018844	 -0.173402	 0.799490	 -0.498779	 0.286301	 2
1462091988.980	 14	 0.409181	 3.907362	 0.089624	 2.471018	 -1.115151	 -0.027917	 -0.162904	 0.803642	 -0.503515	 0.272203	 2
1462091988.990	 14	 0.286419	 3.511690	 -0.255115	 2.511015	 -1.119453	 -0.025458	 -0.154376	 0.807660	 -0.508086	 0.256325	 2
1462091989.000	 14	 0.217156	 1.959114	 -0.535419	 2.542586	 -1.126293	 -0.017511	 -0.150430	 0.809285	 -0.512249	 0.245009	 2
1462091989.010	 14	 0.060301	 0.110515	 -0.751618	 2.559139	 -1.131065	 -0.005418	 -0.151670	 0.809166	 -0.513956	 0.241031	 2
1462091989.020	 14	 -0.221899	 -1.366709	 -0.994177	 2.567336	 -1.134925	 0.014964	 -0.158265	 0.807584	 -0.513688	 0.242663	 2
1462091989.030	 14	 -0.417047	 -2.343590	 -1.140118	 2.570580	 -1.137745	 0.042066	 -0.168685	 0.805034	 -0.511772	 0.248105	 2
1462091989.040	 14	 -0.411796	 -2.751507	 -1.214300	 2.570582	 -1.140637	 0.071610	 -0.180873	 0.801694	 -0.509226	 0.255459	 2
1462091989.050	 14	 -0.094037	 -2.649564	 -1.401560	 2.570651	 -1.146157	 0.101416	 -0.193363	 0.797455	 -0.507615	 0.262685	 2
1462091989.060	 14	 0.602076	 -2.022885	 -1.530747	 2.572169	 -1.157796	 0.127253	 -0.204440	 0.791972	 -0.509065	 0.268026	 2
1462091989.070	 14	 1.304259	 -0.991364	 -1.418554	 2.573649	 -1.175312	 0.142725	 -0.211899	 0.785803	 -0.514228	 0.270524	 2
1462091989.080	 14	 1.575959	 0.297620	 -1.177655	 2.579031	 -1.194876	 0.148755	 -0.214741	 0.780488	 -0.521871	 0.269026	 2
1462091989.090	 14	 1.711243	 0.991002	 -0.989070	 2.587361	 -1.214555	 0.148277	 -0.214193	 0.776141	 -0.530714	 0.264705	 2
1462091989.100	 14	 1.847681	 0.893299	 -0.913366	 2.592393	 -1.234842	 0.143524	 -0.212853	 0.771549	 -0.539957	 0.260484	 2
1462091989.110	 14	 1.971827	 0.510087	 -0.906290	 2.591325	 -1.256159	 0.135959	 -0.212162	 0.766082	 -0.549254	 0.257733	 2
1462091989.120	 14	 1.989618	 0.189003	 -0.881723	 2.584639	 -1.277792	 0.126232	 -0.212277	 0.759953	 -0.558277	 0.256394	 2
1462091989.130	 14	 1.852208	 -0.018750	 -0.838763	 2.574942	 -1.298366	 0.115834	 -0.212986	 0.753755	 -0.566570	 0.255908	 2
1462091989.140	 14	 1.596384	 -0.251391	 -0.755571	 2.563978	 -1.316584	 0.106414	 -0.214317	 0.747938	 -0.573618	 0.256163	 2
1462091989.150	 14	 1.312517	 -0.595208	 -0.614552	 2.550223	 -1.331728	 0.097445	 -0.216430	 0.742597	 -0.579069	 0.257656	 2
1462091989.160	 14	 1.012141	 -0.821956	 -0.470169	 2.534191	 -1.343530	 0.088971	 -0.219153	 0.737888	 -0.582890	 0.260255	 2
1462091989.170	 14	 0.786252	 -0.818549	 -0.385041	 2.519057	 -1.352675	 0.082016	 -0.221979	 0.733911	 -0.585569	 0.263075	 2
1462091989.180	 14	 0.683694	 -0.643574	 -0.351613	 2.506436	 -1.360456	 0.076153	 -0.224379	 0.730542	 -0.587844	 0.265336	 2
1462091989.190	 14	 0.674745	 -0.508436	 -0.347080	 2.495146	 -1.367918	 0.070106	 -0.226330	 0.727456	 -0.590151	 0.267030	 2
1462091989.200	 14	 0.717574	 -0.458742	 -0.370438	 2.483523	 -1.375722	 0.063019	 -0.228083	 0.724333	 -0.592664	 0.268457	 2
1462091989.210	 14	 0.757908	 -0.464529	 -0.418802	 2.471531	 -1.384129	 0.055464	 -0.229896	 0.721025	 -0.595397	 0.269765	 2
1462091989.220	 14	 0.739168	 -0.742721	 -0.507554	 2.459943	 -1.392946	 0.050542	 -0.232636	 0.717336	 -0.597943	 0.271613	 2
1462091989.230	 14	 0.721357	 -0.806221	 -0.617763	 2.451697	 -1.402317	 0.050363	 -0.236177	 0.713364	 -0.600404	 0.273581	 2
1462091989.240	 14	 0.683269	 -0.647336	 -0.723595	 2.450458	 -1.412097	 0.056160	 -0.239794	 0.709495	 -0.602998	 0.274789	 2
1462091989.250	 14	 0.618672	 -0.415303	 -0.873278	 2.461432	 -1.422292	 0.072054	 -0.243302	 0.705919	 -0.605819	 0.274711	 2
1462091989.260	 14	 0.581923	 -0.190551	 -0.989166	 2.486199	 -1.432880	 0.099564	 -0.246638	 0.702615	 -0.608910	 0.273371	 2
1462091989.270	 14	 0.586987	 0.024956	 -1.043689	 2.525451	 -1.442899	 0.139390	 -0.249610	 0.699816	 -0.611996	 0.270950	 2
1462091989.280	 14	 0.629457	 0.217239	 -1.058256	 2.570284	 -1.453912	 0.182838	 -0.251941	 0.696832	 -0.615783	 0.267885	 2
1462091989.290	 14	 0.736714	 0.323355	 -1.048611	 2.621152	 -1.465406	 0.230950	 -0.253719	 0.693729	 -0.620021	 0.264463	 2
1462091989.300	 14	 0.888248	 0.285997	 -1.005516	 2.673778	 -1.477726	 0.280786	 -0.255182	 0.690186	 -0.624687	 0.261325	 2
1462091989.310	 14	 1.001898	 0.099099	 -0.918720	 2.725404	 -1.490599	 0.331048	 -0.256670	 0.686117	 -0.629476	 0.259083	 2
1462091989.320	 14	 1.061653	 -0.242572	 -0.782805	 2.772146	 -1.503431	 0.379392	 -0.258583	 0.681558	 -0.633933	 0.258346	 2
1462091989.330	 14	 1.047693	 -0.676969	 -0.556521	 2.800719	 -1.515476	 0.413697	 -0.261109	 0.676666	 -0.637580	 0.259685	 2
1462091989.340	 14	 1.006799	 -1.084334	 -0.426735	 2.808386	 -1.526559	 0.431277	 -0.264454	 0.671535	 -0.640295	 0.262921	 2
1462091989.350	 14	 0.974615	 -1.335343	 -0.439449	 2.819049	 -1.537222	 0.454809	 -0.268714	 0.666116	 -0.642429	 0.267145	 2
1462091989.360	 14	 0.964584	 -1.348743	 -0.531141	 2.878169	 -1.547929	 0.527582	 -0.273476	 0.660492	 -0.644463	 0.271346	 2
1462091989.370	 14	 0.949311	 -1.098504	 -0.643782	 -3.140548	 -1.558313	 0.803840	 -0.277994	 0.654951	 -0.646829	 0.274537	 2
1462091989.380	 14	 0.874998	 -0.735005	 -0.709027	 -2.041616	 -1.563047	 1.911072	 -0.281701	 0.649925	 -0.649567	 0.276233	 2
1462091989.390	 14	 0.691388	 -0.504863	 -0.727668	 -1.303416	 -1.556121	 2.654774	 -0.284797	 0.645718	 -0.652208	 0.276700	 2
1462091989.400	 14	 0.387451	 -0.455093	 -0.734150	 -1.194425	 -1.547656	 2.768426	 -0.288024	 0.642487	 -0.654076	 0.276473	 2
1462091989.410	 14	 -0.036961	 -0.410033	 -0.705523	 -1.262739	 -1.540658	 2.704329	 -0.291607	 0.640622	 -0.654687	 0.275596	 2
1462091989.420	 14	 -0.481560	 -0.400606	 -0.612041	 -1.420301	 -1.535255	 2.550651	 -0.295457	 0.640345	 -0.653803	 0.274235	 2
1462091989.430	 14	 -0.945732	 -0.489849	 -0.492661	 -1.647919	 -1.530304	 2.327514	 -0.299778	 0.641633	 -0.651175	 0.272785	 2
1462091989.440	 14	 -1.452990	 -0.452269	 -0.355741	 -1.929351	 -1.523569	 2.050565	 -0.304374	 0.644702	 -0.646724	 0.271043	 2
1462091989.450	 14	 -1.988628	 -0.087099	 -0.230445	 -2.216077	 -1.512192	 1.765275	 -0.308322	 0.650039	 -0.640779	 0.267936	 2
1462091989.460	 14	 -2.360294	 0.150380	 -0.047017	 -2.451411	 -1.495607	 1.528350	 -0.311332	 0.657294	 -0.633623	 0.263739	 2
1462091989.470	 14	 -2.610088	 0.192979	 0.152720	 -2.628392	 -1.475111	 1.348816	 -0.313714	 0.665732	 -0.625353	 0.259457	 2
1462091989.480	 14	 -2.848917	 0.165601	 0.240872	 -2.757531	 -1.450910	 1.217180	 -0.315999	 0.674972	 -0.615984	 0.255187	 2
1462091989.490	 14	 -3.075388	 0.153190	 0.197966	 -2.845904	 -1.423153	 1.126541	 -0.318636	 0.684714	 -0.605689	 0.250558	 2
1462091989.500	 14	 -3.333418	 0.308309	 0.070568	 -2.901870	 -1.391907	 1.067171	 -0.321534	 0.695011	 -0.594709	 0.244738	 2
1462091989.510	 14	 -3.593041	 0.577246	 -0.055758	 -2.934822	 -1.357439	 1.028484	 -0.324410	 0.705956	 -0.583195	 0.237209	 2
1462091989.520	 14	 -3.767543	 0.954973	 -0.106144	 -2.953017	 -1.320620	 1.000945	 -0.326631	 0.717569	 -0.571426	 0.227769	 2
1462091989.530	 14	 -3.743634	 1.182232	 0.001273	 -2.965129	 -1.283587	 0.976544	 -0.327713	 0.729413	 -0.559734	 0.217390	 2
1462091989.540	 14	 -3.631222	 1.100305	 0.189238	 -2.977820	 -1.247758	 0.951236	 -0.327905	 0.740999	 -0.548006	 0.207578	 2
1462091989.550	 14	 -3.522766	 0.657608	 0.347236	 -2.994211	 -1.213176	 0.925516	 -0.328224	 0.751927	 -0.535730	 0.199670	 2
1462091989.560	 14	 -3.390392	 0.125117	 0.453036	 -3.015045	 -1.180303	 0.900482	 -0.329170	 0.761871	 -0.522889	 0.194388	 2
1462091989.570	 14	 -3.213283	 -0.419264	 0.550875	 -3.038904	 -1.149269	 0.877640	 -0.330911	 0.770712	 -0.509685	 0.191628	 2
1462091989.580	 14	 -3.035350	 -0.808184	 0.672532	 -3.065742	 -1.119190	 0.856062	 -0.333203	 0.778816	 -0.495943	 0.190950	 2
1462091989.590	 14	 -2.894289	 -0.874675	 0.800708	 -3.093453	 -1.090452	 0.834899	 -0.335137	 0.786421	 -0.482282	 0.191389	 2
1462091989.600	 14	 -2.802243	 -0.627875	 0.843768	 -3.117921	 -1.062561	 0.815106	 -0.336200	 0.793864	 -0.469153	 0.191431	 2
1462091989.610	 14	 -2.717326	 -0.223315	 0.783916	 -3.135964	 -1.035267	 0.798120	 -0.336364	 0.801251	 -0.456894	 0.190011	 2
1462091989.620	 14	 -2.555599	 0.280096	 0.600684	 3.138054	 -1.009263	 0.785570	 -0.335842	 0.808363	 -0.446073	 0.186490	 2
1462091989.630	 14	 -2.372392	 0.628853	 0.366801	 3.137222	 -0.985087	 0.777952	 -0.335117	 0.814917	 -0.436813	 0.181112	 2
1462091989.640	 14	 -2.222925	 0.776160	 0.207006	 3.141253	 -0.962504	 0.773781	 -0.334527	 0.820869	 -0.428619	 0.174793	 2
1462091989.650	 14	 -2.103317	 0.849780	 0.140572	 -3.135839	 -0.941185	 0.771058	 -0.333963	 0.826365	 -0.421096	 0.168130	 2
1462091989.660	 14	 -1.989899	 0.916421	 0.135942	 -3.128891	 -0.921020	 0.768488	 -0.333185	 0.831545	 -0.414124	 0.161311	 2
1462091989.670	 14	 -1.879802	 0.916424	 0.180811	 -3.122196	 -0.901978	 0.765285	 -0.332105	 0.836467	 -0.407575	 0.154632	 2
1462091989.680	 14	 -1.772219	 0.779715	 0.292639	 -3.117695	 -0.884060	 0.760489	 -0.330705	 0.841161	 -0.401201	 0.148728	 2
1462091989.690	 14	 -1.671608	 0.485926	 0.447827	 -3.117394	 -0.867198	 0.753475	 -0.329093	 0.845627	 -0.394686	 0.144344	 2
1462091989.700	 14	 -1.575648	 0.109207	 0.605482	 -3.122320	 -0.851330	 0.744281	 -0.327441	 0.849831	 -0.387836	 0.141962	 2
1462091989.710	 14	 -1.496447	 -0.204673	 0.768131	 -3.132063	 -0.836281	 0.732999	 -0.325666	 0.853839	 -0.380650	 0.141445	 2
1462091989.720	 14	 -1.404125	 -0.423116	 0.896383	 3.137849	 -0.822018	 0.720099	 -0.323678	 0.857672	 -0.373311	 0.142370	 2
1462091989.730	 14	 -1.263328	 -0.502742	 0.973283	 3.122926	 -0.808891	 0.706344	 -0.321403	 0.861273	 -0.366238	 0.144150	 2
1462091989.740	 14	 -1.059491	 -0.510705	 0.984223	 3.107941	 -0.797490	 0.692582	 -0.318885	 0.864504	 -0.359900	 0.146347	 2
1462091989.750	 14	 -0.808831	 -0.517993	 0.960657	 3.093315	 -0.788385	 0.679323	 -0.316267	 0.867214	 -0.354590	 0.148933	 2
1462091989.760	 14	 -0.601725	 -0.476282	 0.929401	 3.079407	 -0.781407	 0.666589	 -0.313546	 0.869462	 -0.350303	 0.151698	 2
1462091989.770	 14	 -0.505459	 -0.392857	 0.885643	 3.066773	 -0.775569	 0.654514	 -0.310763	 0.871458	 -0.346689	 0.154253	 2
1462091989.780	 14	 -0.449667	 -0.287027	 0.834985	 3.055757	 -0.770268	 0.643242	 -0.307972	 0.873324	 -0.343523	 0.156369	 2
1462091989.790	 14	 -0.379845	 -0.176737	 0.818351	 3.046187	 -0.765536	 0.632405	 -0.305056	 0.875104	 -0.340814	 0.158049	 2
1462091989.800	 14	 -0.216036	 -0.100326	 0.861332	 3.037197	 -0.762062	 0.621085	 -0.301748	 0.876747	 -0.338808	 0.159598	 2
1462091989.810	 14	 0.038470	 -0.042129	 0.922538	 3.028055	 -0.760803	 0.608658	 -0.297883	 0.878109	 -0.337874	 0.161342	 2
1462091989.820	 14	 0.290804	 0.044476	 0.940330	 3.019098	 -0.761983	 0.595390	 -0.293534	 0.879126	 -0.338153	 0.163184	 2
1462091989.830	 14	 0.467179	 0.168921	 0.865349	 3.011518	 -0.765103	 0.582425	 -0.289036	 0.879811	 -0.339505	 0.164705	 2
1462091989.840	 14	 0.618516	 0.241927	 0.727228	 3.005787	 -0.769841	 0.570848	 -0.284807	 0.880108	 -0.341757	 0.165822	 2
1462091989.850	 14	 0.775695	 0.209504	 0.573154	 3.001108	 -0.776290	 0.560951	 -0.281114	 0.879897	 -0.344803	 0.166933	 2
1462091989.860	 14	 0.910214	 0.128187	 0.414559	 2.996914	 -0.784344	 0.552874	 -0.278124	 0.879133	 -0.348496	 0.168293	 2
1462091989.870	 14	 1.026712	 0.064014	 0.265872	 2.993233	 -0.793766	 0.546577	 -0.275820	 0.877870	 -0.352729	 0.169856	 2
1462091989.880	 14	 1.195727	 0.025404	 0.143610	 2.990028	 -0.804870	 0.541656	 -0.274022	 0.876094	 -0.357664	 0.171602	 2
1462091989.890	 14	 1.428837	 0.003599	 0.017749	 2.987415	 -0.818308	 0.537909	 -0.272603	 0.873706	 -0.363617	 0.173515	 2
1462091989.900	 14	 1.701286	 -0.053387	 -0.103453	 2.985089	 -0.834538	 0.535262	 -0.271571	 0.870578	 -0.370743	 0.175764	 2
1462091989.910	 14	 1.944149	 -0.070735	 -0.197385	 2.982971	 -0.853469	 0.533419	 -0.270802	 0.866733	 -0.379003	 0.178317	 2
1462091989.920	 14	 2.045936	 0.065734	 -0.257750	 2.982266	 -0.873910	 0.532185	 -0.269992	 0.862529	 -0.388034	 0.180493	 2
1462091989.930	 14	 2.007479	 0.314464	 -0.294533	 2.984276	 -0.894347	 0.531604	 -0.268907	 0.858393	 -0.397331	 0.181601	 2
1462091989.940	 14	 1.905328	 0.628317	 -0.323762	 2.989959	 -0.913927	 0.531850	 -0.267405	 0.854583	 -0.406630	 0.181205	 2
1462091989.950	 14	 1.789090	 0.878552	 -0.331079	 2.999016	 -0.932403	 0.532893	 -0.265495	 0.851142	 -0.415780	 0.179435	 2
1462091989.960	 14	 1.716481	 0.832293	 -0.286115	 3.008513	 -0.949943	 0.533929	 -0.263414	 0.847883	 -0.424538	 0.177410	 2
1462091989.970	 14	 1.707312	 0.603400	 -0.173063	 3.014819	 -0.967162	 0.533598	 -0.261356	 0.844532	 -0.432816	 0.176433	 2
1462091989.980	 14	 1.700551	 0.389764	 -0.008733	 3.016974	 -0.984084	 0.530769	 -0.259105	 0.841149	 -0.440609	 0.176628	 2
1462091989.990	 14	 1.841618	 -0.023476	 0.264357	 3.011599	 -1.001621	 0.523199	 -0.256511	 0.837495	 -0.448087	 0.178950	 2
1462091990.000	 14	 2.229912	 -0.575169	 0.611807	 2.994252	 -1.021879	 0.507917	 -0.253394	 0.832975	 -0.455898	 0.184665	 2
1462091990.010	 14	 2.715076	 -0.943221	 0.948399	 2.964096	 -1.046131	 0.482986	 -0.249351	 0.827255	 -0.464771	 0.193549	 2
1462091990.020	 14	 2.754998	 -0.820395	 1.181531	 2.925697	 -1.071287	 0.449129	 -0.243987	 0.821224	 -0.474052	 0.203316	 2
1462091990.030	 14	 2.041533	 -0.329564	 1.256256	 2.888827	 -1.090257	 0.412263	 -0.237589	 0.816906	 -0.481443	 0.210779	 2
1462091990.040	 14	 1.272376	 -0.213988	 1.189425	 2.856389	 -1.101039	 0.378272	 -0.231627	 0.814580	 -0.485814	 0.216317	 2
1462091990.050	 14	 0.611883	 -0.306635	 1.053633	 2.828470	 -1.105258	 0.350133	 -0.227031	 0.813631	 -0.487466	 0.220995	 2
1462091990.060	 14	 -0.166023	 -0.448545	 0.970627	 2.805569	 -1.102488	 0.329110	 -0.223982	 0.814186	 -0.486061	 0.225117	 2
1462091990.070	 14	 -0.927971	 -0.425206	 0.947637	 2.788457	 -1.092239	 0.314987	 -0.222046	 0.816540	 -0.481429	 0.228439	 2
1462091990.080	 14	 -1.374184	 -0.154368	 0.861321	 2.779178	 -1.077006	 0.306986	 -0.220443	 0.820363	 -0.474870	 0.230020	 2
1462091990.090	 14	 -1.397315	 0.042293	 0.983784	 2.772381	 -1.060403	 0.299249	 -0.218206	 0.824734	 -0.467955	 0.230691	 2
1462091990.100	 14	 -0.498472	 0.454085	 1.370924	 2.760422	 -1.048129	 0.281806	 -0.213242	 0.828378	 -0.463440	 0.231388	 2
1462091990.110	 14	 1.138077	 1.532457	 1.574533	 2.742730	 -1.049115	 0.247227	 -0.203069	 0.829683	 -0.466015	 0.230694	 2
1462091990.120	 14	 0.850566	 2.023717	 1.147843	 2.735109	 -1.054619	 0.214550	 -0.191608	 0.830637	 -0.471344	 0.226194	 2
1462091990.130	 14	 0.241024	 0.870462	 0.859992	 2.730244	 -1.053280	 0.195601	 -0.184795	 0.832213	 -0.472447	 0.223756	 2
1462091990.140	 14	 0.581205	 -0.979019	 0.576576	 2.711254	 -1.055175	 0.179048	 -0.182529	 0.831109	 -0.473378	 0.227715	 2
1462091990.150	 14	 0.727630	 -2.555907	 -0.182208	 2.682893	 -1.061407	 0.172199	 -0.186865	 0.826861	 -0.474200	 0.237732	 2
1462091990.160	 14	 0.681547	 -2.938049	 -1.122168	 2.662536	 -1.071663	 0.182112	 -0.196578	 0.820821	 -0.475376	 0.248248	 2
1462091990.170	 14	 0.747484	 -2.604208	 -1.846485	 2.657057	 -1.085826	 0.206711	 -0.209038	 0.813980	 -0.477676	 0.256057	 2
1462091990.180	 14	 1.057536	 -1.722861	 -2.214001	 2.665458	 -1.104279	 0.238367	 -0.221193	 0.806814	 -0.482227	 0.259964	 2
1462091990.190	 14	 1.528159	 -0.947586	 -2.330250	 2.683623	 -1.127263	 0.270990	 -0.231366	 0.799329	 -0.489626	 0.260404	 2
1462091990.200	 14	 2.006510	 -0.736735	 -2.248257	 2.703195	 -1.154117	 0.300604	 -0.239781	 0.791032	 -0.499216	 0.259918	 2
1462091990.210	 14	 2.445396	 -0.840851	 -2.054816	 2.716764	 -1.184234	 0.324451	 -0.247125	 0.781458	 -0.510158	 0.260753	 2
1462091990.220	 14	 2.839157	 -0.788440	 -1.855261	 2.724786	 -1.217070	 0.341474	 -0.252948	 0.770965	 -0.522321	 0.262318	 2
1462091990.230	 14	 2.942720	 -1.236645	 -1.578973	 2.723042	 -1.250604	 0.351228	 -0.258299	 0.759652	 -0.534335	 0.265887	 2
1462091990.240	 14	 2.888770	 -1.811034	 -1.313144	 2.707911	 -1.282735	 0.352914	 -0.264086	 0.747767	 -0.544946	 0.272281	 2
1462091990.250	 14	 2.806364	 -2.213865	 -1.161639	 2.681526	 -1.313352	 0.347575	 -0.270445	 0.735478	 -0.554227	 0.280651	 2
1462091990.260	 14	 2.810262	 -2.566578	 -1.104207	 2.644631	 -1.343368	 0.335059	 -0.277418	 0.722591	 -0.562647	 0.290394	 2
1462091990.270	 14	 2.880625	 -2.874653	 -1.024557	 2.592507	 -1.373383	 0.310466	 -0.284900	 0.708860	 -0.570485	 0.301488	 2
1462091990.280	 14	 2.942515	 -2.968694	 -0.914066	 2.517496	 -1.403003	 0.264291	 -0.292193	 0.694540	 -0.577944	 0.313399	 2
1462091990.290	 14	 2.929148	 -2.806398	 -0.979582	 2.418813	 -1.431965	 0.193335	 -0.299102	 0.680022	 -0.585350	 0.324766	 2
1462091990.300	 14	 2.748713	 -2.661727	 -0.903128	 2.286047	 -1.458399	 0.086683	 -0.305539	 0.665901	 -0.592263	 0.335330	 2
1462091990.310	 14	 2.384018	 -2.550662	 -0.695358	 2.106438	 -1.479095	 -0.067915	 -0.311467	 0.652960	 -0.597752	 0.345432	 2
1462091990.320	 14	 1.955099	 -2.226923	 -0.520221	 1.889426	 -1.492787	 -0.262304	 -0.316659	 0.641820	 -0.601743	 0.354541	 2
1462091990.330	 14	 1.613004	 -1.524352	 -0.430772	 1.661083	 -1.500640	 -0.474042	 -0.320243	 0.632934	 -0.605194	 0.361358	 2
1462091990.340	 14	 1.421880	 -0.647322	 -0.423079	 1.437069	 -1.504565	 -0.689816	 -0.321574	 0.626241	 -0.609151	 0.365168	 2
1462091990.350	 14	 1.412841	 0.129324	 -0.397655	 1.215066	 -1.505094	 -0.911856	 -0.320404	 0.621215	 -0.614200	 0.366321	 2
1462091990.360	 14	 1.554083	 0.350867	 -0.297707	 0.997203	 -1.501239	 -1.133638	 -0.317599	 0.616663	 -0.620015	 0.366659	 2
1462091990.370	 14	 1.724297	 0.137446	 -0.178613	 0.803039	 -1.492338	 -1.330290	 -0.314529	 0.611436	 -0.625889	 0.368077	 2
1462091990.380	 14	 1.686496	 -0.215289	 -0.141067	 0.654510	 -1.480463	 -1.478145	 -0.312169	 0.605613	 -0.631172	 0.370684	 2
1462091990.390	 14	 1.395681	 -0.911934	 -0.255857	 0.541632	 -1.469473	 -1.584605	 -0.312270	 0.599292	 -0.634969	 0.374367	 2
1462091990.400	 14	 1.122832	 -1.659566	 -0.354225	 0.446691	 -1.460709	 -1.664528	 -0.315952	 0.592142	 -0.636644	 0.379772	 2
1462091990.410	 14	 0.994500	 -1.798706	 -0.525990	 0.355386	 -1.453066	 -1.738683	 -0.321000	 0.584722	 -0.637787	 0.385081	 2
1462091990.420	 14	 0.720888	 -1.934521	 -0.738024	 0.262077	 -1.447553	 -1.813499	 -0.327529	 0.577371	 -0.638354	 0.389706	 2
1462091990.430	 14	 0.469158	 -2.013532	 -0.881511	 0.167077	 -1.444268	 -1.889096	 -0.335328	 0.570385	 -0.638201	 0.393593	 2
1462091990.440	 14	 0.340114	 -1.898063	 -0.997613	 0.068772	 -1.441807	 -1.968723	 -0.343549	 0.563746	 -0.637885	 0.396569	 2
1462091990.450	 14	 0.480553	 -1.592735	 -0.930983	 -0.021047	 -1.437754	 -2.042343	 -0.350734	 0.557383	 -0.638056	 0.398993	 2
1462091990.460	 14	 0.708135	 -1.467589	 -0.742094	 -0.091024	 -1.430784	 -2.098108	 -0.356336	 0.550941	 -0.638856	 0.401686	 2
1462091990.470	 14	 0.888530	 -1.563996	 -0.616671	 -0.142704	 -1.421637	 -2.134809	 -0.361268	 0.544001	 -0.639693	 0.405390	 2
1462091990.480	 14	 0.984278	 -1.754454	 -0.734379	 -0.193058	 -1.410931	 -2.168564	 -0.366602	 0.536180	 -0.640623	 0.409531	 2
1462091990.490	 14	 0.979841	 -2.042280	 -0.972552	 -0.252939	 -1.399329	 -2.209366	 -0.373300	 0.527302	 -0.641481	 0.413644	 2
1462091990.500	 14	 0.963621	 -2.405021	 -1.132453	 -0.319610	 -1.386904	 -2.253605	 -0.381578	 0.517301	 -0.641941	 0.417984	 2
1462091990.510	 14	 0.748084	 -2.603462	 -1.156936	 -0.387336	 -1.375192	 -2.296359	 -0.391089	 0.507019	 -0.641508	 0.422430	 2
1462091990.520	 14	 0.338121	 -2.343508	 -0.969768	 -0.449154	 -1.366940	 -2.334569	 -0.400533	 0.498387	 -0.639988	 0.426144	 2
1462091990.530	 14	 -0.008805	 -1.883423	 -0.733327	 -0.501438	 -1.362733	 -2.367583	 -0.408736	 0.492308	 -0.637804	 0.428689	 2
1462091990.540	 14	 -0.119698	 -1.483792	 -0.378007	 -0.539430	 -1.361297	 -2.390258	 -0.415177	 0.488271	 -0.635309	 0.430815	 2
1462091990.550	 14	 0.027765	 -1.082623	 0.000656	 -0.555161	 -1.361066	 -2.394242	 -0.419182	 0.485615	 -0.632963	 0.433385	 2
1462091990.560	 14	 0.200033	 -0.708301	 0.207266	 -0.552337	 -1.360552	 -2.383302	 -0.420911	 0.483737	 -0.631342	 0.436165	 2
1462091990.570	 14	 0.225283	 -0.657533	 0.324752	 -0.541453	 -1.360108	 -2.365486	 -0.421754	 0.482197	 -0.629878	 0.439161	 2
1462091990.580	 14	 0.003535	 -0.750330	 0.492078	 -0.528941	 -1.361741	 -2.345320	 -0.422787	 0.481314	 -0.627554	 0.442452	 2
1462091990.590	 14	 -0.369866	 -0.565902	 0.839155	 -0.511239	 -1.367769	 -2.320592	 -0.423646	 0.482283	 -0.623883	 0.445754	 2
1462091990.600	 14	 -0.783453	 -0.029887	 1.398743	 -0.474343	 -1.379664	 -2.281179	 -0.422708	 0.486641	 -0.619080	 0.448596	 2
1462091990.610	 14	 -1.085869	 0.462904	 2.056077	 -0.400947	 -1.396984	 -2.210079	 -0.419270	 0.494571	 -0.613027	 0.451453	 2
1462091990.620	 14	 -1.319841	 0.727277	 2.483682	 -0.283721	 -1.416920	 -2.098104	 -0.414108	 0.504919	 -0.605870	 0.454415	 2
1462091990.630	 14	 -1.459430	 0.985020	 2.767593	 -0.111292	 -1.436344	 -1.933051	 -0.407741	 0.516854	 -0.597912	 0.457285	 2
1462091990.640	 14	 -1.411301	 1.494933	 2.994663	 0.133302	 -1.450477	 -1.700164	 -0.399316	 0.530155	 -0.590160	 0.459558	 2
1462091990.650	 14	 -1.296696	 1.758638	 3.324374	 0.443069	 -1.453998	 -1.405474	 -0.388662	 0.544336	 -0.582540	 0.461831	 2
1462091990.660	 14	 -1.309483	 1.653089	 3.724230	 0.765586	 -1.443960	 -1.097804	 -0.376727	 0.558996	 -0.573815	 0.465120	 2
1462091990.670	 14	 -1.235057	 1.207373	 4.185173	 1.031040	 -1.419867	 -0.843238	 -0.364407	 0.573211	 -0.563214	 0.470560	 2
1462091990.680	 14	 -1.008254	 1.060985	 4.770136	 1.215508	 -1.382712	 -0.667012	 -0.350566	 0.587012	 -0.551047	 0.478402	 2
1462091990.690	 14	 -0.672719	 1.089110	 5.117046	 1.329499	 -1.336531	 -0.561596	 -0.334414	 0.600360	 -0.538451	 0.487653	 2
1462091990.700	 14	 -0.304444	 0.920552	 5.342476	 1.395164	 -1.285730	 -0.503584	 -0.316868	 0.612393	 -0.525775	 0.498126	 2
1462091990.710	 14	 0.112916	 1.228130	 5.537805	 1.432623	 -1.231401	 -0.475935	 -0.296959	 0.623609	 -0.513669	 0.508990	 2
1462091990.720	 14	 0.381814	 1.892164	 5.546971	 1.459507	 -1.175861	 -0.465609	 -0.274260	 0.635151	 -0.502878	 0.518150	 2
1462091990.730	 14	 0.623504	 2.435276	 5.297335	 1.482401	 -1.121792	 -0.465963	 -0.249793	 0.646872	 -0.493667	 0.524836	 2
1462091990.740	 14	 1.014458	 2.472053	 4.807220	 1.497520	 -1.071829	 -0.477130	 -0.225148	 0.657109	 -0.486590	 0.529855	 2
1462091990.750	 14	 1.209660	 2.276752	 4.209008	 1.505444	 -1.027520	 -0.494783	 -0.201966	 0.665079	 -0.481390	 0.533988	 2
1462091990.760	 14	 1.056422	 2.161456	 3.648678	 1.513458	 -0.989121	 -0.511179	 -0.181124	 0.671901	 -0.477073	 0.536791	 2
1462091990.770	 14	 0.915267	 2.028821	 3.195724	 1.523004	 -0.955603	 -0.524700	 -0.162522	 0.678086	 -0.473124	 0.538460	 2
1462091990.780	 14	 0.913180	 1.684609	 2.809931	 1.530226	 -0.926197	 -0.537901	 -0.145981	 0.683011	 -0.469762	 0.539916	 2
1462091990.790	 14	 0.974272	 1.397545	 2.410264	 1.533527	 -0.900706	 -0.552021	 -0.131385	 0.686416	 -0.467262	 0.541514	 2
1462091990.800	 14	 0.974865	 1.373655	 2.049809	 1.536082	 -0.879070	 -0.566335	 -0.118219	 0.689170	 -0.465709	 0.542388	 2
1462091990.810	 14	 0.957131	 1.424180	 1.823426	 1.539622	 -0.859986	 -0.580199	 -0.105853	 0.691829	 -0.464711	 0.542413	 2
1462091990.820	 14	 0.930606	 1.627001	 1.620918	 1.545113	 -0.843103	 -0.593736	 -0.093906	 0.694724	 -0.464247	 0.541309	 2
1462091990.830	 14	 0.886522	 1.867839	 1.520164	 1.553606	 -0.827438	 -0.606631	 -0.081900	 0.698195	 -0.463990	 0.539008	 2
1462091990.840	 14	 0.966782	 1.918624	 1.515675	 1.562927	 -0.812268	 -0.620057	 -0.069678	 0.701740	 -0.463942	 0.536157	 2
1462091990.850	 14	 1.048566	 2.003976	 1.585031	 1.572016	 -0.796574	 -0.634911	 -0.056811	 0.705123	 -0.464023	 0.533157	 2
1462091990.860	 14	 1.068292	 2.031221	 1.683163	 1.581576	 -0.780039	 -0.650118	 -0.043402	 0.708483	 -0.463874	 0.530085	 2
1462091990.870	 14	 1.026428	 1.925450	 1.747555	 1.590815	 -0.762876	 -0.665024	 -0.029946	 0.711574	 -0.463354	 0.527322	 2
1462091990.880	 14	 0.890634	 1.582829	 1.820152	 1.598389	 -0.745071	 -0.678406	 -0.017192	 0.714034	 -0.462129	 0.525640	 2
1462091990.890	 14	 0.663292	 1.303108	 1.876014	 1.605018	 -0.726780	 -0.688928	 -0.005513	 0.716069	 -0.459926	 0.525056	 2
1462091990.900	 14	 0.445313	 0.961758	 1.944010	 1.610617	 -0.707617	 -0.696487	 0.005157	 0.717704	 -0.456627	 0.525705	 2
1462091990.910	 14	 0.189106	 0.712606	 1.950317	 1.615412	 -0.688232	 -0.700875	 0.014564	 0.719035	 -0.452366	 0.527391	 2
1462091990.920	 14	 -0.050243	 0.650543	 1.948626	 1.621227	 -0.668745	 -0.702128	 0.023084	 0.720585	 -0.447166	 0.529402	 2
1462091990.930	 14	 -0.194485	 0.442029	 1.883996	 1.626823	 -0.649637	 -0.701360	 0.030662	 0.722049	 -0.441459	 0.531807	 2
1462091990.940	 14	 -0.323221	 -0.043545	 1.753773	 1.629071	 -0.631622	 -0.699058	 0.036545	 0.722611	 -0.435636	 0.535461	 2
1462091990.950	 14	 -0.483175	 -0.711774	 1.503822	 1.626266	 -0.615633	 -0.694737	 0.039897	 0.721831	 -0.429903	 0.540881	 2
1462091990.960	 14	 -0.596734	 -1.651992	 1.166741	 1.615786	 -0.602922	 -0.688542	 0.039826	 0.718983	 -0.424737	 0.548704	 2
1462091990.970	 14	 -0.722431	 -2.810123	 0.988669	 1.595018	 -0.592467	 -0.680726	 0.036283	 0.713253	 -0.419940	 0.560005	 2
1462091990.980	 14	 -0.946045	 -3.801053	 0.947290	 1.565156	 -0.582936	 -0.670217	 0.029679	 0.704815	 -0.414715	 0.574774	 2
1462091990.990	 14	 -1.226438	 -4.541587	 1.090982	 1.529005	 -0.572648	 -0.656044	 0.020954	 0.694265	 -0.408120	 0.592448	 2
1462091991.000	 14	 -1.465842	 -4.689167	 1.176954	 1.491648	 -0.561911	 -0.638606	 0.011285	 0.682948	 -0.400173	 0.610996	 2
1462091991.010	 14	 -1.680660	 -4.522674	 1.168650	 1.456676	 -0.551788	 -0.618066	 0.001125	 0.671947	 -0.391122	 0.628896	 2
1462091991.020	 14	 -1.805294	 -4.165655	 1.069679	 1.425603	 -0.543182	 -0.595785	 -0.009108	 0.661806	 -0.381614	 0.645213	 2
1462091991.030	 14	 -1.938119	 -3.620281	 0.833982	 1.400147	 -0.537276	 -0.572225	 -0.019430	 0.653204	 -0.372153	 0.659128	 2
1462091991.040	 14	 -2.144721	 -3.472151	 0.497181	 1.378426	 -0.535291	 -0.547155	 -0.030810	 0.645623	 -0.363010	 0.671152	 2
1462091991.050	 14	 -2.333183	 -3.757133	 0.137008	 1.355195	 -0.537664	 -0.520413	 -0.044461	 0.637297	 -0.354151	 0.682973	 2
1462091991.060	 14	 -2.375751	 -4.075789	 -0.260984	 1.328930	 -0.544649	 -0.494006	 -0.060108	 0.627660	 -0.346212	 0.694671	 2
1462091991.070	 14	 -2.423310	 -4.669912	 -0.513355	 1.297306	 -0.555202	 -0.468015	 -0.077720	 0.615790	 -0.338753	 0.707113	 2
1462091991.080	 14	 -2.465013	 -4.808963	 -0.637915	 1.263017	 -0.568123	 -0.442308	 -0.096387	 0.602522	 -0.331378	 0.719629	 2
1462091991.090	 14	 -2.355828	 -4.789695	 -0.576872	 1.228457	 -0.581523	 -0.417500	 -0.114772	 0.588703	 -0.323885	 0.731680	 2
1462091991.100	 14	 -2.198901	 -4.478270	 -0.396292	 1.195477	 -0.593600	 -0.394293	 -0.131657	 0.575096	 -0.316232	 0.742918	 2
1462091991.110	 14	 -2.059401	 -3.748260	 0.004684	 1.168931	 -0.602534	 -0.371300	 -0.145964	 0.563530	 -0.307921	 0.752538	 2
1462091991.120	 14	 -1.936608	 -2.809969	 0.519649	 1.151902	 -0.606856	 -0.347548	 -0.156951	 0.555252	 -0.298665	 0.760172	 2
1462091991.130	 14	 -1.844146	 -1.806146	 1.112222	 1.145931	 -0.605735	 -0.322002	 -0.164434	 0.550936	 -0.288177	 0.765758	 2
1462091991.140	 14	 -1.688549	 -0.963360	 1.670775	 1.149495	 -0.598858	 -0.295180	 -0.168504	 0.550195	 -0.276547	 0.769684	 2
1462091991.150	 14	 -1.403044	 -0.537660	 2.114542	 1.158024	 -0.586499	 -0.269045	 -0.169507	 0.551554	 -0.264211	 0.772818	 2
1462091991.160	 14	 -1.132641	 -0.597985	 2.558180	 1.165945	 -0.568702	 -0.244285	 -0.168074	 0.553000	 -0.250916	 0.776520	 2
1462091991.170	 14	 -0.879119	 -0.911699	 2.814165	 1.169900	 -0.547002	 -0.221340	 -0.165103	 0.553254	 -0.236887	 0.781368	 2
1462091991.180	 14	 -0.757605	 -1.387722	 3.075118	 1.168483	 -0.522364	 -0.199393	 -0.161286	 0.551653	 -0.221927	 0.787664	 2
1462091991.190	 14	 -0.699006	 -1.951877	 3.184461	 1.161056	 -0.496144	 -0.177545	 -0.157365	 0.547784	 -0.206000	 0.795445	 2
1462091991.200	 14	 -0.601505	 -2.416147	 3.296526	 1.147867	 -0.468773	 -0.156152	 -0.153250	 0.541697	 -0.189420	 0.804486	 2
1462091991.210	 14	 -0.338194	 -2.967528	 3.343456	 1.128492	 -0.440233	 -0.136331	 -0.148524	 0.533230	 -0.172660	 0.814736	 2
1462091991.220	 14	 0.157973	 -3.652954	 3.333824	 1.100197	 -0.410155	 -0.120440	 -0.142483	 0.521337	 -0.156495	 0.826690	 2
1462091991.230	 14	 0.527261	 -3.806677	 3.258838	 1.066639	 -0.378991	 -0.108180	 -0.134973	 0.507333	 -0.141345	 0.839295	 2
1462091991.240	 14	 0.533669	 -3.090146	 3.214293	 1.037924	 -0.348392	 -0.096138	 -0.126851	 0.495140	 -0.126954	 0.850075	 2
1462091991.250	 14	 0.730237	 -2.598235	 3.219290	 1.014976	 -0.317432	 -0.084448	 -0.117752	 0.485278	 -0.113169	 0.858972	 2
1462091991.260	 14	 1.158557	 -2.692468	 3.158199	 0.991087	 -0.285014	 -0.075815	 -0.107013	 0.475086	 -0.100487	 0.867608	 2
1462091991.270	 14	 1.516058	 -2.861009	 3.088506	 0.964307	 -0.251240	 -0.070182	 -0.094799	 0.463646	 -0.088899	 0.876438	 2
1462091991.280	 14	 1.746351	 -2.847310	 3.017354	 0.936633	 -0.216698	 -0.066186	 -0.081594	 0.451685	 -0.078136	 0.884996	 2
1462091991.290	 14	 1.942821	 -2.730634	 2.905890	 0.909548	 -0.181863	 -0.063538	 -0.067641	 0.439815	 -0.068285	 0.892930	 2
1462091991.300	 14	 2.100755	 -2.608787	 2.758573	 0.883380	 -0.147130	 -0.062146	 -0.053168	 0.428170	 -0.059414	 0.900174	 2
1462091991.310	 14	 2.260746	 -2.464942	 2.565616	 0.858349	 -0.112828	 -0.062281	 -0.038311	 0.416853	 -0.051718	 0.906692	 2
1462091991.320	 14	 2.427089	 -2.326481	 2.366158	 0.834619	 -0.078936	 -0.064157	 -0.023064	 0.405935	 -0.045282	 0.912488	 2
1462091991.330	 14	 2.554456	 -2.314404	 2.176522	 0.811342	 -0.045442	 -0.067581	 -0.007534	 0.395014	 -0.039995	 0.917773	 2
1462091991.340	 14	 2.553381	 -2.391222	 1.996768	 0.787497	 -0.012949	 -0.071737	 0.007782	 0.383613	 -0.035598	 0.922775	 2
1462091991.350	 14	 2.417222	 -2.402511	 1.851839	 0.763470	 0.017780	 -0.075474	 0.022298	 0.371940	 -0.031701	 0.927447	 2
1462091991.360	 14	 2.250044	 -2.467614	 1.753573	 0.739154	 0.046636	 -0.078146	 0.035832	 0.359998	 -0.028000	 0.931844	 2
1462091991.370	 14	 2.131620	 -2.666338	 1.729308	 0.713060	 0.074252	 -0.079537	 0.048623	 0.347125	 -0.024287	 0.936242	 2
1462091991.380	 14	 2.066128	 -2.769149	 1.752369	 0.685569	 0.101390	 -0.079555	 0.061036	 0.333516	 -0.020387	 0.940546	 2
1462091991.390	 14	 2.054224	 -2.836903	 1.791275	 0.657255	 0.128546	 -0.078393	 0.073366	 0.319449	 -0.016299	 0.944619	 2
1462091991.400	 14	 2.061562	 -2.932069	 1.871323	 0.627787	 0.156126	 -0.075880	 0.085796	 0.304789	 -0.011906	 0.948473	 2
1462091991.410	 14	 2.086072	 -2.931148	 1.861527	 0.597846	 0.183888	 -0.072468	 0.098309	 0.289876	 -0.007453	 0.951973	 2
1462091991.430	 14	 2.203883	 -2.838814	 1.588525	 0.539167	 0.238549	 -0.066946	 0.123480	 0.260451	 -0.000355	 0.957558	 2
1462091991.420	 14	 2.140189	 -2.892851	 1.737784	 0.568189	 0.211387	 -0.069307	 0.110864	 0.275048	 -0.003521	 0.955010	 2
1462091991.440	 14	 2.236827	 -2.794872	 1.501255	 0.510617	 0.265457	 -0.064935	 0.136108	 0.246034	 0.002270	 0.959655	 2
1462091991.450	 14	 2.228516	 -2.729071	 1.478481	 0.482618	 0.290177	 -0.062506	 0.147711	 0.231961	 0.004510	 0.961434	 2
1462091991.460	 14	 2.213140	 -2.632081	 1.502779	 0.461176	 0.287510	 -0.060801	 0.146280	 0.221849	 0.003441	 0.964040	 2
1462091991.470	 14	 2.233837	 -2.441578	 1.380729	 0.435909	 0.311477	 -0.057704	 0.157540	 0.209158	 0.005701	 0.965092	 2
1462091991.480	 14	 2.311271	 -2.216113	 1.262787	 0.412355	 0.337597	 -0.055265	 0.169953	 0.197190	 0.007720	 0.965491	 2
1462091991.490	 14	 2.465094	 -1.926475	 1.224710	 0.391689	 0.364714	 -0.053291	 0.182917	 0.186561	 0.009577	 0.965217	 2
1462091991.500	 14	 2.605147	 -1.647153	 1.225024	 0.373851	 0.393155	 -0.051427	 0.196534	 0.177265	 0.011508	 0.964271	 2
1462091991.510	 14	 2.657258	 -1.473814	 1.242169	 0.357907	 0.422319	 -0.049161	 0.210462	 0.168925	 0.013648	 0.962800	 2
1462091991.520	 14	 2.609430	 -1.432195	 1.241907	 0.342188	 0.451262	 -0.046207	 0.224230	 0.160808	 0.015894	 0.961046	 2
1462091991.530	 14	 2.461524	 -1.320258	 1.217593	 0.326999	 0.478937	 -0.042478	 0.237329	 0.153121	 0.018242	 0.959112	 2
1462091991.540	 14	 2.223982	 -1.227030	 1.217331	 0.312239	 0.504461	 -0.037559	 0.249313	 0.145910	 0.020834	 0.957141	 2
1462091991.550	 14	 1.953962	 -1.251595	 1.240769	 0.296596	 0.527433	 -0.030968	 0.259987	 0.138638	 0.023727	 0.955313	 2
1462091991.560	 14	 1.749708	 -1.316092	 1.211040	 0.279631	 0.548099	 -0.023239	 0.269532	 0.131037	 0.026636	 0.953663	 2
1462091991.570	 14	 1.682880	 -1.351899	 1.086594	 0.262257	 0.567395	 -0.015825	 0.278489	 0.123327	 0.029067	 0.952045	 2
1462091991.580	 14	 1.723928	 -1.307715	 0.889482	 0.245863	 0.586293	 -0.010067	 0.287372	 0.115946	 0.030651	 0.950281	 2
1462091991.590	 14	 1.826187	 -1.170218	 0.677785	 0.231861	 0.605482	 -0.006655	 0.296502	 0.109425	 0.031331	 0.948225	 2
1462091991.600	 14	 1.919294	 -0.993888	 0.535831	 0.220618	 0.625254	 -0.005141	 0.305958	 0.103963	 0.031427	 0.945829	 2
1462091991.610	 14	 1.976306	 -0.855096	 0.484403	 0.211233	 0.645465	 -0.004339	 0.315608	 0.099293	 0.031389	 0.943158	 2
1462091991.620	 14	 2.019672	 -0.663125	 0.427195	 0.203940	 0.666049	 -0.004112	 0.325402	 0.095532	 0.031344	 0.940215	 2
1462091991.630	 14	 1.992749	 -0.442216	 0.371934	 0.199162	 0.686453	 -0.004414	 0.335066	 0.092878	 0.031388	 0.937080	 2
1462091991.640	 14	 1.896302	 -0.276225	 0.342346	 0.196374	 0.706010	 -0.004914	 0.344279	 0.091139	 0.031596	 0.933899	 2
1462091991.650	 14	 1.721372	 -0.283994	 0.373638	 0.193571	 0.724056	 -0.004747	 0.352728	 0.089534	 0.032016	 0.930882	 2
1462091991.660	 14	 1.505192	 -0.466900	 0.437764	 0.188412	 0.740183	 -0.003175	 0.360236	 0.087126	 0.032550	 0.928213	 2
1462091991.670	 14	 1.248367	 -0.650910	 0.479852	 0.180203	 0.753972	 -0.000122	 0.366631	 0.083639	 0.033067	 0.926009	 2
1462091991.680	 14	 0.958630	 -0.734336	 0.445363	 0.170476	 0.764945	 0.003610	 0.371717	 0.079654	 0.033442	 0.924318	 2
1462091991.690	 14	 0.624789	 -0.827760	 0.334429	 0.160125	 0.772560	 0.007007	 0.375276	 0.075399	 0.033366	 0.923239	 2
1462091991.700	 14	 0.269178	 -1.008364	 0.219677	 0.148693	 0.776463	 0.009659	 0.377170	 0.070572	 0.032576	 0.922877	 2
1462091991.710	 14	 0.030658	 -1.226757	 0.074778	 0.135980	 0.777435	 0.011080	 0.377772	 0.064963	 0.030863	 0.923101	 2
1462091991.720	 14	 -0.106195	 -1.372168	 -0.085248	 0.122880	 0.776618	 0.010573	 0.377604	 0.058827	 0.028131	 0.923669	 2
1462091991.730	 14	 -0.179104	 -1.343049	 -0.205839	 0.110822	 0.774775	 0.008351	 0.376973	 0.052854	 0.024782	 0.924383	 2
1462091991.740	 14	 -0.187304	 -1.207438	 -0.282307	 0.100790	 0.772615	 0.004924	 0.376176	 0.047588	 0.021257	 0.925081	 2
1462091991.750	 14	 -0.134298	 -1.019650	 -0.325783	 0.092944	 0.770792	 0.000765	 0.375504	 0.043192	 0.017818	 0.925642	 2
1462091991.760	 14	 -0.046633	 -0.775150	 -0.308284	 0.087618	 0.769824	 -0.003594	 0.375189	 0.039916	 0.014780	 0.925970	 2
1462091991.770	 14	 -0.005368	 -0.485217	 -0.204698	 0.084240	 0.769517	 -0.006821	 0.375133	 0.037750	 0.012646	 0.926116	 2
1462091991.780	 14	 -0.060937	 -0.140715	 -0.095498	 0.083068	 0.769022	 -0.008447	 0.374942	 0.036907	 0.011663	 0.926240	 2
1462091991.790	 14	 -0.210612	 0.199488	 -0.030281	 0.084537	 0.767314	 -0.008849	 0.374150	 0.037529	 0.011718	 0.926535	 2
1462091991.800	 14	 -0.402811	 0.400036	 -0.026741	 0.088076	 0.763758	 -0.008746	 0.372479	 0.039224	 0.012352	 0.927129	 2
1462091991.810	 14	 -0.564033	 0.428836	 -0.080489	 0.092552	 0.758452	 -0.008965	 0.369994	 0.041315	 0.012966	 0.928024	 2
1462091991.820	 14	 -0.656719	 0.307242	 -0.165009	 0.096778	 0.751964	 -0.010090	 0.366978	 0.043141	 0.013074	 0.929137	 2
1462091991.830	 14	 -0.708262	 0.042308	 -0.198998	 0.099116	 0.744827	 -0.011770	 0.363683	 0.044002	 0.012550	 0.930398	 2
1462091991.840	 14	 -0.761340	 -0.347891	 -0.201120	 0.100840	 0.735268	 -0.015633	 0.359308	 0.044224	 0.010828	 0.932108	 2
1462091991.860	 15	 -0.741831	 -0.548467	 -0.424835	 0.095592	 0.719417	 -0.022899	 0.352088	 0.040692	 0.006113	 0.935062	 2
1462091991.880	 16	 -0.553995	 -0.300285	 -0.446548	 0.096241	 0.706383	 -0.035144	 0.346233	 0.039055	 0.000168	 0.937335	 2
1462091991.890	 16	 -0.499944	 -0.097949	 -0.243707	 0.096902	 0.701000	 -0.038448	 0.343775	 0.038886	 -0.001406	 0.938245	 2
1462091991.900	 16	 -0.465085	 0.076003	 -0.002595	 0.097374	 0.696234	 -0.038643	 0.341545	 0.039157	 -0.001541	 0.939048	 2
1462091991.910	 16	 -0.457173	 0.231621	 0.192753	 0.097717	 0.691825	 -0.036152	 0.339426	 0.039817	 -0.000428	 0.939790	 2
1462091991.920	 16	 -0.437946	 0.359328	 0.344008	 0.129511	 0.701147	 -0.051722	 0.344173	 0.051892	 -0.002018	 0.937469	 2
1462091991.930	 16	 -0.453892	 0.534361	 0.420379	 0.130535	 0.697221	 -0.045674	 0.342176	 0.053498	 0.000857	 0.938111	 2
1462091991.940	 16	 -0.438662	 0.603385	 0.411297	 0.132536	 0.693351	 -0.039529	 0.340192	 0.055568	 0.003948	 0.938705	 2
1462091991.950	 16	 -0.399386	 0.603944	 0.357672	 0.135072	 0.689786	 -0.034018	 0.338357	 0.057764	 0.006843	 0.939218	 2
1462091991.960	 16	 -0.349605	 0.593626	 0.275079	 0.138202	 0.686603	 -0.029556	 0.336719	 0.060048	 0.009356	 0.939642	 2
1462091991.970	 16	 -0.311692	 0.585216	 0.157436	 0.142192	 0.683707	 -0.026579	 0.335247	 0.062476	 0.011323	 0.939988	 2
