% Gyrometer data recorded with 'snsrlog'
% 
% 
% Label description:
% 	 0: Default Label
% 	 1: still_drop
% 	 2: walk_drop
% 	 3: other
% 	 4: dtw_same
% 	 5: dtw_diff
% 	 6: delete
% 	 7: steal
% 
% Column description:
% 	 1: Seconds.milliseconds since 1970
% 	 2: Number of skipped measurements
% 	 3: Gyro X
% 	 4: Gyro Y
% 	 5: Gyro Z
% 	 6: Roll of the device
% 	 7: Pitch of the device
% 	 8: Yaw of the device
% 	 9: Quaternion X
% 	 10: Quaternion Y
% 	 11: Quaternion Z
% 	 12: Quaternion W
% 	 13: Label used for the current sample
% 
% 
1463570276.835	 0	 0.991199	 -0.027680	 2.444856	 0.339888	 0.371617	 0.001571	 0.181949	 0.166359	 0.032006	 0.968605	 1
1463570276.845	 0	 0.392967	 -0.121244	 2.940511	 0.329538	 0.386140	 0.028432	 0.186967	 0.163651	 0.045231	 0.967582	 1
1463570276.855	 0	 -0.161897	 -0.528477	 3.173888	 0.312975	 0.395708	 0.060666	 0.189440	 0.158627	 0.059994	 0.967135	 1
1463570276.865	 0	 -0.616594	 -0.764386	 3.166060	 0.292303	 0.400363	 0.095236	 0.189711	 0.151926	 0.075078	 0.967105	 1
1463570276.875	 0	 -0.992106	 -1.031597	 2.980334	 0.269559	 0.400039	 0.129556	 0.187949	 0.144161	 0.089509	 0.967409	 1
1463570276.885	 0	 -1.274233	 -1.344329	 2.715571	 0.244305	 0.395450	 0.162085	 0.184663	 0.134867	 0.102642	 0.968078	 1
1463570276.895	 0	 -1.547916	 -1.628785	 2.393447	 0.217137	 0.386604	 0.191758	 0.179913	 0.124131	 0.114116	 0.969124	 1
1463570276.905	 0	 -1.626279	 -1.849607	 2.271643	 0.189055	 0.375422	 0.219456	 0.174506	 0.112515	 0.124612	 0.970237	 1
1463570276.915	 0	 -1.665150	 -2.318168	 2.177032	 0.157770	 0.363004	 0.245836	 0.169085	 0.098987	 0.134337	 0.971373	 1
1463570276.925	 0	 -1.816229	 -2.331486	 2.039674	 0.125247	 0.348368	 0.270385	 0.163079	 0.084386	 0.143228	 0.972507	 1
1463570276.935	 0	 -1.993582	 -1.793884	 1.887422	 0.098449	 0.331131	 0.292995	 0.155763	 0.072041	 0.151826	 0.973395	 1
1463570276.945	 0	 -2.169580	 -1.405334	 1.715654	 0.077071	 0.311511	 0.313422	 0.147172	 0.061786	 0.159970	 0.974132	 1
1463570276.955	 0	 -2.387895	 -1.106501	 1.475210	 0.060013	 0.289342	 0.331188	 0.137237	 0.053036	 0.167309	 0.974865	 1
1463570276.975	 1	 -3.003850	 -0.358648	 0.805444	 0.040363	 0.235123	 0.355840	 0.111869	 0.040479	 0.178055	 0.976803	 1
1463570276.985	 1	 -3.247810	 -0.071401	 0.570444	 0.037316	 0.203452	 0.363445	 0.096507	 0.036604	 0.181622	 0.977937	 1
1463570276.995	 2	 -3.341288	 0.343905	 0.454692	 0.038416	 0.170383	 0.369587	 0.080108	 0.034443	 0.184650	 0.978928	 1
1463570277.015	 2	 -2.948781	 0.857679	 0.327098	 0.051995	 0.107480	 0.379839	 0.047830	 0.035627	 0.189815	 0.980007	 1
1463570277.035	 3	 -1.257394	 0.893888	 -0.009152	 0.071309	 0.067567	 0.385209	 0.026312	 0.041429	 0.192367	 0.980095	 1
1463570277.045	 3	 -0.139649	 0.614389	 -0.112075	 0.078112	 0.063404	 0.384420	 0.023634	 0.044358	 0.192002	 0.980107	 1
1463570277.055	 3	 0.684200	 0.644486	 0.117631	 0.084491	 0.068415	 0.384499	 0.025476	 0.047960	 0.192203	 0.979851	 1
1463570277.065	 3	 1.345646	 -0.470670	 0.316779	 0.082540	 0.080416	 0.386311	 0.031502	 0.048168	 0.193266	 0.979457	 1
1463570277.075	 3	 1.897002	 -0.411796	 0.151596	 0.078031	 0.098304	 0.387095	 0.040685	 0.047674	 0.193843	 0.979028	 1
1463570277.086	 3	 2.168013	 -0.306004	 -0.256900	 0.074797	 0.119281	 0.383874	 0.051350	 0.048000	 0.192476	 0.978781	 1
1463570277.095	 3	 2.177408	 0.415403	 -0.361108	 0.077662	 0.140808	 0.378648	 0.061749	 0.051262	 0.190269	 0.978446	 1
1463570277.105	 3	 2.067206	 1.104164	 -0.175757	 0.087672	 0.161545	 0.374479	 0.071068	 0.057921	 0.188836	 0.977720	 1
1463570277.116	 3	 1.870640	 1.649907	 0.199786	 0.102984	 0.180795	 0.373710	 0.079063	 0.067115	 0.189331	 0.976421	 1
1463570277.126	 3	 1.616992	 2.070437	 0.592780	 0.122196	 0.198110	 0.376734	 0.085585	 0.078170	 0.191921	 0.974541	 1
1463570277.135	 3	 1.188145	 2.179188	 1.041948	 0.142297	 0.212316	 0.384375	 0.090243	 0.089575	 0.196844	 0.972155	 1
1463570277.146	 3	 0.544390	 2.223505	 1.465745	 0.161681	 0.221469	 0.397092	 0.092153	 0.100407	 0.204145	 0.969408	 1
1463570277.165	 4	 -0.704158	 1.908774	 1.854164	 0.195486	 0.222275	 0.433877	 0.086917	 0.118470	 0.223461	 0.963574	 1
1463570277.176	 4	 -0.709312	 1.091688	 1.526877	 0.204521	 0.218312	 0.451784	 0.082889	 0.123169	 0.232318	 0.961242	 1
1463570277.186	 4	 -0.635862	 0.519234	 1.085014	 0.208094	 0.214394	 0.465129	 0.079749	 0.125008	 0.238725	 0.959700	 1
1463570277.195	 4	 -0.574491	 0.297000	 0.678488	 0.209511	 0.210220	 0.474113	 0.077003	 0.125583	 0.242930	 0.958793	 1
1463570277.206	 4	 -0.542909	 0.188735	 0.428883	 0.210474	 0.205877	 0.480095	 0.074417	 0.125786	 0.245666	 0.958274	 1
1463570277.216	 4	 -0.553670	 0.088599	 0.256457	 0.210711	 0.201141	 0.484236	 0.071846	 0.125516	 0.247475	 0.958040	 1
1463570277.226	 4	 -0.599026	 0.099360	 0.108811	 0.211064	 0.195707	 0.486927	 0.069017	 0.125161	 0.248565	 0.958012	 1
1463570277.236	 4	 -0.770374	 -0.116174	 -0.054765	 0.211094	 0.188892	 0.488404	 0.065640	 0.124444	 0.249006	 0.958228	 1
1463570277.246	 4	 -0.806440	 0.394702	 -0.608156	 0.212731	 0.179748	 0.485884	 0.061189	 0.124100	 0.247483	 0.958961	 1
1463570277.255	 4	 -0.529821	 1.129280	 -1.427563	 0.224300	 0.171118	 0.475031	 0.056298	 0.128356	 0.242250	 0.960037	 1
1463570277.266	 4	 -0.113662	 1.561393	 -1.952587	 0.241999	 0.164680	 0.457322	 0.052253	 0.135671	 0.233923	 0.961324	 1
1463570277.276	 4	 0.357125	 1.925000	 -2.075865	 0.263695	 0.161808	 0.436413	 0.049848	 0.145272	 0.224271	 0.962348	 1
1463570277.285	 4	 0.831373	 2.275186	 -1.848663	 0.288962	 0.163433	 0.415678	 0.049426	 0.157078	 0.215014	 0.962628	 1
1463570277.296	 4	 1.238849	 2.544153	 -1.408482	 0.316834	 0.169792	 0.397427	 0.051055	 0.170623	 0.207348	 0.961919	 1
1463570277.306	 4	 1.496716	 2.681373	 -0.862714	 0.345854	 0.180187	 0.383022	 0.054391	 0.185106	 0.201941	 0.960207	 1
1463570277.315	 4	 1.518461	 2.743910	 -0.297468	 0.374973	 0.192948	 0.373369	 0.058559	 0.199864	 0.199144	 0.957584	 1
1463570277.326	 4	 1.357436	 2.580976	 0.195866	 0.402343	 0.206283	 0.368703	 0.062739	 0.213880	 0.198882	 0.954340	 1
1463570277.336	 4	 1.143234	 1.979318	 0.450047	 0.424137	 0.218863	 0.367591	 0.066730	 0.225212	 0.200199	 0.951182	 1
1463570277.345	 4	 0.922133	 1.525464	 0.402987	 0.440188	 0.229572	 0.367391	 0.070273	 0.233652	 0.201669	 0.948577	 1
1463570277.356	 4	 0.677153	 1.309094	 0.241111	 0.453954	 0.237457	 0.366672	 0.072741	 0.240745	 0.202593	 0.946418	 1
1463570277.366	 4	 0.388707	 1.107085	 0.135166	 0.465647	 0.242325	 0.366036	 0.073957	 0.246613	 0.203211	 0.944679	 1
1463570277.375	 4	 0.068181	 0.889232	 0.031485	 0.475160	 0.243919	 0.365855	 0.073773	 0.251214	 0.203640	 0.943387	 1
1463570277.386	 4	 -0.250349	 0.618397	 -0.043931	 0.481913	 0.242246	 0.366464	 0.072210	 0.254298	 0.203998	 0.942604	 1
1463570277.396	 4	 -0.421707	 0.411280	 -0.220217	 0.486484	 0.237997	 0.366709	 0.069688	 0.256147	 0.203824	 0.942331	 1
1463570277.405	 4	 -0.547284	 0.265877	 -0.227937	 0.489407	 0.232313	 0.367029	 0.066642	 0.257115	 0.203463	 0.942366	 1
1463570277.416	 4	 -0.602605	 0.181993	 -0.084358	 0.491091	 0.226477	 0.368733	 0.063472	 0.257529	 0.203688	 0.942423	 1
1463570277.426	 4	 -0.615511	 0.171131	 0.172502	 0.491856	 0.221545	 0.372615	 0.060545	 0.257638	 0.205005	 0.942300	 1
1463570277.436	 4	 -0.593161	 0.309807	 0.530628	 0.493044	 0.218299	 0.379468	 0.057994	 0.258151	 0.207913	 0.941683	 1
1463570277.446	 4	 -0.516113	 0.478342	 0.921594	 0.495260	 0.217466	 0.389522	 0.056064	 0.259414	 0.212617	 0.940402	 1
1463570277.456	 4	 -0.391321	 0.646231	 1.242865	 0.498523	 0.219313	 0.402141	 0.054946	 0.261447	 0.218837	 0.938476	 1
1463570277.466	 4	 -0.248732	 0.899912	 1.375072	 0.503879	 0.223338	 0.415751	 0.054469	 0.264670	 0.225803	 0.935947	 1
1463570277.476	 4	 -0.121097	 1.141128	 1.249380	 0.511897	 0.228315	 0.428141	 0.054252	 0.269185	 0.232361	 0.933062	 1
1463570277.486	 4	 -0.041909	 1.332327	 0.807113	 0.522799	 0.232451	 0.436825	 0.053744	 0.274864	 0.237164	 0.930223	 1
1463570277.496	 4	 0.011617	 1.593279	 0.000161	 0.537545	 0.233553	 0.438821	 0.052231	 0.281866	 0.238608	 0.927841	 1
1463570277.506	 4	 0.082815	 2.058780	 -0.899894	 0.558239	 0.230539	 0.432471	 0.049269	 0.291029	 0.235831	 0.925882	 1
1463570277.516	 4	 0.177130	 2.676118	 -1.533362	 0.586311	 0.224260	 0.419605	 0.044967	 0.303173	 0.229755	 0.923730	 1
1463570277.526	 4	 0.290614	 3.279446	 -1.891095	 0.621356	 0.216098	 0.402752	 0.039812	 0.318317	 0.221632	 0.920852	 1
1463570277.536	 4	 0.385545	 3.636385	 -2.059122	 0.660984	 0.206910	 0.383920	 0.034308	 0.335481	 0.212390	 0.917151	 1
1463570277.546	 4	 0.418516	 3.661430	 -2.115670	 0.701988	 0.196780	 0.364460	 0.028706	 0.353219	 0.202567	 0.912896	 1
1463570277.556	 4	 0.360217	 3.476942	 -2.062535	 0.741179	 0.185724	 0.345922	 0.023084	 0.370099	 0.192808	 0.908471	 1
1463570277.566	 4	 0.232219	 3.167581	 -1.947065	 0.776631	 0.174047	 0.329472	 0.017496	 0.385283	 0.183671	 0.904166	 1
1463570277.576	 4	 0.072068	 2.810641	 -1.807252	 0.808130	 0.161556	 0.315500	 0.011708	 0.398667	 0.175305	 0.900109	 1
1463570277.586	 4	 -0.113487	 2.523720	 -1.700664	 0.835745	 0.148500	 0.304129	 0.005713	 0.410299	 0.167820	 0.896358	 1
1463570277.596	 4	 -0.290230	 2.418643	 -1.741668	 0.861423	 0.133963	 0.294540	 -0.000968	 0.420996	 0.160680	 0.892717	 1
1463570277.606	 4	 -0.395452	 2.485278	 -1.982060	 0.887186	 0.116890	 0.285100	 -0.008646	 0.431604	 0.152914	 0.888966	 1
1463570277.616	 4	 -0.365835	 2.723028	 -2.331807	 0.914870	 0.096949	 0.274132	 -0.017209	 0.442932	 0.143645	 0.884806	 1
1463570277.626	 4	 -0.195561	 3.162279	 -2.705416	 0.946419	 0.074524	 0.260459	 -0.026264	 0.455879	 0.132345	 0.879755	 1
1463570277.636	 4	 0.105931	 3.789648	 -3.045379	 0.983694	 0.050293	 0.243361	 -0.035305	 0.471305	 0.118745	 0.873227	 1
1463570277.646	 4	 0.526421	 4.554239	 -3.314281	 1.028047	 0.025037	 0.222436	 -0.043734	 0.489818	 0.102755	 0.864642	 1
1463570277.656	 4	 1.085471	 5.305787	 -3.440047	 1.079593	 -0.000065	 0.197375	 -0.050667	 0.511458	 0.084501	 0.853641	 1
1463570277.666	 4	 1.751879	 5.881200	 -3.463942	 1.136732	 -0.023999	 0.167781	 -0.055175	 0.535477	 0.064178	 0.840299	 1
1463570277.676	 4	 2.483205	 6.156794	 -3.445364	 1.196567	 -0.046733	 0.133061	 -0.056697	 0.560542	 0.041789	 0.825125	 1
1463570277.686	 4	 3.201884	 6.238858	 -3.425279	 1.256463	 -0.068784	 0.092939	 -0.055075	 0.585441	 0.017374	 0.808656	 1
1463570277.696	 4	 3.797353	 6.301418	 -3.504485	 1.315701	 -0.091894	 0.047917	 -0.050967	 0.609726	 -0.009138	 0.790919	 1
1463570277.706	 4	 4.195043	 6.362864	 -3.670438	 1.374104	 -0.118019	 -0.000487	 -0.045441	 0.633168	 -0.037594	 0.771765	 1
1463570277.716	 4	 4.384927	 6.317006	 -3.903788	 1.430924	 -0.148609	 -0.050228	 -0.039588	 0.655357	 -0.067583	 0.751247	 1
1463570277.726	 4	 4.266514	 5.831822	 -4.122556	 1.482700	 -0.184164	 -0.098430	 -0.034658	 0.674946	 -0.098149	 0.730489	 1
1463570277.736	 4	 3.859046	 5.308736	 -4.258162	 1.528389	 -0.223764	 -0.141672	 -0.031733	 0.691610	 -0.127839	 0.710159	 1
1463570277.746	 4	 3.431137	 4.747450	 -4.389682	 1.568152	 -0.266507	 -0.179046	 -0.031119	 0.705518	 -0.156186	 0.690566	 1
1463570277.756	 4	 3.190602	 4.310115	 -4.513154	 1.602852	 -0.311821	 -0.212078	 -0.032311	 0.717083	 -0.183657	 0.671579	 1
1463570277.766	 4	 3.171636	 3.975627	 -4.591771	 1.633153	 -0.358995	 -0.243246	 -0.034343	 0.726631	 -0.210894	 0.652956	 1
1463570277.776	 4	 3.305219	 3.613173	 -4.651726	 1.658538	 -0.407708	 -0.274572	 -0.036615	 0.734086	 -0.238406	 0.634775	 1
1463570277.786	 4	 3.515710	 3.085238	 -4.766114	 1.676956	 -0.458259	 -0.307455	 -0.039177	 0.738904	 -0.266610	 0.617580	 1
1463570277.796	 4	 3.666073	 2.496537	 -4.631155	 1.687148	 -0.508882	 -0.342342	 -0.041739	 0.740910	 -0.294875	 0.601963	 1
1463570277.806	 4	 3.693686	 1.896379	 -4.219201	 1.689130	 -0.556294	 -0.379005	 -0.043641	 0.740421	 -0.321900	 0.588432	 1
1463570277.816	 4	 3.603827	 1.128748	 -3.628735	 1.681628	 -0.598003	 -0.416946	 -0.044795	 0.737359	 -0.346647	 0.578040	 1
1463570277.826	 4	 3.307360	 0.252992	 -3.071580	 1.664733	 -0.633334	 -0.454293	 -0.045969	 0.731909	 -0.368424	 0.571367	 1
1463570277.836	 4	 2.804047	 -0.460485	 -2.660321	 1.641296	 -0.663239	 -0.488166	 -0.048213	 0.724865	 -0.386905	 0.567935	 1
1463570277.846	 4	 2.243776	 -0.956409	 -2.339263	 1.614897	 -0.688701	 -0.516898	 -0.051813	 0.717171	 -0.402135	 0.566806	 1
1463570277.856	 4	 1.668909	 -1.251311	 -2.170743	 1.588364	 -0.711334	 -0.539692	 -0.056971	 0.709512	 -0.414537	 0.567015	 1
1463570277.866	 4	 1.123688	 -1.456211	 -1.899330	 1.563259	 -0.731189	 -0.556280	 -0.063360	 0.702268	 -0.424160	 0.568237	 1
1463570277.876	 4	 0.653283	 -1.518936	 -1.499355	 1.540927	 -0.747081	 -0.567049	 -0.070008	 0.695804	 -0.430900	 0.570334	 1
1463570277.886	 4	 0.248834	 -1.446377	 -1.044341	 1.522499	 -0.758538	 -0.572393	 -0.076240	 0.690410	 -0.434872	 0.573069	 1
1463570277.896	 4	 -0.051295	 -1.163870	 -0.636241	 1.509511	 -0.765838	 -0.573162	 -0.081429	 0.686510	 -0.436536	 0.575769	 1
1463570277.906	 4	 -0.249209	 -0.826198	 -0.353211	 1.502200	 -0.770125	 -0.570678	 -0.085422	 0.684180	 -0.436653	 0.577871	 1
1463570277.916	 4	 -0.334233	 -0.673640	 -0.177332	 1.498200	 -0.772506	 -0.566437	 -0.088604	 0.682771	 -0.435882	 0.579637	 1
1463570277.926	 4	 -0.115373	 -0.706805	 -0.115601	 1.493235	 -0.773841	 -0.563857	 -0.091048	 0.681176	 -0.435262	 0.581598	 1
1463570277.936	 4	 0.185050	 -1.027966	 -0.133994	 1.482580	 -0.775084	 -0.565570	 -0.093237	 0.678114	 -0.435597	 0.584571	 1
1463570277.946	 4	 0.412960	 -1.191868	 -0.056506	 1.467275	 -0.775522	 -0.570776	 -0.094974	 0.673859	 -0.436517	 0.588512	 1
1463570277.956	 4	 0.450993	 -1.188632	 0.111584	 1.450985	 -0.774401	 -0.576990	 -0.096034	 0.669370	 -0.437288	 0.592874	 1
1463570277.966	 4	 0.351898	 -1.190347	 0.421502	 1.435843	 -0.770601	 -0.581676	 -0.096380	 0.665164	 -0.436993	 0.597749	 1
1463570277.976	 4	 0.214044	 -1.128414	 0.838926	 1.422943	 -0.762996	 -0.583671	 -0.095711	 0.661515	 -0.435068	 0.603286	 1
1463570277.986	 4	 0.055055	 -0.983792	 1.210409	 1.413440	 -0.751745	 -0.582623	 -0.093927	 0.658742	 -0.431493	 0.609139	 1
1463570277.996	 4	 -0.118298	 -0.824200	 1.440411	 1.407547	 -0.738104	 -0.578588	 -0.091423	 0.656908	 -0.426581	 0.614933	 1
1463570278.006	 4	 -0.256307	 -0.736016	 1.518102	 1.404211	 -0.723612	 -0.572278	 -0.088774	 0.655733	 -0.420847	 0.620500	 1
1463570278.016	 4	 -0.373507	 -0.661517	 1.477186	 1.402531	 -0.709468	 -0.564458	 -0.086384	 0.654986	 -0.414764	 0.625701	 1
1463570278.026	 4	 -0.471855	 -0.494924	 1.236598	 1.402621	 -0.697167	 -0.555793	 -0.084585	 0.654738	 -0.408915	 0.630041	 1
1463570278.036	 4	 -0.553031	 -0.288134	 0.972789	 1.405062	 -0.687980	 -0.546712	 -0.083614	 0.655198	 -0.403790	 0.632992	 1
1463570278.046	 4	 -0.508815	 -0.175647	 0.955333	 1.408635	 -0.679500	 -0.537983	 -0.082577	 0.656038	 -0.398971	 0.635309	 1
1463570278.056	 4	 -0.445448	 -0.190918	 1.075070	 1.411694	 -0.669946	 -0.530104	 -0.080975	 0.656772	 -0.394089	 0.637799	 1
1463570278.066	 4	 -0.467933	 -0.127889	 1.250637	 1.415201	 -0.658783	 -0.521950	 -0.078786	 0.657665	 -0.388674	 0.640470	 1
1463570278.076	 4	 -0.635185	 -0.019480	 1.465189	 1.420758	 -0.645737	 -0.512085	 -0.076080	 0.659183	 -0.382240	 0.643104	 1
1463570278.086	 4	 -0.994744	 0.121790	 1.586868	 1.429816	 -0.631488	 -0.498074	 -0.073673	 0.661713	 -0.374206	 0.645506	 1
1463570278.096	 4	 -1.213701	 0.458302	 1.408595	 1.443280	 -0.618592	 -0.481430	 -0.071907	 0.665602	 -0.365764	 0.646544	 1
1463570278.106	 4	 -1.334745	 0.655906	 1.328358	 1.459811	 -0.606898	 -0.463562	 -0.070559	 0.670471	 -0.357288	 0.646401	 1
1463570278.116	 4	 -1.351889	 0.603105	 1.373843	 1.476164	 -0.594738	 -0.445602	 -0.069243	 0.675331	 -0.348567	 0.646247	 1
1463570278.126	 4	 -1.313565	 0.575405	 1.382844	 1.491567	 -0.582113	 -0.428219	 -0.067867	 0.679955	 -0.339785	 0.646221	 1
1463570278.136	 4	 -1.185763	 0.533438	 1.367486	 1.505610	 -0.569358	 -0.412529	 -0.066225	 0.684238	 -0.331389	 0.646230	 1
1463570278.146	 4	 -1.060661	 0.304859	 1.431412	 1.516700	 -0.555925	 -0.398660	 -0.064309	 0.687678	 -0.323207	 0.646917	 1
1463570278.156	 4	 -0.864232	 0.175762	 1.602220	 1.524636	 -0.540920	 -0.386824	 -0.061714	 0.690227	 -0.315029	 0.648486	 1
1463570278.166	 4	 -0.351188	 0.366412	 1.845718	 1.531047	 -0.523217	 -0.380362	 -0.056589	 0.692522	 -0.307642	 0.650052	 1
1463570278.176	 4	 0.011702	 0.255777	 1.989670	 1.534902	 -0.503661	 -0.378769	 -0.049539	 0.694140	 -0.301121	 0.651952	 1
1463570278.186	 4	 0.072057	 0.263178	 1.861322	 1.537178	 -0.484447	 -0.378919	 -0.042260	 0.695228	 -0.295185	 0.654017	 1
1463570278.196	 4	 -0.166998	 0.616061	 1.439316	 1.543103	 -0.468994	 -0.377317	 -0.036419	 0.697369	 -0.289890	 0.654457	 1
1463570278.206	 4	 -0.430633	 0.978444	 0.997364	 1.554049	 -0.457997	 -0.372868	 -0.032477	 0.701024	 -0.285116	 0.652855	 1
1463570278.216	 4	 -0.527084	 1.185725	 0.648431	 1.567963	 -0.450765	 -0.367106	 -0.029968	 0.705569	 -0.281127	 0.649802	 1
1463570278.226	 4	 -0.599714	 1.386178	 0.394080	 1.584031	 -0.446163	 -0.360695	 -0.028371	 0.710749	 -0.277786	 0.645651	 1
1463570278.236	 4	 -0.755286	 1.566325	 0.239378	 1.602652	 -0.443277	 -0.352947	 -0.027555	 0.716678	 -0.274604	 0.640474	 1
1463570278.246	 4	 -0.974919	 1.505293	 0.094713	 1.622352	 -0.441556	 -0.342807	 -0.027922	 0.722852	 -0.271070	 0.635001	 1
1463570278.256	 4	 -1.144471	 1.275430	 -0.137220	 1.640891	 -0.441593	 -0.330612	 -0.029863	 0.728538	 -0.267494	 0.629911	 1
1463570278.266	 4	 -1.320810	 1.099724	 -0.530586	 1.658512	 -0.444774	 -0.316100	 -0.033906	 0.733751	 -0.264308	 0.624981	 1
1463570278.276	 4	 -1.413863	 1.220001	 -0.995461	 1.677009	 -0.452252	 -0.299781	 -0.039995	 0.738971	 -0.262155	 0.619352	 1
1463570278.286	 4	 -1.428486	 1.706743	 -1.494910	 1.700597	 -0.464056	 -0.282111	 -0.047388	 0.745405	 -0.261356	 0.611407	 1
1463570278.296	 4	 -1.291300	 2.378068	 -2.146367	 1.730810	 -0.481737	 -0.264083	 -0.055966	 0.753304	 -0.262932	 0.600223	 1
1463570278.306	 4	 -1.059407	 2.965319	 -2.766392	 1.767579	 -0.505469	 -0.246274	 -0.065443	 0.762397	 -0.267289	 0.585683	 1
1463570278.326	 5	 -0.382790	 2.475146	 -3.791452	 1.842084	 -0.569457	 -0.212676	 -0.087873	 0.777895	 -0.284023	 0.553614	 1
1463570278.336	 5	 -0.011429	 1.356243	 -4.078999	 1.867047	 -0.607789	 -0.197895	 -0.101419	 0.780731	 -0.295413	 0.541206	 1
1463570278.346	 5	 0.365113	 -0.095119	 -4.009456	 1.876445	 -0.647264	 -0.186241	 -0.116100	 0.778810	 -0.307490	 0.534253	 1
1463570278.356	 5	 0.663964	 -0.803138	 -3.694654	 1.873981	 -0.685093	 -0.179065	 -0.130259	 0.773712	 -0.319442	 0.531375	 1
1463570278.366	 5	 0.914636	 -1.103548	 -3.366050	 1.865839	 -0.720584	 -0.176153	 -0.142996	 0.767334	 -0.331143	 0.530184	 1
1463570278.376	 5	 1.064974	 -1.199304	 -3.016548	 1.852833	 -0.753277	 -0.177655	 -0.154115	 0.760103	 -0.342437	 0.530310	 1
1463570278.386	 5	 1.041296	 -0.827877	 -2.701683	 1.840861	 -0.782870	 -0.181287	 -0.163459	 0.753555	 -0.353049	 0.529898	 1
1463570278.396	 5	 0.891685	 -0.208459	 -2.414321	 1.834645	 -0.809298	 -0.184814	 -0.170978	 0.748827	 -0.362820	 0.527622	 1
1463570278.406	 5	 0.727879	 0.351366	 -2.136982	 1.835092	 -0.832593	 -0.187215	 -0.176805	 0.746082	 -0.371671	 0.523414	 1
1463570278.416	 5	 0.638182	 0.770702	 -1.842412	 1.840381	 -0.852808	 -0.189120	 -0.180982	 0.744883	 -0.379704	 0.517899	 1
1463570278.426	 5	 0.636568	 1.085548	 -1.547449	 1.848510	 -0.870117	 -0.191756	 -0.183444	 0.744801	 -0.387154	 0.511597	 1
1463570278.436	 5	 0.696236	 1.276778	 -1.260565	 1.857520	 -0.884805	 -0.196152	 -0.184262	 0.745399	 -0.394209	 0.505002	 1
1463570278.446	 5	 0.772474	 1.371086	 -0.985384	 1.865761	 -0.897063	 -0.202854	 -0.183622	 0.746304	 -0.400906	 0.498586	 1
1463570278.456	 5	 0.834839	 1.514995	 -0.769304	 1.873687	 -0.907275	 -0.211604	 -0.181653	 0.747567	 -0.407337	 0.492160	 1
1463570278.466	 5	 0.902677	 1.554914	 -0.664013	 1.880978	 -0.916464	 -0.222022	 -0.178858	 0.748930	 -0.413721	 0.485745	 1
1463570278.476	 5	 0.917206	 1.483472	 -0.682922	 1.887270	 -0.925676	 -0.233070	 -0.176005	 0.750059	 -0.420124	 0.479510	 1
1463570278.486	 5	 0.842037	 1.274225	 -0.820633	 1.892862	 -0.935790	 -0.242735	 -0.174042	 0.750725	 -0.426395	 0.473612	 1
1463570278.496	 5	 0.718632	 0.878259	 -1.058776	 1.897342	 -0.947613	 -0.249462	 -0.173874	 0.750582	 -0.432423	 0.468407	 1
1463570278.506	 5	 0.539786	 0.306619	 -1.343900	 1.899812	 -0.961543	 -0.252005	 -0.176282	 0.749250	 -0.437989	 0.464451	 1
1463570278.516	 5	 0.308700	 -0.216268	 -1.673942	 1.901336	 -0.977744	 -0.249033	 -0.181577	 0.746810	 -0.442948	 0.461629	 1
1463570278.536	 6	 -0.248817	 -0.826211	 -2.406942	 1.911228	 -1.018109	 -0.222160	 -0.200470	 0.739902	 -0.451414	 0.456708	 1
1463570278.546	 6	 -0.564145	 -0.993712	 -2.605053	 1.923795	 -1.040581	 -0.196338	 -0.213215	 0.736177	 -0.454465	 0.453922	 1
1463570278.556	 6	 -0.797185	 -1.046476	 -2.641882	 1.941966	 -1.062621	 -0.163430	 -0.226964	 0.732619	 -0.456549	 0.450909	 1
1463570278.566	 6	 -0.877016	 -1.041650	 -2.595315	 1.964309	 -1.083596	 -0.126145	 -0.240836	 0.729213	 -0.458018	 0.447734	 1
1463570278.576	 6	 -0.689432	 -1.149133	 -2.527608	 1.985987	 -1.104000	 -0.089253	 -0.254310	 0.725320	 -0.459574	 0.445005	 1
1463570278.586	 6	 -0.277920	 -1.474649	 -2.515036	 2.000373	 -1.125319	 -0.057835	 -0.267432	 0.719868	 -0.461948	 0.443705	 1
1463570278.596	 6	 0.120949	 -1.893511	 -2.619391	 2.005296	 -1.148909	 -0.032678	 -0.280776	 0.712286	 -0.465331	 0.444162	 1
1463570278.606	 6	 0.353330	 -2.238089	 -2.814327	 2.004037	 -1.175251	 -0.010519	 -0.294902	 0.702789	 -0.469455	 0.445794	 1
1463570278.616	 6	 0.415448	 -2.433661	 -3.063944	 2.002270	 -1.204172	 0.013348	 -0.310091	 0.691954	 -0.473948	 0.447679	 1
1463570278.626	 6	 0.378405	 -2.559179	 -3.374929	 2.006317	 -1.235743	 0.044403	 -0.326637	 0.680198	 -0.478602	 0.448975	 1
1463570278.636	 6	 0.287451	 -2.467616	 -3.545934	 2.019014	 -1.268488	 0.084169	 -0.343822	 0.668055	 -0.483167	 0.449487	 1
1463570278.646	 6	 0.214423	 -2.031876	 -3.348472	 2.041887	 -1.300190	 0.130479	 -0.359860	 0.656629	 -0.487831	 0.448731	 1
1463570278.656	 6	 0.144210	 -1.495218	 -2.854748	 2.073412	 -1.327386	 0.179884	 -0.373228	 0.647110	 -0.492076	 0.447002	 1
1463570278.666	 6	 0.081213	 -0.959216	 -2.155401	 2.107973	 -1.348206	 0.226695	 -0.383267	 0.639991	 -0.495532	 0.444933	 1
1463570278.676	 6	 0.005308	 -0.379244	 -1.264760	 2.137501	 -1.361096	 0.262256	 -0.389277	 0.635878	 -0.497934	 0.442926	 1
1463570278.686	 6	 -0.079044	 -0.050936	 -0.320968	 2.153012	 -1.365408	 0.279205	 -0.391428	 0.634710	 -0.498758	 0.441778	 1
1463570278.696	 6	 -0.138704	 -0.113136	 0.317364	 2.152245	 -1.363114	 0.279244	 -0.391301	 0.635222	 -0.497775	 0.442262	 1
1463570278.706	 6	 -0.122512	 -0.194043	 0.460348	 2.144087	 -1.358643	 0.272772	 -0.390622	 0.636019	 -0.496009	 0.443700	 1
1463570278.716	 6	 -0.075818	 -0.166183	 0.361085	 2.136049	 -1.354862	 0.266358	 -0.390011	 0.636611	 -0.494509	 0.445060	 1
1463570278.726	 6	 -0.040014	 -0.117597	 0.182177	 2.130961	 -1.352653	 0.262457	 -0.389693	 0.636893	 -0.493595	 0.445948	 1
1463570278.736	 6	 -0.030083	 -0.094717	 -0.031915	 2.130671	 -1.352305	 0.263164	 -0.389937	 0.636794	 -0.493256	 0.446252	 1
1463570278.746	 6	 -0.012368	 -0.078672	 -0.158745	 2.133904	 -1.353367	 0.267334	 -0.390627	 0.636387	 -0.493337	 0.446140	 1
1463570278.756	 6	 0.011443	 -0.063245	 -0.103257	 2.193169	 -1.326284	 0.325809	 -0.391091	 0.646228	 -0.482052	 0.443918	 1
1463570278.766	 6	 0.006666	 -0.062217	 0.036409	 2.192183	 -1.326301	 0.325475	 -0.391222	 0.646070	 -0.481940	 0.444154	 1
1463570278.786	 7	 0.011068	 0.152958	 0.083135	 2.188641	 -1.324996	 0.320539	 -0.390306	 0.646637	 -0.481863	 0.444217	 1
1463570278.796	 7	 0.004082	 0.280538	 0.060871	 2.227732	 -1.325659	 0.355946	 -0.392433	 0.648152	 -0.481931	 0.440044	 1
1463570278.816	 8	 0.013938	 0.556017	 0.065480	 2.233372	 -1.324805	 0.352152	 -0.389736	 0.650389	 -0.483548	 0.437357	 1
1463570278.826	 8	 0.000176	 0.561532	 0.086967	 2.236957	 -1.324191	 0.350004	 -0.388095	 0.651774	 -0.484485	 0.435714	 1
1463570278.836	 8	 -0.003201	 0.511831	 0.114122	 2.284637	 -1.330364	 0.391025	 -0.390588	 0.652224	 -0.487203	 0.429743	 1
1463570278.846	 8	 0.013606	 0.434318	 0.138832	 2.285413	 -1.329416	 0.387118	 -0.389023	 0.653442	 -0.487836	 0.428591	 1
1463570278.856	 8	 0.024658	 0.298064	 0.127876	 2.284498	 -1.328556	 0.382717	 -0.387715	 0.654365	 -0.488278	 0.427865	 1
1463570278.876	 9	 -0.047100	 -0.061337	 -0.043250	 2.309415	 -1.324764	 0.405419	 -0.388688	 0.656438	 -0.486841	 0.425436	 1
1463570278.886	 9	 -0.085142	 -0.115204	 -0.153194	 2.313974	 -1.325160	 0.411282	 -0.389542	 0.656145	 -0.486631	 0.425348	 1
1463570278.896	 9	 -0.079793	 -0.047709	 -0.230413	 2.321556	 -1.326182	 0.419813	 -0.390593	 0.655778	 -0.486683	 0.424890	 1
1463570278.906	 9	 -0.062228	 0.038543	 -0.209514	 2.329758	 -1.327337	 0.428067	 -0.391411	 0.655548	 -0.486973	 0.424160	 1
1463570278.916	 9	 -0.052104	 0.074257	 -0.120811	 2.336111	 -1.328025	 0.433882	 -0.391832	 0.655543	 -0.487246	 0.423466	 1
1463570278.936	 10	 -0.008529	 0.104338	 0.074087	 2.368779	 -1.325274	 0.463685	 -0.393431	 0.657436	 -0.486326	 0.420092	 1
1463570278.946	 10	 -0.018223	 0.047260	 0.119468	 2.366674	 -1.324406	 0.460854	 -0.392943	 0.657821	 -0.486175	 0.420121	 1
1463570278.956	 10	 -0.017203	 0.020930	 0.147886	 2.397717	 -1.328513	 0.490507	 -0.395441	 0.657190	 -0.487659	 0.417033	 1
1463570278.966	 10	 -0.008582	 0.025275	 0.163837	 2.393487	 -1.327348	 0.485922	 -0.394883	 0.657579	 -0.487333	 0.417330	 1
1463570278.976	 10	 -0.017122	 0.016860	 0.173425	 2.389020	 -1.326090	 0.481085	 -0.394290	 0.657994	 -0.486980	 0.417648	 1
1463570278.986	 10	 -0.046133	 -0.021376	 0.169059	 2.384953	 -1.324629	 0.477009	 -0.393831	 0.658404	 -0.486471	 0.418028	 1
1463570278.996	 10	 -0.122598	 -0.157391	 0.155670	 2.381938	 -1.322833	 0.475068	 -0.393791	 0.658715	 -0.485595	 0.418593	 1
1463570279.006	 10	 -0.218333	 -0.317713	 0.156077	 2.380059	 -1.320361	 0.476013	 -0.394372	 0.658906	 -0.484080	 0.419501	 1
1463570279.016	 10	 -0.296838	 -0.458824	 0.172500	 2.378505	 -1.317169	 0.478811	 -0.395428	 0.659019	 -0.481962	 0.420765	 1
1463570279.026	 10	 -0.304561	 -0.517257	 0.178418	 2.376686	 -1.313735	 0.482166	 -0.396710	 0.659038	 -0.479577	 0.422251	 1
1463570279.036	 10	 -0.260890	 -0.530191	 0.172589	 2.373798	 -1.310540	 0.484645	 -0.397975	 0.658926	 -0.477252	 0.423868	 1
1463570279.046	 10	 -0.204542	 -0.547610	 0.139963	 2.370009	 -1.307957	 0.486290	 -0.399221	 0.658593	 -0.475154	 0.425566	 1
1463570279.056	 10	 -0.219065	 -0.654198	 0.102862	 2.366242	 -1.305658	 0.488860	 -0.400781	 0.657987	 -0.472969	 0.427467	 1
1463570279.066	 10	 -0.262312	 -0.738393	 0.061956	 2.363637	 -1.303370	 0.493646	 -0.402792	 0.657174	 -0.470540	 0.429503	 1
1463570279.076	 10	 -0.301945	 -0.760689	 0.051436	 2.362181	 -1.300929	 0.500003	 -0.405032	 0.656331	 -0.467938	 0.431524	 1
1463570279.086	 10	 -0.301535	 -0.680860	 0.059636	 2.361349	 -1.298337	 0.506513	 -0.407162	 0.655629	 -0.465363	 0.433367	 1
1463570279.096	 10	 -0.228010	 -0.468437	 0.048183	 2.361015	 -1.296204	 0.511615	 -0.408749	 0.655174	 -0.463365	 0.434700	 1
1463570279.106	 10	 -0.158817	 -0.256117	 0.020781	 2.361560	 -1.294772	 0.515388	 -0.409750	 0.654962	 -0.462103	 0.435420	 1
1463570279.116	 10	 -0.131523	 -0.111670	 0.003769	 2.363334	 -1.293784	 0.518669	 -0.410341	 0.654980	 -0.461371	 0.435612	 1
1463570279.126	 10	 -0.145052	 -0.022427	 -0.015532	 2.366512	 -1.292797	 0.522560	 -0.410809	 0.655178	 -0.460795	 0.435483	 1
1463570279.136	 10	 -0.098247	 0.218471	 -0.071249	 2.372311	 -1.292430	 0.526910	 -0.410872	 0.655659	 -0.460898	 0.434590	 1
1463570279.146	 10	 -0.180745	 0.188594	 -0.117703	 2.380674	 -1.292051	 0.533387	 -0.411041	 0.656260	 -0.461065	 0.433344	 1
1463570279.156	 10	 -0.267620	 0.144826	 -0.174905	 2.392265	 -1.291366	 0.543838	 -0.411754	 0.656829	 -0.460923	 0.431954	 1
1463570279.166	 10	 -0.387759	 0.039664	 -0.204679	 2.406413	 -1.290086	 0.557815	 -0.413007	 0.657393	 -0.460329	 0.430529	 1
1463570279.176	 10	 -0.466144	 -0.049558	 -0.219747	 2.422104	 -1.288147	 0.574500	 -0.414774	 0.657913	 -0.459237	 0.429202	 1
1463570279.186	 10	 -0.430780	 -0.016706	 -0.221881	 2.437535	 -1.286222	 0.590880	 -0.416524	 0.658411	 -0.458185	 0.427866	 1
1463570279.196	 10	 -0.344132	 0.024574	 -0.216873	 2.448203	 -1.279631	 0.602103	 -0.417468	 0.660387	 -0.455442	 0.426829	 1
1463570279.206	 10	 -0.268420	 0.004215	 -0.207064	 2.459766	 -1.278747	 0.614031	 -0.418736	 0.660630	 -0.454972	 0.425710	 1
1463570279.216	 10	 -0.223923	 -0.073482	 -0.196451	 2.469285	 -1.278196	 0.624490	 -0.420003	 0.660632	 -0.454528	 0.424932	 1
1463570279.226	 10	 -0.199620	 -0.161516	 -0.152720	 2.476407	 -1.277616	 0.633394	 -0.421305	 0.660450	 -0.453908	 0.424588	 1
1463570279.236	 10	 -0.226586	 -0.279050	 -0.088444	 2.459567	 -1.269332	 0.620275	 -0.420441	 0.662176	 -0.449917	 0.426997	 1
1463570279.246	 10	 -0.277021	 -0.390129	 -0.026159	 2.462335	 -1.267502	 0.627066	 -0.421991	 0.661899	 -0.448332	 0.427565	 1
1463570279.256	 10	 -0.277823	 -0.376991	 0.025127	 2.463700	 -1.265227	 0.632594	 -0.423421	 0.661721	 -0.446546	 0.428295	 1
1463570279.266	 10	 -0.237866	 -0.279237	 0.027820	 2.464865	 -1.263094	 0.637033	 -0.424544	 0.661684	 -0.445005	 0.428845	 1
1463570279.276	 10	 -0.165757	 -0.126373	 0.008335	 2.481979	 -1.258560	 0.655211	 -0.426595	 0.662866	 -0.442977	 0.427079	 1
1463570279.286	 10	 -0.120517	 -0.008695	 -0.026134	 2.484485	 -1.257636	 0.658220	 -0.427006	 0.663041	 -0.442507	 0.426884	 1
1463570279.296	 10	 -0.060197	 0.125009	 -0.044598	 2.487887	 -1.257290	 0.660851	 -0.427115	 0.663311	 -0.442536	 0.426326	 1
1463570279.306	 10	 0.000070	 0.230293	 -0.031418	 2.512549	 -1.255687	 0.682433	 -0.428776	 0.664418	 -0.442601	 0.422853	 1
1463570279.316	 10	 0.015023	 0.220783	 -0.016716	 2.515096	 -1.255924	 0.682689	 -0.428303	 0.664829	 -0.443186	 0.422074	 1
1463570279.326	 10	 -0.010101	 0.089047	 -0.006000	 2.516642	 -1.255957	 0.682944	 -0.428045	 0.665090	 -0.443477	 0.421617	 1
1463570279.336	 10	 -0.019374	 -0.073599	 0.002159	 2.516674	 -1.255792	 0.683354	 -0.428171	 0.665059	 -0.443332	 0.421690	 1
1463570279.346	 10	 0.036970	 -0.147971	 0.036147	 2.514296	 -1.255804	 0.682281	 -0.428341	 0.664784	 -0.443054	 0.422244	 1
1463570279.356	 10	 0.109837	 -0.137096	 0.098494	 2.509220	 -1.256069	 0.678463	 -0.428203	 0.664448	 -0.442878	 0.423096	 1
1463570279.366	 10	 0.051320	 -0.175619	 0.189234	 2.502102	 -1.255703	 0.672687	 -0.427850	 0.664288	 -0.442435	 0.424167	 1
1463570279.376	 10	 -0.106570	 -0.222534	 0.257357	 2.488219	 -1.251833	 0.661061	 -0.426933	 0.665001	 -0.440416	 0.426069	 1
1463570279.386	 10	 -0.155740	 -0.027625	 0.274520	 2.483593	 -1.248934	 0.657195	 -0.426566	 0.665722	 -0.439112	 0.426657	 1
1463570279.396	 10	 -0.098042	 0.247386	 0.233946	 2.481695	 -1.246527	 0.653234	 -0.425577	 0.666893	 -0.438605	 0.426338	 1
1463570279.406	 10	 -0.073374	 0.304480	 0.196961	 2.481361	 -1.244666	 0.649635	 -0.424381	 0.668151	 -0.438566	 0.425598	 1
1463570279.416	 10	 -0.060257	 0.162865	 0.178469	 2.484602	 -1.241969	 0.650420	 -0.423835	 0.669491	 -0.438022	 0.424596	 1
1463570279.426	 10	 -0.010105	 -0.031146	 0.138925	 2.481774	 -1.240857	 0.647254	 -0.423353	 0.669898	 -0.437657	 0.424812	 1
1463570279.436	 10	 0.077586	 -0.205946	 0.123746	 2.476284	 -1.240505	 0.643194	 -0.423180	 0.669696	 -0.437220	 0.425751	 1
1463570279.446	 10	 0.177558	 -0.281728	 0.127499	 2.467914	 -1.240918	 0.637221	 -0.423027	 0.669050	 -0.436885	 0.427260	 1
1463570279.456	 10	 0.223804	 -0.222197	 0.144786	 2.445724	 -1.238072	 0.617758	 -0.421224	 0.669261	 -0.435251	 0.430368	 1
1463570279.466	 10	 0.198174	 -0.012482	 0.159750	 2.437571	 -1.238653	 0.609929	 -0.420409	 0.668976	 -0.435452	 0.431403	 1
1463570279.476	 10	 0.118575	 0.286797	 0.183477	 2.433115	 -1.238575	 0.603010	 -0.419060	 0.669490	 -0.435979	 0.431386	 1
1463570279.496	 11	 0.024592	 0.728480	 0.181995	 2.440188	 -1.236204	 0.597269	 -0.415461	 0.672923	 -0.437751	 0.427717	 1
1463570279.506	 11	 0.007802	 0.822896	 0.141455	 2.444600	 -1.235315	 0.593465	 -0.413164	 0.674919	 -0.439125	 0.425380	 1
1463570279.516	 11	 -0.019829	 0.890675	 0.090104	 2.451323	 -1.234563	 0.591310	 -0.410917	 0.677015	 -0.440670	 0.422621	 1
1463570279.526	 11	 -0.028345	 0.924483	 0.055322	 2.459607	 -1.233943	 0.590372	 -0.408738	 0.679137	 -0.442319	 0.419594	 1
1463570279.536	 11	 -0.006141	 0.892415	 0.042046	 2.468004	 -1.233028	 0.589667	 -0.406592	 0.681311	 -0.443816	 0.416563	 1
1463570279.546	 11	 0.041369	 0.779569	 0.046977	 2.474667	 -1.232982	 0.588096	 -0.404573	 0.683027	 -0.445475	 0.413940	 1
1463570279.556	 11	 0.097221	 0.623110	 0.054627	 2.478608	 -1.233305	 0.585281	 -0.402747	 0.684312	 -0.446980	 0.411972	 1
1463570279.566	 11	 0.140629	 0.528506	 0.080013	 2.480192	 -1.233897	 0.581135	 -0.401001	 0.685293	 -0.448386	 0.410514	 1
1463570279.576	 11	 0.187740	 0.535070	 0.119052	 2.491235	 -1.234324	 0.585980	 -0.400203	 0.686454	 -0.449775	 0.407824	 1
1463570279.586	 11	 0.208616	 0.626786	 0.161289	 2.490238	 -1.235054	 0.578563	 -0.397914	 0.687512	 -0.451376	 0.406512	 1
1463570279.596	 11	 0.190181	 0.771657	 0.184113	 2.490032	 -1.235533	 0.570558	 -0.395228	 0.688913	 -0.453149	 0.404782	 1
1463570279.606	 11	 0.133039	 0.891861	 0.163348	 2.492204	 -1.235678	 0.563714	 -0.392382	 0.690656	 -0.455015	 0.402482	 1
1463570279.616	 11	 0.079899	 0.966231	 0.130397	 2.497234	 -1.235585	 0.558928	 -0.389575	 0.692628	 -0.456921	 0.399650	 1
1463570279.626	 11	 0.070275	 0.968333	 0.123040	 2.503006	 -1.235403	 0.554754	 -0.386798	 0.694642	 -0.458800	 0.396689	 1
1463570279.636	 11	 0.095665	 0.940439	 0.100178	 2.508384	 -1.235460	 0.550418	 -0.384056	 0.696523	 -0.460716	 0.393823	 1
1463570279.646	 11	 0.086400	 0.849512	 0.024809	 2.514660	 -1.235933	 0.547703	 -0.381683	 0.698133	 -0.462639	 0.391017	 1
1463570279.656	 11	 0.052965	 0.598036	 -0.033803	 2.520707	 -1.236556	 0.547086	 -0.380095	 0.699243	 -0.464158	 0.388774	 1
1463570279.666	 11	 0.053951	 0.410360	 -0.099494	 2.525278	 -1.236675	 0.547265	 -0.379101	 0.700060	 -0.465038	 0.387218	 1
1463570279.676	 11	 0.128022	 0.288786	 -0.114060	 2.529283	 -1.238210	 0.548227	 -0.378573	 0.700192	 -0.466221	 0.386072	 1
1463570279.686	 11	 0.176461	 0.352670	 -0.085111	 2.531976	 -1.240127	 0.547622	 -0.377814	 0.700251	 -0.467608	 0.385028	 1
1463570279.696	 11	 0.166515	 0.461575	 -0.031789	 2.534589	 -1.241804	 0.545783	 -0.376630	 0.700597	 -0.469121	 0.383717	 1
1463570279.706	 11	 0.128884	 0.568633	 0.048502	 2.529577	 -1.233090	 0.535598	 -0.373843	 0.704155	 -0.466667	 0.382921	 1
1463570279.716	 11	 0.112439	 0.635203	 0.128131	 2.531344	 -1.233410	 0.530871	 -0.371779	 0.705278	 -0.468027	 0.381200	 1
1463570279.726	 11	 0.098772	 0.631399	 0.184700	 2.532015	 -1.233265	 0.524842	 -0.369487	 0.706566	 -0.469240	 0.379548	 1
1463570279.736	 11	 0.077180	 0.560359	 0.206608	 2.531708	 -1.232783	 0.518348	 -0.367240	 0.707848	 -0.470222	 0.378123	 1
1463570279.746	 11	 0.068747	 0.375160	 0.184700	 2.532183	 -1.232621	 0.514106	 -0.365618	 0.708763	 -0.471045	 0.376955	 1
1463570279.756	 11	 0.034619	 0.179336	 0.154400	 2.529908	 -1.232069	 0.509309	 -0.364426	 0.709375	 -0.471314	 0.376623	 1
1463570279.766	 11	 0.001750	 0.021816	 0.126576	 2.527300	 -1.231374	 0.505901	 -0.363797	 0.709711	 -0.471204	 0.376736	 1
1463570279.776	 11	 0.002302	 -0.080353	 0.118160	 2.523975	 -1.230706	 0.503028	 -0.363527	 0.709805	 -0.470874	 0.377231	 1
1463570279.786	 11	 0.026024	 -0.031408	 0.126899	 2.530683	 -1.230482	 0.509484	 -0.364227	 0.709960	 -0.470790	 0.376367	 1
1463570279.796	 11	 0.061116	 0.174771	 0.118920	 2.528206	 -1.230214	 0.505616	 -0.363424	 0.710277	 -0.470960	 0.376332	 1
1463570279.806	 11	 0.096196	 0.383039	 0.105632	 2.527634	 -1.230294	 0.501437	 -0.362078	 0.710904	 -0.471674	 0.375551	 1
1463570279.816	 11	 0.146676	 0.469947	 0.083620	 2.527975	 -1.230876	 0.496949	 -0.360431	 0.711606	 -0.472808	 0.374377	 1
1463570279.826	 11	 0.207197	 0.419666	 0.066614	 2.532357	 -1.233189	 0.496384	 -0.359311	 0.711838	 -0.474625	 0.372710	 1
1463570279.836	 11	 0.272832	 0.313063	 0.059722	 2.530142	 -1.234919	 0.490444	 -0.357812	 0.711976	 -0.476023	 0.372106	 1
1463570279.846	 11	 0.380318	 0.273191	 0.031771	 2.526117	 -1.237535	 0.483306	 -0.356370	 0.711723	 -0.477673	 0.371859	 1
1463570279.856	 11	 0.530813	 0.335010	 -0.036107	 2.521501	 -1.241663	 0.474977	 -0.354737	 0.711116	 -0.480042	 0.371532	 1
1463570279.866	 11	 0.600352	 0.197154	 -0.097678	 2.515743	 -1.246949	 0.466315	 -0.353344	 0.710000	 -0.482730	 0.371511	 1
1463570279.876	 11	 0.592927	 0.010784	 -0.133452	 2.509001	 -1.252528	 0.458642	 -0.352580	 0.708430	 -0.485176	 0.372047	 1
1463570279.886	 11	 0.574234	 -0.153590	 -0.075146	 2.502476	 -1.257751	 0.452713	 -0.352384	 0.706691	 -0.487195	 0.372900	 1
1463570279.896	 11	 0.576202	 -0.238258	 -0.016268	 2.490402	 -1.262504	 0.442323	 -0.351962	 0.704835	 -0.488884	 0.374597	 1
1463570279.906	 11	 0.603873	 -0.313344	 0.054199	 2.474924	 -1.266995	 0.429216	 -0.351439	 0.702879	 -0.490391	 0.376787	 1
1463570279.916	 11	 0.615632	 -0.341812	 0.093265	 2.457037	 -1.271242	 0.414012	 -0.350801	 0.700887	 -0.491789	 0.379260	 1
1463570279.926	 11	 0.594051	 -0.390681	 0.091922	 2.440168	 -1.275726	 0.400113	 -0.350438	 0.698764	 -0.493228	 0.381640	 1
1463570279.936	 11	 0.535988	 -0.447192	 0.049271	 2.422552	 -1.279550	 0.386293	 -0.350281	 0.696659	 -0.494277	 0.384266	 1
1463570279.946	 11	 0.454842	 -0.449138	 0.041434	 2.406289	 -1.282804	 0.374048	 -0.350328	 0.694688	 -0.495052	 0.386785	 1
1463570279.956	 11	 0.343930	 -0.407554	 0.010813	 2.392998	 -1.285410	 0.364512	 -0.350549	 0.692998	 -0.495580	 0.388934	 1
1463570279.966	 11	 0.209019	 -0.428894	 -0.060753	 2.411620	 -1.287654	 0.386047	 -0.353594	 0.692145	 -0.495545	 0.387739	 1
1463570279.976	 11	 0.075678	 -0.474801	 0.008189	 2.404675	 -1.288477	 0.383700	 -0.354574	 0.690962	 -0.495090	 0.389531	 1
1463570279.986	 11	 0.006583	 -0.435091	 0.029410	 2.399087	 -1.288436	 0.382627	 -0.355582	 0.690075	 -0.494291	 0.391197	 1
1463570279.996	 11	 0.043538	 -0.300060	 0.037805	 2.394159	 -1.288420	 0.380947	 -0.356218	 0.689413	 -0.493737	 0.392481	 1
1463570280.006	 11	 0.094012	 -0.253259	 0.059110	 2.386263	 -1.289759	 0.375564	 -0.356437	 0.688415	 -0.493905	 0.393821	 1
1463570280.016	 11	 0.115287	 -0.286135	 0.081000	 2.378943	 -1.290035	 0.370824	 -0.356639	 0.687733	 -0.493642	 0.395158	 1
1463570280.026	 11	 0.135381	 -0.324488	 0.080468	 2.370629	 -1.290428	 0.365415	 -0.356869	 0.686934	 -0.493381	 0.396664	 1
1463570280.036	 11	 0.124383	 -0.385154	 0.070407	 2.361925	 -1.290832	 0.360227	 -0.357274	 0.686009	 -0.493013	 0.398353	 1
1463570280.046	 11	 0.094256	 -0.417128	 0.047972	 2.358401	 -1.291827	 0.360473	 -0.358326	 0.684962	 -0.492715	 0.399576	 1
1463570280.056	 11	 0.067385	 -0.435324	 0.021393	 2.351591	 -1.292152	 0.357861	 -0.359142	 0.683969	 -0.492141	 0.401248	 1
1463570280.066	 11	 0.052376	 -0.424859	 -0.008220	 2.345979	 -1.292548	 0.356497	 -0.360097	 0.682967	 -0.491558	 0.402811	 1
1463570280.076	 11	 0.038523	 -0.404747	 -0.027096	 2.341354	 -1.293007	 0.355950	 -0.361094	 0.681995	 -0.491010	 0.404232	 1
1463570280.086	 11	 0.020472	 -0.368632	 -0.042598	 2.343419	 -1.292932	 0.361581	 -0.362499	 0.681417	 -0.490216	 0.404913	 1
1463570280.096	 11	 -0.011324	 -0.322799	 -0.041895	 2.341226	 -1.293203	 0.362795	 -0.363477	 0.680670	 -0.489676	 0.405944	 1
1463570280.106	 11	 -0.009004	 -0.279233	 -0.046838	 2.339735	 -1.293447	 0.364253	 -0.364363	 0.680029	 -0.489202	 0.406796	 1
1463570280.116	 11	 0.000748	 -0.252632	 -0.041347	 2.338317	 -1.293757	 0.365449	 -0.365148	 0.679428	 -0.488818	 0.407555	 1
1463570280.126	 11	 0.009454	 -0.232329	 -0.024172	 2.334042	 -1.293759	 0.363650	 -0.365582	 0.678884	 -0.488405	 0.408567	 1
1463570280.136	 11	 0.025478	 -0.232346	 -0.020049	 2.331696	 -1.294065	 0.363620	 -0.366176	 0.678318	 -0.488099	 0.409340	 1
1463570280.146	 11	 0.043572	 -0.249357	 -0.011839	 2.328583	 -1.294437	 0.362926	 -0.366739	 0.677695	 -0.487813	 0.410207	 1
1463570280.156	 11	 0.062789	 -0.254672	 -0.003529	 2.324680	 -1.294868	 0.361521	 -0.367261	 0.677022	 -0.487549	 0.411164	 1
1463570280.166	 11	 0.082080	 -0.246203	 0.000651	 2.313379	 -1.296423	 0.352891	 -0.367265	 0.675812	 -0.487845	 0.412798	 1
1463570280.176	 11	 0.095991	 -0.239847	 0.002720	 2.308467	 -1.297036	 0.350291	 -0.367652	 0.675090	 -0.487713	 0.413789	 1
1463570280.186	 11	 0.109863	 -0.240945	 0.003655	 2.303185	 -1.297720	 0.347312	 -0.368012	 0.674339	 -0.487618	 0.414805	 1
1463570280.196	 11	 0.131224	 -0.239922	 0.006676	 2.297301	 -1.298517	 0.343688	 -0.368315	 0.673545	 -0.487590	 0.415857	 1
1463570280.206	 11	 0.147237	 -0.242086	 0.008650	 2.288519	 -1.299744	 0.337248	 -0.368430	 0.672535	 -0.487778	 0.417167	 1
1463570280.216	 11	 0.156852	 -0.239988	 0.008586	 2.281688	 -1.300693	 0.332666	 -0.368668	 0.671669	 -0.487835	 0.418285	 1
1463570280.226	 11	 0.164437	 -0.211330	 0.003457	 2.274901	 -1.301713	 0.327899	 -0.368845	 0.670822	 -0.487967	 0.419333	 1
1463570280.236	 11	 0.168835	 -0.174199	 -0.007959	 2.268539	 -1.302828	 0.323201	 -0.368957	 0.670021	 -0.488199	 0.420243	 1
1463570280.246	 11	 0.174245	 -0.143453	 -0.021605	 2.271017	 -1.304722	 0.326720	 -0.369760	 0.669326	 -0.488630	 0.420144	 1
1463570280.256	 11	 0.168988	 -0.117987	 -0.031979	 2.265677	 -1.306046	 0.322470	 -0.369804	 0.668594	 -0.489035	 0.420800	 1
1463570280.266	 11	 0.160539	 -0.103039	 -0.027504	 2.260672	 -1.307316	 0.318385	 -0.369820	 0.667916	 -0.489446	 0.421384	 1
1463570280.276	 11	 0.145579	 -0.111465	 -0.022123	 2.255849	 -1.308443	 0.314512	 -0.369847	 0.667279	 -0.489793	 0.421965	 1
1463570280.286	 11	 0.135805	 -0.146492	 -0.018122	 2.258574	 -1.309587	 0.318208	 -0.370555	 0.666829	 -0.489946	 0.421879	 1
1463570280.296	 11	 0.123822	 -0.200680	 -0.015325	 2.253382	 -1.310516	 0.314762	 -0.370794	 0.666094	 -0.490059	 0.422698	 1
1463570280.306	 11	 0.121413	 -0.260224	 -0.013727	 2.247716	 -1.311386	 0.311448	 -0.371189	 0.665250	 -0.490035	 0.423707	 1
1463570280.316	 11	 0.131810	 -0.317694	 -0.014352	 2.241262	 -1.312305	 0.307909	 -0.371711	 0.664264	 -0.489929	 0.424916	 1
1463570280.326	 11	 0.151923	 -0.361287	 -0.004282	 2.234197	 -1.313682	 0.304207	 -0.372391	 0.663039	 -0.489916	 0.426247	 1
1463570280.336	 11	 0.178637	 -0.364465	 0.008245	 2.225241	 -1.314693	 0.298737	 -0.372905	 0.661846	 -0.489791	 0.427793	 1
1463570280.346	 11	 0.197959	 -0.343226	 0.011472	 2.215590	 -1.315773	 0.292363	 -0.373306	 0.660646	 -0.489756	 0.429334	 1
1463570280.356	 11	 0.198098	 -0.311339	 0.008570	 2.206068	 -1.316883	 0.285840	 -0.373636	 0.659488	 -0.489791	 0.430785	 1
1463570280.366	 11	 0.185450	 -0.270909	 0.004808	 2.199256	 -1.316504	 0.281567	 -0.373843	 0.658929	 -0.489300	 0.432018	 1
1463570280.376	 11	 0.167490	 -0.223075	 -0.006314	 2.191610	 -1.317547	 0.276104	 -0.374061	 0.657990	 -0.489436	 0.433105	 1
1463570280.386	 11	 0.147383	 -0.185801	 -0.007924	 2.185019	 -1.318496	 0.271315	 -0.374235	 0.657178	 -0.489589	 0.434014	 1
1463570280.396	 11	 0.129488	 -0.141011	 0.001175	 2.179268	 -1.319265	 0.266954	 -0.374322	 0.656519	 -0.489742	 0.434763	 1
1463570280.406	 11	 0.119043	 -0.102594	 0.015521	 2.170690	 -1.317324	 0.259467	 -0.373679	 0.656620	 -0.489058	 0.435932	 1
1463570280.416	 11	 0.114933	 -0.079096	 0.027499	 2.165625	 -1.317768	 0.255102	 -0.373551	 0.656201	 -0.489226	 0.436483	 1
1463570280.426	 11	 0.111824	 -0.063100	 0.031938	 2.160644	 -1.318141	 0.250642	 -0.373363	 0.655838	 -0.489406	 0.436989	 1
1463570280.436	 11	 0.104387	 -0.058800	 0.035240	 2.155882	 -1.318439	 0.246343	 -0.373164	 0.655512	 -0.489565	 0.437468	 1
1463570280.446	 11	 0.099129	 -0.040717	 0.033323	 2.151410	 -1.318710	 0.242199	 -0.372942	 0.655228	 -0.489736	 0.437892	 1
1463570280.456	 11	 0.091790	 -0.007768	 0.027299	 2.147602	 -1.318977	 0.238452	 -0.372689	 0.655015	 -0.489944	 0.438194	 1
1463570280.466	 11	 0.080314	 0.051794	 0.022624	 2.144723	 -1.319236	 0.235109	 -0.372340	 0.654932	 -0.490234	 0.438290	 1
1463570280.476	 11	 0.069991	 0.124163	 0.024453	 2.142915	 -1.319430	 0.232142	 -0.371842	 0.655031	 -0.490618	 0.438134	 1
1463570280.486	 11	 0.061846	 0.198715	 0.034809	 2.141980	 -1.319501	 0.229323	 -0.371159	 0.655330	 -0.491087	 0.437741	 1
1463570280.496	 11	 0.062256	 0.273287	 0.052602	 2.138115	 -1.316601	 0.222922	 -0.369549	 0.656505	 -0.490725	 0.437748	 1
1463570280.506	 11	 0.072215	 0.331899	 0.072244	 2.137660	 -1.316411	 0.219167	 -0.368397	 0.657153	 -0.491394	 0.436996	 1
1463570280.516	 11	 0.084159	 0.361762	 0.088405	 2.136831	 -1.316141	 0.214628	 -0.367066	 0.657884	 -0.492135	 0.436182	 1
1463570280.526	 11	 0.094905	 0.365029	 0.103262	 2.135432	 -1.315797	 0.209406	 -0.365636	 0.658634	 -0.492893	 0.435394	 1
1463570280.546	 12	 0.134435	 0.366000	 0.108276	 2.123778	 -1.314878	 0.190300	 -0.362065	 0.659838	 -0.494598	 0.434622	 1
1463570280.556	 12	 0.255899	 0.504487	 -0.105711	 2.121876	 -1.316201	 0.183663	 -0.360567	 0.660248	 -0.496168	 0.433452	 1
1463570280.566	 12	 0.375959	 0.540080	 -0.282276	 2.121169	 -1.320512	 0.177175	 -0.359326	 0.660041	 -0.498983	 0.431564	 1
1463570280.576	 12	 0.351593	 0.494078	 -0.182311	 2.118150	 -1.324079	 0.168911	 -0.357957	 0.659861	 -0.501491	 0.430065	 1
1463570280.586	 12	 0.314193	 0.461409	 -0.155645	 2.115161	 -1.327159	 0.160960	 -0.356611	 0.659768	 -0.503757	 0.428678	 1
1463570280.596	 12	 0.275742	 0.421391	 -0.116249	 2.112224	 -1.329703	 0.153498	 -0.355327	 0.659748	 -0.505731	 0.427447	 1
1463570280.606	 12	 0.270267	 0.377920	 -0.099554	 2.108791	 -1.331975	 0.145942	 -0.354098	 0.659714	 -0.507536	 0.426379	 1
1463570280.616	 12	 0.245417	 0.295190	 -0.077726	 2.104751	 -1.333986	 0.138552	 -0.353039	 0.659593	 -0.509103	 0.425575	 1
1463570280.626	 12	 0.233561	 0.258104	 -0.063048	 2.100386	 -1.335746	 0.131337	 -0.352083	 0.659442	 -0.510484	 0.424947	 1
1463570280.636	 12	 0.228108	 0.231544	 -0.061116	 2.095732	 -1.337425	 0.124096	 -0.351184	 0.659256	 -0.511790	 0.424408	 1
1463570280.646	 12	 0.210879	 0.196517	 -0.058094	 2.091095	 -1.339007	 0.117225	 -0.350392	 0.659035	 -0.512985	 0.423963	 1
1463570280.656	 12	 0.177599	 0.162430	 -0.069924	 2.087343	 -1.340496	 0.111603	 -0.349773	 0.658808	 -0.514037	 0.423553	 1
1463570280.666	 12	 0.135560	 0.090087	 -0.089415	 2.084756	 -1.341960	 0.107830	 -0.349463	 0.658511	 -0.514891	 0.423233	 1
1463570280.676	 12	 0.102088	 0.028315	 -0.114211	 2.083337	 -1.343437	 0.105947	 -0.349478	 0.658129	 -0.515552	 0.423010	 1
1463570280.686	 12	 0.097562	 -0.007991	 -0.135824	 2.082449	 -1.345047	 0.105045	 -0.349706	 0.657650	 -0.516144	 0.422846	 1
1463570280.696	 12	 0.096317	 -0.029400	 -0.155196	 2.081748	 -1.346841	 0.104579	 -0.350062	 0.657083	 -0.516739	 0.422705	 1
1463570280.706	 12	 0.100572	 -0.024164	 -0.164777	 2.081205	 -1.348745	 0.104303	 -0.350461	 0.656485	 -0.517359	 0.422545	 1
1463570280.716	 12	 0.115591	 -0.004030	 -0.168983	 2.080387	 -1.350767	 0.103560	 -0.350799	 0.655878	 -0.518069	 0.422338	 1
1463570280.726	 12	 0.127515	 0.032102	 -0.167677	 2.075387	 -1.352644	 0.098407	 -0.350752	 0.655201	 -0.518925	 0.422375	 1
1463570280.736	 12	 0.135144	 0.062949	 -0.164259	 2.074210	 -1.354744	 0.096622	 -0.350861	 0.654680	 -0.519816	 0.421998	 1
1463570280.746	 12	 0.140636	 0.089579	 -0.156599	 2.072944	 -1.356795	 0.094476	 -0.350868	 0.654217	 -0.520749	 0.421559	 1
1463570280.756	 12	 0.138545	 0.102318	 -0.160725	 2.071810	 -1.358869	 0.092295	 -0.350835	 0.653782	 -0.521719	 0.421063	 1
1463570280.766	 12	 0.131068	 0.102306	 -0.164923	 2.067860	 -1.361297	 0.087347	 -0.350702	 0.653141	 -0.522895	 0.420708	 1
1463570280.776	 12	 0.126731	 0.090595	 -0.168192	 2.067290	 -1.363377	 0.085801	 -0.350735	 0.652712	 -0.523829	 0.420185	 1
1463570280.786	 12	 0.125526	 0.066096	 -0.173738	 2.066672	 -1.365492	 0.084423	 -0.350843	 0.652234	 -0.524729	 0.419715	 1
1463570280.796	 12	 0.118959	 0.034181	 -0.177175	 2.066030	 -1.367619	 0.083333	 -0.351053	 0.651697	 -0.525567	 0.419323	 1
1463570280.806	 12	 0.120943	 -0.000903	 -0.174328	 2.064560	 -1.370245	 0.081767	 -0.351422	 0.650930	 -0.526527	 0.419002	 1
1463570280.816	 12	 0.115492	 -0.034839	 -0.162873	 2.063080	 -1.372261	 0.080527	 -0.351786	 0.650274	 -0.527209	 0.418856	 1
1463570280.826	 12	 0.111115	 -0.070875	 -0.147184	 2.061059	 -1.374128	 0.079101	 -0.352206	 0.649580	 -0.527783	 0.418858	 1
1463570280.836	 12	 0.106793	 -0.096267	 -0.130330	 2.058512	 -1.375824	 0.077432	 -0.352656	 0.648866	 -0.528256	 0.418989	 1
1463570280.846	 12	 0.099283	 -0.118455	 -0.113431	 2.058245	 -1.377973	 0.078220	 -0.353386	 0.648071	 -0.528768	 0.418960	 1
1463570280.856	 12	 0.084326	 -0.128985	 -0.104873	 2.055483	 -1.379330	 0.076698	 -0.353880	 0.647381	 -0.529055	 0.419246	 1
1463570280.866	 12	 0.068314	 -0.136329	 -0.097341	 2.053213	 -1.380536	 0.075748	 -0.354401	 0.646736	 -0.529258	 0.419546	 1
1463570280.876	 12	 0.060781	 -0.152238	 -0.094227	 2.051168	 -1.381662	 0.075166	 -0.354967	 0.646095	 -0.529395	 0.419882	 1
1463570280.886	 12	 0.059607	 -0.172458	 -0.096543	 2.050555	 -1.383160	 0.076189	 -0.355743	 0.645365	 -0.529574	 0.420121	 1
1463570280.896	 12	 0.053065	 -0.197996	 -0.100994	 2.050055	 -1.384653	 0.077574	 -0.356605	 0.644595	 -0.529694	 0.420421	 1
1463570280.906	 12	 0.051907	 -0.209745	 -0.108559	 2.050754	 -1.386015	 0.080310	 -0.357559	 0.643871	 -0.529700	 0.420713	 1
1463570280.916	 12	 0.051914	 -0.204447	 -0.111711	 2.051699	 -1.387297	 0.083270	 -0.358502	 0.643180	 -0.529676	 0.420998	 1
1463570280.926	 12	 0.050939	 -0.190560	 -0.104117	 2.051871	 -1.388634	 0.085362	 -0.359379	 0.642464	 -0.529715	 0.421293	 1
1463570280.936	 12	 0.044619	 -0.175616	 -0.099665	 2.052804	 -1.389891	 0.088043	 -0.360228	 0.641824	 -0.529740	 0.421514	 1
1463570280.946	 12	 0.041478	 -0.168104	 -0.092114	 2.054290	 -1.391132	 0.091180	 -0.361072	 0.641220	 -0.529763	 0.421681	 1
1463570280.956	 12	 0.037237	 -0.168035	 -0.084625	 2.055283	 -1.392500	 0.093820	 -0.361909	 0.640565	 -0.529845	 0.421856	 1
1463570280.966	 12	 0.024497	 -0.164711	 -0.071702	 2.055617	 -1.393705	 0.095794	 -0.362675	 0.639936	 -0.529894	 0.422091	 1
1463570280.976	 12	 0.007480	 -0.163502	 -0.058761	 2.056073	 -1.394760	 0.097890	 -0.363419	 0.639352	 -0.529888	 0.422343	 1
1463570280.986	 12	 -0.007455	 -0.170833	 -0.049115	 2.056461	 -1.395722	 0.099987	 -0.364163	 0.638779	 -0.529839	 0.422631	 1
1463570280.996	 12	 -0.019184	 -0.173941	 -0.042654	 2.058099	 -1.396382	 0.103374	 -0.364932	 0.638320	 -0.529644	 0.422907	 1
1463570281.006	 12	 -0.028779	 -0.175999	 -0.037264	 2.060143	 -1.396749	 0.107182	 -0.365672	 0.637952	 -0.529335	 0.423208	 1
1463570281.016	 12	 -0.038429	 -0.185534	 -0.036209	 2.063663	 -1.397056	 0.112536	 -0.366504	 0.637629	 -0.528949	 0.423457	 1
1463570281.026	 12	 -0.053492	 -0.209950	 -0.036309	 2.068221	 -1.397187	 0.119116	 -0.367420	 0.637350	 -0.528436	 0.423725	 1
1463570281.036	 12	 -0.078142	 -0.229026	 -0.037345	 2.075532	 -1.397238	 0.128672	 -0.368544	 0.637126	 -0.527774	 0.423911	 1
1463570281.046	 12	 -0.087750	 -0.232146	 -0.031968	 2.083002	 -1.397098	 0.138474	 -0.369672	 0.636941	 -0.527027	 0.424136	 1
1463570281.056	 12	 -0.089905	 -0.237432	 -0.028805	 2.089323	 -1.396879	 0.147171	 -0.370739	 0.636736	 -0.526277	 0.424444	 1
1463570281.066	 12	 -0.099571	 -0.249101	 -0.028833	 2.095049	 -1.396589	 0.155396	 -0.371802	 0.636509	 -0.525494	 0.424824	 1
1463570281.076	 12	 -0.104931	 -0.251226	 -0.030939	 2.100724	 -1.396219	 0.163657	 -0.372878	 0.636286	 -0.524668	 0.425236	 1
1463570281.086	 12	 -0.105960	 -0.237442	 -0.037194	 2.104677	 -1.395789	 0.170113	 -0.373824	 0.636048	 -0.523884	 0.425727	 1
1463570281.096	 12	 -0.104876	 -0.224759	 -0.047739	 2.108335	 -1.395409	 0.176167	 -0.374729	 0.635806	 -0.523148	 0.426198	 1
1463570281.106	 12	 -0.101656	 -0.214195	 -0.056189	 2.110944	 -1.395127	 0.181060	 -0.375556	 0.635528	 -0.522497	 0.426684	 1
1463570281.116	 12	 -0.100578	 -0.203641	 -0.066751	 2.113423	 -1.394914	 0.185752	 -0.376365	 0.635238	 -0.521887	 0.427149	 1
1463570281.126	 12	 -0.097335	 -0.188824	 -0.075162	 2.115617	 -1.394898	 0.190015	 -0.377143	 0.634909	 -0.521384	 0.427566	 1
1463570281.136	 12	 -0.101615	 -0.186732	 -0.081497	 2.119126	 -1.395060	 0.195525	 -0.378004	 0.634571	 -0.520924	 0.427868	 1
1463570281.146	 12	 -0.102728	 -0.194198	 -0.084753	 2.123851	 -1.395258	 0.202298	 -0.378953	 0.634241	 -0.520438	 0.428108	 1
1463570281.156	 12	 -0.101717	 -0.206957	 -0.083817	 2.129338	 -1.395547	 0.209930	 -0.379991	 0.633882	 -0.519946	 0.428319	 1
1463570281.166	 12	 -0.095365	 -0.218669	 -0.082917	 2.134467	 -1.395848	 0.217328	 -0.381049	 0.633483	 -0.519443	 0.428580	 1
1463570281.176	 12	 -0.093242	 -0.227130	 -0.075557	 2.139899	 -1.396096	 0.225113	 -0.382142	 0.633087	 -0.518897	 0.428852	 1
1463570281.186	 12	 -0.093213	 -0.226019	 -0.069155	 2.145249	 -1.396317	 0.232810	 -0.383223	 0.632696	 -0.518348	 0.429129	 1
1463570281.196	 12	 -0.091038	 -0.225947	 -0.058520	 2.150439	 -1.396458	 0.240335	 -0.384279	 0.632323	 -0.517778	 0.429422	 1
1463570281.206	 12	 -0.087776	 -0.220568	 -0.048909	 2.155612	 -1.396437	 0.247794	 -0.385295	 0.632006	 -0.517163	 0.429719	 1
1463570281.216	 12	 -0.087686	 -0.210909	 -0.037100	 2.160185	 -1.396377	 0.254561	 -0.386243	 0.631702	 -0.516570	 0.430029	 1
1463570281.226	 12	 -0.087594	 -0.203354	 -0.022114	 2.164667	 -1.396163	 0.261156	 -0.387138	 0.631456	 -0.515942	 0.430339	 1
1463570281.236	 12	 -0.088568	 -0.194739	 -0.008175	 2.168975	 -1.395894	 0.267480	 -0.387986	 0.631240	 -0.515320	 0.430638	 1
1463570281.246	 12	 -0.091662	 -0.183984	 0.006867	 2.173107	 -1.395517	 0.273516	 -0.388774	 0.631073	 -0.514688	 0.430927	 1
1463570281.256	 12	 -0.090515	 -0.177511	 0.019702	 2.176759	 -1.395018	 0.278984	 -0.389492	 0.630949	 -0.514042	 0.431231	 1
1463570281.266	 12	 -0.087291	 -0.177473	 0.026065	 2.179680	 -1.394397	 0.283709	 -0.390148	 0.630848	 -0.513371	 0.431585	 1
1463570281.276	 12	 -0.086211	 -0.179556	 0.032427	 2.182301	 -1.393704	 0.288144	 -0.390781	 0.630761	 -0.512677	 0.431965	 1
1463570281.286	 12	 -0.085092	 -0.174186	 0.039925	 2.184639	 -1.392894	 0.292255	 -0.391370	 0.630711	 -0.511956	 0.432359	 1
1463570281.296	 12	 -0.088221	 -0.164548	 0.047501	 2.186471	 -1.391988	 0.295790	 -0.391896	 0.630694	 -0.511225	 0.432772	 1
1463570281.306	 12	 -0.090279	 -0.150690	 0.050843	 2.188554	 -1.391063	 0.299439	 -0.392393	 0.630714	 -0.510511	 0.433136	 1
1463570281.316	 12	 -0.094472	 -0.137882	 0.055260	 2.190507	 -1.390065	 0.302823	 -0.392831	 0.630780	 -0.509803	 0.433477	 1
1463570281.326	 12	 -0.101875	 -0.125079	 0.057574	 2.192778	 -1.389009	 0.306401	 -0.393243	 0.630894	 -0.509094	 0.433769	 1
1463570281.336	 12	 -0.108225	 -0.115471	 0.059848	 2.195101	 -1.387930	 0.309941	 -0.393629	 0.631034	 -0.508394	 0.434036	 1
1463570281.346	 12	 -0.113514	 -0.110098	 0.065272	 2.197098	 -1.386846	 0.313089	 -0.393976	 0.631182	 -0.507712	 0.434304	 1
1463570281.356	 12	 -0.115593	 -0.105775	 0.073855	 2.198525	 -1.385677	 0.315632	 -0.394266	 0.631352	 -0.507019	 0.434604	 1
1463570281.366	 12	 -0.107054	 -0.114241	 0.083293	 2.198911	 -1.384536	 0.317184	 -0.394513	 0.631482	 -0.506346	 0.434977	 1
1463570281.376	 12	 -0.098562	 -0.127008	 0.086297	 2.198636	 -1.383409	 0.318177	 -0.394752	 0.631573	 -0.505668	 0.435415	 1
1463570281.386	 12	 -0.086834	 -0.133395	 0.090395	 2.198238	 -1.382428	 0.319132	 -0.395029	 0.631600	 -0.505026	 0.435869	 1
1463570281.396	 12	 -0.079270	 -0.124816	 0.103197	 2.197022	 -1.381299	 0.319225	 -0.395221	 0.631665	 -0.504357	 0.436376	 1
1463570281.406	 12	 -0.074901	 -0.113051	 0.113926	 2.195147	 -1.380034	 0.318506	 -0.395304	 0.631787	 -0.503686	 0.436899	 1
1463570281.416	 12	 -0.075946	 -0.106681	 0.111861	 2.194054	 -1.378735	 0.318475	 -0.395402	 0.631953	 -0.503006	 0.437352	 1
1463570281.426	 12	 -0.074884	 -0.105636	 0.109727	 2.193626	 -1.377475	 0.319074	 -0.395536	 0.632128	 -0.502335	 0.437750	 1
1463570281.436	 12	 -0.066391	 -0.120506	 0.115906	 2.192366	 -1.376335	 0.318963	 -0.395670	 0.632224	 -0.501697	 0.438222	 1
1463570281.446	 12	 -0.062114	 -0.109959	 0.105307	 2.190747	 -1.375207	 0.318450	 -0.395768	 0.632317	 -0.501080	 0.438705	 1
1463570281.456	 12	 -0.061120	 -0.119589	 0.097745	 2.189310	 -1.374266	 0.318178	 -0.395919	 0.632344	 -0.500515	 0.439175	 1
1463570281.466	 12	 -0.053725	 -0.127135	 0.086947	 2.187990	 -1.373565	 0.318103	 -0.396134	 0.632284	 -0.500016	 0.439636	 1
1463570281.476	 12	 -0.051665	 -0.132551	 0.074084	 2.187247	 -1.372965	 0.318658	 -0.396417	 0.632194	 -0.499529	 0.440063	 1
1463570281.486	 12	 -0.047474	 -0.135870	 0.058023	 2.186963	 -1.372503	 0.319708	 -0.396759	 0.632064	 -0.499074	 0.440456	 1
1463570281.496	 12	 -0.047583	 -0.143446	 0.039828	 2.187725	 -1.372145	 0.321860	 -0.397202	 0.631915	 -0.498622	 0.440784	 1
1463570281.506	 12	 -0.045559	 -0.152084	 0.022669	 2.189254	 -1.371992	 0.324867	 -0.397751	 0.631701	 -0.498207	 0.441064	 1
1463570281.516	 12	 -0.041382	 -0.161745	 0.011877	 2.190971	 -1.371870	 0.328166	 -0.398350	 0.631461	 -0.497777	 0.441353	 1
1463570281.526	 12	 -0.040369	 -0.166056	 0.004362	 2.192512	 -1.371701	 0.331351	 -0.398950	 0.631218	 -0.497319	 0.441674	 1
1463570281.536	 12	 -0.037170	 -0.162896	 0.001161	 2.194367	 -1.371503	 0.334831	 -0.399562	 0.630994	 -0.496849	 0.441970	 1
1463570281.546	 12	 -0.038224	 -0.155477	 -0.003027	 2.196176	 -1.371240	 0.338212	 -0.400146	 0.630799	 -0.496368	 0.442262	 1
1463570281.556	 12	 -0.040292	 -0.138466	 -0.004983	 2.198103	 -1.370891	 0.341574	 -0.400684	 0.630659	 -0.495883	 0.442517	 1
1463570281.566	 12	 -0.038094	 -0.120420	 -0.009098	 2.199723	 -1.370586	 0.344458	 -0.401154	 0.630533	 -0.495458	 0.442746	 1
1463570281.576	 12	 -0.034888	 -0.114085	 -0.014396	 2.201268	 -1.370342	 0.347178	 -0.401599	 0.630405	 -0.495077	 0.442953	 1
1463570281.586	 12	 -0.027418	 -0.109884	 -0.018685	 2.202436	 -1.370194	 0.349483	 -0.402018	 0.630246	 -0.494747	 0.443167	 1
1463570281.596	 12	 -0.024185	 -0.102447	 -0.018643	 2.203553	 -1.370043	 0.351665	 -0.402410	 0.630101	 -0.494433	 0.443367	 1
1463570281.606	 12	 -0.030531	 -0.094936	 -0.012121	 2.204528	 -1.369743	 0.353629	 -0.402751	 0.630015	 -0.494084	 0.443569	 1
1463570281.616	 12	 -0.033703	 -0.090648	 -0.008853	 2.205590	 -1.369362	 0.355622	 -0.403070	 0.629966	 -0.493717	 0.443757	 1
1463570281.626	 12	 -0.031588	 -0.094901	 -0.007844	 2.206613	 -1.369045	 0.357602	 -0.403403	 0.629892	 -0.493368	 0.443948	 1
1463570281.636	 12	 -0.032695	 -0.104456	 -0.005789	 2.207155	 -1.368731	 0.359189	 -0.403731	 0.629789	 -0.493010	 0.444194	 1
1463570281.646	 12	 -0.034838	 -0.112929	 0.001585	 2.206799	 -1.368010	 0.359982	 -0.403981	 0.629773	 -0.492498	 0.444558	 1
1463570281.656	 12	 -0.038030	 -0.120281	 0.013272	 2.206434	 -1.367393	 0.360838	 -0.404265	 0.629709	 -0.492008	 0.444931	 1
1463570281.666	 12	 -0.043360	 -0.126577	 0.022855	 2.206086	 -1.366691	 0.361760	 -0.404556	 0.629662	 -0.491476	 0.445322	 1
1463570281.676	 12	 -0.044417	 -0.131823	 0.032411	 2.205577	 -1.365911	 0.362582	 -0.404845	 0.629623	 -0.490904	 0.445745	 1
1463570281.686	 12	 -0.042272	 -0.136023	 0.040882	 2.204817	 -1.365096	 0.363177	 -0.405120	 0.629584	 -0.490319	 0.446194	 1
1463570281.696	 12	 -0.046544	 -0.141281	 0.047266	 2.204569	 -1.364205	 0.364322	 -0.405433	 0.629572	 -0.489687	 0.446621	 1
1463570281.706	 12	 -0.051864	 -0.142282	 0.053698	 2.204768	 -1.363268	 0.365937	 -0.405779	 0.629577	 -0.489023	 0.447026	 1
1463570281.716	 12	 -0.059328	 -0.139075	 0.052725	 2.205671	 -1.362376	 0.368218	 -0.406169	 0.629591	 -0.488369	 0.447367	 1
1463570281.726	 12	 -0.060440	 -0.141252	 0.045252	 2.207029	 -1.361569	 0.370960	 -0.406603	 0.629587	 -0.487736	 0.447670	 1
1463570281.736	 12	 -0.063653	 -0.131761	 0.032575	 2.209172	 -1.360834	 0.374432	 -0.407086	 0.629587	 -0.487124	 0.447896	 1
1463570281.746	 12	 -0.066838	 -0.119055	 0.023127	 2.211602	 -1.360121	 0.378085	 -0.407559	 0.629608	 -0.486539	 0.448073	 1
1463570281.756	 12	 -0.068912	 -0.099948	 0.016927	 2.213940	 -1.359430	 0.381487	 -0.407980	 0.629651	 -0.485999	 0.448215	 1
1463570281.766	 12	 -0.067844	 -0.095727	 0.012695	 2.215628	 -1.358779	 0.384173	 -0.408340	 0.629683	 -0.485502	 0.448382	 1
1463570281.776	 12	 -0.064636	 -0.096778	 0.015857	 2.216476	 -1.358111	 0.386030	 -0.408641	 0.629700	 -0.485012	 0.448613	 1
1463570281.786	 12	 -0.059291	 -0.100995	 0.023236	 2.216350	 -1.357356	 0.386966	 -0.408878	 0.629714	 -0.484498	 0.448933	 1
1463570281.796	 12	 -0.049671	 -0.102050	 0.028475	 2.215741	 -1.356646	 0.387420	 -0.409086	 0.629704	 -0.484010	 0.449285	 1
1463570281.806	 12	 -0.043249	 -0.104142	 0.035863	 2.214949	 -1.355918	 0.387696	 -0.409279	 0.629694	 -0.483517	 0.449652	 1
1463570281.816	 12	 -0.041071	 -0.099848	 0.042281	 2.214358	 -1.355170	 0.388124	 -0.409470	 0.629704	 -0.483024	 0.449994	 1
1463570281.826	 12	 -0.045321	 -0.095580	 0.042358	 2.214013	 -1.354433	 0.388752	 -0.409664	 0.629726	 -0.482540	 0.450306	 1
1463570281.836	 12	 -0.049586	 -0.092392	 0.040293	 2.214427	 -1.353713	 0.390090	 -0.409902	 0.629767	 -0.482058	 0.450549	 1
1463570281.846	 12	 -0.050698	 -0.099849	 0.038102	 2.214659	 -1.353051	 0.391308	 -0.410152	 0.629774	 -0.481587	 0.450815	 1
1463570281.856	 12	 -0.049715	 -0.113711	 0.033701	 2.214834	 -1.352442	 0.392600	 -0.410446	 0.629736	 -0.481106	 0.451113	 1
1463570281.866	 12	 -0.050833	 -0.121176	 0.030443	 2.215080	 -1.351846	 0.394060	 -0.410777	 0.629676	 -0.480607	 0.451428	 1
1463570281.876	 12	 -0.050834	 -0.120120	 0.029387	 2.215513	 -1.351259	 0.395714	 -0.411126	 0.629615	 -0.480106	 0.451729	 1
1463570281.886	 12	 -0.050804	 -0.111625	 0.027333	 2.216050	 -1.350699	 0.397394	 -0.411461	 0.629564	 -0.479629	 0.452002	 1
1463570281.896	 12	 -0.050768	 -0.101011	 0.024233	 2.216845	 -1.350178	 0.399232	 -0.411789	 0.629526	 -0.479185	 0.452227	 1
1463570281.906	 12	 -0.048620	 -0.095715	 0.022131	 2.217554	 -1.349621	 0.400923	 -0.412087	 0.629510	 -0.478742	 0.452446	 1
1463570281.916	 12	 -0.054979	 -0.086122	 0.022276	 2.218500	 -1.349031	 0.402772	 -0.412375	 0.629525	 -0.478300	 0.452630	 1
1463570281.926	 12	 -0.052782	 -0.073356	 0.023441	 2.219582	 -1.348433	 0.404640	 -0.412636	 0.629569	 -0.477879	 0.452776	 1
1463570281.936	 12	 -0.049516	 -0.059538	 0.023542	 2.220374	 -1.347876	 0.406086	 -0.412839	 0.629622	 -0.477509	 0.452908	 1
1463570281.946	 12	 -0.045203	 -0.049978	 0.023593	 2.221076	 -1.347396	 0.407328	 -0.413008	 0.629673	 -0.477194	 0.453015	 1
1463570281.956	 12	 -0.045182	 -0.043611	 0.021520	 2.221779	 -1.346942	 0.408504	 -0.413159	 0.629729	 -0.476905	 0.453103	 1
1463570281.966	 12	 -0.047302	 -0.040413	 0.021567	 2.222838	 -1.346460	 0.409990	 -0.413320	 0.629811	 -0.476608	 0.453155	 1
1463570281.976	 12	 -0.048365	 -0.039346	 0.021585	 2.223772	 -1.346034	 0.411345	 -0.413476	 0.629874	 -0.476336	 0.453211	 1
1463570281.986	 12	 -0.049459	 -0.041501	 0.017310	 2.224856	 -1.345678	 0.412863	 -0.413656	 0.629916	 -0.476084	 0.453253	 1
1463570281.996	 12	 -0.046289	 -0.045789	 0.014043	 2.225781	 -1.345408	 0.414259	 -0.413845	 0.629920	 -0.475858	 0.453311	 1
1463570282.006	 12	 -0.041000	 -0.052217	 0.009672	 2.226615	 -1.345185	 0.415625	 -0.414053	 0.629895	 -0.475639	 0.453388	 1
1463570282.016	 12	 -0.036728	 -0.053278	 0.011755	 2.227303	 -1.344989	 0.416866	 -0.414258	 0.629855	 -0.475427	 0.453478	 1
1463570282.026	 12	 -0.029244	 -0.052221	 0.013829	 2.227831	 -1.344781	 0.417926	 -0.414443	 0.629820	 -0.475218	 0.453577	 1
1463570282.036	 12	 -0.028179	 -0.054336	 0.015930	 2.228165	 -1.344540	 0.418805	 -0.414614	 0.629788	 -0.474999	 0.453695	 1
1463570282.046	 12	 -0.031390	 -0.059614	 0.020171	 2.228663	 -1.344245	 0.419884	 -0.414803	 0.629768	 -0.474747	 0.453813	 1
1463570282.056	 12	 -0.034626	 -0.064937	 0.018016	 2.229197	 -1.343924	 0.421062	 -0.415012	 0.629744	 -0.474471	 0.453943	 1
1463570282.066	 12	 -0.034640	 -0.066016	 0.015873	 2.229627	 -1.343671	 0.422163	 -0.415229	 0.629691	 -0.474217	 0.454084	 1
1463570282.076	 12	 -0.029320	 -0.069223	 0.015795	 2.230153	 -1.343399	 0.423378	 -0.415457	 0.629643	 -0.473948	 0.454223	 1
1463570282.086	 12	 -0.024014	 -0.072452	 0.012519	 2.230671	 -1.343168	 0.424606	 -0.415695	 0.629577	 -0.473691	 0.454365	 1
1463570282.096	 12	 -0.019768	 -0.075663	 0.011385	 2.231229	 -1.342912	 0.425901	 -0.415943	 0.629513	 -0.473418	 0.454511	 1
1463570282.106	 12	 -0.019780	 -0.075678	 0.009253	 2.231709	 -1.342614	 0.427137	 -0.416186	 0.629457	 -0.473126	 0.454670	 1
1463570282.116	 12	 -0.019733	 -0.065041	 0.009351	 2.232176	 -1.342252	 0.428275	 -0.416394	 0.629439	 -0.472829	 0.454814	 1
1463570282.126	 12	 -0.016491	 -0.056533	 0.010469	 2.232531	 -1.341883	 0.429208	 -0.416564	 0.629439	 -0.472553	 0.454944	 1
1463570282.136	 12	 -0.014293	 -0.041656	 0.009523	 2.232735	 -1.341565	 0.429862	 -0.416687	 0.629448	 -0.472328	 0.455053	 1
1463570282.146	 12	 -0.009979	 -0.028927	 0.006409	 2.232859	 -1.341255	 0.430302	 -0.416762	 0.629481	 -0.472138	 0.455136	 1
1463570282.156	 12	 -0.007803	 -0.022529	 0.009650	 2.232163	 -1.340965	 0.429866	 -0.416758	 0.629503	 -0.471984	 0.455269	 1
1463570282.166	 12	 -0.008864	 -0.025679	 0.014962	 2.231240	 -1.340629	 0.429206	 -0.416731	 0.629534	 -0.471817	 0.455423	 1
1463570282.176	 12	 -0.003531	 -0.028864	 0.018088	 2.230044	 -1.340248	 0.428299	 -0.416686	 0.629569	 -0.471632	 0.455608	 1
1463570282.186	 12	 -0.005661	 -0.033066	 0.024466	 2.228738	 -1.339827	 0.427320	 -0.416640	 0.629605	 -0.471426	 0.455813	 1
1463570282.196	 12	 -0.003513	 -0.029882	 0.024480	 2.227840	 -1.339400	 0.426717	 -0.416615	 0.629658	 -0.471218	 0.455979	 1
1463570282.206	 12	 -0.002448	 -0.028829	 0.023417	 2.227008	 -1.339019	 0.426157	 -0.416593	 0.629702	 -0.471030	 0.456132	 1
1463570282.216	 12	 -0.002436	 -0.026694	 0.024505	 2.226073	 -1.338565	 0.425487	 -0.416551	 0.629769	 -0.470819	 0.456295	 1
1463570282.226	 12	 -0.002370	 -0.014971	 0.027814	 2.225338	 -1.338093	 0.424920	 -0.416494	 0.629865	 -0.470619	 0.456422	 1
1463570282.236	 12	 -0.001255	 -0.004337	 0.027905	 2.224845	 -1.337670	 0.424476	 -0.416423	 0.629975	 -0.470460	 0.456498	 1
1463570282.246	 12	 0.003032	 0.002017	 0.025796	 2.224580	 -1.337346	 0.424181	 -0.416356	 0.630076	 -0.470351	 0.456532	 1
1463570282.256	 12	 0.004095	 0.005174	 0.021553	 2.224347	 -1.337108	 0.423882	 -0.416290	 0.630159	 -0.470282	 0.456549	 1
1463570282.266	 12	 0.001996	 0.013682	 0.020585	 2.224005	 -1.336876	 0.423409	 -0.416196	 0.630251	 -0.470233	 0.456559	 1
1463570282.276	 12	 0.003112	 0.023260	 0.021730	 2.223718	 -1.336691	 0.422898	 -0.416082	 0.630348	 -0.470221	 0.456541	 1
1463570282.286	 12	 0.009536	 0.028551	 0.020657	 2.223290	 -1.336619	 0.422166	 -0.415944	 0.630425	 -0.470272	 0.456508	 1
1463570282.296	 12	 0.014850	 0.026385	 0.017393	 2.222665	 -1.336621	 0.421245	 -0.415801	 0.630473	 -0.470353	 0.456488	 1
1463570282.306	 12	 0.019094	 0.022110	 0.016249	 2.221949	 -1.336636	 0.420259	 -0.415660	 0.630510	 -0.470435	 0.456481	 1
1463570282.316	 12	 0.015909	 0.023206	 0.019484	 2.221467	 -1.336581	 0.419513	 -0.415532	 0.630572	 -0.470484	 0.456461	 1
1463570282.326	 12	 0.012729	 0.026423	 0.021672	 2.221297	 -1.336455	 0.419042	 -0.415409	 0.630670	 -0.470510	 0.456412	 1
1463570282.336	 12	 0.008457	 0.023268	 0.024876	 2.221161	 -1.336332	 0.418616	 -0.415293	 0.630765	 -0.470533	 0.456362	 1
1463570282.356	 13	 0.008461	 0.025389	 0.023826	 2.220678	 -1.336152	 0.417592	 -0.415063	 0.630923	 -0.470599	 0.456285	 1
1463570282.366	 13	 0.009564	 0.033887	 0.022828	 2.220549	 -1.336116	 0.417109	 -0.414937	 0.631005	 -0.470669	 0.456214	 1
1463570282.376	 13	 0.005345	 0.043481	 0.024017	 2.220504	 -1.336059	 0.416619	 -0.414787	 0.631114	 -0.470750	 0.456116	 1
1463570282.386	 13	 0.003233	 0.050911	 0.020905	 2.220808	 -1.336001	 0.416397	 -0.414638	 0.631247	 -0.470842	 0.455971	 1
1463570282.396	 13	 0.002178	 0.055153	 0.018819	 2.221308	 -1.336040	 0.416326	 -0.414503	 0.631363	 -0.470977	 0.455794	 1
1463570282.406	 13	 0.004316	 0.059371	 0.014572	 2.222062	 -1.336142	 0.416459	 -0.414379	 0.631476	 -0.471141	 0.455581	 1
1463570282.416	 13	 0.007510	 0.061459	 0.010296	 2.222995	 -1.336275	 0.416747	 -0.414265	 0.631588	 -0.471318	 0.455346	 1
1463570282.426	 13	 0.008570	 0.063553	 0.006039	 2.223858	 -1.336473	 0.416953	 -0.414149	 0.631681	 -0.471524	 0.455110	 1
1463570282.436	 13	 0.014990	 0.068837	 0.003897	 2.224420	 -1.336716	 0.416810	 -0.413998	 0.631764	 -0.471763	 0.454884	 1
1463570282.446	 13	 0.018196	 0.069891	 0.003877	 2.224903	 -1.336872	 0.416563	 -0.413824	 0.631877	 -0.471977	 0.454664	 1
1463570282.456	 13	 0.012855	 0.068844	 0.003912	 2.225270	 -1.336970	 0.416209	 -0.413636	 0.632003	 -0.472170	 0.454458	 1
1463570282.476	 14	 0.005395	 0.060449	 0.016692	 2.225011	 -1.336685	 0.414640	 -0.413170	 0.632356	 -0.472367	 0.454187	 1
1463570282.486	 14	 0.006460	 0.053061	 0.025145	 2.224199	 -1.336303	 0.413264	 -0.412883	 0.632574	 -0.472369	 0.454142	 1
1463570282.496	 14	 0.006430	 0.043519	 0.029323	 2.223352	 -1.335903	 0.411939	 -0.412619	 0.632778	 -0.472346	 0.454122	 1
1463570282.506	 14	 0.006428	 0.042463	 0.030381	 2.222632	 -1.335573	 0.410764	 -0.412379	 0.632958	 -0.472342	 0.454093	 1
1463570282.516	 14	 0.007481	 0.042437	 0.027174	 2.222608	 -1.335340	 0.410271	 -0.412202	 0.633126	 -0.472362	 0.453999	 1
1463570282.526	 14	 0.006374	 0.039211	 0.021822	 2.223111	 -1.335236	 0.410323	 -0.412088	 0.633261	 -0.472415	 0.453859	 1
1463570282.536	 14	 0.007419	 0.038114	 0.017535	 2.223516	 -1.335294	 0.410315	 -0.411997	 0.633337	 -0.472522	 0.453725	 1
1463570282.546	 14	 0.007445	 0.058201	 0.000664	 2.224944	 -1.335492	 0.411152	 -0.411947	 0.633427	 -0.472700	 0.453458	 1
1463570282.556	 14	 0.008509	 0.065575	 -0.008874	 2.226521	 -1.335872	 0.412069	 -0.411907	 0.633480	 -0.472958	 0.453152	 1
1463570282.566	 14	 0.008533	 0.079326	 -0.019410	 2.228150	 -1.336323	 0.412920	 -0.411843	 0.633534	 -0.473269	 0.452809	 1
1463570282.576	 14	 0.010672	 0.082488	 -0.022600	 2.229336	 -1.336805	 0.413289	 -0.411733	 0.633578	 -0.473610	 0.452491	 1
1463570282.586	 14	 0.018103	 0.072900	 -0.021689	 2.229760	 -1.337271	 0.412975	 -0.411585	 0.633596	 -0.473942	 0.452254	 1
1463570282.596	 14	 0.018054	 0.059095	 -0.018620	 2.229597	 -1.337661	 0.412201	 -0.411422	 0.633598	 -0.474228	 0.452098	 1
1463570282.606	 14	 0.019106	 0.051676	 -0.014434	 2.229055	 -1.337968	 0.411138	 -0.411248	 0.633599	 -0.474472	 0.451999	 1
1463570282.616	 14	 0.016940	 0.040020	 -0.009193	 2.228344	 -1.338174	 0.410013	 -0.411084	 0.633607	 -0.474656	 0.451945	 1
1463570282.626	 14	 0.016924	 0.033660	 -0.006053	 2.227654	 -1.338334	 0.408979	 -0.410938	 0.633614	 -0.474808	 0.451907	 1
1463570282.636	 14	 0.014813	 0.033705	 -0.000706	 2.227168	 -1.338476	 0.408152	 -0.410808	 0.633630	 -0.474948	 0.451856	 1
1463570282.646	 14	 0.015876	 0.033694	 -0.001782	 2.227067	 -1.338686	 0.407699	 -0.410712	 0.633636	 -0.475108	 0.451768	 1
1463570282.656	 14	 0.011616	 0.036875	 -0.004959	 2.227685	 -1.338918	 0.407933	 -0.410665	 0.633656	 -0.475268	 0.451613	 1
1463570282.666	 14	 0.008393	 0.036846	 -0.010263	 2.228639	 -1.339189	 0.408510	 -0.410652	 0.633670	 -0.475434	 0.451431	 1
1463570282.676	 14	 0.006236	 0.036815	 -0.015576	 2.229916	 -1.339449	 0.409391	 -0.410657	 0.633697	 -0.475595	 0.451219	 1
1463570282.686	 14	 0.003028	 0.035761	 -0.015560	 2.231282	 -1.339676	 0.410389	 -0.410674	 0.633730	 -0.475734	 0.451010	 1
1463570282.696	 14	 0.004077	 0.029399	 -0.012432	 2.232285	 -1.339798	 0.411069	 -0.410664	 0.633779	 -0.475833	 0.450846	 1
1463570282.706	 14	 0.004032	 0.017722	 -0.009343	 2.232944	 -1.339867	 0.411515	 -0.410656	 0.633815	 -0.475893	 0.450739	 1
1463570282.716	 14	 -0.001335	 0.009244	 -0.007243	 2.233137	 -1.339864	 0.411602	 -0.410638	 0.633841	 -0.475912	 0.450699	 1
1463570282.726	 14	 -0.005616	 0.005018	 -0.005113	 2.233498	 -1.339841	 0.411908	 -0.410646	 0.633867	 -0.475909	 0.450659	 1
1463570282.736	 14	 -0.009885	 0.005030	 -0.005075	 2.233885	 -1.339807	 0.412249	 -0.410658	 0.633895	 -0.475899	 0.450619	 1
1463570282.746	 14	 -0.010963	 0.000794	 -0.002973	 2.234180	 -1.339752	 0.412549	 -0.410677	 0.633917	 -0.475871	 0.450601	 1
1463570282.756	 14	 -0.007814	 -0.011964	 -0.000987	 2.234232	 -1.339664	 0.412698	 -0.410702	 0.633925	 -0.475815	 0.450625	 1
1463570282.766	 14	 -0.006727	 -0.009825	 0.001156	 2.233831	 -1.339589	 0.412418	 -0.410700	 0.633915	 -0.475768	 0.450690	 1
1463570282.776	 14	 -0.014192	 -0.012955	 0.006522	 2.233915	 -1.339367	 0.412626	 -0.410722	 0.633960	 -0.475656	 0.450726	 1
1463570282.786	 14	 -0.025896	 -0.012859	 0.015152	 2.234059	 -1.339068	 0.412926	 -0.410750	 0.634023	 -0.475506	 0.450770	 1
1463570282.796	 14	 -0.036531	 -0.007485	 0.018493	 2.234792	 -1.338606	 0.413750	 -0.410785	 0.634161	 -0.475299	 0.450762	 1
1463570282.806	 14	 -0.048362	 -0.026596	 0.018418	 2.236108	 -1.338115	 0.415293	 -0.410908	 0.634292	 -0.475039	 0.450741	 1
1463570282.816	 14	 -0.066599	 -0.048855	 0.021567	 2.237653	 -1.337507	 0.417301	 -0.411111	 0.634415	 -0.474677	 0.450764	 1
1463570282.826	 14	 -0.079445	 -0.058373	 0.023718	 2.240359	 -1.336873	 0.420593	 -0.411444	 0.634543	 -0.474254	 0.450724	 1
1463570282.836	 14	 -0.084835	 -0.067945	 0.021541	 2.242483	 -1.336355	 0.423419	 -0.411781	 0.634600	 -0.473861	 0.450749	 1
1463570282.846	 14	 -0.080656	 -0.088160	 0.022379	 2.243998	 -1.336000	 0.425804	 -0.412140	 0.634560	 -0.473503	 0.450854	 1
1463570282.856	 14	 -0.077596	 -0.117960	 0.021004	 2.244988	 -1.335785	 0.427947	 -0.412563	 0.634408	 -0.473143	 0.451059	 1
1463570282.866	 14	 -0.078769	 -0.132917	 0.011278	 2.245974	 -1.335591	 0.430289	 -0.413052	 0.634207	 -0.472746	 0.451311	 1
1463570282.876	 14	 -0.064037	 -0.170260	 0.001207	 2.245599	 -1.335644	 0.431601	 -0.413562	 0.633835	 -0.472392	 0.451737	 1
1463570282.886	 14	 -0.035405	 -0.213919	 0.005877	 2.243926	 -1.335801	 0.432018	 -0.414106	 0.633322	 -0.472010	 0.452356	 1
1463570282.896	 14	 -0.017355	 -0.239455	 0.011873	 2.241738	 -1.335989	 0.432200	 -0.414700	 0.632731	 -0.471586	 0.453082	 1
1463570282.906	 14	 -0.022661	 -0.238337	 0.017254	 2.239611	 -1.336076	 0.432476	 -0.415298	 0.632164	 -0.471114	 0.453815	 1
1463570282.916	 14	 -0.028743	 -0.193418	 0.042194	 2.239585	 -1.335713	 0.434464	 -0.415893	 0.631857	 -0.470522	 0.454311	 1
1463570282.926	 14	 -0.028361	 -0.139993	 0.075720	 2.239710	 -1.335252	 0.436029	 -0.416308	 0.631703	 -0.470020	 0.454665	 1
1463570282.936	 14	 -0.052649	 -0.104657	 0.098641	 2.237675	 -1.334233	 0.435084	 -0.416379	 0.631751	 -0.469430	 0.455142	 1
1463570282.946	 14	 -0.060122	 -0.103586	 0.096585	 2.236109	 -1.333094	 0.434527	 -0.416447	 0.631862	 -0.468805	 0.455570	 1
1463570282.956	 14	 -0.049596	 -0.126025	 0.086692	 2.234339	 -1.332072	 0.433946	 -0.416568	 0.631895	 -0.468186	 0.456050	 1
1463570282.966	 14	 -0.056012	 -0.121812	 0.078253	 2.234521	 -1.331641	 0.435315	 -0.416911	 0.631784	 -0.467750	 0.456337	 1
1463570282.976	 14	 -0.112219	 -0.028210	 0.056166	 2.235384	 -1.330559	 0.436784	 -0.417057	 0.632009	 -0.467190	 0.456468	 1
1463570282.986	 14	 -0.131404	 -0.003858	 0.033113	 2.238584	 -1.329479	 0.440118	 -0.417247	 0.632376	 -0.466691	 0.456294	 1
1463570282.996	 14	 -0.133735	 -0.083294	 0.078222	 2.240627	 -1.328173	 0.442808	 -0.417482	 0.632683	 -0.466014	 0.456345	 1
1463570283.006	 14	 -0.157090	 -0.304447	 0.372649	 2.235581	 -1.324917	 0.440131	 -0.417460	 0.633092	 -0.464351	 0.457493	 1
1463570283.016	 14	 -0.142347	 -0.446150	 0.491634	 2.224894	 -1.320309	 0.433414	 -0.417302	 0.633458	 -0.461932	 0.459576	 1
1463570283.026	 14	 -0.095408	 -0.533842	 0.591656	 2.209851	 -1.315163	 0.423209	 -0.416947	 0.633690	 -0.459217	 0.462290	 1
1463570283.036	 14	 -0.052393	 -0.553407	 0.697676	 2.191265	 -1.309370	 0.409703	 -0.416228	 0.633948	 -0.456311	 0.465450	 1
1463570283.046	 14	 -0.013801	 -0.528950	 0.712488	 2.171365	 -1.303326	 0.394641	 -0.415218	 0.634249	 -0.453437	 0.468740	 1
1463570283.056	 14	 0.030122	 -0.416996	 0.621492	 2.153110	 -1.298063	 0.380398	 -0.414132	 0.634480	 -0.451043	 0.471689	 1
1463570283.066	 14	 0.036992	 -0.310718	 0.612829	 2.137334	 -1.293241	 0.367367	 -0.412882	 0.634870	 -0.449074	 0.474132	 1
1463570283.076	 14	 0.055619	 -0.328817	 0.741391	 2.119642	 -1.287479	 0.352313	 -0.411236	 0.635456	 -0.446877	 0.476846	 1
1463570283.086	 14	 0.103627	 -0.435488	 0.864675	 2.098675	 -1.280867	 0.334558	 -0.409270	 0.636002	 -0.444388	 0.480124	 1
1463570283.096	 14	 0.185069	 -0.559374	 0.827642	 2.074789	 -1.274198	 0.315229	 -0.407363	 0.636103	 -0.441726	 0.484052	 1
1463570283.106	 14	 0.322313	 -0.630135	 0.805539	 2.048153	 -1.268563	 0.293740	 -0.405464	 0.635590	 -0.439485	 0.488341	 1
1463570283.116	 14	 0.342810	 -0.646667	 0.880876	 2.019601	 -1.262350	 0.270622	 -0.403293	 0.634992	 -0.437138	 0.493002	 1
1463570283.126	 14	 0.389932	 -0.626466	 0.898772	 1.991384	 -1.255804	 0.247484	 -0.400900	 0.634450	 -0.434850	 0.497653	 1
1463570283.136	 14	 0.512244	 -0.817382	 1.021690	 1.958247	 -1.248501	 0.220788	 -0.398211	 0.633456	 -0.432320	 0.503251	 1
1463570283.146	 14	 0.534137	 -0.731035	 1.057473	 1.924518	 -1.240729	 0.193281	 -0.395195	 0.632420	 -0.429866	 0.509000	 1
1463570283.156	 14	 0.503045	 -0.631199	 1.171644	 1.893650	 -1.231727	 0.167269	 -0.391668	 0.631950	 -0.427332	 0.514415	 1
1463570283.166	 14	 0.596704	 -0.997669	 1.275060	 1.859111	 -1.221431	 0.140028	 -0.388121	 0.630894	 -0.424131	 0.521007	 1
1463570283.176	 14	 0.731099	 -1.294328	 1.341470	 1.819253	 -1.210629	 0.110566	 -0.384730	 0.628741	 -0.420527	 0.528984	 1
1463570283.186	 14	 0.799831	 -1.504470	 1.431637	 1.776358	 -1.198625	 0.080196	 -0.381231	 0.625920	 -0.416447	 0.538015	 1
1463570283.196	 14	 0.728464	 -1.539872	 1.507599	 1.735330	 -1.185426	 0.052751	 -0.377765	 0.622960	 -0.411830	 0.547367	 1
1463570283.206	 14	 0.486309	 -1.183974	 1.646239	 1.703347	 -1.170481	 0.032158	 -0.373916	 0.621240	 -0.406735	 0.555711	 1
1463570283.216	 14	 0.139433	 -0.362450	 2.003276	 1.686935	 -1.151856	 0.020707	 -0.368567	 0.622677	 -0.401006	 0.561806	 1
1463570283.226	 14	 0.135059	 0.252511	 2.321305	 1.680549	 -1.129611	 0.012217	 -0.360988	 0.626956	 -0.395219	 0.566053	 1
1463570283.236	 14	 0.575589	 0.056812	 2.500026	 1.668031	 -1.105583	 -0.003660	 -0.351641	 0.630971	 -0.389928	 0.571122	 1
1463570283.246	 14	 1.073293	 -0.787876	 2.529397	 1.639861	 -1.081172	 -0.029072	 -0.341975	 0.631887	 -0.384715	 0.579454	 1
1463570283.256	 14	 1.345899	 -1.348282	 2.509019	 1.601439	 -1.056707	 -0.058550	 -0.332661	 0.629976	 -0.379325	 0.590406	 1
1463570283.266	 14	 1.269299	 -0.795588	 2.718390	 1.568200	 -1.030614	 -0.085240	 -0.322417	 0.628792	 -0.373945	 0.600694	 1
1463570283.276	 14	 1.206002	 0.469950	 3.550288	 1.550804	 -0.997236	 -0.107365	 -0.308031	 0.632213	 -0.367921	 0.608324	 1
1463570283.286	 14	 1.262998	 1.550058	 4.527555	 1.547035	 -0.954349	 -0.127989	 -0.288228	 0.640357	 -0.360859	 0.613717	 1
1463570283.296	 14	 1.217799	 2.345502	 5.369842	 1.553593	 -0.902145	 -0.146878	 -0.263762	 0.651995	 -0.351856	 0.617681	 1
1463570283.306	 14	 0.996154	 2.694210	 5.845018	 1.567988	 -0.844627	 -0.162446	 -0.237016	 0.665500	 -0.340865	 0.620277	 1
1463570283.316	 14	 0.762597	 2.755106	 6.081020	 1.586333	 -0.784305	 -0.174849	 -0.209615	 0.679382	 -0.327900	 0.622079	 1
1463570283.326	 14	 0.692339	 2.681988	 5.943468	 1.605605	 -0.724443	 -0.186589	 -0.182434	 0.692639	 -0.314297	 0.623046	 1
1463570283.336	 14	 0.754216	 2.404956	 5.460758	 1.622123	 -0.668785	 -0.199231	 -0.156807	 0.703944	 -0.301469	 0.623691	 1
1463570283.346	 14	 0.876341	 2.279594	 4.650681	 1.636948	 -0.620681	 -0.213293	 -0.133490	 0.713490	 -0.290957	 0.623263	 1
1463570283.356	 14	 1.129669	 1.901008	 3.588782	 1.647826	 -0.582863	 -0.229502	 -0.113433	 0.720595	 -0.283960	 0.622288	 1
1463570283.366	 14	 1.306826	 1.571474	 2.367072	 1.654760	 -0.557203	 -0.247094	 -0.097490	 0.725318	 -0.281099	 0.620801	 1
1463570283.376	 14	 1.418710	 1.270283	 1.067329	 1.659066	 -0.544517	 -0.264747	 -0.086213	 0.728197	 -0.282453	 0.618480	 1
1463570283.386	 14	 1.489758	 0.795761	 -0.097255	 1.659349	 -0.544174	 -0.282156	 -0.079716	 0.729025	 -0.287721	 0.615943	 1
1463570283.396	 14	 1.352428	 0.081800	 -0.777331	 1.653945	 -0.551664	 -0.297764	 -0.077339	 0.727588	 -0.294840	 0.614576	 1
1463570283.406	 14	 1.198940	 -0.693721	 -1.153030	 1.641712	 -0.563356	 -0.311357	 -0.078186	 0.723768	 -0.302454	 0.615279	 1
1463570283.416	 14	 0.970493	 -1.308495	 -1.246286	 1.623946	 -0.576360	 -0.322671	 -0.081256	 0.718101	 -0.309527	 0.617998	 1
1463570283.426	 14	 0.633522	 -1.818134	 -1.112742	 1.602581	 -0.588306	 -0.330738	 -0.085817	 0.711234	 -0.315020	 0.622531	 1
1463570283.436	 14	 0.178055	 -2.281275	 -0.775240	 1.579003	 -0.596903	 -0.334016	 -0.091374	 0.703594	 -0.317751	 0.629000	 1
1463570283.446	 14	 -0.260613	 -2.770272	 -0.476491	 1.553559	 -0.602414	 -0.332217	 -0.097981	 0.695197	 -0.317713	 0.637307	 1
1463570283.456	 14	 -0.659524	 -3.150277	 -0.238889	 1.526741	 -0.605513	 -0.325449	 -0.105661	 0.686098	 -0.315136	 0.647144	 1
1463570283.466	 14	 -0.960145	 -3.425977	 -0.098157	 1.499224	 -0.607321	 -0.314725	 -0.114268	 0.676447	 -0.310677	 0.657907	 1
1463570283.476	 14	 -1.224986	 -3.544691	 -0.002102	 1.472031	 -0.608549	 -0.300672	 -0.123617	 0.666534	 -0.304769	 0.669005	 1
1463570283.486	 14	 -1.454405	 -3.593541	 0.062320	 1.445927	 -0.609664	 -0.283663	 -0.133583	 0.656584	 -0.297686	 0.680027	 1
1463570283.496	 14	 -1.672844	 -3.621827	 0.180127	 1.421146	 -0.610421	 -0.263845	 -0.143958	 0.646678	 -0.289397	 0.690893	 1
1463570283.506	 14	 -1.786678	 -3.667251	 0.323508	 1.397084	 -0.610466	 -0.242031	 -0.154399	 0.636671	 -0.280021	 0.701712	 1
1463570283.516	 14	 -1.822134	 -3.677244	 0.544336	 1.373395	 -0.609048	 -0.219146	 -0.164349	 0.626546	 -0.269631	 0.712550	 1
1463570283.526	 14	 -1.799208	 -3.597460	 0.848621	 1.350620	 -0.605348	 -0.195648	 -0.173258	 0.616592	 -0.258212	 0.723272	 1
1463570283.536	 14	 -1.688545	 -3.615583	 1.327082	 1.328014	 -0.597634	 -0.172002	 -0.180394	 0.606705	 -0.245402	 0.734265	 1
1463570283.546	 14	 -1.529446	 -3.832227	 1.876812	 1.303534	 -0.584770	 -0.148378	 -0.185469	 0.596235	 -0.230788	 0.746219	 1
1463570283.556	 14	 -1.319026	 -4.204740	 2.367093	 1.275136	 -0.566966	 -0.125191	 -0.188563	 0.584425	 -0.214423	 0.759548	 1
1463570283.566	 14	 -1.124475	 -4.673795	 2.738314	 1.241641	 -0.545312	 -0.102488	 -0.190059	 0.570698	 -0.196566	 0.774302	 1
1463570283.576	 14	 -1.014052	 -5.196942	 2.949900	 1.202589	 -0.521510	 -0.079660	 -0.190658	 0.554619	 -0.177456	 0.790289	 1
1463570283.586	 14	 -1.022362	 -5.625341	 2.979025	 1.158884	 -0.497794	 -0.055960	 -0.191198	 0.536243	 -0.157518	 0.806892	 1
1463570283.596	 14	 -1.227636	 -5.925788	 2.972687	 1.112459	 -0.475749	 -0.029903	 -0.192421	 0.516055	 -0.136739	 0.823386	 1
1463570283.606	 14	 -1.684165	 -5.725980	 3.060585	 1.068221	 -0.456101	 0.001228	 -0.194895	 0.495775	 -0.114576	 0.838507	 1
1463570283.616	 14	 -1.974483	 -5.220628	 3.255390	 1.030643	 -0.438015	 0.037536	 -0.198040	 0.477410	 -0.091111	 0.851210	 1
1463570283.626	 14	 -1.701024	 -5.204250	 3.570758	 0.994224	 -0.417960	 0.074579	 -0.199617	 0.459391	 -0.066812	 0.862931	 1
1463570283.636	 14	 -1.297055	 -5.118083	 3.882442	 0.956537	 -0.394221	 0.110372	 -0.198492	 0.441054	 -0.041974	 0.874249	 1
1463570283.646	 14	 -0.952345	 -4.396369	 4.102507	 0.923532	 -0.367659	 0.145231	 -0.194999	 0.424996	 -0.017368	 0.883772	 1
1463570283.656	 14	 -0.390781	 -3.594658	 4.258428	 0.896752	 -0.337697	 0.177448	 -0.188706	 0.412238	 0.006151	 0.891298	 1
1463570283.666	 14	 0.365599	 -2.849306	 4.384538	 0.875189	 -0.302915	 0.205129	 -0.178834	 0.402717	 0.028075	 0.897245	 1
1463570283.676	 14	 1.225660	 -2.222944	 4.424443	 0.857645	 -0.262672	 0.226969	 -0.165015	 0.396080	 0.047998	 0.901990	 1
1463570283.686	 14	 2.005472	 -1.899027	 4.233093	 0.841641	 -0.218405	 0.242128	 -0.147790	 0.391090	 0.065380	 0.906053	 1
1463570283.696	 14	 2.665456	 -1.719609	 3.867723	 0.825701	 -0.172163	 0.250372	 -0.128046	 0.386775	 0.079720	 0.909755	 1
1463570283.706	 14	 3.092480	 -1.692815	 3.335636	 0.809071	 -0.126228	 0.252272	 -0.106937	 0.382393	 0.090790	 0.913289	 1
1463570283.716	 14	 3.188285	 -1.643627	 2.677684	 0.792157	 -0.083642	 0.249229	 -0.086183	 0.377683	 0.098564	 0.916631	 1
1463570283.726	 14	 3.074121	 -1.660834	 2.165886	 0.775332	 -0.045558	 0.243353	 -0.066803	 0.372577	 0.103794	 0.919756	 1
1463570283.736	 14	 2.879275	 -1.842593	 1.957002	 0.757258	 -0.010616	 0.237393	 -0.048670	 0.366457	 0.108081	 0.922854	 1
1463570283.746	 14	 2.661373	 -2.036172	 1.868639	 0.737403	 0.022136	 0.232796	 -0.031599	 0.359143	 0.112286	 0.925964	 1
1463570283.756	 14	 2.483921	 -2.234275	 1.759633	 0.715702	 0.052882	 0.229384	 -0.015470	 0.350673	 0.116353	 0.929113	 1
1463570283.766	 14	 2.353347	 -2.442145	 1.642668	 0.691967	 0.081865	 0.226684	 -0.000073	 0.341018	 0.120097	 0.932354	 1
1463570283.776	 14	 2.257410	 -2.578581	 1.563367	 0.666657	 0.109527	 0.224643	 0.014779	 0.330438	 0.123554	 0.935589	 1
1463570283.786	 14	 2.220026	 -2.567987	 1.542476	 0.641028	 0.136561	 0.223345	 0.029321	 0.319578	 0.126880	 0.938569	 1
1463570283.796	 14	 2.231694	 -2.335277	 1.516830	 0.617098	 0.163549	 0.222575	 0.043731	 0.309433	 0.130112	 0.940962	 1
1463570283.806	 14	 2.234908	 -2.101339	 1.510453	 0.595662	 0.190506	 0.222210	 0.057972	 0.300397	 0.133252	 0.942679	 1
1463570283.816	 14	 2.214470	 -1.945678	 1.553644	 0.575665	 0.217541	 0.222811	 0.072072	 0.292020	 0.136597	 0.943860	 1
1463570283.826	 14	 2.178130	 -1.747601	 1.572856	 0.557341	 0.244429	 0.224358	 0.085907	 0.284431	 0.140147	 0.944499	 1
1463570283.836	 14	 2.133846	 -1.618902	 1.555255	 0.540340	 0.270876	 0.226575	 0.099397	 0.277466	 0.143753	 0.944705	 1
1463570283.846	 14	 2.076038	 -1.595862	 1.482435	 0.523687	 0.296537	 0.229011	 0.112504	 0.270648	 0.147140	 0.944692	 1
1463570283.856	 14	 1.975006	 -1.644323	 1.359236	 0.506704	 0.320822	 0.231365	 0.125032	 0.263626	 0.150073	 0.944641	 1
1463570283.866	 14	 1.852304	 -1.748146	 1.219723	 0.488799	 0.343352	 0.233509	 0.136856	 0.256103	 0.152422	 0.944695	 1
1463570283.876	 14	 1.716894	 -1.841209	 1.092144	 0.469899	 0.364070	 0.235514	 0.147941	 0.248046	 0.154221	 0.944882	 1
1463570283.886	 14	 1.595719	 -1.883041	 0.994760	 0.450428	 0.383133	 0.237559	 0.158302	 0.239677	 0.155614	 0.945135	 1
1463570283.896	 14	 1.535463	 -1.920670	 0.915002	 0.430538	 0.401106	 0.239583	 0.168203	 0.231086	 0.156655	 0.945392	 1
1463570283.906	 14	 1.539299	 -1.924631	 0.810487	 0.410676	 0.418551	 0.241091	 0.177927	 0.222460	 0.157212	 0.945589	 1
1463570283.916	 14	 1.575306	 -1.884114	 0.692251	 0.391477	 0.435776	 0.241676	 0.187604	 0.214068	 0.157183	 0.945660	 1
1463570283.926	 14	 1.596618	 -1.823072	 0.611636	 0.373172	 0.452913	 0.241502	 0.197247	 0.206029	 0.156692	 0.945565	 1
1463570283.936	 14	 1.624248	 -1.789620	 0.542432	 0.355458	 0.470014	 0.240950	 0.206857	 0.198233	 0.155907	 0.945308	 1
1463570283.946	 14	 1.652732	 -1.762885	 0.427330	 0.338398	 0.487053	 0.239499	 0.216458	 0.190648	 0.154596	 0.944934	 1
1463570283.956	 14	 1.631502	 -1.659277	 0.332561	 0.322602	 0.503719	 0.237228	 0.225837	 0.183550	 0.152857	 0.944427	 1
1463570283.966	 14	 1.548603	 -1.550858	 0.289529	 0.307988	 0.519574	 0.234887	 0.234717	 0.176961	 0.151031	 0.943813	 1
1463570283.976	 14	 1.415510	 -1.465559	 0.264838	 0.294130	 0.534231	 0.232913	 0.242910	 0.170720	 0.149279	 0.943168	 1
1463570283.986	 14	 1.246015	 -1.369822	 0.197930	 0.281148	 0.547243	 0.231042	 0.250222	 0.164839	 0.147490	 0.942583	 1
1463570283.996	 14	 1.038967	 -1.300705	 0.111918	 0.269018	 0.558121	 0.229084	 0.256442	 0.159269	 0.145575	 0.942167	 1
1463570284.006	 14	 0.842509	 -1.232823	 0.006618	 0.257771	 0.566786	 0.226734	 0.261556	 0.153979	 0.143419	 0.941971	 1
1463570284.016	 14	 0.717774	 -1.147873	 -0.062912	 0.247576	 0.573859	 0.223937	 0.265852	 0.149063	 0.141072	 0.941914	 1
1463570284.026	 14	 0.643569	 -1.067666	 -0.032744	 0.238073	 0.580143	 0.221543	 0.269677	 0.144491	 0.138936	 0.941856	 1
1463570284.036	 14	 0.650864	 -1.152364	 0.023956	 0.227763	 0.586437	 0.219882	 0.273493	 0.139636	 0.137003	 0.941771	 1
1463570284.046	 14	 0.678024	 -1.302193	 0.054298	 0.215787	 0.593107	 0.218674	 0.277554	 0.134071	 0.135030	 0.941677	 1
1463570284.056	 14	 0.651886	 -1.402194	 0.040806	 0.202602	 0.599682	 0.217551	 0.281629	 0.127946	 0.132879	 0.941625	 1
1463570284.066	 14	 0.561873	 -1.463765	 0.020767	 0.188736	 0.605500	 0.216465	 0.285367	 0.121479	 0.130579	 0.941678	 1
1463570284.076	 14	 0.468586	 -1.474841	 -0.077640	 0.174912	 0.610255	 0.214817	 0.288611	 0.114912	 0.127948	 0.941875	 1
1463570284.086	 14	 0.387123	 -1.434127	 -0.216166	 0.162174	 0.613952	 0.211795	 0.291336	 0.108614	 0.124766	 0.942210	 1
1463570284.096	 14	 0.324506	 -1.310994	 -0.275224	 0.150983	 0.616892	 0.207915	 0.293623	 0.102885	 0.121364	 0.942588	 1
1463570284.106	 14	 0.297217	 -1.158237	 -0.341774	 0.141495	 0.619400	 0.203436	 0.295603	 0.097848	 0.117902	 0.942944	 1
1463570284.116	 14	 0.299305	 -0.899092	 -0.392668	 0.134844	 0.621808	 0.198311	 0.297376	 0.094041	 0.114542	 0.943188	 1
1463570284.126	 14	 0.369040	 -0.578231	 -0.412671	 0.131524	 0.624712	 0.192692	 0.299199	 0.091742	 0.111445	 0.943209	 1
1463570284.146	 15	 0.559084	 -0.241532	 -0.253460	 0.130423	 0.633535	 0.183320	 0.303862	 0.090115	 0.107007	 0.942389	 1
1463570284.156	 15	 0.613010	 -0.170010	 -0.195713	 0.130648	 0.639243	 0.179767	 0.306709	 0.089865	 0.105463	 0.941664	 1
1463570284.166	 15	 0.597542	 -0.104661	 -0.137419	 0.131182	 0.645044	 0.176886	 0.309551	 0.089858	 0.104287	 0.940866	 1
1463570284.176	 15	 0.524430	 -0.052883	 -0.067026	 0.131683	 0.650348	 0.174946	 0.312116	 0.089957	 0.103543	 0.940091	 1
1463570284.186	 15	 0.422308	 -0.019301	 -0.024259	 0.132133	 0.654749	 0.173798	 0.314221	 0.090123	 0.103150	 0.939416	 1
1463570284.196	 15	 0.322003	 -0.012665	 -0.029719	 0.132555	 0.658161	 0.172898	 0.315848	 0.090283	 0.102852	 0.938888	 1
1463570284.206	 15	 0.211912	 -0.020036	 -0.063999	 0.133031	 0.660467	 0.171838	 0.316958	 0.090408	 0.102470	 0.938544	 1
1463570284.216	 15	 0.089800	 -0.053194	 -0.138914	 0.133655	 0.661515	 0.170121	 0.317497	 0.090459	 0.101782	 0.938431	 1
1463570284.226	 15	 -0.056922	 -0.128578	 -0.179902	 0.133893	 0.661088	 0.167995	 0.317380	 0.090221	 0.100814	 0.938598	 1
1463570284.236	 15	 -0.195138	 -0.245169	 -0.179784	 0.132981	 0.659236	 0.165986	 0.316643	 0.089421	 0.099694	 0.939043	 1
1463570284.246	 15	 -0.296890	 -0.345721	 -0.153189	 0.130693	 0.656310	 0.164429	 0.315446	 0.088018	 0.098549	 0.939699	 1
1463570284.256	 15	 -0.334374	 -0.411232	 -0.108711	 0.127321	 0.652883	 0.163467	 0.314037	 0.086184	 0.097507	 0.940450	 1
1463570284.266	 15	 -0.301179	 -0.423778	 -0.065420	 0.123340	 0.649684	 0.163018	 0.312739	 0.084150	 0.096619	 0.941158	 1
1463570284.276	 15	 -0.222965	 -0.397080	 -0.018959	 0.119317	 0.647214	 0.162989	 0.311768	 0.082181	 0.095939	 0.941723	 1
1463570284.286	 15	 -0.121262	 -0.377813	 0.038952	 0.115194	 0.645785	 0.163520	 0.311268	 0.080279	 0.095525	 0.942095	 1
1463570284.296	 15	 -0.032562	 -0.387322	 0.082847	 0.111751	 0.644990	 0.163919	 0.311041	 0.078696	 0.095166	 0.942340	 1
1463570284.306	 15	 0.012265	 -0.400097	 0.099390	 0.107056	 0.645143	 0.165110	 0.311290	 0.076674	 0.094999	 0.942441	 1
1463570284.316	 15	 -0.002656	 -0.392638	 0.095326	 0.102340	 0.645276	 0.166371	 0.311529	 0.074652	 0.094861	 0.942538	 1
1463570284.326	 15	 -0.035839	 -0.352652	 0.022450	 0.098334	 0.645058	 0.166933	 0.311595	 0.072844	 0.094499	 0.942694	 1
1463570284.336	 15	 -0.079422	 -0.252037	 -0.054035	 0.095768	 0.644349	 0.166570	 0.311394	 0.071555	 0.093921	 0.942917	 1
1463570284.346	 15	 -0.131566	 -0.172530	 -0.111458	 0.094534	 0.643068	 0.165487	 0.310885	 0.070764	 0.093207	 0.943216	 1
1463570284.356	 15	 -0.166755	 -0.154450	 -0.125904	 0.093788	 0.641359	 0.164109	 0.310159	 0.070145	 0.092425	 0.943578	 1
1463570284.366	 15	 -0.172850	 -0.124367	 -0.086112	 0.092058	 0.642622	 0.163690	 0.310851	 0.069303	 0.091970	 0.943456	 1
1463570284.376	 15	 -0.158392	 -0.042151	 -0.036448	 0.091621	 0.640973	 0.163279	 0.310106	 0.068981	 0.091694	 0.943752	 1
1463570284.386	 15	 -0.158719	 0.080459	 0.004129	 0.092063	 0.639397	 0.163395	 0.309336	 0.069158	 0.091803	 0.943981	 1
1463570284.396	 15	 -0.152897	 0.138268	 0.057905	 0.092935	 0.637887	 0.164106	 0.308556	 0.069632	 0.092260	 0.944157	 1
1463570284.406	 15	 -0.120852	 0.097110	 0.114799	 0.094028	 0.637690	 0.165048	 0.308379	 0.070287	 0.092871	 0.944106	 1
1463570284.416	 15	 -0.079642	 -0.025020	 0.157000	 0.092997	 0.636956	 0.166968	 0.308013	 0.070073	 0.093612	 0.944169	 1
1463570284.426	 15	 -0.078026	 -0.143016	 0.166546	 0.090515	 0.636346	 0.169140	 0.307765	 0.069215	 0.094250	 0.944249	 1
1463570284.436	 15	 -0.052736	 -0.151056	 0.094844	 0.088085	 0.635829	 0.170647	 0.307583	 0.068283	 0.094584	 0.944343	 1
1463570284.446	 15	 -0.039688	 -0.023092	 0.001077	 0.084565	 0.635483	 0.172615	 0.307520	 0.066911	 0.094969	 0.944423	 1
1463570284.456	 15	 -0.020400	 0.076117	 -0.097283	 0.085637	 0.635164	 0.171726	 0.307348	 0.067270	 0.094712	 0.944480	 1
1463570284.466	 15	 -0.009652	 0.160584	 -0.178655	 0.088182	 0.634919	 0.169769	 0.307178	 0.068163	 0.094177	 0.944524	 1
1463570284.476	 15	 -0.020245	 0.221910	 -0.232346	 0.091091	 0.634120	 0.167529	 0.306739	 0.069167	 0.093559	 0.944655	 1
1463570284.486	 15	 -0.049106	 0.227184	 -0.250168	 0.095204	 0.632871	 0.164493	 0.306063	 0.070604	 0.092744	 0.944849	 1
