% Gyrometer data recorded with 'snsrlog'
% 
% 
% Label description:
% 	 0: Default Label
% 	 1: still_drop
% 	 2: walk_drop
% 	 3: other
% 	 4: dtw_same
% 	 5: dtw_diff
% 	 6: delete
% 
% Column description:
% 	 1: Seconds.milliseconds since 1970
% 	 2: Number of skipped measurements
% 	 3: Gyro X
% 	 4: Gyro Y
% 	 5: Gyro Z
% 	 6: Roll of the device
% 	 7: Pitch of the device
% 	 8: Yaw of the device
% 	 9: Quaternion X
% 	 10: Quaternion Y
% 	 11: Quaternion Z
% 	 12: Quaternion W
% 	 13: Label used for the current sample
% 
% 
1462092193.735	 0	 0.110864	 0.202519	 -0.485803	 0.177543	 0.207188	 0.076008	 0.099577	 0.092029	 0.046804	 0.989659	 2
1462092193.745	 0	 0.046603	 0.444651	 -0.562923	 0.182670	 0.206834	 0.070367	 0.099547	 0.094281	 0.044252	 0.989567	 2
1462092193.755	 0	 -0.060383	 0.588769	 -0.532940	 0.189297	 0.205541	 0.064926	 0.099026	 0.097274	 0.041832	 0.989435	 2
1462092193.765	 0	 -0.228508	 0.814584	 -0.408944	 0.197642	 0.202886	 0.060855	 0.097742	 0.101173	 0.040105	 0.989243	 2
1462092193.775	 0	 -0.375063	 1.070271	 -0.263543	 0.208185	 0.198914	 0.058563	 0.095686	 0.106238	 0.039287	 0.988946	 2
1462092193.785	 0	 -0.437577	 1.287268	 -0.139482	 0.220672	 0.194379	 0.057819	 0.093238	 0.112335	 0.039275	 0.988506	 2
1462092193.805	 0	 -0.425014	 1.661847	 -0.108396	 0.251243	 0.185508	 0.058149	 0.088226	 0.127372	 0.040317	 0.987100	 2
1462092193.795	 0	 -0.439529	 1.494115	 -0.070397	 0.235073	 0.189904	 0.058012	 0.090730	 0.119419	 0.039786	 0.987889	 2
1462092193.815	 0	 -0.368723	 1.887740	 -0.176059	 0.269629	 0.181374	 0.057596	 0.085849	 0.136383	 0.040583	 0.986095	 2
1462092193.825	 0	 -0.350240	 2.035934	 -0.266496	 0.290025	 0.177377	 0.056214	 0.083563	 0.146343	 0.040493	 0.984866	 2
1462092193.835	 0	 -0.668846	 1.833505	 -0.442522	 0.309237	 0.170865	 0.054083	 0.080131	 0.155665	 0.039754	 0.983751	 2
1462092193.845	 0	 -1.346914	 1.882186	 -0.603490	 0.327966	 0.158019	 0.052352	 0.073582	 0.164722	 0.038621	 0.982833	 2
1462092193.855	 0	 -1.968618	 2.195908	 -0.860533	 0.349385	 0.138182	 0.051017	 0.063541	 0.175068	 0.037053	 0.981805	 2
1462092193.875	 1	 -2.410450	 2.767639	 -1.546243	 0.400016	 0.084781	 0.043795	 0.037177	 0.199361	 0.029858	 0.978765	 2
1462092193.885	 1	 -2.003173	 3.292660	 -1.730346	 0.432078	 0.058425	 0.036933	 0.024568	 0.214761	 0.024289	 0.976055	 2
1462092193.895	 1	 -1.241529	 3.754550	 -1.823269	 0.469062	 0.037541	 0.026949	 0.015123	 0.232571	 0.017464	 0.972305	 2
1462092193.905	 1	 -0.414544	 3.951128	 -1.808391	 0.508646	 0.023545	 0.013771	 0.009661	 0.251646	 0.009625	 0.967723	 2
1462092193.915	 1	 0.202478	 3.908565	 -1.707584	 0.548083	 0.015296	 -0.001576	 0.007576	 0.270611	 0.001311	 0.962658	 2
1462092193.935	 2	 0.061798	 3.582763	 -1.785044	 0.618928	 -0.001964	 -0.033032	 0.004095	 0.304522	 -0.016030	 0.952362	 2
1462092193.945	 2	 -0.340000	 3.310013	 -1.865081	 0.652551	 -0.014776	 -0.046446	 0.000446	 0.320585	 -0.024363	 0.946906	 2
1462092193.955	 2	 -0.780914	 3.168803	 -2.008566	 0.684201	 -0.032241	 -0.057740	 -0.005497	 0.335722	 -0.032595	 0.941381	 2
1462092193.965	 2	 -1.171817	 3.234746	 -2.166544	 0.715838	 -0.054201	 -0.067041	 -0.013629	 0.350851	 -0.040866	 0.935440	 2
1462092193.975	 2	 -1.403666	 3.524743	 -2.311034	 0.749690	 -0.079527	 -0.074906	 -0.023268	 0.366968	 -0.049361	 0.928632	 2
1462092193.995	 3	 -1.236976	 4.796557	 -2.426411	 0.833020	 -0.132827	 -0.089352	 -0.042601	 0.405987	 -0.067575	 0.910381	 2
1462092194.005	 3	 -0.856827	 5.779023	 -2.481343	 0.886980	 -0.157839	 -0.098286	 -0.050112	 0.430740	 -0.078021	 0.897699	 2
1462092194.015	 3	 -0.308296	 6.684662	 -2.483020	 0.949653	 -0.180308	 -0.109948	 -0.054932	 0.459039	 -0.089768	 0.882160	 2
1462092194.025	 3	 0.314398	 7.495257	 -2.507543	 1.019749	 -0.200265	 -0.125368	 -0.056658	 0.490135	 -0.103095	 0.863672	 2
1462092194.035	 3	 0.945896	 8.205251	 -2.614077	 1.095891	 -0.218889	 -0.145349	 -0.055390	 0.523221	 -0.118359	 0.842118	 2
1462092194.045	 3	 1.573158	 8.761531	 -2.798739	 1.176583	 -0.237899	 -0.170429	 -0.051463	 0.557422	 -0.135918	 0.817410	 2
1462092194.055	 3	 2.182789	 8.977477	 -2.987480	 1.258631	 -0.258473	 -0.200564	 -0.045230	 0.591181	 -0.155735	 0.790067	 2
1462092194.065	 3	 2.744765	 8.863462	 -3.228967	 1.338407	 -0.281990	 -0.235441	 -0.037318	 0.622900	 -0.177778	 0.760919	 2
1462092194.075	 3	 3.156033	 8.508148	 -3.511887	 1.413237	 -0.309766	 -0.273854	 -0.028666	 0.651505	 -0.201795	 0.730752	 2
1462092194.085	 3	 3.376773	 8.041633	 -3.805906	 1.482154	 -0.342775	 -0.313482	 -0.020443	 0.676679	 -0.227198	 0.700050	 2
1462092194.095	 3	 3.557586	 7.495345	 -4.116306	 1.544367	 -0.381034	 -0.353426	 -0.013115	 0.698257	 -0.253722	 0.669246	 2
1462092194.105	 3	 3.709440	 6.936226	 -4.447888	 1.599500	 -0.424757	 -0.393254	 -0.007101	 0.716257	 -0.281345	 0.638569	 2
1462092194.115	 3	 3.782549	 6.377744	 -4.723360	 1.647736	 -0.473255	 -0.432279	 -0.002579	 0.730891	 -0.309656	 0.608198	 2
1462092194.125	 3	 3.771449	 5.802812	 -4.954555	 1.689371	 -0.525711	 -0.469600	 0.000200	 0.742402	 -0.338131	 0.578365	 2
1462092194.136	 3	 3.727983	 5.191488	 -5.230568	 1.724193	 -0.581737	 -0.504954	 0.000951	 0.750886	 -0.366581	 0.549352	 2
1462092194.145	 3	 3.709052	 4.533675	 -5.453940	 1.752174	 -0.641336	 -0.538543	 -0.000552	 0.756486	 -0.395045	 0.521219	 2
1462092194.156	 3	 3.706408	 3.466295	 -5.388180	 1.768880	 -0.701567	 -0.571957	 -0.003994	 0.758381	 -0.422910	 0.495974	 2
1462092194.176	 4	 3.408839	 1.162668	 -4.754779	 1.761536	 -0.814022	 -0.641040	 -0.016025	 0.751549	 -0.473925	 0.458598	 2
1462092194.186	 4	 3.042774	 0.310065	 -4.552768	 1.741415	 -0.864897	 -0.674860	 -0.024906	 0.744616	 -0.496107	 0.445875	 2
1462092194.196	 4	 2.716993	 -0.416773	 -4.298780	 1.713493	 -0.912431	 -0.707748	 -0.035543	 0.736370	 -0.516039	 0.436118	 2
1462092194.206	 4	 2.486408	 -0.927497	 -3.978599	 1.678065	 -0.955869	 -0.741598	 -0.047056	 0.727096	 -0.533934	 0.428989	 2
1462092194.216	 4	 2.295370	 -1.174770	 -3.687217	 1.637188	 -0.995339	 -0.777365	 -0.058688	 0.717362	 -0.550096	 0.423487	 2
1462092194.226	 4	 2.125547	 -1.237975	 -3.378321	 1.592654	 -1.030847	 -0.815371	 -0.069868	 0.707627	 -0.564702	 0.418920	 2
1462092194.236	 4	 1.977375	 -1.247959	 -3.055264	 1.545224	 -1.062170	 -0.855662	 -0.080277	 0.698090	 -0.577837	 0.415127	 2
1462092194.246	 4	 1.906784	 -1.091262	 -2.743055	 1.495732	 -1.089361	 -0.898953	 -0.089413	 0.688943	 -0.589828	 0.411663	 2
1462092194.256	 4	 1.878824	 -0.922138	 -2.459876	 1.444090	 -1.112629	 -0.946020	 -0.097083	 0.680168	 -0.601015	 0.408323	 2
1462092194.266	 4	 1.866043	 -0.694627	 -2.185878	 1.391038	 -1.132053	 -0.996547	 -0.103179	 0.671847	 -0.611536	 0.404968	 2
1462092194.276	 4	 1.847714	 -0.495958	 -1.931284	 1.337262	 -1.147772	 -1.049765	 -0.107772	 0.663991	 -0.621460	 0.401608	 2
1462092194.286	 4	 1.814976	 -0.408940	 -1.678670	 1.283120	 -1.159906	 -1.104382	 -0.111188	 0.656486	 -0.630737	 0.398541	 2
1462092194.296	 4	 1.770797	 -0.478295	 -1.433805	 1.228441	 -1.168596	 -1.158939	 -0.113974	 0.649080	 -0.639265	 0.396289	 2
1462092194.306	 4	 1.658825	 -0.658139	 -1.198970	 1.174219	 -1.174210	 -1.211219	 -0.116629	 0.641713	 -0.646867	 0.395176	 2
1462092194.316	 4	 1.471792	 -0.934376	 -0.939866	 1.122492	 -1.177168	 -1.257967	 -0.119627	 0.634483	 -0.653201	 0.395537	 2
1462092194.326	 4	 1.112465	 -1.368099	 -0.613585	 1.076276	 -1.177921	 -1.294322	 -0.123582	 0.627596	 -0.657629	 0.397964	 2
1462092194.336	 4	 0.788360	 -1.788207	 -0.302403	 1.036727	 -1.176953	 -1.318857	 -0.128592	 0.621124	 -0.660026	 0.402536	 2
1462092194.346	 4	 0.541461	 -2.080274	 -0.050386	 1.002990	 -1.174720	 -1.333570	 -0.134360	 0.614987	 -0.660768	 0.408809	 2
1462092194.356	 4	 0.173772	 -2.239657	 0.262535	 0.977579	 -1.171715	 -1.337288	 -0.140501	 0.609629	 -0.659775	 0.416304	 2
1462092194.366	 4	 -0.376301	 -2.607993	 0.581494	 0.963481	 -1.168691	 -1.325458	 -0.147616	 0.605428	 -0.656264	 0.425423	 2
1462092194.376	 4	 -1.436937	 -3.130504	 0.700969	 0.964810	 -1.169663	 -1.291473	 -0.157812	 0.603239	 -0.649052	 0.435809	 2
1462092194.396	 5	 -3.234742	 -3.791716	 1.049382	 1.024380	 -1.184802	 -1.148383	 -0.187816	 0.605731	 -0.622538	 0.458543	 2
1462092194.406	 5	 -3.163466	 -3.598819	 1.570648	 1.074412	 -1.188488	 -1.054794	 -0.202259	 0.608486	 -0.605851	 0.470935	 2
1462092194.416	 5	 -2.606227	 -2.978833	 2.221681	 1.126734	 -1.182713	 -0.964318	 -0.212023	 0.611360	 -0.589239	 0.483822	 2
1462092194.425	 5	 -1.871884	 -2.126579	 2.853083	 1.174564	 -1.166438	 -0.887042	 -0.215615	 0.614483	 -0.573798	 0.496666	 2
1462092194.436	 5	 -1.215388	 -1.102112	 3.293862	 1.216188	 -1.141703	 -0.826591	 -0.213074	 0.618360	 -0.560078	 0.508472	 2
1462092194.446	 5	 -0.760763	 0.078691	 3.504452	 1.255153	 -1.111852	 -0.781004	 -0.205159	 0.623818	 -0.548268	 0.517844	 2
1462092194.455	 5	 -0.319441	 1.243868	 3.608437	 1.293312	 -1.078897	 -0.748953	 -0.192450	 0.631088	 -0.538522	 0.524103	 2
1462092194.466	 5	 0.334092	 2.342764	 3.751521	 1.328316	 -1.042655	 -0.732414	 -0.174767	 0.639497	 -0.531136	 0.527631	 2
1462092194.476	 5	 1.063851	 3.744735	 3.918077	 1.362211	 -1.002889	 -0.732334	 -0.150997	 0.649238	 -0.526513	 0.527706	 2
1462092194.486	 5	 1.654188	 5.043575	 4.033731	 1.398815	 -0.960650	 -0.745412	 -0.121417	 0.660476	 -0.524156	 0.523726	 2
1462092194.496	 5	 2.145115	 5.703900	 4.061180	 1.435798	 -0.917468	 -0.768793	 -0.088010	 0.671826	 -0.523273	 0.516807	 2
1462092194.506	 5	 2.443729	 5.782817	 3.917567	 1.469933	 -0.875300	 -0.799305	 -0.053307	 0.681835	 -0.523245	 0.508404	 2
1462092194.516	 5	 2.402418	 5.471881	 3.558003	 1.501273	 -0.836745	 -0.831483	 -0.020062	 0.690167	 -0.523374	 0.499347	 2
1462092194.526	 5	 2.060847	 5.022105	 2.998333	 1.531408	 -0.804132	 -0.860609	 0.009663	 0.697315	 -0.523218	 0.489798	 2
1462092194.536	 5	 1.480344	 4.363559	 2.447326	 1.560936	 -0.777925	 -0.882922	 0.034531	 0.703772	 -0.522175	 0.480463	 2
1462092194.546	 5	 0.937660	 3.500299	 1.988937	 1.587924	 -0.757003	 -0.897767	 0.054183	 0.709429	 -0.520102	 0.472514	 2
1462092194.556	 5	 0.590277	 2.534197	 1.654717	 1.608974	 -0.739878	 -0.907546	 0.069102	 0.713666	 -0.517560	 0.466944	 2
1462092194.566	 5	 0.332728	 1.874867	 1.272479	 1.625067	 -0.726308	 -0.913669	 0.080148	 0.716836	 -0.515008	 0.463130	 2
1462092194.576	 5	 0.109265	 1.341692	 0.993431	 1.637783	 -0.715943	 -0.916703	 0.088074	 0.719370	 -0.512559	 0.460470	 2
1462092194.586	 5	 -0.056298	 0.955243	 0.877240	 1.647772	 -0.706934	 -0.917268	 0.093918	 0.721398	 -0.509936	 0.459053	 2
1462092194.596	 5	 -0.089553	 0.749573	 0.809538	 1.655898	 -0.698614	 -0.916960	 0.098714	 0.723048	 -0.507328	 0.458339	 2
1462092194.606	 5	 -0.099448	 0.741692	 0.745605	 1.663422	 -0.690915	 -0.916609	 0.103110	 0.724575	 -0.504865	 0.457680	 2
1462092194.616	 5	 -0.104770	 0.844019	 0.627238	 1.671925	 -0.684228	 -0.916059	 0.107318	 0.726360	 -0.502536	 0.456444	 2
1462092194.626	 5	 -0.013244	 0.927656	 0.464158	 1.680904	 -0.679145	 -0.916214	 0.111343	 0.728254	 -0.500735	 0.454437	 2
1462092194.636	 5	 0.135739	 1.003435	 0.267466	 1.689649	 -0.676092	 -0.917929	 0.115182	 0.730053	 -0.499814	 0.451599	 2
1462092194.646	 5	 0.199555	 1.156816	 0.030672	 1.699194	 -0.675435	 -0.920505	 0.118729	 0.732031	 -0.499658	 0.447634	 2
1462092194.656	 5	 0.206866	 1.289371	 -0.167455	 1.710283	 -0.676933	 -0.922914	 0.121883	 0.734393	 -0.499931	 0.442583	 2
1462092194.666	 5	 0.203619	 1.308280	 -0.201356	 1.721995	 -0.679332	 -0.925118	 0.124826	 0.736892	 -0.500344	 0.437109	 2
1462092194.676	 5	 0.287782	 1.218141	 -0.130455	 1.732531	 -0.681172	 -0.928153	 0.127975	 0.739033	 -0.500838	 0.431989	 2
1462092194.686	 5	 0.492439	 1.130638	 -0.087224	 1.740694	 -0.682885	 -0.933448	 0.131416	 0.740481	 -0.501913	 0.427200	 2
1462092194.696	 5	 0.801983	 1.045491	 0.029720	 1.745623	 -0.684153	 -0.942565	 0.135615	 0.740949	 -0.503868	 0.422754	 2
1462092194.706	 5	 1.183957	 0.934575	 0.142596	 1.746404	 -0.684899	 -0.956612	 0.140769	 0.740161	 -0.506971	 0.418720	 2
1462092194.716	 5	 1.626263	 0.809925	 0.146111	 1.742423	 -0.685993	 -0.976179	 0.146627	 0.737954	 -0.511630	 0.414920	 2
1462092194.726	 5	 2.107588	 0.673771	 0.045800	 1.733342	 -0.688554	 -1.001659	 0.152825	 0.734251	 -0.518249	 0.411020	 2
1462092194.736	 5	 2.583265	 0.529686	 -0.123809	 1.718945	 -0.693107	 -1.033138	 0.159078	 0.729019	 -0.526986	 0.406831	 2
1462092194.746	 5	 2.937149	 0.307848	 -0.504103	 1.699425	 -0.701094	 -1.069311	 0.164360	 0.722493	 -0.537880	 0.402089	 2
1462092194.756	 5	 3.155531	 -0.006337	 -0.766843	 1.674339	 -0.711673	 -1.108907	 0.168230	 0.714726	 -0.550421	 0.397368	 2
1462092194.766	 5	 3.122377	 0.085715	 -1.432865	 1.648423	 -0.726929	 -1.149057	 0.170153	 0.707121	 -0.564014	 0.391044	 2
1462092194.776	 5	 2.548335	 1.049095	 -2.285367	 1.631666	 -0.749375	 -1.184285	 0.170195	 0.702354	 -0.577100	 0.380377	 2
1462092194.786	 5	 1.069982	 3.566259	 -2.937554	 1.648326	 -0.778350	 -1.202062	 0.171489	 0.705810	 -0.585033	 0.360778	 2
1462092194.796	 5	 -0.645422	 6.139410	 -3.152326	 1.709061	 -0.809000	 -1.194231	 0.176180	 0.718697	 -0.584853	 0.332238	 2
1462092194.806	 5	 -2.229378	 8.234114	 -3.289565	 1.813135	 -0.837451	 -1.158544	 0.184035	 0.739219	 -0.576224	 0.296061	 2
1462092194.816	 5	 -1.573327	 4.274499	 -2.410238	 1.900150	 -0.858318	 -1.118310	 0.187226	 0.755422	 -0.567489	 0.268776	 2
1462092194.826	 5	 -0.830324	 2.052877	 -1.048692	 1.940070	 -0.867767	 -1.097453	 0.187652	 0.762539	 -0.563402	 0.256710	 2
1462092194.836	 5	 -0.533614	 0.880875	 -0.182927	 1.960318	 -0.869016	 -1.086644	 0.188826	 0.766109	 -0.560446	 0.251639	 2
1462092194.846	 5	 -0.458045	 -0.375981	 0.186262	 1.963865	 -0.866070	 -1.080902	 0.188519	 0.767155	 -0.558614	 0.252753	 2
1462092194.856	 5	 -0.613089	 -1.287533	 0.118381	 1.958583	 -0.862516	 -1.073712	 0.185376	 0.767223	 -0.557251	 0.257829	 2
1462092194.866	 5	 -0.841301	 -1.960760	 -0.115035	 1.949099	 -0.860076	 -1.062373	 0.179136	 0.767064	 -0.555986	 0.265335	 2
1462092194.876	 5	 -1.229123	 -2.254285	 -0.413869	 1.940628	 -0.859137	 -1.044430	 0.170190	 0.767508	 -0.554058	 0.273837	 2
1462092194.886	 5	 -1.518808	 -2.201587	 -0.597365	 1.936493	 -0.859133	 -1.020404	 0.159820	 0.768915	 -0.551059	 0.282065	 2
1462092194.896	 5	 -1.527766	 -1.648175	 -0.554835	 1.937317	 -0.859059	 -0.995194	 0.150364	 0.770990	 -0.547378	 0.288691	 2
1462092194.906	 5	 -1.101229	 -0.828375	 -0.269559	 1.942092	 -0.857824	 -0.975385	 0.144399	 0.773180	 -0.543808	 0.292599	 2
1462092194.916	 5	 0.099108	 -0.446871	 0.023019	 1.939882	 -0.857288	 -0.971668	 0.142526	 0.773139	 -0.543273	 0.294613	 2
1462092194.926	 5	 1.536625	 -0.488965	 0.079385	 1.921813	 -0.860788	 -0.989313	 0.143318	 0.769109	 -0.548127	 0.295784	 2
1462092194.936	 5	 2.375289	 -0.397807	 -0.064552	 1.893215	 -0.868223	 -1.021234	 0.145317	 0.762403	 -0.556891	 0.295799	 2
1462092194.946	 5	 2.084487	 0.791745	 -0.268366	 1.870166	 -0.877540	 -1.054810	 0.148647	 0.756397	 -0.565910	 0.292426	 2
1462092194.956	 5	 -1.169333	 4.875158	 -0.820180	 1.916184	 -0.882132	 -1.046550	 0.157040	 0.763490	 -0.562391	 0.275930	 2
1462092194.966	 5	 -1.681252	 3.266807	 -1.783481	 1.986063	 -0.889929	 -1.010275	 0.160187	 0.775445	 -0.554093	 0.256918	 2
1462092194.986	 6	 0.785067	 -3.286503	 -2.309293	 1.970292	 -0.927973	 -0.985778	 0.134713	 0.773584	 -0.562439	 0.259001	 2
1462092194.996	 6	 1.362955	 -3.658747	 -2.805907	 1.931907	 -0.957639	 -0.988354	 0.115640	 0.766997	 -0.573026	 0.264544	 2
1462092195.006	 6	 1.542813	 -3.220792	 -2.916370	 1.891504	 -0.990239	 -0.996469	 0.096771	 0.759663	 -0.584505	 0.268144	 2
1462092195.016	 6	 1.522998	 -2.247457	 -2.612990	 1.856017	 -1.020631	 -1.008715	 0.081184	 0.752969	 -0.595054	 0.268993	 2
1462092195.026	 7	 1.506865	 -1.106821	 -2.118379	 1.827794	 -1.046316	 -1.025324	 0.070592	 0.747435	 -0.604246	 0.266918	 2
1462092195.046	 7	 1.774729	 0.423924	 -1.248529	 1.782031	 -1.083452	 -1.076631	 0.063348	 0.738294	 -0.620431	 0.256853	 2
1462092195.056	 7	 1.700888	 0.473156	 -1.089695	 1.758048	 -1.098010	 -1.109363	 0.063021	 0.733767	 -0.628217	 0.250915	 2
1462092195.066	 7	 0.783841	 -0.415328	 -0.924785	 1.739656	 -1.109330	 -1.128443	 0.060377	 0.730595	 -0.633288	 0.248055	 2
1462092195.076	 7	 -0.088098	 -1.773212	 -0.936223	 1.726431	 -1.118552	 -1.127224	 0.052604	 0.728767	 -0.635187	 0.250339	 2
1462092195.086	 7	 -0.300346	 -2.895438	 -1.184614	 1.709421	 -1.129101	 -1.116813	 0.039809	 0.726601	 -0.636146	 0.256484	 2
1462092195.096	 7	 0.013780	 -3.657212	 -1.529087	 1.680268	 -1.143312	 -1.110565	 0.023376	 0.722565	 -0.638266	 0.264516	 2
1462092195.106	 7	 0.468577	 -4.304984	 -1.789529	 1.634179	 -1.160862	 -1.115619	 0.004355	 0.715963	 -0.642165	 0.273865	 2
1462092195.116	 7	 0.795351	 -4.844928	 -1.899712	 1.571208	 -1.179894	 -1.132724	 -0.016542	 0.706969	 -0.647234	 0.284621	 2
1462092195.126	 7	 0.821476	 -5.018947	 -1.832284	 1.498746	 -1.198159	 -1.156885	 -0.038106	 0.696738	 -0.652176	 0.296261	 2
1462092195.136	 7	 0.656938	 -4.946229	 -1.698020	 1.425834	 -1.214627	 -1.181703	 -0.059302	 0.686512	 -0.656008	 0.307959	 2
1462092195.146	 7	 0.541499	 -4.630221	 -1.582170	 1.355392	 -1.229432	 -1.206349	 -0.079439	 0.676692	 -0.658808	 0.318983	 2
1462092195.156	 7	 0.551918	 -4.044926	 -1.535249	 1.287250	 -1.243027	 -1.233978	 -0.097615	 0.667412	 -0.661267	 0.328265	 2
1462092195.166	 7	 0.612041	 -3.264634	 -1.565813	 1.221020	 -1.255945	 -1.267289	 -0.113252	 0.658873	 -0.664001	 0.334907	 2
1462092195.176	 7	 0.663522	 -2.482398	 -1.625060	 1.156407	 -1.268427	 -1.306980	 -0.126334	 0.651223	 -0.667243	 0.338725	 2
1462092195.186	 7	 0.716677	 -1.740019	 -1.752901	 1.092186	 -1.280854	 -1.354047	 -0.137119	 0.644487	 -0.671160	 0.339673	 2
1462092195.196	 7	 0.810402	 -1.099839	 -2.023792	 1.023396	 -1.293958	 -1.412651	 -0.146247	 0.638346	 -0.676084	 0.337693	 2
1462092195.206	 7	 0.936047	 -0.594731	 -2.427307	 0.942438	 -1.308252	 -1.489250	 -0.154518	 0.632332	 -0.682315	 0.332757	 2
1462092195.216	 7	 1.045854	 -0.230399	 -2.889545	 0.842089	 -1.323431	 -1.589716	 -0.162626	 0.626122	 -0.689832	 0.325046	 2
1462092195.226	 7	 1.120380	 -0.036738	 -3.434062	 0.713576	 -1.338699	 -1.721289	 -0.171353	 0.619426	 -0.698485	 0.314753	 2
1462092195.236	 7	 1.063231	 -0.184925	 -3.944378	 0.549335	 -1.352547	 -1.888515	 -0.181877	 0.612036	 -0.707631	 0.302640	 2
1462092195.246	 7	 0.887115	 -0.743721	 -4.363692	 0.347177	 -1.362663	 -2.089392	 -0.195510	 0.603841	 -0.716230	 0.290115	 2
1462092195.256	 7	 0.739709	 -1.577840	 -4.750647	 0.108425	 -1.365697	 -2.319382	 -0.213260	 0.594379	 -0.723759	 0.278221	 2
1462092195.266	 7	 0.662349	 -2.286500	 -5.115730	 -0.149693	 -1.357864	 -2.561380	 -0.234891	 0.583390	 -0.730204	 0.266991	 2
1462092195.286	 7	 0.576701	 -2.150545	 -5.615693	 -0.600218	 -1.305098	 -2.975879	 -0.282087	 0.558644	 -0.741566	 0.241710	 2
1462092195.276	 7	 0.621624	 -2.485650	 -5.460404	 -0.395474	 -1.337136	 -2.787970	 -0.258658	 0.571193	 -0.736005	 0.255208	 2
1462092195.296	 7	 0.538083	 -1.449189	 -5.424454	 -0.751181	 -1.266424	 -3.115972	 -0.302734	 0.546655	 -0.747095	 0.226651	 2
1462092195.306	 7	 0.531870	 -0.444749	 -5.226413	 -0.855327	 -1.224737	 3.064801	 -0.319054	 0.535681	 -0.753194	 0.209641	 2
1462092195.316	 7	 0.556424	 0.769999	 -5.055459	 -0.923345	 -1.181594	 2.987134	 -0.330362	 0.525763	 -0.760478	 0.190017	 2
1462092195.326	 7	 0.665671	 2.122113	 -4.681469	 -0.958519	 -1.139124	 2.929319	 -0.335451	 0.516954	 -0.769397	 0.168104	 2
1462092195.336	 7	 0.896307	 3.287624	 -3.883968	 -0.962745	 -1.100707	 2.891160	 -0.333647	 0.509212	 -0.779806	 0.145895	 2
1462092195.346	 7	 1.078171	 3.982666	 -2.715271	 -0.941475	 -1.069944	 2.871727	 -0.325506	 0.502724	 -0.790849	 0.125981	 2
1462092195.356	 7	 1.126596	 4.039340	 -1.335003	 -0.902882	 -1.049842	 2.869400	 -0.312853	 0.497992	 -0.801134	 0.110961	 2
1462092195.366	 7	 1.179938	 3.506462	 -0.435594	 -0.857592	 -1.037675	 2.879296	 -0.298982	 0.494322	 -0.809957	 0.101120	 2
1462092195.376	 7	 1.343815	 2.412139	 -0.058201	 -0.815553	 -1.027961	 2.896552	 -0.287582	 0.490156	 -0.817229	 0.095813	 2
1462092195.386	 7	 1.305138	 0.943898	 0.009472	 -0.786689	 -1.018700	 2.914965	 -0.281556	 0.485321	 -0.822349	 0.094513	 2
1462092195.396	 7	 0.882891	 -0.396624	 0.080606	 -0.775305	 -1.011864	 2.929252	 -0.281252	 0.481177	 -0.824671	 0.096346	 2
1462092195.406	 7	 0.043072	 -1.482696	 0.310148	 -0.781781	 -1.011609	 2.936118	 -0.285604	 0.479785	 -0.823468	 0.100683	 2
1462092195.416	 7	 -0.958115	 -2.251644	 0.644228	 -0.804411	 -1.020559	 2.933971	 -0.293169	 0.482422	 -0.818463	 0.106954	 2
1462092195.426	 7	 -1.844906	 -2.729680	 0.953375	 -0.840630	 -1.038116	 2.922341	 -0.302627	 0.488930	 -0.810099	 0.114474	 2
1462092195.436	 7	 -2.517914	 -2.883094	 1.232774	 -0.887581	 -1.062298	 2.901315	 -0.312715	 0.498530	 -0.799155	 0.122589	 2
1462092195.446	 7	 -2.959022	 -2.549765	 1.551984	 -0.939590	 -1.091405	 2.872493	 -0.321376	 0.510514	 -0.786789	 0.130599	 2
1462092195.456	 7	 -3.223557	 -1.830287	 1.803976	 -0.992166	 -1.123824	 2.836390	 -0.326887	 0.524361	 -0.774129	 0.137530	 2
1462092195.466	 7	 -3.327779	 -0.930530	 1.900649	 -1.043596	 -1.157209	 2.792593	 -0.328661	 0.539334	 -0.762113	 0.142423	 2
1462092195.476	 7	 -3.433793	 0.078467	 1.953591	 -1.094377	 -1.190578	 2.739490	 -0.326483	 0.555257	 -0.751113	 0.144667	 2
1462092195.486	 7	 -3.568140	 1.175943	 2.022525	 -1.146260	 -1.224021	 2.674411	 -0.320052	 0.572339	 -0.741141	 0.143893	 2
1462092195.496	 7	 -3.642653	 2.305011	 2.072047	 -1.200391	 -1.257083	 2.595790	 -0.309179	 0.590385	 -0.732316	 0.139883	 2
1462092195.506	 7	 -3.725827	 3.260059	 2.028370	 -1.261487	 -1.288725	 2.500108	 -0.294505	 0.609018	 -0.724412	 0.132631	 2
1462092195.526	 7	 -3.942277	 4.222214	 1.737597	 -1.442969	 -1.342134	 2.231005	 -0.259283	 0.646780	 -0.708717	 0.110309	 2
1462092195.536	 8	 -3.851412	 4.325572	 1.653573	 -1.569650	 -1.361345	 2.057055	 -0.240639	 0.664811	 -0.700483	 0.097173	 2
1462092195.546	 8	 -3.300628	 4.122948	 1.655418	 -1.702214	 -1.375594	 1.878897	 -0.222048	 0.680737	 -0.692896	 0.084776	 2
1462092195.556	 8	 -2.279315	 3.464638	 1.637202	 -1.812188	 -1.387103	 1.729636	 -0.204767	 0.692751	 -0.687398	 0.075169	 2
1462092195.566	 8	 -1.378811	 2.255297	 1.412416	 -1.893068	 -1.396973	 1.621111	 -0.191286	 0.700570	 -0.683929	 0.069662	 2
1462092195.576	 8	 -0.867486	 0.600061	 0.997164	 -1.958127	 -1.403990	 1.544661	 -0.184220	 0.705280	 -0.681097	 0.068915	 2
1462092195.586	 8	 -0.701350	 -0.953999	 0.607174	 -2.020671	 -1.407422	 1.487221	 -0.184011	 0.708169	 -0.677754	 0.072697	 2
1462092195.596	 8	 -0.765079	 -2.047858	 0.370543	 -2.090209	 -1.407676	 1.435034	 -0.188906	 0.710365	 -0.673294	 0.079818	 2
1462092195.606	 8	 -0.933428	 -2.630561	 0.323956	 -2.171323	 -1.405715	 1.378371	 -0.196575	 0.712593	 -0.667566	 0.089022	 2
1462092195.616	 8	 -1.141846	 -2.603286	 0.480560	 -2.264360	 -1.402592	 1.310814	 -0.204334	 0.715374	 -0.660855	 0.098784	 2
1462092195.626	 8	 -1.455813	 -2.293259	 0.864524	 -2.376634	 -1.398744	 1.221006	 -0.210144	 0.719440	 -0.653072	 0.108361	 2
1462092195.636	 8	 -1.707099	 -1.858614	 1.298127	 -2.508678	 -1.393757	 1.107015	 -0.213182	 0.724952	 -0.644331	 0.117627	 2
1462092195.646	 8	 -1.847707	 -1.336273	 1.549337	 -2.646043	 -1.386436	 0.982259	 -0.213497	 0.731472	 -0.635244	 0.125825	 2
1462092195.656	 8	 -1.928467	 -0.835923	 1.579209	 -2.772095	 -1.375686	 0.863705	 -0.211961	 0.738558	 -0.626179	 0.132307	 2
1462092195.666	 8	 -1.920911	 -0.224526	 1.411113	 -2.873584	 -1.361919	 0.764093	 -0.209028	 0.745846	 -0.617615	 0.136279	 2
1462092195.676	 8	 -1.785639	 0.428053	 1.106936	 -2.942535	 -1.346913	 0.690687	 -0.204988	 0.752859	 -0.610257	 0.137002	 2
1462092195.686	 8	 -1.629050	 0.862413	 0.786689	 -2.983533	 -1.332016	 0.640673	 -0.200524	 0.759325	 -0.604138	 0.135027	 2
1462092195.696	 8	 -1.482048	 1.027053	 0.522632	 -3.005448	 -1.317871	 0.607751	 -0.196290	 0.765135	 -0.598962	 0.131466	 2
1462092195.706	 8	 -1.348431	 1.012473	 0.326298	 -3.015791	 -1.304659	 0.586480	 -0.192721	 0.770275	 -0.594416	 0.127301	 2
1462092195.716	 8	 -1.178903	 1.055990	 0.235703	 -3.019853	 -1.292796	 0.571531	 -0.189452	 0.774796	 -0.590507	 0.122883	 2
1462092195.726	 8	 -1.010757	 1.193672	 0.222731	 -3.020350	 -1.282611	 0.558998	 -0.185819	 0.778803	 -0.587363	 0.118073	 2
1462092195.736	 8	 -0.870107	 1.345597	 0.255959	 -3.018947	 -1.273959	 0.546780	 -0.181545	 0.782427	 -0.584906	 0.112848	 2
1462092195.746	 8	 -0.789384	 1.451000	 0.303131	 -3.017214	 -1.266299	 0.533662	 -0.176685	 0.785832	 -0.582855	 0.107382	 2
1462092195.756	 8	 -0.694797	 1.561618	 0.341704	 -3.015089	 -1.259561	 0.519820	 -0.171298	 0.789019	 -0.581176	 0.101691	 2
1462092195.766	 8	 -0.539432	 1.682513	 0.355331	 -3.011715	 -1.254230	 0.505998	 -0.165386	 0.791826	 -0.580086	 0.095702	 2
1462092195.776	 8	 -0.309767	 1.775042	 0.300904	 -3.005332	 -1.250944	 0.494271	 -0.159209	 0.793983	 -0.579875	 0.089379	 2
1462092195.786	 8	 0.037096	 1.884808	 0.177409	 -2.993294	 -1.250683	 0.487408	 -0.153015	 0.795108	 -0.581009	 0.082574	 2
1462092195.796	 8	 0.455560	 2.026185	 0.041860	 -2.973966	 -1.254236	 0.486826	 -0.146794	 0.794934	 -0.583853	 0.075148	 2
1462092195.806	 8	 0.914904	 2.218651	 -0.072253	 -2.946489	 -1.261988	 0.492954	 -0.140348	 0.793335	 -0.588586	 0.066991	 2
1462092195.816	 8	 1.474393	 2.590664	 -0.173845	 -2.907970	 -1.274621	 0.507306	 -0.133178	 0.790083	 -0.595576	 0.057631	 2
1462092195.826	 8	 2.217784	 3.257860	 -0.270027	 -2.851469	 -1.293469	 0.534212	 -0.124411	 0.784662	 -0.605559	 0.046105	 2
1462092195.836	 8	 3.240025	 4.227286	 -0.377549	 -2.763507	 -1.320344	 0.584174	 -0.113036	 0.776139	 -0.619558	 0.031293	 2
1462092195.846	 8	 4.398723	 4.986387	 -0.539373	 -2.621008	 -1.355303	 0.680832	 -0.099248	 0.763480	 -0.638022	 0.013287	 2
1462092195.856	 8	 4.722448	 3.909451	 -0.779220	 -2.409366	 -1.389534	 0.852148	 -0.087759	 0.747884	 -0.657994	 -0.003360	 2
1462092195.866	 8	 1.426066	 0.812692	 -0.286953	 -2.267583	 -1.403976	 0.980058	 -0.084466	 0.739017	 -0.668299	 -0.009774	 2
1462092195.876	 8	 -0.732580	 0.377605	 0.296911	 -2.288439	 -1.402963	 0.955064	 -0.082466	 0.740355	 -0.667053	 -0.010689	 2
1462092195.886	 8	 -1.052493	 0.119566	 0.664983	 -2.352870	 -1.400171	 0.887630	 -0.079621	 0.743972	 -0.663376	 -0.009965	 2
1462092195.896	 8	 -0.959370	 -0.520987	 0.959822	 -2.433712	 -1.398988	 0.809021	 -0.077339	 0.747638	 -0.659559	 -0.006117	 2
1462092195.906	 8	 -0.558130	 -1.189172	 0.942651	 -2.512325	 -1.399678	 0.739796	 -0.077123	 0.750257	 -0.656632	 0.000707	 2
1462092195.916	 8	 0.031625	 -1.493901	 0.667174	 -2.566496	 -1.402936	 0.699472	 -0.079061	 0.750898	 -0.655613	 0.008519	 2
1462092195.926	 8	 0.462785	 -1.244148	 0.374791	 -2.590681	 -1.408453	 0.688621	 -0.081791	 0.749779	 -0.656438	 0.015187	 2
1462092195.936	 8	 0.515675	 -0.470616	 0.142798	 -2.590620	 -1.414045	 0.695545	 -0.083227	 0.748049	 -0.658141	 0.018598	 2
1462092195.946	 8	 0.194535	 0.182855	 -0.076399	 -2.579396	 -1.416337	 0.706491	 -0.083152	 0.747107	 -0.659223	 0.018487	 2
1462092195.956	 8	 0.104523	 0.627101	 -0.159939	 -2.562880	 -1.416279	 0.718054	 -0.082036	 0.746788	 -0.659787	 0.016120	 2
1462092195.966	 8	 0.619169	 1.533321	 -0.095239	 -2.527591	 -1.419414	 0.740990	 -0.078256	 0.745323	 -0.662000	 0.011221	 2
1462092195.976	 8	 1.481667	 2.731418	 -0.121442	 -2.445460	 -1.428776	 0.799187	 -0.070439	 0.741177	 -0.667600	 0.002216	 2
1462092195.986	 8	 1.916052	 2.662916	 -0.298515	 -2.309789	 -1.440562	 0.907809	 -0.061971	 0.734775	 -0.675422	 -0.008354	 2
1462092195.996	 8	 1.231053	 0.719037	 -0.373519	 -2.188477	 -1.446896	 1.016982	 -0.059012	 0.729592	 -0.681190	 -0.013947	 2
1462092196.006	 8	 -0.222611	 -1.730188	 -0.191816	 -2.178333	 -1.445819	 1.038874	 -0.063858	 0.729041	 -0.681404	 -0.010507	 2
1462092196.016	 8	 -1.579445	 -3.079116	 -0.044414	 -2.280125	 -1.437471	 0.964623	 -0.073649	 0.733394	 -0.675802	 -0.000902	 2
1462092196.026	 8	 -2.402989	 -3.498653	 -0.002780	 -2.425861	 -1.421589	 0.852243	 -0.085307	 0.740818	 -0.666178	 0.010878	 2
1462092196.036	 8	 -2.263942	 -2.349945	 0.054658	 -2.545718	 -1.402945	 0.758991	 -0.094557	 0.748462	 -0.656090	 0.020250	 2
1462092196.046	 8	 -1.335941	 0.149968	 0.195601	 -2.606561	 -1.390463	 0.702056	 -0.095663	 0.753654	 -0.649906	 0.021824	 2
1462092196.056	 8	 -0.703152	 1.227157	 -0.022630	 -2.620713	 -1.383757	 0.676272	 -0.091851	 0.756445	 -0.647341	 0.017438	 2
1462092196.066	 8	 -0.651618	 0.114341	 -0.773073	 -2.607629	 -1.375340	 0.684713	 -0.092481	 0.758312	 -0.645158	 0.013506	 2
1462092196.076	 8	 -0.623676	 -1.580180	 -1.667272	 -2.575307	 -1.362348	 0.729563	 -0.101749	 0.759583	 -0.642272	 0.012952	 2
1462092196.086	 8	 -0.592928	 -2.857309	 -2.350854	 -2.533219	 -1.345136	 0.799107	 -0.118420	 0.760118	 -0.638718	 0.015388	 2
1462092196.096	 8	 -0.033673	 -2.675358	 -2.554394	 -2.481861	 -1.328205	 0.881242	 -0.137172	 0.759005	 -0.636216	 0.017991	 2
1462092196.106	 8	 1.130551	 -1.197449	 -2.447399	 -2.401084	 -1.318663	 0.980788	 -0.151490	 0.754401	 -0.638476	 0.016660	 2
1462092196.116	 8	 1.906637	 -0.413291	 -2.242233	 -2.296330	 -1.314525	 1.094612	 -0.161741	 0.746950	 -0.644783	 0.012678	 2
1462092196.126	 8	 2.259142	 -0.466603	 -1.824822	 -2.189426	 -1.312961	 1.209496	 -0.170187	 0.738223	 -0.652663	 0.009765	 2
1462092196.136	 8	 2.447772	 -0.694513	 -1.350058	 -2.088957	 -1.313530	 1.320066	 -0.177576	 0.729024	 -0.660986	 0.009405	 2
1462092196.146	 8	 2.631733	 -0.733500	 -0.932112	 -1.990522	 -1.316041	 1.429432	 -0.183618	 0.719467	 -0.669725	 0.010989	 2
1462092196.156	 8	 2.849856	 -0.646022	 -0.661428	 -1.886409	 -1.319367	 1.543906	 -0.188285	 0.709338	 -0.679120	 0.013559	 2
1462092196.166	 8	 3.083693	 -0.474766	 -0.564886	 -1.771490	 -1.321528	 1.667935	 -0.191881	 0.698406	 -0.689307	 0.016313	 2
1462092196.176	 8	 3.283293	 -0.160154	 -0.660681	 -1.645005	 -1.319747	 1.801029	 -0.194635	 0.686532	 -0.700330	 0.018120	 2
1462092196.186	 8	 3.413837	 0.295469	 -0.846218	 -1.512997	 -1.312044	 1.935635	 -0.196423	 0.673815	 -0.712085	 0.018027	 2
1462092196.196	 8	 3.523654	 0.877755	 -1.027198	 -1.382678	 -1.297973	 2.063153	 -0.196802	 0.660359	 -0.724538	 0.015508	 2
1462092196.206	 8	 3.609178	 1.465843	 -1.151428	 -1.259109	 -1.278182	 2.178026	 -0.195393	 0.646213	 -0.737643	 0.010603	 2
1462092196.216	 8	 3.611191	 1.950342	 -1.220474	 -1.147232	 -1.253913	 2.276051	 -0.192284	 0.631656	 -0.751015	 0.003757	 2
1462092196.226	 8	 3.565630	 2.256702	 -1.233213	 -1.048740	 -1.226632	 2.356923	 -0.187807	 0.616929	 -0.764270	 -0.004373	 2
1462092196.236	 8	 3.463474	 2.076329	 -1.213753	 -0.965655	 -1.197631	 2.422541	 -0.183338	 0.602238	 -0.776880	 -0.012423	 2
1462092196.246	 8	 3.138232	 1.185253	 -1.166990	 -0.904516	 -1.168878	 2.472878	 -0.181428	 0.588384	 -0.787750	 -0.018424	 2
1462092196.256	 8	 2.456455	 -0.223429	 -1.066520	 -0.872093	 -1.143661	 2.506706	 -0.184307	 0.576886	 -0.795488	 -0.020771	 2
1462092196.266	 8	 1.517890	 -1.565255	 -0.944009	 -0.869274	 -1.124869	 2.523687	 -0.192287	 0.569079	 -0.799249	 -0.019398	 2
1462092196.276	 8	 0.574438	 -2.598514	 -0.806860	 -0.891198	 -1.113289	 2.525501	 -0.204158	 0.565257	 -0.799106	 -0.015293	 2
1462092196.286	 8	 -0.041328	 -3.350178	 -0.720035	 -0.930711	 -1.106944	 2.516874	 -0.218918	 0.564330	 -0.795942	 -0.009162	 2
1462092196.296	 8	 -0.172954	 -3.840451	 -0.766082	 -0.979468	 -1.101887	 2.504137	 -0.235843	 0.564283	 -0.791176	 -0.001765	 2
1462092196.306	 8	 0.236460	 -3.988740	 -0.955403	 -1.026944	 -1.093726	 2.495431	 -0.254052	 0.562725	 -0.786614	 0.006000	 2
1462092196.316	 8	 0.919612	 -3.767942	 -1.178843	 -1.063812	 -1.080278	 2.497222	 -0.272256	 0.558132	 -0.783701	 0.013354	 2
1462092196.326	 8	 1.450888	 -3.245019	 -1.308626	 -1.087335	 -1.062629	 2.509048	 -0.288982	 0.550815	 -0.782756	 0.019602	 2
1462092196.336	 8	 1.690565	 -2.660727	 -1.307408	 -1.100217	 -1.043403	 2.526448	 -0.303350	 0.542111	 -0.783257	 0.024555	 2
1462092196.346	 8	 1.733662	 -2.180656	 -1.237238	 -1.106731	 -1.024398	 2.545567	 -0.315489	 0.533086	 -0.784522	 0.028474	 2
1462092196.356	 8	 1.749698	 -1.773960	 -1.176042	 -1.108897	 -1.005986	 2.565046	 -0.325719	 0.524060	 -0.786303	 0.031545	 2
1462092196.366	 8	 1.865650	 -1.397803	 -1.178881	 -1.106591	 -0.987321	 2.585537	 -0.334333	 0.514678	 -0.788787	 0.033815	 2
1462092196.376	 8	 2.043114	 -1.055214	 -1.239052	 -1.099678	 -0.967412	 2.607592	 -0.341594	 0.504519	 -0.792168	 0.035263	 2
1462092196.386	 8	 2.157522	 -0.742134	 -1.287226	 -1.089272	 -0.946268	 2.630362	 -0.347660	 0.493693	 -0.796310	 0.035917	 2
1462092196.396	 8	 2.171900	 -0.434572	 -1.256779	 -1.076415	 -0.924863	 2.652684	 -0.352411	 0.482700	 -0.800949	 0.035899	 2
1462092196.406	 8	 2.149499	 -0.093175	 -1.122319	 -1.060966	 -0.904300	 2.674477	 -0.355531	 0.471952	 -0.805978	 0.035478	 2
1462092196.416	 8	 2.158596	 0.278653	 -0.885536	 -1.041687	 -0.885368	 2.696814	 -0.356619	 0.461588	 -0.811499	 0.035038	 2
1462092196.426	 8	 2.177596	 0.667865	 -0.594324	 -1.017671	 -0.868428	 2.720576	 -0.355426	 0.451639	 -0.817606	 0.034873	 2
1462092196.436	 8	 2.126559	 0.894729	 -0.278434	 -0.990316	 -0.853891	 2.745410	 -0.352354	 0.442350	 -0.823970	 0.035299	 2
1462092196.446	 8	 1.964071	 0.821767	 0.007926	 -0.963152	 -0.842127	 2.770120	 -0.348554	 0.434078	 -0.829904	 0.036687	 2
1462092196.456	 8	 1.582792	 0.157296	 0.186242	 -0.942953	 -0.833491	 2.792173	 -0.346321	 0.427327	 -0.834204	 0.039452	 2
1462092196.466	 8	 0.808615	 -1.248031	 0.125552	 -0.941718	 -0.828772	 2.805746	 -0.349445	 0.423171	 -0.834806	 0.043743	 2
1462092196.476	 8	 0.098512	 -2.295109	 -0.081569	 -0.960471	 -0.827026	 2.808568	 -0.358131	 0.421565	 -0.831671	 0.048466	 2
1462092196.486	 8	 -0.320931	 -2.727019	 -0.116041	 -0.989726	 -0.827291	 2.804712	 -0.369403	 0.421625	 -0.826411	 0.053098	 2
1462092196.496	 8	 -0.603142	 -2.945342	 0.024000	 -1.023757	 -0.830019	 2.797872	 -0.381518	 0.422996	 -0.819840	 0.058144	 2
1462092196.506	 8	 -0.898368	 -3.013385	 0.201788	 -1.060756	 -0.835495	 2.788497	 -0.393706	 0.425730	 -0.812225	 0.063564	 2
1462092196.516	 8	 -1.283606	 -2.974449	 0.428249	 -1.100330	 -0.844307	 2.775496	 -0.405384	 0.430245	 -0.803604	 0.069092	 2
1462092196.526	 8	 -1.810806	 -2.727586	 0.669604	 -1.142474	 -0.857019	 2.756720	 -0.415860	 0.437148	 -0.794016	 0.074171	 2
1462092196.536	 8	 -2.557539	 -2.209750	 0.934575	 -1.187516	 -0.874262	 2.728579	 -0.424156	 0.447359	 -0.783518	 0.077851	 2
1462092196.546	 8	 -3.422249	 -1.369250	 1.205708	 -1.235271	 -0.896239	 2.687484	 -0.429020	 0.461649	 -0.772379	 0.079072	 2
1462092196.556	 8	 -4.126828	 -0.676575	 1.397337	 -1.286673	 -0.921157	 2.632656	 -0.430535	 0.479435	 -0.760761	 0.077614	 2
1462092196.566	 8	 -4.431462	 0.166162	 1.616720	 -1.339537	 -0.947400	 2.568055	 -0.428728	 0.499288	 -0.749255	 0.074304	 2
1462092196.576	 8	 -4.423452	 1.681227	 1.833244	 -1.383658	 -0.974039	 2.498706	 -0.421036	 0.520050	 -0.740012	 0.068254	 2
1462092196.586	 8	 -4.328323	 3.289182	 1.840983	 -1.414759	 -0.999714	 2.426621	 -0.406803	 0.540841	 -0.733891	 0.058356	 2
1462092196.596	 8	 -4.242548	 4.381431	 1.718246	 -1.436662	 -1.023162	 2.351844	 -0.387914	 0.560988	 -0.729935	 0.044842	 2
1462092196.606	 8	 -4.124539	 4.773259	 1.677168	 -1.455308	 -1.045001	 2.275262	 -0.366721	 0.580171	 -0.726662	 0.029652	 2
1462092196.616	 8	 -3.994036	 4.597507	 1.694646	 -1.476197	 -1.066045	 2.197609	 -0.345268	 0.598290	 -0.722924	 0.014857	 2
1462092196.626	 8	 -3.879264	 4.040920	 1.696993	 -1.503811	 -1.086123	 2.118520	 -0.325149	 0.615374	 -0.718046	 0.001682	 2
1462092196.636	 8	 -3.781800	 3.194146	 1.717041	 -1.541863	 -1.105065	 2.037264	 -0.307515	 0.631616	 -0.711630	 -0.008878	 2
1462092196.646	 8	 -3.667762	 2.018638	 1.732819	 -1.593559	 -1.122519	 1.953594	 -0.293471	 0.647153	 -0.703433	 -0.015782	 2
1462092196.656	 8	 -3.471739	 0.388405	 1.704219	 -1.662095	 -1.137685	 1.868768	 -0.284690	 0.661879	 -0.693224	 -0.017557	 2
1462092196.666	 8	 -3.159836	 -1.313619	 1.649430	 -1.746667	 -1.149879	 1.785789	 -0.281976	 0.675452	 -0.681230	 -0.013409	 2
1462092196.676	 8	 -2.723316	 -2.622408	 1.603609	 -1.840730	 -1.159399	 1.708388	 -0.284182	 0.687430	 -0.668330	 -0.004041	 2
1462092196.686	 8	 -2.124876	 -3.252561	 1.483827	 -1.933376	 -1.166772	 1.641769	 -0.289363	 0.697128	 -0.655902	 0.008624	 2
1462092196.696	 8	 -1.498955	 -2.933865	 1.243678	 -2.011934	 -1.172395	 1.589802	 -0.294886	 0.704175	 -0.645545	 0.021244	 2
1462092196.706	 8	 -1.082067	 -1.935737	 1.036184	 -2.070653	 -1.176706	 1.550144	 -0.298331	 0.709237	 -0.637992	 0.030790	 2
1462092196.716	 8	 -0.966808	 -0.726363	 0.943055	 -2.113003	 -1.180179	 1.515432	 -0.298338	 0.713608	 -0.632819	 0.036042	 2
1462092196.726	 8	 -1.076350	 0.334777	 0.851570	 -2.144895	 -1.182104	 1.480012	 -0.295116	 0.718202	 -0.629069	 0.036950	 2
1462092196.736	 8	 -1.275129	 1.047165	 0.739498	 -2.171208	 -1.181702	 1.441935	 -0.289774	 0.723322	 -0.625825	 0.034350	 2
1462092196.746	 8	 -1.489395	 1.390757	 0.659300	 -2.195941	 -1.178977	 1.400839	 -0.283405	 0.728985	 -0.622404	 0.029585	 2
1462092196.756	 8	 -1.672086	 1.352957	 0.653079	 -2.222860	 -1.174486	 1.356682	 -0.276948	 0.735135	 -0.618295	 0.024248	 2
1462092196.766	 8	 -1.776695	 1.061292	 0.724813	 -2.254462	 -1.169137	 1.309997	 -0.271029	 0.741628	 -0.613302	 0.019794	 2
1462092196.776	 8	 -1.789490	 0.699829	 0.888885	 -2.291297	 -1.164023	 1.261371	 -0.265645	 0.748298	 -0.607613	 0.017038	 2
1462092196.786	 8	 -1.763260	 0.496475	 1.017854	 -2.331517	 -1.159411	 1.211702	 -0.260441	 0.754995	 -0.601586	 0.015701	 2
1462092196.796	 8	 -1.706924	 0.472704	 0.989432	 -2.370887	 -1.154431	 1.163570	 -0.255344	 0.761496	 -0.595573	 0.014710	 2
1462092196.806	 8	 -1.555469	 0.573343	 0.848369	 -2.404480	 -1.148830	 1.120881	 -0.250479	 0.767385	 -0.590089	 0.013244	 2
1462092196.816	 8	 -1.329527	 0.813449	 0.755915	 -2.430246	 -1.143553	 1.084433	 -0.245391	 0.772477	 -0.585614	 0.010932	 2
1462092196.826	 8	 -1.067807	 1.166244	 0.670592	 -2.447075	 -1.139372	 1.054132	 -0.239631	 0.776678	 -0.582489	 0.007425	 2
1462092196.836	 8	 -0.804962	 1.541289	 0.573744	 -2.454531	 -1.136470	 1.029951	 -0.233115	 0.779949	 -0.580802	 0.002492	 2
1462092196.846	 8	 -0.545686	 1.839751	 0.475147	 -2.453495	 -1.134921	 1.011562	 -0.226015	 0.782294	 -0.580448	 -0.003674	 2
1462092196.856	 8	 -0.270040	 2.006129	 0.355996	 -2.444790	 -1.134766	 0.999391	 -0.218760	 0.783640	 -0.581325	 -0.010659	 2
1462092196.866	 8	 0.035930	 2.008894	 0.274491	 -2.429996	 -1.136332	 0.993463	 -0.211741	 0.783934	 -0.583350	 -0.017759	 2
1462092196.876	 8	 0.334292	 1.951324	 0.229793	 -2.410445	 -1.139875	 0.993365	 -0.205096	 0.783204	 -0.586453	 -0.024486	 2
1462092196.886	 8	 0.645205	 1.827876	 0.199293	 -2.386806	 -1.145470	 0.998895	 -0.198879	 0.781490	 -0.590581	 -0.030576	 2
1462092196.896	 8	 0.938073	 1.746836	 0.142701	 -2.358324	 -1.152787	 1.010825	 -0.193189	 0.778785	 -0.595708	 -0.036123	 2
1462092196.906	 8	 1.381951	 1.767565	 0.100662	 -2.322085	 -1.162245	 1.031232	 -0.187751	 0.774815	 -0.602242	 -0.041425	 2
1462092196.916	 8	 2.338886	 1.968594	 0.048373	 -2.267521	 -1.176379	 1.069738	 -0.182163	 0.768187	 -0.611984	 -0.046704	 2
1462092196.926	 8	 3.737013	 1.887941	 -0.094574	 -2.180988	 -1.196490	 1.141922	 -0.177106	 0.757225	 -0.626587	 -0.051306	 2
1462092196.936	 8	 4.817106	 0.008655	 -0.522192	 -2.065814	 -1.217165	 1.258176	 -0.177767	 0.742061	 -0.644317	 -0.050980	 2
1462092196.946	 8	 3.743263	 -4.445776	 -0.667263	 -1.981793	 -1.229677	 1.380926	 -0.191533	 0.728110	 -0.657074	 -0.037756	 2
1462092196.956	 8	 0.799794	 -4.503450	 0.162479	 -1.997029	 -1.234689	 1.418173	 -0.208430	 0.724387	 -0.656876	 -0.018278	 2
1462092196.966	 8	 -0.117788	 -1.823192	 0.519401	 -2.026356	 -1.239015	 1.413225	 -0.214845	 0.724911	 -0.654435	 -0.007797	 2
1462092196.976	 8	 -0.437190	 0.091638	 0.582630	 -2.046668	 -1.242533	 1.395128	 -0.213780	 0.726736	 -0.652783	 -0.005143	 2
1462092196.986	 8	 -0.662376	 1.109002	 0.714489	 -2.062971	 -1.245560	 1.368368	 -0.208383	 0.729433	 -0.651503	 -0.006911	 2
1462092196.996	 8	 -0.544206	 1.247159	 0.746718	 -2.076852	 -1.249368	 1.340422	 -0.201477	 0.732104	 -0.650644	 -0.009661	 2
1462092197.006	 8	 -0.257314	 0.708722	 0.533518	 -2.085096	 -1.252968	 1.322263	 -0.196362	 0.733694	 -0.650390	 -0.011350	 2
1462092197.016	 8	 -0.168679	 -0.533649	 0.412478	 -2.098711	 -1.255782	 1.310299	 -0.195505	 0.734720	 -0.649521	 -0.009310	 2
1462092197.026	 8	 0.032016	 -0.955568	 0.392949	 -2.115241	 -1.259006	 1.302683	 -0.197058	 0.735263	 -0.648487	 -0.004645	 2
1462092197.036	 8	 0.246782	 -0.836557	 0.317584	 -2.122995	 -1.263157	 1.303382	 -0.198530	 0.734852	 -0.648521	 -0.000206	 2
1462092197.046	 8	 -0.376321	 -1.172660	 0.212239	 -2.142495	 -1.264163	 1.294360	 -0.201214	 0.735644	 -0.646777	 0.004370	 2
1462092197.056	 8	 -1.521614	 -0.706246	 0.411994	 -2.189090	 -1.260166	 1.254672	 -0.202807	 0.739903	 -0.641371	 0.007485	 2
1462092197.066	 8	 -2.556641	 -0.469059	 0.433870	 -2.258654	 -1.249695	 1.186413	 -0.202688	 0.747734	 -0.632252	 0.008329	 2
1462092197.076	 8	 -2.937547	 -0.915458	 0.177250	 -2.334814	 -1.232135	 1.114374	 -0.204431	 0.757053	 -0.620480	 0.009117	 2
1462092197.086	 8	 -1.389207	 0.354699	 0.244863	 -2.378163	 -1.220146	 1.069910	 -0.204159	 0.763156	 -0.613060	 0.008399	 2
1462092197.096	 8	 -0.078773	 1.868219	 0.041845	 -2.369148	 -1.219095	 1.061786	 -0.198573	 0.764156	 -0.613702	 0.002166	 2
1462092197.106	 8	 -0.584462	 0.190648	 -0.344511	 -2.364635	 -1.214202	 1.059152	 -0.197490	 0.765150	 -0.612813	 -0.001763	 2
1462092197.116	 8	 -0.919586	 -1.491259	 -0.233616	 -2.386345	 -1.205910	 1.047665	 -0.201918	 0.767553	 -0.608351	 0.000696	 2
1462092197.126	 8	 -0.326269	 -2.128565	 -0.021967	 -2.415614	 -1.201444	 1.038613	 -0.208478	 0.769109	 -0.604107	 0.007945	 2
1462092197.136	 8	 0.900159	 -1.281234	 -0.163310	 -2.418752	 -1.205291	 1.051759	 -0.213480	 0.767103	 -0.604796	 0.014198	 2
1462092197.146	 8	 1.652595	 -0.510686	 -0.523985	 -2.390077	 -1.213501	 1.089445	 -0.217021	 0.762018	 -0.609869	 0.017011	 2
1462092197.156	 8	 1.986893	 -0.490959	 -0.748390	 -2.344722	 -1.222301	 1.142621	 -0.220896	 0.755344	 -0.616694	 0.018687	 2
1462092197.166	 8	 2.284056	 -0.877424	 -0.973055	 -2.289983	 -1.230573	 1.208946	 -0.226495	 0.747406	 -0.624207	 0.021210	 2
1462092197.176	 8	 2.666829	 -1.222584	 -1.187423	 -2.224056	 -1.238040	 1.290973	 -0.234041	 0.737896	 -0.632548	 0.024861	 2
1462092197.186	 8	 2.987178	 -1.321059	 -1.290245	 -2.146033	 -1.244468	 1.387287	 -0.242481	 0.726913	 -0.641837	 0.029089	 2
1462092197.196	 8	 3.128355	 -1.196478	 -1.360655	 -2.058606	 -1.248642	 1.492594	 -0.250842	 0.715035	 -0.651699	 0.033051	 2
1462092197.206	 8	 3.186896	 -0.891295	 -1.493677	 -1.963663	 -1.248994	 1.602949	 -0.258659	 0.702593	 -0.661951	 0.035766	 2
1462092197.216	 8	 3.257453	 -0.533974	 -1.618858	 -1.863037	 -1.244886	 1.715634	 -0.265678	 0.689591	 -0.672696	 0.036867	 2
1462092197.226	 8	 3.333089	 -0.291020	 -1.672675	 -1.760842	 -1.236654	 1.827243	 -0.271895	 0.676055	 -0.683861	 0.036848	 2
1462092197.236	 8	 3.327759	 -0.282557	 -1.681072	 -1.664161	 -1.225132	 1.932730	 -0.277717	 0.662320	 -0.694881	 0.036699	 2
1462092197.246	 8	 3.177567	 -0.460699	 -1.666489	 -1.580640	 -1.211482	 2.026359	 -0.283670	 0.649047	 -0.704901	 0.037211	 2
1462092197.256	 8	 2.885623	 -0.652866	 -1.590066	 -1.510841	 -1.194587	 2.107665	 -0.290458	 0.636103	 -0.713853	 0.037691	 2
1462092197.266	 8	 2.532324	 -0.761618	 -1.476097	 -1.457004	 -1.177322	 2.173746	 -0.297358	 0.624348	 -0.721308	 0.038484	 2
1462092197.276	 8	 2.188146	 -0.723819	 -1.389619	 -1.415905	 -1.160323	 2.226463	 -0.303963	 0.613861	 -0.727497	 0.039096	 2
1462092197.286	 8	 1.859300	 -0.600995	 -1.305681	 -1.384354	 -1.143913	 2.267941	 -0.309953	 0.604612	 -0.732694	 0.039150	 2
1462092197.296	 8	 1.534048	 -0.414197	 -1.198797	 -1.360107	 -1.128737	 2.299802	 -0.315023	 0.596680	 -0.737052	 0.038576	 2
1462092197.306	 8	 1.232515	 -0.165870	 -1.104337	 -1.341080	 -1.114887	 2.323473	 -0.318969	 0.590028	 -0.740773	 0.037163	 2
1462092197.316	 8	 0.995132	 0.091977	 -0.991163	 -1.325141	 -1.102492	 2.340950	 -0.321669	 0.584503	 -0.744085	 0.034966	 2
1462092197.326	 8	 0.837637	 0.307138	 -0.865227	 -1.310485	 -1.091640	 2.354541	 -0.323174	 0.579852	 -0.747187	 0.032287	 2
1462092197.336	 8	 0.742823	 0.479425	 -0.759419	 -1.296033	 -1.082075	 2.365905	 -0.323673	 0.575799	 -0.750221	 0.029322	 2
1462092197.346	 8	 0.697762	 0.597052	 -0.690789	 -1.281367	 -1.073332	 2.376069	 -0.323454	 0.572084	 -0.753268	 0.026171	 2
1462092197.356	 8	 0.717420	 0.589373	 -0.568469	 -1.266207	 -1.065470	 2.386471	 -0.322814	 0.568508	 -0.756338	 0.023308	 2
1462092197.366	 8	 0.795546	 0.538934	 -0.452385	 -1.250125	 -1.058573	 2.398572	 -0.321984	 0.564874	 -0.759470	 0.021192	 2
1462092197.376	 8	 0.937130	 0.444035	 -0.427857	 -1.232889	 -1.051616	 2.412962	 -0.321304	 0.560821	 -0.762795	 0.019674	 2
1462092197.386	 8	 1.144557	 0.297744	 -0.423564	 -1.214249	 -1.043899	 2.430556	 -0.321091	 0.556006	 -0.766422	 0.018844	 2
1462092197.396	 8	 1.393491	 0.089967	 -0.374377	 -1.194124	 -1.035482	 2.452324	 -0.321524	 0.550278	 -0.770358	 0.019106	 2
1462092197.406	 8	 1.604756	 -0.001400	 -0.274753	 -1.171822	 -1.026818	 2.478145	 -0.322134	 0.543786	 -0.774667	 0.020409	 2
1462092197.416	 8	 1.764137	 0.009356	 -0.193977	 -1.147282	 -1.017982	 2.506893	 -0.322516	 0.536738	 -0.779356	 0.022372	 2
1462092197.426	 8	 1.883155	 0.094388	 -0.153723	 -1.120723	 -1.008670	 2.537371	 -0.322457	 0.529234	 -0.784430	 0.024546	 2
1462092197.436	 8	 1.961692	 0.204976	 -0.125668	 -1.092533	 -0.998783	 2.568665	 -0.321848	 0.521387	 -0.789846	 0.026692	 2
1462092197.446	 8	 1.938293	 0.211513	 -0.113680	 -1.064751	 -0.988538	 2.599211	 -0.321010	 0.513493	 -0.795266	 0.028808	 2
1462092197.456	 8	 1.729968	 0.177968	 -0.130296	 -1.040399	 -0.978577	 2.626261	 -0.320325	 0.506163	 -0.800154	 0.030730	 2
1462092197.466	 8	 1.266423	 -0.042663	 -0.234890	 -1.023991	 -0.969667	 2.645700	 -0.320489	 0.500248	 -0.803748	 0.032061	 2
1462092197.476	 8	 0.746761	 -0.455127	 -0.268307	 -1.018737	 -0.962801	 2.656301	 -0.322417	 0.496247	 -0.805408	 0.033238	 2
1462092197.486	 8	 0.320908	 -0.807060	 -0.130391	 -1.022244	 -0.959141	 2.660998	 -0.325732	 0.494150	 -0.805287	 0.035052	 2
1462092197.496	 8	 0.042764	 -0.798162	 -0.042626	 -1.029645	 -0.958143	 2.661994	 -0.329157	 0.493505	 -0.804200	 0.037021	 2
1462092197.506	 8	 -0.027628	 -0.551301	 -0.056768	 -1.036507	 -0.957836	 2.661176	 -0.331775	 0.493404	 -0.803125	 0.038305	 2
1462092197.516	 8	 0.093691	 -0.380559	 -0.076485	 -1.040409	 -0.956933	 2.661353	 -0.333568	 0.492986	 -0.802601	 0.039103	 2
1462092197.526	 8	 0.284921	 -0.558782	 -0.081940	 -1.042969	 -0.955032	 2.664211	 -0.335684	 0.491797	 -0.802385	 0.040382	 2
1462092197.536	 8	 0.334742	 -1.099096	 -0.061823	 -1.048808	 -0.952727	 2.668655	 -0.339582	 0.490125	 -0.801631	 0.042992	 2
1462092197.546	 8	 0.125821	 -1.816691	 0.047355	 -1.062694	 -0.951910	 2.671653	 -0.346038	 0.489015	 -0.799298	 0.047376	 2
1462092197.556	 8	 -0.266571	 -2.569453	 0.219618	 -1.087243	 -0.954196	 2.670692	 -0.355122	 0.489349	 -0.794702	 0.053608	 2
1462092197.566	 8	 -0.816752	 -3.309880	 0.415750	 -1.124832	 -0.960436	 2.663076	 -0.366832	 0.491755	 -0.787290	 0.061517	 2
1462092197.576	 8	 -1.431738	 -3.618642	 0.710250	 -1.173756	 -0.971393	 2.647137	 -0.379707	 0.496737	 -0.777247	 0.070447	 2
1462092197.586	 8	 -2.165982	 -3.247991	 1.070728	 -1.229711	 -0.987585	 2.620486	 -0.391049	 0.504948	 -0.765432	 0.078880	 2
1462092197.596	 8	 -3.051250	 -2.388078	 1.517006	 -1.291107	 -1.009541	 2.578632	 -0.398580	 0.517367	 -0.752456	 0.085298	 2
1462092197.606	 8	 -3.731344	 -1.271137	 1.995862	 -1.356275	 -1.036465	 2.520610	 -0.401057	 0.533805	 -0.739086	 0.089207	 2
1462092197.616	 8	 -4.040983	 0.056770	 2.528875	 -1.420204	 -1.067208	 2.450350	 -0.397423	 0.553043	 -0.726605	 0.090797	 2
1462092197.626	 8	 -4.120730	 1.741068	 3.019506	 -1.477741	 -1.100995	 2.370635	 -0.386442	 0.574134	 -0.716250	 0.089550	 2
1462092197.636	 8	 -4.187017	 3.717556	 3.327297	 -1.526634	 -1.136428	 2.280518	 -0.367236	 0.596530	 -0.708697	 0.083894	 2
1462092197.646	 8	 -4.293015	 5.470543	 3.306164	 -1.570677	 -1.170673	 2.176985	 -0.340920	 0.619476	 -0.703377	 0.072689	 2
1462092197.656	 8	 -4.296678	 6.515089	 3.022831	 -1.615697	 -1.200792	 2.060356	 -0.310403	 0.641690	 -0.699052	 0.056663	 2
1462092197.666	 8	 -4.011106	 6.540005	 2.614521	 -1.664264	 -1.225076	 1.938094	 -0.279546	 0.661565	 -0.694765	 0.038577	 2
1462092197.676	 8	 -3.514721	 5.758307	 2.236303	 -1.715741	 -1.243864	 1.820078	 -0.251550	 0.678170	 -0.690171	 0.021716	 2
1462092197.686	 8	 -3.071785	 4.405404	 1.976864	 -1.773051	 -1.258471	 1.709473	 -0.228415	 0.691873	 -0.684883	 0.008575	 2
1462092197.696	 8	 -2.841847	 2.470242	 1.713860	 -1.845028	 -1.269010	 1.602649	 -0.212084	 0.703751	 -0.678051	 0.001057	 2
1462092197.706	 8	 -2.596891	 0.475070	 1.541824	 -1.933611	 -1.275672	 1.499862	 -0.203240	 0.714358	 -0.669616	 0.000183	 2
1462092197.716	 8	 -2.273357	 -1.228238	 1.461343	 -2.033223	 -1.279794	 1.404526	 -0.200721	 0.723678	 -0.660279	 0.005724	 2
1462092197.726	 8	 -1.870007	 -2.302109	 1.382827	 -2.134896	 -1.282347	 1.320082	 -0.202511	 0.731461	 -0.650924	 0.015889	 2
1462092197.736	 8	 -1.324711	 -2.647176	 1.246976	 -2.226829	 -1.284449	 1.251548	 -0.206430	 0.737245	 -0.642700	 0.028163	 2
1462092197.746	 8	 -0.675735	 -2.221926	 1.042788	 -2.296299	 -1.287583	 1.203644	 -0.210028	 0.740672	 -0.636972	 0.039487	 2
1462092197.756	 8	 -0.147264	 -1.523227	 0.803826	 -2.340484	 -1.292093	 1.175433	 -0.212316	 0.742056	 -0.633990	 0.048277	 2
1462092197.766	 8	 0.143019	 -0.719988	 0.657435	 -2.364560	 -1.297577	 1.159976	 -0.212664	 0.742273	 -0.633161	 0.053959	 2
1462092197.776	 8	 0.111875	 -0.056436	 0.625513	 -2.379332	 -1.302970	 1.146778	 -0.210942	 0.742432	 -0.633296	 0.056861	 2
1462092197.786	 8	 -0.226499	 0.367969	 0.638803	 -2.396681	 -1.306368	 1.125937	 -0.207757	 0.743576	 -0.632931	 0.057704	 2
1462092197.796	 8	 -0.675280	 0.604112	 0.753616	 -2.424857	 -1.306987	 1.091072	 -0.203508	 0.746247	 -0.631197	 0.057358	 2
1462092197.806	 8	 -1.085299	 0.874510	 0.914237	 -2.464978	 -1.305013	 1.041210	 -0.197999	 0.750464	 -0.628053	 0.056124	 2
1462092197.816	 8	 -1.347022	 1.193961	 1.005815	 -2.511167	 -1.300763	 0.981761	 -0.191135	 0.755785	 -0.623992	 0.053771	 2
1462092197.826	 8	 -1.434608	 1.422729	 0.983128	 -2.555522	 -1.294783	 0.921448	 -0.183471	 0.761486	 -0.619633	 0.050323	 2
1462092197.836	 8	 -1.422507	 1.541454	 0.932971	 -2.594852	 -1.287777	 0.864740	 -0.175522	 0.767115	 -0.615302	 0.046154	 2
1462092197.846	 8	 -1.345411	 1.635550	 0.886282	 -2.628382	 -1.280499	 0.812929	 -0.167415	 0.772433	 -0.611225	 0.041506	 2
1462092197.856	 8	 -1.245805	 1.738197	 0.854397	 -2.656524	 -1.273519	 0.765787	 -0.159138	 0.777328	 -0.607538	 0.036527	 2
1462092197.866	 8	 -1.081524	 1.752364	 0.821126	 -2.679338	 -1.267265	 0.723504	 -0.150777	 0.781683	 -0.604366	 0.031312	 2
1462092197.876	 8	 -0.851550	 1.704324	 0.743007	 -2.696478	 -1.262410	 0.687460	 -0.142722	 0.785241	 -0.601947	 0.026195	 2
1462092197.886	 8	 -0.603880	 1.561571	 0.664919	 -2.708694	 -1.259292	 0.657861	 -0.135308	 0.787909	 -0.600357	 0.021508	 2
1462092197.896	 8	 -0.383122	 1.392113	 0.560173	 -2.716531	 -1.257781	 0.634527	 -0.128717	 0.789744	 -0.599530	 0.017320	 2
1462092197.906	 8	 -0.189363	 1.179973	 0.425423	 -2.720169	 -1.257505	 0.617738	 -0.123220	 0.790841	 -0.599333	 0.013676	 2
1462092197.916	 8	 0.003693	 1.039147	 0.297737	 -2.719314	 -1.258425	 0.607413	 -0.118725	 0.791243	 -0.599776	 0.010406	 2
1462092197.926	 8	 0.241168	 1.015394	 0.198464	 -2.713138	 -1.260956	 0.603265	 -0.114808	 0.790881	 -0.601062	 0.007166	 2
1462092197.936	 8	 0.548920	 1.168134	 0.118340	 -2.699758	 -1.265784	 0.605592	 -0.110882	 0.789581	 -0.603535	 0.003440	 2
1462092197.946	 8	 0.942686	 1.492615	 -0.004632	 -2.674764	 -1.273431	 0.617060	 -0.106508	 0.787071	 -0.607595	 -0.001550	 2
1462092197.956	 8	 1.525788	 1.988181	 -0.219316	 -2.630302	 -1.284723	 0.644183	 -0.101519	 0.782779	 -0.613903	 -0.008578	 2
1462092197.966	 8	 2.414246	 2.601222	 -0.537879	 -2.552389	 -1.300891	 0.699684	 -0.095839	 0.775664	 -0.623554	 -0.018468	 2
1462092197.976	 8	 3.479620	 2.785537	 -0.944035	 -2.426049	 -1.321316	 0.801602	 -0.090698	 0.764818	 -0.637108	 -0.030337	 2
1462092197.986	 8	 4.160525	 1.768134	 -1.336710	 -2.249969	 -1.340510	 0.960818	 -0.089236	 0.750817	 -0.653191	 -0.040642	 2
1462092197.996	 8	 3.643650	 -1.454314	 -1.358999	 -2.082098	 -1.350523	 1.138626	 -0.097033	 0.737591	 -0.666954	 -0.041432	 2
1462092198.006	 8	 -0.106841	 -2.892536	 -0.559589	 -2.052314	 -1.347980	 1.199438	 -0.110261	 0.734175	 -0.669140	 -0.032888	 2
1462092198.016	 8	 -0.992500	 0.542675	 0.219724	 -2.095576	 -1.343905	 1.158571	 -0.110938	 0.737594	 -0.665304	 -0.031904	 2
1462092198.026	 8	 -0.376332	 2.908128	 0.466575	 -2.100254	 -1.344861	 1.128862	 -0.101229	 0.739138	 -0.664716	 -0.039755	 2
1462092198.036	 8	 -0.114274	 3.358380	 0.619821	 -2.084865	 -1.349095	 1.109845	 -0.087772	 0.739161	 -0.665877	 -0.050448	 2
1462092198.046	 8	 0.027375	 1.587099	 0.772628	 -2.080942	 -1.355514	 1.092233	 -0.077973	 0.738970	 -0.666883	 -0.055771	 2
1462092198.056	 8	 0.455143	 -0.071804	 0.550972	 -2.078614	 -1.362744	 1.091692	 -0.074762	 0.737992	 -0.668432	 -0.054569	 2
1462092198.066	 8	 0.663102	 -1.092386	 0.115491	 -2.065422	 -1.367688	 1.113919	 -0.077002	 0.736171	 -0.670506	 -0.050449	 2
1462092198.076	 8	 0.562895	 -1.879976	 0.003524	 -2.056674	 -1.370560	 1.140189	 -0.082825	 0.734562	 -0.672032	 -0.043944	 2
1462092198.086	 8	 0.380833	 -2.382378	 0.170956	 -2.063870	 -1.373597	 1.156142	 -0.090144	 0.733650	 -0.672613	 -0.034977	 2
1462092198.096	 8	 0.590997	 -1.870093	 0.350810	 -2.069807	 -1.378755	 1.171310	 -0.096076	 0.732420	 -0.673537	 -0.026055	 2
1462092198.106	 8	 1.039748	 -1.167592	 0.456819	 -2.049431	 -1.386909	 1.204863	 -0.098876	 0.729611	 -0.676394	 -0.019563	 2
1462092198.116	 8	 0.875709	 -2.049709	 0.777228	 -2.036166	 -1.397425	 1.236410	 -0.102492	 0.726775	 -0.679108	 -0.010287	 2
1462092198.126	 8	 -0.258809	 -2.052048	 1.022617	 -2.080978	 -1.406417	 1.213074	 -0.106339	 0.727082	 -0.678265	 0.000998	 2
1462092198.136	 8	 -1.883875	 -0.316591	 0.903709	 -2.194133	 -1.406615	 1.106378	 -0.105553	 0.732505	 -0.672499	 0.006322	 2
1462092198.146	 8	 -3.262653	 0.840384	 0.607817	 -2.345281	 -1.392678	 0.946674	 -0.101031	 0.742797	 -0.661833	 0.004770	 2
1462092198.156	 8	 -2.653770	 1.351997	 0.416505	 -2.456873	 -1.373501	 0.820834	 -0.095464	 0.752864	 -0.651216	 0.000241	 2
1462092198.166	 8	 -0.005097	 2.563195	 0.572038	 -2.475709	 -1.371425	 0.778803	 -0.086229	 0.755272	 -0.649678	 -0.006822	 2
1462092198.176	 8	 1.330424	 3.312576	 0.607882	 -2.431210	 -1.384114	 0.791530	 -0.073528	 0.751629	 -0.655269	 -0.016413	 2
1462092198.186	 8	 0.786557	 2.883046	 0.411455	 -2.383008	 -1.394686	 0.809520	 -0.061848	 0.748169	 -0.660109	 -0.025975	 2
1462092198.196	 8	 -0.260263	 1.879002	 0.282269	 -2.374400	 -1.396759	 0.796535	 -0.053635	 0.747963	 -0.660748	 -0.032966	 2
1462092198.206	 8	 -0.728363	 0.855908	 0.253378	 -2.399937	 -1.393538	 0.759285	 -0.048892	 0.750079	 -0.658529	 -0.036476	 2
1462092198.216	 8	 0.294954	 -0.315841	 0.275129	 -2.413735	 -1.394981	 0.745386	 -0.047878	 0.750335	 -0.658364	 -0.035532	 2
1462092198.226	 8	 1.999879	 -1.536379	 0.004867	 -2.366871	 -1.407271	 0.805433	 -0.051848	 0.745306	 -0.664017	 -0.030205	 2
1462092198.236	 8	 2.903865	 -2.610075	 -0.579980	 -2.242378	 -1.422589	 0.955320	 -0.061659	 0.736301	 -0.673477	 -0.022101	 2
1462092198.246	 8	 2.844946	 -3.268511	 -1.198407	 -2.067091	 -1.429837	 1.164073	 -0.076385	 0.726371	 -0.682917	 -0.013226	 2
1462092198.256	 8	 2.489059	 -3.508494	 -1.581216	 -1.895408	 -1.426307	 1.372600	 -0.093855	 0.717045	 -0.690663	 -0.004758	 2
1462092198.266	 8	 2.361193	 -3.375956	 -1.689709	 -1.749441	 -1.415912	 1.554877	 -0.111743	 0.707969	 -0.697342	 0.002850	 2
1462092198.276	 8	 2.487146	 -2.982237	 -1.613604	 -1.619630	 -1.402372	 1.717700	 -0.128254	 0.698314	 -0.704144	 0.009443	 2
1462092198.286	 8	 2.538958	 -2.502923	 -1.497690	 -1.503819	 -1.386858	 1.861980	 -0.142670	 0.688131	 -0.711266	 0.014867	 2
1462092198.296	 8	 2.394176	 -2.051934	 -1.406972	 -1.409395	 -1.369866	 1.980165	 -0.155056	 0.678175	 -0.718107	 0.018953	 2
1462092198.306	 8	 2.234918	 -1.739079	 -1.303558	 -1.335260	 -1.352330	 2.074419	 -0.165817	 0.668742	 -0.724432	 0.022055	 2
1462092198.316	 8	 2.202712	 -1.611909	 -1.233886	 -1.273849	 -1.334502	 2.154215	 -0.175637	 0.659471	 -0.730502	 0.024830	 2
1462092198.326	 8	 2.204969	 -1.572676	 -1.249527	 -1.221960	 -1.315722	 2.224010	 -0.185212	 0.650058	 -0.736457	 0.027444	 2
1462092198.336	 8	 2.168873	 -1.495251	 -1.294320	 -1.179337	 -1.295869	 2.283908	 -0.194653	 0.640563	 -0.742232	 0.029674	 2
1462092198.346	 8	 2.092362	 -1.383715	 -1.344838	 -1.145356	 -1.275270	 2.334014	 -0.203814	 0.631157	 -0.747744	 0.031307	 2
1462092198.356	 8	 2.019526	 -1.349192	 -1.453656	 -1.119636	 -1.253736	 2.375098	 -0.212997	 0.621823	 -0.752944	 0.032301	 2
1462092198.366	 8	 1.959522	 -1.484259	 -1.622781	 -1.102600	 -1.230862	 2.408367	 -0.222989	 0.612407	 -0.757724	 0.032973	 2
1462092198.376	 8	 1.796545	 -1.494667	 -1.803704	 -1.094674	 -1.206758	 2.432668	 -0.233707	 0.603147	 -0.761914	 0.032893	 2
1462092198.386	 8	 1.565956	 -1.482539	 -1.837820	 -1.094301	 -1.182966	 2.449099	 -0.244637	 0.594494	 -0.765302	 0.032287	 2
1462092198.396	 8	 1.305157	 -1.396222	 -1.773997	 -1.099011	 -1.160767	 2.459409	 -0.255159	 0.586778	 -0.767857	 0.031326	 2
1462092198.406	 8	 1.078768	 -1.262081	 -1.701503	 -1.106691	 -1.140339	 2.465157	 -0.264965	 0.580000	 -0.769737	 0.029965	 2
1462092198.416	 8	 0.954569	 -1.166670	 -1.648378	 -1.115601	 -1.121118	 2.468431	 -0.274187	 0.573822	 -0.771199	 0.028310	 2
1462092198.426	 8	 0.957479	 -1.085128	 -1.549594	 -1.123383	 -1.102701	 2.472142	 -0.282868	 0.567790	 -0.772585	 0.026685	 2
1462092198.436	 8	 1.080538	 -0.970112	 -1.333245	 -1.126752	 -1.085726	 2.479535	 -0.290488	 0.561661	 -0.774272	 0.025621	 2
1462092198.446	 8	 1.382006	 -0.985856	 -1.182547	 -1.124434	 -1.069170	 2.493205	 -0.297484	 0.554720	 -0.776619	 0.025529	 2
1462092198.456	 8	 1.733840	 -1.126681	 -1.099528	 -1.117462	 -1.051944	 2.513660	 -0.304576	 0.546483	 -0.779666	 0.026660	 2
1462092198.466	 8	 1.945769	 -1.262017	 -1.049345	 -1.108516	 -1.034008	 2.538277	 -0.311999	 0.537235	 -0.783075	 0.028790	 2
1462092198.476	 8	 1.950263	 -1.261620	 -0.992895	 -1.099871	 -1.016180	 2.563280	 -0.319383	 0.527758	 -0.786438	 0.031318	 2
1462092198.486	 8	 1.808260	 -1.125473	 -0.902999	 -1.092147	 -0.999477	 2.586131	 -0.326082	 0.518790	 -0.789553	 0.033679	 2
1462092198.496	 8	 1.541874	 -0.900575	 -0.798405	 -1.085695	 -0.984672	 2.605480	 -0.331769	 0.510848	 -0.792272	 0.035611	 2
1462092198.506	 8	 1.062657	 -0.518950	 -0.727802	 -1.081343	 -0.972511	 2.618130	 -0.335881	 0.504763	 -0.794410	 0.036211	 2
1462092198.516	 8	 0.513598	 -0.228668	 -0.668097	 -1.080608	 -0.963422	 2.622550	 -0.338640	 0.500978	 -0.795674	 0.035316	 2
1462092198.526	 8	 0.085382	 -0.126866	 -0.589884	 -1.083839	 -0.957184	 2.620294	 -0.340689	 0.499205	 -0.795991	 0.033532	 2
1462092198.536	 8	 -0.102293	 -0.160849	 -0.511831	 -1.089686	 -0.952831	 2.614914	 -0.342602	 0.498564	 -0.795648	 0.031663	 2
1462092198.546	 8	 -0.011235	 -0.387028	 -0.424139	 -1.096457	 -0.949099	 2.610639	 -0.345028	 0.497942	 -0.795029	 0.030627	 2
1462092198.556	 8	 0.244218	 -0.604104	 -0.334596	 -1.102095	 -0.945124	 2.610519	 -0.348091	 0.496545	 -0.794558	 0.030886	 2
1462092198.566	 8	 0.530168	 -0.680957	 -0.256803	 -1.104894	 -0.940609	 2.615414	 -0.351382	 0.494132	 -0.794558	 0.032278	 2
1462092198.576	 8	 0.828912	 -0.739944	 -0.203468	 -1.104169	 -0.935302	 2.625091	 -0.354604	 0.490651	 -0.795191	 0.034483	 2
1462092198.586	 8	 1.165918	 -1.045905	 -0.164487	 -1.101786	 -0.928881	 2.639989	 -0.358639	 0.485864	 -0.796157	 0.038065	 2
1462092198.596	 8	 1.382692	 -1.462470	 -0.172382	 -1.100407	 -0.921321	 2.658630	 -0.364149	 0.479943	 -0.796991	 0.043089	 2
1462092198.606	 8	 1.261598	 -1.974117	 -0.228311	 -1.104734	 -0.913462	 2.676418	 -0.371705	 0.473867	 -0.796792	 0.049066	 2
1462092198.616	 8	 0.630533	 -2.482972	 -0.252064	 -1.120269	 -0.907565	 2.686569	 -0.381458	 0.469517	 -0.794356	 0.055156	 2
1462092198.626	 8	 -0.382710	 -2.919413	 -0.124741	 -1.150735	 -0.906505	 2.683683	 -0.393051	 0.468829	 -0.788673	 0.060867	 2
1462092198.636	 8	 -1.385366	 -3.098029	 0.212713	 -1.194535	 -0.912025	 2.667141	 -0.405204	 0.472594	 -0.779792	 0.066257	 2
1462092198.646	 8	 -2.019499	 -2.839817	 0.655468	 -1.244600	 -0.923601	 2.641053	 -0.415925	 0.480000	 -0.769089	 0.071470	 2
1462092198.656	 8	 -2.353474	 -2.083537	 1.114100	 -1.292912	 -0.939896	 2.609489	 -0.423126	 0.489956	 -0.758368	 0.076056	 2
1462092198.666	 8	 -2.576737	 -1.148983	 1.560637	 -1.335723	 -0.960322	 2.573804	 -0.425706	 0.502010	 -0.748617	 0.079572	 2
1462092198.676	 8	 -2.780722	 -0.409272	 1.987075	 -1.374667	 -0.984532	 2.533687	 -0.424177	 0.515913	 -0.739690	 0.082255	 2
1462092198.686	 8	 -3.080965	 -0.064758	 2.292374	 -1.415680	 -1.011687	 2.486287	 -0.420033	 0.531599	 -0.730651	 0.084399	 2
1462092198.696	 8	 -3.280761	 0.163882	 2.499802	 -1.462565	 -1.040251	 2.430507	 -0.414497	 0.548510	 -0.721027	 0.086311	 2
1462092198.706	 8	 -3.396714	 1.190056	 2.717118	 -1.509039	 -1.069565	 2.367057	 -0.405428	 0.566393	 -0.712284	 0.086485	 2
1462092198.716	 8	 -3.569355	 2.817766	 2.993814	 -1.549470	 -1.100212	 2.294185	 -0.390000	 0.585718	 -0.705664	 0.082901	 2
1462092198.726	 8	 -3.737144	 4.345460	 3.267405	 -1.585188	 -1.132325	 2.210174	 -0.367949	 0.606356	 -0.700913	 0.075277	 2
1462092198.736	 8	 -3.813679	 5.536781	 3.540268	 -1.619768	 -1.165836	 2.114544	 -0.340155	 0.627645	 -0.697286	 0.064415	 2
1462092198.746	 8	 -3.602439	 6.015335	 3.762429	 -1.656199	 -1.200401	 2.010889	 -0.308684	 0.648192	 -0.694133	 0.052354	 2
1462092198.756	 8	 -3.077136	 5.492631	 3.909659	 -1.697488	 -1.235596	 1.906359	 -0.277025	 0.666363	 -0.690956	 0.042396	 2
1462092198.766	 8	 -2.521576	 4.252041	 3.929513	 -1.749364	 -1.270498	 1.803436	 -0.248472	 0.681566	 -0.687285	 0.037003	 2
1462092198.776	 8	 -2.202590	 2.768456	 3.786105	 -1.821587	 -1.303204	 1.695470	 -0.224928	 0.694418	 -0.682530	 0.036650	 2
1462092198.786	 8	 -2.192680	 1.294063	 3.465360	 -1.926221	 -1.330659	 1.570310	 -0.207294	 0.705983	 -0.675997	 0.040573	 2
1462092198.796	 8	 -2.163780	 0.022560	 3.116495	 -2.064242	 -1.350950	 1.425164	 -0.195257	 0.716605	 -0.667870	 0.047969	 2
1462092198.806	 8	 -1.920349	 -1.008208	 2.757346	 -2.220641	 -1.364159	 1.273046	 -0.188076	 0.725740	 -0.659191	 0.058288	 2
1462092198.816	 8	 -1.506466	 -1.686042	 2.441561	 -2.376276	 -1.372204	 1.129898	 -0.184476	 0.732876	 -0.651055	 0.070634	 2
1462092198.826	 8	 -1.026340	 -1.793960	 2.274380	 -2.521037	 -1.378133	 1.000771	 -0.182290	 0.738009	 -0.644287	 0.083708	 2
1462092198.836	 8	 -0.583710	 -1.313086	 2.176951	 -2.651959	 -1.383861	 0.882378	 -0.179168	 0.741556	 -0.639423	 0.095558	 2
1462092198.846	 8	 -0.259544	 -0.354535	 2.047696	 -2.767102	 -1.389574	 0.771460	 -0.173546	 0.744145	 -0.636614	 0.104170	 2
1462092198.856	 8	 -0.100214	 0.725755	 1.918878	 -2.866985	 -1.394536	 0.665206	 -0.164870	 0.746463	 -0.635481	 0.108508	 2
1462092198.866	 8	 -0.061949	 1.438744	 1.838853	 -2.957623	 -1.398139	 0.560153	 -0.153890	 0.748845	 -0.635252	 0.109562	 2
1462092198.876	 8	 -0.164309	 1.729017	 1.784894	 -3.044147	 -1.399361	 0.455179	 -0.141858	 0.751512	 -0.635030	 0.108828	 2
1462092198.886	 8	 -0.367826	 1.582723	 1.769318	 -3.130334	 -1.397223	 0.351109	 -0.130172	 0.754587	 -0.634013	 0.108084	 2
1462092198.896	 8	 -0.632990	 1.290656	 1.720950	 3.070136	 -1.391041	 0.253185	 -0.119573	 0.758201	 -0.631789	 0.108055	 2
1462092198.906	 8	 -0.866698	 0.919450	 1.625744	 2.997232	 -1.381176	 0.168678	 -0.110543	 0.762262	 -0.628391	 0.108916	 2
1462092198.916	 8	 -0.985299	 0.516005	 1.531366	 2.934573	 -1.368952	 0.098528	 -0.103198	 0.766452	 -0.624178	 0.110923	 2
1462092198.926	 8	 -0.947994	 0.189262	 1.370268	 2.882472	 -1.356290	 0.042630	 -0.097493	 0.770308	 -0.619806	 0.113848	 2
1462092198.936	 8	 -0.794553	 0.094714	 1.154900	 2.841938	 -1.344891	 0.000042	 -0.092995	 0.773535	 -0.615920	 0.116785	 2
1462092198.946	 8	 -0.584435	 0.229923	 0.964623	 2.811289	 -1.335694	 -0.033298	 -0.088906	 0.776061	 -0.612935	 0.118894	 2
1462092198.956	 8	 -0.367947	 0.505128	 0.868315	 2.787272	 -1.328765	 -0.062483	 -0.084401	 0.777991	 -0.610960	 0.119724	 2
1462092198.966	 8	 -0.180920	 0.849723	 0.795289	 2.767639	 -1.323730	 -0.090623	 -0.079019	 0.779478	 -0.609899	 0.119135	 2
1462092198.976	 8	 0.019699	 1.111519	 0.750151	 2.750794	 -1.320604	 -0.118846	 -0.072865	 0.780482	 -0.609728	 0.117344	 2
1462092198.986	 8	 0.199076	 1.230319	 0.631395	 2.736598	 -1.319461	 -0.146000	 -0.066484	 0.780941	 -0.610372	 0.114702	 2
1462092198.996	 8	 0.392671	 1.233881	 0.467747	 2.725475	 -1.320560	 -0.170299	 -0.060510	 0.780762	 -0.611812	 0.111518	 2
1462092199.006	 8	 0.618056	 1.149417	 0.350960	 2.714742	 -1.324103	 -0.193512	 -0.055131	 0.779811	 -0.614117	 0.108240	 2
1462092199.016	 8	 0.940583	 1.007782	 0.310598	 2.699161	 -1.330513	 -0.220336	 -0.050223	 0.777824	 -0.617548	 0.105370	 2
1462092199.026	 8	 1.408090	 0.797954	 0.312035	 2.672422	 -1.340608	 -0.256609	 -0.045688	 0.774381	 -0.622549	 0.103340	 2
1462092199.036	 8	 2.144030	 0.560081	 0.221350	 2.628191	 -1.356523	 -0.308245	 -0.041794	 0.768678	 -0.630036	 0.102188	 2
1462092199.046	 8	 3.194896	 0.523952	 -0.082286	 2.558817	 -1.381421	 -0.384386	 -0.038629	 0.759667	 -0.641290	 0.100797	 2
1462092199.056	 8	 4.154863	 0.576323	 -0.538843	 2.448893	 -1.415642	 -0.501641	 -0.036429	 0.747082	 -0.656450	 0.098058	 2
1462092199.066	 8	 3.579920	 0.871628	 -0.823108	 2.299415	 -1.449579	 -0.659619	 -0.035113	 0.734182	 -0.671558	 0.093559	 2
1462092199.076	 8	 -0.699287	 4.359925	 0.185546	 2.342367	 -1.450328	 -0.655176	 -0.022495	 0.735793	 -0.672196	 0.079090	 2
1462092199.086	 8	 -1.045196	 1.470079	 0.629537	 2.392189	 -1.438931	 -0.630498	 -0.012270	 0.740256	 -0.668392	 0.071576	 2
1462092199.096	 8	 -0.381153	 -2.078070	 0.612054	 2.374473	 -1.430326	 -0.633715	 -0.015031	 0.741735	 -0.665854	 0.078998	 2
1462092199.106	 8	 0.297999	 -2.304591	 0.450563	 2.318228	 -1.427796	 -0.666712	 -0.020938	 0.740270	 -0.666006	 0.089437	 2
1462092199.116	 8	 0.590112	 -1.884349	 0.144990	 2.260622	 -1.429673	 -0.705097	 -0.026426	 0.737603	 -0.667640	 0.097466	 2
1462092199.126	 8	 0.594312	 -2.260769	 0.306644	 2.194893	 -1.431645	 -0.750059	 -0.032364	 0.734492	 -0.669486	 0.106122	 2
1462092199.136	 8	 0.315792	 -2.758539	 0.633758	 2.122966	 -1.429166	 -0.795803	 -0.039005	 0.731778	 -0.670145	 0.117835	 2
1462092199.146	 8	 0.001990	 -2.430113	 0.768504	 2.066849	 -1.423063	 -0.826353	 -0.044891	 0.730078	 -0.669416	 0.129819	 2
1462092199.156	 8	 -0.115894	 -1.381248	 0.740923	 2.033651	 -1.415919	 -0.843245	 -0.047736	 0.729493	 -0.668152	 0.138328	 2
1462092199.166	 8	 -0.122985	 -0.603892	 0.718376	 2.012786	 -1.408945	 -0.856595	 -0.047758	 0.729509	 -0.667040	 0.143503	 2
1462092199.176	 8	 -0.343471	 -0.628850	 0.854350	 2.001462	 -1.400509	 -0.862321	 -0.046911	 0.730187	 -0.665331	 0.148190	 2
1462092199.186	 8	 -0.754396	 -0.377139	 1.077686	 2.005983	 -1.388310	 -0.852762	 -0.045242	 0.732261	 -0.662009	 0.153266	 2
1462092199.196	 8	 -0.895822	 0.050041	 0.966724	 2.024022	 -1.375419	 -0.834101	 -0.042294	 0.735333	 -0.658025	 0.156526	 2
1462092199.206	 8	 -0.804382	 -0.180375	 0.617411	 2.045152	 -1.365194	 -0.811753	 -0.040586	 0.738227	 -0.654293	 0.158980	 2
1462092199.216	 8	 -0.108639	 -0.687974	 0.130234	 2.047558	 -1.361670	 -0.803416	 -0.041851	 0.738840	 -0.652827	 0.161806	 2
1462092199.226	 8	 0.250867	 -0.019117	 0.107750	 2.032715	 -1.361857	 -0.815512	 -0.042288	 0.737857	 -0.653543	 0.163283	 2
1462092199.236	 8	 -0.360216	 1.308048	 -0.022721	 2.049166	 -1.360799	 -0.808866	 -0.039059	 0.739225	 -0.653088	 0.159677	 2
1462092199.246	 8	 -1.124976	 1.872887	 -0.323075	 2.111168	 -1.358317	 -0.763953	 -0.034800	 0.743663	 -0.650114	 0.152008	 2
1462092199.256	 8	 -1.644932	 1.276752	 -0.750400	 2.200909	 -1.355037	 -0.687278	 -0.033482	 0.749636	 -0.645086	 0.144185	 2
1462092199.266	 8	 -1.677438	 0.122313	 -1.114692	 2.295527	 -1.352566	 -0.594797	 -0.037277	 0.755231	 -0.639492	 0.138876	 2
1462092199.276	 8	 -0.988699	 -1.066164	 -1.481318	 2.370111	 -1.354118	 -0.510461	 -0.045764	 0.758265	 -0.635701	 0.137203	 2
1462092199.286	 8	 0.106014	 -1.884173	 -1.638076	 2.413607	 -1.363944	 -0.448387	 -0.057499	 0.757201	 -0.635732	 0.138511	 2
1462092199.296	 8	 0.918512	 -1.909055	 -1.514293	 2.427381	 -1.379794	 -0.414389	 -0.069064	 0.752963	 -0.639017	 0.141187	 2
1462092199.306	 8	 1.331751	 -1.288182	 -1.385288	 2.426424	 -1.398430	 -0.400448	 -0.078183	 0.747417	 -0.644139	 0.142618	 2
1462092199.316	 8	 1.816938	 -0.483226	 -1.362839	 2.414368	 -1.420008	 -0.405719	 -0.084276	 0.740949	 -0.651066	 0.141442	 2
1462092199.326	 8	 2.502596	 0.359876	 -1.425975	 2.376209	 -1.446680	 -0.445736	 -0.087353	 0.732807	 -0.660695	 0.137278	 2
1462092199.336	 8	 3.024646	 1.100569	 -1.450272	 2.283414	 -1.477258	 -0.548389	 -0.087590	 0.723092	 -0.672663	 0.130350	 2
1462092199.346	 8	 3.254671	 1.578301	 -1.333796	 2.065489	 -1.507227	 -0.781872	 -0.085599	 0.712568	 -0.685663	 0.121599	 2
1462092199.356	 8	 3.187243	 1.484292	 -1.271204	 1.540071	 -1.527876	 -1.323515	 -0.082867	 0.701765	 -0.698485	 0.113036	 2
1462092199.366	 8	 2.491063	 0.307562	 -1.311262	 0.819831	 -1.529640	 -2.051079	 -0.083510	 0.692090	 -0.708894	 0.107267	 2
1462092199.376	 8	 1.631405	 -1.057638	 -1.446504	 0.324323	 -1.521694	 -2.539549	 -0.090089	 0.684560	 -0.715619	 0.105600	 2
1462092199.386	 8	 1.006385	 -1.819014	 -1.529145	 -0.005560	 -1.512654	 -2.853246	 -0.100598	 0.678841	 -0.719538	 0.106391	 2
1462092199.396	 8	 0.697607	 -2.073791	 -1.586378	 -0.258024	 -1.503096	 -3.085788	 -0.112853	 0.674211	 -0.721828	 0.108022	 2
1462092199.406	 8	 0.703532	 -1.930382	 -1.608542	 -0.450406	 -1.490918	 3.024485	 -0.125105	 0.669650	 -0.723859	 0.109296	 2
1462092199.416	 8	 0.773383	 -1.524067	 -1.431650	 -0.573475	 -1.477077	 2.917114	 -0.135496	 0.665083	 -0.726125	 0.109762	 2
1462092199.426	 8	 0.973932	 -1.289989	 -1.192487	 -0.636701	 -1.462395	 2.867139	 -0.144042	 0.660118	 -0.728918	 0.110333	 2
1462092199.436	 8	 1.146107	 -1.092818	 -1.067458	 -0.665122	 -1.446983	 2.849909	 -0.151152	 0.654650	 -0.732321	 0.110874	 2
1462092199.446	 8	 1.265035	 -1.087036	 -0.955468	 -0.675919	 -1.431162	 2.849903	 -0.157628	 0.648740	 -0.736074	 0.111737	 2
1462092199.456	 8	 1.288342	 -1.160175	 -0.911590	 -0.680925	 -1.415403	 2.856365	 -0.164064	 0.642617	 -0.739825	 0.113076	 2
1462092199.466	 8	 1.271888	 -1.249514	 -0.917607	 -0.687341	 -1.399712	 2.862307	 -0.170822	 0.636414	 -0.743402	 0.114672	 2
1462092199.476	 8	 1.269646	 -1.240213	 -0.955868	 -0.695125	 -1.383908	 2.866830	 -0.177642	 0.630157	 -0.746900	 0.116128	 2
1462092199.486	 8	 1.236292	 -1.794929	 -0.902123	 -0.706752	 -1.368403	 2.871750	 -0.185973	 0.623683	 -0.749856	 0.118950	 2
1462092199.496	 8	 1.209496	 -2.130222	 -0.801630	 -0.719357	 -1.353863	 2.880026	 -0.195557	 0.617093	 -0.752140	 0.123444	 2
1462092199.506	 8	 1.217444	 -2.261017	 -0.794391	 -0.732265	 -1.339504	 2.889596	 -0.205603	 0.610320	 -0.754139	 0.128497	 2
1462092199.516	 8	 1.246204	 -2.067343	 -0.769392	 -0.743206	 -1.325156	 2.900331	 -0.215225	 0.603450	 -0.756139	 0.133344	 2
1462092199.526	 8	 1.422409	 -1.848474	 -0.730522	 -0.747118	 -1.310090	 2.915715	 -0.223634	 0.596183	 -0.758680	 0.137689	 2
1462092199.536	 8	 1.617879	 -1.554690	 -0.766792	 -0.745057	 -1.293382	 2.935342	 -0.231163	 0.588141	 -0.761969	 0.141624	 2
1462092199.546	 8	 1.526240	 -0.823922	 -0.794364	 -0.738793	 -1.276439	 2.952120	 -0.236127	 0.580519	 -0.765970	 0.143289	 2
1462092199.556	 8	 1.136721	 -0.616277	 -0.771988	 -0.736493	 -1.261971	 2.961233	 -0.239917	 0.574331	 -0.769379	 0.143662	 2
1462092199.566	 8	 0.585340	 -0.740403	 -0.804579	 -0.746507	 -1.251257	 2.957969	 -0.244342	 0.570089	 -0.771181	 0.143439	 2
1462092199.576	 8	 0.165725	 -1.035713	 -0.775963	 -0.767863	 -1.243961	 2.945544	 -0.250090	 0.567429	 -0.771300	 0.143445	 2
1462092199.586	 8	 -0.109605	 -1.217335	 -0.558906	 -0.793703	 -1.239850	 2.930653	 -0.256438	 0.565964	 -0.770135	 0.144282	 2
1462092199.596	 8	 -0.277315	 -1.275312	 -0.261704	 -0.818255	 -1.239146	 2.918128	 -0.262444	 0.565552	 -0.768034	 0.146279	 2
1462092199.606	 8	 -0.210246	 -1.258049	 -0.054303	 -0.838025	 -1.240052	 2.910581	 -0.267748	 0.565415	 -0.765749	 0.149150	 2
1462092199.616	 8	 -0.031692	 -1.321229	 0.105550	 -0.851239	 -1.241080	 2.910195	 -0.272526	 0.564834	 -0.763742	 0.152938	 2
1462092199.626	 8	 0.104888	 -1.422893	 0.221715	 -0.859938	 -1.242068	 2.915874	 -0.277286	 0.563728	 -0.761865	 0.157753	 2
1462092199.636	 8	 0.249901	 -1.330915	 0.350265	 -0.863041	 -1.243033	 2.927043	 -0.281455	 0.562260	 -0.760300	 0.163068	 2
1462092199.646	 8	 0.437553	 -1.070600	 0.535430	 -0.856174	 -1.244283	 2.946322	 -0.284060	 0.560548	 -0.759364	 0.168710	 2
1462092199.656	 8	 0.628651	 -0.851861	 0.562446	 -0.841185	 -1.244649	 2.971624	 -0.285391	 0.558361	 -0.759238	 0.174192	 2
1462092199.666	 8	 0.730056	 -0.859494	 0.577478	 -0.822727	 -1.244058	 2.999954	 -0.286359	 0.555732	 -0.759519	 0.179699	 2
1462092199.676	 8	 0.637284	 -1.161561	 0.686315	 -0.805656	 -1.244151	 3.029307	 -0.288001	 0.553112	 -0.759262	 0.186129	 2
1462092199.686	 8	 0.200313	 -1.431139	 0.882645	 -0.795369	 -1.247775	 3.054699	 -0.290636	 0.551748	 -0.757396	 0.193536	 2
1462092199.696	 8	 -0.380778	 -1.424456	 1.275704	 -0.790202	 -1.257729	 3.075345	 -0.293118	 0.552919	 -0.753481	 0.201566	 2
1462092199.706	 8	 -0.788097	 -1.172192	 1.869899	 -0.780000	 -1.274804	 3.099114	 -0.293778	 0.556787	 -0.747936	 0.210417	 2
1462092199.716	 8	 -0.928536	 -0.681352	 2.470385	 -0.752329	 -1.297509	 3.136429	 -0.291271	 0.562703	 -0.741693	 0.220040	 2
1462092199.726	 8	 -0.914248	 -0.024376	 2.869640	 -0.699212	 -1.322877	 -3.089739	 -0.285162	 0.569894	 -0.735671	 0.229547	 2
1462092199.736	 8	 -0.968163	 0.738422	 3.167095	 -0.615543	 -1.349282	 -3.009359	 -0.275383	 0.578336	 -0.730109	 0.237976	 2
1462092199.746	 8	 -1.171503	 1.248712	 3.491211	 -0.494376	 -1.376761	 -2.897175	 -0.262641	 0.588348	 -0.724268	 0.245564	 2
1462092199.756	 8	 -1.427907	 1.656522	 3.742363	 -0.323239	 -1.404104	 -2.739096	 -0.247789	 0.599947	 -0.717588	 0.252453	 2
1462092199.766	 8	 -1.394182	 1.922098	 3.857512	 -0.083032	 -1.425910	 -2.514831	 -0.231327	 0.612002	 -0.710603	 0.258814	 2
1462092199.776	 8	 -1.118026	 2.288527	 3.897950	 0.220147	 -1.435292	 -2.230739	 -0.213176	 0.623411	 -0.704248	 0.264478	 2
1462092199.786	 8	 -0.712603	 2.967674	 4.139471	 0.539698	 -1.427838	 -1.936130	 -0.191787	 0.634119	 -0.699048	 0.269153	 2
1462092199.796	 8	 -0.197809	 4.027776	 4.596736	 0.812864	 -1.402186	 -1.697573	 -0.164871	 0.644312	 -0.695289	 0.272493	 2
1462092199.806	 8	 0.133568	 5.157203	 5.006153	 1.016375	 -1.362767	 -1.540221	 -0.131876	 0.654404	 -0.692425	 0.273702	 2
1462092199.816	 8	 0.183421	 5.858994	 5.439620	 1.170191	 -1.314532	 -1.441008	 -0.094285	 0.664595	 -0.688990	 0.273341	 2
1462092199.826	 8	 0.101473	 5.796200	 5.840476	 1.290735	 -1.259952	 -1.376646	 -0.054734	 0.674338	 -0.683739	 0.273448	 2
1462092199.836	 8	 0.044241	 4.869816	 5.966640	 1.379831	 -1.201862	 -1.336704	 -0.016952	 0.682267	 -0.676674	 0.276290	 2
1462092199.846	 8	 0.016641	 3.546918	 5.694524	 1.439949	 -1.144747	 -1.313513	 0.015913	 0.687594	 -0.668705	 0.282479	 2
1462092199.856	 8	 0.025513	 2.422499	 5.233166	 1.478623	 -1.091524	 -1.300343	 0.043302	 0.690582	 -0.660700	 0.291028	 2
1462092199.866	 8	 -0.026348	 1.494396	 4.831716	 1.502957	 -1.042462	 -1.292262	 0.065982	 0.691781	 -0.652952	 0.301229	 2
1462092199.876	 8	 -0.097992	 0.900125	 4.695721	 1.519023	 -0.995437	 -1.285248	 0.085438	 0.691824	 -0.645030	 0.313076	 2
1462092199.886	 8	 -0.091039	 0.999344	 4.447195	 1.532766	 -0.950292	 -1.279915	 0.103919	 0.691482	 -0.637042	 0.324393	 2
1462092199.896	 8	 -0.006260	 1.491176	 4.249605	 1.548509	 -0.907527	 -1.277139	 0.122932	 0.691395	 -0.629110	 0.333288	 2
1462092199.906	 8	 0.188673	 2.113701	 4.224925	 1.567108	 -0.865243	 -1.278363	 0.143878	 0.691450	 -0.621152	 0.339656	 2
1462092199.916	 8	 0.491189	 2.739763	 4.144987	 1.588112	 -0.823586	 -1.284895	 0.166972	 0.691378	 -0.613425	 0.343259	 2
1462092199.926	 8	 0.829245	 3.346446	 3.900432	 1.611270	 -0.784123	 -1.297257	 0.191744	 0.691056	 -0.606303	 0.343618	 2
1462092199.936	 8	 1.085915	 3.859006	 3.697274	 1.636838	 -0.747362	 -1.314235	 0.217663	 0.690526	 -0.599633	 0.340936	 2
1462092199.946	 8	 1.287216	 4.054720	 3.633397	 1.663525	 -0.712037	 -1.334716	 0.244362	 0.689446	 -0.593089	 0.336446	 2
1462092199.956	 8	 1.378004	 4.061979	 3.644397	 1.689655	 -0.677273	 -1.357322	 0.271138	 0.687523	 -0.586460	 0.331453	 2
1462092199.966	 8	 1.471163	 3.910603	 3.634717	 1.714451	 -0.643071	 -1.381486	 0.297555	 0.684649	 -0.579797	 0.326424	 2
1462092199.976	 8	 1.628510	 3.489718	 3.447186	 1.735326	 -0.610825	 -1.407485	 0.322523	 0.680488	 -0.573921	 0.321759	 2
1462092199.986	 8	 1.807694	 2.674745	 3.045841	 1.748788	 -0.582756	 -1.435026	 0.344312	 0.674807	 -0.570037	 0.318029	 2
1462092199.996	 8	 1.887778	 1.717088	 2.582218	 1.753356	 -0.559587	 -1.462746	 0.361910	 0.667794	 -0.568617	 0.315827	 2
1462092200.006	 8	 1.791971	 0.808801	 2.108862	 1.750051	 -0.541086	 -1.488531	 0.375047	 0.660116	 -0.569318	 0.315379	 2
1462092200.016	 8	 1.566303	 0.164949	 1.673201	 1.741936	 -0.526330	 -1.510801	 0.384404	 0.652580	 -0.571237	 0.316324	 2
1462092200.026	 8	 1.288318	 -0.430287	 1.174503	 1.730335	 -0.515732	 -1.528667	 0.389998	 0.645757	 -0.574092	 0.318305	 2
1462092200.036	 8	 1.230998	 -1.104462	 0.439747	 1.713579	 -0.511234	 -1.543761	 0.391338	 0.639458	 -0.578849	 0.320752	 2
1462092200.046	 8	 1.250090	 -1.801776	 -0.374755	 1.690497	 -0.514628	 -1.557705	 0.388053	 0.633552	 -0.586274	 0.322969	 2
1462092200.056	 8	 1.121950	 -2.626187	 -1.028229	 1.660286	 -0.524515	 -1.570016	 0.380073	 0.627871	 -0.595992	 0.325753	 2
1462092200.066	 8	 0.831962	 -3.570735	 -1.446943	 1.622303	 -0.538829	 -1.579449	 0.367298	 0.622244	 -0.607294	 0.330302	 2
1462092200.076	 8	 0.445190	 -4.720027	 -1.538465	 1.575022	 -0.554262	 -1.585343	 0.349917	 0.615918	 -0.619469	 0.338321	 2
1462092200.086	 8	 -0.003558	 -5.850475	 -1.403331	 1.518336	 -0.568778	 -1.586975	 0.328181	 0.608447	 -0.631754	 0.350681	 2
1462092200.096	 8	 -0.384107	 -6.759151	 -1.019470	 1.454217	 -0.580313	 -1.584616	 0.303383	 0.599435	 -0.643224	 0.367286	 2
1462092200.106	 8	 -0.668087	 -7.431120	 -0.515947	 1.384718	 -0.587562	 -1.578560	 0.276721	 0.588588	 -0.653189	 0.387728	 2
1462092200.116	 8	 -0.789187	 -8.104289	 -0.111904	 1.310461	 -0.591294	 -1.570035	 0.248601	 0.575627	 -0.661726	 0.411059	 2
1462092200.126	 8	 -0.824569	 -8.980429	 0.351318	 1.228579	 -0.591506	 -1.559775	 0.218370	 0.559494	 -0.669134	 0.437654	 2
1462092200.136	 8	 -0.897769	 -9.756245	 0.846710	 1.140114	 -0.588141	 -1.546746	 0.186203	 0.540053	 -0.674778	 0.467275	 2
1462092200.146	 8	 -1.139799	 -10.098907	 1.310301	 1.049309	 -0.582395	 -1.528883	 0.152756	 0.518308	 -0.677620	 0.498853	 2
1462092200.156	 8	 -1.968945	 -8.895476	 1.775273	 0.971932	 -0.577644	 -1.500695	 0.121081	 0.499217	 -0.675278	 0.529266	 2
1462092200.166	 8	 -2.404625	 -7.555639	 1.996161	 0.913447	 -0.575574	 -1.464282	 0.093214	 0.484793	 -0.668371	 0.556388	 2
1462092200.176	 8	 -2.292576	 -6.867904	 1.983467	 0.863028	 -0.574855	 -1.427751	 0.067994	 0.471757	 -0.659966	 0.580747	 2
1462092200.186	 8	 -2.217733	 -5.922670	 1.970295	 0.820381	 -0.574993	 -1.392359	 0.045720	 0.460182	 -0.650718	 0.602252	 2
1462092200.196	 8	 -2.308498	 -4.635997	 2.039544	 0.790481	 -0.576278	 -1.356123	 0.027321	 0.452008	 -0.640267	 0.620484	 2
1462092200.206	 8	 -2.433620	 -3.461375	 2.190113	 0.774051	 -0.578203	 -1.317720	 0.012737	 0.447678	 -0.628487	 0.635945	 2
1462092200.216	 8	 -2.528389	 -2.597773	 2.291695	 0.768219	 -0.580360	 -1.277349	 0.001065	 0.446429	 -0.615672	 0.649344	 2
1462092200.226	 8	 -2.518554	 -2.098951	 2.294120	 0.768647	 -0.582626	 -1.236577	 -0.008797	 0.446984	 -0.602467	 0.661183	 2
1462092200.236	 8	 -2.377439	 -2.168509	 2.439319	 0.769637	 -0.583308	 -1.195921	 -0.017860	 0.447186	 -0.588961	 0.672927	 2
1462092200.246	 8	 -2.243518	 -2.283943	 2.708848	 0.770160	 -0.581279	 -1.154168	 -0.026227	 0.446495	 -0.574634	 0.685383	 2
1462092200.256	 8	 -2.038241	 -2.574722	 2.881272	 0.768043	 -0.576511	 -1.112401	 -0.034204	 0.444210	 -0.559765	 0.698692	 2
1462092200.266	 8	 -1.899890	 -2.773008	 3.021034	 0.763238	 -0.569716	 -1.070884	 -0.041943	 0.440461	 -0.544446	 0.712610	 2
1462092200.276	 8	 -1.834580	 -2.848737	 3.164705	 0.757360	 -0.561551	 -1.028947	 -0.049346	 0.435930	 -0.528492	 0.726792	 2
1462092200.286	 8	 -1.809275	 -2.826340	 3.329886	 0.751637	 -0.552266	 -0.986109	 -0.056259	 0.431107	 -0.511754	 0.741006	 2
1462092200.296	 8	 -1.771016	 -2.795279	 3.521679	 0.746554	 -0.541677	 -0.942107	 -0.062522	 0.426162	 -0.494107	 0.755205	 2
1462092200.306	 8	 -1.643060	 -2.926600	 3.651497	 0.740333	 -0.529526	 -0.897855	 -0.068246	 0.420444	 -0.475793	 0.769539	 2
1462092200.316	 8	 -1.391136	 -3.189604	 3.712934	 0.730613	 -0.515539	 -0.854854	 -0.073489	 0.413057	 -0.457261	 0.784153	 2
1462092200.326	 8	 -0.938942	 -3.465442	 3.698970	 0.715989	 -0.498988	 -0.814980	 -0.077759	 0.403394	 -0.439121	 0.798999	 2
1462092200.336	 8	 -0.233314	 -3.521753	 3.552687	 0.696758	 -0.478836	 -0.780837	 -0.079906	 0.391509	 -0.422371	 0.813596	 2
1462092200.346	 8	 0.633542	 -3.216860	 3.266615	 0.675355	 -0.454467	 -0.754778	 -0.078660	 0.378393	 -0.408130	 0.827080	 2
1462092200.356	 8	 1.512600	 -2.586548	 2.979202	 0.655276	 -0.425446	 -0.737112	 -0.073145	 0.365446	 -0.396794	 0.838841	 2
1462092200.366	 8	 2.224361	 -1.750897	 2.779352	 0.640001	 -0.391980	 -0.726144	 -0.063222	 0.354081	 -0.387929	 0.848611	 2
1462092200.376	 8	 2.686793	 -0.968642	 2.742106	 0.631101	 -0.354916	 -0.718918	 -0.049634	 0.344974	 -0.380430	 0.856622	 2
1462092200.386	 8	 2.962339	 -0.308403	 2.817256	 0.628348	 -0.315006	 -0.713085	 -0.033265	 0.338079	 -0.373267	 0.863289	 2
1462092200.396	 8	 3.096600	 0.259750	 2.897043	 0.631178	 -0.273224	 -0.707660	 -0.014900	 0.333294	 -0.365963	 0.868772	 2
1462092200.406	 8	 3.081139	 0.598055	 2.901392	 0.637816	 -0.231091	 -0.702423	 0.004353	 0.330091	 -0.358450	 0.873232	 2
1462092200.416	 8	 2.930610	 0.637405	 2.840189	 0.645334	 -0.190145	 -0.697222	 0.023214	 0.327431	 -0.350792	 0.877038	 2
1462092200.426	 8	 2.683843	 0.436435	 2.747746	 0.651301	 -0.151499	 -0.691656	 0.040681	 0.324425	 -0.343017	 0.880587	 2
1462092200.436	 8	 2.389894	 -0.015608	 2.627799	 0.653246	 -0.115753	 -0.685438	 0.056040	 0.320092	 -0.335230	 0.884320	 2
1462092200.446	 8	 2.060655	 -0.669970	 2.461515	 0.648976	 -0.083519	 -0.678484	 0.068690	 0.313558	 -0.327683	 0.888587	 2
1462092200.456	 8	 1.734147	 -1.419046	 2.288997	 0.637200	 -0.055028	 -0.670712	 0.078379	 0.304274	 -0.320562	 0.893596	 2
1462092200.466	 8	 1.446560	 -2.091399	 2.152024	 0.618240	 -0.029943	 -0.661929	 0.085359	 0.292312	 -0.313825	 0.899323	 2
1462092200.476	 8	 1.232418	 -2.590491	 2.029879	 0.593641	 -0.007696	 -0.652303	 0.090224	 0.278239	 -0.307453	 0.905492	 2
1462092200.486	 8	 1.098147	 -2.902591	 1.911976	 0.565261	 0.012355	 -0.642236	 0.093651	 0.262750	 -0.301464	 0.911763	 2
1462092200.496	 8	 1.045776	 -3.047930	 1.795977	 0.534833	 0.030874	 -0.632208	 0.096284	 0.246490	 -0.295904	 0.917830	 2
1462092200.506	 8	 1.083676	 -3.084835	 1.708977	 0.503638	 0.048724	 -0.622486	 0.098740	 0.229899	 -0.290718	 0.923515	 2
1462092200.516	 8	 1.210586	 -3.031579	 1.624172	 0.472618	 0.066802	 -0.613438	 0.101599	 0.213262	 -0.285924	 0.928679	 2
1462092200.526	 8	 1.405170	 -2.884921	 1.539648	 0.442730	 0.085833	 -0.605386	 0.105343	 0.196910	 -0.281558	 0.933196	 2
1462092200.536	 8	 1.634301	 -2.660664	 1.463005	 0.414881	 0.106323	 -0.598427	 0.110310	 0.181200	 -0.277584	 0.936987	 2
1462092200.546	 8	 1.860272	 -2.443703	 1.405505	 0.389246	 0.128491	 -0.592397	 0.116580	 0.166208	 -0.273909	 0.940084	 2
1462092200.556	 8	 2.052164	 -2.209646	 1.345264	 0.365830	 0.152159	 -0.587080	 0.124019	 0.151987	 -0.270459	 0.942534	 2
1462092200.566	 8	 2.203433	 -1.990357	 1.285239	 0.344629	 0.177007	 -0.582367	 0.132446	 0.138603	 -0.267210	 0.944376	 2
1462092200.576	 8	 2.286232	 -1.833397	 1.256137	 0.324983	 0.202581	 -0.577812	 0.141505	 0.125849	 -0.264029	 0.945742	 2
1462092200.596	 9	 2.345178	 -1.413594	 1.089008	 0.292245	 0.254128	 -0.569749	 0.160909	 0.103374	 -0.258093	 0.947001	 2
1462092200.606	 9	 2.323973	 -1.316267	 1.008035	 0.277981	 0.279376	 -0.566322	 0.170731	 0.093205	 -0.255481	 0.947045	 2
1462092200.616	 9	 2.255537	 -1.287846	 0.939620	 0.264154	 0.303858	 -0.563070	 0.180288	 0.083369	 -0.253092	 0.946832	 2
1462092200.626	 9	 2.138805	 -1.334646	 0.892242	 0.249919	 0.327146	 -0.559688	 0.189255	 0.073559	 -0.250887	 0.946481	 2
1462092200.636	 9	 1.986685	 -1.419618	 0.846948	 0.234723	 0.348868	 -0.556010	 0.197386	 0.063587	 -0.248873	 0.946075	 2
1462092200.646	 9	 1.824996	 -1.479187	 0.780659	 0.218696	 0.368831	 -0.552168	 0.204617	 0.053530	 -0.247114	 0.945622	 2
1462092200.656	 9	 1.690124	 -1.475318	 0.673161	 0.202590	 0.387128	 -0.548648	 0.211098	 0.043681	 -0.245751	 0.945059	 2
1462092200.666	 9	 1.608840	 -1.388936	 0.525466	 0.187429	 0.404176	 -0.546063	 0.217152	 0.034391	 -0.244918	 0.944287	 2
1462092200.686	 10	 1.510912	 -0.900134	 0.276150	 0.164497	 0.435807	 -0.544303	 0.229084	 0.019346	 -0.244454	 0.942013	 2
1462092200.696	 10	 1.504437	 -0.642066	 0.219991	 0.157538	 0.451013	 -0.544431	 0.235320	 0.013939	 -0.244299	 0.940611	 2
1462092200.706	 10	 1.515619	 -0.500924	 0.180708	 0.152509	 0.466250	 -0.544946	 0.241797	 0.009396	 -0.244123	 0.939069	 2
1462092200.716	 10	 1.490894	 -0.520158	 0.158363	 0.147763	 0.481333	 -0.545662	 0.248224	 0.004985	 -0.244036	 0.937447	 2
1462092200.726	 10	 1.384823	 -0.610246	 0.159514	 0.142169	 0.495584	 -0.546214	 0.254149	 0.000317	 -0.244051	 0.935867	 2
1462092200.736	 10	 1.192442	 -0.693515	 0.185992	 0.135405	 0.508161	 -0.546173	 0.259146	 -0.004584	 -0.244074	 0.934479	 2
1462092200.746	 10	 0.952174	 -0.740545	 0.203633	 0.127723	 0.518466	 -0.545406	 0.262977	 -0.009494	 -0.244051	 0.933377	 2
1462092200.756	 10	 0.739363	 -0.798728	 0.161248	 0.119463	 0.526512	 -0.544516	 0.265693	 -0.014336	 -0.244217	 0.932502	 2
1462092200.766	 10	 0.582737	 -0.882007	 0.054195	 0.110784	 0.532737	 -0.544379	 0.267509	 -0.019214	 -0.244925	 0.931709	 2
1462092200.776	 10	 0.498720	 -0.941171	 -0.071384	 0.102059	 0.537815	 -0.545477	 0.268771	 -0.024116	 -0.246300	 0.930869	 2
1462092200.786	 10	 0.468488	 -0.928011	 -0.175443	 0.093861	 0.542371	 -0.547781	 0.269830	 -0.028860	 -0.248209	 0.929920	 2
1462092200.796	 10	 0.445448	 -0.777409	 -0.244181	 0.087264	 0.546661	 -0.550932	 0.270939	 -0.032937	 -0.250319	 0.928896	 2
1462092200.806	 10	 0.405980	 -0.515920	 -0.281903	 0.083291	 0.550586	 -0.554549	 0.272187	 -0.035809	 -0.252315	 0.927884	 2
1462092200.816	 10	 0.327385	 -0.210431	 -0.281573	 0.082346	 0.553839	 -0.558219	 0.273499	 -0.037195	 -0.253962	 0.926994	 2
1462092200.826	 10	 0.200837	 0.073181	 -0.237334	 0.084077	 0.555973	 -0.561392	 0.274642	 -0.037123	 -0.255072	 0.926354	 2
1462092200.836	 10	 0.030214	 0.261434	 -0.160559	 0.087456	 0.556569	 -0.563591	 0.275307	 -0.035943	 -0.255592	 0.926060	 2
1462092200.846	 10	 -0.145189	 0.330669	 -0.070995	 0.091198	 0.555474	 -0.564584	 0.275265	 -0.034194	 -0.255601	 0.926136	 2
1462092200.856	 10	 -0.284079	 0.222176	 0.018729	 0.093692	 0.552967	 -0.564358	 0.274435	 -0.032657	 -0.255303	 0.926520	 2
1462092200.866	 10	 -0.370298	 -0.027969	 0.103479	 0.093379	 0.549537	 -0.562999	 0.272840	 -0.032137	 -0.254920	 0.927115	 2
1462092200.876	 10	 -0.394875	 -0.311442	 0.163935	 0.089837	 0.545762	 -0.560820	 0.270687	 -0.032958	 -0.254612	 0.927801	 2
1462092200.886	 10	 -0.363894	 -0.535909	 0.170103	 0.083731	 0.542184	 -0.558429	 0.268301	 -0.034973	 -0.254529	 0.928443	 2
1462092200.896	 10	 -0.302469	 -0.591776	 0.117891	 0.076875	 0.539118	 -0.556579	 0.266047	 -0.037488	 -0.254756	 0.928931	 2
1462092200.906	 10	 -0.228419	 -0.449937	 0.053555	 0.071376	 0.536703	 -0.555568	 0.264250	 -0.039578	 -0.255145	 0.929251	 2
1462092200.916	 10	 -0.151244	 -0.123880	 0.019681	 0.069019	 0.535033	 -0.555136	 0.263186	 -0.040388	 -0.255342	 0.929463	 2
1462092200.926	 10	 -0.131365	 0.210327	 0.059920	 0.070125	 0.533784	 -0.554569	 0.262761	 -0.039629	 -0.254998	 0.929711	 2
1462092200.936	 10	 -0.172047	 0.591595	 0.111781	 0.074315	 0.532242	 -0.553175	 0.262608	 -0.037288	 -0.253881	 0.930156	 2
1462092200.956	 11	 -0.426229	 0.920643	 0.209777	 0.089498	 0.526270	 -0.549154	 0.261826	 -0.028879	 -0.250345	 0.931633	 2
1462092200.966	 11	 -0.570647	 0.771746	 0.299173	 0.095802	 0.521183	 -0.545390	 0.260307	 -0.024757	 -0.248055	 0.932789	 2
1462092200.976	 11	 -0.679345	 0.515217	 0.374467	 0.099247	 0.515017	 -0.540574	 0.257932	 -0.021690	 -0.245712	 0.934145	 2
1462092200.986	 11	 -0.732802	 0.208507	 0.445616	 0.099327	 0.508235	 -0.534864	 0.254853	 -0.020009	 -0.243418	 0.935627	 2
1462092200.996	 11	 -0.696760	 -0.118758	 0.505137	 0.095863	 0.501625	 -0.528486	 0.251424	 -0.019945	 -0.241237	 0.937119	 2
1462092201.006	 11	 -0.581453	 -0.369800	 0.546559	 0.089501	 0.496013	 -0.521748	 0.248114	 -0.021351	 -0.239173	 0.938499	 2
1462092201.016	 11	 -0.466738	 -0.541941	 0.615364	 0.081153	 0.491630	 -0.514580	 0.245155	 -0.023821	 -0.237062	 0.939752	 2
1462092201.026	 11	 -0.356501	 -0.515324	 0.663677	 0.072132	 0.488277	 -0.506787	 0.242621	 -0.026686	 -0.234661	 0.940934	 2
1462092201.036	 11	 -0.193564	 -0.378450	 0.683781	 0.064293	 0.486345	 -0.498985	 0.240910	 -0.029192	 -0.232025	 0.941953	 2
1462092201.046	 11	 -0.073340	 -0.021281	 0.704176	 0.059315	 0.485828	 -0.490980	 0.240213	 -0.030512	 -0.228874	 0.942859	 2
1462092201.056	 11	 -0.002599	 0.286812	 0.684046	 0.057933	 0.486005	 -0.483176	 0.240258	 -0.030247	 -0.225352	 0.943704	 2
1462092201.066	 11	 0.096059	 0.405494	 0.662976	 0.058222	 0.487112	 -0.475666	 0.240922	 -0.029339	 -0.221725	 0.944422	 2
1462092201.076	 11	 0.167776	 0.487929	 0.619423	 0.059613	 0.488998	 -0.468611	 0.242065	 -0.028050	 -0.218145	 0.945003	 2
1462092201.086	 11	 0.208164	 0.520202	 0.539439	 0.061855	 0.491337	 -0.462400	 0.243493	 -0.026507	 -0.214839	 0.945438	 2
1462092201.096	 11	 0.214962	 0.453584	 0.449236	 0.064174	 0.493765	 -0.457215	 0.244951	 -0.025054	 -0.212001	 0.945741	 2
