% Gyrometer data recorded with 'snsrlog'
% 
% 
% Label description:
% 	 0: Default Label
% 	 1: still_drop
% 	 2: walk_drop
% 	 3: other
% 	 4: dtw_same
% 	 5: dtw_diff
% 	 6: delete
% 	 7: steal
% 
% Column description:
% 	 1: Seconds.milliseconds since 1970
% 	 2: Number of skipped measurements
% 	 3: Gyro X
% 	 4: Gyro Y
% 	 5: Gyro Z
% 	 6: Roll of the device
% 	 7: Pitch of the device
% 	 8: Yaw of the device
% 	 9: Quaternion X
% 	 10: Quaternion Y
% 	 11: Quaternion Z
% 	 12: Quaternion W
% 	 13: Label used for the current sample
% 
% 
1463570717.683	 0	 -1.584228	 1.915244	 -0.750987	 0.266633	 0.514084	 -0.108900	 0.258588	 0.114652	 -0.018427	 0.958983	 1
1463570717.693	 0	 -1.717334	 2.200701	 -0.748238	 0.289343	 0.495785	 -0.111867	 0.250232	 0.125968	 -0.018311	 0.959782	 1
1463570717.713	 1	 -1.750336	 2.853162	 -0.697117	 0.342747	 0.457866	 -0.114954	 0.232786	 0.152966	 -0.016490	 0.960281	 1
1463570717.723	 1	 -1.655668	 3.238979	 -0.696483	 0.374406	 0.439673	 -0.115612	 0.224396	 0.168950	 -0.014881	 0.959625	 1
1463570717.733	 1	 -1.509686	 3.694405	 -0.756396	 0.410573	 0.422551	 -0.116602	 0.216569	 0.187014	 -0.013101	 0.958098	 1
1463570717.743	 1	 -1.366034	 4.138938	 -0.852626	 0.451659	 0.406371	 -0.118424	 0.209300	 0.207286	 -0.011384	 0.955561	 1
1463570717.753	 2	 -1.256049	 4.494984	 -0.990951	 0.496834	 0.390623	 -0.121269	 0.202385	 0.229353	 -0.009992	 0.952018	 1
1463570717.773	 2	 -1.231070	 4.891137	 -1.353039	 0.595690	 0.357139	 -0.129959	 0.188196	 0.277159	 -0.009073	 0.942169	 1
1463570717.783	 2	 -1.290320	 4.946188	 -1.558769	 0.646792	 0.338020	 -0.135091	 0.180267	 0.301782	 -0.009751	 0.936129	 1
1463570717.793	 2	 -1.343488	 4.938426	 -1.770465	 0.697986	 0.316899	 -0.140518	 0.171614	 0.326426	 -0.011320	 0.929444	 1
1463570717.803	 2	 -1.364655	 4.902073	 -1.951798	 0.748731	 0.294054	 -0.146078	 0.162385	 0.350822	 -0.013758	 0.922153	 1
1463570717.813	 2	 -1.328488	 4.996660	 -2.094045	 0.799867	 0.270063	 -0.151638	 0.152866	 0.375312	 -0.016869	 0.914051	 1
1463570717.823	 2	 -1.201640	 5.333293	 -2.262539	 0.853748	 0.245354	 -0.157737	 0.143417	 0.400862	 -0.020671	 0.904607	 1
1463570717.833	 2	 -0.971757	 5.813044	 -2.454045	 0.912389	 0.220191	 -0.165220	 0.134432	 0.428236	 -0.025391	 0.893251	 1
1463570717.843	 2	 -0.682462	 6.211847	 -2.637230	 0.975486	 0.194766	 -0.174503	 0.126209	 0.457154	 -0.031223	 0.879833	 1
1463570717.853	 2	 -0.406663	 6.462862	 -2.818475	 1.041567	 0.168782	 -0.185465	 0.118712	 0.486889	 -0.038278	 0.864512	 1
1463570717.863	 2	 -0.187552	 6.470394	 -3.011085	 1.108293	 0.141590	 -0.197592	 0.111631	 0.516407	 -0.046624	 0.847755	 1
1463570717.873	 2	 -0.038893	 6.270534	 -3.230588	 1.173178	 0.112451	 -0.210264	 0.104538	 0.544686	 -0.056324	 0.830191	 1
1463570717.883	 2	 0.025634	 5.921670	 -3.497640	 1.234552	 0.080516	 -0.222738	 0.096893	 0.571117	 -0.067404	 0.812339	 1
1463570717.893	 2	 0.026368	 5.417529	 -3.789027	 1.290788	 0.045198	 -0.234274	 0.088209	 0.595129	 -0.079840	 0.794774	 1
1463570717.903	 2	 -0.022358	 4.844319	 -4.091285	 1.340977	 0.006345	 -0.244299	 0.078178	 0.616433	 -0.093511	 0.777917	 1
1463570717.913	 2	 -0.133010	 4.306033	 -4.442769	 1.385195	 -0.036442	 -0.252253	 0.066400	 0.635125	 -0.108334	 0.761886	 1
1463570717.923	 2	 -0.245518	 3.883198	 -4.861371	 1.424669	 -0.083731	 -0.257915	 0.052567	 0.651681	 -0.124373	 0.746378	 1
1463570717.933	 2	 -0.341365	 3.496734	 -5.153626	 1.460228	 -0.134622	 -0.261282	 0.036999	 0.666302	 -0.141321	 0.731232	 1
1463570717.953	 3	 -0.433558	 2.951589	 -5.416876	 1.522870	 -0.241575	 -0.261303	 0.002757	 0.690459	 -0.176043	 0.701618	 1
1463570717.963	 3	 -0.340918	 2.721239	 -5.463522	 1.551196	 -0.296291	 -0.259367	 -0.014954	 0.700288	 -0.193800	 0.686887	 1
1463570717.973	 3	 -0.238072	 2.533077	 -5.408618	 1.577669	 -0.350520	 -0.256953	 -0.032342	 0.708648	 -0.211599	 0.672308	 1
1463570717.983	 3	 -0.083439	 2.348949	 -5.216643	 1.602576	 -0.403231	 -0.254498	 -0.048901	 0.715697	 -0.229179	 0.657924	 1
1463570717.993	 3	 0.135239	 2.047613	 -4.881373	 1.624491	 -0.452934	 -0.253016	 -0.063977	 0.721135	 -0.246246	 0.644387	 1
1463570718.003	 3	 0.358230	 1.663037	 -4.436076	 1.642007	 -0.498580	 -0.253233	 -0.077230	 0.724762	 -0.262506	 0.632334	 1
1463570718.023	 4	 0.630987	 0.977960	 -3.462193	 1.662941	 -0.574753	 -0.258865	 -0.097917	 0.727343	 -0.291087	 0.613721	 1
1463570718.033	 4	 0.662299	 0.893115	 -3.269286	 1.669749	 -0.608349	 -0.262920	 -0.106615	 0.727438	 -0.304034	 0.605830	 1
1463570718.043	 4	 0.671323	 0.849682	 -3.094984	 1.675862	 -0.640237	 -0.267198	 -0.114671	 0.727257	 -0.316390	 0.598202	 1
1463570718.053	 4	 0.688606	 0.777250	 -2.956193	 1.681085	 -0.670661	 -0.271715	 -0.122211	 0.726758	 -0.328222	 0.590895	 1
1463570718.063	 4	 0.725907	 0.668438	 -2.839231	 1.684869	 -0.699969	 -0.276743	 -0.129365	 0.725807	 -0.339684	 0.584025	 1
1463570718.073	 4	 0.781478	 0.550315	 -2.678818	 1.686775	 -0.727889	 -0.282666	 -0.136013	 0.724360	 -0.350748	 0.577736	 1
1463570718.083	 4	 0.857721	 0.465537	 -2.458593	 1.686681	 -0.753846	 -0.289976	 -0.141849	 0.722515	 -0.361340	 0.572087	 1
1463570718.093	 4	 0.964232	 0.422501	 -2.190283	 1.684533	 -0.777369	 -0.299283	 -0.146547	 0.720396	 -0.371463	 0.567070	 1
1463570718.103	 4	 1.092291	 0.392427	 -1.885804	 1.680147	 -0.798056	 -0.311123	 -0.149858	 0.718078	 -0.381118	 0.562722	 1
1463570718.113	 4	 1.223379	 0.330395	 -1.586977	 1.673094	 -0.815815	 -0.325710	 -0.151793	 0.715506	 -0.390302	 0.559173	 1
1463570718.123	 4	 1.316764	 0.234090	 -1.336101	 1.663238	 -0.830961	 -0.342699	 -0.152644	 0.712612	 -0.399021	 0.556476	 1
1463570718.133	 4	 1.344769	 0.121646	 -1.137028	 1.651038	 -0.843910	 -0.361144	 -0.152821	 0.709422	 -0.407193	 0.554581	 1
1463570718.143	 4	 1.324489	 -0.013276	 -0.977177	 1.637012	 -0.855003	 -0.380122	 -0.152678	 0.705974	 -0.414731	 0.553433	 1
1463570718.153	 4	 1.277376	 -0.162108	 -0.839602	 1.621401	 -0.864482	 -0.399079	 -0.152446	 0.702264	 -0.421597	 0.553029	 1
1463570718.163	 4	 1.204694	 -0.310787	 -0.691146	 1.604553	 -0.872291	 -0.417541	 -0.152200	 0.698346	 -0.427694	 0.553377	 1
1463570718.173	 4	 1.043538	 -0.470622	 -0.503656	 1.587384	 -0.878085	 -0.434297	 -0.152035	 0.694393	 -0.432684	 0.554516	 1
1463570718.183	 4	 0.871917	 -0.600528	 -0.299810	 1.570665	 -0.881677	 -0.448607	 -0.151948	 0.690558	 -0.436396	 0.556418	 1
1463570718.193	 4	 0.703627	 -0.715443	 -0.080933	 1.554723	 -0.882982	 -0.460331	 -0.151851	 0.686906	 -0.438815	 0.559056	 1
1463570718.203	 4	 0.536558	 -0.802667	 0.143520	 1.539910	 -0.881968	 -0.469401	 -0.151644	 0.683513	 -0.439958	 0.562363	 1
1463570718.213	 4	 0.382995	 -0.951757	 0.349162	 1.525868	 -0.878816	 -0.475816	 -0.151438	 0.680248	 -0.439856	 0.566441	 1
1463570718.223	 4	 0.238775	 -1.125603	 0.518256	 1.512035	 -0.873893	 -0.479728	 -0.151408	 0.676926	 -0.438609	 0.571375	 1
1463570718.233	 4	 0.107470	 -1.240238	 0.644093	 1.498697	 -0.867665	 -0.481255	 -0.151595	 0.673594	 -0.436391	 0.576934	 1
1463570718.243	 4	 -0.030868	 -1.237008	 0.740180	 1.486818	 -0.860506	 -0.480489	 -0.151875	 0.670512	 -0.433386	 0.582687	 1
1463570718.253	 4	 -0.184739	 -1.120041	 0.820409	 1.477774	 -0.852659	 -0.477170	 -0.152119	 0.668057	 -0.429671	 0.588169	 1
1463570718.263	 4	 -0.317175	 -0.948137	 0.858332	 1.472016	 -0.844403	 -0.471640	 -0.152219	 0.666392	 -0.425437	 0.593089	 1
1463570718.273	 4	 -0.501168	 -0.947342	 0.746970	 1.468660	 -0.837152	 -0.463753	 -0.152937	 0.665188	 -0.420928	 0.597457	 1
1463570718.283	 4	 -0.907294	 -1.399281	 0.596028	 1.465390	 -0.831607	 -0.451153	 -0.155802	 0.663541	 -0.415432	 0.602375	 1
1463570718.293	 4	 -1.497739	 -2.006028	 0.436725	 1.461993	 -0.828371	 -0.430509	 -0.162167	 0.661056	 -0.408054	 0.608440	 1
1463570718.303	 4	 -1.874509	 -2.191508	 0.374333	 1.460133	 -0.826539	 -0.403407	 -0.170820	 0.658342	 -0.399120	 0.614906	 1
1463570718.313	 4	 -1.922544	 -2.014406	 0.429688	 1.460666	 -0.824569	 -0.374497	 -0.179505	 0.656103	 -0.389701	 0.620838	 1
1463570718.323	 4	 -1.815031	 -1.414665	 0.454582	 1.464968	 -0.822148	 -0.346775	 -0.186893	 0.655074	 -0.380795	 0.625255	 1
1463570718.333	 4	 -1.735837	 -0.569472	 0.581122	 1.476497	 -0.818504	 -0.320492	 -0.192037	 0.656469	 -0.372642	 0.627143	 1
1463570718.343	 4	 -1.758629	 0.107256	 0.756009	 1.495068	 -0.812878	 -0.294190	 -0.195277	 0.660200	 -0.364593	 0.626957	 1
1463570718.353	 4	 -1.835250	 0.738999	 0.865933	 1.520455	 -0.805621	 -0.267176	 -0.197113	 0.666122	 -0.356515	 0.624760	 1
1463570718.363	 4	 -1.893759	 1.191540	 0.912218	 1.551189	 -0.797242	 -0.239681	 -0.198010	 0.673753	 -0.348478	 0.620816	 1
1463570718.373	 4	 -1.795689	 1.136222	 0.950283	 1.581788	 -0.787932	 -0.213462	 -0.198456	 0.681536	 -0.340533	 0.616572	 1
1463570718.383	 4	 -1.402888	 0.435553	 0.996828	 1.603140	 -0.777736	 -0.192356	 -0.198662	 0.687062	 -0.332944	 0.614514	 1
1463570718.393	 4	 -0.771267	 -0.517023	 1.016569	 1.609207	 -0.767293	 -0.179775	 -0.198514	 0.688776	 -0.326337	 0.616185	 1
1463570718.403	 4	 -0.113566	 -1.316978	 0.972492	 1.599977	 -0.757285	 -0.176513	 -0.197795	 0.686643	 -0.321202	 0.621472	 1
1463570718.413	 4	 0.224707	 -1.415900	 0.815156	 1.583810	 -0.748736	 -0.179074	 -0.196631	 0.682717	 -0.317677	 0.627945	 1
1463570718.423	 4	 0.159651	 -0.875015	 0.720570	 1.572087	 -0.741690	 -0.181457	 -0.195289	 0.679954	 -0.315041	 0.632671	 1
1463570718.433	 4	 0.025438	 -0.227222	 0.820488	 1.567824	 -0.733871	 -0.182158	 -0.193060	 0.679430	 -0.312373	 0.635237	 1
1463570718.443	 4	 0.075526	 0.208552	 1.091613	 1.568546	 -0.723681	 -0.182785	 -0.189261	 0.680689	 -0.309411	 0.636481	 1
1463570718.453	 4	 0.299061	 0.484734	 1.425820	 1.570710	 -0.710292	 -0.185893	 -0.183299	 0.682912	 -0.306344	 0.637327	 1
1463570718.463	 4	 0.551097	 0.676962	 1.781378	 1.572897	 -0.693529	 -0.192341	 -0.175030	 0.685691	 -0.303245	 0.638150	 1
1463570718.473	 4	 0.689075	 0.764478	 2.025050	 1.574929	 -0.673778	 -0.201043	 -0.164966	 0.688768	 -0.299868	 0.639112	 1
1463570718.483	 4	 0.640819	 0.562960	 1.937268	 1.576086	 -0.653966	 -0.209462	 -0.155082	 0.691411	 -0.296285	 0.640403	 1
1463570718.493	 4	 0.586374	 0.195581	 1.562373	 1.574389	 -0.637333	 -0.217082	 -0.146963	 0.692709	 -0.293241	 0.642313	 1
1463570718.503	 4	 0.498656	 -0.110888	 1.066837	 1.570114	 -0.625403	 -0.223597	 -0.141205	 0.692665	 -0.291185	 0.644584	 1
1463570718.513	 4	 0.380945	 -0.202526	 0.556509	 1.565147	 -0.618545	 -0.228618	 -0.137809	 0.691887	 -0.290253	 0.646572	 1
1463570718.523	 4	 0.333690	 -0.126837	 0.121728	 1.561644	 -0.616364	 -0.232748	 -0.136130	 0.691183	 -0.290649	 0.647501	 1
1463570718.533	 5	 0.260068	 0.100118	 -0.145157	 1.559690	 -0.617238	 -0.236199	 -0.135527	 0.690727	 -0.291913	 0.647545	 1
1463570718.553	 5	 0.206604	 0.602734	 -0.231670	 1.565859	 -0.621527	 -0.241848	 -0.134162	 0.692816	 -0.295526	 0.643950	 1
1463570718.563	 5	 0.148847	 0.613211	 -0.276898	 1.570927	 -0.624169	 -0.243853	 -0.133634	 0.694403	 -0.297357	 0.641503	 1
1463570718.573	 5	 0.107482	 0.476882	 -0.319371	 1.575244	 -0.627266	 -0.245278	 -0.133569	 0.695672	 -0.299095	 0.639329	 1
1463570718.583	 5	 0.078769	 0.289621	 -0.340047	 1.578022	 -0.630635	 -0.246309	 -0.133959	 0.696400	 -0.300693	 0.637704	 1
1463570718.593	 5	 0.055583	 0.106907	 -0.318099	 1.579087	 -0.633902	 -0.247035	 -0.134676	 0.696565	 -0.302045	 0.636733	 1
1463570718.603	 5	 0.082850	 0.021953	 -0.301286	 1.586797	 -0.658649	 -0.243138	 -0.143381	 0.696971	 -0.309293	 0.630881	 1
1463570718.613	 5	 0.175583	 0.043626	 -0.355179	 1.585990	 -0.662036	 -0.244977	 -0.144029	 0.696597	 -0.310901	 0.630356	 1
1463570718.633	 5	 0.352093	 0.284309	 -0.534590	 1.585347	 -0.671789	 -0.252258	 -0.144944	 0.696194	 -0.316263	 0.627920	 1
1463570718.623	 5	 0.276000	 0.162678	 -0.471114	 1.585363	 -0.666491	 -0.248086	 -0.144574	 0.696292	 -0.313261	 0.629399	 1
1463570718.643	 5	 0.410028	 0.312116	 -0.490074	 1.585360	 -0.676910	 -0.257233	 -0.144969	 0.696175	 -0.319455	 0.626316	 1
1463570718.653	 5	 0.439014	 0.271219	 -0.397986	 1.584736	 -0.681189	 -0.262719	 -0.144630	 0.696058	 -0.322486	 0.624971	 1
1463570718.673	 6	 0.544426	 0.404300	 -0.341223	 1.585559	 -0.691145	 -0.273630	 -0.144119	 0.696360	 -0.329097	 0.621296	 1
1463570718.683	 6	 0.733022	 0.660341	 -0.451322	 1.585887	 -0.695418	 -0.282381	 -0.142485	 0.696772	 -0.333181	 0.619030	 1
1463570718.693	 6	 0.999268	 0.967366	 -0.686317	 1.587053	 -0.701755	 -0.294378	 -0.140285	 0.697515	 -0.338956	 0.615550	 1
1463570718.703	 6	 1.245030	 1.303600	 -1.008254	 1.589233	 -0.711227	 -0.309784	 -0.137789	 0.698568	 -0.346790	 0.610535	 1
1463570718.713	 6	 1.464836	 1.704491	 -1.224918	 1.593171	 -0.723309	 -0.328092	 -0.134844	 0.700145	 -0.356370	 0.603833	 1
1463570718.723	 6	 1.697782	 2.093298	 -1.342694	 1.598804	 -0.736901	 -0.349738	 -0.130897	 0.702307	 -0.367430	 0.595505	 1
1463570718.733	 6	 1.678954	 2.179459	 -1.349189	 1.605343	 -0.750981	 -0.372290	 -0.126565	 0.704703	 -0.378827	 0.586400	 1
1463570718.743	 6	 1.451346	 2.029840	 -1.246286	 1.612195	 -0.764301	 -0.392458	 -0.122681	 0.707027	 -0.389175	 0.577585	 1
1463570718.763	 7	 1.189680	 1.763438	 -0.981112	 1.626484	 -0.787263	 -0.426119	 -0.115718	 0.711513	 -0.406538	 0.561325	 1
1463570718.773	 7	 1.186410	 1.402845	 -0.839485	 1.629900	 -0.795938	 -0.442287	 -0.112205	 0.712792	 -0.413839	 0.555044	 1
1463570718.783	 7	 1.235396	 1.072628	 -0.741737	 1.629271	 -0.804299	 -0.459176	 -0.109156	 0.712989	 -0.420951	 0.550029	 1
1463570718.793	 7	 1.230706	 0.847269	 -0.579666	 1.625705	 -0.811273	 -0.476523	 -0.106103	 0.712486	 -0.427562	 0.546165	 1
1463570718.803	 7	 1.144596	 0.684676	 -0.302265	 1.620780	 -0.815660	 -0.493257	 -0.102702	 0.711740	 -0.433138	 0.543387	 1
1463570718.813	 7	 0.977692	 0.535537	 0.037778	 1.615645	 -0.816636	 -0.508160	 -0.098853	 0.711039	 -0.437204	 0.541761	 1
1463570718.823	 7	 0.770232	 0.418143	 0.339037	 1.611241	 -0.814262	 -0.520298	 -0.094688	 0.710571	 -0.439599	 0.541180	 1
1463570718.833	 7	 0.630691	 0.358914	 0.475053	 1.607817	 -0.810002	 -0.530153	 -0.090474	 0.710334	 -0.440897	 0.541156	 1
1463570718.843	 7	 0.545003	 0.304814	 0.460375	 1.604942	 -0.805513	 -0.538569	 -0.086570	 0.710162	 -0.441776	 0.541303	 1
1463570718.853	 7	 0.461566	 0.286773	 0.432158	 1.602657	 -0.801329	 -0.545726	 -0.083086	 0.710055	 -0.442436	 0.541451	 1
1463570718.863	 7	 0.326422	 0.296306	 0.518684	 1.601665	 -0.796529	 -0.551150	 -0.079717	 0.710236	 -0.442511	 0.541658	 1
1463570718.883	 8	 -0.003027	 0.431575	 0.705057	 1.606551	 -0.783702	 -0.555063	 -0.072804	 0.712292	 -0.440133	 0.541870	 1
1463570718.893	 8	 -0.135382	 0.373918	 0.767487	 1.611263	 -0.776150	 -0.554037	 -0.069523	 0.713864	 -0.437875	 0.542061	 1
1463570718.903	 8	 -0.286622	 0.177884	 0.807478	 1.615676	 -0.768046	 -0.551058	 -0.066825	 0.715311	 -0.434898	 0.542890	 1
1463570718.913	 8	 -0.414906	 -0.110907	 0.826157	 1.618661	 -0.759675	 -0.546260	 -0.065009	 0.716324	 -0.431279	 0.544658	 1
1463570718.923	 8	 -0.511337	 -0.455974	 0.870680	 1.619192	 -0.750871	 -0.540143	 -0.064052	 0.716646	 -0.427073	 0.547654	 1
1463570718.933	 8	 -0.657084	 -0.865632	 0.935280	 1.616780	 -0.741412	 -0.532414	 -0.064070	 0.716133	 -0.422112	 0.552151	 1
1463570718.943	 8	 -0.910885	 -1.098479	 0.990742	 1.613428	 -0.731246	 -0.521608	 -0.065130	 0.715276	 -0.416027	 0.557728	 1
1463570718.953	 8	 -1.184958	 -1.113198	 1.039783	 1.611802	 -0.720548	 -0.507228	 -0.066911	 0.714790	 -0.408787	 0.563464	 1
1463570718.963	 8	 -1.338315	 -1.124830	 1.133732	 1.611605	 -0.708912	 -0.490480	 -0.068915	 0.714657	 -0.400575	 0.569259	 1
1463570718.973	 8	 -1.423264	 -1.057378	 1.160677	 1.612251	 -0.696742	 -0.472777	 -0.070911	 0.714747	 -0.391876	 0.574927	 1
1463570718.983	 8	 -1.475566	 -0.906623	 1.247796	 1.614430	 -0.683942	 -0.454451	 -0.072626	 0.715283	 -0.382774	 0.580154	 1
1463570718.993	 8	 -1.462079	 -0.529142	 1.239468	 1.619451	 -0.670771	 -0.436236	 -0.073664	 0.716675	 -0.373608	 0.584267	 1
1463570719.003	 8	 -1.152197	 -0.180451	 1.194187	 1.626124	 -0.658073	 -0.421222	 -0.073462	 0.718665	 -0.365507	 0.586966	 1
1463570719.013	 8	 -0.736697	 0.243796	 1.050639	 1.633338	 -0.646659	 -0.411451	 -0.071768	 0.720965	 -0.359309	 0.588181	 1
1463570719.023	 8	 -0.355252	 0.763220	 0.817684	 1.642515	 -0.637604	 -0.406628	 -0.068786	 0.723918	 -0.355340	 0.587320	 1
1463570719.033	 8	 -0.095508	 1.270267	 0.588870	 1.654895	 -0.631085	 -0.405339	 -0.064850	 0.727808	 -0.353288	 0.584190	 1
1463570719.043	 8	 0.032803	 1.439066	 0.450774	 1.668661	 -0.626321	 -0.406003	 -0.060573	 0.732060	 -0.352374	 0.579872	 1
1463570719.053	 8	 0.025899	 1.367526	 0.409670	 1.682003	 -0.622229	 -0.406961	 -0.056503	 0.736136	 -0.351709	 0.575510	 1
1463570719.063	 8	 -0.098588	 1.195799	 0.438997	 1.694577	 -0.617922	 -0.406825	 -0.052912	 0.739944	 -0.350601	 0.571631	 1
1463570719.073	 8	 -0.246230	 0.805564	 0.541096	 1.704728	 -0.612585	 -0.405074	 -0.050020	 0.743050	 -0.348599	 0.569081	 1
1463570719.083	 8	 -0.404503	 0.656740	 0.634876	 1.713237	 -0.606009	 -0.401841	 -0.047579	 0.745705	 -0.345700	 0.567584	 1
1463570719.093	 8	 -0.728463	 0.737610	 0.655502	 1.724041	 -0.598553	 -0.395311	 -0.045719	 0.748975	 -0.341602	 0.565910	 1
1463570719.103	 8	 -1.024356	 0.743226	 0.577132	 1.737310	 -0.591069	 -0.384995	 -0.044905	 0.752859	 -0.336454	 0.563902	 1
1463570719.113	 8	 -1.060042	 0.572877	 0.392547	 1.750094	 -0.584846	 -0.373285	 -0.045178	 0.756510	 -0.331316	 0.562033	 1
1463570719.123	 8	 -0.927279	 0.273260	 0.050756	 1.759669	 -0.581576	 -0.362232	 -0.046739	 0.759117	 -0.327304	 0.560740	 1
1463570719.133	 8	 -0.725695	 0.106374	 -0.586681	 1.766664	 -0.584183	 -0.352121	 -0.050272	 0.760687	 -0.325549	 0.559327	 1
1463570719.143	 8	 -0.488952	 0.048775	 -1.099778	 1.771989	 -0.592853	 -0.343295	 -0.055520	 0.761436	 -0.326249	 0.557399	 1
1463570719.153	 8	 -0.200228	 -0.119378	 -1.290365	 1.775102	 -0.604626	 -0.336911	 -0.061171	 0.761392	 -0.328675	 0.555440	 1
1463570719.163	 8	 0.095769	 -0.295462	 -1.251950	 1.774189	 -0.617172	 -0.334073	 -0.066371	 0.760236	 -0.332233	 0.554307	 1
1463570719.173	 8	 0.382441	 -0.497376	 -1.112448	 1.769196	 -0.628930	 -0.334998	 -0.070578	 0.758098	 -0.336402	 0.554202	 1
1463570719.183	 8	 0.698106	 -0.747451	 -1.144150	 1.754980	 -0.640117	 -0.342552	 -0.073693	 0.753666	 -0.341841	 0.556509	 1
1463570719.193	 8	 0.959215	 -0.945866	 -1.265504	 1.740943	 -0.653807	 -0.350940	 -0.077355	 0.749146	 -0.348310	 0.558101	 1
1463570719.203	 8	 0.908109	 -0.885222	 -1.576763	 1.726077	 -0.669972	 -0.359877	 -0.081858	 0.744253	 -0.355649	 0.559375	 1
1463570719.213	 8	 0.324330	 -0.490256	 -2.055058	 1.718796	 -0.689848	 -0.362322	 -0.088714	 0.740946	 -0.362626	 0.558239	 1
1463570719.223	 8	 -0.159425	 -0.567295	 -2.313741	 1.716977	 -0.712222	 -0.357198	 -0.098215	 0.738566	 -0.368492	 0.555957	 1
1463570719.233	 8	 -0.394780	 -0.924958	 -2.302231	 1.714594	 -0.734632	 -0.348170	 -0.109258	 0.735686	 -0.373211	 0.554565	 1
1463570719.243	 8	 -0.559948	 -1.027374	 -2.118434	 1.711830	 -0.755438	 -0.336999	 -0.120618	 0.732540	 -0.376748	 0.553982	 1
1463570719.253	 8	 -0.717914	 -0.694251	 -1.713233	 1.712918	 -0.772553	 -0.324056	 -0.130676	 0.730508	 -0.378807	 0.552981	 1
1463570719.263	 8	 -0.666500	 -0.584733	 -1.257581	 1.715748	 -0.785113	 -0.311643	 -0.138710	 0.729276	 -0.379658	 0.552065	 1
1463570719.273	 8	 -0.437321	 -0.563025	 -0.811754	 1.716297	 -0.793509	 -0.302698	 -0.144556	 0.727975	 -0.379964	 0.552072	 1
1463570719.283	 8	 -0.162273	 -0.289631	 -0.401286	 1.715635	 -0.798113	 -0.298411	 -0.147714	 0.727019	 -0.380232	 0.552311	 1
1463570719.293	 8	 0.074046	 0.019315	 -0.098983	 1.723893	 -0.810255	 -0.292039	 -0.152326	 0.727569	 -0.383058	 0.548367	 1
1463570719.303	 8	 0.209864	 0.135264	 0.104474	 1.723038	 -0.809982	 -0.294862	 -0.151376	 0.727577	 -0.383678	 0.548186	 1
1463570719.313	 8	 0.127112	 0.127953	 0.236215	 1.722366	 -0.808155	 -0.297606	 -0.149925	 0.727789	 -0.383783	 0.548230	 1
1463570719.323	 8	 -0.057625	 0.077666	 0.267197	 1.723017	 -0.805529	 -0.298056	 -0.148801	 0.728271	 -0.383099	 0.548374	 1
1463570719.333	 8	 -0.208812	 -0.048676	 0.237496	 1.724292	 -0.802825	 -0.296097	 -0.148410	 0.728753	 -0.381774	 0.548765	 1
1463570719.343	 8	 -0.333656	 -0.208396	 0.162493	 1.725361	 -0.800552	 -0.292221	 -0.148896	 0.728991	 -0.380045	 0.549516	 1
1463570719.353	 8	 -0.444971	 -0.192850	 0.061294	 1.727381	 -0.799032	 -0.286465	 -0.150129	 0.729273	 -0.378115	 0.550137	 1
1463570719.363	 8	 -0.502420	 -0.016257	 -0.103887	 1.731816	 -0.798814	 -0.279392	 -0.151804	 0.729982	 -0.376433	 0.549891	 1
1463570719.373	 8	 -0.506346	 0.066799	 -0.385507	 1.738061	 -0.801019	 -0.271476	 -0.154217	 0.730857	 -0.375465	 0.548717	 1
1463570719.383	 8	 -0.450965	 0.051842	 -0.665358	 1.744482	 -0.806164	 -0.263347	 -0.157597	 0.731424	 -0.375447	 0.547012	 1
1463570719.393	 8	 -0.308703	 -0.001586	 -0.788591	 1.749622	 -0.813084	 -0.256428	 -0.161322	 0.731504	 -0.376272	 0.545249	 1
1463570719.403	 8	 -0.154018	 0.007353	 -0.813302	 1.753177	 -0.820707	 -0.251521	 -0.164816	 0.731202	 -0.377768	 0.543572	 1
1463570719.413	 8	 0.057618	 0.080106	 -0.815533	 1.755325	 -0.828729	 -0.249391	 -0.167673	 0.730675	 -0.380044	 0.541818	 1
1463570719.423	 8	 0.190514	 0.233647	 -0.855760	 1.757171	 -0.837290	 -0.249481	 -0.169934	 0.730170	 -0.383075	 0.539655	 1
1463570719.433	 8	 0.232466	 0.401798	 -0.971797	 1.760584	 -0.847065	 -0.249954	 -0.172118	 0.729956	 -0.386745	 0.536626	 1
1463570719.443	 8	 0.221395	 0.474920	 -1.159660	 1.765007	 -0.858339	 -0.250152	 -0.174649	 0.729778	 -0.390926	 0.533008	 1
1463570719.453	 8	 0.167369	 0.585643	 -1.459770	 1.771656	 -0.872200	 -0.248726	 -0.178099	 0.729684	 -0.395733	 0.528430	 1
1463570719.463	 8	 0.099138	 0.678933	 -1.822798	 1.781119	 -0.889371	 -0.244986	 -0.182790	 0.729618	 -0.401300	 0.522690	 1
1463570719.473	 8	 0.029255	 0.707896	 -2.256752	 1.793453	 -0.910379	 -0.238286	 -0.189051	 0.729377	 -0.407680	 0.515815	 1
1463570719.483	 8	 0.014153	 0.586724	 -2.691513	 1.807302	 -0.935630	 -0.228733	 -0.197176	 0.728444	 -0.414961	 0.508231	 1
1463570719.493	 8	 0.047906	 0.464810	 -2.915685	 1.821407	 -0.963627	 -0.217420	 -0.206519	 0.726702	 -0.422840	 0.500460	 1
1463570719.503	 8	 0.099534	 0.361169	 -2.959730	 1.835160	 -0.992413	 -0.205476	 -0.216195	 0.724349	 -0.430899	 0.492854	 1
1463570719.513	 8	 0.127321	 0.292619	 -2.867888	 1.848657	 -1.020687	 -0.193145	 -0.225714	 0.721632	 -0.438775	 0.485569	 1
1463570719.523	 8	 0.123994	 0.294339	 -2.632310	 1.862225	 -1.046943	 -0.180714	 -0.234489	 0.718942	 -0.446069	 0.478707	 1
1463570719.533	 8	 0.109312	 0.312605	 -2.319744	 1.875991	 -1.070200	 -0.168519	 -0.242126	 0.716577	 -0.452549	 0.472327	 1
1463570719.543	 8	 0.141749	 0.152994	 -2.023098	 1.887638	 -1.090520	 -0.157592	 -0.248842	 0.714180	 -0.458179	 0.467007	 1
1463570719.553	 8	 0.149470	 0.000524	 -1.778393	 1.896706	 -1.108389	 -0.147881	 -0.254946	 0.711630	 -0.463017	 0.462818	 1
1463570719.563	 8	 0.142032	 -0.154407	 -1.585801	 1.903566	 -1.124288	 -0.138969	 -0.260674	 0.708928	 -0.467142	 0.459619	 1
1463570719.573	 8	 0.140907	 -0.297920	 -1.429394	 1.908362	 -1.138601	 -0.130752	 -0.266158	 0.706061	 -0.470654	 0.457300	 1
1463570719.583	 8	 0.139989	 -0.375678	 -1.299021	 1.911599	 -1.151608	 -0.123257	 -0.271368	 0.703123	 -0.473702	 0.455614	 1
1463570719.593	 8	 0.144400	 -0.429212	 -1.199376	 1.913743	 -1.163582	 -0.116375	 -0.276318	 0.700170	 -0.476405	 0.454367	 1
1463570719.603	 8	 0.184049	 -0.431141	 -1.156043	 1.914751	 -1.175100	 -0.110515	 -0.281032	 0.697144	 -0.479032	 0.453364	 1
1463570719.613	 8	 0.219698	 -0.323955	 -1.174539	 1.915904	 -1.186800	 -0.105429	 -0.285461	 0.694176	 -0.481911	 0.452099	 1
1463570719.623	 8	 0.200739	 -0.219050	 -1.236278	 1.919021	 -1.198997	 -0.099549	 -0.289783	 0.691382	 -0.485056	 0.450264	 1
1463570719.633	 8	 0.150172	 -0.285025	 -1.260964	 1.923698	 -1.211356	 -0.091763	 -0.294382	 0.688568	 -0.488062	 0.448341	 1
1463570719.643	 8	 0.108201	 -0.375173	 -1.242254	 1.928881	 -1.223483	 -0.082416	 -0.299286	 0.685620	 -0.490733	 0.446692	 1
1463570719.653	 8	 0.006214	 -0.327640	 -1.182307	 1.936276	 -1.234837	 -0.070841	 -0.304165	 0.682932	 -0.493011	 0.445003	 1
1463570719.663	 8	 -0.124620	 -0.100990	 -1.074614	 1.949137	 -1.244785	 -0.055570	 -0.308554	 0.681135	 -0.494882	 0.442654	 1
1463570719.673	 8	 -0.092482	 -0.028272	 -0.861065	 1.962126	 -1.252909	 -0.041464	 -0.312024	 0.679889	 -0.496483	 0.440337	 1
1463570719.683	 8	 0.008204	 0.045752	 -0.586286	 1.970630	 -1.258879	 -0.032755	 -0.314234	 0.678960	 -0.497893	 0.438604	 1
1463570719.693	 8	 0.099369	 0.145264	 -0.320779	 1.974238	 -1.262767	 -0.030280	 -0.315056	 0.678419	 -0.499218	 0.437343	 1
1463570719.703	 8	 0.102681	 0.177973	 -0.062589	 1.974429	 -1.264304	 -0.031831	 -0.314830	 0.678331	 -0.500100	 0.436633	 1
1463570719.713	 8	 0.150799	 0.321244	 0.059822	 1.972878	 -1.264503	 -0.036395	 -0.313715	 0.678662	 -0.500919	 0.435983	 1
1463570719.723	 8	 0.178046	 0.369647	 0.145296	 1.969902	 -1.264049	 -0.043419	 -0.311973	 0.679222	 -0.501832	 0.435310	 1
1463570719.733	 8	 0.157450	 0.266841	 0.187149	 1.965918	 -1.263010	 -0.050699	 -0.310262	 0.679737	 -0.502451	 0.435014	 1
1463570719.743	 8	 0.144004	 0.134961	 0.182842	 1.961148	 -1.261854	 -0.057495	 -0.308884	 0.680028	 -0.502808	 0.435127	 1
1463570719.753	 8	 0.148771	 0.030575	 0.163711	 1.955456	 -1.260849	 -0.064027	 -0.307861	 0.680035	 -0.503021	 0.435596	 1
1463570719.763	 8	 0.160337	 -0.005625	 0.163274	 1.948957	 -1.259934	 -0.070827	 -0.306969	 0.679880	 -0.503203	 0.436256	 1
1463570719.773	 8	 0.134803	 -0.000137	 0.176336	 1.942836	 -1.258873	 -0.077254	 -0.306074	 0.679778	 -0.503321	 0.436908	 1
1463570719.783	 8	 0.087860	 -0.025285	 0.209549	 1.937552	 -1.257371	 -0.082636	 -0.305217	 0.679796	 -0.503199	 0.437620	 1
1463570719.793	 8	 0.062233	 -0.045272	 0.229836	 1.932706	 -1.255487	 -0.087278	 -0.304407	 0.679879	 -0.502864	 0.438440	 1
1463570719.803	 8	 0.063285	 -0.031594	 0.209705	 1.928264	 -1.253676	 -0.091570	 -0.303627	 0.679975	 -0.502541	 0.439200	 1
1463570719.813	 8	 0.073849	 -0.016003	 0.163930	 1.924181	 -1.252277	 -0.095661	 -0.302923	 0.680019	 -0.502367	 0.439816	 1
1463570719.823	 8	 0.077862	 -0.008757	 0.119006	 1.968602	 -1.260564	 -0.053691	 -0.308007	 0.681369	 -0.502704	 0.433770	 1
1463570719.833	 8	 0.063812	 -0.012200	 0.078597	 1.965472	 -1.260008	 -0.056868	 -0.307583	 0.681312	 -0.502728	 0.434133	 1
1463570719.843	 8	 0.039058	 -0.025161	 0.041390	 1.963323	 -1.259719	 -0.058890	 -0.307368	 0.681225	 -0.502741	 0.434407	 1
1463570719.853	 8	 0.018635	 -0.034858	 0.015899	 1.962112	 -1.259614	 -0.059824	 -0.307330	 0.681130	 -0.502722	 0.434603	 1
1463570719.863	 8	 0.008930	 -0.040145	 0.008414	 1.980692	 -1.261675	 -0.041804	 -0.309274	 0.681885	 -0.502366	 0.432447	 1
1463570719.873	 8	 0.006686	 -0.055099	 -0.001297	 1.979965	 -1.261696	 -0.042033	 -0.309383	 0.681759	 -0.502310	 0.432633	 1
1463570719.883	 8	 0.004428	 -0.078517	 -0.004693	 1.979116	 -1.261758	 -0.042162	 -0.309567	 0.681580	 -0.502227	 0.432880	 1
1463570719.893	 8	 -0.000985	 -0.101840	 0.003663	 1.978111	 -1.261758	 -0.042204	 -0.309805	 0.681369	 -0.502081	 0.433212	 1
1463570719.903	 8	 -0.014923	 -0.124068	 0.013251	 1.972630	 -1.255924	 -0.046273	 -0.308461	 0.682212	 -0.500170	 0.435050	 1
1463570719.913	 8	 -0.024536	 -0.130383	 0.018605	 1.971751	 -1.255663	 -0.045826	 -0.308774	 0.682014	 -0.499850	 0.435506	 1
1463570719.923	 8	 -0.023286	 -0.111191	 0.020838	 1.971022	 -1.255381	 -0.045356	 -0.309052	 0.681851	 -0.499541	 0.435919	 1
1463570719.933	 8	 -0.015606	 -0.069707	 0.024354	 1.970437	 -1.255089	 -0.045132	 -0.309207	 0.681759	 -0.499304	 0.436224	 1
1463570719.943	 8	 -0.006923	 -0.030455	 0.014049	 1.965768	 -1.248668	 -0.049177	 -0.307513	 0.682894	 -0.497327	 0.437901	 1
1463570719.953	 8	 -0.002495	 0.012001	 0.003748	 1.965804	 -1.248596	 -0.049149	 -0.307497	 0.682914	 -0.497302	 0.437909	 1
1463570719.963	 8	 0.000832	 0.048071	 -0.007669	 1.966251	 -1.248644	 -0.049095	 -0.307416	 0.682993	 -0.497375	 0.437761	 1
1463570719.973	 8	 0.006238	 0.068219	 -0.013923	 1.966917	 -1.248780	 -0.049073	 -0.307289	 0.683102	 -0.497518	 0.437516	 1
1463570719.983	 8	 0.011594	 0.070330	 -0.012828	 1.961083	 -1.243836	 -0.055284	 -0.305470	 0.683946	 -0.496337	 0.438811	 1
1463570719.993	 8	 0.010500	 0.061847	 -0.009700	 1.961538	 -1.243980	 -0.055490	 -0.305320	 0.684044	 -0.496500	 0.438580	 1
1463570720.003	 8	 0.009376	 0.049093	 -0.008743	 1.961895	 -1.244105	 -0.055682	 -0.305195	 0.684122	 -0.496638	 0.438389	 1
1463570720.013	 8	 0.008220	 0.026790	 -0.004678	 1.962051	 -1.244191	 -0.055867	 -0.305113	 0.684164	 -0.496731	 0.438274	 1
1463570720.023	 8	 0.001746	 0.009830	 -0.000487	 1.963683	 -1.240965	 -0.054462	 -0.304439	 0.685068	 -0.495596	 0.438616	 1
1463570720.033	 8	 -0.002561	 -0.000771	 0.002649	 1.963718	 -1.240945	 -0.054439	 -0.304433	 0.685077	 -0.495589	 0.438613	 1
1463570720.043	 8	 -0.010062	 -0.008186	 0.003711	 1.963843	 -1.240876	 -0.054226	 -0.304459	 0.685088	 -0.495539	 0.438635	 1
1463570720.053	 8	 -0.017564	 -0.016658	 0.005829	 1.964063	 -1.240761	 -0.053840	 -0.304510	 0.685104	 -0.495449	 0.438675	 1
1463570720.063	 8	 -0.019760	 -0.028332	 0.006821	 1.967918	 -1.238468	 -0.049908	 -0.304372	 0.685892	 -0.494407	 0.438716	 1
1463570720.073	 8	 -0.023031	 -0.043191	 0.008859	 1.969892	 -1.236406	 -0.047613	 -0.304195	 0.686462	 -0.493512	 0.438953	 1
1463570720.083	 8	 -0.030553	 -0.054849	 0.010961	 1.971321	 -1.234650	 -0.045696	 -0.304096	 0.686899	 -0.492719	 0.439230	 1
1463570720.093	 8	 -0.033790	 -0.062272	 0.011999	 1.972479	 -1.232902	 -0.043944	 -0.304010	 0.687300	 -0.491922	 0.439556	 1
1463570720.103	 8	 -0.037003	 -0.064389	 0.012017	 1.972539	 -1.231743	 -0.043195	 -0.303986	 0.687473	 -0.491376	 0.439913	 1
1463570720.113	 8	 -0.033799	 -0.061232	 0.008830	 1.972073	 -1.230681	 -0.042957	 -0.303937	 0.687584	 -0.490895	 0.440309	 1
1463570720.123	 8	 -0.027384	 -0.057013	 0.006691	 1.971301	 -1.229788	 -0.043061	 -0.303885	 0.687641	 -0.490500	 0.440697	 1
1463570720.143	 9	 -0.012384	 -0.041136	 0.002466	 1.969359	 -1.227871	 -0.043914	 -0.303625	 0.687793	 -0.489748	 0.441475	 1
1463570720.153	 9	 -0.011272	 -0.032624	 0.003612	 1.968273	 -1.226842	 -0.044585	 -0.303421	 0.687897	 -0.489384	 0.441856	 1
1463570720.163	 9	 -0.009098	 -0.026234	 0.005795	 1.967284	 -1.225888	 -0.045227	 -0.303222	 0.687999	 -0.489054	 0.442199	 1
1463570720.173	 9	 -0.005875	 -0.020934	 0.004759	 1.966468	 -1.225092	 -0.045774	 -0.303048	 0.688088	 -0.488784	 0.442479	 1
1463570720.183	 9	 -0.001596	 -0.018820	 0.004749	 1.965568	 -1.224428	 -0.046436	 -0.302886	 0.688144	 -0.488570	 0.442738	 1
1463570720.193	 9	 0.000544	 -0.016708	 0.003692	 1.964656	 -1.223816	 -0.047136	 -0.302725	 0.688191	 -0.488381	 0.442983	 1
1463570720.203	 9	 0.002694	 -0.013524	 0.003711	 1.963977	 -1.223139	 -0.047655	 -0.302555	 0.688277	 -0.488166	 0.443203	 1
1463570720.213	 9	 0.003789	 -0.008201	 0.004825	 1.963479	 -1.222395	 -0.048052	 -0.302367	 0.688400	 -0.487928	 0.443402	 1
1463570720.223	 9	 0.002735	 -0.005006	 0.004872	 1.963426	 -1.221549	 -0.048059	 -0.302180	 0.688587	 -0.487637	 0.443561	 1
1463570720.233	 9	 0.003811	 -0.001824	 0.003835	 1.963390	 -1.220803	 -0.048090	 -0.302004	 0.688757	 -0.487387	 0.443690	 1
1463570720.243	 9	 0.004911	 0.004563	 0.004959	 1.963389	 -1.220011	 -0.048148	 -0.301799	 0.688950	 -0.487133	 0.443809	 1
1463570720.253	 9	 0.002800	 0.009889	 0.005035	 1.963358	 -1.219290	 -0.048274	 -0.301595	 0.689130	 -0.486913	 0.443910	 1
1463570720.263	 9	 0.004972	 0.017337	 0.006158	 1.963542	 -1.218614	 -0.048271	 -0.301394	 0.689327	 -0.486713	 0.443960	 1
1463570720.273	 9	 0.007138	 0.022666	 0.008326	 1.963568	 -1.218052	 -0.048481	 -0.301184	 0.689495	 -0.486574	 0.443994	 1
1463570720.283	 9	 0.007143	 0.023729	 0.008340	 1.963360	 -1.217649	 -0.048929	 -0.300986	 0.689610	 -0.486506	 0.444024	 1
1463570720.293	 9	 0.011410	 0.022660	 0.009362	 1.963096	 -1.217341	 -0.049434	 -0.300804	 0.689699	 -0.486475	 0.444044	 1
1463570720.303	 9	 0.013533	 0.019470	 0.010382	 1.962725	 -1.217119	 -0.050035	 -0.300635	 0.689758	 -0.486478	 0.444063	 1
1463570720.313	 9	 0.013522	 0.017344	 0.010364	 1.962766	 -1.216939	 -0.050224	 -0.300518	 0.689838	 -0.486465	 0.444033	 1
1463570720.323	 9	 0.010303	 0.013108	 0.011418	 1.962944	 -1.216782	 -0.050242	 -0.300431	 0.689916	 -0.486443	 0.443993	 1
1463570720.333	 9	 0.007083	 0.008873	 0.012473	 1.963451	 -1.216601	 -0.049904	 -0.300382	 0.690020	 -0.486383	 0.443931	 1
1463570720.343	 9	 0.003853	 0.003567	 0.012450	 1.964119	 -1.216441	 -0.049352	 -0.300373	 0.690122	 -0.486307	 0.443861	 1
1463570720.353	 9	 -0.002554	 0.001476	 0.014616	 1.964776	 -1.216357	 -0.048776	 -0.300392	 0.690201	 -0.486249	 0.443789	 1
1463570720.363	 9	 -0.003642	 -0.000661	 0.012471	 1.965640	 -1.216359	 -0.047969	 -0.300461	 0.690271	 -0.486201	 0.443686	 1
1463570720.373	 9	 -0.005800	 -0.001747	 0.008212	 1.966430	 -1.216485	 -0.047209	 -0.300561	 0.690303	 -0.486193	 0.443577	 1
1463570720.383	 9	 -0.004753	 -0.002835	 0.004992	 1.967297	 -1.216563	 -0.046372	 -0.300657	 0.690351	 -0.486165	 0.443469	 1
1463570720.393	 9	 -0.003689	 -0.002836	 0.004980	 1.968224	 -1.216573	 -0.045473	 -0.300744	 0.690419	 -0.486108	 0.443365	 1
1463570720.403	 9	 -0.007989	 -0.007091	 0.002844	 1.969018	 -1.216547	 -0.044659	 -0.300826	 0.690479	 -0.486038	 0.443293	 1
1463570720.413	 9	 -0.009079	 -0.011341	 0.002812	 1.969743	 -1.216537	 -0.043866	 -0.300922	 0.690523	 -0.485968	 0.443238	 1
1463570720.423	 9	 -0.009099	 -0.013482	 0.000659	 1.970380	 -1.216522	 -0.043112	 -0.301024	 0.690554	 -0.485892	 0.443203	 1
1463570720.433	 9	 -0.008059	 -0.017746	 -0.000456	 1.970945	 -1.216482	 -0.042398	 -0.301124	 0.690581	 -0.485805	 0.443188	 1
1463570720.443	 9	 -0.004868	 -0.018826	 -0.001561	 1.971245	 -1.216469	 -0.041931	 -0.301209	 0.690580	 -0.485742	 0.443200	 1
1463570720.453	 9	 -0.002754	 -0.020975	 -0.003730	 1.971471	 -1.216391	 -0.041517	 -0.301279	 0.690586	 -0.485658	 0.443236	 1
1463570720.463	 9	 -0.001688	 -0.019921	 -0.004793	 1.971599	 -1.216279	 -0.041185	 -0.301337	 0.690591	 -0.485566	 0.443291	 1
1463570720.473	 9	 -0.001655	 -0.014587	 -0.002610	 1.971551	 -1.216122	 -0.041069	 -0.301352	 0.690599	 -0.485480	 0.443361	 1
1463570720.483	 9	 0.003709	 -0.010333	 -0.000482	 1.971297	 -1.215931	 -0.041206	 -0.301322	 0.690608	 -0.485407	 0.443447	 1
1463570720.493	 9	 0.006916	 -0.009280	 -0.000496	 1.970625	 -1.215740	 -0.041765	 -0.301248	 0.690588	 -0.485366	 0.443575	 1
1463570720.503	 9	 0.006941	 -0.005018	 0.000613	 1.970124	 -1.215535	 -0.042205	 -0.301170	 0.690591	 -0.485318	 0.443675	 1
1463570720.513	 9	 0.008036	 0.000304	 0.001724	 1.969724	 -1.215237	 -0.042603	 -0.301061	 0.690631	 -0.485245	 0.443766	 1
1463570720.523	 9	 0.004862	 0.004585	 0.003927	 1.969762	 -1.214916	 -0.042626	 -0.300969	 0.690718	 -0.485147	 0.443800	 1
1463570720.533	 9	 0.004864	 0.003536	 0.006054	 1.969522	 -1.214576	 -0.042915	 -0.300849	 0.690787	 -0.485060	 0.443869	 1
1463570720.543	 9	 0.003793	 0.000371	 0.009236	 1.969228	 -1.214215	 -0.043227	 -0.300728	 0.690853	 -0.484963	 0.443954	 1
1463570720.553	 9	 0.000590	 -0.001731	 0.011381	 1.968854	 -1.213818	 -0.043586	 -0.300603	 0.690916	 -0.484852	 0.444062	 1
1463570720.563	 9	 -0.002603	 -0.000650	 0.012488	 1.968659	 -1.213461	 -0.043770	 -0.300503	 0.690984	 -0.484743	 0.444144	 1
1463570720.573	 9	 -0.002569	 0.005739	 0.013615	 1.968432	 -1.213214	 -0.044028	 -0.300412	 0.691029	 -0.484682	 0.444200	 1
1463570720.583	 9	 0.001722	 0.012092	 0.011507	 1.968323	 -1.213055	 -0.044255	 -0.300323	 0.691076	 -0.484663	 0.444209	 1
1463570720.593	 9	 0.004969	 0.021656	 0.011567	 1.968299	 -1.212958	 -0.044493	 -0.300224	 0.691129	 -0.484679	 0.444176	 1
1463570720.603	 9	 0.006026	 0.020581	 0.010481	 1.968298	 -1.212927	 -0.044720	 -0.300139	 0.691170	 -0.484719	 0.444127	 1
1463570720.613	 9	 0.006006	 0.016326	 0.010441	 1.968218	 -1.212908	 -0.044986	 -0.300062	 0.691197	 -0.484760	 0.444093	 1
1463570720.623	 9	 0.003826	 0.006760	 0.010371	 1.968239	 -1.212837	 -0.045076	 -0.300009	 0.691231	 -0.484759	 0.444075	 1
1463570720.633	 9	 -0.000479	 -0.000672	 0.010338	 1.968293	 -1.212753	 -0.045055	 -0.299983	 0.691260	 -0.484733	 0.444076	 1
1463570720.643	 9	 0.000544	 -0.009193	 0.009184	 1.967986	 -1.212717	 -0.045291	 -0.299968	 0.691235	 -0.484728	 0.444131	 1
1463570720.653	 9	 0.000525	 -0.013448	 0.009144	 1.967709	 -1.212674	 -0.045442	 -0.299973	 0.691206	 -0.484705	 0.444197	 1
1463570720.663	 9	 0.002653	 -0.015574	 0.010170	 1.967424	 -1.212647	 -0.045583	 -0.299987	 0.691171	 -0.484684	 0.444266	 1
1463570720.673	 9	 0.004788	 -0.014525	 0.009094	 1.967055	 -1.212651	 -0.045815	 -0.299997	 0.691123	 -0.484682	 0.444336	 1
1463570720.683	 9	 0.005886	 -0.008145	 0.009143	 1.966813	 -1.212636	 -0.045989	 -0.299992	 0.691098	 -0.484679	 0.444380	 1
1463570720.693	 9	 0.005905	 -0.003890	 0.009182	 1.966641	 -1.212588	 -0.046138	 -0.299971	 0.691093	 -0.484671	 0.444411	 1
1463570720.703	 9	 0.001636	 -0.003877	 0.009220	 1.966547	 -1.212455	 -0.046212	 -0.299938	 0.691114	 -0.484628	 0.444448	 1
1463570720.713	 9	 0.000563	 -0.003882	 0.008164	 1.966521	 -1.212324	 -0.046222	 -0.299909	 0.691141	 -0.484582	 0.444476	 1
1463570720.723	 9	 -0.001571	 -0.002819	 0.007127	 1.966535	 -1.212246	 -0.046190	 -0.299899	 0.691157	 -0.484551	 0.444492	 1
1463570720.733	 9	 -0.003715	 -0.002828	 0.005015	 1.966695	 -1.212120	 -0.046011	 -0.299893	 0.691195	 -0.484492	 0.444501	 1
1463570720.743	 9	 -0.004794	 -0.007064	 0.007118	 1.966597	 -1.211969	 -0.046036	 -0.299873	 0.691212	 -0.484432	 0.444554	 1
1463570720.753	 9	 -0.001575	 -0.005987	 0.010299	 1.966410	 -1.211781	 -0.046159	 -0.299831	 0.691232	 -0.484367	 0.444620	 1
1463570720.763	 9	 -0.001565	 -0.004916	 0.011376	 1.966062	 -1.211635	 -0.046446	 -0.299783	 0.691232	 -0.484330	 0.444695	 1
1463570720.773	 9	 0.002713	 -0.003858	 0.012415	 1.965800	 -1.211487	 -0.046679	 -0.299731	 0.691243	 -0.484292	 0.444754	 1
1463570720.783	 9	 0.002729	 0.000389	 0.011388	 1.965642	 -1.211432	 -0.046840	 -0.299701	 0.691245	 -0.484286	 0.444778	 1
1463570720.793	 9	 0.003812	 0.004633	 0.010350	 1.965596	 -1.211432	 -0.046943	 -0.299676	 0.691250	 -0.484302	 0.444769	 1
1463570720.803	 9	 0.005946	 0.005683	 0.009274	 1.965550	 -1.211419	 -0.047061	 -0.299644	 0.691260	 -0.484317	 0.444759	 1
1463570720.813	 9	 0.004864	 0.003552	 0.008196	 1.965621	 -1.211410	 -0.047067	 -0.299622	 0.691279	 -0.484326	 0.444734	 1
1463570720.823	 9	 0.004862	 0.002497	 0.009250	 1.965717	 -1.211413	 -0.047036	 -0.299610	 0.691295	 -0.484334	 0.444708	 1
1463570720.833	 9	 0.003770	 -0.000706	 0.007097	 1.965747	 -1.211382	 -0.047031	 -0.299598	 0.691308	 -0.484327	 0.444704	 1
1463570720.843	 9	 0.002686	 -0.004949	 0.008133	 1.965609	 -1.211292	 -0.047140	 -0.299572	 0.691315	 -0.484300	 0.444740	 1
1463570720.853	 9	 0.000546	 -0.006006	 0.008142	 1.965591	 -1.211222	 -0.047120	 -0.299567	 0.691324	 -0.484269	 0.444763	 1
1463570720.863	 9	 -0.000499	 -0.001740	 0.009256	 1.965842	 -1.211119	 -0.046877	 -0.299567	 0.691367	 -0.484218	 0.444753	 1
1463570720.873	 9	 -0.001548	 0.000407	 0.011416	 1.965836	 -1.211010	 -0.046897	 -0.299535	 0.691394	 -0.484185	 0.444768	 1
1463570720.883	 9	 -0.000476	 0.001467	 0.011416	 1.965767	 -1.210942	 -0.046985	 -0.299506	 0.691407	 -0.484171	 0.444781	 1
1463570720.893	 9	 -0.001558	 -0.001720	 0.011394	 1.965776	 -1.210913	 -0.046982	 -0.299498	 0.691416	 -0.484162	 0.444784	 1
1463570720.903	 9	 -0.002640	 -0.003852	 0.010316	 1.965697	 -1.210873	 -0.047034	 -0.299490	 0.691415	 -0.484148	 0.444805	 1
1463570720.913	 9	 -0.002663	 -0.007059	 0.008154	 1.965675	 -1.210831	 -0.046994	 -0.299499	 0.691414	 -0.484122	 0.444829	 1
1463570720.923	 9	 -0.003746	 -0.010246	 0.008132	 1.965666	 -1.210776	 -0.046912	 -0.299517	 0.691412	 -0.484083	 0.444862	 1
1463570720.933	 9	 -0.001563	 -0.012340	 0.006816	 1.965562	 -1.210710	 -0.046906	 -0.299529	 0.691404	 -0.484044	 0.444910	 1
1463570720.943	 9	 -0.001568	 -0.013404	 0.006806	 1.965342	 -1.210619	 -0.046983	 -0.299534	 0.691387	 -0.483997	 0.444982	 1
1463570720.953	 9	 -0.000500	 -0.011295	 0.004686	 1.965307	 -1.210530	 -0.046915	 -0.299545	 0.691390	 -0.483947	 0.445026	 1
1463570720.963	 9	 0.002726	 -0.005986	 0.004708	 1.965153	 -1.210435	 -0.047001	 -0.299531	 0.691390	 -0.483911	 0.445074	 1
1463570720.973	 9	 0.003813	 -0.001735	 0.004738	 1.965111	 -1.210353	 -0.047036	 -0.299509	 0.691405	 -0.483885	 0.445093	 1
1463570720.983	 9	 0.003830	 0.000409	 0.006891	 1.965136	 -1.210226	 -0.047039	 -0.299473	 0.691441	 -0.483846	 0.445105	 1
1463570720.993	 9	 0.003832	 -0.000639	 0.009013	 1.965066	 -1.210110	 -0.047134	 -0.299430	 0.691466	 -0.483818	 0.445126	 1
1463570721.003	 9	 0.003811	 -0.004894	 0.008975	 1.964880	 -1.209981	 -0.047302	 -0.299386	 0.691480	 -0.483784	 0.445171	 1
1463570721.013	 9	 -0.000460	 -0.009105	 0.013236	 1.964600	 -1.209886	 -0.047501	 -0.299364	 0.691469	 -0.483754	 0.445235	 1
1463570721.023	 9	 -0.002604	 -0.011227	 0.013234	 1.964321	 -1.209794	 -0.047683	 -0.299346	 0.691455	 -0.483721	 0.445303	 1
1463570721.033	 9	 -0.000479	 -0.012304	 0.012140	 1.964124	 -1.209678	 -0.047762	 -0.299340	 0.691450	 -0.483670	 0.445371	 1
1463570721.043	 9	 -0.002613	 -0.011241	 0.011102	 1.964164	 -1.209582	 -0.047632	 -0.299352	 0.691462	 -0.483615	 0.445405	 1
1463570721.053	 9	 -0.002607	 -0.008066	 0.008998	 1.964158	 -1.209570	 -0.047562	 -0.299375	 0.691453	 -0.483594	 0.445426	 1
1463570721.063	 9	 -0.000459	 -0.006993	 0.011120	 1.964085	 -1.209524	 -0.047576	 -0.299377	 0.691449	 -0.483571	 0.445455	 1
1463570721.073	 9	 0.001686	 -0.002760	 0.009008	 1.964115	 -1.209489	 -0.047529	 -0.299378	 0.691457	 -0.483553	 0.445462	 1
1463570721.083	 9	 0.001695	 -0.000632	 0.009027	 1.964115	 -1.209429	 -0.047542	 -0.299359	 0.691473	 -0.483536	 0.445469	 1
1463570721.093	 9	 0.001690	 -0.000640	 0.007961	 1.964038	 -1.209322	 -0.047631	 -0.299322	 0.691494	 -0.483508	 0.445491	 1
1463570721.103	 9	 0.000616	 -0.003812	 0.010073	 1.963969	 -1.209236	 -0.047681	 -0.299301	 0.691506	 -0.483480	 0.445518	 1
1463570721.113	 9	 0.002744	 -0.005938	 0.011099	 1.963867	 -1.209185	 -0.047746	 -0.299292	 0.691504	 -0.483462	 0.445545	 1
1463570721.123	 9	 0.000590	 -0.009130	 0.010022	 1.963723	 -1.209128	 -0.047817	 -0.299289	 0.691496	 -0.483437	 0.445588	 1
1463570721.133	 9	 0.004867	 -0.008071	 0.011059	 1.963660	 -1.209076	 -0.047823	 -0.299290	 0.691495	 -0.483411	 0.445617	 1
1463570721.143	 9	 0.004861	 -0.008078	 0.009992	 1.963626	 -1.209012	 -0.047803	 -0.299290	 0.691499	 -0.483380	 0.445644	 1
1463570721.153	 9	 0.005917	 -0.009152	 0.008906	 1.963646	 -1.208966	 -0.047730	 -0.299299	 0.691503	 -0.483351	 0.445662	 1
1463570721.163	 9	 0.006988	 -0.008090	 0.008905	 1.963658	 -1.208945	 -0.047677	 -0.299310	 0.691503	 -0.483334	 0.445675	 1
1463570721.173	 9	 0.005935	 -0.003839	 0.007887	 1.963666	 -1.208928	 -0.047658	 -0.299311	 0.691506	 -0.483325	 0.445679	 1
1463570721.183	 9	 0.003799	 -0.003832	 0.007904	 1.963726	 -1.208882	 -0.047590	 -0.299309	 0.691520	 -0.483303	 0.445682	 1
1463570721.193	 9	 0.002731	 -0.004885	 0.008969	 1.963638	 -1.208842	 -0.047649	 -0.299300	 0.691518	 -0.483290	 0.445705	 1
1463570721.203	 9	 0.001677	 -0.002746	 0.010063	 1.963611	 -1.208778	 -0.047665	 -0.299286	 0.691529	 -0.483268	 0.445721	 1
1463570721.213	 9	 -0.000457	 -0.002740	 0.010081	 1.963541	 -1.208701	 -0.047711	 -0.299269	 0.691538	 -0.483241	 0.445747	 1
1463570721.223	 9	 -0.001519	 -0.000617	 0.009044	 1.963613	 -1.208632	 -0.047642	 -0.299260	 0.691560	 -0.483213	 0.445750	 1
1463570721.233	 9	 -0.000462	 -0.002747	 0.009015	 1.963454	 -1.208539	 -0.047779	 -0.299229	 0.691566	 -0.483189	 0.445788	 1
1463570721.243	 9	 -0.001539	 -0.004872	 0.009006	 1.963206	 -1.208414	 -0.047977	 -0.299191	 0.691570	 -0.483153	 0.445846	 1
1463570721.253	 9	 -0.001527	 -0.005905	 0.013259	 1.963015	 -1.208292	 -0.048112	 -0.299162	 0.691575	 -0.483114	 0.445900	 1
1463570721.263	 9	 -0.000468	 -0.005923	 0.011116	 1.962919	 -1.208277	 -0.048167	 -0.299163	 0.691566	 -0.483107	 0.445922	 1
1463570721.273	 9	 0.002739	 -0.003813	 0.010040	 1.962870	 -1.208290	 -0.048192	 -0.299169	 0.691555	 -0.483109	 0.445931	 1
1463570721.283	 9	 0.004884	 0.000421	 0.007926	 1.963008	 -1.208342	 -0.048080	 -0.299187	 0.691557	 -0.483122	 0.445902	 1
1463570721.293	 9	 0.005961	 0.002545	 0.007934	 1.963084	 -1.208388	 -0.048056	 -0.299187	 0.691560	 -0.483144	 0.445874	 1
1463570721.303	 9	 0.003803	 -0.000654	 0.005790	 1.963033	 -1.208449	 -0.048131	 -0.299188	 0.691546	 -0.483174	 0.445863	 1
1463570721.313	 9	 0.000572	 -0.005971	 0.004699	 1.963090	 -1.208554	 -0.048043	 -0.299229	 0.691521	 -0.483198	 0.445847	 1
1463570721.323	 9	 0.000567	 -0.008090	 0.005742	 1.963036	 -1.208687	 -0.048030	 -0.299278	 0.691476	 -0.483232	 0.445847	 1
1463570721.333	 9	 -0.000520	 -0.012342	 0.005711	 1.962771	 -1.208714	 -0.048179	 -0.299297	 0.691434	 -0.483235	 0.445898	 1
1463570721.343	 9	 0.000532	 -0.016592	 0.006727	 1.962515	 -1.208718	 -0.048291	 -0.299321	 0.691392	 -0.483223	 0.445959	 1
1463570721.353	 9	 -0.001618	 -0.020833	 0.007770	 1.962331	 -1.208717	 -0.048291	 -0.299365	 0.691352	 -0.483195	 0.446023	 1
1463570721.363	 9	 -0.001634	 -0.024023	 0.007741	 1.962202	 -1.208633	 -0.048196	 -0.299409	 0.691328	 -0.483126	 0.446104	 1
1463570721.373	 9	 -0.002684	 -0.021877	 0.009900	 1.962179	 -1.208575	 -0.048012	 -0.299465	 0.691309	 -0.483062	 0.446166	 1
1463570721.383	 9	 -0.003732	 -0.018675	 0.011004	 1.962092	 -1.208507	 -0.047918	 -0.299502	 0.691291	 -0.483005	 0.446230	 1
1463570721.393	 9	 -0.002648	 -0.013375	 0.008910	 1.961961	 -1.208479	 -0.047911	 -0.299530	 0.691267	 -0.482974	 0.446282	 1
1463570721.403	 9	 -0.002635	 -0.008079	 0.005761	 1.962003	 -1.208484	 -0.047784	 -0.299565	 0.691256	 -0.482954	 0.446297	 1
1463570721.413	 9	 -0.000479	 -0.002775	 0.004724	 1.961918	 -1.208535	 -0.047832	 -0.299581	 0.691232	 -0.482969	 0.446307	 1
1463570721.423	 9	 0.002735	 0.002510	 0.001546	 1.961863	 -1.208589	 -0.047904	 -0.299582	 0.691219	 -0.482995	 0.446299	 1
1463570721.433	 9	 0.004883	 0.004639	 0.002613	 1.961816	 -1.208573	 -0.048004	 -0.299555	 0.691227	 -0.483005	 0.446294	 1
1463570721.443	 9	 0.005969	 0.006778	 0.004757	 1.961696	 -1.208474	 -0.048195	 -0.299495	 0.691251	 -0.482996	 0.446306	 1
1463570721.453	 9	 0.004919	 0.007868	 0.007974	 1.961624	 -1.208394	 -0.048361	 -0.299436	 0.691279	 -0.482996	 0.446304	 1
1463570721.463	 9	 0.004932	 0.008948	 0.010115	 1.961533	 -1.208313	 -0.048561	 -0.299370	 0.691307	 -0.482999	 0.446301	 1
1463570721.473	 9	 0.003870	 0.010015	 0.010133	 1.961523	 -1.208288	 -0.048691	 -0.299321	 0.691330	 -0.483018	 0.446277	 1
1463570721.483	 9	 0.003873	 0.008967	 0.012253	 1.961505	 -1.208276	 -0.048822	 -0.299278	 0.691348	 -0.483041	 0.446253	 1
1463570721.493	 9	 0.003865	 0.007895	 0.011175	 1.961397	 -1.208330	 -0.049028	 -0.299245	 0.691343	 -0.483089	 0.446232	 1
1463570721.503	 9	 0.004908	 0.003630	 0.010057	 1.961272	 -1.208422	 -0.049218	 -0.299231	 0.691322	 -0.483143	 0.446214	 1
1463570721.513	 9	 0.003817	 -0.000629	 0.008958	 1.961201	 -1.208521	 -0.049312	 -0.299239	 0.691297	 -0.483187	 0.446199	 1
1463570721.523	 9	 0.004858	 -0.005950	 0.008896	 1.961235	 -1.208602	 -0.049254	 -0.299270	 0.691278	 -0.483207	 0.446188	 1
1463570721.533	 9	 0.001638	 -0.008083	 0.006770	 1.961236	 -1.208669	 -0.049196	 -0.299305	 0.691254	 -0.483217	 0.446191	 1
1463570721.543	 9	 -0.000494	 -0.008068	 0.007852	 1.961448	 -1.208671	 -0.048935	 -0.299345	 0.691262	 -0.483191	 0.446180	 1
1463570721.553	 9	 -0.000485	 -0.004884	 0.006813	 1.961674	 -1.208676	 -0.048683	 -0.299379	 0.691273	 -0.483170	 0.446162	 1
1463570721.563	 9	 -0.001564	 -0.008063	 0.007856	 1.961834	 -1.208686	 -0.048473	 -0.299415	 0.691275	 -0.483151	 0.446156	 1
1463570721.573	 9	 -0.001579	 -0.010198	 0.006770	 1.961809	 -1.208653	 -0.048412	 -0.299434	 0.691268	 -0.483122	 0.446185	 1
1463570721.583	 9	 0.000551	 -0.010212	 0.005684	 1.961763	 -1.208652	 -0.048372	 -0.299459	 0.691252	 -0.483106	 0.446210	 1
1463570721.593	 9	 0.000565	 -0.008076	 0.006768	 1.961727	 -1.208657	 -0.048338	 -0.299481	 0.691238	 -0.483095	 0.446230	 1
1463570721.603	 9	 0.001660	 -0.008055	 0.003445	 1.961754	 -1.208655	 -0.048251	 -0.299504	 0.691231	 -0.483079	 0.446242	 1
1463570721.613	 9	 0.000597	 -0.006988	 0.003463	 1.961853	 -1.208667	 -0.048085	 -0.299540	 0.691226	 -0.483060	 0.446246	 1
1463570721.623	 9	 -0.000453	 -0.004841	 0.005623	 1.961894	 -1.208621	 -0.048009	 -0.299546	 0.691234	 -0.483034	 0.446258	 1
1463570721.633	 9	 -0.000424	 0.001541	 0.005683	 1.962019	 -1.208516	 -0.047892	 -0.299531	 0.691268	 -0.482991	 0.446260	 1
1463570721.643	 9	 0.000661	 0.002624	 0.008881	 1.961954	 -1.208395	 -0.047988	 -0.299485	 0.691296	 -0.482962	 0.446280	 1
1463570721.653	 9	 0.001741	 0.002644	 0.012070	 1.961832	 -1.208274	 -0.048151	 -0.299430	 0.691321	 -0.482939	 0.446303	 1
1463570721.663	 9	 0.003869	 0.000518	 0.013097	 1.961618	 -1.208182	 -0.048388	 -0.299378	 0.691330	 -0.482929	 0.446335	 1
1463570721.673	 9	 0.003854	 -0.001617	 0.012012	 1.961450	 -1.208084	 -0.048559	 -0.299337	 0.691341	 -0.482909	 0.446368	 1
1463570721.683	 9	 -0.000421	 -0.004779	 0.014150	 1.961355	 -1.208003	 -0.048629	 -0.299316	 0.691349	 -0.482883	 0.446397	 1
1463570721.693	 9	 -0.004695	 -0.005830	 0.014176	 1.961407	 -1.207916	 -0.048533	 -0.299317	 0.691366	 -0.482840	 0.446417	 1
1463570721.703	 9	 -0.006853	 -0.009030	 0.012032	 1.961474	 -1.207870	 -0.048387	 -0.299340	 0.691370	 -0.482802	 0.446436	 1
1463570721.713	 9	 -0.004727	 -0.009051	 0.009878	 1.961567	 -1.207972	 -0.048213	 -0.299402	 0.691341	 -0.482811	 0.446429	 1
1463570721.723	 9	 -0.002600	 -0.009073	 0.007724	 1.961544	 -1.208081	 -0.048141	 -0.299458	 0.691300	 -0.482828	 0.446437	 1
1463570721.733	 9	 -0.003671	 -0.008021	 0.005609	 1.961704	 -1.208155	 -0.047912	 -0.299516	 0.691285	 -0.482827	 0.446424	 1
1463570721.743	 9	 -0.003641	 -0.004815	 0.006776	 1.961988	 -1.208182	 -0.047593	 -0.299564	 0.691294	 -0.482807	 0.446399	 1
1463570721.753	 9	 -0.004693	 -0.000565	 0.005757	 1.962208	 -1.208205	 -0.047365	 -0.299595	 0.691304	 -0.482797	 0.446374	 1
1463570721.763	 9	 -0.002559	 -0.000571	 0.005738	 1.962268	 -1.208180	 -0.047305	 -0.299595	 0.691314	 -0.482784	 0.446371	 1
1463570721.773	 9	 -0.000429	 -0.000585	 0.004652	 1.962347	 -1.208214	 -0.047234	 -0.299608	 0.691313	 -0.482792	 0.446356	 1
1463570721.783	 9	 -0.000445	 -0.004832	 0.005677	 1.962356	 -1.208253	 -0.047203	 -0.299626	 0.691301	 -0.482799	 0.446354	 1
1463570721.793	 9	 0.000638	 -0.001644	 0.005696	 1.962275	 -1.208293	 -0.047267	 -0.299633	 0.691283	 -0.482815	 0.446360	 1
1463570721.803	 9	 0.003831	 -0.002725	 0.004590	 1.962169	 -1.208407	 -0.047358	 -0.299654	 0.691247	 -0.482858	 0.446356	 1
1463570721.813	 9	 0.003825	 -0.004845	 0.005635	 1.962041	 -1.208454	 -0.047452	 -0.299663	 0.691222	 -0.482875	 0.446369	 1
1463570721.823	 9	 0.003820	 -0.006965	 0.006680	 1.961779	 -1.208477	 -0.047655	 -0.299662	 0.691189	 -0.482889	 0.446407	 1
1463570721.833	 10	 0.005942	 -0.010154	 0.007696	 1.961696	 -1.208500	 -0.047678	 -0.299679	 0.691168	 -0.482890	 0.446426	 1
1463570721.853	 10	 0.001690	 -0.007998	 0.009884	 1.961512	 -1.208312	 -0.047706	 -0.299670	 0.691175	 -0.482805	 0.446514	 1
1463570721.863	 10	 0.000641	 -0.005851	 0.012044	 1.961497	 -1.208220	 -0.047681	 -0.299661	 0.691189	 -0.482766	 0.446541	 1
1463570721.873	 10	 0.000640	 -0.005851	 0.012044	 1.961462	 -1.208110	 -0.047679	 -0.299644	 0.691206	 -0.482723	 0.446572	 1
1463570721.883	 10	 0.000642	 -0.002683	 0.008875	 1.961387	 -1.208081	 -0.047731	 -0.299638	 0.691204	 -0.482714	 0.446590	 1
1463570721.893	 10	 0.000656	 -0.000548	 0.009960	 1.961435	 -1.208016	 -0.047694	 -0.299623	 0.691224	 -0.482691	 0.446593	 1
1463570721.903	 10	 -0.001454	 0.004771	 0.009179	 1.961529	 -1.207939	 -0.047645	 -0.299600	 0.691255	 -0.482668	 0.446585	 1
1463570721.913	 10	 0.000693	 0.004788	 0.012358	 1.961466	 -1.207800	 -0.047762	 -0.299542	 0.691291	 -0.482637	 0.446602	 1
1463570721.923	 10	 0.001768	 0.004800	 0.014481	 1.961313	 -1.207619	 -0.047975	 -0.299462	 0.691330	 -0.482601	 0.446633	 1
1463570721.933	 10	 0.001767	 0.003744	 0.015537	 1.961134	 -1.207461	 -0.048204	 -0.299389	 0.691361	 -0.482572	 0.446666	 1
1463570721.943	 10	 -0.000358	 0.004822	 0.016631	 1.961100	 -1.207359	 -0.048297	 -0.299342	 0.691390	 -0.482553	 0.446673	 1
1463570721.953	 10	 0.000714	 0.005883	 0.016630	 1.961157	 -1.207288	 -0.048321	 -0.299303	 0.691423	 -0.482543	 0.446659	 1
1463570721.963	 10	 0.001767	 0.004801	 0.014477	 1.961286	 -1.207253	 -0.048276	 -0.299279	 0.691453	 -0.482540	 0.446631	 1
1463570721.973	 10	 0.001756	 0.002675	 0.014452	 1.961660	 -1.207430	 -0.047993	 -0.299328	 0.691454	 -0.482593	 0.446540	 1
1463570721.983	 10	 -0.001479	 -0.002650	 0.012297	 1.961633	 -1.207487	 -0.048031	 -0.299335	 0.691440	 -0.482617	 0.446531	 1
1463570721.993	 10	 -0.003647	 -0.009033	 0.011186	 1.961689	 -1.207651	 -0.047911	 -0.299401	 0.691397	 -0.482654	 0.446513	 1
1463570722.003	 10	 -0.001546	 -0.014373	 0.008984	 1.961580	 -1.207795	 -0.047895	 -0.299467	 0.691337	 -0.482682	 0.446531	 1
1463570722.013	 10	 0.000565	 -0.017585	 0.006801	 1.961551	 -1.207921	 -0.047771	 -0.299546	 0.691283	 -0.482693	 0.446550	 1
1463570722.023	 10	 0.000565	 -0.016529	 0.005742	 1.961599	 -1.207994	 -0.047580	 -0.299618	 0.691248	 -0.482682	 0.446568	 1
1463570722.033	 10	 0.000565	 -0.016528	 0.005741	 1.961556	 -1.208030	 -0.047470	 -0.299675	 0.691214	 -0.482664	 0.446603	 1
1463570722.043	 10	 -0.000509	 -0.017588	 0.005740	 1.961648	 -1.207998	 -0.047231	 -0.299728	 0.691206	 -0.482613	 0.446634	 1
1463570722.053	 10	 -0.002624	 -0.014383	 0.006853	 1.961619	 -1.207954	 -0.047123	 -0.299762	 0.691194	 -0.482570	 0.446677	 1
1463570722.063	 10	 -0.003683	 -0.013308	 0.007938	 1.961600	 -1.207863	 -0.047006	 -0.299786	 0.691193	 -0.482510	 0.446728	 1
1463570722.073	 10	 -0.005818	 -0.013295	 0.008084	 1.961500	 -1.207741	 -0.046969	 -0.299794	 0.691193	 -0.482445	 0.446791	 1
1463570722.093	 11	 -0.006870	 -0.010101	 0.008122	 1.961488	 -1.207597	 -0.046749	 -0.299839	 0.691191	 -0.482346	 0.446872	 1
1463570722.103	 11	 -0.005793	 -0.007976	 0.008132	 1.961472	 -1.207522	 -0.046673	 -0.299851	 0.691193	 -0.482301	 0.446909	 1
1463570722.113	 11	 -0.004716	 -0.005852	 0.008142	 1.961406	 -1.207467	 -0.046675	 -0.299854	 0.691191	 -0.482273	 0.446940	 1
1463570722.123	 11	 -0.004701	 -0.003717	 0.009227	 1.961428	 -1.207399	 -0.046615	 -0.299853	 0.691203	 -0.482240	 0.446958	 1
1463570722.133	 11	 -0.001506	 -0.005846	 0.010245	 1.961351	 -1.207310	 -0.046649	 -0.299839	 0.691211	 -0.482206	 0.446991	 1
1463570722.143	 11	 -0.000434	 -0.004786	 0.010245	 1.961236	 -1.207273	 -0.046712	 -0.299836	 0.691203	 -0.482190	 0.447022	 1
1463570722.153	 11	 0.001707	 -0.002673	 0.009179	 1.961163	 -1.207275	 -0.046770	 -0.299834	 0.691195	 -0.482193	 0.447033	 1
1463570722.163	 11	 -0.000428	 -0.003722	 0.010252	 1.961142	 -1.207282	 -0.046765	 -0.299843	 0.691188	 -0.482191	 0.447040	 1
1463570722.173	 11	 0.001685	 -0.006927	 0.009136	 1.961256	 -1.207276	 -0.046616	 -0.299865	 0.691193	 -0.482173	 0.447038	 1
1463570722.183	 11	 -0.002598	 -0.009049	 0.008087	 1.961325	 -1.207237	 -0.046481	 -0.299887	 0.691197	 -0.482140	 0.447053	 1
1463570722.193	 11	 -0.003667	 -0.010101	 0.009151	 1.961521	 -1.207190	 -0.046197	 -0.299926	 0.691209	 -0.482090	 0.447061	 1
1463570722.203	 11	 -0.005812	 -0.012222	 0.009149	 1.961633	 -1.207150	 -0.045973	 -0.299967	 0.691210	 -0.482043	 0.447083	 1
1463570722.213	 11	 -0.004745	 -0.012225	 0.009138	 1.961646	 -1.207138	 -0.045841	 -0.300007	 0.691196	 -0.482011	 0.447113	 1
1463570722.223	 11	 -0.003683	 -0.013292	 0.009118	 1.961663	 -1.207117	 -0.045701	 -0.300046	 0.691183	 -0.481975	 0.447144	 1
1463570722.233	 11	 -0.002605	 -0.010111	 0.008071	 1.961610	 -1.207099	 -0.045643	 -0.300075	 0.691167	 -0.481948	 0.447179	 1
1463570722.243	 11	 -0.002576	 -0.005841	 0.010242	 1.961557	 -1.207052	 -0.045633	 -0.300080	 0.691164	 -0.481922	 0.447208	 1
1463570722.253	 11	 0.000619	 -0.005839	 0.010409	 1.961522	 -1.207037	 -0.045621	 -0.300089	 0.691158	 -0.481909	 0.447225	 1
1463570722.263	 11	 0.000620	 -0.003727	 0.008296	 1.961525	 -1.206977	 -0.045593	 -0.300084	 0.691168	 -0.481883	 0.447241	 1
1463570722.273	 11	 0.000633	 -0.002648	 0.010437	 1.961625	 -1.206939	 -0.045484	 -0.300089	 0.691183	 -0.481861	 0.447239	 1
1463570722.283	 11	 0.000647	 0.000544	 0.010466	 1.961681	 -1.206860	 -0.045445	 -0.300070	 0.691208	 -0.481834	 0.447242	 1
1463570722.303	 12	 0.000652	 0.002664	 0.009418	 1.961874	 -1.206789	 -0.045320	 -0.300050	 0.691249	 -0.481811	 0.447217	 1
1463570722.313	 12	 0.000657	 0.003727	 0.009427	 1.961805	 -1.206760	 -0.045431	 -0.300022	 0.691257	 -0.481815	 0.447219	 1
1463570722.323	 12	 -0.000396	 0.004809	 0.011577	 1.961770	 -1.206695	 -0.045518	 -0.299985	 0.691277	 -0.481808	 0.447221	 1
1463570722.333	 12	 0.000671	 0.005862	 0.010510	 1.961903	 -1.206685	 -0.045454	 -0.299973	 0.691299	 -0.481810	 0.447192	 1
1463570722.343	 12	 -0.000406	 0.003738	 0.010499	 1.961917	 -1.206691	 -0.045491	 -0.299958	 0.691307	 -0.481822	 0.447178	 1
1463570722.353	 12	 -0.001479	 0.002678	 0.010497	 1.962059	 -1.206683	 -0.045406	 -0.299951	 0.691327	 -0.481822	 0.447150	 1
1463570722.363	 12	 -0.001489	 0.000551	 0.010475	 1.962250	 -1.206703	 -0.045243	 -0.299966	 0.691341	 -0.481821	 0.447120	 1
1463570722.373	 12	 -0.001503	 -0.001584	 0.009388	 1.962261	 -1.206741	 -0.045234	 -0.299976	 0.691333	 -0.481833	 0.447112	 1
1463570722.383	 12	 -0.001525	 -0.005818	 0.010602	 1.962262	 -1.206775	 -0.045200	 -0.299995	 0.691321	 -0.481838	 0.447114	 1
1463570722.393	 12	 -0.001543	 -0.007961	 0.008449	 1.962139	 -1.206818	 -0.045253	 -0.300016	 0.691291	 -0.481846	 0.447137	 1
1463570722.403	 12	 -0.001561	 -0.010104	 0.006296	 1.962061	 -1.206875	 -0.045236	 -0.300054	 0.691258	 -0.481849	 0.447159	 1
1463570722.413	 12	 -0.001555	 -0.007984	 0.005249	 1.962106	 -1.206930	 -0.045115	 -0.300098	 0.691237	 -0.481847	 0.447163	 1
1463570722.433	 13	 0.000620	 0.000519	 0.005308	 1.961971	 -1.206948	 -0.045204	 -0.300104	 0.691216	 -0.481853	 0.447186	 1
1463570722.443	 13	 -0.000423	 0.005841	 0.005366	 1.962142	 -1.206876	 -0.045096	 -0.300083	 0.691255	 -0.481831	 0.447164	 1
1463570722.453	 13	 -0.000408	 0.009032	 0.005395	 1.962267	 -1.206870	 -0.045063	 -0.300063	 0.691280	 -0.481840	 0.447130	 1
1463570722.463	 13	 0.001730	 0.009033	 0.006441	 1.962336	 -1.206853	 -0.045095	 -0.300032	 0.691304	 -0.481851	 0.447101	 1
1463570722.473	 13	 0.002792	 0.007966	 0.006421	 1.962420	 -1.206867	 -0.045112	 -0.300009	 0.691322	 -0.481873	 0.447066	 1
1463570722.483	 13	 0.001719	 0.005850	 0.007476	 1.962515	 -1.206882	 -0.045106	 -0.299992	 0.691338	 -0.481891	 0.447032	 1
1463570722.493	 13	 -0.000449	 0.000523	 0.005312	 1.962623	 -1.206903	 -0.045028	 -0.299998	 0.691346	 -0.481896	 0.447010	 1
1463570722.503	 13	 -0.001528	 -0.003713	 0.007412	 1.962752	 -1.206930	 -0.044894	 -0.300019	 0.691349	 -0.481895	 0.446993	 1
1463570722.513	 13	 -0.000457	 -0.002652	 0.007412	 1.962972	 -1.206919	 -0.044670	 -0.300041	 0.691367	 -0.481874	 0.446973	 1
1463570722.523	 13	 0.000605	 -0.002663	 0.006336	 1.963087	 -1.206910	 -0.044548	 -0.300053	 0.691376	 -0.481861	 0.446964	 1
1463570722.533	 13	 0.002733	 -0.004788	 0.007362	 1.963209	 -1.206887	 -0.044410	 -0.300066	 0.691388	 -0.481841	 0.446959	 1
1463570722.543	 13	 0.004861	 -0.004802	 0.006277	 1.963375	 -1.206845	 -0.044232	 -0.300078	 0.691408	 -0.481812	 0.446951	 1
1463570722.553	 13	 0.003812	 -0.001600	 0.007380	 1.963543	 -1.206852	 -0.044079	 -0.300092	 0.691421	 -0.481805	 0.446929	 1
1463570722.563	 13	 0.005938	 -0.001585	 0.007435	 1.963458	 -1.206819	 -0.044175	 -0.300072	 0.691424	 -0.481803	 0.446941	 1
1463570722.573	 13	 0.003810	 0.001597	 0.005350	 1.963510	 -1.206824	 -0.044149	 -0.300069	 0.691431	 -0.481806	 0.446928	 1
1463570722.583	 13	 0.001671	 0.001596	 0.004303	 1.963597	 -1.206820	 -0.044096	 -0.300066	 0.691443	 -0.481806	 0.446911	 1
1463570722.593	 13	 0.000623	 0.005854	 0.004351	 1.963663	 -1.206793	 -0.044080	 -0.300049	 0.691462	 -0.481803	 0.446897	 1
1463570722.603	 13	 0.001710	 0.009050	 0.005437	 1.963654	 -1.206728	 -0.044181	 -0.300001	 0.691490	 -0.481803	 0.446886	 1
1463570722.613	 13	 0.003875	 0.012265	 0.009712	 1.963736	 -1.206626	 -0.044231	 -0.299940	 0.691539	 -0.481792	 0.446863	 1
1463570722.623	 13	 0.000667	 0.009099	 0.011843	 1.963714	 -1.206444	 -0.044363	 -0.299857	 0.691596	 -0.481756	 0.446869	 1
1463570722.633	 13	 0.000650	 0.004852	 0.012869	 1.963707	 -1.206290	 -0.044442	 -0.299795	 0.691642	 -0.481720	 0.446877	 1
1463570722.643	 13	 -0.002541	 0.006989	 0.012916	 1.963867	 -1.206204	 -0.044364	 -0.299764	 0.691686	 -0.481698	 0.446855	 1
1463570722.653	 13	 -0.003608	 0.006993	 0.012924	 1.963985	 -1.206209	 -0.044322	 -0.299751	 0.691705	 -0.481708	 0.446824	 1
1463570722.663	 13	 -0.003631	 0.004842	 0.009704	 1.964205	 -1.206344	 -0.044168	 -0.299783	 0.691700	 -0.481752	 0.446762	 1
1463570722.673	 13	 -0.001499	 0.006940	 0.006504	 1.964529	 -1.206496	 -0.043927	 -0.299824	 0.691701	 -0.481799	 0.446683	 1
1463570722.683	 13	 -0.003638	 0.006939	 0.005455	 1.964889	 -1.206594	 -0.043652	 -0.299855	 0.691717	 -0.481824	 0.446609	 1
1463570722.693	 13	 -0.005772	 0.006946	 0.005471	 1.965171	 -1.206736	 -0.043443	 -0.299893	 0.691716	 -0.481868	 0.446538	 1
1463570722.703	 13	 -0.007900	 0.009072	 0.004442	 1.965430	 -1.206843	 -0.043257	 -0.299920	 0.691721	 -0.481902	 0.446476	 1
1463570722.713	 13	 -0.009985	 0.020803	 0.004723	 1.965821	 -1.206891	 -0.043032	 -0.299914	 0.691764	 -0.481926	 0.446387	 1
1463570722.723	 13	 -0.007850	 0.021853	 0.003647	 1.966393	 -1.206954	 -0.042679	 -0.299913	 0.691824	 -0.481955	 0.446264	 1
1463570722.733	 13	 -0.005735	 0.019704	 0.001476	 1.966934	 -1.206969	 -0.042346	 -0.299901	 0.691891	 -0.481967	 0.446154	 1
1463570722.743	 13	 -0.004644	 0.028179	 -0.002718	 1.967372	 -1.207009	 -0.042153	 -0.299872	 0.691951	 -0.482003	 0.446043	 1
1463570722.753	 13	 -0.005689	 0.034549	 -0.004783	 1.967915	 -1.207125	 -0.041934	 -0.299844	 0.692012	 -0.482075	 0.445889	 1
1463570722.763	 13	 -0.004630	 0.039802	 -0.013271	 1.968483	 -1.207432	 -0.041731	 -0.299849	 0.692037	 -0.482219	 0.445691	 1
1463570722.773	 13	 0.004965	 0.042918	 -0.019723	 1.969021	 -1.207819	 -0.041602	 -0.299854	 0.692048	 -0.482402	 0.445472	 1
1463570722.783	 13	 0.013453	 0.039639	 -0.028355	 1.969368	 -1.208318	 -0.041659	 -0.299866	 0.692018	 -0.482636	 0.445256	 1
1463570722.793	 13	 0.014506	 0.036445	 -0.028396	 1.969639	 -1.208802	 -0.041772	 -0.299874	 0.691983	 -0.482866	 0.445056	 1
1463570722.803	 13	 0.011229	 0.020500	 -0.028517	 1.969976	 -1.209182	 -0.041700	 -0.299906	 0.691959	 -0.483030	 0.444894	 1
1463570722.813	 13	 0.007951	 0.004554	 -0.028638	 1.970291	 -1.209573	 -0.041459	 -0.300004	 0.691903	 -0.483156	 0.444779	 1
1463570722.823	 13	 0.011137	 0.000298	 -0.027640	 1.970389	 -1.209910	 -0.041375	 -0.300088	 0.691834	 -0.483266	 0.444710	 1
1463570722.833	 13	 0.016426	 -0.011403	 -0.025665	 1.970256	 -1.210350	 -0.041433	 -0.300202	 0.691710	 -0.483409	 0.444670	 1
1463570722.843	 13	 0.029118	 -0.032738	 -0.029173	 1.969536	 -1.210946	 -0.041891	 -0.300356	 0.691481	 -0.483605	 0.444710	 1
1463570722.853	 13	 0.038674	 -0.037076	 -0.036761	 1.968518	 -1.211744	 -0.042574	 -0.300552	 0.691172	 -0.483874	 0.444765	 1
1463570722.863	 13	 0.043910	 -0.049885	 -0.045338	 1.967604	 -1.212632	 -0.043081	 -0.300805	 0.690838	 -0.484150	 0.444812	 1
1463570722.873	 13	 0.044827	 -0.074414	 -0.054104	 1.966650	 -1.213632	 -0.043415	 -0.301153	 0.690444	 -0.484420	 0.444895	 1
1463570722.883	 13	 0.042523	 -0.103188	 -0.062883	 1.965638	 -1.214844	 -0.043520	 -0.301644	 0.689953	 -0.484700	 0.445019	 1
1463570722.893	 13	 0.029714	 -0.114757	 -0.050090	 1.964017	 -1.215561	 -0.044013	 -0.302034	 0.689500	 -0.484808	 0.445339	 1
1463570722.903	 13	 0.019099	 -0.112513	 -0.038253	 1.962856	 -1.215951	 -0.044064	 -0.302388	 0.689159	 -0.484776	 0.445662	 1
1463570722.913	 13	 0.007352	 -0.124093	 -0.026537	 1.961684	 -1.216451	 -0.043995	 -0.302813	 0.688771	 -0.484751	 0.445999	 1
1463570722.923	 13	 -0.002167	 -0.118638	 -0.011484	 1.960554	 -1.216696	 -0.043854	 -0.303193	 0.688440	 -0.484632	 0.446382	 1
1463570722.933	 13	 -0.010408	 -0.045311	 -0.023520	 1.961141	 -1.216882	 -0.042676	 -0.303499	 0.688349	 -0.484520	 0.446434	 1
1463570722.943	 13	 -0.010194	 -0.002741	 -0.019930	 1.962013	 -1.217114	 -0.041680	 -0.303685	 0.688339	 -0.484509	 0.446337	 1
1463570722.953	 13	 -0.006831	 0.021799	 -0.008010	 1.963073	 -1.217309	 -0.040802	 -0.303776	 0.688397	 -0.484540	 0.446152	 1
1463570722.963	 13	 -0.006793	 -0.012931	 0.042824	 1.962829	 -1.216929	 -0.040896	 -0.303714	 0.688445	 -0.484395	 0.446277	 1
1463570722.973	 13	 -0.008928	 0.009228	 0.017472	 1.963833	 -1.216341	 -0.040115	 -0.303603	 0.688687	 -0.484175	 0.446217	 1
1463570722.993	 14	 -0.017747	 -0.006024	 -0.035885	 1.964839	 -1.216882	 -0.038774	 -0.303947	 0.688582	 -0.484211	 0.446106	 1
1463570723.003	 14	 -0.010799	 -0.056557	 -0.107824	 1.965680	 -1.217981	 -0.037468	 -0.304448	 0.688314	 -0.484419	 0.445952	 1
1463570723.013	 14	 0.010456	 -0.069438	 -0.115601	 1.966310	 -1.220151	 -0.036071	 -0.305278	 0.687734	 -0.484938	 0.445715	 1
1463570723.023	 14	 0.014192	 0.026429	 -0.094487	 1.967083	 -1.220630	 -0.035240	 -0.305488	 0.687667	 -0.485033	 0.445572	 1
1463570723.033	 14	 -0.006679	 0.108590	 -0.072176	 1.968833	 -1.221310	 -0.034396	 -0.305510	 0.687768	 -0.485342	 0.445063	 1
1463570723.043	 14	 -0.014116	 0.097075	 -0.049837	 1.970873	 -1.221793	 -0.033320	 -0.305497	 0.687944	 -0.485578	 0.444543	 1
1463570723.053	 14	 0.000775	 0.076905	 -0.038431	 1.972168	 -1.222128	 -0.032794	 -0.305440	 0.688073	 -0.485772	 0.444171	 1
1463570723.063	 14	 0.016741	 0.072564	 -0.043939	 1.972908	 -1.222581	 -0.032764	 -0.305375	 0.688126	 -0.486033	 0.443849	 1
1463570723.083	 15	 0.026245	 0.064973	 -0.060079	 1.974211	 -1.223729	 -0.032801	 -0.305309	 0.688149	 -0.486629	 0.443204	 1
1463570723.093	 15	 0.027407	 0.082012	 -0.056734	 1.974826	 -1.224446	 -0.032960	 -0.305269	 0.688141	 -0.487001	 0.442836	 1
1463570723.103	 15	 0.033920	 0.092737	 -0.041770	 1.975391	 -1.224993	 -0.033322	 -0.305132	 0.688192	 -0.487352	 0.442463	 1
1463570723.113	 15	 0.032944	 0.096070	 -0.022547	 1.975772	 -1.225374	 -0.033932	 -0.304917	 0.688279	 -0.487674	 0.442121	 1
1463570723.123	 15	 0.017900	 0.065346	 -0.012045	 1.976121	 -1.225593	 -0.034385	 -0.304726	 0.688374	 -0.487902	 0.441855	 1
1463570723.133	 15	 0.002588	 -0.017537	 -0.007353	 1.975789	 -1.225705	 -0.034671	 -0.304734	 0.688317	 -0.487952	 0.441881	 1
1463570723.143	 15	 -0.005845	 -0.003614	 0.002441	 1.975815	 -1.225675	 -0.034520	 -0.304773	 0.688307	 -0.487913	 0.441914	 1
1463570723.153	 15	 0.009099	 -0.019467	 0.022413	 1.975302	 -1.225508	 -0.034852	 -0.304745	 0.688284	 -0.487851	 0.442037	 1
1463570723.163	 15	 0.008125	 0.018666	 0.000395	 1.975161	 -1.225511	 -0.035178	 -0.304668	 0.688302	 -0.487903	 0.442005	 1
1463570723.173	 15	 -0.009865	 0.049583	 0.002968	 1.977122	 -1.225618	 -0.033697	 -0.304724	 0.688484	 -0.487911	 0.441674	 1
1463570723.183	 15	 -0.030920	 0.119764	 -0.007919	 1.978824	 -1.225542	 -0.032968	 -0.304542	 0.688767	 -0.487983	 0.441278	 1
1463570723.193	 15	 -0.052213	 0.154761	 -0.036151	 1.981823	 -1.225619	 -0.031359	 -0.304383	 0.689165	 -0.488111	 0.440625	 1
1463570723.203	 15	 -0.031935	 0.124124	 0.000689	 1.984210	 -1.225512	 -0.030140	 -0.304196	 0.689530	 -0.488170	 0.440117	 1
1463570723.213	 15	 -0.020623	 0.323517	 -0.073233	 1.991629	 -1.226514	 -0.025654	 -0.304158	 0.690239	 -0.488654	 0.438492	 1
1463570723.223	 15	 -0.086065	 0.313590	 -0.148425	 1.998194	 -1.227433	 -0.022146	 -0.303971	 0.690923	 -0.489198	 0.436935	 1
1463570723.233	 15	 -0.098265	 0.244248	 -0.182003	 2.005388	 -1.228600	 -0.017283	 -0.304151	 0.691472	 -0.489631	 0.435454	 1
1463570723.243	 15	 -0.069775	 0.195071	 -0.205090	 2.011831	 -1.230080	 -0.012634	 -0.304508	 0.691807	 -0.490109	 0.434132	 1
1463570723.253	 15	 -0.031563	 0.168216	 -0.225925	 2.016676	 -1.232340	 -0.009267	 -0.304980	 0.691796	 -0.490895	 0.432928	 1
1463570723.263	 15	 0.003460	 0.143508	 -0.245644	 2.021304	 -1.234494	 -0.005951	 -0.305460	 0.691765	 -0.491628	 0.431808	 1
1463570723.273	 15	 0.033254	 0.126392	 -0.247128	 2.025046	 -1.236845	 -0.003367	 -0.305943	 0.691601	 -0.492454	 0.430786	 1
1463570723.283	 15	 0.051410	 0.107384	 -0.220819	 2.027835	 -1.239108	 -0.001597	 -0.306356	 0.691373	 -0.493281	 0.429910	 1
1463570723.293	 15	 0.058952	 0.096950	 -0.190074	 2.030386	 -1.241023	 0.000000	 -0.306690	 0.691204	 -0.493991	 0.429128	 1
1463570723.303	 15	 0.070765	 0.089670	 -0.162535	 2.031695	 -1.242840	 0.000419	 -0.306901	 0.690971	 -0.494730	 0.428501	 1
1463570723.313	 15	 0.069654	 0.059012	 -0.137232	 2.032396	 -1.244440	 0.000436	 -0.307076	 0.690723	 -0.495387	 0.428018	 1
1463570723.323	 15	 0.076732	 -0.036625	 -0.122198	 2.032001	 -1.245895	 0.000109	 -0.307372	 0.690328	 -0.495898	 0.427849	 1
1463570723.333	 15	 0.097957	 -0.076978	 -0.104636	 2.028890	 -1.247117	 -0.002248	 -0.307592	 0.689721	 -0.496345	 0.428150	 1
1463570723.343	 15	 0.104439	 -0.089479	 -0.069602	 2.026309	 -1.248292	 -0.004092	 -0.307850	 0.689162	 -0.496748	 0.428400	 1
1463570723.353	 15	 0.089485	 -0.135857	 -0.017681	 2.022970	 -1.248983	 -0.006302	 -0.308067	 0.688615	 -0.496945	 0.428893	 1
1463570723.363	 15	 0.071491	 -0.172444	 0.063134	 2.018727	 -1.248931	 -0.009040	 -0.308168	 0.688139	 -0.496861	 0.429681	 1
1463570723.373	 15	 0.054628	 -0.180438	 0.127153	 2.015090	 -1.247871	 -0.011101	 -0.308131	 0.687936	 -0.496381	 0.430588	 1
1463570723.383	 15	 0.034582	 -0.175744	 0.179593	 2.010162	 -1.246534	 -0.014439	 -0.307913	 0.687715	 -0.495884	 0.431666	 1
1463570723.393	 15	 0.035934	 -0.163630	 0.237245	 2.004788	 -1.244660	 -0.018360	 -0.307484	 0.687615	 -0.495266	 0.432841	 1
1463570723.403	 15	 0.055362	 -0.171726	 0.302012	 1.998282	 -1.242282	 -0.023450	 -0.306816	 0.687564	 -0.494560	 0.434201	 1
1463570723.413	 15	 0.093927	 -0.206370	 0.380221	 1.989802	 -1.239328	 -0.030355	 -0.305876	 0.687489	 -0.493760	 0.435889	 1
1463570723.423	 15	 0.145040	 -0.277372	 0.436666	 1.978779	 -1.235972	 -0.039276	 -0.304767	 0.687245	 -0.492891	 0.438030	 1
1463570723.433	 15	 0.191790	 -0.349588	 0.470757	 1.965582	 -1.232406	 -0.049763	 -0.303593	 0.686783	 -0.491988	 0.440577	 1
1463570723.443	 15	 0.188621	 -0.357956	 0.488825	 1.951867	 -1.228648	 -0.060538	 -0.302385	 0.686261	 -0.491035	 0.443277	 1
1463570723.453	 15	 0.160017	 -0.346947	 0.528609	 1.938831	 -1.224450	 -0.070706	 -0.301095	 0.685863	 -0.489933	 0.445981	 1
1463570723.463	 15	 0.144354	 -0.335730	 0.602388	 1.925925	 -1.219558	 -0.080814	 -0.299605	 0.685605	 -0.488639	 0.448793	 1
1463570723.473	 15	 0.127952	 -0.313371	 0.745551	 1.912839	 -1.213316	 -0.091366	 -0.297648	 0.685630	 -0.487009	 0.451818	 1
1463570723.483	 15	 0.117065	 -0.233759	 0.865752	 1.899955	 -1.205829	 -0.102365	 -0.295142	 0.685987	 -0.485145	 0.454915	 1
1463570723.493	 15	 0.113844	 -0.115855	 0.989440	 1.887888	 -1.197075	 -0.113769	 -0.291935	 0.686798	 -0.483128	 0.457897	 1
1463570723.503	 15	 0.163627	 -0.046200	 1.081310	 1.875613	 -1.187483	 -0.126361	 -0.288103	 0.687836	 -0.481134	 0.460856	 1
1463570723.513	 15	 0.196423	 0.006835	 1.216907	 1.862555	 -1.176800	 -0.140369	 -0.283626	 0.689032	 -0.479065	 0.463991	 1
1463570723.523	 15	 0.176195	 0.113314	 1.371544	 1.850333	 -1.164495	 -0.154549	 -0.278390	 0.690667	 -0.476704	 0.467152	 1
1463570723.533	 15	 0.140993	 0.241920	 1.491346	 1.840115	 -1.150820	 -0.167983	 -0.272488	 0.692817	 -0.474079	 0.470112	 1
1463570723.543	 15	 0.121843	 0.420123	 1.563512	 1.832214	 -1.136191	 -0.180758	 -0.265926	 0.695481	 -0.471367	 0.472654	 1
1463570723.553	 15	 0.034125	 0.614908	 1.547970	 1.828220	 -1.121306	 -0.191507	 -0.259007	 0.698731	 -0.468651	 0.474401	 1
1463570723.563	 15	 -0.026446	 0.514492	 1.463368	 1.826433	 -1.106878	 -0.199716	 -0.252533	 0.701997	 -0.465775	 0.475901	 1
1463570723.573	 15	 0.002547	 0.131240	 1.426510	 1.822057	 -1.093017	 -0.207382	 -0.246964	 0.704392	 -0.462635	 0.478340	 1
1463570723.583	 15	 0.122880	 -0.283651	 1.317157	 1.812335	 -1.080126	 -0.216274	 -0.242420	 0.705400	 -0.459470	 0.482214	 1
1463570723.593	 15	 0.267388	 -0.553938	 1.211071	 1.797886	 -1.068696	 -0.227095	 -0.238637	 0.705145	 -0.456724	 0.487058	 1
1463570723.603	 15	 0.268110	 -0.638926	 1.225194	 1.782006	 -1.057469	 -0.238101	 -0.235109	 0.704414	 -0.453995	 0.492354	 1
1463570723.613	 15	 0.194903	 -0.627390	 1.319726	 1.767378	 -1.045221	 -0.247568	 -0.231476	 0.703858	 -0.450790	 0.497787	 1
1463570723.623	 15	 -0.024691	 -0.145801	 1.346369	 1.759090	 -1.032106	 -0.253625	 -0.227298	 0.704521	 -0.447253	 0.501947	 1
1463570723.633	 15	 -0.168958	 0.351467	 1.512117	 1.759253	 -1.017434	 -0.256148	 -0.221977	 0.707075	 -0.443311	 0.504228	 1
1463570723.643	 15	 -0.118943	 0.670232	 1.635078	 1.762840	 -1.001349	 -0.259223	 -0.215265	 0.710715	 -0.439414	 0.505431	 1
1463570723.653	 15	 0.045943	 0.591819	 1.595611	 1.764241	 -0.985505	 -0.264954	 -0.208146	 0.713986	 -0.435997	 0.506760	 1
1463570723.663	 15	 0.164980	 0.349279	 1.492136	 1.762156	 -0.970857	 -0.272599	 -0.201435	 0.716320	 -0.433072	 0.508682	 1
1463570723.673	 15	 0.250239	 -0.058923	 1.410861	 1.755575	 -0.957302	 -0.281216	 -0.195641	 0.717366	 -0.430312	 0.511803	 1
1463570723.683	 15	 0.208748	 -0.674934	 1.369254	 1.744031	 -0.944011	 -0.289520	 -0.191056	 0.716972	 -0.427119	 0.516738	 1
1463570723.693	 15	 0.192702	 -1.531575	 1.302805	 1.725162	 -0.931406	 -0.296194	 -0.188764	 0.714312	 -0.423092	 0.524519	 1
1463570723.703	 15	 0.257686	 -1.616330	 1.374988	 1.703256	 -0.918351	 -0.303342	 -0.186717	 0.710795	 -0.418844	 0.533364	 1
1463570723.713	 15	 0.348339	 -1.490329	 1.479816	 1.681578	 -0.904358	 -0.311439	 -0.183896	 0.707357	 -0.414676	 0.542099	 1
1463570723.723	 15	 0.541505	 -1.147458	 1.611348	 1.661051	 -0.889106	 -0.321675	 -0.179582	 0.704377	 -0.410922	 0.550224	 1
1463570723.733	 15	 0.897577	 -0.645624	 1.729085	 1.642005	 -0.872825	 -0.336417	 -0.172956	 0.702103	 -0.408370	 0.557110	 1
1463570723.743	 15	 1.249976	 -0.444994	 1.817408	 1.622459	 -0.855576	 -0.355998	 -0.164339	 0.699947	 -0.407013	 0.563390	 1
1463570723.763	 16	 1.607962	 -0.713715	 1.720135	 1.575496	 -0.821105	 -0.402609	 -0.145928	 0.693041	 -0.406498	 0.577198	 1
1463570723.773	 16	 1.739595	 -0.817650	 1.667931	 1.549900	 -0.804151	 -0.427199	 -0.136744	 0.688515	 -0.406955	 0.584496	 1
1463570723.783	 16	 1.706813	 -1.128797	 1.575797	 1.522230	 -0.787518	 -0.451263	 -0.128257	 0.682951	 -0.407509	 0.592507	 1
1463570723.793	 16	 1.242832	 -1.401888	 1.423826	 1.496184	 -0.772079	 -0.469369	 -0.121881	 0.677083	 -0.407008	 0.600873	 1
1463570723.803	 16	 0.754519	 -1.681903	 1.333816	 1.472916	 -0.757905	 -0.479675	 -0.118000	 0.671259	 -0.404869	 0.609564	 1
1463570723.813	 16	 0.560846	 -1.977359	 1.286925	 1.449748	 -0.744336	 -0.485751	 -0.115681	 0.664988	 -0.401735	 0.618884	 1
1463570723.823	 16	 0.570090	 -2.169785	 1.156097	 1.424825	 -0.731724	 -0.491157	 -0.114222	 0.657908	 -0.398645	 0.628643	 1
1463570723.833	 16	 0.613821	 -2.225672	 0.947373	 1.398730	 -0.720883	 -0.497008	 -0.113449	 0.650244	 -0.396184	 0.638240	 1
1463570723.843	 16	 0.636576	 -2.183816	 0.715228	 1.372576	 -0.712097	 -0.503375	 -0.113251	 0.642370	 -0.394495	 0.647232	 1
1463570723.853	 16	 0.603873	 -2.143844	 0.494206	 1.346879	 -0.705484	 -0.509799	 -0.113747	 0.634459	 -0.393465	 0.655521	 1
1463570723.863	 16	 0.515036	 -2.124026	 0.404574	 1.321973	 -0.700175	 -0.515411	 -0.114835	 0.626618	 -0.392583	 0.663356	 1
1463570723.873	 16	 0.354774	 -2.052360	 0.541988	 1.299087	 -0.694262	 -0.518758	 -0.115988	 0.619208	 -0.390946	 0.671036	 1
1463570723.883	 16	 0.082159	 -2.024147	 0.655463	 1.278988	 -0.687840	 -0.518481	 -0.117486	 0.612423	 -0.388148	 0.678584	 1
1463570723.893	 16	 -0.234177	 -1.987309	 0.767268	 1.262013	 -0.681244	 -0.513693	 -0.119636	 0.606345	 -0.383953	 0.686012	 1
1463570723.903	 16	 -0.507645	 -1.895435	 0.858962	 1.248250	 -0.674652	 -0.504999	 -0.122287	 0.601063	 -0.378581	 0.693142	 1
1463570723.913	 16	 -0.806464	 -1.729198	 0.928123	 1.238259	 -0.668371	 -0.492425	 -0.125443	 0.596794	 -0.372117	 0.699736	 1
1463570723.923	 16	 -1.115269	 -1.394022	 0.969100	 1.233565	 -0.662708	 -0.475942	 -0.128969	 0.594094	 -0.364704	 0.705273	 1
1463570723.933	 16	 -1.381200	 -0.963639	 0.947770	 1.234960	 -0.658027	 -0.456179	 -0.132726	 0.593305	 -0.356703	 0.709321	 1
1463570723.943	 16	 -1.561082	 -0.576485	 0.875138	 1.241640	 -0.654540	 -0.434345	 -0.136647	 0.594229	 -0.348562	 0.711845	 1
1463570723.953	 16	 -1.644645	 -0.357666	 0.802232	 1.251429	 -0.651973	 -0.411595	 -0.140716	 0.596167	 -0.340511	 0.713327	 1
1463570723.963	 16	 -1.541653	 -0.224113	 0.780197	 1.262171	 -0.649404	 -0.389647	 -0.144449	 0.598477	 -0.332809	 0.714281	 1
1463570723.973	 16	 -1.316191	 -0.186287	 0.807362	 1.272037	 -0.645943	 -0.370230	 -0.147286	 0.600657	 -0.325719	 0.715140	 1
1463570723.993	 17	 -0.715494	 -0.339225	 1.227013	 1.284650	 -0.631530	 -0.340211	 -0.148666	 0.603315	 -0.312196	 0.718639	 1
1463570724.003	 17	 -0.467129	 -0.429218	 1.530953	 1.287169	 -0.619030	 -0.328965	 -0.146787	 0.603736	 -0.305073	 0.721725	 1
1463570724.013	 17	 -0.307534	 -0.540396	 1.810956	 1.287784	 -0.603259	 -0.319020	 -0.143530	 0.603672	 -0.297370	 0.725638	 1
1463570724.023	 17	 -0.229864	 -0.806781	 2.068913	 1.285883	 -0.584685	 -0.309367	 -0.139447	 0.602796	 -0.288800	 0.730607	 1
1463570724.033	 17	 -0.153806	 -1.116328	 2.241221	 1.280578	 -0.564042	 -0.299966	 -0.134926	 0.600731	 -0.279487	 0.736753	 1
1463570724.043	 17	 -0.122601	 -1.364642	 2.332425	 1.272406	 -0.542271	 -0.290652	 -0.130259	 0.597603	 -0.269678	 0.743759	 1
1463570724.053	 17	 -0.134072	 -1.571685	 2.377492	 1.262085	 -0.520061	 -0.281013	 -0.125702	 0.593606	 -0.259469	 0.751336	 1
1463570724.063	 17	 -0.165667	 -1.731998	 2.405051	 1.250082	 -0.497748	 -0.270800	 -0.121365	 0.588875	 -0.248899	 0.759306	 1
1463570724.073	 17	 -0.182687	 -1.739230	 2.427513	 1.237619	 -0.475388	 -0.260071	 -0.117079	 0.583867	 -0.238085	 0.767272	 1
1463570724.083	 17	 -0.178756	 -1.612432	 2.460631	 1.226052	 -0.452893	 -0.249052	 -0.112576	 0.579124	 -0.227169	 0.774814	 1
1463570724.093	 17	 -0.128281	 -1.392838	 2.548562	 1.216273	 -0.429700	 -0.237973	 -0.107478	 0.575027	 -0.216132	 0.781715	 1
1463570724.103	 17	 0.035488	 -1.169042	 2.674978	 1.208214	 -0.405019	 -0.227674	 -0.101255	 0.571621	 -0.205083	 0.787996	 1
1463570724.113	 17	 0.343916	 -1.066746	 2.825649	 1.200639	 -0.378079	 -0.219464	 -0.093365	 0.568486	 -0.194271	 0.793955	 1
1463570724.123	 17	 0.790065	 -1.376717	 2.942508	 1.189454	 -0.348480	 -0.214730	 -0.083637	 0.564009	 -0.183987	 0.800654	 1
1463570724.133	 17	 1.244032	 -1.815609	 3.031456	 1.172765	 -0.316348	 -0.213738	 -0.072167	 0.557321	 -0.174402	 0.808560	 1
1463570724.143	 17	 1.581803	 -2.217026	 3.107909	 1.151081	 -0.281985	 -0.215366	 -0.059287	 0.548436	 -0.165309	 0.817543	 1
1463570724.153	 17	 1.701012	 -2.518304	 3.117923	 1.125983	 -0.246614	 -0.217702	 -0.045856	 0.537831	 -0.156428	 0.827143	 1
1463570724.163	 17	 1.573941	 -2.738291	 3.091404	 1.098873	 -0.211673	 -0.218531	 -0.032927	 0.526012	 -0.147315	 0.836974	 1
1463570724.173	 17	 1.276831	 -2.789885	 3.043420	 1.071408	 -0.178310	 -0.216268	 -0.021246	 0.513713	 -0.137619	 0.846587	 1
1463570724.183	 17	 0.830867	 -2.517543	 3.017864	 1.046440	 -0.147335	 -0.209622	 -0.011271	 0.502252	 -0.126951	 0.855277	 1
1463570724.193	 17	 0.489473	 -2.239202	 2.981862	 1.024934	 -0.118765	 -0.199069	 -0.002829	 0.492182	 -0.115408	 0.862804	 1
1463570724.203	 17	 0.479279	 -2.315110	 2.923693	 1.003405	 -0.091368	 -0.187413	 0.005088	 0.482056	 -0.103819	 0.869953	 1
1463570724.213	 17	 0.651801	 -2.578666	 2.877108	 0.979138	 -0.063909	 -0.176641	 0.013371	 0.470660	 -0.092770	 0.877322	 1
1463570724.223	 17	 0.807792	 -2.758934	 2.868743	 0.952383	 -0.035921	 -0.166670	 0.022244	 0.458062	 -0.082170	 0.884835	 1
1463570724.233	 17	 0.939046	 -2.763551	 2.871821	 0.924900	 -0.007416	 -0.156997	 0.031677	 0.445025	 -0.071830	 0.892070	 1
1463570724.243	 17	 1.138689	 -2.723914	 2.844873	 0.897505	 0.021791	 -0.148053	 0.041874	 0.431902	 -0.061918	 0.898818	 1
1463570724.253	 17	 1.382828	 -2.678671	 2.729132	 0.870331	 0.051539	 -0.140741	 0.052938	 0.418734	 -0.052903	 0.905019	 1
1463570724.263	 17	 1.601367	 -2.584825	 2.558646	 0.843860	 0.081361	 -0.135414	 0.064701	 0.405735	 -0.045054	 0.910584	 1
1463570724.273	 17	 1.758258	 -2.442897	 2.393408	 0.818725	 0.110940	 -0.131711	 0.076904	 0.393204	 -0.038259	 0.915430	 1
1463570724.283	 17	 1.891562	 -2.339059	 2.246138	 0.794812	 0.140275	 -0.129328	 0.089431	 0.381094	 -0.032370	 0.919631	 1
1463570724.293	 17	 1.989654	 -2.246708	 2.113989	 0.771894	 0.169363	 -0.128007	 0.102189	 0.369308	 -0.027269	 0.923269	 1
1463570724.303	 17	 1.999476	 -2.093440	 1.986372	 0.750383	 0.197784	 -0.127202	 0.114854	 0.358084	 -0.022741	 0.926319	 1
1463570724.313	 17	 1.945435	 -1.925974	 1.883956	 0.730569	 0.225117	 -0.126342	 0.127109	 0.347624	 -0.018548	 0.928793	 1
1463570724.323	 17	 1.885861	 -1.837936	 1.826677	 0.711684	 0.251515	 -0.125042	 0.138934	 0.337607	 -0.014493	 0.930864	 1
1463570724.333	 17	 1.831755	 -1.739130	 1.789700	 0.693553	 0.277223	 -0.123178	 0.150415	 0.327972	 -0.010461	 0.932577	 1
1463570724.343	 17	 1.750194	 -1.581716	 1.756705	 0.676561	 0.302104	 -0.120624	 0.161467	 0.318934	 -0.006364	 0.933900	 1
1463570724.353	 17	 1.677977	 -1.498618	 1.746384	 0.660451	 0.326213	 -0.117240	 0.172092	 0.310403	 -0.002122	 0.934896	 1
1463570724.363	 17	 1.643425	 -1.594153	 1.758585	 0.643486	 0.349978	 -0.113078	 0.182496	 0.301561	 0.002175	 0.935816	 1
1463570724.373	 17	 1.621137	 -1.796155	 1.761162	 0.624341	 0.373532	 -0.108194	 0.192767	 0.291788	 0.006382	 0.936835	 1
1463570724.383	 17	 1.565472	 -2.002815	 1.694712	 0.602795	 0.396356	 -0.102896	 0.202727	 0.280991	 0.010222	 0.937999	 1
1463570724.393	 17	 1.459766	 -2.125811	 1.558070	 0.579696	 0.417605	 -0.097507	 0.212032	 0.269586	 0.013487	 0.939246	 1
1463570724.403	 17	 1.345399	 -2.261663	 1.405398	 0.555268	 0.436936	 -0.092261	 0.220552	 0.257670	 0.016045	 0.940588	 1
1463570724.413	 17	 1.230136	 -2.389818	 1.286909	 0.529401	 0.454496	 -0.086992	 0.228328	 0.245198	 0.017998	 0.942030	 1
1463570724.423	 17	 1.117354	 -2.463571	 1.191286	 0.502462	 0.470445	 -0.081496	 0.235404	 0.232354	 0.019518	 0.943512	 1
1463570724.433	 17	 1.033606	 -2.482176	 1.085266	 0.475136	 0.484965	 -0.075990	 0.241879	 0.219425	 0.020629	 0.944945	 1
1463570724.443	 17	 0.984061	 -2.467040	 0.952618	 0.448031	 0.498277	 -0.070985	 0.247896	 0.206621	 0.021210	 0.946259	 1
1463570724.453	 17	 0.919907	 -2.397480	 0.838722	 0.421759	 0.510435	 -0.066606	 0.253470	 0.194208	 0.021310	 0.947408	 1
1463570724.463	 17	 0.768877	 -2.334955	 0.892841	 0.395411	 0.521274	 -0.060987	 0.258345	 0.181994	 0.021708	 0.948507	 1
1463570724.473	 17	 0.658698	 -2.168668	 0.898545	 0.369911	 0.531003	 -0.054266	 0.262637	 0.170396	 0.022504	 0.949463	 1
1463570724.483	 17	 0.570872	 -1.930844	 0.804538	 0.346578	 0.539465	 -0.047597	 0.266363	 0.159896	 0.023341	 0.950231	 1
1463570724.493	 17	 0.516810	 -1.717018	 0.641805	 0.326077	 0.546702	 -0.042085	 0.269609	 0.150651	 0.023819	 0.950814	 1
1463570724.503	 17	 0.500923	 -1.592322	 0.523739	 0.307681	 0.553187	 -0.037822	 0.272594	 0.142281	 0.023861	 0.951251	 1
1463570724.513	 17	 0.504069	 -1.570288	 0.483417	 0.289965	 0.559430	 -0.034033	 0.275508	 0.134192	 0.023699	 0.951591	 1
1463570724.523	 17	 0.540249	 -1.575854	 0.463867	 0.272327	 0.565825	 -0.030462	 0.278523	 0.126119	 0.023399	 0.951825	 1
1463570724.533	 17	 0.598909	 -1.556052	 0.431567	 0.254935	 0.572608	 -0.027203	 0.281750	 0.118127	 0.022955	 0.951912	 1
1463570724.543	 17	 0.663013	 -1.484401	 0.364533	 0.238493	 0.579823	 -0.024652	 0.285221	 0.110493	 0.022278	 0.951811	 1
1463570724.553	 17	 0.711288	 -1.338562	 0.254630	 0.223931	 0.587288	 -0.023259	 0.288854	 0.103597	 0.021276	 0.951514	 1
1463570724.563	 17	 0.743720	 -1.157582	 0.144127	 0.211853	 0.594843	 -0.023170	 0.292565	 0.097704	 0.019968	 0.951032	 1
1463570724.573	 17	 0.775211	 -0.933135	 0.013787	 0.202683	 0.602453	 -0.024513	 0.296331	 0.092988	 0.018369	 0.950370	 1
1463570724.583	 17	 0.812025	 -0.703456	 -0.126143	 0.196816	 0.610131	 -0.027524	 0.300164	 0.089591	 0.016444	 0.949529	 1
1463570724.593	 17	 0.856379	 -0.486323	 -0.233216	 0.194063	 0.618016	 -0.032093	 0.304125	 0.087422	 0.014244	 0.948505	 1
1463570724.613	 18	 0.832464	 -0.431330	 -0.139775	 0.190757	 0.634041	 -0.040729	 0.312098	 0.084150	 0.010422	 0.946258	 1
1463570724.623	 18	 0.774747	 -0.474560	 -0.110899	 0.188040	 0.641581	 -0.043974	 0.315807	 0.082169	 0.008824	 0.945218	 1
1463570724.633	 18	 0.713805	 -0.525202	 -0.078867	 0.184619	 0.648575	 -0.046765	 0.319233	 0.079932	 0.007296	 0.944271	 1
1463570724.643	 18	 0.648615	 -0.577905	 -0.039357	 0.180186	 0.655029	 -0.048869	 0.322372	 0.077336	 0.005895	 0.943430	 1
1463570724.653	 18	 0.587022	 -0.495979	 -0.060439	 0.176147	 0.660859	 -0.050861	 0.325203	 0.074957	 0.004571	 0.942658	 1
1463570724.663	 18	 0.544042	 -0.284603	 -0.116715	 0.174249	 0.666120	 -0.053355	 0.327774	 0.073516	 0.003325	 0.941886	 1
1463570724.673	 18	 0.549487	 0.015938	 -0.177911	 0.175650	 0.671210	 -0.056625	 0.330284	 0.073498	 0.002249	 0.941013	 1
1463570724.683	 18	 0.557220	 0.267191	 -0.141536	 0.179804	 0.676410	 -0.059880	 0.332842	 0.074764	 0.001650	 0.940013	 1
1463570724.693	 18	 0.521973	 0.376736	 -0.010187	 0.184539	 0.681579	 -0.061699	 0.335330	 0.076533	 0.001834	 0.938985	 1
1463570724.703	 18	 0.442130	 0.308780	 0.119899	 0.187894	 0.686315	 -0.061675	 0.337543	 0.077970	 0.002641	 0.938072	 1
1463570724.713	 18	 0.315537	 0.095985	 0.205347	 0.188475	 0.690100	 -0.060152	 0.339253	 0.078385	 0.003640	 0.937416	 1
1463570724.723	 18	 0.171570	 -0.152098	 0.257581	 0.185872	 0.692593	 -0.057508	 0.340322	 0.077541	 0.004559	 0.937095	 1
1463570724.733	 18	 0.069310	 -0.346369	 0.267321	 0.180798	 0.693975	 -0.054297	 0.340857	 0.075671	 0.005265	 0.937050	 1
1463570724.743	 18	 0.047300	 -0.446637	 0.218620	 0.174686	 0.694856	 -0.051406	 0.341179	 0.073276	 0.005618	 0.937121	 1
1463570724.753	 18	 0.113056	 -0.470769	 0.144285	 0.168777	 0.696040	 -0.049511	 0.341681	 0.070799	 0.005551	 0.937129	 1
1463570724.763	 18	 0.228430	 -0.385474	 0.072668	 0.164168	 0.698143	 -0.048770	 0.342651	 0.068713	 0.005200	 0.936932	 1
1463570724.773	 18	 0.345406	 -0.207474	 0.025347	 0.161751	 0.701341	 -0.049004	 0.344161	 0.067460	 0.004811	 0.936472	 1
1463570724.793	 19	 0.389823	 0.113996	 0.079108	 0.162269	 0.709345	 -0.049362	 0.347911	 0.067436	 0.005071	 0.935085	 1
1463570724.803	 19	 0.322815	 0.152559	 0.089642	 0.163489	 0.712863	 -0.048936	 0.349535	 0.067990	 0.005632	 0.934436	 1
1463570724.813	 19	 0.241488	 0.109160	 0.085683	 0.164350	 0.715580	 -0.048382	 0.350781	 0.068420	 0.006157	 0.933934	 1
1463570724.823	 19	 0.182404	 0.034810	 0.075914	 0.164505	 0.717624	 -0.047782	 0.351713	 0.068545	 0.006552	 0.933572	 1
1463570724.833	 19	 0.173376	 -0.056740	 0.061286	 0.163846	 0.719427	 -0.047293	 0.352538	 0.068277	 0.006740	 0.933279	 1
1463570724.843	 19	 0.215543	 -0.145330	 0.035582	 0.162535	 0.721497	 -0.047177	 0.353503	 0.067634	 0.006651	 0.932961	 1
1463570724.853	 19	 0.270688	 -0.197794	 0.010101	 0.160889	 0.724063	 -0.047516	 0.354715	 0.066741	 0.006308	 0.932568	 1
1463570724.863	 19	 0.322970	 -0.184254	 -0.008346	 0.159448	 0.727123	 -0.048232	 0.356168	 0.065865	 0.005846	 0.932080	 1
1463570724.873	 19	 0.351005	 -0.105780	 -0.029175	 0.158878	 0.730500	 -0.049299	 0.357775	 0.065322	 0.005387	 0.931505	 1
1463570724.883	 19	 0.333375	 -0.008840	 -0.015331	 0.159114	 0.733838	 -0.050238	 0.359357	 0.065178	 0.005131	 0.930907	 1
1463570724.893	 19	 0.289230	 0.173890	 -0.062271	 0.161281	 0.736735	 -0.051574	 0.360741	 0.065870	 0.005021	 0.930323	 1
1463570724.913	 20	 0.203008	 0.449588	 -0.066399	 0.170291	 0.743633	 -0.054491	 0.364016	 0.069341	 0.005596	 0.928791	 1
1463570724.923	 20	 0.184260	 0.528601	 -0.040978	 0.176150	 0.745397	 -0.055560	 0.364854	 0.071816	 0.006248	 0.928270	 1
1463570724.933	 20	 0.181013	 0.510608	 -0.030464	 0.182844	 0.746604	 -0.057041	 0.365446	 0.074616	 0.006839	 0.927812	 1
1463570724.943	 20	 0.189022	 0.398916	 -0.029457	 0.189374	 0.746324	 -0.059011	 0.365368	 0.077294	 0.007105	 0.927621	 1
1463570724.953	 20	 0.196733	 0.218129	 -0.022680	 0.192602	 0.748185	 -0.059840	 0.366249	 0.078581	 0.007403	 0.927163	 1
1463570724.973	 21	 0.199525	 -0.118834	 0.006133	 0.193228	 0.752135	 -0.061018	 0.368120	 0.078530	 0.007171	 0.926428	 1
1463570724.983	 21	 0.165102	 -0.188813	 0.021759	 0.193334	 0.752966	 -0.062412	 0.368558	 0.078296	 0.006587	 0.926278	 1
1463570724.993	 21	 0.105413	 -0.195887	 0.048857	 0.191206	 0.754231	 -0.062174	 0.369140	 0.077314	 0.006369	 0.926131	 1
1463570725.003	 21	 0.056649	 -0.150865	 0.077410	 0.189036	 0.755029	 -0.061403	 0.369486	 0.076426	 0.006365	 0.926066	 1
1463570725.013	 21	 0.026162	 -0.070851	 0.098670	 0.187300	 0.755522	 -0.060223	 0.369675	 0.075824	 0.006614	 0.926039	 1
1463570725.023	 21	 0.008537	 0.032416	 0.105123	 0.185643	 0.757373	 -0.058301	 0.370463	 0.075356	 0.007288	 0.925757	 1
1463570725.033	 21	 0.017193	 0.072678	 0.087305	 0.185490	 0.757672	 -0.057074	 0.370555	 0.075503	 0.007842	 0.925703	 1
1463570725.043	 21	 0.037571	 0.111819	 0.066176	 0.185852	 0.758121	 -0.056182	 0.370727	 0.075822	 0.008343	 0.925604	 1
1463570725.053	 21	 0.060064	 0.148810	 0.042878	 0.186923	 0.758742	 -0.055668	 0.370990	 0.076395	 0.008810	 0.925447	 1
1463570725.063	 21	 0.072897	 0.155143	 0.041761	 0.187306	 0.759458	 -0.054666	 0.371280	 0.076736	 0.009379	 0.925297	 1
1463570725.073	 21	 0.066418	 0.127607	 0.055416	 0.188327	 0.760231	 -0.054157	 0.371613	 0.077280	 0.009842	 0.925113	 1
1463570725.083	 21	 0.051304	 0.066175	 0.084817	 0.188542	 0.760917	 -0.053256	 0.371893	 0.077527	 0.010332	 0.924975	 1
1463570725.093	 21	 0.028647	 -0.013293	 0.117313	 0.187648	 0.761460	 -0.051868	 0.372095	 0.077355	 0.010834	 0.924902	 1
1463570725.103	 21	 0.009212	 -0.077962	 0.138190	 0.186725	 0.761093	 -0.050742	 0.371887	 0.077148	 0.011165	 0.924999	 1
1463570725.113	 21	 -0.015558	 -0.129970	 0.143251	 0.184204	 0.761262	 -0.048779	 0.371904	 0.076343	 0.011612	 0.925054	 1
1463570725.133	 22	 -0.067332	 -0.240484	 0.136278	 0.177462	 0.760837	 -0.044758	 0.371597	 0.073983	 0.012199	 0.925361	 1
1463570725.143	 22	 -0.082729	 -0.319323	 0.113306	 0.169871	 0.760420	 -0.040712	 0.371304	 0.071232	 0.012644	 0.925688	 1
1463570725.153	 22	 -0.117761	 -0.285141	 0.119258	 0.165545	 0.759568	 -0.038841	 0.370872	 0.069598	 0.012671	 0.925986	 1
1463570725.163	 22	 -0.143909	 -0.129089	 0.067649	 0.162904	 0.758306	 -0.037465	 0.370258	 0.068660	 0.012766	 0.926300	 1
1463570725.173	 22	 -0.112412	 -0.032226	 0.090657	 0.161439	 0.757212	 -0.036074	 0.369713	 0.068265	 0.013095	 0.926542	 1
1463570725.183	 22	 -0.056406	 0.066605	 0.101752	 0.160334	 0.757519	 -0.034225	 0.369800	 0.068087	 0.013759	 0.926511	 1
1463570725.193	 22	 0.021789	 0.130177	 0.099532	 0.160601	 0.757684	 -0.032858	 0.369828	 0.068460	 0.014448	 0.926462	 1
1463570725.203	 22	 0.092450	 0.187326	 0.088790	 0.161525	 0.758618	 -0.031770	 0.370216	 0.069068	 0.015161	 0.926251	 1
1463570725.213	 22	 0.106311	 0.216789	 0.050576	 0.163295	 0.759742	 -0.031154	 0.370701	 0.069977	 0.015820	 0.925977	 1
1463570725.223	 22	 0.099454	 0.155875	 0.008501	 0.164023	 0.759717	 -0.030463	 0.370659	 0.070443	 0.016274	 0.925951	 1
1463570725.233	 22	 0.057476	 0.119495	 -0.038365	 0.165640	 0.760357	 -0.030982	 0.370960	 0.071081	 0.016359	 0.925780	 1
1463570725.243	 22	 -0.002533	 0.104458	 -0.082745	 0.167421	 0.760375	 -0.032004	 0.370990	 0.071715	 0.016217	 0.925721	 1
