% Gyrometer data recorded with 'snsrlog'
% 
% 
% Label description:
% 	 0: Default Label
% 	 1: still_drop
% 	 2: walk_drop
% 	 3: other
% 	 4: dtw_same
% 	 5: dtw_diff
% 	 6: delete
% 	 7: steal
% 
% Column description:
% 	 1: Seconds.milliseconds since 1970
% 	 2: Number of skipped measurements
% 	 3: Gyro X
% 	 4: Gyro Y
% 	 5: Gyro Z
% 	 6: Roll of the device
% 	 7: Pitch of the device
% 	 8: Yaw of the device
% 	 9: Quaternion X
% 	 10: Quaternion Y
% 	 11: Quaternion Z
% 	 12: Quaternion W
% 	 13: Label used for the current sample
% 
% 
1463623909.763	 0	 -1.886232	 -0.110874	 -1.324775	 0.221727	 0.557470	 -0.083142	 0.277635	 0.094910	 -0.009295	 0.955942	 1
1463623909.773	 0	 -1.960711	 0.055133	 -1.196822	 0.226509	 0.535764	 -0.092160	 0.267735	 0.096751	 -0.014255	 0.958517	 1
1463623909.783	 0	 -1.989481	 0.340723	 -0.987156	 0.232373	 0.514067	 -0.098701	 0.257722	 0.099525	 -0.017954	 0.960912	 1
1463623909.793	 0	 -1.978024	 0.745642	 -0.733034	 0.240490	 0.492923	 -0.102247	 0.247840	 0.103801	 -0.019971	 0.963017	 1
1463623909.803	 0	 -1.921918	 1.140630	 -0.510300	 0.251338	 0.472747	 -0.103078	 0.238301	 0.109723	 -0.020376	 0.964758	 1
1463623909.813	 0	 -1.820344	 1.505195	 -0.357519	 0.265009	 0.453894	 -0.102041	 0.229306	 0.117188	 -0.019567	 0.966076	 1
1463623909.823	 0	 -1.696354	 1.878292	 -0.275469	 0.281965	 0.436474	 -0.099985	 0.220948	 0.126300	 -0.017917	 0.966907	 1
1463623909.833	 0	 -1.569688	 2.249223	 -0.261397	 0.302568	 0.420391	 -0.097672	 0.213217	 0.137145	 -0.015789	 0.967202	 1
1463623909.843	 0	 -1.401080	 2.318317	 -0.345351	 0.325281	 0.405654	 -0.096084	 0.206168	 0.148876	 -0.013838	 0.967026	 1
1463623909.853	 0	 -1.314199	 2.544525	 -0.503867	 0.349788	 0.391627	 -0.096070	 0.199571	 0.161282	 -0.012565	 0.966438	 1
1463623909.863	 0	 -1.280532	 2.790130	 -0.648950	 0.377731	 0.377368	 -0.097297	 0.192981	 0.175236	 -0.011744	 0.965356	 1
1463623909.873	 0	 -1.257131	 2.914352	 -0.816388	 0.407392	 0.362797	 -0.099781	 0.186378	 0.189913	 -0.011588	 0.963879	 1
1463623909.883	 0	 -1.354068	 3.114255	 -1.009784	 0.439262	 0.346793	 -0.103340	 0.179243	 0.205620	 -0.012112	 0.962001	 1
1463623909.893	 0	 -1.519500	 3.241240	 -1.165961	 0.472719	 0.328561	 -0.107212	 0.171145	 0.222161	 -0.013148	 0.959782	 1
1463623909.903	 0	 -1.677776	 3.247422	 -1.257247	 0.506267	 0.308273	 -0.110604	 0.162086	 0.238876	 -0.014488	 0.957317	 1
1463623909.913	 0	 -1.808024	 3.266688	 -1.293235	 0.539537	 0.286443	 -0.112970	 0.152243	 0.255592	 -0.015877	 0.954590	 1
1463623909.923	 0	 -1.857840	 3.354976	 -1.312229	 0.573188	 0.263818	 -0.114342	 0.141968	 0.272564	 -0.017213	 0.951450	 1
1463623909.933	 0	 -1.784572	 3.530024	 -1.344277	 0.608226	 0.241342	 -0.115377	 0.131803	 0.290153	 -0.018624	 0.947677	 1
1463623909.943	 0	 -1.602911	 3.847165	 -1.391932	 0.646139	 0.219860	 -0.116891	 0.122288	 0.308947	 -0.020285	 0.942967	 1
1463623909.953	 0	 -1.342598	 4.335207	 -1.454669	 0.688708	 0.199900	 -0.119493	 0.113815	 0.329696	 -0.022299	 0.936936	 1
1463623909.963	 0	 -1.092912	 4.915102	 -1.615574	 0.737233	 0.180924	 -0.123950	 0.106334	 0.352944	 -0.025050	 0.929245	 1
1463623909.973	 0	 -0.997825	 5.315558	 -1.795987	 0.790543	 0.161508	 -0.129700	 0.099162	 0.378173	 -0.028617	 0.919964	 1
1463623909.983	 0	 -1.039200	 5.469026	 -1.916761	 0.845759	 0.140706	 -0.135221	 0.091613	 0.404107	 -0.032673	 0.909526	 1
1463623909.993	 0	 -1.121256	 5.516928	 -1.944377	 0.901386	 0.118762	 -0.139277	 0.083546	 0.430051	 -0.036736	 0.898180	 1
1463623910.003	 0	 -1.155600	 5.449188	 -1.912735	 0.956350	 0.096479	 -0.141572	 0.075213	 0.455445	 -0.040587	 0.886152	 1
1463623910.013	 0	 -1.097358	 5.343801	 -1.901434	 1.010145	 0.074461	 -0.142804	 0.066987	 0.479979	 -0.044426	 0.873590	 1
1463623910.023	 0	 -0.915167	 5.339570	 -1.971268	 1.063532	 0.052775	 -0.144397	 0.059246	 0.503919	 -0.048809	 0.860333	 1
1463623910.033	 0	 -0.632897	 5.612833	 -2.161955	 1.118881	 0.030821	 -0.147821	 0.052210	 0.528236	 -0.054423	 0.845742	 1
1463623910.043	 0	 -0.249221	 6.222060	 -2.477223	 1.179546	 0.007545	 -0.154412	 0.046022	 0.554270	 -0.062007	 0.828747	 1
1463623910.053	 0	 0.137282	 6.778924	 -2.824977	 1.246096	 -0.017972	 -0.164434	 0.040646	 0.582118	 -0.071916	 0.808897	 1
1463623910.063	 0	 0.373063	 6.792000	 -3.126387	 1.313960	 -0.046294	 -0.176301	 0.035496	 0.609807	 -0.083772	 0.787310	 1
1463623910.073	 0	 0.426374	 6.296660	 -3.356337	 1.377669	 -0.077571	 -0.187797	 0.029750	 0.635169	 -0.096867	 0.765698	 1
1463623910.083	 0	 0.369188	 5.560167	 -3.444756	 1.434301	 -0.110786	 -0.197274	 0.023099	 0.657151	 -0.110318	 0.745284	 1
1463623910.093	 0	 0.323854	 4.732105	 -3.395581	 1.482806	 -0.144332	 -0.204429	 0.015828	 0.675476	 -0.123497	 0.726794	 1
1463623910.103	 0	 0.358695	 3.876642	 -3.279151	 1.522790	 -0.177119	 -0.210164	 0.008414	 0.690153	 -0.136312	 0.710660	 1
1463623910.113	 0	 0.481519	 3.128286	 -3.171016	 1.554735	 -0.208903	 -0.215740	 0.001220	 0.701529	 -0.149023	 0.696884	 1
1463623910.123	 0	 0.678880	 2.627049	 -3.129439	 1.580614	 -0.240231	 -0.222246	 -0.005563	 0.710448	 -0.162086	 0.684807	 1
1463623910.133	 0	 0.939346	 2.415698	 -3.128345	 1.603017	 -0.271684	 -0.230554	 -0.011708	 0.717900	 -0.175919	 0.673451	 1
1463623910.143	 0	 1.258644	 2.444680	 -3.109540	 1.624202	 -0.303316	 -0.241412	 -0.016796	 0.724700	 -0.190735	 0.661928	 1
1463623910.153	 0	 1.545007	 2.508823	 -3.095450	 1.644944	 -0.335138	 -0.254886	 -0.020726	 0.731129	 -0.206502	 0.649906	 1
1463623910.163	 0	 1.729301	 2.457075	 -3.116720	 1.664557	 -0.367712	 -0.270057	 -0.024086	 0.736955	 -0.223057	 0.637623	 1
1463623910.173	 0	 1.757719	 2.223231	 -2.937963	 1.681591	 -0.399221	 -0.285606	 -0.026940	 0.741762	 -0.239278	 0.625947	 1
1463623910.183	 0	 1.734415	 1.941182	 -2.827414	 1.695607	 -0.429542	 -0.300830	 -0.029638	 0.745460	 -0.254868	 0.615185	 1
1463623910.193	 0	 1.690251	 1.555847	 -2.741091	 1.705852	 -0.459144	 -0.315556	 -0.032584	 0.747856	 -0.269913	 0.605637	 1
1463623910.203	 0	 1.610833	 1.197965	 -2.696837	 1.712271	 -0.488258	 -0.329545	 -0.036043	 0.748976	 -0.284406	 0.597369	 1
1463623910.213	 0	 1.469822	 0.821832	 -2.554165	 1.715274	 -0.516069	 -0.342349	 -0.039943	 0.749011	 -0.297924	 0.590448	 1
1463623910.223	 0	 1.303673	 0.485649	 -2.339497	 1.715144	 -0.541728	 -0.353748	 -0.044115	 0.748117	 -0.310114	 0.584982	 1
1463623910.233	 0	 1.166134	 0.307014	 -2.094836	 1.713117	 -0.564777	 -0.364073	 -0.048142	 0.746719	 -0.320955	 0.580587	 1
1463623910.243	 0	 1.078385	 0.281354	 -1.855581	 1.710624	 -0.585268	 -0.373798	 -0.051654	 0.745265	 -0.330650	 0.576699	 1
1463623910.263	 1	 1.203352	 0.618109	 -1.421901	 1.707428	 -0.619541	 -0.395519	 -0.055394	 0.743221	 -0.348262	 0.568566	 1
1463623910.273	 1	 1.373825	 0.885665	 -1.271689	 1.707343	 -0.634293	 -0.409601	 -0.055039	 0.742828	 -0.357128	 0.563593	 1
1463623910.283	 1	 1.540999	 1.159382	 -1.153364	 1.708362	 -0.648043	 -0.426142	 -0.053243	 0.742853	 -0.366310	 0.557810	 1
1463623910.293	 1	 1.685476	 1.418936	 -1.090392	 1.710501	 -0.661283	 -0.444833	 -0.050266	 0.743251	 -0.375862	 0.551161	 1
1463623910.303	 1	 1.685523	 1.614986	 -1.042741	 1.714244	 -0.674080	 -0.464289	 -0.046536	 0.744096	 -0.385418	 0.543699	 1
1463623910.313	 1	 1.616266	 1.553171	 -0.941465	 1.718110	 -0.686077	 -0.483320	 -0.042647	 0.744961	 -0.394494	 0.536273	 1
1463623910.323	 1	 1.441923	 1.316759	 -0.758836	 1.720745	 -0.696275	 -0.500931	 -0.038916	 0.745515	 -0.402493	 0.529804	 1
1463623910.333	 1	 1.187915	 0.894781	 -0.530347	 1.721152	 -0.703969	 -0.515988	 -0.035753	 0.745528	 -0.408906	 0.525076	 1
1463623910.343	 1	 0.901669	 0.435587	 -0.313646	 1.718827	 -0.709024	 -0.527956	 -0.033437	 0.744885	 -0.413589	 0.522467	 1
1463623910.353	 1	 0.570847	 0.084526	 -0.163760	 1.715160	 -0.711921	 -0.536138	 -0.032110	 0.743928	 -0.416570	 0.521545	 1
1463623910.363	 1	 0.205921	 -0.208356	 -0.071652	 1.711357	 -0.713267	 -0.539859	 -0.031965	 0.742934	 -0.417898	 0.521908	 1
1463623910.373	 1	 -0.186585	 -0.422822	 -0.030797	 1.708377	 -0.713511	 -0.538672	 -0.033109	 0.742125	 -0.417615	 0.523212	 1
1463623910.383	 1	 -0.639789	 -0.507170	 -0.111832	 1.708001	 -0.713607	 -0.531676	 -0.035815	 0.741902	 -0.415806	 0.524790	 1
1463623910.393	 1	 -1.067844	 -0.461848	 -0.195075	 1.711702	 -0.714030	 -0.518675	 -0.040014	 0.742608	 -0.412593	 0.526023	 1
1463623910.403	 1	 -1.361487	 -0.269552	 -0.197124	 1.719831	 -0.714159	 -0.501278	 -0.044855	 0.744371	 -0.408227	 0.526545	 1
1463623910.413	 1	 -1.424597	 0.109640	 -0.147218	 1.732279	 -0.713532	 -0.482356	 -0.049180	 0.747236	 -0.403342	 0.525866	 1
1463623910.423	 1	 -1.282933	 0.477466	 -0.115187	 1.747599	 -0.712482	 -0.464740	 -0.052365	 0.750871	 -0.398770	 0.523864	 1
1463623910.433	 1	 -1.001543	 0.834206	 -0.088740	 1.764455	 -0.711453	 -0.450479	 -0.054056	 0.754957	 -0.395160	 0.520544	 1
1463623910.443	 1	 -0.733668	 1.034687	 -0.055102	 1.781136	 -0.710494	 -0.440071	 -0.054405	 0.759063	 -0.392597	 0.516460	 1
1463623910.453	 1	 -0.561458	 1.149842	 -0.092832	 1.797547	 -0.709966	 -0.432193	 -0.054022	 0.763105	 -0.390841	 0.511856	 1
1463623910.463	 1	 -0.553530	 1.075952	 -0.158600	 1.813550	 -0.710105	 -0.424750	 -0.053791	 0.766971	 -0.389423	 0.507161	 1
1463623910.473	 1	 -0.586880	 0.806840	 -0.174668	 1.827508	 -0.710382	 -0.416783	 -0.054226	 0.770261	 -0.387881	 0.503294	 1
1463623910.483	 1	 -0.590612	 0.645605	 -0.116454	 1.839454	 -0.710161	 -0.408775	 -0.054937	 0.773057	 -0.386123	 0.500274	 1
1463623910.493	 1	 -0.583586	 0.676241	 0.004201	 1.850936	 -0.708796	 -0.401232	 -0.055230	 0.775821	 -0.384086	 0.497524	 1
1463623910.503	 1	 -0.495714	 0.941151	 0.049598	 1.863760	 -0.706905	 -0.394764	 -0.054715	 0.778974	 -0.382178	 0.494111	 1
1463623910.513	 1	 -0.327661	 1.280957	 0.041705	 1.878655	 -0.705363	 -0.390263	 -0.053168	 0.782642	 -0.380932	 0.489423	 1
1463623910.523	 1	 -0.072718	 1.494956	 0.027621	 1.894282	 -0.704644	 -0.388584	 -0.050637	 0.786461	 -0.380675	 0.483737	 1
1463623910.533	 1	 0.244288	 1.500459	 0.034504	 1.907909	 -0.704879	 -0.390832	 -0.047224	 0.789772	 -0.381633	 0.477898	 1
1463623910.543	 1	 0.520906	 1.385282	 -0.042514	 1.918524	 -0.706557	 -0.396360	 -0.043497	 0.792275	 -0.383785	 0.472353	 1
1463623910.553	 1	 0.726771	 1.270786	 -0.200973	 1.926461	 -0.710397	 -0.404063	 -0.040032	 0.793970	 -0.387131	 0.467053	 1
1463623910.563	 1	 0.762415	 1.238940	 -0.324143	 1.933258	 -0.716057	 -0.412396	 -0.037042	 0.795220	 -0.391218	 0.461738	 1
1463623910.573	 1	 0.604442	 1.250943	 -0.346103	 1.941481	 -0.721618	 -0.418843	 -0.034469	 0.796738	 -0.394829	 0.456214	 1
1463623910.583	 1	 0.377428	 1.295373	 -0.324529	 1.951749	 -0.726280	 -0.422644	 -0.032261	 0.798717	 -0.397527	 0.450535	 1
1463623910.593	 1	 0.092203	 1.487427	 -0.356494	 1.965863	 -0.730111	 -0.422982	 -0.030409	 0.801535	 -0.399197	 0.444138	 1
1463623910.603	 1	 -0.199495	 1.709953	 -0.442474	 1.984977	 -0.733390	 -0.419142	 -0.029060	 0.805384	 -0.399818	 0.436643	 1
1463623910.613	 1	 -0.461271	 1.763917	 -0.586767	 2.007959	 -0.736745	 -0.411244	 -0.028590	 0.809919	 -0.399662	 0.428350	 1
1463623910.623	 1	 -0.698117	 1.465596	 -0.752674	 2.031656	 -0.740345	 -0.399258	 -0.029713	 0.814414	 -0.398786	 0.420495	 1
1463623910.633	 1	 -0.876511	 0.917974	 -0.952317	 2.052938	 -0.744569	 -0.383577	 -0.033013	 0.818169	 -0.397416	 0.414211	 1
1463623910.643	 1	 -0.924395	 0.162936	 -1.098508	 2.067285	 -0.747042	 -0.366632	 -0.037766	 0.820561	 -0.395099	 0.411279	 1
1463623910.653	 1	 -0.794690	 -0.581237	 -1.143864	 2.075128	 -0.753025	 -0.349107	 -0.044977	 0.821135	 -0.393918	 0.410541	 1
1463623910.663	 1	 -0.567496	 -0.903555	 -1.058252	 2.076711	 -0.759481	 -0.334330	 -0.052406	 0.820348	 -0.393362	 0.411763	 1
1463623910.673	 1	 -0.234013	 -0.700230	 -0.899399	 2.075990	 -0.766148	 -0.324076	 -0.058475	 0.819118	 -0.393754	 0.413018	 1
1463623910.683	 1	 0.241143	 -0.143824	 -0.688404	 2.075560	 -0.773190	 -0.320469	 -0.061856	 0.818063	 -0.395663	 0.412792	 1
1463623910.693	 1	 0.784117	 0.654926	 -0.618556	 2.077222	 -0.781778	 -0.324238	 -0.062201	 0.817462	 -0.399736	 0.409998	 1
1463623910.703	 1	 1.282278	 1.776326	 -0.661483	 2.085003	 -0.793112	 -0.334138	 -0.059504	 0.817928	 -0.406259	 0.402998	 1
1463623910.713	 1	 1.727087	 2.882078	 -0.683842	 2.100407	 -0.807149	 -0.349365	 -0.053699	 0.819636	 -0.414999	 0.391265	 1
1463623910.723	 1	 1.984456	 3.495906	 -0.562072	 2.119243	 -0.822255	 -0.369466	 -0.045326	 0.821801	 -0.424997	 0.376783	 1
1463623910.733	 1	 2.077572	 3.457105	 -0.447081	 2.136936	 -0.837976	 -0.392681	 -0.035923	 0.823480	 -0.435527	 0.361809	 1
1463623910.743	 1	 1.429461	 2.420393	 -0.373284	 2.150896	 -0.850063	 -0.410182	 -0.028663	 0.824643	 -0.443375	 0.350086	 1
1463623910.753	 1	 0.872139	 1.650178	 -0.327639	 2.161942	 -0.858344	 -0.419720	 -0.024320	 0.825569	 -0.448254	 0.341925	 1
1463623910.763	 1	 0.624990	 0.939365	 -0.178632	 2.168051	 -0.863975	 -0.426417	 -0.021573	 0.825920	 -0.451554	 0.336883	 1
1463623910.783	 2	 0.417352	 0.224094	 0.251351	 2.164893	 -0.867922	 -0.440288	 -0.017540	 0.824991	 -0.455313	 0.334322	 1
1463623910.793	 2	 0.327655	 0.314772	 0.398985	 2.161933	 -0.866825	 -0.447929	 -0.014791	 0.824705	 -0.456161	 0.334004	 1
1463623910.803	 2	 0.276014	 0.379374	 0.486363	 2.159801	 -0.864539	 -0.455581	 -0.011551	 0.824703	 -0.456583	 0.333563	 1
1463623910.813	 2	 0.217404	 0.329148	 0.548115	 2.157528	 -0.861387	 -0.463166	 -0.008152	 0.824773	 -0.456678	 0.333358	 1
1463623910.823	 2	 0.103405	 0.134913	 0.557957	 2.154574	 -0.857473	 -0.469624	 -0.005178	 0.824806	 -0.456309	 0.333840	 1
1463623910.833	 2	 -0.050668	 -0.119325	 0.490856	 2.150848	 -0.853122	 -0.473812	 -0.003201	 0.824745	 -0.455408	 0.335246	 1
1463623910.843	 2	 -0.233554	 -0.299630	 0.341469	 2.141351	 -0.862831	 -0.479349	 -0.005562	 0.821936	 -0.459858	 0.336036	 1
1463623910.853	 2	 -0.427936	 -0.447859	 0.209628	 2.139461	 -0.858763	 -0.476442	 -0.006152	 0.822123	 -0.457884	 0.338259	 1
1463623910.863	 2	 -0.591581	 -0.670375	 0.113064	 2.137895	 -0.854621	 -0.470440	 -0.007920	 0.822357	 -0.455350	 0.341063	 1
1463623910.873	 2	 -0.683382	 -0.796519	 -0.012005	 2.136421	 -0.850892	 -0.462078	 -0.010742	 0.822534	 -0.452548	 0.344271	 1
1463623910.883	 2	 -0.728518	 -0.820155	 -0.062989	 2.135845	 -0.847455	 -0.452175	 -0.014070	 0.822806	 -0.449573	 0.347385	 1
1463623910.893	 2	 -0.758154	 -0.751081	 -0.083403	 2.135802	 -0.844110	 -0.441952	 -0.017436	 0.823141	 -0.446560	 0.350312	 1
1463623910.903	 2	 -0.759066	 -0.720216	 -0.080976	 2.136251	 -0.840729	 -0.431644	 -0.020723	 0.823552	 -0.443504	 0.353039	 1
1463623910.913	 2	 -0.719646	 -0.732050	 -0.083561	 2.136355	 -0.837505	 -0.421725	 -0.023970	 0.823872	 -0.440554	 0.355771	 1
1463623910.923	 2	 -0.655747	 -0.762002	 -0.081199	 2.135574	 -0.834598	 -0.412604	 -0.027166	 0.823989	 -0.437835	 0.358614	 1
1463623910.933	 2	 -0.572536	 -0.771785	 -0.076686	 2.133830	 -0.832075	 -0.404528	 -0.030238	 0.823884	 -0.435416	 0.361542	 1
1463623910.943	 2	 -0.557038	 -0.669587	 -0.057752	 2.132355	 -0.829647	 -0.397050	 -0.033027	 0.823812	 -0.433130	 0.364199	 1
1463623910.953	 2	 -0.495791	 -0.619443	 -0.011991	 2.131211	 -0.827097	 -0.390230	 -0.035442	 0.823816	 -0.430912	 0.366587	 1
1463623910.963	 2	 -0.428114	 -0.585090	 0.059145	 2.129129	 -0.824396	 -0.384995	 -0.037366	 0.823688	 -0.428900	 0.369036	 1
1463623910.973	 2	 -0.363391	 -0.510207	 0.144540	 2.126597	 -0.821343	 -0.381170	 -0.038715	 0.823541	 -0.426999	 0.371420	 1
1463623910.983	 2	 -0.279671	 -0.454744	 0.199747	 2.123626	 -0.818130	 -0.378905	 -0.039471	 0.823357	 -0.425314	 0.373675	 1
1463623910.993	 2	 -0.201569	 -0.374471	 0.153986	 2.120629	 -0.815523	 -0.377461	 -0.040043	 0.823101	 -0.424005	 0.375660	 1
1463623911.003	 2	 -0.131539	 -0.134099	 0.035182	 2.119587	 -0.814152	 -0.376133	 -0.040464	 0.823054	 -0.423220	 0.376603	 1
1463623911.013	 2	 -0.069343	 0.093182	 -0.148832	 2.140799	 -0.828064	 -0.360059	 -0.046065	 0.824837	 -0.425923	 0.368933	 1
1463623911.023	 2	 0.009829	 0.312651	 -0.359566	 2.145321	 -0.830579	 -0.357429	 -0.046808	 0.825269	 -0.426494	 0.367210	 1
1463623911.033	 2	 0.141149	 0.491637	 -0.558341	 2.151923	 -0.835403	 -0.354623	 -0.047742	 0.825752	 -0.427964	 0.364283	 1
1463623911.043	 2	 0.311457	 0.588409	 -0.784865	 2.159540	 -0.842934	 -0.351964	 -0.049045	 0.826023	 -0.430521	 0.360461	 1
1463623911.053	 2	 0.478481	 0.675564	 -1.019993	 2.169237	 -0.855181	 -0.348464	 -0.051360	 0.825933	 -0.434784	 0.355190	 1
1463623911.063	 2	 0.609436	 0.749494	 -1.185639	 2.178608	 -0.867905	 -0.345812	 -0.053462	 0.825663	 -0.439389	 0.349799	 1
1463623911.073	 2	 0.696395	 0.780931	 -1.361954	 2.188762	 -0.882582	 -0.342685	 -0.055998	 0.825144	 -0.444691	 0.343877	 1
1463623911.083	 2	 0.737995	 0.897823	 -1.506172	 2.200838	 -0.898808	 -0.338305	 -0.058919	 0.824575	 -0.450444	 0.337202	 1
1463623911.093	 2	 0.838322	 0.954497	 -1.570464	 2.213867	 -0.916113	 -0.333823	 -0.061831	 0.823860	 -0.456650	 0.330004	 1
1463623911.103	 2	 0.937398	 1.014003	 -1.684810	 2.227122	 -0.934762	 -0.329479	 -0.064843	 0.822819	 -0.463429	 0.322488	 1
1463623911.113	 2	 0.976209	 1.231829	 -1.845117	 2.243806	 -0.954957	 -0.323426	 -0.067991	 0.821835	 -0.470670	 0.313744	 1
1463623911.123	 2	 1.053236	 1.336346	 -1.921550	 2.262888	 -0.976252	 -0.316296	 -0.071103	 0.820773	 -0.478301	 0.304146	 1
1463623911.133	 2	 1.072144	 1.416939	 -2.093618	 2.284549	 -0.998799	 -0.307133	 -0.074513	 0.819536	 -0.486269	 0.293855	 1
1463623911.143	 2	 1.034086	 1.341954	 -2.182442	 2.308703	 -1.021943	 -0.294794	 -0.078515	 0.818122	 -0.494200	 0.283336	 1
1463623911.153	 2	 0.970291	 1.183509	 -2.203611	 2.333952	 -1.044770	 -0.279648	 -0.083074	 0.816472	 -0.501798	 0.273261	 1
1463623911.163	 2	 0.829524	 0.995521	 -2.223317	 2.361244	 -1.066405	 -0.260399	 -0.088287	 0.814818	 -0.508640	 0.263746	 1
1463623911.173	 2	 0.612878	 0.781190	 -2.239411	 2.390802	 -1.086703	 -0.236291	 -0.094365	 0.813164	 -0.514644	 0.254953	 1
1463623911.183	 2	 0.399133	 0.518853	 -2.274096	 2.423629	 -1.105260	 -0.206031	 -0.101494	 0.811630	 -0.519610	 0.246902	 1
1463623911.193	 2	 0.203807	 0.217948	 -2.193131	 2.457759	 -1.121491	 -0.171261	 -0.109426	 0.810165	 -0.523482	 0.240055	 1
1463623911.203	 2	 0.058037	 -0.009495	 -2.082073	 2.491939	 -1.135238	 -0.133882	 -0.117744	 0.808778	 -0.526370	 0.234413	 1
1463623911.213	 2	 -0.011685	 -0.156511	 -1.996508	 2.526180	 -1.147172	 -0.094860	 -0.126215	 0.807400	 -0.528640	 0.229596	 1
1463623911.223	 2	 -0.031112	 -0.265463	 -1.921683	 2.560286	 -1.157844	 -0.054940	 -0.134707	 0.805948	 -0.530565	 0.225393	 1
1463623911.233	 2	 0.033133	 -0.354892	 -1.761079	 2.592109	 -1.167658	 -0.016610	 -0.142871	 0.804280	 -0.532411	 0.221946	 1
1463623911.243	 2	 0.179416	 -0.287858	 -1.551774	 2.620096	 -1.177071	 0.017119	 -0.149991	 0.802385	 -0.534523	 0.219012	 1
1463623911.253	 2	 0.267703	 -0.131862	 -1.271861	 2.644018	 -1.185817	 0.044895	 -0.155593	 0.800495	 -0.536852	 0.216307	 1
1463623911.263	 2	 0.334942	 0.069019	 -0.971098	 2.663499	 -1.193534	 0.065666	 -0.159371	 0.798835	 -0.539268	 0.213669	 1
1463623911.273	 2	 0.392195	 0.228113	 -0.716465	 2.678649	 -1.200405	 0.079860	 -0.161534	 0.797400	 -0.541750	 0.211109	 1
1463623911.283	 2	 0.451634	 0.247217	 -0.551611	 2.689915	 -1.206911	 0.089217	 -0.162734	 0.796006	 -0.544308	 0.208855	 1
1463623911.293	 2	 0.515419	 0.112665	 -0.453237	 2.697010	 -1.213461	 0.095165	 -0.163677	 0.794417	 -0.546911	 0.207364	 1
1463623911.303	 2	 0.536128	 -0.056213	 -0.412358	 2.700912	 -1.220094	 0.099500	 -0.164834	 0.792589	 -0.549455	 0.206718	 1
1463623911.313	 2	 0.519822	 -0.153721	 -0.371559	 2.702947	 -1.226486	 0.103069	 -0.166166	 0.790686	 -0.551825	 0.206624	 1
1463623911.323	 2	 0.423856	 -0.176494	 -0.324042	 2.704344	 -1.231985	 0.106420	 -0.167509	 0.788980	 -0.553803	 0.206770	 1
1463623911.333	 2	 0.318598	 -0.119587	 -0.292754	 2.706596	 -1.236391	 0.110225	 -0.168706	 0.787629	 -0.555365	 0.206757	 1
1463623911.343	 2	 0.191954	 -0.079566	 -0.251846	 2.709891	 -1.239540	 0.114628	 -0.169748	 0.786691	 -0.556451	 0.206558	 1
1463623911.353	 2	 0.102042	 0.024430	 -0.174426	 2.713577	 -1.241459	 0.118623	 -0.170427	 0.786177	 -0.557120	 0.206147	 1
1463623911.363	 2	 0.055256	 0.177605	 -0.044702	 2.716292	 -1.242375	 0.120029	 -0.170286	 0.786073	 -0.557574	 0.205437	 1
1463623911.373	 2	 0.042629	 0.323317	 0.096378	 2.716977	 -1.242527	 0.117689	 -0.169186	 0.786297	 -0.557933	 0.204509	 1
1463623911.383	 2	 0.032535	 0.354975	 0.204403	 2.715333	 -1.242107	 0.112176	 -0.167447	 0.786715	 -0.558189	 0.203634	 1
1463623911.393	 2	 0.033958	 0.168088	 0.247413	 2.710765	 -1.241396	 0.104927	 -0.165820	 0.787059	 -0.558261	 0.203436	 1
1463623911.403	 2	 0.022775	 -0.140548	 0.216929	 2.703713	 -1.240688	 0.098155	 -0.165071	 0.787104	 -0.558085	 0.204351	 1
1463623911.413	 2	 -0.032144	 -0.383645	 0.112832	 2.696842	 -1.239923	 0.094377	 -0.165443	 0.786931	 -0.557599	 0.206035	 1
1463623911.433	 3	 -0.158592	 -0.560055	 -0.073263	 2.719268	 -1.242755	 0.126021	 -0.171837	 0.785756	 -0.557364	 0.205923	 1
1463623911.443	 3	 -0.173776	 -0.584706	 -0.105333	 2.718242	 -1.241589	 0.131023	 -0.174010	 0.785555	 -0.556291	 0.207760	 1
1463623911.453	 3	 -0.179491	 -0.675009	 -0.093334	 2.716566	 -1.240356	 0.136092	 -0.176384	 0.785292	 -0.555121	 0.209870	 1
1463623911.463	 3	 -0.170376	 -0.776102	 -0.096486	 2.713456	 -1.239202	 0.140818	 -0.179025	 0.784878	 -0.553883	 0.212440	 1
1463623911.473	 3	 -0.203725	 -0.820777	 -0.110466	 2.710668	 -1.237888	 0.146348	 -0.181878	 0.784461	 -0.552513	 0.215106	 1
1463623911.483	 3	 -0.230608	 -0.878012	 -0.093712	 2.707294	 -1.236227	 0.152000	 -0.184916	 0.784057	 -0.550925	 0.218043	 1
1463623911.493	 3	 -0.224681	 -0.770451	 -0.072514	 2.704018	 -1.234493	 0.157055	 -0.187684	 0.783728	 -0.549368	 0.220772	 1
1463623911.503	 3	 -0.221873	 -0.633206	 -0.065932	 2.701757	 -1.232770	 0.161711	 -0.190015	 0.783534	 -0.547946	 0.222989	 1
1463623911.513	 3	 -0.223491	 -0.526799	 -0.060645	 2.698918	 -1.228796	 0.164751	 -0.191720	 0.784070	 -0.545736	 0.225054	 1
1463623911.523	 3	 -0.221872	 -0.426678	 -0.040544	 2.698241	 -1.226979	 0.168833	 -0.193385	 0.784123	 -0.544479	 0.226486	 1
1463623911.533	 3	 -0.205358	 -0.324576	 -0.034409	 2.698137	 -1.225221	 0.172419	 -0.194703	 0.784269	 -0.543353	 0.227553	 1
1463623911.553	 4	 -0.145189	 -0.269293	 -0.003397	 2.669083	 -1.219353	 0.150885	 -0.193719	 0.784691	 -0.540650	 0.233306	 1
1463623911.563	 4	 -0.105695	 -0.328444	 0.069246	 2.666439	 -1.218110	 0.151352	 -0.194523	 0.784690	 -0.539838	 0.234515	 1
1463623911.573	 4	 -0.059840	 -0.403507	 0.150212	 2.659975	 -1.216862	 0.148622	 -0.195101	 0.784550	 -0.539028	 0.236361	 1
1463623911.583	 4	 -0.055708	 -0.404823	 0.117125	 2.653530	 -1.215782	 0.146120	 -0.195771	 0.784336	 -0.538260	 0.238258	 1
1463623911.593	 4	 -0.059691	 -0.311435	 0.085050	 2.645078	 -1.208041	 0.141194	 -0.195485	 0.785994	 -0.534907	 0.240569	 1
1463623911.603	 4	 -0.076298	 -0.206143	 0.077648	 2.641878	 -1.207028	 0.140232	 -0.195879	 0.785988	 -0.534302	 0.241611	 1
1463623911.613	 4	 -0.078101	 -0.140158	 0.082541	 2.639466	 -1.205950	 0.139304	 -0.196070	 0.786090	 -0.533743	 0.242357	 1
1463623911.623	 4	 -0.068287	 -0.098681	 0.086038	 2.637310	 -1.204913	 0.138154	 -0.196107	 0.786233	 -0.533254	 0.242942	 1
1463623911.633	 4	 -0.045731	 -0.062585	 0.084064	 2.636372	 -1.200994	 0.137767	 -0.195876	 0.787255	 -0.531629	 0.243377	 1
1463623911.643	 4	 -0.027426	 -0.026491	 0.082109	 2.634552	 -1.200316	 0.136196	 -0.195683	 0.787377	 -0.531369	 0.243705	 1
1463623911.653	 4	 -0.017677	 0.002215	 0.084423	 2.632867	 -1.199740	 0.134433	 -0.195388	 0.787506	 -0.531186	 0.243925	 1
1463623911.663	 4	 -0.022958	 0.012875	 0.085634	 2.631304	 -1.199150	 0.132640	 -0.195047	 0.787655	 -0.531015	 0.244091	 1
1463623911.673	 4	 -0.035830	 0.004393	 0.083575	 2.627109	 -1.194451	 0.128453	 -0.194101	 0.788859	 -0.529223	 0.244846	 1
1463623911.683	 4	 -0.048776	 -0.017968	 0.074954	 2.625864	 -1.193683	 0.127244	 -0.193886	 0.789037	 -0.528940	 0.245053	 1
1463623911.693	 4	 -0.064943	 -0.044573	 0.066321	 2.624732	 -1.192806	 0.126443	 -0.193792	 0.789220	 -0.528574	 0.245328	 1
1463623911.703	 4	 -0.077805	 -0.050964	 0.059979	 2.623793	 -1.191858	 0.125987	 -0.193776	 0.789412	 -0.528157	 0.245622	 1
1463623911.713	 4	 -0.084176	 -0.030849	 0.045329	 2.619736	 -1.188987	 0.122563	 -0.193238	 0.790039	 -0.527026	 0.246456	 1
1463623911.723	 4	 -0.056625	 0.010896	 -0.053638	 2.621272	 -1.188573	 0.124134	 -0.193416	 0.790191	 -0.526814	 0.246283	 1
1463623911.733	 4	 -0.069093	 0.034744	 0.003178	 2.622549	 -1.188093	 0.125304	 -0.193499	 0.790368	 -0.526599	 0.246109	 1
1463623911.743	 4	 -0.100553	 0.120204	 0.041549	 2.623947	 -1.187110	 0.125728	 -0.193212	 0.790770	 -0.526285	 0.245714	 1
1463623911.753	 4	 -0.102466	 0.168050	 0.040993	 2.618590	 -1.183561	 0.119361	 -0.191782	 0.791704	 -0.525117	 0.246327	 1
1463623911.763	 4	 -0.084200	 0.193531	 0.042137	 2.620687	 -1.182585	 0.119594	 -0.191235	 0.792208	 -0.524895	 0.245604	 1
1463623911.773	 4	 -0.075541	 0.202161	 0.062391	 2.622447	 -1.181637	 0.119323	 -0.190580	 0.792710	 -0.524712	 0.244881	 1
1463623911.783	 4	 -0.076485	 0.197117	 0.099654	 2.623434	 -1.180535	 0.118249	 -0.189796	 0.793236	 -0.524491	 0.244260	 1
1463623911.793	 4	 -0.075289	 0.180443	 0.152875	 2.608886	 -1.174485	 0.102780	 -0.186900	 0.794565	 -0.522569	 0.246287	 1
1463623911.803	 4	 -0.068757	 0.155352	 0.215465	 2.607267	 -1.172853	 0.099265	 -0.185770	 0.795137	 -0.522189	 0.246099	 1
1463623911.813	 4	 -0.056794	 0.130358	 0.271512	 2.604092	 -1.171013	 0.094344	 -0.184462	 0.795702	 -0.521757	 0.246176	 1
1463623911.823	 4	 -0.039679	 0.111401	 0.304225	 2.599738	 -1.169110	 0.088366	 -0.183030	 0.796230	 -0.521323	 0.246454	 1
1463623911.833	 4	 -0.023725	 0.098597	 0.306115	 2.591572	 -1.166213	 0.078952	 -0.181114	 0.796861	 -0.520570	 0.247421	 1
1463623911.843	 4	 -0.007739	 0.104839	 0.293245	 2.586827	 -1.164564	 0.072670	 -0.179674	 0.797284	 -0.520253	 0.247776	 1
1463623911.853	 4	 0.011462	 0.122693	 0.269797	 2.582469	 -1.163165	 0.066652	 -0.178261	 0.797657	 -0.520044	 0.248035	 1
1463623911.863	 4	 0.030625	 0.147863	 0.228299	 2.578868	 -1.162108	 0.061187	 -0.176903	 0.797978	 -0.519975	 0.248117	 1
1463623911.873	 4	 0.044330	 0.162280	 0.168631	 2.576363	 -1.161473	 0.056703	 -0.175697	 0.798232	 -0.520054	 0.247992	 1
1463623911.883	 4	 0.049419	 0.167113	 0.101456	 2.582461	 -1.162875	 0.060283	 -0.175690	 0.798297	 -0.520713	 0.246399	 1
1463623911.893	 4	 0.045914	 0.153918	 0.040616	 2.582385	 -1.162990	 0.058482	 -0.175004	 0.798415	 -0.520974	 0.245953	 1
1463623911.903	 4	 0.040384	 0.138819	 0.009616	 2.582990	 -1.163261	 0.057577	 -0.174514	 0.798496	 -0.521248	 0.245458	 1
1463623911.913	 4	 0.029595	 0.117546	 0.005249	 2.583741	 -1.163505	 0.057051	 -0.174134	 0.798569	 -0.521476	 0.245006	 1
1463623911.923	 4	 0.026315	 0.092110	 0.016778	 2.582307	 -1.162507	 0.054724	 -0.173471	 0.798862	 -0.521234	 0.245036	 1
1463623911.933	 4	 0.024129	 0.067767	 0.032556	 2.582173	 -1.162570	 0.053783	 -0.173137	 0.798910	 -0.521363	 0.244840	 1
1463623911.943	 4	 0.024117	 0.052984	 0.047340	 2.581585	 -1.162538	 0.052536	 -0.172789	 0.798954	 -0.521452	 0.244752	 1
1463623911.953	 4	 0.024141	 0.050919	 0.055846	 2.580727	 -1.162466	 0.051053	 -0.172412	 0.798997	 -0.521531	 0.244713	 1
1463623911.963	 4	 0.024170	 0.055192	 0.059101	 2.577396	 -1.160835	 0.047264	 -0.171588	 0.799349	 -0.521050	 0.245165	 1
1463623911.973	 4	 0.024211	 0.059485	 0.064469	 2.576454	 -1.160707	 0.045601	 -0.171154	 0.799410	 -0.521122	 0.245116	 1
1463623911.983	 4	 0.023207	 0.069092	 0.068831	 2.575518	 -1.160540	 0.043855	 -0.170682	 0.799489	 -0.521188	 0.245047	 1
1463623911.993	 4	 0.023252	 0.077609	 0.069975	 2.574646	 -1.160359	 0.042081	 -0.170180	 0.799581	 -0.521258	 0.244945	 1
1463623912.003	 4	 0.021124	 0.086073	 0.062614	 2.574535	 -1.159642	 0.040944	 -0.169674	 0.799855	 -0.521099	 0.244742	 1
1463623912.013	 4	 0.021082	 0.087052	 0.050900	 2.574115	 -1.159532	 0.039530	 -0.169206	 0.799952	 -0.521192	 0.244550	 1
1463623912.023	 4	 0.021029	 0.084847	 0.040222	 2.573900	 -1.159489	 0.038358	 -0.168788	 0.800036	 -0.521300	 0.244333	 1
1463623912.033	 4	 0.017761	 0.075245	 0.034833	 2.573742	 -1.159452	 0.037336	 -0.168417	 0.800113	 -0.521396	 0.244132	 1
1463623912.043	 4	 0.016630	 0.062484	 0.034728	 2.573208	 -1.158907	 0.036087	 -0.167995	 0.800297	 -0.521284	 0.244058	 1
1463623912.053	 4	 0.015512	 0.050795	 0.035695	 2.572871	 -1.158853	 0.035131	 -0.167694	 0.800351	 -0.521351	 0.243947	 1
1463623912.063	 4	 0.017601	 0.042271	 0.034532	 2.572433	 -1.158810	 0.034174	 -0.167420	 0.800389	 -0.521414	 0.243876	 1
1463623912.073	 4	 0.016527	 0.040154	 0.035591	 2.571505	 -1.158403	 0.032802	 -0.167067	 0.800498	 -0.521339	 0.243919	 1
1463623912.083	 4	 0.020785	 0.040124	 0.033428	 2.570347	 -1.157990	 0.031218	 -0.166688	 0.800598	 -0.521270	 0.243999	 1
1463623912.093	 4	 0.017600	 0.041220	 0.036668	 2.569330	 -1.157525	 0.029750	 -0.166312	 0.800719	 -0.521177	 0.244056	 1
1463623912.103	 4	 0.015471	 0.039128	 0.040935	 2.568091	 -1.157092	 0.028085	 -0.165919	 0.800821	 -0.521103	 0.244149	 1
1463623912.113	 4	 0.012250	 0.034882	 0.040927	 2.566961	 -1.156817	 0.026551	 -0.165567	 0.800882	 -0.521086	 0.244222	 1
1463623912.123	 4	 0.009029	 0.031691	 0.039861	 2.566063	 -1.156616	 0.025276	 -0.165268	 0.800931	 -0.521087	 0.244264	 1
1463623912.133	 4	 0.006877	 0.030611	 0.036673	 2.565458	 -1.156479	 0.024298	 -0.165018	 0.800974	 -0.521101	 0.244261	 1
1463623912.143	 4	 0.005799	 0.030590	 0.033484	 2.564857	 -1.156454	 0.023339	 -0.164788	 0.800986	 -0.521158	 0.244254	 1
1463623912.153	 4	 0.002586	 0.031632	 0.029259	 2.564439	 -1.156344	 0.022556	 -0.164570	 0.801029	 -0.521175	 0.244225	 1
1463623912.163	 4	 0.003653	 0.032685	 0.028194	 2.564142	 -1.156168	 0.021884	 -0.164358	 0.801094	 -0.521162	 0.244182	 1
1463623912.173	 4	 0.007899	 0.030521	 0.024940	 2.563900	 -1.156089	 0.021268	 -0.164165	 0.801136	 -0.521186	 0.244124	 1
1463623912.183	 4	 0.008933	 0.025184	 0.022749	 2.563628	 -1.156152	 0.020682	 -0.164008	 0.801134	 -0.521260	 0.244076	 1
1463623912.193	 4	 0.011025	 0.019828	 0.018418	 2.563272	 -1.156105	 0.020079	 -0.163854	 0.801153	 -0.521286	 0.244065	 1
1463623912.203	 4	 0.012078	 0.019801	 0.015213	 2.562845	 -1.156006	 0.019422	 -0.163691	 0.801180	 -0.521291	 0.244072	 1
1463623912.213	 4	 0.006729	 0.020850	 0.011009	 2.562539	 -1.155777	 0.018898	 -0.163534	 0.801246	 -0.521238	 0.244075	 1
1463623912.223	 4	 0.004605	 0.024039	 0.009994	 2.562258	 -1.155570	 0.018384	 -0.163377	 0.801308	 -0.521195	 0.244069	 1
1463623912.233	 4	 0.001417	 0.025126	 0.012166	 2.561828	 -1.155410	 0.017719	 -0.163204	 0.801352	 -0.521176	 0.244080	 1
1463623912.243	 4	 0.001416	 0.024069	 0.013225	 2.561349	 -1.155182	 0.017008	 -0.163017	 0.801412	 -0.521132	 0.244103	 1
1463623912.253	 4	 0.000349	 0.024071	 0.013238	 2.560826	 -1.154940	 0.016264	 -0.162826	 0.801472	 -0.521083	 0.244137	 1
1463623912.263	 4	 0.003543	 0.021941	 0.014260	 2.560322	 -1.154635	 0.015541	 -0.162632	 0.801549	 -0.521008	 0.244174	 1
1463623912.273	 4	 0.004616	 0.019840	 0.018498	 2.559745	 -1.154360	 0.014760	 -0.162437	 0.801614	 -0.520946	 0.244222	 1
1463623912.283	 4	 0.008881	 0.016658	 0.021632	 2.559044	 -1.154076	 0.013874	 -0.162230	 0.801675	 -0.520883	 0.244294	 1
1463623912.293	 4	 0.006751	 0.018784	 0.020608	 2.558488	 -1.153752	 0.013120	 -0.162035	 0.801753	 -0.520800	 0.244345	 1
1463623912.303	 4	 0.007827	 0.021964	 0.019564	 2.558153	 -1.153518	 0.012536	 -0.161860	 0.801821	 -0.520750	 0.244345	 1
1463623912.313	 4	 0.011045	 0.028313	 0.016399	 2.557947	 -1.153374	 0.012029	 -0.161693	 0.801874	 -0.520737	 0.244306	 1
1463623912.323	 4	 0.014248	 0.032526	 0.012150	 2.557661	 -1.153250	 0.011412	 -0.161506	 0.801922	 -0.520740	 0.244270	 1
1463623912.333	 4	 0.018546	 0.038895	 0.012175	 2.557363	 -1.153121	 0.010722	 -0.161291	 0.801975	 -0.520748	 0.244220	 1
1463623912.343	 4	 0.024962	 0.042066	 0.012152	 2.556931	 -1.152969	 0.009860	 -0.161040	 0.802031	 -0.520757	 0.244180	 1
1463623912.353	 4	 0.028208	 0.047413	 0.017507	 2.556413	 -1.152824	 0.008856	 -0.160755	 0.802087	 -0.520780	 0.244137	 1
1463623912.363	 4	 0.029295	 0.049559	 0.020719	 2.555837	 -1.152629	 0.007752	 -0.160439	 0.802156	 -0.520790	 0.244096	 1
1463623912.373	 4	 0.027191	 0.052787	 0.025035	 2.555281	 -1.152417	 0.006632	 -0.160109	 0.802233	 -0.520797	 0.244044	 1
1463623912.383	 4	 0.021859	 0.054922	 0.024038	 2.554965	 -1.152227	 0.005715	 -0.159800	 0.802318	 -0.520807	 0.243947	 1
1463623912.393	 4	 0.019713	 0.054913	 0.021927	 2.554947	 -1.152066	 0.005068	 -0.159526	 0.802409	 -0.520820	 0.243797	 1
1463623912.403	 4	 0.018629	 0.050670	 0.022963	 2.554860	 -1.151995	 0.004394	 -0.159270	 0.802471	 -0.520867	 0.243663	 1
1463623912.413	 4	 0.017519	 0.042164	 0.022894	 2.554813	 -1.151873	 0.003830	 -0.159041	 0.802542	 -0.520883	 0.243544	 1
1463623912.423	 4	 0.014273	 0.034713	 0.020722	 2.554769	 -1.151817	 0.003355	 -0.158855	 0.802589	 -0.520915	 0.243442	 1
1463623912.433	 4	 0.007840	 0.030463	 0.018606	 2.554795	 -1.151730	 0.003007	 -0.158698	 0.802642	 -0.520924	 0.243348	 1
1463623912.443	 4	 0.003545	 0.025158	 0.018594	 2.554801	 -1.151604	 0.002694	 -0.158555	 0.802701	 -0.520912	 0.243274	 1
1463623912.453	 4	 0.003528	 0.021968	 0.018564	 2.554866	 -1.151444	 0.002479	 -0.158433	 0.802767	 -0.520879	 0.243204	 1
1463623912.463	 4	 0.003521	 0.020904	 0.018555	 2.554725	 -1.151288	 0.002093	 -0.158296	 0.802821	 -0.520853	 0.243172	 1
1463623912.473	 4	 0.003551	 0.022014	 0.024961	 2.554460	 -1.151085	 0.001568	 -0.158129	 0.802884	 -0.520814	 0.243158	 1
1463623912.483	 4	 0.003550	 0.022013	 0.024964	 2.553871	 -1.150859	 0.000736	 -0.157922	 0.802937	 -0.520778	 0.243196	 1
1463623912.493	 4	 0.004628	 0.025193	 0.023919	 2.553456	 -1.150729	 0.000042	 -0.157735	 0.802975	 -0.520777	 0.243192	 1
1463623912.503	 4	 0.007855	 0.030501	 0.023941	 2.553211	 -1.150650	 -0.000549	 -0.157552	 0.803012	 -0.520798	 0.243143	 1
1463623912.513	 4	 0.009998	 0.032614	 0.022875	 2.552868	 -1.150783	 -0.001248	 -0.157377	 0.802991	 -0.520909	 0.243088	 1
1463623912.523	 4	 0.016404	 0.033650	 0.021762	 2.552441	 -1.150967	 -0.002046	 -0.157190	 0.802954	 -0.521046	 0.243037	 1
1463623912.533	 4	 0.019629	 0.040007	 0.019660	 2.552244	 -1.151139	 -0.002687	 -0.157005	 0.802936	 -0.521178	 0.242935	 1
1463623912.543	 4	 0.022857	 0.046372	 0.018624	 2.552100	 -1.151359	 -0.003341	 -0.156807	 0.802912	 -0.521334	 0.242805	 1
1463623912.553	 4	 0.023942	 0.051672	 0.016530	 2.552063	 -1.151570	 -0.003948	 -0.156599	 0.802900	 -0.521490	 0.242645	 1
1463623912.563	 4	 0.023922	 0.048474	 0.015433	 2.552265	 -1.151716	 -0.004325	 -0.156413	 0.802916	 -0.521610	 0.242454	 1
1463623912.573	 4	 0.020697	 0.045278	 0.013298	 2.552417	 -1.151860	 -0.004699	 -0.156240	 0.802927	 -0.521725	 0.242284	 1
1463623912.583	 4	 0.016384	 0.036774	 0.012189	 2.552455	 -1.152021	 -0.005100	 -0.156089	 0.802920	 -0.521841	 0.242151	 1
1463623912.593	 4	 0.011020	 0.032520	 0.010062	 2.552668	 -1.152188	 -0.005269	 -0.155986	 0.802916	 -0.521945	 0.242008	 1
1463623912.603	 4	 0.006697	 0.022946	 0.007877	 2.552996	 -1.152261	 -0.005245	 -0.155919	 0.802935	 -0.521997	 0.241876	 1
1463623912.613	 4	 0.003462	 0.017623	 0.005721	 2.553344	 -1.152382	 -0.005129	 -0.155890	 0.802936	 -0.522058	 0.241757	 1
1463623912.623	 4	 0.002362	 0.011237	 0.004602	 2.553581	 -1.152540	 -0.005045	 -0.155881	 0.802917	 -0.522130	 0.241672	 1
1463623912.633	 4	 0.002353	 0.009110	 0.004579	 2.553859	 -1.152654	 -0.004898	 -0.155881	 0.802910	 -0.522180	 0.241589	 1
1463623912.643	 4	 0.001290	 0.009122	 0.005652	 2.554104	 -1.152727	 -0.004767	 -0.155879	 0.802910	 -0.522212	 0.241519	 1
1463623912.653	 4	 0.003414	 0.006989	 0.005612	 2.554242	 -1.152769	 -0.004732	 -0.155862	 0.802913	 -0.522236	 0.241470	 1
1463623912.663	 4	 0.000208	 0.005935	 0.005630	 2.554230	 -1.152749	 -0.004820	 -0.155827	 0.802924	 -0.522237	 0.241453	 1
1463623912.673	 4	 0.000196	 0.003808	 0.005610	 2.554247	 -1.152666	 -0.004867	 -0.155794	 0.802951	 -0.522211	 0.241441	 1
1463623912.683	 4	 -0.000853	 0.005953	 0.007773	 2.554023	 -1.152527	 -0.005145	 -0.155724	 0.802982	 -0.522171	 0.241469	 1
1463623912.693	 4	 0.003437	 0.008090	 0.010955	 2.553681	 -1.152360	 -0.005561	 -0.155626	 0.803016	 -0.522128	 0.241511	 1
1463623912.703	 4	 0.005570	 0.008083	 0.010940	 2.553206	 -1.152182	 -0.006116	 -0.155505	 0.803049	 -0.522086	 0.241572	 1
1463623912.713	 4	 0.008787	 0.008103	 0.015179	 2.552640	 -1.152030	 -0.006778	 -0.155368	 0.803071	 -0.522062	 0.241638	 1
1463623912.723	 4	 0.006680	 0.012378	 0.017375	 2.551817	 -1.151733	 -0.007707	 -0.155174	 0.803121	 -0.521991	 0.241750	 1
1463623912.733	 4	 0.006693	 0.014512	 0.018462	 2.551385	 -1.151590	 -0.008307	 -0.155028	 0.803153	 -0.521973	 0.241778	 1
1463623912.743	 4	 0.007771	 0.018748	 0.016362	 2.551089	 -1.151492	 -0.008811	 -0.154891	 0.803181	 -0.521972	 0.241774	 1
1463623912.753	 4	 0.007772	 0.019804	 0.015306	 2.550904	 -1.151475	 -0.009218	 -0.154773	 0.803195	 -0.521999	 0.241743	 1
1463623912.763	 4	 0.010973	 0.019794	 0.015279	 2.550607	 -1.151434	 -0.009748	 -0.154633	 0.803211	 -0.522024	 0.241727	 1
1463623912.773	 4	 0.015233	 0.018710	 0.014165	 2.550391	 -1.151512	 -0.010197	 -0.154519	 0.803199	 -0.522093	 0.241691	 1
1463623912.783	 4	 0.015213	 0.014456	 0.014124	 2.550239	 -1.151650	 -0.010558	 -0.154431	 0.803173	 -0.522180	 0.241646	 1
1463623912.793	 4	 0.012013	 0.015521	 0.013095	 2.550049	 -1.151721	 -0.010948	 -0.154332	 0.803161	 -0.522241	 0.241614	 1
1463623912.803	 4	 0.008809	 0.017636	 0.009944	 2.550035	 -1.151799	 -0.011180	 -0.154252	 0.803157	 -0.522299	 0.241553	 1
1463623912.813	 4	 0.009878	 0.019745	 0.007821	 2.550051	 -1.151861	 -0.011394	 -0.154170	 0.803160	 -0.522351	 0.241486	 1
1463623912.823	 4	 0.006771	 0.018833	 0.005599	 2.550109	 -1.151916	 -0.011555	 -0.154097	 0.803165	 -0.522397	 0.241416	 1
1463623912.833	 4	 0.005694	 0.017766	 0.004531	 2.550254	 -1.151975	 -0.011620	 -0.154040	 0.803172	 -0.522440	 0.241336	 1
1463623912.843	 4	 0.004617	 0.015641	 0.004521	 2.550222	 -1.152025	 -0.011822	 -0.153974	 0.803171	 -0.522482	 0.241292	 1
1463623912.853	 4	 0.007801	 0.013488	 0.002342	 2.550130	 -1.152100	 -0.012057	 -0.153913	 0.803158	 -0.522533	 0.241262	 1
1463623912.863	 4	 0.005668	 0.013494	 0.002361	 2.549920	 -1.152177	 -0.012402	 -0.153839	 0.803139	 -0.522589	 0.241249	 1
1463623912.873	 4	 0.007797	 0.011367	 0.003390	 2.549678	 -1.152214	 -0.012759	 -0.153763	 0.803128	 -0.522629	 0.241250	 1
1463623912.883	 4	 0.009934	 0.011369	 0.004438	 2.549519	 -1.152200	 -0.013039	 -0.153690	 0.803134	 -0.522645	 0.241242	 1
1463623912.893	 4	 0.012071	 0.010314	 0.006542	 2.549334	 -1.152151	 -0.013348	 -0.153608	 0.803148	 -0.522648	 0.241240	 1
1463623912.903	 4	 0.011011	 0.010332	 0.008684	 2.549139	 -1.152081	 -0.013671	 -0.153521	 0.803168	 -0.522644	 0.241239	 1
1463623912.913	 4	 0.010998	 0.006093	 0.010778	 2.548782	 -1.152005	 -0.014117	 -0.153426	 0.803178	 -0.522640	 0.241272	 1
1463623912.923	 4	 0.009943	 0.006119	 0.013986	 2.548346	 -1.151927	 -0.014634	 -0.153322	 0.803186	 -0.522638	 0.241319	 1
1463623912.933	 4	 0.011043	 0.010393	 0.017214	 2.547865	 -1.151905	 -0.015236	 -0.153204	 0.803179	 -0.522665	 0.241357	 1
1463623912.943	 4	 0.014295	 0.019964	 0.018341	 2.547481	 -1.151949	 -0.015841	 -0.153067	 0.803168	 -0.522726	 0.241349	 1
1463623912.953	 4	 0.019662	 0.027386	 0.017297	 2.547261	 -1.152036	 -0.016379	 -0.152919	 0.803160	 -0.522809	 0.241290	 1
1463623912.963	 4	 0.021803	 0.031612	 0.014119	 2.547159	 -1.152159	 -0.016852	 -0.152771	 0.803152	 -0.522907	 0.241197	 1
1463623912.973	 4	 0.021785	 0.030525	 0.010912	 2.547035	 -1.152254	 -0.017338	 -0.152620	 0.803150	 -0.522994	 0.241111	 1
1463623912.983	 4	 0.015338	 0.025195	 0.006655	 2.547050	 -1.152265	 -0.017630	 -0.152500	 0.803171	 -0.523035	 0.241028	 1
1463623912.993	 4	 0.011009	 0.014556	 0.004462	 2.547102	 -1.152285	 -0.017789	 -0.152425	 0.803184	 -0.523066	 0.240964	 1
1463623913.003	 4	 0.003494	 0.006062	 0.003382	 2.547229	 -1.152315	 -0.017771	 -0.152403	 0.803190	 -0.523086	 0.240915	 1
1463623913.013	 4	 -0.000800	 0.000756	 0.003370	 2.547184	 -1.152297	 -0.017844	 -0.152383	 0.803195	 -0.523084	 0.240916	 1
1463623913.023	 4	 -0.002924	 0.001834	 0.004463	 2.547169	 -1.152346	 -0.017880	 -0.152379	 0.803183	 -0.523107	 0.240908	 1
1463623913.033	 4	 0.000304	 0.006087	 0.005540	 2.547019	 -1.152427	 -0.018080	 -0.152348	 0.803159	 -0.523152	 0.240909	 1
1463623913.043	 4	 0.002460	 0.009279	 0.006615	 2.546896	 -1.152557	 -0.018301	 -0.152308	 0.803128	 -0.523221	 0.240890	 1
1463623913.053	 4	 0.006749	 0.012464	 0.007673	 2.546720	 -1.152665	 -0.018607	 -0.152244	 0.803102	 -0.523288	 0.240871	 1
1463623913.063	 4	 0.011023	 0.012459	 0.008701	 2.546525	 -1.152735	 -0.018952	 -0.152165	 0.803086	 -0.523343	 0.240854	 1
1463623913.073	 4	 0.009936	 0.008207	 0.008671	 2.546246	 -1.152777	 -0.019344	 -0.152087	 0.803072	 -0.523385	 0.240860	 1
1463623913.083	 4	 0.005642	 0.002901	 0.008660	 2.545973	 -1.152785	 -0.019683	 -0.152023	 0.803063	 -0.523408	 0.240880	 1
1463623913.093	 4	 0.002411	 -0.002415	 0.007573	 2.545684	 -1.152752	 -0.019973	 -0.151978	 0.803058	 -0.523408	 0.240923	 1
1463623913.103	 4	 0.001345	 -0.002413	 0.007583	 2.545341	 -1.152736	 -0.020288	 -0.151939	 0.803045	 -0.523414	 0.240980	 1
1463623913.113	 4	 0.003479	 -0.002420	 0.007566	 2.544991	 -1.152713	 -0.020618	 -0.151895	 0.803034	 -0.523418	 0.241036	 1
1463623913.123	 4	 0.004556	 -0.003464	 0.010744	 2.544523	 -1.152743	 -0.021059	 -0.151845	 0.803003	 -0.523447	 0.241106	 1
1463623913.133	 4	 0.006701	 -0.002400	 0.011801	 2.544075	 -1.152824	 -0.021499	 -0.151795	 0.802962	 -0.523499	 0.241164	 1
1463623913.143	 4	 0.009920	 0.001837	 0.010746	 2.543614	 -1.152943	 -0.021979	 -0.151738	 0.802912	 -0.523569	 0.241213	 1
1463623913.153	 4	 0.009932	 0.005021	 0.009709	 2.543409	 -1.153045	 -0.022267	 -0.151689	 0.802882	 -0.523629	 0.241211	 1
1463623913.163	 4	 0.012092	 0.010333	 0.009738	 2.543352	 -1.153133	 -0.022470	 -0.151634	 0.802868	 -0.523685	 0.241174	 1
1463623913.173	 4	 0.013152	 0.011371	 0.006540	 2.543296	 -1.153268	 -0.022671	 -0.151585	 0.802842	 -0.523759	 0.241132	 1
1463623913.183	 4	 0.012080	 0.010310	 0.006538	 2.543230	 -1.153373	 -0.022886	 -0.151529	 0.802823	 -0.523822	 0.241093	 1
1463623913.193	 4	 0.014215	 0.010304	 0.006519	 2.542991	 -1.153505	 -0.023251	 -0.151462	 0.802787	 -0.523900	 0.241082	 1
1463623913.203	 4	 0.016350	 0.010297	 0.006500	 2.542746	 -1.153642	 -0.023623	 -0.151394	 0.802750	 -0.523981	 0.241071	 1
1463623913.213	 4	 0.018492	 0.009251	 0.009669	 2.542486	 -1.153744	 -0.024023	 -0.151314	 0.802723	 -0.524050	 0.241062	 1
1463623913.223	 4	 0.018501	 0.010322	 0.010743	 2.542323	 -1.153866	 -0.024339	 -0.151246	 0.802696	 -0.524125	 0.241034	 1
1463623913.233	 4	 0.016357	 0.009258	 0.009686	 2.542091	 -1.153954	 -0.024710	 -0.151169	 0.802673	 -0.524187	 0.241023	 1
1463623913.243	 4	 0.013135	 0.006069	 0.008617	 2.541972	 -1.154040	 -0.024947	 -0.151116	 0.802654	 -0.524241	 0.241001	 1
1463623913.253	 4	 0.007768	 -0.000296	 0.008603	 2.541953	 -1.154061	 -0.025021	 -0.151094	 0.802652	 -0.524257	 0.240987	 1
1463623913.263	 4	 0.002399	 -0.005613	 0.006467	 2.541912	 -1.154077	 -0.025051	 -0.151095	 0.802645	 -0.524264	 0.240995	 1
1463623913.273	 4	 -0.001820	 -0.006600	 0.005380	 2.541922	 -1.154035	 -0.025001	 -0.151107	 0.802654	 -0.524242	 0.241007	 1
1463623913.283	 4	 -0.002883	 -0.005532	 0.005398	 2.541991	 -1.153979	 -0.024891	 -0.151126	 0.802668	 -0.524211	 0.241013	 1
1463623913.293	 4	 -0.001807	 -0.004464	 0.006464	 2.542010	 -1.153942	 -0.024850	 -0.151133	 0.802677	 -0.524193	 0.241020	 1
1463623913.303	 4	 0.001405	 -0.002346	 0.006455	 2.541951	 -1.153942	 -0.024902	 -0.151127	 0.802674	 -0.524195	 0.241030	 1
1463623913.313	 4	 0.002468	 -0.001301	 0.004323	 2.541897	 -1.153910	 -0.024960	 -0.151114	 0.802680	 -0.524185	 0.241039	 1
1463623913.323	 4	 0.005678	 0.000817	 0.004315	 2.541922	 -1.153894	 -0.024964	 -0.151104	 0.802687	 -0.524181	 0.241029	 1
1463623913.333	 4	 0.004615	 0.001884	 0.004334	 2.541851	 -1.153840	 -0.025067	 -0.151074	 0.802700	 -0.524167	 0.241035	 1
1463623913.343	 4	 0.005686	 0.002945	 0.004335	 2.541809	 -1.153783	 -0.025156	 -0.151042	 0.802717	 -0.524151	 0.241034	 1
1463623913.353	 4	 0.005675	 0.000817	 0.004316	 2.541648	 -1.153753	 -0.025342	 -0.151006	 0.802719	 -0.524150	 0.241052	 1
1463623913.363	 4	 0.006747	 0.000822	 0.005373	 2.541358	 -1.153750	 -0.025646	 -0.150960	 0.802708	 -0.524163	 0.241089	 1
1463623913.373	 4	 0.007823	 0.000833	 0.007497	 2.540920	 -1.153755	 -0.026083	 -0.150899	 0.802687	 -0.524185	 0.241150	 1
1463623913.383	 4	 0.009981	 0.004033	 0.009640	 2.540455	 -1.153773	 -0.026589	 -0.150821	 0.802664	 -0.524218	 0.241202	 1
1463623913.393	 4	 0.013211	 0.007237	 0.012840	 2.540037	 -1.153829	 -0.027100	 -0.150733	 0.802638	 -0.524270	 0.241232	 1
1463623913.403	 4	 0.012144	 0.007240	 0.012849	 2.539613	 -1.153857	 -0.027632	 -0.150634	 0.802620	 -0.524314	 0.241260	 1
1463623913.413	 4	 0.010030	 0.011501	 0.012907	 2.539440	 -1.153896	 -0.027952	 -0.150555	 0.802613	 -0.524355	 0.241242	 1
1463623913.423	 4	 0.002521	 0.010295	 0.013034	 2.539410	 -1.153900	 -0.028122	 -0.150496	 0.802621	 -0.524375	 0.241209	 1
1463623913.433	 4	 -0.000684	 0.011354	 0.010939	 2.539651	 -1.153891	 -0.028044	 -0.150463	 0.802646	 -0.524380	 0.241133	 1
1463623913.443	 4	 -0.000692	 0.011339	 0.008805	 2.539858	 -1.153927	 -0.027994	 -0.150433	 0.802658	 -0.524404	 0.241061	 1
1463623913.453	 4	 -0.001767	 0.012384	 0.005625	 2.540238	 -1.153980	 -0.027789	 -0.150423	 0.802675	 -0.524429	 0.240957	 1
1463623913.463	 4	 -0.005011	 0.005989	 0.002393	 2.540654	 -1.154076	 -0.027481	 -0.150449	 0.802677	 -0.524461	 0.240863	 1
1463623913.473	 4	 -0.008254	 -0.000406	 -0.000838	 2.540971	 -1.154204	 -0.027181	 -0.150503	 0.802660	 -0.524500	 0.240803	 1
1463623913.483	 4	 -0.008277	 -0.004668	 -0.001945	 2.541183	 -1.154344	 -0.026935	 -0.150564	 0.802630	 -0.524542	 0.240770	 1
1463623913.493	 4	 -0.007199	 -0.004656	 0.000175	 2.541272	 -1.154468	 -0.026784	 -0.150617	 0.802598	 -0.524580	 0.240764	 1
1463623913.503	 4	 -0.005062	 -0.004663	 0.000156	 2.541243	 -1.154592	 -0.026750	 -0.150654	 0.802559	 -0.524623	 0.240774	 1
1463623913.513	 4	 -0.001846	 -0.004649	 0.003324	 2.541101	 -1.154692	 -0.026835	 -0.150670	 0.802523	 -0.524663	 0.240800	 1
1463623913.523	 4	 -0.000773	 -0.004645	 0.004380	 2.540892	 -1.154774	 -0.026995	 -0.150671	 0.802489	 -0.524699	 0.240834	 1
1463623913.533	 4	 0.002441	 -0.005688	 0.008605	 2.540703	 -1.154801	 -0.027148	 -0.150663	 0.802470	 -0.524714	 0.240868	 1
1463623913.543	 4	 0.003531	 -0.002484	 0.010756	 2.540580	 -1.154771	 -0.027273	 -0.150641	 0.802473	 -0.524708	 0.240887	 1
1463623913.553	 4	 0.001406	 -0.000350	 0.010794	 2.540452	 -1.154730	 -0.027424	 -0.150608	 0.802479	 -0.524700	 0.240902	 1
1463623913.563	 4	 0.002489	 0.002838	 0.010813	 2.540353	 -1.154705	 -0.027566	 -0.150574	 0.802484	 -0.524700	 0.240907	 1
1463623913.573	 4	 0.003577	 0.009201	 0.008731	 2.540246	 -1.154686	 -0.027777	 -0.150515	 0.802492	 -0.524710	 0.240896	 1
1463623913.583	 4	 0.007792	 0.015272	 0.008875	 2.540138	 -1.154719	 -0.028054	 -0.150437	 0.802492	 -0.524748	 0.240864	 1
1463623913.593	 4	 0.013153	 0.020574	 0.008878	 2.540029	 -1.154744	 -0.028393	 -0.150332	 0.802498	 -0.524791	 0.240816	 1
1463623913.603	 4	 0.016384	 0.026946	 0.008910	 2.539906	 -1.154758	 -0.028806	 -0.150201	 0.802510	 -0.524837	 0.240756	 1
1463623913.613	 4	 0.015307	 0.025878	 0.007844	 2.539839	 -1.154740	 -0.029171	 -0.150070	 0.802534	 -0.524869	 0.240689	 1
1463623913.623	 4	 0.009949	 0.021640	 0.007852	 2.539808	 -1.154670	 -0.029461	 -0.149952	 0.802570	 -0.524873	 0.240631	 1
1463623913.633	 4	 0.006705	 0.012084	 0.008858	 2.539687	 -1.154579	 -0.029742	 -0.149860	 0.802600	 -0.524861	 0.240614	 1
1463623913.643	 4	 0.001342	 0.003613	 0.012024	 2.539422	 -1.154496	 -0.030072	 -0.149786	 0.802615	 -0.524848	 0.240641	 1
1463623913.653	 4	 0.000273	 0.001505	 0.014145	 2.539194	 -1.154428	 -0.030343	 -0.149729	 0.802625	 -0.524837	 0.240667	 1
1463623913.663	 4	 -0.001858	 0.004679	 0.010995	 2.539032	 -1.154401	 -0.030564	 -0.149679	 0.802629	 -0.524840	 0.240676	 1
1463623913.673	 4	 -0.000780	 0.007859	 0.009949	 2.539067	 -1.154377	 -0.030628	 -0.149641	 0.802644	 -0.524841	 0.240648	 1
1463623913.683	 4	 0.002440	 0.009992	 0.012072	 2.538957	 -1.154323	 -0.030854	 -0.149572	 0.802662	 -0.524839	 0.240637	 1
1463623913.693	 4	 0.004597	 0.014249	 0.013158	 2.538963	 -1.154250	 -0.031015	 -0.149497	 0.802694	 -0.524829	 0.240599	 1
1463623913.703	 4	 0.003528	 0.013196	 0.014223	 2.538936	 -1.154124	 -0.031222	 -0.149404	 0.802738	 -0.524802	 0.240567	 1
1463623913.713	 4	 0.000305	 0.007895	 0.015268	 2.538877	 -1.154006	 -0.031409	 -0.149330	 0.802776	 -0.524773	 0.240551	 1
1463623913.723	 4	 -0.005086	 -0.002733	 0.014149	 2.538818	 -1.153882	 -0.031496	 -0.149294	 0.802807	 -0.524729	 0.240563	 1
1463623913.733	 4	 -0.005229	 -0.010434	 0.012064	 2.538662	 -1.153780	 -0.031594	 -0.149283	 0.802822	 -0.524689	 0.240609	 1
1463623913.743	 4	 -0.004167	 -0.011501	 0.012044	 2.538465	 -1.153703	 -0.031698	 -0.149283	 0.802826	 -0.524656	 0.240667	 1
1463623913.753	 4	 -0.003066	 -0.006170	 0.014215	 2.538327	 -1.153611	 -0.031796	 -0.149268	 0.802841	 -0.524621	 0.240705	 1
1463623913.763	 4	 -0.004119	 -0.004032	 0.015309	 2.538111	 -1.153563	 -0.032001	 -0.149236	 0.802842	 -0.524610	 0.240742	 1
1463623913.773	 4	 -0.003019	 0.000243	 0.018536	 2.537934	 -1.153437	 -0.032205	 -0.149184	 0.802869	 -0.524571	 0.240771	 1
1463623913.783	 4	 -0.002999	 0.004498	 0.018574	 2.537808	 -1.153346	 -0.032409	 -0.149124	 0.802892	 -0.524550	 0.240776	 1
1463623913.793	 4	 -0.004049	 0.009804	 0.016500	 2.537802	 -1.153260	 -0.032540	 -0.149062	 0.802923	 -0.524531	 0.240752	 1
1463623913.803	 4	 -0.000846	 0.011907	 0.014359	 2.537839	 -1.153268	 -0.032657	 -0.149006	 0.802935	 -0.524551	 0.240705	 1
1463623913.813	 4	 0.002339	 0.010811	 0.011122	 2.537755	 -1.153372	 -0.032877	 -0.148953	 0.802914	 -0.524613	 0.240672	 1
1463623913.823	 4	 0.004469	 0.008685	 0.012148	 2.537661	 -1.153515	 -0.033099	 -0.148907	 0.802882	 -0.524690	 0.240639	 1
1463623913.833	 4	 0.005530	 0.007610	 0.011061	 2.537503	 -1.153734	 -0.033360	 -0.148872	 0.802826	 -0.524797	 0.240615	 1
1463623913.843	 4	 0.006561	 0.002266	 0.007803	 2.537476	 -1.153973	 -0.033458	 -0.148871	 0.802769	 -0.524902	 0.240579	 1
1463623913.853	 4	 0.006548	 0.000131	 0.006715	 2.537389	 -1.154246	 -0.033579	 -0.148880	 0.802697	 -0.525019	 0.240558	 1
1463623913.863	 4	 0.006536	 -0.000948	 0.004571	 2.537447	 -1.154461	 -0.033552	 -0.148904	 0.802646	 -0.525105	 0.240523	 1
1463623913.873	 4	 0.002261	 0.001162	 0.000363	 2.537689	 -1.154587	 -0.033349	 -0.148938	 0.802627	 -0.525149	 0.240468	 1
1463623913.883	 4	 0.000122	 0.001161	 -0.000685	 2.537972	 -1.154628	 -0.033101	 -0.148968	 0.802632	 -0.525157	 0.240416	 1
1463623913.893	 4	 -0.004157	 -0.000953	 -0.000669	 2.538267	 -1.154637	 -0.032817	 -0.149006	 0.802644	 -0.525148	 0.240371	 1
1463623913.903	 4	 -0.004167	 -0.003080	 -0.000689	 2.538365	 -1.154622	 -0.032693	 -0.149028	 0.802651	 -0.525135	 0.240366	 1
1463623913.913	 4	 -0.004295	 -0.002177	 0.000513	 2.538510	 -1.154539	 -0.032529	 -0.149045	 0.802678	 -0.525093	 0.240358	 1
1463623913.923	 4	 -0.003219	 -0.001109	 0.001579	 2.538581	 -1.154469	 -0.032452	 -0.149049	 0.802698	 -0.525061	 0.240356	 1
1463623913.933	 4	 -0.004306	 -0.003248	 -0.000563	 2.538741	 -1.154407	 -0.032272	 -0.149071	 0.802720	 -0.525027	 0.240345	 1
1463623913.943	 4	 -0.003258	 -0.006450	 -0.001668	 2.538697	 -1.154411	 -0.032256	 -0.149089	 0.802713	 -0.525023	 0.240366	 1
1463623913.953	 4	 -0.004326	 -0.007503	 -0.000602	 2.538711	 -1.154338	 -0.032162	 -0.149114	 0.802726	 -0.524983	 0.240391	 1
1463623913.963	 4	 -0.001121	 -0.007505	 0.000436	 2.538598	 -1.154296	 -0.032191	 -0.149126	 0.802726	 -0.524962	 0.240433	 1
1463623913.973	 4	 0.001032	 -0.005369	 0.002570	 2.538378	 -1.154235	 -0.032347	 -0.149114	 0.802727	 -0.524940	 0.240486	 1
1463623913.983	 4	 0.003180	 -0.004297	 0.004693	 2.538074	 -1.154179	 -0.032595	 -0.149087	 0.802723	 -0.524925	 0.240547	 1
1463623913.993	 4	 0.006409	 -0.000036	 0.006837	 2.537849	 -1.154089	 -0.032824	 -0.149042	 0.802736	 -0.524899	 0.240586	 1
1463623914.003	 4	 0.008582	 0.007411	 0.007954	 2.537647	 -1.154027	 -0.033107	 -0.148974	 0.802749	 -0.524894	 0.240598	 1
1463623914.013	 4	 0.010733	 0.008491	 0.011143	 2.537417	 -1.154011	 -0.033443	 -0.148897	 0.802751	 -0.524911	 0.240603	 1
1463623914.023	 4	 0.010732	 0.007435	 0.012199	 2.537079	 -1.153995	 -0.033884	 -0.148807	 0.802747	 -0.524932	 0.240625	 1
1463623914.033	 4	 0.010732	 0.007435	 0.012199	 2.536784	 -1.154019	 -0.034276	 -0.148730	 0.802734	 -0.524967	 0.240638	 1
1463623914.043	 4	 0.010723	 0.006364	 0.011123	 2.536544	 -1.154077	 -0.034622	 -0.148662	 0.802716	 -0.525014	 0.240638	 1
1463623914.053	 4	 0.008479	 0.008138	 0.009108	 2.536406	 -1.154172	 -0.034874	 -0.148609	 0.802694	 -0.525072	 0.240619	 1
1463623914.063	 4	 0.004210	 0.007095	 0.010200	 2.536302	 -1.154253	 -0.035085	 -0.148562	 0.802676	 -0.525122	 0.240598	 1
1463623914.073	 4	 0.004206	 0.007087	 0.009133	 2.536246	 -1.154346	 -0.035245	 -0.148525	 0.802657	 -0.525174	 0.240571	 1
1463623914.083	 4	 0.004199	 0.007072	 0.007001	 2.536227	 -1.154465	 -0.035355	 -0.148501	 0.802632	 -0.525233	 0.240539	 1
1463623914.093	 4	 0.003134	 0.008131	 0.005953	 2.536268	 -1.154602	 -0.035419	 -0.148482	 0.802606	 -0.525299	 0.240494	 1
1463623914.103	 4	 0.003133	 0.007076	 0.007007	 2.536345	 -1.154709	 -0.035448	 -0.148464	 0.802590	 -0.525350	 0.240446	 1
1463623914.113	 4	 -0.000076	 0.007070	 0.004902	 2.536488	 -1.154827	 -0.035399	 -0.148462	 0.802573	 -0.525402	 0.240391	 1
1463623914.123	 4	 -0.002224	 0.004942	 0.003834	 2.536748	 -1.154931	 -0.035217	 -0.148480	 0.802564	 -0.525441	 0.240325	 1
1463623914.133	 4	 -0.005420	 0.004960	 0.004926	 2.536972	 -1.154993	 -0.035062	 -0.148491	 0.802564	 -0.525464	 0.240270	 1
1463623914.143	 4	 -0.007602	 -0.002503	 0.001677	 2.537183	 -1.155076	 -0.034856	 -0.148529	 0.802552	 -0.525487	 0.240233	 1
1463623914.153	 4	 -0.007611	 -0.004630	 0.001656	 2.537344	 -1.155100	 -0.034656	 -0.148570	 0.802551	 -0.525485	 0.240218	 1
1463623914.163	 4	 -0.005474	 -0.006740	 0.004814	 2.537343	 -1.155105	 -0.034596	 -0.148595	 0.802545	 -0.525480	 0.240234	 1
1463623914.173	 4	 -0.006536	 -0.004617	 0.003777	 2.537483	 -1.155021	 -0.034410	 -0.148622	 0.802569	 -0.525435	 0.240234	 1
1463623914.183	 4	 -0.011864	 -0.001425	 0.001720	 2.537840	 -1.155028	 -0.034049	 -0.148674	 0.802584	 -0.525420	 0.240185	 1
1463623914.193	 4	 -0.020491	 -0.013161	 -0.006843	 2.538501	 -1.155080	 -0.033295	 -0.148810	 0.802594	 -0.525400	 0.240113	 1
1463623914.203	 4	 -0.037660	 -0.021718	 -0.020633	 2.539887	 -1.155139	 -0.031726	 -0.149083	 0.802628	 -0.525338	 0.239964	 1
1463623914.213	 4	 -0.048463	 -0.026139	 -0.048295	 2.541975	 -1.155253	 -0.029340	 -0.149507	 0.802671	 -0.525253	 0.239743	 1
1463623914.223	 4	 -0.059382	 -0.021419	 -0.083254	 2.545138	 -1.155416	 -0.025851	 -0.150097	 0.802746	 -0.525137	 0.239375	 1
1463623914.233	 4	 -0.080844	 -0.019457	 -0.115026	 2.549146	 -1.155549	 -0.021467	 -0.150821	 0.802861	 -0.524968	 0.238906	 1
1463623914.243	 4	 -0.096999	 -0.028110	 -0.141615	 2.553868	 -1.155685	 -0.016276	 -0.151683	 0.802996	 -0.524760	 0.238361	 1
1463623914.253	 4	 -0.098244	 -0.050575	 -0.159932	 2.557638	 -1.155788	 -0.011635	 -0.152570	 0.803065	 -0.524535	 0.238057	 1
1463623914.263	 4	 -0.087453	 -0.020863	 -0.165077	 2.561402	 -1.155848	 -0.007157	 -0.153388	 0.803155	 -0.524315	 0.237715	 1
1463623914.273	 4	 -0.061619	 0.019533	 -0.157464	 2.564822	 -1.156131	 -0.003446	 -0.154016	 0.803202	 -0.524250	 0.237292	 1
1463623914.283	 4	 -0.035749	 0.050501	 -0.129687	 2.567442	 -1.156389	 -0.000880	 -0.154391	 0.803247	 -0.524251	 0.236892	 1
1463623914.293	 4	 -0.022682	 0.081516	 -0.100733	 2.569639	 -1.156546	 0.000874	 -0.154538	 0.803330	 -0.524277	 0.236457	 1
1463623914.303	 4	 -0.030732	 0.150971	 -0.059509	 2.571232	 -1.155972	 0.001505	 -0.154306	 0.803620	 -0.524095	 0.236027	 1
1463623914.313	 4	 -0.051022	 0.107767	 -0.011772	 2.572576	 -1.155679	 0.001694	 -0.153995	 0.803841	 -0.524058	 0.235559	 1
1463623914.323	 4	 -0.089675	 0.025203	 0.027227	 2.574146	 -1.155068	 0.002860	 -0.153982	 0.804096	 -0.523796	 0.235280	 1
1463623914.333	 4	 -0.094159	 0.000575	 0.002522	 2.575773	 -1.154229	 0.004477	 -0.154108	 0.804383	 -0.523394	 0.235112	 1
1463623914.343	 4	 -0.107029	 0.013154	 -0.028157	 2.578014	 -1.153455	 0.006769	 -0.154354	 0.804673	 -0.522985	 0.234868	 1
1463623914.353	 4	 -0.138994	 0.047089	 -0.055277	 2.582173	 -1.152631	 0.010642	 -0.154731	 0.805077	 -0.522520	 0.234268	 1
1463623914.363	 4	 -0.157433	 0.013915	 -0.090596	 2.585812	 -1.151744	 0.014333	 -0.155166	 0.805450	 -0.522013	 0.233830	 1
1463623914.373	 4	 -0.153389	 -0.001268	 -0.129140	 2.589873	 -1.151046	 0.018844	 -0.155845	 0.805757	 -0.521519	 0.233421	 1
1463623914.383	 4	 -0.150280	 0.016379	 -0.143897	 2.594575	 -1.150505	 0.023809	 -0.156560	 0.806060	 -0.521089	 0.232858	 1
1463623914.393	 4	 -0.120487	 -0.010233	 -0.134813	 2.598555	 -1.150231	 0.028215	 -0.157269	 0.806249	 -0.520778	 0.232420	 1
1463623914.403	 4	 -0.056461	 -0.017808	 -0.126915	 2.601720	 -1.150273	 0.031882	 -0.157928	 0.806317	 -0.520618	 0.232096	 1
1463623914.413	 4	 0.006751	 0.010930	 -0.098422	 2.603896	 -1.150753	 0.034245	 -0.158366	 0.806256	 -0.520711	 0.231802	 1
1463623914.423	 4	 0.054009	 0.035594	 -0.051710	 2.604947	 -1.151459	 0.035054	 -0.158493	 0.806127	 -0.520987	 0.231543	 1
1463623914.433	 4	 0.085155	 0.049566	 -0.018808	 2.603559	 -1.152203	 0.033293	 -0.158225	 0.805909	 -0.521382	 0.231595	 1
1463623914.443	 4	 0.102360	 0.064514	 -0.003898	 2.603176	 -1.153093	 0.032203	 -0.157981	 0.805715	 -0.521839	 0.231407	 1
1463623914.453	 4	 0.101427	 0.079524	 0.012236	 2.602628	 -1.153928	 0.030774	 -0.157638	 0.805544	 -0.522299	 0.231199	 1
1463623914.463	 4	 0.095175	 0.093526	 0.033736	 2.601863	 -1.154612	 0.028945	 -0.157175	 0.805418	 -0.522727	 0.230984	 1
1463623914.473	 4	 0.097381	 0.092593	 0.052896	 2.600032	 -1.154954	 0.026043	 -0.156522	 0.805344	 -0.523057	 0.230939	 1
1463623914.483	 4	 0.107032	 0.087378	 0.070881	 2.598399	 -1.155496	 0.023290	 -0.155900	 0.805227	 -0.523467	 0.230840	 1
1463623914.493	 4	 0.118793	 0.084221	 0.080341	 2.596386	 -1.156075	 0.020153	 -0.155228	 0.805086	 -0.523906	 0.230789	 1
1463623914.503	 4	 0.132697	 0.086345	 0.085569	 2.594040	 -1.156744	 0.016671	 -0.154515	 0.804908	 -0.524397	 0.230773	 1
1463623914.513	 4	 0.134929	 0.108661	 0.083623	 2.592219	 -1.157552	 0.013492	 -0.153803	 0.804730	 -0.524949	 0.230615	 1
1463623914.523	 4	 0.136107	 0.137330	 0.077485	 2.590347	 -1.158291	 0.010036	 -0.152988	 0.804584	 -0.525502	 0.230407	 1
1463623914.533	 4	 0.140485	 0.169150	 0.067086	 2.588925	 -1.159113	 0.006731	 -0.152125	 0.804455	 -0.526105	 0.230051	 1
1463623914.543	 4	 0.131984	 0.194549	 0.046081	 2.588189	 -1.159989	 0.003869	 -0.151267	 0.804357	 -0.526730	 0.229529	 1
1463623914.553	 4	 0.119229	 0.225267	 0.023025	 2.590008	 -1.160970	 0.003187	 -0.150625	 0.804358	 -0.527341	 0.228545	 1
1463623914.563	 4	 0.103210	 0.263146	 0.005431	 2.591086	 -1.161830	 0.001576	 -0.149790	 0.804374	 -0.527952	 0.227622	 1
1463623914.573	 4	 0.088198	 0.263059	 -0.012557	 2.592809	 -1.162653	 0.000552	 -0.149016	 0.804429	 -0.528528	 0.226598	 1
1463623914.583	 4	 0.081614	 0.232170	 -0.021314	 2.594604	 -1.163473	 -0.000114	 -0.148366	 0.804465	 -0.529066	 0.225639	 1
1463623914.593	 4	 0.073993	 0.200283	 -0.021546	 2.596705	 -1.164417	 -0.000168	 -0.147894	 0.804456	 -0.529607	 0.224709	 1
1463623914.603	 4	 0.069596	 0.171592	 -0.019644	 2.598027	 -1.165127	 -0.000678	 -0.147419	 0.804453	 -0.530048	 0.223990	 1
1463623914.613	 4	 0.054545	 0.153508	 -0.026075	 2.599395	 -1.165757	 -0.000917	 -0.147031	 0.804457	 -0.530429	 0.223330	 1
1463623914.623	 4	 0.042705	 0.130158	 -0.024059	 2.600867	 -1.166462	 -0.000821	 -0.146758	 0.804427	 -0.530810	 0.222711	 1
1463623914.633	 4	 0.034147	 0.118545	 -0.015567	 2.601937	 -1.167003	 -0.000953	 -0.146481	 0.804412	 -0.531120	 0.222206	 1
1463623914.643	 4	 0.039529	 0.116502	 -0.001778	 2.602597	 -1.167435	 -0.001481	 -0.146141	 0.804409	 -0.531401	 0.221769	 1
1463623914.653	 4	 0.043809	 0.108072	 0.010896	 2.602713	 -1.167835	 -0.002491	 -0.145749	 0.804390	 -0.531682	 0.221424	 1
1463623914.663	 4	 0.045983	 0.108135	 0.020469	 2.602719	 -1.168188	 -0.003639	 -0.145325	 0.804380	 -0.531951	 0.221091	 1
1463623914.673	 4	 0.048103	 0.099665	 0.026766	 2.602580	 -1.168563	 -0.004885	 -0.144902	 0.804356	 -0.532230	 0.220787	 1
1463623914.683	 4	 0.060883	 0.086925	 0.035062	 2.602138	 -1.169063	 -0.006357	 -0.144484	 0.804281	 -0.532561	 0.220536	 1
1463623914.693	 4	 0.064005	 0.079409	 0.044563	 2.601385	 -1.169586	 -0.008070	 -0.144055	 0.804182	 -0.532905	 0.220343	 1
1463623914.703	 4	 0.067206	 0.070959	 0.054048	 2.600295	 -1.170080	 -0.010055	 -0.143603	 0.804074	 -0.533244	 0.220215	 1
1463623914.713	 4	 0.066128	 0.055124	 0.069895	 2.598829	 -1.170515	 -0.012304	 -0.143138	 0.803958	 -0.533561	 0.220171	 1
1463623914.723	 4	 0.071457	 0.038220	 0.087808	 2.596658	 -1.170980	 -0.015107	 -0.142644	 0.803796	 -0.533901	 0.220260	 1
1463623914.733	 4	 0.075736	 0.026623	 0.103648	 2.593996	 -1.171405	 -0.018302	 -0.142120	 0.803617	 -0.534234	 0.220443	 1
1463623914.743	 4	 0.082142	 0.017116	 0.115225	 2.591031	 -1.171821	 -0.021744	 -0.141577	 0.803424	 -0.534570	 0.220682	 1
1463623914.753	 4	 0.090677	 0.010755	 0.121484	 2.587754	 -1.172276	 -0.025455	 -0.141016	 0.803204	 -0.534930	 0.220969	 1
1463623914.763	 4	 0.094945	 0.002302	 0.130958	 2.584224	 -1.172680	 -0.029360	 -0.140440	 0.802982	 -0.535275	 0.221309	 1
1463623914.773	 4	 0.084261	 -0.009289	 0.141600	 2.580377	 -1.172833	 -0.033487	 -0.139831	 0.802805	 -0.535523	 0.221736	 1
1463623914.783	 4	 0.063976	 -0.021899	 0.154448	 2.576139	 -1.172652	 -0.037855	 -0.139191	 0.802687	 -0.535640	 0.222283	 1
1463623914.793	 4	 0.050112	 -0.034499	 0.171506	 2.571195	 -1.172115	 -0.042784	 -0.138472	 0.802620	 -0.535632	 0.222993	 1
1463623914.803	 4	 0.044864	 -0.030106	 0.188648	 2.565929	 -1.171229	 -0.048036	 -0.137665	 0.802626	 -0.535502	 0.223777	 1
1463623914.813	 4	 0.047102	 -0.016216	 0.198351	 2.560797	 -1.170375	 -0.053320	 -0.136811	 0.802638	 -0.535403	 0.224497	 1
1463623914.823	 4	 0.056726	 -0.007775	 0.193018	 2.555703	 -1.169778	 -0.058663	 -0.135954	 0.802585	 -0.535420	 0.225166	 1
1463623914.833	 4	 0.057809	 0.000685	 0.186693	 2.551216	 -1.169309	 -0.063516	 -0.135148	 0.802530	 -0.535477	 0.225710	 1
1463623914.843	 4	 0.061016	 -0.004589	 0.194075	 2.546744	 -1.168963	 -0.068367	 -0.134354	 0.802442	 -0.535586	 0.226238	 1
1463623914.853	 4	 0.063071	 -0.030054	 0.203409	 2.541762	 -1.168822	 -0.073530	 -0.133598	 0.802260	 -0.535782	 0.226867	 1
1463623914.863	 4	 0.055427	 -0.056708	 0.191504	 2.536692	 -1.168194	 -0.078510	 -0.132875	 0.802178	 -0.535762	 0.227627	 1
1463623914.873	 4	 0.076897	 -0.062868	 0.230693	 2.530899	 -1.167517	 -0.084113	 -0.132088	 0.802063	 -0.535750	 0.228517	 1
1463623914.883	 4	 0.112301	 -0.055250	 0.268823	 2.523944	 -1.166864	 -0.091051	 -0.131079	 0.801890	 -0.535830	 0.229513	 1
1463623914.893	 4	 0.141207	 -0.061494	 0.299421	 2.515982	 -1.166251	 -0.099065	 -0.129914	 0.801654	 -0.535991	 0.230620	 1
1463623914.903	 4	 0.171199	 -0.075087	 0.343795	 2.506731	 -1.165625	 -0.108341	 -0.128587	 0.801344	 -0.536221	 0.231907	 1
1463623914.913	 4	 0.178919	 -0.065166	 0.394977	 2.496424	 -1.164776	 -0.118796	 -0.127039	 0.801028	 -0.536446	 0.233325	 1
1463623914.923	 4	 0.171811	 -0.037071	 0.452851	 2.485432	 -1.163526	 -0.130266	 -0.125208	 0.800779	 -0.536609	 0.234790	 1
1463623914.933	 4	 0.137024	 -0.005610	 0.523787	 2.473976	 -1.161581	 -0.142603	 -0.123044	 0.800682	 -0.536595	 0.236292	 1
1463623914.943	 4	 0.099127	 0.017591	 0.627712	 2.461807	 -1.158693	 -0.156001	 -0.120490	 0.800770	 -0.536326	 0.237916	 1
1463623914.953	 4	 0.074197	 0.041048	 0.772025	 2.448092	 -1.154651	 -0.171387	 -0.117352	 0.801037	 -0.535790	 0.239786	 1
1463623914.963	 4	 0.053554	 0.066634	 0.918453	 2.432689	 -1.149410	 -0.188908	 -0.113584	 0.801461	 -0.534999	 0.241940	 1
1463623914.973	 4	 0.019976	 0.077259	 1.049932	 2.416097	 -1.142946	 -0.207968	 -0.109266	 0.802044	 -0.533922	 0.244362	 1
1463623914.983	 4	 -0.023434	 0.057976	 1.159904	 2.398626	 -1.135264	 -0.227909	 -0.104559	 0.802759	 -0.532518	 0.247123	 1
1463623914.993	 4	 -0.077849	 0.008441	 1.249462	 2.380712	 -1.126410	 -0.247941	 -0.099651	 0.803582	 -0.530746	 0.250269	 1
1463623915.003	 4	 -0.141826	 -0.031347	 1.310398	 2.362957	 -1.116489	 -0.267398	 -0.094654	 0.804512	 -0.528601	 0.253737	 1
1463623915.013	 4	 -0.215636	 -0.081010	 1.325499	 2.346227	 -1.105721	 -0.285326	 -0.089750	 0.805557	 -0.526086	 0.257404	 1
1463623915.023	 4	 -0.261049	 -0.190565	 1.306757	 2.330296	 -1.094509	 -0.301420	 -0.085200	 0.806590	 -0.523292	 0.261379	 1
1463623915.033	 4	 -0.280042	 -0.343903	 1.274588	 2.314392	 -1.083260	 -0.315968	 -0.081175	 0.807445	 -0.520366	 0.265826	 1
1463623915.043	 4	 -0.302474	 -0.539839	 1.233527	 2.298030	 -1.072042	 -0.328972	 -0.077818	 0.808049	 -0.517304	 0.270920	 1
1463623915.053	 4	 -0.314337	 -0.743377	 1.175251	 2.281157	 -1.061031	 -0.340325	 -0.075224	 0.808360	 -0.514149	 0.276670	 1
1463623915.063	 4	 -0.304686	 -0.927686	 1.137216	 2.263394	 -1.050324	 -0.350544	 -0.073308	 0.808329	 -0.510982	 0.283070	 1
1463623915.073	 4	 -0.317491	 -0.960336	 1.176457	 2.245232	 -1.039310	 -0.360435	 -0.071481	 0.808166	 -0.507707	 0.289814	 1
1463623915.083	 4	 -0.325917	 -0.942181	 1.183094	 2.227886	 -1.028010	 -0.369641	 -0.069581	 0.808028	 -0.504321	 0.296495	 1
1463623915.093	 4	 -0.297762	 -0.913051	 1.251328	 2.210409	 -1.016365	 -0.379249	 -0.067397	 0.807822	 -0.500931	 0.303233	 1
1463623915.103	 4	 -0.276391	 -0.780368	 1.369611	 2.193289	 -1.003933	 -0.389772	 -0.064490	 0.807706	 -0.497479	 0.309784	 1
1463623915.113	 4	 -0.274280	 -0.504482	 1.573588	 2.177342	 -0.989934	 -0.401816	 -0.060220	 0.807945	 -0.493816	 0.315824	 1
1463623915.123	 4	 -0.252399	 -0.254880	 1.681231	 2.163460	 -0.974724	 -0.414852	 -0.054658	 0.808581	 -0.490025	 0.321069	 1
1463623915.133	 4	 -0.221414	 -0.182144	 1.603837	 2.151157	 -0.959839	 -0.427451	 -0.048883	 0.809249	 -0.486407	 0.325783	 1
1463623915.143	 4	 -0.372720	 0.044382	 1.393045	 2.143222	 -0.946041	 -0.436613	 -0.043644	 0.810251	 -0.482784	 0.329405	 1
1463623915.153	 4	 -0.490017	 0.114488	 1.332904	 2.140160	 -0.932225	 -0.441996	 -0.038717	 0.811890	 -0.478661	 0.331993	 1
1463623915.163	 4	 -0.419072	 -0.249303	 1.356611	 2.134115	 -0.918437	 -0.447849	 -0.034289	 0.812963	 -0.474581	 0.335692	 1
1463623915.173	 4	 -0.305208	 -0.724402	 1.302173	 2.122573	 -0.905452	 -0.454676	 -0.030926	 0.812924	 -0.470890	 0.341262	 1
1463623915.183	 4	 -0.249228	 -0.985907	 1.198005	 2.108043	 -0.893673	 -0.461310	 -0.028597	 0.812101	 -0.467603	 0.347881	 1
1463623915.193	 4	 -0.277484	 -1.081654	 1.183505	 2.092861	 -0.882145	 -0.467138	 -0.026756	 0.811009	 -0.464305	 0.354921	 1
1463623915.203	 4	 -0.343457	 -1.119076	 1.276453	 2.077858	 -0.869673	 -0.472266	 -0.024847	 0.809945	 -0.460597	 0.362247	 1
1463623915.213	 4	 -0.378860	 -1.271158	 1.410698	 2.061761	 -0.855799	 -0.477394	 -0.022749	 0.808725	 -0.456426	 0.370299	 1
1463623915.223	 4	 -0.433784	 -1.482801	 1.537098	 2.043609	 -0.840537	 -0.482392	 -0.020714	 0.807130	 -0.451774	 0.379490	 1
1463623915.233	 4	 -0.565565	 -1.461384	 1.650350	 2.026056	 -0.823661	 -0.486178	 -0.018495	 0.805638	 -0.446384	 0.389032	 1
1463623915.243	 4	 -0.693448	 -1.474396	 1.711025	 2.010078	 -0.805402	 -0.488021	 -0.016223	 0.804401	 -0.440188	 0.398635	 1
1463623915.253	 4	 -0.653814	 -1.578465	 1.603135	 1.993826	 -0.787666	 -0.489174	 -0.014332	 0.802875	 -0.434067	 0.408378	 1
1463623915.263	 4	 -0.604516	 -1.956282	 1.297579	 1.975488	 -0.772565	 -0.489072	 -0.014042	 0.800490	 -0.428623	 0.418690	 1
1463623915.273	 4	 -0.562610	 -2.537278	 0.984869	 1.952776	 -0.760569	 -0.487404	 -0.016100	 0.796719	 -0.423909	 0.430442	 1
1463623915.283	 4	 -0.507752	 -3.111723	 0.700882	 1.924994	 -0.751522	 -0.484518	 -0.020467	 0.791385	 -0.419887	 0.443831	 1
1463623915.293	 4	 -0.456082	 -3.517585	 0.488832	 1.893142	 -0.744885	 -0.480948	 -0.026563	 0.784692	 -0.416427	 0.458412	 1
1463623915.303	 4	 -0.428942	 -3.792762	 0.394380	 1.858510	 -0.739622	 -0.477015	 -0.033690	 0.776965	 -0.413201	 0.473766	 1
1463623915.313	 4	 -0.417821	 -3.999540	 0.485083	 1.821587	 -0.733781	 -0.473145	 -0.040979	 0.768422	 -0.409623	 0.489957	 1
1463623915.323	 4	 -0.356790	 -4.133271	 0.695395	 1.782481	 -0.726509	 -0.470236	 -0.047773	 0.759108	 -0.405629	 0.506890	 1
1463623915.333	 4	 -0.288544	 -4.120028	 0.935788	 1.742377	 -0.717132	 -0.468398	 -0.053543	 0.749317	 -0.401093	 0.524196	 1
1463623915.343	 4	 -0.133203	 -3.926589	 1.125941	 1.702670	 -0.706075	 -0.468248	 -0.057893	 0.739375	 -0.396413	 0.541137	 1
1463623915.353	 4	 -0.110224	 -3.672713	 1.236813	 1.665203	 -0.693556	 -0.468609	 -0.060960	 0.729745	 -0.391464	 0.557236	 1
1463623915.363	 4	 -0.302171	 -3.409485	 1.230278	 1.632054	 -0.680663	 -0.466445	 -0.063807	 0.720914	 -0.385826	 0.572145	 1
1463623915.373	 4	 -0.549991	 -3.212171	 1.205496	 1.602963	 -0.668359	 -0.460958	 -0.067101	 0.712824	 -0.379520	 0.585955	 1
1463623915.383	 4	 -0.815565	 -3.199512	 1.230309	 1.577196	 -0.655487	 -0.451451	 -0.070823	 0.705351	 -0.371913	 0.599286	 1
1463623915.393	 4	 -0.947627	 -3.378786	 1.242581	 1.551085	 -0.643019	 -0.439693	 -0.075350	 0.697449	 -0.363646	 0.612902	 1
1463623915.403	 4	 -0.963705	 -3.606466	 1.226747	 1.523049	 -0.631037	 -0.427198	 -0.080443	 0.688666	 -0.355108	 0.627030	 1
1463623915.413	 4	 -0.922410	 -3.881174	 1.202516	 1.492241	 -0.619570	 -0.414757	 -0.085958	 0.678724	 -0.346497	 0.641782	 1
1463623915.423	 4	 -0.843614	 -4.146228	 1.204693	 1.458291	 -0.608426	 -0.402822	 -0.091705	 0.667480	 -0.337868	 0.657195	 1
1463623915.433	 4	 -0.762524	 -4.453179	 1.297049	 1.421008	 -0.596893	 -0.391454	 -0.097397	 0.654829	 -0.329018	 0.673394	 1
1463623915.443	 4	 -0.789350	 -4.619977	 1.458792	 1.381715	 -0.584204	 -0.379412	 -0.102887	 0.641110	 -0.319374	 0.690212	 1
1463623915.453	 4	 -1.183873	 -3.981824	 1.590728	 1.348348	 -0.571115	 -0.363289	 -0.108241	 0.628873	 -0.308365	 0.705489	 1
1463623915.463	 4	 -1.631909	 -2.916011	 1.713254	 1.328788	 -0.558326	 -0.340857	 -0.113269	 0.620919	 -0.295797	 0.717031	 1
1463623915.473	 4	 -1.624611	 -2.348488	 1.801601	 1.316729	 -0.545104	 -0.316978	 -0.117262	 0.615460	 -0.282864	 0.726255	 1
1463623915.483	 4	 -1.388806	 -2.250299	 1.943274	 1.305552	 -0.530477	 -0.294892	 -0.119871	 0.610387	 -0.270120	 0.734911	 1
1463623915.493	 4	 -1.080985	 -2.354730	 2.186879	 1.291996	 -0.513155	 -0.275472	 -0.120769	 0.604596	 -0.257368	 0.744070	 1
1463623915.503	 4	 -0.936917	 -2.359540	 2.461612	 1.277040	 -0.492876	 -0.257269	 -0.120123	 0.598354	 -0.244090	 0.753634	 1
1463623915.513	 4	 -1.001622	 -2.406090	 2.616278	 1.262087	 -0.471068	 -0.238091	 -0.118951	 0.592015	 -0.229951	 0.763211	 1
1463623915.523	 4	 -1.136229	 -2.691555	 2.651030	 1.245321	 -0.449374	 -0.217226	 -0.118292	 0.584808	 -0.215015	 0.773159	 1
1463623915.533	 4	 -1.285794	 -3.207770	 2.686961	 1.224350	 -0.428201	 -0.194417	 -0.118564	 0.575754	 -0.199135	 0.784089	 1
1463623915.543	 4	 -1.377980	 -3.722494	 2.658462	 1.198135	 -0.407965	 -0.170270	 -0.119736	 0.564408	 -0.182579	 0.796098	 1
1463623915.553	 4	 -1.444206	 -4.079542	 2.529956	 1.167787	 -0.389601	 -0.145365	 -0.121798	 0.551150	 -0.165871	 0.808632	 1
1463623915.563	 4	 -1.448806	 -4.251841	 2.382383	 1.134868	 -0.373450	 -0.120490	 -0.124467	 0.536595	 -0.149486	 0.821114	 1
1463623915.573	 4	 -1.359516	 -4.268558	 2.313241	 1.100768	 -0.358625	 -0.096245	 -0.127083	 0.521346	 -0.133516	 0.833200	 1
1463623915.583	 4	 -1.168616	 -4.102901	 2.353620	 1.067232	 -0.343694	 -0.073087	 -0.128820	 0.506202	 -0.117915	 0.844548	 1
1463623915.593	 4	 -0.863758	 -3.826391	 2.472904	 1.035294	 -0.327218	 -0.051548	 -0.128911	 0.491714	 -0.102668	 0.855019	 1
1463623915.603	 4	 -0.453670	 -3.430908	 2.613694	 1.005973	 -0.308175	 -0.032289	 -0.126762	 0.478442	 -0.087951	 0.864459	 1
1463623915.613	 4	 0.049357	 -2.989127	 2.723199	 0.979702	 -0.286028	 -0.016160	 -0.121999	 0.466692	 -0.074113	 0.872824	 1
1463623915.623	 4	 0.589699	 -2.520103	 2.791067	 0.956688	 -0.260578	 -0.003702	 -0.114493	 0.456621	 -0.061433	 0.880122	 1
1463623915.633	 4	 1.106642	 -2.004469	 2.823337	 0.937488	 -0.231978	 0.005067	 -0.104383	 0.448468	 -0.050037	 0.886272	 1
1463623915.643	 4	 1.565439	 -1.558149	 2.807509	 0.922034	 -0.200722	 0.010377	 -0.092028	 0.442149	 -0.039948	 0.891313	 1
1463623915.653	 4	 1.920603	 -1.316141	 2.736328	 0.908865	 -0.167677	 0.012652	 -0.078007	 0.436926	 -0.031093	 0.895569	 1
1463623915.663	 4	 2.234657	 -1.390146	 2.631658	 0.895243	 -0.133448	 0.012197	 -0.062738	 0.431485	 -0.023372	 0.899632	 1
1463623915.673	 4	 2.499919	 -1.623582	 2.522732	 0.879302	 -0.098279	 0.009368	 -0.046439	 0.424897	 -0.016673	 0.903896	 1
1463623915.683	 4	 2.672407	 -1.847127	 2.420034	 0.861001	 -0.062599	 0.004958	 -0.029473	 0.417049	 -0.010808	 0.908342	 1
1463623915.693	 4	 2.754547	 -2.012809	 2.339976	 0.841135	 -0.026806	 -0.000118	 -0.012210	 0.408243	 -0.005526	 0.912775	 1
1463623915.703	 4	 2.722456	 -2.237289	 2.318983	 0.819270	 0.008777	 -0.004648	 0.004951	 0.398260	 -0.000384	 0.917259	 1
1463623915.713	 4	 2.605352	 -2.404977	 2.321639	 0.795688	 0.043788	 -0.007687	 0.021671	 0.387258	 0.004939	 0.921703	 1
1463623915.723	 4	 2.386940	 -2.554309	 2.321086	 0.770564	 0.077523	 -0.008508	 0.037508	 0.375382	 0.010624	 0.926050	 1
1463623915.733	 4	 2.079918	 -2.669703	 2.271528	 0.743965	 0.108933	 -0.006722	 0.051936	 0.362752	 0.016660	 0.930288	 1
1463623915.743	 4	 1.758888	 -2.778973	 2.180586	 0.715925	 0.137311	 -0.002523	 0.064694	 0.349460	 0.022857	 0.934436	 1
1463623915.753	 4	 1.478837	 -2.782138	 2.071090	 0.687072	 0.162676	 0.003614	 0.075894	 0.335843	 0.029061	 0.938406	 1
1463623915.763	 4	 1.279309	 -2.642303	 1.913197	 0.658987	 0.185138	 0.010769	 0.085728	 0.322645	 0.034982	 0.941980	 1
1463623915.773	 4	 1.203657	 -2.436244	 1.697292	 0.632755	 0.205300	 0.017603	 0.094656	 0.310333	 0.040200	 0.945049	 1
1463623915.783	 4	 1.263083	 -2.303106	 1.453954	 0.608382	 0.224197	 0.022832	 0.103323	 0.298841	 0.044327	 0.947657	 1
1463623915.793	 4	 1.408669	 -2.249817	 1.234701	 0.585095	 0.242763	 0.025856	 0.112228	 0.287745	 0.047204	 0.949936	 1
1463623915.803	 4	 1.549056	 -2.223680	 1.082383	 0.562518	 0.261544	 0.027044	 0.121543	 0.276864	 0.049071	 0.951927	 1
1463623915.813	 4	 1.682049	 -2.243782	 1.004304	 0.540167	 0.280924	 0.027084	 0.131335	 0.265987	 0.050273	 0.953664	 1
1463623915.823	 4	 1.821368	 -2.313757	 0.980087	 0.517368	 0.301295	 0.026559	 0.141714	 0.254815	 0.051080	 0.955184	 1
1463623915.833	 4	 1.971570	 -2.363190	 0.970858	 0.494098	 0.322933	 0.025659	 0.152775	 0.243343	 0.051589	 0.956443	 1
1463623915.843	 4	 2.090248	 -2.316736	 0.971323	 0.471114	 0.345705	 0.024613	 0.164401	 0.231947	 0.051926	 0.957328	 1
1463623915.853	 4	 2.167523	 -2.233915	 0.983144	 0.448833	 0.369321	 0.023804	 0.176392	 0.220869	 0.052264	 0.957795	 1
1463623915.863	 5	 2.203206	 -2.122451	 0.967884	 0.427579	 0.393219	 0.023236	 0.188468	 0.210281	 0.052577	 0.957861	 1
1463623915.883	 5	 2.070754	 -1.838800	 0.868290	 0.389343	 0.438750	 0.022698	 0.211353	 0.191219	 0.052962	 0.957058	 1
1463623915.893	 5	 1.907817	 -1.706950	 0.797398	 0.371798	 0.459897	 0.023066	 0.221910	 0.182536	 0.053161	 0.956353	 1
1463623915.903	 5	 1.699794	 -1.617627	 0.710516	 0.355126	 0.478896	 0.023756	 0.231383	 0.174353	 0.053246	 0.955630	 1
1463623915.913	 5	 1.470185	 -1.585625	 0.630750	 0.338739	 0.495467	 0.024780	 0.239655	 0.166397	 0.053169	 0.955013	 1
1463623915.923	 5	 1.260982	 -1.543956	 0.572210	 0.322474	 0.509759	 0.026256	 0.246798	 0.158606	 0.053012	 0.954528	 1
1463623915.933	 5	 1.108282	 -1.513101	 0.512013	 0.306447	 0.522258	 0.027959	 0.253061	 0.151003	 0.052746	 0.954136	 1
1463623915.943	 5	 1.003599	 -1.487669	 0.456676	 0.290651	 0.533451	 0.029665	 0.258695	 0.143546	 0.052322	 0.953800	 1
1463623915.953	 5	 0.956499	 -1.478303	 0.409213	 0.275054	 0.543881	 0.031238	 0.263970	 0.136195	 0.051721	 0.953465	 1
1463623915.963	 5	 0.973272	 -1.493662	 0.351373	 0.259570	 0.554159	 0.032397	 0.269195	 0.128862	 0.050847	 0.953070	 1
1463623915.973	 5	 1.018780	 -1.510303	 0.275153	 0.244277	 0.564652	 0.032804	 0.274558	 0.121531	 0.049572	 0.952570	 1
1463623915.983	 5	 1.024121	 -1.463912	 0.221184	 0.229596	 0.575178	 0.032583	 0.279947	 0.114417	 0.048005	 0.951963	 1
1463623915.993	 5	 0.966072	 -1.356066	 0.255732	 0.215573	 0.585266	 0.032905	 0.285067	 0.107709	 0.046690	 0.951292	 1
1463623916.003	 5	 0.908122	 -1.179500	 0.233367	 0.202983	 0.594804	 0.033469	 0.289867	 0.101735	 0.045602	 0.950551	 1
1463623916.013	 5	 0.827135	 -0.866036	 0.159188	 0.193390	 0.603470	 0.033573	 0.294200	 0.097135	 0.044639	 0.949747	 1
1463623916.033	 6	 0.707580	 -0.147093	 0.102974	 0.186172	 0.618386	 0.032684	 0.301485	 0.093483	 0.043779	 0.947866	 1
1463623916.043	 6	 0.702879	 -0.039423	 0.134924	 0.185653	 0.625523	 0.032633	 0.304883	 0.093183	 0.043974	 0.946800	 1
1463623916.053	 6	 0.718603	 -0.081108	 0.113083	 0.185081	 0.632764	 0.032499	 0.308331	 0.092844	 0.044123	 0.945709	 1
1463623916.063	 6	 0.738171	 -0.178411	 0.050193	 0.184065	 0.640085	 0.031639	 0.311857	 0.092181	 0.043862	 0.944629	 1
1463623916.073	 6	 0.755404	 -0.321413	 -0.008838	 0.182238	 0.647481	 0.029988	 0.315466	 0.091006	 0.043098	 0.943579	 1
1463623916.083	 6	 0.745956	 -0.489648	 -0.038032	 0.179022	 0.654808	 0.027884	 0.319087	 0.089100	 0.041892	 0.942597	 1
1463623916.093	 6	 0.693093	 -0.595982	 -0.055613	 0.174622	 0.661694	 0.025683	 0.322521	 0.086620	 0.040423	 0.941723	 1
1463623916.103	 6	 0.611860	 -0.605466	 -0.076309	 0.169935	 0.667813	 0.023398	 0.325593	 0.083993	 0.038824	 0.940971	 1
1463623916.113	 6	 0.495951	 -0.561145	 -0.024797	 0.165219	 0.672904	 0.021794	 0.328146	 0.081469	 0.037491	 0.940360	 1
1463623916.123	 6	 0.422538	 -0.513075	 -0.025842	 0.160721	 0.677201	 0.020613	 0.330297	 0.079124	 0.036353	 0.939852	 1
1463623916.133	 6	 0.344643	 -0.471706	 -0.072738	 0.156826	 0.680711	 0.019128	 0.332075	 0.077019	 0.035135	 0.939447	 1
1463623916.143	 6	 0.256092	 -0.438714	 -0.105764	 0.153554	 0.683315	 0.017276	 0.333426	 0.075151	 0.033813	 0.939168	 1
1463623916.153	 6	 0.161212	 -0.448804	 -0.068796	 0.149990	 0.685017	 0.015880	 0.334336	 0.073230	 0.032620	 0.939038	 1
1463623916.163	 6	 0.093043	 -0.448368	 -0.036226	 0.145946	 0.686017	 0.015135	 0.334898	 0.071197	 0.031628	 0.939028	 1
1463623916.173	 6	 0.065558	 -0.390870	 -0.038649	 0.142246	 0.686649	 0.014537	 0.335273	 0.069355	 0.030748	 0.939061	 1
1463623916.183	 6	 0.079758	 -0.313341	 -0.048709	 0.139379	 0.687326	 0.013817	 0.335660	 0.067882	 0.029950	 0.939057	 1
1463623916.193	 6	 0.097148	 -0.244277	 -0.051415	 0.137287	 0.688175	 0.012998	 0.336117	 0.066755	 0.029241	 0.938996	 1
1463623916.203	 6	 0.116617	 -0.180592	 -0.061649	 0.135948	 0.689185	 0.012039	 0.336642	 0.065956	 0.028597	 0.938884	 1
1463623916.213	 6	 0.147794	 -0.134924	 -0.058298	 0.135146	 0.690472	 0.011021	 0.337291	 0.065397	 0.028024	 0.938708	 1
1463623916.223	 6	 0.178947	 -0.109334	 -0.037016	 0.134551	 0.692107	 0.010172	 0.338095	 0.064960	 0.027575	 0.938462	 1
1463623916.233	 6	 0.186611	 -0.088969	 -0.012381	 0.133965	 0.693931	 0.009605	 0.338977	 0.064572	 0.027266	 0.938180	 1
1463623916.243	 6	 0.169799	 -0.047319	 0.004139	 0.133567	 0.695666	 0.009305	 0.339806	 0.064319	 0.027111	 0.937902	 1
1463623916.253	 6	 0.124218	 0.008206	 0.015711	 0.133557	 0.697050	 0.009231	 0.340458	 0.064289	 0.027117	 0.937667	 1
1463623916.263	 6	 0.042212	 0.027729	 0.034724	 0.133646	 0.697723	 0.009490	 0.340764	 0.064369	 0.027274	 0.937546	 1
1463623916.273	 6	 -0.050704	 -0.011148	 0.062881	 0.133170	 0.697517	 0.010254	 0.340649	 0.064277	 0.027545	 0.937586	 1
1463623916.283	 6	 -0.141584	 -0.077624	 0.099290	 0.131692	 0.696459	 0.011610	 0.340130	 0.063825	 0.027897	 0.937795	 1
1463623916.293	 6	 -0.226185	 -0.166488	 0.131172	 0.129024	 0.694575	 0.013565	 0.339221	 0.062921	 0.028305	 0.938173	 1
1463623916.303	 6	 -0.276784	 -0.269429	 0.142378	 0.125124	 0.692117	 0.015834	 0.338053	 0.061493	 0.028639	 0.938679	 1
1463623916.313	 6	 -0.300587	 -0.330057	 0.132430	 0.120533	 0.689344	 0.018052	 0.336749	 0.059730	 0.028830	 0.939256	 1
1463623916.323	 6	 -0.288079	 -0.368596	 0.103187	 0.115758	 0.686558	 0.019938	 0.335453	 0.057818	 0.028840	 0.939838	 1
1463623916.333	 6	 -0.253210	 -0.415726	 0.071533	 0.111246	 0.683193	 0.021072	 0.333903	 0.055903	 0.028534	 0.940515	 1
1463623916.343	 6	 -0.189265	 -0.401305	 0.032743	 0.106525	 0.681146	 0.021979	 0.332982	 0.053842	 0.028125	 0.940974	 1
1463623916.353	 6	 -0.081543	 -0.130899	 -0.036019	 0.104371	 0.680080	 0.021898	 0.332513	 0.052819	 0.027704	 0.941211	 1
1463623916.363	 6	 0.014659	 0.186335	 -0.105311	 0.106292	 0.679889	 0.020743	 0.332427	 0.053532	 0.027475	 0.941208	 1
1463623916.373	 6	 0.083686	 0.337195	 -0.101311	 0.110231	 0.680483	 0.019292	 0.332692	 0.055141	 0.027462	 0.941022	 1
1463623916.383	 6	 0.076790	 0.432107	 -0.069461	 0.115083	 0.681205	 0.018174	 0.332996	 0.057234	 0.027761	 0.940780	 1
1463623916.393	 6	 0.029905	 0.413419	 -0.027671	 0.123391	 0.682593	 0.015273	 0.333619	 0.060649	 0.027819	 0.940344	 1
1463623916.403	 6	 -0.047239	 0.318181	 0.008351	 0.126816	 0.682337	 0.015313	 0.333449	 0.062268	 0.028402	 0.940281	 1
