% Gyrometer data recorded with 'snsrlog'
% 
% 
% Label description:
% 	 0: Default Label
% 	 1: still_drop
% 	 2: walk_drop
% 	 3: other
% 	 4: dtw_same
% 	 5: dtw_diff
% 	 6: delete
% 	 7: steal
% 
% Column description:
% 	 1: Seconds.milliseconds since 1970
% 	 2: Number of skipped measurements
% 	 3: Gyro X
% 	 4: Gyro Y
% 	 5: Gyro Z
% 	 6: Roll of the device
% 	 7: Pitch of the device
% 	 8: Yaw of the device
% 	 9: Quaternion X
% 	 10: Quaternion Y
% 	 11: Quaternion Z
% 	 12: Quaternion W
% 	 13: Label used for the current sample
% 
% 
1463570635.463	 0	 -1.659152	 2.182049	 -3.104971	 0.919211	 0.539767	 -0.367944	 0.313131	 0.376610	 -0.041743	 0.870845	 1
1463570635.473	 0	 -1.777903	 2.308228	 -3.060133	 0.944148	 0.504688	 -0.372688	 0.300097	 0.391513	 -0.048208	 0.868525	 1
1463570635.483	 0	 -1.656767	 2.736819	 -3.163776	 0.972482	 0.469296	 -0.377326	 0.287145	 0.407885	 -0.054544	 0.864987	 1
1463570635.493	 0	 -1.360229	 3.305844	 -3.337979	 1.006995	 0.433861	 -0.384011	 0.274973	 0.426550	 -0.061289	 0.859470	 1
1463570635.503	 0	 -0.986438	 3.734270	 -3.508835	 1.047298	 0.398607	 -0.393530	 0.263971	 0.447168	 -0.068858	 0.851833	 1
1463570635.513	 0	 -0.715259	 3.841249	 -3.607185	 1.089845	 0.363410	 -0.404849	 0.253876	 0.468340	 -0.077340	 0.842747	 1
1463570635.523	 0	 -0.567239	 3.599988	 -3.669336	 1.130523	 0.328079	 -0.416388	 0.244151	 0.488531	 -0.086615	 0.833202	 1
1463570635.533	 0	 -0.607211	 3.227328	 -3.886674	 1.167018	 0.290804	 -0.427271	 0.233745	 0.507113	 -0.097053	 0.823881	 1
1463570635.543	 0	 -0.865139	 2.768378	 -4.064549	 1.198100	 0.250547	 -0.435482	 0.221606	 0.523938	 -0.108222	 0.815271	 1
1463570635.553	 0	 -1.193362	 2.263485	 -4.152717	 1.222992	 0.207966	 -0.439748	 0.207478	 0.538709	 -0.119465	 0.807758	 1
1463570635.563	 0	 -1.530514	 1.903257	 -4.242657	 1.242857	 0.163357	 -0.440073	 0.191385	 0.551787	 -0.130514	 0.801167	 1
1463570635.573	 0	 -1.822698	 1.793961	 -4.325325	 1.260457	 0.116981	 -0.436882	 0.173599	 0.564106	 -0.141146	 0.794812	 1
1463570635.583	 0	 -2.001333	 1.969656	 -4.370094	 1.278988	 0.069508	 -0.431019	 0.154780	 0.576670	 -0.151228	 0.787798	 1
1463570635.593	 0	 -2.016445	 2.407713	 -4.396794	 1.301482	 0.021723	 -0.423732	 0.135826	 0.590379	 -0.160868	 0.779182	 1
1463570635.613	 1	 -1.558005	 3.491895	 -4.454642	 1.364284	 -0.072676	 -0.410463	 0.100790	 0.622566	 -0.180509	 0.754765	 1
1463570635.623	 1	 -1.300237	 3.691494	 -4.546685	 1.401321	 -0.119606	 -0.405545	 0.084855	 0.639585	 -0.191411	 0.739657	 1
1463570635.633	 1	 -1.137759	 3.667424	 -4.719911	 1.438821	 -0.167549	 -0.400914	 0.069066	 0.656015	 -0.203284	 0.723568	 1
1463570635.643	 1	 -1.065663	 3.470392	 -4.873711	 1.475139	 -0.216828	 -0.395591	 0.052855	 0.671244	 -0.215929	 0.707116	 1
1463570635.653	 1	 -1.079017	 3.130062	 -4.875696	 1.509096	 -0.266356	 -0.388583	 0.036151	 0.684799	 -0.228663	 0.690982	 1
1463570635.663	 1	 -1.195811	 2.715301	 -4.769831	 1.540082	 -0.314822	 -0.378759	 0.018908	 0.696450	 -0.240651	 0.675786	 1
1463570635.673	 1	 -1.267150	 2.397516	 -4.619763	 1.568909	 -0.361610	 -0.366252	 0.001404	 0.706481	 -0.251697	 0.661461	 1
1463570635.683	 1	 -1.237045	 2.283949	 -4.428179	 1.597142	 -0.406220	 -0.352187	 -0.015651	 0.715440	 -0.261986	 0.647506	 1
1463570635.693	 1	 -1.117151	 2.441220	 -4.252974	 1.627032	 -0.448635	 -0.337591	 -0.031609	 0.724102	 -0.271864	 0.633062	 1
1463570635.703	 1	 -0.859096	 2.738181	 -4.119237	 1.659937	 -0.489363	 -0.323791	 -0.045954	 0.732923	 -0.281966	 0.617421	 1
1463570635.713	 1	 -0.526295	 2.834822	 -4.005068	 1.694000	 -0.528810	 -0.311972	 -0.058602	 0.741363	 -0.292746	 0.601038	 1
1463570635.723	 1	 -0.285962	 2.580556	 -3.916805	 1.726036	 -0.567326	 -0.301638	 -0.070297	 0.748502	 -0.304016	 0.585130	 1
1463570635.733	 1	 -0.117446	 2.046655	 -3.844374	 1.753300	 -0.605129	 -0.291976	 -0.081862	 0.753612	 -0.315417	 0.570859	 1
1463570635.743	 1	 0.025935	 1.379947	 -3.762302	 1.774069	 -0.642238	 -0.282941	 -0.093680	 0.756340	 -0.326749	 0.558935	 1
1463570635.753	 1	 0.120495	 0.760265	 -3.668710	 1.788396	 -0.678547	 -0.274375	 -0.105872	 0.756851	 -0.337799	 0.549418	 1
1463570635.763	 1	 0.236182	 0.278097	 -3.523932	 1.797188	 -0.713769	 -0.266719	 -0.118134	 0.755566	 -0.348509	 0.541946	 1
1463570635.773	 1	 0.419450	 0.004983	 -3.271220	 1.801332	 -0.747143	 -0.261392	 -0.129633	 0.753002	 -0.358941	 0.536045	 1
1463570635.783	 1	 0.622272	 -0.065270	 -2.903820	 1.801966	 -0.777687	 -0.259606	 -0.139495	 0.749779	 -0.369067	 0.531190	 1
1463570635.793	 1	 0.773801	 -0.003857	 -2.440961	 1.800361	 -0.804314	 -0.261544	 -0.147159	 0.746499	 -0.378597	 0.527018	 1
1463570635.803	 1	 0.829577	 0.094218	 -1.948152	 1.797495	 -0.826344	 -0.266408	 -0.152581	 0.743549	 -0.387151	 0.523420	 1
1463570635.813	 1	 0.777264	 0.157259	 -1.489898	 1.794313	 -0.843709	 -0.272657	 -0.156154	 0.741137	 -0.394392	 0.520371	 1
1463570635.823	 1	 0.701797	 0.152585	 -1.138649	 1.790967	 -0.857172	 -0.279194	 -0.158492	 0.739161	 -0.400331	 0.517935	 1
1463570635.833	 1	 0.717694	 0.145838	 -0.889462	 1.786756	 -0.867944	 -0.286652	 -0.159867	 0.737359	 -0.405502	 0.516054	 1
1463570635.843	 1	 0.824187	 0.169202	 -0.704729	 1.781028	 -0.876931	 -0.296236	 -0.160251	 0.735560	 -0.410477	 0.514568	 1
1463570635.853	 1	 0.979549	 0.166714	 -0.545175	 1.773045	 -0.884592	 -0.308861	 -0.159613	 0.733594	 -0.415586	 0.513469	 1
1463570635.863	 1	 1.083328	 0.098347	 -0.397508	 1.762485	 -0.890896	 -0.323917	 -0.158254	 0.731332	 -0.420649	 0.512995	 1
1463570635.873	 1	 1.217991	 0.036099	 -0.273500	 1.749230	 -0.896058	 -0.341606	 -0.156211	 0.728722	 -0.425793	 0.513091	 1
1463570635.883	 1	 1.316197	 -0.064317	 -0.147398	 1.733222	 -0.900031	 -0.361607	 -0.153617	 0.725714	 -0.430938	 0.513841	 1
1463570635.893	 1	 1.329062	 -0.177078	 0.001714	 1.715144	 -0.902432	 -0.382725	 -0.150654	 0.722409	 -0.435740	 0.515324	 1
1463570635.903	 1	 1.312793	 -0.359933	 0.153623	 1.695340	 -0.903052	 -0.404033	 -0.147511	 0.718819	 -0.439956	 0.517667	 1
1463570635.913	 1	 1.212169	 -0.572155	 0.328376	 1.674094	 -0.901653	 -0.424486	 -0.144415	 0.714931	 -0.443298	 0.521061	 1
1463570635.923	 1	 1.032544	 -0.800018	 0.514328	 1.652584	 -0.898005	 -0.442483	 -0.141572	 0.710924	 -0.445399	 0.525514	 1
1463570635.933	 1	 0.763216	 -1.033001	 0.691421	 1.631812	 -0.892132	 -0.456601	 -0.139231	 0.706933	 -0.445974	 0.531007	 1
1463570635.943	 1	 0.350864	 -1.243466	 0.835865	 1.613826	 -0.884374	 -0.464412	 -0.137857	 0.703297	 -0.444603	 0.537305	 1
1463570635.953	 1	 0.064762	 -1.367242	 0.958701	 1.598446	 -0.875128	 -0.466921	 -0.137231	 0.700019	 -0.441610	 0.544170	 1
1463570635.963	 1	 -0.156208	 -1.425768	 1.012303	 1.585281	 -0.865048	 -0.465748	 -0.137072	 0.697071	 -0.437552	 0.551227	 1
1463570635.973	 1	 -0.597927	 -1.752972	 0.887344	 1.574159	 -0.855698	 -0.458747	 -0.138697	 0.694165	 -0.432220	 0.558645	 1
1463570635.983	 1	 -1.322716	 -2.478096	 0.630059	 1.564286	 -0.848770	 -0.441490	 -0.144385	 0.690653	 -0.424717	 0.567245	 1
1463570635.993	 1	 -1.875138	 -2.976175	 0.510868	 1.555440	 -0.843700	 -0.414830	 -0.153660	 0.686502	 -0.415001	 0.576956	 1
1463570636.003	 1	 -2.028550	 -2.965764	 0.564523	 1.548009	 -0.838694	 -0.384520	 -0.163814	 0.682312	 -0.404169	 0.586739	 1
1463570636.013	 1	 -1.992985	 -2.405813	 0.793234	 1.544956	 -0.831907	 -0.354177	 -0.172394	 0.679397	 -0.392998	 0.595192	 1
1463570636.023	 1	 -1.723479	 -1.838745	 1.071131	 1.545032	 -0.822360	 -0.327256	 -0.178201	 0.677849	 -0.382172	 0.602254	 1
1463570636.033	 1	 -1.426903	 -1.405853	 1.337952	 1.546303	 -0.810012	 -0.304900	 -0.181260	 0.677275	 -0.371888	 0.608393	 1
1463570636.043	 1	 -1.222096	 -1.140170	 1.536873	 1.547810	 -0.795396	 -0.286137	 -0.182283	 0.677295	 -0.361943	 0.614037	 1
1463570636.053	 1	 -1.074523	 -0.922995	 1.623935	 1.549438	 -0.779534	 -0.269986	 -0.181983	 0.677707	 -0.352341	 0.619234	 1
1463570636.063	 1	 -0.989521	 -0.513009	 1.580117	 1.553298	 -0.763771	 -0.255420	 -0.180811	 0.678962	 -0.343375	 0.623227	 1
1463570636.073	 1	 -0.810082	 0.040013	 1.498439	 1.560630	 -0.748709	 -0.243257	 -0.178516	 0.681475	 -0.335607	 0.625374	 1
1463570636.083	 1	 -0.569804	 0.592876	 1.419428	 1.571058	 -0.734362	 -0.234618	 -0.174810	 0.685229	 -0.329363	 0.625638	 1
1463570636.093	 1	 -0.496039	 1.194672	 1.274113	 1.585893	 -0.721169	 -0.228039	 -0.170142	 0.690449	 -0.324432	 0.623759	 1
1463570636.103	 1	 -0.412374	 1.434570	 1.095503	 1.603524	 -0.709669	 -0.222619	 -0.165278	 0.696487	 -0.320553	 0.620351	 1
1463570636.113	 1	 -0.310657	 1.166329	 0.961033	 1.618657	 -0.699651	 -0.218749	 -0.160843	 0.701734	 -0.317351	 0.617241	 1
1463570636.123	 1	 -0.264760	 0.542464	 0.898342	 1.627598	 -0.690412	 -0.215874	 -0.157347	 0.705072	 -0.314162	 0.615969	 1
1463570636.133	 1	 -0.316109	 -0.121429	 0.849981	 1.629986	 -0.681603	 -0.212673	 -0.155158	 0.706325	 -0.310471	 0.616960	 1
1463570636.143	 1	 -0.397233	 -0.474139	 0.726974	 1.628472	 -0.673752	 -0.208444	 -0.154259	 0.706207	 -0.306462	 0.619320	 1
1463570636.153	 1	 -0.522505	 -0.391218	 0.524210	 1.627783	 -0.667703	 -0.202597	 -0.154403	 0.706061	 -0.302600	 0.621346	 1
1463570636.163	 1	 -0.537063	 -0.116311	 0.293493	 1.629989	 -0.663907	 -0.195968	 -0.155142	 0.706560	 -0.299454	 0.622118	 1
1463570636.243	 8	 0.503581	 2.679064	 -0.576270	 1.725255	 -0.661128	 -0.190443	 -0.141856	 0.735250	 -0.303911	 0.589002	 1
1463570636.253	 8	 0.752146	 2.518241	 -0.945487	 1.747499	 -0.670757	 -0.197158	 -0.139001	 0.741302	 -0.310790	 0.578410	 1
1463570636.263	 8	 1.127190	 1.395986	 -1.107337	 1.757850	 -0.683266	 -0.207655	 -0.137392	 0.743796	 -0.318898	 0.571134	 1
1463570636.273	 8	 1.276527	 0.659904	 -1.055804	 1.757155	 -0.696253	 -0.221217	 -0.136520	 0.743264	 -0.327239	 0.567306	 1
1463570636.293	 9	 0.056113	 0.889570	 -0.679616	 1.764129	 -0.714434	 -0.232688	 -0.136769	 0.744223	 -0.337257	 0.560075	 1
1463570636.303	 9	 -0.301328	 0.739934	 -0.484993	 1.775236	 -0.719145	 -0.227975	 -0.138111	 0.746524	 -0.338340	 0.556016	 1
1463570636.313	 9	 -0.113499	 0.152382	 -0.322641	 1.780340	 -0.722576	 -0.224889	 -0.139457	 0.747374	 -0.339033	 0.554112	 1
1463570636.323	 9	 0.156180	 -0.506639	 -0.156337	 1.776123	 -0.724676	 -0.225604	 -0.140553	 0.746037	 -0.339668	 0.555247	 1
1463570636.333	 9	 0.201903	 -0.570342	 -0.122158	 1.768665	 -0.726257	 -0.228027	 -0.141407	 0.743970	 -0.340365	 0.557372	 1
1463570636.343	 9	 0.021915	 -0.397274	 -0.236214	 1.764000	 -0.728406	 -0.228455	 -0.142709	 0.742478	 -0.340896	 0.558703	 1
1463570636.353	 9	 -0.138557	 -0.401559	 -0.306616	 1.764727	 -0.758910	 -0.224183	 -0.153622	 0.739133	 -0.350265	 0.554434	 1
1463570636.363	 9	 -0.235543	 -0.608609	 -0.297041	 1.761698	 -0.761491	 -0.220511	 -0.156306	 0.737725	 -0.349897	 0.555791	 1
1463570636.373	 9	 -0.340692	 -0.776994	 -0.239075	 1.757698	 -0.763386	 -0.215606	 -0.159398	 0.736015	 -0.348865	 0.557824	 1
1463570636.383	 9	 -0.441964	 -0.800753	 -0.182995	 1.753961	 -0.764570	 -0.209365	 -0.162710	 0.734336	 -0.347225	 0.560099	 1
1463570636.393	 9	 -0.445588	 -0.736303	 -0.097103	 1.750873	 -0.764918	 -0.202899	 -0.165724	 0.732900	 -0.345276	 0.562297	 1
1463570636.413	 10	 -0.299221	 -0.422363	 -0.160467	 1.747001	 -0.765815	 -0.192840	 -0.170349	 0.730862	 -0.342422	 0.565305	 1
1463570636.423	 10	 -0.284811	 -0.280128	 -0.194439	 1.746895	 -0.767199	 -0.188504	 -0.172380	 0.730302	 -0.341661	 0.565873	 1
1463570636.433	 10	 -0.311266	 -0.243791	 -0.181082	 1.747644	 -0.768497	 -0.183901	 -0.174335	 0.729965	 -0.340868	 0.566187	 1
1463570636.443	 10	 -0.323016	 -0.300625	 -0.123107	 1.753305	 -0.781437	 -0.175516	 -0.180417	 0.729296	 -0.343441	 0.563583	 1
1463570636.453	 10	 -0.318996	 -0.398101	 -0.069696	 1.752812	 -0.781635	 -0.170889	 -0.182249	 0.728713	 -0.342160	 0.564525	 1
1463570636.473	 11	 -0.372884	 -0.375707	 -0.229948	 1.751975	 -0.783214	 -0.160581	 -0.186628	 0.727334	 -0.339711	 0.566349	 1
1463570636.483	 11	 -0.418059	 -0.304510	 -0.403677	 1.753343	 -0.786022	 -0.154016	 -0.189643	 0.726758	 -0.338947	 0.566545	 1
1463570636.493	 11	 -0.451424	 -0.232172	 -0.561510	 1.755577	 -0.790275	 -0.146923	 -0.193140	 0.726180	 -0.338619	 0.566301	 1
1463570636.503	 11	 -0.438837	 -0.167228	 -0.694236	 1.759500	 -0.795943	 -0.138880	 -0.197119	 0.725784	 -0.338683	 0.565398	 1
1463570636.513	 11	 -0.321593	 -0.127763	 -0.778019	 1.763249	 -0.802738	 -0.131773	 -0.201119	 0.725253	 -0.339401	 0.564240	 1
1463570636.523	 11	 -0.154822	 -0.053905	 -0.792639	 1.766055	 -0.810121	 -0.126802	 -0.204668	 0.724562	 -0.340842	 0.562981	 1
1463570636.533	 11	 -0.035449	 0.140385	 -0.792933	 1.769296	 -0.817340	 -0.123564	 -0.207454	 0.724169	 -0.342767	 0.561295	 1
1463570636.543	 11	 0.079625	 0.317760	 -0.780561	 1.773247	 -0.825122	 -0.121970	 -0.209679	 0.724047	 -0.345429	 0.558989	 1
1463570636.553	 11	 0.191433	 0.470773	 -0.755598	 1.777474	 -0.832926	 -0.122086	 -0.211228	 0.724159	 -0.348611	 0.556279	 1
1463570636.563	 11	 0.294501	 0.586537	 -0.737300	 1.781857	 -0.840711	 -0.123724	 -0.212177	 0.724459	 -0.352226	 0.553242	 1
1463570636.573	 11	 0.382100	 0.642332	 -0.781240	 1.785887	 -0.848964	 -0.126711	 -0.212822	 0.724722	 -0.356335	 0.550009	 1
1463570636.583	 11	 0.401098	 0.657712	 -0.852668	 1.790002	 -0.857945	 -0.129944	 -0.213560	 0.724913	 -0.360766	 0.546572	 1
1463570636.593	 11	 0.386706	 0.685283	 -1.016413	 1.794938	 -0.868272	 -0.132462	 -0.214785	 0.725036	 -0.365547	 0.542739	 1
1463570636.603	 11	 0.381231	 0.575551	 -1.190040	 1.799507	 -0.880342	 -0.134304	 -0.216807	 0.724702	 -0.370700	 0.538872	 1
1463570636.613	 11	 0.332144	 0.471476	 -1.334460	 1.804027	 -0.893882	 -0.134939	 -0.219674	 0.723968	 -0.376025	 0.534994	 1
1463570636.623	 11	 0.270283	 0.352734	 -1.453326	 1.808520	 -0.908433	 -0.134041	 -0.223361	 0.722856	 -0.381283	 0.531236	 1
1463570636.633	 11	 0.222065	 0.345139	 -1.493476	 1.813519	 -0.923398	 -0.131956	 -0.227461	 0.721623	 -0.386428	 0.527443	 1
1463570636.643	 11	 0.165250	 0.337461	 -1.548473	 1.819583	 -0.938678	 -0.128612	 -0.231854	 0.720407	 -0.391479	 0.523451	 1
1463570636.653	 11	 0.180253	 0.466179	 -1.685954	 1.827364	 -0.955148	 -0.124379	 -0.236511	 0.719260	 -0.396925	 0.518824	 1
1463570636.663	 11	 0.268837	 0.488081	 -1.709969	 1.835223	 -0.972293	 -0.120750	 -0.241056	 0.717995	 -0.402790	 0.513941	 1
1463570636.673	 11	 0.393605	 0.373665	 -1.597017	 1.840496	 -0.989019	 -0.119300	 -0.245162	 0.716311	 -0.408771	 0.509608	 1
1463570636.683	 11	 0.467813	 0.375543	 -1.454834	 1.843508	 -1.004492	 -0.120030	 -0.248561	 0.714473	 -0.414595	 0.505823	 1
1463570636.693	 11	 0.485538	 0.516921	 -1.459002	 1.847168	 -1.019812	 -0.121383	 -0.251530	 0.712853	 -0.420590	 0.501675	 1
1463570636.703	 11	 0.434611	 0.587208	 -1.467496	 1.852697	 -1.035034	 -0.121693	 -0.254412	 0.711534	 -0.426514	 0.497072	 1
1463570636.713	 11	 0.326770	 0.551567	 -1.439179	 1.859562	 -1.049945	 -0.120333	 -0.257470	 0.710326	 -0.432087	 0.492390	 1
1463570636.723	 11	 0.226077	 0.423581	 -1.381942	 1.867014	 -1.064019	 -0.117035	 -0.260809	 0.709097	 -0.436987	 0.488060	 1
1463570636.733	 11	 0.140020	 0.296048	 -1.402628	 1.874678	 -1.077750	 -0.111919	 -0.264598	 0.707673	 -0.441376	 0.484121	 1
1463570636.743	 11	 0.156745	 0.223660	 -1.404513	 1.882521	 -1.091626	 -0.105733	 -0.268705	 0.706045	 -0.445605	 0.480349	 1
1463570636.753	 11	 0.148015	 0.075707	 -1.276856	 1.888735	 -1.104568	 -0.100115	 -0.272674	 0.704209	 -0.449460	 0.477204	 1
1463570636.763	 11	 0.175987	 0.177264	 -1.341166	 1.895476	 -1.117633	 -0.094317	 -0.276569	 0.702383	 -0.453405	 0.473911	 1
1463570636.773	 11	 0.110430	 0.297719	 -1.330948	 1.904515	 -1.130802	 -0.087200	 -0.280375	 0.700820	 -0.457419	 0.470116	 1
1463570636.783	 11	 0.023015	 0.374948	 -1.130171	 1.915950	 -1.142159	 -0.078635	 -0.283614	 0.699911	 -0.460857	 0.466153	 1
1463570636.793	 11	 0.051625	 0.280473	 -0.799847	 1.924946	 -1.150637	 -0.072166	 -0.285910	 0.699275	 -0.463501	 0.463074	 1
1463570636.813	 12	 0.222677	 0.072621	 -0.206444	 1.927382	 -1.159043	 -0.072530	 -0.287294	 0.698080	 -0.466776	 0.460724	 1
1463570636.823	 12	 0.282732	 0.029743	 -0.081606	 1.922816	 -1.161004	 -0.077932	 -0.286961	 0.697380	 -0.468026	 0.460723	 1
1463570636.843	 13	 0.272792	 0.013175	 0.122953	 1.909721	 -1.162066	 -0.092623	 -0.285179	 0.696235	 -0.469897	 0.461657	 1
1463570636.853	 13	 0.211197	 0.008629	 0.204445	 1.903484	 -1.161064	 -0.099519	 -0.283991	 0.695988	 -0.470268	 0.462383	 1
1463570636.863	 13	 0.157150	 0.044271	 0.257469	 1.898272	 -1.159282	 -0.105545	 -0.282667	 0.696010	 -0.470333	 0.463094	 1
1463570636.873	 13	 0.115938	 0.126329	 0.262855	 1.894687	 -1.157180	 -0.110616	 -0.281207	 0.696333	 -0.470308	 0.463523	 1
1463570636.883	 13	 0.087279	 0.187853	 0.228507	 1.892707	 -1.155216	 -0.114699	 -0.279747	 0.696855	 -0.470327	 0.463603	 1
1463570636.893	 13	 0.070781	 0.185957	 0.107136	 1.891994	 -1.154075	 -0.117572	 -0.278619	 0.697326	 -0.470517	 0.463380	 1
1463570636.903	 13	 0.070792	 0.123934	 -0.085279	 1.892163	 -1.154659	 -0.118914	 -0.278262	 0.697432	 -0.471044	 0.462900	 1
1463570636.913	 13	 0.103675	 0.131912	 -0.145174	 1.892362	 -1.156315	 -0.120017	 -0.278257	 0.697289	 -0.471873	 0.462273	 1
1463570636.923	 13	 0.104028	 0.187385	 -0.122279	 1.892705	 -1.157865	 -0.121583	 -0.278030	 0.697266	 -0.472793	 0.461505	 1
1463570636.933	 13	 0.056073	 0.175005	 -0.089934	 1.894472	 -1.152068	 -0.121782	 -0.276049	 0.698897	 -0.471172	 0.461884	 1
1463570636.943	 13	 -0.004918	 0.087367	 -0.026273	 1.895668	 -1.152493	 -0.121678	 -0.275913	 0.699071	 -0.471453	 0.461414	 1
1463570636.953	 13	 -0.022149	 0.031244	 0.001065	 1.896577	 -1.152460	 -0.121159	 -0.275872	 0.699216	 -0.471448	 0.461225	 1
1463570636.963	 13	 -0.024479	 -0.013393	 0.004933	 1.897035	 -1.152346	 -0.120633	 -0.275918	 0.699273	 -0.471352	 0.461209	 1
1463570636.973	 13	 -0.033214	 -0.054855	 0.004573	 1.897281	 -1.156952	 -0.119875	 -0.277309	 0.698273	 -0.472733	 0.460476	 1
1463570636.983	 13	 -0.041893	 -0.079340	 -0.001974	 1.897380	 -1.156824	 -0.118953	 -0.277575	 0.698194	 -0.472492	 0.460683	 1
1463570636.993	 13	 -0.047268	 -0.075177	 -0.016809	 1.897693	 -1.156800	 -0.117761	 -0.277911	 0.698106	 -0.472253	 0.460859	 1
1463570637.003	 13	 -0.042928	 -0.043427	 -0.036801	 1.898377	 -1.156952	 -0.116435	 -0.278251	 0.698047	 -0.472093	 0.460906	 1
1463570637.013	 13	 -0.025805	 -0.002217	 -0.069665	 1.906088	 -1.162013	 -0.109059	 -0.280293	 0.697734	 -0.473149	 0.459058	 1
1463570637.023	 13	 -0.011902	 0.027323	 -0.097221	 1.907308	 -1.162822	 -0.107959	 -0.280594	 0.697689	 -0.473336	 0.458749	 1
1463570637.033	 13	 -0.014066	 0.032548	 -0.111008	 1.908727	 -1.163798	 -0.106762	 -0.280923	 0.697640	 -0.473584	 0.458365	 1
1463570637.043	 13	 -0.025854	 0.018786	 -0.106770	 1.910299	 -1.164750	 -0.105308	 -0.281299	 0.697595	 -0.473788	 0.457993	 1
1463570637.053	 13	 -0.036564	 -0.009785	 -0.087701	 1.903365	 -1.161428	 -0.111404	 -0.279971	 0.697559	 -0.473112	 0.459556	 1
1463570637.063	 13	 -0.040865	 -0.041466	 -0.058117	 1.904414	 -1.161913	 -0.109896	 -0.280373	 0.697487	 -0.473073	 0.459461	 1
1463570637.073	 13	 -0.040855	 -0.061483	 -0.031659	 1.905030	 -1.162125	 -0.108595	 -0.280734	 0.697402	 -0.472931	 0.459517	 1
1463570637.083	 13	 -0.040811	 -0.077222	 -0.001965	 1.905255	 -1.162081	 -0.107560	 -0.281031	 0.697317	 -0.472710	 0.459691	 1
1463570637.093	 13	 -0.035434	 -0.084570	 0.015011	 1.901234	 -1.158959	 -0.110362	 -0.280209	 0.697440	 -0.471756	 0.460985	 1
1463570637.103	 13	 -0.031099	 -0.077084	 0.022530	 1.900111	 -1.156521	 -0.110556	 -0.279784	 0.697717	 -0.470836	 0.461764	 1
1463570637.113	 13	 -0.028889	 -0.064293	 0.026909	 1.900249	 -1.154716	 -0.109740	 -0.279575	 0.698011	 -0.470069	 0.462228	 1
1463570637.123	 13	 -0.029877	 -0.050439	 0.030243	 1.900133	 -1.154345	 -0.109286	 -0.279666	 0.697998	 -0.469825	 0.462440	 1
1463570637.133	 13	 -0.034099	 -0.041899	 0.032500	 1.900647	 -1.153108	 -0.108330	 -0.279563	 0.698240	 -0.469265	 0.462705	 1
1463570637.143	 13	 -0.037289	 -0.037649	 0.030440	 1.900992	 -1.152288	 -0.107570	 -0.279538	 0.698385	 -0.468865	 0.462907	 1
1463570637.153	 13	 -0.038359	 -0.035542	 0.027271	 1.901286	 -1.151951	 -0.106861	 -0.279630	 0.698424	 -0.468630	 0.463030	 1
1463570637.163	 13	 -0.038385	 -0.036645	 0.021933	 1.901187	 -1.151599	 -0.106499	 -0.279690	 0.698424	 -0.468415	 0.463211	 1
1463570637.173	 13	 -0.034126	 -0.038786	 0.021876	 1.901388	 -1.151272	 -0.105860	 -0.279783	 0.698449	 -0.468187	 0.463348	 1
1463570637.183	 13	 -0.030916	 -0.038780	 0.023980	 1.901530	 -1.150945	 -0.105292	 -0.279864	 0.698471	 -0.467966	 0.463489	 1
1463570637.193	 13	 -0.023441	 -0.036683	 0.022868	 1.901507	 -1.150642	 -0.104898	 -0.279930	 0.698473	 -0.467771	 0.463643	 1
1463570637.203	 13	 -0.018081	 -0.032436	 0.023925	 1.901472	 -1.150455	 -0.104573	 -0.280004	 0.698459	 -0.467628	 0.463764	 1
1463570637.213	 13	 -0.013806	 -0.029273	 0.021786	 1.901322	 -1.150191	 -0.104410	 -0.280029	 0.698456	 -0.467482	 0.463901	 1
1463570637.223	 13	 -0.010598	 -0.023993	 0.017542	 1.901781	 -1.150040	 -0.103750	 -0.280114	 0.698502	 -0.467343	 0.463921	 1
1463570637.233	 13	 -0.012710	 -0.016564	 0.014430	 1.901871	 -1.150029	 -0.103470	 -0.280187	 0.698486	 -0.467287	 0.463957	 1
1463570637.243	 13	 -0.019106	 -0.014426	 0.013440	 1.901806	 -1.149833	 -0.103341	 -0.280198	 0.698493	 -0.467182	 0.464044	 1
1463570637.253	 13	 -0.022305	 -0.014419	 0.013469	 1.901297	 -1.149696	 -0.103613	 -0.280187	 0.698442	 -0.467129	 0.464183	 1
1463570637.263	 13	 -0.020189	 -0.020797	 0.015523	 1.900329	 -1.149603	 -0.104260	 -0.280163	 0.698327	 -0.467112	 0.464386	 1
1463570637.273	 13	 -0.021258	 -0.023974	 0.017637	 1.899180	 -1.149342	 -0.105042	 -0.280092	 0.698224	 -0.467046	 0.464650	 1
1463570637.283	 13	 -0.019133	 -0.030335	 0.021826	 1.898117	 -1.148969	 -0.105700	 -0.280015	 0.698147	 -0.466926	 0.464933	 1
1463570637.293	 13	 -0.018090	 -0.036714	 0.022826	 1.897486	 -1.148590	 -0.105906	 -0.279993	 0.698108	 -0.466760	 0.465172	 1
1463570637.303	 13	 -0.019148	 -0.035640	 0.023912	 1.897325	 -1.148240	 -0.105682	 -0.280020	 0.698111	 -0.466569	 0.465342	 1
1463570637.313	 13	 -0.021281	 -0.032465	 0.020762	 1.897507	 -1.147972	 -0.105158	 -0.280091	 0.698136	 -0.466383	 0.465448	 1
1463570637.323	 13	 -0.022319	 -0.027135	 0.021885	 1.897624	 -1.147789	 -0.104733	 -0.280166	 0.698142	 -0.466240	 0.465538	 1
1463570637.333	 13	 -0.022308	 -0.022895	 0.019791	 1.897918	 -1.147604	 -0.104184	 -0.280241	 0.698171	 -0.466092	 0.465596	 1
1463570637.343	 13	 -0.019096	 -0.019721	 0.018727	 1.898140	 -1.147344	 -0.103741	 -0.280278	 0.698215	 -0.465933	 0.465668	 1
1463570637.353	 13	 -0.018032	 -0.016563	 0.014482	 1.898549	 -1.147261	 -0.103163	 -0.280363	 0.698246	 -0.465828	 0.465674	 1
1463570637.363	 13	 -0.015867	 -0.008075	 0.012409	 1.898987	 -1.147151	 -0.102623	 -0.280421	 0.698296	 -0.465727	 0.465666	 1
1463570637.373	 13	 -0.014776	 -0.002759	 0.012449	 1.899379	 -1.146912	 -0.102188	 -0.280421	 0.698375	 -0.465602	 0.465672	 1
1463570637.383	 13	 -0.011537	 0.002573	 0.015669	 1.899532	 -1.146638	 -0.102034	 -0.280369	 0.698447	 -0.465496	 0.465703	 1
1463570637.393	 13	 -0.008345	 0.001493	 0.014567	 1.899693	 -1.146364	 -0.101897	 -0.280310	 0.698522	 -0.465395	 0.465727	 1
1463570637.403	 13	 -0.007292	 -0.000646	 0.013472	 1.899746	 -1.146247	 -0.101841	 -0.280287	 0.698550	 -0.465351	 0.465742	 1
1463570637.413	 13	 -0.007299	 -0.002765	 0.014517	 1.899861	 -1.146149	 -0.101707	 -0.280282	 0.698579	 -0.465303	 0.465750	 1
1463570637.423	 13	 -0.008363	 -0.002753	 0.015590	 1.900264	 -1.146029	 -0.101306	 -0.280298	 0.698641	 -0.465226	 0.465723	 1
1463570637.433	 13	 -0.007306	 -0.002771	 0.013447	 1.900510	 -1.145949	 -0.101047	 -0.280311	 0.698679	 -0.465174	 0.465711	 1
1463570637.443	 13	 -0.007261	 -0.001587	 0.015410	 1.900485	 -1.145893	 -0.101039	 -0.280305	 0.698684	 -0.465149	 0.465732	 1
1463570637.453	 13	 -0.006196	 0.000515	 0.012221	 1.900673	 -1.145925	 -0.100854	 -0.280334	 0.698695	 -0.465143	 0.465704	 1
1463570637.463	 13	 -0.006192	 0.001579	 0.012228	 1.901061	 -1.145960	 -0.100513	 -0.280372	 0.698730	 -0.465130	 0.465641	 1
1463570637.473	 13	 -0.006189	 0.002644	 0.012236	 1.901523	 -1.145930	 -0.100113	 -0.280396	 0.698788	 -0.465092	 0.465578	 1
1463570637.483	 13	 -0.007244	 0.003728	 0.014385	 1.902126	 -1.145839	 -0.099590	 -0.280416	 0.698874	 -0.465024	 0.465505	 1
1463570637.493	 13	 -0.007261	 0.000538	 0.014353	 1.902582	 -1.145766	 -0.099182	 -0.280434	 0.698938	 -0.464969	 0.465453	 1
1463570637.503	 13	 -0.007278	 -0.003708	 0.015378	 1.903047	 -1.145651	 -0.098725	 -0.280456	 0.699006	 -0.464889	 0.465417	 1
1463570637.523	 14	 -0.011585	 -0.012195	 0.016400	 1.903587	 -1.145396	 -0.098042	 -0.280505	 0.699089	 -0.464721	 0.465431	 1
1463570637.533	 14	 -0.010509	 -0.010070	 0.016408	 1.903859	 -1.145362	 -0.097681	 -0.280559	 0.699109	 -0.464663	 0.465426	 1
1463570637.543	 14	 -0.009456	 -0.011152	 0.014254	 1.904198	 -1.145398	 -0.097256	 -0.280638	 0.699121	 -0.464624	 0.465400	 1
1463570637.553	 14	 -0.010528	 -0.011156	 0.013194	 1.904509	 -1.145451	 -0.096851	 -0.280720	 0.699125	 -0.464591	 0.465376	 1
1463570637.563	 14	 -0.011605	 -0.012223	 0.012124	 1.904787	 -1.145500	 -0.096459	 -0.280806	 0.699124	 -0.464556	 0.465362	 1
1463570637.573	 14	 -0.014824	 -0.012244	 0.007886	 1.905063	 -1.145543	 -0.096052	 -0.280895	 0.699123	 -0.464514	 0.465352	 1
1463570637.583	 14	 -0.016984	 -0.018612	 0.008910	 1.905211	 -1.145537	 -0.095703	 -0.280980	 0.699109	 -0.464451	 0.465382	 1
1463570637.593	 14	 -0.018071	 -0.023920	 0.009934	 1.905101	 -1.145514	 -0.095539	 -0.281058	 0.699065	 -0.464390	 0.465463	 1
1463570637.603	 14	 -0.019162	 -0.028180	 0.008837	 1.905057	 -1.145501	 -0.095276	 -0.281157	 0.699021	 -0.464318	 0.465542	 1
1463570637.613	 14	 -0.018085	 -0.027112	 0.009902	 1.905030	 -1.145406	 -0.094992	 -0.281238	 0.698995	 -0.464217	 0.465634	 1
1463570637.623	 14	 -0.019137	 -0.023918	 0.009940	 1.905085	 -1.145331	 -0.094654	 -0.281324	 0.698976	 -0.464121	 0.465706	 1
1463570637.643	 15	 -0.019097	 -0.016464	 0.011074	 1.905397	 -1.145047	 -0.093894	 -0.281445	 0.699001	 -0.463893	 0.465822	 1
1463570637.653	 15	 -0.018015	 -0.012220	 0.010038	 1.905761	 -1.144857	 -0.093391	 -0.281489	 0.699054	 -0.463763	 0.465844	 1
1463570637.663	 15	 -0.014793	 -0.007975	 0.010050	 1.905913	 -1.144730	 -0.093122	 -0.281515	 0.699078	 -0.463679	 0.465876	 1
1463570637.673	 15	 -0.010499	 -0.002670	 0.010062	 1.905932	 -1.144582	 -0.093034	 -0.281504	 0.699101	 -0.463612	 0.465915	 1
1463570637.683	 15	 -0.009417	 -0.000538	 0.011138	 1.905977	 -1.144472	 -0.092957	 -0.281493	 0.699124	 -0.463563	 0.465936	 1
1463570637.693	 15	 -0.007287	 -0.001609	 0.011109	 1.905863	 -1.144405	 -0.093033	 -0.281476	 0.699122	 -0.463542	 0.465970	 1
1463570637.703	 15	 -0.007305	 -0.003752	 0.008956	 1.905921	 -1.144352	 -0.092945	 -0.281480	 0.699134	 -0.463513	 0.465979	 1
1463570637.713	 15	 -0.005170	 -0.002703	 0.007881	 1.905877	 -1.144345	 -0.092941	 -0.281489	 0.699125	 -0.463503	 0.465996	 1
1463570637.723	 15	 -0.003043	 -0.001669	 0.004673	 1.905864	 -1.144353	 -0.092921	 -0.281501	 0.699118	 -0.463499	 0.466004	 1
1463570637.733	 15	 0.001230	 -0.001674	 0.005701	 1.905790	 -1.144386	 -0.092986	 -0.281504	 0.699103	 -0.463515	 0.466010	 1
1463570637.743	 15	 0.004450	 0.001515	 0.006767	 1.905823	 -1.144368	 -0.092988	 -0.281491	 0.699114	 -0.463514	 0.466000	 1
1463570637.753	 15	 0.005543	 0.002615	 0.012097	 1.905878	 -1.144250	 -0.093001	 -0.281444	 0.699154	 -0.463485	 0.465998	 1
1463570637.763	 15	 0.006632	 0.006875	 0.013193	 1.905997	 -1.144118	 -0.092989	 -0.281387	 0.699208	 -0.463455	 0.465982	 1
1463570637.773	 15	 0.006639	 0.005835	 0.016381	 1.905981	 -1.143927	 -0.093109	 -0.281301	 0.699260	 -0.463417	 0.465993	 1
1463570637.783	 15	 0.006641	 0.004788	 0.018504	 1.905902	 -1.143700	 -0.093277	 -0.281202	 0.699313	 -0.463369	 0.466021	 1
1463570637.793	 15	 0.003434	 0.002678	 0.019578	 1.905730	 -1.143506	 -0.093508	 -0.281112	 0.699346	 -0.463334	 0.466061	 1
1463570637.803	 15	 0.001291	 0.001612	 0.018520	 1.905454	 -1.143381	 -0.093811	 -0.281039	 0.699351	 -0.463323	 0.466109	 1
1463570637.813	 15	 0.001277	 0.000533	 0.016376	 1.905373	 -1.143393	 -0.093918	 -0.281023	 0.699344	 -0.463341	 0.466111	 1
1463570637.823	 15	 0.000211	 0.001593	 0.015328	 1.905351	 -1.143308	 -0.093971	 -0.280988	 0.699364	 -0.463322	 0.466121	 1
1463570637.833	 15	 -0.000858	 0.001596	 0.015336	 1.905454	 -1.143192	 -0.093914	 -0.280955	 0.699404	 -0.463284	 0.466118	 1
1463570637.843	 15	 -0.000854	 0.001605	 0.016401	 1.905523	 -1.143093	 -0.093885	 -0.280924	 0.699437	 -0.463254	 0.466118	 1
1463570637.853	 15	 -0.000863	 0.001590	 0.014268	 1.905574	 -1.142996	 -0.093871	 -0.280892	 0.699467	 -0.463225	 0.466120	 1
1463570637.863	 15	 -0.000870	 -0.000529	 0.015312	 1.905732	 -1.142926	 -0.093746	 -0.280882	 0.699501	 -0.463195	 0.466106	 1
1463570637.873	 15	 0.001246	 -0.002678	 0.013140	 1.905677	 -1.142918	 -0.093799	 -0.280874	 0.699497	 -0.463197	 0.466114	 1
1463570637.883	 15	 0.005500	 -0.003770	 0.010958	 1.905652	 -1.142940	 -0.093818	 -0.280879	 0.699490	 -0.463205	 0.466115	 1
1463570637.893	 15	 0.005501	 -0.001657	 0.008844	 1.905595	 -1.142976	 -0.093886	 -0.280877	 0.699478	 -0.463225	 0.466112	 1
1463570637.903	 15	 0.005499	 -0.002712	 0.009897	 1.905589	 -1.143013	 -0.093904	 -0.280881	 0.699472	 -0.463241	 0.466104	 1
1463570637.913	 15	 0.005495	 -0.002720	 0.008829	 1.905458	 -1.143073	 -0.094037	 -0.280881	 0.699447	 -0.463273	 0.466109	 1
1463570637.923	 15	 0.003364	 -0.003762	 0.010967	 1.905355	 -1.143080	 -0.094129	 -0.280874	 0.699435	 -0.463283	 0.466122	 1
1463570637.933	 15	 0.001220	 -0.005882	 0.010965	 1.905286	 -1.143051	 -0.094161	 -0.280871	 0.699429	 -0.463271	 0.466144	 1
1463570637.943	 15	 0.001196	 -0.012248	 0.013036	 1.905350	 -1.142970	 -0.094020	 -0.280885	 0.699441	 -0.463220	 0.466168	 1
1463570637.953	 15	 -0.000959	 -0.015439	 0.011958	 1.905369	 -1.142887	 -0.093879	 -0.280909	 0.699443	 -0.463162	 0.466208	 1
1463570637.963	 15	 -0.004167	 -0.016492	 0.011975	 1.905464	 -1.142802	 -0.093650	 -0.280946	 0.699451	 -0.463093	 0.466243	 1
1463570637.973	 15	 -0.008432	 -0.016471	 0.013076	 1.905516	 -1.142742	 -0.093450	 -0.280988	 0.699448	 -0.463034	 0.466281	 1
1463570637.983	 15	 -0.010573	 -0.018584	 0.014139	 1.905530	 -1.142669	 -0.093253	 -0.281036	 0.699438	 -0.462965	 0.466335	 1
1463570637.993	 15	 -0.010591	 -0.020727	 0.011985	 1.905477	 -1.142635	 -0.093097	 -0.281094	 0.699411	 -0.462910	 0.466395	 1
1463570638.003	 15	 -0.008476	 -0.023932	 0.010867	 1.905478	 -1.142667	 -0.092863	 -0.281184	 0.699372	 -0.462866	 0.466444	 1
1463570638.013	 15	 -0.009542	 -0.021816	 0.008763	 1.905519	 -1.142643	 -0.092594	 -0.281262	 0.699349	 -0.462802	 0.466496	 1
1463570638.023	 15	 -0.009520	 -0.014393	 0.005632	 1.905661	 -1.142643	 -0.092290	 -0.281335	 0.699339	 -0.462751	 0.466516	 1
1463570638.033	 15	 -0.007363	 -0.008033	 0.003539	 1.905715	 -1.142684	 -0.092128	 -0.281390	 0.699320	 -0.462734	 0.466528	 1
1463570638.043	 15	 -0.000948	 -0.005926	 0.003503	 1.905405	 -1.142667	 -0.092347	 -0.281381	 0.699282	 -0.462736	 0.466588	 1
1463570638.053	 15	 0.002249	 -0.008056	 0.004521	 1.905024	 -1.142643	 -0.092633	 -0.281363	 0.699238	 -0.462741	 0.466660	 1
1463570638.063	 15	 0.006522	 -0.009118	 0.006606	 1.904655	 -1.142589	 -0.092913	 -0.281336	 0.699203	 -0.462736	 0.466733	 1
1463570638.073	 15	 0.008679	 -0.005918	 0.008749	 1.904406	 -1.142499	 -0.093119	 -0.281299	 0.699193	 -0.462719	 0.466788	 1
1463570638.083	 15	 0.006559	 -0.003776	 0.009853	 1.904186	 -1.142437	 -0.093321	 -0.281264	 0.699183	 -0.462715	 0.466829	 1
1463570638.093	 15	 0.006539	 -0.008031	 0.009814	 1.903918	 -1.142350	 -0.093539	 -0.281228	 0.699169	 -0.462699	 0.466887	 1
1463570638.103	 15	 0.005481	 -0.005900	 0.009842	 1.903776	 -1.142313	 -0.093645	 -0.281214	 0.699158	 -0.462691	 0.466919	 1
1463570638.113	 15	 0.003353	 -0.003774	 0.008812	 1.903672	 -1.142341	 -0.093729	 -0.281216	 0.699140	 -0.462705	 0.466931	 1
1463570638.123	 15	 0.001220	 -0.001656	 0.006717	 1.903532	 -1.142360	 -0.093846	 -0.281212	 0.699120	 -0.462719	 0.466949	 1
1463570638.133	 15	 0.002298	 -0.000588	 0.007782	 1.903416	 -1.142396	 -0.093968	 -0.281206	 0.699102	 -0.462744	 0.466955	 1
1463570638.143	 15	 0.004447	 0.000485	 0.009902	 1.903219	 -1.142457	 -0.094180	 -0.281193	 0.699074	 -0.462786	 0.466965	 1
1463570638.153	 15	 0.005494	 -0.002717	 0.008795	 1.903085	 -1.142464	 -0.094313	 -0.281179	 0.699060	 -0.462800	 0.466980	 1
1463570638.163	 15	 0.004412	 -0.005905	 0.008774	 1.902937	 -1.142431	 -0.094430	 -0.281164	 0.699048	 -0.462796	 0.467010	 1
1463570638.173	 15	 0.002281	 -0.005890	 0.009858	 1.902889	 -1.142373	 -0.094446	 -0.281155	 0.699051	 -0.462774	 0.467033	 1
1463570638.183	 15	 0.002285	 -0.005882	 0.010923	 1.902773	 -1.142314	 -0.094516	 -0.281142	 0.699046	 -0.462754	 0.467068	 1
1463570638.193	 15	 0.001188	 -0.010148	 0.008759	 1.902748	 -1.142275	 -0.094479	 -0.281151	 0.699043	 -0.462729	 0.467092	 1
1463570638.203	 15	 0.000130	 -0.008017	 0.008787	 1.902685	 -1.142247	 -0.094474	 -0.281160	 0.699034	 -0.462709	 0.467120	 1
1463570638.213	 15	 0.001212	 -0.004829	 0.008805	 1.902618	 -1.142238	 -0.094502	 -0.281163	 0.699024	 -0.462703	 0.467138	 1
1463570638.223	 15	 0.003368	 -0.000581	 0.008824	 1.902439	 -1.142252	 -0.094668	 -0.281150	 0.699003	 -0.462722	 0.467160	 1
1463570638.233	 15	 0.006583	 0.001544	 0.009880	 1.902324	 -1.142241	 -0.094821	 -0.281121	 0.699000	 -0.462737	 0.467167	 1
1463570638.243	 15	 0.009814	 0.005805	 0.012022	 1.902117	 -1.142229	 -0.095105	 -0.281066	 0.698994	 -0.462771	 0.467175	 1
1463570638.253	 15	 0.009788	 0.000487	 0.011971	 1.901934	 -1.142224	 -0.095344	 -0.281023	 0.698986	 -0.462799	 0.467185	 1
1463570638.263	 15	 0.005510	 -0.000571	 0.010929	 1.901889	 -1.142258	 -0.095423	 -0.281015	 0.698979	 -0.462823	 0.467176	 1
1463570638.273	 15	 0.003354	 -0.001659	 0.006671	 1.901819	 -1.142363	 -0.095498	 -0.281032	 0.698951	 -0.462866	 0.467165	 1
1463570638.283	 15	 0.002286	 -0.001655	 0.006677	 1.901792	 -1.142446	 -0.095524	 -0.281050	 0.698932	 -0.462896	 0.467154	 1
1463570638.293	 15	 -0.000910	 -0.000582	 0.006712	 1.901869	 -1.142481	 -0.095463	 -0.281063	 0.698934	 -0.462904	 0.467136	 1
1463570638.303	 15	 -0.000918	 -0.000597	 0.004577	 1.901916	 -1.142563	 -0.095422	 -0.281087	 0.698922	 -0.462928	 0.467114	 1
1463570638.313	 15	 -0.000909	 0.000475	 0.005650	 1.902028	 -1.142617	 -0.095327	 -0.281108	 0.698923	 -0.462940	 0.467088	 1
1463570638.323	 15	 0.002311	 0.002608	 0.007771	 1.901993	 -1.142657	 -0.095398	 -0.281101	 0.698917	 -0.462965	 0.467077	 1
1463570638.333	 15	 0.004458	 0.003682	 0.009891	 1.902048	 -1.142685	 -0.095401	 -0.281095	 0.698924	 -0.462983	 0.467052	 1
1463570638.343	 15	 0.004449	 0.002611	 0.008812	 1.902067	 -1.142736	 -0.095443	 -0.281088	 0.698924	 -0.463012	 0.467027	 1
1463570638.353	 15	 0.000169	 -0.000559	 0.009882	 1.902154	 -1.142763	 -0.095392	 -0.281093	 0.698932	 -0.463022	 0.467004	 1
1463570638.363	 15	 0.000144	 -0.004821	 0.008773	 1.902172	 -1.142815	 -0.095355	 -0.281115	 0.698920	 -0.463033	 0.466997	 1
1463570638.373	 15	 0.000133	 -0.006947	 0.008749	 1.902286	 -1.142874	 -0.095201	 -0.281158	 0.698912	 -0.463033	 0.466982	 1
1463570638.383	 15	 0.001189	 -0.008021	 0.007660	 1.902377	 -1.142957	 -0.095060	 -0.281207	 0.698897	 -0.463040	 0.466969	 1
1463570638.393	 15	 0.004367	 -0.010180	 0.004410	 1.902389	 -1.143109	 -0.094984	 -0.281269	 0.698857	 -0.463075	 0.466956	 1
1463570638.403	 15	 0.004363	 -0.009131	 0.002285	 1.902393	 -1.143195	 -0.094911	 -0.281316	 0.698830	 -0.463087	 0.466957	 1
1463570638.413	 15	 0.006497	 -0.008081	 0.001207	 1.902314	 -1.143329	 -0.094925	 -0.281363	 0.698786	 -0.463124	 0.466957	 1
1463570638.423	 15	 0.005447	 -0.002774	 -0.000869	 1.902213	 -1.143468	 -0.095000	 -0.281396	 0.698743	 -0.463174	 0.466952	 1
1463570638.433	 15	 0.007611	 0.003602	 -0.000830	 1.902227	 -1.143552	 -0.095032	 -0.281403	 0.698734	 -0.463212	 0.466925	 1
1463570638.443	 15	 0.008706	 0.006813	 0.002387	 1.902086	 -1.143592	 -0.095254	 -0.281368	 0.698724	 -0.463257	 0.466916	 1
1463570638.453	 15	 0.007664	 0.012134	 0.002446	 1.902058	 -1.143587	 -0.095409	 -0.281319	 0.698740	 -0.463287	 0.466891	 1
1463570638.463	 15	 0.005580	 0.013335	 0.006589	 1.902026	 -1.143457	 -0.095593	 -0.281229	 0.698785	 -0.463283	 0.466881	 1
1463570638.473	 15	 0.006656	 0.013347	 0.008713	 1.901893	 -1.143311	 -0.095871	 -0.281126	 0.698824	 -0.463280	 0.466889	 1
1463570638.483	 15	 0.004509	 0.007001	 0.012936	 1.901629	 -1.143188	 -0.096223	 -0.281032	 0.698837	 -0.463284	 0.466921	 1
1463570638.493	 15	 0.002365	 0.004880	 0.012935	 1.901467	 -1.143079	 -0.096448	 -0.280963	 0.698854	 -0.463277	 0.466944	 1
1463570638.503	 15	 -0.002950	 0.009150	 0.013021	 1.901392	 -1.142991	 -0.096603	 -0.280904	 0.698876	 -0.463274	 0.466950	 1
1463570638.513	 15	 -0.003999	 0.010240	 0.016236	 1.901510	 -1.142911	 -0.096597	 -0.280859	 0.698920	 -0.463262	 0.466924	 1
1463570638.523	 15	 -0.002948	 0.007047	 0.016195	 1.901704	 -1.142833	 -0.096496	 -0.280829	 0.698967	 -0.463239	 0.466893	 1
1463570638.533	 15	 0.000261	 0.005997	 0.019353	 1.901726	 -1.142721	 -0.096554	 -0.280775	 0.699004	 -0.463219	 0.466891	 1
1463570638.543	 15	 -0.002948	 0.001776	 0.022537	 1.901835	 -1.142576	 -0.096506	 -0.280730	 0.699053	 -0.463174	 0.466889	 1
1463570638.553	 15	 -0.002985	 -0.006726	 0.023521	 1.901817	 -1.142509	 -0.096507	 -0.280717	 0.699062	 -0.463149	 0.466907	 1
1463570638.563	 15	 -0.003033	 -0.015250	 0.021307	 1.901634	 -1.142516	 -0.096572	 -0.280738	 0.699027	 -0.463141	 0.466955	 1
1463570638.573	 15	 -0.001988	 -0.018460	 0.019131	 1.901462	 -1.142591	 -0.096579	 -0.280795	 0.698973	 -0.463144	 0.467000	 1
1463570638.583	 15	 0.005334	 -0.046168	 0.014542	 1.901006	 -1.142665	 -0.096722	 -0.280869	 0.698871	 -0.463138	 0.467114	 1
1463570638.593	 15	 0.004310	 -0.034487	 0.011459	 1.900553	 -1.142734	 -0.096793	 -0.280967	 0.698761	 -0.463114	 0.467243	 1
1463570638.603	 15	 0.000210	 0.002739	 0.009705	 1.900646	 -1.142862	 -0.096679	 -0.281018	 0.698739	 -0.463143	 0.467215	 1
1463570638.613	 15	 0.003345	 -0.005826	 0.003200	 1.900649	 -1.142951	 -0.096684	 -0.281038	 0.698722	 -0.463175	 0.467198	 1
1463570638.623	 15	 0.005410	 -0.020724	 0.003042	 1.900262	 -1.143065	 -0.096889	 -0.281085	 0.698637	 -0.463206	 0.467265	 1
1463570638.633	 15	 0.007580	 -0.012229	 0.002035	 1.900056	 -1.143130	 -0.096972	 -0.281121	 0.698587	 -0.463218	 0.467307	 1
1463570638.643	 15	 0.006582	 0.000554	 0.004293	 1.899888	 -1.143176	 -0.097121	 -0.281119	 0.698560	 -0.463245	 0.467323	 1
1463570638.653	 15	 0.005535	 0.005868	 0.003285	 1.899865	 -1.143185	 -0.097217	 -0.281093	 0.698566	 -0.463267	 0.467307	 1
1463570638.663	 15	 0.003401	 0.005874	 0.003304	 1.899790	 -1.143139	 -0.097355	 -0.281051	 0.698577	 -0.463273	 0.467310	 1
1463570638.673	 15	 0.002313	 0.000567	 0.004330	 1.899721	 -1.143083	 -0.097452	 -0.281018	 0.698586	 -0.463268	 0.467321	 1
1463570638.683	 15	 0.002297	 -0.004737	 0.006413	 1.899391	 -1.143040	 -0.097742	 -0.280983	 0.698559	 -0.463275	 0.467376	 1
1463570638.693	 15	 0.006526	 -0.014315	 0.007352	 1.898985	 -1.143058	 -0.098037	 -0.280978	 0.698502	 -0.463293	 0.467447	 1
1463570638.703	 15	 0.007559	 -0.021764	 0.007271	 1.898504	 -1.143141	 -0.098333	 -0.281008	 0.698414	 -0.463322	 0.467532	 1
1463570638.713	 15	 0.008564	 -0.031372	 0.002907	 1.898026	 -1.143295	 -0.098543	 -0.281084	 0.698299	 -0.463356	 0.467623	 1
1463570638.723	 15	 0.014897	 -0.041010	 -0.003636	 1.897334	 -1.143539	 -0.098865	 -0.281195	 0.698132	 -0.463415	 0.467748	 1
1463570638.733	 15	 0.015892	 -0.058000	 -0.007064	 1.896475	 -1.143911	 -0.099209	 -0.281369	 0.697902	 -0.463499	 0.467903	 1
1463570638.743	 15	 0.011534	 -0.075021	 -0.009319	 1.895611	 -1.144207	 -0.099394	 -0.281580	 0.697665	 -0.463519	 0.468110	 1
1463570638.753	 15	 0.007163	 -0.099449	 -0.006313	 1.894567	 -1.144444	 -0.099520	 -0.281838	 0.697389	 -0.463480	 0.468403	 1
1463570638.763	 15	 0.004970	 -0.115367	 -0.002181	 1.893349	 -1.144616	 -0.099630	 -0.282127	 0.697083	 -0.463392	 0.468772	 1
1463570638.773	 15	 0.004938	 -0.125973	 0.001981	 1.891963	 -1.144772	 -0.099782	 -0.282435	 0.696748	 -0.463283	 0.469193	 1
1463570638.783	 15	 0.009234	 -0.122771	 0.005169	 1.890670	 -1.144880	 -0.099858	 -0.282735	 0.696433	 -0.463155	 0.469606	 1
1463570638.793	 15	 0.008286	 -0.098295	 0.006467	 1.889730	 -1.145033	 -0.099799	 -0.283013	 0.696172	 -0.463058	 0.469921	 1
1463570638.803	 15	 0.002012	 -0.071675	 0.007832	 1.889290	 -1.145074	 -0.099513	 -0.283225	 0.696019	 -0.462943	 0.470133	 1
1463570638.813	 15	 -0.001090	 -0.049335	 0.006998	 1.889191	 -1.145134	 -0.099108	 -0.283404	 0.695926	 -0.462853	 0.470250	 1
1463570638.823	 15	 0.000012	 -0.035564	 -0.000346	 1.889204	 -1.145236	 -0.098751	 -0.283551	 0.695858	 -0.462805	 0.470310	 1
1463570638.833	 15	 0.008522	 -0.030363	 -0.013163	 1.889019	 -1.145471	 -0.098647	 -0.283691	 0.695751	 -0.462832	 0.470358	 1
1463570638.843	 15	 0.016978	 -0.037919	 -0.025033	 1.888464	 -1.145878	 -0.098865	 -0.283848	 0.695567	 -0.462940	 0.470429	 1
1463570638.853	 15	 0.024334	 -0.055023	 -0.033785	 1.887606	 -1.146428	 -0.099237	 -0.284059	 0.695304	 -0.463089	 0.470544	 1
1463570638.863	 15	 0.027436	 -0.071034	 -0.040357	 1.886408	 -1.147032	 -0.099774	 -0.284305	 0.694973	 -0.463245	 0.470731	 1
1463570638.873	 15	 0.022033	 -0.081686	 -0.044674	 1.885410	 -1.147634	 -0.099996	 -0.284614	 0.694645	 -0.463355	 0.470920	 1
1463570638.883	 15	 0.017766	 -0.085951	 -0.043508	 1.884469	 -1.148221	 -0.100102	 -0.284946	 0.694317	 -0.463440	 0.471118	 1
1463570638.893	 15	 0.023049	 -0.099771	 -0.040487	 1.883396	 -1.148797	 -0.100240	 -0.285295	 0.693965	 -0.463510	 0.471357	 1
1463570638.903	 15	 0.030420	 -0.128452	 -0.032298	 1.881496	 -1.149640	 -0.100941	 -0.285710	 0.693442	 -0.463684	 0.471704	 1
1463570638.913	 15	 0.043089	 -0.165649	 -0.023167	 1.879029	 -1.150327	 -0.101886	 -0.286132	 0.692854	 -0.463781	 0.472218	 1
1463570638.923	 15	 0.070671	 -0.212434	 -0.009991	 1.875361	 -1.150984	 -0.103634	 -0.286547	 0.692101	 -0.463885	 0.472966	 1
1463570638.933	 15	 0.097189	 -0.261312	 0.007441	 1.870915	 -1.151226	 -0.105770	 -0.286903	 0.691305	 -0.463833	 0.473965	 1
1463570638.943	 15	 0.119455	 -0.304873	 0.022828	 1.865401	 -1.151375	 -0.108575	 -0.287251	 0.690369	 -0.463756	 0.475193	 1
1463570638.953	 15	 0.141756	 -0.330445	 0.025593	 1.859048	 -1.151521	 -0.111965	 -0.287593	 0.689315	 -0.463697	 0.476571	 1
1463570638.963	 15	 0.153385	 -0.330681	 -0.002229	 1.852598	 -1.152475	 -0.115420	 -0.288150	 0.688079	 -0.463904	 0.477818	 1
1463570638.973	 15	 0.147093	 -0.291445	 -0.020993	 1.846417	 -1.153072	 -0.118862	 -0.288559	 0.686976	 -0.464030	 0.479035	 1
1463570638.983	 15	 0.107702	 -0.270069	 -0.022583	 1.841231	 -1.153614	 -0.121504	 -0.288999	 0.686005	 -0.464090	 0.480101	 1
1463570638.993	 15	 0.082237	 -0.239146	 -0.022073	 1.836979	 -1.154033	 -0.123448	 -0.289432	 0.685180	 -0.464077	 0.481031	 1
1463570639.003	 15	 0.054040	 -0.234610	 -0.141151	 1.834146	 -1.155413	 -0.124005	 -0.290268	 0.684302	 -0.464245	 0.481614	 1
1463570639.013	 15	 0.119985	 -0.162612	 -0.013164	 1.830378	 -1.156190	 -0.126110	 -0.290631	 0.683544	 -0.464455	 0.482269	 1
1463570639.023	 15	 0.181781	 -0.129402	 0.191234	 1.824613	 -1.155275	 -0.131004	 -0.290052	 0.683045	 -0.464506	 0.483274	 1
1463570639.033	 15	 0.219871	 -0.118682	 0.364721	 1.816938	 -1.152669	 -0.138056	 -0.288720	 0.682723	 -0.464271	 0.484750	 1
1463570639.043	 15	 0.230309	 -0.086704	 0.533538	 1.808300	 -1.148450	 -0.146454	 -0.286704	 0.682657	 -0.463728	 0.486555	 1
1463570639.063	 16	 0.155130	 0.019866	 0.825072	 1.792791	 -1.135257	 -0.163237	 -0.280903	 0.683768	 -0.461463	 0.490516	 1
1463570639.073	 16	 0.106486	 0.015544	 0.942689	 1.786298	 -1.126602	 -0.170623	 -0.277442	 0.684815	 -0.459653	 0.492720	 1
1463570639.083	 16	 0.083228	 -0.049367	 1.075508	 1.779729	 -1.116601	 -0.177583	 -0.273733	 0.685982	 -0.457330	 0.495327	 1
1463570639.093	 16	 0.109942	 -0.142177	 1.194843	 1.771686	 -1.105370	 -0.185189	 -0.269749	 0.687032	 -0.454610	 0.498550	 1
1463570639.103	 16	 0.112369	 -0.154307	 1.283167	 1.763076	 -1.093219	 -0.193121	 -0.265470	 0.688072	 -0.451645	 0.502095	 1
1463570639.113	 16	 0.071943	 -0.191921	 1.359904	 1.754979	 -1.080207	 -0.200266	 -0.261044	 0.689202	 -0.448321	 0.505831	 1
1463570639.123	 16	 0.025506	 -0.362555	 1.424798	 1.746568	 -1.066396	 -0.206321	 -0.256775	 0.690161	 -0.444466	 0.510093	 1
1463570639.133	 16	 -0.009727	 -0.620661	 1.458938	 1.736622	 -1.052081	 -0.211317	 -0.253004	 0.690584	 -0.440023	 0.515230	 1
1463570639.143	 16	 -0.034307	 -0.852470	 1.456995	 1.725186	 -1.037637	 -0.215367	 -0.249782	 0.690426	 -0.435146	 0.521123	 1
1463570639.153	 16	 -0.084328	 -1.061750	 1.471470	 1.712450	 -1.023054	 -0.218267	 -0.247122	 0.689704	 -0.429800	 0.527742	 1
1463570639.163	 16	 -0.281619	 -0.820674	 1.488220	 1.703342	 -1.007993	 -0.218129	 -0.244516	 0.689543	 -0.423974	 0.533844	 1
1463570639.173	 16	 -0.463709	 -0.325208	 1.537046	 1.702366	 -0.992393	 -0.213841	 -0.241414	 0.691071	 -0.417854	 0.538088	 1
1463570639.183	 16	 -0.429747	 0.241157	 1.623019	 1.707108	 -0.975938	 -0.209645	 -0.236828	 0.694254	 -0.412131	 0.540437	 1
1463570639.193	 16	 -0.255128	 0.235536	 1.798363	 1.710545	 -0.958212	 -0.208660	 -0.231018	 0.697622	 -0.406663	 0.542752	 1
1463570639.203	 16	 -0.145517	 -0.203841	 1.974499	 1.708465	 -0.938831	 -0.210404	 -0.224851	 0.699983	 -0.400737	 0.546695	 1
1463570639.213	 16	 -0.117277	 -0.805683	 2.008086	 1.699830	 -0.918716	 -0.212941	 -0.219433	 0.700637	 -0.394058	 0.552879	 1
1463570639.223	 16	 -0.141923	 -1.432706	 1.921468	 1.685848	 -0.899267	 -0.214604	 -0.215483	 0.699486	 -0.386796	 0.560960	 1
1463570639.233	 16	 -0.297738	 -2.093973	 1.899619	 1.667093	 -0.880295	 -0.213911	 -0.213295	 0.696509	 -0.378552	 0.571033	 1
1463570639.243	 16	 -0.446126	 -2.365692	 2.210651	 1.646643	 -0.858694	 -0.210170	 -0.211473	 0.692846	 -0.368449	 0.582657	 1
1463570639.253	 16	 -0.315043	 -2.040904	 2.316977	 1.627158	 -0.835421	 -0.207093	 -0.208503	 0.689509	 -0.358136	 0.594006	 1
1463570639.263	 16	 0.035725	 -1.407184	 2.285716	 1.610883	 -0.812461	 -0.207763	 -0.203589	 0.687264	 -0.349413	 0.603432	 1
1463570639.273	 16	 0.435475	 -0.606311	 2.297148	 1.598436	 -0.789709	 -0.213733	 -0.196117	 0.686489	 -0.342815	 0.610532	 1
1463570639.283	 16	 0.906662	 0.253117	 2.491814	 1.590572	 -0.765627	 -0.225485	 -0.185322	 0.687593	 -0.338093	 0.615276	 1
1463570639.293	 16	 1.252217	 0.566681	 2.603628	 1.584654	 -0.739759	 -0.242500	 -0.171687	 0.689668	 -0.334685	 0.618764	 1
1463570639.303	 16	 0.912650	 0.340925	 2.282623	 1.578781	 -0.716116	 -0.256632	 -0.159706	 0.691018	 -0.331158	 0.622353	 1
1463570639.313	 16	 0.508340	 0.472249	 1.895165	 1.578330	 -0.696214	 -0.264768	 -0.150127	 0.693074	 -0.327403	 0.624433	 1
1463570639.323	 16	 0.211754	 -0.129209	 1.557501	 1.576438	 -0.679932	 -0.268486	 -0.143533	 0.693968	 -0.323296	 0.627125	 1
1463570639.333	 16	 -0.050648	 -0.959359	 1.231267	 1.568733	 -0.666758	 -0.268722	 -0.140129	 0.692498	 -0.318669	 0.631871	 1
1463570639.343	 16	 -0.200678	 -1.469918	 0.873989	 1.556497	 -0.657116	 -0.266448	 -0.139494	 0.689116	 -0.314058	 0.637988	 1
1463570639.353	 16	 -0.261394	 -1.769552	 0.451819	 1.541479	 -0.651568	 -0.263132	 -0.141034	 0.684438	 -0.310205	 0.644536	 1
1463570639.363	 16	 -0.211858	 -2.017232	 0.051554	 1.523778	 -0.650190	 -0.260141	 -0.144300	 0.678581	 -0.307545	 0.651246	 1
1463570639.373	 16	 -0.029990	 -2.323294	 -0.279001	 1.501872	 -0.652220	 -0.259260	 -0.148681	 0.671213	 -0.306276	 0.658454	 1
1463570639.383	 16	 0.182926	 -2.651406	 -0.557809	 1.474886	 -0.657047	 -0.261467	 -0.153814	 0.662139	 -0.306427	 0.666345	 1
1463570639.393	 16	 0.195440	 -3.068155	 -0.673701	 1.443104	 -0.663310	 -0.265017	 -0.159801	 0.651377	 -0.306983	 0.675228	 1
1463570639.403	 16	 0.007377	 -3.331493	 -0.689434	 1.409035	 -0.669969	 -0.267048	 -0.166827	 0.639568	 -0.306823	 0.684822	 1
1463570639.413	 16	 -0.274907	 -3.360311	 -0.524182	 1.376247	 -0.676012	 -0.265837	 -0.174482	 0.627815	 -0.305319	 0.694395	 1
1463570639.423	 16	 -0.512214	 -3.248900	 -0.217335	 1.346457	 -0.679764	 -0.260807	 -0.181985	 0.616745	 -0.301946	 0.703801	 1
1463570639.433	 16	 -0.743838	 -2.692222	 0.185259	 1.323435	 -0.680587	 -0.252023	 -0.188433	 0.607738	 -0.296929	 0.712026	 1
1463570639.443	 16	 -1.043500	 -1.879976	 0.614578	 1.311106	 -0.678099	 -0.238382	 -0.193418	 0.602165	 -0.290202	 0.718171	 1
1463570639.453	 16	 -1.359516	 -1.155714	 1.065294	 1.309768	 -0.672244	 -0.219383	 -0.197076	 0.600166	 -0.281646	 0.722245	 1
1463570639.463	 16	 -1.606426	 -0.748304	 1.558288	 1.316183	 -0.662318	 -0.195611	 -0.199530	 0.600732	 -0.270966	 0.725180	 1
1463570639.473	 16	 -1.684233	 -0.615378	 1.963061	 1.325905	 -0.648335	 -0.169226	 -0.200849	 0.602522	 -0.258472	 0.727887	 1
1463570639.483	 16	 -1.514868	 -0.648252	 2.191485	 1.334693	 -0.631244	 -0.143925	 -0.200883	 0.604340	 -0.245301	 0.730922	 1
1463570639.493	 16	 -1.273933	 -0.820230	 2.333797	 1.340180	 -0.611958	 -0.121351	 -0.199746	 0.605436	 -0.232053	 0.734642	 1
1463570639.513	 17	 -0.520197	 -1.271791	 2.410424	 1.336138	 -0.568694	 -0.088883	 -0.193589	 0.603793	 -0.207085	 0.745032	 1
1463570639.523	 17	 -0.177758	 -1.416255	 2.281404	 1.327304	 -0.546751	 -0.079441	 -0.188958	 0.601100	 -0.196298	 0.751293	 1
1463570639.533	 17	 0.083079	 -1.590907	 2.063290	 1.314891	 -0.526175	 -0.073622	 -0.183999	 0.597246	 -0.186945	 0.757953	 1
1463570639.543	 17	 0.183840	 -1.853672	 1.950194	 1.299009	 -0.506733	 -0.069647	 -0.179119	 0.592078	 -0.178350	 0.765213	 1
1463570639.553	 17	 0.130334	 -2.162579	 2.011731	 1.280426	 -0.487240	 -0.064971	 -0.174517	 0.585704	 -0.169298	 0.773196	 1
1463570639.563	 17	 0.163354	 -2.516926	 2.148827	 1.258675	 -0.466640	 -0.059478	 -0.169803	 0.577965	 -0.159418	 0.782118	 1
1463570639.573	 17	 0.382272	 -2.888308	 2.358749	 1.232685	 -0.443795	 -0.054570	 -0.164135	 0.568571	 -0.148887	 0.792224	 1
1463570639.583	 17	 0.783183	 -2.797483	 2.431772	 1.205114	 -0.418698	 -0.052449	 -0.156628	 0.558676	 -0.138876	 0.802535	 1
1463570639.593	 17	 1.046317	 -2.513656	 2.516318	 1.179260	 -0.391931	 -0.052476	 -0.147471	 0.549469	 -0.129622	 0.812117	 1
1463570639.603	 17	 1.180244	 -2.140137	 2.743503	 1.156806	 -0.362752	 -0.052561	 -0.136859	 0.541503	 -0.120221	 0.820726	 1
1463570639.613	 17	 1.268772	 -1.661200	 2.968867	 1.139212	 -0.331045	 -0.051924	 -0.124898	 0.535352	 -0.110391	 0.828017	 1
1463570639.623	 17	 1.376634	 -1.279990	 3.072723	 1.125816	 -0.297665	 -0.051109	 -0.111879	 0.530780	 -0.100476	 0.834062	 1
1463570639.633	 17	 1.519457	 -1.087930	 3.067938	 1.114594	 -0.263545	 -0.051062	 -0.098089	 0.526985	 -0.090947	 0.839282	 1
1463570639.643	 17	 1.677308	 -1.059030	 3.010347	 1.103721	 -0.229142	 -0.052275	 -0.083705	 0.523201	 -0.082024	 0.844113	 1
1463570639.653	 17	 1.827006	 -1.122030	 2.890158	 1.092135	 -0.194958	 -0.054962	 -0.068937	 0.518955	 -0.073895	 0.848807	 1
1463570639.663	 17	 1.922850	 -1.253262	 2.726106	 1.079274	 -0.161600	 -0.058960	 -0.054117	 0.513967	 -0.066658	 0.853502	 1
1463570639.673	 17	 1.964227	 -1.368593	 2.532835	 1.065133	 -0.129558	 -0.063842	 -0.039569	 0.508203	 -0.060289	 0.858213	 1
1463570639.683	 17	 1.937463	 -1.458129	 2.348924	 1.050165	 -0.099166	 -0.069138	 -0.025556	 0.501851	 -0.054699	 0.862844	 1
1463570639.693	 17	 1.851142	 -1.567155	 2.239953	 1.034400	 -0.070178	 -0.073925	 -0.012212	 0.494933	 -0.049435	 0.867438	 1
1463570639.703	 17	 1.755177	 -1.756366	 2.216647	 1.017166	 -0.041980	 -0.077644	 0.000577	 0.487177	 -0.044105	 0.872188	 1
1463570639.723	 18	 1.552455	 -2.182426	 2.196330	 0.976526	 0.012543	 -0.081123	 0.024556	 0.468473	 -0.032872	 0.882525	 1
1463570639.733	 18	 1.453447	 -2.388213	 2.232579	 0.953152	 0.039208	 -0.080641	 0.035893	 0.457576	 -0.026826	 0.888040	 1
1463570639.753	 18	 1.343636	 -2.861877	 2.285612	 0.899337	 0.091979	 -0.075101	 0.057675	 0.432347	 -0.013805	 0.899755	 1
1463570639.743	 18	 1.364025	 -2.605660	 2.278227	 0.927556	 0.065680	 -0.078453	 0.046876	 0.445594	 -0.020379	 0.893775	 1
1463570639.763	 18	 1.430833	 -3.115603	 2.239862	 0.868432	 0.118307	 -0.071641	 0.068639	 0.417773	 -0.007577	 0.905923	 1
1463570639.773	 18	 1.590730	 -3.297597	 2.141923	 0.835508	 0.144823	 -0.068992	 0.080043	 0.402124	 -0.002106	 0.912077	 1
1463570639.783	 18	 1.770315	 -3.351183	 2.011969	 0.801821	 0.171551	 -0.067598	 0.091971	 0.385934	 0.002416	 0.917927	 1
1463570639.793	 18	 1.920770	 -3.235658	 1.869988	 0.769073	 0.198348	 -0.067459	 0.104317	 0.369979	 0.006014	 0.923146	 1
1463570639.803	 18	 2.034414	 -3.015704	 1.739956	 0.738509	 0.225111	 -0.068285	 0.116929	 0.354852	 0.008880	 0.927539	 1
1463570639.813	 18	 2.142975	 -2.754151	 1.624211	 0.710707	 0.251896	 -0.070001	 0.129774	 0.340833	 0.011130	 0.931057	 1
1463570639.833	 19	 2.238498	 -2.121086	 1.546141	 0.664462	 0.306033	 -0.074344	 0.155965	 0.316764	 0.014957	 0.935474	 1
1463570639.843	 19	 2.147633	 -1.742882	 1.595213	 0.646338	 0.332905	 -0.075115	 0.168757	 0.307064	 0.017467	 0.936444	 1
1463570639.853	 19	 1.998811	 -1.460011	 1.674809	 0.630727	 0.359051	 -0.073896	 0.180914	 0.298698	 0.020792	 0.936812	 1
1463570639.863	 19	 1.826736	 -1.330450	 1.724406	 0.616054	 0.384149	 -0.070683	 0.192313	 0.290990	 0.024788	 0.936870	 1
1463570639.873	 19	 1.648458	 -1.335312	 1.715254	 0.600932	 0.407776	 -0.065862	 0.202845	 0.283310	 0.029096	 0.936879	 1
1463570639.883	 19	 1.482212	 -1.438626	 1.628346	 0.584566	 0.429526	 -0.060163	 0.212452	 0.275255	 0.033240	 0.937013	 1
1463570639.893	 19	 1.352849	 -1.619876	 1.515879	 0.566324	 0.449398	 -0.054174	 0.221238	 0.266476	 0.036878	 0.937382	 1
1463570639.903	 19	 1.213890	 -1.773667	 1.372846	 0.546271	 0.467469	 -0.048208	 0.229286	 0.256965	 0.039882	 0.937980	 1
1463570639.913	 19	 1.099838	 -1.885747	 1.271549	 0.524968	 0.483699	 -0.042151	 0.236553	 0.246999	 0.042372	 0.938743	 1
1463570639.923	 19	 1.118009	 -2.063785	 1.221774	 0.501938	 0.499386	 -0.036147	 0.243675	 0.236276	 0.044393	 0.939588	 1
1463570639.933	 19	 1.214464	 -2.181256	 1.195329	 0.477597	 0.515509	 -0.030418	 0.251126	 0.224928	 0.046000	 0.940333	 1
1463570639.943	 19	 1.345241	 -2.257386	 1.163638	 0.452612	 0.532334	 -0.025134	 0.259029	 0.213240	 0.047200	 0.940853	 1
1463570639.953	 19	 1.484237	 -2.349935	 1.070971	 0.427331	 0.549679	 -0.020854	 0.267335	 0.201309	 0.047737	 0.941131	 1
1463570639.963	 20	 1.571773	 -2.445924	 0.923302	 0.401688	 0.567447	 -0.017955	 0.276014	 0.189050	 0.047398	 0.941185	 1
1463570639.983	 20	 1.408284	 -2.323509	 0.724436	 0.351308	 0.601107	 -0.013838	 0.292641	 0.164898	 0.045227	 0.940811	 1
1463570639.993	 20	 1.239021	 -2.179901	 0.659037	 0.327664	 0.615456	 -0.011255	 0.299708	 0.153754	 0.044110	 0.940526	 1
1463570640.003	 20	 1.044278	 -1.991688	 0.574026	 0.305628	 0.627710	 -0.008496	 0.305742	 0.143487	 0.043001	 0.940258	 1
1463570640.013	 20	 0.844484	 -1.754438	 0.502304	 0.285746	 0.637762	 -0.005562	 0.310685	 0.134346	 0.042025	 0.940032	 1
1463570640.023	 20	 0.658647	 -1.533947	 0.471869	 0.267880	 0.645803	 -0.002199	 0.314616	 0.126292	 0.041341	 0.939871	 1
1463570640.033	 20	 0.562381	 -1.281160	 0.384470	 0.252583	 0.652493	 0.000880	 0.317885	 0.119452	 0.040781	 0.939690	 1
1463570640.043	 20	 0.535148	 -1.063975	 0.255639	 0.240281	 0.658410	 0.002751	 0.320804	 0.113857	 0.040039	 0.939424	 1
1463570640.053	 20	 0.545172	 -0.886088	 0.149565	 0.230684	 0.664075	 0.003272	 0.323626	 0.109330	 0.039051	 0.939036	 1
1463570640.063	 20	 0.560524	 -0.763064	 0.106880	 0.222898	 0.669754	 0.003088	 0.326451	 0.105545	 0.038002	 0.938534	 1
1463570640.073	 20	 0.593690	 -0.735593	 0.095124	 0.215782	 0.675669	 0.002698	 0.329380	 0.102040	 0.036956	 0.937940	 1
1463570640.083	 20	 0.612560	 -0.772116	 0.053055	 0.208676	 0.681779	 0.001866	 0.332416	 0.098466	 0.035694	 0.937299	 1
1463570640.103	 21	 0.538602	 -0.780923	 -0.017790	 0.194937	 0.693002	 -0.001071	 0.338046	 0.091350	 0.032547	 0.936120	 1
1463570640.113	 21	 0.477874	 -0.757363	 -0.020239	 0.188231	 0.697809	 -0.002564	 0.340469	 0.087878	 0.030928	 0.935629	 1
1463570640.123	 21	 0.427003	 -0.680649	 -0.022279	 0.182051	 0.702081	 -0.003890	 0.342617	 0.084690	 0.029439	 0.935187	 1
1463570640.133	 21	 0.389148	 -0.551923	 -0.033541	 0.177029	 0.705949	 -0.005206	 0.344552	 0.082052	 0.028125	 0.934751	 1
1463570640.143	 21	 0.366528	 -0.368925	 -0.034839	 0.173711	 0.709544	 -0.006537	 0.346331	 0.080213	 0.027080	 0.934284	 1
1463570640.153	 21	 0.362079	 -0.210184	 -0.000284	 0.171884	 0.713089	 -0.007498	 0.348049	 0.079134	 0.026460	 0.933756	 1
1463570640.163	 21	 0.369069	 -0.136377	 0.060024	 0.170574	 0.716777	 -0.007759	 0.349797	 0.078415	 0.026260	 0.933168	 1
1463570640.173	 21	 0.396851	 -0.178575	 0.119073	 0.168642	 0.720785	 -0.007264	 0.351673	 0.077534	 0.026313	 0.932535	 1
1463570640.183	 21	 0.425266	 -0.298539	 0.161405	 0.165253	 0.725176	 -0.006179	 0.353722	 0.076074	 0.026395	 0.931878	 1
1463570640.193	 21	 0.432266	 -0.413298	 0.179460	 0.160479	 0.729715	 -0.004798	 0.355847	 0.074024	 0.026366	 0.931235	 1
1463570640.203	 21	 0.430813	 -0.506790	 0.193523	 0.154538	 0.734280	 -0.003180	 0.357990	 0.071479	 0.026228	 0.930616	 1
1463570640.213	 21	 0.422128	 -0.539722	 0.195424	 0.147953	 0.738779	 -0.001387	 0.360106	 0.068674	 0.026040	 0.930016	 1
1463570640.223	 21	 0.405282	 -0.457006	 0.154776	 0.142165	 0.743072	 0.000010	 0.362130	 0.066179	 0.025789	 0.929418	 1
1463570640.233	 21	 0.370590	 -0.338903	 0.146585	 0.137599	 0.747052	 0.001292	 0.363996	 0.064240	 0.025685	 0.928827	 1
1463570640.243	 21	 0.310277	 -0.222851	 0.138598	 0.134213	 0.750479	 0.002586	 0.365589	 0.062863	 0.025776	 0.928293	 1
1463570640.253	 21	 0.235900	 -0.151393	 0.135647	 0.131616	 0.753176	 0.003976	 0.366832	 0.061882	 0.026028	 0.927862	 1
1463570640.263	 21	 0.166540	 -0.140633	 0.124628	 0.129255	 0.755153	 0.005395	 0.367736	 0.061026	 0.026312	 0.927553	 1
1463570640.273	 21	 0.108630	 -0.191594	 0.114000	 0.126577	 0.756526	 0.006746	 0.368367	 0.060018	 0.026485	 0.927363	 1
1463570640.283	 21	 0.065586	 -0.277531	 0.126365	 0.122977	 0.757409	 0.008288	 0.368779	 0.058624	 0.026562	 0.927286	 1
1463570640.293	 21	 0.069581	 -0.351853	 0.145888	 0.118386	 0.758226	 0.010089	 0.369166	 0.056821	 0.026572	 0.927244	 1
1463570640.303	 21	 0.129255	 -0.391203	 0.170580	 0.113117	 0.759520	 0.012169	 0.369778	 0.054752	 0.026597	 0.927124	 1
1463570640.313	 21	 0.207161	 -0.406188	 0.188946	 0.107532	 0.761596	 0.014419	 0.370755	 0.052565	 0.026656	 0.926859	 1
1463570640.323	 21	 0.256225	 -0.421142	 0.200103	 0.101752	 0.764240	 0.016791	 0.371997	 0.050311	 0.026742	 0.926484	 1
1463570640.333	 21	 0.267644	 -0.483972	 0.194090	 0.095465	 0.767107	 0.019119	 0.373352	 0.047819	 0.026709	 0.926072	 1
1463570640.343	 21	 0.205693	 -0.485999	 0.182887	 0.088882	 0.769521	 0.021478	 0.374503	 0.045202	 0.026618	 0.925741	 1
1463570640.353	 21	 0.112032	 -0.401966	 0.146117	 0.083247	 0.771018	 0.023438	 0.375227	 0.042958	 0.026496	 0.925558	 1
1463570640.363	 21	 0.012083	 -0.285018	 0.099051	 0.079061	 0.771472	 0.024945	 0.375461	 0.041302	 0.026414	 0.925540	 1
1463570640.373	 21	 -0.085788	 -0.190320	 0.064548	 0.076111	 0.770914	 0.026065	 0.375219	 0.040148	 0.026371	 0.925691	 1
1463570640.383	 21	 -0.148455	 -0.083095	 0.011738	 0.074717	 0.769557	 0.026524	 0.374600	 0.039590	 0.026301	 0.925967	 1
1463570640.393	 21	 -0.134982	 0.078358	 -0.012456	 0.074958	 0.768167	 0.026578	 0.373952	 0.039713	 0.026351	 0.926223	 1
1463570640.403	 21	 -0.073681	 0.222449	 -0.064937	 0.077362	 0.767186	 0.025969	 0.373477	 0.040714	 0.026503	 0.926366	 1
1463570640.413	 21	 0.010502	 0.232524	 -0.108206	 0.080628	 0.767022	 0.024630	 0.373386	 0.041977	 0.026490	 0.926347	 1
1463570640.423	 21	 0.077324	 0.188349	 -0.159290	 0.084104	 0.767509	 0.022544	 0.373610	 0.043196	 0.026182	 0.926209	 1
