% Gyrometer data recorded with 'snsrlog'
% 
% 
% Label description:
% 	 0: Default Label
% 	 1: still_drop
% 	 2: walk_drop
% 	 3: other
% 	 4: dtw_same
% 	 5: dtw_diff
% 	 6: delete
% 
% Column description:
% 	 1: Seconds.milliseconds since 1970
% 	 2: Number of skipped measurements
% 	 3: Gyro X
% 	 4: Gyro Y
% 	 5: Gyro Z
% 	 6: Roll of the device
% 	 7: Pitch of the device
% 	 8: Yaw of the device
% 	 9: Quaternion X
% 	 10: Quaternion Y
% 	 11: Quaternion Z
% 	 12: Quaternion W
% 	 13: Label used for the current sample
% 
% 
1461766121.288	 0	 -0.002377	 0.001618	 0.004096	 0.001375	 -0.003229	 0.001077	 -0.001615	 0.000687	 0.000537	 0.999998	 5
1461766121.298	 0	 -0.002382	 0.000553	 0.004086	 0.001377	 -0.003240	 0.001118	 -0.001620	 0.000688	 0.000558	 0.999998	 5
1461766121.308	 0	 -0.001309	 0.001612	 0.004087	 0.001359	 -0.003246	 0.001158	 -0.001623	 0.000679	 0.000578	 0.999998	 5
1461766121.318	 0	 -0.002372	 0.001623	 0.005162	 0.001368	 -0.003273	 0.001205	 -0.001637	 0.000683	 0.000601	 0.999998	 5
1461766121.328	 0	 0.000820	 0.000534	 0.002992	 0.001373	 -0.003234	 0.001235	 -0.001617	 0.000686	 0.000616	 0.999998	 5
1461766121.338	 0	 -0.002373	 0.000560	 0.005152	 0.001392	 -0.003257	 0.001286	 -0.001629	 0.000695	 0.000642	 0.999998	 5
1461766121.348	 0	 -0.003441	 0.000555	 0.004095	 0.001391	 -0.003238	 0.001327	 -0.001619	 0.000695	 0.000662	 0.999998	 5
1461766121.358	 0	 -0.002363	 0.001620	 0.005162	 0.001361	 -0.003235	 0.001373	 -0.001618	 0.000680	 0.000686	 0.999998	 5
1461766121.368	 0	 -0.003433	 0.001612	 0.004105	 0.001351	 -0.003248	 0.001414	 -0.001625	 0.000674	 0.000706	 0.999998	 5
1461766121.378	 0	 -0.002375	 -0.000516	 0.004076	 0.001372	 -0.003272	 0.001455	 -0.001636	 0.000685	 0.000727	 0.999998	 5
1461766121.388	 0	 -0.002366	 0.001608	 0.004096	 0.001352	 -0.003304	 0.001496	 -0.001652	 0.000675	 0.000747	 0.999998	 5
1461766121.398	 0	 -0.003431	 0.001608	 0.004105	 0.001333	 -0.003316	 0.001537	 -0.001658	 0.000665	 0.000767	 0.999998	 5
1461766121.408	 0	 -0.002367	 0.000544	 0.004086	 0.001372	 -0.003322	 0.001578	 -0.001661	 0.000685	 0.000788	 0.999998	 5
1461766121.418	 0	 -0.005564	 0.000551	 0.004114	 0.001366	 -0.003328	 0.001625	 -0.001664	 0.000681	 0.000811	 0.999998	 5
1461766121.428	 0	 -0.004484	 0.002678	 0.004124	 0.001414	 -0.003326	 0.001666	 -0.001664	 0.000706	 0.000832	 0.999998	 5
1461766121.438	 0	 -0.004494	 0.001608	 0.003049	 0.001443	 -0.003372	 0.001702	 -0.001687	 0.000720	 0.000850	 0.999998	 5
1461766121.448	 0	 -0.004476	 0.002683	 0.005190	 0.001433	 -0.003383	 0.001748	 -0.001692	 0.000715	 0.000873	 0.999998	 5
1461766121.458	 0	 -0.002350	 0.001605	 0.004096	 0.001439	 -0.003387	 0.001789	 -0.001694	 0.000718	 0.000893	 0.999998	 5
1461766121.468	 0	 -0.002353	 0.001599	 0.004096	 0.001401	 -0.003437	 0.001830	 -0.001719	 0.000699	 0.000914	 0.999998	 5
1461766121.478	 0	 -0.004492	 0.000530	 0.003039	 0.001381	 -0.003432	 0.001855	 -0.001717	 0.000689	 0.000926	 0.999998	 5
1461766121.488	 0	 -0.004477	 0.001610	 0.005180	 0.001398	 -0.003461	 0.001907	 -0.001731	 0.000697	 0.000952	 0.999998	 5
1461766121.498	 0	 -0.003406	 0.002660	 0.004115	 0.001407	 -0.003465	 0.001953	 -0.001733	 0.000702	 0.000975	 0.999998	 5
1461766121.508	 0	 -0.002345	 0.000522	 0.004086	 0.001358	 -0.003465	 0.001994	 -0.001733	 0.000677	 0.000996	 0.999998	 5
1461766121.518	 0	 -0.003409	 0.000528	 0.004095	 0.001384	 -0.003466	 0.002035	 -0.001734	 0.000690	 0.001016	 0.999998	 5
1461766121.528	 0	 -0.003404	 0.000534	 0.005161	 0.001387	 -0.003493	 0.002081	 -0.001747	 0.000692	 0.001039	 0.999998	 5
1461766121.538	 0	 -0.003408	 0.000526	 0.004095	 0.001399	 -0.003528	 0.002122	 -0.001765	 0.000698	 0.001060	 0.999998	 5
1461766121.548	 0	 -0.002333	 0.001586	 0.004096	 0.001413	 -0.003536	 0.002158	 -0.001769	 0.000704	 0.001078	 0.999998	 5
1461766121.558	 0	 -0.002327	 0.000529	 0.005152	 0.001421	 -0.003512	 0.002204	 -0.001757	 0.000709	 0.001101	 0.999998	 5
1461766121.578	 1	 -0.003380	 0.002639	 0.003049	 0.001427	 -0.003491	 0.002276	 -0.001746	 0.000711	 0.001137	 0.999998	 5
1461766121.588	 1	 -0.003373	 0.001599	 0.005171	 0.001497	 -0.003509	 0.002328	 -0.001755	 0.000746	 0.001162	 0.999998	 5
1461766121.598	 1	 -0.003369	 0.002656	 0.004115	 0.001528	 -0.003520	 0.002369	 -0.001761	 0.000762	 0.001183	 0.999997	 5
1461766121.608	 1	 -0.002303	 0.002651	 0.004106	 0.001541	 -0.003553	 0.002410	 -0.001777	 0.000768	 0.001203	 0.999997	 5
1461766121.618	 1	 -0.002301	 0.001588	 0.005161	 0.001509	 -0.003561	 0.002456	 -0.001781	 0.000752	 0.001227	 0.999997	 5
1461766121.628	 1	 -0.004437	 0.000528	 0.005170	 0.001508	 -0.003577	 0.002502	 -0.001789	 0.000752	 0.001250	 0.999997	 5
1461766121.638	 1	 -0.002297	 0.001581	 0.004096	 0.001543	 -0.003580	 0.002549	 -0.001791	 0.000769	 0.001273	 0.999997	 5
1461766121.648	 1	 -0.002289	 0.002646	 0.004106	 0.001578	 -0.003586	 0.002590	 -0.001794	 0.000787	 0.001293	 0.999997	 5
1461766121.658	 1	 -0.002288	 0.001576	 0.004096	 0.001551	 -0.003574	 0.002636	 -0.001788	 0.000773	 0.001317	 0.999997	 5
1461766121.668	 1	 -0.003356	 0.001576	 0.004105	 0.001558	 -0.003608	 0.002677	 -0.001805	 0.000777	 0.001337	 0.999997	 5
1461766121.678	 1	 -0.003360	 0.000502	 0.003029	 0.001555	 -0.003610	 0.002718	 -0.001806	 0.000775	 0.001358	 0.999997	 5
1461766121.688	 1	 -0.002280	 0.002621	 0.003040	 0.001551	 -0.003625	 0.002748	 -0.001814	 0.000773	 0.001373	 0.999997	 5
1461766121.698	 1	 -0.002270	 0.002622	 0.004105	 0.001536	 -0.003618	 0.002784	 -0.001810	 0.000766	 0.001391	 0.999997	 5
1461766121.708	 1	 -0.003346	 0.000491	 0.004095	 0.001513	 -0.003638	 0.002825	 -0.001820	 0.000754	 0.001411	 0.999997	 5
1461766121.718	 1	 -0.003333	 0.001561	 0.005171	 0.001526	 -0.003640	 0.002876	 -0.001821	 0.000761	 0.001437	 0.999997	 5
1461766121.728	 1	 -0.003332	 0.000493	 0.005161	 0.001510	 -0.003642	 0.002928	 -0.001822	 0.000752	 0.001463	 0.999997	 5
1461766121.738	 1	 -0.002259	 0.002602	 0.004105	 0.001496	 -0.003673	 0.002969	 -0.001837	 0.000745	 0.001483	 0.999997	 5
1461766121.748	 1	 -0.002262	 0.000487	 0.005151	 0.001531	 -0.003679	 0.003010	 -0.001841	 0.000763	 0.001504	 0.999997	 5
1461766121.758	 1	 -0.004377	 0.002614	 0.005190	 0.001527	 -0.003677	 0.003062	 -0.001840	 0.000761	 0.001529	 0.999997	 5
1461766121.768	 1	 -0.003303	 0.003671	 0.005190	 0.001539	 -0.003706	 0.003114	 -0.001854	 0.000766	 0.001555	 0.999997	 5
1461766121.778	 1	 -0.003317	 0.000482	 0.005161	 0.001562	 -0.003729	 0.003160	 -0.001866	 0.000778	 0.001579	 0.999997	 5
1461766121.788	 1	 -0.003314	 0.001536	 0.004105	 0.001570	 -0.003753	 0.003201	 -0.001878	 0.000782	 0.001599	 0.999997	 5
1461766121.808	 2	 -0.001166	 0.002580	 0.004096	 0.001544	 -0.003758	 0.003294	 -0.001880	 0.000769	 0.001645	 0.999997	 5
1461766121.818	 2	 -0.002233	 0.001513	 0.004095	 0.001538	 -0.003755	 0.003334	 -0.001879	 0.000766	 0.001666	 0.999997	 5
1461766121.828	 2	 -0.002221	 0.002572	 0.004105	 0.001542	 -0.003758	 0.003376	 -0.001880	 0.000768	 0.001686	 0.999997	 5
1461766121.838	 2	 -0.003284	 0.001505	 0.004105	 0.001529	 -0.003747	 0.003422	 -0.001875	 0.000761	 0.001710	 0.999996	 5
1461766121.848	 2	 -0.003270	 0.001510	 0.005170	 0.001533	 -0.003743	 0.003474	 -0.001873	 0.000763	 0.001735	 0.999996	 5
1461766121.858	 2	 -0.003273	 0.001508	 0.004105	 0.001573	 -0.003768	 0.003520	 -0.001886	 0.000783	 0.001759	 0.999996	 5
1461766121.868	 2	 -0.003263	 0.002568	 0.004115	 0.001572	 -0.003782	 0.003561	 -0.001892	 0.000783	 0.001779	 0.999996	 5
1461766121.878	 2	 -0.003255	 0.001514	 0.005170	 0.001595	 -0.003772	 0.003608	 -0.001887	 0.000794	 0.001802	 0.999996	 5
1461766121.888	 2	 -0.003256	 0.000442	 0.004095	 0.001602	 -0.003761	 0.003649	 -0.001882	 0.000798	 0.001823	 0.999996	 5
1461766121.908	 3	 -0.003238	 0.001485	 0.004105	 0.001550	 -0.003763	 0.003725	 -0.001883	 0.000771	 0.001861	 0.999996	 5
1461766121.918	 3	 -0.003239	 0.000418	 0.004095	 0.001543	 -0.003776	 0.003766	 -0.001890	 0.000768	 0.001882	 0.999996	 5
1461766121.928	 3	 -0.002148	 0.002541	 0.004105	 0.001557	 -0.003747	 0.003812	 -0.001875	 0.000775	 0.001905	 0.999996	 5
1461766121.938	 3	 -0.003217	 0.000411	 0.004095	 0.001551	 -0.003738	 0.003859	 -0.001870	 0.000772	 0.001928	 0.999996	 5
1461766121.948	 3	 -0.004277	 0.001465	 0.004114	 0.001512	 -0.003767	 0.003905	 -0.001885	 0.000753	 0.001951	 0.999996	 5
1461766121.958	 3	 -0.002127	 0.001461	 0.005161	 0.001504	 -0.003746	 0.003951	 -0.001875	 0.000748	 0.001974	 0.999996	 5
1461766121.968	 3	 -0.002117	 0.002523	 0.005171	 0.001520	 -0.003750	 0.004003	 -0.001876	 0.000756	 0.002000	 0.999996	 5
1461766121.978	 3	 -0.003185	 0.001463	 0.004105	 0.001565	 -0.003744	 0.004044	 -0.001873	 0.000779	 0.002021	 0.999996	 5
1461766121.988	 3	 -0.002108	 0.000403	 0.005151	 0.001570	 -0.003728	 0.004096	 -0.001866	 0.000781	 0.002046	 0.999996	 5
1461766121.998	 3	 -0.003169	 0.001460	 0.004104	 0.001575	 -0.003739	 0.004142	 -0.001871	 0.000783	 0.002070	 0.999996	 5
1461766122.008	 3	 -0.003162	 0.001466	 0.005170	 0.001588	 -0.003758	 0.004188	 -0.001881	 0.000790	 0.002093	 0.999996	 5
1461766122.018	 3	 -0.003162	 0.000390	 0.004095	 0.001581	 -0.003747	 0.004229	 -0.001875	 0.000787	 0.002113	 0.999996	 5
1461766122.028	 3	 -0.003143	 0.001462	 0.005170	 0.001590	 -0.003735	 0.004276	 -0.001869	 0.000791	 0.002136	 0.999996	 5
1461766122.038	 3	 -0.002078	 0.001456	 0.004095	 0.001620	 -0.003744	 0.004311	 -0.001874	 0.000806	 0.002154	 0.999996	 5
1461766122.048	 3	 -0.002065	 0.001461	 0.005161	 0.001625	 -0.003734	 0.004358	 -0.001869	 0.000808	 0.002177	 0.999996	 5
1461766122.058	 3	 -0.003124	 0.001452	 0.004104	 0.001624	 -0.003716	 0.004404	 -0.001860	 0.000808	 0.002200	 0.999996	 5
1461766122.068	 3	 -0.004120	 0.001535	 0.003646	 0.001635	 -0.003712	 0.004438	 -0.001858	 0.000813	 0.002217	 0.999995	 5
1461766122.078	 3	 -0.004111	 0.002605	 0.004721	 0.001639	 -0.003746	 0.004479	 -0.001875	 0.000815	 0.002238	 0.999995	 5
1461766122.088	 3	 -0.000917	 0.001522	 0.003618	 0.001608	 -0.003734	 0.004515	 -0.001869	 0.000800	 0.002256	 0.999995	 5
1461766122.098	 3	 -0.003056	 0.000464	 0.003627	 0.001612	 -0.003731	 0.004552	 -0.001867	 0.000802	 0.002274	 0.999995	 5
1461766122.108	 3	 -0.001983	 0.001524	 0.003627	 0.001620	 -0.003726	 0.004588	 -0.001865	 0.000806	 0.002292	 0.999995	 5
1461766122.118	 3	 -0.004120	 0.001522	 0.002580	 0.001624	 -0.003744	 0.004613	 -0.001874	 0.000808	 0.002305	 0.999995	 5
1461766122.128	 3	 -0.000910	 0.001528	 0.004684	 0.001644	 -0.003760	 0.004655	 -0.001882	 0.000818	 0.002326	 0.999995	 5
1461766122.138	 3	 -0.000909	 0.002583	 0.003628	 0.001646	 -0.003767	 0.004691	 -0.001886	 0.000819	 0.002344	 0.999995	 5
1461766122.148	 3	 -0.005171	 0.002603	 0.004731	 0.001669	 -0.003770	 0.004728	 -0.001887	 0.000830	 0.002362	 0.999995	 5
1461766122.158	 3	 -0.001980	 0.001521	 0.003627	 0.001661	 -0.003803	 0.004770	 -0.001903	 0.000826	 0.002383	 0.999995	 5
1461766122.168	 3	 -0.003047	 0.001522	 0.003636	 0.001639	 -0.003825	 0.004811	 -0.001914	 0.000815	 0.002404	 0.999995	 5
1461766122.178	 3	 -0.003040	 0.002584	 0.003646	 0.001626	 -0.003827	 0.004853	 -0.001915	 0.000808	 0.002425	 0.999995	 5
1461766122.188	 3	 -0.001971	 0.002579	 0.003637	 0.001626	 -0.003819	 0.004889	 -0.001912	 0.000808	 0.002443	 0.999995	 5
1461766122.198	 3	 -0.001969	 0.002578	 0.003637	 0.001624	 -0.003792	 0.004925	 -0.001898	 0.000807	 0.002461	 0.999995	 5
1461766122.208	 3	 -0.004103	 0.002584	 0.003655	 0.001640	 -0.003818	 0.004962	 -0.001911	 0.000815	 0.002479	 0.999995	 5
1461766122.218	 3	 -0.003041	 0.001517	 0.003636	 0.001664	 -0.003844	 0.005004	 -0.001924	 0.000827	 0.002500	 0.999995	 5
1461766122.228	 3	 -0.000905	 0.001511	 0.003618	 0.001688	 -0.003835	 0.005040	 -0.001920	 0.000839	 0.002518	 0.999995	 5
1461766122.238	 3	 -0.003048	 -0.000610	 0.003617	 0.001697	 -0.003831	 0.005076	 -0.001918	 0.000844	 0.002536	 0.999995	 5
1461766122.248	 3	 -0.000900	 0.001518	 0.004683	 0.001698	 -0.003854	 0.005123	 -0.001929	 0.000844	 0.002560	 0.999995	 5
1461766122.258	 3	 -0.003033	 0.002579	 0.003646	 0.001695	 -0.003860	 0.005165	 -0.001932	 0.000843	 0.002581	 0.999994	 5
1461766122.268	 3	 -0.003033	 0.001521	 0.004702	 0.001668	 -0.003868	 0.005201	 -0.001936	 0.000829	 0.002599	 0.999994	 5
1461766122.278	 3	 -0.003033	 0.001512	 0.003636	 0.001670	 -0.003832	 0.005232	 -0.001918	 0.000830	 0.002614	 0.999994	 5
1461766122.288	 3	 -0.000894	 0.001512	 0.004683	 0.001662	 -0.003826	 0.005273	 -0.001915	 0.000826	 0.002635	 0.999994	 5
1461766122.298	 3	 -0.001971	 0.000444	 0.003617	 0.001674	 -0.003852	 0.005315	 -0.001928	 0.000832	 0.002656	 0.999994	 5
1461766122.308	 3	 -0.003032	 0.001512	 0.003636	 0.001726	 -0.003854	 0.005357	 -0.001929	 0.000858	 0.002677	 0.999994	 5
1461766122.318	 3	 -0.001955	 0.002581	 0.004703	 0.001762	 -0.003862	 0.005398	 -0.001933	 0.000876	 0.002697	 0.999994	 5
1461766122.328	 3	 -0.003030	 0.001512	 0.003636	 0.001763	 -0.003867	 0.005435	 -0.001936	 0.000876	 0.002716	 0.999994	 5
1461766122.338	 3	 -0.001963	 0.000451	 0.004683	 0.001731	 -0.003859	 0.005476	 -0.001932	 0.000860	 0.002736	 0.999994	 5
1461766122.348	 3	 -0.001962	 0.000449	 0.004683	 0.001709	 -0.003862	 0.005523	 -0.001933	 0.000849	 0.002760	 0.999994	 5
1461766122.358	 3	 -0.003027	 0.001507	 0.003636	 0.001705	 -0.003862	 0.005564	 -0.001933	 0.000847	 0.002780	 0.999994	 5
1461766122.368	 3	 -0.003026	 0.002562	 0.002580	 0.001717	 -0.003893	 0.005590	 -0.001949	 0.000853	 0.002793	 0.999994	 5
1461766122.378	 3	 -0.003015	 0.002576	 0.004712	 0.001714	 -0.003890	 0.005626	 -0.001947	 0.000852	 0.002812	 0.999994	 5
1461766122.388	 3	 -0.003029	 0.000439	 0.003626	 0.001678	 -0.003911	 0.005668	 -0.001958	 0.000833	 0.002832	 0.999994	 5
1461766122.398	 3	 -0.003021	 0.001501	 0.003636	 0.001672	 -0.003890	 0.005699	 -0.001947	 0.000831	 0.002848	 0.999994	 5
1461766122.408	 3	 -0.001948	 0.002561	 0.003637	 0.001683	 -0.003904	 0.005741	 -0.001954	 0.000836	 0.002869	 0.999994	 5
1461766122.418	 3	 -0.003019	 0.001500	 0.003636	 0.001693	 -0.003906	 0.005782	 -0.001955	 0.000841	 0.002889	 0.999994	 5
1461766122.428	 3	 -0.001947	 0.001504	 0.004693	 0.001708	 -0.003922	 0.005829	 -0.001964	 0.000848	 0.002913	 0.999993	 5
1461766122.438	 3	 -0.003017	 0.001500	 0.003636	 0.001729	 -0.003931	 0.005871	 -0.001968	 0.000859	 0.002934	 0.999993	 5
1461766122.448	 3	 -0.001951	 0.000439	 0.004683	 0.001707	 -0.003958	 0.005913	 -0.001981	 0.000848	 0.002955	 0.999993	 5
1461766122.458	 3	 -0.001950	 0.001493	 0.003627	 0.001687	 -0.003975	 0.005949	 -0.001990	 0.000838	 0.002973	 0.999993	 5
1461766122.468	 3	 -0.003024	 0.000424	 0.002560	 0.001677	 -0.003962	 0.005980	 -0.001983	 0.000832	 0.002988	 0.999993	 5
1461766122.478	 3	 -0.003013	 0.001494	 0.003636	 0.001681	 -0.003962	 0.006011	 -0.001984	 0.000834	 0.003004	 0.999993	 5
1461766122.488	 3	 -0.003006	 0.002556	 0.003646	 0.001671	 -0.003950	 0.006047	 -0.001978	 0.000829	 0.003022	 0.999993	 5
1461766122.498	 3	 -0.003010	 0.000437	 0.004692	 0.001694	 -0.003951	 0.006089	 -0.001978	 0.000841	 0.003043	 0.999993	 5
1461766122.508	 3	 -0.003008	 0.001492	 0.003636	 0.001692	 -0.003944	 0.006125	 -0.001975	 0.000840	 0.003061	 0.999993	 5
1461766122.518	 3	 -0.003009	 0.000434	 0.004692	 0.001670	 -0.003982	 0.006166	 -0.001993	 0.000829	 0.003082	 0.999993	 5
1461766122.528	 3	 -0.003008	 0.000431	 0.004692	 0.001624	 -0.003993	 0.006208	 -0.001999	 0.000806	 0.003102	 0.999993	 5
1461766122.538	 3	 -0.003005	 0.001488	 0.003636	 0.001651	 -0.003989	 0.006244	 -0.001997	 0.000819	 0.003120	 0.999993	 5
1461766122.548	 3	 -0.003005	 0.000431	 0.004692	 0.001646	 -0.003993	 0.006286	 -0.001999	 0.000817	 0.003141	 0.999993	 5
1461766122.558	 3	 -0.003008	 0.000423	 0.003626	 0.001651	 -0.004000	 0.006327	 -0.002002	 0.000819	 0.003162	 0.999993	 5
1461766122.568	 3	 -0.002997	 0.001493	 0.004702	 0.001646	 -0.004011	 0.006374	 -0.002008	 0.000817	 0.003186	 0.999993	 5
1461766122.578	 3	 -0.003005	 0.000420	 0.003626	 0.001637	 -0.004006	 0.006411	 -0.002006	 0.000812	 0.003204	 0.999993	 5
1461766122.588	 3	 -0.001931	 0.001480	 0.003627	 0.001634	 -0.004005	 0.006452	 -0.002005	 0.000810	 0.003224	 0.999992	 5
1461766122.598	 3	 -0.002992	 0.002546	 0.003646	 0.001651	 -0.004015	 0.006489	 -0.002010	 0.000819	 0.003243	 0.999992	 5
1461766122.608	 3	 -0.004063	 0.001485	 0.003645	 0.001661	 -0.004028	 0.006530	 -0.002016	 0.000824	 0.003263	 0.999992	 5
1461766122.618	 3	 -0.002991	 0.002546	 0.003646	 0.001690	 -0.004060	 0.006567	 -0.002033	 0.000838	 0.003282	 0.999992	 5
1461766122.628	 3	 -0.001926	 0.001480	 0.003627	 0.001739	 -0.004032	 0.006603	 -0.002019	 0.000863	 0.003300	 0.999992	 5
1461766122.638	 3	 -0.002986	 0.003604	 0.002590	 0.001771	 -0.004028	 0.006634	 -0.002017	 0.000879	 0.003315	 0.999992	 5
1461766122.648	 3	 -0.002982	 0.002556	 0.004711	 0.001800	 -0.004036	 0.006676	 -0.002021	 0.000893	 0.003336	 0.999992	 5
1461766122.658	 3	 -0.001924	 0.000422	 0.004682	 0.001765	 -0.004047	 0.006718	 -0.002027	 0.000876	 0.003357	 0.999992	 5
1461766122.668	 3	 -0.002989	 0.001481	 0.003636	 0.001776	 -0.004051	 0.006759	 -0.002029	 0.000881	 0.003378	 0.999992	 5
1461766122.678	 3	 -0.001920	 0.001476	 0.003626	 0.001771	 -0.004053	 0.006796	 -0.002029	 0.000878	 0.003396	 0.999992	 5
1461766122.688	 3	 -0.001919	 0.001477	 0.003626	 0.001794	 -0.004055	 0.006832	 -0.002030	 0.000890	 0.003414	 0.999992	 5
1461766122.698	 3	 -0.004047	 0.001489	 0.004711	 0.001773	 -0.004061	 0.006879	 -0.002034	 0.000880	 0.003438	 0.999992	 5
1461766122.708	 3	 -0.001920	 0.000410	 0.003617	 0.001778	 -0.004057	 0.006915	 -0.002031	 0.000882	 0.003456	 0.999992	 5
1461766122.718	 3	 -0.001909	 0.001478	 0.004692	 0.001742	 -0.004038	 0.006962	 -0.002022	 0.000864	 0.003479	 0.999992	 5
1461766122.728	 3	 -0.001911	 0.001468	 0.003626	 0.001717	 -0.004030	 0.006998	 -0.002018	 0.000852	 0.003497	 0.999991	 5
1461766122.738	 3	 -0.004035	 0.002545	 0.004721	 0.001736	 -0.004044	 0.007040	 -0.002025	 0.000861	 0.003518	 0.999991	 5
1461766122.748	 3	 -0.002982	 0.001463	 0.002570	 0.001753	 -0.004078	 0.007071	 -0.002042	 0.000869	 0.003534	 0.999991	 5
1461766122.758	 3	 -0.002973	 0.001478	 0.004701	 0.001760	 -0.004091	 0.007113	 -0.002048	 0.000873	 0.003555	 0.999991	 5
1461766122.768	 3	 -0.002976	 0.001469	 0.003636	 0.001767	 -0.004098	 0.007154	 -0.002052	 0.000876	 0.003575	 0.999991	 5
1461766122.778	 3	 -0.002970	 0.002533	 0.003646	 0.001791	 -0.004124	 0.007186	 -0.002065	 0.000888	 0.003591	 0.999991	 5
1461766122.788	 3	 -0.001912	 0.000404	 0.003616	 0.001821	 -0.004119	 0.007227	 -0.002063	 0.000903	 0.003612	 0.999991	 5
1461766122.798	 3	 -0.002976	 0.001464	 0.002570	 0.001846	 -0.004122	 0.007258	 -0.002065	 0.000915	 0.003627	 0.999991	 5
1461766122.808	 3	 -0.002975	 0.000407	 0.003626	 0.001846	 -0.004128	 0.007289	 -0.002067	 0.000915	 0.003643	 0.999991	 5
1461766122.818	 3	 -0.002969	 0.000414	 0.004692	 0.001845	 -0.004118	 0.007331	 -0.002062	 0.000915	 0.003664	 0.999991	 5
1461766122.828	 3	 -0.002970	 0.001462	 0.002570	 0.001849	 -0.004116	 0.007362	 -0.002061	 0.000917	 0.003679	 0.999991	 5
1461766122.838	 4	 -0.002960	 0.001476	 0.004701	 0.001841	 -0.004122	 0.007404	 -0.002064	 0.000913	 0.003700	 0.999991	 5
1461766122.858	 4	 -0.002958	 0.002529	 0.003645	 0.001832	 -0.004133	 0.007487	 -0.002070	 0.000908	 0.003741	 0.999990	 5
1461766122.868	 4	 -0.002962	 0.001467	 0.003636	 0.001865	 -0.004148	 0.007523	 -0.002077	 0.000925	 0.003760	 0.999990	 5
1461766122.878	 4	 -0.001894	 0.001464	 0.003626	 0.001884	 -0.004148	 0.007565	 -0.002078	 0.000934	 0.003780	 0.999990	 5
1461766122.888	 4	 -0.002960	 0.001467	 0.003636	 0.001905	 -0.004166	 0.007601	 -0.002087	 0.000945	 0.003799	 0.999990	 5
1461766122.898	 4	 -0.001887	 0.002526	 0.003636	 0.001897	 -0.004189	 0.007638	 -0.002098	 0.000940	 0.003817	 0.999990	 5
1461766122.908	 4	 -0.002963	 0.000398	 0.003626	 0.001849	 -0.004193	 0.007674	 -0.002100	 0.000916	 0.003835	 0.999990	 5
1461766122.918	 4	 -0.002955	 0.001461	 0.003636	 0.001854	 -0.004176	 0.007710	 -0.002092	 0.000919	 0.003853	 0.999990	 5
1461766122.928	 4	 -0.002959	 0.000398	 0.003626	 0.001862	 -0.004175	 0.007752	 -0.002091	 0.000923	 0.003874	 0.999990	 5
1461766122.938	 4	 -0.002952	 0.001459	 0.003636	 0.001847	 -0.004169	 0.007788	 -0.002088	 0.000915	 0.003892	 0.999990	 5
1461766122.948	 4	 -0.001879	 0.001461	 0.004692	 0.001807	 -0.004170	 0.007834	 -0.002089	 0.000895	 0.003915	 0.999990	 5
1461766122.958	 4	 -0.002945	 0.002520	 0.003645	 0.001828	 -0.004191	 0.007876	 -0.002099	 0.000906	 0.003936	 0.999990	 5
1461766122.968	 4	 -0.002950	 0.001453	 0.003635	 0.001796	 -0.004212	 0.007912	 -0.002110	 0.000890	 0.003954	 0.999990	 5
1461766122.978	 4	 -0.001882	 0.001447	 0.003626	 0.001772	 -0.004235	 0.007943	 -0.002121	 0.000877	 0.003970	 0.999989	 5
1461766122.988	 4	 -0.002947	 0.001451	 0.003635	 0.001790	 -0.004216	 0.007980	 -0.002112	 0.000886	 0.003988	 0.999989	 5
1461766122.998	 4	 -0.002939	 0.002512	 0.003645	 0.001765	 -0.004218	 0.008027	 -0.002112	 0.000874	 0.004011	 0.999989	 5
1461766123.008	 4	 -0.000813	 0.000378	 0.003607	 0.001767	 -0.004200	 0.008068	 -0.002104	 0.000875	 0.004032	 0.999989	 5
1461766123.018	 4	 -0.002943	 0.001446	 0.003635	 0.001761	 -0.004233	 0.008115	 -0.002120	 0.000872	 0.004056	 0.999989	 5
1461766123.028	 4	 -0.001875	 0.000386	 0.004682	 0.001750	 -0.004232	 0.008157	 -0.002119	 0.000866	 0.004076	 0.999989	 5
1461766123.038	 4	 -0.002944	 0.000379	 0.003626	 0.001735	 -0.004226	 0.008193	 -0.002116	 0.000859	 0.004095	 0.999989	 5
1461766123.048	 4	 -0.002934	 0.001450	 0.004701	 0.001746	 -0.004246	 0.008234	 -0.002127	 0.000864	 0.004115	 0.999989	 5
1461766123.058	 4	 -0.001870	 0.001439	 0.003626	 0.001750	 -0.004250	 0.008276	 -0.002129	 0.000866	 0.004136	 0.999989	 5
1461766123.068	 4	 -0.001869	 0.001440	 0.003626	 0.001777	 -0.004261	 0.008313	 -0.002134	 0.000880	 0.004154	 0.999989	 5
1461766123.078	 4	 -0.004005	 0.001445	 0.003530	 0.001775	 -0.004270	 0.008348	 -0.002139	 0.000878	 0.004172	 0.999989	 5
1461766123.088	 4	 -0.002937	 0.001442	 0.003520	 0.001793	 -0.004286	 0.008389	 -0.002147	 0.000887	 0.004192	 0.999989	 5
1461766123.098	 4	 -0.001864	 0.001447	 0.004577	 0.001807	 -0.004263	 0.008435	 -0.002135	 0.000894	 0.004215	 0.999988	 5
1461766123.108	 4	 -0.001872	 0.000374	 0.003501	 0.001790	 -0.004243	 0.008475	 -0.002125	 0.000886	 0.004236	 0.999988	 5
1461766123.118	 4	 -0.001862	 0.001445	 0.004577	 0.001778	 -0.004249	 0.008515	 -0.002128	 0.000880	 0.004256	 0.999988	 5
1461766123.128	 4	 -0.001865	 0.001436	 0.003511	 0.001758	 -0.004226	 0.008556	 -0.002117	 0.000870	 0.004276	 0.999988	 5
1461766123.138	 4	 -0.002936	 0.001430	 0.002454	 0.001734	 -0.004239	 0.008591	 -0.002123	 0.000858	 0.004293	 0.999988	 5
1461766123.148	 4	 -0.002923	 0.002508	 0.004596	 0.001730	 -0.004265	 0.008631	 -0.002136	 0.000856	 0.004314	 0.999988	 5
1461766123.158	 4	 -0.001865	 0.000378	 0.004567	 0.001755	 -0.004279	 0.008672	 -0.002143	 0.000868	 0.004334	 0.999988	 5
1461766123.168	 4	 -0.001863	 0.001433	 0.003511	 0.001731	 -0.004265	 0.008707	 -0.002136	 0.000856	 0.004351	 0.999988	 5
1461766123.178	 4	 -0.003997	 0.001439	 0.003530	 0.001740	 -0.004274	 0.008747	 -0.002141	 0.000861	 0.004372	 0.999988	 5
1461766123.188	 4	 -0.001862	 0.001432	 0.003511	 0.001740	 -0.004279	 0.008777	 -0.002143	 0.000860	 0.004387	 0.999988	 5
1461766123.198	 4	 -0.002924	 0.001442	 0.004586	 0.001745	 -0.004286	 0.008823	 -0.002147	 0.000863	 0.004409	 0.999988	 5
1461766123.208	 4	 -0.002927	 0.001434	 0.003520	 0.001744	 -0.004286	 0.008858	 -0.002147	 0.000863	 0.004427	 0.999988	 5
1461766123.218	 4	 -0.002926	 0.001433	 0.003520	 0.001750	 -0.004286	 0.008888	 -0.002147	 0.000865	 0.004442	 0.999987	 5
1461766123.228	 4	 -0.002921	 0.001441	 0.004586	 0.001758	 -0.004280	 0.008934	 -0.002144	 0.000869	 0.004465	 0.999987	 5
1461766123.238	 4	 -0.001863	 0.000366	 0.003501	 0.001757	 -0.004304	 0.008969	 -0.002156	 0.000869	 0.004483	 0.999987	 5
1461766123.248	 4	 -0.002929	 0.000371	 0.003510	 0.001802	 -0.004302	 0.009004	 -0.002155	 0.000891	 0.004500	 0.999987	 5
1461766123.258	 4	 -0.001851	 0.001438	 0.004577	 0.001803	 -0.004286	 0.009045	 -0.002147	 0.000892	 0.004520	 0.999987	 5
1461766123.268	 4	 -0.003993	 0.001427	 0.002464	 0.001779	 -0.004307	 0.009074	 -0.002158	 0.000880	 0.004535	 0.999987	 5
1461766123.278	 4	 -0.003993	 0.001428	 0.002464	 0.001815	 -0.004325	 0.009099	 -0.002166	 0.000898	 0.004548	 0.999987	 5
1461766123.288	 4	 -0.002927	 0.000367	 0.003510	 0.001784	 -0.004354	 0.009134	 -0.002181	 0.000882	 0.004565	 0.999987	 5
1461766123.298	 4	 -0.002875	 0.002480	 0.004552	 0.001793	 -0.004356	 0.009169	 -0.002182	 0.000887	 0.004583	 0.999987	 5
1461766123.308	 4	 -0.002885	 0.000352	 0.004532	 0.001781	 -0.004359	 0.009220	 -0.002184	 0.000881	 0.004608	 0.999987	 5
1461766123.318	 4	 -0.001817	 0.000348	 0.004523	 0.001772	 -0.004360	 0.009260	 -0.002184	 0.000876	 0.004628	 0.999987	 5
1461766123.328	 4	 -0.005018	 0.000357	 0.004551	 0.001764	 -0.004376	 0.009305	 -0.002192	 0.000872	 0.004651	 0.999986	 5
1461766123.338	 4	 -0.001816	 0.001403	 0.003467	 0.001766	 -0.004381	 0.009345	 -0.002195	 0.000873	 0.004671	 0.999986	 5
1461766123.348	 4	 -0.001815	 0.001403	 0.003467	 0.001777	 -0.004370	 0.009380	 -0.002189	 0.000878	 0.004688	 0.999986	 5
1461766123.358	 4	 -0.002876	 0.002469	 0.003486	 0.001787	 -0.004369	 0.009415	 -0.002189	 0.000883	 0.004705	 0.999986	 5
1461766123.368	 4	 -0.002882	 0.000350	 0.004532	 0.001794	 -0.004369	 0.009455	 -0.002189	 0.000886	 0.004725	 0.999986	 5
1461766123.378	 4	 -0.001813	 0.001401	 0.003467	 0.001776	 -0.004357	 0.009494	 -0.002183	 0.000878	 0.004745	 0.999986	 5
1461766123.388	 4	 -0.003937	 0.002479	 0.004561	 0.001788	 -0.004358	 0.009535	 -0.002183	 0.000884	 0.004765	 0.999986	 5
1461766123.398	 4	 -0.000754	 -0.000731	 0.003438	 0.001732	 -0.004345	 0.009574	 -0.002177	 0.000856	 0.004785	 0.999986	 5
1461766123.408	 4	 -0.001811	 0.000343	 0.004523	 0.001720	 -0.004314	 0.009614	 -0.002161	 0.000849	 0.004805	 0.999986	 5
1461766123.418	 4	 -0.002878	 0.000346	 0.004532	 0.001704	 -0.004340	 0.009659	 -0.002174	 0.000841	 0.004828	 0.999986	 5
1461766123.428	 4	 -0.002877	 0.001402	 0.003476	 0.001724	 -0.004354	 0.009700	 -0.002181	 0.000851	 0.004848	 0.999986	 5
1461766123.438	 4	 -0.003948	 0.000340	 0.003475	 0.001703	 -0.004359	 0.009734	 -0.002184	 0.000841	 0.004865	 0.999985	 5
1461766123.448	 4	 -0.002872	 0.001408	 0.004542	 0.001709	 -0.004380	 0.009780	 -0.002194	 0.000844	 0.004888	 0.999985	 5
1461766123.458	 4	 -0.001809	 0.001397	 0.003467	 0.001706	 -0.004398	 0.009820	 -0.002203	 0.000842	 0.004908	 0.999985	 5
1461766123.468	 4	 -0.002716	 0.000232	 0.003462	 0.001711	 -0.004381	 0.009854	 -0.002195	 0.000845	 0.004925	 0.999985	 5
1461766123.478	 4	 -0.001643	 0.001292	 0.003462	 0.001728	 -0.004359	 0.009889	 -0.002184	 0.000853	 0.004943	 0.999985	 5
1461766123.488	 4	 -0.001642	 0.001292	 0.003462	 0.001719	 -0.004345	 0.009918	 -0.002177	 0.000849	 0.004957	 0.999985	 5
1461766123.498	 4	 -0.001637	 0.001300	 0.004528	 0.001731	 -0.004334	 0.009964	 -0.002171	 0.000854	 0.004980	 0.999985	 5
1461766123.508	 4	 -0.002704	 0.001302	 0.004537	 0.001722	 -0.004328	 0.010003	 -0.002168	 0.000850	 0.005000	 0.999985	 5
1461766123.518	 4	 -0.002716	 0.001278	 0.001340	 0.001701	 -0.004331	 0.010033	 -0.002170	 0.000840	 0.005014	 0.999985	 5
1461766123.528	 4	 -0.001636	 0.001298	 0.004528	 0.001700	 -0.004317	 0.010073	 -0.002163	 0.000839	 0.005034	 0.999985	 5
1461766123.538	 4	 -0.001635	 0.001297	 0.004528	 0.001682	 -0.004310	 0.010113	 -0.002159	 0.000830	 0.005054	 0.999985	 5
1461766123.548	 4	 -0.001639	 0.001289	 0.003462	 0.001698	 -0.004295	 0.010147	 -0.002152	 0.000838	 0.005072	 0.999984	 5
1461766123.558	 4	 -0.002704	 0.002347	 0.002415	 0.001679	 -0.004287	 0.010176	 -0.002148	 0.000828	 0.005086	 0.999984	 5
1461766123.568	 4	 -0.001643	 0.000224	 0.003452	 0.001679	 -0.004307	 0.010211	 -0.002158	 0.000829	 0.005104	 0.999984	 5
1461766123.578	 4	 -0.001634	 0.001295	 0.004528	 0.001658	 -0.004322	 0.010251	 -0.002165	 0.000818	 0.005124	 0.999984	 5
1461766123.588	 4	 -0.001637	 0.001286	 0.003462	 0.001620	 -0.004306	 0.010285	 -0.002157	 0.000799	 0.005141	 0.999984	 5
1461766123.598	 4	 -0.002700	 0.001296	 0.004537	 0.001634	 -0.004312	 0.010325	 -0.002160	 0.000806	 0.005161	 0.999984	 5
1461766123.608	 4	 -0.002699	 0.002352	 0.003481	 0.001641	 -0.004315	 0.010371	 -0.002162	 0.000809	 0.005184	 0.999984	 5
1461766123.618	 4	 -0.001632	 0.001293	 0.004528	 0.001671	 -0.004319	 0.010416	 -0.002164	 0.000824	 0.005206	 0.999984	 5
1461766123.628	 4	 -0.001437	 0.001170	 0.004528	 0.001668	 -0.004314	 0.010456	 -0.002161	 0.000823	 0.005226	 0.999984	 5
1461766123.638	 4	 -0.001445	 0.000099	 0.003452	 0.001663	 -0.004301	 0.010496	 -0.002155	 0.000820	 0.005246	 0.999984	 5
1461766123.648	 4	 -0.002507	 0.001165	 0.003471	 0.001662	 -0.004290	 0.010536	 -0.002149	 0.000820	 0.005266	 0.999983	 5
1461766123.658	 4	 -0.000362	 0.003286	 0.003472	 0.001674	 -0.004269	 0.010571	 -0.002139	 0.000826	 0.005283	 0.999983	 5
1461766123.668	 4	 -0.002510	 0.000100	 0.003462	 0.001642	 -0.004236	 0.010605	 -0.002122	 0.000810	 0.005301	 0.999983	 5
1461766123.678	 4	 -0.001442	 0.001153	 0.002396	 0.001648	 -0.004221	 0.010629	 -0.002115	 0.000813	 0.005313	 0.999983	 5
1461766123.688	 4	 -0.003571	 0.001167	 0.003481	 0.001651	 -0.004226	 0.010669	 -0.002118	 0.000814	 0.005333	 0.999983	 5
1461766123.698	 4	 -0.002509	 0.000100	 0.003461	 0.001655	 -0.004213	 0.010709	 -0.002111	 0.000816	 0.005353	 0.999983	 5
1461766123.708	 4	 -0.002504	 0.000107	 0.004527	 0.001642	 -0.004217	 0.010754	 -0.002113	 0.000810	 0.005375	 0.999983	 5
1461766123.718	 4	 -0.001445	 0.000089	 0.002386	 0.001657	 -0.004201	 0.010784	 -0.002105	 0.000817	 0.005390	 0.999983	 5
1461766123.728	 4	 -0.003560	 0.002238	 0.004556	 0.001671	 -0.004188	 0.010829	 -0.002099	 0.000824	 0.005413	 0.999983	 5
1461766123.738	 4	 -0.001435	 0.001160	 0.003462	 0.001685	 -0.004182	 0.010869	 -0.002095	 0.000831	 0.005433	 0.999983	 5
1461766123.748	 4	 -0.002500	 0.001162	 0.003471	 0.001634	 -0.004138	 0.010904	 -0.002074	 0.000806	 0.005450	 0.999983	 5
1461766123.758	 4	 0.000680	 -0.004159	 0.004460	 0.001584	 -0.004119	 0.010943	 -0.002064	 0.000781	 0.005470	 0.999983	 5
1461766123.768	 4	 -0.002505	 -0.000959	 0.004517	 0.001554	 -0.004103	 0.010993	 -0.002056	 0.000766	 0.005495	 0.999982	 5
1461766123.778	 4	 -0.001269	 -0.001089	 0.003439	 0.001514	 -0.004094	 0.011033	 -0.002051	 0.000746	 0.005515	 0.999982	 5
1461766123.788	 4	 -0.002321	 0.001049	 0.004534	 0.001513	 -0.004113	 0.011068	 -0.002061	 0.000745	 0.005532	 0.999982	 5
1461766123.798	 4	 -0.003387	 0.002108	 0.003487	 0.001517	 -0.004121	 0.011103	 -0.002065	 0.000747	 0.005550	 0.999982	 5
1461766123.808	 4	 -0.001253	 0.002102	 0.003469	 0.001556	 -0.004126	 0.011132	 -0.002067	 0.000767	 0.005564	 0.999982	 5
1461766123.818	 4	 -0.003387	 0.001052	 0.004543	 0.001554	 -0.004113	 0.011178	 -0.002061	 0.000766	 0.005587	 0.999982	 5
1461766123.828	 4	 -0.002318	 0.003160	 0.002422	 0.001574	 -0.004087	 0.011212	 -0.002048	 0.000776	 0.005604	 0.999982	 5
1461766123.838	 4	 -0.001246	 0.003165	 0.003479	 0.001572	 -0.004089	 0.011247	 -0.002049	 0.000774	 0.005622	 0.999982	 5
1461766123.848	 4	 -0.001247	 0.002108	 0.004534	 0.001577	 -0.004088	 0.011292	 -0.002049	 0.000777	 0.005644	 0.999982	 5
1461766123.858	 4	 -0.002328	 -0.000024	 0.003458	 0.001569	 -0.004087	 0.011327	 -0.002048	 0.000773	 0.005662	 0.999982	 5
1461766123.868	 4	 -0.001260	 0.001029	 0.002393	 0.001581	 -0.004100	 0.011356	 -0.002054	 0.000779	 0.005676	 0.999981	 5
1461766123.888	 5	 -0.002321	 0.001039	 0.003468	 0.001555	 -0.004070	 0.011420	 -0.002040	 0.000766	 0.005708	 0.999981	 5
1461766123.898	 5	 -0.003383	 0.002105	 0.003487	 0.001550	 -0.004068	 0.011455	 -0.002038	 0.000763	 0.005726	 0.999981	 5
1461766123.908	 5	 -0.001263	 -0.001092	 0.003439	 0.001536	 -0.004050	 0.011489	 -0.002029	 0.000757	 0.005743	 0.999981	 5
1461766123.918	 5	 -0.003383	 0.001049	 0.004543	 0.001528	 -0.004027	 0.011534	 -0.002018	 0.000753	 0.005766	 0.999981	 5
1461766123.928	 5	 -0.002319	 0.001038	 0.003468	 0.001569	 -0.004036	 0.011569	 -0.002023	 0.000773	 0.005783	 0.999981	 5
1461766123.938	 5	 -0.001248	 0.001042	 0.004525	 0.001521	 -0.004038	 0.011614	 -0.002023	 0.000749	 0.005806	 0.999981	 5
1461766123.948	 5	 -0.002107	 0.003041	 0.003478	 0.001542	 -0.004012	 0.011649	 -0.002010	 0.000759	 0.005823	 0.999981	 5
1461766123.958	 5	 -0.002117	 0.000914	 0.003458	 0.001561	 -0.004009	 0.011689	 -0.002009	 0.000769	 0.005843	 0.999981	 5
1461766123.968	 5	 -0.001055	 -0.000154	 0.003439	 0.001495	 -0.004002	 0.011728	 -0.002005	 0.000736	 0.005863	 0.999981	 5
1461766123.978	 5	 -0.001055	 -0.000154	 0.003439	 0.001480	 -0.004001	 0.011763	 -0.002005	 0.000728	 0.005880	 0.999980	 5
1461766123.988	 5	 -0.002117	 0.000913	 0.003458	 0.001491	 -0.004013	 0.011797	 -0.002011	 0.000734	 0.005897	 0.999980	 5
1461766123.998	 5	 -0.001054	 -0.000154	 0.003439	 0.001484	 -0.003996	 0.011832	 -0.002002	 0.000730	 0.005914	 0.999980	 5
1461766124.008	 5	 -0.001049	 0.000909	 0.003449	 0.001481	 -0.003993	 0.011871	 -0.002001	 0.000729	 0.005934	 0.999980	 5
1461766124.018	 5	 -0.001054	 -0.000154	 0.003439	 0.001498	 -0.003990	 0.011906	 -0.001999	 0.000737	 0.005951	 0.999980	 5
1461766124.028	 5	 -0.001058	 -0.000162	 0.002373	 0.001479	 -0.003993	 0.011935	 -0.002001	 0.000728	 0.005966	 0.999980	 5
1461766124.038	 5	 -0.002110	 0.003032	 0.002412	 0.001486	 -0.003977	 0.011969	 -0.001993	 0.000731	 0.005983	 0.999980	 5
1461766124.048	 5	 -0.002106	 0.001983	 0.004534	 0.001475	 -0.003978	 0.012009	 -0.001993	 0.000726	 0.006003	 0.999980	 5
1461766124.058	 5	 -0.002120	 -0.000153	 0.003449	 0.001451	 -0.003956	 0.012044	 -0.001982	 0.000714	 0.006020	 0.999980	 5
1461766124.068	 5	 -0.001042	 0.001971	 0.003459	 0.001456	 -0.003965	 0.012084	 -0.001987	 0.000716	 0.006040	 0.999980	 5
1461766124.078	 5	 -0.001047	 0.000907	 0.003449	 0.001455	 -0.003943	 0.012118	 -0.001976	 0.000716	 0.006058	 0.999979	 5
1461766124.088	 5	 -0.002118	 0.000903	 0.002393	 0.001473	 -0.003951	 0.012142	 -0.001980	 0.000724	 0.006069	 0.999979	 5
1461766124.098	 5	 -0.001940	 0.000807	 0.003443	 0.001460	 -0.003960	 0.012176	 -0.001984	 0.000718	 0.006087	 0.999979	 5
1461766124.108	 5	 -0.003007	 0.000810	 0.003452	 0.001438	 -0.003969	 0.012211	 -0.001989	 0.000707	 0.006104	 0.999979	 5
1461766124.118	 5	 -0.000873	 0.000803	 0.003433	 0.001433	 -0.003938	 0.012245	 -0.001973	 0.000704	 0.006121	 0.999979	 5
1461766124.128	 5	 -0.001944	 0.000799	 0.002377	 0.001438	 -0.003935	 0.012274	 -0.001972	 0.000707	 0.006136	 0.999979	 5
1461766124.138	 5	 -0.000872	 0.000803	 0.003433	 0.001420	 -0.003936	 0.012308	 -0.001972	 0.000698	 0.006153	 0.999979	 5
1461766124.148	 5	 -0.003006	 0.000809	 0.003452	 0.001441	 -0.003940	 0.012348	 -0.001974	 0.000709	 0.006173	 0.999979	 5
1461766124.158	 5	 -0.001935	 0.000813	 0.004508	 0.001425	 -0.003940	 0.012393	 -0.001975	 0.000700	 0.006195	 0.999979	 5
1461766124.168	 5	 -0.003011	 -0.000255	 0.003442	 0.001434	 -0.003933	 0.012428	 -0.001971	 0.000705	 0.006212	 0.999979	 5
1461766124.178	 5	 0.000195	 -0.000256	 0.004480	 0.001449	 -0.003917	 0.012467	 -0.001963	 0.000712	 0.006232	 0.999978	 5
1461766124.188	 5	 -0.001934	 0.000813	 0.004508	 0.001441	 -0.003918	 0.012512	 -0.001964	 0.000708	 0.006255	 0.999978	 5
1461766124.198	 5	 -0.000872	 -0.000254	 0.004489	 0.001401	 -0.003926	 0.012557	 -0.001967	 0.000688	 0.006277	 0.999978	 5
1461766124.208	 5	 -0.000871	 -0.000254	 0.004489	 0.001416	 -0.003912	 0.012602	 -0.001960	 0.000696	 0.006300	 0.999978	 5
1461766124.218	 5	 -0.000870	 0.000802	 0.003433	 0.001453	 -0.003922	 0.012637	 -0.001965	 0.000714	 0.006317	 0.999978	 5
1461766124.228	 5	 -0.000869	 0.001858	 0.002377	 0.001479	 -0.003890	 0.012661	 -0.001950	 0.000727	 0.006329	 0.999978	 5
1461766124.248	 6	 -0.001931	 0.001869	 0.003452	 0.001497	 -0.003889	 0.012730	 -0.001949	 0.000736	 0.006363	 0.999978	 5
1461766124.258	 6	 -0.001780	 0.000710	 0.003420	 0.001498	 -0.003868	 0.012769	 -0.001939	 0.000736	 0.006383	 0.999977	 5
1461766124.268	 6	 -0.001775	 0.001773	 0.003430	 0.001482	 -0.003885	 0.012809	 -0.001947	 0.000728	 0.006403	 0.999977	 5
1461766124.278	 6	 -0.001771	 0.001780	 0.004495	 0.001486	 -0.003886	 0.012854	 -0.001948	 0.000731	 0.006425	 0.999977	 5
1461766124.288	 6	 -0.001780	 0.000709	 0.003420	 0.001471	 -0.003904	 0.012888	 -0.001957	 0.000723	 0.006442	 0.999977	 5
1461766124.308	 7	 -0.000714	 0.000705	 0.003410	 0.001457	 -0.003942	 0.012961	 -0.001976	 0.000716	 0.006479	 0.999977	 5
1461766124.318	 7	 -0.000718	 -0.000359	 0.003401	 0.001462	 -0.003921	 0.012990	 -0.001965	 0.000718	 0.006494	 0.999977	 5
1461766124.328	 7	 -0.000714	 -0.000351	 0.004466	 0.001469	 -0.003900	 0.013035	 -0.001955	 0.000722	 0.006516	 0.999977	 5
1461766124.338	 7	 -0.001775	 0.000716	 0.004486	 0.001474	 -0.003888	 0.013080	 -0.001949	 0.000724	 0.006538	 0.999976	 5
1461766124.348	 7	 -0.000717	 0.000697	 0.002345	 0.001495	 -0.003892	 0.013114	 -0.001951	 0.000735	 0.006555	 0.999976	 5
1461766124.358	 7	 -0.001775	 0.000716	 0.004486	 0.001489	 -0.003878	 0.013148	 -0.001944	 0.000732	 0.006572	 0.999976	 5
1461766124.368	 7	 -0.000708	 0.000712	 0.004476	 0.001503	 -0.003874	 0.013193	 -0.001942	 0.000739	 0.006595	 0.999976	 5
1461766124.378	 7	 -0.001778	 0.001763	 0.002364	 0.001480	 -0.003866	 0.013227	 -0.001938	 0.000727	 0.006612	 0.999976	 5
1461766124.388	 7	 -0.000707	 0.001768	 0.003420	 0.001483	 -0.003847	 0.013266	 -0.001929	 0.000729	 0.006632	 0.999976	 5
1461766124.398	 7	 -0.001779	 0.000707	 0.003420	 0.001466	 -0.003860	 0.013306	 -0.001935	 0.000720	 0.006651	 0.999976	 5
1461766124.408	 7	 -0.001774	 0.000714	 0.004486	 0.001466	 -0.003859	 0.013351	 -0.001934	 0.000720	 0.006674	 0.999976	 5
1461766124.418	 7	 -0.000716	 0.000696	 0.002345	 0.001477	 -0.003846	 0.013374	 -0.001928	 0.000726	 0.006686	 0.999976	 5
1461766124.428	 7	 -0.000611	 -0.000439	 0.004437	 0.001481	 -0.003848	 0.013408	 -0.001929	 0.000727	 0.006702	 0.999975	 5
1461766124.448	 8	 -0.001677	 0.000618	 0.003390	 0.001415	 -0.003839	 0.013481	 -0.001924	 0.000695	 0.006739	 0.999975	 5
1461766124.458	 8	 0.000452	 -0.000452	 0.003362	 0.001390	 -0.003837	 0.013520	 -0.001923	 0.000682	 0.006758	 0.999975	 5
1461766124.468	 8	 -0.001673	 0.000626	 0.004456	 0.001386	 -0.003819	 0.013559	 -0.001914	 0.000680	 0.006778	 0.999975	 5
1461766124.478	 8	 -0.001677	 0.000618	 0.003390	 0.001372	 -0.003839	 0.013593	 -0.001924	 0.000673	 0.006795	 0.999975	 5
1461766124.488	 8	 -0.000610	 0.000614	 0.003381	 0.001358	 -0.003833	 0.013621	 -0.001921	 0.000666	 0.006809	 0.999975	 5
1461766124.508	 9	 -0.001681	 0.000610	 0.002325	 0.001382	 -0.003842	 0.013678	 -0.001925	 0.000678	 0.006838	 0.999975	 5
1461766124.518	 9	 -0.001677	 -0.000439	 0.004446	 0.001362	 -0.003819	 0.013723	 -0.001914	 0.000668	 0.006860	 0.999974	 5
1461766124.528	 9	 -0.001671	 0.001680	 0.003400	 0.001364	 -0.003800	 0.013762	 -0.001904	 0.000669	 0.006880	 0.999974	 5
1461766124.538	 9	 -0.001681	 -0.000447	 0.003380	 0.001359	 -0.003795	 0.013796	 -0.001902	 0.000666	 0.006896	 0.999974	 5
1461766124.548	 9	 -0.001681	 -0.000448	 0.003380	 0.001342	 -0.003822	 0.013829	 -0.001915	 0.000658	 0.006913	 0.999974	 5
1461766124.558	 9	 -0.001676	 0.000616	 0.003390	 0.001321	 -0.003833	 0.013863	 -0.001921	 0.000647	 0.006930	 0.999974	 5
1461766124.568	 9	 -0.001677	 -0.000440	 0.004446	 0.001359	 -0.003825	 0.013908	 -0.001917	 0.000666	 0.006953	 0.999974	 5
1461766124.578	 9	 -0.001598	 0.001615	 0.004434	 0.001370	 -0.003812	 0.013958	 -0.001911	 0.000672	 0.006977	 0.999974	 5
1461766124.588	 9	 -0.000531	 0.001612	 0.004424	 0.001360	 -0.003795	 0.013996	 -0.001902	 0.000667	 0.006997	 0.999973	 5
1461766124.598	 9	 -0.001599	 0.000559	 0.005490	 0.001356	 -0.003791	 0.014046	 -0.001900	 0.000665	 0.007022	 0.999973	 5
1461766124.608	 9	 0.000522	 -0.000527	 0.003330	 0.001357	 -0.003768	 0.014079	 -0.001889	 0.000665	 0.007038	 0.999973	 5
1461766124.618	 9	 -0.000545	 -0.000523	 0.003339	 0.001369	 -0.003756	 0.014118	 -0.001883	 0.000671	 0.007058	 0.999973	 5
1461766124.628	 9	 -0.002679	 -0.000517	 0.003358	 0.001370	 -0.003748	 0.014157	 -0.001879	 0.000672	 0.007077	 0.999973	 5
1461766124.638	 9	 -0.000531	 0.000556	 0.005480	 0.001377	 -0.003748	 0.014202	 -0.001879	 0.000675	 0.007099	 0.999973	 5
1461766124.648	 9	 -0.002664	 0.001618	 0.004443	 0.001389	 -0.003763	 0.014246	 -0.001886	 0.000681	 0.007122	 0.999973	 5
1461766124.658	 9	 -0.000534	 0.001604	 0.003359	 0.001409	 -0.003751	 0.014285	 -0.001880	 0.000691	 0.007141	 0.999972	 5
1461766124.668	 9	 -0.001601	 0.001607	 0.003368	 0.001405	 -0.003757	 0.014319	 -0.001883	 0.000689	 0.007158	 0.999972	 5
1461766124.678	 9	 -0.000534	 0.000548	 0.004415	 0.001417	 -0.003753	 0.014357	 -0.001882	 0.000695	 0.007177	 0.999972	 5
1461766124.688	 9	 0.000529	 0.000536	 0.003339	 0.001410	 -0.003743	 0.014391	 -0.001877	 0.000692	 0.007194	 0.999972	 5
1461766124.698	 9	 -0.001601	 0.000551	 0.004424	 0.001453	 -0.003734	 0.014435	 -0.001872	 0.000713	 0.007216	 0.999972	 5
1461766124.708	 9	 -0.001604	 0.001599	 0.002302	 0.001447	 -0.003720	 0.014463	 -0.001865	 0.000710	 0.007230	 0.999972	 5
1461766124.718	 9	 -0.002667	 0.001609	 0.003377	 0.001441	 -0.003729	 0.014497	 -0.001870	 0.000707	 0.007247	 0.999972	 5
1461766124.728	 9	 -0.001605	 0.000542	 0.003358	 0.001438	 -0.003735	 0.014531	 -0.001873	 0.000705	 0.007264	 0.999972	 5
1461766124.738	 9	 -0.000538	 -0.000517	 0.004405	 0.001422	 -0.003715	 0.014575	 -0.001863	 0.000697	 0.007286	 0.999971	 5
1461766124.748	 9	 -0.001542	 0.000482	 0.004386	 0.001378	 -0.003704	 0.014613	 -0.001857	 0.000675	 0.007305	 0.999971	 5
1461766124.758	 9	 -0.000470	 0.001542	 0.004386	 0.001396	 -0.003713	 0.014651	 -0.001862	 0.000684	 0.007324	 0.999971	 5
1461766124.768	 9	 -0.001547	 -0.000582	 0.004376	 0.001388	 -0.003721	 0.014695	 -0.001866	 0.000680	 0.007346	 0.999971	 5
1461766124.778	 9	 -0.001541	 0.001537	 0.003330	 0.001386	 -0.003719	 0.014734	 -0.001864	 0.000679	 0.007366	 0.999971	 5
1461766124.788	 9	 -0.001551	 -0.000590	 0.003310	 0.001407	 -0.003716	 0.014767	 -0.001863	 0.000690	 0.007382	 0.999971	 5
1461766124.808	 10	 -0.001541	 0.000481	 0.004386	 0.001404	 -0.003689	 0.014855	 -0.001850	 0.000688	 0.007426	 0.999970	 5
1461766124.818	 10	 -0.001541	 0.000481	 0.004386	 0.001425	 -0.003679	 0.014893	 -0.001845	 0.000699	 0.007445	 0.999970	 5
1461766124.828	 10	 -0.001546	 -0.000583	 0.004376	 0.001422	 -0.003721	 0.014937	 -0.001866	 0.000697	 0.007467	 0.999970	 5
1461766124.838	 10	 -0.001545	 0.000473	 0.003320	 0.001447	 -0.003725	 0.014971	 -0.001868	 0.000710	 0.007484	 0.999970	 5
1461766124.848	 10	 -0.000478	 0.000470	 0.003311	 0.001459	 -0.003701	 0.015004	 -0.001856	 0.000716	 0.007500	 0.999970	 5
1461766124.858	 10	 -0.001545	 0.000473	 0.003320	 0.001471	 -0.003698	 0.015031	 -0.001854	 0.000721	 0.007514	 0.999970	 5
1461766124.868	 10	 -0.001549	 0.000465	 0.002254	 0.001459	 -0.003699	 0.015059	 -0.001855	 0.000716	 0.007528	 0.999970	 5
1461766124.878	 10	 -0.001546	 -0.000583	 0.004376	 0.001458	 -0.003682	 0.015098	 -0.001847	 0.000715	 0.007547	 0.999970	 5
1461766124.888	 10	 -0.001545	 -0.000583	 0.004376	 0.001461	 -0.003684	 0.015136	 -0.001848	 0.000716	 0.007567	 0.999969	 5
1461766124.898	 10	 -0.001545	 0.000473	 0.003320	 0.001475	 -0.003691	 0.015175	 -0.001851	 0.000723	 0.007586	 0.999969	 5
1461766124.908	 10	 -0.000343	 0.001473	 0.003280	 0.001473	 -0.003680	 0.015213	 -0.001846	 0.000723	 0.007605	 0.999969	 5
1461766124.918	 10	 -0.000353	 -0.001710	 0.004316	 0.001452	 -0.003674	 0.015251	 -0.001842	 0.000712	 0.007624	 0.999969	 5
1461766124.928	 10	 -0.001415	 0.000413	 0.003279	 0.001445	 -0.003676	 0.015289	 -0.001844	 0.000709	 0.007643	 0.999969	 5
1461766124.938	 10	 -0.000348	 -0.000647	 0.004326	 0.001446	 -0.003671	 0.015332	 -0.001841	 0.000709	 0.007665	 0.999969	 5
1461766124.948	 10	 -0.001416	 -0.000643	 0.004335	 0.001459	 -0.003682	 0.015376	 -0.001847	 0.000715	 0.007686	 0.999968	 5
1461766124.968	 11	 -0.000343	 0.000417	 0.004336	 0.001453	 -0.003658	 0.015457	 -0.001835	 0.000712	 0.007727	 0.999968	 5
1461766124.978	 11	 -0.001414	 0.000412	 0.003279	 0.001462	 -0.003639	 0.015490	 -0.001825	 0.000717	 0.007743	 0.999968	 5
1461766124.998	 12	 -0.001414	 0.000412	 0.003279	 0.001494	 -0.003594	 0.015566	 -0.001803	 0.000733	 0.007782	 0.999968	 5
1461766125.008	 12	 -0.001418	 0.000405	 0.002213	 0.001502	 -0.003578	 0.015583	 -0.001795	 0.000737	 0.007790	 0.999968	 5
1461766125.018	 12	 -0.001409	 0.000420	 0.004345	 0.001492	 -0.003584	 0.015621	 -0.001798	 0.000732	 0.007809	 0.999968	 5
1461766125.028	 12	 -0.002476	 0.001478	 0.003298	 0.001468	 -0.003601	 0.015659	 -0.001806	 0.000720	 0.007828	 0.999967	 5
1461766125.038	 12	 -0.000346	 0.000408	 0.003270	 0.001483	 -0.003585	 0.015697	 -0.001798	 0.000727	 0.007847	 0.999967	 5
1461766125.048	 12	 -0.001408	 0.001476	 0.003289	 0.001525	 -0.003551	 0.015730	 -0.001781	 0.000748	 0.007864	 0.999967	 5
1461766125.058	 12	 -0.001414	 -0.000644	 0.004335	 0.001515	 -0.003556	 0.015768	 -0.001784	 0.000743	 0.007883	 0.999967	 5
1461766125.068	 12	 -0.001304	 0.000360	 0.003237	 0.001517	 -0.003568	 0.015801	 -0.001790	 0.000744	 0.007899	 0.999967	 5
1461766125.078	 12	 -0.001304	 0.000360	 0.003237	 0.001526	 -0.003590	 0.015833	 -0.001801	 0.000749	 0.007915	 0.999967	 5
1461766125.088	 12	 -0.001304	 0.000360	 0.003237	 0.001512	 -0.003592	 0.015865	 -0.001802	 0.000742	 0.007931	 0.999967	 5
1461766125.098	 12	 -0.001304	 0.000360	 0.003237	 0.001512	 -0.003592	 0.015898	 -0.001802	 0.000742	 0.007947	 0.999967	 5
1461766125.108	 12	 -0.002371	 0.000363	 0.003246	 0.001521	 -0.003595	 0.015936	 -0.001804	 0.000746	 0.007966	 0.999966	 5
1461766125.118	 12	 -0.000236	 0.000357	 0.003228	 0.001521	 -0.003588	 0.015968	 -0.001800	 0.000746	 0.007983	 0.999966	 5
1461766125.128	 12	 -0.000237	 -0.000700	 0.004284	 0.001476	 -0.003584	 0.016005	 -0.001798	 0.000723	 0.008001	 0.999966	 5
1461766125.138	 12	 -0.002366	 0.001426	 0.003256	 0.001464	 -0.003591	 0.016048	 -0.001802	 0.000717	 0.008023	 0.999966	 5
1461766125.148	 12	 -0.001303	 0.000359	 0.003237	 0.001419	 -0.003592	 0.016081	 -0.001802	 0.000695	 0.008039	 0.999966	 5
1461766125.158	 12	 -0.001308	 0.000350	 0.002171	 0.001382	 -0.003609	 0.016108	 -0.001810	 0.000677	 0.008052	 0.999966	 5
1461766125.168	 12	 -0.000246	 -0.000716	 0.002152	 0.001388	 -0.003605	 0.016134	 -0.001808	 0.000679	 0.008066	 0.999966	 5
1461766125.178	 12	 -0.000237	 -0.000701	 0.004284	 0.001409	 -0.003586	 0.016177	 -0.001799	 0.000690	 0.008087	 0.999965	 5
1461766125.188	 12	 -0.000236	 0.000355	 0.003228	 0.001450	 -0.003581	 0.016215	 -0.001796	 0.000710	 0.008106	 0.999965	 5
1461766125.198	 12	 -0.001304	 -0.000698	 0.004293	 0.001404	 -0.003595	 0.016258	 -0.001803	 0.000687	 0.008128	 0.999965	 5
1461766125.208	 12	 -0.002365	 0.001425	 0.003256	 0.001389	 -0.003597	 0.016291	 -0.001804	 0.000680	 0.008144	 0.999965	 5
1461766125.218	 12	 -0.002280	 0.000317	 0.003205	 0.001416	 -0.003603	 0.016328	 -0.001807	 0.000693	 0.008163	 0.999965	 5
1461766125.228	 12	 -0.001214	 -0.000742	 0.004251	 0.001421	 -0.003587	 0.016366	 -0.001799	 0.000696	 0.008181	 0.999965	 5
1461766125.238	 12	 -0.001203	 0.001385	 0.004271	 0.001422	 -0.003577	 0.016403	 -0.001794	 0.000696	 0.008200	 0.999965	 5
1461766125.248	 12	 -0.001208	 0.001377	 0.003205	 0.001397	 -0.003584	 0.016435	 -0.001798	 0.000684	 0.008216	 0.999964	 5
1461766125.258	 12	 -0.000145	 0.000310	 0.003186	 0.001378	 -0.003562	 0.016466	 -0.001787	 0.000674	 0.008232	 0.999964	 5
1461766125.268	 12	 -0.001212	 0.000313	 0.003195	 0.001378	 -0.003547	 0.016498	 -0.001779	 0.000674	 0.008248	 0.999964	 5
1461766125.278	 12	 -0.002275	 0.000324	 0.004270	 0.001379	 -0.003535	 0.016536	 -0.001773	 0.000675	 0.008267	 0.999964	 5
1461766125.288	 12	 -0.000141	 0.000318	 0.004252	 0.001378	 -0.003525	 0.016573	 -0.001768	 0.000675	 0.008285	 0.999964	 5
1461766125.298	 12	 -0.001213	 -0.000743	 0.004251	 0.001366	 -0.003543	 0.016610	 -0.001777	 0.000668	 0.008304	 0.999964	 5
1461766125.308	 12	 -0.000150	 -0.000754	 0.003176	 0.001359	 -0.003539	 0.016642	 -0.001775	 0.000665	 0.008320	 0.999964	 5
1461766125.318	 12	 -0.001212	 0.000313	 0.003195	 0.001355	 -0.003534	 0.016674	 -0.001773	 0.000663	 0.008336	 0.999963	 5
1461766125.328	 12	 -0.002274	 0.001379	 0.003214	 0.001364	 -0.003553	 0.016706	 -0.001782	 0.000667	 0.008352	 0.999963	 5
1461766125.338	 12	 -0.000140	 0.001373	 0.003196	 0.001393	 -0.003558	 0.016738	 -0.001785	 0.000681	 0.008368	 0.999963	 5
1461766125.348	 12	 -0.000140	 0.001373	 0.003196	 0.001388	 -0.003567	 0.016770	 -0.001789	 0.000679	 0.008384	 0.999963	 5
1461766125.358	 12	 -0.001208	 0.000320	 0.004261	 0.001361	 -0.003586	 0.016813	 -0.001799	 0.000665	 0.008405	 0.999963	 5
1461766125.368	 12	 -0.000140	 0.001372	 0.003196	 0.001363	 -0.003572	 0.016845	 -0.001792	 0.000667	 0.008421	 0.999963	 5
1461766125.378	 12	 -0.001212	 0.000312	 0.003195	 0.001365	 -0.003569	 0.016876	 -0.001790	 0.000667	 0.008437	 0.999963	 5
1461766125.388	 12	 -0.000057	 0.000265	 0.003138	 0.001337	 -0.003541	 0.016908	 -0.001776	 0.000654	 0.008453	 0.999962	 5
1461766125.398	 12	 -0.001129	 -0.000795	 0.003138	 0.001331	 -0.003545	 0.016939	 -0.001778	 0.000651	 0.008468	 0.999962	 5
1461766125.408	 12	 -0.001119	 0.001332	 0.003157	 0.001319	 -0.003524	 0.016965	 -0.001767	 0.000644	 0.008481	 0.999962	 5
1461766125.418	 12	 -0.000052	 0.000273	 0.004204	 0.001322	 -0.003500	 0.017007	 -0.001756	 0.000646	 0.008502	 0.999962	 5
1461766125.428	 12	 -0.001119	 0.001332	 0.003157	 0.001310	 -0.003508	 0.017039	 -0.001759	 0.000640	 0.008518	 0.999962	 5
1461766125.438	 12	 -0.002191	 0.000271	 0.003157	 0.001291	 -0.003510	 0.017070	 -0.001761	 0.000631	 0.008534	 0.999962	 5
1461766125.448	 12	 -0.001120	 -0.000781	 0.005269	 0.001255	 -0.003511	 0.017118	 -0.001761	 0.000613	 0.008558	 0.999962	 5
1461766125.458	 12	 -0.000057	 0.000264	 0.003138	 0.001251	 -0.003515	 0.017154	 -0.001763	 0.000610	 0.008576	 0.999961	 5
1461766125.468	 12	 0.001021	 0.002388	 0.003148	 0.001241	 -0.003490	 0.017191	 -0.001750	 0.000605	 0.008594	 0.999961	 5
1461766125.478	 12	 -0.001119	 0.000274	 0.004213	 0.001237	 -0.003490	 0.017228	 -0.001750	 0.000603	 0.008613	 0.999961	 5
1461766125.488	 12	 -0.001119	 0.001331	 0.003157	 0.001275	 -0.003498	 0.017265	 -0.001754	 0.000622	 0.008631	 0.999961	 5
1461766125.498	 12	 -0.001124	 0.000267	 0.003147	 0.001304	 -0.003487	 0.017296	 -0.001749	 0.000637	 0.008647	 0.999961	 5
1461766125.508	 12	 -0.000052	 0.000271	 0.004204	 0.001301	 -0.003483	 0.017338	 -0.001747	 0.000635	 0.008668	 0.999961	 5
1461766125.518	 12	 -0.001128	 -0.000797	 0.003137	 0.001289	 -0.003467	 0.017380	 -0.001739	 0.000630	 0.008689	 0.999961	 5
1461766125.528	 12	 -0.000056	 0.000263	 0.003138	 0.001266	 -0.003443	 0.017412	 -0.001727	 0.000618	 0.008705	 0.999960	 5
1461766125.538	 12	 -0.001118	 0.001330	 0.003157	 0.001253	 -0.003445	 0.017443	 -0.001728	 0.000611	 0.008720	 0.999960	 5
1461766125.548	 12	 -0.001046	 0.000228	 0.003098	 0.001255	 -0.003448	 0.017480	 -0.001729	 0.000612	 0.008739	 0.999960	 5
1461766125.558	 12	 -0.001042	 0.000236	 0.004164	 0.001259	 -0.003452	 0.017516	 -0.001732	 0.000615	 0.008757	 0.999960	 5
1461766125.568	 12	 0.000025	 0.000233	 0.004154	 0.001267	 -0.003451	 0.017558	 -0.001731	 0.000619	 0.008778	 0.999960	 5
1461766125.578	 12	 0.000025	 0.000233	 0.004154	 0.001235	 -0.003487	 0.017599	 -0.001749	 0.000602	 0.008798	 0.999960	 5
1461766125.588	 12	 -0.001046	 0.000228	 0.003098	 0.001262	 -0.003459	 0.017635	 -0.001735	 0.000616	 0.008816	 0.999959	 5
1461766125.598	 12	 0.000025	 0.000233	 0.004154	 0.001263	 -0.003447	 0.017677	 -0.001729	 0.000616	 0.008837	 0.999959	 5
1461766125.608	 12	 -0.002118	 -0.000832	 0.003097	 0.001234	 -0.003444	 0.017713	 -0.001728	 0.000602	 0.008855	 0.999959	 5
1461766125.618	 12	 0.000027	 0.001289	 0.003098	 0.001293	 -0.003418	 0.017744	 -0.001715	 0.000631	 0.008871	 0.999959	 5
1461766125.628	 12	 -0.002118	 -0.000833	 0.003097	 0.001253	 -0.003397	 0.017775	 -0.001704	 0.000611	 0.008886	 0.999959	 5
1461766125.638	 12	 -0.001041	 0.001291	 0.003108	 0.001247	 -0.003424	 0.017806	 -0.001718	 0.000608	 0.008902	 0.999959	 5
1461766125.648	 12	 -0.001041	 0.000235	 0.004164	 0.001240	 -0.003425	 0.017848	 -0.001718	 0.000604	 0.008923	 0.999959	 5
1461766125.658	 12	 0.000016	 -0.000839	 0.003079	 0.001247	 -0.003420	 0.017884	 -0.001716	 0.000608	 0.008941	 0.999958	 5
1461766125.668	 12	 -0.002108	 0.001294	 0.003117	 0.001255	 -0.003407	 0.017915	 -0.001709	 0.000612	 0.008956	 0.999958	 5
1461766125.678	 12	 -0.001042	 -0.000821	 0.005220	 0.001252	 -0.003411	 0.017956	 -0.001711	 0.000611	 0.008977	 0.999958	 5
1461766125.688	 12	 -0.001045	 0.000228	 0.003098	 0.001260	 -0.003393	 0.017993	 -0.001702	 0.000615	 0.008995	 0.999958	 5
1461766125.698	 12	 0.000083	 -0.000862	 0.004098	 0.001258	 -0.003404	 0.018034	 -0.001708	 0.000614	 0.009016	 0.999958	 5
1461766125.708	 12	 0.000089	 0.000201	 0.004108	 0.001273	 -0.003395	 0.018064	 -0.001703	 0.000621	 0.009031	 0.999958	 5
1461766125.718	 12	 0.000079	 -0.000870	 0.003033	 0.001272	 -0.003402	 0.018100	 -0.001707	 0.000621	 0.009049	 0.999957	 5
1461766125.728	 12	 -0.000983	 0.000197	 0.003052	 0.001253	 -0.003392	 0.018131	 -0.001702	 0.000611	 0.009064	 0.999957	 5
1461766125.738	 12	 -0.000978	 0.001260	 0.003062	 0.001270	 -0.003399	 0.018167	 -0.001705	 0.000620	 0.009082	 0.999957	 5
1461766125.748	 12	 -0.000983	 -0.000859	 0.004108	 0.001289	 -0.003383	 0.018208	 -0.001697	 0.000629	 0.009103	 0.999957	 5
1461766125.758	 12	 0.000089	 0.000201	 0.004108	 0.001284	 -0.003380	 0.018249	 -0.001696	 0.000626	 0.009123	 0.999957	 5
1461766125.768	 12	 -0.002046	 -0.000848	 0.005183	 0.001289	 -0.003382	 0.018295	 -0.001697	 0.000629	 0.009146	 0.999957	 5
1461766125.778	 12	 0.000084	 0.000193	 0.003042	 0.001266	 -0.003378	 0.018331	 -0.001695	 0.000617	 0.009164	 0.999956	 5
1461766125.788	 12	 0.000089	 0.001257	 0.003052	 0.001250	 -0.003364	 0.018361	 -0.001687	 0.000610	 0.009179	 0.999956	 5
1461766125.798	 12	 0.001152	 0.000190	 0.003033	 0.001260	 -0.003337	 0.018397	 -0.001674	 0.000614	 0.009197	 0.999956	 5
1461766125.808	 12	 -0.000987	 0.000189	 0.001986	 0.001291	 -0.003327	 0.018422	 -0.001669	 0.000630	 0.009210	 0.999956	 5
1461766125.818	 12	 -0.000978	 0.001260	 0.003061	 0.001272	 -0.003325	 0.018453	 -0.001668	 0.000621	 0.009225	 0.999956	 5
1461766125.828	 12	 -0.000973	 0.001267	 0.004127	 0.001278	 -0.003326	 0.018489	 -0.001669	 0.000624	 0.009243	 0.999956	 5
1461766125.838	 12	 -0.000979	 0.000204	 0.004117	 0.001296	 -0.003349	 0.018530	 -0.001680	 0.000632	 0.009264	 0.999955	 5
1461766125.848	 12	 -0.002050	 0.000199	 0.003061	 0.001285	 -0.003327	 0.018560	 -0.001669	 0.000627	 0.009279	 0.999955	 5
1461766125.858	 12	 0.000084	 -0.000863	 0.004098	 0.001291	 -0.003300	 0.018596	 -0.001656	 0.000630	 0.009297	 0.999955	 5
1461766125.868	 12	 0.000085	 0.000193	 0.003042	 0.001297	 -0.003304	 0.018632	 -0.001658	 0.000633	 0.009315	 0.999955	 5
1461766125.878	 12	 0.000157	 0.000168	 0.004052	 0.001295	 -0.003267	 0.018667	 -0.001639	 0.000632	 0.009332	 0.999955	 5
1461766125.888	 12	 -0.000910	 0.000171	 0.004061	 0.001280	 -0.003247	 0.018713	 -0.001629	 0.000625	 0.009355	 0.999955	 5
1461766125.898	 12	 -0.000914	 0.000163	 0.002995	 0.001296	 -0.003217	 0.018743	 -0.001615	 0.000633	 0.009370	 0.999955	 5
1461766125.908	 12	 -0.000914	 0.000163	 0.002995	 0.001270	 -0.003230	 0.018773	 -0.001621	 0.000620	 0.009385	 0.999954	 5
1461766125.918	 12	 0.000153	 0.000159	 0.002986	 0.001271	 -0.003197	 0.018808	 -0.001605	 0.000620	 0.009403	 0.999954	 5
1461766125.928	 12	 0.000157	 0.000167	 0.004052	 0.001261	 -0.003165	 0.018843	 -0.001588	 0.000616	 0.009420	 0.999954	 5
1461766125.938	 12	 -0.000919	 -0.000901	 0.002985	 0.001263	 -0.003144	 0.018878	 -0.001578	 0.000616	 0.009438	 0.999954	 5
1461766125.948	 12	 0.000162	 0.000175	 0.005118	 0.001261	 -0.003130	 0.018919	 -0.001571	 0.000616	 0.009458	 0.999954	 5
1461766125.958	 12	 0.000153	 0.000159	 0.002986	 0.001261	 -0.003128	 0.018959	 -0.001570	 0.000616	 0.009479	 0.999954	 5
1461766125.968	 12	 0.000153	 0.000159	 0.002986	 0.001251	 -0.003136	 0.018984	 -0.001574	 0.000611	 0.009491	 0.999954	 5
1461766125.978	 12	 -0.000918	 0.000154	 0.001929	 0.001240	 -0.003128	 0.019009	 -0.001570	 0.000605	 0.009503	 0.999953	 5
1461766125.988	 12	 0.000157	 0.000166	 0.004052	 0.001209	 -0.003114	 0.019044	 -0.001563	 0.000589	 0.009521	 0.999953	 5
1461766125.998	 12	 -0.000910	 0.000169	 0.004061	 0.001206	 -0.003119	 0.019090	 -0.001565	 0.000588	 0.009544	 0.999953	 5
1461766126.008	 12	 0.001220	 0.000155	 0.002977	 0.001241	 -0.003106	 0.019119	 -0.001559	 0.000605	 0.009559	 0.999953	 5
1461766126.018	 12	 0.001215	 -0.000908	 0.002967	 0.001256	 -0.003089	 0.019149	 -0.001550	 0.000613	 0.009574	 0.999953	 5
1461766126.028	 12	 -0.000859	 0.000145	 0.004014	 0.001264	 -0.003075	 0.019190	 -0.001543	 0.000617	 0.009594	 0.999953	 5
1461766126.038	 12	 -0.000864	 -0.000918	 0.004004	 0.001260	 -0.003055	 0.019230	 -0.001534	 0.000615	 0.009614	 0.999952	 5
1461766126.048	 12	 -0.001936	 -0.000923	 0.002947	 0.001234	 -0.003047	 0.019264	 -0.001530	 0.000602	 0.009631	 0.999952	 5
1461766126.058	 12	 -0.000864	 -0.000919	 0.004004	 0.001229	 -0.003019	 0.019294	 -0.001515	 0.000600	 0.009646	 0.999952	 5
1461766126.068	 12	 0.001266	 -0.000933	 0.002919	 0.001223	 -0.003025	 0.019328	 -0.001518	 0.000597	 0.009663	 0.999952	 5
1461766126.078	 12	 -0.000859	 0.000145	 0.004014	 0.001202	 -0.003035	 0.019363	 -0.001523	 0.000586	 0.009680	 0.999952	 5
1461766126.088	 12	 0.000204	 0.000134	 0.002938	 0.001183	 -0.003027	 0.019392	 -0.001519	 0.000577	 0.009695	 0.999952	 5
1461766126.098	 12	 0.000204	 0.000134	 0.002938	 0.001209	 -0.003017	 0.019416	 -0.001514	 0.000590	 0.009707	 0.999952	 5
1461766126.108	 12	 0.000209	 0.001197	 0.002948	 0.001210	 -0.003001	 0.019451	 -0.001507	 0.000590	 0.009724	 0.999951	 5
1461766126.118	 12	 -0.001916	 0.002275	 0.004043	 0.001221	 -0.003017	 0.019486	 -0.001514	 0.000596	 0.009742	 0.999951	 5
1461766126.128	 12	 0.000199	 -0.000930	 0.002929	 0.001236	 -0.002996	 0.019521	 -0.001504	 0.000603	 0.009759	 0.999951	 5
1461766126.138	 12	 -0.001925	 0.001203	 0.002967	 0.001214	 -0.002996	 0.019556	 -0.001504	 0.000592	 0.009777	 0.999951	 5
1461766126.148	 12	 -0.001926	 0.000147	 0.004023	 0.001216	 -0.003011	 0.019596	 -0.001511	 0.000593	 0.009797	 0.999951	 5
1461766126.158	 12	 0.001266	 -0.000934	 0.002919	 0.001219	 -0.003002	 0.019630	 -0.001507	 0.000595	 0.009814	 0.999951	 5
1461766126.168	 12	 -0.000864	 0.000136	 0.002948	 0.001245	 -0.003012	 0.019660	 -0.001512	 0.000608	 0.009829	 0.999950	 5
1461766126.178	 12	 0.000208	 0.000141	 0.004004	 0.001249	 -0.002979	 0.019700	 -0.001496	 0.000610	 0.009849	 0.999950	 5
1461766126.188	 12	 0.000255	 0.001173	 0.002898	 0.001269	 -0.002970	 0.019740	 -0.001491	 0.000620	 0.009869	 0.999950	 5
1461766126.198	 12	 -0.000817	 0.000113	 0.002898	 0.001261	 -0.002955	 0.019768	 -0.001484	 0.000616	 0.009883	 0.999950	 5
1461766126.208	 12	 0.000255	 0.000117	 0.003954	 0.001253	 -0.002938	 0.019808	 -0.001475	 0.000612	 0.009903	 0.999950	 5
1461766126.218	 12	 0.001317	 -0.000950	 0.003935	 0.001238	 -0.002920	 0.019847	 -0.001466	 0.000604	 0.009923	 0.999950	 5
1461766126.228	 12	 -0.000821	 -0.000951	 0.002888	 0.001244	 -0.002897	 0.019882	 -0.001455	 0.000608	 0.009940	 0.999949	 5
1461766126.238	 12	 0.000250	 -0.000947	 0.003945	 0.001232	 -0.002893	 0.019921	 -0.001452	 0.000602	 0.009959	 0.999949	 5
1461766126.248	 12	 0.000260	 0.001180	 0.003964	 0.001194	 -0.002888	 0.019961	 -0.001450	 0.000582	 0.009979	 0.999949	 5
1461766126.258	 12	 -0.000807	 0.001183	 0.003974	 0.001204	 -0.002882	 0.019995	 -0.001447	 0.000587	 0.009996	 0.999949	 5
1461766126.268	 12	 0.000251	 0.000109	 0.002889	 0.001184	 -0.002882	 0.020034	 -0.001447	 0.000578	 0.010016	 0.999949	 5
1461766126.278	 12	 0.000250	 -0.000948	 0.003944	 0.001153	 -0.002875	 0.020069	 -0.001443	 0.000562	 0.010033	 0.999948	 5
1461766126.288	 12	 0.000251	 0.000108	 0.002889	 0.001188	 -0.002877	 0.020103	 -0.001444	 0.000579	 0.010050	 0.999948	 5
1461766126.298	 12	 0.000250	 0.000108	 0.002889	 0.001189	 -0.002883	 0.020137	 -0.001447	 0.000580	 0.010067	 0.999948	 5
1461766126.308	 12	 -0.001880	 0.000122	 0.003973	 0.001187	 -0.002889	 0.020171	 -0.001450	 0.000579	 0.010085	 0.999948	 5
1461766126.318	 12	 -0.001875	 0.001186	 0.003983	 0.001187	 -0.002896	 0.020211	 -0.001454	 0.000579	 0.010104	 0.999948	 5
1461766126.328	 12	 0.001322	 0.000113	 0.003945	 0.001189	 -0.002902	 0.020251	 -0.001457	 0.000580	 0.010124	 0.999948	 5
1461766126.338	 12	 0.001302	 -0.003086	 0.002850	 0.001158	 -0.002903	 0.020279	 -0.001457	 0.000564	 0.010139	 0.999947	 5
1461766126.348	 12	 0.002368	 -0.004145	 0.003896	 0.001119	 -0.002912	 0.020318	 -0.001462	 0.000545	 0.010158	 0.999947	 5
1461766126.358	 12	 0.003473	 -0.006300	 0.003810	 0.001066	 -0.002898	 0.020352	 -0.001454	 0.000518	 0.010175	 0.999947	 5
1461766126.368	 12	 -0.001821	 0.003281	 0.002880	 0.001116	 -0.002877	 0.020391	 -0.001444	 0.000543	 0.010194	 0.999947	 5
1461766126.378	 12	 -0.002893	 0.002221	 0.002879	 0.001140	 -0.002851	 0.020425	 -0.001431	 0.000556	 0.010211	 0.999947	 5
1461766126.388	 12	 -0.001810	 0.006464	 0.001844	 0.001144	 -0.002843	 0.020453	 -0.001428	 0.000558	 0.010226	 0.999947	 5
1461766126.398	 12	 -0.002869	 0.006483	 0.003985	 0.001210	 -0.002842	 0.020482	 -0.001427	 0.000590	 0.010240	 0.999946	 5
1461766126.408	 12	 0.001360	 -0.000983	 0.002813	 0.001181	 -0.002827	 0.020516	 -0.001419	 0.000576	 0.010257	 0.999946	 5
1461766126.418	 12	 -0.001842	 -0.002030	 0.003896	 0.001180	 -0.002857	 0.020544	 -0.001434	 0.000575	 0.010271	 0.999946	 5
1461766126.428	 12	 0.000282	 -0.004164	 0.003858	 0.001142	 -0.002858	 0.020583	 -0.001435	 0.000556	 0.010291	 0.999946	 5
1461766126.438	 12	 -0.000740	 0.005412	 0.003956	 0.001127	 -0.002820	 0.020627	 -0.001415	 0.000549	 0.010313	 0.999946	 5
1461766126.448	 12	 -0.000755	 0.002221	 0.003926	 0.001134	 -0.002814	 0.020667	 -0.001413	 0.000553	 0.010332	 0.999945	 5
1461766126.458	 12	 0.001355	 -0.002048	 0.002803	 0.001134	 -0.002820	 0.020695	 -0.001416	 0.000552	 0.010346	 0.999945	 5
1461766126.468	 12	 0.001365	 0.000079	 0.002822	 0.001158	 -0.002839	 0.020723	 -0.001426	 0.000564	 0.010361	 0.999945	 5
1461766126.478	 12	 0.001338	 -0.007351	 0.004885	 0.001173	 -0.002823	 0.020762	 -0.001418	 0.000572	 0.010380	 0.999945	 5
1461766126.488	 12	 -0.001827	 0.001160	 0.003926	 0.001154	 -0.002825	 0.020791	 -0.001419	 0.000562	 0.010394	 0.999945	 5
1461766126.498	 12	 -0.000730	 0.001132	 0.002805	 0.001178	 -0.002828	 0.020824	 -0.001420	 0.000574	 0.010411	 0.999945	 5
1461766126.508	 12	 -0.001818	 -0.004175	 0.003831	 0.001169	 -0.002834	 0.020857	 -0.001423	 0.000570	 0.010428	 0.999944	 5
1461766126.518	 12	 0.000316	 -0.004182	 0.003812	 0.001151	 -0.002829	 0.020895	 -0.001420	 0.000561	 0.010447	 0.999944	 5
1461766126.528	 12	 -0.003917	 0.003277	 0.003919	 0.001171	 -0.002819	 0.020929	 -0.001416	 0.000571	 0.010464	 0.999944	 5
1461766126.538	 12	 -0.000735	 0.000068	 0.002795	 0.001177	 -0.002804	 0.020962	 -0.001408	 0.000574	 0.010480	 0.999944	 5
1461766126.548	 12	 -0.001797	 0.000079	 0.003870	 0.001149	 -0.002805	 0.021001	 -0.001408	 0.000560	 0.010499	 0.999944	 5
1461766126.558	 12	 0.000328	 0.000057	 0.001720	 0.001121	 -0.002788	 0.021029	 -0.001400	 0.000546	 0.010513	 0.999944	 5
1461766126.568	 12	 0.001404	 0.000069	 0.003842	 0.001097	 -0.002781	 0.021062	 -0.001396	 0.000534	 0.010530	 0.999943	 5
1461766126.578	 12	 0.000332	 0.000064	 0.002786	 0.001092	 -0.002786	 0.021090	 -0.001399	 0.000531	 0.010544	 0.999943	 5
1461766126.588	 12	 0.000346	 0.001143	 0.004927	 0.001056	 -0.002776	 0.021128	 -0.001394	 0.000513	 0.010563	 0.999943	 5
1461766126.598	 12	 0.000327	 -0.001000	 0.002776	 0.001060	 -0.002788	 0.021161	 -0.001400	 0.000515	 0.010580	 0.999943	 5
1461766126.608	 12	 0.000332	 0.000064	 0.002786	 0.001054	 -0.002795	 0.021189	 -0.001403	 0.000512	 0.010594	 0.999943	 5
1461766126.618	 12	 0.000337	 0.001127	 0.002796	 0.001057	 -0.002799	 0.021217	 -0.001405	 0.000513	 0.010607	 0.999943	 5
1461766126.628	 12	 -0.000730	 0.001130	 0.002805	 0.001023	 -0.002792	 0.021245	 -0.001401	 0.000497	 0.010621	 0.999942	 5
1461766126.638	 12	 -0.000735	 0.000067	 0.002795	 0.001028	 -0.002794	 0.021273	 -0.001402	 0.000499	 0.010635	 0.999942	 5
1461766126.648	 12	 -0.000735	 0.000067	 0.002795	 0.001055	 -0.002796	 0.021295	 -0.001404	 0.000513	 0.010647	 0.999942	 5
1461766126.658	 12	 -0.000694	 0.000056	 0.003808	 0.001079	 -0.002810	 0.021328	 -0.001411	 0.000525	 0.010663	 0.999942	 5
1461766126.668	 12	 0.001430	 -0.001021	 0.002714	 0.001098	 -0.002819	 0.021366	 -0.001415	 0.000534	 0.010682	 0.999942	 5
1461766126.678	 12	 -0.000690	 0.000064	 0.004874	 0.001091	 -0.002814	 0.021404	 -0.001413	 0.000530	 0.010701	 0.999942	 5
1461766126.688	 12	 0.000368	 0.000045	 0.002733	 0.001096	 -0.002806	 0.021437	 -0.001409	 0.000533	 0.010718	 0.999941	 5
1461766126.698	 12	 0.000364	 0.000038	 0.001667	 0.001086	 -0.002835	 0.021464	 -0.001423	 0.000528	 0.010731	 0.999941	 5
1461766126.708	 12	 -0.000709	 -0.001023	 0.001666	 0.001094	 -0.002854	 0.021481	 -0.001433	 0.000532	 0.010740	 0.999941	 5
1461766126.718	 12	 0.000363	 0.000038	 0.001667	 0.001091	 -0.002879	 0.021503	 -0.001445	 0.000530	 0.010751	 0.999941	 5
1461766126.728	 12	 -0.000695	 0.000056	 0.003808	 0.001081	 -0.002893	 0.021531	 -0.001452	 0.000525	 0.010764	 0.999941	 5
1461766126.738	 12	 -0.000700	 0.000048	 0.002742	 0.001066	 -0.002893	 0.021558	 -0.001452	 0.000517	 0.010778	 0.999941	 5
1461766126.748	 12	 -0.000700	 -0.001008	 0.003798	 0.001049	 -0.002882	 0.021591	 -0.001447	 0.000509	 0.010794	 0.999941	 5
1461766126.758	 12	 0.000367	 0.000045	 0.002733	 0.001029	 -0.002863	 0.021618	 -0.001437	 0.000499	 0.010808	 0.999940	 5
1461766126.768	 12	 0.000372	 0.000052	 0.003798	 0.001046	 -0.002863	 0.021656	 -0.001437	 0.000507	 0.010827	 0.999940	 5
1461766126.778	 12	 0.000372	 0.000052	 0.003798	 0.001045	 -0.002854	 0.021694	 -0.001433	 0.000507	 0.010846	 0.999940	 5
1461766126.788	 12	 0.000368	 0.000044	 0.002733	 0.001056	 -0.002829	 0.021721	 -0.001420	 0.000513	 0.010860	 0.999940	 5
1461766126.798	 12	 0.000372	 0.000052	 0.003798	 0.001053	 -0.002829	 0.021759	 -0.001420	 0.000511	 0.010879	 0.999940	 5
1461766126.808	 12	 -0.000696	 0.000055	 0.003808	 0.001039	 -0.002864	 0.021792	 -0.001437	 0.000504	 0.010895	 0.999939	 5
1461766126.818	 12	 -0.000686	 0.001127	 0.004883	 0.001059	 -0.002859	 0.021825	 -0.001435	 0.000514	 0.010911	 0.999939	 5
1461766126.828	 12	 0.000402	 0.000028	 0.002678	 0.001092	 -0.002825	 0.021857	 -0.001418	 0.000530	 0.010928	 0.999939	 5
1461766126.838	 12	 0.000402	 0.000027	 0.002678	 0.001059	 -0.002824	 0.021884	 -0.001418	 0.000514	 0.010941	 0.999939	 5
1461766126.848	 12	 0.000406	 0.001091	 0.002687	 0.001070	 -0.002830	 0.021911	 -0.001421	 0.000519	 0.010954	 0.999939	 5
1461766126.858	 12	 -0.000671	 -0.001033	 0.002677	 0.001062	 -0.002845	 0.021937	 -0.001428	 0.000515	 0.010968	 0.999939	 5
1461766126.868	 12	 0.000414	 0.000050	 0.005875	 0.001034	 -0.002864	 0.021985	 -0.001438	 0.000501	 0.010992	 0.999938	 5
1461766126.878	 12	 0.001472	 0.000031	 0.003734	 0.001027	 -0.002853	 0.022023	 -0.001432	 0.000498	 0.011010	 0.999938	 5
1461766126.888	 12	 -0.000662	 0.000038	 0.003753	 0.001020	 -0.002859	 0.022066	 -0.001435	 0.000494	 0.011032	 0.999938	 5
1461766126.898	 12	 0.000401	 0.000027	 0.002677	 0.001007	 -0.002876	 0.022092	 -0.001444	 0.000488	 0.011045	 0.999938	 5
1461766126.908	 12	 0.000395	 -0.001037	 0.002668	 0.001015	 -0.002889	 0.022119	 -0.001450	 0.000491	 0.011059	 0.999938	 5
1461766126.918	 12	 -0.001739	 -0.001031	 0.002686	 0.001023	 -0.002900	 0.022151	 -0.001455	 0.000496	 0.011075	 0.999937	 5
1461766126.928	 12	 0.000405	 0.000034	 0.003743	 0.001015	 -0.002875	 0.022189	 -0.001443	 0.000491	 0.011093	 0.999937	 5
1461766126.938	 12	 -0.000657	 0.001101	 0.003762	 0.000993	 -0.002896	 0.022226	 -0.001454	 0.000481	 0.011112	 0.999937	 5
1461766126.948	 12	 0.000391	 -0.001045	 0.001602	 0.001023	 -0.002895	 0.022248	 -0.001453	 0.000495	 0.011123	 0.999937	 5
1461766126.958	 12	 0.000390	 -0.002101	 0.002658	 0.001003	 -0.002906	 0.022280	 -0.001458	 0.000485	 0.011139	 0.999937	 5
1461766126.968	 12	 0.000400	 0.000027	 0.002677	 0.001021	 -0.002916	 0.022306	 -0.001464	 0.000494	 0.011152	 0.999937	 5
1461766126.978	 12	 -0.001700	 0.001082	 0.002654	 0.001035	 -0.002921	 0.022333	 -0.001466	 0.000501	 0.011166	 0.999936	 5
1461766126.988	 12	 0.000428	 -0.001044	 0.003682	 0.001049	 -0.002910	 0.022365	 -0.001461	 0.000508	 0.011181	 0.999936	 5
1461766126.998	 12	 -0.000629	 0.001087	 0.003711	 0.001051	 -0.002929	 0.022402	 -0.001470	 0.000509	 0.011200	 0.999936	 5
1461766127.008	 12	 0.000428	 -0.001044	 0.003682	 0.001059	 -0.002936	 0.022434	 -0.001474	 0.000513	 0.011216	 0.999936	 5
1461766127.018	 12	 -0.001706	 -0.001037	 0.003700	 0.001038	 -0.002944	 0.022470	 -0.001478	 0.000502	 0.011234	 0.999936	 5
1461766127.028	 12	 0.000433	 0.000020	 0.003691	 0.001027	 -0.002945	 0.022507	 -0.001478	 0.000497	 0.011253	 0.999935	 5
1461766127.038	 12	 -0.000639	 0.000015	 0.002635	 0.001056	 -0.002971	 0.022534	 -0.001491	 0.000511	 0.011266	 0.999935	 5
1461766127.048	 12	 -0.001702	 0.000026	 0.003710	 0.001039	 -0.002982	 0.022565	 -0.001497	 0.000503	 0.011282	 0.999935	 5
1461766127.058	 12	 -0.000639	 0.000015	 0.002635	 0.001043	 -0.002977	 0.022597	 -0.001494	 0.000504	 0.011297	 0.999935	 5
1461766127.068	 12	 0.000423	 -0.001052	 0.002616	 0.001045	 -0.002947	 0.022623	 -0.001480	 0.000506	 0.011311	 0.999935	 5
1461766127.078	 12	 -0.000629	 0.001087	 0.003711	 0.001058	 -0.002947	 0.022660	 -0.001479	 0.000512	 0.011329	 0.999935	 5
1461766127.088	 12	 0.000423	 -0.001052	 0.002616	 0.001010	 -0.002953	 0.022686	 -0.001482	 0.000488	 0.011342	 0.999934	 5
1461766127.098	 12	 0.000428	 -0.001044	 0.003682	 0.001013	 -0.002953	 0.022723	 -0.001482	 0.000490	 0.011361	 0.999934	 5
1461766127.108	 12	 0.000423	 -0.001052	 0.002616	 0.000981	 -0.002943	 0.022755	 -0.001477	 0.000474	 0.011376	 0.999934	 5
1461766127.118	 12	 -0.000635	 0.000022	 0.003701	 0.000961	 -0.002952	 0.022786	 -0.001482	 0.000464	 0.011392	 0.999934	 5
1461766127.128	 12	 -0.000624	 0.002150	 0.003720	 0.000997	 -0.002939	 0.022813	 -0.001475	 0.000482	 0.011405	 0.999934	 5
1461766127.138	 12	 0.000455	 -0.000002	 0.002572	 0.001002	 -0.002971	 0.022839	 -0.001491	 0.000484	 0.011418	 0.999934	 5
1461766127.148	 12	 -0.000622	 -0.002126	 0.002561	 0.000970	 -0.002964	 0.022870	 -0.001488	 0.000468	 0.011434	 0.999933	 5
1461766127.158	 12	 -0.001680	 -0.001052	 0.003646	 0.000963	 -0.002995	 0.022912	 -0.001503	 0.000464	 0.011455	 0.999933	 5
1461766127.168	 12	 0.000459	 0.000006	 0.003638	 0.000988	 -0.002989	 0.022948	 -0.001500	 0.000477	 0.011473	 0.999933	 5
1461766127.178	 12	 0.000454	 -0.001058	 0.003628	 0.000992	 -0.002969	 0.022985	 -0.001490	 0.000479	 0.011491	 0.999933	 5
1461766127.188	 12	 -0.001679	 0.000004	 0.002590	 0.001014	 -0.002980	 0.023010	 -0.001496	 0.000490	 0.011504	 0.999933	 5
1461766127.198	 12	 0.001527	 0.000002	 0.003628	 0.001046	 -0.002964	 0.023042	 -0.001488	 0.000506	 0.011520	 0.999932	 5
1461766127.208	 12	 0.000455	 -0.000002	 0.002572	 0.001060	 -0.002936	 0.023062	 -0.001474	 0.000513	 0.011530	 0.999932	 5
1461766127.218	 12	 0.000464	 0.001069	 0.003647	 0.001034	 -0.002930	 0.023093	 -0.001471	 0.000500	 0.011545	 0.999932	 5
1461766127.228	 12	 -0.000612	 0.000001	 0.002581	 0.001042	 -0.002933	 0.023124	 -0.001473	 0.000504	 0.011561	 0.999932	 5
1461766127.238	 12	 0.000455	 -0.000002	 0.002572	 0.001079	 -0.002958	 0.023150	 -0.001485	 0.000522	 0.011574	 0.999932	 5
1461766127.248	 12	 -0.000612	 0.000001	 0.002581	 0.001080	 -0.002959	 0.023181	 -0.001486	 0.000523	 0.011589	 0.999932	 5
1461766127.258	 12	 -0.000622	 -0.001070	 0.001505	 0.001075	 -0.002965	 0.023196	 -0.001489	 0.000520	 0.011597	 0.999932	 5
1461766127.268	 12	 -0.000622	 -0.001071	 0.001505	 0.001045	 -0.002962	 0.023211	 -0.001487	 0.000505	 0.011605	 0.999931	 5
1461766127.278	 12	 -0.000608	 0.000008	 0.003647	 0.001015	 -0.002956	 0.023237	 -0.001484	 0.000490	 0.011617	 0.999931	 5
1461766127.288	 12	 -0.001684	 -0.000004	 0.001525	 0.000993	 -0.002960	 0.023263	 -0.001486	 0.000479	 0.011630	 0.999931	 5
1461766127.298	 12	 0.000454	 -0.001059	 0.003628	 0.000988	 -0.002953	 0.023294	 -0.001482	 0.000477	 0.011646	 0.999931	 5
1461766127.308	 12	 0.000480	 -0.000015	 0.002516	 0.001002	 -0.002946	 0.023319	 -0.001479	 0.000484	 0.011658	 0.999931	 5
1461766127.318	 12	 0.000485	 0.001048	 0.002526	 0.000991	 -0.002951	 0.023349	 -0.001481	 0.000478	 0.011674	 0.999931	 5
1461766127.328	 12	 0.001553	 0.002101	 0.001461	 0.001006	 -0.002935	 0.023369	 -0.001473	 0.000486	 0.011684	 0.999931	 5
1461766127.338	 12	 0.000484	 -0.000008	 0.003582	 0.000984	 -0.002944	 0.023400	 -0.001477	 0.000475	 0.011699	 0.999930	 5
1461766127.348	 12	 0.001552	 -0.000011	 0.003573	 0.000980	 -0.002918	 0.023436	 -0.001465	 0.000473	 0.011717	 0.999930	 5
1461766127.358	 12	 0.001547	 -0.000019	 0.002507	 0.000978	 -0.002914	 0.023466	 -0.001463	 0.000472	 0.011732	 0.999930	 5
1461766127.368	 12	 0.000484	 -0.000008	 0.003582	 0.000974	 -0.002879	 0.023502	 -0.001445	 0.000470	 0.011750	 0.999930	 5
1461766127.378	 12	 -0.000578	 0.000002	 0.004657	 0.000944	 -0.002853	 0.023543	 -0.001432	 0.000455	 0.011771	 0.999930	 5
1461766127.388	 12	 0.000480	 -0.000016	 0.002516	 0.000958	 -0.002834	 0.023573	 -0.001423	 0.000462	 0.011786	 0.999929	 5
1461766127.398	 12	 0.000470	 -0.002144	 0.002496	 0.000931	 -0.002812	 0.023599	 -0.001411	 0.000449	 0.011798	 0.999929	 5
1461766127.408	 12	 0.000490	 0.001055	 0.003592	 0.000920	 -0.002812	 0.023629	 -0.001411	 0.000443	 0.011814	 0.999929	 5
1461766127.418	 12	 -0.000587	 -0.000013	 0.002525	 0.000922	 -0.002806	 0.023654	 -0.001409	 0.000444	 0.011826	 0.999929	 5
1461766127.428	 12	 0.000479	 -0.001073	 0.003572	 0.000929	 -0.002814	 0.023690	 -0.001413	 0.000448	 0.011844	 0.999929	 5
1461766127.438	 12	 0.000479	 -0.001073	 0.003572	 0.000945	 -0.002799	 0.023720	 -0.001405	 0.000456	 0.011859	 0.999929	 5
1461766127.448	 12	 0.000479	 -0.001073	 0.003572	 0.000911	 -0.002794	 0.023756	 -0.001402	 0.000439	 0.011877	 0.999928	 5
1461766127.458	 12	 -0.000587	 -0.000014	 0.002525	 0.000879	 -0.002804	 0.023781	 -0.001407	 0.000423	 0.011890	 0.999928	 5
1461766127.468	 12	 0.000508	 0.001035	 0.002470	 0.000893	 -0.002796	 0.023807	 -0.001403	 0.000430	 0.011902	 0.999928	 5
1461766127.478	 12	 0.002627	 -0.002162	 0.002422	 0.000872	 -0.002797	 0.023831	 -0.001404	 0.000419	 0.011915	 0.999928	 5
1461766127.488	 12	 0.000502	 -0.001085	 0.003516	 0.000890	 -0.002793	 0.023866	 -0.001402	 0.000428	 0.011932	 0.999928	 5
1461766127.498	 12	 0.001569	 -0.001088	 0.003507	 0.000897	 -0.002789	 0.023902	 -0.001400	 0.000432	 0.011950	 0.999928	 5
1461766127.508	 12	 0.000502	 -0.001085	 0.003516	 0.000852	 -0.002786	 0.023931	 -0.001398	 0.000409	 0.011965	 0.999927	 5
1461766127.518	 12	 0.001555	 -0.003223	 0.002422	 0.000838	 -0.002789	 0.023961	 -0.001400	 0.000402	 0.011980	 0.999927	 5
1461766127.528	 12	 0.000502	 -0.001085	 0.003516	 0.000851	 -0.002812	 0.023991	 -0.001411	 0.000409	 0.011995	 0.999927	 5
1461766127.538	 12	 0.001574	 -0.000025	 0.003517	 0.000844	 -0.002790	 0.024021	 -0.001400	 0.000405	 0.012010	 0.999927	 5
1461766127.548	 12	 -0.001637	 -0.002142	 0.003525	 0.000832	 -0.002765	 0.024056	 -0.001388	 0.000399	 0.012027	 0.999927	 5
1461766127.568	 13	 0.001564	 -0.002152	 0.003497	 0.000792	 -0.002738	 0.024116	 -0.001374	 0.000380	 0.012057	 0.999926	 5
1461766127.578	 13	 -0.001627	 -0.000015	 0.003545	 0.000775	 -0.002735	 0.024146	 -0.001372	 0.000371	 0.012072	 0.999926	 5
1461766127.588	 13	 -0.000565	 -0.001082	 0.003526	 0.000780	 -0.002765	 0.024186	 -0.001387	 0.000373	 0.012092	 0.999926	 5
1461766127.598	 13	 -0.001622	 0.002104	 0.002499	 0.000814	 -0.002785	 0.024211	 -0.001397	 0.000390	 0.012105	 0.999926	 5
1461766127.608	 13	 0.003683	 -0.005350	 0.003449	 0.000791	 -0.002786	 0.024241	 -0.001398	 0.000379	 0.012120	 0.999926	 5
1461766127.618	 13	 0.003678	 -0.006413	 0.003439	 0.000804	 -0.002749	 0.024276	 -0.001379	 0.000385	 0.012137	 0.999925	 5
1461766127.628	 13	 -0.002655	 0.004233	 0.003541	 0.000835	 -0.002757	 0.024306	 -0.001384	 0.000401	 0.012152	 0.999925	 5
1461766127.638	 13	 0.002630	 -0.006419	 0.003396	 0.000842	 -0.002771	 0.024335	 -0.001390	 0.000404	 0.012167	 0.999925	 5
1461766127.648	 13	 0.002631	 -0.005363	 0.002340	 0.000836	 -0.002777	 0.024359	 -0.001393	 0.000401	 0.012179	 0.999925	 5
1461766127.658	 13	 0.001579	 -0.001113	 0.001323	 0.000835	 -0.002774	 0.024378	 -0.001392	 0.000401	 0.012188	 0.999925	 5
1461766127.668	 13	 -0.000551	 -0.001099	 0.002408	 0.000844	 -0.002765	 0.024397	 -0.001388	 0.000405	 0.012197	 0.999925	 5
1461766127.678	 13	 -0.001598	 0.003159	 0.002456	 0.000858	 -0.002761	 0.024432	 -0.001385	 0.000412	 0.012215	 0.999924	 5
1461766127.688	 13	 0.000511	 -0.003222	 0.003444	 0.000836	 -0.002755	 0.024466	 -0.001382	 0.000401	 0.012232	 0.999924	 5
1461766127.698	 13	 0.000526	 -0.000031	 0.003474	 0.000844	 -0.002733	 0.024501	 -0.001371	 0.000405	 0.012250	 0.999924	 5
1461766127.708	 13	 -0.000546	 -0.000036	 0.002417	 0.000855	 -0.002748	 0.024530	 -0.001379	 0.000411	 0.012264	 0.999924	 5
1461766127.718	 13	 -0.001614	 -0.001088	 0.003483	 0.000868	 -0.002771	 0.024560	 -0.001391	 0.000417	 0.012279	 0.999924	 5
1461766127.728	 13	 0.001588	 -0.001098	 0.003455	 0.000851	 -0.002731	 0.024594	 -0.001371	 0.000409	 0.012296	 0.999923	 5
1461766127.738	 13	 -0.000541	 0.001028	 0.002427	 0.000848	 -0.002730	 0.024624	 -0.001370	 0.000407	 0.012311	 0.999923	 5
1461766127.748	 13	 -0.000545	 0.001020	 0.001362	 0.000848	 -0.002744	 0.024643	 -0.001377	 0.000407	 0.012320	 0.999923	 5
1461766127.758	 13	 -0.000546	 -0.000036	 0.002417	 0.000822	 -0.002744	 0.024667	 -0.001377	 0.000394	 0.012332	 0.999923	 5
1461766127.768	 13	 0.000525	 -0.000032	 0.003474	 0.000857	 -0.002759	 0.024696	 -0.001385	 0.000412	 0.012347	 0.999923	 5
1461766127.778	 13	 0.001588	 -0.000043	 0.002399	 0.000869	 -0.002745	 0.024720	 -0.001378	 0.000417	 0.012359	 0.999923	 5
1461766127.788	 13	 0.000540	 -0.000048	 0.002353	 0.000855	 -0.002754	 0.024744	 -0.001382	 0.000410	 0.012371	 0.999922	 5
1461766127.808	 14	 0.000534	 -0.001112	 0.002343	 0.000863	 -0.002775	 0.024781	 -0.001393	 0.000414	 0.012389	 0.999922	 5
1461766127.818	 14	 0.001601	 -0.001115	 0.002333	 0.000849	 -0.002770	 0.024804	 -0.001390	 0.000407	 0.012401	 0.999922	 5
1461766127.828	 14	 0.000543	 -0.000041	 0.003418	 0.000873	 -0.002772	 0.024833	 -0.001391	 0.000419	 0.012416	 0.999922	 5
1461766127.838	 14	 0.000543	 -0.000041	 0.003418	 0.000875	 -0.002768	 0.024867	 -0.001389	 0.000420	 0.012433	 0.999922	 5
1461766127.848	 14	 0.000538	 -0.001104	 0.003408	 0.000892	 -0.002747	 0.024896	 -0.001379	 0.000429	 0.012447	 0.999921	 5
1461766127.858	 14	 -0.000524	 -0.000037	 0.003428	 0.000902	 -0.002718	 0.024930	 -0.001364	 0.000434	 0.012464	 0.999921	 5
1461766127.868	 14	 0.001611	 -0.000044	 0.003409	 0.000925	 -0.002706	 0.024964	 -0.001359	 0.000446	 0.012481	 0.999921	 5
1461766127.878	 14	 -0.000537	 -0.001117	 0.001286	 0.000911	 -0.002705	 0.024983	 -0.001358	 0.000438	 0.012490	 0.999921	 5
1461766127.888	 14	 -0.001604	 -0.000057	 0.000240	 0.000928	 -0.002709	 0.024990	 -0.001360	 0.000447	 0.012494	 0.999921	 5
1461766127.908	 15	 -0.000524	 -0.000037	 0.003428	 0.000964	 -0.002738	 0.025048	 -0.001375	 0.000465	 0.012523	 0.999921	 5
1461766127.918	 15	 0.000549	 0.002079	 0.002372	 0.000976	 -0.002724	 0.025072	 -0.001368	 0.000471	 0.012535	 0.999920	 5
1461766127.928	 15	 0.000529	 -0.001120	 0.001277	 0.000993	 -0.002718	 0.025090	 -0.001365	 0.000479	 0.012544	 0.999920	 5
1461766127.938	 15	 -0.000524	 -0.000037	 0.003428	 0.000991	 -0.002715	 0.025124	 -0.001364	 0.000479	 0.012561	 0.999920	 5
1461766127.948	 15	 -0.000513	 -0.001108	 0.003364	 0.000989	 -0.002720	 0.025153	 -0.001366	 0.000477	 0.012575	 0.999920	 5
1461766127.958	 15	 0.000551	 -0.000063	 0.001233	 0.000994	 -0.002723	 0.025171	 -0.001368	 0.000480	 0.012584	 0.999920	 5
1461766127.968	 15	 -0.000508	 -0.000045	 0.003374	 0.000990	 -0.002731	 0.025204	 -0.001372	 0.000478	 0.012601	 0.999920	 5
1461766127.978	 15	 0.001622	 -0.000059	 0.002290	 0.000986	 -0.002726	 0.025227	 -0.001369	 0.000476	 0.012613	 0.999919	 5
1461766127.988	 15	 0.000555	 -0.000056	 0.002299	 0.000986	 -0.002726	 0.025255	 -0.001369	 0.000476	 0.012627	 0.999919	 5
1461766127.998	 15	 0.000550	 -0.001120	 0.002289	 0.000980	 -0.002740	 0.025278	 -0.001376	 0.000472	 0.012638	 0.999919	 5
1461766128.008	 15	 -0.000512	 -0.000053	 0.002308	 0.000964	 -0.002730	 0.025307	 -0.001371	 0.000465	 0.012652	 0.999919	 5
1461766128.018	 15	 0.001617	 -0.001123	 0.002280	 0.000958	 -0.002716	 0.025330	 -0.001364	 0.000462	 0.012664	 0.999919	 5
1461766128.028	 15	 -0.001575	 0.001014	 0.002328	 0.000938	 -0.002722	 0.025347	 -0.001367	 0.000452	 0.012673	 0.999919	 5
1461766128.038	 15	 0.000555	 -0.000057	 0.002299	 0.000917	 -0.002700	 0.025376	 -0.001356	 0.000441	 0.012687	 0.999919	 5
1461766128.048	 15	 0.000550	 -0.000064	 0.001233	 0.000928	 -0.002679	 0.025393	 -0.001345	 0.000447	 0.012696	 0.999918	 5
1461766128.058	 15	 -0.000517	 -0.000061	 0.001243	 0.000942	 -0.002687	 0.025411	 -0.001349	 0.000454	 0.012704	 0.999918	 5
1461766128.068	 15	 0.000559	 -0.000049	 0.003365	 0.000898	 -0.002670	 0.025444	 -0.001341	 0.000432	 0.012721	 0.999918	 5
1461766128.078	 15	 0.000554	 -0.000057	 0.002299	 0.000887	 -0.002658	 0.025467	 -0.001335	 0.000427	 0.012733	 0.999918	 5
1461766128.088	 15	 0.000554	 -0.001113	 0.003355	 0.000878	 -0.002632	 0.025501	 -0.001321	 0.000422	 0.012750	 0.999918	 5
1461766128.098	 15	 -0.001561	 0.001007	 0.002278	 0.000894	 -0.002653	 0.025524	 -0.001332	 0.000430	 0.012761	 0.999918	 5
1461766128.108	 15	 0.000568	 -0.000063	 0.002249	 0.000877	 -0.002641	 0.025552	 -0.001326	 0.000422	 0.012775	 0.999917	 5
1461766128.118	 15	 -0.000494	 -0.000052	 0.003324	 0.000852	 -0.002623	 0.025580	 -0.001317	 0.000409	 0.012789	 0.999917	 5
1461766128.128	 15	 0.000563	 -0.001127	 0.002239	 0.000875	 -0.002590	 0.025607	 -0.001301	 0.000421	 0.012803	 0.999917	 5
1461766128.138	 15	 0.000564	 -0.000071	 0.001183	 0.000885	 -0.002598	 0.025630	 -0.001304	 0.000426	 0.012814	 0.999917	 5
1461766128.148	 15	 -0.000504	 -0.001124	 0.002249	 0.000875	 -0.002606	 0.025658	 -0.001309	 0.000421	 0.012828	 0.999917	 5
1461766128.158	 15	 -0.001561	 0.001007	 0.002278	 0.000887	 -0.002616	 0.025675	 -0.001313	 0.000427	 0.012837	 0.999917	 5
1461766128.168	 15	 -0.000500	 -0.001116	 0.003314	 0.000858	 -0.002632	 0.025708	 -0.001321	 0.000412	 0.012853	 0.999916	 5
1461766128.178	 15	 -0.000494	 0.001003	 0.002268	 0.000858	 -0.002624	 0.025736	 -0.001317	 0.000412	 0.012867	 0.999916	 5
1461766128.188	 15	 -0.000499	 -0.000061	 0.002258	 0.000856	 -0.002608	 0.025764	 -0.001309	 0.000411	 0.012881	 0.999916	 5
1461766128.208	 16	 -0.000495	 -0.000053	 0.003324	 0.000860	 -0.002611	 0.025820	 -0.001311	 0.000413	 0.012909	 0.999916	 5
1461766128.218	 16	 -0.000495	 -0.000053	 0.003324	 0.000872	 -0.002608	 0.025853	 -0.001310	 0.000419	 0.012926	 0.999916	 5
1461766128.228	 16	 -0.000499	 -0.000061	 0.002258	 0.000855	 -0.002616	 0.025881	 -0.001314	 0.000410	 0.012939	 0.999915	 5
1461766128.238	 16	 0.000572	 -0.000056	 0.003315	 0.000873	 -0.002614	 0.025914	 -0.001313	 0.000420	 0.012956	 0.999915	 5
1461766128.248	 16	 0.000573	 0.001000	 0.002259	 0.000879	 -0.002614	 0.025942	 -0.001313	 0.000423	 0.012970	 0.999915	 5
1461766128.258	 16	 -0.000495	 0.001003	 0.002268	 0.000901	 -0.002603	 0.025964	 -0.001307	 0.000434	 0.012981	 0.999915	 5
1461766128.268	 16	 0.000581	 -0.000069	 0.002194	 0.000892	 -0.002614	 0.025986	 -0.001313	 0.000429	 0.012992	 0.999915	 5
1461766128.278	 16	 -0.000486	 -0.000066	 0.002204	 0.000893	 -0.002640	 0.026008	 -0.001326	 0.000429	 0.013003	 0.999914	 5
1461766128.288	 16	 0.000581	 -0.000069	 0.002194	 0.000877	 -0.002641	 0.026030	 -0.001326	 0.000421	 0.013014	 0.999914	 5
1461766128.298	 16	 0.000576	 -0.001133	 0.002185	 0.000881	 -0.002624	 0.026052	 -0.001317	 0.000423	 0.013025	 0.999914	 5
1461766128.308	 16	 0.000581	 -0.000069	 0.002194	 0.000908	 -0.002627	 0.026074	 -0.001319	 0.000437	 0.013036	 0.999914	 5
1461766128.328	 17	 -0.000487	 -0.000066	 0.002204	 0.000904	 -0.002617	 0.026113	 -0.001314	 0.000435	 0.013055	 0.999914	 5
1461766128.338	 17	 0.000580	 -0.001125	 0.003250	 0.000945	 -0.002648	 0.026140	 -0.001330	 0.000455	 0.013069	 0.999914	 5
1461766128.348	 17	 -0.000483	 -0.001114	 0.004325	 0.000924	 -0.002627	 0.026173	 -0.001320	 0.000445	 0.013085	 0.999913	 5
1461766128.358	 17	 -0.001550	 -0.000055	 0.003279	 0.000912	 -0.002618	 0.026205	 -0.001315	 0.000439	 0.013102	 0.999913	 5
1461766128.368	 17	 -0.000487	 -0.000066	 0.002204	 0.000924	 -0.002636	 0.026228	 -0.001324	 0.000445	 0.013113	 0.999913	 5
1461766128.378	 17	 -0.000487	 -0.000066	 0.002204	 0.000899	 -0.002655	 0.026255	 -0.001333	 0.000432	 0.013126	 0.999913	 5
1461766128.388	 17	 -0.000492	 -0.001130	 0.002194	 0.000915	 -0.002669	 0.026282	 -0.001340	 0.000440	 0.013140	 0.999913	 5
1461766128.398	 17	 0.000580	 -0.000070	 0.002194	 0.000909	 -0.002668	 0.026304	 -0.001340	 0.000437	 0.013151	 0.999913	 5
1461766128.408	 17	 0.000575	 -0.001133	 0.002184	 0.000911	 -0.002666	 0.026331	 -0.001339	 0.000438	 0.013165	 0.999912	 5
1461766128.418	 17	 0.000591	 -0.000073	 0.002143	 0.000929	 -0.002669	 0.026348	 -0.001341	 0.000447	 0.013173	 0.999912	 5
1461766128.428	 17	 0.000591	 -0.000073	 0.002143	 0.000927	 -0.002675	 0.026369	 -0.001343	 0.000446	 0.013184	 0.999912	 5
1461766128.448	 18	 -0.000480	 -0.000078	 0.001087	 0.000904	 -0.002662	 0.026418	 -0.001337	 0.000434	 0.013208	 0.999912	 5
1461766128.458	 18	 -0.001534	 0.001004	 0.003238	 0.000870	 -0.002648	 0.026450	 -0.001330	 0.000417	 0.013224	 0.999912	 5
1461766128.468	 18	 -0.000471	 0.000993	 0.002162	 0.000876	 -0.002654	 0.026466	 -0.001333	 0.000420	 0.013232	 0.999911	 5
1461766128.478	 18	 0.000586	 -0.001137	 0.002133	 0.000865	 -0.002629	 0.026493	 -0.001320	 0.000415	 0.013245	 0.999911	 5
1461766128.488	 18	 -0.001539	 -0.000059	 0.003228	 0.000909	 -0.002651	 0.026525	 -0.001332	 0.000437	 0.013262	 0.999911	 5
1461766128.498	 18	 -0.000486	 -0.001142	 0.001077	 0.000921	 -0.002660	 0.026541	 -0.001336	 0.000443	 0.013270	 0.999911	 5
1461766128.508	 18	 -0.000472	 -0.000063	 0.003218	 0.000905	 -0.002653	 0.026568	 -0.001332	 0.000435	 0.013283	 0.999911	 5
1461766128.518	 18	 0.000600	 0.000998	 0.003219	 0.000928	 -0.002647	 0.026600	 -0.001330	 0.000447	 0.013299	 0.999911	 5
1461766128.528	 18	 -0.000462	 0.002065	 0.003238	 0.000907	 -0.002655	 0.026627	 -0.001334	 0.000436	 0.013313	 0.999910	 5
1461766128.538	 18	 -0.000477	 -0.000070	 0.002152	 0.000931	 -0.002662	 0.026654	 -0.001337	 0.000448	 0.013326	 0.999910	 5
1461766128.548	 18	 -0.001544	 -0.000067	 0.002162	 0.000930	 -0.002659	 0.026681	 -0.001336	 0.000447	 0.013339	 0.999910	 5
1461766128.558	 18	 -0.001534	 0.001004	 0.003237	 0.000957	 -0.002652	 0.026708	 -0.001332	 0.000461	 0.013353	 0.999910	 5
1461766128.568	 18	 0.000595	 -0.000066	 0.003209	 0.000979	 -0.002652	 0.026740	 -0.001333	 0.000472	 0.013369	 0.999910	 5
1461766128.578	 18	 -0.000466	 0.000984	 0.001044	 0.001009	 -0.002684	 0.026756	 -0.001349	 0.000486	 0.013377	 0.999909	 5
1461766128.588	 18	 0.000605	 -0.000068	 0.003157	 0.001015	 -0.002664	 0.026782	 -0.001339	 0.000490	 0.013390	 0.999909	 5
1461766128.598	 18	 0.000595	 -0.001139	 0.002081	 0.000969	 -0.002649	 0.026814	 -0.001331	 0.000467	 0.013406	 0.999909	 5
1461766128.608	 18	 0.000604	 -0.000068	 0.003157	 0.000964	 -0.002644	 0.026840	 -0.001328	 0.000464	 0.013419	 0.999909	 5
1461766128.618	 18	 0.000600	 -0.000076	 0.002091	 0.000935	 -0.002635	 0.026866	 -0.001323	 0.000450	 0.013432	 0.999909	 5
1461766128.628	 18	 0.000600	 -0.000076	 0.002091	 0.000955	 -0.002638	 0.026887	 -0.001325	 0.000460	 0.013442	 0.999909	 5
1461766128.638	 18	 0.000600	 -0.000076	 0.002091	 0.000950	 -0.002657	 0.026908	 -0.001335	 0.000457	 0.013453	 0.999909	 5
1461766128.648	 18	 -0.000458	 0.000998	 0.003176	 0.000977	 -0.002677	 0.026934	 -0.001345	 0.000470	 0.013466	 0.999908	 5
1461766128.658	 18	 -0.000463	 -0.000065	 0.003166	 0.000981	 -0.002688	 0.026961	 -0.001350	 0.000472	 0.013479	 0.999908	 5
1461766128.668	 18	 -0.000472	 -0.000081	 0.001034	 0.000966	 -0.002702	 0.026971	 -0.001358	 0.000465	 0.013484	 0.999908	 5
1461766128.678	 18	 -0.000458	 0.000998	 0.003176	 0.000972	 -0.002713	 0.026997	 -0.001363	 0.000468	 0.013498	 0.999908	 5
1461766128.688	 18	 0.000599	 -0.000076	 0.002091	 0.000984	 -0.002747	 0.027018	 -0.001380	 0.000473	 0.013508	 0.999908	 5
1461766128.698	 18	 -0.000465	 -0.001121	 0.004222	 0.000992	 -0.002754	 0.027061	 -0.001384	 0.000477	 0.013529	 0.999907	 5
1461766128.708	 18	 -0.000464	 -0.000066	 0.003166	 0.000991	 -0.002792	 0.027092	 -0.001402	 0.000477	 0.013545	 0.999907	 5
1461766128.718	 18	 -0.000459	 0.000998	 0.003176	 0.001023	 -0.002797	 0.027119	 -0.001405	 0.000492	 0.013558	 0.999907	 5
1461766128.728	 18	 0.000603	 -0.000069	 0.003157	 0.001034	 -0.002806	 0.027150	 -0.001410	 0.000498	 0.013574	 0.999907	 5
1461766128.738	 18	 -0.000469	 -0.000073	 0.002100	 0.001037	 -0.002778	 0.027176	 -0.001396	 0.000499	 0.013587	 0.999907	 5
1461766128.748	 18	 0.000608	 -0.000077	 0.002037	 0.001078	 -0.002761	 0.027202	 -0.001388	 0.000520	 0.013600	 0.999906	 5
1461766128.758	 18	 0.000608	 -0.000077	 0.002037	 0.001071	 -0.002765	 0.027223	 -0.001390	 0.000517	 0.013610	 0.999906	 5
1461766128.768	 18	 0.000603	 -0.000085	 0.000972	 0.001071	 -0.002764	 0.027232	 -0.001389	 0.000516	 0.013615	 0.999906	 5
1461766128.778	 18	 0.000608	 -0.000078	 0.002037	 0.001054	 -0.002761	 0.027253	 -0.001387	 0.000508	 0.013625	 0.999906	 5
1461766128.788	 18	 -0.000451	 -0.000059	 0.004178	 0.001034	 -0.002743	 0.027289	 -0.001378	 0.000498	 0.013643	 0.999906	 5
1461766128.798	 18	 0.000603	 -0.000086	 0.000972	 0.001034	 -0.002757	 0.027304	 -0.001385	 0.000498	 0.013651	 0.999906	 5
1461766128.808	 18	 0.000607	 -0.000078	 0.002037	 0.001021	 -0.002756	 0.027324	 -0.001385	 0.000492	 0.013661	 0.999906	 5
1461766128.818	 18	 -0.001523	 -0.000064	 0.003122	 0.000996	 -0.002765	 0.027356	 -0.001389	 0.000479	 0.013677	 0.999905	 5
1461766128.828	 18	 -0.000460	 -0.000075	 0.002047	 0.000962	 -0.002768	 0.027376	 -0.001390	 0.000462	 0.013687	 0.999905	 5
1461766128.838	 18	 -0.000464	 -0.000083	 0.000981	 0.000981	 -0.002778	 0.027391	 -0.001396	 0.000472	 0.013694	 0.999905	 5
1461766128.848	 18	 0.000602	 -0.001142	 0.002027	 0.000971	 -0.002768	 0.027411	 -0.001391	 0.000466	 0.013705	 0.999905	 5
1461766128.858	 18	 0.000607	 -0.000079	 0.002037	 0.000982	 -0.002751	 0.027432	 -0.001382	 0.000472	 0.013715	 0.999905	 5
1461766128.868	 18	 -0.000465	 -0.001139	 0.002037	 0.000978	 -0.002750	 0.027452	 -0.001382	 0.000470	 0.013725	 0.999905	 5
1461766128.878	 18	 -0.001536	 -0.000088	 -0.000076	 0.000964	 -0.002735	 0.027457	 -0.001374	 0.000463	 0.013727	 0.999905	 5
1461766128.888	 18	 0.001673	 -0.001138	 0.003084	 0.000969	 -0.002731	 0.027482	 -0.001372	 0.000466	 0.013740	 0.999905	 5
1461766128.898	 18	 0.001654	 -0.004337	 0.001989	 0.000964	 -0.002747	 0.027508	 -0.001380	 0.000463	 0.013753	 0.999904	 5
1461766128.908	 18	 -0.001504	 0.003118	 0.002033	 0.000945	 -0.002720	 0.027533	 -0.001366	 0.000454	 0.013766	 0.999904	 5
1461766128.918	 18	 -0.001485	 0.006317	 0.003128	 0.000947	 -0.002722	 0.027559	 -0.001367	 0.000455	 0.013778	 0.999904	 5
1461766128.928	 18	 0.002738	 -0.003269	 0.003002	 0.000949	 -0.002722	 0.027584	 -0.001368	 0.000456	 0.013791	 0.999904	 5
1461766128.938	 18	 0.000595	 -0.004334	 0.001945	 0.000955	 -0.002720	 0.027609	 -0.001366	 0.000459	 0.013803	 0.999904	 5
1461766128.948	 18	 0.001681	 -0.001138	 0.003031	 0.000940	 -0.002719	 0.027634	 -0.001366	 0.000451	 0.013816	 0.999904	 5
1461766128.958	 18	 -0.000452	 -0.000076	 0.001994	 0.000939	 -0.002734	 0.027654	 -0.001373	 0.000451	 0.013826	 0.999903	 5
1461766128.968	 18	 -0.001499	 0.004182	 0.002043	 0.000939	 -0.002735	 0.027679	 -0.001374	 0.000450	 0.013839	 0.999903	 5
1461766128.978	 18	 0.001671	 -0.003266	 0.003012	 0.000912	 -0.002734	 0.027704	 -0.001373	 0.000437	 0.013851	 0.999903	 5
1461766128.988	 18	 -0.000449	 -0.000069	 0.003060	 0.000950	 -0.002767	 0.027725	 -0.001390	 0.000456	 0.013861	 0.999903	 5
1461766128.998	 18	 0.000609	 -0.001143	 0.001975	 0.000935	 -0.002770	 0.027750	 -0.001391	 0.000448	 0.013874	 0.999903	 5
1461766129.008	 18	 0.004867	 -0.004339	 0.002974	 0.000921	 -0.002767	 0.027774	 -0.001390	 0.000441	 0.013886	 0.999903	 5
1461766129.018	 18	 0.000610	 -0.000088	 0.000919	 0.000882	 -0.002781	 0.027784	 -0.001397	 0.000422	 0.013891	 0.999902	 5
1461766129.028	 18	 -0.001506	 0.002062	 0.003089	 0.000925	 -0.002782	 0.027809	 -0.001397	 0.000443	 0.013903	 0.999902	 5
1461766129.038	 18	 0.001675	 -0.002203	 0.003021	 0.000910	 -0.002776	 0.027845	 -0.001394	 0.000436	 0.013921	 0.999902	 5
1461766129.048	 18	 -0.001505	 0.003117	 0.002033	 0.000910	 -0.002789	 0.027870	 -0.001401	 0.000436	 0.013934	 0.999902	 5
1461766129.058	 18	 0.000629	 0.003111	 0.002014	 0.000908	 -0.002786	 0.027890	 -0.001399	 0.000435	 0.013944	 0.999902	 5
1461766129.068	 18	 0.000608	 -0.001144	 0.001975	 0.000875	 -0.002763	 0.027910	 -0.001388	 0.000418	 0.013954	 0.999902	 5
1461766129.078	 18	 -0.000441	 0.000987	 0.001952	 0.000886	 -0.002740	 0.027929	 -0.001376	 0.000424	 0.013963	 0.999901	 5
1461766129.088	 18	 -0.000441	 0.000987	 0.001952	 0.000879	 -0.002738	 0.027954	 -0.001375	 0.000420	 0.013976	 0.999901	 5
1461766129.098	 18	 0.000625	 -0.000072	 0.002999	 0.000889	 -0.002754	 0.027978	 -0.001383	 0.000425	 0.013988	 0.999901	 5
1461766129.108	 18	 0.000615	 -0.002199	 0.002979	 0.000902	 -0.002744	 0.028003	 -0.001378	 0.000432	 0.014000	 0.999901	 5
1461766129.118	 18	 -0.000442	 -0.000069	 0.003008	 0.000908	 -0.002726	 0.028033	 -0.001369	 0.000435	 0.014016	 0.999901	 5
1461766129.128	 18	 0.000616	 -0.001143	 0.001923	 0.000934	 -0.002712	 0.028058	 -0.001362	 0.000448	 0.014028	 0.999901	 5
1461766129.138	 18	 0.000611	 -0.002207	 0.001913	 0.000913	 -0.002719	 0.028077	 -0.001366	 0.000437	 0.014037	 0.999900	 5
1461766129.148	 18	 0.000625	 -0.000072	 0.002998	 0.000913	 -0.002690	 0.028107	 -0.001351	 0.000437	 0.014052	 0.999900	 5
1461766129.158	 18	 0.000625	 -0.000072	 0.002998	 0.000911	 -0.002674	 0.028137	 -0.001343	 0.000436	 0.014067	 0.999900	 5
1461766129.168	 18	 -0.000442	 -0.000069	 0.003008	 0.000891	 -0.002689	 0.028162	 -0.001351	 0.000427	 0.014080	 0.999900	 5
1461766129.178	 18	 0.000620	 -0.000080	 0.001933	 0.000883	 -0.002699	 0.028181	 -0.001355	 0.000422	 0.014089	 0.999900	 5
1461766129.188	 18	 -0.000448	 -0.001133	 0.002998	 0.000887	 -0.002715	 0.028206	 -0.001364	 0.000424	 0.014102	 0.999900	 5
1461766129.198	 18	 -0.001509	 0.000990	 0.001961	 0.000894	 -0.002726	 0.028225	 -0.001369	 0.000428	 0.014112	 0.999899	 5
1461766129.208	 18	 -0.000443	 -0.000070	 0.003008	 0.000897	 -0.002736	 0.028256	 -0.001374	 0.000429	 0.014127	 0.999899	 5
1461766129.218	 18	 -0.001514	 -0.000074	 0.001951	 0.000888	 -0.002730	 0.028280	 -0.001371	 0.000425	 0.014139	 0.999899	 5
1461766129.228	 18	 0.000626	 -0.000080	 0.001885	 0.000896	 -0.002735	 0.028299	 -0.001374	 0.000429	 0.014149	 0.999899	 5
1461766129.238	 18	 0.000622	 -0.000088	 0.000819	 0.000865	 -0.002734	 0.028308	 -0.001373	 0.000413	 0.014153	 0.999899	 5
1461766129.248	 18	 0.000625	 -0.001136	 0.002941	 0.000869	 -0.002726	 0.028337	 -0.001369	 0.000415	 0.014167	 0.999899	 5
1461766129.258	 18	 -0.000437	 -0.000069	 0.002960	 0.000853	 -0.002714	 0.028361	 -0.001363	 0.000407	 0.014180	 0.999898	 5
1461766129.268	 18	 0.000635	 -0.000065	 0.004016	 0.000838	 -0.002697	 0.028396	 -0.001354	 0.000400	 0.014197	 0.999898	 5
1461766129.278	 18	 0.000626	 -0.000080	 0.001885	 0.000850	 -0.002687	 0.028415	 -0.001349	 0.000406	 0.014206	 0.999898	 5
1461766129.288	 18	 -0.002570	 0.000993	 0.001922	 0.000866	 -0.002712	 0.028434	 -0.001362	 0.000414	 0.014216	 0.999898	 5
1461766129.298	 18	 -0.000441	 -0.000077	 0.001894	 0.000829	 -0.002702	 0.028458	 -0.001357	 0.000395	 0.014228	 0.999898	 5
1461766129.308	 18	 0.000635	 0.000991	 0.002960	 0.000832	 -0.002709	 0.028482	 -0.001360	 0.000397	 0.014240	 0.999898	 5
1461766129.318	 18	 0.000626	 -0.000081	 0.001885	 0.000837	 -0.002667	 0.028501	 -0.001339	 0.000399	 0.014250	 0.999897	 5
1461766129.328	 18	 0.000626	 -0.000081	 0.001885	 0.000855	 -0.002681	 0.028531	 -0.001346	 0.000408	 0.014264	 0.999897	 5
1461766129.338	 18	 -0.000436	 0.000986	 0.001904	 0.000842	 -0.002691	 0.028550	 -0.001351	 0.000402	 0.014274	 0.999897	 5
1461766129.348	 18	 -0.000437	 0.000986	 0.001904	 0.000860	 -0.002722	 0.028569	 -0.001367	 0.000411	 0.014283	 0.999897	 5
1461766129.358	 18	 0.000625	 -0.000081	 0.001885	 0.000860	 -0.002723	 0.028588	 -0.001367	 0.000410	 0.014293	 0.999897	 5
1461766129.368	 18	 0.000630	 -0.000073	 0.002950	 0.000843	 -0.002732	 0.028617	 -0.001372	 0.000402	 0.014307	 0.999897	 5
1461766129.378	 18	 0.000625	 -0.000081	 0.001885	 0.000851	 -0.002748	 0.028641	 -0.001380	 0.000406	 0.014320	 0.999896	 5
1461766129.388	 18	 0.000640	 -0.000064	 0.003967	 0.000852	 -0.002727	 0.028676	 -0.001369	 0.000406	 0.014337	 0.999896	 5
1461766129.398	 18	 0.000635	 -0.000072	 0.002901	 0.000857	 -0.002723	 0.028700	 -0.001368	 0.000409	 0.014349	 0.999896	 5
1461766129.408	 18	 0.000630	 -0.001136	 0.002891	 0.000841	 -0.002702	 0.028729	 -0.001357	 0.000401	 0.014363	 0.999896	 5
1461766129.418	 18	 0.000645	 0.000999	 0.003977	 0.000864	 -0.002717	 0.028763	 -0.001365	 0.000412	 0.014380	 0.999896	 5
1461766129.428	 18	 -0.000436	 -0.000077	 0.001845	 0.000885	 -0.002693	 0.028782	 -0.001353	 0.000423	 0.014390	 0.999895	 5
1461766129.438	 18	 0.001702	 -0.000075	 0.002892	 0.000890	 -0.002673	 0.028811	 -0.001343	 0.000426	 0.014404	 0.999895	 5
1461766129.448	 18	 -0.000432	 -0.000069	 0.002911	 0.000896	 -0.002677	 0.028834	 -0.001345	 0.000429	 0.014416	 0.999895	 5
1461766129.458	 18	 -0.000436	 -0.000077	 0.001845	 0.000889	 -0.002677	 0.028853	 -0.001345	 0.000425	 0.014425	 0.999895	 5
1461766129.468	 18	 0.000635	 -0.000072	 0.002901	 0.000888	 -0.002678	 0.028882	 -0.001345	 0.000425	 0.014440	 0.999895	 5
1461766129.478	 18	 -0.000436	 -0.000077	 0.001845	 0.000861	 -0.002669	 0.028900	 -0.001341	 0.000411	 0.014449	 0.999895	 5
1461766129.488	 18	 0.000631	 -0.000081	 0.001835	 0.000842	 -0.002648	 0.028918	 -0.001330	 0.000402	 0.014458	 0.999895	 5
1461766129.498	 18	 -0.000437	 -0.000078	 0.001845	 0.000802	 -0.002674	 0.028936	 -0.001343	 0.000382	 0.014467	 0.999894	 5
1461766129.508	 18	 -0.000437	 -0.000078	 0.001845	 0.000809	 -0.002671	 0.028950	 -0.001341	 0.000385	 0.014474	 0.999894	 5
1461766129.518	 18	 -0.000442	 -0.001141	 0.001835	 0.000817	 -0.002664	 0.028973	 -0.001338	 0.000389	 0.014486	 0.999894	 5
1461766129.528	 18	 -0.000432	 0.000986	 0.001855	 0.000812	 -0.002686	 0.028992	 -0.001349	 0.000387	 0.014495	 0.999894	 5
1461766129.538	 18	 -0.000438	 -0.002196	 0.002845	 0.000807	 -0.002681	 0.029010	 -0.001346	 0.000384	 0.014504	 0.999894	 5
1461766129.548	 18	 -0.000428	 -0.000069	 0.002865	 0.000790	 -0.002682	 0.029039	 -0.001347	 0.000376	 0.014518	 0.999894	 5
1461766129.558	 18	 0.000640	 -0.000072	 0.002856	 0.000803	 -0.002646	 0.029057	 -0.001329	 0.000382	 0.014527	 0.999894	 5
1461766129.568	 18	 0.000639	 -0.000072	 0.002856	 0.000806	 -0.002643	 0.029080	 -0.001327	 0.000384	 0.014539	 0.999893	 5
1461766129.578	 18	 0.000635	 -0.000080	 0.001790	 0.000792	 -0.002633	 0.029098	 -0.001322	 0.000377	 0.014548	 0.999893	 5
1461766129.588	 18	 -0.000433	 -0.001133	 0.002855	 0.000810	 -0.002651	 0.029126	 -0.001331	 0.000386	 0.014562	 0.999893	 5
1461766129.598	 18	 0.001707	 0.000980	 0.001790	 0.000813	 -0.002662	 0.029150	 -0.001337	 0.000387	 0.014574	 0.999893	 5
1461766129.608	 18	 -0.000427	 0.000987	 0.001809	 0.000821	 -0.002650	 0.029162	 -0.001331	 0.000391	 0.014580	 0.999893	 5
1461766129.618	 18	 0.000635	 -0.000080	 0.001790	 0.000822	 -0.002635	 0.029180	 -0.001323	 0.000392	 0.014589	 0.999893	 5
1461766129.628	 18	 -0.000437	 -0.001141	 0.001789	 0.000813	 -0.002621	 0.029198	 -0.001316	 0.000388	 0.014598	 0.999893	 5
1461766129.648	 19	 -0.000443	 -0.002204	 0.001780	 0.000824	 -0.002620	 0.029250	 -0.001316	 0.000393	 0.014624	 0.999892	 5
1461766129.658	 19	 0.000639	 -0.000072	 0.002856	 0.000847	 -0.002620	 0.029278	 -0.001316	 0.000404	 0.014638	 0.999892	 5
1461766129.668	 19	 -0.000433	 -0.000077	 0.001799	 0.000872	 -0.002626	 0.029302	 -0.001319	 0.000417	 0.014650	 0.999892	 5
1461766129.678	 19	 0.000639	 -0.000072	 0.002856	 0.000891	 -0.002641	 0.029325	 -0.001327	 0.000426	 0.014661	 0.999892	 5
1461766129.688	 19	 -0.000433	 -0.000077	 0.001799	 0.000890	 -0.002643	 0.029354	 -0.001328	 0.000426	 0.014676	 0.999891	 5
1461766129.698	 19	 -0.000429	 -0.000069	 0.002865	 0.000919	 -0.002666	 0.029382	 -0.001340	 0.000440	 0.014690	 0.999891	 5
1461766129.708	 19	 0.000634	 -0.000080	 0.001790	 0.000889	 -0.002674	 0.029400	 -0.001343	 0.000425	 0.014699	 0.999891	 5
1461766129.718	 19	 0.002772	 -0.001141	 0.002773	 0.000883	 -0.002668	 0.029428	 -0.001340	 0.000422	 0.014713	 0.999891	 5
1461766129.728	 19	 -0.000433	 -0.001139	 0.001735	 0.000876	 -0.002670	 0.029451	 -0.001341	 0.000418	 0.014724	 0.999891	 5
1461766129.738	 19	 0.000630	 -0.001150	 0.000660	 0.000860	 -0.002673	 0.029463	 -0.001343	 0.000410	 0.014730	 0.999891	 5
1461766129.748	 19	 -0.000423	 0.000988	 0.001755	 0.000870	 -0.002677	 0.029486	 -0.001345	 0.000415	 0.014742	 0.999890	 5
1461766129.768	 20	 -0.001496	 -0.000073	 0.001754	 0.000855	 -0.002684	 0.029526	 -0.001348	 0.000408	 0.014762	 0.999890	 5
1461766129.778	 20	 -0.000425	 -0.001124	 0.003867	 0.000845	 -0.002713	 0.029559	 -0.001363	 0.000402	 0.014779	 0.999890	 5
1461766129.788	 20	 -0.001497	 -0.001129	 0.002810	 0.000833	 -0.002721	 0.029587	 -0.001366	 0.000396	 0.014793	 0.999890	 5
1461766129.798	 20	 0.000637	 -0.001135	 0.002792	 0.000797	 -0.002720	 0.029610	 -0.001366	 0.000378	 0.014804	 0.999889	 5
1461766129.808	 20	 -0.000430	 -0.001132	 0.002801	 0.000811	 -0.002713	 0.029638	 -0.001362	 0.000385	 0.014818	 0.999889	 5
1461766129.818	 20	 -0.000433	 -0.000084	 0.000679	 0.000811	 -0.002722	 0.029655	 -0.001367	 0.000385	 0.014827	 0.999889	 5
1461766129.828	 20	 0.001714	 -0.000067	 0.003858	 0.000806	 -0.002708	 0.029689	 -0.001360	 0.000383	 0.014843	 0.999889	 5
1461766129.838	 20	 -0.000434	 -0.001140	 0.001735	 0.000810	 -0.002693	 0.029706	 -0.001352	 0.000385	 0.014852	 0.999889	 5
1461766129.848	 20	 -0.000425	 -0.000069	 0.002811	 0.000817	 -0.002709	 0.029729	 -0.001360	 0.000388	 0.014863	 0.999889	 5
1461766129.858	 20	 -0.000416	 0.000997	 0.002779	 0.000829	 -0.002713	 0.029757	 -0.001362	 0.000394	 0.014877	 0.999888	 5
1461766129.868	 20	 0.000636	 -0.001142	 0.001684	 0.000841	 -0.002720	 0.029779	 -0.001366	 0.000400	 0.014888	 0.999888	 5
1461766129.878	 20	 0.000641	 -0.000078	 0.001694	 0.000838	 -0.002706	 0.029791	 -0.001359	 0.000399	 0.014894	 0.999888	 5
1461766129.888	 20	 -0.000426	 -0.000075	 0.001704	 0.000845	 -0.002696	 0.029813	 -0.001354	 0.000402	 0.014905	 0.999888	 5
1461766129.898	 20	 -0.000421	 0.000989	 0.001713	 0.000836	 -0.002692	 0.029836	 -0.001352	 0.000398	 0.014917	 0.999888	 5
1461766129.908	 20	 0.000650	 0.000993	 0.002770	 0.000842	 -0.002715	 0.029863	 -0.001363	 0.000401	 0.014930	 0.999888	 5
1461766129.918	 20	 0.000640	 -0.001134	 0.002750	 0.000819	 -0.002706	 0.029891	 -0.001359	 0.000389	 0.014944	 0.999887	 5
1461766129.928	 20	 -0.000427	 -0.001131	 0.002760	 0.000866	 -0.002714	 0.029918	 -0.001363	 0.000413	 0.014958	 0.999887	 5
1461766129.938	 20	 0.000654	 0.001001	 0.003836	 0.000870	 -0.002703	 0.029951	 -0.001358	 0.000415	 0.014975	 0.999887	 5
1461766129.948	 20	 -0.000422	 -0.000067	 0.002769	 0.000883	 -0.002715	 0.029984	 -0.001364	 0.000421	 0.014991	 0.999887	 5
1461766129.958	 20	 -0.000427	 -0.001131	 0.002760	 0.000847	 -0.002728	 0.030007	 -0.001370	 0.000403	 0.015002	 0.999886	 5
1461766129.968	 20	 -0.000427	 -0.000075	 0.001704	 0.000873	 -0.002756	 0.030024	 -0.001384	 0.000416	 0.015011	 0.999886	 5
1461766129.978	 20	 -0.000423	 -0.000068	 0.002769	 0.000882	 -0.002768	 0.030051	 -0.001390	 0.000420	 0.015025	 0.999886	 5
1461766129.988	 20	 -0.000433	 -0.002195	 0.002750	 0.000827	 -0.002763	 0.030074	 -0.001388	 0.000393	 0.015036	 0.999886	 5
1461766129.998	 20	 -0.000423	 -0.000068	 0.002769	 0.000813	 -0.002784	 0.030096	 -0.001398	 0.000386	 0.015047	 0.999886	 5
1461766130.008	 20	 0.000635	 -0.001143	 0.001684	 0.000800	 -0.002784	 0.030118	 -0.001398	 0.000379	 0.015058	 0.999886	 5
1461766130.018	 20	 -0.000420	 -0.000066	 0.002722	 0.000800	 -0.002786	 0.030140	 -0.001399	 0.000379	 0.015069	 0.999885	 5
1461766130.028	 20	 -0.001487	 -0.000063	 0.002731	 0.000805	 -0.002791	 0.030162	 -0.001401	 0.000382	 0.015080	 0.999885	 5
1461766130.038	 20	 -0.000424	 -0.000074	 0.001656	 0.000783	 -0.002774	 0.030179	 -0.001393	 0.000371	 0.015088	 0.999885	 5
1461766130.048	 20	 -0.001492	 -0.001127	 0.002722	 0.000767	 -0.002778	 0.030200	 -0.001395	 0.000362	 0.015099	 0.999885	 5
1461766130.058	 20	 -0.000419	 0.000989	 0.001666	 0.000803	 -0.002804	 0.030217	 -0.001408	 0.000380	 0.015107	 0.999885	 5
1461766130.068	 20	 -0.000414	 0.002053	 0.001676	 0.000821	 -0.002789	 0.030228	 -0.001400	 0.000389	 0.015113	 0.999885	 5
1461766130.078	 20	 -0.000428	 -0.000082	 0.000590	 0.000824	 -0.002813	 0.030240	 -0.001412	 0.000391	 0.015119	 0.999885	 5
1461766130.088	 20	 0.000643	 -0.000077	 0.001647	 0.000850	 -0.002816	 0.030256	 -0.001414	 0.000404	 0.015127	 0.999885	 5
1461766130.098	 20	 -0.000424	 -0.000074	 0.001656	 0.000861	 -0.002796	 0.030267	 -0.001404	 0.000409	 0.015133	 0.999884	 5
1461766130.108	 20	 0.001719	 -0.000065	 0.003769	 0.000883	 -0.002767	 0.030295	 -0.001390	 0.000421	 0.015146	 0.999884	 5
1461766130.118	 20	 0.000638	 -0.001141	 0.001637	 0.000874	 -0.002757	 0.030311	 -0.001385	 0.000416	 0.015154	 0.999884	 5
1461766130.128	 20	 -0.000424	 -0.000074	 0.001656	 0.000882	 -0.002758	 0.030333	 -0.001385	 0.000420	 0.015165	 0.999884	 5
1461766130.138	 20	 -0.000425	 -0.001130	 0.002712	 0.000870	 -0.002759	 0.030360	 -0.001386	 0.000414	 0.015179	 0.999884	 5
1461766130.148	 20	 0.000638	 -0.000085	 0.000581	 0.000868	 -0.002765	 0.030371	 -0.001389	 0.000413	 0.015184	 0.999884	 5
1461766130.158	 20	 -0.000416	 -0.000059	 0.003788	 0.000875	 -0.002761	 0.030404	 -0.001387	 0.000416	 0.015201	 0.999883	 5
1461766130.168	 20	 0.000642	 -0.000078	 0.001647	 0.000857	 -0.002761	 0.030425	 -0.001387	 0.000407	 0.015211	 0.999883	 5
1461766130.178	 20	 0.000652	 0.000993	 0.002723	 0.000835	 -0.002749	 0.030452	 -0.001380	 0.000397	 0.015225	 0.999883	 5
1461766130.188	 20	 -0.000422	 -0.000073	 0.001608	 0.000827	 -0.002744	 0.030474	 -0.001378	 0.000393	 0.015236	 0.999883	 5
1461766130.208	 21	 0.000644	 -0.001133	 0.002655	 0.000799	 -0.002746	 0.030517	 -0.001379	 0.000378	 0.015257	 0.999883	 5
1461766130.218	 21	 0.000645	 -0.000077	 0.001599	 0.000809	 -0.002703	 0.030538	 -0.001358	 0.000384	 0.015268	 0.999882	 5
1461766130.228	 21	 -0.000417	 -0.000066	 0.002674	 0.000820	 -0.002690	 0.030565	 -0.001351	 0.000389	 0.015281	 0.999882	 5
1461766130.238	 21	 -0.000413	 0.000998	 0.002684	 0.000847	 -0.002701	 0.030591	 -0.001357	 0.000403	 0.015295	 0.999882	 5
1461766130.248	 21	 0.000640	 -0.001140	 0.001589	 0.000820	 -0.002713	 0.030613	 -0.001362	 0.000389	 0.015305	 0.999882	 5
1461766130.258	 21	 0.000645	 -0.000077	 0.001599	 0.000817	 -0.002705	 0.030628	 -0.001359	 0.000388	 0.015313	 0.999882	 5
1461766130.268	 21	 -0.000413	 0.000998	 0.002684	 0.000837	 -0.002690	 0.030650	 -0.001351	 0.000398	 0.015324	 0.999882	 5
1461766130.278	 21	 0.000650	 0.000987	 0.001608	 0.000872	 -0.002694	 0.030672	 -0.001353	 0.000415	 0.015335	 0.999881	 5
1461766130.288	 21	 0.000645	 -0.000077	 0.001599	 0.000891	 -0.002681	 0.030688	 -0.001347	 0.000425	 0.015343	 0.999881	 5
1461766130.298	 21	 0.001712	 -0.000080	 0.001589	 0.000912	 -0.002667	 0.030704	 -0.001340	 0.000436	 0.015351	 0.999881	 5
1461766130.308	 21	 -0.000418	 -0.000066	 0.002674	 0.000884	 -0.002675	 0.030720	 -0.001344	 0.000421	 0.015359	 0.999881	 5
1461766130.318	 21	 -0.000418	 -0.000066	 0.002674	 0.000872	 -0.002695	 0.030746	 -0.001354	 0.000415	 0.015372	 0.999881	 5
1461766130.328	 21	 0.001716	 -0.000073	 0.002655	 0.000856	 -0.002683	 0.030767	 -0.001348	 0.000408	 0.015383	 0.999881	 5
1461766130.338	 21	 0.000656	 0.000996	 0.002629	 0.000887	 -0.002676	 0.030783	 -0.001345	 0.000423	 0.015390	 0.999881	 5
1461766130.348	 21	 -0.000416	 -0.000065	 0.002629	 0.000914	 -0.002654	 0.030810	 -0.001334	 0.000437	 0.015404	 0.999880	 5
1461766130.358	 21	 0.000661	 0.001003	 0.003695	 0.000891	 -0.002644	 0.030841	 -0.001329	 0.000425	 0.015419	 0.999880	 5
1461766130.368	 21	 0.000647	 -0.000076	 0.001554	 0.000898	 -0.002639	 0.030857	 -0.001326	 0.000428	 0.015427	 0.999880	 5
1461766130.378	 21	 -0.001477	 0.002058	 0.001592	 0.000930	 -0.002632	 0.030872	 -0.001323	 0.000445	 0.015435	 0.999880	 5
1461766130.388	 21	 0.000651	 -0.000068	 0.002619	 0.000932	 -0.002631	 0.030899	 -0.001322	 0.000446	 0.015448	 0.999880	 5
1461766130.398	 21	 -0.000425	 -0.001136	 0.001553	 0.000915	 -0.002651	 0.030914	 -0.001332	 0.000437	 0.015456	 0.999880	 5
1461766130.408	 21	 0.000646	 -0.001132	 0.002610	 0.000919	 -0.002628	 0.030935	 -0.001321	 0.000439	 0.015466	 0.999879	 5
1461766130.418	 21	 -0.000416	 -0.000065	 0.002629	 0.000935	 -0.002645	 0.030961	 -0.001329	 0.000447	 0.015479	 0.999879	 5
1461766130.428	 21	 0.000646	 -0.001132	 0.002610	 0.000932	 -0.002638	 0.030982	 -0.001326	 0.000445	 0.015490	 0.999879	 5
1461766130.438	 21	 -0.000426	 -0.001137	 0.001553	 0.000918	 -0.002669	 0.030992	 -0.001342	 0.000438	 0.015495	 0.999879	 5
1461766130.448	 21	 0.000646	 -0.000076	 0.001554	 0.000892	 -0.002662	 0.031013	 -0.001338	 0.000425	 0.015505	 0.999879	 5
1461766130.458	 21	 -0.000421	 -0.000073	 0.001563	 0.000862	 -0.002686	 0.031034	 -0.001349	 0.000410	 0.015516	 0.999879	 5
1461766130.468	 21	 -0.000417	 -0.000066	 0.002629	 0.000860	 -0.002677	 0.031060	 -0.001345	 0.000409	 0.015529	 0.999878	 5
1461766130.478	 21	 -0.000421	 -0.000074	 0.001563	 0.000845	 -0.002691	 0.031081	 -0.001352	 0.000401	 0.015539	 0.999878	 5
1461766130.488	 21	 0.000651	 0.000987	 0.001563	 0.000845	 -0.002699	 0.031097	 -0.001356	 0.000402	 0.015547	 0.999878	 5
1461766130.498	 21	 -0.000426	 -0.001137	 0.001553	 0.000858	 -0.002696	 0.031113	 -0.001355	 0.000408	 0.015555	 0.999878	 5
1461766130.508	 21	 0.000636	 -0.001148	 0.000478	 0.000843	 -0.002697	 0.031123	 -0.001355	 0.000401	 0.015560	 0.999878	 5
1461766130.518	 21	 -0.000414	 -0.000064	 0.002579	 0.000824	 -0.002710	 0.031143	 -0.001361	 0.000391	 0.015570	 0.999878	 5
1461766130.528	 21	 0.000648	 -0.000075	 0.001504	 0.000842	 -0.002711	 0.031163	 -0.001362	 0.000400	 0.015580	 0.999878	 5
1461766130.538	 21	 0.000643	 -0.001139	 0.001494	 0.000824	 -0.002705	 0.031178	 -0.001359	 0.000391	 0.015588	 0.999878	 5
1461766130.548	 21	 -0.000411	 -0.000056	 0.003644	 0.000857	 -0.002748	 0.031204	 -0.001381	 0.000407	 0.015601	 0.999877	 5
1461766130.558	 21	 -0.000424	 -0.001136	 0.001503	 0.000868	 -0.002752	 0.031225	 -0.001383	 0.000413	 0.015611	 0.999877	 5
1461766130.568	 21	 0.000647	 -0.001131	 0.002559	 0.000866	 -0.002759	 0.031245	 -0.001386	 0.000411	 0.015621	 0.999877	 5
1461766130.578	 21	 -0.000420	 -0.001128	 0.002569	 0.000848	 -0.002767	 0.031271	 -0.001390	 0.000403	 0.015634	 0.999877	 5
1461766130.588	 21	 0.000652	 -0.000068	 0.002569	 0.000828	 -0.002766	 0.031296	 -0.001389	 0.000393	 0.015647	 0.999877	 5
1461766130.598	 21	 -0.000415	 -0.000065	 0.002579	 0.000818	 -0.002765	 0.031322	 -0.001389	 0.000387	 0.015660	 0.999876	 5
1461766130.608	 21	 0.000653	 0.000988	 0.001513	 0.000812	 -0.002764	 0.031343	 -0.001388	 0.000384	 0.015670	 0.999876	 5
1461766130.618	 21	 -0.000415	 0.000991	 0.001523	 0.000847	 -0.002781	 0.031363	 -0.001397	 0.000402	 0.015680	 0.999876	 5
1461766130.628	 21	 0.000657	 0.000996	 0.002579	 0.000841	 -0.002789	 0.031389	 -0.001401	 0.000399	 0.015693	 0.999876	 5
1461766130.638	 21	 0.000633	 -0.002211	 0.000418	 0.000846	 -0.002795	 0.031404	 -0.001404	 0.000401	 0.015701	 0.999876	 5
1461766130.648	 21	 -0.000411	 0.000999	 0.002588	 0.000902	 -0.002788	 0.031430	 -0.001401	 0.000429	 0.015714	 0.999875	 5
1461766130.658	 21	 0.000651	 -0.000068	 0.002569	 0.000907	 -0.002763	 0.031456	 -0.001388	 0.000432	 0.015727	 0.999875	 5
1461766130.668	 21	 0.001721	 -0.000069	 0.002516	 0.000877	 -0.002739	 0.031476	 -0.001376	 0.000417	 0.015737	 0.999875	 5
1461766130.678	 21	 -0.000413	 -0.000063	 0.002535	 0.000897	 -0.002736	 0.031501	 -0.001375	 0.000427	 0.015749	 0.999875	 5
1461766130.688	 21	 -0.000413	 0.000993	 0.001479	 0.000894	 -0.002737	 0.031521	 -0.001375	 0.000425	 0.015759	 0.999875	 5
1461766130.698	 21	 -0.000418	 -0.000071	 0.001469	 0.000885	 -0.002742	 0.031536	 -0.001378	 0.000421	 0.015767	 0.999875	 5
1461766130.708	 21	 0.000654	 -0.000066	 0.002526	 0.000887	 -0.002740	 0.031561	 -0.001377	 0.000422	 0.015779	 0.999874	 5
1461766130.718	 21	 0.000649	 -0.000074	 0.001460	 0.000898	 -0.002733	 0.031576	 -0.001373	 0.000428	 0.015786	 0.999874	 5
1461766130.728	 21	 0.000658	 -0.000059	 0.003591	 0.000883	 -0.002718	 0.031606	 -0.001366	 0.000420	 0.015802	 0.999874	 5
1461766130.738	 21	 0.000653	 -0.000067	 0.002526	 0.000882	 -0.002712	 0.031637	 -0.001363	 0.000419	 0.015817	 0.999874	 5
1461766130.748	 21	 -0.000428	 -0.002198	 0.001449	 0.000884	 -0.002705	 0.031651	 -0.001359	 0.000421	 0.015824	 0.999874	 5
1461766130.758	 21	 0.000649	 -0.000074	 0.001460	 0.000881	 -0.002692	 0.031666	 -0.001353	 0.000419	 0.015832	 0.999874	 5
1461766130.768	 21	 -0.000418	 -0.000071	 0.001469	 0.000842	 -0.002694	 0.031680	 -0.001354	 0.000399	 0.015839	 0.999874	 5
1461766130.778	 21	 -0.000414	 -0.000064	 0.002535	 0.000848	 -0.002714	 0.031706	 -0.001364	 0.000402	 0.015852	 0.999873	 5
1461766130.788	 21	 -0.000418	 -0.000072	 0.001469	 0.000844	 -0.002731	 0.031720	 -0.001372	 0.000400	 0.015859	 0.999873	 5
1461766130.798	 21	 0.000657	 -0.000059	 0.003591	 0.000854	 -0.002739	 0.031746	 -0.001376	 0.000405	 0.015872	 0.999873	 5
1461766130.808	 21	 0.000648	 -0.001131	 0.002516	 0.000836	 -0.002737	 0.031771	 -0.001375	 0.000396	 0.015884	 0.999873	 5
1461766130.818	 21	 0.000653	 -0.000067	 0.002525	 0.000823	 -0.002750	 0.031791	 -0.001382	 0.000390	 0.015894	 0.999873	 5
1461766130.828	 21	 0.000647	 -0.000080	 0.000349	 0.000828	 -0.002740	 0.031805	 -0.001376	 0.000392	 0.015901	 0.999873	 5
1461766130.838	 21	 0.000646	 -0.001136	 0.001405	 0.000818	 -0.002742	 0.031814	 -0.001378	 0.000387	 0.015906	 0.999872	 5
1461766130.848	 21	 -0.001484	 -0.000066	 0.001434	 0.000819	 -0.002740	 0.031828	 -0.001376	 0.000388	 0.015913	 0.999872	 5
1461766130.858	 21	 0.000651	 -0.000073	 0.001415	 0.000851	 -0.002732	 0.031842	 -0.001373	 0.000404	 0.015920	 0.999872	 5
1461766130.868	 21	 0.000655	 -0.000065	 0.002481	 0.000851	 -0.002725	 0.031862	 -0.001369	 0.000404	 0.015930	 0.999872	 5
1461766130.878	 21	 0.000646	 -0.000081	 0.000349	 0.000850	 -0.002733	 0.031865	 -0.001373	 0.000403	 0.015931	 0.999872	 5
1461766130.888	 21	 0.000655	 -0.000065	 0.002481	 0.000880	 -0.002729	 0.031885	 -0.001371	 0.000418	 0.015941	 0.999872	 5
1461766130.898	 21	 0.000655	 0.000991	 0.001425	 0.000925	 -0.002766	 0.031905	 -0.001390	 0.000440	 0.015951	 0.999872	 5
1461766130.908	 21	 -0.000413	 -0.000062	 0.002490	 0.000943	 -0.002747	 0.031924	 -0.001381	 0.000450	 0.015961	 0.999872	 5
1461766130.918	 21	 0.000649	 -0.001129	 0.002471	 0.000947	 -0.002747	 0.031949	 -0.001381	 0.000452	 0.015973	 0.999871	 5
1461766130.928	 21	 0.000659	 0.000999	 0.002491	 0.000968	 -0.002732	 0.031969	 -0.001374	 0.000462	 0.015983	 0.999871	 5
1461766130.938	 21	 0.000651	 0.000983	 0.000359	 0.000959	 -0.002735	 0.031983	 -0.001375	 0.000457	 0.015990	 0.999871	 5
1461766130.948	 21	 0.000659	 0.000999	 0.002491	 0.000956	 -0.002738	 0.031992	 -0.001376	 0.000456	 0.015994	 0.999871	 5
1461766130.958	 21	 0.000654	 -0.000065	 0.002481	 0.000971	 -0.002738	 0.032017	 -0.001377	 0.000463	 0.016007	 0.999871	 5
1461766130.968	 21	 0.001717	 -0.000076	 0.001406	 0.000968	 -0.002733	 0.032025	 -0.001374	 0.000462	 0.016011	 0.999871	 5
1461766130.978	 21	 -0.000420	 -0.001131	 0.001373	 0.000964	 -0.002724	 0.032034	 -0.001369	 0.000460	 0.016016	 0.999871	 5
1461766130.988	 21	 -0.000415	 -0.000067	 0.001383	 0.000982	 -0.002718	 0.032053	 -0.001367	 0.000469	 0.016025	 0.999871	 5
1461766130.998	 21	 0.000661	 0.001001	 0.002449	 0.000995	 -0.002737	 0.032072	 -0.001377	 0.000475	 0.016035	 0.999870	 5
1461766131.008	 21	 0.000656	 -0.000063	 0.002439	 0.001004	 -0.002734	 0.032097	 -0.001375	 0.000480	 0.016047	 0.999870	 5
1461766131.018	 21	 -0.000411	 -0.000060	 0.002449	 0.001011	 -0.002714	 0.032116	 -0.001365	 0.000484	 0.016057	 0.999870	 5
1461766131.028	 21	 0.000652	 0.000985	 0.000318	 0.000995	 -0.002702	 0.032119	 -0.001359	 0.000476	 0.016058	 0.999870	 5
1461766131.038	 21	 -0.000416	 -0.000068	 0.001383	 0.000991	 -0.002698	 0.032138	 -0.001357	 0.000474	 0.016068	 0.999870	 5
1461766131.048	 21	 0.000651	 -0.000071	 0.001374	 0.001008	 -0.002690	 0.032152	 -0.001353	 0.000482	 0.016075	 0.999870	 5
1461766131.058	 21	 0.000656	 -0.000063	 0.002439	 0.001037	 -0.002659	 0.032177	 -0.001338	 0.000497	 0.016087	 0.999870	 5
