% Gyrometer data recorded with 'snsrlog'
% 
% 
% Label description:
% 	 0: Default Label
% 	 1: still_drop
% 	 2: walk_drop
% 	 3: other
% 	 4: dtw_same
% 	 5: dtw_diff
% 	 6: delete
% 
% Column description:
% 	 1: Seconds.milliseconds since 1970
% 	 2: Number of skipped measurements
% 	 3: Gyro X
% 	 4: Gyro Y
% 	 5: Gyro Z
% 	 6: Roll of the device
% 	 7: Pitch of the device
% 	 8: Yaw of the device
% 	 9: Quaternion X
% 	 10: Quaternion Y
% 	 11: Quaternion Z
% 	 12: Quaternion W
% 	 13: Label used for the current sample
% 
% 
1462069004.737	 0	 0.006930	 0.617263	 -0.810771	 0.296957	 0.851027	 -0.164767	 0.417950	 0.100690	 -0.013269	 0.902775	 1
1462069004.747	 0	 -0.047747	 0.664418	 -0.930287	 0.313121	 0.847999	 -0.177620	 0.417381	 0.105512	 -0.015956	 0.902444	 1
1462069004.757	 0	 -0.144029	 0.719105	 -1.054700	 0.330723	 0.843644	 -0.191698	 0.416357	 0.110842	 -0.019037	 0.902218	 1
1462069004.767	 0	 -0.283054	 0.752723	 -1.168279	 0.349271	 0.837509	 -0.206583	 0.414671	 0.116602	 -0.022492	 0.902190	 1
1462069004.777	 0	 -0.442317	 0.762216	 -1.243539	 0.367988	 0.829437	 -0.221591	 0.412217	 0.122621	 -0.026221	 0.902415	 1
1462069004.787	 0	 -0.602304	 0.793426	 -1.257842	 0.386224	 0.819578	 -0.235769	 0.408999	 0.128815	 -0.029938	 0.902901	 1
1462069004.797	 0	 -0.741652	 0.854759	 -1.216624	 0.403724	 0.808312	 -0.248313	 0.405121	 0.135213	 -0.033313	 0.903596	 1
1462069004.807	 0	 -0.847794	 0.934145	 -1.165937	 0.420595	 0.796075	 -0.259093	 0.400753	 0.141849	 -0.036226	 0.904413	 1
1462069004.827	 1	 -1.028618	 1.249823	 -1.121992	 0.455208	 0.769074	 -0.276570	 0.390799	 0.156793	 -0.040645	 0.906113	 1
1462069004.837	 1	 -1.086504	 1.415961	 -1.115679	 0.473954	 0.754467	 -0.283720	 0.385317	 0.165442	 -0.042163	 0.906853	 1
1462069004.847	 1	 -1.152408	 1.509422	 -1.161129	 0.493303	 0.739139	 -0.290362	 0.379535	 0.174602	 -0.043555	 0.907508	 1
1462069004.857	 1	 -1.280117	 1.658062	 -1.249223	 0.513777	 0.722306	 -0.296723	 0.373137	 0.184553	 -0.044953	 0.908123	 1
1462069004.867	 1	 -1.412502	 1.713182	 -1.328556	 0.534644	 0.703822	 -0.302590	 0.366024	 0.195022	 -0.046447	 0.908755	 1
1462069004.877	 1	 -1.565033	 1.775979	 -1.384194	 0.555397	 0.683666	 -0.307566	 0.358131	 0.205853	 -0.047974	 0.909431	 1
1462069004.887	 1	 -1.694715	 1.913319	 -1.418023	 0.576495	 0.662049	 -0.311372	 0.349520	 0.217271	 -0.049315	 0.910053	 1
1462069004.897	 1	 -1.744946	 2.114567	 -1.407187	 0.598704	 0.639752	 -0.314036	 0.340544	 0.229513	 -0.050249	 0.910400	 1
1462069004.907	 1	 -1.716695	 2.438959	 -1.396954	 0.623302	 0.617598	 -0.315943	 0.331629	 0.242982	 -0.050625	 0.910175	 1
1462069004.917	 1	 -1.679515	 2.876868	 -1.423044	 0.651868	 0.595622	 -0.317572	 0.322883	 0.258294	 -0.050429	 0.909114	 1
1462069004.927	 1	 -1.717259	 3.280847	 -1.464784	 0.684302	 0.573265	 -0.318618	 0.314016	 0.275500	 -0.049687	 0.907207	 1
1462069004.947	 2	 -1.980671	 3.629760	 -1.564758	 0.754361	 0.524845	 -0.316615	 0.294243	 0.313222	 -0.047198	 0.901713	 1
1462069004.957	 2	 -2.119247	 3.723245	 -1.636219	 0.789715	 0.498561	 -0.313268	 0.283088	 0.332699	 -0.045799	 0.898373	 1
1462069004.967	 2	 -2.136770	 3.820379	 -1.595730	 0.825344	 0.472097	 -0.308353	 0.271570	 0.352413	 -0.044094	 0.894489	 1
1462069004.977	 2	 -1.968469	 3.926707	 -1.532260	 0.861936	 0.447117	 -0.302973	 0.260595	 0.372292	 -0.042142	 0.889782	 1
1462069004.987	 2	 -1.700784	 4.106809	 -1.522257	 0.900643	 0.424118	 -0.298605	 0.250676	 0.392585	 -0.040329	 0.883975	 1
1462069004.997	 2	 -1.433982	 4.339973	 -1.528805	 0.942273	 0.402886	 -0.295673	 0.241847	 0.413609	 -0.038770	 0.876889	 1
1462069005.007	 2	 -1.264410	 4.558444	 -1.547432	 0.986539	 0.382842	 -0.293626	 0.233774	 0.435345	 -0.037376	 0.868578	 1
1462069005.017	 2	 -1.253358	 4.723603	 -1.648305	 1.032636	 0.362516	 -0.291539	 0.225640	 0.457673	 -0.036199	 0.859251	 1
1462069005.027	 2	 -1.355209	 4.738865	 -1.784759	 1.079029	 0.340752	 -0.288432	 0.216720	 0.480119	 -0.035319	 0.849276	 1
1462069005.037	 2	 -1.486498	 4.591743	 -1.885167	 1.123829	 0.317567	 -0.283627	 0.206820	 0.501912	 -0.034701	 0.839110	 1
1462069005.047	 2	 -1.583907	 4.371273	 -1.966302	 1.166167	 0.293404	 -0.277131	 0.196087	 0.522611	 -0.034349	 0.829004	 1
1462069005.057	 2	 -1.640122	 4.083473	 -2.075067	 1.205618	 0.268332	 -0.269413	 0.184647	 0.541975	 -0.034483	 0.819133	 1
1462069005.067	 2	 -1.647423	 3.759362	 -2.184596	 1.241882	 0.242418	 -0.260967	 0.172651	 0.559827	 -0.035300	 0.809654	 1
1462069005.077	 2	 -1.577154	 3.483191	 -2.246353	 1.275366	 0.216255	 -0.252370	 0.160505	 0.576240	 -0.036792	 0.800520	 1
1462069005.087	 2	 -1.437161	 3.348330	 -2.306378	 1.307461	 0.190189	 -0.244334	 0.148589	 0.591707	 -0.038986	 0.791381	 1
1462069005.097	 2	 -1.262072	 3.453400	 -2.413501	 1.340320	 0.163889	 -0.237385	 0.137000	 0.607076	 -0.042010	 0.781617	 1
1462069005.107	 2	 -1.076476	 3.784686	 -2.562307	 1.376369	 0.136838	 -0.231666	 0.125685	 0.623301	 -0.045930	 0.770448	 1
1462069005.117	 2	 -0.855058	 4.247722	 -2.715527	 1.417064	 0.108873	 -0.227286	 0.114729	 0.640880	 -0.050801	 0.757317	 1
1462069005.127	 2	 -0.602234	 4.812732	 -2.874467	 1.463468	 0.079909	 -0.224364	 0.104271	 0.660104	 -0.056703	 0.741738	 1
1462069005.137	 2	 -0.385536	 5.190602	 -3.040162	 1.514518	 0.049673	 -0.222477	 0.094168	 0.680472	 -0.063694	 0.723901	 1
1462069005.147	 2	 -0.249547	 5.174336	 -3.174718	 1.566496	 0.018155	 -0.220633	 0.084070	 0.700559	 -0.071645	 0.704994	 1
1462069005.157	 2	 -0.192615	 4.833532	 -3.213555	 1.615809	 -0.013924	 -0.217949	 0.073831	 0.719059	 -0.080155	 0.686352	 1
1462069005.167	 2	 -0.104787	 4.128915	 -3.101511	 1.659211	 -0.045131	 -0.214521	 0.063804	 0.734870	 -0.088810	 0.669334	 1
1462069005.177	 2	 0.069960	 3.223674	 -2.899369	 1.693888	 -0.074518	 -0.211602	 0.054538	 0.747158	 -0.097644	 0.655168	 1
1462069005.187	 2	 0.315825	 2.450225	 -2.681700	 1.720262	 -0.101934	 -0.210344	 0.046413	 0.756250	 -0.106792	 0.643838	 1
1462069005.197	 2	 0.653529	 1.998069	 -2.562022	 1.740965	 -0.128346	 -0.211806	 0.039563	 0.763160	 -0.116743	 0.634345	 1
1462069005.207	 2	 1.048124	 1.918415	 -2.533160	 1.759443	 -0.154983	 -0.216648	 0.034005	 0.769080	 -0.128003	 0.625279	 1
1462069005.217	 2	 1.376888	 1.960825	 -2.565469	 1.777681	 -0.182598	 -0.224526	 0.029504	 0.774679	 -0.140653	 0.615807	 1
1462069005.227	 2	 1.514818	 1.836645	 -2.620048	 1.794720	 -0.211203	 -0.233701	 0.025334	 0.779692	 -0.154138	 0.606367	 1
1462069005.237	 2	 1.538114	 1.503199	 -2.538093	 1.808679	 -0.239842	 -0.243032	 0.021182	 0.783583	 -0.167739	 0.597840	 1
1462069005.247	 2	 1.455780	 0.970796	 -2.214075	 1.817489	 -0.265725	 -0.252151	 0.017514	 0.785816	 -0.180273	 0.591344	 1
1462069005.257	 2	 1.332704	 0.579300	 -1.836169	 1.821759	 -0.287790	 -0.260938	 0.014558	 0.786670	 -0.191262	 0.586820	 1
1462069005.267	 2	 1.258610	 0.366557	 -1.429317	 1.823215	 -0.305799	 -0.269835	 0.012652	 0.786715	 -0.200723	 0.583635	 1
1462069005.277	 2	 1.270589	 0.323552	 -1.048278	 1.823450	 -0.319976	 -0.279689	 0.012184	 0.786444	 -0.208982	 0.581105	 1
1462069005.287	 2	 1.352938	 0.363532	 -0.782183	 1.823301	 -0.331440	 -0.291047	 0.013100	 0.786095	 -0.216621	 0.578757	 1
1462069005.297	 2	 1.477810	 0.470579	 -0.637330	 1.823385	 -0.341501	 -0.304116	 0.015143	 0.785818	 -0.224195	 0.576192	 1
1462069005.307	 2	 1.560813	 0.599438	 -0.581434	 1.824205	 -0.351112	 -0.318444	 0.017902	 0.785738	 -0.231924	 0.573155	 1
1462069005.317	 2	 1.531418	 0.638367	 -0.505147	 1.825527	 -0.360102	 -0.332987	 0.020998	 0.785793	 -0.239441	 0.569874	 1
1462069005.327	 2	 1.415261	 0.540938	 -0.347309	 1.826278	 -0.367557	 -0.346926	 0.024266	 0.785702	 -0.246183	 0.566990	 1
1462069005.337	 2	 1.247986	 0.390071	 -0.098934	 1.825870	 -0.372433	 -0.359888	 0.027801	 0.785326	 -0.251676	 0.564933	 1
1462069005.347	 2	 1.039356	 0.249296	 0.204249	 1.824430	 -0.373953	 -0.371597	 0.031745	 0.784718	 -0.255566	 0.563822	 1
1462069005.357	 2	 0.819013	 0.125474	 0.493837	 1.822262	 -0.372035	 -0.381825	 0.036071	 0.783964	 -0.257774	 0.563606	 1
1462069005.367	 2	 0.602836	 0.013054	 0.744061	 1.819539	 -0.367036	 -0.390455	 0.040649	 0.783098	 -0.258410	 0.564208	 1
1462069005.377	 2	 0.405907	 -0.058227	 0.955068	 1.816567	 -0.359376	 -0.397523	 0.045409	 0.782188	 -0.257639	 0.565457	 1
1462069005.387	 2	 0.265822	 -0.051127	 1.143928	 1.813947	 -0.349440	 -0.403430	 0.050469	 0.781382	 -0.255705	 0.567018	 1
1462069005.397	 2	 0.141847	 0.008837	 1.295838	 1.812165	 -0.337633	 -0.408416	 0.055863	 0.780799	 -0.252807	 0.568613	 1
1462069005.407	 2	 0.021326	 0.128303	 1.440811	 1.811806	 -0.324114	 -0.412491	 0.061613	 0.780597	 -0.248980	 0.569983	 1
1462069005.417	 2	 -0.101538	 0.223141	 1.562128	 1.812836	 -0.309075	 -0.415650	 0.067647	 0.780760	 -0.244278	 0.571109	 1
1462069005.427	 2	 -0.228689	 0.345377	 1.646436	 1.815365	 -0.292791	 -0.417717	 0.073811	 0.781325	 -0.238731	 0.571919	 1
1462069005.437	 2	 -0.326240	 0.427998	 1.706672	 1.819127	 -0.275655	 -0.418965	 0.080042	 0.782206	 -0.232555	 0.572420	 1
1462069005.447	 2	 -0.439030	 0.454236	 1.759054	 1.823520	 -0.257722	 -0.419356	 0.086225	 0.783235	 -0.225770	 0.572832	 1
1462069005.457	 2	 -0.549929	 0.451555	 1.784508	 1.828200	 -0.239174	 -0.418762	 0.092204	 0.784321	 -0.218415	 0.573265	 1
1462069005.467	 2	 -0.635548	 0.415507	 1.765734	 1.832783	 -0.220469	 -0.417342	 0.097855	 0.785360	 -0.210721	 0.573787	 1
1462069005.477	 2	 -0.729986	 0.350503	 1.710532	 1.836968	 -0.201957	 -0.414980	 0.102994	 0.786282	 -0.202804	 0.574477	 1
1462069005.487	 2	 -0.819472	 0.249988	 1.600602	 1.840408	 -0.184109	 -0.411544	 0.107396	 0.787016	 -0.194830	 0.575425	 1
1462069005.497	 2	 -0.866464	 0.121581	 1.475122	 1.842692	 -0.167329	 -0.407232	 0.110989	 0.787455	 -0.187039	 0.576726	 1
1462069005.507	 2	 -0.887330	 0.039377	 1.424448	 1.843997	 -0.151163	 -0.402525	 0.114129	 0.787619	 -0.179397	 0.578314	 1
1462069005.517	 2	 -0.828947	 -0.004595	 1.397952	 1.844706	 -0.135322	 -0.398069	 0.117203	 0.787576	 -0.171963	 0.580014	 1
1462069005.527	 2	 -0.664064	 -0.041888	 1.308777	 1.844772	 -0.120552	 -0.394850	 0.120379	 0.787278	 -0.165321	 0.581696	 1
1462069005.537	 2	 -0.529101	 -0.070730	 1.199692	 1.844378	 -0.107252	 -0.392779	 0.123524	 0.786801	 -0.159598	 0.583279	 1
1462069005.547	 2	 -0.502843	 -0.138006	 1.173259	 1.843343	 -0.094609	 -0.391092	 0.126571	 0.786111	 -0.154274	 0.584986	 1
1462069005.557	 2	 -0.581677	 -0.201850	 1.284190	 1.841669	 -0.081097	 -0.389071	 0.129701	 0.785190	 -0.148550	 0.587015	 1
1462069005.567	 2	 -0.607786	 -0.376668	 1.366986	 1.838595	 -0.066386	 -0.386815	 0.133003	 0.783788	 -0.142381	 0.589673	 1
1462069005.577	 2	 -0.723079	 -0.438616	 1.431359	 1.834364	 -0.050961	 -0.383945	 0.136214	 0.782010	 -0.135833	 0.592837	 1
1462069005.587	 2	 -0.899975	 -0.370150	 1.414353	 1.830736	 -0.034962	 -0.379337	 0.138981	 0.780459	 -0.128503	 0.595864	 1
1462069005.597	 2	 -1.036046	 -0.392877	 1.305552	 1.827135	 -0.019476	 -0.373000	 0.140943	 0.779026	 -0.120848	 0.598874	 1
1462069005.607	 2	 -1.058361	 -0.531661	 1.225589	 1.822283	 -0.004795	 -0.365887	 0.142312	 0.777283	 -0.113354	 0.602271	 1
1462069005.617	 2	 -1.064371	 -0.645697	 1.191542	 1.816045	 0.009427	 -0.358539	 0.143413	 0.775130	 -0.106059	 0.606101	 1
1462069005.627	 2	 -1.032549	 -0.680940	 1.184542	 1.809165	 0.023448	 -0.351221	 0.144475	 0.772757	 -0.098890	 0.610077	 1
1462069005.637	 2	 -0.889743	 -0.672220	 1.124763	 1.802191	 0.036727	 -0.344839	 0.145716	 0.770297	 -0.092299	 0.613914	 1
1462069005.647	 2	 -0.778651	 -0.594320	 1.058443	 1.795792	 0.048991	 -0.339442	 0.147095	 0.767971	 -0.086362	 0.617353	 1
1462069005.657	 2	 -0.614364	 -0.504218	 0.936354	 1.790233	 0.059951	 -0.335128	 0.148560	 0.765881	 -0.081204	 0.620291	 1
1462069005.667	 2	 -0.466828	 -0.340717	 0.808700	 1.786164	 0.069177	 -0.332067	 0.150056	 0.764252	 -0.076997	 0.622474	 1
1462069005.677	 2	 -0.377246	 -0.091345	 0.765478	 1.784417	 0.077578	 -0.329808	 0.151705	 0.763326	 -0.073185	 0.623669	 1
1462069005.687	 2	 -0.299213	 0.195313	 0.725901	 1.785502	 0.085458	 -0.328271	 0.153574	 0.763254	 -0.069582	 0.623712	 1
1462069005.697	 2	 -0.228598	 0.504231	 0.672742	 1.789668	 0.092683	 -0.327322	 0.155563	 0.764133	 -0.066173	 0.622513	 1
1462069005.707	 2	 -0.192492	 0.753546	 0.600144	 1.796745	 0.099175	 -0.326812	 0.157574	 0.765922	 -0.062946	 0.620139	 1
1462069005.717	 2	 -0.268005	 0.696407	 0.463852	 1.803822	 0.104610	 -0.325567	 0.158960	 0.767829	 -0.059888	 0.617724	 1
1462069005.727	 2	 -0.410081	 0.581796	 0.295632	 1.809605	 0.108775	 -0.322739	 0.159299	 0.769544	 -0.056933	 0.615780	 1
1462069005.737	 2	 -0.657767	 0.480219	 0.122058	 1.814081	 0.111768	 -0.317420	 0.158273	 0.771132	 -0.053773	 0.614340	 1
1462069005.747	 2	 -1.063264	 0.363524	 -0.000191	 1.816983	 0.114333	 -0.308163	 0.155545	 0.772570	 -0.049700	 0.613573	 1
1462069005.757	 2	 -1.512289	 0.268456	 -0.090953	 1.818281	 0.117092	 -0.294330	 0.151056	 0.773839	 -0.044275	 0.613511	 1
1462069005.767	 2	 -1.923661	 0.258185	 -0.206832	 1.818661	 0.119889	 -0.276085	 0.144838	 0.775119	 -0.037551	 0.613843	 1
1462069005.777	 2	 -2.275105	 0.341891	 -0.392699	 1.819064	 0.122021	 -0.253835	 0.136854	 0.776673	 -0.029855	 0.614133	 1
1462069005.787	 2	 -2.430898	 0.582796	 -0.675791	 1.821238	 0.122090	 -0.228845	 0.127184	 0.778985	 -0.022014	 0.613614	 1
1462069005.797	 2	 -2.454820	 0.692783	 -0.918619	 1.824854	 0.119852	 -0.202772	 0.116368	 0.781808	 -0.014684	 0.612388	 1
1462069005.807	 2	 -2.489161	 0.608348	 -1.135455	 1.828103	 0.115679	 -0.175890	 0.104602	 0.784504	 -0.007930	 0.611187	 1
1462069005.817	 2	 -2.575955	 0.480537	 -1.341581	 1.829983	 0.109693	 -0.147754	 0.091748	 0.786740	 -0.001613	 0.610426	 1
1462069005.827	 2	 -2.664098	 0.453280	 -1.468959	 1.831415	 0.102550	 -0.118333	 0.077999	 0.788720	 0.004594	 0.609768	 1
1462069005.837	 2	 -2.665936	 0.575091	 -1.539215	 1.833792	 0.094737	 -0.088456	 0.063828	 0.790778	 0.010682	 0.608672	 1
1462069005.847	 2	 -2.564663	 0.807470	 -1.574171	 1.838634	 0.086424	 -0.059195	 0.049692	 0.793322	 0.016409	 0.606549	 1
1462069005.857	 2	 -2.406828	 0.999617	 -1.560968	 1.846046	 0.077869	 -0.031236	 0.035929	 0.796361	 0.021620	 0.603366	 1
1462069005.867	 2	 -1.960615	 0.913143	 -1.424977	 1.853666	 0.069539	 -0.006999	 0.023667	 0.799161	 0.025700	 0.600100	 1
1462069005.877	 2	 -1.293745	 0.760200	 -1.272342	 1.860486	 0.061109	 0.010806	 0.013927	 0.801478	 0.027721	 0.597219	 1
1462069005.887	 2	 -0.590051	 0.634489	 -1.016396	 1.866521	 0.052869	 0.021285	 0.007183	 0.803406	 0.027570	 0.594749	 1
1462069005.897	 2	 -0.021070	 0.578147	 -0.636068	 1.872236	 0.046283	 0.024862	 0.003711	 0.805155	 0.026000	 0.592482	 1
1462069005.907	 2	 0.245592	 0.484162	 -0.288628	 1.877416	 0.042167	 0.024033	 0.002762	 0.806708	 0.024106	 0.590452	 1
1462069005.917	 2	 0.183638	 0.331336	 -0.121121	 1.881206	 0.040075	 0.022452	 0.002739	 0.807833	 0.022800	 0.588964	 1
1462069005.927	 2	 0.000232	 0.102431	 -0.080089	 1.882842	 0.039118	 0.022261	 0.002516	 0.808319	 0.022360	 0.588315	 1
1462069005.937	 2	 -0.133060	 -0.090845	 -0.092450	 1.882304	 0.038601	 0.023527	 0.001858	 0.808164	 0.022523	 0.588523	 1
1462069005.947	 2	 -0.191300	 -0.205672	 -0.110064	 1.880408	 0.038154	 0.025590	 0.000915	 0.807609	 0.022948	 0.589271	 1
1462069005.957	 2	 -0.162094	 -0.113304	 -0.121182	 1.878795	 0.037541	 0.027613	 -0.000064	 0.807136	 0.023297	 0.589905	 1
1462069005.967	 2	 -0.070437	 0.086393	 -0.120122	 1.879107	 0.036694	 0.028888	 -0.000832	 0.807231	 0.023331	 0.589774	 1
1462069005.977	 2	 0.040368	 0.318613	 -0.173280	 1.881664	 0.035162	 0.029253	 -0.001461	 0.807989	 0.022819	 0.588754	 1
1462069005.987	 2	 0.194792	 0.543079	 -0.251402	 1.886589	 0.032497	 0.028531	 -0.002007	 0.809444	 0.021525	 0.586799	 1
1462069005.997	 2	 0.429909	 0.700128	 -0.353235	 1.893333	 0.028239	 0.026063	 -0.002323	 0.811430	 0.019071	 0.584134	 1
1462069006.007	 2	 0.672598	 0.861557	 -0.434844	 1.901558	 0.022315	 0.021561	 -0.002291	 0.813840	 0.015344	 0.580882	 1
1462069006.017	 2	 0.805701	 1.340259	 -0.809894	 1.913886	 0.013509	 0.016581	 -0.002886	 0.817420	 0.010297	 0.575943	 1
1462069006.027	 2	 1.277093	 1.275243	 -1.077847	 1.927263	 -0.000425	 0.009531	 -0.004035	 0.821259	 0.002544	 0.570536	 1
1462069006.037	 2	 1.664415	 0.881728	 -0.625537	 1.936932	 -0.013198	 -0.002714	 -0.002620	 0.824004	 -0.006206	 0.566544	 1
1462069006.047	 2	 1.509069	 0.729062	 -0.327192	 1.944101	 -0.022277	 -0.016122	 0.000381	 0.826016	 -0.013743	 0.563480	 1
1462069006.057	 2	 1.120910	 0.898390	 -0.454391	 1.952381	 -0.030597	 -0.025857	 0.002139	 0.828314	 -0.019912	 0.559906	 1
1462069006.067	 2	 0.917600	 0.890609	 -0.582716	 1.961285	 -0.039337	 -0.032628	 0.002608	 0.830762	 -0.025415	 0.556041	 1
1462069006.077	 2	 0.883443	 0.459750	 -0.609875	 1.966939	 -0.048462	 -0.038432	 0.002567	 0.832285	 -0.030809	 0.553485	 1
1462069006.087	 2	 0.830565	 -0.097000	 -0.389664	 1.966968	 -0.055919	 -0.044550	 0.003046	 0.832246	 -0.035603	 0.553253	 1
1462069006.097	 2	 0.645981	 -0.494821	 -0.175409	 1.962603	 -0.060662	 -0.050167	 0.003984	 0.831001	 -0.039137	 0.554879	 1
1462069006.107	 2	 0.392983	 -0.863127	 -0.025295	 1.954694	 -0.062965	 -0.054161	 0.004840	 0.828779	 -0.041220	 0.558035	 1
1462069006.117	 2	 0.170857	 -1.245370	 0.122290	 1.942828	 -0.062882	 -0.056542	 0.005602	 0.825448	 -0.041884	 0.562895	 1
1462069006.127	 2	 0.118584	 -1.526563	 0.192601	 1.928046	 -0.061721	 -0.058276	 0.006335	 0.821265	 -0.041942	 0.568968	 1
1462069006.137	 2	 0.178851	 -1.541639	 0.337945	 1.912257	 -0.059462	 -0.060844	 0.007704	 0.816748	 -0.041808	 0.575427	 1
1462069006.147	 2	 0.186282	 -1.213072	 0.475224	 1.898950	 -0.055885	 -0.064091	 0.009787	 0.812896	 -0.041349	 0.580856	 1
1462069006.157	 2	 0.160825	 -0.780716	 0.538086	 1.889899	 -0.051419	 -0.067367	 0.012235	 0.810247	 -0.040544	 0.584557	 1
1462069006.167	 2	 0.122902	 -0.432949	 0.518205	 1.884651	 -0.046820	 -0.070289	 0.014662	 0.808690	 -0.039575	 0.586719	 1
1462069006.177	 2	 0.032748	 -0.248194	 0.438646	 1.881742	 -0.042606	 -0.072258	 0.016642	 0.807814	 -0.038475	 0.587945	 1
1462069006.187	 2	 -0.045577	 -0.286693	 0.378221	 1.879083	 -0.038814	 -0.073169	 0.018077	 0.807014	 -0.037237	 0.589079	 1
1462069006.197	 2	 -0.112406	 -0.431115	 0.382788	 1.875129	 -0.034921	 -0.073414	 0.019254	 0.805833	 -0.035778	 0.590748	 1
1462069006.207	 2	 -0.234369	 -0.506192	 0.394891	 1.869466	 -0.029257	 -0.072693	 0.020545	 0.804139	 -0.033344	 0.593150	 1
1462069006.217	 2	 -0.333694	 -0.517642	 0.389255	 1.864330	 -0.024580	 -0.070837	 0.021109	 0.802608	 -0.030968	 0.595329	 1
1462069006.227	 2	 -0.389018	 -0.432815	 0.330843	 1.859801	 -0.020172	 -0.068231	 0.021312	 0.801259	 -0.028473	 0.597260	 1
1462069006.237	 2	 -0.396220	 -0.314203	 0.257406	 1.856402	 -0.016384	 -0.065196	 0.021184	 0.800251	 -0.026085	 0.598723	 1
1462069006.247	 2	 -0.351300	 -0.181288	 0.123966	 1.854320	 -0.013812	 -0.062122	 0.020699	 0.799643	 -0.024158	 0.599633	 1
1462069006.257	 2	 -0.242732	 -0.134668	 -0.003371	 1.852930	 -0.012822	 -0.059594	 0.019969	 0.799245	 -0.023018	 0.600232	 1
1462069006.267	 2	 -0.163895	 -0.127760	 -0.045558	 1.851699	 -0.012718	 -0.057752	 0.019251	 0.798893	 -0.022436	 0.600747	 1
1462069006.277	 2	 -0.174477	 -0.121238	 -0.030485	 1.850454	 -0.012602	 -0.056069	 0.018600	 0.798534	 -0.021896	 0.601264	 1
1462069006.287	 2	 -0.255185	 -0.030630	 -0.039565	 1.851834	 -0.008469	 -0.053727	 0.018921	 0.798945	 -0.019528	 0.600789	 1
1462069006.297	 2	 -0.293268	 0.055503	 -0.057616	 1.852280	 -0.008175	 -0.050764	 0.017830	 0.799105	 -0.018517	 0.600642	 1
1462069006.307	 2	 -0.191046	 0.076939	 -0.140370	 1.853068	 -0.008620	 -0.048265	 0.016705	 0.799365	 -0.017938	 0.600345	 1
1462069006.317	 2	 0.001973	 0.004417	 -0.089438	 1.853326	 -0.009620	 -0.047489	 0.016097	 0.799454	 -0.018102	 0.600238	 1
1462069006.327	 2	 0.104802	 -0.053110	 0.073263	 1.859821	 -0.006375	 -0.048376	 0.017481	 0.801374	 -0.017015	 0.597666	 1
1462069006.337	 2	 0.049711	 -0.063818	 0.187679	 1.859111	 -0.004961	 -0.049541	 0.018365	 0.801142	 -0.016803	 0.597956	 1
1462069006.347	 2	 -0.050132	 0.036451	 0.187350	 1.859181	 -0.003050	 -0.049818	 0.019047	 0.801148	 -0.016120	 0.597945	 1
1462069006.357	 2	 -0.076174	 0.168441	 0.190937	 1.860562	 -0.001034	 -0.049632	 0.019586	 0.801549	 -0.015243	 0.597414	 1
1462069006.367	 2	 -0.015180	 0.303627	 0.074255	 1.870886	 -0.012960	 -0.049611	 0.016118	 0.804693	 -0.019933	 0.593138	 1
1462069006.377	 2	 -0.017890	 0.239319	 0.005472	 1.873381	 -0.012779	 -0.049520	 0.016160	 0.805432	 -0.019813	 0.592136	 1
1462069006.397	 3	 -0.115108	 0.275264	 -0.063688	 1.878716	 -0.013077	 -0.047936	 0.015486	 0.807023	 -0.019423	 0.589998	 1
1462069006.407	 3	 -0.200774	 0.215908	 -0.066663	 1.878995	 -0.011469	 -0.046042	 0.015199	 0.807112	 -0.018214	 0.589921	 1
1462069006.417	 3	 -0.285146	 0.159093	 -0.015301	 1.880726	 -0.010968	 -0.043406	 0.014297	 0.807640	 -0.017221	 0.589251	 1
1462069006.427	 3	 -0.315881	 0.128988	 0.074211	 1.882127	 -0.009520	 -0.040592	 0.013599	 0.808066	 -0.015798	 0.588723	 1
1462069006.437	 3	 -0.294479	 0.078416	 0.149223	 1.883080	 -0.007335	 -0.038130	 0.013254	 0.808354	 -0.014185	 0.588376	 1
1462069006.447	 3	 -0.260672	 -0.013098	 0.172601	 1.874806	 -0.007136	 -0.036162	 0.012461	 0.805925	 -0.013577	 0.591731	 1
1462069006.457	 3	 -0.263151	 -0.098077	 0.186752	 1.874012	 -0.004612	 -0.034230	 0.012425	 0.805692	 -0.011993	 0.592083	 1
1462069006.467	 3	 -0.293232	 -0.138423	 0.184507	 1.872752	 -0.001930	 -0.032064	 0.012340	 0.805321	 -0.010279	 0.592622	 1
1462069006.477	 3	 -0.280065	 -0.199850	 0.079376	 1.870908	 -0.000060	 -0.029642	 0.011911	 0.804780	 -0.008819	 0.593388	 1
1462069006.487	 3	 -0.254006	 -0.284340	 0.023969	 1.869804	 -0.001946	 -0.027251	 0.010384	 0.804474	 -0.008875	 0.593831	 1
1462069006.497	 3	 -0.270898	 -0.252324	 0.031874	 1.867103	 -0.000891	 -0.024802	 0.009702	 0.803680	 -0.007736	 0.594933	 1
1462069006.507	 3	 -0.242456	 -0.102462	 0.028758	 1.865665	 0.000144	 -0.022453	 0.009061	 0.803259	 -0.006628	 0.595524	 1
1462069006.517	 3	 -0.199693	 0.134642	 0.034855	 1.866282	 0.001041	 -0.020585	 0.008580	 0.803448	 -0.005709	 0.595286	 1
1462069006.527	 3	 -0.185609	 0.352067	 0.098528	 1.871935	 -0.000197	 -0.018953	 0.007572	 0.805138	 -0.005699	 0.593012	 1
1462069006.537	 3	 -0.060081	 0.288764	 0.073399	 1.875105	 0.000867	 -0.018278	 0.007623	 0.806076	 -0.005058	 0.591741	 1
1462069006.547	 3	 0.029086	 0.175862	 0.087559	 1.877066	 0.001600	 -0.018714	 0.008021	 0.806652	 -0.004884	 0.590952	 1
1462069006.557	 3	 0.022542	 0.147155	 0.086283	 1.878629	 0.002394	 -0.019191	 0.008452	 0.807109	 -0.004699	 0.590323	 1
1462069006.567	 3	 0.061780	 0.121293	 0.054777	 1.880663	 0.001781	 -0.019881	 0.008555	 0.807708	 -0.005141	 0.589498	 1
1462069006.577	 3	 0.028996	 0.198908	 0.037667	 1.882398	 0.002047	 -0.020416	 0.008853	 0.808216	 -0.005183	 0.588797	 1
1462069006.587	 3	 -0.015517	 0.277630	 0.021735	 1.885004	 0.002344	 -0.020438	 0.008956	 0.808981	 -0.005058	 0.587744	 1
1462069006.597	 3	 -0.058748	 0.415791	 -0.010707	 1.888830	 0.002402	 -0.019955	 0.008787	 0.810106	 -0.004876	 0.586197	 1
1462069006.607	 3	 -0.123308	 0.548713	 -0.033425	 1.890455	 0.000917	 -0.018850	 0.007908	 0.810592	 -0.005147	 0.585536	 1
1462069006.617	 3	 -0.031355	 0.383381	 -0.061343	 1.894853	 0.000582	 -0.018141	 0.007534	 0.811881	 -0.005059	 0.583753	 1
1462069006.627	 3	 -0.007719	 0.189743	 -0.060153	 1.897106	 0.000017	 -0.017910	 0.007281	 0.812540	 -0.005212	 0.582836	 1
1462069006.637	 3	 -0.086899	 0.168505	 -0.087371	 1.898791	 -0.000502	 -0.017048	 0.006784	 0.813035	 -0.005166	 0.582152	 1
1462069006.647	 3	 -0.167041	 0.201248	 -0.152460	 1.901369	 -0.002186	 -0.015211	 0.005554	 0.813794	 -0.005309	 0.581102	 1
1462069006.657	 3	 -0.251001	 0.340261	 -0.230368	 1.904360	 -0.003422	 -0.012366	 0.004045	 0.814671	 -0.004980	 0.579888	 1
1462069006.667	 3	 -0.322077	 0.453016	 -0.257475	 1.908857	 -0.004815	 -0.008509	 0.002080	 0.815980	 -0.004424	 0.578060	 1
1462069006.677	 3	 -0.232838	 0.272758	 -0.144827	 1.912204	 -0.005635	 -0.005469	 0.000609	 0.816948	 -0.003879	 0.576698	 1
1462069006.687	 3	 -0.193033	 0.034960	 -0.050332	 1.904697	 -0.003025	 -0.003439	 0.000524	 0.814779	 -0.002229	 0.579768	 1
1462069006.697	 3	 -0.203106	 -0.083964	 -0.026839	 1.904092	 -0.002655	 -0.001430	 -0.000188	 0.814603	 -0.001496	 0.580016	 1
1462069006.707	 3	 -0.221374	 -0.115774	 -0.020581	 1.902981	 -0.002145	 0.000679	 -0.000899	 0.814281	 -0.000676	 0.580470	 1
1462069006.717	 3	 -0.235232	 -0.108325	 -0.025720	 1.901892	 -0.001616	 0.002973	 -0.001679	 0.813964	 0.000206	 0.580913	 1
1462069006.727	 3	 -0.205444	 -0.138129	 -0.013458	 1.898983	 -0.000904	 0.005071	 -0.002325	 0.813116	 0.001108	 0.582096	 1
1462069006.737	 3	 -0.136411	 -0.215915	 -0.005191	 1.897033	 -0.000463	 0.006570	 -0.002804	 0.812547	 0.001726	 0.582887	 1
1462069006.747	 3	 -0.020546	 -0.306714	 -0.012374	 1.894197	 -0.000395	 0.007077	 -0.002988	 0.811719	 0.001906	 0.584038	 1
1462069006.757	 3	 0.060123	 -0.395264	 -0.017097	 1.890458	 -0.000690	 0.006721	 -0.002926	 0.810626	 0.001688	 0.585555	 1
1462069006.767	 3	 0.081352	 -0.416648	 -0.020691	 1.884968	 -0.002467	 0.006009	 -0.003156	 0.809014	 0.000768	 0.587780	 1
1462069006.777	 3	 0.031621	 -0.328205	 -0.018369	 1.881425	 -0.002803	 0.005630	 -0.003100	 0.807972	 0.000526	 0.589213	 1
1462069006.787	 3	 -0.043549	 -0.238322	 0.025752	 1.878844	 -0.002615	 0.005804	 -0.003115	 0.807211	 0.000658	 0.590255	 1
1462069006.797	 3	 -0.125337	 -0.217349	 0.098066	 1.876655	 -0.001539	 0.006577	 -0.003108	 0.806564	 0.001323	 0.591137	 1
1462069006.807	 3	 -0.152023	 -0.272120	 0.161750	 1.873703	 0.001343	 0.007567	 -0.002650	 0.805693	 0.002782	 0.592321	 1
1462069006.817	 3	 -0.117261	 -0.393260	 0.191227	 1.870126	 0.003482	 0.008245	 -0.002283	 0.804633	 0.003849	 0.593756	 1
1462069006.827	 3	 -0.058464	 -0.405898	 0.232162	 1.865669	 0.005822	 0.008277	 -0.001591	 0.803308	 0.004803	 0.595542	 1
1462069006.837	 3	 0.023299	 0.514061	 0.109988	 1.869008	 0.007303	 0.007824	 -0.000977	 0.804301	 0.005261	 0.594198	 1
1462069006.847	 3	 0.088105	 1.060222	 -0.075134	 1.873988	 0.010120	 0.007246	 0.000077	 0.805777	 0.006223	 0.592187	 1
1462069006.857	 3	 0.204330	 1.410684	 -0.247670	 1.887286	 0.007653	 0.006297	 -0.000304	 0.809698	 0.004946	 0.586825	 1
1462069006.867	 3	 0.455769	 1.668433	 -0.390273	 1.903564	 0.003040	 0.003837	 -0.000681	 0.814450	 0.002351	 0.580228	 1
1462069006.877	 3	 1.058213	 1.085065	 -0.363645	 1.916385	 -0.003531	 -0.003289	 0.000330	 0.818153	 -0.002390	 0.574996	 1
1462069006.887	 3	 1.560799	 0.107727	 -0.290789	 1.919739	 -0.011386	 -0.016025	 0.003298	 0.819103	 -0.009259	 0.573562	 1
1462069006.897	 3	 1.398107	 -0.495501	 -0.232105	 1.915850	 -0.018748	 -0.029118	 0.006517	 0.817956	 -0.016041	 0.575021	 1
1462069006.907	 3	 0.803086	 -0.578167	 -0.285245	 1.909748	 -0.024507	 -0.037252	 0.008124	 0.816170	 -0.020759	 0.577382	 1
1462069006.917	 3	 0.329180	 -0.418929	 -0.225283	 1.905146	 -0.028300	 -0.040461	 0.008284	 0.814827	 -0.023252	 0.579178	 1
1462069006.927	 3	 0.110972	 -0.428870	 -0.071072	 1.900939	 -0.029820	 -0.041583	 0.008250	 0.813602	 -0.024213	 0.580859	 1
1462069006.937	 3	 -0.054560	 -0.518238	 0.005207	 1.896004	 -0.029869	 -0.041436	 0.008116	 0.812167	 -0.024210	 0.582866	 1
1462069006.947	 3	 -0.200898	 -0.597142	 0.065430	 1.890250	 -0.028858	 -0.039982	 0.007753	 0.810493	 -0.023398	 0.585230	 1
1462069006.957	 3	 -0.256261	 -0.591473	 0.091543	 1.884330	 -0.027227	 -0.037920	 0.007329	 0.808765	 -0.022156	 0.587669	 1
1462069006.967	 3	 -0.216527	 -0.490960	 0.034581	 1.879170	 -0.026004	 -0.035847	 0.006797	 0.807253	 -0.021070	 0.589790	 1
1462069006.977	 3	 -0.085839	 -0.316455	 -0.049128	 1.875520	 -0.025896	 -0.034599	 0.006287	 0.806179	 -0.020670	 0.591277	 1
1462069006.987	 3	 0.032423	 -0.039993	 -0.158425	 1.874435	 -0.027177	 -0.034266	 0.005762	 0.805859	 -0.021091	 0.591704	 1
1462069006.997	 3	 0.119777	 0.198672	 -0.212384	 1.875876	 -0.029405	 -0.034601	 0.005254	 0.806283	 -0.022084	 0.591094	 1
1462069007.007	 3	 0.181228	 0.338816	 -0.222273	 1.878932	 -0.031994	 -0.035553	 0.004907	 0.807180	 -0.023401	 0.589821	 1
1462069007.017	 3	 0.209029	 0.366249	 -0.241443	 1.882537	 -0.034868	 -0.036771	 0.004596	 0.808235	 -0.024912	 0.588315	 1
1462069007.027	 3	 0.204559	 0.342699	 -0.264004	 1.886006	 -0.037974	 -0.037966	 0.004210	 0.809245	 -0.026510	 0.586857	 1
1462069007.037	 3	 0.162785	 0.299306	 -0.251255	 1.889075	 -0.040960	 -0.038825	 0.003723	 0.810136	 -0.027964	 0.585562	 1
1462069007.047	 3	 0.101706	 0.202017	 -0.198341	 1.891378	 -0.043372	 -0.039262	 0.003227	 0.810802	 -0.029065	 0.584589	 1
1462069007.057	 3	 0.036189	 0.027456	 -0.096016	 1.892097	 -0.044708	 -0.039369	 0.002890	 0.811008	 -0.029636	 0.584276	 1
1462069007.067	 3	 -0.024982	 -0.119563	 -0.007327	 1.891201	 -0.044913	 -0.039184	 0.002742	 0.810746	 -0.029667	 0.584640	 1
1462069007.077	 3	 -0.027084	 -0.132151	 0.016021	 1.889848	 -0.044694	 -0.038931	 0.002684	 0.810351	 -0.029506	 0.585195	 1
1462069007.087	 3	 0.030887	 -0.063154	 0.020421	 1.889012	 -0.044552	 -0.039117	 0.002788	 0.810107	 -0.029504	 0.585533	 1
1462069007.097	 3	 0.099588	 0.033335	 0.006866	 1.889049	 -0.044720	 -0.039947	 0.003076	 0.810116	 -0.029815	 0.585503	 1
1462069007.107	 3	 0.136643	 0.165214	 0.031287	 1.890285	 -0.044924	 -0.041250	 0.003562	 0.810475	 -0.030277	 0.584980	 1
1462069007.117	 3	 0.134592	 0.353956	 0.097006	 1.893265	 -0.044602	 -0.042785	 0.004324	 0.811343	 -0.030589	 0.583753	 1
1462069007.127	 3	 0.159174	 0.548861	 0.143368	 1.898197	 -0.043796	 -0.044639	 0.005388	 0.812778	 -0.030790	 0.581734	 1
1462069007.137	 3	 0.226029	 0.704929	 0.131449	 1.904763	 -0.043170	 -0.047057	 0.006655	 0.814678	 -0.031218	 0.579035	 1
1462069007.147	 3	 0.289127	 0.757716	 0.102615	 1.912222	 -0.043062	 -0.050027	 0.008016	 0.816821	 -0.032003	 0.575947	 1
1462069007.157	 3	 0.280763	 0.572637	 0.097773	 1.918401	 -0.042767	 -0.053076	 0.009447	 0.818583	 -0.032732	 0.573377	 1
1462069007.167	 3	 0.197145	 0.272862	 0.090403	 1.919681	 -0.041392	 -0.055565	 0.010882	 0.818938	 -0.032876	 0.572836	 1
1462069007.177	 3	 0.109474	 0.032570	 0.066549	 1.920483	 -0.041140	 -0.057030	 0.011568	 0.819160	 -0.033188	 0.572487	 1
1462069007.187	 3	 0.072465	 -0.089905	 0.029496	 1.919761	 -0.041047	 -0.057906	 0.011941	 0.818948	 -0.033405	 0.572770	 1
1462069007.197	 3	 0.058609	 -0.079289	 0.021189	 1.918905	 -0.041078	 -0.058535	 0.012175	 0.818699	 -0.033603	 0.573109	 1
1462069007.207	 3	 0.047219	 -0.019516	 0.038908	 1.922023	 -0.039497	 -0.059000	 0.012871	 0.819588	 -0.033070	 0.571853	 1
1462069007.217	 3	 0.030330	 0.016723	 0.042589	 1.922060	 -0.039208	 -0.059462	 0.013144	 0.819596	 -0.033083	 0.571835	 1
1462069007.227	 3	 0.030542	 0.083541	 0.016565	 1.922702	 -0.039079	 -0.059817	 0.013337	 0.819777	 -0.033128	 0.571569	 1
1462069007.237	 3	 0.042474	 0.142909	 -0.005367	 1.923978	 -0.039225	 -0.060182	 0.013465	 0.820139	 -0.033283	 0.571036	 1
1462069007.247	 3	 0.050017	 0.148306	 0.006337	 1.926673	 -0.039485	 -0.060606	 0.013610	 0.820905	 -0.033493	 0.569919	 1
1462069007.257	 3	 0.051925	 0.086731	 0.022799	 1.927699	 -0.039486	 -0.061161	 0.013855	 0.821193	 -0.033644	 0.569489	 1
1462069007.267	 3	 0.049350	 -0.013186	 0.030418	 1.927810	 -0.039412	 -0.061734	 0.014113	 0.821221	 -0.033776	 0.569435	 1
1462069007.277	 3	 0.039289	 -0.115215	 0.037017	 1.926877	 -0.039207	 -0.062248	 0.014367	 0.820951	 -0.033845	 0.569813	 1
1462069007.287	 3	 0.036832	 -0.166422	 0.016312	 1.924545	 -0.039248	 -0.062705	 0.014503	 0.820283	 -0.034009	 0.570761	 1
1462069007.297	 3	 0.041815	 -0.227183	 -0.000283	 1.922429	 -0.039355	 -0.063101	 0.014599	 0.819676	 -0.034181	 0.571620	 1
1462069007.307	 3	 0.047860	 -0.289011	 -0.016898	 1.919646	 -0.039631	 -0.063505	 0.014638	 0.818877	 -0.034430	 0.572748	 1
1462069007.317	 3	 0.052093	 -0.285926	 -0.029695	 1.916724	 -0.040072	 -0.063899	 0.014622	 0.818037	 -0.034745	 0.573929	 1
1462069007.327	 3	 0.046995	 -0.246453	 -0.016494	 1.914707	 -0.040342	 -0.064266	 0.014659	 0.817456	 -0.034975	 0.574742	 1
1462069007.337	 3	 0.033258	 -0.252493	 0.025134	 1.912219	 -0.040336	 -0.064667	 0.014781	 0.816737	 -0.035106	 0.575751	 1
1462069007.347	 3	 0.014941	 -0.321299	 0.063021	 1.909204	 -0.039883	 -0.065026	 0.015005	 0.815865	 -0.035048	 0.576984	 1
1462069007.357	 3	 0.009098	 -0.446633	 0.084287	 1.905064	 -0.039159	 -0.065389	 0.015290	 0.814665	 -0.034889	 0.578679	 1
1462069007.367	 3	 0.018101	 -0.563759	 0.072474	 1.898521	 -0.037598	 -0.065828	 0.015809	 0.812761	 -0.034433	 0.581363	 1
1462069007.377	 3	 0.031683	 -0.593853	 0.034774	 1.892590	 -0.037275	 -0.066244	 0.015970	 0.811030	 -0.034470	 0.583770	 1
1462069007.387	 3	 0.032822	 -0.576853	 0.032791	 1.886769	 -0.037102	 -0.066664	 0.016090	 0.809324	 -0.034569	 0.586124	 1
1462069007.397	 3	 0.011743	 -0.548895	 0.066274	 1.881177	 -0.036619	 -0.067021	 0.016281	 0.807678	 -0.034524	 0.588388	 1
1462069007.407	 3	 -0.026043	 -0.453770	 0.113335	 1.877043	 -0.034094	 -0.067136	 0.017002	 0.806452	 -0.033575	 0.590101	 1
1462069007.417	 3	 -0.054055	 -0.323584	 0.160618	 1.873493	 -0.032518	 -0.067130	 0.017406	 0.805398	 -0.032969	 0.591561	 1
1462069007.427	 3	 -0.065260	 -0.230841	 0.185025	 1.870991	 -0.030610	 -0.067055	 0.017901	 0.804651	 -0.032201	 0.592604	 1
1462069007.437	 3	 -0.055307	 -0.163804	 0.193023	 1.869177	 -0.028600	 -0.067062	 0.018472	 0.804105	 -0.031412	 0.593369	 1
1462069007.447	 3	 -0.028306	 -0.102122	 0.200823	 1.869029	 -0.026398	 -0.067268	 0.019207	 0.804050	 -0.030590	 0.593464	 1
1462069007.457	 3	 -0.017427	 -0.058544	 0.201134	 1.868343	 -0.024410	 -0.067679	 0.019952	 0.803832	 -0.029920	 0.593768	 1
1462069007.467	 3	 -0.023732	 -0.018275	 0.178117	 1.868057	 -0.022570	 -0.068023	 0.020633	 0.803734	 -0.029286	 0.593909	 1
1462069007.477	 3	 -0.053550	 0.022034	 0.145699	 1.870883	 -0.021674	 -0.067997	 0.020930	 0.804567	 -0.028889	 0.592789	 1
1462069007.487	 3	 -0.123243	 -0.003664	 0.093844	 1.870978	 -0.020322	 -0.067305	 0.021054	 0.804595	 -0.028139	 0.592783	 1
1462069007.497	 3	 -0.130824	 -0.171336	 -0.003569	 1.869748	 -0.019770	 -0.066115	 0.020722	 0.804239	 -0.027577	 0.593304	 1
1462069007.507	 3	 -0.131909	 -0.429545	 0.030274	 1.866162	 -0.019240	 -0.064895	 0.020340	 0.803184	 -0.027039	 0.594770	 1
1462069007.517	 3	 -0.127309	 -0.609135	 0.058409	 1.858366	 -0.018223	 -0.063850	 0.020120	 0.800864	 -0.026398	 0.597926	 1
1462069007.527	 3	 -0.128109	 -0.553813	 0.059996	 1.852550	 -0.017273	 -0.062803	 0.019911	 0.799126	 -0.025763	 0.600281	 1
1462069007.537	 3	 -0.123292	 -0.435783	 0.057855	 1.847982	 -0.016378	 -0.061737	 0.019696	 0.797758	 -0.025131	 0.602131	 1
1462069007.547	 3	 -0.102564	 -0.339065	 0.056443	 1.844335	 -0.015535	 -0.060881	 0.019564	 0.796662	 -0.024573	 0.603608	 1
1462069007.557	 3	 -0.092719	 -0.282778	 0.048319	 1.841755	 -0.017301	 -0.060088	 0.018682	 0.795901	 -0.025061	 0.604619	 1
1462069007.567	 3	 -0.054578	 -0.342443	 0.049563	 1.838521	 -0.016669	 -0.059570	 0.018627	 0.794924	 -0.024683	 0.605921	 1
1462069007.577	 3	 0.005009	 -0.395659	 0.068799	 1.834675	 -0.016027	 -0.059636	 0.018802	 0.793753	 -0.024484	 0.607457	 1
1462069007.587	 3	 0.046905	 -0.348882	 0.082724	 1.830987	 -0.015351	 -0.060225	 0.019195	 0.792621	 -0.024430	 0.608922	 1
1462069007.597	 3	 0.044204	 -0.231946	 0.068895	 1.830419	 -0.015953	 -0.060847	 0.019251	 0.792446	 -0.024863	 0.609131	 1
1462069007.607	 3	 0.039102	 -0.175617	 0.060937	 1.828560	 -0.015453	 -0.061377	 0.019591	 0.791871	 -0.024845	 0.609868	 1
1462069007.617	 3	 0.010509	 -0.121353	 0.052099	 1.827203	 -0.014982	 -0.061709	 0.019849	 0.791451	 -0.024773	 0.610408	 1
1462069007.627	 3	 -0.019137	 -0.066007	 0.045412	 1.826393	 -0.014500	 -0.061736	 0.019997	 0.791201	 -0.024599	 0.610734	 1
1462069007.637	 3	 -0.024345	 -0.059448	 0.070037	 1.824801	 -0.013539	 -0.061668	 0.020244	 0.790708	 -0.024214	 0.611379	 1
1462069007.647	 3	 -0.010443	 -0.110051	 0.137654	 1.823814	 -0.012352	 -0.061834	 0.020662	 0.790397	 -0.023806	 0.611784	 1
1462069007.657	 3	 0.002329	 -0.138623	 0.162855	 1.822444	 -0.010789	 -0.062250	 0.021289	 0.789962	 -0.023330	 0.612342	 1
1462069007.667	 3	 -0.010262	 -0.073871	 0.140121	 1.821533	 -0.009355	 -0.062528	 0.021827	 0.789669	 -0.022859	 0.612719	 1
1462069007.677	 3	 -0.018517	 0.005757	 0.116418	 1.821778	 -0.008314	 -0.062645	 0.022195	 0.789735	 -0.022482	 0.612635	 1
1462069007.687	 3	 -0.008687	 0.074682	 0.091395	 1.822365	 -0.007339	 -0.062773	 0.022551	 0.789905	 -0.022129	 0.612415	 1
1462069007.697	 3	 -0.001226	 0.095732	 0.063816	 1.823306	 -0.006649	 -0.062910	 0.022826	 0.790186	 -0.021888	 0.612051	 1
1462069007.707	 3	 -0.001277	 0.101967	 0.043625	 1.824277	 -0.006185	 -0.063045	 0.023032	 0.790477	 -0.021734	 0.611672	 1
1462069007.717	 3	 -0.002354	 0.116727	 0.023518	 1.826185	 -0.006138	 -0.063070	 0.023078	 0.791060	 -0.021702	 0.610918	 1
1462069007.727	 3	 0.004179	 0.181267	 -0.020701	 1.827865	 -0.006226	 -0.063051	 0.023061	 0.791574	 -0.021712	 0.610252	 1
1462069007.737	 3	 0.034174	 0.249930	 -0.073611	 1.830179	 -0.006873	 -0.063156	 0.022931	 0.792283	 -0.021973	 0.609326	 1
1462069007.747	 3	 0.057638	 0.305724	 -0.143637	 1.833124	 -0.008217	 -0.063322	 0.022620	 0.793189	 -0.022522	 0.608139	 1
1462069007.757	 3	 0.075621	 0.329648	 -0.212860	 1.837419	 -0.011167	 -0.063471	 0.021833	 0.794514	 -0.023691	 0.606391	 1
1462069007.767	 3	 0.074342	 0.347193	 -0.287289	 1.840870	 -0.013965	 -0.063495	 0.021036	 0.795579	 -0.024773	 0.604978	 1
1462069007.777	 3	 0.078248	 0.324380	 -0.351481	 1.844149	 -0.017414	 -0.063336	 0.019972	 0.796593	 -0.026063	 0.603623	 1
1462069007.787	 3	 0.074889	 0.324103	 -0.390887	 1.847428	 -0.021298	 -0.063007	 0.018713	 0.797607	 -0.027480	 0.602260	 1
1462069007.797	 3	 0.083186	 0.279354	 -0.397763	 1.850146	 -0.024874	 -0.062716	 0.017558	 0.798445	 -0.028794	 0.601123	 1
1462069007.807	 3	 0.076428	 0.186989	 -0.377248	 1.852283	 -0.028783	 -0.062419	 0.016296	 0.799105	 -0.030247	 0.600209	 1
1462069007.817	 3	 0.046214	 0.076804	 -0.330051	 1.853355	 -0.032242	 -0.061988	 0.015101	 0.799441	 -0.031490	 0.599728	 1
1462069007.827	 3	 0.007637	 -0.022494	 -0.251773	 1.853382	 -0.034911	 -0.061392	 0.014062	 0.799461	 -0.032377	 0.599680	 1
1462069007.837	 3	 -0.012655	 -0.099457	 -0.163845	 1.851551	 -0.036129	 -0.060834	 0.013443	 0.798918	 -0.032709	 0.600400	 1
1462069007.847	 3	 -0.015696	 -0.128682	 -0.088421	 1.850312	 -0.037100	 -0.060379	 0.012949	 0.798550	 -0.032968	 0.600885	 1
1462069007.857	 3	 -0.005769	 -0.095436	 -0.046633	 1.849249	 -0.037601	 -0.060141	 0.012686	 0.798233	 -0.033103	 0.601305	 1
1462069007.867	 3	 0.000991	 -0.028375	 -0.036476	 1.848799	 -0.037951	 -0.060034	 0.012530	 0.798099	 -0.033213	 0.601480	 1
1462069007.877	 3	 0.006544	 0.026837	 -0.047741	 1.849115	 -0.038792	 -0.059959	 0.012252	 0.798196	 -0.033524	 0.601340	 1
1462069007.887	 3	 0.007697	 0.055460	 -0.060274	 1.849614	 -0.039363	 -0.059881	 0.012057	 0.798347	 -0.033725	 0.601132	 1
1462069007.897	 3	 0.008799	 0.056575	 -0.052812	 1.850209	 -0.039935	 -0.059803	 0.011864	 0.798527	 -0.033926	 0.600885	 1
1462069007.907	 3	 0.004421	 0.002611	 -0.015975	 1.850400	 -0.040196	 -0.059791	 0.011784	 0.798584	 -0.034026	 0.600805	 1
1462069007.917	 3	 -0.010687	 -0.046169	 -0.000310	 1.849362	 -0.040238	 -0.059738	 0.011733	 0.798273	 -0.034033	 0.601219	 1
1462069007.927	 3	 -0.014971	 -0.053720	 0.004002	 1.848835	 -0.040163	 -0.059604	 0.011693	 0.798115	 -0.033966	 0.601433	 1
1462069007.937	 3	 -0.013909	 -0.054787	 0.003983	 1.848298	 -0.040085	 -0.059476	 0.011656	 0.797954	 -0.033899	 0.601651	 1
1462069007.947	 3	 -0.006438	 -0.052697	 0.001805	 1.847768	 -0.040047	 -0.059408	 0.011632	 0.797795	 -0.033867	 0.601864	 1
1462069007.957	 3	 0.001048	 -0.048466	 0.000713	 1.847774	 -0.040061	 -0.059376	 0.011615	 0.797797	 -0.033863	 0.601862	 1
1462069007.967	 3	 0.003212	 -0.043146	 0.001809	 1.847331	 -0.040046	 -0.059408	 0.011625	 0.797664	 -0.033869	 0.602039	 1
1462069007.977	 3	 0.006487	 -0.029313	 0.004041	 1.846987	 -0.040033	 -0.059473	 0.011648	 0.797560	 -0.033885	 0.602175	 1
1462069007.987	 3	 0.003412	 -0.009040	 0.011717	 1.846857	 -0.039942	 -0.059540	 0.011700	 0.797520	 -0.033870	 0.602227	 1
1462069007.997	 3	 -0.000900	 -0.011218	 0.003205	 1.846636	 -0.040135	 -0.059559	 0.011646	 0.797454	 -0.033954	 0.602312	 1
1462069008.007	 3	 -0.004192	 -0.022971	 -0.005402	 1.846440	 -0.040161	 -0.059514	 0.011617	 0.797395	 -0.033952	 0.602390	 1
1462069008.017	 3	 -0.003152	 -0.026188	 -0.008638	 1.846175	 -0.040227	 -0.059468	 0.011574	 0.797315	 -0.033966	 0.602495	 1
1462069008.027	 3	 0.001176	 -0.009221	 -0.013847	 1.846020	 -0.040347	 -0.059440	 0.011524	 0.797269	 -0.034006	 0.602555	 1
1462069008.037	 3	 0.001219	 0.003516	 -0.017991	 1.846319	 -0.040449	 -0.059391	 0.011479	 0.797359	 -0.034030	 0.602435	 1
1462069008.047	 3	 -0.003179	 0.012785	 -0.061563	 1.846411	 -0.040869	 -0.059257	 0.011300	 0.797388	 -0.034156	 0.602393	 1
1462069008.057	 3	 -0.005401	 0.029505	 -0.104024	 1.846936	 -0.042167	 -0.058943	 0.010793	 0.797549	 -0.034576	 0.602166	 1
1462069008.067	 3	 -0.009637	 0.038015	 -0.106045	 1.847581	 -0.043559	 -0.058552	 0.010228	 0.797745	 -0.035010	 0.601890	 1
1462069008.077	 3	 -0.012855	 0.031667	 -0.102882	 1.848060	 -0.044777	 -0.058147	 0.009708	 0.797892	 -0.035371	 0.601684	 1
1462069008.087	 3	 -0.014043	 0.012471	 -0.110511	 1.848339	 -0.045803	 -0.057723	 0.009235	 0.797977	 -0.035651	 0.601562	 1
1462069008.097	 3	 -0.010919	 0.005995	 -0.122322	 1.848477	 -0.046938	 -0.057286	 0.008721	 0.798020	 -0.035971	 0.601493	 1
1462069008.107	 3	 -0.008882	 0.014390	 -0.132863	 1.848791	 -0.048203	 -0.056829	 0.008163	 0.798115	 -0.036337	 0.601353	 1
1462069008.117	 3	 -0.008849	 0.030270	 -0.143374	 1.849246	 -0.049527	 -0.056347	 0.007580	 0.798252	 -0.036718	 0.601155	 1
1462069008.127	 3	 -0.004565	 0.046117	 -0.156047	 1.849820	 -0.050928	 -0.055871	 0.006979	 0.798424	 -0.037131	 0.600909	 1
1462069008.137	 3	 0.002866	 0.046025	 -0.165704	 1.850295	 -0.052455	 -0.055434	 0.006354	 0.798565	 -0.037608	 0.600698	 1
1462069008.147	 3	 0.001782	 0.035450	 -0.157265	 1.850452	 -0.053877	 -0.055026	 0.005766	 0.798610	 -0.038052	 0.600617	 1
1462069008.157	 3	 -0.000319	 0.012312	 -0.121222	 1.850126	 -0.054817	 -0.054699	 0.005346	 0.798511	 -0.038329	 0.600735	 1
1462069008.167	 3	 -0.006673	 -0.011839	 -0.079822	 1.849510	 -0.055322	 -0.054429	 0.005075	 0.798325	 -0.038451	 0.600976	 1
1462069008.177	 3	 -0.017342	 -0.041335	 -0.043764	 1.848568	 -0.055526	 -0.054182	 0.004897	 0.798042	 -0.038461	 0.601353	 1
1462069008.187	 3	 -0.020501	 -0.057068	 -0.014037	 1.847756	 -0.055363	 -0.053945	 0.004836	 0.797799	 -0.038327	 0.601685	 1
1462069008.197	 3	 -0.019309	 -0.049465	 0.008406	 1.847053	 -0.055131	 -0.053781	 0.004826	 0.797589	 -0.038186	 0.601973	 1
1462069008.207	 3	 -0.012771	 -0.021819	 0.009672	 1.846951	 -0.055023	 -0.053660	 0.004809	 0.797559	 -0.038107	 0.602017	 1
1462069008.217	 3	 -0.006308	 -0.004859	 0.004444	 1.846869	 -0.054950	 -0.053604	 0.004807	 0.797534	 -0.038061	 0.602053	 1
1462069008.227	 3	 -0.000968	 0.001461	 -0.001938	 1.846869	 -0.054953	 -0.053582	 0.004797	 0.797534	 -0.038056	 0.602053	 1
1462069008.237	 3	 -0.000950	 0.007820	 -0.005076	 1.846937	 -0.054989	 -0.053562	 0.004780	 0.797555	 -0.038064	 0.602025	 1
1462069008.247	 3	 -0.002007	 0.009950	 -0.005049	 1.847037	 -0.055173	 -0.053528	 0.004713	 0.797584	 -0.038127	 0.601983	 1
1462069008.257	 3	 -0.007352	 0.008895	 -0.006080	 1.847140	 -0.055352	 -0.053446	 0.004628	 0.797615	 -0.038173	 0.601940	 1
1462069008.267	 3	 -0.008440	 0.003587	 -0.005055	 1.847198	 -0.055506	 -0.053356	 0.004547	 0.797632	 -0.038208	 0.601916	 1
1462069008.277	 3	 -0.010604	 -0.002788	 -0.005097	 1.847222	 -0.055614	 -0.053243	 0.004470	 0.797639	 -0.038216	 0.601906	 1
1462069008.287	 3	 -0.012758	 -0.005981	 -0.006174	 1.847155	 -0.055687	 -0.053115	 0.004395	 0.797619	 -0.038207	 0.601934	 1
1462069008.297	 3	 -0.012793	 -0.013428	 -0.006244	 1.846963	 -0.055772	 -0.052978	 0.004311	 0.797561	 -0.038200	 0.602012	 1
1462069008.307	 3	 -0.012789	 -0.013421	 -0.005178	 1.846789	 -0.055819	 -0.052848	 0.004242	 0.797509	 -0.038180	 0.602083	 1
1462069008.317	 3	 -0.010634	 -0.009173	 -0.005158	 1.846656	 -0.055901	 -0.052723	 0.004165	 0.797469	 -0.038175	 0.602136	 1
1462069008.327	 3	 -0.010684	 -0.002789	 -0.005067	 1.846614	 -0.055999	 -0.052607	 0.004088	 0.797456	 -0.038179	 0.602154	 1
1462069008.337	 3	 -0.007471	 0.001441	 -0.007187	 1.846708	 -0.056029	 -0.052502	 0.004039	 0.797485	 -0.038160	 0.602118	 1
1462069008.347	 3	 -0.006403	 -0.002778	 -0.001906	 1.846733	 -0.056014	 -0.052425	 0.004014	 0.797493	 -0.038131	 0.602109	 1
1462069008.357	 3	 -0.007504	 -0.013381	 0.002268	 1.846618	 -0.055986	 -0.052357	 0.003993	 0.797458	 -0.038099	 0.602157	 1
1462069008.367	 3	 -0.006442	 -0.019721	 0.008594	 1.846315	 -0.055881	 -0.052324	 0.004005	 0.797367	 -0.038048	 0.602280	 1
1462069008.377	 3	 -0.003162	 -0.005879	 0.011892	 1.846257	 -0.055779	 -0.052303	 0.004027	 0.797350	 -0.038001	 0.602306	 1
1462069008.387	 3	 -0.002007	 0.009040	 0.016285	 1.846363	 -0.055498	 -0.052317	 0.004119	 0.797383	 -0.037893	 0.602269	 1
1462069008.397	 3	 -0.001006	 0.001536	 0.008746	 1.846313	 -0.055361	 -0.052343	 0.004170	 0.797368	 -0.037847	 0.602291	 1
1462069008.407	 3	 -0.004267	 -0.010164	 0.007601	 1.846115	 -0.055226	 -0.052330	 0.004201	 0.797309	 -0.037789	 0.602372	 1
1462069008.417	 3	 -0.003252	 -0.021861	 0.008550	 1.845818	 -0.055087	 -0.052324	 0.004235	 0.797220	 -0.037733	 0.602494	 1
1462069008.427	 3	 -0.000080	 -0.027196	 0.007407	 1.845570	 -0.054943	 -0.052334	 0.004278	 0.797146	 -0.037679	 0.602595	 1
1462069008.437	 3	 -0.000108	 -0.025138	 -0.002165	 1.845377	 -0.054907	 -0.052326	 0.004283	 0.797088	 -0.037663	 0.602673	 1
1462069008.447	 3	 0.004163	 -0.021982	 -0.005371	 1.845208	 -0.055007	 -0.052338	 0.004254	 0.797037	 -0.037707	 0.602738	 1
1462069008.457	 3	 0.002061	 -0.018753	 -0.001060	 1.845109	 -0.055077	 -0.052352	 0.004236	 0.797006	 -0.037739	 0.602776	 1
1462069008.467	 3	 0.002074	 -0.017673	 0.001081	 1.844965	 -0.055096	 -0.052367	 0.004234	 0.796963	 -0.037751	 0.602832	 1
1462069008.477	 3	 0.003123	 -0.019819	 -0.001080	 1.844769	 -0.055143	 -0.052391	 0.004225	 0.796904	 -0.037777	 0.602909	 1
1462069008.487	 3	 0.006220	 -0.022128	 -0.024576	 1.844458	 -0.055443	 -0.052400	 0.004133	 0.796809	 -0.037900	 0.603027	 1
1462069008.497	 3	 0.006088	 -0.023423	 -0.056564	 1.844273	 -0.056257	 -0.052317	 0.003850	 0.796751	 -0.038200	 0.603087	 1
1462069008.507	 3	 0.002973	 -0.023258	 -0.035221	 1.844075	 -0.056834	 -0.052233	 0.003638	 0.796689	 -0.038404	 0.603157	 1
1462069008.517	 3	 0.003037	 -0.028415	 -0.012888	 1.843736	 -0.056950	 -0.052223	 0.003593	 0.796587	 -0.038448	 0.603290	 1
1462069008.527	 3	 0.000915	 -0.033659	 -0.003326	 1.843311	 -0.056932	 -0.052228	 0.003592	 0.796458	 -0.038443	 0.603459	 1
1462069008.537	 3	 -0.002321	 -0.040041	 -0.004422	 1.842797	 -0.056938	 -0.052215	 0.003575	 0.796303	 -0.038442	 0.603664	 1
1462069008.547	 3	 -0.004509	 -0.048569	 -0.007679	 1.842191	 -0.056964	 -0.052166	 0.003536	 0.796121	 -0.038439	 0.603906	 1
1462069008.557	 3	 -0.005538	 -0.044281	 -0.003368	 1.841664	 -0.057019	 -0.052105	 0.003485	 0.795961	 -0.038443	 0.604116	 1
1462069008.567	 3	 -0.004376	 -0.035675	 0.010558	 1.841234	 -0.056895	 -0.052083	 0.003506	 0.795832	 -0.038388	 0.604290	 1
1462069008.577	 3	 -0.007501	 -0.024983	 0.017080	 1.840974	 -0.056632	 -0.052058	 0.003571	 0.795754	 -0.038277	 0.604399	 1
1462069008.587	 3	 -0.006466	 -0.027152	 0.011722	 1.840691	 -0.056472	 -0.052026	 0.003600	 0.795669	 -0.038204	 0.604515	 1
1462069008.597	 3	 -0.006521	 -0.038853	 0.011614	 1.840314	 -0.056328	 -0.051992	 0.003624	 0.795556	 -0.038137	 0.604668	 1
1462069008.607	 3	 -0.007599	 -0.040977	 0.011603	 1.839895	 -0.056235	 -0.051959	 0.003630	 0.795429	 -0.038091	 0.604837	 1
1462069008.617	 3	 -0.006493	 -0.029310	 0.007439	 1.839623	 -0.056155	 -0.051910	 0.003631	 0.795348	 -0.038045	 0.604948	 1
1462069008.627	 3	 -0.008577	 -0.019723	 0.008611	 1.839441	 -0.056137	 -0.051849	 0.003608	 0.795293	 -0.038020	 0.605022	 1
1462069008.637	 3	 -0.007493	 -0.014424	 0.006519	 1.839216	 -0.056102	 -0.051799	 0.003595	 0.795225	 -0.037991	 0.605113	 1
1462069008.647	 3	 -0.009626	 -0.012307	 0.004426	 1.839017	 -0.056028	 -0.051740	 0.003590	 0.795165	 -0.037944	 0.605194	 1
1462069008.657	 3	 -0.007495	 -0.011266	 0.002286	 1.838796	 -0.055909	 -0.051681	 0.003598	 0.795098	 -0.037879	 0.605286	 1
1462069008.667	 3	 -0.006417	 -0.008087	 0.001241	 1.838662	 -0.055840	 -0.051621	 0.003593	 0.795058	 -0.037834	 0.605341	 1
1462069008.677	 3	 -0.005367	 -0.007066	 -0.004087	 1.838490	 -0.055827	 -0.051565	 0.003571	 0.795007	 -0.037812	 0.605411	 1
1462069008.687	 3	 -0.002124	 0.002488	 -0.005092	 1.838405	 -0.055844	 -0.051531	 0.003551	 0.794981	 -0.037809	 0.605445	 1
1462069008.697	 3	 -0.001017	 0.009937	 -0.003967	 1.838389	 -0.055910	 -0.051510	 0.003522	 0.794976	 -0.037829	 0.605450	 1
1462069008.707	 3	 -0.001003	 0.011014	 -0.001825	 1.838364	 -0.055952	 -0.051497	 0.003504	 0.794968	 -0.037841	 0.605460	 1
1462069008.717	 3	 -0.000995	 0.011028	 0.000307	 1.838377	 -0.055926	 -0.051493	 0.003510	 0.794972	 -0.037830	 0.605455	 1
1462069008.727	 3	 -0.002078	 0.006784	 0.001343	 1.838388	 -0.055863	 -0.051477	 0.003523	 0.794975	 -0.037800	 0.605453	 1
1462069008.737	 3	 0.000030	 0.001459	 0.001276	 1.838395	 -0.055817	 -0.051482	 0.003539	 0.794978	 -0.037783	 0.605450	 1
1462069008.747	 3	 0.001082	 -0.001736	 0.001238	 1.838378	 -0.055737	 -0.051495	 0.003568	 0.794973	 -0.037755	 0.605458	 1
1462069008.757	 3	 0.004284	 -0.000690	 0.000154	 1.838308	 -0.055709	 -0.051538	 0.003593	 0.794952	 -0.037758	 0.605486	 1
1462069008.767	 3	 0.004278	 -0.002810	 0.001201	 1.838242	 -0.055683	 -0.051579	 0.003616	 0.794932	 -0.037760	 0.605512	 1
1462069008.777	 3	 0.002155	 0.000379	 0.000184	 1.838203	 -0.055634	 -0.051607	 0.003641	 0.794920	 -0.037749	 0.605528	 1
1462069008.787	 3	 0.001088	 0.001437	 -0.000863	 1.838148	 -0.055621	 -0.051624	 0.003650	 0.794903	 -0.037749	 0.605550	 1
1462069008.797	 3	 0.001102	 0.003571	 0.000223	 1.838098	 -0.055613	 -0.051637	 0.003657	 0.794888	 -0.037750	 0.605569	 1
1462069008.807	 3	 0.002180	 0.005694	 0.000233	 1.838089	 -0.055654	 -0.051662	 0.003655	 0.794885	 -0.037773	 0.605572	 1
1462069008.817	 3	 0.003263	 0.009937	 -0.000803	 1.838140	 -0.055687	 -0.051687	 0.003655	 0.794901	 -0.037794	 0.605550	 1
1462069008.827	 3	 0.004330	 0.009933	 -0.000812	 1.838190	 -0.055724	 -0.051732	 0.003663	 0.794916	 -0.037822	 0.605529	 1
1462069008.837	 3	 0.005295	 0.006793	 0.000310	 1.838176	 -0.055762	 -0.051789	 0.003674	 0.794911	 -0.037855	 0.605533	 1
1462069008.847	 3	 0.003152	 0.005727	 -0.000747	 1.838154	 -0.055753	 -0.051827	 0.003691	 0.794904	 -0.037863	 0.605541	 1
1462069008.857	 3	 0.005266	 0.002522	 -0.001861	 1.838190	 -0.055780	 -0.051857	 0.003696	 0.794915	 -0.037882	 0.605525	 1
1462069008.867	 3	 -0.000035	 0.008928	 -0.000690	 1.838346	 -0.055829	 -0.051860	 0.003685	 0.794962	 -0.037903	 0.605462	 1
1462069008.877	 3	 -0.000045	 0.006801	 -0.000709	 1.838399	 -0.055851	 -0.051882	 0.003688	 0.794978	 -0.037918	 0.605441	 1
1462069008.887	 3	 0.003171	 0.008926	 0.000348	 1.838407	 -0.055852	 -0.051914	 0.003701	 0.794980	 -0.037928	 0.605437	 1
1462069008.897	 3	 0.005259	 -0.000654	 0.000241	 1.838404	 -0.055874	 -0.051937	 0.003703	 0.794979	 -0.037944	 0.605437	 1
1462069008.907	 3	 0.002068	 0.001483	 0.000288	 1.838410	 -0.055886	 -0.051944	 0.003702	 0.794981	 -0.037950	 0.605434	 1
1462069008.917	 3	 0.002067	 0.000427	 0.001344	 1.838436	 -0.055861	 -0.051945	 0.003711	 0.794989	 -0.037941	 0.605425	 1
1462069008.927	 3	 0.004187	 -0.001715	 0.000240	 1.838423	 -0.055845	 -0.051973	 0.003726	 0.794985	 -0.037943	 0.605429	 1
1462069008.937	 3	 -0.000091	 -0.002773	 -0.000797	 1.838431	 -0.055786	 -0.051955	 0.003737	 0.794988	 -0.037914	 0.605428	 1
1462069008.947	 3	 0.000967	 -0.003848	 -0.001882	 1.838415	 -0.055742	 -0.051939	 0.003744	 0.794983	 -0.037892	 0.605435	 1
1462069008.957	 3	 -0.000096	 -0.002782	 -0.001862	 1.838380	 -0.055748	 -0.051920	 0.003734	 0.794973	 -0.037888	 0.605449	 1
1462069008.967	 3	 0.002007	 -0.010227	 -0.000884	 1.838258	 -0.055737	 -0.051913	 0.003732	 0.794936	 -0.037882	 0.605498	 1
1462069008.977	 3	 -0.001172	 -0.003852	 -0.002928	 1.838147	 -0.055699	 -0.051889	 0.003732	 0.794903	 -0.037860	 0.605543	 1
1462069008.987	 3	 -0.004353	 0.001467	 -0.003916	 1.838058	 -0.055696	 -0.051843	 0.003713	 0.794875	 -0.037845	 0.605580	 1
1462069008.997	 3	 -0.006518	 -0.004910	 -0.003956	 1.837972	 -0.055690	 -0.051774	 0.003686	 0.794850	 -0.037822	 0.605615	 1
1462069009.007	 3	 -0.005492	 -0.003804	 -0.004963	 1.837849	 -0.055712	 -0.051719	 0.003655	 0.794813	 -0.037814	 0.605665	 1
1462069009.017	 3	 -0.004409	 -0.000617	 -0.004943	 1.837760	 -0.055750	 -0.051668	 0.003621	 0.794785	 -0.037814	 0.605700	 1
1462069009.027	 3	 -0.003334	 -0.000606	 -0.002820	 1.837682	 -0.055773	 -0.051620	 0.003594	 0.794762	 -0.037809	 0.605732	 1
1462069009.037	 3	 -0.001201	 -0.002725	 -0.000727	 1.837603	 -0.055766	 -0.051595	 0.003585	 0.794738	 -0.037799	 0.605764	 1
1462069009.047	 3	 -0.001215	 -0.004861	 -0.001813	 1.837454	 -0.055814	 -0.051590	 0.003565	 0.794693	 -0.037817	 0.605822	 1
1462069009.057	 3	 -0.001181	 0.001528	 -0.000688	 1.837425	 -0.055821	 -0.051579	 0.003558	 0.794684	 -0.037816	 0.605834	 1
1462069009.067	 3	 -0.000089	 0.005787	 0.000408	 1.837457	 -0.055789	 -0.051579	 0.003569	 0.794694	 -0.037803	 0.605822	 1
1462069009.077	 3	 -0.000088	 0.007899	 -0.001703	 1.837485	 -0.055760	 -0.051577	 0.003577	 0.794702	 -0.037791	 0.605811	 1
1462069009.087	 3	 0.000989	 0.010022	 -0.001692	 1.837556	 -0.055702	 -0.051578	 0.003596	 0.794724	 -0.037768	 0.605784	 1
1462069009.097	 3	 0.002052	 0.010011	 -0.002766	 1.837603	 -0.055653	 -0.051593	 0.003618	 0.794738	 -0.037753	 0.605766	 1
1462069009.107	 3	 0.004176	 0.008932	 -0.003860	 1.837634	 -0.055638	 -0.051617	 0.003633	 0.794748	 -0.037755	 0.605754	 1
1462069009.117	 3	 0.004182	 0.011052	 -0.004905	 1.837701	 -0.055635	 -0.051653	 0.003650	 0.794768	 -0.037764	 0.605726	 1
1462069009.127	 3	 0.004180	 0.008939	 -0.002793	 1.837762	 -0.055638	 -0.051688	 0.003663	 0.794786	 -0.037776	 0.605702	 1
1462069009.137	 3	 0.003103	 0.006815	 -0.002803	 1.837785	 -0.055671	 -0.051713	 0.003664	 0.794793	 -0.037796	 0.605691	 1
1462069009.147	 3	 -0.000129	 0.000442	 -0.002835	 1.837762	 -0.055705	 -0.051713	 0.003653	 0.794786	 -0.037810	 0.605700	 1
1462069009.157	 3	 0.000901	 -0.002710	 -0.001599	 1.837672	 -0.055753	 -0.051711	 0.003636	 0.794759	 -0.037829	 0.605734	 1
1462069009.167	 3	 -0.002296	 -0.002693	 -0.000506	 1.837619	 -0.055791	 -0.051704	 0.003621	 0.794742	 -0.037841	 0.605755	 1
1462069009.177	 3	 -0.001216	 -0.001617	 0.001626	 1.837602	 -0.055774	 -0.051695	 0.003622	 0.794737	 -0.037832	 0.605762	 1
1462069009.187	 3	 0.001990	 -0.000563	 0.001608	 1.837578	 -0.055737	 -0.051713	 0.003640	 0.794730	 -0.037823	 0.605772	 1
1462069009.197	 3	 0.003084	 0.005808	 0.000592	 1.837605	 -0.055741	 -0.051745	 0.003652	 0.794738	 -0.037834	 0.605761	 1
1462069009.207	 3	 0.002007	 0.004739	 -0.000474	 1.837625	 -0.055738	 -0.051768	 0.003662	 0.794744	 -0.037840	 0.605753	 1
1462069009.217	 3	 -0.001199	 0.004740	 -0.001511	 1.837595	 -0.055710	 -0.051764	 0.003669	 0.794735	 -0.037827	 0.605765	 1
1462069009.227	 3	 -0.003339	 0.002627	 -0.000446	 1.837625	 -0.055629	 -0.051729	 0.003680	 0.794745	 -0.037785	 0.605755	 1
1462069009.237	 3	 -0.001196	 0.002636	 0.001668	 1.837639	 -0.055577	 -0.051711	 0.003689	 0.794749	 -0.037759	 0.605751	 1
1462069009.247	 3	 -0.002274	 0.000511	 0.001658	 1.837637	 -0.055506	 -0.051694	 0.003704	 0.794749	 -0.037726	 0.605754	 1
1462069009.257	 3	 -0.002288	 -0.001624	 0.000572	 1.837603	 -0.055473	 -0.051676	 0.003706	 0.794739	 -0.037707	 0.605768	 1
1462069009.267	 3	 -0.002297	 -0.001640	 -0.001559	 1.837529	 -0.055476	 -0.051656	 0.003696	 0.794716	 -0.037702	 0.605798	 1
1462069009.277	 3	 -0.001235	 -0.002708	 -0.001578	 1.837477	 -0.055477	 -0.051643	 0.003689	 0.794701	 -0.037699	 0.605819	 1
1462069009.287	 3	 -0.003345	 0.001561	 -0.000455	 1.837446	 -0.055477	 -0.051617	 0.003678	 0.794691	 -0.037691	 0.605831	 1
1462069009.297	 3	 -0.001210	 0.002610	 -0.001529	 1.837490	 -0.055471	 -0.051594	 0.003672	 0.794705	 -0.037682	 0.605815	 1
1462069009.307	 3	 -0.002293	 0.003777	 -0.002351	 1.837478	 -0.055488	 -0.051565	 0.003655	 0.794701	 -0.037679	 0.605819	 1
1462069009.317	 3	 -0.002288	 0.003784	 -0.001285	 1.837454	 -0.055532	 -0.051547	 0.003634	 0.794694	 -0.037692	 0.605828	 1
1462069009.327	 3	 -0.002280	 0.003799	 0.000846	 1.837491	 -0.055523	 -0.051526	 0.003629	 0.794705	 -0.037682	 0.605814	 1
1462069009.337	 3	 -0.001207	 0.005915	 -0.000209	 1.837501	 -0.055512	 -0.051517	 0.003629	 0.794708	 -0.037675	 0.605811	 1
1462069009.347	 3	 -0.002284	 0.004847	 -0.001275	 1.837493	 -0.055482	 -0.051507	 0.003634	 0.794706	 -0.037659	 0.605815	 1
1462069009.357	 3	 -0.000140	 0.005910	 -0.000217	 1.837424	 -0.055437	 -0.051506	 0.003646	 0.794685	 -0.037642	 0.605843	 1
1462069009.367	 3	 0.000939	 0.010145	 -0.002318	 1.837423	 -0.055373	 -0.051513	 0.003668	 0.794685	 -0.037618	 0.605844	 1
1462069009.377	 3	 0.002001	 0.010134	 -0.003392	 1.837478	 -0.055322	 -0.051521	 0.003688	 0.794702	 -0.037600	 0.605823	 1
1462069009.387	 3	 0.000933	 0.009081	 -0.002326	 1.837561	 -0.055256	 -0.051528	 0.003712	 0.794727	 -0.037576	 0.605791	 1
1462069009.397	 3	 -0.001226	 0.004824	 -0.003412	 1.837563	 -0.055215	 -0.051521	 0.003722	 0.794728	 -0.037558	 0.605791	 1
1462069009.407	 3	 -0.000151	 0.003780	 -0.000233	 1.837524	 -0.055206	 -0.051520	 0.003723	 0.794716	 -0.037554	 0.605807	 1
1462069009.417	 3	 -0.000171	 0.000580	 -0.001328	 1.837454	 -0.055142	 -0.051520	 0.003742	 0.794695	 -0.037528	 0.605836	 1
1462069009.427	 3	 -0.001219	 0.003781	 -0.000223	 1.837406	 -0.055128	 -0.051516	 0.003743	 0.794680	 -0.037522	 0.605856	 1
1462069009.437	 3	 -0.002291	 0.002720	 -0.000223	 1.837352	 -0.055080	 -0.051500	 0.003750	 0.794664	 -0.037498	 0.605878	 1
1462069009.447	 3	 -0.000137	 0.005912	 0.000853	 1.837384	 -0.055091	 -0.051506	 0.003750	 0.794674	 -0.037504	 0.605865	 1
1462069009.457	 3	 0.000936	 0.009084	 -0.001258	 1.837467	 -0.055081	 -0.051512	 0.003757	 0.794699	 -0.037502	 0.605832	 1
1462069009.467	 3	 0.004150	 0.012411	 0.001120	 1.837547	 -0.055087	 -0.051551	 0.003772	 0.794723	 -0.037516	 0.605800	 1
1462069009.477	 3	 0.005222	 0.013471	 0.001121	 1.837676	 -0.055025	 -0.051604	 0.003815	 0.794762	 -0.037507	 0.605749	 1
1462069009.487	 3	 0.004150	 0.012410	 0.001121	 1.837767	 -0.054985	 -0.051654	 0.003848	 0.794790	 -0.037506	 0.605712	 1
1462069009.497	 3	 0.000919	 0.007093	 0.000034	 1.837798	 -0.054940	 -0.051683	 0.003874	 0.794799	 -0.037497	 0.605700	 1
1462069009.507	 3	 -0.002299	 0.002855	 0.001089	 1.837773	 -0.054963	 -0.051676	 0.003863	 0.794792	 -0.037504	 0.605710	 1
1462069009.517	 3	 -0.004442	 0.001790	 0.000031	 1.837763	 -0.054966	 -0.051639	 0.003848	 0.794789	 -0.037494	 0.605714	 1
1462069009.527	 3	 -0.003364	 0.004970	 -0.001014	 1.837834	 -0.054974	 -0.051596	 0.003830	 0.794810	 -0.037484	 0.605687	 1
1462069009.537	 3	 -0.004426	 0.006037	 -0.000995	 1.837896	 -0.054940	 -0.051554	 0.003824	 0.794829	 -0.037458	 0.605664	 1
1462069009.547	 3	 -0.002291	 0.007086	 -0.002069	 1.837915	 -0.054885	 -0.051524	 0.003829	 0.794836	 -0.037427	 0.605658	 1
1462069009.557	 3	 -0.002307	 0.003895	 -0.002098	 1.837925	 -0.054840	 -0.051503	 0.003835	 0.794838	 -0.037403	 0.605655	 1
1462069009.567	 3	 0.000894	 0.002828	 -0.001069	 1.837884	 -0.054815	 -0.051499	 0.003840	 0.794826	 -0.037392	 0.605672	 1
1462069009.577	 3	 -0.002307	 0.003893	 -0.002097	 1.837853	 -0.054820	 -0.051475	 0.003829	 0.794817	 -0.037386	 0.605685	 1
1462069009.587	 3	 -0.001231	 0.004961	 -0.001031	 1.837823	 -0.054831	 -0.051463	 0.003820	 0.794808	 -0.037387	 0.605696	 1
1462069009.597	 3	 -0.000167	 0.006005	 -0.003162	 1.837819	 -0.054814	 -0.051459	 0.003824	 0.794807	 -0.037379	 0.605698	 1
1462069009.607	 3	 0.000918	 0.007088	 0.000037	 1.837846	 -0.054779	 -0.051468	 0.003838	 0.794815	 -0.037368	 0.605688	 1
1462069009.617	 3	 0.001984	 0.006028	 0.001084	 1.837822	 -0.054771	 -0.051493	 0.003850	 0.794808	 -0.037372	 0.605698	 1
1462069009.627	 3	 0.001970	 0.005076	 0.000226	 1.837786	 -0.054764	 -0.051516	 0.003861	 0.794797	 -0.037377	 0.605711	 1
1462069009.637	 3	 -0.000171	 0.002963	 0.001291	 1.837761	 -0.054741	 -0.051529	 0.003873	 0.794789	 -0.037372	 0.605722	 1
1462069009.647	 3	 -0.000161	 0.005089	 0.001311	 1.837758	 -0.054702	 -0.051539	 0.003888	 0.794788	 -0.037359	 0.605723	 1
1462069009.657	 3	 0.000906	 0.005086	 0.001302	 1.837753	 -0.054650	 -0.051559	 0.003912	 0.794787	 -0.037345	 0.605726	 1
1462069009.667	 3	 0.001959	 0.002947	 0.000208	 1.837781	 -0.054627	 -0.051578	 0.003927	 0.794795	 -0.037341	 0.605715	 1
1462069009.677	 3	 -0.000174	 0.005065	 -0.001885	 1.837764	 -0.054583	 -0.051581	 0.003941	 0.794791	 -0.037325	 0.605722	 1
1462069009.687	 3	 0.000882	 0.001878	 -0.000858	 1.837712	 -0.054542	 -0.051583	 0.003954	 0.794775	 -0.037309	 0.605744	 1
1462069009.697	 3	 -0.000185	 0.001880	 -0.000848	 1.837665	 -0.054485	 -0.051583	 0.003970	 0.794761	 -0.037286	 0.605764	 1
1462069009.707	 3	 -0.000185	 0.001880	 -0.000848	 1.837657	 -0.054486	 -0.051584	 0.003970	 0.794758	 -0.037287	 0.605767	 1
1462069009.717	 3	 -0.000190	 0.001872	 -0.001913	 1.837657	 -0.054493	 -0.051567	 0.003961	 0.794758	 -0.037285	 0.605767	 1
1462069009.727	 3	 0.001970	 0.007183	 -0.001883	 1.837703	 -0.054494	 -0.051582	 0.003968	 0.794772	 -0.037290	 0.605748	 1
1462069009.737	 3	 0.000912	 0.008257	 -0.000797	 1.837728	 -0.054480	 -0.051591	 0.003976	 0.794780	 -0.037286	 0.605738	 1
1462069009.747	 3	 0.001989	 0.010381	 -0.000787	 1.837775	 -0.054506	 -0.051599	 0.003972	 0.794794	 -0.037299	 0.605719	 1
1462069009.757	 3	 0.000912	 0.008256	 -0.000798	 1.837783	 -0.054525	 -0.051605	 0.003969	 0.794796	 -0.037309	 0.605715	 1
1462069009.767	 3	 -0.000152	 0.007210	 0.001334	 1.837771	 -0.054502	 -0.051621	 0.003982	 0.794793	 -0.037304	 0.605720	 1
1462069009.777	 3	 0.000897	 0.005064	 -0.000827	 1.837798	 -0.054453	 -0.051631	 0.004001	 0.794801	 -0.037288	 0.605710	 1
1462069009.787	 3	 0.001965	 0.004129	 0.001496	 1.837852	 -0.054393	 -0.051653	 0.004029	 0.794817	 -0.037271	 0.605690	 1
1462069009.797	 3	 0.001970	 0.005192	 0.001506	 1.837861	 -0.054395	 -0.051681	 0.004040	 0.794820	 -0.037280	 0.605685	 1
1462069009.807	 3	 0.001956	 0.003056	 0.000421	 1.837840	 -0.054362	 -0.051706	 0.004059	 0.794814	 -0.037274	 0.605694	 1
1462069009.817	 3	 0.001960	 0.003063	 0.001487	 1.837814	 -0.054352	 -0.051726	 0.004070	 0.794806	 -0.037277	 0.605704	 1
1462069009.827	 3	 0.001951	 0.001992	 0.000411	 1.837814	 -0.054332	 -0.051743	 0.004082	 0.794806	 -0.037274	 0.605704	 1
1462069009.837	 3	 -0.000183	 0.003053	 -0.000626	 1.837797	 -0.054295	 -0.051749	 0.004096	 0.794801	 -0.037261	 0.605711	 1
1462069009.847	 3	 -0.002326	 0.001988	 -0.001683	 1.837750	 -0.054282	 -0.051732	 0.004092	 0.794787	 -0.037251	 0.605730	 1
1462069009.857	 3	 -0.003400	 -0.001185	 0.000429	 1.837667	 -0.054278	 -0.051703	 0.004080	 0.794762	 -0.037241	 0.605764	 1
1462069009.867	 3	 -0.003395	 -0.000122	 0.000438	 1.837668	 -0.054289	 -0.051665	 0.004062	 0.794762	 -0.037233	 0.605764	 1
1462069009.877	 3	 -0.003385	 0.002005	 0.000458	 1.837682	 -0.054324	 -0.051639	 0.004041	 0.794766	 -0.037239	 0.605759	 1
1462069009.887	 3	 -0.001251	 0.001999	 0.000438	 1.837660	 -0.054407	 -0.051625	 0.004010	 0.794760	 -0.037268	 0.605766	 1
1462069009.897	 3	 -0.001220	 0.008381	 0.000497	 1.837730	 -0.054434	 -0.051619	 0.004001	 0.794781	 -0.037277	 0.605738	 1
1462069009.907	 3	 -0.001194	 0.014754	 -0.000510	 1.837797	 -0.054453	 -0.051604	 0.003990	 0.794801	 -0.037280	 0.605711	 1
1462069009.917	 3	 -0.003334	 0.013696	 -0.000501	 1.837862	 -0.054436	 -0.051580	 0.003987	 0.794821	 -0.037266	 0.605686	 1
1462069009.927	 3	 -0.004428	 0.006268	 0.001572	 1.837865	 -0.054342	 -0.051550	 0.004004	 0.794822	 -0.037219	 0.605687	 1
1462069009.937	 3	 -0.005543	 -0.000142	 -0.002740	 1.837768	 -0.054239	 -0.051501	 0.004014	 0.794793	 -0.037164	 0.605729	 1
1462069009.947	 3	 -0.005556	 -0.002170	 -0.003627	 1.837703	 -0.054181	 -0.051440	 0.004006	 0.794774	 -0.037122	 0.605757	 1
1462069009.957	 3	 -0.005552	 -0.002163	 -0.002561	 1.837617	 -0.054162	 -0.051382	 0.003987	 0.794747	 -0.037097	 0.605792	 1
1462069009.967	 3	 -0.001259	 0.002086	 -0.001493	 1.837588	 -0.054158	 -0.051354	 0.003977	 0.794739	 -0.037087	 0.605804	 1
1462069009.977	 3	 0.003033	 0.005280	 0.000630	 1.837612	 -0.054209	 -0.051373	 0.003969	 0.794746	 -0.037113	 0.605793	 1
1462069009.987	 3	 0.005173	 0.006336	 0.000621	 1.837609	 -0.054251	 -0.051423	 0.003976	 0.794745	 -0.037145	 0.605793	 1
1462069009.997	 3	 0.001971	 0.005289	 0.001705	 1.837557	 -0.054256	 -0.051464	 0.003990	 0.794729	 -0.037160	 0.605813	 1
1462069010.007	 3	 -0.000169	 0.003175	 0.002769	 1.837522	 -0.054271	 -0.051484	 0.003993	 0.794718	 -0.037172	 0.605826	 1
1462069010.017	 3	 -0.002313	 0.002109	 0.001713	 1.837382	 -0.054194	 -0.051480	 0.004012	 0.794676	 -0.037141	 0.605883	 1
1462069010.027	 3	 -0.004457	 0.001043	 0.000656	 1.837320	 -0.054160	 -0.051448	 0.004009	 0.794657	 -0.037117	 0.605909	 1
1462069010.037	 3	 -0.002313	 0.003163	 0.000658	 1.837251	 -0.054090	 -0.051433	 0.004022	 0.794637	 -0.037085	 0.605938	 1
1462069010.047	 3	 -0.000173	 0.005276	 -0.000407	 1.837255	 -0.054049	 -0.051427	 0.004033	 0.794638	 -0.037067	 0.605937	 1
1462069010.057	 3	 -0.000162	 0.007403	 -0.000387	 1.837302	 -0.054055	 -0.051431	 0.004033	 0.794652	 -0.037070	 0.605918	 1
1462069010.067	 3	 0.000894	 0.004216	 0.000640	 1.837315	 -0.054081	 -0.051447	 0.004032	 0.794656	 -0.037086	 0.605912	 1
1462069010.077	 3	 -0.001236	 0.004229	 0.001724	 1.837273	 -0.054061	 -0.051449	 0.004038	 0.794644	 -0.037078	 0.605929	 1
1462069010.086	 3	 -0.003381	 0.002108	 0.001723	 1.837243	 -0.054014	 -0.051440	 0.004048	 0.794635	 -0.037057	 0.605942	 1
1462069010.097	 3	 -0.004457	 0.001039	 0.000657	 1.837219	 -0.053938	 -0.051400	 0.004055	 0.794628	 -0.037015	 0.605954	 1
1462069010.107	 3	 -0.003382	 0.002150	 0.000826	 1.837186	 -0.053897	 -0.051367	 0.004054	 0.794618	 -0.036989	 0.605968	 1
1462069010.117	 3	 -0.004454	 0.002145	 -0.000230	 1.837170	 -0.053866	 -0.051324	 0.004045	 0.794613	 -0.036963	 0.605976	 1
1462069010.127	 3	 -0.004448	 0.004264	 -0.001277	 1.837190	 -0.053885	 -0.051280	 0.004023	 0.794619	 -0.036958	 0.605969	 1
1462069010.137	 3	 0.002997	 -0.001077	 -0.001391	 1.837171	 -0.053928	 -0.051292	 0.004014	 0.794613	 -0.036978	 0.605975	 1
1462069010.146	 3	 -0.003361	 0.008515	 -0.001246	 1.837231	 -0.053904	 -0.051266	 0.004012	 0.794632	 -0.036961	 0.605953	 1
1462069010.157	 3	 0.003020	 0.002128	 0.000770	 1.837202	 -0.053879	 -0.051286	 0.004027	 0.794623	 -0.036957	 0.605964	 1
1462069010.167	 3	 0.005154	 0.001066	 0.001807	 1.837226	 -0.053883	 -0.051330	 0.004044	 0.794630	 -0.036972	 0.605954	 1
1462069010.177	 3	 0.006227	 0.004238	 -0.000304	 1.837294	 -0.053876	 -0.051375	 0.004065	 0.794651	 -0.036983	 0.605926	 1
1462069010.187	 3	 0.001975	 0.008497	 -0.001293	 1.837304	 -0.053858	 -0.051412	 0.004085	 0.794654	 -0.036986	 0.605922	 1
1462069010.197	 3	 0.003037	 0.007430	 -0.001312	 1.837264	 -0.053886	 -0.051451	 0.004092	 0.794641	 -0.037010	 0.605936	 1
1462069010.207	 3	 0.000876	 0.001061	 -0.000286	 1.837230	 -0.053875	 -0.051453	 0.004095	 0.794631	 -0.037006	 0.605950	 1
1462069010.217	 3	 -0.001213	 0.009584	 0.000877	 1.837222	 -0.053887	 -0.051463	 0.004095	 0.794628	 -0.037014	 0.605953	 1
1462069010.227	 3	 -0.000177	 0.003198	 0.000808	 1.837206	 -0.053856	 -0.051470	 0.004107	 0.794624	 -0.037003	 0.605960	 1
1462069010.237	 3	 -0.005497	 0.006405	 0.000885	 1.837248	 -0.053787	 -0.051453	 0.004122	 0.794637	 -0.036971	 0.605944	 1
1462069010.247	 3	 -0.004445	 0.004266	 -0.000209	 1.837236	 -0.053734	 -0.051430	 0.004129	 0.794633	 -0.036943	 0.605951	 1
1462069010.257	 3	 -0.008739	 -0.001040	 -0.000221	 1.837226	 -0.053702	 -0.051347	 0.004105	 0.794631	 -0.036905	 0.605957	 1
1462069010.267	 3	 -0.004474	 -0.000005	 -0.002380	 1.837105	 -0.053649	 -0.051310	 0.004105	 0.794594	 -0.036873	 0.606006	 1
1462069010.277	 3	 -0.003417	 -0.002059	 -0.003304	 1.837037	 -0.053581	 -0.051250	 0.004100	 0.794574	 -0.036828	 0.606036	 1
1462069010.287	 3	 -0.004479	 -0.000993	 -0.003284	 1.836947	 -0.053523	 -0.051185	 0.004090	 0.794547	 -0.036785	 0.606074	 1
1462069010.297	 3	 -0.004457	 0.005373	 -0.005356	 1.836966	 -0.053537	 -0.051121	 0.004061	 0.794553	 -0.036772	 0.606067	 1
1462069010.307	 3	 -0.004441	 0.010676	 -0.007439	 1.837030	 -0.053605	 -0.051070	 0.004021	 0.794572	 -0.036783	 0.606041	 1
1462069010.317	 3	 0.000858	 0.001102	 -0.005442	 1.837025	 -0.053666	 -0.051039	 0.003990	 0.794570	 -0.036798	 0.606043	 1
1462069010.327	 3	 0.001965	 0.008551	 -0.004317	 1.837022	 -0.053759	 -0.051030	 0.003958	 0.794569	 -0.036832	 0.606042	 1
1462069010.336	 3	 -0.002294	 0.009635	 -0.003205	 1.837036	 -0.053827	 -0.051017	 0.003933	 0.794573	 -0.036855	 0.606036	 1
1462069010.346	 3	 -0.001246	 0.002216	 0.000980	 1.836991	 -0.053817	 -0.051014	 0.003934	 0.794560	 -0.036850	 0.606054	 1
1462069010.357	 3	 0.003008	 0.000067	 -0.000142	 1.836944	 -0.053806	 -0.051036	 0.003945	 0.794545	 -0.036853	 0.606073	 1
1462069010.366	 3	 0.001963	 0.006436	 -0.002205	 1.836886	 -0.053787	 -0.051062	 0.003960	 0.794528	 -0.036853	 0.606095	 1
1462069010.376	 3	 0.000902	 0.008558	 -0.003241	 1.836842	 -0.053719	 -0.051066	 0.003982	 0.794515	 -0.036828	 0.606114	 1
1462069010.387	 3	 -0.003382	 0.005379	 -0.003233	 1.836825	 -0.053705	 -0.051040	 0.003975	 0.794510	 -0.036814	 0.606122	 1
1462069010.397	 3	 -0.005531	 0.003249	 -0.004300	 1.836767	 -0.053708	 -0.050985	 0.003952	 0.794492	 -0.036799	 0.606146	 1
1462069010.407	 3	 -0.004483	 0.000047	 -0.005404	 1.836740	 -0.053705	 -0.050930	 0.003930	 0.794484	 -0.036781	 0.606157	 1
1462069010.417	 3	 -0.004480	 -0.001001	 -0.003282	 1.836712	 -0.053717	 -0.050878	 0.003905	 0.794476	 -0.036770	 0.606169	 1
1462069010.427	 3	 -0.004461	 0.002197	 -0.002187	 1.836692	 -0.053729	 -0.050829	 0.003882	 0.794470	 -0.036760	 0.606178	 1
1462069010.437	 3	 -0.001239	 0.006442	 -0.002176	 1.836713	 -0.053766	 -0.050803	 0.003861	 0.794476	 -0.036766	 0.606169	 1
1462069010.447	 3	 -0.001240	 0.005441	 -0.002043	 1.836684	 -0.053782	 -0.050794	 0.003852	 0.794467	 -0.036770	 0.606181	 1
1462069010.457	 3	 -0.000197	 0.002231	 -0.004213	 1.836629	 -0.053821	 -0.050788	 0.003836	 0.794450	 -0.036784	 0.606202	 1
1462069010.466	 3	 -0.001249	 0.005424	 -0.004174	 1.836620	 -0.053829	 -0.050773	 0.003828	 0.794448	 -0.036783	 0.606206	 1
1462069010.477	 3	 -0.004464	 0.004354	 -0.006287	 1.836597	 -0.053831	 -0.050718	 0.003805	 0.794441	 -0.036767	 0.606216	 1
1462069010.487	 3	 -0.005527	 0.003309	 -0.004156	 1.836585	 -0.053854	 -0.050660	 0.003775	 0.794437	 -0.036759	 0.606221	 1
1462069010.496	 3	 -0.002310	 0.007545	 -0.005211	 1.836591	 -0.053903	 -0.050612	 0.003741	 0.794439	 -0.036763	 0.606219	 1
1462069010.507	 3	 -0.003374	 0.006500	 -0.003080	 1.836606	 -0.053937	 -0.050573	 0.003715	 0.794444	 -0.036765	 0.606213	 1
1462069010.516	 3	 -0.001234	 0.008612	 -0.004144	 1.836619	 -0.053978	 -0.050538	 0.003689	 0.794447	 -0.036771	 0.606208	 1
1462069010.526	 3	 0.003046	 0.011782	 -0.005218	 1.836663	 -0.054009	 -0.050548	 0.003685	 0.794461	 -0.036786	 0.606189	 1
1462069010.537	 3	 0.003040	 0.009662	 -0.004171	 1.836701	 -0.054004	 -0.050570	 0.003696	 0.794472	 -0.036790	 0.606174	 1
1462069010.547	 3	 0.000894	 0.006485	 -0.003116	 1.836721	 -0.054005	 -0.050577	 0.003698	 0.794478	 -0.036793	 0.606166	 1
1462069010.557	 3	 -0.000187	 0.004352	 -0.004192	 1.836720	 -0.054031	 -0.050572	 0.003689	 0.794478	 -0.036802	 0.606166	 1
1462069010.567	 3	 -0.001259	 0.003292	 -0.004193	 1.836710	 -0.054053	 -0.050556	 0.003675	 0.794475	 -0.036805	 0.606170	 1
1462069010.576	 3	 -0.000192	 0.003288	 -0.004202	 1.836689	 -0.054087	 -0.050540	 0.003658	 0.794468	 -0.036814	 0.606178	 1
1462069010.586	 3	 -0.002323	 0.003335	 -0.004075	 1.836642	 -0.054082	 -0.050520	 0.003651	 0.794454	 -0.036806	 0.606197	 1
1462069010.597	 3	 -0.002347	 -0.000928	 -0.005180	 1.836562	 -0.054077	 -0.050484	 0.003637	 0.794430	 -0.036794	 0.606229	 1
1462069010.606	 3	 -0.003414	 -0.000925	 -0.005170	 1.836497	 -0.054104	 -0.050446	 0.003612	 0.794410	 -0.036793	 0.606256	 1
1462069010.616	 3	 -0.004490	 -0.000938	 -0.007293	 1.836457	 -0.054190	 -0.050378	 0.003558	 0.794398	 -0.036807	 0.606271	 1
1462069010.627	 3	 -0.005548	 0.000137	 -0.006208	 1.836410	 -0.054247	 -0.050311	 0.003513	 0.794384	 -0.036809	 0.606290	 1
1462069010.636	 3	 -0.003388	 0.005448	 -0.006177	 1.836390	 -0.054299	 -0.050264	 0.003479	 0.794378	 -0.036815	 0.606298	 1
1462069010.646	 3	 -0.001239	 0.008632	 -0.006166	 1.836449	 -0.054337	 -0.050232	 0.003456	 0.794395	 -0.036821	 0.606274	 1
1462069010.657	 3	 -0.002310	 0.008627	 -0.007223	 1.836472	 -0.054426	 -0.050202	 0.003417	 0.794402	 -0.036847	 0.606264	 1
1462069010.666	 3	 -0.004446	 0.007577	 -0.006149	 1.836457	 -0.054492	 -0.050157	 0.003379	 0.794397	 -0.036859	 0.606270	 1
1462069010.676	 3	 -0.004441	 0.007584	 -0.005083	 1.836491	 -0.054530	 -0.050097	 0.003344	 0.794408	 -0.036856	 0.606256	 1
1462069010.686	 3	 -0.003375	 0.006524	 -0.004036	 1.836477	 -0.054516	 -0.050047	 0.003328	 0.794404	 -0.036836	 0.606263	 1
1462069010.697	 3	 -0.003380	 0.005460	 -0.004045	 1.836491	 -0.054488	 -0.050001	 0.003318	 0.794408	 -0.036810	 0.606259	 1
1462069010.707	 3	 -0.002333	 0.002258	 -0.005150	 1.836484	 -0.054482	 -0.049961	 0.003305	 0.794406	 -0.036796	 0.606263	 1
1462069010.717	 3	 -0.002329	 0.002265	 -0.004084	 1.836456	 -0.054510	 -0.049926	 0.003282	 0.794397	 -0.036796	 0.606274	 1
1462069010.726	 3	 -0.000205	 0.000131	 -0.004122	 1.836395	 -0.054523	 -0.049919	 0.003274	 0.794379	 -0.036799	 0.606298	 1
1462069010.736	 3	 -0.001287	 -0.003057	 -0.004142	 1.836318	 -0.054568	 -0.049900	 0.003251	 0.794355	 -0.036812	 0.606328	 1
1462069010.747	 3	 -0.000200	 -0.000890	 -0.002956	 1.836211	 -0.054594	 -0.049894	 0.003239	 0.794323	 -0.036820	 0.606370	 1
1462069010.756	 3	 -0.002327	 0.002291	 -0.005039	 1.836102	 -0.054627	 -0.049870	 0.003217	 0.794290	 -0.036826	 0.606413	 1
1462069010.766	 3	 -0.004447	 0.004431	 -0.003935	 1.836031	 -0.054652	 -0.049828	 0.003192	 0.794268	 -0.036824	 0.606442	 1
1462069010.777	 3	 -0.004478	 -0.001952	 -0.003994	 1.835901	 -0.054704	 -0.049780	 0.003154	 0.794229	 -0.036830	 0.606493	 1
1462069010.786	 3	 -0.003390	 0.002299	 -0.003964	 1.835888	 -0.054745	 -0.049730	 0.003122	 0.794225	 -0.036831	 0.606499	 1
1462069010.796	 3	 -0.003376	 0.004434	 -0.002879	 1.835922	 -0.054751	 -0.049685	 0.003103	 0.794235	 -0.036820	 0.606486	 1
1462069010.806	 3	 -0.002299	 0.006558	 -0.002869	 1.835970	 -0.054818	 -0.049658	 0.003072	 0.794249	 -0.036838	 0.606466	 1
1462069010.816	 3	 -0.002275	 0.009764	 -0.000708	 1.836027	 -0.054842	 -0.049633	 0.003057	 0.794267	 -0.036840	 0.606444	 1
1462069010.826	 3	 0.000917	 0.008683	 -0.001811	 1.836088	 -0.054835	 -0.049638	 0.003062	 0.794285	 -0.036838	 0.606420	 1
1462069010.836	 3	 -0.002318	 0.003358	 -0.003964	 1.836089	 -0.054837	 -0.049612	 0.003051	 0.794286	 -0.036832	 0.606419	 1
1462069010.846	 3	 -0.001265	 0.002275	 -0.006114	 1.836062	 -0.054859	 -0.049589	 0.003034	 0.794277	 -0.036833	 0.606430	 1
1462069010.856	 3	 -0.002337	 0.001215	 -0.006115	 1.836029	 -0.054886	 -0.049553	 0.003011	 0.794267	 -0.036833	 0.606444	 1
1462069010.866	 3	 -0.000199	 0.001215	 -0.005067	 1.835974	 -0.054916	 -0.049535	 0.002994	 0.794251	 -0.036840	 0.606465	 1
1462069010.876	 3	 -0.000194	 0.002279	 -0.005057	 1.835970	 -0.054970	 -0.049516	 0.002970	 0.794249	 -0.036855	 0.606466	 1
1462069010.886	 3	 -0.000160	 0.007612	 -0.002877	 1.836029	 -0.055007	 -0.049510	 0.002957	 0.794267	 -0.036868	 0.606442	 1
1462069010.896	 3	 -0.000151	 0.007627	 -0.000745	 1.836067	 -0.055061	 -0.049514	 0.002944	 0.794278	 -0.036891	 0.606426	 1
1462069010.906	 3	 -0.002303	 0.003396	 -0.001731	 1.835996	 -0.055111	 -0.049503	 0.002923	 0.794257	 -0.036908	 0.606453	 1
1462069010.916	 3	 -0.002304	 0.002339	 -0.000676	 1.835895	 -0.055151	 -0.049490	 0.002903	 0.794226	 -0.036919	 0.606493	 1
1462069010.926	 3	 -0.002314	 0.000211	 -0.000696	 1.835803	 -0.055190	 -0.049478	 0.002885	 0.794198	 -0.036931	 0.606529	 1
1462069010.936	 3	 -0.000161	 0.002347	 0.001437	 1.835753	 -0.055166	 -0.049472	 0.002889	 0.794183	 -0.036920	 0.606550	 1
1462069010.946	 3	 0.000917	 0.005526	 0.000392	 1.835727	 -0.055163	 -0.049482	 0.002893	 0.794175	 -0.036922	 0.606560	 1
1462069010.956	 3	 0.001999	 0.008714	 0.000412	 1.835734	 -0.055174	 -0.049506	 0.002900	 0.794177	 -0.036934	 0.606556	 1
1462069010.966	 3	 0.002008	 0.009785	 0.001487	 1.835777	 -0.055171	 -0.049537	 0.002914	 0.794190	 -0.036942	 0.606539	 1
1462069010.976	 3	 -0.001203	 0.008722	 0.000440	 1.835815	 -0.055130	 -0.049536	 0.002927	 0.794202	 -0.036925	 0.606524	 1
1462069010.986	 3	 -0.001200	 0.006618	 0.003618	 1.835818	 -0.055093	 -0.049542	 0.002940	 0.794203	 -0.036912	 0.606524	 1
1462069010.996	 3	 -0.004422	 0.002372	 0.003606	 1.835780	 -0.055046	 -0.049521	 0.002945	 0.794191	 -0.036887	 0.606540	 1
1462069011.006	 3	 -0.006566	 0.000251	 0.003605	 1.835726	 -0.055037	 -0.049475	 0.002929	 0.794175	 -0.036870	 0.606563	 1
1462069011.016	 3	 -0.006572	 -0.001870	 0.004651	 1.835635	 -0.055013	 -0.049429	 0.002916	 0.794147	 -0.036846	 0.606600	 1
1462069011.026	 3	 -0.005499	 0.000246	 0.003595	 1.835599	 -0.054975	 -0.049387	 0.002910	 0.794137	 -0.036819	 0.606616	 1
1462069011.036	 3	 -0.001220	 0.003417	 0.002522	 1.835602	 -0.054909	 -0.049374	 0.002925	 0.794138	 -0.036789	 0.606616	 1
1462069011.046	 3	 -0.000151	 0.005525	 0.000401	 1.835606	 -0.054907	 -0.049372	 0.002925	 0.794139	 -0.036787	 0.606615	 1
1462069011.056	 3	 0.003060	 0.007642	 0.000392	 1.835638	 -0.054905	 -0.049399	 0.002937	 0.794149	 -0.036795	 0.606601	 1
1462069011.066	 3	 0.005223	 0.011906	 0.002545	 1.835675	 -0.054883	 -0.049454	 0.002966	 0.794160	 -0.036802	 0.606586	 1
1462069011.076	 3	 0.006309	 0.014045	 0.002646	 1.835780	 -0.054873	 -0.049516	 0.002996	 0.794192	 -0.036817	 0.606543	 1
1462069011.086	 3	 0.005236	 0.011928	 0.003702	 1.835857	 -0.054814	 -0.049584	 0.003043	 0.794215	 -0.036814	 0.606512	 1
1462069011.096	 3	 0.004139	 0.005548	 0.003652	 1.835835	 -0.054743	 -0.049642	 0.003087	 0.794209	 -0.036804	 0.606522	 1
1462069011.106	 3	 0.003061	 0.003424	 0.003642	 1.835808	 -0.054698	 -0.049690	 0.003119	 0.794201	 -0.036801	 0.606532	 1
1462069011.116	 3	 0.003058	 0.005527	 0.000464	 1.835787	 -0.054688	 -0.049722	 0.003134	 0.794194	 -0.036806	 0.606540	 1
1462069011.126	 3	 0.003084	 0.010845	 0.000514	 1.835825	 -0.054671	 -0.049762	 0.003156	 0.794206	 -0.036812	 0.606524	 1
1462069011.136	 3	 0.000939	 0.008724	 0.000513	 1.835911	 -0.054645	 -0.049782	 0.003173	 0.794232	 -0.036807	 0.606491	 1
1462069011.146	 3	 -0.000157	 0.004457	 -0.001649	 1.835912	 -0.054622	 -0.049786	 0.003182	 0.794232	 -0.036799	 0.606491	 1
1462069011.156	 3	 -0.003370	 0.000227	 0.000471	 1.835858	 -0.054639	 -0.049769	 0.003169	 0.794216	 -0.036801	 0.606512	 1
1462069011.166	 3	 -0.004453	 -0.004018	 0.001507	 1.835760	 -0.054627	 -0.049732	 0.003156	 0.794186	 -0.036785	 0.606552	 1
1462069011.176	 3	 -0.005510	 -0.001888	 0.001536	 1.835703	 -0.054637	 -0.049688	 0.003135	 0.794169	 -0.036776	 0.606575	 1
1462069011.186	 3	 -0.004437	 0.000228	 0.000480	 1.835612	 -0.054623	 -0.049646	 0.003121	 0.794142	 -0.036758	 0.606612	 1
1462069011.196	 3	 -0.002273	 0.006603	 0.000521	 1.835593	 -0.054604	 -0.049626	 0.003118	 0.794136	 -0.036744	 0.606620	 1
1462069011.206	 3	 -0.002267	 0.008722	 -0.000525	 1.835571	 -0.054660	 -0.049609	 0.003094	 0.794129	 -0.036761	 0.606629	 1
1462069011.216	 3	 -0.001194	 0.010838	 -0.001581	 1.835569	 -0.054703	 -0.049596	 0.003075	 0.794128	 -0.036774	 0.606629	 1
1462069011.226	 3	 0.000960	 0.011907	 -0.000448	 1.835596	 -0.054738	 -0.049602	 0.003068	 0.794136	 -0.036790	 0.606617	 1
1462069011.236	 3	 0.000970	 0.014034	 -0.000428	 1.835667	 -0.054787	 -0.049613	 0.003059	 0.794158	 -0.036813	 0.606588	 1
1462069011.246	 3	 0.002057	 0.017229	 0.000657	 1.835775	 -0.054823	 -0.049636	 0.003059	 0.794190	 -0.036834	 0.606544	 1
1462069011.256	 3	 0.003131	 0.016185	 0.003836	 1.835910	 -0.054812	 -0.049669	 0.003078	 0.794231	 -0.036839	 0.606490	 1
1462069011.266	 3	 0.003121	 0.014057	 0.003816	 1.835983	 -0.054750	 -0.049713	 0.003116	 0.794253	 -0.036828	 0.606461	 1
1462069011.276	 3	 0.002049	 0.012996	 0.003816	 1.836030	 -0.054667	 -0.049751	 0.003156	 0.794268	 -0.036806	 0.606444	 1
1462069011.286	 3	 0.002039	 0.010868	 0.003796	 1.836088	 -0.054609	 -0.049783	 0.003188	 0.794286	 -0.036793	 0.606421	 1
1462069011.296	 3	 0.002018	 0.006613	 0.003757	 1.836070	 -0.054523	 -0.049816	 0.003227	 0.794280	 -0.036769	 0.606429	 1
1462069011.306	 3	 0.001995	 0.003406	 0.001596	 1.836081	 -0.054455	 -0.049838	 0.003256	 0.794284	 -0.036748	 0.606425	 1
1462069011.316	 3	 0.000922	 0.002345	 0.001596	 1.836044	 -0.054383	 -0.049854	 0.003284	 0.794273	 -0.036725	 0.606441	 1
1462069011.326	 3	 0.001989	 0.002342	 0.001587	 1.836060	 -0.054301	 -0.049880	 0.003319	 0.794278	 -0.036700	 0.606436	 1
1462069011.336	 3	 0.003066	 0.003410	 0.002654	 1.836050	 -0.054285	 -0.049907	 0.003335	 0.794275	 -0.036702	 0.606439	 1
1462069011.346	 3	 0.004125	 0.004447	 -0.000543	 1.836037	 -0.054291	 -0.049942	 0.003347	 0.794271	 -0.036715	 0.606444	 1
1462069011.356	 3	 0.003077	 0.006592	 0.001617	 1.836016	 -0.054357	 -0.049974	 0.003339	 0.794264	 -0.036751	 0.606451	 1
1462069011.366	 3	 0.002010	 0.007650	 0.000570	 1.835968	 -0.054430	 -0.050001	 0.003327	 0.794250	 -0.036788	 0.606468	 1
1462069011.376	 3	 -0.000110	 0.009792	 0.001674	 1.836031	 -0.054458	 -0.050006	 0.003321	 0.794269	 -0.036801	 0.606442	 1
1462069011.386	 3	 -0.000086	 0.010860	 0.002829	 1.836104	 -0.054478	 -0.050013	 0.003319	 0.794291	 -0.036811	 0.606413	 1
1462069011.396	 3	 -0.000086	 0.011916	 0.001773	 1.836141	 -0.054490	 -0.050022	 0.003320	 0.794302	 -0.036818	 0.606398	 1
1462069011.406	 3	 -0.000091	 0.010852	 0.001763	 1.836153	 -0.054472	 -0.050027	 0.003328	 0.794305	 -0.036812	 0.606393	 1
1462069011.416	 3	 0.000986	 0.012975	 0.001773	 1.836215	 -0.054467	 -0.050039	 0.003335	 0.794324	 -0.036814	 0.606368	 1
1462069011.426	 3	 -0.002225	 0.010857	 0.001782	 1.836263	 -0.054418	 -0.050029	 0.003347	 0.794339	 -0.036791	 0.606350	 1
1462069011.436	 3	 -0.003308	 0.006613	 0.002818	 1.836267	 -0.054344	 -0.050013	 0.003363	 0.794341	 -0.036757	 0.606350	 1
1462069011.446	 3	 -0.003308	 0.006612	 0.002818	 1.836308	 -0.054274	 -0.049988	 0.003375	 0.794353	 -0.036722	 0.606336	 1
1462069011.456	 3	 -0.003318	 0.005541	 0.001742	 1.836352	 -0.054240	 -0.049963	 0.003376	 0.794367	 -0.036701	 0.606319	 1
1462069011.466	 3	 -0.002252	 0.004481	 0.002789	 1.836327	 -0.054199	 -0.049956	 0.003385	 0.794359	 -0.036682	 0.606330	 1
1462069011.476	 3	 -0.001184	 0.005533	 0.001724	 1.836302	 -0.054138	 -0.049960	 0.003405	 0.794352	 -0.036659	 0.606341	 1
1462069011.486	 3	 -0.000116	 0.006586	 0.000658	 1.836335	 -0.054143	 -0.049969	 0.003408	 0.794362	 -0.036664	 0.606328	 1
1462069011.496	 3	 -0.000116	 0.006585	 0.000659	 1.836345	 -0.054125	 -0.049971	 0.003415	 0.794365	 -0.036658	 0.606324	 1
1462069011.506	 3	 0.000937	 0.004446	 -0.000436	 1.836310	 -0.054145	 -0.049981	 0.003411	 0.794354	 -0.036668	 0.606338	 1
1462069011.516	 3	 -0.000131	 0.003393	 0.000629	 1.836241	 -0.054159	 -0.049985	 0.003408	 0.794333	 -0.036675	 0.606364	 1
1462069011.526	 3	 0.000940	 0.003397	 0.001685	 1.836232	 -0.054147	 -0.049990	 0.003413	 0.794331	 -0.036672	 0.606368	 1
1462069011.536	 3	 0.002012	 0.003401	 0.002742	 1.836217	 -0.054148	 -0.050013	 0.003421	 0.794326	 -0.036680	 0.606374	 1
1462069011.546	 3	 -0.000116	 0.003383	 0.000700	 1.836149	 -0.054157	 -0.050024	 0.003422	 0.794305	 -0.036687	 0.606400	 1
1462069011.556	 3	 0.000975	 0.006585	 0.002852	 1.836134	 -0.054140	 -0.050042	 0.003434	 0.794301	 -0.036685	 0.606406	 1
1462069011.566	 3	 0.000965	 0.005513	 0.001776	 1.836084	 -0.054081	 -0.050063	 0.003459	 0.794286	 -0.036669	 0.606427	 1
1462069011.576	 3	 0.003085	 0.003371	 0.000672	 1.836028	 -0.054030	 -0.050096	 0.003487	 0.794269	 -0.036658	 0.606450	 1
1462069011.586	 3	 0.002002	 -0.000873	 0.001708	 1.835978	 -0.053972	 -0.050123	 0.003514	 0.794254	 -0.036643	 0.606470	 1
1462069011.596	 3	 0.005168	 -0.008329	 0.001612	 1.835857	 -0.053924	 -0.050168	 0.003545	 0.794217	 -0.036638	 0.606518	 1
1462069011.606	 3	 0.002005	 -0.001922	 0.003831	 1.835750	 -0.053855	 -0.050203	 0.003578	 0.794185	 -0.036622	 0.606561	 1
1462069011.616	 3	 0.003060	 -0.006165	 0.005914	 1.835621	 -0.053737	 -0.050246	 0.003628	 0.794146	 -0.036588	 0.606614	 1
1462069011.626	 3	 0.000929	 -0.001935	 0.001709	 1.835532	 -0.053782	 -0.050274	 0.003624	 0.794119	 -0.036615	 0.606648	 1
1462069011.636	 3	 0.000961	 0.001286	 0.006001	 1.835494	 -0.053763	 -0.050305	 0.003641	 0.794107	 -0.036617	 0.606663	 1
1462069011.646	 3	 -0.001153	 0.005547	 0.006059	 1.835507	 -0.053674	 -0.050318	 0.003674	 0.794112	 -0.036585	 0.606659	 1
1462069011.656	 3	 -0.002187	 0.008771	 0.010361	 1.835459	 -0.053655	 -0.050326	 0.003682	 0.794097	 -0.036580	 0.606678	 1
1462069011.666	 3	 0.002233	 0.030124	 0.023310	 1.835657	 -0.053460	 -0.050392	 0.003771	 0.794157	 -0.036523	 0.606602	 1
1462069011.676	 3	 0.005346	 0.019408	 0.013591	 1.835872	 -0.053363	 -0.050484	 0.003841	 0.794223	 -0.036512	 0.606516	 1
1462069011.686	 3	 0.004193	 0.007656	 0.006032	 1.835861	 -0.053269	 -0.050540	 0.003891	 0.794220	 -0.036491	 0.606521	 1
1462069011.696	 3	 0.002040	 0.005519	 0.003900	 1.835854	 -0.053140	 -0.050574	 0.003944	 0.794218	 -0.036451	 0.606526	 1
1462069011.706	 3	 0.003120	 0.011866	 -0.000313	 1.835801	 -0.053095	 -0.050609	 0.003971	 0.794202	 -0.036443	 0.606547	 1
1462069011.716	 3	 0.003134	 0.010786	 -0.000249	 1.835858	 -0.053125	 -0.050636	 0.003973	 0.794219	 -0.036463	 0.606523	 1
1462069011.726	 3	 0.003129	 0.010778	 -0.001315	 1.835923	 -0.053167	 -0.050659	 0.003971	 0.794239	 -0.036487	 0.606497	 1
1462069011.736	 3	 0.001010	 0.013975	 -0.001267	 1.835997	 -0.053215	 -0.050673	 0.003963	 0.794261	 -0.036510	 0.606466	 1
1462069011.746	 3	 -0.001115	 0.013996	 0.000883	 1.836046	 -0.053270	 -0.050679	 0.003950	 0.794275	 -0.036533	 0.606446	 1
1462069011.756	 3	 -0.001131	 0.010804	 0.000854	 1.836101	 -0.053281	 -0.050673	 0.003945	 0.794292	 -0.036536	 0.606424	 1
1462069011.766	 3	 -0.002198	 0.009751	 0.001919	 1.836098	 -0.053273	 -0.050662	 0.003943	 0.794291	 -0.036529	 0.606425	 1
1462069011.776	 3	 -0.004334	 0.007645	 0.004049	 1.836098	 -0.053230	 -0.050640	 0.003947	 0.794291	 -0.036506	 0.606426	 1
1462069011.786	 3	 -0.001138	 0.006571	 0.004011	 1.836104	 -0.053185	 -0.050644	 0.003963	 0.794293	 -0.036489	 0.606425	 1
1462069011.796	 3	 0.000997	 0.007620	 0.002937	 1.836138	 -0.053140	 -0.050653	 0.003981	 0.794304	 -0.036474	 0.606412	 1
1462069011.806	 3	 0.003161	 0.012940	 0.004033	 1.836192	 -0.053106	 -0.050690	 0.004007	 0.794320	 -0.036472	 0.606390	 1
1462069011.816	 3	 0.001027	 0.014001	 0.002996	 1.836250	 -0.053059	 -0.050718	 0.004033	 0.794338	 -0.036461	 0.606368	 1
1462069011.826	 3	 0.002088	 0.011878	 0.004033	 1.836340	 -0.053013	 -0.050748	 0.004060	 0.794365	 -0.036452	 0.606332	 1
1462069011.836	 3	 -0.000040	 0.014004	 0.003006	 1.836389	 -0.052970	 -0.050758	 0.004079	 0.794380	 -0.036438	 0.606313	 1
1462069011.846	 3	 -0.001112	 0.013999	 0.001949	 1.836482	 -0.052927	 -0.050750	 0.004090	 0.794409	 -0.036418	 0.606277	 1
1462069011.856	 3	 -0.005395	 0.010820	 0.001958	 1.836517	 -0.052847	 -0.050723	 0.004104	 0.794420	 -0.036378	 0.606265	 1
1462069011.866	 3	 -0.003261	 0.006546	 0.003024	 1.836553	 -0.052788	 -0.050696	 0.004112	 0.794431	 -0.036346	 0.606253	 1
1462069011.876	 3	 -0.001136	 0.006524	 0.000874	 1.836615	 -0.052731	 -0.050678	 0.004124	 0.794449	 -0.036318	 0.606229	 1
1462069011.886	 3	 -0.001149	 0.005445	 -0.001268	 1.836675	 -0.052750	 -0.050671	 0.004116	 0.794468	 -0.036323	 0.606205	 1
1462069011.896	 3	 0.000990	 0.006501	 -0.001277	 1.836659	 -0.052749	 -0.050680	 0.004119	 0.794463	 -0.036326	 0.606211	 1
1462069011.906	 3	 0.002047	 0.004370	 -0.001306	 1.836607	 -0.052743	 -0.050706	 0.004131	 0.794447	 -0.036331	 0.606232	 1
1462069011.916	 3	 0.004195	 0.006499	 -0.000239	 1.836664	 -0.052793	 -0.050739	 0.004130	 0.794464	 -0.036361	 0.606208	 1
1462069011.926	 3	 0.004225	 0.011825	 0.000876	 1.836763	 -0.052863	 -0.050782	 0.004127	 0.794494	 -0.036402	 0.606166	 1
1462069011.936	 3	 0.007462	 0.019261	 0.000916	 1.836921	 -0.052935	 -0.050847	 0.004134	 0.794541	 -0.036450	 0.606101	 1
1462069011.946	 3	 0.006374	 0.013953	 0.001942	 1.836958	 -0.052940	 -0.050915	 0.004160	 0.794552	 -0.036472	 0.606085	 1
1462069011.956	 3	 0.006394	 0.018207	 0.001982	 1.837024	 -0.052945	 -0.050988	 0.004189	 0.794572	 -0.036496	 0.606057	 1
1462069011.966	 3	 0.005340	 0.019288	 0.004133	 1.837042	 -0.052887	 -0.051058	 0.004235	 0.794578	 -0.036494	 0.606050	 1
1462069011.976	 3	 0.004263	 0.017163	 0.004122	 1.837090	 -0.052827	 -0.051122	 0.004279	 0.794592	 -0.036490	 0.606031	 1
1462069011.986	 3	 0.003192	 0.018214	 0.002010	 1.837250	 -0.052781	 -0.051161	 0.004311	 0.794641	 -0.036483	 0.605967	 1
1462069011.996	 3	 0.003192	 0.018214	 0.002010	 1.837399	 -0.052741	 -0.051192	 0.004339	 0.794686	 -0.036476	 0.605908	 1
1462069012.006	 3	 0.001053	 0.017156	 0.002019	 1.837516	 -0.052741	 -0.051219	 0.004352	 0.794721	 -0.036484	 0.605861	 1
1462069012.016	 3	 0.002140	 0.021407	 0.002049	 1.837596	 -0.052727	 -0.051251	 0.004370	 0.794746	 -0.036488	 0.605829	 1
1462069012.026	 3	 0.004279	 0.017132	 0.004177	 1.837656	 -0.052694	 -0.051307	 0.004404	 0.794764	 -0.036492	 0.605805	 1
1462069012.036	 3	 0.007462	 0.010763	 0.007287	 1.837708	 -0.052635	 -0.051390	 0.004455	 0.794779	 -0.036494	 0.605784	 1
1462069012.046	 3	 0.008524	 0.009696	 0.007268	 1.837718	 -0.052593	 -0.051488	 0.004507	 0.794782	 -0.036506	 0.605779	 1
1462069012.056	 3	 0.012813	 0.013937	 0.007270	 1.837795	 -0.052563	 -0.051624	 0.004572	 0.794805	 -0.036536	 0.605746	 1
1462069012.066	 3	 0.016027	 0.019222	 0.004094	 1.837912	 -0.052583	 -0.051801	 0.004638	 0.794840	 -0.036597	 0.605696	 1
1462069012.076	 3	 0.020313	 0.025568	 0.000918	 1.838094	 -0.052708	 -0.051994	 0.004680	 0.794895	 -0.036705	 0.605618	 1
1462069012.086	 3	 0.030958	 0.024433	 -0.004515	 1.838299	 -0.052976	 -0.052256	 0.004707	 0.794955	 -0.036890	 0.605527	 1
1462069012.096	 3	 0.050590	 -0.094897	 -0.024980	 1.837831	 -0.053257	 -0.052636	 0.004764	 0.794812	 -0.037118	 0.605701	 1
1462069012.106	 3	 0.061422	 -0.056675	 -0.030047	 1.837108	 -0.053508	 -0.053117	 0.004865	 0.794591	 -0.037365	 0.605974	 1
1462069012.116	 3	 0.053440	 0.047698	 -0.014085	 1.837321	 -0.053729	 -0.053605	 0.004996	 0.794654	 -0.037600	 0.605876	 1
1462069012.126	 3	 0.030773	 -0.027574	 0.010993	 1.836783	 -0.053386	 -0.054020	 0.005255	 0.794491	 -0.037591	 0.606089	 1
1462069012.136	 3	 -0.013411	 -0.131569	 0.026398	 1.835051	 -0.052858	 -0.054068	 0.005402	 0.793967	 -0.037401	 0.606785	 1
1462069012.146	 3	 -0.011080	 -0.084820	 0.020417	 1.834193	 -0.052864	 -0.053988	 0.005353	 0.793707	 -0.037381	 0.607127	 1
1462069012.166	 3	 -0.001131	 -0.012518	 0.021000	 1.833909	 -0.052939	 -0.054032	 0.005342	 0.793620	 -0.037425	 0.607238	 1
1462069012.156	 3	 -0.001212	 -0.029537	 0.020843	 1.834015	 -0.052979	 -0.053997	 0.005318	 0.793652	 -0.037430	 0.607196	 1
1462069012.176	 3	 -0.007592	 -0.032640	 0.030461	 1.833554	 -0.052702	 -0.054048	 0.005413	 0.793513	 -0.037336	 0.607383	 1
1462069012.186	 3	 -0.011881	 -0.035892	 0.025188	 1.833153	 -0.052524	 -0.054012	 0.005446	 0.793392	 -0.037256	 0.607546	 1
1462069012.196	 3	 -0.005452	 -0.017938	 0.010377	 1.832911	 -0.052513	 -0.053973	 0.005429	 0.793318	 -0.037241	 0.607643	 1
1462069012.206	 3	 -0.003343	 -0.011663	 -0.003437	 1.832660	 -0.052510	 -0.053942	 0.005414	 0.793242	 -0.037231	 0.607743	 1
1462069012.216	 3	 0.000822	 -0.024519	 -0.014250	 1.832238	 -0.052443	 -0.053928	 0.005421	 0.793114	 -0.037201	 0.607912	 1
1462069012.226	 3	 0.004048	 -0.008666	 -0.026919	 1.832067	 -0.052573	 -0.053901	 0.005367	 0.793062	 -0.037245	 0.607978	 1
1462069012.236	 3	 0.006252	 0.015707	 -0.038434	 1.832218	 -0.052855	 -0.053863	 0.005269	 0.793107	 -0.037344	 0.607913	 1
1462069012.246	 3	 0.010637	 0.040159	 -0.038244	 1.832667	 -0.053126	 -0.053855	 0.005191	 0.793243	 -0.037448	 0.607730	 1
1462069012.266	 4	 0.002065	 0.039066	 -0.045641	 1.833405	 -0.054112	 -0.053733	 0.004857	 0.793465	 -0.037800	 0.607422	 1
1462069012.276	 4	 0.000994	 0.028517	 -0.034006	 1.833646	 -0.054533	 -0.053654	 0.004702	 0.793537	 -0.037942	 0.607319	 1
1462069012.286	 4	 -0.004474	 -0.005451	 -0.026816	 1.833606	 -0.055005	 -0.053566	 0.004523	 0.793524	 -0.038103	 0.607328	 1
1462069012.296	 4	 -0.009833	 -0.013914	 -0.022585	 1.833328	 -0.055174	 -0.053423	 0.004409	 0.793440	 -0.038127	 0.607438	 1
1462069012.306	 4	 -0.008632	 0.016906	 -0.025504	 1.833471	 -0.055181	 -0.053270	 0.004349	 0.793483	 -0.038083	 0.607384	 1
1462069012.316	 4	 -0.004472	 -0.003340	 -0.028927	 1.833440	 -0.055462	 -0.053154	 0.004217	 0.793473	 -0.038159	 0.607393	 1
1462069012.326	 4	 -0.003489	 -0.018259	 -0.032271	 1.833201	 -0.055802	 -0.053030	 0.004060	 0.793400	 -0.038257	 0.607484	 1
1462069012.336	 4	 -0.001349	 -0.016145	 -0.033336	 1.833026	 -0.056103	 -0.052934	 0.003927	 0.793346	 -0.038347	 0.607549	 1
1462069012.346	 4	 0.000800	 -0.015138	 -0.034372	 1.832835	 -0.056497	 -0.052848	 0.003769	 0.793287	 -0.038477	 0.607619	 1
1462069012.356	 4	 0.005135	 -0.006595	 -0.027936	 1.832725	 -0.056804	 -0.052805	 0.003656	 0.793253	 -0.038586	 0.607658	 1
1462069012.366	 4	 0.003071	 0.001974	 -0.020378	 1.832716	 -0.057096	 -0.052783	 0.003559	 0.793249	 -0.038695	 0.607656	 1
1462069012.376	 4	 0.004193	 0.012615	 -0.019223	 1.832756	 -0.057315	 -0.052777	 0.003490	 0.793260	 -0.038780	 0.607636	 1
1462069012.386	 4	 0.000981	 0.010497	 -0.019215	 1.832770	 -0.057481	 -0.052742	 0.003426	 0.793264	 -0.038835	 0.607628	 1
1462069012.396	 4	 0.002070	 0.015803	 -0.020241	 1.832833	 -0.057717	 -0.052704	 0.003340	 0.793283	 -0.038917	 0.607599	 1
1462069012.406	 4	 0.004224	 0.020052	 -0.020221	 1.833019	 -0.058006	 -0.052687	 0.003250	 0.793338	 -0.039026	 0.607520	 1
1462069012.416	 4	 0.006370	 0.024284	 -0.022332	 1.833155	 -0.058359	 -0.052686	 0.003145	 0.793378	 -0.039165	 0.607460	 1
1462069012.426	 4	 0.009575	 0.023226	 -0.020240	 1.833340	 -0.058757	 -0.052718	 0.003039	 0.793433	 -0.039333	 0.607378	 1
1462069012.436	 4	 0.008502	 0.020052	 -0.018129	 1.833409	 -0.059119	 -0.052764	 0.002949	 0.793452	 -0.039490	 0.607343	 1
1462069012.446	 4	 0.010662	 0.026420	 -0.019155	 1.833598	 -0.059451	 -0.052807	 0.002868	 0.793509	 -0.039634	 0.607260	 1
1462069012.456	 4	 0.013901	 0.031752	 -0.015936	 1.833919	 -0.059612	 -0.052887	 0.002858	 0.793605	 -0.039722	 0.607128	 1
1462069012.466	 4	 0.012730	 0.011530	 -0.018245	 1.834074	 -0.059763	 -0.052969	 0.002848	 0.793652	 -0.039807	 0.607062	 1
1462069012.476	 4	 0.014684	 -0.013059	 -0.034478	 1.833709	 -0.060191	 -0.053046	 0.002740	 0.793539	 -0.040000	 0.607197	 1
1462069012.486	 4	 0.028394	 -0.031322	 -0.053952	 1.833308	 -0.060765	 -0.053149	 0.002599	 0.793415	 -0.040259	 0.607343	 1
1462069012.496	 4	 0.045390	 -0.038896	 -0.064828	 1.833068	 -0.061531	 -0.053390	 0.002456	 0.793339	 -0.040636	 0.607418	 1
1462069012.506	 4	 0.043258	 -0.024121	 -0.081725	 1.832829	 -0.062567	 -0.053632	 0.002232	 0.793261	 -0.041120	 0.607487	 1
1462069012.516	 4	 -0.041574	 0.079335	 -0.071475	 1.832963	 -0.064030	 -0.053311	 0.001662	 0.793296	 -0.041602	 0.607411	 1
1462069012.526	 4	 -0.076203	 0.177511	 -0.040424	 1.834104	 -0.065277	 -0.052481	 0.000977	 0.793637	 -0.041844	 0.606950	 1
1462069012.536	 4	 -0.016567	 0.125436	 -0.010523	 1.835460	 -0.065769	 -0.052117	 0.000712	 0.794046	 -0.041928	 0.606409	 1
1462069012.546	 4	 0.052539	 0.084693	 -0.027489	 1.836443	 -0.065746	 -0.052412	 0.000857	 0.794344	 -0.042007	 0.606013	 1
1462069012.556	 4	 0.100402	 0.106408	 -0.093781	 1.837405	 -0.066724	 -0.053088	 0.000848	 0.794630	 -0.042600	 0.605597	 1
1462069012.566	 4	 0.105289	 0.069725	 -0.163439	 1.838198	 -0.068422	 -0.053734	 0.000607	 0.794861	 -0.043469	 0.605232	 1
1462069012.576	 4	 0.089681	 -0.020019	 -0.224887	 1.838209	 -0.070703	 -0.054080	 0.000053	 0.794851	 -0.044479	 0.605172	 1
1462069012.586	 4	 0.105945	 -0.136480	 -0.291132	 1.837309	 -0.075052	 -0.054291	 -0.001204	 0.794552	 -0.046268	 0.605430	 1
1462069012.606	 5	 0.235109	 -0.333810	 -0.316473	 1.831321	 -0.082063	 -0.056139	 -0.002746	 0.792687	 -0.049600	 0.607601	 1
1462069012.616	 5	 0.288566	 -0.303209	 -0.328378	 1.828061	 -0.085896	 -0.057982	 -0.003267	 0.791668	 -0.051671	 0.608754	 1
1462069012.626	 5	 0.330192	 -0.293830	 -0.338249	 1.824946	 -0.090723	 -0.060246	 -0.003930	 0.790682	 -0.054260	 0.609805	 1
1462069012.636	 5	 0.345070	 -0.307695	 -0.337442	 1.821655	 -0.094846	 -0.062734	 -0.004301	 0.789646	 -0.056638	 0.610927	 1
1462069012.646	 5	 0.356950	 -0.283219	 -0.330923	 1.818478	 -0.098938	 -0.065364	 -0.004611	 0.788643	 -0.059046	 0.611992	 1
1462069012.656	 5	 0.386880	 -0.262128	 -0.343776	 1.815556	 -0.103130	 -0.068198	 -0.004872	 0.787715	 -0.061555	 0.612938	 1
1462069012.666	 5	 0.457074	 -0.271276	 -0.395607	 1.812416	 -0.108852	 -0.071575	 -0.005405	 0.786702	 -0.064828	 0.613896	 1
1462069012.676	 5	 0.526913	 -0.323176	 -0.484090	 1.808923	 -0.114530	 -0.075465	 -0.005746	 0.785580	 -0.068238	 0.614959	 1
1462069012.686	 5	 0.583688	 -0.428229	 -0.574021	 1.804423	 -0.121235	 -0.079739	 -0.006303	 0.784133	 -0.072162	 0.616351	 1
1462069012.696	 5	 0.670527	 -0.531983	 -0.619438	 1.798725	 -0.128677	 -0.084670	 -0.006895	 0.782303	 -0.076567	 0.618136	 1
1462069012.706	 5	 0.764472	 -0.543795	 -0.596920	 1.792434	 -0.136231	 -0.090610	 -0.007178	 0.780284	 -0.081321	 0.620074	 1
1462069012.716	 5	 0.829164	 -0.431007	 -0.564460	 1.786831	 -0.143597	 -0.097403	 -0.007071	 0.778477	 -0.086265	 0.621677	 1
1462069012.726	 5	 0.850204	 -0.309470	 -0.516619	 1.782419	 -0.150563	 -0.104611	 -0.006652	 0.777040	 -0.091185	 0.622776	 1
1462069012.736	 5	 0.867950	 -0.230269	 -0.441433	 1.778773	 -0.156879	 -0.112193	 -0.005867	 0.775847	 -0.095972	 0.623552	 1
1462069012.746	 5	 0.874643	 -0.179147	 -0.429293	 1.775658	 -0.162750	 -0.119987	 -0.004851	 0.774821	 -0.100654	 0.624097	 1
1462069012.756	 5	 0.904765	 -0.273530	 -0.525286	 1.771910	 -0.169447	 -0.127862	 -0.004114	 0.773585	 -0.105675	 0.624806	 1
1462069012.766	 5	 0.948973	 -0.333824	 -0.608296	 1.767205	 -0.177104	 -0.135990	 -0.003656	 0.772033	 -0.111138	 0.625780	 1
1462069012.786	 6	 1.019387	 -0.171845	 -0.537061	 1.759351	 -0.192401	 -0.153756	 -0.002138	 0.769406	 -0.122520	 0.626896	 1
1462069012.796	 6	 0.972451	 -0.226506	 -0.466821	 1.755553	 -0.198955	 -0.162731	 -0.001020	 0.768141	 -0.127818	 0.627392	 1
1462069012.806	 6	 0.876678	 -0.370025	 -0.496098	 1.750608	 -0.205326	 -0.170898	 -0.000250	 0.766514	 -0.132791	 0.628349	 1
1462069012.816	 6	 0.794063	 -0.470765	 -0.487790	 1.744497	 -0.211707	 -0.178158	 0.000065	 0.764516	 -0.137480	 0.629773	 1
1462069012.826	 6	 0.770524	 -0.513027	 -0.452785	 1.738166	 -0.217481	 -0.185153	 0.000430	 0.762452	 -0.141854	 0.631304	 1
1462069012.836	 6	 0.753239	 -0.912669	 -0.568258	 1.728755	 -0.223932	 -0.191963	 0.000251	 0.759400	 -0.146420	 0.633935	 1
1462069012.846	 6	 0.796405	 -1.320556	 -0.769596	 1.714868	 -0.232224	 -0.198726	 -0.000931	 0.754890	 -0.151648	 0.638078	 1
1462069012.856	 6	 0.946268	 -1.412783	 -0.813324	 1.698849	 -0.241555	 -0.206841	 -0.002189	 0.749662	 -0.157670	 0.642762	 1
1462069012.866	 6	 1.035264	 -1.398572	 -0.724442	 1.682617	 -0.250204	 -0.216375	 -0.002806	 0.744345	 -0.163881	 0.647369	 1
1462069012.876	 6	 0.955365	 -1.627794	 -0.685381	 1.664607	 -0.258071	 -0.225747	 -0.003473	 0.738426	 -0.169742	 0.652612	 1
1462069012.886	 6	 0.873892	 -1.707311	 -0.683280	 1.645430	 -0.265659	 -0.234317	 -0.004546	 0.732089	 -0.175224	 0.658272	 1
1462069012.896	 6	 0.851208	 -1.811081	 -0.628628	 1.625419	 -0.272631	 -0.242751	 -0.005639	 0.725436	 -0.180426	 0.664196	 1
1462069012.906	 6	 0.841375	 -1.894773	 -0.586691	 1.604286	 -0.278958	 -0.251233	 -0.006698	 0.718366	 -0.185401	 0.670471	 1
1462069012.916	 6	 0.838273	 -1.903018	 -0.551570	 1.582867	 -0.284758	 -0.259834	 -0.007664	 0.711149	 -0.190221	 0.676775	 1
1462069012.926	 6	 0.836443	 -1.883480	 -0.498084	 1.561497	 -0.289894	 -0.268561	 -0.008448	 0.703898	 -0.194851	 0.683000	 1
1462069012.936	 6	 0.830311	 -1.886134	 -0.426650	 1.540171	 -0.294184	 -0.277331	 -0.009010	 0.696611	 -0.199208	 0.689180	 1
1462069012.946	 6	 0.805037	 -1.878064	 -0.350685	 1.518802	 -0.297534	 -0.285995	 -0.009365	 0.689252	 -0.203219	 0.695374	 1
1462069012.956	 6	 0.738179	 -1.865591	 -0.271121	 1.497757	 -0.299981	 -0.294098	 -0.009635	 0.681945	 -0.206750	 0.701507	 1
1462069012.966	 6	 0.625535	 -1.844363	 -0.176155	 1.477179	 -0.301450	 -0.301108	 -0.009939	 0.674736	 -0.209593	 0.707604	 1
1462069012.976	 6	 0.609929	 -1.904749	 -0.002862	 1.456481	 -0.301351	 -0.307419	 -0.009965	 0.667411	 -0.211701	 0.713895	 1
1462069012.986	 6	 0.652537	 -1.821882	 0.147810	 1.435973	 -0.299412	 -0.313975	 -0.009243	 0.660073	 -0.213343	 0.720210	 1
1462069012.996	 6	 0.576335	 -1.545456	 0.248031	 1.418008	 -0.296313	 -0.319883	 -0.008056	 0.653570	 -0.214439	 0.725808	 1
1462069013.006	 6	 0.381963	 -1.183807	 0.319165	 1.404113	 -0.292637	 -0.323870	 -0.006855	 0.648478	 -0.214707	 0.730295	 1
1462069013.016	 6	 0.162698	 -0.877548	 0.368686	 1.394166	 -0.288719	 -0.325434	 -0.005923	 0.644783	 -0.214051	 0.733759	 1
1462069013.026	 6	 -0.032232	 -0.774035	 0.337242	 1.386469	 -0.285264	 -0.324944	 -0.005580	 0.641895	 -0.212799	 0.736652	 1
1462069013.036	 6	 -0.212019	 -0.821873	 0.268022	 1.379030	 -0.282756	 -0.322659	 -0.006139	 0.639101	 -0.211175	 0.739539	 1
1462069013.046	 6	 -0.400588	 -0.913365	 0.188881	 1.371279	 -0.281418	 -0.318650	 -0.007716	 0.636192	 -0.209259	 0.742570	 1
1462069013.056	 6	 -0.606254	 -1.040701	 0.146856	 1.362847	 -0.281021	 -0.312669	 -0.010338	 0.633021	 -0.206876	 0.745909	 1
1462069013.066	 6	 -0.768995	 -1.159292	 0.154630	 1.353695	 -0.281120	 -0.304886	 -0.013773	 0.629554	 -0.203941	 0.749587	 1
1462069013.076	 6	 -0.843747	 -1.212944	 0.205938	 1.344111	 -0.281071	 -0.296004	 -0.017511	 0.625882	 -0.200514	 0.753498	 1
1462069013.086	 6	 -0.836814	 -1.146622	 0.260849	 1.334930	 -0.280600	 -0.286883	 -0.021085	 0.622320	 -0.196841	 0.757316	 1
1462069013.096	 6	 -0.786631	 -0.987665	 0.347152	 1.327064	 -0.279372	 -0.277993	 -0.024130	 0.619220	 -0.193016	 0.760743	 1
1462069013.106	 6	 -0.716712	 -0.760320	 0.485076	 1.321199	 -0.276828	 -0.269453	 -0.026330	 0.616849	 -0.188939	 0.763614	 1
1462069013.116	 6	 -0.639026	 -0.500825	 0.659468	 1.317778	 -0.272521	 -0.261227	 -0.027489	 0.615386	 -0.184482	 0.765840	 1
1462069013.126	 6	 -0.544426	 -0.283851	 0.843974	 1.316524	 -0.266233	 -0.253434	 -0.027523	 0.614738	 -0.179630	 0.767511	 1
1462069013.136	 6	 -0.438380	 -0.150748	 1.054245	 1.316624	 -0.257732	 -0.246174	 -0.026396	 0.614600	 -0.174339	 0.768879	 1
1462069013.146	 6	 -0.322073	 -0.131250	 1.296407	 1.317016	 -0.246664	 -0.239462	 -0.024063	 0.614563	 -0.168494	 0.770287	 1
1462069013.156	 6	 -0.120959	 -0.171027	 1.465874	 1.316837	 -0.233252	 -0.233946	 -0.020485	 0.614299	 -0.162395	 0.771910	 1
1462069013.166	 6	 0.173408	 -0.602262	 1.666056	 1.312683	 -0.217446	 -0.230733	 -0.015564	 0.612482	 -0.156430	 0.774695	 1
1462069013.176	 6	 0.428093	 -0.868354	 1.889435	 1.304740	 -0.198745	 -0.229549	 -0.009137	 0.609130	 -0.150387	 0.778627	 1
1462069013.186	 6	 0.549861	 -1.003485	 2.077889	 1.295075	 -0.177753	 -0.229186	 -0.001626	 0.604997	 -0.144027	 0.783091	 1
1462069013.196	 6	 0.591282	 -1.156868	 2.210387	 1.283958	 -0.155150	 -0.228743	 0.006466	 0.600164	 -0.137228	 0.787991	 1
1462069013.206	 6	 0.559657	 -1.300363	 2.210393	 1.271480	 -0.132254	 -0.227791	 0.014510	 0.594680	 -0.130228	 0.793213	 1
1462069013.216	 6	 0.462602	 -1.407361	 2.083417	 1.257847	 -0.110553	 -0.226072	 0.021861	 0.588667	 -0.123368	 0.798607	 1
1462069013.226	 6	 0.348445	 -1.529122	 1.967110	 1.243209	 -0.090503	 -0.223342	 0.028284	 0.582219	 -0.116680	 0.804119	 1
1462069013.236	 6	 0.355870	 -1.763234	 1.965965	 1.226427	 -0.070859	 -0.220156	 0.034389	 0.574839	 -0.110046	 0.810104	 1
1462069013.246	 6	 0.424685	 -1.926830	 2.021394	 1.207683	 -0.050634	 -0.217011	 0.040754	 0.566545	 -0.103403	 0.816501	 1
1462069013.256	 6	 0.513386	 -1.952167	 2.083266	 1.188246	 -0.029606	 -0.214052	 0.047595	 0.557829	 -0.096746	 0.822923	 1
1462069013.266	 6	 0.628096	 -1.919920	 2.176355	 1.169090	 -0.007462	 -0.211347	 0.055110	 0.549066	 -0.090011	 0.829088	 1
1462069013.276	 6	 0.857388	 -2.055837	 2.299919	 1.148923	 0.016499	 -0.209527	 0.063708	 0.539661	 -0.083326	 0.835323	 1
1462069013.286	 6	 1.143197	 -2.195161	 2.416565	 1.127320	 0.042661	 -0.209246	 0.073715	 0.529359	 -0.076924	 0.841682	 1
1462069013.296	 6	 1.427100	 -2.667114	 2.717707	 1.101951	 0.072224	 -0.209867	 0.085390	 0.517077	 -0.070386	 0.848755	 1
1462069013.306	 6	 1.669464	 -2.895383	 3.018281	 1.073437	 0.105854	 -0.210441	 0.098839	 0.503004	 -0.063232	 0.856282	 1
1462069013.316	 6	 1.763966	 -2.846079	 3.108506	 1.044733	 0.141473	 -0.210506	 0.113199	 0.488495	 -0.055752	 0.863394	 1
1462069013.326	 6	 1.682847	 -2.699292	 2.930465	 1.017274	 0.175926	 -0.209838	 0.127110	 0.474401	 -0.048569	 0.869728	 1
1462069013.336	 6	 1.509083	 -2.574901	 2.560118	 0.991010	 0.206708	 -0.208647	 0.139518	 0.460916	 -0.042333	 0.875385	 1
1462069013.346	 6	 1.359223	 -2.530830	 2.123805	 0.965465	 0.233009	 -0.207724	 0.150203	 0.447896	 -0.037537	 0.880579	 1
1462069013.356	 6	 1.244267	 -2.596043	 1.738393	 0.939675	 0.255296	 -0.207499	 0.159403	 0.434888	 -0.034265	 0.885601	 1
1462069013.366	 6	 1.144531	 -2.706136	 1.477125	 0.912970	 0.274569	 -0.207631	 0.167429	 0.421568	 -0.032143	 0.890626	 1
1462069013.376	 6	 1.087888	 -2.855686	 1.365388	 0.884787	 0.292230	 -0.207595	 0.174755	 0.407629	 -0.030644	 0.895745	 1
1462069013.386	 6	 1.102184	 -2.964457	 1.332278	 0.855291	 0.309502	 -0.207321	 0.181902	 0.393061	 -0.029450	 0.900859	 1
1462069013.396	 6	 1.146751	 -3.011446	 1.323993	 0.825160	 0.326942	 -0.206926	 0.189151	 0.378115	 -0.028444	 0.905782	 1
1462069013.406	 6	 1.210694	 -3.066624	 1.367684	 0.794428	 0.344945	 -0.206196	 0.196639	 0.362801	 -0.027456	 0.910470	 1
1462069013.416	 6	 1.310515	 -3.023695	 1.461002	 0.763506	 0.364175	 -0.204884	 0.204635	 0.347283	 -0.026224	 0.914785	 1
1462069013.426	 6	 1.430305	 -2.772762	 1.498530	 0.734482	 0.384619	 -0.203357	 0.213233	 0.332496	 -0.024721	 0.918350	 1
1462069013.436	 6	 1.525664	 -2.406611	 1.427569	 0.709095	 0.405495	 -0.202307	 0.222211	 0.319248	 -0.023212	 0.920958	 1
1462069013.446	 6	 1.564178	 -2.026049	 1.267713	 0.687859	 0.425866	 -0.202266	 0.231209	 0.307803	 -0.022008	 0.922667	 1
1462069013.456	 6	 1.578909	 -1.644916	 1.030269	 0.671122	 0.444995	 -0.203805	 0.239950	 0.298320	 -0.021396	 0.923564	 1
1462069013.466	 6	 1.565533	 -1.320244	 0.769098	 0.658714	 0.462508	 -0.207282	 0.248286	 0.290698	 -0.021556	 0.923788	 1
1462069013.476	 6	 1.530222	 -1.126285	 0.514362	 0.649442	 0.478258	 -0.212615	 0.256101	 0.284397	 -0.022560	 0.923592	 1
1462069013.486	 6	 1.503541	 -0.960654	 0.316837	 0.642753	 0.492458	 -0.219643	 0.263452	 0.279153	 -0.024323	 0.923079	 1
1462069013.496	 6	 1.484246	 -0.917519	 0.243869	 0.637303	 0.505934	 -0.227474	 0.270567	 0.274381	 -0.026447	 0.922393	 1
1462069013.506	 6	 1.426403	 -0.997884	 0.285190	 0.631147	 0.519153	 -0.234761	 0.277447	 0.269325	 -0.028485	 0.921779	 1
1462069013.516	 6	 1.359906	 -1.092144	 0.313667	 0.623663	 0.532129	 -0.241207	 0.284051	 0.263748	 -0.030396	 0.921319	 1
1462069013.526	 6	 1.279517	 -1.132617	 0.273492	 0.615546	 0.544385	 -0.247305	 0.290243	 0.257956	 -0.032394	 0.920961	 1
1462069013.536	 6	 1.173405	 -1.202742	 0.240724	 0.606737	 0.555642	 -0.253043	 0.295895	 0.251958	 -0.034528	 0.920745	 1
1462069013.546	 6	 1.041661	 -1.339261	 0.282166	 0.596162	 0.566023	 -0.257640	 0.300950	 0.245375	 -0.036582	 0.920805	 1
1462069013.556	 6	 0.917441	 -1.523157	 0.393441	 0.582877	 0.575917	 -0.260331	 0.305478	 0.237862	 -0.038295	 0.921216	 1
1462069013.566	 7	 0.806018	 -1.723980	 0.522566	 0.566406	 0.585577	 -0.260831	 0.309565	 0.229229	 -0.039586	 0.921985	 1
1462069013.586	 7	 0.589084	 -1.949550	 0.716324	 0.525748	 0.603650	 -0.255680	 0.316341	 0.209489	 -0.040932	 0.924320	 1
1462069013.596	 7	 0.539218	 -1.926731	 0.762798	 0.503675	 0.612129	 -0.250978	 0.319248	 0.199213	 -0.041088	 0.925584	 1
1462069013.606	 7	 0.531198	 -1.822428	 0.769168	 0.482117	 0.620433	 -0.245728	 0.322065	 0.189292	 -0.041004	 0.926694	 1
1462069013.616	 7	 0.570207	 -1.664350	 0.729800	 0.462101	 0.628779	 -0.240708	 0.324988	 0.180059	 -0.040842	 0.927520	 1
1462069013.626	 7	 0.638146	 -1.456582	 0.660801	 0.444495	 0.637331	 -0.236513	 0.328156	 0.171809	 -0.040709	 0.927975	 1
1462069013.636	 7	 0.686105	 -1.191278	 0.597841	 0.429892	 0.646038	 -0.233156	 0.331547	 0.164818	 -0.040514	 0.928046	 1
1462069013.646	 7	 0.718121	 -0.925809	 0.551008	 0.418327	 0.654810	 -0.230396	 0.335092	 0.159150	 -0.040133	 0.927779	 1
1462069013.656	 7	 0.761649	 -0.711400	 0.507862	 0.409363	 0.663761	 -0.228195	 0.338824	 0.154594	 -0.039596	 0.927217	 1
1462069013.666	 7	 0.809300	 -0.532067	 0.469682	 0.402624	 0.672977	 -0.226615	 0.342772	 0.150954	 -0.038973	 0.926391	 1
1462069013.676	 7	 0.841000	 -0.357858	 0.451844	 0.397862	 0.682431	 -0.225412	 0.346897	 0.148153	 -0.038182	 0.925341	 1
1462069013.686	 7	 0.864150	 -0.205790	 0.457320	 0.394730	 0.692111	 -0.224273	 0.351158	 0.146084	 -0.037131	 0.924104	 1
1462069013.696	 7	 0.877601	 -0.089719	 0.481730	 0.392694	 0.702015	 -0.222929	 0.355522	 0.144543	 -0.035781	 0.922730	 1
1462069013.706	 7	 0.875048	 0.013752	 0.522148	 0.391406	 0.712068	 -0.221113	 0.359928	 0.143425	 -0.034072	 0.921260	 1
1462069013.716	 7	 0.857547	 0.111980	 0.566911	 0.390671	 0.722166	 -0.218658	 0.364312	 0.142681	 -0.031972	 0.919726	 1
1462069013.726	 7	 0.809928	 0.176122	 0.592435	 0.390280	 0.732027	 -0.215590	 0.368545	 0.142235	 -0.029559	 0.918188	 1
1462069013.736	 7	 0.711488	 0.125321	 0.587490	 0.389358	 0.741102	 -0.212013	 0.372374	 0.141717	 -0.027102	 0.916799	 1
1462069013.746	 7	 0.586606	 -0.084028	 0.562117	 0.386420	 0.748991	 -0.208026	 0.375610	 0.140464	 -0.024973	 0.915731	 1
1462069013.766	 8	 0.284647	 -0.658293	 0.451761	 0.371616	 0.760126	 -0.199481	 0.379864	 0.134401	 -0.022684	 0.914945	 1
1462069013.776	 8	 0.137340	 -0.860223	 0.413862	 0.360299	 0.763245	 -0.194907	 0.380841	 0.129848	 -0.022425	 0.915203	 1
1462069013.786	 8	 0.023731	 -0.948300	 0.395914	 0.347530	 0.765095	 -0.189948	 0.381217	 0.124806	 -0.022405	 0.915748	 1
1462069013.796	 8	 -0.055175	 -0.923699	 0.382975	 0.334562	 0.766031	 -0.184731	 0.381176	 0.119791	 -0.022397	 0.916435	 1
1462069013.806	 8	 -0.101754	 -0.833248	 0.370367	 0.322285	 0.766361	 -0.179416	 0.380876	 0.115152	 -0.022269	 0.917157	 1
1462069013.816	 8	 -0.123541	 -0.690750	 0.358028	 0.311334	 0.766337	 -0.174127	 0.380445	 0.111136	 -0.021930	 0.917840	 1
1462069013.826	 8	 -0.125949	 -0.518472	 0.353258	 0.302110	 0.766214	 -0.168938	 0.380005	 0.107897	 -0.021311	 0.918423	 1
1462069013.836	 8	 -0.163540	 -0.355524	 0.367890	 0.294432	 0.765850	 -0.163528	 0.379472	 0.105421	 -0.020315	 0.918953	 1
1462069013.846	 8	 -0.238866	 -0.285958	 0.396903	 0.287195	 0.764846	 -0.157402	 0.378624	 0.103320	 -0.018953	 0.919571	 1
1462069013.856	 8	 -0.279700	 -0.299002	 0.341718	 0.280217	 0.763246	 -0.151566	 0.377532	 0.101312	 -0.017715	 0.920267	 1
1462069013.866	 8	 -0.305788	 -0.321934	 0.249010	 0.273796	 0.761109	 -0.146834	 0.376263	 0.099376	 -0.016913	 0.921013	 1
1462069013.876	 8	 -0.316889	 -0.361698	 0.187989	 0.267656	 0.758602	 -0.142984	 0.374877	 0.097416	 -0.016482	 0.921795	 1
1462069013.886	 8	 -0.291765	 -0.419599	 0.133943	 0.261513	 0.756093	 -0.139938	 0.373531	 0.095296	 -0.016413	 0.922564	 1
1462069013.896	 8	 -0.249595	 -0.482877	 0.078633	 0.255371	 0.753813	 -0.137809	 0.372335	 0.092986	 -0.016741	 0.923277	 1
1462069013.906	 8	 -0.209385	 -0.511033	 0.025799	 0.249420	 0.751788	 -0.136530	 0.371297	 0.090587	 -0.017400	 0.923921	 1
1462069013.926	 9	 -0.084343	 -0.403508	 -0.056353	 0.240187	 0.748957	 -0.136536	 0.369913	 0.086470	 -0.019309	 0.924832	 1
1462069013.936	 9	 -0.011210	 -0.294082	 -0.044248	 0.237343	 0.748554	 -0.137092	 0.369724	 0.085074	 -0.020120	 0.925020	 1
1462069013.946	 9	 0.061984	 -0.182437	 -0.019334	 0.235595	 0.748911	 -0.137587	 0.369890	 0.084155	 -0.020647	 0.925026	 1
1462069013.956	 9	 0.124419	 -0.090954	 0.007617	 0.234706	 0.749980	 -0.137928	 0.370387	 0.083623	 -0.020898	 0.924870	 1
1462069013.966	 9	 0.175034	 -0.012239	 0.029224	 0.234523	 0.751617	 -0.138128	 0.371146	 0.083415	 -0.020915	 0.924584	 1
1462069013.976	 9	 0.220259	 0.051632	 0.055003	 0.234895	 0.753748	 -0.138134	 0.372128	 0.083472	 -0.020706	 0.924189	 1
1462069013.986	 9	 0.275030	 0.112206	 0.070011	 0.235823	 0.756438	 -0.138069	 0.373370	 0.083769	 -0.020323	 0.923669	 1
1462069013.996	 9	 0.325471	 0.163189	 0.080704	 0.237302	 0.759676	 -0.138032	 0.374868	 0.084285	 -0.019811	 0.923026	 1
1462069014.006	 9	 0.359802	 0.201370	 0.080764	 0.236774	 0.763832	 -0.136364	 0.376697	 0.084132	 -0.018861	 0.922315	 1
1462069014.016	 9	 0.381113	 0.204412	 0.068883	 0.239007	 0.767660	 -0.136614	 0.378482	 0.084910	 -0.018296	 0.921524	 1
1462069014.026	 9	 0.381991	 0.179813	 0.050529	 0.241236	 0.771512	 -0.137134	 0.380286	 0.085630	 -0.017850	 0.920723	 1
1462069014.036	 9	 0.357206	 0.142542	 0.034412	 0.243251	 0.775149	 -0.137841	 0.381997	 0.086225	 -0.017542	 0.919965	 1
1462069014.046	 9	 0.304623	 0.088376	 0.024781	 0.242882	 0.779650	 -0.137225	 0.384023	 0.085928	 -0.017019	 0.919159	 1
1462069014.056	 9	 0.226352	 0.009905	 0.025798	 0.243551	 0.782112	 -0.137742	 0.385174	 0.086002	 -0.016958	 0.918672	 1
1462069014.066	 9	 0.142694	 -0.080242	 0.027819	 0.243100	 0.783764	 -0.137931	 0.385931	 0.085668	 -0.017018	 0.918384	 1
1462069014.076	 9	 0.070809	 -0.158762	 0.024517	 0.241656	 0.784680	 -0.137871	 0.386334	 0.084966	 -0.017206	 0.918276	 1
1462069014.086	 9	 0.021455	 -0.206566	 0.013854	 0.237005	 0.787061	 -0.135910	 0.387297	 0.083081	 -0.017044	 0.918046	 1
1462069014.096	 9	 0.002112	 -0.220460	 -0.003159	 0.234806	 0.787106	 -0.135902	 0.387299	 0.082071	 -0.017463	 0.918128	 1
1462069014.106	 9	 0.007488	 -0.201423	 -0.015818	 0.232859	 0.787128	 -0.136094	 0.387300	 0.081139	 -0.017926	 0.918202	 1
1462069014.116	 9	 0.021589	 -0.151502	 -0.018664	 0.229410	 0.789109	 -0.134977	 0.388127	 0.079667	 -0.017951	 0.917981	 1
1462069014.126	 9	 0.042098	 -0.105809	 -0.015211	 0.226453	 0.791180	 -0.133865	 0.389001	 0.078417	 -0.017880	 0.917720	 1
1462069014.136	 9	 0.062529	 -0.078182	 -0.009795	 0.224170	 0.793335	 -0.133011	 0.389930	 0.077424	 -0.017794	 0.917411	 1
1462069014.146	 9	 0.070158	 -0.055777	 0.003142	 0.222910	 0.795355	 -0.132656	 0.390825	 0.076810	 -0.017748	 0.917083	 1
1462069014.156	 9	 0.074549	 -0.049247	 0.025551	 0.221867	 0.797324	 -0.132247	 0.391698	 0.076310	 -0.017639	 0.916754	 1
1462069014.166	 9	 0.073627	 -0.033167	 0.042765	 0.220847	 0.799038	 -0.131646	 0.392446	 0.075872	 -0.017454	 0.916474	 1
1462069014.176	 9	 0.074851	 -0.007582	 0.051521	 0.219814	 0.800367	 -0.130778	 0.393010	 0.075501	 -0.017176	 0.916268	 1
1462069014.186	 9	 0.089845	 0.007230	 0.047266	 0.218635	 0.801399	 -0.129700	 0.393429	 0.075120	 -0.016849	 0.916126	 1
1462069014.196	 9	 0.117602	 0.018765	 0.036474	 0.217349	 0.802151	 -0.128564	 0.393718	 0.074716	 -0.016534	 0.916040	 1
1462069014.206	 9	 0.153933	 0.045103	 0.017219	 0.215999	 0.803035	 -0.127385	 0.394066	 0.074286	 -0.016205	 0.915932	 1
1462069014.216	 9	 0.184964	 0.085231	 -0.009323	 0.215522	 0.804149	 -0.126785	 0.394547	 0.074130	 -0.015956	 0.915742	 1
1462069014.226	 9	 0.213955	 0.137135	 -0.026144	 0.215834	 0.805706	 -0.126583	 0.395251	 0.074235	 -0.015706	 0.915434	 1
1462069014.236	 9	 0.236692	 0.204090	 -0.023586	 0.217247	 0.807975	 -0.126767	 0.396301	 0.074731	 -0.015370	 0.914945	 1
1462069014.246	 9	 0.247647	 0.255101	 -0.012525	 0.219586	 0.810641	 -0.127155	 0.397545	 0.075589	 -0.014917	 0.914342	 1
1462069014.256	 9	 0.249837	 0.255193	 0.001312	 0.222295	 0.813196	 -0.127640	 0.398744	 0.076601	 -0.014438	 0.913743	 1
1462069014.266	 9	 0.241193	 0.220225	 0.015983	 0.224680	 0.815657	 -0.127987	 0.399891	 0.077495	 -0.013964	 0.913174	 1
1462069014.276	 9	 0.227153	 0.173565	 0.029527	 0.226641	 0.818095	 -0.128248	 0.401021	 0.078213	 -0.013534	 0.912624	 1
1462069014.286	 9	 0.200305	 0.122719	 0.047407	 0.227952	 0.820546	 -0.128262	 0.402141	 0.078681	 -0.013118	 0.912096	 1
1462069014.296	 9	 0.150983	 0.065497	 0.056898	 0.228299	 0.822859	 -0.127811	 0.403173	 0.078810	 -0.012693	 0.911635	 1
1462069014.306	 9	 0.089809	 -0.002443	 0.050406	 0.227701	 0.824499	 -0.127068	 0.403883	 0.078603	 -0.012369	 0.911344	 1
1462069014.316	 9	 0.028664	 -0.058730	 0.037628	 0.226408	 0.825548	 -0.126258	 0.404318	 0.078123	 -0.012194	 0.911194	 1
1462069014.326	 9	 -0.027086	 -0.098050	 0.019629	 0.225234	 0.825454	 -0.125857	 0.404253	 0.077674	 -0.012254	 0.911261	 1
1462069014.336	 9	 -0.061461	 -0.133157	 0.004681	 0.223769	 0.824946	 -0.125566	 0.404002	 0.077091	 -0.012450	 0.911419	 1
1462069014.346	 9	 -0.082912	 -0.152270	 0.000427	 0.222097	 0.824187	 -0.125298	 0.403638	 0.076422	 -0.012714	 0.911633	 1
