% Gyrometer data recorded with 'snsrlog'
% 
% 
% Label description:
% 	 0: Default Label
% 	 1: still_drop
% 	 2: walk_drop
% 	 3: other
% 	 4: dtw_same
% 	 5: dtw_diff
% 	 6: delete
% 	 7: steal
% 
% Column description:
% 	 1: Seconds.milliseconds since 1970
% 	 2: Number of skipped measurements
% 	 3: Gyro X
% 	 4: Gyro Y
% 	 5: Gyro Z
% 	 6: Roll of the device
% 	 7: Pitch of the device
% 	 8: Yaw of the device
% 	 9: Quaternion X
% 	 10: Quaternion Y
% 	 11: Quaternion Z
% 	 12: Quaternion W
% 	 13: Label used for the current sample
% 
% 
1463623533.377	 0	 -2.428601	 -0.379552	 1.252973	 0.181958	 0.595887	 0.029578	 0.291024	 0.091164	 0.040746	 0.951490	 1
1463623533.387	 0	 -2.453648	 -0.375117	 1.121078	 0.167618	 0.573721	 0.048412	 0.279924	 0.087091	 0.046812	 0.954917	 1
1463623533.397	 0	 -2.355282	 -0.135697	 0.882653	 0.157190	 0.551704	 0.064044	 0.268968	 0.084200	 0.052085	 0.958047	 1
1463623533.407	 0	 -2.145898	 0.192036	 0.547098	 0.152481	 0.530910	 0.075339	 0.258633	 0.083298	 0.056204	 0.960735	 1
1463623533.417	 0	 -1.878325	 0.467011	 0.146601	 0.153381	 0.512048	 0.081591	 0.249259	 0.084354	 0.058725	 0.962967	 1
1463623533.427	 0	 -1.619751	 0.637833	 -0.246261	 0.158804	 0.495204	 0.082862	 0.240913	 0.086952	 0.059452	 0.964814	 1
1463623533.437	 0	 -1.424094	 0.748818	 -0.556003	 0.167272	 0.479921	 0.080149	 0.233392	 0.090568	 0.058618	 0.966379	 1
1463623533.447	 0	 -1.286351	 0.936255	 -0.760085	 0.178564	 0.465714	 0.074770	 0.226436	 0.095287	 0.056784	 0.967689	 1
1463623533.457	 0	 -1.192806	 1.171354	 -0.863156	 0.192633	 0.452228	 0.068035	 0.219836	 0.101255	 0.054539	 0.968734	 1
1463623533.467	 0	 -1.112783	 1.440872	 -0.918896	 0.209516	 0.439327	 0.060701	 0.213510	 0.108583	 0.052229	 0.969482	 1
1463623533.477	 0	 -1.042103	 1.758345	 -0.965583	 0.229482	 0.426927	 0.052978	 0.207416	 0.117426	 0.049960	 0.969894	 1
1463623533.487	 0	 -1.013456	 2.205775	 -1.002168	 0.253553	 0.414676	 0.045060	 0.201364	 0.128298	 0.047890	 0.969896	 1
1463623533.497	 0	 -1.042829	 2.754777	 -0.989343	 0.282669	 0.402098	 0.037563	 0.195079	 0.141716	 0.046344	 0.969388	 1
1463623533.507	 0	 -1.135226	 3.289092	 -0.973975	 0.316766	 0.388618	 0.031021	 0.188249	 0.157692	 0.045478	 0.968312	 1
1463623533.517	 0	 -1.211172	 3.728372	 -1.003330	 0.355195	 0.374067	 0.025168	 0.180821	 0.175874	 0.045017	 0.966616	 1
1463623533.527	 0	 -1.230107	 4.066192	 -1.067165	 0.397057	 0.358768	 0.019544	 0.173014	 0.195762	 0.044615	 0.964237	 1
1463623533.537	 0	 -1.165919	 4.400394	 -1.156269	 0.442188	 0.343335	 0.013682	 0.165185	 0.217209	 0.044037	 0.961038	 1
1463623533.557	 1	 -0.786878	 5.227078	 -1.553669	 0.545309	 0.313337	 -0.002532	 0.150601	 0.265800	 0.040812	 0.951317	 1
1463623533.567	 1	 -0.506680	 5.828236	 -1.849994	 0.605670	 0.298816	 -0.014833	 0.144262	 0.293843	 0.037391	 0.944164	 1
1463623533.577	 1	 -0.182965	 6.597388	 -2.136609	 0.674176	 0.284327	 -0.030497	 0.138688	 0.325327	 0.032611	 0.934807	 1
1463623533.587	 1	 0.142607	 7.257415	 -2.363506	 0.750349	 0.269698	 -0.049112	 0.133967	 0.359927	 0.026610	 0.922928	 1
1463623533.597	 1	 0.404890	 7.552352	 -2.506923	 0.830670	 0.254532	 -0.069658	 0.129998	 0.395947	 0.019578	 0.908814	 1
1463623533.617	 2	 0.353426	 7.158202	 -2.905541	 0.987070	 0.216822	 -0.111150	 0.121300	 0.464941	 0.002549	 0.876989	 1
1463623533.627	 2	 0.291105	 7.055497	 -3.159605	 1.061765	 0.191904	 -0.130149	 0.115216	 0.497526	 -0.007418	 0.859731	 1
1463623533.637	 2	 0.407025	 6.980785	 -3.441605	 1.134958	 0.163617	 -0.149039	 0.108602	 0.529093	 -0.018770	 0.841376	 1
1463623533.647	 2	 0.646217	 7.069101	 -3.779647	 1.208298	 0.131811	 -0.168935	 0.101829	 0.560235	 -0.032004	 0.821428	 1
1463623533.657	 2	 0.987782	 7.146434	 -4.124011	 1.282077	 0.096427	 -0.190490	 0.095259	 0.590952	 -0.047441	 0.799656	 1
1463623533.677	 3	 1.576060	 6.677689	 -4.576852	 1.422891	 0.015391	 -0.236608	 0.082850	 0.647658	 -0.084405	 0.752696	 1
1463623533.687	 3	 1.785858	 6.160982	 -4.610131	 1.485813	 -0.028360	 -0.259173	 0.077046	 0.672042	 -0.104676	 0.729018	 1
1463623533.697	 3	 1.936005	 5.389634	 -4.581315	 1.540660	 -0.073083	 -0.280838	 0.071437	 0.692727	 -0.125569	 0.706582	 1
1463623533.707	 3	 1.850393	 4.463237	 -4.614768	 1.585899	 -0.118956	 -0.300131	 0.065076	 0.709410	 -0.146600	 0.686302	 1
1463623533.717	 3	 1.575936	 3.277184	 -4.596770	 1.619619	 -0.165565	 -0.315261	 0.056970	 0.721680	 -0.167024	 0.669354	 1
1463623533.727	 3	 1.241285	 2.105111	 -4.435307	 1.641473	 -0.211078	 -0.325981	 0.047205	 0.729587	 -0.186054	 0.656398	 1
1463623533.737	 3	 0.943067	 1.227237	 -4.317251	 1.654150	 -0.255097	 -0.332872	 0.036004	 0.734156	 -0.203574	 0.646743	 1
1463623533.747	 3	 0.834757	 0.642753	 -4.291905	 1.660521	 -0.298622	 -0.337770	 0.023747	 0.736380	 -0.220378	 0.639230	 1
1463623533.757	 3	 0.953054	 0.343868	 -4.245625	 1.662804	 -0.341862	 -0.343249	 0.011413	 0.736987	 -0.237240	 0.632801	 1
1463623533.767	 3	 1.214172	 0.229659	 -4.195674	 1.662453	 -0.384817	 -0.351289	 -0.000186	 0.736490	 -0.254693	 0.626669	 1
1463623533.777	 3	 1.524396	 0.311298	 -4.105960	 1.660583	 -0.427262	 -0.362899	 -0.010515	 0.735318	 -0.272900	 0.620261	 1
1463623533.787	 3	 1.828425	 0.645188	 -3.994661	 1.659417	 -0.468886	 -0.378310	 -0.019106	 0.734242	 -0.291784	 0.612687	 1
1463623533.797	 3	 2.093427	 1.048566	 -3.850402	 1.659944	 -0.509423	 -0.397328	 -0.025771	 0.733620	 -0.311172	 0.603580	 1
1463623533.807	 3	 2.282673	 1.437427	 -3.685370	 1.662253	 -0.548499	 -0.419299	 -0.030562	 0.733507	 -0.330713	 0.593012	 1
1463623533.817	 3	 2.370772	 1.703803	 -3.584542	 1.665938	 -0.586675	 -0.443113	 -0.034098	 0.733753	 -0.350227	 0.581192	 1
1463623533.827	 3	 2.398862	 1.803295	 -3.347262	 1.669640	 -0.622976	 -0.468041	 -0.036532	 0.733988	 -0.369140	 0.568914	 1
1463623533.837	 3	 2.423286	 1.666804	 -2.945886	 1.671131	 -0.655790	 -0.494229	 -0.037703	 0.733671	 -0.386932	 0.557305	 1
1463623533.847	 3	 2.459297	 1.402408	 -2.430700	 1.668569	 -0.683736	 -0.522024	 -0.037451	 0.732417	 -0.403253	 0.547311	 1
1463623533.857	 3	 2.570175	 0.928420	 -1.893603	 1.659652	 -0.706239	 -0.552589	 -0.035730	 0.729712	 -0.418253	 0.539729	 1
1463623533.867	 3	 2.458561	 0.423556	 -1.450775	 1.644455	 -0.723818	 -0.583955	 -0.033538	 0.725566	 -0.431644	 0.534896	 1
1463623533.877	 3	 2.158918	 0.115641	 -1.039708	 1.626945	 -0.736644	 -0.612978	 -0.031277	 0.720976	 -0.442817	 0.532098	 1
1463623533.887	 3	 1.788593	 -0.166967	 -0.706596	 1.609126	 -0.745367	 -0.637950	 -0.029309	 0.716394	 -0.451648	 0.530975	 1
1463623533.897	 3	 1.411507	 -0.438604	 -0.476701	 1.591577	 -0.751081	 -0.658264	 -0.028043	 0.711904	 -0.458369	 0.531322	 1
1463623533.917	 4	 0.772488	 -0.650405	 -0.168300	 1.560448	 -0.757041	 -0.685578	 -0.027676	 0.703898	 -0.466814	 0.534645	 1
1463623533.927	 4	 0.444407	 -0.529358	 0.110649	 1.549793	 -0.756615	 -0.692833	 -0.027468	 0.701149	 -0.468499	 0.536791	 1
1463623533.937	 4	 0.220229	 -0.373111	 0.445507	 1.543326	 -0.752931	 -0.696334	 -0.026443	 0.699485	 -0.468394	 0.539100	 1
1463623533.947	 4	 0.153375	 -0.311241	 0.736552	 1.538796	 -0.746216	 -0.698290	 -0.024420	 0.698325	 -0.467121	 0.541797	 1
1463623533.957	 4	 0.149788	 -0.360608	 0.967394	 1.534265	 -0.737018	 -0.699922	 -0.021614	 0.697145	 -0.465124	 0.545144	 1
1463623533.967	 4	 0.102164	 -0.420906	 1.139902	 1.529521	 -0.725999	 -0.700933	 -0.018410	 0.695868	 -0.462491	 0.549119	 1
1463623533.977	 4	 0.017309	 -0.448187	 1.303448	 1.525226	 -0.713380	 -0.700716	 -0.014941	 0.694661	 -0.459110	 0.553571	 1
1463623533.987	 4	 -0.057840	 -0.437353	 1.447015	 1.521707	 -0.699270	 -0.699305	 -0.011158	 0.693613	 -0.455008	 0.558341	 1
1463623533.997	 4	 -0.124702	 -0.401687	 1.498020	 1.519117	 -0.684437	 -0.696933	 -0.007222	 0.692775	 -0.450437	 0.563132	 1
1463623534.007	 4	 -0.195134	 -0.380389	 1.473253	 1.517305	 -0.669700	 -0.693679	 -0.003441	 0.692119	 -0.445619	 0.567787	 1
1463623534.017	 4	 -0.288159	 -0.264451	 1.289700	 1.516848	 -0.656463	 -0.689411	 -0.000242	 0.691840	 -0.440883	 0.571821	 1
1463623534.027	 4	 -0.320601	 -0.004843	 1.142125	 1.519019	 -0.644921	 -0.684645	 0.002748	 0.692324	 -0.436423	 0.574643	 1
1463623534.037	 4	 -0.342324	 0.239002	 1.025218	 1.523702	 -0.634557	 -0.679817	 0.005825	 0.693549	 -0.432223	 0.576315	 1
1463623534.047	 4	 -0.346874	 0.529374	 0.877687	 1.531034	 -0.625562	 -0.674998	 0.008963	 0.695563	 -0.428352	 0.576738	 1
1463623534.057	 4	 -0.249574	 0.944731	 0.699525	 1.541546	 -0.618183	 -0.671231	 0.012536	 0.698517	 -0.425175	 0.575451	 1
1463623534.067	 4	 -0.027900	 1.437758	 0.575357	 1.555522	 -0.612274	 -0.669902	 0.017142	 0.702465	 -0.423041	 0.572089	 1
1463623534.077	 4	 0.368926	 1.780781	 0.663553	 1.570812	 -0.605974	 -0.673009	 0.023699	 0.706714	 -0.421992	 0.567377	 1
1463623534.087	 4	 0.819840	 1.978567	 0.839449	 1.585224	 -0.598079	 -0.681732	 0.032612	 0.710562	 -0.422003	 0.562096	 1
1463623534.097	 4	 1.099378	 2.079754	 0.972243	 1.598677	 -0.588885	 -0.694564	 0.043243	 0.713947	 -0.422697	 0.556540	 1
1463623534.107	 4	 1.199710	 2.023605	 1.043319	 1.611117	 -0.579025	 -0.709131	 0.054517	 0.716866	 -0.423577	 0.551101	 1
1463623534.117	 4	 1.198285	 1.833152	 1.180108	 1.621880	 -0.568117	 -0.724103	 0.065949	 0.719146	 -0.424193	 0.546389	 1
1463623534.127	 4	 1.091109	 1.390970	 1.321870	 1.629620	 -0.555955	 -0.738178	 0.076844	 0.720460	 -0.424202	 0.543217	 1
1463623534.137	 4	 0.884186	 0.695265	 1.370486	 1.632100	 -0.542816	 -0.750226	 0.086220	 0.720275	 -0.423527	 0.542582	 1
1463623534.147	 4	 0.440990	 0.057470	 1.242650	 1.630281	 -0.530362	 -0.757700	 0.092793	 0.719048	 -0.421991	 0.544319	 1
1463623534.157	 4	 -0.168084	 -0.218285	 1.104707	 1.628241	 -0.519106	 -0.758355	 0.096457	 0.718067	 -0.418963	 0.547307	 1
1463623534.167	 4	 -0.671811	 -0.210525	 1.091047	 1.628740	 -0.507873	 -0.752545	 0.098324	 0.718076	 -0.414033	 0.550705	 1
1463623534.177	 4	 -0.593930	 -0.029592	 1.138946	 1.631224	 -0.496262	 -0.745857	 0.100406	 0.718659	 -0.408617	 0.553606	 1
1463623534.187	 4	 -0.036394	 0.031851	 1.183688	 1.632119	 -0.484450	 -0.744447	 0.104118	 0.718523	 -0.404651	 0.556005	 1
1463623534.197	 4	 0.705738	 0.121182	 1.188716	 1.629953	 -0.472838	 -0.751078	 0.110026	 0.717086	 -0.403135	 0.557821	 1
1463623534.207	 4	 1.405053	 0.363305	 0.979188	 1.626387	 -0.463098	 -0.765575	 0.117821	 0.714824	 -0.404470	 0.558166	 1
1463623534.217	 4	 1.913810	 0.614381	 0.607275	 1.622829	 -0.456993	 -0.786074	 0.126495	 0.712275	 -0.408584	 0.556528	 1
1463623534.227	 4	 2.196910	 0.874731	 0.103127	 1.620389	 -0.455706	 -0.809968	 0.134927	 0.709966	 -0.414990	 0.552745	 1
1463623534.237	 4	 2.394366	 1.121130	 -0.452627	 1.619549	 -0.460000	 -0.835922	 0.142490	 0.708188	 -0.423435	 0.546689	 1
1463623534.247	 4	 2.586377	 1.279825	 -0.931350	 1.619499	 -0.469419	 -0.863837	 0.149151	 0.706727	 -0.433729	 0.538675	 1
1463623534.257	 4	 2.251346	 1.349627	 -1.267761	 1.620910	 -0.482552	 -0.890204	 0.154313	 0.705956	 -0.444395	 0.529459	 1
1463623534.267	 4	 1.200708	 1.034655	 -1.565287	 1.625012	 -0.498109	 -0.905843	 0.155482	 0.706843	 -0.452550	 0.520957	 1
1463623534.277	 4	 0.415926	 0.455690	 -1.785520	 1.628312	 -0.515885	 -0.911452	 0.152196	 0.708405	 -0.458694	 0.514392	 1
1463623534.287	 4	 0.035921	 0.193181	 -1.764404	 1.630589	 -0.533666	 -0.911463	 0.146697	 0.710073	 -0.463439	 0.509412	 1
1463623534.297	 4	 -0.023453	 0.224639	 -1.703912	 1.633455	 -0.550837	 -0.909941	 0.140997	 0.711897	 -0.467566	 0.504683	 1
1463623534.307	 4	 0.114153	 0.354716	 -1.604784	 1.636837	 -0.567086	 -0.909556	 0.136137	 0.713651	 -0.471679	 0.499688	 1
1463623534.317	 4	 0.397927	 0.525428	 -1.563036	 1.640303	 -0.582968	 -0.912047	 0.132455	 0.715154	 -0.476386	 0.494031	 1
1463623534.327	 4	 0.751925	 0.697663	 -1.576239	 1.643118	 -0.599120	 -0.918711	 0.130030	 0.716191	 -0.482199	 0.487491	 1
1463623534.337	 4	 1.053287	 0.800885	 -1.593888	 1.644984	 -0.615659	 -0.929219	 0.128632	 0.716735	 -0.489045	 0.480187	 1
1463623534.347	 4	 1.306681	 0.727362	 -1.656461	 1.644504	 -0.632940	 -0.943029	 0.127590	 0.716526	 -0.496928	 0.472625	 1
1463623534.357	 4	 1.418530	 0.648632	 -1.614472	 1.641391	 -0.650277	 -0.959079	 0.126659	 0.715561	 -0.505392	 0.465305	 1
1463623534.367	 4	 1.211416	 0.944004	 -1.447924	 1.640723	 -0.666062	 -0.973960	 0.126435	 0.715180	 -0.512897	 0.457677	 1
1463623534.377	 4	 0.821687	 1.484145	 -1.336125	 1.647718	 -0.680237	 -0.984398	 0.127150	 0.716731	 -0.518395	 0.448771	 1
1463623534.387	 4	 0.573761	 1.659122	 -1.361114	 1.660074	 -0.694180	 -0.990979	 0.127996	 0.719639	 -0.522567	 0.438932	 1
1463623534.397	 4	 0.439189	 1.483391	 -1.447905	 1.672604	 -0.708814	 -0.995339	 0.127905	 0.722646	 -0.526377	 0.429361	 1
1463623534.407	 4	 0.204499	 1.352595	 -1.538734	 1.685440	 -0.724172	 -0.996779	 0.126638	 0.725814	 -0.529710	 0.420196	 1
1463623534.417	 4	 -0.215337	 1.343537	 -1.637476	 1.701512	 -0.740029	 -0.992788	 0.124127	 0.729876	 -0.531850	 0.411108	 1
1463623534.437	 5	 -1.259802	 1.223038	 -1.955626	 1.749520	 -0.773355	 -0.961302	 0.114211	 0.741998	 -0.531169	 0.392753	 1
1463623534.447	 5	 -1.682865	 0.606015	 -2.144193	 1.776928	 -0.790912	 -0.933696	 0.105414	 0.748900	 -0.528898	 0.385101	 1
1463623534.457	 5	 -1.844726	 -0.576047	 -2.263556	 1.797772	 -0.808851	 -0.901155	 0.092836	 0.754357	 -0.526437	 0.381039	 1
1463623534.467	 5	 -1.598162	 -1.933842	 -2.250628	 1.804694	 -0.826995	 -0.869630	 0.076864	 0.756675	 -0.525065	 0.381892	 1
1463623534.477	 5	 -1.128756	 -2.694206	 -2.191450	 1.798120	 -0.845594	 -0.843951	 0.059397	 0.755787	 -0.525443	 0.386222	 1
1463623534.487	 5	 -0.771545	 -2.360792	 -2.124315	 1.787936	 -0.864616	 -0.824164	 0.043061	 0.753690	 -0.527046	 0.390282	 1
1463623534.497	 5	 -0.518103	 -1.208881	 -2.018818	 1.784593	 -0.883376	 -0.808523	 0.030171	 0.752599	 -0.529142	 0.390759	 1
1463623534.507	 5	 -0.194264	 0.151380	 -1.901338	 1.791368	 -0.901628	 -0.797514	 0.021877	 0.753248	 -0.531859	 0.386349	 1
1463623534.517	 5	 0.281586	 1.155977	 -1.779965	 1.804017	 -0.919611	 -0.793320	 0.017839	 0.754800	 -0.535805	 0.377983	 1
1463623534.527	 5	 0.829997	 1.726243	 -1.681384	 1.816463	 -0.937822	 -0.797812	 0.017010	 0.756071	 -0.541461	 0.367270	 1
1463623534.537	 5	 1.316612	 2.065052	 -1.551379	 1.825635	 -0.956192	 -0.811006	 0.018590	 0.756529	 -0.548698	 0.355314	 1
1463623534.547	 5	 1.684656	 2.308040	 -1.335973	 1.830937	 -0.973772	 -0.831972	 0.022337	 0.756176	 -0.556963	 0.342769	 1
1463623534.557	 5	 1.835304	 2.352039	 -1.074697	 1.832650	 -0.989463	 -0.858154	 0.027664	 0.755191	 -0.565430	 0.330470	 1
1463623534.567	 5	 1.916040	 2.283474	 -0.817058	 1.830931	 -1.002862	 -0.887657	 0.033982	 0.753672	 -0.573654	 0.318976	 1
1463623534.577	 5	 1.965191	 2.124211	 -0.612210	 1.825288	 -1.014188	 -0.920027	 0.040863	 0.751553	 -0.581640	 0.308533	 1
1463623534.587	 5	 1.923178	 1.783189	 -0.574519	 1.815833	 -1.024512	 -0.953187	 0.047169	 0.748859	 -0.589366	 0.299386	 1
1463623534.597	 5	 1.778138	 1.304506	 -0.787665	 1.803495	 -1.035781	 -0.984268	 0.051427	 0.745750	 -0.596875	 0.291466	 1
1463623534.607	 5	 1.516688	 0.805084	 -1.267498	 1.790572	 -1.050379	 -1.009963	 0.052285	 0.742609	 -0.604174	 0.284203	 1
1463623534.617	 5	 1.131066	 0.370713	 -1.920429	 1.780468	 -1.070119	 -1.026995	 0.048969	 0.739971	 -0.611083	 0.276807	 1
1463623534.627	 5	 0.676791	 0.071760	 -2.554450	 1.776590	 -1.095260	 -1.032928	 0.041587	 0.738273	 -0.617252	 0.268746	 1
1463623534.637	 5	 0.281603	 -0.033854	 -3.050768	 1.781266	 -1.124751	 -1.027512	 0.031196	 0.737625	 -0.622511	 0.259645	 1
1463623534.647	 5	 0.009324	 -0.008907	 -3.387078	 1.795175	 -1.157255	 -1.011972	 0.018993	 0.737798	 -0.626985	 0.249367	 1
1463623534.657	 5	 -0.112988	 0.165137	 -3.489904	 1.817891	 -1.190899	 -0.988556	 0.006376	 0.738450	 -0.630874	 0.238010	 1
1463623534.667	 5	 -0.059622	 0.485219	 -3.330723	 1.846998	 -1.223344	 -0.961720	 -0.004936	 0.739191	 -0.634486	 0.225829	 1
1463623534.677	 5	 0.061395	 0.828008	 -3.093054	 1.879706	 -1.253633	 -0.934908	 -0.014211	 0.739734	 -0.638113	 0.213081	 1
1463623534.687	 5	 0.160886	 1.124129	 -2.846039	 1.916206	 -1.281608	 -0.907824	 -0.021428	 0.740148	 -0.641704	 0.199847	 1
1463623534.697	 5	 0.306141	 1.136404	 -2.561565	 1.951855	 -1.307237	 -0.882762	 -0.027218	 0.740070	 -0.645401	 0.187121	 1
1463623534.707	 5	 0.382072	 0.877071	 -2.211872	 1.982757	 -1.329917	 -0.860718	 -0.032315	 0.739402	 -0.648999	 0.176185	 1
1463623534.717	 5	 0.394021	 0.469328	 -1.673297	 2.005129	 -1.348194	 -0.843676	 -0.036844	 0.738304	 -0.652125	 0.168172	 1
1463623534.727	 5	 0.332169	 0.005439	 -0.840452	 2.012205	 -1.359291	 -0.837644	 -0.040074	 0.737046	 -0.654331	 0.164341	 1
1463623534.737	 5	 0.239892	 -0.269713	 -0.100438	 2.004236	 -1.362808	 -0.843564	 -0.041554	 0.735959	 -0.655465	 0.164324	 1
1463623534.747	 5	 0.173020	 -0.343904	 0.348139	 1.987780	 -1.361293	 -0.856976	 -0.041561	 0.735111	 -0.655888	 0.166418	 1
1463623534.757	 5	 0.065099	 -0.316591	 0.550762	 1.970973	 -1.356950	 -0.870811	 -0.040669	 0.734632	 -0.655736	 0.169329	 1
1463623534.767	 5	 -0.092402	 -0.232027	 0.561447	 1.960572	 -1.351509	 -0.878855	 -0.039456	 0.734692	 -0.655016	 0.172117	 1
1463623534.777	 5	 -0.269753	 -0.146459	 0.409251	 1.960565	 -1.346408	 -0.877151	 -0.038518	 0.735385	 -0.653748	 0.174184	 1
1463623534.787	 5	 -0.325979	 -0.099117	 0.168253	 1.968490	 -1.343094	 -0.867918	 -0.038312	 0.736374	 -0.652358	 0.175257	 1
1463623534.797	 5	 -0.328860	 -0.136318	 0.024055	 1.979380	 -1.341327	 -0.855477	 -0.038810	 0.737347	 -0.651078	 0.175815	 1
1463623534.807	 5	 -0.341246	 -0.221817	 -0.037382	 1.991014	 -1.340195	 -0.841475	 -0.039849	 0.738264	 -0.649815	 0.176405	 1
1463623534.817	 5	 -0.346070	 -0.297680	 -0.087071	 2.002897	 -1.339440	 -0.826380	 -0.041341	 0.739124	 -0.648546	 0.177133	 1
1463623534.827	 5	 -0.329414	 -0.337504	 -0.145137	 2.014814	 -1.339201	 -0.810737	 -0.043194	 0.739888	 -0.647352	 0.177862	 1
1463623534.837	 5	 -0.281581	 -0.330467	 -0.194598	 2.049428	 -1.344134	 -0.772986	 -0.047422	 0.741284	 -0.646002	 0.175873	 1
1463623534.847	 5	 -0.208851	 -0.280823	 -0.212888	 2.059508	 -1.344931	 -0.759609	 -0.049357	 0.741711	 -0.645268	 0.176235	 1
1463623534.857	 5	 -0.127298	 -0.196944	 -0.200028	 2.067193	 -1.346040	 -0.749471	 -0.050955	 0.741940	 -0.644847	 0.176352	 1
1463623534.867	 5	 -0.055210	 -0.090637	 -0.178351	 2.072632	 -1.347309	 -0.742674	 -0.052083	 0.742020	 -0.644712	 0.176182	 1
1463623534.877	 5	 0.005183	 0.034727	 -0.170273	 2.066218	 -1.350521	 -0.748758	 -0.052807	 0.741046	 -0.645897	 0.175728	 1
1463623534.887	 5	 0.040957	 0.171665	 -0.192757	 2.070182	 -1.352325	 -0.746112	 -0.053019	 0.741003	 -0.646228	 0.174624	 1
1463623534.897	 5	 0.081018	 0.306379	 -0.217406	 2.074817	 -1.354521	 -0.744155	 -0.052867	 0.740962	 -0.646739	 0.172945	 1
1463623534.907	 5	 0.152006	 0.430555	 -0.225395	 2.078511	 -1.357124	 -0.744475	 -0.052289	 0.740819	 -0.647526	 0.170769	 1
1463623534.917	 5	 0.233654	 0.531471	 -0.209159	 2.079939	 -1.357810	 -0.748200	 -0.050640	 0.740913	 -0.648054	 0.168848	 1
1463623534.927	 5	 0.319558	 0.617596	 -0.178199	 2.078048	 -1.360893	 -0.756243	 -0.049147	 0.740401	 -0.649461	 0.166103	 1
1463623534.937	 5	 0.406542	 0.693198	 -0.131359	 2.072078	 -1.364011	 -0.769244	 -0.047164	 0.739667	 -0.651170	 0.163234	 1
1463623534.947	 5	 0.467875	 0.749822	 -0.071684	 2.062258	 -1.366929	 -0.786806	 -0.044710	 0.738764	 -0.653087	 0.160332	 1
1463623534.957	 5	 0.505632	 0.788412	 -0.015167	 2.049815	 -1.369397	 -0.807488	 -0.041859	 0.737799	 -0.655059	 0.157473	 1
1463623534.967	 5	 0.543193	 0.798174	 0.026162	 2.034035	 -1.371661	 -0.831727	 -0.038765	 0.736679	 -0.657169	 0.154697	 1
1463623534.977	 5	 0.615716	 0.776792	 0.040252	 2.014395	 -1.373915	 -0.859751	 -0.035587	 0.735331	 -0.659472	 0.152051	 1
1463623534.987	 5	 0.702973	 0.724410	 0.039005	 1.989559	 -1.376416	 -0.892610	 -0.032480	 0.733633	 -0.662082	 0.149583	 1
1463623534.997	 5	 0.702576	 0.649876	 0.027656	 1.962066	 -1.378997	 -0.927427	 -0.029639	 0.731758	 -0.664789	 0.147334	 1
1463623535.007	 5	 0.652025	 0.576548	 0.015691	 1.935526	 -1.381283	 -0.960506	 -0.027103	 0.729975	 -0.667296	 0.145321	 1
1463623535.017	 5	 0.571655	 0.516074	 0.004104	 1.911576	 -1.383272	 -0.990286	 -0.024881	 0.728378	 -0.669521	 0.143486	 1
1463623535.027	 5	 0.489239	 0.471584	 -0.004118	 1.890896	 -1.384951	 -1.016233	 -0.022912	 0.727012	 -0.671436	 0.141786	 1
1463623535.037	 5	 0.404811	 0.443165	 0.000589	 1.878700	 -1.388883	 -1.033381	 -0.022057	 0.725897	 -0.673207	 0.139208	 1
1463623535.047	 5	 0.303428	 0.424477	 0.022613	 1.865593	 -1.389713	 -1.051069	 -0.020327	 0.725086	 -0.674437	 0.137738	 1
1463623535.057	 5	 0.193357	 0.391832	 0.023268	 1.857602	 -1.390089	 -1.063271	 -0.018724	 0.724618	 -0.675259	 0.136396	 1
1463623535.067	 5	 0.089417	 0.338642	 -0.020018	 1.855262	 -1.390486	 -1.069244	 -0.017481	 0.724472	 -0.675710	 0.135100	 1
1463623535.077	 5	 0.000295	 0.264175	 -0.064767	 1.875147	 -1.397849	 -1.052454	 -0.019255	 0.724855	 -0.676018	 0.131207	 1
1463623535.087	 5	 -0.057703	 0.221492	 -0.107289	 1.881605	 -1.398633	 -1.048233	 -0.018858	 0.725149	 -0.675938	 0.130042	 1
1463623535.097	 5	 -0.095266	 0.204346	 -0.140160	 1.890754	 -1.399629	 -1.041059	 -0.018692	 0.725560	 -0.675733	 0.128831	 1
1463623535.107	 5	 -0.155305	 0.132311	 -0.124321	 1.902373	 -1.400444	 -1.030859	 -0.018733	 0.726115	 -0.675332	 0.127801	 1
1463623535.117	 5	 -0.229599	 -0.000488	 -0.134593	 1.894048	 -1.409100	 -1.038978	 -0.021399	 0.724646	 -0.677290	 0.125331	 1
1463623535.127	 5	 -0.261202	 -0.085944	 -0.197993	 1.911853	 -1.409976	 -1.020254	 -0.022444	 0.725449	 -0.676469	 0.124937	 1
1463623535.137	 5	 -0.265819	 -0.118197	 -0.247278	 1.931129	 -1.411271	 -0.999579	 -0.023845	 0.726248	 -0.675640	 0.124523	 1
1463623535.147	 5	 -0.268070	 -0.109967	 -0.286615	 1.951827	 -1.412896	 -0.977463	 -0.025406	 0.727044	 -0.674829	 0.123966	 1
1463623535.157	 5	 -0.271175	 -0.081324	 -0.298078	 1.962618	 -1.417593	 -0.965359	 -0.027636	 0.726893	 -0.675138	 0.122684	 1
1463623535.167	 5	 -0.268766	 -0.033381	 -0.285929	 1.985744	 -1.419209	 -0.941489	 -0.029016	 0.727734	 -0.674328	 0.121834	 1
1463623535.177	 5	 -0.249162	 0.023168	 -0.253601	 2.008241	 -1.420546	 -0.918817	 -0.030100	 0.728560	 -0.673560	 0.120881	 1
1463623535.187	 5	 -0.207027	 0.088305	 -0.201139	 2.028221	 -1.421543	 -0.899342	 -0.030774	 0.729307	 -0.672903	 0.119859	 1
1463623535.197	 5	 -0.139251	 0.143936	 -0.129817	 2.045599	 -1.423078	 -0.883147	 -0.031295	 0.729838	 -0.672541	 0.118517	 1
1463623535.207	 5	 -0.038505	 0.167624	 -0.049475	 2.053318	 -1.423387	 -0.877015	 -0.031030	 0.730146	 -0.672367	 0.117671	 1
1463623535.217	 5	 0.071563	 0.146484	 0.013315	 2.052259	 -1.423592	 -0.879652	 -0.030484	 0.730090	 -0.672551	 0.117111	 1
1463623535.227	 5	 0.179204	 0.102675	 0.029023	 2.043335	 -1.424044	 -0.889824	 -0.029908	 0.729646	 -0.673110	 0.116814	 1
1463623535.237	 5	 0.260055	 0.070359	 0.003460	 2.032644	 -1.428837	 -0.901494	 -0.030691	 0.728410	 -0.674661	 0.115370	 1
1463623535.247	 5	 0.304655	 0.057175	 -0.036485	 2.015312	 -1.430369	 -0.919595	 -0.030418	 0.727440	 -0.675763	 0.115112	 1
1463623535.257	 5	 0.309924	 0.074964	 -0.074732	 1.997912	 -1.432283	 -0.937858	 -0.030248	 0.726418	 -0.676941	 0.114685	 1
1463623535.267	 5	 0.282278	 0.117408	 -0.099675	 1.982580	 -1.434323	 -0.954404	 -0.030065	 0.725481	 -0.678064	 0.114027	 1
1463623535.277	 5	 0.236668	 0.181334	 -0.104016	 1.977908	 -1.436532	 -0.960913	 -0.029974	 0.724985	 -0.678797	 0.112839	 1
1463623535.287	 5	 0.186966	 0.257175	 -0.079431	 1.969206	 -1.438107	 -0.972088	 -0.029370	 0.724431	 -0.679600	 0.111714	 1
1463623535.297	 5	 0.143802	 0.342731	 -0.032431	 1.963058	 -1.439119	 -0.981526	 -0.028359	 0.724080	 -0.680229	 0.110420	 1
1463623535.307	 5	 0.111294	 0.425064	 0.014446	 1.958732	 -1.439542	 -0.989983	 -0.026903	 0.723899	 -0.680713	 0.108978	 1
1463623535.317	 5	 0.095714	 0.487080	 0.052495	 1.972626	 -1.436599	 -0.981046	 -0.024491	 0.724958	 -0.679849	 0.107895	 1
1463623535.327	 5	 0.037910	 0.413112	 0.096006	 1.970653	 -1.436077	 -0.987595	 -0.022625	 0.725004	 -0.680077	 0.106545	 1
1463623535.337	 5	 -0.185835	 -0.056593	 0.208686	 1.974656	 -1.433982	 -0.984401	 -0.021767	 0.725482	 -0.679551	 0.106825	 1
1463623535.347	 5	 -0.436085	 -0.753507	 0.366376	 1.984355	 -1.429489	 -0.968838	 -0.022725	 0.726487	 -0.677944	 0.109965	 1
1463623535.357	 5	 -0.563754	 -1.441547	 0.477253	 1.993044	 -1.423108	 -0.947125	 -0.025704	 0.727662	 -0.675551	 0.116096	 1
1463623535.367	 5	 -0.511582	 -1.943514	 0.506232	 1.993195	 -1.416357	 -0.928473	 -0.030368	 0.728429	 -0.673055	 0.124367	 1
1463623535.377	 5	 -0.548745	 -2.593173	 0.519694	 1.985745	 -1.409555	 -0.911798	 -0.036860	 0.728699	 -0.670439	 0.134722	 1
1463623535.387	 5	 -0.578751	 -3.162396	 0.627629	 1.972943	 -1.401735	 -0.893961	 -0.045245	 0.728615	 -0.667279	 0.147688	 1
1463623535.397	 5	 -0.604826	 -3.430830	 0.561413	 1.957437	 -1.393978	 -0.875341	 -0.054809	 0.728121	 -0.663810	 0.161840	 1
1463623535.407	 5	 -0.628301	 -3.157642	 0.236970	 1.950016	 -1.388607	 -0.849652	 -0.064970	 0.727541	 -0.660278	 0.174634	 1
1463623535.417	 5	 -0.619292	 -2.441153	 0.041064	 1.953239	 -1.385635	 -0.819615	 -0.073928	 0.727247	 -0.657045	 0.184224	 1
1463623535.427	 5	 -0.636923	 -1.635054	 0.017812	 1.965353	 -1.383056	 -0.788601	 -0.080461	 0.727597	 -0.654027	 0.190728	 1
1463623535.437	 5	 -0.699956	 -0.941654	 -0.017818	 1.987097	 -1.380420	 -0.755264	 -0.084722	 0.728754	 -0.651102	 0.194436	 1
1463623535.447	 5	 -0.800741	 -0.496505	 -0.127900	 2.019653	 -1.378038	 -0.716065	 -0.087758	 0.730659	 -0.648105	 0.195949	 1
1463623535.457	 5	 -0.816781	 -0.170851	 -0.254753	 2.059689	 -1.376332	 -0.672716	 -0.090194	 0.732968	 -0.645209	 0.195774	 1
1463623535.467	 5	 -0.682170	 0.142037	 -0.321223	 2.100058	 -1.375507	 -0.632247	 -0.091823	 0.735225	 -0.642883	 0.194201	 1
1463623535.477	 5	 -0.463388	 0.353201	 -0.300913	 2.133822	 -1.375451	 -0.600969	 -0.092481	 0.737054	 -0.641404	 0.191831	 1
1463623535.487	 5	 -0.191329	 0.515555	 -0.243154	 2.156821	 -1.376204	 -0.582380	 -0.092158	 0.738226	 -0.640907	 0.189124	 1
1463623535.497	 5	 0.067663	 0.630021	 -0.194253	 2.168437	 -1.377930	 -0.576708	 -0.090967	 0.738682	 -0.641396	 0.186238	 1
1463623535.507	 5	 0.283762	 0.734747	 -0.185569	 2.170947	 -1.380762	 -0.581332	 -0.089170	 0.738504	 -0.642742	 0.183147	 1
1463623535.517	 5	 0.427692	 0.945858	 -0.202975	 2.168254	 -1.384663	 -0.593073	 -0.086693	 0.737927	 -0.644791	 0.179422	 1
1463623535.527	 5	 0.415445	 1.277848	 -0.188056	 2.167480	 -1.388699	 -0.606135	 -0.083155	 0.737539	 -0.647047	 0.174507	 1
1463623535.537	 5	 0.196314	 1.072208	 -0.033526	 2.169988	 -1.390730	 -0.615208	 -0.079517	 0.737685	 -0.648496	 0.170146	 1
1463623535.547	 5	 0.233031	 1.049687	 0.102362	 2.168654	 -1.391353	 -0.627267	 -0.075662	 0.737907	 -0.649633	 0.166571	 1
1463623535.557	 5	 0.368205	 0.916833	 0.170289	 2.158247	 -1.391864	 -0.647505	 -0.071713	 0.737685	 -0.651061	 0.163702	 1
1463623535.567	 5	 0.534071	 0.785534	 0.171887	 2.138152	 -1.393127	 -0.676300	 -0.067984	 0.736795	 -0.653039	 0.161401	 1
1463623535.577	 5	 0.620759	 0.610853	 0.172704	 2.110841	 -1.394853	 -0.710663	 -0.064738	 0.735397	 -0.655344	 0.159762	 1
1463623535.587	 5	 0.612785	 0.496077	 0.182363	 2.080625	 -1.396406	 -0.746634	 -0.061876	 0.733832	 -0.657644	 0.158637	 1
1463623535.597	 5	 0.521819	 0.439990	 0.184764	 2.052640	 -1.397383	 -0.779621	 -0.059278	 0.732439	 -0.659644	 0.157764	 1
1463623535.607	 5	 0.404156	 0.408199	 0.153520	 2.030450	 -1.397899	 -0.806361	 -0.056970	 0.731379	 -0.661225	 0.156909	 1
1463623535.617	 5	 0.317292	 0.318054	 0.154503	 2.012935	 -1.398056	 -0.827664	 -0.055026	 0.730578	 -0.662438	 0.156216	 1
1463623535.627	 5	 0.184815	 0.015704	 0.208263	 1.997500	 -1.397177	 -0.844408	 -0.053764	 0.729971	 -0.663130	 0.156557	 1
1463623535.637	 5	 0.025298	 -0.235551	 0.110329	 1.989095	 -1.396101	 -0.851017	 -0.053816	 0.729661	 -0.663186	 0.157747	 1
1463623535.647	 5	 -0.083432	 -0.281239	 -0.073526	 1.989839	 -1.396119	 -0.847446	 -0.054878	 0.729620	 -0.662927	 0.158654	 1
1463623535.657	 5	 -0.213086	 -0.269162	 -0.220426	 2.000894	 -1.397075	 -0.833431	 -0.056616	 0.729952	 -0.662335	 0.158986	 1
1463623535.667	 5	 -0.297658	 -0.258852	 -0.299526	 2.019779	 -1.398451	 -0.811639	 -0.058731	 0.730595	 -0.661461	 0.158907	 1
1463623535.677	 5	 -0.288158	 -0.278050	 -0.302984	 2.040212	 -1.399879	 -0.788128	 -0.060988	 0.731267	 -0.660538	 0.158805	 1
1463623535.687	 5	 -0.218757	 -0.303489	 -0.263331	 2.058930	 -1.401409	 -0.766187	 -0.063276	 0.731796	 -0.659743	 0.158775	 1
1463623535.697	 5	 -0.095813	 -0.283415	 -0.232242	 2.069393	 -1.402895	 -0.752597	 -0.065221	 0.731917	 -0.659361	 0.159019	 1
1463623535.707	 5	 0.073207	 -0.219900	 -0.205413	 2.071509	 -1.404899	 -0.748060	 -0.066751	 0.731561	 -0.659561	 0.159192	 1
1463623535.717	 5	 0.234618	 -0.189304	 -0.174560	 2.064461	 -1.407445	 -0.753244	 -0.067903	 0.730698	 -0.660359	 0.159361	 1
1463623535.727	 5	 0.349024	 -0.181994	 -0.141338	 2.015432	 -1.409188	 -0.800178	 -0.067509	 0.728044	 -0.662873	 0.161227	 1
1463623535.737	 5	 0.391826	 -0.179801	 -0.115046	 1.995107	 -1.411911	 -0.818957	 -0.068230	 0.726576	 -0.664315	 0.161607	 1
1463623535.747	 5	 0.362053	 -0.179519	 -0.088140	 1.974204	 -1.414278	 -0.838288	 -0.068874	 0.725157	 -0.665684	 0.162078	 1
1463623535.757	 5	 0.306973	 -0.114284	 -0.061475	 1.955696	 -1.416129	 -0.855655	 -0.069309	 0.723959	 -0.666850	 0.162452	 1
1463623535.767	 5	 0.288506	 0.026294	 -0.041831	 1.932097	 -1.414367	 -0.879233	 -0.068111	 0.723116	 -0.667595	 0.163649	 1
1463623535.777	 5	 0.296860	 0.210301	 -0.038060	 1.917035	 -1.415739	 -0.896130	 -0.067464	 0.722256	 -0.668742	 0.163033	 1
1463623535.787	 5	 0.307230	 0.378270	 -0.045113	 1.902887	 -1.417155	 -0.913872	 -0.066239	 0.721498	 -0.669988	 0.161771	 1
1463623535.797	 5	 0.313057	 0.488813	 -0.052662	 1.889414	 -1.418632	 -0.932207	 -0.064612	 0.720810	 -0.671305	 0.160027	 1
1463623535.807	 5	 0.312145	 0.527124	 -0.052303	 1.891679	 -1.419981	 -0.935554	 -0.063073	 0.720913	 -0.671898	 0.157670	 1
1463623535.817	 5	 0.297006	 0.477246	 -0.043043	 1.878642	 -1.421351	 -0.953758	 -0.061334	 0.720274	 -0.673174	 0.155820	 1
1463623535.827	 5	 0.259186	 0.362620	 -0.024597	 1.865877	 -1.422430	 -0.970627	 -0.059908	 0.719657	 -0.674290	 0.154396	 1
1463623535.837	 5	 0.176540	 0.254442	 -0.015292	 1.856076	 -1.423167	 -0.983372	 -0.058868	 0.719189	 -0.675110	 0.153390	 1
1463623535.847	 5	 0.056634	 0.198313	 -0.035083	 1.878898	 -1.426732	 -0.962956	 -0.059657	 0.719868	 -0.674867	 0.150950	 1
1463623535.857	 5	 -0.026715	 0.161449	 -0.018714	 1.881822	 -1.426979	 -0.961739	 -0.059188	 0.720019	 -0.674907	 0.150231	 1
1463623535.867	 5	 -0.058723	 0.107777	 0.047143	 1.885874	 -1.426518	 -0.958872	 -0.058706	 0.720300	 -0.674728	 0.149883	 1
1463623535.877	 5	 -0.051523	 0.032396	 0.068760	 1.888652	 -1.425719	 -0.956623	 -0.058324	 0.720548	 -0.674494	 0.149890	 1
1463623535.887	 5	 -0.003101	 -0.108162	 0.065954	 1.885534	 -1.425720	 -0.959025	 -0.058511	 0.720384	 -0.674583	 0.150202	 1
1463623535.897	 5	 0.043232	 -0.253894	 0.082312	 1.879515	 -1.425088	 -0.962881	 -0.058950	 0.720127	 -0.674582	 0.151267	 1
1463623535.907	 5	 0.055518	 -0.382466	 0.104455	 1.870532	 -1.424299	 -0.968434	 -0.059728	 0.719710	 -0.674595	 0.152874	 1
1463623535.917	 5	 0.046555	 -0.473901	 0.105814	 1.860643	 -1.423427	 -0.973839	 -0.060838	 0.719223	 -0.674558	 0.154882	 1
1463623535.927	 5	 0.021767	 -0.514316	 0.094982	 1.857707	 -1.423230	 -0.971817	 -0.062492	 0.718957	 -0.674275	 0.156681	 1
1463623535.937	 5	 -0.008148	 -0.523938	 0.087757	 1.850867	 -1.422382	 -0.973447	 -0.063938	 0.718575	 -0.674038	 0.158857	 1
1463623535.947	 5	 -0.035914	 -0.522838	 0.081615	 1.845934	 -1.421505	 -0.973139	 -0.065427	 0.718278	 -0.673700	 0.161010	 1
1463623535.957	 5	 -0.055111	 -0.516438	 0.076512	 1.840716	 -1.420676	 -0.973130	 -0.066919	 0.717957	 -0.673382	 0.163147	 1
1463623535.967	 5	 -0.058256	 -0.503672	 0.075593	 1.838015	 -1.419788	 -0.970731	 -0.068401	 0.717762	 -0.672939	 0.165205	 1
1463623535.977	 5	 -0.059238	 -0.487699	 0.077882	 1.835482	 -1.418894	 -0.968312	 -0.069831	 0.717577	 -0.672494	 0.167209	 1
1463623535.987	 5	 -0.066471	 -0.449284	 0.092157	 1.833413	 -1.417885	 -0.965748	 -0.071119	 0.717435	 -0.672029	 0.169132	 1
1463623535.997	 5	 -0.063908	 -0.383166	 0.118339	 1.822118	 -1.416047	 -0.972892	 -0.071755	 0.716949	 -0.671915	 0.171362	 1
1463623536.007	 5	 -0.038929	 -0.303364	 0.132719	 1.819679	 -1.414663	 -0.972075	 -0.072415	 0.716873	 -0.671519	 0.172949	 1
1463623536.017	 5	 -0.005449	 -0.215217	 0.127919	 1.816158	 -1.413369	 -0.973235	 -0.072759	 0.716762	 -0.671269	 0.174231	 1
1463623536.027	 5	 0.026825	 -0.151570	 0.117573	 1.811499	 -1.412250	 -0.976263	 -0.072872	 0.716595	 -0.671173	 0.175239	 1
1463623536.037	 5	 0.048342	 -0.101735	 0.103973	 1.812937	 -1.412674	 -0.973827	 -0.073401	 0.716583	 -0.671084	 0.175407	 1
1463623536.047	 5	 0.049469	 -0.074214	 0.086102	 1.807796	 -1.411914	 -0.978228	 -0.073301	 0.716380	 -0.671153	 0.176013	 1
1463623536.057	 5	 0.036605	 -0.066900	 0.062835	 1.803645	 -1.411342	 -0.981745	 -0.073247	 0.716208	 -0.671214	 0.176501	 1
1463623536.067	 5	 0.012973	 -0.080820	 0.040530	 1.801055	 -1.410935	 -0.983603	 -0.073317	 0.716093	 -0.671215	 0.176934	 1
1463623536.077	 5	 -0.016131	 -0.120239	 0.018001	 1.811787	 -1.412928	 -0.971936	 -0.074548	 0.716382	 -0.670919	 0.176373	 1
1463623536.087	 5	 -0.040999	 -0.171368	 -0.002508	 1.812280	 -1.412823	 -0.969842	 -0.075098	 0.716360	 -0.670734	 0.176932	 1
1463623536.097	 5	 -0.059498	 -0.234178	 -0.017852	 1.813696	 -1.412826	 -0.966193	 -0.075931	 0.716347	 -0.670465	 0.177647	 1
1463623536.107	 5	 -0.075819	 -0.289534	 -0.031014	 1.815761	 -1.412914	 -0.961301	 -0.077020	 0.716333	 -0.670123	 0.178519	 1
1463623536.117	 5	 -0.074878	 -0.317202	 -0.032353	 1.813061	 -1.413768	 -0.960759	 -0.078397	 0.715970	 -0.670118	 0.179398	 1
1463623536.127	 5	 -0.057751	 -0.313993	 -0.022881	 1.814123	 -1.413870	 -0.956473	 -0.079609	 0.715884	 -0.669792	 0.180421	 1
1463623536.137	 5	 -0.031927	 -0.280996	 -0.008944	 1.813774	 -1.413906	 -0.953885	 -0.080663	 0.715744	 -0.669550	 0.181401	 1
1463623536.147	 5	 -0.012433	 -0.234136	 0.007309	 1.812246	 -1.413828	 -0.952939	 -0.081488	 0.715576	 -0.669389	 0.182290	 1
1463623536.157	 5	 0.007021	 -0.183137	 0.007604	 1.809739	 -1.414499	 -0.953490	 -0.082349	 0.715290	 -0.669453	 0.182790	 1
1463623536.167	 5	 0.026418	 -0.141727	 0.005689	 1.806773	 -1.414486	 -0.954971	 -0.082807	 0.715081	 -0.669464	 0.183359	 1
1463623536.177	 5	 0.041463	 -0.115218	 0.000476	 1.803185	 -1.414560	 -0.957384	 -0.083170	 0.714843	 -0.669549	 0.183811	 1
1463623536.187	 5	 0.043620	 -0.105688	 -0.004794	 1.801439	 -1.415406	 -0.958120	 -0.083768	 0.714614	 -0.669689	 0.183921	 1
1463623536.197	 5	 0.036130	 -0.106750	 -0.007945	 1.800155	 -1.416108	 -0.958399	 -0.084328	 0.714425	 -0.669781	 0.184064	 1
1463623536.207	 5	 0.023268	 -0.113139	 -0.014294	 1.798635	 -1.416725	 -0.958836	 -0.084883	 0.714231	 -0.669862	 0.184265	 1
1463623536.217	 5	 0.015728	 -0.121679	 -0.021773	 1.796830	 -1.417276	 -0.959452	 -0.085448	 0.714027	 -0.669936	 0.184529	 1
1463623536.227	 5	 0.013604	 -0.118490	 -0.022789	 1.795191	 -1.417430	 -0.959898	 -0.085888	 0.713877	 -0.669933	 0.184916	 1
1463623536.237	 5	 0.007277	 -0.108844	 -0.015181	 1.793579	 -1.417450	 -0.960392	 -0.086258	 0.713746	 -0.669912	 0.185319	 1
1463623536.247	 5	 -0.000101	 -0.098117	 -0.005422	 1.790317	 -1.417372	 -0.962619	 -0.086530	 0.713549	 -0.669965	 0.185762	 1
1463623536.257	 5	 -0.005310	 -0.077848	 0.001212	 1.786662	 -1.417132	 -0.965397	 -0.086685	 0.713357	 -0.670025	 0.186211	 1
1463623536.267	 5	 -0.005101	 -0.043735	 0.012189	 1.783844	 -1.416842	 -0.967655	 -0.086729	 0.713225	 -0.670065	 0.186552	 1
1463623536.277	 5	 -0.002710	 -0.002160	 0.026413	 1.781385	 -1.416491	 -0.969954	 -0.086617	 0.713135	 -0.670114	 0.186770	 1
1463623536.287	 5	 0.008182	 0.035113	 0.037324	 1.780011	 -1.416050	 -0.971589	 -0.086349	 0.713127	 -0.670134	 0.186853	 1
1463623536.297	 5	 0.023222	 0.053173	 0.040558	 1.778119	 -1.415788	 -0.973994	 -0.086040	 0.713083	 -0.670234	 0.186805	 1
1463623536.307	 5	 0.033882	 0.056287	 0.034094	 1.777061	 -1.415790	 -0.975648	 -0.085805	 0.713055	 -0.670344	 0.186627	 1
1463623536.317	 5	 0.033790	 0.045582	 0.024397	 1.777163	 -1.415931	 -0.976089	 -0.085660	 0.713067	 -0.670412	 0.186398	 1
1463623536.327	 5	 0.026207	 0.031702	 0.013671	 1.778411	 -1.416100	 -0.975254	 -0.085595	 0.713129	 -0.670416	 0.186179	 1
1463623536.337	 5	 0.016465	 0.012510	 0.002915	 1.779705	 -1.416341	 -0.974176	 -0.085625	 0.713177	 -0.670410	 0.186003	 1
1463623536.347	 5	 0.006733	 -0.008772	 -0.002531	 1.781545	 -1.416481	 -0.972338	 -0.085710	 0.713254	 -0.670341	 0.185918	 1
1463623536.357	 5	 0.003446	 -0.027891	 -0.000551	 1.782921	 -1.416633	 -0.970755	 -0.085863	 0.713296	 -0.670279	 0.185909	 1
1463623536.367	 5	 0.007643	 -0.041739	 -0.001786	 1.783351	 -1.416846	 -0.969957	 -0.086074	 0.713278	 -0.670258	 0.185955	 1
1463623536.377	 5	 0.010804	 -0.048145	 -0.004008	 1.783149	 -1.417063	 -0.969711	 -0.086301	 0.713224	 -0.670263	 0.186041	 1
1463623536.387	 5	 0.013999	 -0.049218	 -0.004048	 1.782614	 -1.417279	 -0.969772	 -0.086530	 0.713153	 -0.670281	 0.186142	 1
1463623536.397	 5	 0.015107	 -0.043871	 0.000252	 1.782225	 -1.417430	 -0.969729	 -0.086725	 0.713098	 -0.670285	 0.186247	 1
1463623536.407	 5	 0.014084	 -0.034294	 0.000348	 1.781688	 -1.417553	 -0.969917	 -0.086878	 0.713042	 -0.670300	 0.186337	 1
1463623536.417	 5	 0.013024	 -0.029003	 -0.003858	 1.781257	 -1.417718	 -0.970060	 -0.087026	 0.712989	 -0.670322	 0.186390	 1
1463623536.427	 5	 0.007700	 -0.021579	 -0.009073	 1.781438	 -1.417881	 -0.969652	 -0.087165	 0.712970	 -0.670319	 0.186410	 1
1463623536.437	 5	 0.005577	 -0.016277	 -0.012203	 1.781947	 -1.418005	 -0.968981	 -0.087274	 0.712974	 -0.670299	 0.186414	 1
1463623536.447	 5	 0.005593	 -0.015190	 -0.008997	 1.782166	 -1.418131	 -0.968618	 -0.087371	 0.712965	 -0.670296	 0.186417	 1
1463623536.457	 5	 0.002373	 -0.018379	 -0.010065	 1.781649	 -1.418312	 -0.968955	 -0.087484	 0.712911	 -0.670334	 0.186431	 1
1463623536.467	 5	 0.003437	 -0.019446	 -0.010087	 1.780862	 -1.418580	 -0.969542	 -0.087627	 0.712833	 -0.670399	 0.186429	 1
1463623536.477	 5	 0.006655	 -0.015209	 -0.011145	 1.780506	 -1.418923	 -0.969738	 -0.087789	 0.712770	 -0.670459	 0.186381	 1
1463623536.487	 5	 0.008791	 -0.014159	 -0.012223	 1.779844	 -1.419260	 -0.970256	 -0.087938	 0.712693	 -0.670533	 0.186336	 1
1463623536.497	 5	 0.012007	 -0.013090	 -0.010112	 1.778905	 -1.419529	 -0.971068	 -0.088052	 0.712611	 -0.670612	 0.186313	 1
1463623536.507	 5	 0.012021	 -0.012010	 -0.007974	 1.778014	 -1.419815	 -0.971840	 -0.088170	 0.712530	 -0.670692	 0.186280	 1
1463623536.517	 5	 0.010984	 -0.006681	 -0.006853	 1.777489	 -1.420114	 -0.972297	 -0.088281	 0.712467	 -0.670760	 0.186218	 1
1463623536.527	 5	 0.009934	 -0.000318	 -0.009985	 1.777499	 -1.420386	 -0.972285	 -0.088372	 0.712437	 -0.670804	 0.186132	 1
1463623536.537	 5	 0.007798	 -0.000311	 -0.009970	 1.777844	 -1.420646	 -0.971946	 -0.088463	 0.712425	 -0.670831	 0.186040	 1
1463623536.547	 5	 0.004586	 -0.002429	 -0.009964	 1.778165	 -1.420868	 -0.971619	 -0.088545	 0.712416	 -0.670851	 0.185964	 1
1463623536.557	 5	 0.003497	 -0.009848	 -0.006826	 1.777646	 -1.420992	 -0.972058	 -0.088603	 0.712373	 -0.670889	 0.185962	 1
1463623536.567	 5	 0.004556	 -0.016195	 -0.001566	 1.776980	 -1.421046	 -0.972578	 -0.088659	 0.712328	 -0.670917	 0.186008	 1
1463623536.577	 5	 0.006709	 -0.016171	 0.002678	 1.775696	 -1.421119	 -0.973692	 -0.088717	 0.712250	 -0.670975	 0.186068	 1
1463623536.587	 5	 0.007813	 -0.008729	 0.002736	 1.774487	 -1.421202	 -0.974792	 -0.088758	 0.712177	 -0.671038	 0.186103	 1
1463623536.597	 5	 0.010008	 0.002973	 0.003889	 1.773651	 -1.421283	 -0.975637	 -0.088765	 0.712128	 -0.671092	 0.186091	 1
1463623536.607	 5	 0.011112	 0.012527	 0.001835	 1.773068	 -1.421423	 -0.976332	 -0.088759	 0.712089	 -0.671154	 0.186021	 1
1463623536.617	 5	 0.007912	 0.012537	 0.001860	 1.772530	 -1.421571	 -0.977001	 -0.088751	 0.712052	 -0.671216	 0.185940	 1
1463623536.627	 5	 0.006811	 0.007207	 -0.000315	 1.772209	 -1.421739	 -0.977410	 -0.088768	 0.712022	 -0.671268	 0.185864	 1
1463623536.637	 5	 0.002512	 -0.000219	 0.000717	 1.772025	 -1.421859	 -0.977612	 -0.088798	 0.712000	 -0.671298	 0.185823	 1
1463623536.647	 5	 -0.001785	 -0.005532	 -0.000363	 1.771679	 -1.421986	 -0.977909	 -0.088850	 0.711967	 -0.671330	 0.185806	 1
1463623536.657	 5	 -0.000746	 -0.011917	 -0.000433	 1.771075	 -1.422107	 -0.978407	 -0.088915	 0.711920	 -0.671369	 0.185815	 1
1463623536.667	 5	 -0.000784	 -0.019371	 -0.001572	 1.770454	 -1.422300	 -0.978844	 -0.089032	 0.711860	 -0.671414	 0.185828	 1
1463623536.677	 5	 0.000292	 -0.017255	 -0.002630	 1.769563	 -1.422483	 -0.979543	 -0.089143	 0.711789	 -0.671469	 0.185851	 1
1463623536.687	 5	 0.003556	 -0.003445	 -0.003599	 1.769145	 -1.422704	 -0.979884	 -0.089235	 0.711741	 -0.671517	 0.185815	 1
1463623536.697	 5	 0.005733	 0.008226	 -0.006710	 1.769213	 -1.422931	 -0.979876	 -0.089290	 0.711722	 -0.671556	 0.185720	 1
1463623536.707	 5	 0.004697	 0.012508	 -0.003465	 1.769693	 -1.423062	 -0.979531	 -0.089295	 0.711736	 -0.671567	 0.185623	 1
1463623536.717	 5	 0.003594	 0.005065	 -0.003526	 1.769797	 -1.423137	 -0.979504	 -0.089294	 0.711737	 -0.671581	 0.185572	 1
1463623536.727	 5	 0.002502	 -0.002354	 -0.000388	 1.770164	 -1.423153	 -0.979144	 -0.089305	 0.711753	 -0.671566	 0.185557	 1
1463623536.737	 5	 0.004623	 -0.006599	 0.001684	 1.770597	 -1.423199	 -0.978665	 -0.089344	 0.711767	 -0.671549	 0.185549	 1
1463623536.747	 5	 0.001414	 -0.009764	 0.003812	 1.770819	 -1.423230	 -0.978360	 -0.089389	 0.711770	 -0.671535	 0.185562	 1
1463623536.757	 5	 0.002474	 -0.011887	 0.004847	 1.771094	 -1.423294	 -0.977986	 -0.089451	 0.711772	 -0.671523	 0.185570	 1
1463623536.767	 5	 0.003528	 -0.015073	 0.005871	 1.771337	 -1.423324	 -0.977607	 -0.089514	 0.711774	 -0.671504	 0.185601	 1
1463623536.777	 5	 0.003527	 -0.015073	 0.005870	 1.771323	 -1.423347	 -0.977479	 -0.089572	 0.711764	 -0.671495	 0.185641	 1
1463623536.787	 5	 0.002475	 -0.009766	 0.003795	 1.771484	 -1.423366	 -0.977208	 -0.089621	 0.711765	 -0.671480	 0.185669	 1
1463623536.797	 5	 -0.001767	 -0.002323	 0.001769	 1.771971	 -1.423366	 -0.976681	 -0.089644	 0.711787	 -0.671453	 0.185673	 1
1463623536.807	 5	 -0.002795	 0.006189	 0.001857	 1.772434	 -1.423345	 -0.976255	 -0.089634	 0.711813	 -0.671431	 0.185658	 1
1463623536.817	 5	 -0.003843	 0.010447	 0.001906	 1.773028	 -1.423302	 -0.975750	 -0.089600	 0.711850	 -0.671404	 0.185630	 1
1463623536.827	 5	 -0.001704	 0.011505	 0.001898	 1.773405	 -1.423250	 -0.975487	 -0.089550	 0.711879	 -0.671388	 0.185600	 1
1463623536.837	 5	 0.000421	 0.008315	 0.002915	 1.772997	 -1.423218	 -0.975984	 -0.089499	 0.711867	 -0.671410	 0.185589	 1
1463623536.847	 5	 0.003615	 0.005130	 0.004988	 1.773049	 -1.423237	 -0.975997	 -0.089483	 0.711870	 -0.671417	 0.185559	 1
1463623536.857	 5	 0.002534	 0.002998	 0.003910	 1.772926	 -1.423307	 -0.976160	 -0.089490	 0.711859	 -0.671438	 0.185526	 1
1463623536.867	 5	 -0.001735	 0.003011	 0.003945	 1.773010	 -1.423350	 -0.976104	 -0.089496	 0.711859	 -0.671443	 0.185502	 1
1463623536.877	 5	 -0.004937	 0.001964	 0.005028	 1.773327	 -1.423368	 -0.975809	 -0.089500	 0.711873	 -0.671433	 0.185482	 1
1463623536.887	 5	 -0.007067	 0.000922	 0.007168	 1.773549	 -1.423313	 -0.975601	 -0.089481	 0.711891	 -0.671415	 0.185490	 1
1463623536.897	 5	 -0.001728	 -0.000142	 0.009243	 1.773664	 -1.423231	 -0.975489	 -0.089456	 0.711906	 -0.671396	 0.185513	 1
1463623536.907	 5	 0.002538	 -0.003323	 0.012372	 1.773284	 -1.423175	 -0.975843	 -0.089439	 0.711892	 -0.671403	 0.185548	 1
1463623536.917	 5	 0.004663	 -0.004400	 0.011276	 1.773007	 -1.423159	 -0.976099	 -0.089435	 0.711880	 -0.671412	 0.185565	 1
1463623536.927	 5	 0.008932	 -0.002301	 0.009124	 1.772612	 -1.423162	 -0.976476	 -0.089435	 0.711860	 -0.671430	 0.185578	 1
1463623536.937	 5	 0.003605	 -0.003449	 0.004971	 1.772790	 -1.423193	 -0.976281	 -0.089455	 0.711864	 -0.671424	 0.185571	 1
1463623536.947	 5	 -0.002814	 -0.005565	 0.003940	 1.773493	 -1.423190	 -0.975531	 -0.089485	 0.711896	 -0.671386	 0.185573	 1
1463623536.957	 5	 -0.004978	 -0.010884	 0.002843	 1.773939	 -1.423192	 -0.974988	 -0.089529	 0.711913	 -0.671356	 0.185596	 1
1463623536.967	 5	 -0.001812	 -0.016227	 0.000633	 1.774507	 -1.423214	 -0.974277	 -0.089599	 0.711931	 -0.671319	 0.185626	 1
1463623536.977	 5	 0.000295	 -0.022608	 0.001621	 1.774646	 -1.423181	 -0.973930	 -0.089665	 0.711932	 -0.671288	 0.185703	 1
1463623536.987	 5	 0.000270	 -0.027926	 0.001572	 1.774487	 -1.423146	 -0.973822	 -0.089745	 0.711917	 -0.671265	 0.185807	 1
1463623536.997	 5	 -0.001860	 -0.027912	 0.002657	 1.774260	 -1.423093	 -0.973764	 -0.089825	 0.711899	 -0.671240	 0.185925	 1
1463623537.007	 5	 -0.002889	 -0.017296	 -0.000432	 1.773943	 -1.423081	 -0.973870	 -0.089889	 0.711876	 -0.671234	 0.186005	 1
1463623537.017	 5	 -0.006039	 -0.005594	 -0.001361	 1.773934	 -1.423046	 -0.973784	 -0.089911	 0.711875	 -0.671220	 0.186048	 1
1463623537.027	 5	 -0.003860	 0.002917	 -0.000234	 1.774327	 -1.423004	 -0.973407	 -0.089899	 0.711899	 -0.671196	 0.186049	 1
1463623537.037	 5	 -0.002773	 0.006112	 0.000853	 1.774477	 -1.422939	 -0.973316	 -0.089860	 0.711916	 -0.671183	 0.186047	 1
1463623537.047	 5	 0.001490	 0.005036	 0.000806	 1.774681	 -1.422898	 -0.973174	 -0.089829	 0.711933	 -0.671173	 0.186035	 1
1463623537.057	 5	 0.000407	 0.002904	 -0.000271	 1.775036	 -1.422923	 -0.972859	 -0.089830	 0.711949	 -0.671163	 0.186006	 1
1463623537.067	 5	 -0.002820	 -0.001349	 -0.001349	 1.775550	 -1.422954	 -0.972345	 -0.089851	 0.711971	 -0.671144	 0.185986	 1
1463623537.077	 5	 -0.006033	 -0.003466	 -0.001343	 1.776517	 -1.423052	 -0.971357	 -0.089910	 0.712005	 -0.671111	 0.185942	 1
1463623537.087	 5	 -0.009251	 -0.007704	 -0.000289	 1.777323	 -1.423079	 -0.970481	 -0.089961	 0.712038	 -0.671070	 0.185940	 1
1463623537.097	 5	 -0.005002	 -0.013027	 0.000689	 1.777378	 -1.423150	 -0.970310	 -0.090027	 0.712027	 -0.671069	 0.185955	 1
1463623537.107	 5	 -0.002878	 -0.016217	 0.001705	 1.777096	 -1.423196	 -0.970430	 -0.090093	 0.712001	 -0.671075	 0.186001	 1
1463623537.117	 5	 -0.000742	 -0.015168	 0.000630	 1.776783	 -1.423243	 -0.970583	 -0.090160	 0.711974	 -0.671083	 0.186046	 1
1463623537.127	 5	 -0.002846	 -0.008779	 0.000707	 1.776719	 -1.423268	 -0.970540	 -0.090205	 0.711963	 -0.671080	 0.186075	 1
1463623537.137	 5	 -0.002821	 -0.004517	 0.001812	 1.776786	 -1.423277	 -0.970421	 -0.090227	 0.711963	 -0.671073	 0.186088	 1
1463623537.147	 5	 -0.002797	 0.000801	 0.001861	 1.777306	 -1.423259	 -0.969906	 -0.090230	 0.711990	 -0.671046	 0.186082	 1
1463623537.157	 5	 -0.003879	 -0.000274	 -0.000272	 1.777897	 -1.423260	 -0.969330	 -0.090237	 0.712019	 -0.671019	 0.186064	 1
1463623537.167	 5	 -0.003907	 -0.008761	 0.002847	 1.778155	 -1.423185	 -0.969004	 -0.090242	 0.712037	 -0.670988	 0.186106	 1
1463623537.177	 5	 -0.003917	 -0.011944	 0.003884	 1.778042	 -1.423113	 -0.968999	 -0.090258	 0.712034	 -0.670971	 0.186171	 1
1463623537.187	 5	 -0.001761	 -0.006640	 0.002849	 1.777764	 -1.423091	 -0.969185	 -0.090278	 0.712019	 -0.670972	 0.186214	 1
1463623537.197	 5	 0.000413	 0.001863	 0.002909	 1.777942	 -1.423083	 -0.969007	 -0.090279	 0.712028	 -0.670962	 0.186213	 1
1463623537.207	 5	 0.001487	 0.006091	 -0.000259	 1.778012	 -1.423076	 -0.968999	 -0.090256	 0.712035	 -0.670963	 0.186193	 1
1463623537.217	 5	 0.002555	 0.007144	 -0.001325	 1.777940	 -1.423134	 -0.969149	 -0.090246	 0.712029	 -0.670983	 0.186150	 1
1463623537.227	 5	 -0.000645	 0.008209	 -0.002353	 1.778205	 -1.423188	 -0.968961	 -0.090242	 0.712039	 -0.670987	 0.186101	 1
1463623537.237	 5	 -0.003861	 0.006084	 -0.003411	 1.778553	 -1.423200	 -0.968682	 -0.090228	 0.712057	 -0.670978	 0.186067	 1
1463623537.247	 5	 -0.006002	 0.002915	 -0.001291	 1.779063	 -1.423226	 -0.968214	 -0.090232	 0.712081	 -0.670962	 0.186034	 1
1463623537.257	 5	 -0.008137	 0.000809	 0.000839	 1.779262	 -1.423273	 -0.968021	 -0.090250	 0.712085	 -0.670961	 0.186013	 1
1463623537.267	 5	 -0.006013	 -0.000269	 -0.000257	 1.779806	 -1.423324	 -0.967470	 -0.090280	 0.712105	 -0.670943	 0.185988	 1
1463623537.277	 5	 -0.000658	 0.003970	 -0.000266	 1.780556	 -1.423409	 -0.966753	 -0.090312	 0.712133	 -0.670924	 0.185934	 1
1463623537.287	 5	 0.000421	 0.009262	 -0.003424	 1.780943	 -1.423468	 -0.966457	 -0.090307	 0.712149	 -0.670924	 0.185877	 1
1463623537.297	 5	 -0.002796	 0.007137	 -0.004482	 1.781576	 -1.423548	 -0.965912	 -0.090315	 0.712174	 -0.670915	 0.185809	 1
1463623537.307	 5	 -0.007086	 0.000783	 -0.002373	 1.782151	 -1.423595	 -0.965353	 -0.090337	 0.712196	 -0.670897	 0.185777	 1
1463623537.317	 5	 -0.009245	 -0.003473	 -0.003460	 1.782931	 -1.423614	 -0.964542	 -0.090370	 0.712230	 -0.670860	 0.185765	 1
1463623537.327	 5	 -0.007079	 -0.000258	 0.000814	 1.783358	 -1.423592	 -0.964095	 -0.090379	 0.712252	 -0.670834	 0.185770	 1
1463623537.337	 5	 -0.004930	 0.000815	 0.002938	 1.783505	 -1.423532	 -0.963944	 -0.090363	 0.712266	 -0.670817	 0.185787	 1
1463623537.347	 5	 0.001481	 0.000811	 0.005014	 1.783452	 -1.423469	 -0.964006	 -0.090338	 0.712271	 -0.670809	 0.185806	 1
1463623537.357	 5	 0.007876	 -0.002384	 0.007060	 1.783298	 -1.423393	 -0.964146	 -0.090315	 0.712272	 -0.670803	 0.185838	 1
1463623537.367	 5	 0.010009	 -0.001334	 0.005985	 1.783172	 -1.423354	 -0.964267	 -0.090302	 0.712270	 -0.670802	 0.185854	 1
1463623537.377	 5	 0.007869	 -0.001335	 0.004937	 1.783123	 -1.423332	 -0.964316	 -0.090293	 0.712270	 -0.670801	 0.185862	 1
1463623537.387	 5	 0.003602	 0.001846	 0.001806	 1.783048	 -1.423320	 -0.964408	 -0.090282	 0.712269	 -0.670804	 0.185862	 1
1463623537.397	 5	 -0.001728	 0.005037	 -0.000250	 1.783531	 -1.423360	 -0.963969	 -0.090289	 0.712289	 -0.670791	 0.185825	 1
1463623537.407	 5	 -0.001711	 0.010340	 -0.002332	 1.783514	 -1.423373	 -0.964069	 -0.090263	 0.712291	 -0.670802	 0.185793	 1
1463623537.417	 5	 -0.001685	 0.015658	 -0.002283	 1.783514	 -1.423398	 -0.964205	 -0.090223	 0.712294	 -0.670819	 0.185739	 1
1463623537.427	 5	 0.001530	 0.015671	 0.000888	 1.783103	 -1.423348	 -0.964768	 -0.090144	 0.712287	 -0.670844	 0.185713	 1
1463623537.437	 5	 0.002597	 0.013556	 0.002990	 1.782842	 -1.423358	 -0.965169	 -0.090092	 0.712280	 -0.670872	 0.185668	 1
1463623537.447	 5	 0.003665	 0.014609	 0.001923	 1.782596	 -1.423408	 -0.965553	 -0.090055	 0.712268	 -0.670904	 0.185611	 1
1463623537.457	 5	 0.000480	 0.019921	 -0.000133	 1.782851	 -1.423486	 -0.965484	 -0.090019	 0.712280	 -0.670922	 0.185519	 1
1463623537.467	 5	 -0.005907	 0.023131	 -0.000049	 1.783331	 -1.423532	 -0.965232	 -0.089963	 0.712308	 -0.670928	 0.185418	 1
1463623537.477	 5	 -0.008056	 0.018891	 0.000995	 1.783791	 -1.423573	 -0.964969	 -0.089916	 0.712334	 -0.670931	 0.185329	 1
1463623537.487	 5	 -0.007019	 0.011449	 0.001981	 1.784115	 -1.423635	 -0.964772	 -0.089897	 0.712348	 -0.670938	 0.185260	 1
1463623537.497	 5	 -0.004924	 0.002933	 0.001881	 1.784245	 -1.423722	 -0.964693	 -0.089911	 0.712346	 -0.670951	 0.185212	 1
1463623537.507	 5	 -0.004987	 -0.007727	 -0.001417	 1.784368	 -1.423817	 -0.964515	 -0.089964	 0.712339	 -0.670956	 0.185198	 1
1463623537.517	 5	 -0.006083	 -0.013050	 -0.002524	 1.784455	 -1.423899	 -0.964301	 -0.090038	 0.712328	 -0.670953	 0.185212	 1
1463623537.527	 5	 -0.009292	 -0.014112	 -0.003573	 1.784533	 -1.423973	 -0.964060	 -0.090122	 0.712316	 -0.670947	 0.185242	 1
1463623537.537	 5	 -0.007146	 -0.011991	 -0.003572	 1.784304	 -1.424023	 -0.964146	 -0.090185	 0.712293	 -0.670953	 0.185279	 1
1463623537.547	 5	 -0.006043	 -0.006661	 -0.001399	 1.783988	 -1.424014	 -0.964367	 -0.090209	 0.712274	 -0.670958	 0.185320	 1
1463623537.557	 5	 -0.001753	 -0.003475	 -0.000341	 1.783521	 -1.423997	 -0.964790	 -0.090209	 0.712252	 -0.670973	 0.185350	 1
1463623537.567	 5	 0.001443	 -0.005605	 0.000679	 1.783075	 -1.423938	 -0.965187	 -0.090198	 0.712235	 -0.670980	 0.185394	 1
1463623537.577	 5	 0.000360	 -0.009849	 0.001716	 1.782532	 -1.423835	 -0.965635	 -0.090187	 0.712217	 -0.670980	 0.185470	 1
1463623537.587	 5	 0.001422	 -0.010916	 0.001698	 1.782117	 -1.423781	 -0.965940	 -0.090200	 0.712199	 -0.670980	 0.185533	 1
1463623537.597	 5	 -0.001757	 -0.005596	 0.000711	 1.781751	 -1.423701	 -0.966230	 -0.090193	 0.712187	 -0.670978	 0.185591	 1
1463623537.607	 5	 -0.004906	 0.002891	 0.000877	 1.781797	 -1.423578	 -0.966186	 -0.090153	 0.712203	 -0.670955	 0.185629	 1
1463623537.617	 5	 -0.004866	 0.009288	 0.003070	 1.781593	 -1.423453	 -0.966453	 -0.090086	 0.712210	 -0.670950	 0.185652	 1
1463623537.627	 5	 -0.003767	 0.016723	 0.002064	 1.781602	 -1.423380	 -0.966582	 -0.090013	 0.712225	 -0.670951	 0.185629	 1
1463623537.637	 5	 -0.002678	 0.022030	 0.001038	 1.781807	 -1.423415	 -0.966582	 -0.089955	 0.712241	 -0.670965	 0.185545	 1
1463623537.647	 5	 -0.002671	 0.025206	 -0.001065	 1.782034	 -1.423499	 -0.966595	 -0.089902	 0.712253	 -0.670991	 0.185433	 1
1463623537.657	 5	 -0.004834	 0.019886	 -0.002163	 1.782499	 -1.423599	 -0.966340	 -0.089870	 0.712273	 -0.671005	 0.185321	 1
1463623537.667	 5	 -0.009130	 0.016684	 -0.005354	 1.783263	 -1.423705	 -0.965747	 -0.089859	 0.712305	 -0.671002	 0.185214	 1
1463623537.677	 5	 -0.011265	 0.015635	 -0.004281	 1.784180	 -1.423797	 -0.964983	 -0.089854	 0.712345	 -0.670987	 0.185114	 1
1463623537.687	 5	 -0.023009	 0.012494	 -0.002077	 1.785197	 -1.423815	 -0.964072	 -0.089843	 0.712396	 -0.670952	 0.185052	 1
1463623537.697	 5	 -0.039044	 0.006160	 -0.001994	 1.786388	 -1.423687	 -0.962931	 -0.089808	 0.712470	 -0.670878	 0.185051	 1
1463623537.707	 5	 -0.050758	 0.007289	 0.002382	 1.788453	 -1.423573	 -0.960869	 -0.089813	 0.712581	 -0.670761	 0.185043	 1
1463623537.717	 5	 -0.052811	 0.025361	 0.000438	 1.790612	 -1.423404	 -0.958852	 -0.089752	 0.712710	 -0.670643	 0.185004	 1
1463623537.727	 5	 -0.050542	 0.057234	 -0.003548	 1.794211	 -1.423314	 -0.955695	 -0.089641	 0.712912	 -0.670498	 0.184808	 1
1463623537.737	 5	 -0.039718	 0.091224	 -0.005458	 1.798414	 -1.423252	 -0.952299	 -0.089422	 0.713155	 -0.670362	 0.184468	 1
1463623537.747	 5	 -0.030079	 0.101809	 -0.008641	 1.802847	 -1.423250	 -0.948861	 -0.089163	 0.713410	 -0.670242	 0.184040	 1
1463623537.757	 5	 -0.019469	 0.092181	 -0.012020	 1.806488	 -1.423268	 -0.946162	 -0.088911	 0.713623	 -0.670160	 0.183640	 1
1463623537.767	 5	 -0.015336	 0.073083	 -0.013238	 1.810240	 -1.423330	 -0.943204	 -0.088730	 0.713828	 -0.670065	 0.183273	 1
1463623537.777	 5	 -0.017588	 0.045465	 -0.009212	 1.813190	 -1.423327	 -0.940781	 -0.088605	 0.713991	 -0.669974	 0.183032	 1
1463623537.787	 5	 -0.028400	 0.014666	 -0.007273	 1.816453	 -1.423321	 -0.937739	 -0.088596	 0.714156	 -0.669839	 0.182888	 1
1463623537.797	 5	 -0.044481	 -0.003345	 -0.004104	 1.819776	 -1.423316	 -0.934401	 -0.088674	 0.714312	 -0.669680	 0.182820	 1
1463623537.807	 5	 -0.057278	 -0.001179	 -0.003974	 1.823841	 -1.423255	 -0.930275	 -0.088767	 0.714508	 -0.669473	 0.182769	 1
1463623537.817	 5	 -0.064706	 0.008408	 -0.004887	 1.827826	 -1.423268	 -0.926299	 -0.088858	 0.714694	 -0.669289	 0.182672	 1
1463623537.827	 5	 -0.062512	 0.023270	 -0.007967	 1.831864	 -1.423303	 -0.922406	 -0.088910	 0.714885	 -0.669119	 0.182520	 1
1463623537.837	 5	 -0.051773	 0.038121	 -0.008989	 1.835709	 -1.423338	 -0.918861	 -0.088902	 0.715074	 -0.668973	 0.182321	 1
1463623537.847	 5	 -0.033615	 0.041258	 -0.009119	 1.837973	 -1.423371	 -0.916978	 -0.088829	 0.715192	 -0.668908	 0.182130	 1
1463623537.857	 5	 -0.014441	 0.034810	 -0.010412	 1.839505	 -1.423449	 -0.915803	 -0.088762	 0.715269	 -0.668883	 0.181951	 1
1463623537.867	 5	 -0.001678	 0.024151	 -0.008491	 1.840316	 -1.423578	 -0.915256	 -0.088728	 0.715302	 -0.668893	 0.181804	 1
1463623537.877	 5	 0.000431	 0.019882	 -0.009615	 1.841105	 -1.423674	 -0.914670	 -0.088704	 0.715335	 -0.668893	 0.181688	 1
1463623537.887	 5	 -0.003824	 0.023086	 -0.009548	 1.842269	 -1.423711	 -0.913729	 -0.088663	 0.715394	 -0.668865	 0.181575	 1
1463623537.897	 5	 -0.009153	 0.022062	 -0.006314	 1.843734	 -1.423740	 -0.912488	 -0.088626	 0.715468	 -0.668823	 0.181457	 1
1463623537.907	 5	 -0.016666	 0.012519	 -0.005272	 1.845523	 -1.423752	 -0.910852	 -0.088617	 0.715556	 -0.668756	 0.181361	 1
1463623537.917	 5	 -0.028504	 -0.006607	 -0.007478	 1.847375	 -1.423733	 -0.908969	 -0.088665	 0.715643	 -0.668664	 0.181333	 1
1463623537.927	 5	 -0.050948	 -0.012930	 -0.008408	 1.850265	 -1.423719	 -0.905910	 -0.088790	 0.715771	 -0.668512	 0.181326	 1
1463623537.937	 5	 -0.063643	 0.010509	 -0.008080	 1.854748	 -1.423656	 -0.901421	 -0.088878	 0.715987	 -0.668293	 0.181241	 1
1463623537.947	 5	 -0.064654	 0.037198	 -0.010940	 1.860094	 -1.423650	 -0.896347	 -0.088907	 0.716246	 -0.668070	 0.181024	 1
1463623537.957	 5	 -0.056092	 0.042490	 -0.010967	 1.864842	 -1.423665	 -0.891989	 -0.088887	 0.716480	 -0.667889	 0.180774	 1
1463623537.967	 5	 -0.049744	 0.031827	 -0.012188	 1.868775	 -1.423689	 -0.888368	 -0.088879	 0.716671	 -0.667742	 0.180567	 1
1463623537.977	 5	 -0.039144	 0.015847	 -0.011364	 1.871767	 -1.423760	 -0.885544	 -0.088914	 0.716805	 -0.667633	 0.180416	 1
1463623537.987	 5	 -0.032803	 -0.000104	 -0.008371	 1.873815	 -1.423828	 -0.883506	 -0.088982	 0.716890	 -0.667554	 0.180341	 1
1463623537.997	 5	 -0.030716	 -0.011795	 -0.006368	 1.875526	 -1.423872	 -0.881679	 -0.089080	 0.716957	 -0.667474	 0.180324	 1
1463623538.007	 5	 -0.042491	 -0.017102	 -0.009513	 1.877854	 -1.423968	 -0.879165	 -0.089235	 0.717041	 -0.667369	 0.180299	 1
1463623538.017	 5	 -0.059546	 -0.014908	 -0.007215	 1.881188	 -1.424009	 -0.875623	 -0.089405	 0.717177	 -0.667207	 0.180273	 1
1463623538.027	 5	 -0.103914	 0.085173	 -0.011225	 1.888865	 -1.423734	 -0.868393	 -0.089352	 0.717586	 -0.666845	 0.180014	 1
1463623538.037	 5	 -0.183297	 0.190994	 0.028820	 1.901422	 -1.422887	 -0.857326	 -0.088876	 0.718347	 -0.666241	 0.179450	 1
1463623538.047	 5	 -0.264618	 0.339352	 0.067141	 1.919646	 -1.421679	 -0.842033	 -0.087933	 0.719485	 -0.665432	 0.178352	 1
1463623538.057	 5	 -0.232522	 0.382634	 0.035289	 1.936790	 -1.420659	 -0.828502	 -0.086790	 0.720578	 -0.664765	 0.176982	 1
1463623538.067	 5	 -0.163521	 0.353290	 -0.023138	 1.949862	 -1.420292	 -0.818902	 -0.085796	 0.721375	 -0.664405	 0.175568	 1
1463623538.077	 5	 -0.089603	 0.206295	 -0.035747	 1.956481	 -1.420516	 -0.814621	 -0.085210	 0.721734	 -0.664361	 0.174536	 1
1463623538.087	 5	 -0.020929	 0.050869	 -0.027134	 1.957315	 -1.420890	 -0.814614	 -0.085048	 0.721745	 -0.664477	 0.174128	 1
1463623538.097	 5	 0.024371	 -0.075822	 -0.025511	 1.955261	 -1.421353	 -0.816185	 -0.085303	 0.721557	 -0.664627	 0.174212	 1
1463623538.107	 5	 0.046448	 -0.138708	 -0.034814	 1.952066	 -1.421772	 -0.818124	 -0.085792	 0.721293	 -0.664750	 0.174598	 1
1463623538.117	 5	 0.041118	 -0.132348	 -0.040036	 1.950349	 -1.422050	 -0.818509	 -0.086308	 0.721114	 -0.664769	 0.175008	 1
1463623538.127	 5	 0.013511	 -0.101426	 -0.040572	 1.950599	 -1.422276	 -0.817183	 -0.086771	 0.721041	 -0.664712	 0.175292	 1
1463623538.137	 5	 -0.020447	 -0.065120	 -0.034608	 1.952647	 -1.422375	 -0.814382	 -0.087130	 0.721083	 -0.664577	 0.175455	 1
1463623538.147	 5	 -0.065098	 -0.019333	 -0.045515	 1.957739	 -1.422423	 -0.808959	 -0.087409	 0.721285	 -0.664334	 0.175407	 1
1463623538.157	 5	 -0.071481	 -0.024555	 -0.034850	 1.961907	 -1.422521	 -0.804494	 -0.087664	 0.721439	 -0.664146	 0.175358	 1
1463623538.167	 5	 -0.048051	 -0.033151	 -0.037266	 1.964769	 -1.422750	 -0.801272	 -0.087945	 0.721510	 -0.664040	 0.175330	 1
1463623538.177	 5	 -0.019346	 -0.056638	 -0.037735	 1.964890	 -1.423161	 -0.800586	 -0.088275	 0.721421	 -0.664075	 0.175394	 1
1463623538.187	 5	 0.012678	 -0.055671	 -0.038004	 1.962258	 -1.423593	 -0.802598	 -0.088553	 0.721207	 -0.664230	 0.175550	 1
1463623538.197	 5	 0.041598	 -0.030261	 -0.042281	 1.958780	 -1.424106	 -0.805686	 -0.088749	 0.720952	 -0.664459	 0.175630	 1
1463623538.207	 5	 0.055714	 0.024969	 -0.047218	 1.955641	 -1.424683	 -0.808928	 -0.088797	 0.720725	 -0.664729	 0.175516	 1
1463623538.217	 5	 0.042134	 0.091975	 -0.052869	 1.955171	 -1.425211	 -0.810209	 -0.088651	 0.720653	 -0.664935	 0.175105	 1
1463623538.227	 5	 0.028463	 0.118748	 -0.033315	 1.955433	 -1.425535	 -0.811073	 -0.088350	 0.720660	 -0.665092	 0.174629	 1
1463623538.237	 5	 0.037999	 0.098563	 -0.026124	 1.955714	 -1.425750	 -0.811889	 -0.088027	 0.720685	 -0.665222	 0.174194	 1
1463623538.247	 5	 0.051578	 0.048640	 -0.026637	 1.954300	 -1.426143	 -0.813973	 -0.087865	 0.720589	 -0.665426	 0.173895	 1
1463623538.257	 5	 0.039395	 -0.038599	 -0.034806	 1.952254	 -1.426794	 -0.815889	 -0.088052	 0.720388	 -0.665643	 0.173805	 1
1463623538.267	 5	 0.014432	 -0.121538	 -0.041758	 1.951114	 -1.427561	 -0.816015	 -0.088618	 0.720168	 -0.665768	 0.173949	 1
1463623538.277	 5	 -0.001854	 -0.176832	 -0.046398	 1.950611	 -1.428342	 -0.814859	 -0.089438	 0.719944	 -0.665812	 0.174286	 1
1463623538.287	 5	 -0.022273	 -0.204450	 -0.049678	 1.951383	 -1.429019	 -0.812080	 -0.090385	 0.719774	 -0.665750	 0.174735	 1
1463623538.297	 5	 -0.037215	 -0.197029	 -0.059074	 1.953267	 -1.429693	 -0.808143	 -0.091378	 0.719648	 -0.665636	 0.175171	 1
1463623538.307	 5	 -0.035038	 -0.167430	 -0.083333	 1.956818	 -1.430499	 -0.802825	 -0.092352	 0.719580	 -0.665507	 0.175428	 1
1463623538.317	 5	 -0.018976	 -0.135746	 -0.107693	 1.959536	 -1.431632	 -0.798605	 -0.093306	 0.719432	 -0.665509	 0.175525	 1
1463623538.327	 5	 0.006887	 -0.068936	 -0.124350	 1.961706	 -1.432854	 -0.795532	 -0.094054	 0.719271	 -0.665608	 0.175413	 1
1463623538.337	 5	 0.033847	 -0.005234	 -0.129320	 1.963394	 -1.434059	 -0.793629	 -0.094537	 0.719123	 -0.665784	 0.175090	 1
1463623538.347	 5	 0.059612	 0.023439	 -0.125013	 1.962835	 -1.435357	 -0.794362	 -0.094847	 0.718887	 -0.666104	 0.174671	 1
1463623538.357	 5	 0.087465	 0.034092	 -0.111299	 1.959518	 -1.436607	 -0.798007	 -0.095017	 0.718557	 -0.666537	 0.174287	 1
1463623538.367	 5	 0.112083	 0.036262	 -0.095504	 1.954337	 -1.437703	 -0.803583	 -0.095070	 0.718186	 -0.667013	 0.173970	 1
1463623538.377	 5	 0.117545	 0.044909	 -0.074151	 1.947515	 -1.438531	 -0.810868	 -0.094980	 0.717800	 -0.667499	 0.173746	 1
1463623538.387	 5	 0.102719	 0.050435	 -0.051585	 1.941253	 -1.439082	 -0.817660	 -0.094800	 0.717487	 -0.667908	 0.173564	 1
1463623538.397	 5	 0.080394	 0.057079	 -0.034211	 1.936607	 -1.439374	 -0.822913	 -0.094557	 0.717284	 -0.668205	 0.173390	 1
1463623538.407	 5	 0.067657	 0.061465	 -0.021267	 1.933601	 -1.439503	 -0.826565	 -0.094290	 0.717175	 -0.668407	 0.173210	 1
1463623538.417	 5	 0.068676	 0.057161	 -0.027709	 1.931225	 -1.439789	 -0.829586	 -0.094089	 0.717065	 -0.668616	 0.172967	 1
1463623538.427	 5	 0.071795	 0.051733	 -0.041642	 1.929036	 -1.440383	 -0.832349	 -0.094011	 0.716910	 -0.668874	 0.172652	 1
1463623538.437	 5	 0.065369	 0.052770	 -0.047971	 1.927510	 -1.441003	 -0.834437	 -0.093963	 0.716777	 -0.669111	 0.172316	 1
1463623538.447	 5	 0.049393	 0.058152	 -0.045650	 1.927200	 -1.441464	 -0.835369	 -0.093873	 0.716720	 -0.669271	 0.171978	 1
1463623538.457	 5	 0.046128	 0.039070	 -0.038337	 1.926556	 -1.441838	 -0.836486	 -0.093803	 0.716657	 -0.669414	 0.171724	 1
1463623538.467	 5	 0.051357	 0.017773	 -0.039646	 1.925099	 -1.442291	 -0.838201	 -0.093815	 0.716540	 -0.669585	 0.171537	 1
1463623538.477	 5	 0.051294	 -0.001319	 -0.032363	 1.922837	 -1.442755	 -0.840527	 -0.093882	 0.716381	 -0.669774	 0.171431	 1
1463623538.487	 5	 0.051238	 -0.024619	 -0.018724	 1.919889	 -1.443080	 -0.843314	 -0.093971	 0.716207	 -0.669940	 0.171456	 1
1463623538.497	 5	 0.055472	 -0.045782	 -0.001905	 1.916324	 -1.443263	 -0.846510	 -0.094077	 0.716023	 -0.670084	 0.171607	 1
1463623538.507	 5	 0.057592	 -0.061627	 0.013916	 1.912524	 -1.443264	 -0.849773	 -0.094182	 0.715850	 -0.670185	 0.171874	 1
1463623538.517	 5	 0.049172	 -0.049785	 0.030087	 1.908595	 -1.443011	 -0.853207	 -0.094191	 0.715713	 -0.670245	 0.172205	 1
1463623538.527	 5	 0.017357	 -0.019799	 0.045565	 1.906608	 -1.442542	 -0.854945	 -0.094090	 0.715696	 -0.670208	 0.172474	 1
1463623538.537	 5	 -0.022899	 0.034640	 0.056015	 1.907427	 -1.441856	 -0.854332	 -0.093823	 0.715844	 -0.670056	 0.172593	 1
1463623538.547	 5	 -0.064099	 0.123049	 0.057197	 1.911861	 -1.441047	 -0.850881	 -0.093323	 0.716191	 -0.669804	 0.172405	 1
1463623538.557	 5	 -0.095556	 0.227500	 0.070230	 1.919483	 -1.440090	 -0.845235	 -0.092499	 0.716735	 -0.669479	 0.171851	 1
1463623538.567	 5	 -0.112021	 0.342543	 0.087429	 1.928968	 -1.439008	 -0.838842	 -0.091285	 0.717426	 -0.669146	 0.170913	 1
1463623538.577	 5	 -0.128656	 0.434077	 0.089489	 1.940081	 -1.437915	 -0.831820	 -0.089755	 0.718231	 -0.668824	 0.169597	 1
1463623538.587	 5	 -0.137029	 0.448100	 0.113134	 1.949857	 -1.437133	 -0.826464	 -0.088173	 0.718946	 -0.668643	 0.168106	 1
1463623538.597	 5	 -0.140238	 0.414350	 0.151212	 1.959821	 -1.435561	 -0.820709	 -0.086438	 0.719789	 -0.668262	 0.166907	 1
1463623538.607	 5	 -0.143615	 0.358155	 0.174163	 1.969566	 -1.433611	 -0.814641	 -0.084782	 0.720668	 -0.667754	 0.165994	 1
1463623538.617	 5	 -0.151309	 0.300833	 0.186486	 1.978806	 -1.431283	 -0.808521	 -0.083209	 0.721571	 -0.667129	 0.165381	 1
1463623538.627	 5	 -0.168678	 0.234975	 0.191353	 1.987984	 -1.428852	 -0.801824	 -0.081844	 0.722470	 -0.666418	 0.165003	 1
1463623538.637	 5	 -0.182716	 0.170396	 0.227112	 1.995645	 -1.425879	 -0.795971	 -0.080527	 0.723379	 -0.665583	 0.165036	 1
1463623538.647	 5	 -0.197832	 0.106852	 0.258628	 2.001043	 -1.422546	 -0.791766	 -0.079270	 0.724238	 -0.664701	 0.165435	 1
1463623538.657	 5	 -0.190747	 0.009111	 0.276840	 2.003386	 -1.419393	 -0.789682	 -0.078319	 0.724901	 -0.663905	 0.166177	 1
1463623538.667	 5	 -0.157940	 -0.060034	 0.288698	 2.003484	 -1.416456	 -0.789100	 -0.077633	 0.725399	 -0.663192	 0.167172	 1
1463623538.677	 5	 -0.117581	 -0.121671	 0.312280	 2.000956	 -1.413821	 -0.790546	 -0.077171	 0.725700	 -0.662615	 0.168360	 1
1463623538.687	 5	 -0.098457	 -0.160907	 0.336254	 1.995446	 -1.411129	 -0.794574	 -0.076739	 0.725853	 -0.662131	 0.169794	 1
1463623538.697	 5	 -0.079285	 -0.200058	 0.371949	 1.988373	 -1.408577	 -0.799791	 -0.076430	 0.725884	 -0.661728	 0.171365	 1
1463623538.707	 5	 -0.050159	 -0.175325	 0.420943	 1.980736	 -1.405291	 -0.805653	 -0.075850	 0.726001	 -0.661204	 0.173143	 1
1463623538.717	 5	 -0.016758	 -0.113685	 0.427614	 1.971815	 -1.401883	 -0.813424	 -0.074958	 0.726081	 -0.660783	 0.174798	 1
1463623538.727	 5	 0.015895	 0.006320	 0.422118	 1.964648	 -1.398588	 -0.820481	 -0.073771	 0.726249	 -0.660406	 0.176025	 1
1463623538.737	 5	 0.026273	 0.163760	 0.429888	 1.955393	 -1.394722	 -0.831158	 -0.071780	 0.726435	 -0.660163	 0.176989	 1
1463623538.747	 5	 0.016209	 0.291432	 0.431163	 1.948044	 -1.390772	 -0.841293	 -0.069321	 0.726755	 -0.659943	 0.177473	 1
1463623538.757	 5	 -0.006366	 0.309126	 0.368644	 1.943374	 -1.387154	 -0.849239	 -0.066867	 0.727163	 -0.659709	 0.177614	 1
1463623538.767	 5	 -0.063886	 0.207374	 0.247767	 1.942663	 -1.384352	 -0.852376	 -0.065102	 0.727625	 -0.659362	 0.177665	 1
1463623538.777	 5	 -0.127211	 0.025701	 0.103811	 1.947263	 -1.383090	 -0.848513	 -0.064605	 0.728099	 -0.658896	 0.177637	 1
1463623538.787	 5	 -0.179940	 -0.210974	 0.006149	 1.953445	 -1.382240	 -0.840696	 -0.065157	 0.728524	 -0.658216	 0.178209	 1
1463623538.797	 5	 -0.201337	 -0.428064	 -0.018065	 1.959680	 -1.381655	 -0.830527	 -0.066633	 0.728837	 -0.657383	 0.179453	 1
1463623538.807	 5	 -0.208577	 -0.644678	 0.029007	 1.963519	 -1.380724	 -0.820573	 -0.068718	 0.728993	 -0.656408	 0.181594	 1
1463623538.817	 5	 -0.155350	 -0.749469	 0.120290	 1.962471	 -1.379183	 -0.814187	 -0.070925	 0.728917	 -0.655442	 0.184517	 1
1463623538.827	 5	 -0.069675	 -0.757608	 0.205795	 1.955510	 -1.377150	 -0.813547	 -0.072824	 0.728565	 -0.654677	 0.187852	 1
1463623538.837	 5	 0.030180	 -0.691417	 0.280145	 1.943062	 -1.374707	 -0.818955	 -0.074186	 0.727963	 -0.654188	 0.191324	 1
1463623538.847	 5	 0.101389	 -0.573168	 0.334979	 1.927329	 -1.372017	 -0.828831	 -0.074917	 0.727220	 -0.653963	 0.194605	 1
1463623538.857	 5	 0.150060	 -0.457194	 0.360147	 1.909970	 -1.369133	 -0.841619	 -0.075057	 0.726421	 -0.653943	 0.197581	 1
1463623538.867	 5	 0.154371	 -0.422330	 0.329527	 1.893206	 -1.366433	 -0.854397	 -0.075060	 0.725615	 -0.654012	 0.200291	 1
1463623538.877	 5	 0.115595	 -0.476977	 0.269765	 1.878501	 -1.364094	 -0.864754	 -0.075380	 0.724843	 -0.654016	 0.202936	 1
1463623538.887	 5	 0.035617	 -0.620930	 0.187058	 1.867141	 -1.362291	 -0.870416	 -0.076474	 0.724138	 -0.653793	 0.205742	 1
1463623538.897	 5	 -0.060107	 -0.750652	 0.153646	 1.859401	 -1.360681	 -0.870944	 -0.078302	 0.723568	 -0.653221	 0.208857	 1
1463623538.907	 5	 -0.128572	 -0.838277	 0.216306	 1.853810	 -1.358502	 -0.868295	 -0.080394	 0.723157	 -0.652278	 0.212401	 1
1463623538.917	 5	 -0.156992	 -0.893368	 0.381234	 1.847414	 -1.354849	 -0.865800	 -0.082219	 0.722841	 -0.651009	 0.216629	 1
1463623538.927	 5	 -0.141181	 -0.877069	 0.581612	 1.838570	 -1.349342	 -0.865781	 -0.083346	 0.722573	 -0.649525	 0.221495	 1
1463623538.937	 5	 -0.090003	 -0.835294	 0.789378	 1.826251	 -1.341939	 -0.869777	 -0.083530	 0.722278	 -0.647965	 0.226888	 1
1463623538.947	 5	 -0.012691	 -0.877891	 0.959897	 1.809487	 -1.332955	 -0.878148	 -0.083041	 0.721773	 -0.646435	 0.232959	 1
1463623538.957	 5	 0.002401	 -0.952529	 1.086962	 1.790259	 -1.322634	 -0.888342	 -0.082222	 0.721094	 -0.644812	 0.239752	 1
1463623538.967	 5	 -0.066214	 -1.064680	 1.140870	 1.772580	 -1.311503	 -0.895958	 -0.081529	 0.720449	 -0.642852	 0.247080	 1
1463623538.977	 5	 -0.183202	 -1.247975	 1.191339	 1.757674	 -1.299660	 -0.898985	 -0.081323	 0.719907	 -0.640342	 0.255112	 1
1463623538.987	 5	 -0.340864	 -1.458789	 1.244039	 1.746141	 -1.287020	 -0.896383	 -0.081764	 0.719539	 -0.637102	 0.263971	 1
1463623538.997	 5	 -0.543706	 -1.581953	 1.345983	 1.739121	 -1.273205	 -0.887384	 -0.082651	 0.719535	 -0.632925	 0.273578	 1
1463623539.007	 5	 -0.765574	 -1.486385	 1.527853	 1.738266	 -1.257429	 -0.872291	 -0.083122	 0.720266	 -0.627672	 0.283435	 1
1463623539.017	 5	 -0.952742	 -1.227524	 1.654454	 1.744023	 -1.239886	 -0.852567	 -0.082630	 0.721923	 -0.621506	 0.292796	 1
1463623539.027	 5	 -1.002314	 -0.975519	 1.771267	 1.752696	 -1.220945	 -0.832375	 -0.081006	 0.724182	 -0.614881	 0.301527	 1
1463623539.037	 5	 -0.939881	 -0.931492	 1.854262	 1.759656	 -1.201126	 -0.815064	 -0.078650	 0.726450	 -0.608209	 0.310107	 1
1463623539.047	 5	 -0.760534	 -1.154230	 1.865549	 1.759937	 -1.181272	 -0.803075	 -0.076421	 0.727914	 -0.601908	 0.319387	 1
1463623539.057	 5	 -0.469474	 -1.376858	 1.790603	 1.751592	 -1.162420	 -0.797771	 -0.074669	 0.728099	 -0.596464	 0.329435	 1
1463623539.067	 5	 -0.195102	 -1.756737	 1.731391	 1.734066	 -1.144847	 -0.798909	 -0.073669	 0.726742	 -0.592011	 0.340504	 1
1463623539.077	 5	 -0.155185	 -1.975233	 1.831323	 1.711776	 -1.126911	 -0.801924	 -0.073188	 0.724441	 -0.587656	 0.352830	 1
1463623539.087	 5	 -0.308701	 -1.728092	 2.115255	 1.693700	 -1.106414	 -0.801938	 -0.071602	 0.722722	 -0.582381	 0.365211	 1
1463623539.097	 5	 -0.329199	 -1.378857	 2.451201	 1.680304	 -1.082457	 -0.800567	 -0.067900	 0.721822	 -0.576239	 0.377242	 1
1463623539.107	 5	 -0.160673	 -1.121498	 2.661018	 1.667398	 -1.056197	 -0.801947	 -0.062196	 0.721018	 -0.570106	 0.388900	 1
1463623539.117	 5	 -0.107885	 -1.076463	 2.732383	 1.654248	 -1.028999	 -0.804678	 -0.055664	 0.719996	 -0.564031	 0.400471	 1
1463623539.137	 6	 -0.212202	 -1.493083	 3.026763	 1.626084	 -0.970957	 -0.806022	 -0.043056	 0.716759	 -0.550200	 0.426242	 1
1463623539.147	 6	 -0.152676	 -1.683494	 3.193929	 1.610324	 -0.939374	 -0.805451	 -0.036602	 0.714369	 -0.542390	 0.440624	 1
1463623539.157	 6	 0.072851	 -2.135546	 3.282612	 1.588728	 -0.906713	 -0.807256	 -0.030356	 0.710355	 -0.534776	 0.456606	 1
1463623539.167	 6	 0.311951	 -2.270951	 3.187614	 1.562432	 -0.874462	 -0.811596	 -0.024431	 0.704784	 -0.527872	 0.473322	 1
1463623539.177	 6	 0.513318	 -2.188831	 3.006511	 1.535924	 -0.843873	 -0.817607	 -0.018389	 0.698625	 -0.521908	 0.489078	 1
1463623539.197	 7	 0.637186	 -0.983227	 2.397443	 1.494012	 -0.790438	 -0.832087	 -0.004968	 0.687744	 -0.512951	 0.513678	 1
1463623539.207	 7	 0.476543	 -0.282008	 2.227385	 1.486300	 -0.767545	 -0.836860	 0.003010	 0.685292	 -0.508912	 0.520936	 1
1463623539.217	 7	 0.261296	 0.029054	 2.207641	 1.484866	 -0.745266	 -0.838614	 0.011345	 0.684350	 -0.504213	 0.526598	 1
1463623539.227	 7	 0.015554	 0.001825	 2.166896	 1.486037	 -0.723447	 -0.837157	 0.019070	 0.684039	 -0.498701	 0.532000	 1
1463623539.237	 7	 -0.196626	 -0.068749	 2.029538	 1.488315	 -0.702949	 -0.832933	 0.025633	 0.684043	 -0.492671	 0.537311	 1
1463623539.257	 8	 -0.478992	 -0.863475	 1.740043	 1.487599	 -0.666971	 -0.819797	 0.034031	 0.682785	 -0.480389	 0.549430	 1
1463623539.267	 8	 -0.674903	 -1.586896	 1.638033	 1.479497	 -0.650957	 -0.810118	 0.034622	 0.680101	 -0.473905	 0.558282	 1
1463623539.277	 8	 -0.851077	 -2.430510	 1.543258	 1.464632	 -0.636150	 -0.798025	 0.032432	 0.675522	 -0.467084	 0.569606	 1
1463623539.287	 8	 -0.910945	 -3.271328	 1.441103	 1.441730	 -0.622659	 -0.784900	 0.027670	 0.668549	 -0.460314	 0.583428	 1
1463623539.297	 8	 -0.971961	 -3.962724	 1.409622	 1.411792	 -0.610067	 -0.770843	 0.020836	 0.659302	 -0.453435	 0.599402	 1
1463623539.317	 9	 -1.276640	 -4.577405	 1.738007	 1.342887	 -0.583619	 -0.736509	 0.004351	 0.636954	 -0.436903	 0.635127	 1
1463623539.327	 9	 -1.475546	 -4.693737	 2.042398	 1.308324	 -0.568044	 -0.714305	 -0.004126	 0.624998	 -0.426071	 0.654083	 1
1463623539.337	 9	 -1.630551	 -4.788842	 2.358329	 1.274183	 -0.550529	 -0.688799	 -0.012370	 0.612616	 -0.413371	 0.673553	 1
1463623539.347	 9	 -1.753738	 -4.872797	 2.611206	 1.240269	 -0.531566	 -0.660476	 -0.020377	 0.599754	 -0.399022	 0.693298	 1
1463623539.357	 9	 -1.961669	 -4.781372	 2.814230	 1.207583	 -0.512020	 -0.629099	 -0.028287	 0.586806	 -0.383102	 0.712806	 1
1463623539.367	 9	 -2.519625	 -3.981858	 2.984261	 1.183301	 -0.493309	 -0.591736	 -0.036157	 0.576441	 -0.364945	 0.730222	 1
1463623539.377	 9	 -2.915601	 -3.219088	 3.139750	 1.169782	 -0.475671	 -0.548504	 -0.043779	 0.569714	 -0.344667	 0.744791	 1
1463623539.387	 9	 -2.753519	 -3.178840	 3.328419	 1.157852	 -0.456714	 -0.504978	 -0.050350	 0.563362	 -0.323609	 0.758528	 1
1463623539.397	 9	 -2.361471	 -3.482788	 3.520409	 1.141370	 -0.435060	 -0.464349	 -0.055375	 0.555114	 -0.302527	 0.772826	 1
1463623539.407	 9	 -2.099224	 -3.650668	 3.649784	 1.120826	 -0.411423	 -0.426104	 -0.059086	 0.545148	 -0.281443	 0.787472	 1
1463623539.417	 9	 -2.038544	 -3.670097	 3.635220	 1.098804	 -0.387839	 -0.388596	 -0.062324	 0.534480	 -0.260311	 0.801676	 1
1463623539.427	 9	 -2.031681	 -3.668056	 3.479578	 1.075546	 -0.366113	 -0.351614	 -0.065839	 0.523247	 -0.239512	 0.815176	 1
1463623539.437	 9	 -1.860704	 -3.490984	 3.326267	 1.052503	 -0.346031	 -0.316323	 -0.069071	 0.512067	 -0.219552	 0.827535	 1
1463623539.447	 9	 -1.438101	 -3.432107	 3.255992	 1.028669	 -0.325743	 -0.284578	 -0.070906	 0.500559	 -0.200794	 0.839104	 1
1463623539.457	 9	 -0.828916	 -3.524882	 3.322297	 1.002029	 -0.302920	 -0.257474	 -0.070284	 0.487877	 -0.183185	 0.850576	 1
1463623539.467	 9	 -0.212264	 -3.487098	 3.501656	 0.973525	 -0.276117	 -0.234474	 -0.066608	 0.474363	 -0.166332	 0.861903	 1
1463623539.477	 9	 0.354274	 -3.251017	 3.724862	 0.945463	 -0.244815	 -0.214514	 -0.059708	 0.460954	 -0.149874	 0.872636	 1
1463623539.487	 9	 0.815424	 -2.903429	 3.881814	 0.919542	 -0.209693	 -0.196792	 -0.049980	 0.448385	 -0.133767	 0.882360	 1
1463623539.497	 9	 1.165263	 -2.530800	 3.926997	 0.896342	 -0.172107	 -0.180896	 -0.038148	 0.436946	 -0.118193	 0.890872	 1
1463623539.507	 9	 1.455522	 -2.274545	 3.887421	 0.875268	 -0.133168	 -0.166767	 -0.024836	 0.426409	 -0.103370	 0.898261	 1
1463623539.517	 9	 1.773570	 -2.222692	 3.832912	 0.854327	 -0.092902	 -0.154632	 -0.010171	 0.415872	 -0.089402	 0.904961	 1
1463623539.527	 9	 2.042713	 -2.110257	 3.752749	 0.833588	 -0.051541	 -0.144309	 0.005675	 0.405342	 -0.076303	 0.910957	 1
1463623539.537	 9	 2.252334	 -1.902306	 3.619638	 0.814284	 -0.009757	 -0.135621	 0.022362	 0.395375	 -0.064147	 0.916004	 1
1463623539.547	 9	 2.431819	 -1.695786	 3.423897	 0.796785	 0.031848	 -0.128761	 0.039601	 0.386140	 -0.053126	 0.920057	 1
1463623539.557	 9	 2.596870	 -1.574603	 3.188054	 0.780574	 0.072908	 -0.123993	 0.057197	 0.377382	 -0.043420	 0.923269	 1
1463623539.567	 9	 2.743075	 -1.573799	 2.918216	 0.764688	 0.113144	 -0.121500	 0.074978	 0.368627	 -0.035182	 0.925880	 1
1463623539.587	 9	 2.835172	 -1.709000	 2.352368	 0.731673	 0.189538	 -0.122518	 0.110002	 0.350048	 -0.023125	 0.929963	 1
1463623539.577	 9	 2.840850	 -1.646353	 2.633197	 0.748377	 0.152212	 -0.121185	 0.092712	 0.359505	 -0.028462	 0.928090	 1
1463623539.597	 9	 2.664353	 -1.772785	 2.141175	 0.714457	 0.224382	 -0.124134	 0.126239	 0.340306	 -0.018673	 0.931615	 1
1463623539.607	 9	 2.381432	 -1.911199	 2.006999	 0.695873	 0.256258	 -0.124568	 0.140937	 0.330031	 -0.014551	 0.933276	 1
1463623539.617	 9	 2.099388	 -2.148028	 1.942239	 0.674634	 0.285407	 -0.123126	 0.154105	 0.318715	 -0.010488	 0.935180	 1
1463623539.627	 9	 1.844190	 -2.361435	 1.891319	 0.650448	 0.312150	 -0.119667	 0.165904	 0.306265	 -0.006396	 0.937356	 1
1463623539.637	 9	 1.635344	 -2.409634	 1.760534	 0.624905	 0.336376	 -0.115013	 0.176446	 0.293400	 -0.002549	 0.939562	 1
1463623539.647	 9	 1.499225	 -2.394486	 1.594536	 0.599275	 0.358276	 -0.110122	 0.185969	 0.280641	 0.000775	 0.941624	 1
1463623539.657	 9	 1.436878	 -2.376143	 1.458832	 0.573752	 0.378582	 -0.105420	 0.194864	 0.268009	 0.003538	 0.943497	 1
1463623539.667	 9	 1.419766	 -2.312890	 1.374308	 0.548718	 0.398038	 -0.100864	 0.203460	 0.255650	 0.005929	 0.945099	 1
1463623539.677	 9	 1.434957	 -2.228119	 1.336597	 0.524398	 0.417199	 -0.096262	 0.211981	 0.243669	 0.008156	 0.946373	 1
1463623539.687	 9	 1.459903	 -2.146268	 1.340339	 0.500681	 0.436415	 -0.091283	 0.220549	 0.232039	 0.010419	 0.947316	 1
1463623539.697	 9	 1.502983	 -2.068702	 1.347080	 0.477466	 0.455908	 -0.085870	 0.229260	 0.220718	 0.012764	 0.947924	 1
1463623539.707	 9	 1.555518	 -1.975618	 1.297398	 0.455058	 0.475583	 -0.080486	 0.238120	 0.209814	 0.015000	 0.948184	 1
1463623539.717	 9	 1.621686	 -1.889338	 1.195312	 0.433778	 0.495326	 -0.075788	 0.247128	 0.199407	 0.016846	 0.948093	 1
1463623539.727	 9	 1.691906	 -1.835095	 1.076905	 0.413546	 0.515141	 -0.072126	 0.256302	 0.189412	 0.018140	 0.947683	 1
1463623539.737	 9	 1.739627	 -1.804148	 0.963807	 0.394075	 0.534943	 -0.069432	 0.265577	 0.179695	 0.018881	 0.947007	 1
1463623539.747	 9	 1.757516	 -1.755098	 0.841545	 0.375472	 0.554480	 -0.067666	 0.274811	 0.170310	 0.019090	 0.946102	 1
1463623539.757	 9	 1.749903	 -1.674139	 0.709144	 0.358103	 0.573510	 -0.066906	 0.283877	 0.161419	 0.018776	 0.944989	 1
1463623539.777	 10	 1.607934	 -1.468160	 0.455449	 0.327915	 0.608719	 -0.068068	 0.300791	 0.145571	 0.016859	 0.942364	 1
1463623539.787	 10	 1.477703	 -1.404576	 0.370847	 0.314513	 0.624295	 -0.069396	 0.308301	 0.138429	 0.015459	 0.941036	 1
1463623539.797	 10	 1.324090	 -1.372383	 0.347972	 0.301316	 0.638347	 -0.070403	 0.315051	 0.131502	 0.014028	 0.939816	 1
1463623539.807	 10	 1.177905	 -1.385634	 0.368305	 0.287549	 0.651006	 -0.070445	 0.321070	 0.124527	 0.012768	 0.938746	 1
1463623539.817	 10	 1.052858	 -1.414080	 0.355274	 0.273124	 0.662417	 -0.069854	 0.326458	 0.117411	 0.011528	 0.937820	 1
1463623539.837	 11	 0.826249	 -1.413034	 0.261338	 0.243633	 0.681518	 -0.068320	 0.335444	 0.103132	 0.008636	 0.936358	 1
1463623539.847	 11	 0.720519	 -1.365417	 0.184901	 0.229648	 0.689231	 -0.067967	 0.339080	 0.096370	 0.006915	 0.935783	 1
1463623539.857	 11	 0.653074	 -1.308665	 0.063454	 0.216897	 0.695962	 -0.068685	 0.342291	 0.090049	 0.004799	 0.935257	 1
1463623539.867	 11	 0.598463	 -1.240299	 -0.064391	 0.205657	 0.701872	 -0.070800	 0.345158	 0.084228	 0.002206	 0.934755	 1
1463623539.877	 11	 0.543175	 -1.113226	 -0.163975	 0.196300	 0.707041	 -0.074076	 0.347705	 0.079111	 -0.000671	 0.934260	 1
1463623539.897	 12	 0.464508	 -0.739325	 -0.263190	 0.184145	 0.715771	 -0.082715	 0.352073	 0.071622	 -0.006382	 0.933206	 1
1463623539.907	 12	 0.450277	 -0.595639	 -0.255334	 0.180835	 0.719752	 -0.087190	 0.354070	 0.069145	 -0.008855	 0.932617	 1
1463623539.917	 12	 0.463446	 -0.547566	 -0.220897	 0.178010	 0.723841	 -0.091305	 0.356096	 0.066948	 -0.011072	 0.931982	 1
1463623539.927	 12	 0.516931	 -0.558038	 -0.176698	 0.174895	 0.728446	 -0.094953	 0.358336	 0.064674	 -0.013100	 0.931258	 1
1463623539.937	 12	 0.592769	 -0.576061	 -0.138093	 0.171366	 0.733845	 -0.098239	 0.360920	 0.062236	 -0.015000	 0.930397	 1
1463623539.957	 13	 0.716867	 -0.569540	 -0.068773	 0.163583	 0.746782	 -0.103833	 0.367013	 0.057102	 -0.018394	 0.928279	 1
1463623539.967	 13	 0.772786	 -0.504607	 -0.038814	 0.159893	 0.754212	 -0.106124	 0.370477	 0.054678	 -0.019787	 0.927020	 1
1463623539.977	 13	 0.778799	 -0.373691	 -0.023793	 0.157208	 0.761888	 -0.108188	 0.374048	 0.052747	 -0.020885	 0.925673	 1
1463623539.987	 13	 0.711068	 -0.267012	 -0.007290	 0.155544	 0.769101	 -0.109939	 0.377400	 0.051362	 -0.021673	 0.924371	 1
1463623539.997	 13	 0.587584	 -0.247559	 0.000498	 0.153949	 0.775251	 -0.111285	 0.380248	 0.050124	 -0.022314	 0.923256	 1
1463623540.007	 13	 0.428640	 -0.198470	 -0.041358	 0.152797	 0.779836	 -0.112654	 0.382377	 0.049147	 -0.022954	 0.922413	 1
1463623540.017	 13	 0.269549	 -0.180229	 -0.083499	 0.152209	 0.782774	 -0.114386	 0.383762	 0.048424	 -0.023730	 0.921856	 1
1463623540.027	 13	 0.142422	 -0.227551	 -0.060452	 0.151039	 0.784352	 -0.115713	 0.384504	 0.047566	 -0.024494	 0.921571	 1
1463623540.037	 13	 0.079185	 -0.312224	 -0.028716	 0.148595	 0.785198	 -0.116402	 0.384879	 0.046272	 -0.025243	 0.921461	 1
1463623540.047	 13	 0.066229	 -0.353584	 -0.017265	 0.145450	 0.785829	 -0.116826	 0.385138	 0.044716	 -0.026015	 0.921408	 1
1463623540.067	 13	 0.065198	 -0.434711	 0.088565	 0.136820	 0.787338	 -0.116107	 0.385700	 0.040818	 -0.027282	 0.921317	 1
1463623540.057	 13	 0.075753	 -0.396992	 0.014221	 0.141654	 0.786558	 -0.116914	 0.385424	 0.042921	 -0.026755	 0.921352	 1
1463623540.077	 13	 0.049423	 -0.459550	 0.176930	 0.130803	 0.788065	 -0.114036	 0.385911	 0.038417	 -0.027458	 0.921327	 1
1463623540.087	 13	 0.049830	 -0.433505	 0.248575	 0.124100	 0.788853	 -0.110862	 0.386122	 0.035912	 -0.027258	 0.921345	 1
1463623540.097	 13	 0.063194	 -0.347116	 0.286564	 0.117640	 0.789781	 -0.106996	 0.386394	 0.033649	 -0.026689	 0.921334	 1
1463623540.107	 13	 0.077651	 -0.216396	 0.278063	 0.112367	 0.790837	 -0.103128	 0.386746	 0.031930	 -0.025887	 0.921270	 1
1463623540.117	 13	 0.078384	 -0.034749	 0.246708	 0.109073	 0.791905	 -0.099658	 0.387141	 0.031048	 -0.024889	 0.921162	 1
1463623540.137	 14	 0.027065	 0.442572	 0.192979	 0.109507	 0.793699	 -0.093544	 0.387873	 0.032374	 -0.021927	 0.920883	 1
1463623540.147	 14	 -0.026207	 0.531462	 0.109009	 0.113411	 0.793698	 -0.091700	 0.387883	 0.034529	 -0.020321	 0.920837	 1
1463623540.157	 14	 -0.100132	 0.526934	 0.041402	 0.118046	 0.792972	 -0.090758	 0.387578	 0.036869	 -0.019015	 0.920903	 1
1463623540.167	 14	 -0.172231	 0.452243	 -0.020479	 0.122669	 0.791431	 -0.090586	 0.386910	 0.039081	 -0.018097	 0.921111	 1
1463623540.177	 14	 -0.230540	 0.339395	 -0.058329	 0.126398	 0.787663	 -0.090772	 0.385215	 0.040887	 -0.017603	 0.921753	 1
1463623540.187	 14	 -0.232353	 0.202015	 -0.083038	 0.129205	 0.785227	 -0.091410	 0.384132	 0.042139	 -0.017450	 0.922151	 1
