% Gyrometer data recorded with 'snsrlog'
% 
% 
% Label description:
% 	 0: Default Label
% 	 1: still_drop
% 	 2: walk_drop
% 	 3: other
% 	 4: dtw_same
% 	 5: dtw_diff
% 	 6: delete
% 	 7: steal
% 
% Column description:
% 	 1: Seconds.milliseconds since 1970
% 	 2: Number of skipped measurements
% 	 3: Gyro X
% 	 4: Gyro Y
% 	 5: Gyro Z
% 	 6: Roll of the device
% 	 7: Pitch of the device
% 	 8: Yaw of the device
% 	 9: Quaternion X
% 	 10: Quaternion Y
% 	 11: Quaternion Z
% 	 12: Quaternion W
% 	 13: Label used for the current sample
% 
% 
1463571680.712	 1	 0.100464	 2.724520	 -1.243452	 0.511456	 0.530238	 -0.036647	 0.257933	 0.239426	 0.049161	 0.934735	 2
1463571680.722	 1	 0.172464	 2.553678	 -1.452427	 0.544879	 0.524651	 -0.051576	 0.256380	 0.253350	 0.045772	 0.931659	 2
1463571680.732	 1	 0.083468	 2.450005	 -1.704137	 0.577891	 0.516876	 -0.068255	 0.254233	 0.266960	 0.041160	 0.928657	 2
1463571680.742	 1	 -0.102107	 2.461468	 -1.958197	 0.611056	 0.505826	 -0.085964	 0.250930	 0.280705	 0.035522	 0.925731	 2
1463571680.752	 1	 -0.368958	 2.573919	 -2.106165	 0.644695	 0.491212	 -0.103121	 0.246151	 0.294993	 0.029508	 0.922777	 2
1463571680.762	 1	 -0.668109	 2.717410	 -2.093699	 0.678255	 0.473589	 -0.117764	 0.239874	 0.309802	 0.023956	 0.919733	 2
1463571680.772	 1	 -0.871138	 3.015598	 -1.977252	 0.712592	 0.454348	 -0.129056	 0.232555	 0.325525	 0.019515	 0.916281	 2
1463571680.782	 2	 -0.854663	 3.469489	 -1.861267	 0.750000	 0.435243	 -0.138171	 0.225112	 0.342912	 0.016174	 0.911852	 2
1463571680.802	 2	 -0.288401	 4.428994	 -1.761350	 0.839646	 0.402416	 -0.157246	 0.213302	 0.383808	 0.010934	 0.898373	 2
1463571680.812	 2	 -0.086270	 4.581040	 -1.833101	 0.889773	 0.387863	 -0.168961	 0.208971	 0.406103	 0.007903	 0.889578	 2
1463571680.822	 2	 -0.122503	 4.518140	 -2.014551	 0.939630	 0.371701	 -0.180978	 0.204293	 0.428216	 0.004126	 0.880272	 2
1463571680.832	 2	 -0.284419	 4.350772	 -2.279007	 0.987637	 0.352185	 -0.192321	 0.198347	 0.449695	 -0.000582	 0.870880	 2
1463571680.842	 2	 -0.465152	 4.048311	 -2.553084	 1.032356	 0.328899	 -0.202552	 0.190878	 0.470011	 -0.006358	 0.861751	 2
1463571680.862	 3	 -0.660903	 3.555062	 -2.888487	 1.111274	 0.273950	 -0.219084	 0.172436	 0.506730	 -0.020413	 0.844437	 2
1463571680.872	 3	 -0.541691	 3.508805	 -2.912336	 1.148300	 0.245140	 -0.226494	 0.162916	 0.523993	 -0.028195	 0.835521	 2
1463571680.882	 3	 -0.231972	 3.526261	 -2.873306	 1.185475	 0.217373	 -0.235106	 0.154479	 0.540953	 -0.036524	 0.825937	 2
1463571680.892	 3	 0.174949	 3.603701	 -2.883589	 1.223332	 0.190765	 -0.246256	 0.147585	 0.557718	 -0.045818	 0.815518	 2
1463571680.902	 3	 0.680799	 3.913148	 -2.981032	 1.264172	 0.164559	 -0.261176	 0.142419	 0.575182	 -0.056558	 0.803544	 2
1463571680.912	 3	 1.219348	 4.429367	 -3.152505	 1.309977	 0.137797	 -0.280532	 0.139022	 0.594103	 -0.069087	 0.789266	 2
1463571680.922	 3	 1.687742	 5.062290	 -3.392622	 1.361870	 0.109088	 -0.303785	 0.136982	 0.614937	 -0.083466	 0.772089	 2
1463571680.942	 4	 2.352226	 5.922976	 -3.972305	 1.479585	 0.041165	 -0.357240	 0.134709	 0.660568	 -0.117548	 0.729168	 2
1463571680.952	 4	 2.517790	 5.886033	 -4.159533	 1.539303	 0.001564	 -0.384551	 0.133530	 0.682954	 -0.136700	 0.705023	 2
1463571680.962	 4	 2.552434	 5.587696	 -4.218030	 1.595543	 -0.040457	 -0.410185	 0.131920	 0.703533	 -0.156361	 0.680580	 2
1463571680.972	 4	 2.546523	 5.216712	 -4.190524	 1.647186	 -0.083693	 -0.433520	 0.129868	 0.721913	 -0.176000	 0.656506	 2
1463571680.982	 4	 2.585440	 4.784451	 -4.088308	 1.693842	 -0.127237	 -0.455114	 0.127666	 0.737952	 -0.195516	 0.633168	 2
1463571680.992	 4	 2.687613	 4.392606	 -3.960690	 1.735624	 -0.170537	 -0.475895	 0.125665	 0.751704	 -0.214974	 0.610684	 2
1463571681.002	 4	 2.881848	 4.107515	 -3.888299	 1.773283	 -0.214058	 -0.496935	 0.124043	 0.763460	 -0.234778	 0.588746	 2
1463571681.012	 4	 3.174641	 3.967288	 -3.893219	 1.808001	 -0.258735	 -0.519270	 0.122940	 0.773607	 -0.255429	 0.566722	 2
1463571681.022	 4	 3.540518	 3.777340	 -3.978104	 1.839543	 -0.305635	 -0.543701	 0.122244	 0.782090	 -0.277465	 0.544430	 2
1463571681.032	 4	 3.870015	 3.392414	 -4.124170	 1.865931	 -0.355420	 -0.570197	 0.121384	 0.788423	 -0.301122	 0.522475	 2
1463571681.042	 4	 4.016133	 2.875646	 -4.338074	 1.885957	 -0.408255	 -0.597342	 0.119398	 0.792459	 -0.326043	 0.501447	 2
1463571681.062	 5	 3.621533	 1.440300	 -4.717814	 1.904772	 -0.520024	 -0.645570	 0.108425	 0.794027	 -0.376378	 0.464871	 2
1463571681.072	 5	 3.075946	 0.681642	 -4.687085	 1.904240	 -0.575041	 -0.663194	 0.098822	 0.792189	 -0.399485	 0.450646	 2
1463571681.082	 5	 2.402555	 0.086043	 -4.516242	 1.900029	 -0.626564	 -0.674641	 0.086949	 0.789551	 -0.419695	 0.439209	 2
1463571681.092	 5	 1.838923	 -0.379581	 -4.271608	 1.893728	 -0.673940	 -0.680582	 0.073555	 0.786494	 -0.436975	 0.430198	 2
1463571681.102	 5	 1.500414	 -0.675296	 -3.972999	 1.885752	 -0.717327	 -0.683446	 0.059643	 0.783046	 -0.451979	 0.423081	 2
1463571681.112	 5	 1.478034	 -0.732289	 -3.628027	 1.876163	 -0.757149	 -0.686864	 0.046520	 0.779159	 -0.465663	 0.417019	 2
1463571681.122	 5	 1.750945	 -0.826571	 -3.319013	 1.862246	 -0.794477	 -0.695295	 0.034924	 0.774238	 -0.479349	 0.411778	 2
1463571681.132	 5	 2.075839	 -0.753016	 -3.018481	 1.843211	 -0.829747	 -0.710644	 0.025159	 0.768233	 -0.493496	 0.406997	 2
1463571681.142	 5	 2.288239	 -0.510332	 -2.761223	 1.821190	 -0.862789	 -0.732370	 0.017474	 0.761751	 -0.507846	 0.401898	 2
1463571681.152	 5	 2.352056	 -0.290860	 -2.538058	 1.797735	 -0.893533	 -0.758433	 0.011442	 0.755227	 -0.521936	 0.396339	 2
1463571681.162	 5	 2.291689	 -0.179294	 -2.284974	 1.773174	 -0.921420	 -0.787039	 0.006630	 0.748817	 -0.535273	 0.390784	 2
1463571681.182	 6	 1.847707	 -0.283861	 -1.630901	 1.722992	 -0.965921	 -0.843866	 -0.000729	 0.736958	 -0.557710	 0.381907	 2
1463571681.192	 6	 1.609653	 -0.423720	 -1.213416	 1.697575	 -0.981344	 -0.869953	 -0.003493	 0.731527	 -0.566345	 0.379618	 2
1463571681.202	 6	 1.208898	 -0.770677	 -0.672814	 1.672326	 -0.990939	 -0.892016	 -0.005908	 0.726451	 -0.572683	 0.379826	 2
1463571681.212	 6	 0.819858	 -1.143019	 -0.108038	 1.648207	 -0.994272	 -0.908104	 -0.008157	 0.721811	 -0.576407	 0.382984	 2
1463571681.232	 6	 0.207005	 -1.738071	 1.334803	 1.605360	 -0.978867	 -0.923171	 -0.009739	 0.713825	 -0.575845	 0.398450	 2
1463571681.242	 7	 0.134972	 -1.901562	 1.933933	 1.583825	 -0.960958	 -0.926627	 -0.008407	 0.709690	 -0.572674	 0.410260	 2
1463571681.252	 7	 0.033275	 -1.905346	 2.397325	 1.563676	 -0.938084	 -0.927892	 -0.005626	 0.705594	 -0.568075	 0.423552	 2
1463571681.262	 7	 -0.196325	 -1.801965	 2.773303	 1.547646	 -0.911265	 -0.924976	 -0.001655	 0.702072	 -0.561788	 0.437592	 2
1463571681.272	 7	 -0.500835	 -1.633363	 3.019451	 1.537176	 -0.881724	 -0.916893	 0.003126	 0.699503	 -0.553723	 0.451749	 2
1463571681.282	 7	 -0.896550	 -1.411616	 3.077182	 1.533052	 -0.851279	 -0.903017	 0.008026	 0.698213	 -0.543956	 0.465345	 2
1463571681.292	 7	 -1.471333	 -1.190889	 2.922245	 1.536357	 -0.822026	 -0.881800	 0.011964	 0.698668	 -0.532412	 0.477762	 2
1463571681.302	 7	 -2.148277	 -1.016623	 2.626018	 1.547340	 -0.795617	 -0.851972	 0.013836	 0.701143	 -0.519023	 0.488695	 2
1463571681.312	 7	 -2.529927	 -0.751161	 2.411198	 1.564006	 -0.771416	 -0.816621	 0.014269	 0.705239	 -0.504343	 0.498069	 2
1463571681.322	 7	 -2.448381	 -0.374316	 2.342589	 1.582887	 -0.747889	 -0.782358	 0.015146	 0.710072	 -0.489678	 0.505750	 2
1463571681.332	 7	 -2.172433	 0.115996	 2.452391	 1.602584	 -0.723251	 -0.752779	 0.017999	 0.715255	 -0.475530	 0.511818	 2
1463571681.342	 7	 -1.909784	 0.704402	 2.588800	 1.624143	 -0.696877	 -0.728255	 0.023419	 0.721038	 -0.461830	 0.516012	 2
1463571681.352	 7	 -1.726784	 1.221159	 2.641040	 1.648157	 -0.669422	 -0.707703	 0.030898	 0.727563	 -0.448456	 0.518252	 2
1463571681.362	 7	 -1.603317	 1.433046	 2.575859	 1.672899	 -0.642118	 -0.690161	 0.039260	 0.734351	 -0.435524	 0.519140	 2
1463571681.372	 7	 -1.505965	 1.327918	 2.491970	 1.695549	 -0.615412	 -0.674866	 0.047481	 0.740639	 -0.423053	 0.519833	 2
1463571681.382	 7	 -1.313887	 1.170386	 2.406768	 1.714744	 -0.589532	 -0.662329	 0.055456	 0.746018	 -0.411337	 0.520753	 2
1463571681.392	 7	 -1.025434	 1.086984	 2.316088	 1.730548	 -0.564761	 -0.653571	 0.063572	 0.750430	 -0.400800	 0.521702	 2
1463571681.402	 7	 -0.739819	 1.056976	 2.253639	 1.743790	 -0.541053	 -0.648604	 0.072096	 0.754039	 -0.391474	 0.522470	 2
1463571681.412	 7	 -0.468912	 1.068557	 2.200232	 1.755205	 -0.518344	 -0.647045	 0.081104	 0.757008	 -0.383264	 0.522943	 2
1463571681.422	 7	 -0.226282	 1.119158	 2.235891	 1.765499	 -0.496042	 -0.648600	 0.090853	 0.759489	 -0.375907	 0.523083	 2
1463571681.432	 7	 0.068618	 1.221065	 2.474069	 1.774963	 -0.472493	 -0.653848	 0.102168	 0.761466	 -0.369012	 0.523031	 2
1463571681.442	 7	 0.461544	 1.370742	 2.885556	 1.783716	 -0.446050	 -0.664148	 0.116120	 0.762782	 -0.362378	 0.522841	 2
1463571681.452	 7	 0.869999	 1.468889	 3.237812	 1.791586	 -0.416825	 -0.679925	 0.132798	 0.763210	 -0.356153	 0.522523	 2
1463571681.462	 7	 1.160539	 1.547618	 3.211502	 1.799259	 -0.387613	 -0.699443	 0.150769	 0.762960	 -0.350788	 0.521640	 2
1463571681.472	 7	 1.239017	 1.587791	 2.769967	 1.807672	 -0.362263	 -0.719536	 0.167786	 0.762605	 -0.346698	 0.519695	 2
1463571681.482	 7	 1.095749	 1.538505	 2.222954	 1.817133	 -0.342105	 -0.737349	 0.182424	 0.762615	 -0.343574	 0.516813	 2
1463571681.492	 7	 0.920065	 1.291398	 1.810800	 1.825902	 -0.326065	 -0.752170	 0.194477	 0.762696	 -0.341045	 0.513967	 2
1463571681.502	 7	 0.859072	 1.017453	 1.557262	 1.832570	 -0.312679	 -0.765348	 0.204692	 0.762380	 -0.339136	 0.511726	 2
1463571681.512	 7	 0.864852	 0.830885	 1.352981	 1.837505	 -0.301405	 -0.777927	 0.213715	 0.761685	 -0.337931	 0.509867	 2
1463571681.522	 7	 0.861231	 0.660533	 1.180905	 1.840962	 -0.291890	 -0.790018	 0.221750	 0.760676	 -0.337337	 0.508333	 2
1463571681.532	 7	 0.853823	 0.619713	 0.975964	 1.843899	 -0.284258	 -0.801525	 0.228893	 0.759642	 -0.337282	 0.506747	 2
1463571681.542	 7	 0.784720	 0.683834	 0.696866	 1.847691	 -0.279084	 -0.811808	 0.234973	 0.759068	 -0.337650	 0.504575	 2
1463571681.552	 7	 0.527020	 0.776453	 0.458044	 1.853104	 -0.275778	 -0.819291	 0.239704	 0.759319	 -0.337745	 0.501902	 2
1463571681.562	 7	 0.192082	 0.935887	 0.307908	 1.861059	 -0.273343	 -0.823027	 0.243181	 0.760692	 -0.336873	 0.498726	 2
1463571681.572	 7	 -0.070842	 1.033825	 0.360134	 1.871018	 -0.270096	 -0.823861	 0.246119	 0.762844	 -0.334730	 0.495430	 2
1463571681.582	 7	 -0.083886	 1.032205	 0.571253	 1.881177	 -0.264882	 -0.824519	 0.249576	 0.764916	 -0.331807	 0.492463	 2
1463571681.592	 7	 -0.010326	 1.110770	 0.728011	 1.891431	 -0.258221	 -0.826550	 0.253964	 0.766722	 -0.328669	 0.489507	 2
1463571681.602	 7	 -0.140123	 1.425939	 0.722482	 1.904412	 -0.250944	 -0.828044	 0.258734	 0.769194	 -0.324791	 0.485704	 2
1463571681.612	 7	 -0.324133	 1.617396	 0.649131	 1.920464	 -0.243724	 -0.827592	 0.263185	 0.772634	 -0.320011	 0.481002	 2
1463571681.622	 7	 -0.362673	 1.382306	 0.629161	 1.935412	 -0.236557	 -0.826337	 0.267073	 0.775888	 -0.315151	 0.476812	 2
1463571681.632	 7	 -0.182930	 0.859044	 0.559847	 1.945442	 -0.230208	 -0.826195	 0.270343	 0.777855	 -0.311471	 0.474174	 2
1463571681.642	 7	 0.052573	 0.411143	 0.198729	 1.950214	 -0.227312	 -0.827426	 0.272359	 0.778618	 -0.310063	 0.472689	 2
1463571681.652	 7	 -0.005466	 0.399137	 -0.160039	 1.953859	 -0.228288	 -0.827348	 0.272626	 0.779556	 -0.309903	 0.471091	 2
1463571681.662	 7	 -0.246617	 0.477929	 -0.245664	 1.959281	 -0.229716	 -0.824653	 0.272023	 0.781295	 -0.309052	 0.469115	 2
1463571681.672	 7	 -0.262188	 0.179634	 -0.318645	 1.962848	 -0.231404	 -0.820867	 0.270634	 0.782756	 -0.308298	 0.467977	 2
1463571681.682	 7	 -0.050487	 -0.082484	 -0.444424	 1.963077	 -0.234782	 -0.818185	 0.268698	 0.783393	 -0.308875	 0.467645	 2
1463571681.702	 8	 0.603319	 0.666104	 -0.353627	 1.967502	 -0.246136	 -0.821003	 0.267398	 0.784772	 -0.313088	 0.463257	 2
1463571681.712	 8	 1.072573	 2.031719	 -0.172351	 1.981496	 -0.251682	 -0.829349	 0.271371	 0.787206	 -0.315148	 0.455352	 2
1463571681.722	 8	 1.659971	 2.512388	 -0.093061	 2.003066	 -0.259094	 -0.843014	 0.278189	 0.790624	 -0.317969	 0.443193	 2
1463571681.732	 8	 2.109886	 2.363715	 -0.025890	 2.021891	 -0.267829	 -0.861761	 0.286315	 0.792608	 -0.322614	 0.430948	 2
1463571681.742	 9	 2.338921	 2.871457	 -0.464385	 2.043375	 -0.280959	 -0.881667	 0.294287	 0.795024	 -0.328525	 0.416417	 2
1463571681.762	 9	 0.810911	 6.608500	 -2.173748	 2.148558	 -0.322524	 -0.892360	 0.305493	 0.815885	 -0.330250	 0.363235	 2
1463571681.772	 9	 1.301577	 2.101935	 -1.982291	 2.184443	 -0.346123	 -0.889684	 0.304682	 0.823420	 -0.333183	 0.343712	 2
1463571681.782	 9	 1.393897	 -1.419951	 -1.689743	 2.176003	 -0.368363	 -0.891595	 0.298720	 0.822283	 -0.343147	 0.341858	 2
1463571681.792	 9	 1.218243	 -2.506922	 -1.901889	 2.153197	 -0.390578	 -0.891674	 0.289356	 0.818887	 -0.354781	 0.346161	 2
1463571681.802	 9	 1.261955	 -3.168663	 -2.201512	 2.123263	 -0.415135	 -0.890639	 0.277377	 0.814352	 -0.367850	 0.352958	 2
1463571681.822	 10	 1.181611	 -3.213983	 -2.762891	 2.059471	 -0.472946	 -0.886733	 0.248479	 0.804500	 -0.396193	 0.366155	 2
1463571681.832	 10	 0.731444	 -3.006888	 -2.694164	 2.031352	 -0.501137	 -0.881286	 0.232954	 0.800394	 -0.408369	 0.371938	 2
1463571681.842	 10	 0.099995	 -2.678972	 -2.465002	 2.008555	 -0.525054	 -0.871428	 0.217649	 0.797517	 -0.417275	 0.377462	 2
1463571681.852	 10	 -0.492893	 -2.328766	 -2.226377	 1.991981	 -0.544365	 -0.856603	 0.202794	 0.796083	 -0.422740	 0.382646	 2
1463571681.862	 10	 -0.870156	 -2.145526	 -2.044470	 1.979876	 -0.560234	 -0.838250	 0.188377	 0.795609	 -0.425733	 0.387649	 2
1463571681.882	 11	 -0.956343	 -2.229001	 -2.150007	 1.958521	 -0.590546	 -0.797608	 0.158847	 0.794854	 -0.429768	 0.397837	 2
1463571681.892	 11	 -0.786862	 -2.229686	 -2.469086	 1.947503	 -0.609448	 -0.777487	 0.142922	 0.793971	 -0.432883	 0.402239	 2
1463571681.902	 11	 -0.523491	 -2.106253	 -2.941298	 1.937319	 -0.633582	 -0.758124	 0.125872	 0.792820	 -0.437674	 0.405010	 2
1463571681.912	 11	 -0.268761	 -1.824982	 -3.358677	 1.929381	 -0.662907	 -0.739743	 0.108087	 0.791598	 -0.444090	 0.405554	 2
1463571681.922	 11	 -0.043724	 -1.403204	 -3.626350	 1.925027	 -0.696003	 -0.722578	 0.090391	 0.790522	 -0.451675	 0.403601	 2
1463571681.942	 12	 0.429695	 -0.759261	 -3.958063	 1.925990	 -0.769684	 -0.692574	 0.056584	 0.788461	 -0.469532	 0.393277	 2
1463571681.952	 12	 0.793168	 -0.732636	 -4.099529	 1.926369	 -0.810222	 -0.681829	 0.040229	 0.786365	 -0.480389	 0.386313	 2
1463571681.962	 12	 1.122461	 -0.928295	 -4.253424	 1.922914	 -0.853359	 -0.674692	 0.023575	 0.782827	 -0.492687	 0.379322	 2
1463571681.972	 12	 1.311939	 -1.122518	 -4.412482	 1.915664	 -0.898831	 -0.670082	 0.006207	 0.777940	 -0.505967	 0.372516	 2
1463571681.982	 12	 1.324076	 -1.195473	 -4.494265	 1.906973	 -0.945511	 -0.666111	 -0.011735	 0.772273	 -0.519385	 0.365644	 2
1463571681.992	 12	 1.204645	 -1.226593	 -4.433831	 1.898926	 -0.991680	 -0.661123	 -0.029832	 0.766353	 -0.532093	 0.358733	 2
1463571682.002	 12	 1.075452	 -1.312801	 -4.347182	 1.891553	 -1.036564	 -0.654635	 -0.047986	 0.760241	 -0.543819	 0.352126	 2
1463571682.012	 12	 0.974060	 -1.500054	 -4.396001	 1.884506	 -1.081233	 -0.646179	 -0.066754	 0.753724	 -0.554821	 0.345859	 2
1463571682.022	 12	 0.837988	 -1.741945	 -4.513235	 1.878345	 -1.126597	 -0.634194	 -0.086800	 0.746667	 -0.565137	 0.339964	 2
1463571682.032	 12	 0.669663	 -1.830392	 -4.604248	 1.875837	 -1.172448	 -0.617047	 -0.107798	 0.739343	 -0.574628	 0.333997	 2
1463571682.042	 12	 0.446548	 -1.795079	 -4.664857	 1.881278	 -1.218301	 -0.591764	 -0.129305	 0.732133	 -0.583106	 0.327489	 2
1463571682.052	 12	 0.251724	 -1.670285	 -4.695038	 1.899159	 -1.263750	 -0.554814	 -0.150936	 0.725227	 -0.590563	 0.320155	 2
1463571682.062	 12	 0.263454	 -1.468042	 -4.668746	 1.929830	 -1.308632	 -0.507030	 -0.171936	 0.718311	 -0.597625	 0.311949	 2
1463571682.082	 13	 0.658003	 -1.340217	 -4.629427	 2.027827	 -1.398037	 -0.379447	 -0.211450	 0.702295	 -0.612741	 0.294311	 2
1463571682.092	 13	 0.773034	 -1.455899	 -4.548376	 2.114593	 -1.441821	 -0.277276	 -0.230710	 0.692853	 -0.620419	 0.286019	 2
1463571682.102	 13	 0.747229	 -1.459508	 -4.323308	 2.279379	 -1.482042	 -0.096811	 -0.249321	 0.683140	 -0.627477	 0.278265	 2
1463571682.112	 13	 0.576271	 -1.561849	 -3.984926	 2.643452	 -1.512992	 0.283473	 -0.267060	 0.673836	 -0.633203	 0.271438	 2
1463571682.122	 13	 0.367038	 -1.673137	 -3.869037	 -2.920629	 -1.523192	 1.020039	 -0.284767	 0.664923	 -0.637539	 0.265196	 2
1463571682.132	 13	 0.262697	 -1.394349	 -3.601226	 -2.329284	 -1.506579	 1.627210	 -0.301377	 0.656690	 -0.641078	 0.258745	 2
1463571682.152	 14	 0.796501	 -0.651529	 -2.008844	 -1.898383	 -1.465203	 2.076952	 -0.323076	 0.642322	 -0.648977	 0.248743	 2
1463571682.162	 14	 0.809854	 -0.820864	 -0.861644	 -1.804703	 -1.456465	 2.178696	 -0.328137	 0.636826	 -0.651847	 0.248746	 2
1463571682.172	 14	 0.797473	 -1.142902	 -0.101447	 -1.745224	 -1.455574	 2.249448	 -0.331489	 0.632528	 -0.652840	 0.252633	 2
1463571682.182	 14	 1.068880	 -1.352742	 -0.034357	 -1.672570	 -1.456836	 2.335650	 -0.334495	 0.627606	 -0.653822	 0.258342	 2
1463571682.192	 14	 1.370809	 -1.548509	 -0.360667	 -1.574173	 -1.454819	 2.449829	 -0.338563	 0.620943	 -0.655693	 0.264332	 2
1463571682.212	 15	 1.568265	 -1.525661	 -0.649930	 -1.364269	 -1.439183	 2.693277	 -0.348564	 0.604191	 -0.661540	 0.275354	 2
1463571682.222	 15	 1.228630	 -1.273487	 -0.480499	 -1.292324	 -1.430847	 2.779438	 -0.352751	 0.596988	 -0.663920	 0.279970	 2
1463571682.232	 15	 0.593020	 -0.892639	 -0.287044	 -1.257844	 -1.425409	 2.824354	 -0.355976	 0.592435	 -0.664909	 0.283191	 2
1463571682.242	 15	 -0.230174	 -0.431723	 -0.128512	 -1.268099	 -1.423879	 2.819488	 -0.358309	 0.591435	 -0.664112	 0.284208	 2
1463571682.252	 15	 -0.953848	 -0.154967	 0.048754	 -1.321595	 -1.426034	 2.767465	 -0.360092	 0.593755	 -0.661418	 0.283401	 2
1463571682.262	 15	 -1.455551	 -0.338278	 0.234728	 -1.413208	 -1.430605	 2.677533	 -0.362280	 0.598154	 -0.656682	 0.282372	 2
1463571682.272	 15	 -1.770376	 -0.931767	 0.401403	 -1.540880	 -1.435809	 2.556412	 -0.366110	 0.603284	 -0.649659	 0.282765	 2
1463571682.282	 15	 -1.917526	 -1.470679	 0.535153	 -1.697427	 -1.439950	 2.412123	 -0.371624	 0.608387	 -0.640727	 0.285008	 2
1463571682.292	 15	 -2.069757	 -1.718243	 0.655671	 -1.875706	 -1.441729	 2.249228	 -0.377937	 0.613582	 -0.630516	 0.288322	 2
1463571682.302	 15	 -2.388985	 -1.571168	 0.714173	 -2.074547	 -1.439128	 2.065197	 -0.384216	 0.619730	 -0.619295	 0.291181	 2
1463571682.312	 15	 -2.860734	 -0.963023	 0.783622	 -2.281498	 -1.429739	 1.867844	 -0.389326	 0.627920	 -0.607454	 0.291790	 2
1463571682.322	 15	 -3.416421	 0.098071	 0.945410	 -2.476641	 -1.412122	 1.672505	 -0.391844	 0.639242	 -0.595382	 0.288700	 2
1463571682.332	 15	 -3.869587	 1.511909	 1.242807	 -2.641004	 -1.386952	 1.494050	 -0.390075	 0.654241	 -0.583809	 0.281028	 2
1463571682.342	 15	 -4.206247	 2.680217	 1.610443	 -2.771225	 -1.355825	 1.336492	 -0.383713	 0.672453	 -0.572714	 0.269389	 2
1463571682.352	 15	 -4.435345	 3.226169	 1.855183	 -2.870585	 -1.319834	 1.202322	 -0.374455	 0.692401	 -0.561301	 0.255548	 2
1463571682.362	 15	 -4.505875	 3.583333	 1.944381	 -2.941166	 -1.280490	 1.092893	 -0.363583	 0.712787	 -0.549530	 0.240332	 2
1463571682.372	 15	 -4.270322	 4.109900	 2.050609	 -2.987380	 -1.241176	 1.002734	 -0.350563	 0.732821	 -0.538549	 0.223705	 2
1463571682.382	 15	 -3.747899	 4.692041	 2.309392	 -3.017845	 -1.205736	 0.921937	 -0.334298	 0.751919	 -0.529508	 0.206114	 2
1463571682.392	 15	 -3.186470	 4.952803	 2.560582	 -3.040327	 -1.175542	 0.844697	 -0.315078	 0.769585	 -0.522398	 0.188587	 2
1463571682.412	 16	 -2.493877	 3.251078	 2.700712	 -3.086224	 -1.125612	 0.704581	 -0.277854	 0.798611	 -0.508679	 0.162061	 2
1463571682.422	 16	 -2.203513	 1.698328	 2.687998	 -3.122010	 -1.103842	 0.641297	 -0.263499	 0.809697	 -0.500204	 0.157337	 2
1463571682.432	 16	 -1.785174	 0.052425	 2.495321	 3.116401	 -1.084842	 0.585718	 -0.253458	 0.818053	 -0.491078	 0.159342	 2
1463571682.442	 16	 -1.379690	 -1.495459	 2.173645	 3.064663	 -1.068983	 0.539674	 -0.248105	 0.823554	 -0.481786	 0.167588	 2
1463571682.452	 16	 -1.106508	 -2.773129	 1.806610	 3.008162	 -1.055417	 0.503386	 -0.247198	 0.826520	 -0.472260	 0.180910	 2
1463571682.472	 17	 -0.978400	 -3.568532	 1.150109	 2.899483	 -1.031159	 0.457380	 -0.253778	 0.827657	 -0.452870	 0.213281	 2
1463571682.482	 17	 -1.133233	 -3.267889	 1.038087	 2.853751	 -1.017873	 0.443319	 -0.258175	 0.827727	 -0.442878	 0.228197	 2
1463571682.492	 17	 -1.289808	 -2.552456	 1.069554	 2.816218	 -1.002744	 0.431469	 -0.261283	 0.828621	 -0.432884	 0.240271	 2
1463571682.502	 17	 -1.357405	 -1.547790	 1.127451	 2.788746	 -0.986273	 0.420504	 -0.262241	 0.830742	 -0.423514	 0.248460	 2
1463571682.522	 18	 -1.490744	 1.400949	 1.130473	 2.780828	 -0.952604	 0.400479	 -0.254511	 0.840447	 -0.410332	 0.245969	 2
1463571682.532	 18	 -1.543797	 1.717837	 1.099779	 2.790742	 -0.934232	 0.391883	 -0.248253	 0.847043	 -0.404579	 0.239174	 2
1463571682.542	 18	 -1.340934	 1.435165	 0.922729	 2.800119	 -0.917682	 0.384577	 -0.242715	 0.852865	 -0.399313	 0.232939	 2
1463571682.552	 18	 -0.973721	 1.192095	 0.699854	 2.807885	 -0.905105	 0.378729	 -0.238258	 0.857321	 -0.395367	 0.227857	 2
1463571682.562	 18	 -0.620479	 1.136414	 0.498028	 2.815680	 -0.896649	 0.374089	 -0.234454	 0.860649	 -0.393066	 0.223189	 2
1463571682.572	 18	 -0.297787	 1.123727	 0.345894	 2.823941	 -0.891881	 0.370241	 -0.231024	 0.863073	 -0.392337	 0.218643	 2
1463571682.592	 19	 0.199671	 0.967717	 0.300678	 2.837563	 -0.890659	 0.361254	 -0.224424	 0.865831	 -0.394310	 0.210929	 2
1463571682.602	 19	 0.389797	 0.948489	 0.365987	 2.841625	 -0.892900	 0.354302	 -0.220674	 0.866532	 -0.396486	 0.207901	 2
1463571682.622	 20	 0.714254	 1.225823	 0.313520	 2.850644	 -0.902197	 0.337848	 -0.212003	 0.867163	 -0.403277	 0.201123	 2
1463571682.632	 20	 0.880933	 1.403910	 0.151730	 2.858811	 -0.909660	 0.330916	 -0.207545	 0.867029	 -0.408136	 0.196499	 2
1463571682.642	 20	 1.100321	 1.523720	 -0.104848	 2.870562	 -0.919777	 0.326825	 -0.203612	 0.866303	 -0.414224	 0.190997	 2
1463571682.652	 20	 1.398091	 1.577907	 -0.431994	 2.886115	 -0.933381	 0.326693	 -0.200602	 0.864674	 -0.421826	 0.184827	 2
1463571682.662	 20	 1.843096	 1.650583	 -0.790091	 2.905993	 -0.951781	 0.331125	 -0.198586	 0.861781	 -0.431517	 0.178020	 2
1463571682.672	 20	 2.437036	 1.824088	 -1.117640	 2.931026	 -0.976312	 0.340062	 -0.197197	 0.857303	 -0.443970	 0.170397	 2
1463571682.682	 20	 2.997562	 2.112910	 -1.396931	 2.962933	 -1.007087	 0.353743	 -0.195873	 0.851202	 -0.459362	 0.161482	 2
1463571682.692	 20	 3.031807	 2.123700	 -1.655043	 3.002238	 -1.039919	 0.374566	 -0.195177	 0.844155	 -0.475723	 0.151646	 2
1463571682.702	 20	 2.107222	 1.538809	 -1.868785	 3.046185	 -1.065929	 0.405425	 -0.196939	 0.837831	 -0.488850	 0.142407	 2
1463571682.712	 20	 0.159467	 1.423986	 -1.769766	 3.092500	 -1.074067	 0.442279	 -0.200659	 0.835300	 -0.494355	 0.132754	 2
1463571682.722	 20	 -1.092677	 1.209608	 -1.331356	 3.132669	 -1.065814	 0.473121	 -0.204064	 0.836806	 -0.492985	 0.122799	 2
1463571682.732	 20	 -1.243701	 0.494098	 -0.618375	 -3.129242	 -1.053248	 0.489670	 -0.206538	 0.839463	 -0.488913	 0.116651	 2
1463571682.742	 20	 -0.731174	 -0.328162	 0.162438	 -3.130066	 -1.044358	 0.489989	 -0.207435	 0.841536	 -0.485080	 0.116129	 2
1463571682.752	 20	 0.013959	 -1.015142	 0.771963	 3.133476	 -1.042637	 0.477330	 -0.206964	 0.842098	 -0.483071	 0.121154	 2
1463571682.762	 20	 0.508508	 -1.140203	 1.032934	 3.104738	 -1.046533	 0.457406	 -0.205313	 0.841406	 -0.482999	 0.128818	 2
1463571682.772	 20	 0.455878	 -0.439938	 0.921608	 3.080706	 -1.051109	 0.437454	 -0.202524	 0.840731	 -0.483799	 0.134514	 2
1463571682.782	 20	 -0.095528	 1.171613	 0.430905	 3.077909	 -1.051253	 0.425792	 -0.198290	 0.841677	 -0.484360	 0.132880	 2
1463571682.792	 20	 -0.164542	 2.109557	 -0.058543	 3.096847	 -1.049240	 0.425028	 -0.193460	 0.843468	 -0.485410	 0.124546	 2
1463571682.802	 20	 0.246779	 2.114634	 -0.218744	 3.121796	 -1.050671	 0.429149	 -0.189060	 0.844217	 -0.488155	 0.115148	 2
1463571682.812	 20	 0.598151	 2.164545	 0.058957	 -3.139610	 -1.055901	 0.429651	 -0.183663	 0.844091	 -0.492367	 0.106554	 2
1463571682.822	 20	 0.690002	 2.080935	 0.446382	 -3.124429	 -1.062838	 0.422553	 -0.176528	 0.843800	 -0.497022	 0.099033	 2
1463571682.832	 20	 0.408278	 1.395643	 0.727017	 -3.120305	 -1.067960	 0.409082	 -0.169527	 0.843897	 -0.500186	 0.094403	 2
1463571682.842	 20	 -0.143669	 0.435673	 1.008514	 -3.130315	 -1.068191	 0.389723	 -0.163845	 0.844982	 -0.500360	 0.093807	 2
1463571682.852	 20	 -0.815083	 -0.670421	 1.478332	 3.124515	 -1.061682	 0.361971	 -0.159474	 0.847487	 -0.496646	 0.098366	 2
1463571682.872	 21	 -1.198352	 0.446981	 1.994040	 3.050084	 -1.033911	 0.287203	 -0.146651	 0.856244	 -0.482946	 0.110008	 2
1463571682.882	 21	 -0.064609	 3.440279	 1.760503	 3.046941	 -1.028580	 0.252584	 -0.132627	 0.859810	 -0.482265	 0.102751	 2
1463571682.892	 21	 0.140817	 4.876175	 1.260510	 3.070179	 -1.029306	 0.224886	 -0.115070	 0.862443	 -0.485326	 0.086075	 2
1463571682.902	 21	 -0.321554	 4.786663	 0.757466	 3.104726	 -1.026569	 0.208836	 -0.099783	 0.865301	 -0.486610	 0.067141	 2
1463571682.912	 21	 -0.478231	 3.903445	 0.782584	 3.134284	 -1.021901	 0.194245	 -0.086363	 0.867990	 -0.486390	 0.050591	 2
1463571682.922	 21	 -0.452941	 2.107284	 0.684636	 -3.133624	 -1.018745	 0.181458	 -0.077167	 0.869629	 -0.485935	 0.040717	 2
1463571682.932	 21	 -0.252633	 0.158955	 0.500634	 -3.136021	 -1.015710	 0.171078	 -0.073302	 0.870707	 -0.484732	 0.039122	 2
1463571682.942	 21	 0.175330	 -1.652496	 0.509893	 3.127082	 -1.016073	 0.161799	 -0.074121	 0.870536	 -0.484347	 0.045629	 2
1463571682.952	 21	 1.164410	 -2.746444	 0.686136	 3.090515	 -1.024704	 0.148812	 -0.077255	 0.867968	 -0.487058	 0.058626	 2
1463571682.962	 21	 2.360066	 -2.782910	 0.834185	 3.046590	 -1.044739	 0.130466	 -0.080070	 0.862276	 -0.494630	 0.073551	 2
1463571682.972	 21	 3.095552	 -2.595050	 0.929711	 2.997663	 -1.073010	 0.104573	 -0.081505	 0.854183	 -0.505886	 0.088360	 2
1463571682.982	 21	 3.138108	 -2.401556	 0.935404	 2.945432	 -1.102610	 0.073396	 -0.082361	 0.845295	 -0.517870	 0.102485	 2
1463571682.992	 21	 2.755500	 -2.151884	 1.035912	 2.890043	 -1.128313	 0.036237	 -0.082253	 0.837012	 -0.528472	 0.115599	 2
1463571683.002	 21	 2.225040	 -2.119720	 0.710443	 2.838168	 -1.148829	 0.002364	 -0.083097	 0.829770	 -0.536952	 0.127511	 2
1463571683.012	 21	 1.661769	 -2.152345	 0.530667	 2.791767	 -1.164070	 -0.024941	 -0.085399	 0.823729	 -0.543108	 0.138607	 2
1463571683.022	 21	 1.265679	 -2.294907	 0.658549	 2.744337	 -1.174396	 -0.052046	 -0.088051	 0.818696	 -0.547228	 0.150084	 2
1463571683.032	 21	 1.149905	 -2.593935	 0.883782	 2.689341	 -1.181552	 -0.084377	 -0.090636	 0.813913	 -0.550196	 0.163143	 2
1463571683.042	 21	 1.240682	 -2.885999	 0.979390	 2.626508	 -1.187752	 -0.121847	 -0.093466	 0.808635	 -0.552971	 0.177755	 2
1463571683.052	 21	 1.539983	 -3.241001	 0.987335	 2.554570	 -1.194923	 -0.165438	 -0.096806	 0.802150	 -0.556410	 0.193886	 2
1463571683.062	 21	 1.682063	 -3.090187	 0.575052	 2.482604	 -1.204403	 -0.208297	 -0.101229	 0.794589	 -0.560803	 0.209480	 2
1463571683.072	 21	 1.493199	 -2.173405	 -0.240739	 2.433194	 -1.216496	 -0.235491	 -0.106402	 0.787661	 -0.565685	 0.219702	 2
1463571683.082	 21	 1.484951	 -1.873035	 -1.063838	 2.405432	 -1.233261	 -0.244896	 -0.113552	 0.780904	 -0.571371	 0.225456	 2
1463571683.092	 21	 1.616749	 -2.311485	 -1.483647	 2.382413	 -1.254564	 -0.246222	 -0.123496	 0.773010	 -0.577879	 0.230781	 2
1463571683.102	 21	 1.514180	 -2.883651	 -1.370844	 2.352925	 -1.275624	 -0.248393	 -0.135117	 0.764367	 -0.583742	 0.238183	 2
1463571683.112	 21	 1.327724	 -3.356915	 -1.000607	 2.312612	 -1.293076	 -0.256587	 -0.147145	 0.755622	 -0.588009	 0.248253	 2
1463571683.122	 21	 1.156302	 -3.643590	 -0.560550	 2.257308	 -1.305849	 -0.276538	 -0.158508	 0.746903	 -0.590695	 0.260943	 2
1463571683.132	 21	 0.996114	 -3.707829	 -0.243216	 2.194795	 -1.314404	 -0.302783	 -0.169065	 0.738581	 -0.591936	 0.274821	 2
1463571683.142	 21	 0.862452	 -3.622678	 -0.142144	 2.133092	 -1.320698	 -0.328855	 -0.179177	 0.730664	 -0.592264	 0.288528	 2
1463571683.152	 21	 0.767054	 -3.447235	 -0.187637	 2.073687	 -1.326077	 -0.353980	 -0.188918	 0.722977	 -0.592181	 0.301556	 2
1463571683.162	 21	 0.708142	 -3.193497	 -0.275349	 2.019146	 -1.331351	 -0.376504	 -0.198279	 0.715603	 -0.591954	 0.313349	 2
1463571683.172	 21	 0.723413	 -2.839844	 -0.342526	 1.970301	 -1.336555	 -0.396672	 -0.206900	 0.708754	 -0.591736	 0.323588	 2
1463571683.182	 21	 0.750807	 -2.411726	 -0.402726	 1.921529	 -1.342878	 -0.420865	 -0.214500	 0.702002	 -0.592345	 0.332130	 2
1463571683.192	 21	 0.717436	 -1.909503	 -0.535246	 1.877910	 -1.349921	 -0.444701	 -0.221050	 0.695882	 -0.593506	 0.338578	 2
1463571683.202	 21	 0.628354	 -1.421219	 -0.705777	 1.842602	 -1.358160	 -0.465116	 -0.226803	 0.690572	 -0.595190	 0.342666	 2
1463571683.212	 21	 0.513835	 -0.934654	 -0.830276	 1.816845	 -1.367294	 -0.480593	 -0.231791	 0.686211	 -0.597218	 0.344554	 2
1463571683.222	 21	 0.462155	 -0.479077	 -0.949215	 1.799158	 -1.377319	 -0.492656	 -0.235885	 0.682731	 -0.599712	 0.344357	 2
1463571683.232	 21	 0.538210	 -0.121479	 -1.033942	 1.782485	 -1.388359	 -0.507543	 -0.239083	 0.679632	 -0.602960	 0.342606	 2
1463571683.242	 21	 0.671616	 0.116294	 -1.045680	 1.759730	 -1.399882	 -0.531321	 -0.241342	 0.676554	 -0.606990	 0.339988	 2
1463571683.252	 21	 0.747834	 0.185429	 -1.014793	 1.728725	 -1.411245	 -0.564577	 -0.243008	 0.673380	 -0.611422	 0.337149	 2
1463571683.262	 21	 0.755140	 0.092313	 -0.945383	 1.690395	 -1.421841	 -0.604601	 -0.244603	 0.670092	 -0.615728	 0.334703	 2
1463571683.272	 21	 0.726863	 -0.093104	 -0.858404	 1.645435	 -1.431313	 -0.649627	 -0.246439	 0.666672	 -0.619606	 0.333023	 2
1463571683.282	 21	 0.681920	 -0.373519	 -0.824386	 1.594620	 -1.439926	 -0.697902	 -0.248966	 0.663001	 -0.622915	 0.332299	 2
1463571683.292	 21	 0.652545	 -0.710664	 -0.833662	 1.536288	 -1.448196	 -0.750400	 -0.252566	 0.658863	 -0.625689	 0.332600	 2
1463571683.302	 21	 0.606248	 -1.020065	 -0.837204	 1.470221	 -1.456139	 -0.807422	 -0.257243	 0.654280	 -0.627915	 0.333865	 2
1463571683.322	 22	 0.486607	 -1.321343	 -0.777151	 1.322742	 -1.470327	 -0.931049	 -0.268467	 0.644680	 -0.630861	 0.338122	 2
1463571683.332	 22	 0.396007	 -1.384147	 -0.674636	 1.247480	 -1.475875	 -0.992838	 -0.274350	 0.640059	 -0.631540	 0.340901	 2
1463571683.342	 22	 0.225913	 -1.333958	 -0.569309	 1.184058	 -1.480492	 -1.042965	 -0.280042	 0.636058	 -0.631559	 0.343716	 2
1463571683.352	 22	 -0.021936	 -1.242145	 -0.475707	 1.144472	 -1.484898	 -1.069958	 -0.285555	 0.633024	 -0.630762	 0.346234	 2
1463571683.362	 22	 -0.322815	 -1.107402	 -0.350337	 1.140517	 -1.489438	 -1.062503	 -0.290790	 0.631262	 -0.629019	 0.348259	 2
1463571683.372	 22	 -0.572354	 -1.030596	 -0.126837	 1.180466	 -1.493177	 -1.011787	 -0.295598	 0.630769	 -0.626147	 0.350274	 2
1463571683.382	 22	 -0.682079	 -0.933081	 0.075389	 1.252888	 -1.495225	 -0.929633	 -0.299639	 0.631202	 -0.622605	 0.352367	 2
1463571683.392	 22	 -0.757339	 -0.960407	 0.236721	 1.343985	 -1.495252	 -0.828670	 -0.303271	 0.632093	 -0.618484	 0.354913	 2
1463571683.402	 22	 -0.897556	 -0.918748	 0.351300	 1.452390	 -1.493547	 -0.710578	 -0.306657	 0.633564	 -0.613770	 0.357554	 2
1463571683.412	 22	 -1.072290	 -0.730196	 0.467547	 1.577064	 -1.489720	 -0.577601	 -0.309514	 0.635968	 -0.608503	 0.359819	 2
1463571683.422	 22	 -1.269153	 -0.440893	 0.534833	 1.711414	 -1.483642	 -0.437667	 -0.311595	 0.639538	 -0.602901	 0.361125	 2
1463571683.432	 22	 -1.580258	 -0.167171	 0.607231	 1.854480	 -1.474708	 -0.291593	 -0.313117	 0.644503	 -0.596668	 0.361332	 2
1463571683.442	 22	 -2.044899	 0.099866	 0.722470	 2.005796	 -1.461479	 -0.139880	 -0.314230	 0.651343	 -0.589273	 0.360236	 2
1463571683.452	 22	 -2.564189	 0.321313	 0.835628	 2.153685	 -1.442489	 0.006334	 -0.315157	 0.660221	 -0.580258	 0.357889	 2
1463571683.462	 22	 -3.052642	 0.510835	 0.958878	 2.284077	 -1.417370	 0.133396	 -0.315999	 0.670927	 -0.569571	 0.354388	 2
1463571683.472	 22	 -3.303588	 0.968412	 1.181671	 2.385479	 -1.386687	 0.227861	 -0.315638	 0.683349	 -0.557856	 0.349577	 2
1463571683.482	 22	 -3.072345	 1.960490	 1.530999	 2.452205	 -1.353468	 0.278822	 -0.311526	 0.697239	 -0.547087	 0.342790	 2
1463571683.492	 22	 -2.387153	 3.234404	 1.914167	 2.489035	 -1.321971	 0.286673	 -0.301560	 0.711965	 -0.539401	 0.333486	 2
1463571683.502	 22	 -1.587195	 4.213063	 2.256287	 2.504400	 -1.294709	 0.261149	 -0.285931	 0.726495	 -0.535321	 0.322306	 2
1463571683.512	 22	 -0.950038	 4.590406	 2.627267	 2.503126	 -1.270838	 0.212522	 -0.266265	 0.740094	 -0.533560	 0.310928	 2
1463571683.522	 22	 -0.608237	 4.383283	 2.950619	 2.488939	 -1.248188	 0.150678	 -0.244651	 0.752387	 -0.532373	 0.301061	 2
1463571683.532	 22	 -0.669561	 3.665849	 3.141643	 2.468406	 -1.224156	 0.087916	 -0.223530	 0.763443	 -0.529925	 0.293885	 2
1463571683.542	 22	 -1.129129	 2.586834	 3.178234	 2.448229	 -1.196361	 0.035698	 -0.205184	 0.773659	 -0.524540	 0.290188	 2
1463571683.552	 22	 -1.794890	 1.380582	 3.039586	 2.433170	 -1.164089	 0.001194	 -0.191143	 0.783369	 -0.515433	 0.290046	 2
1463571683.562	 22	 -2.383981	 0.211767	 2.814291	 2.422675	 -1.128261	 -0.015730	 -0.181856	 0.792499	 -0.502831	 0.293317	 2
1463571683.572	 22	 -2.641010	 -0.748034	 2.651997	 2.411541	 -1.091019	 -0.022298	 -0.176303	 0.800555	 -0.488041	 0.299741	 2
1463571683.582	 22	 -2.622260	 -1.429613	 2.539981	 2.396403	 -1.054181	 -0.025015	 -0.173034	 0.807200	 -0.472405	 0.308740	 2
1463571683.592	 22	 -2.435109	 -1.877086	 2.364731	 2.377707	 -1.019534	 -0.026055	 -0.171313	 0.812263	 -0.457011	 0.319409	 2
1463571683.602	 22	 -2.137503	 -1.994023	 2.200122	 2.357028	 -0.988038	 -0.026992	 -0.170278	 0.815928	 -0.442652	 0.330645	 2
1463571683.612	 22	 -1.789211	 -1.799244	 2.066747	 2.336520	 -0.959904	 -0.029307	 -0.168909	 0.818681	 -0.429876	 0.341229	 2
1463571683.622	 22	 -1.481650	 -1.421359	 1.939694	 2.318187	 -0.934923	 -0.033101	 -0.166761	 0.820993	 -0.418824	 0.350355	 2
1463571683.632	 22	 -1.239507	 -0.925933	 1.861198	 2.303580	 -0.912322	 -0.038192	 -0.163529	 0.823362	 -0.409300	 0.357502	 2
1463571683.642	 22	 -1.026623	 -0.347042	 1.840219	 2.293321	 -0.891393	 -0.044940	 -0.158885	 0.826140	 -0.401134	 0.362410	 2
1463571683.652	 22	 -0.821027	 0.242748	 1.852443	 2.287422	 -0.871754	 -0.053783	 -0.152638	 0.829480	 -0.394239	 0.365022	 2
1463571683.662	 22	 -0.630167	 0.846657	 1.899031	 2.286014	 -0.853058	 -0.064884	 -0.144674	 0.833497	 -0.388484	 0.365283	 2
1463571683.672	 22	 -0.373413	 1.340217	 2.009031	 2.287425	 -0.835236	 -0.079385	 -0.134855	 0.837966	 -0.383887	 0.363673	 2
1463571683.682	 22	 -0.077477	 1.698136	 2.203753	 2.289429	 -0.818053	 -0.098592	 -0.123010	 0.842561	 -0.380403	 0.360905	 2
1463571683.702	 23	 0.306120	 2.513384	 2.430744	 2.297989	 -0.784672	 -0.147581	 -0.093958	 0.852277	 -0.375776	 0.351551	 2
1463571683.712	 23	 0.430415	 2.717451	 2.314327	 2.306436	 -0.769826	 -0.173831	 -0.078158	 0.857212	 -0.374547	 0.344663	 2
1463571683.722	 23	 0.551060	 2.712096	 2.064903	 2.316183	 -0.757591	 -0.199034	 -0.063030	 0.861627	 -0.374101	 0.337156	 2
1463571683.732	 23	 0.673499	 2.629142	 1.822203	 2.326375	 -0.748249	 -0.223032	 -0.048872	 0.865381	 -0.374496	 0.329364	 2
1463571683.742	 23	 0.769724	 2.378559	 1.627196	 2.335236	 -0.741241	 -0.246090	 -0.035801	 0.868325	 -0.375518	 0.322050	 2
1463571683.752	 23	 0.883693	 2.115604	 1.346659	 2.342427	 -0.736885	 -0.267777	 -0.024141	 0.870412	 -0.377267	 0.315387	 2
1463571683.762	 23	 1.010802	 1.822808	 0.916523	 2.348538	 -0.736358	 -0.286969	 -0.014519	 0.871625	 -0.380104	 0.309160	 2
1463571683.772	 23	 1.138134	 1.449391	 0.369466	 2.353576	 -0.740511	 -0.302442	 -0.007652	 0.871908	 -0.384227	 0.303459	 2
1463571683.782	 23	 1.257708	 1.026968	 -0.191833	 2.357294	 -0.749564	 -0.313747	 -0.003835	 0.871244	 -0.389690	 0.298430	 2
1463571683.792	 23	 1.335419	 0.494558	 -0.683452	 2.358640	 -0.762910	 -0.321040	 -0.003095	 0.869582	 -0.396285	 0.294577	 2
1463571683.802	 23	 1.324369	 -0.085382	 -1.165148	 2.357256	 -0.779681	 -0.323872	 -0.005538	 0.866984	 -0.403592	 0.292270	 2
1463571683.812	 23	 1.227843	 -0.618860	 -1.727731	 2.354675	 -0.799770	 -0.320612	 -0.011550	 0.863640	 -0.411322	 0.291217	 2
1463571683.822	 23	 1.038963	 -0.977189	 -2.375273	 2.353979	 -0.823146	 -0.309151	 -0.021369	 0.859882	 -0.419167	 0.290594	 2
1463571683.832	 23	 0.742950	 -1.154927	 -2.803852	 2.357569	 -0.848188	 -0.289212	 -0.034196	 0.856138	 -0.426488	 0.289770	 2
1463571683.842	 23	 0.299362	 -1.331025	 -2.772852	 2.363913	 -0.871131	 -0.263199	 -0.048487	 0.852687	 -0.432153	 0.289514	 2
1463571683.852	 23	 -0.569224	 -0.059026	 -2.108667	 2.381806	 -0.884852	 -0.233602	 -0.059873	 0.852067	 -0.433953	 0.286498	 2
1463571683.862	 23	 -1.261557	 1.548634	 -0.994207	 2.414741	 -0.885143	 -0.206716	 -0.064282	 0.855830	 -0.431299	 0.278215	 2
1463571683.872	 23	 -1.084939	 2.195690	 -0.284189	 2.448571	 -0.879057	 -0.189578	 -0.063303	 0.861022	 -0.427514	 0.268079	 2
1463571683.882	 23	 -0.586607	 2.281346	 0.141771	 2.477120	 -0.873232	 -0.183108	 -0.059028	 0.865656	 -0.425098	 0.257775	 2
1463571683.892	 23	 -0.151448	 1.037063	 0.483434	 2.489300	 -0.868748	 -0.185694	 -0.054585	 0.868113	 -0.423887	 0.252428	 2
1463571683.902	 23	 0.283699	 -0.249249	 0.603028	 2.482428	 -0.866525	 -0.194551	 -0.051832	 0.867889	 -0.423889	 0.253774	 2
1463571683.912	 23	 0.682540	 -0.314195	 0.608542	 2.469206	 -0.867438	 -0.207555	 -0.049155	 0.866363	 -0.425597	 0.256643	 2
1463571683.922	 23	 0.888500	 -0.152583	 0.683922	 2.454864	 -0.869920	 -0.223742	 -0.045639	 0.864448	 -0.428381	 0.259106	 2
1463571683.932	 23	 0.871553	 0.102543	 0.950753	 2.440455	 -0.871185	 -0.242905	 -0.040683	 0.862762	 -0.431088	 0.261057	 2
1463571683.942	 23	 0.694901	 0.121719	 1.323355	 2.425167	 -0.868892	 -0.264823	 -0.034120	 0.861572	 -0.432728	 0.263204	 2
1463571683.952	 23	 0.504840	 -0.166848	 1.640987	 2.406126	 -0.862542	 -0.288706	 -0.026774	 0.860503	 -0.433001	 0.267073	 2
1463571683.972	 24	 0.167271	 -0.390208	 2.090534	 2.362803	 -0.840453	 -0.336340	 -0.011315	 0.858656	 -0.430115	 0.278537	 2
1463571683.982	 24	 0.308640	 -0.182316	 2.507950	 2.339713	 -0.825175	 -0.364181	 -0.001175	 0.857831	 -0.427822	 0.284769	 2
1463571683.992	 24	 0.591785	 0.249310	 2.887847	 2.316596	 -0.808340	 -0.397700	 0.011843	 0.856855	 -0.425985	 0.290166	 2
1463571684.002	 24	 1.295946	 0.554338	 3.287413	 2.291316	 -0.791969	 -0.439741	 0.028055	 0.854951	 -0.425916	 0.294732	 2
1463571684.012	 24	 2.435732	 0.821583	 3.786212	 2.258871	 -0.777959	 -0.496413	 0.048493	 0.850786	 -0.429495	 0.298907	 2
1463571684.022	 24	 2.007513	 1.657848	 3.796657	 2.231158	 -0.762512	 -0.555560	 0.071292	 0.846578	 -0.433291	 0.300802	 2
1463571684.032	 24	 -0.267559	 3.081129	 3.487600	 2.237158	 -0.735820	 -0.587582	 0.092617	 0.848838	 -0.427720	 0.296567	 2
1463571684.042	 24	 0.007656	 2.757611	 3.573849	 2.248876	 -0.706886	 -0.614418	 0.113488	 0.851831	 -0.420072	 0.291624	 2
1463571684.052	 24	 1.804413	 1.422849	 3.722701	 2.238400	 -0.686195	 -0.658316	 0.134964	 0.849279	 -0.419276	 0.291064	 2
1463571684.062	 24	 2.963352	 0.307099	 3.161886	 2.210115	 -0.676502	 -0.712483	 0.154285	 0.841914	 -0.425623	 0.293635	 2
1463571684.072	 24	 3.027611	 -0.795528	 2.648027	 2.172101	 -0.671872	 -0.765026	 0.169280	 0.832302	 -0.434803	 0.299273	 2
1463571684.082	 24	 2.390567	 -1.555104	 2.222332	 2.130856	 -0.666655	 -0.808705	 0.179669	 0.822476	 -0.443187	 0.307957	 2
1463571684.092	 24	 1.640503	 -1.775836	 1.988078	 2.093075	 -0.658508	 -0.841780	 0.186972	 0.813828	 -0.449016	 0.317978	 2
1463571684.102	 24	 1.393495	 -1.840159	 1.672033	 2.058766	 -0.649889	 -0.868123	 0.192280	 0.806015	 -0.453617	 0.328026	 2
1463571684.112	 24	 1.586954	 -2.035799	 1.172948	 2.024393	 -0.645198	 -0.892553	 0.195553	 0.798008	 -0.459465	 0.337393	 2
1463571684.122	 24	 1.679742	 -2.153933	 0.760723	 1.988822	 -0.644621	 -0.916121	 0.196837	 0.789621	 -0.466797	 0.346200	 2
1463571684.132	 24	 1.791153	 -2.640148	 0.639060	 1.949755	 -0.645402	 -0.939385	 0.196541	 0.780475	 -0.474968	 0.355858	 2
1463571684.142	 24	 2.101013	 -2.588693	 0.673077	 1.907329	 -0.646290	 -0.965945	 0.196399	 0.770219	 -0.484199	 0.365707	 2
1463571684.152	 24	 2.150843	 -2.635830	 0.646626	 1.864513	 -0.646549	 -0.994366	 0.196721	 0.759500	 -0.493747	 0.375065	 2
1463571684.162	 24	 2.076717	 -3.104185	 0.273094	 1.818713	 -0.648662	 -1.020908	 0.194643	 0.748256	 -0.503874	 0.385147	 2
1463571684.172	 24	 2.024758	 -3.714351	 0.006757	 1.767420	 -0.652644	 -1.046086	 0.189654	 0.735959	 -0.514810	 0.396694	 2
1463571684.182	 24	 1.857996	 -4.251656	 -0.232324	 1.711905	 -0.657558	 -1.069266	 0.182063	 0.722849	 -0.525920	 0.409573	 2
1463571684.192	 24	 1.725723	 -4.361717	 -0.355825	 1.655072	 -0.662864	 -1.090961	 0.172968	 0.709406	 -0.536791	 0.422706	 2
1463571684.202	 24	 1.507478	 -4.196680	 -0.419532	 1.600429	 -0.667778	 -1.110560	 0.163390	 0.696373	 -0.546742	 0.435248	 2
1463571684.212	 24	 1.290766	 -3.897933	 -0.524639	 1.550086	 -0.672783	 -1.127661	 0.153696	 0.684310	 -0.555615	 0.446532	 2
1463571684.222	 24	 1.076998	 -3.620755	 -0.669405	 1.503831	 -0.678593	 -1.142543	 0.143776	 0.673263	 -0.563639	 0.456461	 2
1463571684.232	 24	 0.877515	 -3.206838	 -0.872706	 1.462650	 -0.685926	 -1.155283	 0.133764	 0.663585	 -0.570898	 0.464583	 2
1463571684.242	 24	 0.841182	 -2.786251	 -1.116799	 1.425746	 -0.695329	 -1.167784	 0.123933	 0.655094	 -0.577988	 0.470556	 2
1463571684.252	 24	 0.909381	 -2.409293	 -1.321709	 1.391514	 -0.706538	 -1.182156	 0.114626	 0.647335	 -0.585449	 0.474412	 2
1463571684.262	 24	 0.736382	 -2.081397	 -1.203115	 1.361117	 -0.717329	 -1.195707	 0.106135	 0.640554	 -0.592199	 0.477207	 2
1463571684.272	 24	 0.347960	 -1.824482	 -0.693236	 1.336752	 -0.724437	 -1.203894	 0.098919	 0.635121	 -0.596570	 0.480564	 2
1463571684.282	 24	 0.100514	 -1.484477	 -0.255219	 1.319010	 -0.727527	 -1.206993	 0.093469	 0.631058	 -0.598659	 0.484394	 2
1463571684.292	 24	 -0.046253	 -1.285233	 0.173152	 1.306008	 -0.726982	 -1.206641	 0.089665	 0.627845	 -0.599084	 0.488743	 2
1463571684.302	 24	 -0.237860	 -1.215768	 1.020617	 1.297079	 -0.719931	 -1.201482	 0.087969	 0.625015	 -0.597128	 0.495031	 2
1463571684.312	 24	 -0.441422	 -1.223637	 1.905833	 1.292187	 -0.704688	 -1.190361	 0.088658	 0.622401	 -0.592199	 0.504041	 2
1463571684.322	 24	 -0.600948	 -1.194045	 2.548020	 1.290159	 -0.683144	 -1.174665	 0.091132	 0.619909	 -0.584862	 0.515116	 2
1463571684.332	 24	 -0.666144	 -1.093144	 2.941727	 1.290225	 -0.657517	 -1.156504	 0.095001	 0.617566	 -0.575905	 0.527182	 2
1463571684.342	 24	 -0.649774	 -0.989365	 3.178083	 1.291314	 -0.629313	 -1.137826	 0.099988	 0.615220	 -0.566044	 0.539537	 2
1463571684.352	 24	 -0.566768	 -0.973330	 3.369346	 1.292126	 -0.599012	 -1.119668	 0.105861	 0.612537	 -0.555659	 0.552119	 2
1463571684.362	 24	 -0.458758	 -1.136683	 3.620537	 1.290674	 -0.566198	 -1.102329	 0.112327	 0.608866	 -0.544843	 0.565518	 2
1463571684.372	 24	 -0.298020	 -1.170750	 3.827710	 1.287383	 -0.530811	 -1.086185	 0.119669	 0.604236	 -0.533666	 0.579464	 2
1463571684.382	 24	 -0.243898	 -1.052472	 3.879496	 1.283917	 -0.494304	 -1.070971	 0.127728	 0.599284	 -0.522240	 0.593136	 2
1463571684.392	 24	 -0.349776	 -0.831303	 3.828122	 1.282234	 -0.458367	 -1.055269	 0.135950	 0.594910	 -0.510358	 0.605916	 2
1463571684.402	 24	 -0.449656	 -0.684704	 3.763213	 1.282168	 -0.423365	 -1.038831	 0.144057	 0.591180	 -0.498021	 0.617842	 2
1463571684.412	 24	 -0.571576	 -0.716458	 3.735204	 1.281949	 -0.389048	 -1.021649	 0.151681	 0.587548	 -0.485299	 0.629496	 2
1463571684.422	 24	 -0.784418	 -0.814766	 3.732945	 1.280937	 -0.355354	 -1.002759	 0.158419	 0.583886	 -0.471932	 0.641296	 2
1463571684.432	 24	 -1.047480	 -0.948896	 3.757434	 1.278892	 -0.322246	 -0.981398	 0.164031	 0.580183	 -0.457678	 0.653462	 2
1463571684.442	 24	 -1.267843	 -1.040947	 3.735049	 1.275794	 -0.289905	 -0.957811	 0.168551	 0.576442	 -0.442649	 0.665858	 2
1463571684.452	 24	 -1.369084	 -1.157273	 3.639995	 1.271222	 -0.258826	 -0.933212	 0.172085	 0.572490	 -0.427402	 0.678211	 2
1463571684.462	 24	 -1.319037	 -1.125985	 3.574839	 1.265590	 -0.228590	 -0.909026	 0.175318	 0.568267	 -0.412310	 0.690172	 2
1463571684.472	 24	 -1.117339	 -1.163477	 3.619628	 1.259074	 -0.197850	 -0.886382	 0.179127	 0.563521	 -0.397455	 0.701703	 2
1463571684.482	 24	 -0.885499	 -1.397601	 3.695362	 1.249506	 -0.165824	 -0.865690	 0.183517	 0.557308	 -0.383027	 0.713456	 2
1463571684.492	 24	 -0.832864	 -1.838622	 3.768601	 1.235357	 -0.133028	 -0.845524	 0.187673	 0.549219	 -0.368836	 0.726015	 2
1463571684.502	 24	 -0.863084	 -2.258667	 3.914162	 1.216219	 -0.099502	 -0.824220	 0.191156	 0.539186	 -0.354364	 0.739706	 2
1463571684.512	 24	 -0.843849	 -2.661322	 4.130861	 1.192512	 -0.064508	 -0.801598	 0.194408	 0.527187	 -0.339337	 0.754407	 2
1463571684.522	 24	 -0.829006	 -3.186508	 4.462625	 1.163272	 -0.027420	 -0.777250	 0.197553	 0.512717	 -0.323550	 0.770331	 2
1463571684.532	 24	 -0.790781	 -3.714046	 4.772849	 1.127708	 0.012173	 -0.750410	 0.200638	 0.495373	 -0.306703	 0.787581	 2
1463571684.542	 24	 -0.625148	 -4.192526	 4.859676	 1.085885	 0.052470	 -0.722788	 0.203625	 0.475176	 -0.289950	 0.805403	 2
1463571684.552	 24	 -0.457882	 -4.206178	 4.804804	 1.041474	 0.092290	 -0.694911	 0.206851	 0.453666	 -0.273481	 0.822562	 2
1463571684.562	 24	 -0.323188	 -3.675913	 4.500561	 1.000154	 0.129552	 -0.667691	 0.210458	 0.433457	 -0.257625	 0.837527	 2
1463571684.572	 24	 -0.057267	 -3.264028	 4.058721	 0.963228	 0.163456	 -0.643113	 0.214548	 0.415135	 -0.243281	 0.849968	 2
1463571684.582	 24	 0.396674	 -3.281169	 3.638962	 0.927070	 0.195396	 -0.623121	 0.219456	 0.396812	 -0.231377	 0.860723	 2
1463571684.592	 24	 0.850324	 -3.212541	 3.312724	 0.891381	 0.226670	 -0.607833	 0.225546	 0.378149	 -0.221776	 0.870028	 2
1463571684.602	 24	 1.255244	 -2.958752	 3.126118	 0.858275	 0.258353	 -0.596075	 0.233137	 0.360033	 -0.213557	 0.877734	 2
1463571684.612	 24	 1.653666	 -2.600893	 3.060967	 0.828870	 0.291639	 -0.586883	 0.242554	 0.342899	 -0.205943	 0.883841	 2
1463571684.622	 24	 2.085124	 -2.296994	 3.048315	 0.803127	 0.327357	 -0.580039	 0.254003	 0.326637	 -0.198674	 0.888436	 2
1463571684.632	 24	 2.545628	 -1.976940	 3.074994	 0.780977	 0.366274	 -0.575519	 0.267702	 0.311091	 -0.191582	 0.891546	 2
1463571684.642	 24	 2.930635	 -1.553885	 3.047868	 0.763568	 0.407971	 -0.573251	 0.283469	 0.296820	 -0.184527	 0.893025	 2
1463571684.652	 24	 3.141991	 -1.245605	 2.963636	 0.750226	 0.451029	 -0.572803	 0.300466	 0.283777	 -0.177615	 0.893109	 2
1463571684.662	 24	 3.109310	 -1.093989	 2.884333	 0.738997	 0.493710	 -0.572729	 0.317504	 0.271575	 -0.170763	 0.892344	 2
1463571684.672	 24	 2.866639	 -1.119356	 2.808409	 0.727147	 0.534474	 -0.571141	 0.333434	 0.259576	 -0.163841	 0.891402	 2
1463571684.682	 24	 2.483818	 -1.159717	 2.661072	 0.713851	 0.569283	 -0.567447	 0.346467	 0.248275	 -0.157544	 0.890786	 2
1463571684.692	 24	 2.032745	 -1.139683	 2.454134	 0.699654	 0.598389	 -0.561675	 0.356823	 0.237933	 -0.151742	 0.890528	 2
1463571684.702	 24	 1.613787	 -1.073161	 2.217524	 0.684552	 0.624608	 -0.553871	 0.365727	 0.228094	 -0.145897	 0.890466	 2
1463571684.712	 24	 1.278230	 -0.984447	 1.995329	 0.668965	 0.647997	 -0.544591	 0.373332	 0.218858	 -0.140160	 0.890550	 2
1463571684.722	 24	 1.032469	 -0.919972	 1.840336	 0.653370	 0.668101	 -0.534334	 0.379550	 0.210430	 -0.134733	 0.890790	 2
1463571684.732	 24	 0.847350	 -0.951970	 1.753192	 0.636939	 0.685872	 -0.523064	 0.384731	 0.202283	 -0.129555	 0.891223	 2
1463571684.742	 24	 0.672594	 -1.082628	 1.705539	 0.618422	 0.701746	 -0.510457	 0.388957	 0.193848	 -0.124633	 0.891966	 2
1463571684.752	 24	 0.509342	 -1.241161	 1.631947	 0.597485	 0.715676	 -0.496719	 0.392230	 0.184934	 -0.120123	 0.893043	 2
1463571684.762	 24	 0.378082	 -1.424085	 1.581297	 0.574053	 0.727870	 -0.482049	 0.394673	 0.175422	 -0.116080	 0.894419	 2
1463571684.772	 24	 0.341726	 -1.609529	 1.514876	 0.548337	 0.738962	 -0.467045	 0.396632	 0.165176	 -0.112608	 0.895946	 2
1463571684.782	 24	 0.378273	 -1.691236	 1.409353	 0.521879	 0.749441	 -0.452780	 0.398489	 0.154586	 -0.109797	 0.897360	 2
1463571684.792	 24	 0.456073	 -1.622055	 1.300612	 0.496493	 0.759704	 -0.439801	 0.400537	 0.144295	 -0.107464	 0.898443	 2
1463571684.802	 24	 0.537881	 -1.425937	 1.244173	 0.473345	 0.770122	 -0.427756	 0.402947	 0.134847	 -0.105162	 0.899106	 2
1463571684.812	 24	 0.634120	 -1.143433	 1.225715	 0.453030	 0.781060	 -0.416168	 0.405855	 0.126560	 -0.102502	 0.899310	 2
1463571684.822	 24	 0.722157	 -0.807573	 1.228073	 0.436051	 0.792659	 -0.404772	 0.409312	 0.119704	 -0.099240	 0.899047	 2
1463571684.832	 24	 0.788736	 -0.509818	 1.247316	 0.421948	 0.804850	 -0.393189	 0.413227	 0.114167	 -0.095304	 0.898402	 2
1463571684.842	 24	 0.821927	 -0.264192	 1.251445	 0.410128	 0.817375	 -0.381343	 0.417441	 0.109735	 -0.090809	 0.897471	 2
1463571684.852	 24	 0.810054	 -0.050511	 1.232221	 0.400280	 0.829751	 -0.369325	 0.421721	 0.106315	 -0.085912	 0.896364	 2
1463571684.862	 24	 0.751089	 0.150408	 1.194105	 0.392283	 0.841483	 -0.357175	 0.425835	 0.103897	 -0.080705	 0.895185	 2
1463571684.872	 24	 0.671447	 0.292661	 1.124716	 0.385916	 0.852224	 -0.345160	 0.429622	 0.102359	 -0.075382	 0.894016	 2
1463571684.882	 24	 0.592265	 0.318871	 1.040389	 0.380403	 0.861850	 -0.333643	 0.433007	 0.101279	 -0.070273	 0.892922	 2
1463571684.892	 24	 0.532842	 0.197511	 1.001409	 0.374118	 0.870633	 -0.322278	 0.436028	 0.099963	 -0.065534	 0.891960	 2
1463571684.902	 24	 0.526275	 -0.046184	 0.981081	 0.365548	 0.879087	 -0.310874	 0.438857	 0.097719	 -0.061352	 0.891118	 2
1463571684.912	 24	 0.538839	 -0.297459	 0.949858	 0.354603	 0.887477	 -0.299754	 0.441636	 0.094407	 -0.057870	 0.890335	 2
1463571684.922	 24	 0.553734	 -0.501986	 0.912655	 0.341612	 0.895793	 -0.288927	 0.444379	 0.090176	 -0.055028	 0.889588	 2
1463571684.932	 24	 0.559409	 -0.625646	 0.876284	 0.327438	 0.903978	 -0.278462	 0.447094	 0.085399	 -0.052679	 0.888841	 2
1463571684.942	 24	 0.515284	 -0.707386	 0.880171	 0.312046	 0.911776	 -0.267659	 0.449639	 0.080242	 -0.050548	 0.888161	 2
1463571684.952	 24	 0.404239	 -0.739858	 0.904283	 0.295222	 0.918598	 -0.255730	 0.451730	 0.074841	 -0.048389	 0.887692	 2
1463571684.962	 24	 0.292221	 -0.738412	 0.911666	 0.277410	 0.924250	 -0.242710	 0.453304	 0.069393	 -0.046128	 0.887453	 2
1463571684.972	 24	 0.210312	 -0.602720	 0.816657	 0.260933	 0.928697	 -0.230136	 0.454453	 0.064571	 -0.043907	 0.887342	 2
1463571684.982	 24	 0.180503	 -0.453819	 0.657372	 0.247595	 0.932229	 -0.219575	 0.455380	 0.060780	 -0.041969	 0.887228	 2
1463571684.992	 24	 0.233328	 -0.435961	 0.501477	 0.236933	 0.935616	 -0.211657	 0.456408	 0.057603	 -0.040624	 0.886974	 2
1463571685.002	 24	 0.336756	 -0.562791	 0.360847	 0.227406	 0.939533	 -0.206345	 0.457783	 0.054309	 -0.040153	 0.886495	 2
1463571685.012	 24	 0.449712	 -0.733020	 0.252769	 0.218060	 0.944262	 -0.203342	 0.459586	 0.050525	 -0.040624	 0.885764	 2
1463571685.022	 24	 0.518230	 -0.871845	 0.203988	 0.208272	 0.949646	 -0.201627	 0.461700	 0.046216	 -0.041742	 0.884847	 2
1463571685.032	 24	 0.527513	 -0.947324	 0.212796	 0.197575	 0.955237	 -0.199947	 0.463882	 0.041498	 -0.043097	 0.883874	 2
1463571685.042	 24	 0.521287	 -0.938549	 0.247036	 0.186221	 0.960823	 -0.197611	 0.466031	 0.036659	 -0.044341	 0.882896	 2
1463571685.052	 24	 0.556987	 -0.859742	 0.275169	 0.174986	 0.966671	 -0.194696	 0.468286	 0.032009	 -0.045314	 0.881834	 2
1463571685.062	 24	 0.623902	 -0.709907	 0.284506	 0.163627	 0.972376	 -0.190526	 0.470457	 0.027628	 -0.045803	 0.880800	 2
1463571685.072	 24	 0.700450	 -0.530506	 0.267391	 0.155434	 0.979538	 -0.187589	 0.473357	 0.024285	 -0.046035	 0.879332	 2
1463571685.082	 24	 0.758623	 -0.346203	 0.185470	 0.150120	 0.987226	 -0.185896	 0.476566	 0.021900	 -0.046127	 0.877654	 2
1463571685.092	 24	 0.782381	 -0.193916	 0.074775	 0.148074	 0.995080	 -0.186173	 0.479939	 0.020479	 -0.046308	 0.875839	 2
1463571685.102	 24	 0.788631	 -0.142580	 -0.028179	 0.144536	 1.001174	 -0.185073	 0.482493	 0.018842	 -0.046349	 0.874470	 2
1463571685.112	 24	 0.767766	 -0.189985	 -0.120094	 0.146104	 1.008707	 -0.188990	 0.485832	 0.018140	 -0.047273	 0.872585	 2
1463571685.122	 24	 0.694543	 -0.289028	 -0.167272	 0.147683	 1.015561	 -0.193940	 0.488877	 0.017215	 -0.048668	 0.870824	 2
1463571685.142	 25	 0.493842	 -0.534099	 -0.162476	 0.146901	 1.026351	 -0.203577	 0.493584	 0.013849	 -0.052444	 0.868005	 2
1463571685.152	 25	 0.350918	 -0.546196	 -0.128305	 0.144610	 1.030011	 -0.207324	 0.495121	 0.011701	 -0.054428	 0.867038	 2
1463571685.162	 25	 0.138133	 -0.457927	 -0.069146	 0.141621	 1.031830	 -0.209502	 0.495832	 0.009752	 -0.056010	 0.866555	 2
1463571685.172	 25	 -0.110695	 -0.318501	 -0.010262	 0.138366	 1.031317	 -0.209833	 0.495521	 0.008292	 -0.056989	 0.866685	 2
1463571685.182	 25	 -0.298938	 -0.203945	 0.016955	 0.135271	 1.028769	 -0.208894	 0.494333	 0.007340	 -0.057488	 0.867338	 2
1463571685.192	 25	 -0.350911	 -0.123074	 0.001108	 0.132966	 1.025337	 -0.207868	 0.492786	 0.006805	 -0.057799	 0.868202	 2
1463571685.202	 25	 -0.257729	 -0.053755	 -0.047032	 0.068985	 0.988324	 -0.154412	 0.474942	 -0.006290	 -0.051554	 0.878483	 2
1463571685.212	 25	 -0.042124	 -0.005812	 -0.095357	 0.070015	 0.987232	 -0.155827	 0.474486	 -0.006128	 -0.051968	 0.878706	 2
1463571685.222	 25	 0.288631	 -0.000575	 -0.119503	 0.071990	 0.989152	 -0.158169	 0.475371	 -0.005899	 -0.052462	 0.878200	 2
1463571685.232	 25	 0.639685	 -0.019609	 -0.108882	 0.074204	 0.994616	 -0.161009	 0.477811	 -0.005843	 -0.052989	 0.876844	 2
1463571685.242	 25	 0.821412	 -0.029335	 -0.041285	 0.049866	 0.987345	 -0.141466	 0.474083	 -0.011581	 -0.050432	 0.878959	 2
1463571685.262	 26	 0.491458	 -0.026792	 0.175830	 0.047318	 1.000950	 -0.139330	 0.479989	 -0.012687	 -0.049730	 0.875772	 2
1463571685.272	 26	 0.127063	 0.014337	 0.273172	 0.043565	 1.003280	 -0.134843	 0.480944	 -0.013335	 -0.048606	 0.875301	 2
1463571685.282	 26	 -0.253521	 0.058348	 0.321657	 0.039072	 1.001819	 -0.128945	 0.480238	 -0.013835	 -0.047140	 0.875761	 2
1463571685.292	 26	 -0.575803	 0.064570	 0.315995	 0.034399	 0.996942	 -0.122612	 0.478040	 -0.014209	 -0.045598	 0.877039	 2
1463571685.302	 26	 -0.788873	 0.013300	 0.200139	 0.030701	 0.989586	 -0.117836	 0.474765	 -0.014472	 -0.044540	 0.878866	 2
1463571685.312	 26	 -0.871161	 -0.068747	 -0.000271	 0.029091	 0.981016	 -0.116478	 0.470972	 -0.014608	 -0.044498	 0.880904	 2
1463571685.322	 26	 -0.839110	 -0.165619	 -0.145329	 0.028983	 0.972450	 -0.118042	 0.467185	 -0.014772	 -0.045385	 0.882870	 2
1463571685.332	 26	 -0.724695	 -0.254821	 -0.236663	 0.029482	 0.964826	 -0.121499	 0.463805	 -0.015128	 -0.046952	 0.884563	 2
1463571685.342	 26	 -0.568185	 -0.284412	 -0.293721	 0.030430	 0.958644	 -0.126060	 0.461059	 -0.015573	 -0.048881	 0.885885	 2
1463571685.352	 26	 -0.377390	 -0.301201	 -0.331775	 0.031892	 0.954292	 -0.131481	 0.459126	 -0.016032	 -0.051042	 0.886759	 2
1463571685.362	 26	 -0.178809	 -0.294242	 -0.318518	 0.033349	 0.951903	 -0.136942	 0.458061	 -0.016557	 -0.053183	 0.887174	 2
1463571685.372	 26	 0.004200	 -0.212631	 -0.284182	 0.035081	 0.951405	 -0.141992	 0.457845	 -0.016928	 -0.055039	 0.887165	 2
1463571685.382	 26	 0.147035	 -0.077492	 -0.218091	 0.037337	 0.952461	 -0.146151	 0.458340	 -0.016919	 -0.056340	 0.886828	 2
1463571685.392	 26	 0.283562	 0.053620	 -0.123207	 0.039757	 0.954866	 -0.148892	 0.459451	 -0.016564	 -0.056939	 0.886222	 2
1463571685.402	 26	 0.341355	 0.269754	 -0.069476	 0.043231	 0.958174	 -0.150417	 0.461000	 -0.015502	 -0.056727	 0.885450	 2
1463571685.412	 26	 0.343982	 0.403507	 -0.104491	 0.048440	 0.961596	 -0.152362	 0.462644	 -0.013779	 -0.056291	 0.884648	 2
1463571685.422	 26	 0.270913	 0.539722	 -0.123902	 0.055517	 0.964483	 -0.154702	 0.464102	 -0.011307	 -0.055602	 0.883963	 2
