% Gyrometer data recorded with 'snsrlog'
% 
% 
% Label description:
% 	 0: Default Label
% 	 1: still_drop
% 	 2: walk_drop
% 	 3: other
% 	 4: dtw_same
% 	 5: dtw_diff
% 	 6: delete
% 	 7: steal
% 
% Column description:
% 	 1: Seconds.milliseconds since 1970
% 	 2: Number of skipped measurements
% 	 3: Gyro X
% 	 4: Gyro Y
% 	 5: Gyro Z
% 	 6: Roll of the device
% 	 7: Pitch of the device
% 	 8: Yaw of the device
% 	 9: Quaternion X
% 	 10: Quaternion Y
% 	 11: Quaternion Z
% 	 12: Quaternion W
% 	 13: Label used for the current sample
% 
% 
1463571529.932	 0	 -0.635313	 0.257412	 0.529418	 0.315364	 0.594050	 0.044599	 0.285626	 0.156561	 0.067004	 0.943089	 2
1463571529.942	 0	 -0.686096	 0.185601	 0.726358	 0.311781	 0.589690	 0.054837	 0.282887	 0.156374	 0.071014	 0.943652	 2
1463571529.952	 0	 -0.767091	 0.079533	 0.880612	 0.305928	 0.585205	 0.067229	 0.280013	 0.155390	 0.075729	 0.944305	 2
1463571529.962	 0	 -0.922334	 0.091555	 1.008901	 0.298897	 0.579686	 0.081523	 0.276567	 0.154080	 0.081134	 0.945086	 2
1463571529.972	 0	 -1.080257	 0.169913	 1.190053	 0.291308	 0.573039	 0.098107	 0.272460	 0.152766	 0.087506	 0.945923	 2
1463571529.992	 1	 -1.434027	 0.306714	 1.431006	 0.275202	 0.556068	 0.138281	 0.262110	 0.150367	 0.103362	 0.947631	 2
1463571530.002	 1	 -1.594387	 0.535321	 1.356728	 0.269270	 0.544758	 0.158763	 0.255498	 0.150013	 0.111681	 0.948549	 2
1463571530.012	 1	 -1.753234	 0.577202	 1.347844	 0.264670	 0.531783	 0.179133	 0.248040	 0.150100	 0.120082	 0.949487	 2
1463571530.022	 1	 -1.866693	 0.460924	 1.401038	 0.259083	 0.517558	 0.200119	 0.240013	 0.149602	 0.128649	 0.950507	 2
1463571530.032	 1	 -1.930056	 0.363371	 1.416668	 0.252548	 0.502612	 0.221388	 0.231704	 0.148487	 0.137272	 0.951536	 2
1463571530.042	 1	 -1.971424	 0.261834	 1.331888	 0.245720	 0.486951	 0.241850	 0.223165	 0.146930	 0.145519	 0.952593	 2
1463571530.052	 1	 -1.986681	 0.119118	 1.152711	 0.238757	 0.470579	 0.260371	 0.214472	 0.144882	 0.152872	 0.953751	 2
1463571530.062	 1	 -1.963591	 0.042595	 0.876831	 0.232373	 0.453626	 0.275854	 0.205706	 0.142593	 0.158886	 0.955043	 2
1463571530.072	 1	 -1.863401	 0.121336	 0.482359	 0.228546	 0.436546	 0.286975	 0.197003	 0.140938	 0.163130	 0.956407	 2
1463571530.082	 1	 -1.726465	 0.166181	 -0.024653	 0.227834	 0.419635	 0.292525	 0.188519	 0.140149	 0.165044	 0.957904	 2
1463571530.092	 1	 -1.564097	 0.223280	 -0.591455	 0.230154	 0.402983	 0.291693	 0.180347	 0.140199	 0.164184	 0.959616	 2
1463571530.112	 2	 -1.280192	 0.943622	 -1.171262	 0.248780	 0.371166	 0.277110	 0.164498	 0.146058	 0.157366	 0.962727	 2
1463571530.122	 2	 -1.070613	 1.224084	 -1.132109	 0.263511	 0.357348	 0.268232	 0.157315	 0.151680	 0.153584	 0.963669	 2
1463571530.132	 2	 -0.790164	 1.538876	 -1.023980	 0.280906	 0.346220	 0.259929	 0.151241	 0.158840	 0.150314	 0.964003	 2
1463571530.142	 2	 -0.488379	 1.907371	 -0.981614	 0.301853	 0.337984	 0.251608	 0.146366	 0.167904	 0.147367	 0.963674	 2
1463571530.152	 2	 -0.222504	 2.190353	 -1.012203	 0.326131	 0.332191	 0.242471	 0.142579	 0.178664	 0.144336	 0.962766	 2
1463571530.162	 2	 -0.040315	 2.417935	 -1.089472	 0.353102	 0.327868	 0.232091	 0.139520	 0.190718	 0.140928	 0.961405	 2
1463571530.172	 2	 0.054670	 2.666358	 -1.114631	 0.382651	 0.324188	 0.220975	 0.136781	 0.203993	 0.137334	 0.959592	 2
1463571530.192	 3	 0.251696	 3.663687	 -0.788403	 0.453035	 0.319542	 0.201487	 0.131943	 0.236192	 0.132304	 0.953572	 2
1463571530.202	 3	 0.478838	 4.733233	 -0.758048	 0.500357	 0.319794	 0.192475	 0.130060	 0.258111	 0.131146	 0.948295	 2
1463571530.222	 4	 1.067561	 6.422302	 -1.245167	 0.622155	 0.323795	 0.165070	 0.128028	 0.313705	 0.126628	 0.932289	 2
1463571530.232	 4	 1.194226	 7.414156	 -1.701713	 0.700601	 0.323342	 0.144272	 0.126387	 0.348721	 0.121911	 0.920629	 2
1463571530.242	 4	 1.127543	 8.100596	 -2.111458	 0.787651	 0.318159	 0.120390	 0.123225	 0.386993	 0.115527	 0.906480	 2
1463571530.252	 4	 0.896680	 8.452659	 -2.350231	 0.878743	 0.307656	 0.096696	 0.118192	 0.426558	 0.108322	 0.890138	 2
1463571530.262	 4	 0.606009	 8.556122	 -2.573745	 0.970555	 0.291644	 0.075215	 0.111087	 0.466010	 0.100635	 0.871990	 2
1463571530.282	 5	 0.596859	 8.299137	 -2.960797	 1.148764	 0.247214	 0.037327	 0.093427	 0.541009	 0.082523	 0.831728	 2
1463571530.292	 5	 1.084786	 8.155943	 -3.002614	 1.235354	 0.222760	 0.016976	 0.085724	 0.576303	 0.071246	 0.809599	 2
1463571530.302	 5	 1.941043	 8.013011	 -3.006070	 1.321251	 0.199025	 -0.008766	 0.081122	 0.610225	 0.057517	 0.785962	 2
1463571530.312	 5	 2.755890	 8.098350	 -3.228720	 1.407631	 0.173332	 -0.040758	 0.079113	 0.643224	 0.040525	 0.760501	 2
1463571530.322	 5	 3.452804	 8.454935	 -3.641789	 1.497092	 0.142090	 -0.078011	 0.078442	 0.676313	 0.019775	 0.732159	 2
1463571530.332	 5	 4.049095	 8.666787	 -3.960475	 1.588403	 0.104263	 -0.118422	 0.078610	 0.708926	 -0.004314	 0.700875	 2
1463571530.342	 5	 4.545303	 8.573720	 -4.126591	 1.677992	 0.060684	 -0.160172	 0.079698	 0.739625	 -0.030935	 0.667567	 2
1463571530.352	 5	 4.924793	 8.193623	 -4.319941	 1.762531	 0.011277	 -0.201619	 0.081215	 0.767254	 -0.059695	 0.633373	 2
1463571530.362	 5	 5.216480	 7.560338	 -4.555381	 1.839206	 -0.044251	 -0.241440	 0.082447	 0.790994	 -0.090446	 0.599458	 2
1463571530.382	 6	 5.522869	 5.747456	 -4.792333	 1.961448	 -0.169589	 -0.313618	 0.082746	 0.825116	 -0.156090	 0.536630	 2
1463571530.392	 6	 5.462210	 4.724713	 -4.608419	 2.004730	 -0.234366	 -0.345798	 0.081993	 0.835315	 -0.189036	 0.509697	 2
1463571530.402	 6	 5.209802	 3.880136	 -4.280497	 2.037760	 -0.296660	 -0.375365	 0.081008	 0.841840	 -0.220388	 0.485976	 2
1463571530.412	 6	 4.863503	 3.133955	 -4.067010	 2.062605	 -0.355926	 -0.401696	 0.079352	 0.845586	 -0.249694	 0.465125	 2
1463571530.422	 6	 4.553936	 2.220084	 -4.077082	 2.078652	 -0.413756	 -0.424467	 0.075952	 0.846679	 -0.277578	 0.447567	 2
1463571530.432	 6	 4.286132	 1.240091	 -4.241602	 2.085261	 -0.471670	 -0.443673	 0.069914	 0.845152	 -0.304681	 0.433589	 2
1463571530.442	 6	 4.008442	 0.326933	 -4.287115	 2.082844	 -0.529033	 -0.460164	 0.061448	 0.841259	 -0.330873	 0.423121	 2
1463571530.452	 6	 3.710152	 -0.483585	 -4.267547	 2.072293	 -0.584747	 -0.474684	 0.050977	 0.835364	 -0.355769	 0.415928	 2
1463571530.462	 6	 3.418019	 -1.130237	 -4.235851	 2.055013	 -0.638672	 -0.487659	 0.038721	 0.827876	 -0.379278	 0.411424	 2
1463571530.472	 6	 3.150948	 -1.544207	 -4.081776	 2.032796	 -0.690067	 -0.500087	 0.025467	 0.819286	 -0.401211	 0.408842	 2
1463571530.482	 6	 2.907562	 -1.761904	 -3.839755	 2.007142	 -0.738113	 -0.513018	 0.012087	 0.810045	 -0.421424	 0.407533	 2
1463571530.492	 6	 2.670365	 -1.848369	 -3.539015	 1.979256	 -0.782285	 -0.526888	 -0.000867	 0.800541	 -0.439825	 0.407047	 2
1463571530.502	 6	 2.465739	 -1.839015	 -3.212089	 1.949855	 -0.822334	 -0.542086	 -0.012996	 0.791038	 -0.456460	 0.407104	 2
1463571530.512	 6	 2.329544	 -1.770570	 -2.922510	 1.919224	 -0.858665	 -0.559182	 -0.024099	 0.781646	 -0.471655	 0.407420	 2
1463571530.522	 6	 2.247460	 -1.687036	 -2.730247	 1.887323	 -0.892269	 -0.578488	 -0.034340	 0.772337	 -0.485859	 0.407747	 2
1463571530.532	 6	 2.175776	 -1.641989	 -2.560813	 1.853852	 -0.923634	 -0.600072	 -0.043912	 0.763064	 -0.499276	 0.408078	 2
1463571530.542	 6	 2.071034	 -1.616835	 -2.361435	 1.818628	 -0.952420	 -0.623602	 -0.052883	 0.753861	 -0.511765	 0.408649	 2
1463571530.552	 6	 1.941662	 -1.620234	 -2.149320	 1.781924	 -0.978353	 -0.648567	 -0.061282	 0.744818	 -0.523202	 0.409574	 2
1463571530.562	 6	 1.818655	 -1.635322	 -1.933105	 1.743747	 -1.001396	 -0.674712	 -0.069161	 0.735939	 -0.533590	 0.410966	 2
1463571530.572	 6	 1.708641	 -1.644837	 -1.676453	 1.704191	 -1.021282	 -0.702006	 -0.076387	 0.727252	 -0.542931	 0.412910	 2
1463571530.582	 6	 1.607142	 -1.699759	 -1.371272	 1.663106	 -1.037519	 -0.730303	 -0.082849	 0.718725	 -0.551162	 0.415681	 2
1463571530.592	 6	 1.523689	 -1.772834	 -1.068549	 1.620521	 -1.050016	 -0.759282	 -0.088576	 0.710295	 -0.558308	 0.419436	 2
1463571530.602	 6	 1.463602	 -1.853563	 -0.785284	 1.576603	 -1.058963	 -0.788702	 -0.093623	 0.701895	 -0.564487	 0.424184	 2
1463571530.612	 6	 1.429007	 -1.921930	 -0.546888	 1.531616	 -1.064740	 -0.818370	 -0.098067	 0.693462	 -0.569866	 0.429821	 2
1463571530.622	 6	 1.373476	 -2.048377	 -0.405835	 1.485836	 -1.068206	 -0.847774	 -0.102272	 0.684911	 -0.574615	 0.436183	 2
1463571530.632	 6	 1.244662	 -2.201215	 -0.413596	 1.440194	 -1.070840	 -0.875111	 -0.107082	 0.676253	 -0.578715	 0.443063	 2
1463571530.642	 6	 1.110515	 -2.287598	 -0.499559	 1.395411	 -1.073817	 -0.900253	 -0.112724	 0.667606	 -0.582372	 0.449931	 2
1463571530.652	 6	 1.015001	 -2.343127	 -0.568518	 1.351296	 -1.077217	 -0.923944	 -0.119007	 0.658981	 -0.585721	 0.456632	 2
1463571530.662	 6	 0.915347	 -2.424771	 -0.573739	 1.307607	 -1.080599	 -0.946209	 -0.125807	 0.650331	 -0.588659	 0.463382	 2
1463571530.672	 6	 0.810466	 -2.380888	 -0.431737	 1.265997	 -1.082817	 -0.966145	 -0.132470	 0.641951	 -0.590922	 0.470278	 2
1463571530.682	 6	 0.687918	 -2.249623	 -0.273847	 1.228472	 -1.083459	 -0.982772	 -0.138509	 0.634209	 -0.592398	 0.477137	 2
1463571530.692	 6	 0.516265	 -2.303662	 -0.168411	 1.194539	 -1.083283	 -0.995545	 -0.144471	 0.626951	 -0.593047	 0.484104	 2
1463571530.702	 6	 0.132242	 -2.808066	 -0.065316	 1.162974	 -1.083175	 -1.001175	 -0.152028	 0.619658	 -0.592070	 0.492306	 2
1463571530.712	 6	 -0.564361	 -3.273412	 0.017417	 1.137624	 -1.084787	 -0.993842	 -0.162386	 0.612860	 -0.588418	 0.501795	 2
1463571530.722	 6	 -1.144007	 -3.271146	 0.242032	 1.123678	 -1.087569	 -0.972393	 -0.174080	 0.607658	 -0.582087	 0.511491	 2
1463571530.732	 6	 -1.208730	 -2.934237	 0.473803	 1.117962	 -1.089122	 -0.944569	 -0.184757	 0.603757	 -0.574550	 0.520803	 2
1463571530.742	 6	 -0.838979	 -2.307482	 0.662925	 1.114540	 -1.087739	 -0.920401	 -0.192477	 0.600523	 -0.567739	 0.529147	 2
1463571530.752	 6	 -0.471510	 -1.461827	 0.823196	 1.113730	 -1.083130	 -0.902349	 -0.196336	 0.598380	 -0.562362	 0.535856	 2
1463571530.762	 6	 -0.213304	 -0.686194	 0.963517	 1.117319	 -1.076018	 -0.888425	 -0.196743	 0.597730	 -0.558183	 0.540781	 2
1463571530.772	 6	 0.097978	 -0.056749	 1.206460	 1.124048	 -1.065738	 -0.878395	 -0.193888	 0.598236	 -0.554944	 0.544572	 2
1463571530.782	 6	 0.178468	 0.250352	 1.493176	 1.133873	 -1.052008	 -0.869503	 -0.188512	 0.599631	 -0.551822	 0.548086	 2
1463571530.792	 6	 -0.219907	 0.215964	 1.723331	 1.149734	 -1.037334	 -0.853774	 -0.183192	 0.602094	 -0.547135	 0.551876	 2
1463571530.802	 6	 -0.471821	 0.356493	 2.079600	 1.172438	 -1.020890	 -0.830788	 -0.177590	 0.605888	 -0.540616	 0.555963	 2
1463571530.812	 6	 -0.511086	 0.708693	 2.523379	 1.200463	 -1.000447	 -0.804966	 -0.170020	 0.611054	 -0.532890	 0.560120	 2
1463571530.822	 6	 -0.405363	 1.205553	 3.026924	 1.232761	 -0.974884	 -0.779019	 -0.159597	 0.617626	 -0.524242	 0.564125	 2
1463571530.832	 6	 0.132624	 1.897223	 3.581807	 1.265770	 -0.941932	 -0.760182	 -0.144207	 0.625201	 -0.515807	 0.567689	 2
1463571530.842	 6	 -0.063891	 2.005955	 3.682580	 1.299234	 -0.906696	 -0.743281	 -0.127489	 0.633311	 -0.506805	 0.570800	 2
1463571530.852	 6	 -0.572550	 1.812171	 3.741691	 1.334806	 -0.871713	 -0.721653	 -0.112157	 0.642022	 -0.495855	 0.573896	 2
1463571530.862	 6	 -0.957200	 1.467796	 3.765282	 1.369470	 -0.836913	 -0.696218	 -0.098742	 0.650603	 -0.483018	 0.577632	 2
1463571530.872	 6	 -1.040617	 1.319034	 3.897845	 1.401458	 -0.800933	 -0.670826	 -0.085942	 0.658758	 -0.469050	 0.581931	 2
1463571530.882	 6	 -0.920446	 1.247098	 4.146583	 1.429680	 -0.762107	 -0.648755	 -0.072276	 0.666262	 -0.454497	 0.586774	 2
1463571530.892	 6	 -0.819766	 1.358018	 4.375878	 1.455497	 -0.720278	 -0.629927	 -0.057343	 0.673407	 -0.439351	 0.591781	 2
1463571530.902	 6	 -0.934678	 1.729986	 4.288684	 1.482733	 -0.678003	 -0.612747	 -0.041767	 0.681181	 -0.423896	 0.595450	 2
1463571530.912	 6	 -1.382683	 2.363142	 3.857250	 1.516748	 -0.639268	 -0.593187	 -0.027328	 0.691069	 -0.408091	 0.595936	 2
1463571530.922	 6	 -1.652953	 2.593313	 3.514307	 1.554949	 -0.604057	 -0.571906	 -0.014474	 0.702331	 -0.392117	 0.593940	 2
1463571530.932	 6	 -1.751318	 2.188681	 3.411216	 1.589539	 -0.569664	 -0.551389	 -0.002938	 0.712659	 -0.375965	 0.592249	 2
1463571530.952	 7	 -1.916769	 0.876392	 3.079651	 1.636744	 -0.503835	 -0.509287	 0.013237	 0.727104	 -0.342819	 0.594659	 2
1463571530.962	 7	 -1.609008	 0.454964	 2.878016	 1.650204	 -0.473398	 -0.492748	 0.019873	 0.731372	 -0.327922	 0.597634	 2
1463571530.972	 7	 -1.593163	 -0.081601	 2.668258	 1.657386	 -0.444956	 -0.477786	 0.025221	 0.733754	 -0.313990	 0.601980	 2
1463571530.982	 7	 -1.778351	 -0.594058	 2.328321	 1.659538	 -0.419309	 -0.461181	 0.028155	 0.734630	 -0.300388	 0.607695	 2
1463571530.992	 7	 -2.004279	 -0.646268	 1.931208	 1.660357	 -0.397401	 -0.442039	 0.028664	 0.735128	 -0.287154	 0.613439	 2
1463571531.002	 7	 -2.277516	 0.176448	 1.749405	 1.667919	 -0.377688	 -0.420059	 0.028293	 0.737745	 -0.273575	 0.616513	 2
1463571531.012	 7	 -2.029456	 0.569743	 1.669907	 1.680607	 -0.358541	 -0.399177	 0.028697	 0.741948	 -0.260348	 0.617177	 2
1463571531.022	 7	 -1.285592	 0.958698	 1.485870	 1.693768	 -0.341606	 -0.385309	 0.030867	 0.746213	 -0.249958	 0.616225	 2
1463571531.032	 7	 -0.451275	 1.354133	 1.498272	 1.708215	 -0.326133	 -0.380467	 0.035959	 0.750726	 -0.242760	 0.613339	 2
1463571531.042	 7	 0.056795	 1.282172	 1.607215	 1.720719	 -0.310323	 -0.382494	 0.043419	 0.754472	 -0.237494	 0.610314	 2
1463571531.052	 7	 0.143895	 1.584701	 1.413172	 1.734342	 -0.295886	 -0.386339	 0.051184	 0.758453	 -0.233151	 0.606440	 2
1463571531.062	 7	 0.159306	 1.797635	 1.008963	 1.751038	 -0.285216	 -0.389878	 0.057912	 0.763321	 -0.229896	 0.600945	 2
1463571531.072	 7	 0.238382	 1.594420	 0.738878	 1.766657	 -0.277809	 -0.393621	 0.063504	 0.767816	 -0.227835	 0.595413	 2
1463571531.082	 7	 0.399065	 1.451986	 0.523001	 1.780110	 -0.272780	 -0.398425	 0.068478	 0.771598	 -0.226965	 0.590283	 2
1463571531.092	 7	 0.625868	 1.091167	 0.286398	 1.790285	 -0.270677	 -0.404949	 0.072818	 0.774338	 -0.227747	 0.585858	 2
1463571531.102	 7	 0.884338	 0.793777	 0.155620	 1.796287	 -0.270732	 -0.413631	 0.076853	 0.775767	 -0.230079	 0.582532	 2
1463571531.112	 7	 1.064569	 1.276701	 0.088205	 1.804550	 -0.272005	 -0.424307	 0.081559	 0.777757	 -0.233321	 0.577931	 2
1463571531.122	 7	 1.081031	 0.736155	 -0.230303	 1.811806	 -0.275774	 -0.435033	 0.085418	 0.779446	 -0.237505	 0.573375	 2
1463571531.132	 7	 1.067073	 0.005080	 -0.727235	 1.810763	 -0.284149	 -0.444290	 0.086301	 0.778859	 -0.243305	 0.571606	 2
1463571531.142	 7	 1.125877	 -0.270656	 -1.178999	 1.805904	 -0.297192	 -0.452859	 0.084979	 0.777268	 -0.250775	 0.570740	 2
1463571531.152	 7	 1.254362	 -0.437582	 -1.411875	 1.799343	 -0.313347	 -0.462000	 0.082646	 0.775200	 -0.259581	 0.569958	 2
1463571531.162	 7	 1.453536	 -0.864711	 -1.270509	 1.788358	 -0.329449	 -0.473237	 0.080483	 0.771779	 -0.269088	 0.570501	 2
1463571531.172	 7	 1.729457	 -1.278691	 -0.898418	 1.771454	 -0.342522	 -0.488284	 0.079812	 0.766484	 -0.278767	 0.573080	 2
1463571531.182	 7	 1.873348	 -1.236370	 -0.724492	 1.752555	 -0.353454	 -0.506086	 0.080427	 0.760476	 -0.288516	 0.576165	 2
1463571531.192	 7	 1.838153	 -0.584011	 -0.688274	 1.738332	 -0.363497	 -0.524312	 0.082005	 0.755780	 -0.297863	 0.577364	 2
1463571531.202	 7	 1.656586	 0.431927	 -0.588781	 1.734009	 -0.372452	 -0.541299	 0.084855	 0.753972	 -0.306039	 0.575036	 2
1463571531.212	 7	 1.340460	 1.034894	 -0.290530	 1.737939	 -0.378554	 -0.555763	 0.088935	 0.754576	 -0.312112	 0.570344	 2
1463571531.222	 7	 0.894806	 1.108327	 0.268230	 1.744980	 -0.379122	 -0.566708	 0.093988	 0.756086	 -0.315095	 0.565877	 2
1463571531.232	 7	 0.466090	 1.177246	 0.798025	 1.753789	 -0.373455	 -0.574004	 0.099964	 0.758104	 -0.314771	 0.562320	 2
1463571531.242	 7	 0.147719	 1.382817	 1.003073	 1.765536	 -0.364319	 -0.578305	 0.106366	 0.760981	 -0.312204	 0.558680	 2
1463571531.252	 7	 -0.114569	 1.350268	 1.102038	 1.778792	 -0.353737	 -0.580041	 0.112449	 0.764338	 -0.308268	 0.555080	 2
1463571531.262	 7	 -0.304671	 1.132280	 1.325475	 1.790225	 -0.340534	 -0.580216	 0.118428	 0.767177	 -0.303011	 0.552809	 2
1463571531.282	 8	 -0.847567	 1.449866	 0.753382	 1.820557	 -0.319758	 -0.572554	 0.126449	 0.775456	 -0.291638	 0.545551	 2
1463571531.292	 8	 -1.224472	 1.316866	 0.594496	 1.837325	 -0.310682	 -0.562677	 0.127806	 0.780419	 -0.284601	 0.541862	 2
1463571531.302	 8	 -1.350275	 0.791780	 0.443630	 1.850290	 -0.302512	 -0.550550	 0.127366	 0.784506	 -0.277505	 0.539741	 2
1463571531.312	 8	 -1.380875	 0.525885	 0.578906	 1.858684	 -0.293259	 -0.538325	 0.126503	 0.787337	 -0.270259	 0.539497	 2
1463571531.332	 8	 -1.033645	 0.844936	 0.568194	 1.883918	 -0.275892	 -0.516434	 0.126346	 0.795127	 -0.256294	 0.534905	 2
1463571531.342	 9	 -0.236102	 0.348001	 0.712227	 1.889425	 -0.268064	 -0.514061	 0.128414	 0.796585	 -0.252353	 0.534116	 2
1463571531.352	 9	 0.470795	 0.220347	 0.701687	 1.890222	 -0.262259	 -0.519579	 0.132420	 0.796308	 -0.251577	 0.533917	 2
1463571531.362	 9	 0.714902	 0.273968	 0.567906	 1.890400	 -0.258559	 -0.528206	 0.136964	 0.795685	 -0.252467	 0.533280	 2
1463571531.372	 9	 0.721072	 0.724680	 0.241660	 1.894323	 -0.257816	 -0.536391	 0.140937	 0.796140	 -0.254091	 0.530787	 2
1463571531.382	 9	 0.713155	 0.825122	 0.009261	 1.900701	 -0.259462	 -0.543585	 0.144135	 0.797358	 -0.256162	 0.527092	 2
1463571531.392	 9	 0.526654	 0.927531	 -0.317482	 1.908337	 -0.263581	 -0.548625	 0.145930	 0.799106	 -0.258491	 0.522798	 2
1463571531.402	 9	 0.181570	 0.611840	 -0.578527	 1.915586	 -0.269362	 -0.549368	 0.145492	 0.801085	 -0.260349	 0.518954	 2
1463571531.412	 9	 -0.025938	 -0.785479	 -0.919043	 1.912621	 -0.276982	 -0.546749	 0.141847	 0.800684	 -0.262772	 0.519361	 2
1463571531.422	 9	 -0.272379	 -2.245834	 -1.314161	 1.894953	 -0.288135	 -0.540584	 0.133790	 0.796737	 -0.266588	 0.525586	 2
1463571531.432	 9	 -0.761648	 -2.311752	 -1.361671	 1.873938	 -0.298845	 -0.529865	 0.123546	 0.792074	 -0.269112	 0.533792	 2
1463571531.442	 9	 -1.027483	 -1.343663	 -1.734023	 1.862551	 -0.311503	 -0.515055	 0.112359	 0.790108	 -0.270525	 0.538443	 2
1463571531.452	 9	 -0.867820	 -1.160341	 -2.056633	 1.856015	 -0.328014	 -0.499637	 0.100400	 0.789369	 -0.272838	 0.540718	 2
1463571531.462	 9	 -0.623773	 -1.202788	 -2.091126	 1.848065	 -0.346291	 -0.486622	 0.088626	 0.787963	 -0.276445	 0.542990	 2
1463571531.472	 9	 -0.619741	 -0.788273	 -1.836849	 1.843087	 -0.363090	 -0.474837	 0.078166	 0.787142	 -0.279640	 0.544150	 2
1463571531.482	 9	 -0.677881	 -0.548953	 -1.712619	 1.841544	 -0.377884	 -0.463014	 0.068766	 0.787123	 -0.281919	 0.544271	 2
1463571531.492	 9	 -0.707610	 -0.590599	 -1.893928	 1.840621	 -0.393644	 -0.450417	 0.058845	 0.787163	 -0.284309	 0.544133	 2
1463571531.502	 9	 -0.631966	 -0.968042	 -2.283904	 1.837331	 -0.412857	 -0.437199	 0.047272	 0.786381	 -0.287844	 0.544533	 2
1463571531.512	 9	 -0.342953	 -1.592635	 -2.934887	 1.827973	 -0.438279	 -0.424845	 0.033218	 0.783615	 -0.293943	 0.546299	 2
1463571531.522	 9	 0.039028	 -1.786332	 -3.529384	 1.814049	 -0.471335	 -0.415131	 0.017071	 0.779107	 -0.303422	 0.548303	 2
1463571531.532	 9	 0.355013	 -1.428545	 -3.930597	 1.801773	 -0.509279	 -0.408111	 0.000563	 0.774556	 -0.315126	 0.548414	 2
1463571531.552	 10	 0.688025	 -0.847853	 -3.801269	 1.784649	 -0.587685	 -0.401346	 -0.029594	 0.766443	 -0.340701	 0.543703	 2
1463571531.562	 10	 0.950997	 -0.552760	 -3.772032	 1.773447	 -0.626823	 -0.404683	 -0.042699	 0.761367	 -0.354877	 0.540888	 2
1463571531.572	 10	 1.263661	 0.048949	 -3.686024	 1.769096	 -0.665477	 -0.410102	 -0.053748	 0.758020	 -0.369342	 0.534886	 2
1463571531.582	 10	 1.508798	 0.270876	 -3.491059	 1.765744	 -0.703017	 -0.419352	 -0.062858	 0.754945	 -0.384256	 0.527688	 2
1463571531.602	 11	 1.587957	 0.240231	 -3.138194	 1.752030	 -0.772090	 -0.446691	 -0.077444	 0.747376	 -0.413430	 0.514303	 2
1463571531.612	 11	 1.408544	 0.239336	 -3.180032	 1.744607	 -0.775800	 -0.459767	 -0.075300	 0.745692	 -0.417690	 0.513623	 2
1463571531.622	 11	 1.246048	 0.316092	 -3.074506	 1.740093	 -0.807132	 -0.470042	 -0.082556	 0.742594	 -0.429999	 0.506794	 2
1463571531.632	 11	 1.229118	 0.541550	 -2.498880	 1.736691	 -0.835356	 -0.481346	 -0.088238	 0.740007	 -0.441446	 0.499730	 2
1463571531.642	 11	 1.173538	 0.781637	 -2.268089	 1.734753	 -0.859767	 -0.493474	 -0.092092	 0.738092	 -0.451822	 0.492541	 2
1463571531.662	 12	 1.218370	 1.591745	 -2.153299	 1.742151	 -0.906985	 -0.519593	 -0.096017	 0.737096	 -0.472627	 0.473385	 2
1463571531.672	 12	 1.196240	 1.613410	 -2.108143	 1.747601	 -0.929886	 -0.533087	 -0.097126	 0.736987	 -0.482791	 0.462957	 2
1463571531.682	 12	 1.168540	 1.393357	 -2.103555	 1.751501	 -0.952665	 -0.546399	 -0.098601	 0.736447	 -0.492655	 0.453007	 2
1463571531.692	 12	 1.062685	 0.911733	 -2.119904	 1.751922	 -0.975441	 -0.558614	 -0.101325	 0.735013	 -0.501952	 0.444448	 2
1463571531.702	 12	 0.850731	 0.308336	 -2.104490	 1.748690	 -0.997850	 -0.567995	 -0.105909	 0.732631	 -0.510185	 0.437888	 2
1463571531.722	 13	 0.307987	 -0.374346	 -1.716048	 1.739942	 -1.036952	 -0.573968	 -0.118577	 0.727165	 -0.521811	 0.429981	 2
1463571531.732	 13	 0.148667	 -0.424179	 -1.465736	 1.737030	 -1.052267	 -0.572513	 -0.124801	 0.724864	 -0.525487	 0.427621	 2
1463571531.752	 14	 0.196226	 -0.467511	 -1.261927	 1.730757	 -1.078335	 -0.569366	 -0.135989	 0.720528	 -0.531416	 0.424198	 2
1463571531.762	 14	 0.377119	 -0.495356	 -1.361811	 1.723644	 -1.091964	 -0.571890	 -0.141369	 0.717697	 -0.535070	 0.422641	 2
1463571531.772	 14	 0.585648	 -0.483414	 -1.537235	 1.712699	 -1.107518	 -0.578674	 -0.146907	 0.714156	 -0.539774	 0.420766	 2
1463571531.782	 14	 0.766834	 -0.422151	 -1.669331	 1.698029	 -1.124747	 -0.590088	 -0.152417	 0.710028	 -0.545476	 0.418433	 2
1463571531.792	 14	 0.859258	 -0.404202	 -1.796795	 1.680635	 -1.143244	 -0.604891	 -0.157994	 0.705524	 -0.551817	 0.415658	 2
1463571531.812	 15	 0.721423	 -0.946658	 -2.001005	 1.637374	 -1.183302	 -0.637372	 -0.171936	 0.694987	 -0.564445	 0.410892	 2
1463571531.822	 15	 0.402005	 -1.462689	 -2.008355	 1.614339	 -1.203683	 -0.647770	 -0.181677	 0.689061	 -0.569109	 0.410248	 2
1463571531.842	 16	 -0.556521	 -1.906314	 -1.529873	 1.592646	 -1.238960	 -0.632665	 -0.204858	 0.679406	 -0.571551	 0.412033	 2
1463571531.852	 16	 -0.866764	 -1.810295	 -1.028567	 1.598566	 -1.250319	 -0.606842	 -0.215715	 0.676639	 -0.569280	 0.414182	 2
1463571531.862	 16	 -1.052517	 -1.353961	 -0.511138	 1.615082	 -1.256394	 -0.573691	 -0.224245	 0.675692	 -0.565548	 0.416305	 2
1463571531.872	 16	 -1.105386	 -0.540759	 -0.009662	 1.641681	 -1.257058	 -0.537853	 -0.229088	 0.677087	 -0.561246	 0.417222	 2
1463571531.882	 16	 -1.037881	 0.128458	 0.339153	 1.672930	 -1.253481	 -0.504804	 -0.230422	 0.680303	 -0.557096	 0.416819	 2
1463571531.892	 16	 -1.251892	 0.354410	 0.463550	 1.709711	 -1.247694	 -0.469440	 -0.230471	 0.684738	 -0.552541	 0.415591	 2
1463571531.902	 16	 -1.807164	 0.714649	 0.487723	 1.761228	 -1.240179	 -0.421241	 -0.230600	 0.691048	 -0.546534	 0.413010	 2
1463571531.912	 16	 -2.445124	 1.494595	 0.420603	 1.835577	 -1.230703	 -0.356172	 -0.230284	 0.700441	 -0.539119	 0.407066	 2
1463571531.922	 16	 -2.597714	 2.447646	 0.366854	 1.923125	 -1.219253	 -0.286526	 -0.228291	 0.712248	 -0.531723	 0.397312	 2
1463571531.932	 16	 -2.252561	 3.372627	 0.456651	 2.008609	 -1.206290	 -0.228927	 -0.223061	 0.725129	 -0.525975	 0.384424	 2
1463571531.942	 16	 -1.654104	 4.020403	 0.703660	 2.081271	 -1.192422	 -0.192564	 -0.213998	 0.737869	 -0.522411	 0.369920	 2
1463571531.952	 16	 -1.167741	 4.397603	 0.993888	 2.139614	 -1.177928	 -0.176187	 -0.201602	 0.749975	 -0.520480	 0.354957	 2
1463571531.962	 16	 -0.929371	 4.554735	 0.904816	 2.191553	 -1.164690	 -0.169001	 -0.187956	 0.761288	 -0.519585	 0.339330	 2
1463571531.972	 16	 -0.973031	 4.469790	 0.760528	 2.243023	 -1.152684	 -0.162286	 -0.174693	 0.771951	 -0.518779	 0.323176	 2
1463571531.982	 16	 -1.413459	 3.720479	 0.656143	 2.294507	 -1.139233	 -0.149041	 -0.163881	 0.782070	 -0.516058	 0.308535	 2
1463571531.992	 16	 -2.026129	 2.645225	 0.563014	 2.344320	 -1.122164	 -0.126265	 -0.156901	 0.791769	 -0.510139	 0.297056	 2
1463571532.002	 16	 -2.473818	 1.533912	 0.404166	 2.389558	 -1.101995	 -0.095975	 -0.154017	 0.800787	 -0.501408	 0.289152	 2
1463571532.012	 16	 -2.631328	 0.444783	 0.195040	 2.426770	 -1.080942	 -0.062119	 -0.154980	 0.808482	 -0.491107	 0.284871	 2
1463571532.022	 16	 -2.548301	 -0.612645	 0.054454	 2.452598	 -1.060696	 -0.028676	 -0.159173	 0.814313	 -0.480241	 0.284475	 2
1463571532.032	 16	 -2.316652	 -1.490899	 0.041068	 2.465397	 -1.041967	 0.000953	 -0.165484	 0.818150	 -0.469418	 0.287911	 2
1463571532.042	 16	 -2.033667	 -1.961353	 0.108829	 2.467610	 -1.025002	 0.025293	 -0.172525	 0.820385	 -0.459097	 0.293997	 2
1463571532.052	 16	 -1.795364	 -2.016295	 0.255450	 2.463375	 -1.009245	 0.044144	 -0.179007	 0.821756	 -0.449406	 0.301177	 2
1463571532.062	 16	 -1.599359	 -1.791138	 0.435952	 2.456357	 -0.993925	 0.057792	 -0.184022	 0.822971	 -0.440328	 0.308166	 2
1463571532.072	 16	 -1.368115	 -1.506992	 0.551685	 2.448082	 -0.979609	 0.066836	 -0.187522	 0.824098	 -0.432185	 0.314506	 2
1463571532.082	 16	 -1.233973	 -1.196180	 0.638670	 2.440330	 -0.965994	 0.072834	 -0.189706	 0.825363	 -0.424813	 0.319877	 2
1463571532.092	 16	 -1.192896	 -0.951931	 0.749293	 2.433505	 -0.952205	 0.076813	 -0.190789	 0.826948	 -0.417744	 0.324416	 2
1463571532.102	 16	 -1.148429	 -0.701023	 0.899382	 2.427311	 -0.937790	 0.078620	 -0.190707	 0.828925	 -0.410803	 0.328262	 2
1463571532.112	 16	 -1.047208	 -0.380331	 1.015521	 2.422147	 -0.923149	 0.077982	 -0.189322	 0.831297	 -0.404250	 0.331187	 2
1463571532.122	 16	 -0.844736	 -0.042245	 1.077653	 2.418255	 -0.909342	 0.074638	 -0.186636	 0.833903	 -0.398610	 0.332992	 2
1463571532.132	 16	 -0.553947	 0.272967	 1.101501	 2.415095	 -0.897344	 0.068137	 -0.182722	 0.836491	 -0.394325	 0.333770	 2
1463571532.142	 16	 -0.216301	 0.584702	 1.104659	 2.412426	 -0.887726	 0.058199	 -0.177602	 0.838929	 -0.391667	 0.333546	 2
1463571532.152	 16	 0.122137	 0.882227	 1.055456	 2.410463	 -0.880876	 0.045205	 -0.171459	 0.841133	 -0.390754	 0.332277	 2
1463571532.162	 16	 0.416496	 1.140272	 0.971099	 2.409553	 -0.876820	 0.030004	 -0.164595	 0.843077	 -0.391475	 0.329964	 2
1463571532.172	 16	 0.657197	 1.338882	 0.882393	 2.409618	 -0.875234	 0.013245	 -0.157257	 0.844753	 -0.393560	 0.326761	 2
1463571532.182	 16	 0.869637	 1.451224	 0.766486	 2.410237	 -0.875990	 -0.004545	 -0.149737	 0.846069	 -0.396817	 0.322927	 2
1463571532.192	 16	 1.065606	 1.491068	 0.620207	 2.411004	 -0.879179	 -0.022840	 -0.142361	 0.846899	 -0.401154	 0.318702	 2
1463571532.202	 16	 1.278343	 1.491290	 0.443572	 2.411591	 -0.885006	 -0.041414	 -0.135336	 0.847135	 -0.406587	 0.314218	 2
1463571532.212	 16	 1.507796	 1.423324	 0.257631	 2.411383	 -0.893799	 -0.060348	 -0.128822	 0.846623	 -0.413216	 0.309657	 2
1463571532.222	 16	 1.736044	 1.319258	 0.079890	 2.409658	 -0.905452	 -0.079810	 -0.122907	 0.845284	 -0.420965	 0.305251	 2
1463571532.232	 16	 2.042987	 0.895121	 -0.055687	 2.403037	 -0.920147	 -0.101076	 -0.117846	 0.842647	 -0.429891	 0.302080	 2
1463571532.242	 16	 2.375867	 0.374657	 -0.263791	 2.389285	 -0.938413	 -0.124526	 -0.114166	 0.838296	 -0.440136	 0.300842	 2
1463571532.252	 16	 2.646997	 -0.103184	 -0.485882	 2.368893	 -0.960067	 -0.149794	 -0.112048	 0.832319	 -0.451579	 0.301277	 2
1463571532.262	 16	 2.845540	 -0.597717	 -0.692576	 2.341717	 -0.984408	 -0.176936	 -0.111561	 0.824829	 -0.463892	 0.303341	 2
1463571532.272	 16	 2.920254	 -0.929736	 -0.832734	 2.308804	 -1.010218	 -0.205844	 -0.112459	 0.816219	 -0.476579	 0.306615	 2
1463571532.282	 16	 2.742516	 -1.090567	 -0.788987	 2.272381	 -1.034840	 -0.236137	 -0.113962	 0.807348	 -0.488637	 0.310540	 2
1463571532.292	 16	 1.960038	 -0.954969	 -0.740413	 2.240916	 -1.054645	 -0.260570	 -0.116106	 0.799864	 -0.498077	 0.314096	 2
1463571532.302	 16	 0.026984	 0.672319	 -0.353541	 2.238474	 -1.062362	 -0.264409	 -0.116851	 0.798156	 -0.501398	 0.312878	 2
1463571532.312	 16	 -1.164069	 0.637331	 0.206437	 2.259660	 -1.055529	 -0.249813	 -0.115935	 0.801982	 -0.497819	 0.309128	 2
1463571532.322	 16	 -1.291537	 0.050715	 0.516488	 2.273084	 -1.043812	 -0.235762	 -0.115806	 0.805622	 -0.492017	 0.309001	 2
1463571532.332	 16	 -1.079885	 0.131760	 0.777577	 2.280938	 -1.030954	 -0.227726	 -0.114470	 0.808978	 -0.486345	 0.309709	 2
1463571532.342	 16	 -0.934154	 0.150342	 0.905438	 2.285178	 -1.018046	 -0.224890	 -0.111943	 0.812069	 -0.481211	 0.310562	 2
1463571532.352	 16	 -0.969904	 -0.502910	 1.010510	 2.283352	 -1.004364	 -0.223444	 -0.110159	 0.814420	 -0.475629	 0.313628	 2
1463571532.362	 16	 -1.059602	 -1.264636	 1.095859	 2.273789	 -0.989451	 -0.221798	 -0.110006	 0.815728	 -0.469095	 0.320057	 2
1463571532.372	 16	 -1.064928	 -1.542818	 1.160460	 2.260030	 -0.973772	 -0.220222	 -0.110572	 0.816415	 -0.462029	 0.328284	 2
1463571532.382	 16	 -0.869732	 -1.311744	 1.130003	 2.246133	 -0.958990	 -0.220190	 -0.110637	 0.816877	 -0.455543	 0.336082	 2
1463571532.392	 16	 -0.510543	 -0.837248	 0.991572	 2.234127	 -0.947169	 -0.223053	 -0.109644	 0.817172	 -0.450799	 0.342035	 2
1463571532.402	 16	 -0.298333	 -0.058340	 0.831779	 2.227633	 -0.938226	 -0.227642	 -0.107281	 0.817921	 -0.447781	 0.344948	 2
1463571532.412	 16	 -0.145457	 0.803766	 0.680737	 2.229791	 -0.931382	 -0.232496	 -0.103315	 0.819768	 -0.446084	 0.343969	 2
1463571532.422	 16	 -0.056801	 1.205244	 0.491864	 2.237419	 -0.926695	 -0.237205	 -0.098659	 0.822141	 -0.445459	 0.340466	 2
1463571532.432	 16	 -0.237985	 0.980881	 0.280333	 2.247333	 -0.923006	 -0.238331	 -0.095189	 0.824524	 -0.444696	 0.336666	 2
1463571532.442	 16	 -0.604855	 0.291322	 0.085273	 2.256045	 -0.918758	 -0.233277	 -0.094429	 0.826497	 -0.442603	 0.334797	 2
1463571532.452	 16	 -0.993591	 -0.007194	 -0.168837	 2.266053	 -0.913828	 -0.220706	 -0.096376	 0.828444	 -0.439044	 0.334115	 2
1463571532.462	 16	 -1.322446	 0.967133	 -0.293325	 2.286914	 -0.907832	 -0.202394	 -0.098173	 0.832090	 -0.434644	 0.330262	 2
1463571532.472	 16	 -1.248595	 2.194938	 -0.355015	 2.321644	 -0.901567	 -0.182931	 -0.097526	 0.837925	 -0.430666	 0.320774	 2
1463571532.482	 16	 -0.852219	 2.511838	 -0.349122	 2.358089	 -0.897570	 -0.168007	 -0.095202	 0.843682	 -0.428451	 0.309141	 2
1463571532.492	 16	 -0.555380	 2.223566	 -0.233958	 2.389337	 -0.894904	 -0.157918	 -0.092293	 0.848452	 -0.427291	 0.298386	 2
1463571532.502	 16	 -0.165213	 1.322696	 -0.075216	 2.408446	 -0.893671	 -0.153632	 -0.089813	 0.851306	 -0.427020	 0.291318	 2
1463571532.512	 16	 0.376360	 0.206201	 0.037571	 2.411176	 -0.895297	 -0.156309	 -0.088376	 0.851514	 -0.428203	 0.289405	 2
1463571532.522	 16	 0.957223	 -0.611460	 0.014247	 2.399661	 -0.901150	 -0.165499	 -0.087985	 0.849141	 -0.431445	 0.291673	 2
1463571532.532	 16	 1.424514	 -0.909031	 -0.203612	 2.380853	 -0.911707	 -0.178308	 -0.088562	 0.844952	 -0.436822	 0.295634	 2
1463571532.542	 16	 1.856723	 -0.896405	 -0.487553	 2.359711	 -0.927141	 -0.193536	 -0.089691	 0.839569	 -0.444405	 0.299305	 2
1463571532.552	 16	 2.212224	 -0.859069	 -0.768465	 2.337006	 -0.947075	 -0.210911	 -0.091361	 0.833156	 -0.453976	 0.302340	 2
1463571532.562	 16	 2.378327	 -0.745296	 -0.999057	 2.314052	 -0.970069	 -0.229426	 -0.093512	 0.826137	 -0.464801	 0.304489	 2
1463571532.572	 16	 2.382737	 -0.581607	 -1.158502	 2.292499	 -0.994385	 -0.247866	 -0.095953	 0.819042	 -0.476038	 0.305534	 2
1463571532.582	 16	 2.330093	 -0.543075	 -1.293037	 2.272049	 -1.019226	 -0.265718	 -0.098791	 0.811963	 -0.487261	 0.305831	 2
1463571532.592	 16	 2.165490	 -0.729539	 -1.405244	 2.251446	 -1.044002	 -0.281886	 -0.102632	 0.804774	 -0.498002	 0.306268	 2
1463571532.602	 16	 1.805668	 -0.962750	 -1.442649	 2.231852	 -1.067122	 -0.293996	 -0.107756	 0.797840	 -0.507365	 0.307278	 2
1463571532.612	 16	 1.371669	 -1.157883	 -1.392726	 2.214771	 -1.087297	 -0.300745	 -0.113921	 0.791564	 -0.514796	 0.308923	 2
1463571532.622	 16	 1.051621	 -1.216866	 -1.295636	 2.200444	 -1.104593	 -0.303237	 -0.120537	 0.786013	 -0.520553	 0.310931	 2
1463571532.632	 16	 0.955749	 -1.083577	 -1.141157	 2.187246	 -1.119831	 -0.305370	 -0.126614	 0.780997	 -0.525484	 0.312857	 2
1463571532.642	 16	 1.046331	 -0.811302	 -0.959298	 2.172972	 -1.133871	 -0.311366	 -0.131271	 0.776282	 -0.530437	 0.314310	 2
1463571532.652	 16	 1.216554	 -0.610633	 -0.792654	 2.155380	 -1.147331	 -0.323549	 -0.134379	 0.771574	 -0.535856	 0.315395	 2
1463571532.662	 16	 1.327336	 -0.549282	 -0.648104	 2.133405	 -1.160139	 -0.341493	 -0.136437	 0.766716	 -0.541577	 0.316585	 2
1463571532.672	 16	 1.339291	 -0.582668	 -0.553666	 2.108028	 -1.172040	 -0.362916	 -0.138048	 0.761770	 -0.547221	 0.318116	 2
1463571532.682	 16	 1.277725	 -0.767309	 -0.519678	 2.080245	 -1.183049	 -0.385332	 -0.139918	 0.756718	 -0.552479	 0.320261	 2
1463571532.692	 16	 1.230151	 -1.102396	 -0.545829	 2.049233	 -1.193652	 -0.407785	 -0.142769	 0.751259	 -0.557299	 0.323487	 2
1463571532.702	 16	 1.179460	 -1.399360	 -0.596110	 2.015254	 -1.204183	 -0.430005	 -0.146726	 0.745341	 -0.561747	 0.327685	 2
1463571532.712	 16	 1.169938	 -1.821690	 -0.610614	 1.976816	 -1.214576	 -0.452921	 -0.151863	 0.738786	 -0.565819	 0.333138	 2
1463571532.722	 16	 1.189692	 -2.115674	 -0.661481	 1.932900	 -1.224998	 -0.477826	 -0.158070	 0.731470	 -0.569668	 0.339770	 2
1463571532.732	 16	 1.201939	 -2.403377	 -0.729277	 1.884407	 -1.235701	 -0.504622	 -0.165245	 0.723478	 -0.573376	 0.347152	 2
1463571532.742	 16	 1.199040	 -2.743077	 -0.786766	 1.830514	 -1.246495	 -0.533462	 -0.173558	 0.714698	 -0.576794	 0.355518	 2
1463571532.752	 16	 1.181711	 -2.972142	 -0.847364	 1.772096	 -1.257298	 -0.564199	 -0.182830	 0.705268	 -0.579894	 0.364546	 2
1463571532.762	 16	 1.223566	 -3.212973	 -1.039675	 1.707676	 -1.269091	 -0.598509	 -0.193252	 0.694930	 -0.583014	 0.373927	 2
1463571532.772	 16	 1.176385	 -3.164738	 -1.153918	 1.640920	 -1.281574	 -0.635042	 -0.204204	 0.684319	 -0.586087	 0.382766	 2
1463571532.782	 16	 1.110302	 -3.093745	 -1.217693	 1.572439	 -1.293987	 -0.673937	 -0.215242	 0.673717	 -0.588983	 0.390991	 2
1463571532.792	 16	 0.976425	 -2.899317	 -1.301045	 1.504794	 -1.306456	 -0.713425	 -0.226253	 0.663471	 -0.591635	 0.398226	 2
1463571532.802	 16	 0.805197	 -2.504596	 -1.353432	 1.441676	 -1.318990	 -0.751668	 -0.236721	 0.654158	 -0.594099	 0.403841	 2
1463571532.812	 16	 0.651541	 -2.008847	 -1.400770	 1.384571	 -1.331633	 -0.788544	 -0.246195	 0.646110	 -0.596573	 0.407469	 2
1463571532.822	 16	 0.588304	 -1.594031	 -1.425135	 1.330358	 -1.344267	 -0.826908	 -0.254590	 0.639095	 -0.599283	 0.409391	 2
1463571532.832	 16	 0.609140	 -1.304316	 -1.359740	 1.274483	 -1.356004	 -0.870122	 -0.261871	 0.632696	 -0.602256	 0.410373	 2
1463571532.842	 16	 0.636340	 -1.111704	 -1.188728	 1.216285	 -1.365699	 -0.917827	 -0.267949	 0.626781	 -0.605257	 0.411112	 2
1463571532.852	 16	 0.610040	 -1.006716	 -0.948792	 1.159439	 -1.372765	 -0.965352	 -0.272949	 0.621422	 -0.607877	 0.412092	 2
1463571532.862	 16	 0.570537	 -0.976223	 -0.720091	 1.106574	 -1.377313	 -1.009263	 -0.277126	 0.616569	 -0.609925	 0.413565	 2
1463571532.872	 16	 0.503382	 -1.085554	 -0.570251	 1.057795	 -1.380165	 -1.048297	 -0.281082	 0.611960	 -0.611321	 0.415673	 2
1463571532.892	 17	 -0.181254	 -1.748595	 -0.463884	 0.986926	 -1.387159	 -1.090177	 -0.292575	 0.603381	 -0.610072	 0.422071	 2
1463571532.902	 17	 -0.764917	 -1.806850	 -0.373017	 0.984942	 -1.393900	 -1.073709	 -0.300617	 0.600816	 -0.606359	 0.425416	 2
1463571532.912	 17	 -1.242258	 -1.563837	 -0.202472	 1.015531	 -1.402165	 -1.026069	 -0.308732	 0.600372	 -0.601000	 0.427829	 2
1463571532.922	 17	 -1.510407	 -1.181312	 0.077323	 1.078547	 -1.409400	 -0.949061	 -0.315705	 0.601961	 -0.594586	 0.429466	 2
1463571532.932	 17	 -1.642521	 -0.469437	 0.361130	 1.170155	 -1.413740	 -0.849564	 -0.320247	 0.605756	 -0.588049	 0.429767	 2
1463571532.952	 18	 -1.808604	 1.025669	 0.834766	 1.413570	 -1.410191	 -0.613658	 -0.320466	 0.620308	 -0.576136	 0.424956	 2
1463571532.962	 18	 -2.101243	 1.138758	 0.910838	 1.550600	 -1.402988	 -0.486242	 -0.318657	 0.629898	 -0.569759	 0.420786	 2
1463571532.972	 18	 -2.570975	 1.174608	 0.824672	 1.699857	 -1.393083	 -0.346437	 -0.317804	 0.640607	 -0.562016	 0.415646	 2
1463571532.982	 18	 -2.927270	 1.526880	 0.710621	 1.855769	 -1.379984	 -0.202200	 -0.317370	 0.652637	 -0.553516	 0.408609	 2
1463571532.992	 18	 -2.930184	 2.296677	 0.674113	 2.002015	 -1.363277	 -0.074333	 -0.315361	 0.666037	 -0.545725	 0.398906	 2
1463571533.002	 18	 -2.663512	 3.124881	 0.733852	 2.125429	 -1.344033	 0.022138	 -0.310429	 0.680319	 -0.539675	 0.386718	 2
1463571533.012	 18	 -2.314579	 3.864425	 0.921007	 2.223810	 -1.323283	 0.085429	 -0.302114	 0.695093	 -0.535422	 0.372688	 2
1463571533.022	 18	 -1.978625	 4.500355	 1.188308	 2.300488	 -1.301517	 0.119683	 -0.290317	 0.710205	 -0.532587	 0.357317	 2
1463571533.042	 19	 -1.554775	 4.934441	 1.524372	 2.410051	 -1.257650	 0.132226	 -0.259813	 0.739673	 -0.528975	 0.324911	 2
1463571533.052	 19	 -1.545904	 4.484040	 1.606431	 2.450526	 -1.235655	 0.126043	 -0.244110	 0.753081	 -0.526558	 0.309864	 2
1463571533.062	 19	 -1.642520	 3.638095	 1.662280	 2.481280	 -1.212690	 0.117722	 -0.230156	 0.765141	 -0.522485	 0.297651	 2
1463571533.072	 19	 -1.779790	 2.653065	 1.589298	 2.504375	 -1.189077	 0.111307	 -0.218946	 0.775737	 -0.516679	 0.288682	 2
1463571533.082	 19	 -1.900074	 1.675205	 1.485327	 2.520634	 -1.165037	 0.108175	 -0.210814	 0.784903	 -0.509267	 0.283075	 2
1463571533.092	 19	 -1.976394	 0.751377	 1.369753	 2.530127	 -1.140974	 0.107869	 -0.205580	 0.792679	 -0.500593	 0.280721	 2
1463571533.102	 19	 -2.138395	 -0.233920	 1.250090	 2.533434	 -1.116521	 0.111265	 -0.203356	 0.799195	 -0.490507	 0.281667	 2
1463571533.112	 19	 -2.157848	 -1.311143	 1.125133	 2.528883	 -1.091983	 0.117927	 -0.204348	 0.804177	 -0.479039	 0.286466	 2
1463571533.122	 19	 -1.813069	 -1.966154	 0.848530	 2.517057	 -1.071053	 0.125359	 -0.207727	 0.806983	 -0.468113	 0.294107	 2
1463571533.132	 19	 -1.437112	 -2.083392	 0.527634	 2.503688	 -1.055177	 0.133884	 -0.212396	 0.808049	 -0.458865	 0.302305	 2
1463571533.142	 19	 -1.170692	 -1.832994	 0.404016	 2.491561	 -1.042842	 0.141933	 -0.216924	 0.808369	 -0.451213	 0.309663	 2
1463571533.152	 19	 -0.993180	 -1.309115	 0.409477	 2.482316	 -1.032222	 0.148031	 -0.220162	 0.808852	 -0.444834	 0.315295	 2
1463571533.162	 19	 -0.913392	 -0.744052	 0.481183	 2.476892	 -1.022053	 0.152026	 -0.221720	 0.810014	 -0.439364	 0.318869	 2
1463571533.172	 19	 -0.897943	 -0.232088	 0.538035	 2.475638	 -1.011725	 0.154725	 -0.221802	 0.811996	 -0.434480	 0.320459	 2
1463571533.182	 19	 -0.864941	 0.178579	 0.567147	 2.478047	 -1.001360	 0.156582	 -0.220743	 0.814647	 -0.430107	 0.320360	 2
1463571533.192	 19	 -0.759140	 0.433562	 0.570730	 2.482404	 -0.991607	 0.157215	 -0.218855	 0.817581	 -0.426386	 0.319154	 2
1463571533.202	 19	 -0.577368	 0.543338	 0.528604	 2.486936	 -0.983327	 0.156394	 -0.216529	 0.820335	 -0.423520	 0.317485	 2
1463571533.212	 19	 -0.349275	 0.547432	 0.452053	 2.490574	 -0.977236	 0.154096	 -0.214063	 0.822579	 -0.421702	 0.315766	 2
1463571533.222	 19	 -0.121793	 0.437590	 0.357395	 2.492396	 -0.973481	 0.150617	 -0.211782	 0.824108	 -0.420856	 0.314444	 2
1463571533.232	 19	 0.080119	 0.341606	 0.256694	 2.492426	 -0.972063	 0.146271	 -0.209808	 0.824899	 -0.420941	 0.313578	 2
1463571533.242	 19	 0.229062	 0.307644	 0.180477	 2.491495	 -0.972404	 0.141379	 -0.208029	 0.825185	 -0.421755	 0.312917	 2
1463571533.262	 20	 0.497305	 0.305618	 0.009733	 2.488671	 -0.977745	 0.130678	 -0.204886	 0.824615	 -0.425391	 0.311568	 2
1463571533.272	 20	 0.642112	 0.322525	 -0.093684	 2.487156	 -0.982960	 0.125013	 -0.203537	 0.823750	 -0.428317	 0.310729	 2
1463571533.282	 20	 0.788817	 0.314744	 -0.227188	 2.485718	 -0.990074	 0.119486	 -0.202481	 0.822435	 -0.432022	 0.309772	 2
1463571533.292	 20	 0.958677	 0.275730	 -0.404881	 2.484350	 -0.999497	 0.114416	 -0.201903	 0.820534	 -0.436623	 0.308738	 2
1463571533.302	 20	 1.158946	 0.166050	 -0.634653	 2.482858	 -1.011762	 0.110303	 -0.202123	 0.817829	 -0.442237	 0.307778	 2
1463571533.312	 20	 1.474157	 -0.001474	 -0.874490	 2.479942	 -1.027707	 0.106372	 -0.203222	 0.813982	 -0.449187	 0.307189	 2
1463571533.322	 20	 1.890894	 -0.163760	 -1.084255	 2.473839	 -1.048150	 0.100786	 -0.204984	 0.808679	 -0.457887	 0.307180	 2
1463571533.332	 20	 2.277989	 -0.332907	 -1.225617	 2.463296	 -1.072645	 0.091916	 -0.207057	 0.801964	 -0.468225	 0.307809	 2
1463571533.342	 20	 2.424650	 -0.593674	 -1.338028	 2.448254	 -1.099642	 0.080883	 -0.209816	 0.794062	 -0.479335	 0.309324	 2
1463571533.352	 20	 1.927513	 -0.731999	 -1.399998	 2.435194	 -1.124711	 0.074413	 -0.213827	 0.786369	 -0.489036	 0.311040	 2
1463571533.362	 20	 0.674932	 0.007518	 -1.130691	 2.437969	 -1.140587	 0.080529	 -0.217699	 0.782057	 -0.494724	 0.310230	 2
1463571533.372	 20	 -0.580571	 0.502908	 -0.500205	 2.458822	 -1.142291	 0.097808	 -0.219524	 0.782938	 -0.495022	 0.306220	 2
1463571533.382	 20	 -0.788761	 -0.172410	 0.012219	 2.471445	 -1.136774	 0.111611	 -0.221122	 0.784789	 -0.492089	 0.305058	 2
1463571533.402	 21	 -0.281774	 -0.709224	 0.402415	 2.459274	 -1.125419	 0.112089	 -0.222859	 0.785817	 -0.486093	 0.310708	 2
1463571533.412	 21	 -0.194531	 -1.071481	 0.497401	 2.444954	 -1.120865	 0.106921	 -0.223712	 0.785327	 -0.483470	 0.315390	 2
1463571533.422	 21	 -0.250332	 -1.507211	 0.669683	 2.424147	 -1.115070	 0.099368	 -0.224985	 0.784342	 -0.480010	 0.322148	 2
1463571533.432	 21	 -0.389659	 -1.766235	 0.828350	 2.399891	 -1.107143	 0.091477	 -0.226579	 0.783284	 -0.475381	 0.330365	 2
1463571533.442	 21	 -0.354331	 -1.647151	 0.983686	 2.374364	 -1.097884	 0.081964	 -0.227538	 0.782408	 -0.470373	 0.338841	 2
1463571533.452	 21	 -0.046664	 -1.185939	 1.053508	 2.348765	 -1.089584	 0.067927	 -0.226773	 0.781663	 -0.466563	 0.346260	 2
1463571533.462	 21	 0.166852	 -0.542633	 1.115186	 2.325276	 -1.082667	 0.049526	 -0.223939	 0.781316	 -0.464383	 0.351775	 2
1463571533.472	 21	 0.092990	 0.385323	 1.299249	 2.309269	 -1.074339	 0.029700	 -0.218505	 0.782670	 -0.462822	 0.354230	 2
1463571533.482	 21	 -0.227564	 0.873244	 1.424880	 2.301868	 -1.063034	 0.012100	 -0.211365	 0.785903	 -0.460685	 0.354191	 2
1463571533.492	 21	 -0.799405	 0.785750	 1.302219	 2.302500	 -1.048600	 0.003581	 -0.205336	 0.790232	 -0.456559	 0.353447	 2
1463571533.502	 21	 -1.095790	 1.014030	 0.834791	 2.314030	 -1.034415	 0.006083	 -0.201227	 0.795240	 -0.451661	 0.350860	 2
1463571533.512	 21	 -0.945088	 1.712967	 0.329482	 2.336107	 -1.024239	 0.014413	 -0.197837	 0.800557	 -0.448345	 0.344900	 2
1463571533.522	 21	 -0.789062	 2.961799	 -0.025812	 2.371160	 -1.018207	 0.024534	 -0.193056	 0.806885	 -0.447618	 0.333622	 2
1463571533.532	 21	 -0.978845	 3.690982	 -0.311524	 2.419883	 -1.013076	 0.039768	 -0.187527	 0.814545	 -0.447678	 0.317702	 2
1463571533.542	 21	 -1.235141	 3.197369	 -0.574998	 2.471957	 -1.007356	 0.061264	 -0.183857	 0.821934	 -0.446821	 0.301616	 2
1463571533.552	 21	 -1.366357	 1.993578	 -0.744921	 2.516839	 -1.000849	 0.086959	 -0.183603	 0.827721	 -0.444427	 0.289228	 2
1463571533.562	 21	 -0.986261	 0.457601	 -0.755063	 2.545158	 -0.996050	 0.110414	 -0.186476	 0.830727	 -0.441668	 0.282928	 2
1463571533.572	 21	 -0.057174	 -1.149786	 -0.563892	 2.548233	 -0.996905	 0.123140	 -0.191180	 0.829760	 -0.440516	 0.284419	 2
1463571533.582	 21	 0.970691	 -2.161985	 -0.392554	 2.527546	 -1.005301	 0.121930	 -0.196219	 0.824908	 -0.442233	 0.292327	 2
1463571533.592	 21	 1.688762	 -2.353966	 -0.468802	 2.495315	 -1.020206	 0.111565	 -0.200943	 0.817595	 -0.446825	 0.302502	 2
1463571533.602	 21	 2.245688	 -2.254611	 -0.622999	 2.458556	 -1.040439	 0.095245	 -0.205210	 0.808745	 -0.453998	 0.312579	 2
1463571533.612	 21	 2.684629	 -2.364785	 -0.677937	 2.414894	 -1.064506	 0.071704	 -0.209114	 0.798427	 -0.463062	 0.323048	 2
1463571533.622	 21	 2.754040	 -2.570361	 -0.691112	 2.363886	 -1.089389	 0.042415	 -0.213187	 0.787090	 -0.472489	 0.334357	 2
1463571533.632	 21	 2.408493	 -2.677400	 -0.777557	 2.311935	 -1.112244	 0.013957	 -0.218179	 0.775771	 -0.480723	 0.345663	 2
1463571533.652	 22	 1.384515	 -2.558377	 -1.058487	 2.228066	 -1.149622	 -0.020457	 -0.232069	 0.755668	 -0.491702	 0.365157	 2
1463571533.662	 22	 1.005372	 -2.318609	 -1.148874	 2.199740	 -1.165185	 -0.025333	 -0.240183	 0.747246	 -0.495061	 0.372627	 2
1463571533.672	 22	 0.787251	 -1.883568	 -1.233516	 2.180365	 -1.179905	 -0.024654	 -0.248098	 0.739942	 -0.497995	 0.378066	 2
1463571533.682	 22	 0.740445	 -1.346763	 -1.296322	 2.168400	 -1.194657	 -0.021518	 -0.255127	 0.733657	 -0.501285	 0.381276	 2
1463571533.692	 22	 0.852924	 -0.763526	 -1.345162	 2.161093	 -1.210289	 -0.019613	 -0.260727	 0.728143	 -0.505649	 0.382293	 2
1463571533.702	 22	 1.033567	 -0.232404	 -1.366305	 2.155725	 -1.227098	 -0.021509	 -0.264701	 0.723160	 -0.511357	 0.381426	 2
1463571533.712	 22	 1.254292	 0.174371	 -1.358047	 2.149296	 -1.245068	 -0.029197	 -0.267119	 0.718422	 -0.518378	 0.379211	 2
1463571533.722	 22	 1.482626	 0.345343	 -1.303025	 2.137700	 -1.263880	 -0.044738	 -0.268318	 0.713532	 -0.526399	 0.376538	 2
1463571533.732	 22	 1.666292	 0.305993	 -1.228255	 2.117425	 -1.283055	 -0.069351	 -0.268833	 0.708157	 -0.534954	 0.374254	 2
1463571533.742	 22	 1.735965	 0.087184	 -1.159492	 2.087765	 -1.301954	 -0.101781	 -0.269349	 0.702205	 -0.543444	 0.372866	 2
1463571533.752	 22	 1.677983	 -0.265320	 -1.098322	 2.049900	 -1.319857	 -0.139193	 -0.270539	 0.695732	 -0.551228	 0.372710	 2
1463571533.762	 22	 1.533374	 -0.648490	 -1.047340	 2.006259	 -1.336313	 -0.178438	 -0.272809	 0.688897	 -0.557897	 0.373827	 2
1463571533.772	 22	 1.399637	 -0.980712	 -1.006637	 1.958088	 -1.351343	 -0.218608	 -0.276143	 0.681803	 -0.563460	 0.376035	 2
1463571533.782	 22	 1.337968	 -1.188738	 -0.970734	 1.904160	 -1.365266	 -0.262067	 -0.280157	 0.674465	 -0.568290	 0.379020	 2
1463571533.792	 22	 1.337608	 -1.287459	 -0.943939	 1.842389	 -1.378304	 -0.312133	 -0.284423	 0.666906	 -0.572776	 0.382449	 2
1463571533.802	 22	 1.374840	 -1.313091	 -0.943436	 1.770570	 -1.390656	 -0.371887	 -0.288690	 0.659117	 -0.577233	 0.386037	 2
1463571533.812	 22	 1.400394	 -1.304836	 -0.968094	 1.687834	 -1.402348	 -0.442621	 -0.292918	 0.651143	 -0.581765	 0.389565	 2
1463571533.822	 22	 1.397130	 -1.285958	 -1.006258	 1.594236	 -1.413274	 -0.524375	 -0.297177	 0.643058	 -0.586335	 0.392903	 2
1463571533.832	 22	 1.374851	 -1.220276	 -1.051280	 1.489993	 -1.423275	 -0.617298	 -0.301420	 0.634991	 -0.590945	 0.395874	 2
1463571533.842	 22	 1.308093	 -1.074754	 -1.104765	 1.376979	 -1.432271	 -0.720190	 -0.305536	 0.627176	 -0.595609	 0.398180	 2
1463571533.852	 22	 1.163992	 -0.817267	 -1.150139	 1.260888	 -1.440313	 -0.828378	 -0.309341	 0.620055	 -0.600271	 0.399393	 2
1463571533.862	 22	 0.976595	 -0.485008	 -1.168862	 1.147522	 -1.447543	 -0.936914	 -0.312613	 0.614023	 -0.604868	 0.399229	 2
1463571533.882	 23	 0.754120	 -0.100724	 -1.214506	 0.919701	 -1.459746	 -1.162455	 -0.317790	 0.604506	 -0.614008	 0.395697	 2
1463571533.892	 23	 0.658550	 -0.235440	 -1.203204	 0.797840	 -1.464447	 -1.283155	 -0.320661	 0.600097	 -0.618158	 0.393624	 2
1463571533.902	 23	 0.509124	 -0.518532	 -1.140592	 0.676312	 -1.468170	 -1.400871	 -0.324424	 0.595652	 -0.621359	 0.392252	 2
1463571533.912	 23	 0.348217	 -0.769485	 -1.050936	 0.560828	 -1.471262	 -1.509794	 -0.329070	 0.591303	 -0.623445	 0.391651	 2
1463571533.922	 23	 0.274219	 -0.932320	 -0.948428	 0.451477	 -1.473495	 -1.610671	 -0.334179	 0.587041	 -0.624708	 0.391722	 2
1463571533.932	 23	 0.289882	 -1.100657	 -0.835029	 0.347838	 -1.474254	 -1.704221	 -0.339440	 0.582641	 -0.625453	 0.392579	 2
1463571533.942	 23	 0.311379	 -1.390255	 -0.720677	 0.251725	 -1.473511	 -1.787646	 -0.345095	 0.577818	 -0.625586	 0.394559	 2
1463571533.952	 23	 0.215983	 -1.788108	 -0.621235	 0.165281	 -1.472398	 -1.857577	 -0.351721	 0.572575	 -0.624649	 0.397824	 2
1463571533.962	 23	 -0.076738	 -2.157783	 -0.529405	 0.088498	 -1.472998	 -1.913903	 -0.359742	 0.567412	 -0.622101	 0.402020	 2
1463571533.972	 23	 -0.589143	 -2.307373	 -0.390984	 0.023335	 -1.477729	 -1.956382	 -0.368957	 0.563397	 -0.617533	 0.406334	 2
1463571533.982	 23	 -1.193625	 -2.187633	 -0.110705	 -0.020639	 -1.488165	 -1.978129	 -0.378479	 0.561689	 -0.610821	 0.410069	 2
1463571534.002	 24	 -2.020551	 -1.477387	 0.693899	 0.075304	 -1.523282	 -1.846038	 -0.394404	 0.566361	 -0.592368	 0.415670	 2
1463571534.012	 24	 -2.133240	 -0.715616	 0.972672	 0.438546	 -1.541760	 -1.473415	 -0.398900	 0.572482	 -0.582638	 0.416744	 2
1463571534.032	 25	 -2.177822	 0.423829	 1.291669	 2.003262	 -1.530993	 0.090974	 -0.400653	 0.589759	 -0.565388	 0.414727	 2
1463571534.042	 25	 -2.451803	 0.882450	 1.355873	 2.260068	 -1.506832	 0.340452	 -0.399401	 0.600670	 -0.557093	 0.411486	 2
1463571534.052	 25	 -2.806081	 1.566325	 1.355729	 2.405800	 -1.478141	 0.472860	 -0.397060	 0.613708	 -0.548779	 0.405645	 2
1463571534.062	 25	 -2.825735	 2.567541	 1.397190	 2.498143	 -1.447360	 0.542527	 -0.392208	 0.628827	 -0.541711	 0.396608	 2
1463571534.072	 25	 -2.427440	 3.394960	 1.548497	 2.548462	 -1.417894	 0.560905	 -0.383749	 0.644890	 -0.536891	 0.385489	 2
1463571534.092	 26	 -1.384893	 3.748558	 2.182167	 2.555450	 -1.367793	 0.492101	 -0.357780	 0.675258	 -0.532117	 0.364516	 2
1463571534.102	 26	 -1.134239	 3.318578	 2.391268	 2.531558	 -1.344838	 0.432222	 -0.342717	 0.688738	 -0.529931	 0.356873	 2
1463571534.122	 27	 -1.233540	 1.513622	 2.642843	 2.468131	 -1.295800	 0.320910	 -0.317078	 0.711048	 -0.520213	 0.351071	 2
1463571534.132	 27	 -1.476906	 0.611223	 2.628039	 2.437982	 -1.268128	 0.280807	 -0.307973	 0.720273	 -0.511816	 0.352709	 2
1463571534.142	 27	 -1.719947	 -0.135573	 2.510235	 2.413088	 -1.238869	 0.254221	 -0.301605	 0.728430	 -0.501336	 0.356491	 2
1463571534.152	 27	 -1.834191	 -0.724291	 2.389583	 2.391750	 -1.209215	 0.237715	 -0.297474	 0.735491	 -0.489496	 0.361878	 2
1463571534.162	 27	 -1.760182	 -1.032450	 2.312534	 2.370113	 -1.180098	 0.225273	 -0.294548	 0.741450	 -0.477112	 0.368589	 2
1463571534.172	 27	 -1.569959	 -0.891221	 2.210944	 2.350117	 -1.152872	 0.213721	 -0.291420	 0.746790	 -0.465574	 0.374994	 2
1463571534.182	 27	 -1.442806	 -0.656149	 1.971162	 2.335056	 -1.127997	 0.205077	 -0.288244	 0.751776	 -0.455158	 0.380236	 2
1463571534.192	 27	 -1.300393	 -0.369927	 1.750907	 2.325086	 -1.105756	 0.198869	 -0.284992	 0.756522	 -0.446060	 0.384037	 2
1463571534.202	 27	 -1.210172	 -0.158243	 1.644449	 2.318478	 -1.085249	 0.193778	 -0.281529	 0.761186	 -0.437907	 0.386750	 2
1463571534.212	 27	 -1.175242	 0.036929	 1.878298	 2.311669	 -1.063828	 0.186173	 -0.276899	 0.766274	 -0.429834	 0.389093	 2
1463571534.222	 27	 -1.127320	 0.179845	 1.951682	 2.305066	 -1.041795	 0.176840	 -0.271337	 0.771656	 -0.421872	 0.391086	 2
1463571534.232	 27	 -1.046658	 0.277756	 1.992390	 2.298808	 -1.019896	 0.166597	 -0.265233	 0.777047	 -0.414184	 0.392813	 2
1463571534.242	 27	 -0.919000	 0.426220	 1.983068	 2.293030	 -0.998665	 0.155198	 -0.258551	 0.782374	 -0.407054	 0.394144	 2
1463571534.252	 27	 -0.726828	 0.549182	 1.856779	 2.288167	 -0.979277	 0.143136	 -0.251599	 0.787395	 -0.400921	 0.394930	 2
1463571534.262	 27	 -0.467778	 0.657598	 1.658366	 2.284008	 -0.962841	 0.130445	 -0.244648	 0.791835	 -0.396205	 0.395179	 2
1463571534.272	 27	 -0.162983	 0.780381	 1.406401	 2.280433	 -0.950115	 0.116934	 -0.237807	 0.795561	 -0.393242	 0.394831	 2
1463571534.282	 27	 0.125669	 0.926166	 1.092976	 2.278173	 -0.941562	 0.103130	 -0.231258	 0.798589	 -0.392199	 0.393644	 2
1463571534.292	 27	 0.336719	 0.940031	 0.743829	 2.277223	 -0.937105	 0.090258	 -0.225511	 0.800827	 -0.392795	 0.391832	 2
1463571534.302	 27	 0.483544	 0.894676	 0.416005	 2.277293	 -0.936266	 0.079086	 -0.220871	 0.802266	 -0.394643	 0.389670	 2
1463571534.312	 27	 0.600902	 0.855433	 0.185479	 2.277939	 -0.938193	 0.069170	 -0.217108	 0.803069	 -0.397426	 0.387294	 2
1463571534.322	 27	 0.709051	 0.838024	 0.028774	 2.278658	 -0.942108	 0.059635	 -0.213839	 0.803407	 -0.400941	 0.384782	 2
1463571534.342	 28	 1.015911	 0.854344	 -0.382998	 2.280628	 -0.957003	 0.041299	 -0.208765	 0.802558	 -0.410702	 0.379000	 2
1463571534.352	 28	 1.146265	 0.858642	 -0.617495	 2.282297	 -0.968537	 0.032872	 -0.207127	 0.801283	 -0.417132	 0.375560	 2
1463571534.362	 28	 1.214579	 0.821734	 -0.839046	 2.284808	 -0.982327	 0.025827	 -0.206270	 0.799505	 -0.424265	 0.371811	 2
1463571534.372	 28	 1.234607	 0.715948	 -1.044831	 2.288048	 -0.997909	 0.020766	 -0.206360	 0.797225	 -0.431791	 0.367972	 2
1463571534.382	 28	 1.241311	 0.497483	 -1.247286	 2.291372	 -1.015070	 0.018058	 -0.207627	 0.794316	 -0.439493	 0.364417	 2
1463571534.392	 28	 1.265764	 0.009528	 -1.497165	 2.292897	 -1.034083	 0.018011	 -0.210646	 0.790321	 -0.447227	 0.361950	 2
1463571534.402	 28	 1.162899	 -0.826438	 -1.683130	 2.289979	 -1.054465	 0.021630	 -0.216326	 0.784741	 -0.454328	 0.361899	 2
1463571534.412	 28	 0.624307	 -1.129897	 -1.506480	 2.286719	 -1.071522	 0.030852	 -0.223666	 0.779161	 -0.459013	 0.363578	 2
1463571534.422	 28	 -0.397088	 0.547815	 -0.838254	 2.300792	 -1.078573	 0.046994	 -0.227929	 0.778219	 -0.460452	 0.361121	 2
1463571534.432	 28	 -1.097360	 1.992427	 0.082920	 2.333748	 -1.072895	 0.064240	 -0.226150	 0.783502	 -0.458866	 0.352738	 2
1463571534.442	 28	 -0.907936	 1.612172	 0.670296	 2.357408	 -1.062056	 0.070976	 -0.221666	 0.789482	 -0.456003	 0.345897	 2
1463571534.452	 28	 -0.431346	 0.899602	 0.869471	 2.364363	 -1.052279	 0.066598	 -0.216824	 0.793493	 -0.453586	 0.342952	 2
1463571534.462	 28	 -0.189192	 0.010470	 0.827116	 2.359304	 -1.044688	 0.057801	 -0.213281	 0.795366	 -0.451492	 0.343598	 2
1463571534.472	 28	 -0.210993	 -1.133565	 0.728202	 2.344086	 -1.037993	 0.049936	 -0.212502	 0.795137	 -0.448536	 0.348448	 2
1463571534.482	 28	 -0.421609	 -2.085169	 0.688143	 2.321771	 -1.030523	 0.045776	 -0.214593	 0.793373	 -0.443885	 0.357037	 2
1463571534.492	 28	 -0.602631	 -2.366352	 0.854427	 2.296282	 -1.020772	 0.043455	 -0.217622	 0.791232	 -0.437645	 0.367503	 2
1463571534.502	 28	 -0.623641	 -1.761974	 1.026493	 2.273877	 -1.009159	 0.040135	 -0.219123	 0.790037	 -0.431176	 0.376714	 2
1463571534.512	 28	 -0.633960	 -0.856178	 1.113878	 2.259581	 -0.996821	 0.035959	 -0.218294	 0.790509	 -0.425483	 0.382631	 2
1463571534.522	 28	 -0.816872	 0.084390	 1.232930	 2.255388	 -0.982702	 0.032864	 -0.215350	 0.793116	 -0.419983	 0.384975	 2
1463571534.532	 28	 -0.955924	 0.646801	 1.290531	 2.259580	 -0.966780	 0.031165	 -0.210845	 0.797521	 -0.414374	 0.384446	 2
1463571534.542	 28	 -0.910134	 0.477059	 0.929391	 2.265650	 -0.952768	 0.031945	 -0.207309	 0.801573	 -0.409214	 0.383468	 2
1463571534.552	 28	 -0.666531	 0.154881	 0.308261	 2.271901	 -0.944449	 0.036665	 -0.206396	 0.804030	 -0.405589	 0.382665	 2
1463571534.562	 28	 -0.275926	 0.050778	 -0.102164	 2.276241	 -0.942189	 0.041605	 -0.207091	 0.804824	 -0.404176	 0.382118	 2
1463571534.572	 28	 -0.405229	 0.917118	 -0.370075	 2.288823	 -0.942383	 0.049140	 -0.207619	 0.806394	 -0.404126	 0.378556	 2
1463571534.582	 28	 -0.798244	 1.768192	 -0.649686	 2.317628	 -0.941879	 0.064780	 -0.208032	 0.810267	 -0.403986	 0.370114	 2
1463571534.592	 28	 -1.069854	 1.404534	 -0.892633	 2.351095	 -0.941069	 0.086891	 -0.210124	 0.814248	 -0.403109	 0.361043	 2
1463571534.602	 28	 -1.261147	 0.514240	 -0.977053	 2.379838	 -0.939045	 0.113192	 -0.214756	 0.817039	 -0.400612	 0.354736	 2
1463571534.612	 28	 -1.098921	 -0.708389	 -1.132655	 2.397746	 -0.937937	 0.139996	 -0.221970	 0.817524	 -0.397361	 0.352828	 2
1463571534.622	 28	 -0.567852	 -2.053205	 -0.975007	 2.397463	 -0.939691	 0.161170	 -0.230922	 0.814686	 -0.394309	 0.357046	 2
1463571534.632	 28	 0.018153	 -3.075804	 -0.803117	 2.378058	 -0.944485	 0.172709	 -0.240119	 0.808742	 -0.391948	 0.366956	 2
1463571534.642	 28	 0.355788	 -2.850386	 -0.969152	 2.354683	 -0.952894	 0.180577	 -0.249114	 0.801533	 -0.391138	 0.377489	 2
1463571534.652	 28	 0.843397	 -2.247033	 -1.172410	 2.334919	 -0.965769	 0.185540	 -0.256925	 0.794205	 -0.393038	 0.385680	 2
1463571534.672	 29	 2.179505	 -1.444574	 -1.590092	 2.289701	 -1.010780	 0.173428	 -0.268297	 0.776486	 -0.407923	 0.398353	 2
1463571534.682	 29	 2.223136	 -1.195011	 -1.918536	 2.268874	 -1.039148	 0.163567	 -0.273412	 0.766921	 -0.418511	 0.402401	 2
1463571534.692	 29	 2.005514	 -1.281407	 -2.333092	 2.253522	 -1.069551	 0.160086	 -0.280360	 0.756954	 -0.429198	 0.405225	 2
1463571534.702	 29	 1.693733	 -1.767462	 -2.603472	 2.241308	 -1.100516	 0.164655	 -0.289856	 0.746170	 -0.438725	 0.408331	 2
1463571534.712	 29	 1.359961	 -2.334940	 -2.670858	 2.229679	 -1.130390	 0.176211	 -0.301629	 0.734520	 -0.446281	 0.412714	 2
1463571534.722	 29	 1.100575	 -2.637819	 -2.594683	 2.218733	 -1.158209	 0.192566	 -0.314579	 0.722526	 -0.451946	 0.418019	 2
1463571534.732	 29	 1.071022	 -2.696191	 -2.442565	 2.207032	 -1.184453	 0.208951	 -0.327330	 0.710492	 -0.456674	 0.423681	 2
1463571534.742	 29	 1.257229	 -2.529352	 -2.241205	 2.190535	 -1.210063	 0.219270	 -0.338841	 0.698348	 -0.461446	 0.429609	 2
1463571534.752	 29	 1.555261	 -2.004016	 -1.986326	 2.168113	 -1.235343	 0.218112	 -0.347706	 0.686786	 -0.467335	 0.434768	 2
1463571534.762	 29	 1.770781	 -1.578179	 -1.698615	 2.137286	 -1.259636	 0.203324	 -0.353919	 0.675941	 -0.474144	 0.439355	 2
1463571534.772	 29	 1.821346	 -1.268962	 -1.425475	 2.098812	 -1.281833	 0.177065	 -0.358108	 0.665990	 -0.481152	 0.443519	 2
1463571534.782	 29	 1.739064	 -1.044658	 -1.181809	 2.054934	 -1.301251	 0.142830	 -0.360935	 0.657038	 -0.487786	 0.447317	 2
1463571534.792	 29	 1.551268	 -1.030523	 -0.922128	 2.007697	 -1.317287	 0.104321	 -0.363038	 0.649049	 -0.493441	 0.451059	 2
1463571534.802	 29	 1.329401	 -1.280655	 -0.597466	 1.955952	 -1.328997	 0.063704	 -0.365150	 0.641597	 -0.497176	 0.455890	 2
1463571534.812	 29	 1.193385	 -1.009423	 -0.504234	 1.905179	 -1.338089	 0.022816	 -0.366742	 0.635092	 -0.500224	 0.460363	 2
1463571534.822	 29	 1.111935	 -0.650572	 -0.479936	 1.857958	 -1.346224	 -0.018200	 -0.367498	 0.629668	 -0.503606	 0.463514	 2
1463571534.832	 29	 1.038165	 -0.518961	 -0.401334	 1.812154	 -1.353022	 -0.059532	 -0.367750	 0.624965	 -0.506875	 0.466108	 2
1463571534.842	 29	 1.040782	 -0.414751	 -0.403584	 1.765399	 -1.359133	 -0.102920	 -0.367678	 0.620585	 -0.510221	 0.468360	 2
1463571534.852	 29	 1.064024	 -0.415246	 -0.462408	 1.715491	 -1.365324	 -0.149777	 -0.367609	 0.616095	 -0.513801	 0.470425	 2
1463571534.862	 29	 1.039525	 -0.563605	 -0.543508	 1.662594	 -1.371733	 -0.198480	 -0.368075	 0.611216	 -0.517287	 0.472599	 2
1463571534.872	 29	 0.988747	 -0.817491	 -0.666925	 1.606638	 -1.378712	 -0.247872	 -0.369580	 0.605666	 -0.520457	 0.475083	 2
1463571534.882	 29	 0.910041	 -1.104314	 -0.796800	 1.547682	 -1.386423	 -0.297403	 -0.372352	 0.599363	 -0.523176	 0.477918	 2
1463571534.892	 29	 0.787620	 -1.397265	 -0.909300	 1.486751	 -1.394801	 -0.345846	 -0.376490	 0.592373	 -0.525257	 0.481097	 2
1463571534.902	 29	 0.596395	 -1.593036	 -0.995783	 1.427705	 -1.403763	 -0.390034	 -0.381876	 0.585078	 -0.526579	 0.484323	 2
1463571534.912	 29	 0.365530	 -1.620426	 -1.052645	 1.375221	 -1.413306	 -0.426741	 -0.388156	 0.578010	 -0.527208	 0.487126	 2
1463571534.922	 29	 0.178428	 -1.447743	 -1.076053	 1.331096	 -1.423298	 -0.456185	 -0.394659	 0.571663	 -0.527519	 0.489049	 2
1463571534.932	 29	 0.069762	 -1.180472	 -1.077948	 1.293186	 -1.433485	 -0.481883	 -0.400791	 0.566224	 -0.527939	 0.489935	 2
1463571534.942	 29	 0.052713	 -0.958049	 -1.067204	 1.255906	 -1.443571	 -0.509307	 -0.406349	 0.561455	 -0.528669	 0.490058	 2
1463571534.952	 29	 0.133399	 -0.811588	 -1.078267	 1.210110	 -1.453356	 -0.546967	 -0.411315	 0.556906	 -0.529889	 0.489789	 2
1463571534.962	 29	 0.208331	 -0.795571	 -1.039337	 1.151386	 -1.462388	 -0.598044	 -0.415889	 0.552274	 -0.531345	 0.489595	 2
1463571534.972	 29	 0.296244	 -0.819348	 -0.909235	 1.080406	 -1.469706	 -0.661287	 -0.419978	 0.547589	 -0.532725	 0.489866	 2
1463571534.982	 29	 0.418302	 -0.897010	 -0.715986	 0.998885	 -1.474351	 -0.734415	 -0.423449	 0.542799	 -0.533811	 0.491025	 2
1463571534.992	 29	 0.495227	 -1.045758	 -0.516611	 0.913623	 -1.476214	 -0.810013	 -0.426470	 0.537844	 -0.534383	 0.493236	 2
1463571535.002	 29	 0.422169	 -1.325875	 -0.306495	 0.840177	 -1.476096	 -0.871258	 -0.429649	 0.532777	 -0.533817	 0.496579	 2
1463571535.012	 29	 0.138611	 -1.677569	 -0.078160	 0.797437	 -1.475575	 -0.898214	 -0.433692	 0.527923	 -0.531313	 0.500913	 2
1463571535.022	 29	 -0.284102	 -1.915910	 0.178020	 0.799907	 -1.476005	 -0.876957	 -0.438785	 0.523921	 -0.526501	 0.505738	 2
1463571535.032	 29	 -0.649973	 -1.930522	 0.508259	 0.854799	 -1.476764	 -0.802343	 -0.444204	 0.521410	 -0.519667	 0.510648	 2
1463571535.042	 29	 -0.867542	 -1.789739	 0.913255	 0.956932	 -1.475471	 -0.681343	 -0.448930	 0.520623	 -0.511368	 0.515671	 2
1463571535.052	 29	 -1.025080	 -1.408388	 1.368993	 1.093576	 -1.469876	 -0.528752	 -0.452080	 0.522002	 -0.502124	 0.520586	 2
1463571535.062	 29	 -1.144077	 -0.802491	 1.857392	 1.243587	 -1.458285	 -0.368230	 -0.452856	 0.526193	 -0.492491	 0.524876	 2
1463571535.072	 29	 -1.205197	 -0.262573	 2.217847	 1.379622	 -1.440581	 -0.227336	 -0.451259	 0.532943	 -0.482816	 0.528417	 2
1463571535.082	 29	 -1.280915	 0.057965	 2.387748	 1.489429	 -1.418951	 -0.116336	 -0.448284	 0.541197	 -0.473203	 0.531250	 2
1463571535.092	 29	 -1.534705	 0.237103	 2.493938	 1.584670	 -1.394742	 -0.021784	 -0.444975	 0.550647	 -0.463082	 0.533236	 2
1463571535.102	 29	 -1.860560	 0.341611	 2.546772	 1.673175	 -1.368351	 0.065056	 -0.441949	 0.561209	 -0.452063	 0.534195	 2
1463571535.122	 31	 -1.903292	 0.318454	 2.562915	 1.808291	 -1.311496	 0.196928	 -0.436452	 0.582813	 -0.428702	 0.534839	 2
1463571535.142	 31	 -0.896199	 0.257651	 3.091791	 1.851570	 -1.249571	 0.236316	 -0.425613	 0.602161	 -0.406666	 0.539332	 2
1463571535.152	 31	 -0.375318	 0.415199	 3.467067	 1.842473	 -1.215789	 0.222796	 -0.415974	 0.611232	 -0.396816	 0.543966	 2
1463571535.162	 31	 -0.155744	 0.715149	 3.850555	 1.828496	 -1.179059	 0.200950	 -0.403686	 0.621039	 -0.387274	 0.548969	 2
1463571535.172	 31	 -0.138720	 1.089893	 4.199202	 1.817939	 -1.138834	 0.178627	 -0.389274	 0.632198	 -0.377451	 0.553464	 2
1463571535.182	 31	 -0.111469	 1.507034	 4.385091	 1.812795	 -1.096302	 0.157315	 -0.373114	 0.644617	 -0.367644	 0.556859	 2
1463571535.202	 32	 0.167121	 2.291409	 4.272730	 1.814545	 -1.012383	 0.113135	 -0.337096	 0.671046	 -0.350912	 0.559396	 2
1463571535.212	 32	 0.281080	 2.618438	 4.094667	 1.820691	 -0.972810	 0.090138	 -0.317930	 0.684495	 -0.344345	 0.558403	 2
1463571535.222	 32	 0.403123	 2.869751	 3.892383	 1.829792	 -0.935651	 0.066795	 -0.298486	 0.697768	 -0.338999	 0.555972	 2
1463571535.232	 32	 0.443685	 3.238553	 3.724939	 1.842576	 -0.900371	 0.043573	 -0.278724	 0.711132	 -0.334586	 0.551957	 2
1463571535.242	 32	 0.424567	 3.693089	 3.475684	 1.861528	 -0.867593	 0.021584	 -0.258863	 0.725034	 -0.331260	 0.545511	 2
1463571535.252	 32	 0.424588	 3.861846	 3.280088	 1.884002	 -0.837091	 0.000473	 -0.239226	 0.738871	 -0.328569	 0.537478	 2
1463571535.262	 32	 0.479118	 3.818815	 3.088441	 1.906849	 -0.808836	 -0.020690	 -0.220019	 0.751942	 -0.326336	 0.528848	 2
1463571535.272	 32	 0.557576	 3.674414	 2.861539	 1.928721	 -0.783183	 -0.042085	 -0.201496	 0.763894	 -0.324619	 0.520084	 2
1463571535.282	 32	 0.701343	 3.388023	 2.587984	 1.948149	 -0.760781	 -0.063992	 -0.183960	 0.774336	 -0.323653	 0.511675	 2
1463571535.292	 32	 0.919131	 2.952549	 2.319858	 1.963000	 -0.741891	 -0.087157	 -0.167522	 0.782830	 -0.323635	 0.504355	 2
1463571535.302	 32	 1.262340	 2.474667	 1.974576	 1.972074	 -0.727360	 -0.112404	 -0.152269	 0.789106	 -0.325123	 0.498419	 2
1463571535.312	 32	 1.632305	 1.947284	 1.707468	 1.974225	 -0.717163	 -0.140551	 -0.138064	 0.793016	 -0.328356	 0.494213	 2
1463571535.322	 32	 1.859336	 1.600587	 1.511493	 1.971070	 -0.709954	 -0.170767	 -0.124649	 0.795125	 -0.332840	 0.491382	 2
1463571535.332	 32	 1.621826	 1.563288	 1.405572	 1.968569	 -0.703456	 -0.198773	 -0.112156	 0.796948	 -0.337081	 0.488540	 2
1463571535.342	 32	 1.239855	 1.410759	 1.338204	 1.968437	 -0.696089	 -0.221648	 -0.101036	 0.798980	 -0.339853	 0.485719	 2
1463571535.352	 32	 1.043346	 0.947427	 1.314288	 1.966787	 -0.688155	 -0.241206	 -0.091315	 0.800395	 -0.341515	 0.484146	 2
1463571535.362	 32	 1.007286	 0.463386	 1.139576	 1.961252	 -0.680933	 -0.259154	 -0.083078	 0.800601	 -0.342897	 0.484311	 2
1463571535.372	 32	 1.024144	 0.006861	 0.820781	 1.952123	 -0.676423	 -0.275640	 -0.076793	 0.799505	 -0.344838	 0.485780	 2
1463571535.382	 32	 1.102027	 -0.703447	 0.584355	 1.937209	 -0.674446	 -0.291528	 -0.072476	 0.796656	 -0.347417	 0.489273	 2
1463571535.392	 32	 1.072312	 -1.641747	 0.397877	 1.913698	 -0.674007	 -0.306590	 -0.070470	 0.791444	 -0.350126	 0.496047	 2
1463571535.402	 32	 1.014978	 -2.443715	 0.080777	 1.883058	 -0.675765	 -0.319721	 -0.071197	 0.784078	 -0.352968	 0.505535	 2
1463571535.422	 33	 0.670210	 -3.353062	 -0.199650	 1.808574	 -0.683948	 -0.339587	 -0.079222	 0.764858	 -0.358208	 0.529531	 2
1463571535.432	 33	 0.193475	 -3.728480	 0.052527	 1.769775	 -0.684768	 -0.343561	 -0.084915	 0.754548	 -0.357965	 0.543422	 2
1463571535.442	 33	 -0.206662	 -3.874673	 -0.028479	 1.732039	 -0.684346	 -0.342170	 -0.092036	 0.744128	 -0.355770	 0.557880	 2
1463571535.452	 33	 -0.595915	 -3.707500	 -0.159951	 1.698589	 -0.685279	 -0.335512	 -0.100724	 0.734297	 -0.352589	 0.571266	 2
1463571535.462	 33	 -0.993973	 -2.983816	 0.324513	 1.674006	 -0.682436	 -0.324293	 -0.108185	 0.726823	 -0.347134	 0.582685	 2
1463571535.472	 33	 -1.248427	 -3.193938	 0.726565	 1.652631	 -0.674880	 -0.309835	 -0.114567	 0.720268	 -0.339223	 0.594151	 2
1463571535.482	 33	 -1.559526	 -3.490516	 1.210370	 1.629065	 -0.663230	 -0.292063	 -0.120951	 0.712963	 -0.328713	 0.607456	 2
1463571535.492	 33	 -1.696465	 -3.605846	 1.531284	 1.605720	 -0.647684	 -0.271750	 -0.126633	 0.705611	 -0.315999	 0.621468	 2
1463571535.502	 33	 -1.527850	 -3.806517	 1.501305	 1.579741	 -0.632096	 -0.252455	 -0.132064	 0.697257	 -0.303233	 0.635957	 2
1463571535.512	 33	 -1.400724	 -4.088899	 1.333450	 1.550558	 -0.617146	 -0.234514	 -0.137406	 0.687654	 -0.290714	 0.650951	 2
1463571535.522	 33	 -1.451642	 -4.489398	 1.085069	 1.519480	 -0.601464	 -0.215172	 -0.142886	 0.677080	 -0.277194	 0.666566	 2
1463571535.532	 33	 -1.605430	 -4.984239	 0.839884	 1.482763	 -0.592000	 -0.195080	 -0.151209	 0.663820	 -0.264750	 0.682925	 2
1463571535.542	 33	 -1.759201	 -5.338990	 0.699373	 1.442122	 -0.586618	 -0.173534	 -0.161577	 0.648428	 -0.252465	 0.699782	 2
1463571535.552	 33	 -1.904556	 -5.589761	 0.673792	 1.399688	 -0.582788	 -0.150205	 -0.172848	 0.631696	 -0.239496	 0.716747	 2
1463571535.562	 33	 -2.009943	 -5.848211	 0.778881	 1.355733	 -0.579257	 -0.125081	 -0.184456	 0.613741	 -0.225411	 0.733817	 2
1463571535.572	 33	 -1.961826	 -6.187557	 0.937301	 1.308606	 -0.575269	 -0.099624	 -0.195758	 0.594087	 -0.210323	 0.751334	 2
1463571535.582	 33	 -1.845283	 -6.579596	 1.190552	 1.257517	 -0.569824	 -0.074403	 -0.206170	 0.572495	 -0.194064	 0.769469	 2
1463571535.592	 33	 -1.540212	 -7.062474	 1.460501	 1.201006	 -0.562116	 -0.050622	 -0.215034	 0.548504	 -0.176742	 0.788458	 2
1463571535.602	 33	 -1.123937	 -7.879212	 1.644311	 1.135304	 -0.552136	 -0.029894	 -0.222068	 0.520673	 -0.158659	 0.808958	 2
1463571535.612	 33	 -1.238068	 -5.780822	 1.582767	 1.079256	 -0.542804	 -0.009532	 -0.227626	 0.496100	 -0.141683	 0.825831	 2
1463571535.622	 33	 -1.640513	 -3.006495	 1.479933	 1.056203	 -0.537227	 0.014788	 -0.232825	 0.484117	 -0.127570	 0.833756	 2
1463571535.632	 33	 -1.669038	 -1.787747	 1.447825	 1.048815	 -0.533049	 0.040195	 -0.237648	 0.478342	 -0.115066	 0.837539	 2
1463571535.643	 33	 -1.363558	 -1.368806	 1.554575	 1.046414	 -0.527118	 0.063525	 -0.240872	 0.474997	 -0.103546	 0.840022	 2
1463571535.653	 33	 -1.049458	 -1.456608	 1.747123	 1.042652	 -0.518105	 0.084583	 -0.242291	 0.471590	 -0.092025	 0.842870	 2
1463571535.662	 33	 -0.764314	 -1.420326	 2.025273	 1.037742	 -0.505544	 0.104146	 -0.241869	 0.468187	 -0.080088	 0.846101	 2
1463571535.673	 33	 -0.463644	 -1.104811	 2.387951	 1.034721	 -0.488547	 0.122801	 -0.239252	 0.466102	 -0.067643	 0.849077	 2
1463571535.683	 33	 -0.036742	 -0.851154	 2.631719	 1.033284	 -0.467128	 0.139149	 -0.234159	 0.465399	 -0.055245	 0.851776	 2
1463571535.693	 33	 0.511765	 -0.921332	 2.709420	 1.029620	 -0.442079	 0.151050	 -0.226530	 0.464622	 -0.043565	 0.854934	 2
1463571535.703	 33	 1.091538	 -1.075214	 2.697611	 1.021960	 -0.414051	 0.157538	 -0.216397	 0.462998	 -0.033038	 0.858903	 2
1463571535.713	 33	 1.560349	 -1.277236	 2.749201	 1.010466	 -0.383181	 0.159712	 -0.204002	 0.460349	 -0.023345	 0.863665	 2
1463571535.723	 33	 1.777093	 -1.062727	 2.789809	 0.999131	 -0.350322	 0.159964	 -0.190169	 0.457984	 -0.014155	 0.868266	 2
1463571535.733	 33	 1.606806	 -0.503908	 2.779439	 0.992923	 -0.317888	 0.161089	 -0.176557	 0.457591	 -0.005293	 0.871441	 2
1463571535.743	 33	 1.152469	 -0.032114	 2.827218	 0.993111	 -0.287394	 0.166034	 -0.164572	 0.459425	 0.004169	 0.872827	 2
1463571535.752	 33	 0.749445	 -0.045033	 2.936118	 0.995399	 -0.258357	 0.175173	 -0.154171	 0.461712	 0.014959	 0.873401	 2
1463571535.763	 33	 0.395970	 -0.341635	 2.959882	 0.995694	 -0.230933	 0.187631	 -0.145216	 0.462787	 0.026983	 0.874078	 2
1463571535.773	 33	 0.223274	 -0.608292	 2.786251	 0.993291	 -0.205736	 0.201318	 -0.137451	 0.462489	 0.039201	 0.875028	 2
1463571535.783	 33	 0.281455	 -0.978124	 2.558493	 0.986904	 -0.182486	 0.213768	 -0.130110	 0.460446	 0.050650	 0.876639	 2
1463571535.793	 33	 0.531135	 -1.293873	 2.386056	 0.976336	 -0.159777	 0.223562	 -0.122192	 0.456733	 0.061009	 0.879057	 2
1463571535.803	 33	 0.918912	 -1.550190	 2.251337	 0.962412	 -0.136297	 0.229838	 -0.112914	 0.451807	 0.070098	 0.882160	 2
1463571535.813	 33	 1.386117	 -1.899587	 2.073496	 0.944630	 -0.111721	 0.231771	 -0.101907	 0.445444	 0.077577	 0.886102	 2
1463571535.823	 33	 1.857567	 -2.337619	 1.994975	 0.922095	 -0.085227	 0.229698	 -0.088838	 0.437182	 0.083711	 0.891051	 2
1463571535.833	 33	 2.273911	 -2.531370	 1.992744	 0.896793	 -0.056164	 0.224737	 -0.073736	 0.427780	 0.088912	 0.896472	 2
1463571535.843	 33	 2.563108	 -2.563860	 2.029357	 0.870898	 -0.024695	 0.218231	 -0.057060	 0.418058	 0.093552	 0.901787	 2
1463571535.853	 33	 2.735260	 -2.497317	 2.034872	 0.845660	 0.008344	 0.211131	 -0.039454	 0.408456	 0.097792	 0.906666	 2
1463571535.863	 33	 2.826439	 -2.378628	 2.011736	 0.821742	 0.042158	 0.203901	 -0.021417	 0.399212	 0.101658	 0.910954	 2
1463571535.872	 33	 2.834627	 -2.217066	 2.000379	 0.799538	 0.076210	 0.197121	 -0.003349	 0.390489	 0.105332	 0.914556	 2
1463571535.883	 33	 2.740313	 -2.131225	 2.065945	 0.778544	 0.110227	 0.191848	 0.014437	 0.382078	 0.109287	 0.917532	 2
1463571535.893	 33	 2.631194	 -2.007132	 2.120272	 0.758657	 0.143979	 0.188489	 0.031761	 0.373986	 0.113705	 0.919890	 2
1463571535.903	 33	 2.500505	 -1.864409	 2.095028	 0.739880	 0.176884	 0.186629	 0.048435	 0.366253	 0.118332	 0.921689	 2
1463571535.913	 33	 2.364692	 -1.609507	 1.989875	 0.723359	 0.208209	 0.185622	 0.064159	 0.359423	 0.122825	 0.922829	 2
1463571535.923	 33	 2.262166	 -1.536588	 1.883804	 0.708023	 0.237989	 0.185021	 0.079078	 0.353027	 0.127015	 0.923572	 2
1463571535.933	 33	 2.171157	 -1.509449	 1.776141	 0.692962	 0.266392	 0.184646	 0.093348	 0.346664	 0.130852	 0.924115	 2
1463571535.943	 33	 2.060816	 -1.534148	 1.699071	 0.677739	 0.293413	 0.184688	 0.106956	 0.340162	 0.134421	 0.924544	 2
1463571535.953	 33	 1.921416	 -1.652000	 1.671478	 0.661251	 0.319162	 0.185726	 0.119930	 0.333066	 0.137957	 0.925014	 2
1463571535.963	 33	 1.776604	 -1.793175	 1.652242	 0.642919	 0.343614	 0.188021	 0.132267	 0.325152	 0.141530	 0.925608	 2
1463571535.973	 33	 1.659716	 -1.901421	 1.638397	 0.622947	 0.366915	 0.191483	 0.144052	 0.316539	 0.145120	 0.926279	 2
1463571535.983	 33	 1.599607	 -1.969363	 1.631894	 0.601753	 0.389476	 0.195912	 0.155495	 0.307437	 0.148713	 0.926924	 2
1463571535.993	 33	 1.614321	 -1.997234	 1.608060	 0.579937	 0.411816	 0.200760	 0.166887	 0.298107	 0.152164	 0.927430	 2
1463571536.003	 33	 1.671823	 -1.980758	 1.556556	 0.558121	 0.434225	 0.205498	 0.178396	 0.288807	 0.155308	 0.927709	 2
1463571536.013	 33	 1.713565	 -1.900515	 1.491928	 0.536963	 0.456639	 0.209927	 0.189960	 0.279826	 0.158106	 0.927693	 2
1463571536.023	 33	 1.678787	 -1.756207	 1.430693	 0.517007	 0.478532	 0.214397	 0.201228	 0.271440	 0.160726	 0.927359	 2
1463571536.033	 33	 1.588595	 -1.593666	 1.367980	 0.498396	 0.499351	 0.219213	 0.211879	 0.263739	 0.163294	 0.926760	 2
1463571536.043	 33	 1.466546	 -1.403327	 1.312196	 0.481269	 0.518801	 0.224527	 0.221737	 0.256803	 0.165904	 0.925938	 2
1463571536.053	 33	 1.335165	 -1.175561	 1.280290	 0.465887	 0.536831	 0.230569	 0.230725	 0.250781	 0.168729	 0.924881	 2
1463571536.063	 33	 1.252745	 -0.985077	 1.260399	 0.452137	 0.553819	 0.237267	 0.239037	 0.245627	 0.171798	 0.923588	 2
1463571536.073	 33	 1.230710	 -0.871499	 1.220083	 0.439519	 0.570242	 0.244127	 0.246995	 0.241062	 0.174895	 0.922114	 2
1463571536.083	 33	 1.269110	 -0.821029	 1.155207	 0.427730	 0.586570	 0.250524	 0.254915	 0.236880	 0.177752	 0.920495	 2
1463571536.093	 33	 1.349684	 -0.871790	 1.081561	 0.416095	 0.603189	 0.256079	 0.263075	 0.232724	 0.180150	 0.918791	 2
1463571536.103	 33	 1.421257	 -1.012998	 0.998626	 0.403728	 0.620151	 0.260670	 0.271584	 0.228166	 0.181914	 0.917109	 2
1463571536.113	 33	 1.429540	 -1.184140	 0.869070	 0.390280	 0.636853	 0.264135	 0.280206	 0.222997	 0.182868	 0.915596	 2
1463571536.123	 33	 1.363018	 -1.338380	 0.693429	 0.376008	 0.652456	 0.266243	 0.288541	 0.217261	 0.182879	 0.914383	 2
1463571536.133	 33	 1.238972	 -1.470118	 0.517432	 0.361143	 0.666347	 0.267032	 0.296270	 0.211033	 0.181966	 0.913552	 2
1463571536.143	 33	 1.064181	 -1.540734	 0.389339	 0.345802	 0.678219	 0.267129	 0.303164	 0.204435	 0.180431	 0.913095	 2
1463571536.163	 34	 0.665675	 -1.459192	 0.179350	 0.315706	 0.695371	 0.266968	 0.313824	 0.191260	 0.176653	 0.913087	 2
1463571536.173	 34	 0.432499	 -1.225551	 0.036479	 0.303503	 0.700291	 0.265849	 0.317282	 0.185686	 0.174460	 0.913464	 2
1463571536.183	 34	 0.168862	 -0.950866	 -0.032207	 0.294095	 0.702478	 0.264705	 0.319217	 0.181284	 0.172543	 0.914038	 2
1463571536.193	 34	 -0.073668	 -0.747324	 -0.076161	 0.286650	 0.702148	 0.263947	 0.319771	 0.177747	 0.170992	 0.914830	 2
1463571536.203	 34	 -0.246179	 -0.630151	 -0.121528	 0.280536	 0.699824	 0.263329	 0.319268	 0.174764	 0.169631	 0.915834	 2
1463571536.213	 34	 -0.293241	 -0.633371	 -0.144595	 0.274736	 0.696646	 0.262607	 0.318344	 0.171872	 0.168242	 0.916958	 2
1463571536.223	 34	 -0.219138	 -0.734852	 -0.174960	 0.268486	 0.693851	 0.261379	 0.317673	 0.168703	 0.166570	 0.918084	 2
1463571536.233	 34	 -0.043029	 -0.904922	 -0.235627	 0.261448	 0.692382	 0.258952	 0.317774	 0.165029	 0.164279	 0.919129	 2
1463571536.243	 34	 0.203351	 -1.094473	 -0.314139	 0.253610	 0.692966	 0.254820	 0.319020	 0.160790	 0.161153	 0.920001	 2
1463571536.263	 35	 0.737178	 -1.225126	 -0.367962	 0.237605	 0.701825	 0.241927	 0.325407	 0.151675	 0.152961	 0.920710	 2
1463571536.273	 35	 0.871709	 -1.085320	 -0.248467	 0.230336	 0.709397	 0.235726	 0.329942	 0.147582	 0.149173	 0.920383	 2
1463571536.283	 35	 0.880015	 -0.830920	 -0.071387	 0.224057	 0.717752	 0.231580	 0.334590	 0.144294	 0.146495	 0.919656	 2
1463571536.293	 35	 0.773167	 -0.544365	 0.093139	 0.218988	 0.725752	 0.229930	 0.338791	 0.141960	 0.145132	 0.918697	 2
1463571536.303	 35	 0.587797	 -0.343065	 0.203203	 0.214812	 0.732352	 0.230437	 0.342117	 0.140354	 0.144851	 0.917755	 2
1463571536.323	 36	 0.250428	 -0.245495	 0.321085	 0.205876	 0.740633	 0.235870	 0.346223	 0.137483	 0.146035	 0.916461	 2
1463571536.333	 36	 0.183167	 -0.275932	 0.350163	 0.200486	 0.743227	 0.239920	 0.347541	 0.135812	 0.147022	 0.916054	 2
1463571536.343	 36	 0.185028	 -0.339704	 0.357013	 0.194376	 0.745703	 0.244177	 0.348849	 0.133849	 0.147966	 0.915694	 2
1463571536.353	 36	 0.214470	 -0.434437	 0.359073	 0.187393	 0.748411	 0.248436	 0.350336	 0.131505	 0.148755	 0.915338	 2
1463571536.373	 37	 0.198917	 -0.592624	 0.392906	 0.170273	 0.754021	 0.257601	 0.353616	 0.125522	 0.150037	 0.914707	 2
1463571536.383	 37	 0.136831	 -0.688745	 0.459696	 0.159794	 0.756259	 0.263237	 0.355088	 0.121829	 0.150789	 0.914513	 2
1463571536.393	 37	 0.085322	 -0.741837	 0.451124	 0.148350	 0.757936	 0.269239	 0.356366	 0.117743	 0.151516	 0.914430	 2
1463571536.403	 37	 0.005329	 -0.730976	 0.449790	 0.136843	 0.758832	 0.275257	 0.357305	 0.113600	 0.152222	 0.914471	 2
1463571536.413	 37	 -0.057377	 -0.726116	 0.507909	 0.124934	 0.759025	 0.282050	 0.357924	 0.109379	 0.153199	 0.914580	 2
1463571536.423	 37	 -0.049933	 -0.776801	 0.561727	 0.112035	 0.759127	 0.289676	 0.358555	 0.104852	 0.154377	 0.914665	 2
1463571536.443	 38	 0.126402	 -0.481773	 0.542687	 0.089192	 0.760963	 0.305039	 0.360403	 0.097278	 0.157287	 0.914280	 2
1463571536.453	 38	 0.306300	 -0.309303	 0.491569	 0.081058	 0.763991	 0.311710	 0.362116	 0.094958	 0.158839	 0.913578	 2
1463571536.463	 38	 0.472090	 -0.155144	 0.403102	 0.075381	 0.768630	 0.317144	 0.364441	 0.093656	 0.160236	 0.912543	 2
1463571536.473	 38	 0.613081	 -0.044607	 0.302721	 0.071903	 0.774664	 0.321101	 0.367301	 0.093197	 0.161325	 0.911251	 2
1463571536.503	 40	 0.340151	 -0.014683	 0.065579	 0.070328	 0.790731	 0.325196	 0.374579	 0.094326	 0.162664	 0.907928	 2
1463571536.513	 40	 0.136840	 -0.108936	 0.039829	 0.069149	 0.792625	 0.325671	 0.375516	 0.094009	 0.162629	 0.907580	 2
1463571536.523	 40	 -0.026040	 -0.225669	 0.010319	 0.067018	 0.792746	 0.325897	 0.375733	 0.093093	 0.162330	 0.907638	 2
