% Gyrometer data recorded with 'snsrlog'
% 
% 
% Label description:
% 	 0: Default Label
% 	 1: still_drop
% 	 2: walk_drop
% 	 3: other
% 	 4: dtw_same
% 	 5: dtw_diff
% 	 6: delete
% 
% Column description:
% 	 1: Seconds.milliseconds since 1970
% 	 2: Number of skipped measurements
% 	 3: Gyro X
% 	 4: Gyro Y
% 	 5: Gyro Z
% 	 6: Roll of the device
% 	 7: Pitch of the device
% 	 8: Yaw of the device
% 	 9: Quaternion X
% 	 10: Quaternion Y
% 	 11: Quaternion Z
% 	 12: Quaternion W
% 	 13: Label used for the current sample
% 
% 
1462096013.125	 0	 0.025402	 0.182842	 -0.755949	 0.175700	 0.334051	 -0.141195	 0.171299	 0.074619	 -0.054739	 0.980863	 2
1462096013.135	 0	 -0.000574	 0.318115	 -0.739543	 0.180992	 0.332773	 -0.148947	 0.171116	 0.076605	 -0.058151	 0.980545	 2
1462096013.145	 0	 -0.016262	 0.598011	 -0.722947	 0.188657	 0.331335	 -0.156500	 0.170937	 0.079781	 -0.061272	 0.980133	 2
1462096013.155	 0	 -0.052968	 0.935502	 -0.692843	 0.199475	 0.329576	 -0.163688	 0.170711	 0.084550	 -0.063965	 0.979601	 2
1462096013.165	 1	 -0.128883	 1.316844	 -0.644937	 0.213767	 0.327183	 -0.170251	 0.170296	 0.091107	 -0.066097	 0.978943	 2
1462096013.185	 1	 -0.458627	 2.059678	 -0.718283	 0.253794	 0.318057	 -0.182220	 0.167804	 0.110149	 -0.069155	 0.977203	 2
1462096013.195	 1	 -0.633746	 2.364582	 -0.837550	 0.278707	 0.310180	 -0.188795	 0.165226	 0.122206	 -0.070863	 0.976086	 2
1462096013.205	 1	 -0.690809	 2.572453	 -0.942761	 0.306169	 0.300991	 -0.195924	 0.162210	 0.135549	 -0.072816	 0.974686	 2
1462096013.215	 1	 -0.609906	 2.625630	 -1.057007	 0.334719	 0.291685	 -0.204025	 0.159334	 0.149361	 -0.075264	 0.972954	 2
1462096013.225	 1	 -0.411042	 2.585822	 -1.185935	 0.363439	 0.283370	 -0.213640	 0.157170	 0.163083	 -0.078436	 0.970850	 2
1462096013.235	 1	 -0.166908	 2.484652	 -1.397891	 0.391919	 0.276325	 -0.225720	 0.155947	 0.176412	 -0.082767	 0.968354	 2
1462096013.245	 1	 0.002398	 2.303330	 -1.545996	 0.419284	 0.270052	 -0.240110	 0.155419	 0.188962	 -0.088265	 0.965582	 2
1462096013.255	 1	 -0.024414	 2.038662	 -1.533305	 0.444231	 0.263551	 -0.254598	 0.154854	 0.200345	 -0.094052	 0.962827	 2
1462096013.265	 1	 -0.222291	 1.699047	 -1.511295	 0.465498	 0.255423	 -0.267918	 0.153375	 0.210173	 -0.099785	 0.960389	 2
1462096013.275	 1	 -0.529999	 1.425291	 -1.545268	 0.483317	 0.244439	 -0.279889	 0.150348	 0.218694	 -0.105534	 0.958348	 2
1462096013.285	 1	 -0.897659	 1.154526	 -1.630913	 0.498099	 0.229797	 -0.290564	 0.145387	 0.226193	 -0.111419	 0.956705	 2
1462096013.295	 1	 -1.259307	 1.014677	 -1.701537	 0.510373	 0.211349	 -0.299874	 0.138413	 0.232956	 -0.117406	 0.955400	 2
1462096013.305	 1	 -1.392041	 1.218729	 -1.777349	 0.523648	 0.190727	 -0.308492	 0.130469	 0.240477	 -0.123371	 0.953902	 2
1462096013.315	 1	 -1.305958	 1.554042	 -1.997723	 0.540118	 0.169366	 -0.318559	 0.122647	 0.249538	 -0.130031	 0.951725	 2
1462096013.325	 1	 -1.055197	 1.893696	 -2.139558	 0.560162	 0.148712	 -0.330875	 0.115816	 0.260149	 -0.137574	 0.948674	 2
1462096013.335	 1	 -0.760486	 2.104927	 -2.079410	 0.582643	 0.130330	 -0.344234	 0.110541	 0.271691	 -0.145277	 0.944912	 2
1462096013.345	 1	 -0.568222	 2.167777	 -1.841768	 0.605771	 0.114606	 -0.356787	 0.106639	 0.283360	 -0.152282	 0.940822	 2
1462096013.355	 1	 -0.585244	 2.180407	 -1.573996	 0.628627	 0.100538	 -0.366891	 0.103310	 0.294875	 -0.157988	 0.936705	 2
1462096013.365	 1	 -0.774476	 2.233945	 -1.454617	 0.651478	 0.085937	 -0.374434	 0.099492	 0.306552	 -0.162669	 0.932559	 2
1462096013.375	 1	 -0.953976	 2.427933	 -1.470432	 0.675620	 0.069768	 -0.380306	 0.094916	 0.319030	 -0.166868	 0.928098	 2
1462096013.385	 1	 -1.059774	 2.783167	 -1.661240	 0.702789	 0.051592	 -0.386061	 0.089776	 0.333057	 -0.171339	 0.922852	 2
1462096013.395	 1	 -1.071163	 3.294039	 -1.912170	 0.734634	 0.031304	 -0.392934	 0.084418	 0.349310	 -0.176649	 0.916325	 2
1462096013.405	 1	 -0.945849	 4.023868	 -2.128149	 0.773004	 0.009906	 -0.401310	 0.079625	 0.368469	 -0.182777	 0.908010	 2
1462096013.415	 1	 -0.626090	 5.028577	 -2.347525	 0.820647	 -0.011522	 -0.412208	 0.076463	 0.391538	 -0.189907	 0.897099	 2
1462096013.425	 1	 -0.104261	 6.077664	 -2.525618	 0.878524	 -0.031800	 -0.426783	 0.075987	 0.418621	 -0.198255	 0.882994	 2
1462096013.445	 2	 1.099078	 7.353894	 -3.079481	 1.016226	 -0.070578	 -0.471193	 0.083524	 0.479990	 -0.220498	 0.844994	 2
1462096013.455	 2	 1.395122	 7.446789	 -3.349767	 1.088294	 -0.092453	 -0.499192	 0.089428	 0.510876	 -0.234291	 0.822262	 2
1462096013.465	 2	 1.333093	 7.359378	 -3.548272	 1.159338	 -0.118135	 -0.526848	 0.094692	 0.540790	 -0.248692	 0.797955	 2
1462096013.475	 2	 1.016189	 6.980059	 -3.622580	 1.227172	 -0.147630	 -0.550597	 0.098072	 0.569002	 -0.262509	 0.773116	 2
1462096013.485	 2	 0.712175	 6.307875	 -3.596346	 1.288997	 -0.179535	 -0.569349	 0.099272	 0.594422	 -0.275296	 0.749012	 2
1462096013.495	 2	 0.542791	 5.648253	 -3.543458	 1.344113	 -0.212519	 -0.584124	 0.098770	 0.616765	 -0.287281	 0.726165	 2
1462096013.505	 2	 0.590610	 5.314695	 -3.467046	 1.394939	 -0.245558	 -0.596952	 0.097730	 0.636865	 -0.298877	 0.703935	 2
1462096013.515	 2	 0.842631	 5.297393	 -3.404390	 1.444456	 -0.278215	 -0.610135	 0.097399	 0.655694	 -0.310621	 0.681244	 2
1462096013.525	 2	 1.242983	 5.268047	 -3.329283	 1.492829	 -0.310346	 -0.625548	 0.098465	 0.673217	 -0.323027	 0.657828	 2
1462096013.535	 2	 1.539287	 4.992513	 -3.364268	 1.537912	 -0.342984	 -0.643101	 0.100193	 0.688825	 -0.336372	 0.634299	 2
1462096013.545	 2	 1.579610	 4.503036	 -3.377700	 1.578199	 -0.376593	 -0.660471	 0.101326	 0.702264	 -0.350074	 0.611561	 2
1462096013.555	 2	 1.429137	 3.731042	 -3.266340	 1.611809	 -0.409925	 -0.675566	 0.101112	 0.713147	 -0.363216	 0.590992	 2
1462096013.565	 2	 1.172129	 2.848085	 -3.245674	 1.637659	 -0.442922	 -0.687200	 0.098759	 0.721408	 -0.375541	 0.573398	 2
1462096013.575	 2	 1.188432	 2.097406	 -3.354048	 1.656095	 -0.476921	 -0.697168	 0.094340	 0.727286	 -0.387999	 0.558223	 2
1462096013.585	 2	 1.388383	 1.211557	 -3.547344	 1.664820	 -0.512966	 -0.708753	 0.088094	 0.730164	 -0.401881	 0.545519	 2
1462096013.595	 2	 1.525305	 0.694503	 -3.657792	 1.666061	 -0.550585	 -0.722053	 0.080488	 0.730790	 -0.416831	 0.534528	 2
1462096013.605	 2	 1.537113	 0.539754	 -3.725412	 1.664060	 -0.588971	 -0.736094	 0.072188	 0.730416	 -0.432057	 0.524031	 2
1462096013.615	 2	 1.546929	 0.606543	 -3.751520	 1.661577	 -0.627685	 -0.750603	 0.063788	 0.729807	 -0.447199	 0.513152	 2
1462096013.625	 2	 1.600177	 0.731500	 -3.659165	 1.659153	 -0.665893	 -0.766257	 0.055934	 0.729086	 -0.462146	 0.501723	 2
1462096013.635	 2	 1.600444	 0.780320	 -3.380549	 1.656295	 -0.701778	 -0.783031	 0.049123	 0.728145	 -0.476384	 0.490358	 2
1462096013.645	 2	 1.499711	 0.759476	 -2.922654	 1.652899	 -0.733421	 -0.799883	 0.043605	 0.727022	 -0.489162	 0.479852	 2
1462096013.655	 2	 1.326626	 0.653819	 -2.309317	 1.648907	 -0.759130	 -0.815830	 0.039592	 0.725766	 -0.499875	 0.470979	 2
1462096013.665	 2	 1.111890	 0.488122	 -1.632230	 1.644300	 -0.777988	 -0.830121	 0.037129	 0.724415	 -0.508220	 0.464282	 2
1462096013.675	 2	 0.865673	 0.258280	 -1.013017	 1.639107	 -0.790200	 -0.842052	 0.035911	 0.722998	 -0.514199	 0.459981	 2
1462096013.685	 2	 0.474172	 -0.164210	 -0.471067	 1.633167	 -0.796564	 -0.849601	 0.034907	 0.721506	 -0.517646	 0.458533	 2
1462096013.695	 2	 0.346752	 -0.565320	 -0.100673	 1.624946	 -0.798616	 -0.854578	 0.033857	 0.719538	 -0.519443	 0.459672	 2
1462096013.705	 2	 0.231274	 -0.883847	 0.222426	 1.613910	 -0.797328	 -0.858678	 0.032909	 0.716919	 -0.520254	 0.462904	 2
1462096013.715	 2	 0.028309	 -1.166225	 0.508255	 1.601989	 -0.792955	 -0.860046	 0.031825	 0.714094	 -0.519690	 0.467952	 2
1462096013.725	 2	 -0.179953	 -1.376813	 0.718064	 1.589815	 -0.786232	 -0.858465	 0.030458	 0.711189	 -0.517863	 0.474447	 2
1462096013.735	 2	 -0.427399	 -1.482344	 0.879101	 1.578672	 -0.777785	 -0.853517	 0.028796	 0.708503	 -0.514786	 0.481861	 2
1462096013.745	 2	 -0.764231	 -1.523879	 1.028723	 1.570059	 -0.767848	 -0.844165	 0.026787	 0.706411	 -0.510207	 0.489851	 2
1462096013.755	 2	 -1.170305	 -1.522806	 1.159094	 1.565009	 -0.756622	 -0.829327	 0.024242	 0.705201	 -0.503846	 0.498240	 2
1462096013.775	 3	 -1.364234	 -1.082491	 1.517647	 1.564871	 -0.729455	 -0.791789	 0.020591	 0.705243	 -0.487523	 0.514325	 2
1462096013.785	 3	 -0.924268	 -0.606077	 1.830518	 1.566846	 -0.712050	 -0.777513	 0.022194	 0.705700	 -0.479330	 0.521285	 2
1462096013.795	 3	 -0.254178	 -0.015211	 2.178686	 1.568879	 -0.691147	 -0.772022	 0.028133	 0.706024	 -0.472410	 0.526847	 2
1462096013.805	 3	 0.082897	 0.383724	 2.472548	 1.571657	 -0.667070	 -0.772371	 0.037413	 0.706356	 -0.466091	 0.531433	 2
1462096013.815	 3	 -0.186188	 0.520082	 2.540105	 1.577198	 -0.641660	 -0.771558	 0.047363	 0.707334	 -0.458946	 0.535541	 2
1462096013.825	 3	 -1.010835	 0.369381	 2.252799	 1.586984	 -0.618079	 -0.762112	 0.054521	 0.709664	 -0.449725	 0.539584	 2
1462096013.835	 3	 -1.726014	 0.123863	 1.695084	 1.599422	 -0.599297	 -0.743491	 0.057226	 0.713121	 -0.439101	 0.543482	 2
1462096013.845	 3	 -2.000661	 -0.045461	 1.262135	 1.612135	 -0.585099	 -0.720444	 0.056682	 0.716947	 -0.428410	 0.547027	 2
1462096013.855	 3	 -1.923980	 0.062646	 1.094082	 1.624778	 -0.572972	 -0.697741	 0.055393	 0.720834	 -0.418300	 0.549869	 2
1462096013.865	 3	 -1.638913	 0.278052	 1.139433	 1.637485	 -0.560779	 -0.678116	 0.055125	 0.724692	 -0.408925	 0.551873	 2
1462096013.875	 3	 -1.162271	 0.574042	 1.227561	 1.649803	 -0.547737	 -0.664015	 0.056958	 0.728316	 -0.400748	 0.552912	 2
1462096013.885	 3	 -0.614310	 0.882149	 1.255498	 1.661806	 -0.534688	 -0.656539	 0.061055	 0.731691	 -0.394330	 0.552634	 2
1462096013.895	 3	 -0.132377	 1.174877	 1.336090	 1.673517	 -0.521406	 -0.655196	 0.067350	 0.734793	 -0.389464	 0.551235	 2
1462096013.905	 3	 0.275970	 1.466855	 1.430104	 1.685598	 -0.507628	 -0.658947	 0.075703	 0.737781	 -0.385746	 0.548769	 2
1462096013.915	 3	 0.675605	 1.999851	 1.462491	 1.699968	 -0.493807	 -0.667488	 0.086235	 0.741131	 -0.383127	 0.544520	 2
1462096013.925	 3	 1.080811	 2.669286	 1.391655	 1.718873	 -0.481194	 -0.680636	 0.098908	 0.745391	 -0.381782	 0.537449	 2
1462096013.935	 3	 1.479730	 3.126113	 1.333816	 1.741035	 -0.470087	 -0.698398	 0.113411	 0.750106	 -0.381758	 0.527959	 2
1462096013.945	 3	 1.821250	 3.367525	 1.321365	 1.764437	 -0.460234	 -0.720219	 0.129274	 0.754648	 -0.382836	 0.516944	 2
1462096013.955	 3	 2.048810	 3.430587	 1.309313	 1.787782	 -0.451452	 -0.744993	 0.145922	 0.758661	 -0.384686	 0.505131	 2
1462096013.965	 3	 2.179592	 3.342865	 1.292437	 1.810036	 -0.443707	 -0.771482	 0.162717	 0.761927	 -0.387031	 0.493151	 2
1462096013.975	 3	 2.230842	 3.127817	 1.285727	 1.830269	 -0.436706	 -0.798825	 0.179247	 0.764275	 -0.389652	 0.481586	 2
1462096013.985	 3	 2.188651	 2.856070	 1.196173	 1.848168	 -0.430749	 -0.825835	 0.194900	 0.765782	 -0.392436	 0.470729	 2
1462096013.995	 3	 1.985742	 2.480285	 1.068683	 1.863590	 -0.425940	 -0.850843	 0.208970	 0.766649	 -0.395111	 0.460942	 2
1462096014.005	 3	 1.625469	 2.006002	 0.935252	 1.876170	 -0.421791	 -0.872041	 0.220831	 0.767062	 -0.397227	 0.452836	 2
1462096014.015	 3	 1.216736	 1.451981	 0.786580	 1.885382	 -0.417946	 -0.888536	 0.230132	 0.767094	 -0.398626	 0.446882	 2
1462096014.025	 3	 0.834523	 0.858577	 0.644771	 1.890633	 -0.414373	 -0.900463	 0.236806	 0.766697	 -0.399484	 0.443296	 2
1462096014.035	 3	 0.475644	 0.260625	 0.471810	 1.891635	 -0.411231	 -0.908119	 0.240864	 0.765846	 -0.400020	 0.442096	 2
1462096014.045	 3	 0.090674	 -0.206478	 0.291767	 1.889356	 -0.408656	 -0.911257	 0.242365	 0.764829	 -0.400139	 0.442927	 2
1462096014.055	 3	 -0.276947	 -0.402301	 0.126887	 1.886133	 -0.406425	 -0.909844	 0.241836	 0.764167	 -0.399479	 0.444949	 2
1462096014.065	 3	 -0.478744	 -0.440914	 0.147468	 1.883514	 -0.403962	 -0.905689	 0.240452	 0.763953	 -0.398055	 0.447337	 2
1462096014.075	 3	 -0.493852	 -0.237999	 0.402074	 1.881948	 -0.399241	 -0.901613	 0.239975	 0.763840	 -0.395768	 0.449810	 2
1462096014.085	 3	 -0.449095	 0.198854	 0.673255	 1.883892	 -0.392071	 -0.898862	 0.241418	 0.764221	 -0.392536	 0.451219	 2
1462096014.095	 3	 -0.325305	 0.676715	 0.911092	 1.889751	 -0.382784	 -0.897993	 0.244954	 0.765139	 -0.388532	 0.451223	 2
1462096014.105	 3	 -0.126180	 1.165168	 1.026874	 1.899496	 -0.372685	 -0.899670	 0.250422	 0.766561	 -0.384317	 0.449415	 2
1462096014.115	 3	 0.093140	 1.531249	 0.997464	 1.912703	 -0.363239	 -0.903504	 0.257145	 0.768492	 -0.380310	 0.445714	 2
1462096014.125	 3	 0.364526	 1.579552	 1.021129	 1.926108	 -0.354748	 -0.910233	 0.264699	 0.770094	 -0.377168	 0.441173	 2
1462096014.135	 3	 0.404887	 1.543235	 1.016177	 1.938995	 -0.346716	 -0.918219	 0.272469	 0.771375	 -0.374446	 0.436500	 2
1462096014.145	 3	 0.196152	 1.209639	 0.983983	 1.949935	 -0.338383	 -0.924608	 0.279308	 0.772368	 -0.371465	 0.432952	 2
1462096014.155	 3	 -0.125662	 0.689975	 0.914806	 1.957133	 -0.329579	 -0.927948	 0.284374	 0.772911	 -0.368138	 0.431527	 2
1462096014.165	 3	 -0.508158	 -0.008337	 0.826378	 1.959007	 -0.320154	 -0.927287	 0.287064	 0.772815	 -0.364465	 0.433031	 2
1462096014.175	 3	 -0.792957	 -0.603587	 0.762570	 1.955596	 -0.310226	 -0.923242	 0.287621	 0.772011	 -0.360629	 0.437286	 2
1462096014.185	 3	 -0.821251	 -0.983944	 0.808302	 1.948063	 -0.299795	 -0.918185	 0.287199	 0.770384	 -0.356971	 0.443393	 2
1462096014.195	 3	 -0.517654	 -0.956471	 0.906096	 1.938879	 -0.289342	 -0.915573	 0.287457	 0.767987	 -0.354069	 0.449667	 2
1462096014.205	 3	 -0.063472	 -0.681595	 1.007012	 1.930757	 -0.279521	 -0.917447	 0.289468	 0.765174	 -0.352250	 0.454574	 2
1462096014.215	 3	 0.466567	 -0.331912	 1.040821	 1.924698	 -0.270931	 -0.924427	 0.293456	 0.762131	 -0.351743	 0.457513	 2
1462096014.225	 3	 1.056541	 -0.081041	 0.966613	 1.920019	 -0.264753	 -0.936815	 0.299059	 0.758740	 -0.353136	 0.458446	 2
1462096014.235	 3	 1.534244	 0.151836	 0.859110	 1.916515	 -0.261349	 -0.953867	 0.305837	 0.755080	 -0.356398	 0.457490	 2
1462096014.255	 3	 0.950638	 0.466975	 0.519686	 1.915999	 -0.256752	 -0.984550	 0.318561	 0.749777	 -0.361894	 0.453195	 2
1462096014.245	 3	 1.478351	 0.333529	 0.811197	 1.914920	 -0.258774	 -0.971708	 0.312987	 0.751737	 -0.359836	 0.455465	 2
1462096014.265	 3	 0.287718	 0.589977	 0.053404	 1.920357	 -0.256610	 -0.989527	 0.321255	 0.749954	 -0.362274	 0.450691	 2
1462096014.275	 3	 0.075064	 0.265807	 -0.440144	 1.924345	 -0.259920	 -0.989178	 0.320937	 0.751199	 -0.362681	 0.448511	 2
1462096014.285	 3	 0.513229	 -0.214502	 -0.788406	 1.922805	 -0.267916	 -0.990274	 0.318868	 0.751375	 -0.365891	 0.447082	 2
1462096014.295	 3	 0.910890	 -0.024633	 -0.845521	 1.920330	 -0.278783	 -0.995441	 0.317352	 0.750937	 -0.371113	 0.444585	 2
1462096014.305	 3	 0.939655	 0.247967	 -0.643938	 1.920463	 -0.288650	 -1.002147	 0.317163	 0.750742	 -0.375898	 0.441015	 2
1462096014.315	 3	 0.921946	 0.401534	 -0.448386	 1.921949	 -0.296465	 -1.009517	 0.318044	 0.750557	 -0.379899	 0.437252	 2
1462096014.325	 3	 0.805007	 0.405857	 -0.339685	 1.924141	 -0.302667	 -1.016499	 0.319363	 0.750441	 -0.383141	 0.433646	 2
1462096014.335	 3	 0.575594	 0.147516	 -0.562836	 1.925027	 -0.309426	 -1.021012	 0.319354	 0.750474	 -0.386223	 0.430852	 2
1462096014.345	 3	 0.311566	 -0.235826	 -1.023448	 1.923514	 -0.319187	 -1.021461	 0.316518	 0.750877	 -0.389797	 0.429020	 2
1462096014.355	 3	 0.082419	 -0.472422	 -1.474472	 1.920283	 -0.332479	 -1.017836	 0.310814	 0.751816	 -0.393918	 0.427781	 2
1462096014.365	 3	 0.003850	 -0.539663	 -1.831444	 1.917166	 -0.348937	 -1.011624	 0.303235	 0.753367	 -0.398485	 0.426258	 2
1462096014.385	 4	 0.151774	 -0.636460	 -2.359053	 1.909596	 -0.390520	 -0.997852	 0.284680	 0.756719	 -0.410257	 0.421928	 2
1462096014.395	 4	 0.166377	 -0.574899	 -2.517406	 1.906441	 -0.414507	 -0.990642	 0.274389	 0.758586	 -0.416947	 0.418824	 2
1462096014.405	 4	 0.075273	 -0.355133	 -2.609421	 1.905885	 -0.439335	 -0.982311	 0.263903	 0.761030	 -0.423275	 0.414761	 2
1462096014.415	 4	 0.022774	 -0.261677	 -2.503649	 1.906900	 -0.463441	 -0.973309	 0.253649	 0.763658	 -0.429009	 0.410415	 2
1462096014.425	 4	 0.177442	 -0.059086	 -2.224947	 1.909136	 -0.485582	 -0.966095	 0.244877	 0.766036	 -0.434323	 0.405694	 2
1462096014.435	 4	 0.365587	 0.172597	 -1.881254	 1.912307	 -0.505217	 -0.962065	 0.238245	 0.767968	 -0.439369	 0.400524	 2
1462096014.445	 4	 0.552452	 0.140444	 -1.546399	 1.914367	 -0.522217	 -0.961256	 0.233372	 0.769100	 -0.444347	 0.395700	 2
1462096014.455	 4	 0.741194	 -0.095528	 -1.302981	 1.913019	 -0.537312	 -0.963497	 0.229466	 0.769085	 -0.449695	 0.391953	 2
1462096014.465	 4	 0.973271	 -0.353475	 -1.139012	 1.907004	 -0.551452	 -0.969071	 0.226042	 0.767729	 -0.455882	 0.389448	 2
1462096014.475	 4	 1.054517	 -0.601092	 -1.078078	 1.897804	 -0.565147	 -0.976567	 0.222705	 0.765529	 -0.462595	 0.387779	 2
1462096014.485	 4	 0.845460	 -0.803629	 -1.078142	 1.886836	 -0.578240	 -0.982832	 0.218599	 0.763120	 -0.469007	 0.387162	 2
1462096014.495	 4	 0.421127	 -0.986027	 -1.028186	 1.876256	 -0.589849	 -0.985121	 0.213453	 0.761180	 -0.474087	 0.387664	 2
1462096014.505	 4	 -0.043448	 -1.359489	 -0.941289	 1.865131	 -0.599234	 -0.982479	 0.206932	 0.759578	 -0.477540	 0.390098	 2
1462096014.515	 4	 -0.416601	 -1.746515	 -0.927787	 1.852700	 -0.607148	 -0.975400	 0.198833	 0.758089	 -0.479754	 0.394465	 2
1462096014.525	 4	 -0.667641	 -2.010751	 -0.946178	 1.838956	 -0.614573	 -0.965129	 0.189336	 0.756564	 -0.481230	 0.400225	 2
1462096014.535	 4	 -0.840842	 -2.075148	 -0.949532	 1.825652	 -0.621652	 -0.952567	 0.179169	 0.755228	 -0.481993	 0.406462	 2
1462096014.545	 4	 -0.896819	 -2.156006	 -0.975375	 1.812432	 -0.628823	 -0.938980	 0.168594	 0.753880	 -0.482448	 0.412897	 2
1462096014.555	 4	 -0.894365	 -2.265983	 -1.032905	 1.797859	 -0.636676	 -0.925305	 0.157431	 0.752144	 -0.483066	 0.419692	 2
1462096014.565	 4	 -0.938801	 -2.006973	 -0.974689	 1.785309	 -0.644419	 -0.911311	 0.146661	 0.750720	 -0.483296	 0.425834	 2
1462096014.575	 4	 -0.950114	 -1.616348	 -0.794039	 1.776642	 -0.650658	 -0.897422	 0.137347	 0.749969	 -0.482732	 0.430874	 2
1462096014.585	 4	 -0.853102	 -1.521026	 -0.663972	 1.769247	 -0.655526	 -0.884709	 0.129222	 0.749296	 -0.481871	 0.435497	 2
1462096014.595	 4	 -0.687703	 -1.551057	 -0.631587	 1.760302	 -0.660312	 -0.874109	 0.121543	 0.748075	 -0.481484	 0.440209	 2
1462096014.605	 4	 -0.585879	 -1.691683	 -0.622059	 1.749212	 -0.665362	 -0.865111	 0.113862	 0.746219	 -0.481589	 0.445269	 2
1462096014.615	 4	 -0.550811	 -1.744779	 -0.596215	 1.737114	 -0.670331	 -0.856787	 0.106214	 0.744032	 -0.481804	 0.450555	 2
1462096014.625	 4	 -0.530962	 -1.831028	 -0.601453	 1.724001	 -0.675384	 -0.848795	 0.098415	 0.741530	 -0.482093	 0.456108	 2
1462096014.635	 4	 -0.534667	 -1.939489	 -0.599233	 1.709766	 -0.680525	 -0.840922	 0.090359	 0.738693	 -0.482402	 0.462012	 2
1462096014.645	 4	 -0.558107	 -1.873973	 -0.667694	 1.695863	 -0.686178	 -0.832781	 0.082110	 0.735875	 -0.482686	 0.467717	 2
1462096014.655	 4	 -0.569789	 -1.832708	 -0.702377	 1.683124	 -0.692366	 -0.824225	 0.073808	 0.733275	 -0.482885	 0.472950	 2
1462096014.665	 4	 -0.533120	 -1.760411	 -0.691366	 1.670399	 -0.698717	 -0.816201	 0.065647	 0.730588	 -0.483168	 0.477996	 2
1462096014.675	 4	 -0.443658	 -1.674702	 -0.569851	 1.657806	 -0.704275	 -0.809346	 0.058211	 0.727821	 -0.483430	 0.482891	 2
1462096014.685	 4	 -0.291860	 -1.443913	 -0.510408	 1.646021	 -0.709197	 -0.804411	 0.051883	 0.725138	 -0.483892	 0.487167	 2
1462096014.695	 4	 -0.074259	 -1.191826	 -0.567508	 1.634856	 -0.714544	 -0.802200	 0.046539	 0.722504	 -0.485064	 0.490443	 2
1462096014.705	 4	 0.159166	 -0.945391	 -0.664232	 1.624322	 -0.721022	 -0.803015	 0.042034	 0.719949	 -0.487224	 0.492463	 2
1462096014.715	 4	 0.425292	 -1.032795	 -0.729172	 1.611621	 -0.727850	 -0.807270	 0.038087	 0.716788	 -0.490327	 0.494312	 2
1462096014.725	 4	 0.531623	 -1.036970	 -0.821792	 1.596776	 -0.735978	 -0.813869	 0.033955	 0.713073	 -0.494336	 0.495989	 2
1462096014.735	 4	 0.480734	 -1.101420	 -0.929591	 1.581609	 -0.745108	 -0.820440	 0.029323	 0.709305	 -0.498535	 0.497483	 2
1462096014.745	 4	 0.313938	 -1.342817	 -0.991133	 1.565516	 -0.754926	 -0.825344	 0.023565	 0.705352	 -0.502427	 0.499490	 2
1462096014.765	 5	 -0.267798	 -1.718686	 -0.843557	 1.533730	 -0.773560	 -0.824806	 0.008720	 0.697616	 -0.507093	 0.506076	 2
1462096014.775	 5	 -0.575854	 -1.579171	 -0.649870	 1.522034	 -0.780776	 -0.818213	 0.000871	 0.694757	 -0.507170	 0.509991	 2
1462096014.785	 5	 -0.810338	 -1.260893	 -0.415728	 1.515877	 -0.785931	 -0.807877	 -0.006129	 0.693229	 -0.505742	 0.513441	 2
1462096014.795	 5	 -0.952600	 -0.873534	 -0.151905	 1.515231	 -0.788627	 -0.794992	 -0.011729	 0.693030	 -0.503064	 0.516235	 2
1462096014.805	 5	 -1.012148	 -0.349402	 0.085827	 1.520423	 -0.788856	 -0.780768	 -0.015443	 0.694277	 -0.499476	 0.517942	 2
1462096014.815	 5	 -0.982727	 0.303831	 0.268566	 1.531890	 -0.787052	 -0.766520	 -0.016899	 0.697126	 -0.495440	 0.517946	 2
1462096014.825	 5	 -0.873520	 0.973249	 0.368697	 1.549111	 -0.783833	 -0.753596	 -0.016019	 0.701474	 -0.491444	 0.515908	 2
1462096014.835	 5	 -0.748009	 1.556857	 0.376232	 1.571073	 -0.780132	 -0.742567	 -0.013213	 0.707053	 -0.487834	 0.511781	 2
1462096014.845	 5	 -0.680757	 2.046695	 0.336508	 1.597080	 -0.776567	 -0.732938	 -0.009056	 0.713647	 -0.484606	 0.505751	 2
1462096014.855	 5	 -0.852480	 2.744923	 0.335975	 1.630058	 -0.772936	 -0.722144	 -0.003706	 0.721932	 -0.481038	 0.497397	 2
1462096014.865	 5	 -1.336521	 3.733485	 0.351520	 1.676367	 -0.768410	 -0.705763	 0.002961	 0.733399	 -0.475777	 0.485544	 2
1462096014.875	 5	 -1.599126	 4.252574	 0.252060	 1.732617	 -0.763543	 -0.684781	 0.010114	 0.747056	 -0.469181	 0.470823	 2
1462096014.885	 5	 -1.371712	 4.114137	 0.174189	 1.787697	 -0.758959	 -0.665518	 0.017188	 0.760115	 -0.462975	 0.455613	 2
1462096014.895	 5	 -0.843108	 3.738172	 0.171417	 1.834182	 -0.755094	 -0.653242	 0.024429	 0.770842	 -0.458543	 0.441524	 2
1462096014.905	 5	 -0.272440	 3.429326	 0.200876	 1.871863	 -0.752104	 -0.648889	 0.032291	 0.779251	 -0.456115	 0.428585	 2
1462096014.915	 5	 0.187670	 3.258668	 0.173967	 1.903531	 -0.750601	 -0.650762	 0.040701	 0.785985	 -0.455447	 0.416100	 2
1462096014.925	 5	 0.442469	 3.204734	 0.173379	 1.931221	 -0.750488	 -0.656820	 0.049434	 0.791531	 -0.456028	 0.403824	 2
1462096014.935	 5	 0.376807	 3.262773	 0.230979	 1.958618	 -0.749882	 -0.663704	 0.058598	 0.796827	 -0.456457	 0.391509	 2
1462096014.945	 5	 -0.098926	 3.422573	 0.367697	 1.990654	 -0.746945	 -0.666080	 0.067705	 0.803100	 -0.454921	 0.378805	 2
1462096014.955	 5	 -0.696346	 3.532061	 0.557229	 2.028464	 -0.739967	 -0.662261	 0.076720	 0.810721	 -0.450473	 0.365952	 2
1462096014.965	 5	 -1.117538	 3.276785	 0.678952	 2.067621	 -0.729419	 -0.654047	 0.085072	 0.818806	 -0.443749	 0.354127	 2
1462096014.975	 5	 -1.335845	 2.700916	 0.674428	 2.103158	 -0.717105	 -0.643538	 0.091916	 0.826336	 -0.435976	 0.344448	 2
1462096014.985	 5	 -1.412021	 2.055562	 0.532669	 2.132992	 -0.704893	 -0.631712	 0.096698	 0.832859	 -0.428140	 0.337180	 2
1462096014.995	 5	 -1.402632	 1.550556	 0.272105	 2.157987	 -0.694349	 -0.618726	 0.099317	 0.838458	 -0.420869	 0.331652	 2
1462096015.005	 5	 -1.411759	 1.261978	 -0.071545	 2.180723	 -0.686301	 -0.603792	 0.099834	 0.843560	 -0.414278	 0.326823	 2
1462096015.015	 5	 -1.501352	 1.083408	 -0.384695	 2.203210	 -0.680260	 -0.586000	 0.098437	 0.848570	 -0.407992	 0.322152	 2
1462096015.025	 5	 -1.656602	 0.915444	 -0.582072	 2.225790	 -0.674900	 -0.565246	 0.095485	 0.853632	 -0.401522	 0.317767	 2
1462096015.035	 5	 -1.812219	 0.755077	 -0.612051	 2.247881	 -0.668771	 -0.542558	 0.091633	 0.858710	 -0.394523	 0.313961	 2
1462096015.045	 5	 -1.918080	 0.633736	 -0.520603	 2.268664	 -0.660986	 -0.519537	 0.087600	 0.863684	 -0.386927	 0.310906	 2
1462096015.055	 5	 -1.950626	 0.610552	 -0.357473	 2.288193	 -0.651403	 -0.497507	 0.083987	 0.868533	 -0.378854	 0.308328	 2
1462096015.065	 5	 -1.862741	 0.661423	 -0.054023	 2.306029	 -0.639878	 -0.478649	 0.081694	 0.873131	 -0.370563	 0.306026	 2
1462096015.075	 5	 -1.638081	 0.650001	 0.368088	 2.320517	 -0.626449	 -0.465254	 0.081432	 0.877148	 -0.362445	 0.304325	 2
1462096015.085	 5	 -1.218797	 0.776875	 0.725846	 2.331581	 -0.612611	 -0.458775	 0.083558	 0.880381	 -0.355308	 0.302826	 2
1462096015.095	 5	 -0.730117	 1.080754	 0.880020	 2.341696	 -0.600532	 -0.458504	 0.087797	 0.883021	 -0.349830	 0.300308	 2
1462096015.105	 5	 -0.245963	 1.483302	 0.851840	 2.353162	 -0.591792	 -0.462689	 0.093485	 0.885324	 -0.346296	 0.295873	 2
1462096015.115	 5	 0.194765	 1.783402	 0.759140	 2.366248	 -0.586909	 -0.470127	 0.100060	 0.887311	 -0.344713	 0.289551	 2
1462096015.125	 5	 0.515981	 1.869983	 0.654836	 2.379556	 -0.585365	 -0.479725	 0.106934	 0.888853	 -0.344750	 0.282230	 2
1462096015.135	 5	 0.711545	 1.801537	 0.534193	 2.392024	 -0.586366	 -0.490163	 0.113525	 0.889926	 -0.345935	 0.274724	 2
1462096015.145	 5	 0.789655	 1.624701	 0.527605	 2.402836	 -0.588535	 -0.501116	 0.119837	 0.890562	 -0.347699	 0.267665	 2
1462096015.155	 5	 0.765563	 1.290606	 0.501259	 2.410550	 -0.590842	 -0.511960	 0.125549	 0.890714	 -0.349629	 0.261964	 2
1462096015.165	 5	 0.713104	 0.934380	 0.344931	 2.415560	 -0.593642	 -0.521327	 0.130040	 0.890519	 -0.351698	 0.257630	 2
1462096015.175	 5	 0.660121	 0.570875	 0.064912	 2.418454	 -0.597752	 -0.527982	 0.132695	 0.890089	 -0.354079	 0.254485	 2
1462096015.185	 5	 0.623993	 0.205870	 -0.268557	 2.419499	 -0.603715	 -0.531369	 0.133199	 0.889463	 -0.356928	 0.252420	 2
1462096015.195	 5	 0.631884	 -0.100788	 -0.605063	 2.419064	 -0.611871	 -0.531636	 0.131613	 0.888650	 -0.360390	 0.251193	 2
1462096015.205	 5	 0.754976	 -0.516492	 -0.825287	 2.415887	 -0.622379	 -0.530269	 0.128328	 0.887365	 -0.364794	 0.251078	 2
1462096015.215	 5	 1.011340	 -1.044587	 -0.943272	 2.407174	 -0.635514	 -0.529573	 0.123769	 0.885064	 -0.370695	 0.252839	 2
1462096015.225	 5	 1.234495	 -1.416921	 -1.009428	 2.393231	 -0.650991	 -0.530435	 0.118376	 0.881734	 -0.378022	 0.256189	 2
1462096015.235	 5	 1.293977	 -1.417602	 -1.079227	 2.377979	 -0.667667	 -0.531850	 0.112618	 0.878028	 -0.385898	 0.259743	 2
1462096015.245	 5	 1.171403	 -1.153519	 -1.086360	 2.365077	 -0.683967	 -0.532661	 0.107015	 0.874643	 -0.393321	 0.262385	 2
1462096015.255	 5	 0.827542	 -0.608275	 -0.985571	 2.358052	 -0.697751	 -0.531757	 0.102282	 0.872333	 -0.399123	 0.263199	 2
1462096015.265	 5	 0.306841	 0.145613	 -0.785382	 2.360030	 -0.706749	 -0.527977	 0.099101	 0.871824	 -0.402142	 0.261502	 2
1462096015.275	 5	 -0.056840	 0.655888	 -0.528079	 2.369045	 -0.711068	 -0.522568	 0.097634	 0.872790	 -0.402733	 0.257897	 2
1462096015.285	 5	 -0.197787	 0.822423	 -0.207705	 2.379911	 -0.711843	 -0.518176	 0.097738	 0.874309	 -0.401953	 0.253899	 2
1462096015.295	 5	 -0.198056	 0.689951	 0.151292	 2.388152	 -0.709987	 -0.516923	 0.099232	 0.875618	 -0.400638	 0.250868	 2
1462096015.305	 5	 -0.201122	 0.413928	 0.514307	 2.391487	 -0.705611	 -0.519222	 0.101814	 0.876409	 -0.398984	 0.249706	 2
1462096015.315	 5	 -0.180616	 0.240293	 0.778953	 2.390869	 -0.699307	 -0.524458	 0.105294	 0.876756	 -0.397112	 0.250028	 2
1462096015.325	 5	 -0.138391	 0.092756	 0.837961	 2.387970	 -0.692485	 -0.531100	 0.109051	 0.876774	 -0.395332	 0.251174	 2
1462096015.335	 5	 -0.079422	 -0.207104	 0.725950	 2.382747	 -0.686571	 -0.537398	 0.112017	 0.876392	 -0.394017	 0.253259	 2
1462096015.345	 5	 0.095080	 -0.644765	 0.578611	 2.373572	 -0.682606	 -0.543512	 0.113722	 0.875286	 -0.393711	 0.256774	 2
1462096015.355	 5	 0.378595	 -1.066635	 0.452852	 2.359359	 -0.681412	 -0.550728	 0.114329	 0.873153	 -0.394976	 0.261778	 2
1462096015.365	 5	 0.624194	 -1.383087	 0.328403	 2.340901	 -0.682845	 -0.559184	 0.114045	 0.870084	 -0.397723	 0.267887	 2
1462096015.375	 5	 0.740146	 -1.593768	 0.216725	 2.319821	 -0.686050	 -0.568083	 0.112988	 0.866411	 -0.401400	 0.274670	 2
1462096015.385	 5	 0.779439	 -1.604778	 0.181111	 2.297919	 -0.689870	 -0.577033	 0.111575	 0.862503	 -0.405378	 0.281618	 2
1462096015.395	 5	 0.838485	 -1.334532	 0.217216	 2.277466	 -0.693726	 -0.586861	 0.110747	 0.858691	 -0.409418	 0.287684	 2
1462096015.405	 5	 0.826883	 -0.870617	 0.237620	 2.260922	 -0.697298	 -0.597185	 0.110930	 0.855401	 -0.413212	 0.291960	 2
1462096015.415	 5	 0.703245	 -0.315654	 0.154337	 2.250618	 -0.700617	 -0.606123	 0.111820	 0.853101	 -0.416368	 0.293857	 2
1462096015.425	 5	 0.539347	 0.196723	 0.195702	 2.246614	 -0.702803	 -0.613491	 0.113600	 0.851908	 -0.418510	 0.293594	 2
1462096015.435	 5	 0.432594	 0.653222	 0.181695	 2.247871	 -0.704189	 -0.619770	 0.116204	 0.851611	 -0.419884	 0.291466	 2
1462096015.445	 5	 0.399511	 1.205531	 0.062429	 2.255518	 -0.705914	 -0.624612	 0.119460	 0.852282	 -0.420789	 0.286845	 2
1462096015.455	 5	 0.617805	 1.206138	 -0.058832	 2.264589	 -0.709648	 -0.629926	 0.122747	 0.852922	 -0.422416	 0.281107	 2
1462096015.465	 5	 0.856565	 0.836190	 -0.229546	 2.269489	 -0.716205	 -0.636608	 0.125075	 0.852612	 -0.425538	 0.276274	 2
1462096015.475	 5	 0.921419	 0.587040	 -0.532974	 2.272317	 -0.725541	 -0.641975	 0.125749	 0.851824	 -0.429638	 0.272018	 2
1462096015.485	 5	 0.930185	 0.548586	 -0.698602	 2.275296	 -0.736670	 -0.645701	 0.125335	 0.850971	 -0.434162	 0.267660	 2
1462096015.495	 5	 0.893337	 0.487563	 -0.768123	 2.278602	 -0.748277	 -0.648447	 0.124468	 0.850147	 -0.438696	 0.263257	 2
1462096015.505	 5	 0.779019	 0.259005	 -0.798030	 2.280919	 -0.759581	 -0.649786	 0.122864	 0.849275	 -0.442976	 0.259631	 2
1462096015.515	 5	 0.653423	 -0.168865	 -0.743367	 2.280243	 -0.769810	 -0.650064	 0.120402	 0.848160	 -0.446885	 0.257725	 2
1462096015.525	 5	 0.599639	 -0.597433	 -0.609403	 2.274834	 -0.778662	 -0.650629	 0.117316	 0.846539	 -0.450583	 0.258038	 2
1462096015.535	 5	 0.720742	 -0.919360	 -0.366197	 2.264064	 -0.786344	 -0.653992	 0.114455	 0.844172	 -0.454493	 0.260212	 2
1462096015.545	 5	 1.042532	 -1.271293	 -0.072794	 2.245743	 -0.793476	 -0.663201	 0.112411	 0.840531	 -0.459363	 0.264306	 2
1462096015.555	 5	 1.378494	 -1.733275	 0.157647	 2.218477	 -0.800621	 -0.678798	 0.110865	 0.835314	 -0.465563	 0.270574	 2
1462096015.565	 5	 1.586907	 -2.204329	 0.259091	 2.183196	 -0.807761	 -0.698865	 0.109114	 0.828693	 -0.472804	 0.278959	 2
1462096015.575	 5	 1.489400	 -2.789662	 0.318439	 2.141443	 -0.813868	 -0.719874	 0.106226	 0.821087	 -0.480165	 0.289784	 2
1462096015.585	 5	 1.017653	 -3.061329	 0.359452	 2.098904	 -0.816851	 -0.736848	 0.102080	 0.813661	 -0.485907	 0.302374	 2
1462096015.595	 5	 0.499583	 -2.939612	 0.360832	 2.061350	 -0.816733	 -0.747340	 0.097209	 0.807350	 -0.489358	 0.315063	 2
1462096015.605	 5	 0.138101	 -2.633455	 0.339118	 2.030403	 -0.814625	 -0.752503	 0.092301	 0.802287	 -0.490964	 0.326756	 2
1462096015.615	 5	 -0.035194	 -2.172172	 0.224489	 2.006277	 -0.812261	 -0.754064	 0.087683	 0.798371	 -0.491546	 0.336597	 2
1462096015.625	 5	 -0.013242	 -1.655656	 0.031938	 1.988476	 -0.811405	 -0.754177	 0.083601	 0.795392	 -0.492053	 0.343869	 2
1462096015.635	 5	 0.121049	 -1.314875	 -0.148306	 1.974231	 -0.812710	 -0.754678	 0.079907	 0.792825	 -0.493136	 0.349085	 2
1462096015.645	 5	 0.269744	 -1.121688	 -0.288483	 1.961341	 -0.815966	 -0.756394	 0.076434	 0.790301	 -0.494967	 0.352972	 2
1462096015.655	 5	 0.374312	 -1.017625	 -0.416317	 1.949003	 -0.820843	 -0.759063	 0.072967	 0.787730	 -0.497424	 0.355987	 2
1462096015.665	 5	 0.432891	 -0.952626	 -0.522798	 1.937070	 -0.827010	 -0.762132	 0.069338	 0.785135	 -0.500304	 0.358401	 2
1462096015.675	 5	 0.509731	 -0.899065	 -0.585849	 1.925158	 -0.834092	 -0.765913	 0.065682	 0.782464	 -0.503555	 0.360373	 2
1462096015.685	 5	 0.607157	 -0.822857	 -0.597712	 1.912882	 -0.841688	 -0.771061	 0.062270	 0.779655	 -0.507179	 0.361980	 2
1462096015.695	 5	 0.712230	 -0.744243	 -0.568054	 1.900082	 -0.849394	 -0.777959	 0.059325	 0.776700	 -0.511126	 0.363274	 2
1462096015.705	 5	 0.805827	 -0.615554	 -0.531435	 1.887072	 -0.857013	 -0.786641	 0.056991	 0.773671	 -0.515334	 0.364164	 2
1462096015.715	 5	 0.875648	 -0.567480	 -0.474045	 1.873584	 -0.864308	 -0.796910	 0.055187	 0.770545	 -0.519708	 0.364854	 2
1462096015.725	 5	 0.937074	 -0.500142	 -0.403612	 1.859401	 -0.871019	 -0.808659	 0.053892	 0.767299	 -0.524164	 0.365512	 2
1462096015.735	 5	 0.979231	 -0.457110	 -0.319384	 1.844748	 -0.877001	 -0.821679	 0.053124	 0.763988	 -0.528625	 0.366138	 2
1462096015.745	 5	 1.015459	 -0.552222	 -0.220403	 1.828785	 -0.882024	 -0.835891	 0.052698	 0.760463	 -0.533044	 0.367128	 2
1462096015.755	 5	 1.005313	 -0.721894	 -0.154750	 1.810337	 -0.886104	 -0.850736	 0.052076	 0.756513	 -0.537368	 0.369067	 2
1462096015.765	 5	 0.960432	 -0.718708	 -0.173513	 1.791809	 -0.889925	 -0.865130	 0.051267	 0.752574	 -0.541528	 0.371149	 2
1462096015.775	 5	 0.896780	 -0.615549	 -0.200775	 1.774953	 -0.893795	 -0.878710	 0.050516	 0.748968	 -0.545493	 0.372737	 2
1462096015.785	 5	 0.813517	 -0.634330	 -0.184238	 1.758910	 -0.897259	 -0.891205	 0.049651	 0.745559	 -0.549115	 0.374365	 2
1462096015.795	 5	 0.762143	 -0.660814	 -0.190432	 1.743247	 -0.900482	 -0.902880	 0.048609	 0.742252	 -0.552500	 0.376089	 2
1462096015.805	 5	 0.746584	 -0.770505	 -0.215830	 1.726978	 -0.903770	 -0.914243	 0.047209	 0.738841	 -0.555843	 0.378052	 2
1462096015.815	 5	 0.719085	 -0.893179	 -0.276415	 1.709602	 -0.907396	 -0.925324	 0.045228	 0.735225	 -0.559222	 0.380354	 2
1462096015.825	 5	 0.613371	 -1.065752	 -0.355966	 1.691774	 -0.911564	 -0.935021	 0.042372	 0.731549	 -0.562450	 0.383002	 2
1462096015.835	 5	 0.442314	 -1.296577	 -0.428031	 1.673623	 -0.916172	 -0.942204	 0.038304	 0.727861	 -0.565266	 0.386298	 2
1462096015.845	 5	 0.239605	 -1.431746	 -0.522377	 1.656441	 -0.921414	 -0.946187	 0.033085	 0.724409	 -0.567537	 0.389921	 2
1462096015.855	 5	 0.066333	 -1.449874	 -0.598837	 1.641052	 -0.927286	 -0.947207	 0.027053	 0.721337	 -0.569281	 0.393523	 2
1462096015.865	 5	 -0.040851	 -1.263935	 -0.668646	 1.628668	 -0.933777	 -0.946164	 0.020898	 0.718863	 -0.570652	 0.396428	 2
1462096015.875	 5	 -0.041518	 -0.921722	 -0.705954	 1.619680	 -0.940743	 -0.944721	 0.015389	 0.717048	 -0.571962	 0.398076	 2
1462096015.885	 5	 0.063922	 -0.510447	 -0.710506	 1.613548	 -0.947844	 -0.944705	 0.011151	 0.715782	 -0.573528	 0.398244	 2
1462096015.895	 5	 0.238499	 -0.133533	 -0.731965	 1.609038	 -0.955185	 -0.947528	 0.008301	 0.714822	 -0.575675	 0.396937	 2
1462096015.905	 5	 0.421780	 0.070892	 -0.775355	 1.604352	 -0.962913	 -0.953619	 0.006421	 0.713820	 -0.578526	 0.394623	 2
1462096015.915	 5	 0.542101	 0.076380	 -0.849889	 1.598032	 -0.971418	 -0.962342	 0.004717	 0.712502	 -0.582022	 0.391879	 2
1462096015.925	 5	 0.490431	 -0.233075	 -0.862977	 1.589614	 -0.980197	 -0.971156	 0.002313	 0.710798	 -0.585546	 0.389739	 2
1462096015.935	 5	 0.293677	 -0.891933	 -0.716056	 1.576990	 -0.987857	 -0.977281	 -0.001918	 0.708309	 -0.588269	 0.390173	 2
1462096015.945	 5	 0.033263	 -1.009319	 -0.581661	 1.565439	 -0.993989	 -0.979136	 -0.006831	 0.706040	 -0.589806	 0.391905	 2
1462096015.955	 5	 -0.238919	 -0.690505	 -0.435644	 1.559488	 -0.998768	 -0.976400	 -0.011245	 0.704849	 -0.590166	 0.393401	 2
1462096015.965	 5	 -0.578260	 -0.213362	 -0.190584	 1.564014	 -1.001414	 -0.967229	 -0.014083	 0.705672	 -0.588903	 0.393728	 2
1462096015.975	 5	 -0.873680	 -0.139571	 0.038616	 1.575331	 -1.001516	 -0.952319	 -0.016063	 0.707788	 -0.586071	 0.394079	 2
1462096015.985	 5	 -1.163252	 -0.107930	 0.177850	 1.590841	 -0.999967	 -0.932250	 -0.018106	 0.710695	 -0.581933	 0.394891	 2
1462096015.995	 5	 -1.552522	 0.459404	 0.373026	 1.615991	 -0.996276	 -0.905672	 -0.019009	 0.715482	 -0.576148	 0.394686	 2
1462096016.005	 5	 -1.870396	 1.197000	 0.608599	 1.653266	 -0.989714	 -0.873392	 -0.017674	 0.722701	 -0.568699	 0.392393	 2
1462096016.015	 5	 -1.954940	 1.919512	 0.765265	 1.698660	 -0.980340	 -0.839754	 -0.013895	 0.731644	 -0.560316	 0.388007	 2
1462096016.025	 5	 -1.922754	 2.638380	 0.759951	 1.749855	 -0.969761	 -0.807732	 -0.007916	 0.741819	 -0.551832	 0.380950	 2
1462096016.035	 5	 -1.920494	 3.431067	 0.655403	 1.806804	 -0.959177	 -0.777479	 -0.000167	 0.753080	 -0.543498	 0.370782	 2
1462096016.045	 5	 -1.818282	 4.143718	 0.554568	 1.869947	 -0.948718	 -0.748962	 0.009363	 0.765362	 -0.535275	 0.357230	 2
1462096016.055	 5	 -1.282302	 4.450364	 0.522913	 1.930462	 -0.939061	 -0.728587	 0.020578	 0.776853	 -0.528459	 0.341770	 2
1462096016.065	 5	 -0.564994	 4.484427	 0.523379	 1.981789	 -0.931525	 -0.720403	 0.033144	 0.786181	 -0.524131	 0.325742	 2
1462096016.075	 5	 -0.049405	 4.437841	 0.614375	 2.025012	 -0.925535	 -0.722058	 0.046847	 0.793562	 -0.521673	 0.309711	 2
1462096016.085	 5	 0.141358	 4.221694	 0.805737	 2.062007	 -0.919382	 -0.729476	 0.061194	 0.799532	 -0.519851	 0.294547	 2
1462096016.095	 5	 -0.104458	 3.719978	 1.041940	 2.094595	 -0.910729	 -0.737106	 0.075130	 0.804799	 -0.517064	 0.281602	 2
1462096016.105	 5	 -0.701538	 2.985064	 1.245992	 2.124405	 -0.897657	 -0.739603	 0.087409	 0.810093	 -0.511937	 0.272083	 2
1462096016.115	 5	 -1.326019	 2.162452	 1.371665	 2.151406	 -0.879980	 -0.735331	 0.097313	 0.815649	 -0.504248	 0.266421	 2
1462096016.125	 5	 -1.730666	 1.406678	 1.417180	 2.174099	 -0.859097	 -0.726369	 0.104860	 0.821148	 -0.494844	 0.264292	 2
1462096016.135	 5	 -1.907452	 0.826291	 1.393069	 2.191932	 -0.836834	 -0.715377	 0.110511	 0.826251	 -0.484750	 0.264791	 2
1462096016.145	 5	 -1.940649	 0.601744	 1.362493	 2.206449	 -0.814418	 -0.704079	 0.115074	 0.830954	 -0.474562	 0.266578	 2
1462096016.155	 5	 -1.926203	 0.533316	 1.319100	 2.219724	 -0.792149	 -0.693362	 0.119369	 0.835444	 -0.464407	 0.268532	 2
1462096016.165	 5	 -1.938737	 0.443331	 1.225651	 2.232014	 -0.770463	 -0.682469	 0.123052	 0.839754	 -0.454343	 0.270637	 2
1462096016.175	 5	 -1.955052	 0.458639	 1.130016	 2.244247	 -0.749331	 -0.671184	 0.126261	 0.844022	 -0.444288	 0.272568	 2
1462096016.185	 5	 -1.934960	 0.485662	 1.051227	 2.256684	 -0.728792	 -0.659868	 0.129199	 0.848260	 -0.434302	 0.274125	 2
1462096016.195	 5	 -1.924292	 0.548894	 0.974987	 2.269346	 -0.708785	 -0.648580	 0.131912	 0.852472	 -0.424380	 0.275305	 2
1462096016.205	 5	 -1.792469	 0.780463	 0.840642	 2.283442	 -0.690174	 -0.637738	 0.134629	 0.856723	 -0.414841	 0.275333	 2
1462096016.215	 5	 -1.508789	 1.073325	 0.713006	 2.299195	 -0.674176	 -0.628675	 0.137685	 0.860850	 -0.406342	 0.273616	 2
1462096016.225	 5	 -1.192904	 1.305278	 0.706020	 2.315449	 -0.660433	 -0.622672	 0.141504	 0.864628	 -0.399024	 0.270508	 2
1462096016.235	 5	 -0.910565	 1.422602	 0.718508	 2.331157	 -0.648532	 -0.619862	 0.146067	 0.867925	 -0.392828	 0.266565	 2
1462096016.245	 5	 -0.690633	 1.468529	 0.687179	 2.346143	 -0.638363	 -0.619246	 0.150969	 0.870786	 -0.387596	 0.262123	 2
1462096016.255	 5	 -0.553482	 1.403926	 0.634227	 2.360093	 -0.629666	 -0.619781	 0.155784	 0.873266	 -0.383121	 0.257596	 2
1462096016.265	 5	 -0.463541	 1.292600	 0.572725	 2.372716	 -0.622090	 -0.620778	 0.160252	 0.875412	 -0.379208	 0.253326	 2
1462096016.275	 5	 -0.371468	 1.178100	 0.514373	 2.384012	 -0.615576	 -0.622108	 0.164349	 0.877247	 -0.375830	 0.249357	 2
1462096016.285	 5	 -0.242052	 1.060313	 0.457796	 2.393817	 -0.610343	 -0.624014	 0.168119	 0.878720	 -0.373132	 0.245683	 2
1462096016.295	 5	 -0.110718	 0.904166	 0.392320	 2.401850	 -0.606527	 -0.626515	 0.171506	 0.879791	 -0.371205	 0.242406	 2
1462096016.305	 5	 -0.007414	 0.715952	 0.293750	 2.408000	 -0.604133	 -0.629152	 0.174301	 0.880493	 -0.370017	 0.239662	 2
1462096016.315	 5	 0.076423	 0.511509	 0.149372	 2.412398	 -0.603299	 -0.631299	 0.176230	 0.880896	 -0.369548	 0.237486	 2
1462096016.325	 5	 0.149638	 0.332495	 -0.012796	 2.415402	 -0.604095	 -0.632620	 0.177204	 0.881072	 -0.369763	 0.235768	 2
1462096016.335	 5	 0.218803	 0.195014	 -0.169213	 2.417428	 -0.606479	 -0.633052	 0.177283	 0.881081	 -0.370606	 0.234345	 2
1462096016.345	 5	 0.292447	 0.093756	 -0.315740	 2.418796	 -0.610371	 -0.632705	 0.176590	 0.880958	 -0.372031	 0.233070	 2
1462096016.355	 5	 0.390901	 0.046686	 -0.459848	 2.419883	 -0.615914	 -0.631761	 0.175247	 0.880714	 -0.374083	 0.231718	 2
1462096016.365	 5	 0.529293	 0.048828	 -0.548425	 2.420878	 -0.623125	 -0.630838	 0.173556	 0.880308	 -0.376823	 0.230088	 2
1462096016.375	 5	 0.709342	 0.044587	 -0.620373	 2.421510	 -0.632064	 -0.630650	 0.171768	 0.879634	 -0.380379	 0.228148	 2
1462096016.385	 5	 0.882174	 -0.117173	 -0.709709	 2.420468	 -0.642936	 -0.631187	 0.169580	 0.878519	 -0.384935	 0.226434	 2
1462096016.395	 5	 0.920395	 -0.302009	 -0.808746	 2.417716	 -0.655045	 -0.631426	 0.166663	 0.877101	 -0.390084	 0.225280	 2
1462096016.405	 5	 0.815560	 -0.330631	 -0.837941	 2.414835	 -0.666948	 -0.630631	 0.163290	 0.875746	 -0.395023	 0.224415	 2
1462096016.415	 5	 0.589229	 -0.165806	 -0.787543	 2.414017	 -0.677150	 -0.628510	 0.160084	 0.874861	 -0.398947	 0.223231	 2
1462096016.425	 5	 0.298267	 0.029584	 -0.655300	 2.416089	 -0.684567	 -0.624989	 0.157420	 0.874653	 -0.401363	 0.221604	 2
1462096016.435	 5	 0.018070	 0.128096	 -0.384438	 2.419571	 -0.688244	 -0.621278	 0.155736	 0.874965	 -0.402155	 0.220121	 2
1462096016.445	 5	 -0.159342	 0.019354	 -0.051387	 2.421704	 -0.688197	 -0.618900	 0.155134	 0.875389	 -0.401709	 0.219675	 2
1462096016.455	 5	 -0.146569	 -0.236985	 0.245595	 2.419793	 -0.685837	 -0.619211	 0.155373	 0.875389	 -0.400944	 0.220899	 2
1462096016.465	 5	 -0.017077	 -0.367459	 0.492642	 2.413915	 -0.682566	 -0.622989	 0.156525	 0.874764	 -0.400509	 0.223340	 2
1462096016.475	 5	 0.091581	 -0.315575	 0.650978	 2.406496	 -0.678954	 -0.629464	 0.158623	 0.873768	 -0.400375	 0.225981	 2
1462096016.485	 5	 0.145762	 -0.226717	 0.752580	 2.398937	 -0.675027	 -0.637571	 0.161474	 0.872630	 -0.400334	 0.228420	 2
1462096016.495	 5	 0.195778	 -0.258754	 0.755044	 2.391122	 -0.671198	 -0.646283	 0.164519	 0.871374	 -0.400447	 0.230833	 2
1462096016.505	 5	 0.277843	 -0.462534	 0.701276	 2.381595	 -0.668159	 -0.655161	 0.167124	 0.869802	 -0.401063	 0.233802	 2
1462096016.515	 5	 0.385263	 -0.712199	 0.637269	 2.369404	 -0.666185	 -0.664305	 0.169074	 0.867767	 -0.402386	 0.237655	 2
1462096016.525	 5	 0.563641	 -0.811381	 0.526086	 2.355438	 -0.665930	 -0.673950	 0.170491	 0.865296	 -0.404627	 0.241812	 2
1462096016.535	 5	 0.752612	 -0.665209	 0.372331	 2.342038	 -0.667985	 -0.684043	 0.171673	 0.862633	 -0.407804	 0.245130	 2
1462096016.545	 5	 0.785398	 -0.448788	 0.309048	 2.330826	 -0.671184	 -0.694074	 0.172977	 0.860133	 -0.411243	 0.247242	 2
1462096016.555	 5	 0.648643	 -0.315979	 0.380749	 2.321415	 -0.673290	 -0.703622	 0.174657	 0.857972	 -0.414056	 0.248872	 2
1462096016.565	 5	 0.519159	 -0.125556	 0.333557	 2.314404	 -0.674336	 -0.711945	 0.176529	 0.856287	 -0.416109	 0.249928	 2
1462096016.575	 5	 0.367918	 0.303209	 0.436914	 2.311933	 -0.674101	 -0.719304	 0.179217	 0.855341	 -0.417158	 0.249502	 2
1462096016.585	 5	 0.362332	 0.471318	 0.442790	 2.311775	 -0.673133	 -0.726457	 0.182466	 0.854747	 -0.417694	 0.248285	 2
1462096016.595	 5	 0.577116	 0.854869	 0.326189	 2.314157	 -0.673936	 -0.734457	 0.186196	 0.854245	 -0.418767	 0.245421	 2
1462096016.605	 5	 0.864125	 1.506309	 0.072904	 2.322130	 -0.678227	 -0.743130	 0.190583	 0.854078	 -0.420694	 0.239260	 2
1462096016.615	 5	 1.151156	 1.780626	 -0.263824	 2.334328	 -0.686970	 -0.751761	 0.194836	 0.854022	 -0.423843	 0.230309	 2
1462096016.625	 5	 1.189517	 1.429778	 -0.668149	 2.345807	 -0.699324	 -0.757815	 0.197048	 0.853765	 -0.428073	 0.221386	 2
1462096016.635	 5	 1.187599	 0.848782	 -0.998596	 2.354270	 -0.714252	 -0.760312	 0.196544	 0.853226	 -0.433145	 0.213919	 2
1462096016.645	 5	 1.126600	 0.235448	 -1.118875	 2.357821	 -0.730218	 -0.760795	 0.193903	 0.852196	 -0.438855	 0.208736	 2
1462096016.655	 5	 0.869099	 -0.311306	 -1.084419	 2.357048	 -0.744638	 -0.759259	 0.189801	 0.850986	 -0.444173	 0.206176	 2
1462096016.665	 5	 0.586341	 -0.868943	 -0.947531	 2.351968	 -0.756234	 -0.756052	 0.184656	 0.849704	 -0.448646	 0.206452	 2
1462096016.675	 5	 0.455663	 -1.388077	 -0.719954	 2.341301	 -0.765140	 -0.753160	 0.178976	 0.848030	 -0.452623	 0.209632	 2
1462096016.685	 5	 0.536180	 -1.745800	 -0.442622	 2.324550	 -0.772335	 -0.753303	 0.173551	 0.845568	 -0.456771	 0.215071	 2
1462096016.695	 5	 0.719505	 -2.020918	 -0.172877	 2.301755	 -0.778639	 -0.757968	 0.168792	 0.842096	 -0.461537	 0.222186	 2
1462096016.705	 5	 0.823750	 -2.265425	 0.032829	 2.273747	 -0.784041	 -0.766432	 0.164538	 0.837735	 -0.466782	 0.230743	 2
1462096016.715	 5	 0.728106	 -2.492016	 0.134932	 2.242720	 -0.788015	 -0.775847	 0.160205	 0.832972	 -0.471826	 0.240568	 2
1462096016.725	 5	 0.412530	 -2.680174	 0.167902	 2.211306	 -0.789805	 -0.782926	 0.155248	 0.828402	 -0.475802	 0.251516	 2
1462096016.735	 5	 0.049312	 -2.738854	 0.142809	 2.182014	 -0.789360	 -0.785716	 0.149530	 0.824456	 -0.478239	 0.263061	 2
1462096016.745	 5	 -0.121362	 -2.672843	 0.083095	 2.155308	 -0.788030	 -0.785386	 0.143350	 0.820990	 -0.479694	 0.274444	 2
1462096016.755	 5	 -0.125309	 -2.552036	 0.020307	 2.130339	 -0.786977	 -0.784137	 0.137125	 0.817659	 -0.480913	 0.285226	 2
1462096016.765	 5	 -0.065228	 -2.391348	 -0.090625	 2.107031	 -0.787071	 -0.782683	 0.130893	 0.814368	 -0.482295	 0.295063	 2
1462096016.775	 5	 0.013100	 -2.196778	 -0.215257	 2.085554	 -0.788615	 -0.781289	 0.124712	 0.811140	 -0.483974	 0.303756	 2
1462096016.785	 5	 0.093748	 -1.977627	 -0.322628	 2.066036	 -0.791578	 -0.780163	 0.118694	 0.808019	 -0.485967	 0.311213	 2
1462096016.795	 5	 0.173282	 -1.785973	 -0.408929	 2.048134	 -0.795700	 -0.779515	 0.112906	 0.804984	 -0.488252	 0.317591	 2
1462096016.805	 5	 0.266749	 -1.620613	 -0.448703	 2.031435	 -0.800781	 -0.779748	 0.107458	 0.801984	 -0.490858	 0.323007	 2
1462096016.815	 5	 0.351429	 -1.511570	 -0.484662	 2.015057	 -0.806486	 -0.781056	 0.102303	 0.798906	 -0.493762	 0.327846	 2
1462096016.825	 5	 0.425322	 -1.436448	 -0.509119	 1.998941	 -0.812797	 -0.783311	 0.097370	 0.795759	 -0.496946	 0.332162	 2
1462096016.835	 5	 0.501153	 -1.422848	 -0.509652	 1.982131	 -0.819397	 -0.786713	 0.092586	 0.792404	 -0.500388	 0.336358	 2
1462096016.845	 5	 0.571669	 -1.400760	 -0.515390	 1.964754	 -0.826300	 -0.791234	 0.087956	 0.788867	 -0.504081	 0.340375	 2
1462096016.855	 5	 0.633716	 -1.372196	 -0.511401	 1.946823	 -0.833368	 -0.796871	 0.083514	 0.785165	 -0.507980	 0.344234	 2
1462096016.865	 5	 0.716182	 -1.300197	 -0.523172	 1.928578	 -0.840759	 -0.803734	 0.079305	 0.781334	 -0.512142	 0.347761	 2
1462096016.875	 5	 0.773838	 -1.326676	 -0.484488	 1.909304	 -0.847986	 -0.811971	 0.075343	 0.777276	 -0.516475	 0.351311	 2
1462096016.885	 5	 0.814440	 -1.287689	 -0.518583	 1.889373	 -0.855374	 -0.821054	 0.071404	 0.773063	 -0.520968	 0.354778	 2
1462096016.895	 5	 0.849875	 -1.193545	 -0.575566	 1.869904	 -0.863262	 -0.830697	 0.067558	 0.768894	 -0.525625	 0.357711	 2
1462096016.905	 5	 0.889806	 -1.114821	 -0.557064	 1.850491	 -0.871211	 -0.841272	 0.063973	 0.764713	 -0.530399	 0.360276	 2
1462096016.915	 5	 0.902084	 -1.025300	 -0.527562	 1.831357	 -0.878757	 -0.852567	 0.060775	 0.760593	 -0.535119	 0.362564	 2
1462096016.925	 5	 0.910801	 -1.006017	 -0.505076	 1.812235	 -0.885749	 -0.864374	 0.057861	 0.756500	 -0.539723	 0.364772	 2
1462096016.935	 5	 0.915818	 -1.101516	 -0.471904	 1.791663	 -0.892488	 -0.876724	 0.054752	 0.752153	 -0.544346	 0.367363	 2
1462096016.945	 5	 0.948740	 -0.856376	 -0.534921	 1.772117	 -0.899456	 -0.889711	 0.051993	 0.747990	 -0.549061	 0.369242	 2
1462096016.955	 5	 0.930301	 -0.677769	 -0.553348	 1.754763	 -0.906710	 -0.902904	 0.049731	 0.744245	 -0.553775	 0.370080	 2
1462096016.965	 5	 0.848193	 -0.675291	 -0.538747	 1.739699	 -0.912529	 -0.914135	 0.047778	 0.741036	 -0.557664	 0.370936	 2
1462096016.975	 5	 0.785267	 -0.668713	 -0.537072	 1.723848	 -0.919101	 -0.925672	 0.045404	 0.737681	 -0.561769	 0.371727	 2
1462096016.985	 5	 0.738520	 -0.597546	 -0.569041	 1.708929	 -0.925708	 -0.936594	 0.042991	 0.734539	 -0.565699	 0.372275	 2
1462096016.995	 5	 0.690701	 -0.515840	 -0.614758	 1.695249	 -0.932605	 -0.946935	 0.040561	 0.731663	 -0.569514	 0.372396	 2
1462096017.005	 5	 0.633453	 -0.398973	 -0.656866	 1.684968	 -0.939506	 -0.955091	 0.038254	 0.729489	 -0.572809	 0.371849	 2
1462096017.015	 5	 0.569148	 -0.232846	 -0.654761	 1.675153	 -0.946678	 -0.963789	 0.036151	 0.727413	 -0.576215	 0.370863	 2
1462096017.025	 5	 0.501917	 -0.022976	 -0.635170	 1.668070	 -0.953566	 -0.971546	 0.034562	 0.725887	 -0.579295	 0.369204	 2
1462096017.035	 5	 0.478415	 0.184613	 -0.619179	 1.663435	 -0.960199	 -0.978824	 0.033576	 0.724839	 -0.582157	 0.366843	 2
1462096017.045	 5	 0.539601	 0.271550	 -0.632757	 1.659194	 -0.966895	 -0.987111	 0.033035	 0.723861	 -0.585179	 0.364005	 2
1462096017.055	 5	 0.618147	 0.192517	 -0.645900	 1.653552	 -0.973762	 -0.996708	 0.032483	 0.722621	 -0.588464	 0.361212	 2
1462096017.065	 5	 0.632255	 -0.151574	 -0.715302	 1.644480	 -0.981217	 -1.007068	 0.030967	 0.720768	 -0.592023	 0.359225	 2
1462096017.075	 5	 0.527207	 -0.942469	 -0.698300	 1.629771	 -0.988740	 -1.016300	 0.027311	 0.717952	 -0.595424	 0.359540	 2
1462096017.085	 5	 0.405369	 -1.437710	 -0.692255	 1.610146	 -0.995781	 -1.023562	 0.021598	 0.714305	 -0.598368	 0.362296	 2
1462096017.095	 5	 0.309024	 -1.422155	 -0.786125	 1.590855	 -1.003497	 -1.029322	 0.015159	 0.710746	 -0.601077	 0.365127	 2
1462096017.105	 5	 0.156262	 -1.227082	 -0.788308	 1.575010	 -1.011476	 -1.032872	 0.008836	 0.707842	 -0.603317	 0.367274	 2
1462096017.115	 5	 -0.036284	 -0.952467	 -0.691355	 1.564625	 -1.018687	 -1.033121	 0.003237	 0.705954	 -0.604719	 0.368692	 2
1462096017.125	 5	 -0.233008	 -0.704036	 -0.540255	 1.559847	 -1.024499	 -1.029705	 -0.001473	 0.705091	 -0.605146	 0.369653	 2
1462096017.135	 5	 -0.453863	 -0.634933	 -0.341592	 1.559976	 -1.028512	 -1.022184	 -0.005507	 0.705108	 -0.604481	 0.370668	 2
1462096017.145	 5	 -0.745380	 -0.595563	 -0.163903	 1.565028	 -1.030572	 -1.009176	 -0.009302	 0.705996	 -0.602461	 0.372189	 2
1462096017.155	 5	 -1.000395	 -0.456780	 -0.049552	 1.575779	 -1.031369	 -0.990863	 -0.012827	 0.707895	 -0.599254	 0.373651	 2
1462096017.165	 5	 -1.183914	 -0.113814	 0.089524	 1.592631	 -1.030674	 -0.968686	 -0.015417	 0.710898	 -0.595091	 0.374503	 2
1462096017.175	 5	 -1.316474	 0.391797	 0.237129	 1.616455	 -1.028241	 -0.943892	 -0.016346	 0.715204	 -0.590156	 0.374076	 2
1462096017.185	 5	 -1.456130	 1.009886	 0.345344	 1.648012	 -1.024164	 -0.916936	 -0.015342	 0.720981	 -0.584530	 0.371855	 2
1462096017.195	 5	 -1.641042	 1.786374	 0.424520	 1.689080	 -1.018563	 -0.887340	 -0.012212	 0.728563	 -0.578116	 0.367191	 2
1462096017.205	 5	 -1.824704	 2.641223	 0.456454	 1.740683	 -1.011555	 -0.855138	 -0.006836	 0.738108	 -0.570881	 0.359507	 2
1462096017.215	 5	 -1.864670	 3.506576	 0.381725	 1.801178	 -1.003850	 -0.822414	 0.000686	 0.749212	 -0.563274	 0.348431	 2
1462096017.225	 5	 -1.872051	 4.619449	 0.425184	 1.871111	 -0.995043	 -0.790834	 0.011131	 0.761845	 -0.555362	 0.333227	 2
1462096017.235	 5	 -1.461472	 5.403704	 0.496050	 1.944418	 -0.985223	 -0.766059	 0.024868	 0.774753	 -0.547940	 0.314485	 2
1462096017.245	 5	 -0.677726	 5.732986	 0.752336	 2.009093	 -0.975593	 -0.756353	 0.041588	 0.785650	 -0.542557	 0.294376	 2
1462096017.255	 5	 0.036796	 5.876253	 0.996836	 2.063036	 -0.966601	 -0.761862	 0.060954	 0.794057	 -0.539221	 0.273858	 2
1462096017.265	 5	 0.452710	 5.714240	 1.117467	 2.108531	 -0.958937	 -0.776878	 0.081345	 0.800301	 -0.537199	 0.253611	 2
1462096017.275	 5	 0.609881	 5.228541	 1.232010	 2.146107	 -0.951837	 -0.796461	 0.101243	 0.804729	 -0.535634	 0.235068	 2
1462096017.285	 5	 0.584628	 4.552796	 1.319729	 2.176430	 -0.944378	 -0.817483	 0.119854	 0.807778	 -0.533967	 0.219109	 2
1462096017.295	 5	 0.400696	 3.586360	 1.298483	 2.199363	 -0.936321	 -0.836651	 0.135878	 0.809817	 -0.531957	 0.206775	 2
1462096017.305	 5	 -0.137000	 2.571488	 1.202065	 2.217219	 -0.926699	 -0.849482	 0.148369	 0.811684	 -0.528883	 0.198591	 2
1462096017.315	 5	 -1.238091	 1.629045	 1.038755	 2.237025	 -0.912278	 -0.848055	 0.156777	 0.815181	 -0.522530	 0.194586	 2
1462096017.325	 5	 -2.127279	 0.679868	 0.765895	 2.258554	 -0.893611	 -0.832223	 0.160689	 0.820405	 -0.513083	 0.194577	 2
1462096017.335	 5	 -2.584699	 -0.146052	 0.504278	 2.277856	 -0.873281	 -0.807848	 0.160688	 0.826319	 -0.502237	 0.197823	 2
1462096017.345	 5	 -2.796021	 -0.699624	 0.350694	 2.293410	 -0.852334	 -0.779726	 0.158071	 0.832269	 -0.490896	 0.203378	 2
1462096017.355	 5	 -2.911479	 -0.938854	 0.315369	 2.306134	 -0.830728	 -0.750631	 0.154248	 0.838089	 -0.479218	 0.210154	 2
1462096017.365	 5	 -2.957319	 -0.939688	 0.328550	 2.317589	 -0.808426	 -0.721944	 0.150206	 0.843806	 -0.467192	 0.217164	 2
1462096017.375	 5	 -2.923472	 -0.809750	 0.366766	 2.328546	 -0.785764	 -0.694716	 0.146504	 0.849377	 -0.454999	 0.223767	 2
1462096017.385	 5	 -2.782476	 -0.599199	 0.417588	 2.339321	 -0.763272	 -0.670155	 0.143622	 0.854691	 -0.442969	 0.229468	 2
1462096017.395	 5	 -2.541184	 -0.513234	 0.342750	 2.349072	 -0.742427	 -0.648129	 0.141018	 0.859512	 -0.431750	 0.234404	 2
1462096017.405	 5	 -2.190067	 -0.466776	 0.291100	 2.356917	 -0.724246	 -0.629173	 0.138566	 0.863598	 -0.421914	 0.238719	 2
1462096017.415	 5	 -1.810549	 -0.324307	 0.290187	 2.363197	 -0.708705	 -0.614111	 0.136771	 0.866941	 -0.413581	 0.242193	 2
1462096017.425	 5	 -1.536698	 -0.215305	 0.325053	 2.368346	 -0.695099	 -0.602402	 0.135697	 0.869708	 -0.406427	 0.244973	 2
1462096017.435	 5	 -1.308553	 -0.063658	 0.355384	 2.373064	 -0.682857	 -0.593298	 0.135318	 0.872097	 -0.400115	 0.247070	 2
1462096017.445	 5	 -1.061059	 0.127203	 0.374189	 2.377992	 -0.672214	 -0.586705	 0.135691	 0.874178	 -0.394703	 0.248214	 2
1462096017.455	 5	 -0.832775	 0.292809	 0.422768	 2.382979	 -0.662944	 -0.582678	 0.136871	 0.875953	 -0.390131	 0.248534	 2
1462096017.465	 5	 -0.603488	 0.446697	 0.469097	 2.388032	 -0.654995	 -0.581148	 0.138854	 0.877433	 -0.386381	 0.248073	 2
1462096017.475	 5	 -0.391525	 0.552732	 0.509803	 2.392842	 -0.648353	 -0.581955	 0.141523	 0.878588	 -0.383451	 0.247019	 2
1462096017.485	 5	 -0.235336	 0.615184	 0.531405	 2.397296	 -0.642790	 -0.584503	 0.144652	 0.879465	 -0.381187	 0.245589	 2
1462096017.495	 5	 -0.161116	 0.544495	 0.493865	 2.401130	 -0.638076	 -0.587707	 0.147767	 0.880128	 -0.379381	 0.244153	 2
1462096017.505	 5	 -0.133251	 0.422479	 0.399766	 2.404026	 -0.634168	 -0.590447	 0.150328	 0.880627	 -0.377906	 0.243073	 2
1462096017.515	 5	 -0.096932	 0.308723	 0.274763	 2.406263	 -0.631310	 -0.592364	 0.152183	 0.881008	 -0.376804	 0.242248	 2
1462096017.525	 5	 -0.036155	 0.177866	 0.148321	 2.407652	 -0.629703	 -0.593590	 0.153315	 0.881224	 -0.376191	 0.241700	 2
1462096017.535	 5	 0.034150	 0.052114	 -0.003733	 2.408199	 -0.629589	 -0.594047	 0.153643	 0.881265	 -0.376158	 0.241393	 2
1462096017.545	 5	 0.105676	 -0.026963	 -0.172417	 2.408367	 -0.631114	 -0.593574	 0.153153	 0.881187	 -0.376710	 0.241130	 2
1462096017.555	 5	 0.162583	 -0.048473	 -0.328714	 2.408761	 -0.634181	 -0.592129	 0.151961	 0.881071	 -0.377757	 0.240668	 2
1462096017.565	 5	 0.193143	 -0.041885	 -0.434429	 2.409646	 -0.638324	 -0.589883	 0.150289	 0.880974	 -0.379111	 0.239946	 2
1462096017.575	 5	 0.216487	 -0.026379	 -0.486710	 2.410959	 -0.643040	 -0.587212	 0.148395	 0.880899	 -0.380616	 0.239015	 2
1462096017.585	 5	 0.252168	 -0.079248	 -0.575971	 2.412216	 -0.648554	 -0.584093	 0.146132	 0.880765	 -0.382399	 0.238052	 2
1462096017.595	 5	 0.225113	 -0.120976	 -0.620886	 2.413319	 -0.654429	 -0.580340	 0.143488	 0.880611	 -0.384268	 0.237218	 2
1462096017.605	 5	 0.043410	 0.015952	 -0.586057	 2.415971	 -0.659147	 -0.575506	 0.140906	 0.880813	 -0.385431	 0.236126	 2
1462096017.615	 5	 -0.199109	 0.313194	 -0.469274	 2.421944	 -0.661425	 -0.569551	 0.138970	 0.881709	 -0.385243	 0.234232	 2
1462096017.625	 5	 -0.333424	 0.623533	 -0.262722	 2.430903	 -0.661182	 -0.563929	 0.138261	 0.883166	 -0.383868	 0.231404	 2
1462096017.635	 5	 -0.309139	 0.791367	 0.010398	 2.440485	 -0.659114	 -0.560661	 0.139064	 0.884701	 -0.381979	 0.228160	 2
1462096017.645	 5	 -0.161530	 0.824070	 0.325948	 2.448273	 -0.655971	 -0.561403	 0.141496	 0.885849	 -0.380221	 0.225125	 2
1462096017.655	 5	 0.015452	 0.777732	 0.607469	 2.453114	 -0.652321	 -0.566448	 0.145366	 0.886397	 -0.378932	 0.222666	 2
1462096017.665	 5	 0.147044	 0.697805	 0.785693	 2.455322	 -0.648470	 -0.574663	 0.150178	 0.886417	 -0.378090	 0.220815	 2
1462096017.675	 5	 0.223428	 0.548077	 0.849712	 2.455348	 -0.644758	 -0.584457	 0.155248	 0.886035	 -0.377635	 0.219617	 2
1462096017.685	 5	 0.259206	 0.254076	 0.802969	 2.452758	 -0.641497	 -0.594389	 0.159797	 0.885282	 -0.377586	 0.219478	 2
1462096017.695	 5	 0.287782	 -0.124661	 0.655318	 2.447137	 -0.639214	 -0.603310	 0.163132	 0.884157	 -0.378083	 0.220696	 2
1462096017.705	 5	 0.255229	 -0.368959	 0.541423	 2.439354	 -0.637704	 -0.610778	 0.165259	 0.882820	 -0.378932	 0.222999	 2
1462096017.715	 5	 0.193826	 -0.393019	 0.425565	 2.431863	 -0.636265	 -0.616832	 0.166798	 0.881608	 -0.379645	 0.225423	 2
1462096017.725	 5	 0.220685	 -0.216672	 0.260713	 2.426380	 -0.635862	 -0.621340	 0.167823	 0.880646	 -0.380450	 0.227058	 2
1462096017.735	 5	 0.237942	 0.153566	 0.135051	 2.424987	 -0.636654	 -0.624820	 0.168929	 0.880125	 -0.381283	 0.226859	 2
1462096017.745	 5	 0.042067	 0.221450	 0.176822	 2.426005	 -0.636417	 -0.627087	 0.170169	 0.880069	 -0.381358	 0.226024	 2
1462096017.756	 5	 -0.148093	 -0.324249	 0.237345	 2.423863	 -0.634141	 -0.628275	 0.170747	 0.879925	 -0.380751	 0.227171	 2
1462096017.765	 5	 -0.158852	 -1.133713	 0.371653	 2.413346	 -0.630600	 -0.630092	 0.170270	 0.878868	 -0.380419	 0.232122	 2
1462096017.776	 5	 0.043731	 -1.561359	 0.296635	 2.396827	 -0.628244	 -0.632925	 0.168857	 0.876879	 -0.381201	 0.239283	 2
1462096017.786	 5	 0.461792	 -1.491364	 0.144440	 2.378631	 -0.629524	 -0.637527	 0.167122	 0.874180	 -0.383803	 0.246122	 2
1462096017.796	 5	 0.843396	 -0.365832	 0.037554	 2.367139	 -0.634591	 -0.644640	 0.166923	 0.871755	 -0.387668	 0.248783	 2
1462096017.805	 5	 1.003658	 1.207369	 -0.174078	 2.371310	 -0.642263	 -0.652172	 0.169361	 0.871016	 -0.391299	 0.243994	 2
1462096017.816	 5	 1.124056	 1.354469	 -0.667206	 2.382551	 -0.653844	 -0.656818	 0.171106	 0.871008	 -0.395501	 0.235896	 2
1462096017.826	 5	 1.170457	 0.640120	 -1.033419	 2.390211	 -0.668972	 -0.658138	 0.169973	 0.870477	 -0.401003	 0.229295	 2
1462096017.836	 5	 0.968136	 -0.264494	 -1.190347	 2.390953	 -0.684396	 -0.656292	 0.166026	 0.869323	 -0.406833	 0.226272	 2
1462096017.846	 5	 0.710227	 -1.052243	 -1.241260	 2.385380	 -0.698456	 -0.651480	 0.159779	 0.867767	 -0.412285	 0.226873	 2
1462096017.856	 5	 0.554142	 -1.638247	 -1.151567	 2.374187	 -0.710887	 -0.645446	 0.152153	 0.865762	 -0.417347	 0.230494	 2
1462096017.866	 5	 0.572360	 -1.874369	 -0.851246	 2.358249	 -0.721417	 -0.641757	 0.144904	 0.863146	 -0.422211	 0.236051	 2
1462096017.876	 5	 0.726166	 -1.933801	 -0.477990	 2.338285	 -0.730270	 -0.642911	 0.139187	 0.859804	 -0.427197	 0.242625	 2
1462096017.886	 5	 0.839077	 -2.025368	 -0.152636	 2.314328	 -0.737560	 -0.648817	 0.134912	 0.855737	 -0.432364	 0.250147	 2
1462096017.895	 5	 0.784134	 -2.127549	 0.108003	 2.287515	 -0.742602	 -0.657412	 0.131576	 0.851273	 -0.437157	 0.258681	 2
1462096017.906	 5	 0.588905	 -2.261839	 0.284304	 2.259294	 -0.744885	 -0.666234	 0.128580	 0.846771	 -0.441010	 0.268246	 2
1462096017.916	 5	 0.365386	 -2.434995	 0.369900	 2.230337	 -0.744724	 -0.673708	 0.125370	 0.842350	 -0.443811	 0.278855	 2
1462096017.925	 5	 0.226787	 -2.591297	 0.320627	 2.201069	 -0.743572	 -0.679211	 0.121460	 0.837944	 -0.445979	 0.290173	 2
1462096017.936	 5	 0.163210	 -2.691348	 0.285080	 2.171459	 -0.742140	 -0.683490	 0.116997	 0.833421	 -0.447859	 0.301900	 2
1462096017.946	 5	 0.177531	 -2.687240	 0.124063	 2.142322	 -0.741587	 -0.686722	 0.111946	 0.828796	 -0.449825	 0.313404	 2
1462096017.955	 5	 0.227496	 -2.590723	 -0.039601	 2.114505	 -0.742810	 -0.689173	 0.106360	 0.824140	 -0.452167	 0.324077	 2
1462096017.966	 5	 0.259042	 -2.355631	 -0.168777	 2.088871	 -0.745247	 -0.691185	 0.100715	 0.819650	 -0.454678	 0.333615	 2
1462096017.976	 5	 0.329310	 -2.019924	 -0.341050	 2.066711	 -0.749378	 -0.692876	 0.095215	 0.815547	 -0.457478	 0.341366	 2
1462096017.985	 5	 0.393365	 -1.742905	 -0.395515	 2.047139	 -0.754515	 -0.695025	 0.090163	 0.811736	 -0.460514	 0.347682	 2
1462096017.996	 5	 0.465824	 -1.474590	 -0.473582	 2.029943	 -0.760580	 -0.697692	 0.085555	 0.808214	 -0.463792	 0.352659	 2
1462096018.006	 5	 0.543242	 -1.292387	 -0.543966	 2.014287	 -0.767619	 -0.701055	 0.081257	 0.804847	 -0.467402	 0.356587	 2
1462096018.015	 5	 0.595858	 -1.191774	 -0.581856	 1.999380	 -0.775276	 -0.705065	 0.077161	 0.801534	 -0.471253	 0.359875	 2
1462096018.026	 5	 0.620552	 -1.123033	 -0.626193	 1.984941	 -0.783411	 -0.709424	 0.073120	 0.798253	 -0.475254	 0.362738	 2
1462096018.036	 5	 0.651716	 -1.083716	 -0.618638	 1.970564	 -0.791682	 -0.714286	 0.069196	 0.794952	 -0.479338	 0.365374	 2
1462096018.045	 5	 0.678805	 -1.023999	 -0.586345	 1.956177	 -0.799750	 -0.719892	 0.065566	 0.791634	 -0.483441	 0.367833	 2
1462096018.056	 5	 0.722218	 -0.905759	 -0.544058	 1.942066	 -0.807530	 -0.726455	 0.062407	 0.788355	 -0.487571	 0.369967	 2
1462096018.065	 5	 0.774116	 -0.805565	 -0.493487	 1.928228	 -0.814947	 -0.734159	 0.059813	 0.785119	 -0.491748	 0.371746	 2
1462096018.076	 5	 0.842884	 -0.721608	 -0.475187	 1.914221	 -0.822264	 -0.743134	 0.057646	 0.781828	 -0.496095	 0.373246	 2
1462096018.086	 5	 0.887951	 -0.682279	 -0.460292	 1.900037	 -0.829541	 -0.753104	 0.055770	 0.778490	 -0.500581	 0.374515	 2
1462096018.096	 5	 0.902988	 -0.665274	 -0.456002	 1.885530	 -0.836718	 -0.763669	 0.054008	 0.775095	 -0.505120	 0.375719	 2
1462096018.106	 5	 0.891156	 -0.693881	 -0.445508	 1.870696	 -0.843707	 -0.774421	 0.052224	 0.771658	 -0.509609	 0.376982	 2
1462096018.116	 5	 0.887825	 -0.735231	 -0.428811	 1.855157	 -0.850386	 -0.785368	 0.050363	 0.768115	 -0.514023	 0.378475	 2
1462096018.126	 5	 0.891221	 -0.691653	 -0.431633	 1.839680	 -0.856970	 -0.796609	 0.048589	 0.764595	 -0.518427	 0.379825	 2
1462096018.136	 5	 0.888119	 -0.685141	 -0.415561	 1.824115	 -0.863327	 -0.808120	 0.046898	 0.761079	 -0.522783	 0.381128	 2
1462096018.146	 5	 0.882719	 -0.725313	 -0.383915	 1.807939	 -0.869268	 -0.819888	 0.045207	 0.757473	 -0.527050	 0.382635	 2
1462096018.156	 5	 0.875539	 -0.677308	 -0.367417	 1.792294	 -0.874453	 -0.831545	 0.043792	 0.754015	 -0.531046	 0.384101	 2
1462096018.166	 5	 0.879879	 -0.655046	 -0.375773	 1.776362	 -0.879907	 -0.843707	 0.042337	 0.750495	 -0.535189	 0.385406	 2
1462096018.176	 5	 0.885198	 -0.700437	 -0.326151	 1.759741	 -0.884992	 -0.856331	 0.040924	 0.746859	 -0.539308	 0.386876	 2
1462096018.186	 5	 0.880751	 -0.761908	 -0.297909	 1.742313	 -0.889564	 -0.869203	 0.039484	 0.743090	 -0.543332	 0.388650	 2
1462096018.196	 5	 0.874733	 -0.926563	 -0.272742	 1.724871	 -0.893124	 -0.881141	 0.037966	 0.739371	 -0.546894	 0.390892	 2
1462096018.206	 5	 0.858179	 -1.293244	 -0.242971	 1.702559	 -0.896777	 -0.894223	 0.035433	 0.734673	 -0.550774	 0.394522	 2
1462096018.216	 5	 0.856597	 -1.327919	 -0.331738	 1.678864	 -0.900822	 -0.907307	 0.032301	 0.729688	 -0.554743	 0.398462	 2
1462096018.226	 5	 0.823195	 -1.083930	 -0.433622	 1.657342	 -0.905716	 -0.920109	 0.029289	 0.725130	 -0.558781	 0.401363	 2
1462096018.236	 5	 0.677857	 -1.088090	 -0.479288	 1.637873	 -0.910949	 -0.931186	 0.026030	 0.721017	 -0.562476	 0.403828	 2
1462096018.246	 5	 0.498055	 -1.147547	 -0.537959	 1.620979	 -0.916465	 -0.938678	 0.022046	 0.717481	 -0.565428	 0.406235	 2
1462096018.256	 5	 0.318674	 -1.109236	 -0.607447	 1.605284	 -0.922523	 -0.944256	 0.017481	 0.714216	 -0.568044	 0.408554	 2
1462096018.266	 5	 0.176307	 -0.925241	 -0.666310	 1.592967	 -0.929100	 -0.947402	 0.012792	 0.711668	 -0.570193	 0.410177	 2
1462096018.276	 5	 0.127325	 -0.635089	 -0.715406	 1.584261	 -0.936160	 -0.949424	 0.008541	 0.709872	 -0.572147	 0.410678	 2
1462096018.286	 5	 0.173242	 -0.365392	 -0.760189	 1.577885	 -0.943637	 -0.951947	 0.004973	 0.708558	 -0.574248	 0.410072	 2
1462096018.296	 5	 0.289135	 -0.145236	 -0.861463	 1.572430	 -0.951964	 -0.956310	 0.002008	 0.707439	 -0.576867	 0.408351	 2
1462096018.306	 5	 0.400583	 -0.168804	 -0.986281	 1.565728	 -0.961541	 -0.962857	 -0.001005	 0.706080	 -0.580146	 0.406056	 2
1462096018.316	 5	 0.466674	 -0.636983	 -0.985884	 1.553621	 -0.971360	 -0.970974	 -0.005149	 0.703654	 -0.583726	 0.405104	 2
1462096018.326	 5	 0.477222	 -0.637239	 -1.016886	 1.539510	 -0.981325	 -0.979984	 -0.009664	 0.700865	 -0.587429	 0.404503	 2
1462096018.336	 5	 0.383928	 -0.254290	 -1.047680	 1.528921	 -0.991547	 -0.988172	 -0.013568	 0.698826	 -0.590951	 0.402784	 2
1462096018.346	 5	 0.241642	 0.388213	 -1.093750	 1.526213	 -1.002258	 -0.994114	 -0.016126	 0.698385	 -0.594104	 0.398796	 2
1462096018.356	 5	 0.132009	 0.601889	 -1.006612	 1.528912	 -1.012572	 -0.997891	 -0.017691	 0.698998	 -0.596761	 0.393657	 2
1462096018.366	 5	 0.023264	 0.467425	 -0.819343	 1.532574	 -1.021204	 -0.999539	 -0.019104	 0.699754	 -0.598684	 0.389303	 2
1462096018.376	 5	 -0.250658	 0.370777	 -0.617494	 1.538734	 -1.028026	 -0.996917	 -0.020611	 0.700925	 -0.599475	 0.385887	 2
1462096018.386	 5	 -0.553202	 0.299867	 -0.398104	 1.549579	 -1.032614	 -0.987706	 -0.022228	 0.702900	 -0.598659	 0.383465	 2
1462096018.396	 5	 -0.709712	 0.341057	 -0.354793	 1.564044	 -1.036260	 -0.974627	 -0.023803	 0.705488	 -0.597004	 0.381191	 2
1462096018.406	 5	 -1.021773	 0.402146	 -0.270510	 1.584188	 -1.039125	 -0.956039	 -0.025388	 0.709049	 -0.594268	 0.378750	 2
1462096018.416	 5	 -1.263326	 0.125016	 -0.302958	 1.607041	 -1.041676	 -0.931969	 -0.028071	 0.712992	 -0.590529	 0.377001	 2
1462096018.426	 5	 -1.478667	 -0.106813	 -0.238229	 1.630862	 -1.043724	 -0.903607	 -0.031917	 0.716993	 -0.585966	 0.376226	 2
1462096018.436	 5	 -1.921884	 0.082275	 -0.009866	 1.661763	 -1.042995	 -0.867981	 -0.035480	 0.722230	 -0.579633	 0.375700	 2
1462096018.446	 5	 -2.544373	 0.771397	 0.165028	 1.707678	 -1.039053	 -0.821303	 -0.037885	 0.730177	 -0.570834	 0.373571	 2
1462096018.456	 5	 -2.862962	 1.679405	 0.286025	 1.768256	 -1.031855	 -0.767651	 -0.038099	 0.740872	 -0.560271	 0.368448	 2
1462096018.466	 5	 -2.519918	 2.510761	 0.224697	 1.833202	 -1.023227	 -0.718913	 -0.035485	 0.752506	 -0.550322	 0.360029	 2
1462096018.476	 5	 -1.954858	 3.381446	 0.396269	 1.896168	 -1.014061	 -0.682299	 -0.029311	 0.763936	 -0.542293	 0.348512	 2
1462096018.486	 5	 -1.243187	 4.034163	 0.930093	 1.951909	 -1.001801	 -0.662277	 -0.018287	 0.774511	 -0.535933	 0.335521	 2
1462096018.496	 5	 -0.493915	 4.571403	 1.395373	 1.998065	 -0.987235	 -0.660218	 -0.002496	 0.783682	 -0.531402	 0.321634	 2
1462096018.506	 5	 0.066165	 4.998096	 1.647052	 2.037596	 -0.972667	 -0.671643	 0.016663	 0.791472	 -0.528513	 0.306543	 2
1462096018.516	 5	 0.330976	 5.116586	 1.813174	 2.073149	 -0.958243	 -0.690600	 0.037642	 0.798124	 -0.526285	 0.290872	 2
1462096018.526	 5	 0.378374	 4.771718	 1.796763	 2.104818	 -0.944406	 -0.711705	 0.058253	 0.803617	 -0.524068	 0.275968	 2
1462096018.536	 5	 0.174091	 4.088696	 1.688807	 2.132514	 -0.931018	 -0.730435	 0.076704	 0.808155	 -0.521308	 0.263135	 2
1462096018.546	 5	 -0.466670	 3.018172	 1.503245	 2.157516	 -0.916427	 -0.740567	 0.091237	 0.812504	 -0.516773	 0.253888	 2
1462096018.556	 5	 -1.272134	 1.748351	 1.195765	 2.180281	 -0.899771	 -0.737833	 0.100394	 0.817246	 -0.509786	 0.249296	 2
1462096018.566	 5	 -1.837045	 0.610438	 0.841591	 2.199709	 -0.882266	 -0.724196	 0.104292	 0.822202	 -0.501153	 0.248903	 2
1462096018.576	 5	 -2.130184	 -0.245602	 0.599578	 2.214420	 -0.864725	 -0.704304	 0.104255	 0.826933	 -0.491832	 0.251822	 2
1462096018.586	 5	 -2.283449	 -0.740567	 0.484402	 2.225158	 -0.847101	 -0.681632	 0.101937	 0.831337	 -0.482194	 0.256860	 2
1462096018.596	 5	 -2.425247	 -0.937980	 0.484865	 2.233857	 -0.828716	 -0.657789	 0.098672	 0.835619	 -0.472079	 0.262956	 2
1462096018.606	 5	 -2.595714	 -0.934862	 0.552456	 2.242308	 -0.808731	 -0.633255	 0.095296	 0.840058	 -0.461133	 0.269402	 2
1462096018.616	 5	 -2.716074	 -0.744455	 0.653326	 2.251795	 -0.787003	 -0.608840	 0.092457	 0.844796	 -0.449326	 0.275459	 2
1462096018.626	 5	 -2.820060	 -0.435328	 0.705067	 2.263243	 -0.763898	 -0.584917	 0.090391	 0.849910	 -0.436786	 0.280537	 2
1462096018.636	 5	 -2.915830	 -0.065646	 0.603830	 2.278905	 -0.740444	 -0.560006	 0.088653	 0.855683	 -0.423595	 0.283751	 2
1462096018.646	 5	 -2.714305	 0.100950	 0.631336	 2.294740	 -0.717425	 -0.537260	 0.087494	 0.861327	 -0.410698	 0.285986	 2
1462096018.656	 5	 -2.135795	 0.080466	 0.680462	 2.306442	 -0.697134	 -0.520632	 0.087274	 0.865813	 -0.399789	 0.287958	 2
1462096018.666	 5	 -1.547380	 0.164893	 0.680387	 2.314169	 -0.680742	 -0.510513	 0.088071	 0.869026	 -0.391451	 0.289489	 2
1462096018.676	 5	 -1.062817	 0.468177	 0.604387	 2.321539	 -0.668177	 -0.504897	 0.089834	 0.871590	 -0.385260	 0.289542	 2
1462096018.686	 5	 -0.690964	 0.829477	 0.562947	 2.330333	 -0.658681	 -0.502666	 0.092622	 0.873892	 -0.380699	 0.287753	 2
1462096018.696	 5	 -0.417523	 1.110502	 0.558918	 2.340421	 -0.651386	 -0.503210	 0.096353	 0.876018	 -0.377338	 0.284473	 2
1462096018.706	 5	 -0.295239	 1.230440	 0.573890	 2.351350	 -0.645053	 -0.505406	 0.100728	 0.878063	 -0.374527	 0.280336	 2
1462096018.716	 5	 -0.202253	 1.080860	 0.518400	 2.360964	 -0.639670	 -0.508110	 0.104855	 0.879778	 -0.372206	 0.276513	 2
1462096018.726	 5	 -0.078547	 0.906521	 0.434703	 2.368642	 -0.635691	 -0.511210	 0.108483	 0.881046	 -0.370590	 0.273227	 2
1462096018.736	 5	 0.042744	 0.710591	 0.306064	 2.374368	 -0.633394	 -0.514357	 0.111410	 0.881868	 -0.369760	 0.270507	 2
1462096018.746	 5	 0.151045	 0.508040	 0.139109	 2.378350	 -0.633034	 -0.517055	 0.113411	 0.882287	 -0.369751	 0.268313	 2
1462096018.756	 5	 0.261596	 0.327834	 -0.025527	 2.380813	 -0.634620	 -0.519182	 0.114476	 0.882345	 -0.370548	 0.266564	 2
1462096018.766	 5	 0.386066	 0.152944	 -0.184905	 2.381746	 -0.638181	 -0.520900	 0.114667	 0.882032	 -0.372187	 0.265231	 2
1462096018.776	 5	 0.519129	 -0.020815	 -0.331558	 2.381071	 -0.643743	 -0.522397	 0.114046	 0.881324	 -0.374708	 0.264302	 2
1462096018.786	 5	 0.637322	 -0.197567	 -0.456795	 2.378697	 -0.651097	 -0.523796	 0.112682	 0.880217	 -0.378041	 0.263828	 2
1462096018.796	 5	 0.752289	 -0.391226	 -0.568305	 2.374424	 -0.660055	 -0.525196	 0.110610	 0.878694	 -0.382125	 0.263901	 2
1462096018.806	 5	 0.861878	 -0.595491	 -0.677737	 2.368092	 -0.670587	 -0.526658	 0.107814	 0.876724	 -0.386949	 0.264576	 2
1462096018.816	 5	 0.921318	 -0.791159	 -0.795177	 2.359889	 -0.682461	 -0.527868	 0.104221	 0.874366	 -0.392354	 0.265859	 2
1462096018.826	 5	 0.875495	 -0.913055	 -0.902489	 2.350883	 -0.694984	 -0.528031	 0.099824	 0.871860	 -0.397879	 0.267557	 2
1462096018.836	 5	 0.705890	 -0.883951	 -0.917793	 2.342693	 -0.706862	 -0.526653	 0.095011	 0.869576	 -0.402853	 0.269296	 2
1462096018.846	 5	 0.442105	 -0.575962	 -0.794331	 2.337862	 -0.716400	 -0.523827	 0.090725	 0.868031	 -0.406503	 0.270272	 2
1462096018.856	 5	 0.195682	 -0.120046	 -0.505516	 2.337436	 -0.722374	 -0.520825	 0.088029	 0.867455	 -0.408496	 0.270006	 2
1462096018.866	 5	 0.048687	 0.283185	 -0.108284	 2.340154	 -0.724433	 -0.519626	 0.087614	 0.867646	 -0.409035	 0.268707	 2
1462096018.876	 5	 0.040395	 0.475230	 0.263395	 2.343276	 -0.723407	 -0.521571	 0.089320	 0.868092	 -0.408749	 0.267137	 2
1462096018.886	 5	 0.161279	 0.536399	 0.533616	 2.344790	 -0.720901	 -0.527172	 0.092607	 0.868315	 -0.408428	 0.265781	 2
1462096018.896	 5	 0.270905	 0.597590	 0.655793	 2.345177	 -0.718097	 -0.535424	 0.096879	 0.868281	 -0.408386	 0.264430	 2
1462096018.906	 5	 0.290154	 0.607097	 0.654648	 2.345471	 -0.715410	 -0.544306	 0.101380	 0.868168	 -0.408474	 0.262974	 2
1462096018.916	 5	 0.268761	 0.473319	 0.532093	 2.345460	 -0.713239	 -0.552200	 0.105279	 0.867989	 -0.408648	 0.261762	 2
1462096018.926	 5	 0.309290	 0.210933	 0.300159	 2.344297	 -0.712701	 -0.558299	 0.107805	 0.867568	 -0.409293	 0.261118	 2
1462096018.936	 5	 0.429641	 -0.085824	 0.054422	 2.340982	 -0.714669	 -0.563134	 0.108789	 0.866668	 -0.410883	 0.261200	 2
1462096018.946	 5	 0.467553	 -0.261727	 -0.132988	 2.336350	 -0.718551	 -0.566718	 0.108530	 0.865464	 -0.413136	 0.261746	 2
1462096018.956	 5	 0.462747	 -0.302759	 -0.219654	 2.331627	 -0.723244	 -0.569306	 0.107629	 0.864217	 -0.415578	 0.262375	 2
1462096018.966	 5	 0.431617	 -0.140778	 -0.189100	 2.328123	 -0.727780	 -0.571725	 0.106933	 0.863153	 -0.417863	 0.262530	 2
1462096018.976	 5	 0.318794	 -0.058885	 0.057769	 2.325205	 -0.730362	 -0.574987	 0.107151	 0.862326	 -0.419458	 0.262618	 2
1462096018.986	 5	 0.140131	 0.218873	 0.153565	 2.324524	 -0.730513	 -0.578225	 0.108370	 0.862046	 -0.419978	 0.262203	 2
1462096018.996	 5	 -0.005831	 0.309367	 0.106653	 2.326621	 -0.729858	 -0.579582	 0.109542	 0.862315	 -0.419786	 0.261139	 2
1462096019.006	 5	 -0.143976	 0.287811	 0.011737	 2.330114	 -0.728709	 -0.578908	 0.110241	 0.862926	 -0.419057	 0.259992	 2
1462096019.016	 5	 0.021863	 0.372633	 -0.251096	 2.334929	 -0.729704	 -0.576717	 0.110082	 0.863567	 -0.418898	 0.258185	 2
1462096019.026	 5	 0.662770	 0.623881	 -0.399282	 2.339702	 -0.735731	 -0.577834	 0.110228	 0.863478	 -0.421140	 0.254747	 2
1462096019.036	 5	 1.349407	 1.109517	 -0.328269	 2.343763	 -0.746616	 -0.586203	 0.112287	 0.862352	 -0.426224	 0.249146	 2
1462096019.046	 5	 1.447944	 1.703217	 -0.406732	 2.351949	 -0.759466	 -0.596916	 0.115815	 0.861333	 -0.432075	 0.240840	 2
1462096019.056	 5	 1.349954	 2.183470	 -0.661456	 2.367628	 -0.773391	 -0.604430	 0.119397	 0.861164	 -0.437446	 0.229741	 2
1462096019.066	 5	 1.268794	 2.074112	 -0.814171	 2.385802	 -0.788130	 -0.609081	 0.122194	 0.861195	 -0.442591	 0.218005	 2
1462096019.076	 5	 1.102887	 1.409881	 -0.955325	 2.400673	 -0.802803	 -0.610629	 0.123017	 0.860904	 -0.447538	 0.208377	 2
1462096019.086	 5	 0.934693	 0.666291	 -1.040712	 2.410247	 -0.816882	 -0.609047	 0.121493	 0.860213	 -0.452249	 0.201849	 2
1462096019.096	 5	 0.919190	 0.054051	 -0.991920	 2.413853	 -0.830442	 -0.606859	 0.118498	 0.858950	 -0.457063	 0.198136	 2
1462096019.106	 5	 1.054209	 -0.496493	 -0.734975	 2.409562	 -0.843391	 -0.607861	 0.115192	 0.856753	 -0.462405	 0.197197	 2
1462096019.116	 5	 1.252914	 -1.239767	 -0.335435	 2.393590	 -0.855259	 -0.615267	 0.112090	 0.853161	 -0.468589	 0.199940	 2
1462096019.126	 5	 1.223808	 -2.034957	 -0.000471	 2.365744	 -0.864843	 -0.627720	 0.108709	 0.848371	 -0.475015	 0.206904	 2
1462096019.136	 5	 0.873551	 -2.685685	 0.178766	 2.331069	 -0.870706	 -0.639980	 0.104282	 0.843280	 -0.480345	 0.217424	 2
1462096019.146	 5	 0.414027	 -3.160912	 0.314763	 2.293612	 -0.872167	 -0.648962	 0.098687	 0.838444	 -0.483788	 0.230698	 2
1462096019.156	 5	 0.108298	 -3.314914	 0.368214	 2.256409	 -0.870535	 -0.654585	 0.092416	 0.833945	 -0.485645	 0.245242	 2
1462096019.166	 5	 0.039788	 -3.309824	 0.309175	 2.220370	 -0.868181	 -0.658291	 0.085780	 0.829501	 -0.486879	 0.259843	 2
1462096019.176	 5	 0.105489	 -3.233881	 0.101486	 2.185917	 -0.867399	 -0.660834	 0.078631	 0.824889	 -0.488359	 0.273646	 2
1462096019.186	 5	 0.151652	 -3.175346	 -0.168009	 2.153253	 -0.869052	 -0.661812	 0.070610	 0.820101	 -0.490289	 0.286471	 2
1462096019.196	 5	 0.120575	 -3.026806	 -0.377377	 2.123287	 -0.872514	 -0.660839	 0.061929	 0.815393	 -0.492327	 0.298183	 2
1462096019.206	 5	 0.061545	 -2.726884	 -0.549923	 2.097458	 -0.877263	 -0.657747	 0.053015	 0.811080	 -0.494211	 0.308373	 2
1462096019.216	 5	 0.080558	 -2.222535	 -0.661564	 2.077042	 -0.883155	 -0.653753	 0.044725	 0.807394	 -0.496063	 0.316284	 2
1462096019.226	 5	 0.186092	 -1.726731	 -0.743130	 2.061104	 -0.890236	 -0.650467	 0.037473	 0.804206	 -0.498222	 0.321906	 2
1462096019.236	 5	 0.320209	 -1.325277	 -0.770403	 2.048229	 -0.898370	 -0.648786	 0.031305	 0.801329	 -0.500856	 0.325630	 2
1462096019.246	 5	 0.466722	 -1.082779	 -0.711871	 2.036246	 -0.906831	 -0.649635	 0.026249	 0.798501	 -0.503936	 0.328261	 2
1462096019.256	 5	 0.591296	 -1.010018	 -0.601440	 2.023176	 -0.914991	 -0.653286	 0.022079	 0.795478	 -0.507341	 0.330653	 2
1462096019.266	 5	 0.685633	 -1.039047	 -0.459719	 2.007613	 -0.922262	 -0.659667	 0.018564	 0.792100	 -0.510890	 0.333503	 2
1462096019.276	 5	 0.727854	 -0.995899	 -0.359504	 1.991114	 -0.928791	 -0.667899	 0.015695	 0.788622	 -0.514477	 0.336367	 2
1462096019.286	 5	 0.737234	 -1.117600	 -0.271194	 1.972857	 -0.934411	 -0.677232	 0.013008	 0.784926	 -0.517940	 0.339794	 2
1462096019.296	 5	 0.732284	 -1.343430	 -0.174136	 1.951835	 -0.939021	 -0.687430	 0.010171	 0.780839	 -0.521223	 0.344257	 2
1462096019.306	 5	 0.737957	 -1.502945	 -0.168209	 1.928302	 -0.943160	 -0.698108	 0.006933	 0.776337	 -0.524427	 0.349612	 2
1462096019.316	 5	 0.722653	 -1.534141	 -0.222720	 1.904599	 -0.947626	 -0.708577	 0.003390	 0.771748	 -0.527658	 0.354922	 2
1462096019.326	 5	 0.716591	 -1.661981	 -0.253699	 1.880036	 -0.952231	 -0.718916	 -0.000553	 0.766966	 -0.530866	 0.360478	 2
1462096019.336	 5	 0.743139	 -1.620117	 -0.336670	 1.854844	 -0.957367	 -0.729541	 -0.004805	 0.761998	 -0.534228	 0.365972	 2
1462096019.346	 5	 0.727228	 -1.560844	 -0.382873	 1.830478	 -0.962948	 -0.740098	 -0.009090	 0.757126	 -0.537648	 0.370962	 2
1462096019.356	 5	 0.710023	 -1.559976	 -0.416820	 1.806404	 -0.968666	 -0.750470	 -0.013498	 0.752281	 -0.541012	 0.375762	 2
1462096019.366	 5	 0.675839	 -1.568317	 -0.409103	 1.787466	 -0.967419	 -0.756399	 -0.015996	 0.748823	 -0.541660	 0.381591	 2
1462096019.376	 5	 0.625935	 -1.517095	 -0.406061	 1.764326	 -0.972710	 -0.765972	 -0.020434	 0.744129	 -0.544684	 0.386231	 2
1462096019.386	 5	 0.604862	 -1.520761	 -0.333439	 1.741195	 -0.977302	 -0.775507	 -0.024727	 0.739464	 -0.547461	 0.390983	 2
1462096019.396	 5	 0.596034	 -1.410711	 -0.268393	 1.718687	 -0.981062	 -0.785252	 -0.028562	 0.734955	 -0.550027	 0.395595	 2
1462096019.406	 5	 0.622560	 -1.293136	 -0.178006	 1.696821	 -0.983911	 -0.795706	 -0.031715	 0.730614	 -0.552481	 0.399953	 2
1462096019.416	 5	 0.661066	 -1.097124	 -0.120031	 1.675579	 -0.985919	 -0.807186	 -0.034094	 0.726436	 -0.554924	 0.403964	 2
1462096019.426	 5	 0.629880	 -0.914154	 -0.128715	 1.656637	 -0.987784	 -0.818578	 -0.035871	 0.722713	 -0.557343	 0.407146	 2
1462096019.436	 5	 0.552906	 -0.902579	 -0.176962	 1.639139	 -0.989858	 -0.828735	 -0.037808	 0.719242	 -0.559576	 0.410043	 2
1462096019.446	 5	 0.455372	 -0.974574	 -0.179944	 1.647681	 -0.982980	 -0.816327	 -0.037527	 0.721033	 -0.555596	 0.412330	 2
1462096019.456	 5	 0.326524	 -0.926238	 -0.166649	 1.632684	 -0.984891	 -0.822640	 -0.040086	 0.717978	 -0.557054	 0.415441	 2
1462096019.466	 5	 0.117273	 -0.768832	 -0.105811	 1.622230	 -0.986255	 -0.825618	 -0.042404	 0.715812	 -0.557770	 0.417981	 2
1462096019.476	 5	 -0.072027	 -0.710146	 -0.009830	 1.615451	 -0.986580	 -0.825082	 -0.044599	 0.714368	 -0.557584	 0.420464	 2
1462096019.486	 5	 -0.188997	 -0.690062	 0.072374	 1.611018	 -0.985970	 -0.822116	 -0.046680	 0.713387	 -0.556720	 0.423041	 2
1462096019.496	 5	 -0.219895	 -0.726788	 0.128786	 1.607088	 -0.984727	 -0.818259	 -0.048715	 0.712503	 -0.555527	 0.425859	 2
1462096019.506	 5	 -0.188262	 -0.820371	 0.143627	 1.602072	 -0.983231	 -0.814778	 -0.050825	 0.711396	 -0.554321	 0.429024	 2
1462096019.516	 5	 -0.141313	 -1.010156	 0.098821	 1.594735	 -0.982020	 -0.812086	 -0.053390	 0.709786	 -0.553277	 0.432711	 2
1462096019.526	 5	 -0.116280	 -1.244152	 -0.037860	 1.584709	 -0.982001	 -0.809936	 -0.056917	 0.707548	 -0.552529	 0.436863	 2
1462096019.536	 5	 -0.132714	 -1.436625	 -0.185518	 1.572676	 -0.983497	 -0.807636	 -0.061577	 0.704790	 -0.552000	 0.441334	 2
1462096019.546	 5	 -0.151682	 -1.500285	 -0.318099	 1.559945	 -0.986300	 -0.804961	 -0.067019	 0.701794	 -0.551614	 0.445775	 2
1462096019.556	 5	 -0.189358	 -1.492328	 -0.409353	 1.547523	 -0.990254	 -0.801925	 -0.072907	 0.698787	 -0.551362	 0.449869	 2
1462096019.566	 5	 -0.300604	 -1.527275	 -0.433222	 1.536375	 -0.994604	 -0.797213	 -0.079166	 0.695958	 -0.550812	 0.453852	 2
1462096019.576	 5	 -0.388620	 -1.444806	 -0.390123	 1.527057	 -0.998837	 -0.790776	 -0.085473	 0.693441	 -0.549868	 0.457689	 2
1462096019.586	 5	 -0.427212	 -1.361874	 -0.263256	 1.519557	 -1.002025	 -0.783279	 -0.091265	 0.691287	 -0.548493	 0.461463	 2
1462096019.596	 5	 -0.452246	 -1.375515	 -0.101169	 1.512787	 -1.003661	 -0.775132	 -0.096515	 0.689284	 -0.546635	 0.465579	 2
1462096019.606	 5	 -0.417030	 -1.190199	 -0.052858	 1.506924	 -1.004580	 -0.767289	 -0.101143	 0.687495	 -0.544707	 0.469483	 2
1462096019.616	 5	 -0.392979	 -0.944758	 0.068582	 1.503211	 -1.004548	 -0.759776	 -0.104721	 0.686235	 -0.542739	 0.472810	 2
1462096019.626	 5	 -0.315051	 -0.595191	 0.196917	 1.501859	 -1.003058	 -0.753188	 -0.106813	 0.685617	 -0.540788	 0.475466	 2
1462096019.636	 5	 -0.395708	 0.023277	 0.381356	 1.505883	 -1.000069	 -0.746477	 -0.106958	 0.686322	 -0.538765	 0.476713	 2
1462096019.646	 5	 -1.046910	 1.099322	 0.659217	 1.528093	 -0.994739	 -0.729881	 -0.104810	 0.690932	 -0.534824	 0.474964	 2
1462096019.656	 5	 -1.367170	 1.773197	 0.907006	 1.565174	 -0.986517	 -0.705251	 -0.100603	 0.698805	 -0.529029	 0.470828	 2
1462096019.666	 5	 -1.118807	 2.134352	 0.942309	 1.603391	 -0.976873	 -0.683929	 -0.094681	 0.707216	 -0.523600	 0.465537	 2
1462096019.676	 5	 -0.972753	 2.566710	 0.928008	 1.641617	 -0.967175	 -0.667290	 -0.087306	 0.715864	 -0.519077	 0.458776	 2
1462096019.686	 5	 -1.033170	 3.082938	 0.955719	 1.684426	 -0.956709	 -0.651053	 -0.078560	 0.725600	 -0.514447	 0.450198	 2
1462096019.696	 5	 -1.078133	 3.689859	 0.735817	 1.733727	 -0.947426	 -0.634491	 -0.068910	 0.736613	 -0.510071	 0.438725	 2
1462096019.706	 5	 -0.673958	 3.320317	 0.834369	 1.777252	 -0.938159	 -0.623370	 -0.058963	 0.746409	 -0.506449	 0.427675	 2
1462096019.716	 5	 0.237502	 2.483181	 1.045651	 1.801589	 -0.928487	 -0.626875	 -0.048401	 0.752445	 -0.505058	 0.420000	 2
1462096019.726	 5	 0.942847	 1.628448	 1.240445	 1.805547	 -0.918678	 -0.644567	 -0.037613	 0.754430	 -0.505995	 0.416401	 2
1462096019.736	 5	 0.751567	 1.292329	 1.307192	 1.804486	 -0.908081	 -0.663060	 -0.027522	 0.755301	 -0.506750	 0.414689	 2
1462096019.746	 5	 0.163360	 1.178753	 1.394386	 1.808584	 -0.895463	 -0.673090	 -0.018665	 0.757153	 -0.505219	 0.413672	 2
1462096019.756	 5	 -0.282644	 1.108485	 1.497797	 1.817662	 -0.880741	 -0.675848	 -0.010643	 0.760043	 -0.501562	 0.413106	 2
1462096019.766	 5	 -0.579001	 0.927669	 1.524273	 1.828905	 -0.864684	 -0.674003	 -0.003447	 0.763415	 -0.496481	 0.413150	 2
1462096019.776	 5	 -0.648467	 0.771798	 1.415786	 1.839757	 -0.848995	 -0.670362	 0.002789	 0.766669	 -0.491036	 0.413636	 2
1462096019.786	 5	 -0.644217	 0.652765	 1.283552	 1.849480	 -0.834646	 -0.666314	 0.008111	 0.769602	 -0.485822	 0.414275	 2
1462096019.796	 5	 -0.659262	 0.705344	 1.194648	 1.859397	 -0.821070	 -0.662095	 0.013118	 0.772528	 -0.480729	 0.414641	 2
1462096019.806	 5	 -0.648145	 0.816843	 1.174274	 1.870536	 -0.808041	 -0.657782	 0.018156	 0.775677	 -0.475702	 0.414372	 2
1462096019.816	 5	 -0.530751	 0.790147	 1.207108	 1.880355	 -0.794923	 -0.655283	 0.023556	 0.778537	 -0.470961	 0.414151	 2
1462096019.826	 5	 -0.232121	 0.245173	 1.271908	 1.883467	 -0.781944	 -0.656338	 0.028686	 0.779939	 -0.467028	 0.415640	 2
1462096019.836	 5	 -0.018156	 0.534271	 1.330287	 1.884424	 -0.769379	 -0.661120	 0.034633	 0.780775	 -0.464009	 0.416998	 2
1462096019.846	 5	 0.096704	 0.668907	 1.608703	 1.885924	 -0.754990	 -0.668642	 0.042335	 0.781709	 -0.460956	 0.417922	 2
1462096019.856	 5	 0.165115	 0.454848	 1.891740	 1.884325	 -0.738068	 -0.678205	 0.050901	 0.781977	 -0.457580	 0.420168	 2
1462096019.866	 5	 0.305696	 0.208221	 2.113097	 1.879279	 -0.719267	 -0.690145	 0.060200	 0.781395	 -0.454214	 0.423659	 2
1462096019.876	 5	 0.337467	 -0.139072	 2.195915	 1.870429	 -0.699460	 -0.703023	 0.069337	 0.779822	 -0.450903	 0.428667	 2
1462096019.886	 5	 0.229888	 -0.563004	 2.214222	 1.858548	 -0.679070	 -0.714595	 0.077498	 0.777440	 -0.447326	 0.435293	 2
1462096019.896	 5	 0.044171	 -0.985023	 2.171413	 1.844246	 -0.658321	 -0.723454	 0.084224	 0.774413	 -0.443240	 0.443541	 2
1462096019.906	 5	 -0.186503	 -1.362868	 2.042014	 1.828291	 -0.637937	 -0.728788	 0.089167	 0.770932	 -0.438652	 0.453098	 2
1462096019.916	 5	 -0.477611	 -1.577428	 1.817677	 1.812324	 -0.618756	 -0.729749	 0.092119	 0.767421	 -0.433516	 0.463296	 2
1462096019.926	 5	 -0.835709	 -1.768155	 1.626117	 1.797390	 -0.600791	 -0.725636	 0.093044	 0.764201	 -0.427554	 0.473854	 2
1462096019.936	 5	 -1.167763	 -1.860107	 1.425658	 1.784154	 -0.584040	 -0.716714	 0.092194	 0.761461	 -0.420719	 0.484431	 2
1462096019.946	 5	 -1.358901	 -2.018813	 1.317137	 1.770861	 -0.568271	 -0.704570	 0.089879	 0.758730	 -0.413339	 0.495381	 2
1462096019.956	 5	 -1.397735	 -2.148102	 1.366363	 1.756677	 -0.552396	 -0.691495	 0.087161	 0.755689	 -0.405634	 0.506753	 2
1462096019.966	 5	 -1.401003	 -2.275808	 1.501621	 1.740860	 -0.535486	 -0.678396	 0.084553	 0.752082	 -0.397559	 0.518816	 2
1462096019.976	 5	 -1.363017	 -2.250513	 1.631548	 1.724709	 -0.517521	 -0.665716	 0.082510	 0.748202	 -0.389166	 0.530976	 2
1462096019.986	 5	 -1.415240	 -2.370448	 1.791817	 1.707595	 -0.498158	 -0.652779	 0.080786	 0.743890	 -0.380195	 0.543648	 2
1462096019.996	 5	 -1.482478	 -2.488366	 1.930920	 1.689483	 -0.477453	 -0.639105	 0.079206	 0.739128	 -0.370528	 0.556889	 2
1462096020.006	 5	 -1.596025	 -2.619566	 1.979713	 1.670358	 -0.456151	 -0.624070	 0.077319	 0.733920	 -0.360215	 0.570638	 2
1462096020.016	 5	 -1.753668	 -2.806093	 2.008126	 1.649985	 -0.434681	 -0.607229	 0.074812	 0.728202	 -0.349245	 0.584938	 2
1462096020.026	 5	 -1.962861	 -3.025750	 1.994048	 1.628341	 -0.413492	 -0.587821	 0.071296	 0.721977	 -0.337501	 0.599800	 2
1462096020.036	 5	 -2.226002	 -3.106243	 1.934842	 1.606173	 -0.392975	 -0.565413	 0.066647	 0.715468	 -0.324894	 0.614905	 2
1462096020.046	 5	 -2.522860	 -3.094110	 1.874659	 1.584846	 -0.373513	 -0.539529	 0.060816	 0.709113	 -0.311293	 0.629727	 2
1462096020.056	 5	 -2.791474	 -3.047412	 1.898748	 1.564713	 -0.354558	 -0.510393	 0.054138	 0.703005	 -0.296528	 0.644145	 2
1462096020.066	 5	 -2.912023	 -3.139781	 2.019369	 1.544023	 -0.335170	 -0.479341	 0.047174	 0.696516	 -0.280735	 0.658656	 2
1462096020.076	 5	 -2.907182	 -3.131375	 2.153691	 1.522731	 -0.315099	 -0.447765	 0.040531	 0.689577	 -0.264271	 0.673054	 2
1462096020.086	 5	 -2.816262	 -2.996455	 2.315085	 1.501688	 -0.294074	 -0.416618	 0.034774	 0.682456	 -0.247362	 0.686918	 2
1462096020.096	 5	 -2.593867	 -2.836223	 2.500082	 1.481222	 -0.271727	 -0.386977	 0.030444	 0.675268	 -0.230293	 0.700037	 2
1462096020.106	 5	 -2.230670	 -2.682849	 2.676330	 1.460867	 -0.247836	 -0.360287	 0.028046	 0.667859	 -0.213570	 0.712437	 2
1462096020.116	 5	 -1.769498	 -2.497444	 2.762498	 1.440727	 -0.222813	 -0.337611	 0.027770	 0.660288	 -0.197780	 0.723969	 2
1462096020.126	 5	 -1.218217	 -2.312335	 2.697606	 1.420831	 -0.197722	 -0.319945	 0.029506	 0.652597	 -0.183713	 0.734504	 2
1462096020.136	 5	 -0.681361	 -2.127134	 2.493226	 1.401431	 -0.173854	 -0.307695	 0.032854	 0.644913	 -0.172008	 0.743923	 2
1462096020.146	 5	 -0.345655	 -2.079415	 2.317017	 1.381963	 -0.151422	 -0.299343	 0.037120	 0.637055	 -0.162246	 0.752635	 2
1462096020.156	 5	 -0.297961	 -2.140257	 2.306444	 1.361803	 -0.129469	 -0.291850	 0.041612	 0.628808	 -0.153034	 0.761216	 2
1462096020.166	 5	 -0.396350	 -2.235253	 2.367165	 1.340754	 -0.107347	 -0.283067	 0.045895	 0.620113	 -0.143372	 0.769933	 2
1462096020.176	 5	 -0.444513	 -2.372451	 2.495265	 1.318301	 -0.084477	 -0.272860	 0.050153	 0.610753	 -0.133040	 0.778951	 2
1462096020.186	 5	 -0.389968	 -2.426174	 2.589143	 1.294892	 -0.060752	 -0.262186	 0.054789	 0.600867	 -0.122378	 0.788024	 2
1462096020.196	 5	 -0.314129	 -2.499029	 2.693315	 1.270549	 -0.036174	 -0.251414	 0.059943	 0.590445	 -0.111547	 0.797081	 2
1462096020.206	 5	 -0.188012	 -2.358974	 2.843793	 1.246750	 -0.010154	 -0.240660	 0.065984	 0.580045	 -0.100403	 0.805676	 2
1462096020.216	 5	 -0.075000	 -2.256333	 2.963129	 1.224020	 0.017227	 -0.230074	 0.072946	 0.569886	 -0.089030	 0.813623	 2
1462096020.226	 5	 -0.005076	 -2.481014	 3.102176	 1.199706	 0.045829	 -0.219103	 0.080503	 0.558922	 -0.077364	 0.821669	 2
1462096020.236	 5	 0.124799	 -2.666511	 3.242131	 1.172738	 0.075946	 -0.207838	 0.088809	 0.546678	 -0.065448	 0.830044	 2
1462096020.246	 5	 0.292490	 -2.814195	 3.184943	 1.144063	 0.106425	 -0.197208	 0.097719	 0.533547	 -0.054003	 0.838369	 2
1462096020.256	 5	 0.484899	 -2.955139	 2.894201	 1.113784	 0.135185	 -0.188343	 0.106669	 0.519615	 -0.044101	 0.846568	 2
1462096020.266	 5	 0.722498	 -2.994313	 2.575236	 1.082941	 0.161806	 -0.182116	 0.115680	 0.505285	 -0.036191	 0.854398	 2
1462096020.276	 5	 0.988806	 -2.879978	 2.316067	 1.053179	 0.187077	 -0.178619	 0.125057	 0.491194	 -0.030015	 0.861503	 2
1462096020.286	 5	 1.349360	 -2.733674	 2.103268	 1.025513	 0.211998	 -0.178535	 0.135316	 0.477666	 -0.025551	 0.867682	 2
1462096020.296	 5	 1.725079	 -2.599662	 1.961629	 0.999949	 0.237546	 -0.181915	 0.146798	 0.464612	 -0.022580	 0.872969	 2
1462096020.306	 5	 2.042207	 -2.516960	 1.907415	 0.976135	 0.264375	 -0.187993	 0.159528	 0.451850	 -0.020644	 0.877471	 2
1462096020.316	 5	 2.246456	 -2.435598	 1.915985	 0.953620	 0.292617	 -0.195502	 0.173221	 0.439235	 -0.019194	 0.881305	 2
1462096020.326	 5	 2.358925	 -2.352922	 1.922170	 0.932250	 0.321911	 -0.203468	 0.187477	 0.426786	 -0.017898	 0.884526	 2
1462096020.336	 5	 2.414683	 -2.234509	 1.847115	 0.912027	 0.350492	 -0.211646	 0.201461	 0.414668	 -0.017030	 0.887228	 2
1462096020.346	 5	 2.426028	 -2.240549	 1.753168	 0.892130	 0.377748	 -0.220016	 0.214880	 0.402590	 -0.016772	 0.889644	 2
1462096020.356	 5	 2.362072	 -2.367658	 1.653424	 0.871694	 0.405032	 -0.228225	 0.228234	 0.390100	 -0.016748	 0.891880	 2
1462096020.366	 5	 2.245667	 -2.726717	 1.521072	 0.848271	 0.430928	 -0.235871	 0.240806	 0.376297	 -0.017382	 0.894489	 2
1462096020.376	 5	 2.190871	 -2.896843	 1.360097	 0.822569	 0.454717	 -0.243399	 0.252364	 0.361536	 -0.018965	 0.897354	 2
1462096020.386	 5	 2.042655	 -3.014135	 1.260111	 0.795487	 0.477369	 -0.250247	 0.263233	 0.346214	 -0.020933	 0.900226	 2
1462096020.396	 5	 1.828694	 -3.230478	 1.115013	 0.766140	 0.497643	 -0.255759	 0.272747	 0.330171	 -0.023351	 0.903355	 2
1462096020.406	 5	 1.648451	 -3.493047	 0.915902	 0.734084	 0.515170	 -0.260729	 0.280871	 0.313162	 -0.026692	 0.906823	 2
1462096020.416	 5	 1.433570	 -3.799632	 0.646344	 0.699187	 0.530014	 -0.265683	 0.287688	 0.295054	 -0.031175	 0.910608	 2
1462096020.426	 5	 1.207932	 -4.090548	 0.334387	 0.660659	 0.538921	 -0.270625	 0.291694	 0.275822	 -0.037444	 0.915115	 2
1462096020.436	 5	 0.961640	 -4.260987	 0.053574	 0.620587	 0.545077	 -0.276179	 0.294361	 0.255986	 -0.044832	 0.919681	 2
1462096020.446	 5	 0.665042	 -4.228183	 -0.235560	 0.581284	 0.549440	 -0.282581	 0.296152	 0.236474	 -0.052891	 0.923892	 2
1462096020.456	 5	 0.348450	 -3.928185	 -0.501782	 0.544790	 0.550672	 -0.289601	 0.296465	 0.218413	 -0.061362	 0.927706	 2
1462096020.466	 5	 0.161799	 -3.549060	 -0.657559	 0.512310	 0.549233	 -0.297124	 0.295537	 0.202354	 -0.069872	 0.931036	 2
1462096020.476	 5	 0.019679	 -2.876728	 -0.696959	 0.485538	 0.546370	 -0.304558	 0.293970	 0.189072	 -0.077676	 0.933702	 2
1462096020.486	 5	 0.056654	 -2.307553	 -0.662143	 0.464927	 0.543641	 -0.311746	 0.292547	 0.178667	 -0.084417	 0.935611	 2
1462096020.496	 5	 0.161474	 -1.833248	 -0.628801	 0.449254	 0.542036	 -0.319111	 0.291769	 0.170421	 -0.090361	 0.936836	 2
1462096020.506	 5	 0.300830	 -1.493148	 -0.607666	 0.437590	 0.541790	 -0.326862	 0.291761	 0.163850	 -0.095725	 0.937478	 2
1462096020.516	 5	 0.477263	 -1.392851	 -0.639176	 0.428116	 0.543090	 -0.335626	 0.292598	 0.157991	 -0.101057	 0.937664	 2
1462096020.536	 6	 0.723084	 -1.870067	 -0.785371	 0.406756	 0.549054	 -0.357629	 0.295851	 0.144092	 -0.113793	 0.937423	 2
1462096020.546	 6	 0.691018	 -2.156716	 -0.725945	 0.391767	 0.552665	 -0.368944	 0.297418	 0.134985	 -0.120893	 0.937394	 2
1462096020.566	 7	 0.284245	 -2.002413	 -0.146522	 0.355774	 0.558173	 -0.381943	 0.298489	 0.115547	 -0.131729	 0.938190	 2
1462096020.576	 7	 0.067421	 -1.703159	 0.257811	 0.337363	 0.559839	 -0.380564	 0.297958	 0.106924	 -0.133649	 0.939109	 2
1462096020.586	 7	 -0.056943	 -1.467972	 0.371922	 0.319877	 0.560704	 -0.376372	 0.296970	 0.099236	 -0.134191	 0.940188	 2
1462096020.596	 7	 -0.051413	 -1.323170	 0.248527	 0.304529	 0.560985	 -0.372921	 0.295902	 0.092497	 -0.134815	 0.941122	 2
1462096020.606	 7	 0.092436	 -1.222756	 0.073424	 0.291428	 0.561793	 -0.371777	 0.295338	 0.086413	 -0.136136	 0.941687	 2
1462096020.616	 7	 0.350827	 -1.087235	 -0.054390	 0.280838	 0.564414	 -0.373012	 0.295879	 0.080962	 -0.138040	 0.941725	 2
1462096020.626	 7	 0.616565	 -0.816100	 -0.105338	 0.273455	 0.569457	 -0.375917	 0.297817	 0.076513	 -0.140045	 0.941190	 2
1462096020.636	 7	 0.829323	 -0.498781	 -0.115961	 0.269806	 0.576691	 -0.379735	 0.301054	 0.073444	 -0.141735	 0.940151	 2
1462096020.646	 7	 0.934080	 -0.236374	 -0.115497	 0.269083	 0.585201	 -0.383964	 0.305091	 0.071536	 -0.143064	 0.938794	 2
1462096020.656	 7	 0.900569	 0.082116	 -0.064282	 0.271288	 0.593834	 -0.387891	 0.309374	 0.071016	 -0.143783	 0.937321	 2
1462096020.666	 7	 0.770102	 0.326302	 0.114977	 0.275111	 0.601752	 -0.389768	 0.313362	 0.071635	 -0.143338	 0.936017	 2
1462096020.676	 7	 0.670657	 0.345042	 0.312117	 0.278180	 0.609123	 -0.388948	 0.316940	 0.072377	 -0.141785	 0.934991	 2
1462096020.686	 7	 0.639744	 0.254509	 0.428778	 0.279453	 0.616434	 -0.386353	 0.320293	 0.072570	 -0.139684	 0.934149	 2
1462096020.696	 7	 0.634684	 0.282443	 0.465318	 0.280189	 0.623829	 -0.383100	 0.323619	 0.072616	 -0.137351	 0.933345	 2
1462096020.706	 7	 0.584604	 0.463929	 0.537783	 0.281877	 0.630995	 -0.378975	 0.326867	 0.073284	 -0.134476	 0.932579	 2
1462096020.716	 7	 0.555882	 0.694942	 0.555103	 0.285523	 0.637939	 -0.374282	 0.330114	 0.074992	 -0.131031	 0.931790	 2
1462096020.726	 7	 0.530432	 0.812360	 0.456236	 0.291055	 0.644484	 -0.370340	 0.333315	 0.077508	 -0.127651	 0.930913	 2
1462096020.736	 7	 0.445666	 0.870826	 0.271009	 0.298418	 0.649931	 -0.368274	 0.336185	 0.080685	 -0.124927	 0.929980	 2
1462096020.746	 7	 0.287030	 0.810977	 0.167389	 0.306153	 0.653628	 -0.367274	 0.338309	 0.084045	 -0.122792	 0.929196	 2
1462096020.756	 7	 0.141791	 0.583614	 0.143091	 0.311991	 0.655745	 -0.366179	 0.339582	 0.086709	 -0.121081	 0.928711	 2
1462096020.766	 7	 0.056068	 0.305016	 0.117798	 0.314975	 0.656837	 -0.364957	 0.340205	 0.088183	 -0.119896	 0.928498	 2
1462096020.776	 7	 0.016538	 0.098540	 0.083183	 0.315787	 0.657358	 -0.363949	 0.340446	 0.088674	 -0.119237	 0.928448	 2
1462096020.786	 7	 0.014041	 0.041898	 0.044107	 0.328047	 0.623318	 -0.370610	 0.325980	 0.097023	 -0.123803	 0.932200	 2
1462096020.796	 7	 0.042017	 0.127647	 -0.000100	 0.329041	 0.623661	 -0.370626	 0.326198	 0.097446	 -0.123613	 0.932104	 2
1462096020.806	 7	 0.102480	 0.304846	 -0.034148	 0.331984	 0.624384	 -0.371263	 0.326742	 0.098633	 -0.123353	 0.931824	 2
1462096020.816	 7	 0.174669	 0.487258	 -0.077841	 0.337268	 0.625658	 -0.372675	 0.327719	 0.100720	 -0.123012	 0.931302	 2
1462096020.826	 7	 0.197432	 0.587001	 -0.104846	 0.351125	 0.626182	 -0.378766	 0.329126	 0.106109	 -0.123514	 0.930140	 2
1462096020.836	 7	 0.111090	 0.605358	 -0.101792	 0.358224	 0.627132	 -0.380571	 0.330093	 0.109003	 -0.123078	 0.929521	 2
1462096020.846	 7	 -0.103286	 0.580904	 -0.040471	 0.364425	 0.626524	 -0.381093	 0.330226	 0.111869	 -0.122365	 0.929227	 2
1462096020.856	 7	 -0.395546	 0.516644	 0.073381	 0.368665	 0.623706	 -0.379182	 0.329096	 0.114480	 -0.121099	 0.929476	 2
1462096020.866	 7	 -0.687021	 0.404414	 0.172925	 0.370434	 0.618490	 -0.374722	 0.326575	 0.116635	 -0.119330	 0.930326	 2
1462096020.876	 7	 -0.884021	 0.212965	 0.240002	 0.369462	 0.611449	 -0.368420	 0.322942	 0.118008	 -0.117354	 0.931671	 2
1462096020.886	 7	 -0.944911	 -0.055693	 0.275333	 0.365532	 0.603652	 -0.361273	 0.318733	 0.118195	 -0.115529	 0.933323	 2
1462096020.896	 7	 -0.856691	 -0.362228	 0.281305	 0.358735	 0.596360	 -0.354274	 0.314595	 0.116929	 -0.114141	 0.935056	 2
1462096020.916	 8	 -0.507576	 -0.807630	 0.310356	 0.338881	 0.586344	 -0.342608	 0.308202	 0.110515	 -0.112837	 0.938118	 2
1462096020.926	 8	 -0.300910	 -0.857403	 0.277187	 0.327746	 0.583946	 -0.337856	 0.306211	 0.106267	 -0.112563	 0.939293	 2
1462096020.936	 8	 -0.082852	 -0.669695	 0.142749	 0.319007	 0.583244	 -0.335367	 0.305264	 0.102613	 -0.112800	 0.939979	 2
1462096020.946	 8	 0.061852	 -0.295844	 0.126850	 0.314383	 0.583894	 -0.334098	 0.305239	 0.100568	 -0.112845	 0.940203	 2
1462096020.956	 8	 0.165007	 0.033967	 0.181243	 0.313173	 0.585755	 -0.332698	 0.305962	 0.100026	 -0.112190	 0.940104	 2
1462096020.966	 8	 0.205913	 0.311651	 0.209049	 0.314763	 0.588280	 -0.331124	 0.307140	 0.100760	 -0.110961	 0.939787	 2
1462096020.976	 8	 0.177088	 0.496080	 0.255778	 0.318190	 0.590818	 -0.329067	 0.308397	 0.102433	 -0.109219	 0.939399	 2
1462096020.986	 8	 0.106092	 0.540437	 0.330347	 0.321856	 0.592993	 -0.325996	 0.309441	 0.104411	 -0.106996	 0.939093	 2
1462096020.996	 8	 0.027084	 0.454132	 0.424018	 0.324213	 0.594706	 -0.321604	 0.310126	 0.106028	 -0.104399	 0.938979	 2
1462096021.006	 8	 -0.014881	 0.293344	 0.528398	 0.324332	 0.596236	 -0.315814	 0.310531	 0.106832	 -0.101510	 0.939070	 2
1462096021.016	 8	 -0.007921	 0.108916	 0.619343	 0.321998	 0.598009	 -0.308915	 0.310866	 0.106636	 -0.098458	 0.939307	 2
1462096021.026	 8	 0.020426	 -0.068116	 0.712301	 0.317319	 0.600292	 -0.301046	 0.311278	 0.105446	 -0.095268	 0.939634	 2
1462096021.036	 8	 0.045613	 -0.222916	 0.789508	 0.310503	 0.603068	 -0.292305	 0.311788	 0.103347	 -0.091957	 0.940027	 2
1462096021.046	 8	 0.041055	 -0.324660	 0.837626	 0.302118	 0.605983	 -0.282891	 0.312281	 0.100611	 -0.088568	 0.940486	 2
1462096021.056	 8	 0.014385	 -0.358309	 0.880176	 0.292853	 0.608742	 -0.272862	 0.312663	 0.097580	 -0.085048	 0.941003	 2
1462096021.066	 8	 -0.014162	 -0.333488	 0.917957	 0.283315	 0.611258	 -0.262210	 0.312924	 0.094544	 -0.081306	 0.941557	 2
1462096021.076	 8	 -0.041410	 -0.250254	 0.944547	 0.274176	 0.613502	 -0.251063	 0.313088	 0.091803	 -0.077296	 0.942111	 2
1462096021.096	 9	 0.047620	 -0.111549	 0.893906	 0.258448	 0.618225	 -0.229244	 0.313737	 0.087448	 -0.069097	 0.942946	 2
1462096021.106	 9	 0.149030	 -0.079103	 0.862418	 0.251828	 0.621614	 -0.219291	 0.314667	 0.085646	 -0.065183	 0.943080	 2
1462096021.116	 9	 0.256607	 -0.089285	 0.821953	 0.245568	 0.625904	 -0.210042	 0.316082	 0.083854	 -0.061487	 0.943016	 2
1462096021.126	 9	 0.320544	 -0.085423	 0.793722	 0.239595	 0.630810	 -0.201369	 0.317838	 0.082084	 -0.057986	 0.942804	 2
1462096021.136	 9	 0.343900	 -0.105752	 0.786959	 0.233561	 0.635971	 -0.192843	 0.319737	 0.080265	 -0.054563	 0.942523	 2
1462096021.146	 9	 0.330016	 -0.098350	 0.775425	 0.227480	 0.641023	 -0.184397	 0.321604	 0.078439	 -0.051210	 0.942229	 2
1462096021.156	 9	 0.271734	 -0.039433	 0.809519	 0.221568	 0.645603	 -0.175469	 0.323254	 0.076819	 -0.047650	 0.941985	 2
1462096021.166	 9	 0.203849	 0.003696	 0.862734	 0.215612	 0.649605	 -0.165678	 0.324619	 0.075370	 -0.043744	 0.941822	 2
1462096021.176	 9	 0.120945	 0.031964	 0.913810	 0.209378	 0.652907	 -0.154976	 0.325635	 0.073993	 -0.039510	 0.941767	 2
1462096021.186	 9	 0.027109	 0.031320	 0.933805	 0.202808	 0.655309	 -0.143613	 0.326221	 0.072627	 -0.035085	 0.941846	 2
1462096021.196	 9	 -0.072446	 -0.021674	 0.919258	 0.195705	 0.656681	 -0.132063	 0.326332	 0.071100	 -0.030724	 0.942076	 2
1462096021.206	 9	 -0.188275	 -0.117283	 0.888469	 0.187803	 0.656842	 -0.120608	 0.325893	 0.069237	 -0.026607	 0.942493	 2
1462096021.216	 9	 -0.245794	 -0.239067	 0.791918	 0.179147	 0.656010	 -0.109807	 0.325027	 0.066949	 -0.022968	 0.943052	 2
1462096021.226	 9	 -0.228813	 -0.356165	 0.638277	 0.170409	 0.654865	 -0.100951	 0.324104	 0.064310	 -0.020265	 0.943616	 2
1462096021.236	 9	 -0.166398	 -0.407958	 0.561582	 0.161848	 0.653987	 -0.093375	 0.323370	 0.061528	 -0.018117	 0.944096	 2
1462096021.246	 9	 -0.061100	 -0.423668	 0.491245	 0.153625	 0.653916	 -0.086861	 0.323070	 0.058701	 -0.016374	 0.944411	 2
1462096021.256	 9	 0.038286	 -0.353055	 0.442011	 0.146467	 0.654732	 -0.081254	 0.323238	 0.056200	 -0.014848	 0.944531	 2
1462096021.266	 9	 0.133576	 -0.262080	 0.412187	 0.140552	 0.656421	 -0.076214	 0.323853	 0.054171	 -0.013357	 0.944461	 2
1462096021.276	 9	 0.208595	 -0.181581	 0.396296	 0.135690	 0.658872	 -0.071549	 0.324853	 0.052562	 -0.011848	 0.944229	 2
1462096021.286	 9	 0.251630	 -0.107260	 0.395548	 0.131654	 0.661800	 -0.067003	 0.326093	 0.051317	 -0.010250	 0.943888	 2
1462096021.296	 9	 0.274438	 -0.037009	 0.411989	 0.128236	 0.664999	 -0.062331	 0.327465	 0.050385	 -0.008489	 0.943481	 2
1462096021.306	 9	 0.286558	 0.012154	 0.449643	 0.125098	 0.668369	 -0.057241	 0.328913	 0.049658	 -0.006486	 0.943031	 2
1462096021.316	 9	 0.292195	 0.055918	 0.473448	 0.122152	 0.671840	 -0.051761	 0.330404	 0.049093	 -0.004272	 0.942552	 2
1462096021.326	 9	 0.273230	 0.110336	 0.480544	 0.126687	 0.693776	 -0.050606	 0.340688	 0.050927	 -0.002232	 0.938793	 2
1462096021.336	 9	 0.226645	 0.170196	 0.502822	 0.124365	 0.696788	 -0.044575	 0.341946	 0.050801	 0.000303	 0.938345	 2
1462096021.346	 9	 0.161693	 0.207557	 0.495209	 0.122419	 0.699166	 -0.038394	 0.342905	 0.050899	 0.002947	 0.937986	 2
1462096021.356	 9	 0.084750	 0.203371	 0.473459	 0.120581	 0.700794	 -0.032344	 0.343517	 0.051044	 0.005520	 0.937742	 2
1462096021.366	 9	 -0.003924	 0.196129	 0.461374	 0.123917	 0.707635	 -0.029732	 0.346642	 0.052936	 0.007533	 0.936472	 2
1462096021.376	 9	 -0.081907	 0.187775	 0.451318	 0.121907	 0.707564	 -0.023704	 0.346458	 0.053041	 0.010006	 0.936511	 2
1462096021.386	 9	 -0.150227	 0.174229	 0.462444	 0.119677	 0.706788	 -0.017526	 0.345943	 0.053078	 0.012489	 0.936670	 2
1462096021.396	 9	 -0.187550	 0.152244	 0.495603	 0.116950	 0.705569	 -0.010890	 0.345215	 0.052964	 0.015091	 0.936906	 2
