% Gyrometer data recorded with 'snsrlog'
% 
% 
% Label description:
% 	 0: Default Label
% 	 1: still_drop
% 	 2: walk_drop
% 	 3: other
% 	 4: dtw_same
% 	 5: dtw_diff
% 	 6: delete
% 	 7: steal
% 
% Column description:
% 	 1: Seconds.milliseconds since 1970
% 	 2: Number of skipped measurements
% 	 3: Gyro X
% 	 4: Gyro Y
% 	 5: Gyro Z
% 	 6: Roll of the device
% 	 7: Pitch of the device
% 	 8: Yaw of the device
% 	 9: Quaternion X
% 	 10: Quaternion Y
% 	 11: Quaternion Z
% 	 12: Quaternion W
% 	 13: Label used for the current sample
% 
% 
1463570506.135	 0	 0.249196	 1.431733	 -0.567981	 0.107004	 0.424688	 0.046310	 0.209184	 0.057134	 0.033868	 0.975618	 1
1463570506.145	 0	 0.310430	 1.950758	 -0.545567	 0.127841	 0.427048	 0.039980	 0.210182	 0.066641	 0.033028	 0.974829	 1
1463570506.155	 0	 0.260912	 2.397942	 -0.647551	 0.153783	 0.428949	 0.032812	 0.210945	 0.078527	 0.032329	 0.973802	 1
1463570506.165	 0	 0.131602	 2.918566	 -0.774800	 0.185045	 0.429326	 0.024464	 0.210987	 0.092858	 0.031579	 0.972556	 1
1463570506.175	 0	 -0.049714	 3.224916	 -0.843909	 0.220431	 0.427646	 0.015493	 0.210071	 0.109118	 0.030864	 0.971087	 1
1463570506.185	 0	 -0.203121	 3.454500	 -0.780754	 0.257815	 0.424069	 0.007364	 0.208239	 0.126440	 0.030623	 0.969387	 1
1463570506.195	 0	 -0.204319	 3.502602	 -0.602316	 0.295602	 0.420287	 0.001019	 0.206253	 0.144129	 0.031212	 0.967322	 1
1463570506.205	 0	 -0.075820	 3.593539	 -0.330819	 0.332792	 0.417956	 -0.002796	 0.204821	 0.161739	 0.033013	 0.964779	 1
1463570506.215	 0	 0.144675	 3.701475	 -0.024795	 0.370123	 0.418416	 -0.004166	 0.204513	 0.179569	 0.036213	 0.961571	 1
1463570506.225	 0	 0.414823	 3.759845	 0.213193	 0.407508	 0.422225	 -0.003966	 0.205605	 0.197447	 0.040502	 0.957654	 1
1463570506.235	 0	 0.613129	 3.678782	 0.261868	 0.444567	 0.428553	 -0.003941	 0.207833	 0.215006	 0.045000	 0.953180	 1
1463570506.245	 0	 0.614805	 3.697982	 0.123483	 0.481992	 0.434867	 -0.005384	 0.210117	 0.232486	 0.048934	 0.948371	 1
1463570506.255	 0	 0.494223	 3.641577	 -0.076355	 0.519973	 0.439379	 -0.008412	 0.211656	 0.250001	 0.052054	 0.943394	 1
1463570506.265	 0	 0.366142	 3.357543	 -0.281444	 0.556240	 0.441583	 -0.012849	 0.212303	 0.266525	 0.054098	 0.938597	 1
1463570506.275	 0	 0.280573	 2.991874	 -0.433308	 0.589406	 0.441927	 -0.018338	 0.212311	 0.281459	 0.055096	 0.934168	 1
1463570506.285	 0	 0.249872	 2.750220	 -0.621798	 0.620256	 0.440786	 -0.025095	 0.211904	 0.295163	 0.055052	 0.930024	 1
1463570506.295	 0	 0.289188	 2.721499	 -0.899505	 0.651294	 0.438088	 -0.034243	 0.211192	 0.308707	 0.053675	 0.925860	 1
1463570506.305	 0	 0.408470	 2.914739	 -1.190765	 0.684971	 0.434066	 -0.046476	 0.210393	 0.323150	 0.050923	 0.921258	 1
1463570506.315	 0	 0.622826	 3.322822	 -1.444617	 0.723611	 0.429400	 -0.062105	 0.209902	 0.339483	 0.047006	 0.915687	 1
1463570506.325	 0	 0.891301	 3.849174	 -1.647748	 0.768638	 0.424583	 -0.081141	 0.210036	 0.358287	 0.042176	 0.908701	 1
1463570506.335	 0	 1.105329	 4.356668	 -1.833530	 0.819976	 0.419266	 -0.103135	 0.210697	 0.379516	 0.036600	 0.900130	 1
1463570506.345	 1	 1.181011	 4.756826	 -2.062801	 0.876363	 0.411983	 -0.127206	 0.211238	 0.402711	 0.030270	 0.890104	 1
1463570506.365	 1	 1.113833	 5.010199	 -2.350811	 0.994523	 0.389066	 -0.176356	 0.210453	 0.451243	 0.015915	 0.867085	 1
1463570506.375	 1	 1.152154	 5.102706	 -2.485636	 1.054325	 0.374058	 -0.200515	 0.209365	 0.475743	 0.008081	 0.854265	 1
1463570506.385	 1	 1.259593	 5.180853	 -2.665958	 1.114775	 0.356647	 -0.225231	 0.208080	 0.500369	 -0.000621	 0.840436	 1
1463570506.395	 1	 1.409720	 5.301055	 -2.896352	 1.176132	 0.336460	 -0.250917	 0.206652	 0.525191	 -0.010484	 0.825445	 1
1463570506.405	 1	 1.611297	 5.514313	 -3.180681	 1.239300	 0.312969	 -0.277900	 0.205102	 0.550553	 -0.021740	 0.808920	 1
1463570506.415	 1	 1.855475	 5.735730	 -3.496212	 1.304539	 0.285608	 -0.306372	 0.203454	 0.576520	 -0.034653	 0.790589	 1
1463570506.425	 1	 2.020965	 5.836790	 -3.866532	 1.370482	 0.253539	 -0.335461	 0.201322	 0.602629	 -0.049333	 0.770632	 1
1463570506.435	 1	 2.071660	 5.861161	 -4.298381	 1.435585	 0.215698	 -0.363532	 0.197949	 0.628473	 -0.065742	 0.749344	 1
1463570506.445	 1	 2.113377	 5.786691	 -4.723610	 1.498773	 0.171944	 -0.389674	 0.193069	 0.653662	 -0.083833	 0.726926	 1
1463570506.455	 1	 2.156898	 5.600892	 -5.099801	 1.558803	 0.122797	 -0.413483	 0.186722	 0.677631	 -0.103533	 0.703727	 1
1463570506.465	 1	 2.143943	 5.373233	 -5.404483	 1.615107	 0.069134	 -0.434180	 0.178876	 0.700070	 -0.124416	 0.680019	 1
1463570506.475	 1	 2.148272	 5.123757	 -5.630652	 1.667711	 0.011976	 -0.451604	 0.169714	 0.720816	 -0.146134	 0.655947	 1
1463570506.485	 1	 2.249689	 4.762177	 -5.729753	 1.716058	 -0.047423	 -0.466694	 0.159809	 0.739429	 -0.168620	 0.631880	 1
1463570506.495	 1	 2.458229	 4.324042	 -5.635463	 1.759257	 -0.107324	 -0.480970	 0.150043	 0.755395	 -0.191740	 0.608359	 1
1463570506.505	 1	 2.705052	 3.960248	 -5.394807	 1.797706	 -0.166204	 -0.495704	 0.141237	 0.768756	 -0.215165	 0.585466	 1
1463570506.515	 1	 2.907670	 3.677842	 -5.095456	 1.832118	 -0.223312	 -0.511266	 0.133673	 0.779809	 -0.238530	 0.563145	 1
1463570506.525	 1	 3.000671	 3.463795	 -4.800910	 1.863305	 -0.278329	 -0.527140	 0.127193	 0.788956	 -0.261395	 0.541335	 1
1463570506.535	 1	 2.964178	 3.224150	 -4.568355	 1.891632	 -0.331356	 -0.542308	 0.121273	 0.796489	 -0.283424	 0.520162	 1
1463570506.545	 1	 2.823138	 2.894363	 -4.488132	 1.916885	 -0.383214	 -0.555450	 0.114978	 0.802551	 -0.304569	 0.499929	 1
1463570506.555	 1	 2.654288	 2.423410	 -4.525149	 1.938290	 -0.434907	 -0.565795	 0.107445	 0.807076	 -0.325063	 0.481059	 1
1463570506.565	 1	 2.492260	 1.809958	 -4.556090	 1.954599	 -0.486540	 -0.573419	 0.098319	 0.809834	 -0.345035	 0.464169	 1
1463570506.575	 1	 2.356165	 1.184359	 -4.491452	 1.965169	 -0.537372	 -0.579088	 0.087839	 0.810754	 -0.364397	 0.449641	 1
1463570506.595	 2	 2.233837	 0.388581	 -3.981963	 1.971998	 -0.632648	 -0.589925	 0.066063	 0.808151	 -0.400695	 0.426580	 1
1463570506.605	 2	 2.190655	 0.118740	 -3.516228	 1.969163	 -0.674753	 -0.597624	 0.056405	 0.805153	 -0.417204	 0.417717	 1
1463570506.615	 2	 2.094509	 -0.137574	 -2.966778	 1.962051	 -0.711586	 -0.607565	 0.048167	 0.801301	 -0.432183	 0.410871	 1
1463570506.625	 2	 1.930122	 -0.372496	 -2.428257	 1.951217	 -0.742731	 -0.619140	 0.041280	 0.796903	 -0.445366	 0.406067	 1
1463570506.635	 2	 1.715068	 -0.652482	 -1.964317	 1.937040	 -0.768500	 -0.631400	 0.035323	 0.792139	 -0.456707	 0.403343	 1
1463570506.645	 2	 1.449106	 -1.001173	 -1.608216	 1.919730	 -0.789649	 -0.643079	 0.029610	 0.787075	 -0.466258	 0.402791	 1
1463570506.655	 2	 1.125968	 -1.384558	 -1.365976	 1.900017	 -0.807066	 -0.652625	 0.023447	 0.781826	 -0.474032	 0.404340	 1
1463570506.665	 2	 0.822748	 -1.795012	 -1.181713	 1.878190	 -0.821511	 -0.659402	 0.016453	 0.776385	 -0.480173	 0.407908	 1
1463570506.675	 2	 0.595297	 -2.191982	 -1.013970	 1.853846	 -0.833483	 -0.664003	 0.008644	 0.770589	 -0.484970	 0.413427	 1
1463570506.685	 2	 0.469735	 -2.475497	 -0.853519	 1.827055	 -0.843421	 -0.667551	 0.000359	 0.764372	 -0.488783	 0.420507	 1
1463570506.695	 2	 0.479803	 -2.530571	 -0.670808	 1.798542	 -0.851513	 -0.671816	 -0.007587	 0.757839	 -0.492042	 0.428389	 1
1463570506.705	 2	 0.622377	 -2.365497	 -0.437111	 1.769058	 -0.857630	 -0.678853	 -0.014185	 0.751152	 -0.495183	 0.436306	 1
1463570506.715	 2	 0.809515	 -2.099959	 -0.118673	 1.739134	 -0.861007	 -0.689769	 -0.018642	 0.744476	 -0.498301	 0.443964	 1
1463570506.725	 2	 0.949787	 -1.852047	 0.243706	 1.709131	 -0.860912	 -0.704095	 -0.020798	 0.737905	 -0.501187	 0.451526	 1
1463570506.735	 2	 0.940713	 -1.603594	 0.620180	 1.680718	 -0.856863	 -0.719598	 -0.020875	 0.731766	 -0.503321	 0.459077	 1
1463570506.745	 2	 0.736241	 -1.335781	 0.947378	 1.656670	 -0.848973	 -0.732934	 -0.019385	 0.726609	 -0.504067	 0.466456	 1
1463570506.755	 2	 0.431679	 -1.175711	 1.190250	 1.637922	 -0.838062	 -0.741892	 -0.017114	 0.722593	 -0.503142	 0.473724	 1
1463570506.765	 2	 0.125131	 -1.155442	 1.367893	 1.623328	 -0.824937	 -0.746026	 -0.014750	 0.719443	 -0.500602	 0.481229	 1
1463570506.775	 2	 -0.140389	 -1.204906	 1.479518	 1.611505	 -0.810360	 -0.745894	 -0.012681	 0.716843	 -0.496712	 0.489134	 1
1463570506.785	 2	 -0.351608	 -1.271630	 1.579852	 1.601510	 -0.794727	 -0.742342	 -0.010969	 0.714587	 -0.491724	 0.497445	 1
1463570506.795	 2	 -0.574818	 -1.402046	 1.692487	 1.592609	 -0.777962	 -0.735699	 -0.009645	 0.712513	 -0.485648	 0.506337	 1
1463570506.805	 2	 -0.794091	 -1.627981	 1.835106	 1.583828	 -0.759866	 -0.725835	 -0.008915	 0.710383	 -0.478348	 0.516197	 1
1463570506.815	 2	 -0.994638	 -1.933933	 1.951239	 1.573933	 -0.740477	 -0.713142	 -0.008927	 0.707869	 -0.469879	 0.527310	 1
1463570506.825	 2	 -1.205400	 -2.261001	 1.938307	 1.562508	 -0.721119	 -0.697604	 -0.010222	 0.704828	 -0.460535	 0.539463	 1
1463570506.835	 2	 -1.407713	 -2.439740	 1.995956	 1.550337	 -0.701535	 -0.679307	 -0.012465	 0.701449	 -0.450225	 0.552368	 1
1463570506.845	 2	 -1.612116	 -2.376030	 2.045223	 1.539630	 -0.681603	 -0.658381	 -0.015051	 0.698337	 -0.438918	 0.565200	 1
1463570506.855	 2	 -1.812665	 -2.113957	 2.022763	 1.532368	 -0.661910	 -0.634931	 -0.017741	 0.696084	 -0.426780	 0.577072	 1
1463570506.865	 2	 -1.914808	 -1.762130	 1.950191	 1.528897	 -0.642991	 -0.610095	 -0.020313	 0.694857	 -0.414276	 0.587483	 1
1463570506.875	 2	 -1.854963	 -1.441758	 1.858865	 1.528162	 -0.624978	 -0.585786	 -0.022430	 0.694417	 -0.402011	 0.596381	 1
1463570506.885	 2	 -1.768128	 -1.253596	 1.734099	 1.528406	 -0.608083	 -0.563001	 -0.024216	 0.694279	 -0.390358	 0.604162	 1
1463570506.895	 2	 -1.784749	 -1.188228	 1.501451	 1.529013	 -0.593119	 -0.540730	 -0.026449	 0.694249	 -0.379275	 0.611121	 1
1463570506.905	 2	 -1.923584	 -1.155148	 1.167252	 1.530204	 -0.581399	 -0.517515	 -0.030072	 0.694362	 -0.368734	 0.617245	 1
1463570506.915	 2	 -2.192441	 -1.052832	 0.794331	 1.533368	 -0.573332	 -0.491856	 -0.035512	 0.694997	 -0.358446	 0.622282	 1
1463570506.925	 2	 -2.506921	 -0.892957	 0.420211	 1.539756	 -0.569095	 -0.462795	 -0.042974	 0.696478	 -0.348231	 0.625945	 1
1463570506.935	 2	 -2.760427	 -0.797322	 0.158999	 1.548904	 -0.567639	 -0.430652	 -0.052096	 0.698611	 -0.337925	 0.628519	 1
1463570506.945	 2	 -2.790298	 -0.741615	 -0.132898	 1.559202	 -0.568577	 -0.397424	 -0.062341	 0.700877	 -0.328052	 0.630291	 1
1463570506.955	 2	 -2.590817	 -0.628286	 -0.557754	 1.569554	 -0.573194	 -0.366008	 -0.073319	 0.702924	 -0.319942	 0.630998	 1
1463570506.965	 2	 -2.367636	 -0.376483	 -1.091301	 1.580814	 -0.582610	 -0.337060	 -0.085024	 0.704949	 -0.314244	 0.630134	 1
1463570506.975	 2	 -2.184084	 0.124917	 -1.689323	 1.595736	 -0.597608	 -0.309932	 -0.097485	 0.707675	 -0.311205	 0.626772	 1
1463570506.985	 2	 -2.008111	 0.803127	 -2.255793	 1.616774	 -0.618080	 -0.284033	 -0.110439	 0.711711	 -0.310861	 0.620191	 1
1463570506.995	 2	 -1.825930	 1.570424	 -2.708517	 1.645277	 -0.642949	 -0.258997	 -0.123347	 0.717330	 -0.312996	 0.610128	 1
1463570507.005	 2	 -1.664765	 2.336268	 -3.076877	 1.681965	 -0.671145	 -0.234083	 -0.135882	 0.724552	 -0.317269	 0.596575	 1
1463570507.015	 2	 -1.538451	 2.635024	 -3.335242	 1.724826	 -0.701612	 -0.208399	 -0.148195	 0.732550	 -0.323110	 0.580524	 1
1463570507.025	 2	 -1.280553	 0.497720	 -3.303033	 1.754248	 -0.732632	 -0.182081	 -0.162792	 0.735736	 -0.328535	 0.569435	 1
1463570507.035	 2	 -0.477936	 -1.625761	 -2.903476	 1.754118	 -0.761131	 -0.165084	 -0.177843	 0.731005	 -0.333565	 0.568100	 1
1463570507.045	 2	 0.434284	 -1.883115	 -2.383064	 1.736817	 -0.786165	 -0.161907	 -0.189631	 0.722788	 -0.339674	 0.571173	 1
1463570507.055	 2	 1.111437	 -0.513369	 -1.988276	 1.721149	 -0.808211	 -0.170901	 -0.195930	 0.716482	 -0.348204	 0.571855	 1
1463570507.065	 2	 1.377770	 1.164338	 -1.679767	 1.717533	 -0.827508	 -0.186428	 -0.197029	 0.714598	 -0.358728	 0.567312	 1
1463570507.075	 2	 1.494851	 2.263301	 -1.451013	 1.724165	 -0.844503	 -0.204647	 -0.194599	 0.716141	 -0.370147	 0.558806	 1
1463570507.085	 2	 1.746500	 2.853254	 -1.397624	 1.735286	 -0.860995	 -0.226438	 -0.189807	 0.719256	 -0.382687	 0.547900	 1
1463570507.095	 2	 2.077386	 2.991594	 -1.547359	 1.744646	 -0.879057	 -0.252984	 -0.184010	 0.722017	 -0.396678	 0.536170	 1
1463570507.105	 2	 2.329594	 3.181491	 -1.952789	 1.752626	 -0.902231	 -0.283233	 -0.178619	 0.723975	 -0.412932	 0.522917	 1
1463570507.115	 2	 1.754425	 2.476531	 -2.448855	 1.760388	 -0.928773	 -0.308227	 -0.176116	 0.724851	 -0.428584	 0.509794	 1
1463570507.125	 2	 0.653640	 1.432526	 -2.683453	 1.771705	 -0.956466	 -0.314151	 -0.180002	 0.724647	 -0.439885	 0.498986	 1
1463570507.135	 2	 0.395107	 1.255623	 -2.542168	 1.786478	 -0.982771	 -0.311940	 -0.185502	 0.724533	 -0.449016	 0.488903	 1
1463570507.145	 2	 0.473914	 0.919766	 -2.183620	 1.797624	 -1.005965	 -0.310752	 -0.190367	 0.723843	 -0.457102	 0.480489	 1
1463570507.155	 2	 0.537911	 0.609498	 -1.822574	 1.803023	 -1.025772	 -0.312312	 -0.194458	 0.722388	 -0.464227	 0.474169	 1
1463570507.165	 2	 0.402682	 0.595506	 -1.460233	 1.807757	 -1.041863	 -0.313729	 -0.197607	 0.721235	 -0.470064	 0.468840	 1
1463570507.175	 2	 0.218248	 0.561413	 -1.102980	 1.813950	 -1.054083	 -0.313168	 -0.199948	 0.720758	 -0.474365	 0.464226	 1
1463570507.185	 2	 0.117278	 0.541192	 -0.705825	 1.820530	 -1.062240	 -0.311836	 -0.201254	 0.720879	 -0.477263	 0.460489	 1
1463570507.195	 2	 0.109735	 0.539857	 -0.453186	 1.826294	 -1.067334	 -0.311413	 -0.201514	 0.721358	 -0.479337	 0.457461	 1
1463570507.205	 2	 0.140592	 0.533274	 -0.468437	 1.831471	 -1.072022	 -0.311670	 -0.201541	 0.721820	 -0.481383	 0.454563	 1
1463570507.215	 2	 0.150093	 0.404583	 -0.610398	 1.835946	 -1.077947	 -0.311589	 -0.202206	 0.721877	 -0.483668	 0.451742	 1
1463570507.225	 2	 0.132563	 0.145627	 -0.686193	 1.839103	 -1.084885	 -0.310591	 -0.203804	 0.721364	 -0.485931	 0.449409	 1
1463570507.235	 2	 0.061670	 -0.238664	 -0.613482	 1.839234	 -1.091212	 -0.308725	 -0.206267	 0.720169	 -0.487500	 0.448503	 1
1463570507.245	 2	 -0.075038	 -0.552532	 -0.536346	 1.838095	 -1.096474	 -0.304720	 -0.209498	 0.718630	 -0.488122	 0.448797	 1
1463570507.255	 2	 -0.239403	 -0.873539	 -0.428128	 1.836233	 -1.100383	 -0.297824	 -0.213549	 0.716832	 -0.487592	 0.450336	 1
1463570507.265	 2	 -0.317404	 -1.023226	 -0.274307	 1.833690	 -1.102591	 -0.289500	 -0.217780	 0.714990	 -0.486126	 0.452816	 1
1463570507.275	 2	 -0.283687	 -0.958903	 -0.190872	 1.830591	 -1.103821	 -0.281933	 -0.221586	 0.713248	 -0.484451	 0.455505	 1
1463570507.285	 2	 -0.169192	 -0.682573	 -0.173311	 1.827654	 -1.105016	 -0.276582	 -0.224545	 0.711778	 -0.483274	 0.457601	 1
1463570507.295	 2	 0.007330	 -0.091064	 -0.229027	 1.826908	 -1.106893	 -0.274569	 -0.225978	 0.711060	 -0.483315	 0.457967	 1
1463570507.305	 2	 0.208295	 0.581385	 -0.406765	 1.829872	 -1.110743	 -0.275951	 -0.225869	 0.711236	 -0.485164	 0.455788	 1
1463570507.315	 2	 0.398080	 0.982111	 -0.658340	 1.835103	 -1.117375	 -0.280211	 -0.224969	 0.711763	 -0.488783	 0.451523	 1
1463570507.325	 2	 0.493516	 0.891265	 -0.973350	 1.839899	 -1.127220	 -0.285440	 -0.224728	 0.711722	 -0.493552	 0.446492	 1
1463570507.335	 2	 0.372693	 0.256021	 -1.352292	 1.842889	 -1.140412	 -0.287070	 -0.227143	 0.710260	 -0.498330	 0.442271	 1
1463570507.345	 2	 0.084845	 -0.503541	 -1.742592	 1.793312	 -1.159157	 -0.328360	 -0.230437	 0.700748	 -0.507475	 0.445331	 1
1463570507.355	 2	 -0.221342	 -1.107073	 -2.076994	 1.797540	 -1.178313	 -0.313289	 -0.240202	 0.696631	 -0.510264	 0.443439	 1
1463570507.365	 2	 -0.442102	 -1.610756	 -2.248149	 1.804799	 -1.199000	 -0.289356	 -0.252597	 0.691602	 -0.511958	 0.442471	 1
1463570507.375	 2	 -0.466422	 -1.796750	 -2.239011	 1.813275	 -1.219744	 -0.261335	 -0.265936	 0.685976	 -0.513004	 0.442201	 1
1463570507.385	 2	 -0.323371	 -1.640129	 -2.143946	 1.821161	 -1.239887	 -0.234944	 -0.278511	 0.680206	 -0.514240	 0.441937	 1
1463570507.395	 2	 -0.144643	 -1.105439	 -2.113883	 1.830046	 -1.259873	 -0.212309	 -0.289331	 0.674909	 -0.516481	 0.440491	 1
1463570507.405	 2	 -0.022232	 -0.425676	 -2.194950	 1.843960	 -1.280668	 -0.191508	 -0.298271	 0.670539	 -0.520204	 0.436806	 1
1463570507.415	 2	 0.042930	 0.110646	 -2.278985	 1.864963	 -1.302453	 -0.169673	 -0.305755	 0.667046	 -0.525214	 0.430944	 1
1463570507.425	 2	 -0.005702	 0.257139	 -2.337947	 1.893762	 -1.324596	 -0.142495	 -0.312781	 0.663961	 -0.530606	 0.424006	 1
1463570507.435	 2	 -0.158382	 -0.177713	 -2.376900	 1.931418	 -1.346596	 -0.103420	 -0.320999	 0.660443	 -0.535154	 0.417595	 1
1463570507.445	 2	 -0.069244	 -0.837606	 -2.256991	 1.968695	 -1.367495	 -0.058407	 -0.330586	 0.655614	 -0.538455	 0.413460	 1
1463570507.455	 2	 -0.128196	 -1.207857	 -2.150149	 2.006034	 -1.387014	 -0.008672	 -0.340943	 0.649834	 -0.540728	 0.411202	 1
1463570507.465	 2	 -0.293281	 -1.239471	 -2.029641	 2.059090	 -1.404334	 0.057820	 -0.351534	 0.644429	 -0.541955	 0.409170	 1
1463570507.475	 2	 -0.246141	 -1.169850	 -1.797067	 2.119143	 -1.419204	 0.130670	 -0.361276	 0.639406	 -0.542786	 0.407460	 1
1463570507.485	 2	 -0.154415	 -1.115718	 -1.335887	 2.172578	 -1.430619	 0.196080	 -0.369397	 0.634897	 -0.543162	 0.406727	 1
1463570507.495	 2	 -0.132932	 -0.973686	 -0.662256	 2.205105	 -1.436644	 0.239200	 -0.375066	 0.631630	 -0.542544	 0.407448	 1
1463570507.505	 2	 -0.124784	 -0.632393	 -0.090034	 2.215617	 -1.437629	 0.257172	 -0.378016	 0.630084	 -0.541202	 0.408898	 1
1463570507.515	 2	 -0.030489	 -0.179052	 0.274657	 2.207381	 -1.435705	 0.251815	 -0.378304	 0.630013	 -0.540064	 0.410244	 1
1463570507.525	 2	 0.061599	 0.188919	 0.453130	 2.188148	 -1.432566	 0.231339	 -0.376618	 0.630905	 -0.539536	 0.411119	 1
1463570507.535	 2	 0.086274	 0.398860	 0.510390	 2.169360	 -1.419415	 0.208716	 -0.372638	 0.635316	 -0.536074	 0.412479	 1
1463570507.545	 2	 0.083523	 0.504080	 0.498604	 2.151415	 -1.415696	 0.185674	 -0.369562	 0.637019	 -0.536201	 0.412455	 1
1463570507.555	 2	 0.086641	 0.551371	 0.421216	 2.136962	 -1.412419	 0.165555	 -0.366510	 0.638725	 -0.536555	 0.412080	 1
1463570507.565	 2	 0.084771	 0.491923	 0.289591	 2.126952	 -1.410120	 0.150217	 -0.363922	 0.640149	 -0.537093	 0.411462	 1
1463570507.575	 2	 0.122065	 0.361184	 0.166471	 2.141358	 -1.412288	 0.160192	 -0.363592	 0.640646	 -0.538413	 0.409249	 1
1463570507.585	 2	 0.152712	 0.118186	 0.110655	 2.131410	 -1.412076	 0.148220	 -0.362402	 0.640846	 -0.538984	 0.409239	 1
1463570507.595	 2	 0.140457	 -0.197837	 0.087571	 2.119471	 -1.412046	 0.137346	 -0.362132	 0.640379	 -0.539039	 0.410137	 1
1463570507.605	 2	 0.105106	 -0.426632	 0.056974	 2.107439	 -1.412081	 0.128984	 -0.362704	 0.639412	 -0.538588	 0.411729	 1
1463570507.615	 2	 0.054382	 -0.520309	 0.025637	 2.097661	 -1.412142	 0.124194	 -0.363816	 0.638247	 -0.537822	 0.413555	 1
1463570507.625	 2	 -0.010930	 -0.554251	 0.012035	 2.091492	 -1.412046	 0.123467	 -0.365225	 0.637129	 -0.536815	 0.415340	 1
1463570507.635	 2	 -0.061363	 -0.623147	 0.024622	 2.087606	 -1.411615	 0.125632	 -0.366881	 0.636050	 -0.535507	 0.417218	 1
1463570507.645	 2	 -0.061752	 -0.705051	 0.023861	 2.083287	 -1.411281	 0.128205	 -0.368795	 0.634771	 -0.534062	 0.419326	 1
1463570507.655	 2	 -0.013940	 -0.734045	 0.005057	 2.077168	 -1.411046	 0.129418	 -0.370770	 0.633328	 -0.532596	 0.421623	 1
1463570507.675	 3	 0.119134	 -0.534835	 -0.044339	 2.058625	 -1.412186	 0.123548	 -0.374047	 0.630162	 -0.530771	 0.425755	 1
1463570507.685	 3	 0.161646	 -0.318161	 -0.072568	 2.063300	 -1.413851	 0.131727	 -0.375677	 0.629141	 -0.530465	 0.426210	 1
1463570507.695	 3	 0.181028	 0.039398	 -0.185577	 2.057209	 -1.416004	 0.126198	 -0.375938	 0.628256	 -0.531222	 0.426343	 1
1463570507.705	 3	 0.267169	 1.087137	 -0.432361	 2.062112	 -1.420326	 0.123448	 -0.374535	 0.628557	 -0.534174	 0.423435	 1
1463570507.715	 3	 -0.013196	 1.515403	 -0.596456	 2.089316	 -1.426129	 0.134146	 -0.371614	 0.630576	 -0.538952	 0.416902	 1
1463570507.735	 4	 -0.078578	 -0.296571	 -0.125695	 2.137081	 -1.428577	 0.182778	 -0.374480	 0.630703	 -0.538586	 0.414612	 1
1463570507.745	 4	 0.132432	 -0.740429	 0.060175	 2.124833	 -1.428818	 0.177154	 -0.376041	 0.629140	 -0.537540	 0.416926	 1
1463570507.755	 4	 0.221275	 -0.737040	 0.123379	 2.100469	 -1.428925	 0.160159	 -0.377263	 0.627210	 -0.536544	 0.420000	 1
1463570507.765	 4	 0.157090	 -0.546441	 0.126777	 2.079011	 -1.428714	 0.144593	 -0.378104	 0.625693	 -0.535699	 0.422578	 1
1463570507.775	 4	 0.030566	 -0.214279	 0.119246	 2.068180	 -1.427952	 0.136691	 -0.378401	 0.625119	 -0.535067	 0.423959	 1
1463570507.785	 4	 -0.040522	 0.095473	 0.123813	 2.066110	 -1.426739	 0.134372	 -0.378019	 0.625475	 -0.534761	 0.424162	 1
1463570507.795	 4	 -0.022306	 0.356898	 0.100509	 2.067354	 -1.425639	 0.132656	 -0.376957	 0.626385	 -0.534990	 0.423474	 1
1463570507.805	 4	 -0.013356	 0.486269	 0.050478	 2.070727	 -1.425012	 0.131355	 -0.375537	 0.627527	 -0.535689	 0.422159	 1
1463570507.815	 4	 -0.050211	 0.432615	 -0.029633	 2.077866	 -1.424896	 0.133967	 -0.374424	 0.628575	 -0.536439	 0.420634	 1
1463570507.825	 4	 -0.119587	 0.276907	 -0.115738	 2.090178	 -1.425222	 0.143187	 -0.374075	 0.629339	 -0.536917	 0.419190	 1
1463570507.835	 4	 -0.186943	 0.098839	 -0.204201	 2.108080	 -1.425935	 0.159845	 -0.374631	 0.629756	 -0.537024	 0.417929	 1
1463570507.845	 4	 -0.196334	 -0.033439	 -0.261836	 2.128613	 -1.427048	 0.180667	 -0.375853	 0.629801	 -0.536911	 0.416908	 1
1463570507.855	 4	 -0.143072	 -0.041153	 -0.277292	 2.147759	 -1.428521	 0.200490	 -0.377181	 0.629609	 -0.536895	 0.416017	 1
1463570507.865	 4	 -0.083767	 0.071559	 -0.257576	 2.164177	 -1.430181	 0.216705	 -0.378122	 0.629451	 -0.537203	 0.415005	 1
1463570507.875	 4	 -0.030415	 0.267356	 -0.223180	 2.178200	 -1.431851	 0.228688	 -0.378362	 0.629575	 -0.537955	 0.413620	 1
1463570507.885	 4	 0.004584	 0.435406	 -0.209132	 2.191073	 -1.433561	 0.237666	 -0.377960	 0.630005	 -0.539135	 0.411793	 1
1463570507.895	 4	 0.004702	 0.478854	 -0.231110	 2.204983	 -1.435407	 0.246894	 -0.377362	 0.630544	 -0.540515	 0.409702	 1
1463570507.905	 4	 -0.040558	 0.414921	 -0.265415	 2.222166	 -1.437313	 0.259870	 -0.377053	 0.631011	 -0.541776	 0.407596	 1
1463570507.915	 4	 -0.132437	 0.404459	 -0.278567	 2.245461	 -1.438832	 0.279330	 -0.377068	 0.631597	 -0.542751	 0.405371	 1
1463570507.925	 4	 -0.160808	 0.482324	 -0.259478	 2.272191	 -1.439857	 0.301649	 -0.376980	 0.632465	 -0.543646	 0.402893	 1
1463570507.935	 4	 -0.100639	 0.545102	 -0.231707	 2.296219	 -1.440883	 0.320504	 -0.376519	 0.633410	 -0.544754	 0.400335	 1
1463570507.945	 4	 -0.034398	 0.531339	 -0.196176	 2.314954	 -1.442077	 0.333970	 -0.375799	 0.634231	 -0.546021	 0.397979	 1
1463570507.955	 4	 -0.009879	 0.510361	 -0.167966	 2.330115	 -1.443265	 0.344059	 -0.374971	 0.634962	 -0.547294	 0.395841	 1
1463570507.965	 4	 -0.001359	 0.488161	 -0.145865	 2.343371	 -1.444325	 0.352438	 -0.374098	 0.635665	 -0.548507	 0.393854	 1
1463570507.975	 4	 -0.006903	 0.448782	 -0.151512	 2.356402	 -1.445339	 0.360933	 -0.373312	 0.636307	 -0.549641	 0.391977	 1
1463570507.985	 4	 -0.028641	 0.393296	 -0.184878	 2.371632	 -1.446414	 0.372168	 -0.372789	 0.636838	 -0.550676	 0.390156	 1
1463570507.995	 4	 -0.071843	 0.329218	 -0.238386	 2.391527	 -1.447533	 0.388749	 -0.372675	 0.637253	 -0.551565	 0.388326	 1
1463570508.005	 4	 -0.119215	 0.271658	 -0.274745	 2.416396	 -1.448542	 0.410920	 -0.372950	 0.637605	 -0.552276	 0.386470	 1
1463570508.015	 4	 -0.148273	 0.205920	 -0.258052	 2.442676	 -1.449179	 0.435162	 -0.373461	 0.637937	 -0.552740	 0.384762	 1
1463570508.025	 4	 -0.117370	 0.159350	 -0.213992	 2.465364	 -1.449620	 0.456323	 -0.373963	 0.638194	 -0.553078	 0.383360	 1
1463570508.035	 4	 -0.059532	 0.154292	 -0.154860	 2.481733	 -1.450100	 0.471265	 -0.374226	 0.638372	 -0.553457	 0.382258	 1
1463570508.045	 4	 -0.005831	 0.170574	 -0.088033	 2.491145	 -1.450592	 0.479081	 -0.374138	 0.638542	 -0.553908	 0.381407	 1
1463570508.055	 4	 0.022274	 0.208051	 -0.042102	 2.495695	 -1.451039	 0.481677	 -0.373724	 0.638775	 -0.554429	 0.380665	 1
1463570508.065	 4	 0.020334	 0.247512	 -0.032113	 2.511303	 -1.446985	 0.494818	 -0.373451	 0.640639	 -0.553347	 0.379373	 1
1463570508.075	 4	 -0.016898	 0.273144	 -0.032616	 2.516212	 -1.447123	 0.497073	 -0.372819	 0.641102	 -0.553887	 0.378422	 1
1463570508.085	 4	 -0.067056	 0.269070	 -0.027954	 2.523407	 -1.446854	 0.501581	 -0.372263	 0.641711	 -0.554276	 0.377366	 1
1463570508.095	 4	 -0.102391	 0.235215	 -0.017304	 2.531589	 -1.446193	 0.507365	 -0.371831	 0.642398	 -0.554462	 0.376348	 1
1463570508.105	 4	 -0.114225	 0.202510	 0.009127	 2.566965	 -1.440803	 0.540456	 -0.372557	 0.644675	 -0.552834	 0.374126	 1
1463570508.115	 4	 -0.107855	 0.170797	 0.038618	 2.571331	 -1.439700	 0.543058	 -0.372170	 0.645374	 -0.552750	 0.373430	 1
1463570508.125	 4	 -0.079151	 0.123062	 0.067765	 2.572401	 -1.438641	 0.542756	 -0.371759	 0.645982	 -0.552610	 0.372993	 1
1463570508.135	 4	 -0.045211	 0.067750	 0.080810	 2.570311	 -1.437769	 0.539852	 -0.371383	 0.646422	 -0.552439	 0.372860	 1
1463570508.145	 4	 -0.037835	 0.053856	 0.074217	 2.571060	 -1.436927	 0.539969	 -0.371199	 0.646820	 -0.552242	 0.372644	 1
1463570508.155	 4	 -0.025074	 0.056900	 0.059213	 2.568839	 -1.436332	 0.537186	 -0.370901	 0.647121	 -0.552127	 0.372590	 1
1463570508.165	 4	 -0.015452	 0.081158	 0.034843	 2.567735	 -1.435969	 0.535333	 -0.370599	 0.647379	 -0.552132	 0.372434	 1
1463570508.175	 4	 -0.015347	 0.118255	 0.017069	 2.568078	 -1.435726	 0.534572	 -0.370253	 0.647665	 -0.552247	 0.372111	 1
1463570508.185	 4	 -0.030205	 0.154349	 -0.000624	 2.594855	 -1.435760	 0.559695	 -0.370995	 0.647968	 -0.552558	 0.370377	 1
1463570508.195	 4	 -0.050309	 0.189518	 0.000944	 2.598468	 -1.435375	 0.561493	 -0.370576	 0.648432	 -0.552751	 0.369697	 1
1463570508.205	 4	 -0.038658	 0.170345	 0.001730	 2.601658	 -1.435002	 0.562903	 -0.370148	 0.648884	 -0.552943	 0.369046	 1
1463570508.215	 4	 -0.042108	 0.128845	 -0.005043	 2.623983	 -1.433148	 0.583678	 -0.370714	 0.649762	 -0.552560	 0.367502	 1
1463570508.225	 4	 -0.064643	 0.109705	 -0.013551	 2.627988	 -1.432698	 0.586576	 -0.370549	 0.650110	 -0.552602	 0.366990	 1
1463570508.235	 4	 -0.077548	 0.078982	 -0.002001	 2.631895	 -1.432064	 0.589627	 -0.370462	 0.650471	 -0.552530	 0.366546	 1
1463570508.245	 4	 -0.068079	 0.023874	 0.029376	 2.633554	 -1.431347	 0.590907	 -0.370421	 0.650776	 -0.552335	 0.366340	 1
1463570508.255	 4	 -0.042578	 -0.042883	 0.076560	 2.597261	 -1.429144	 0.555191	 -0.368797	 0.651442	 -0.551364	 0.368254	 1
1463570508.265	 4	 -0.005320	 -0.095885	 0.116242	 2.590477	 -1.428452	 0.549199	 -0.368706	 0.651525	 -0.550958	 0.368803	 1
1463570508.275	 4	 0.027775	 -0.094905	 0.118094	 2.581598	 -1.427988	 0.541225	 -0.368547	 0.651510	 -0.550620	 0.369494	 1
1463570508.285	 4	 0.045954	 -0.055874	 0.080997	 2.573920	 -1.427857	 0.534155	 -0.368355	 0.651436	 -0.550463	 0.370048	 1
1463570508.295	 4	 0.042797	 0.000177	 0.032470	 2.598971	 -1.427800	 0.559003	 -0.369553	 0.651498	 -0.550474	 0.368726	 1
1463570508.305	 4	 0.024801	 0.057438	 0.001187	 2.597913	 -1.428022	 0.557498	 -0.369357	 0.651508	 -0.550639	 0.368660	 1
1463570508.315	 4	 0.005713	 0.092511	 -0.010044	 2.598927	 -1.428158	 0.557664	 -0.369133	 0.651619	 -0.550847	 0.368377	 1
1463570508.325	 4	 -0.010241	 0.101092	 -0.006628	 2.600646	 -1.428138	 0.558385	 -0.368894	 0.651809	 -0.551023	 0.368015	 1
1463570508.335	 4	 -0.019911	 0.079936	 0.005018	 2.592472	 -1.425545	 0.549446	 -0.368199	 0.652810	 -0.550192	 0.368182	 1
1463570508.345	 4	 -0.020062	 0.037482	 0.017413	 2.592837	 -1.425299	 0.549324	 -0.368055	 0.652981	 -0.550189	 0.368026	 1
1463570508.355	 4	 -0.019150	 -0.004983	 0.028733	 2.592071	 -1.424995	 0.548492	 -0.367990	 0.653093	 -0.550088	 0.368043	 1
1463570508.365	 4	 -0.015014	 -0.027379	 0.022094	 2.590805	 -1.424722	 0.547473	 -0.368002	 0.653138	 -0.549940	 0.368173	 1
1463570508.375	 4	 -0.004337	 -0.014748	 0.008266	 2.589798	 -1.424510	 0.546641	 -0.368004	 0.653176	 -0.549828	 0.368270	 1
1463570508.385	 4	 0.006546	 0.006695	 0.036081	 2.588091	 -1.424398	 0.544896	 -0.367902	 0.653220	 -0.549794	 0.368347	 1
1463570508.395	 4	 0.010875	 0.007846	 0.049909	 2.584999	 -1.424216	 0.541686	 -0.367700	 0.653300	 -0.549748	 0.368472	 1
1463570508.405	 4	 0.006502	 -0.000767	 0.033880	 2.582538	 -1.424071	 0.539184	 -0.367557	 0.653355	 -0.549703	 0.368587	 1
1463570508.415	 4	 0.009573	 -0.013672	 0.015603	 2.584434	 -1.424736	 0.541143	 -0.367686	 0.653125	 -0.549939	 0.368513	 1
1463570508.425	 4	 0.012736	 -0.012695	 0.004927	 2.583494	 -1.424793	 0.540325	 -0.367679	 0.653083	 -0.549938	 0.368596	 1
1463570508.435	 4	 0.015965	 -0.004219	 0.001780	 2.582713	 -1.424916	 0.539611	 -0.367663	 0.653029	 -0.549973	 0.368656	 1
1463570508.445	 4	 0.010660	 0.002179	 0.001886	 2.582098	 -1.425028	 0.538978	 -0.367627	 0.652995	 -0.550018	 0.368684	 1
1463570508.455	 4	 -0.000017	 0.003290	 0.003060	 2.584637	 -1.423749	 0.541446	 -0.367714	 0.653432	 -0.549551	 0.368519	 1
1463570508.465	 4	 -0.006439	 0.000110	 0.002020	 2.584719	 -1.423693	 0.541523	 -0.367715	 0.653452	 -0.549531	 0.368513	 1
1463570508.475	 4	 -0.005363	 0.006451	 -0.003259	 2.585099	 -1.423654	 0.541863	 -0.367722	 0.653472	 -0.549524	 0.368482	 1
1463570508.485	 4	 0.001063	 0.011761	 -0.002201	 2.587412	 -1.423227	 0.544055	 -0.367795	 0.653636	 -0.549385	 0.368323	 1
1463570508.495	 4	 0.005370	 0.018155	 0.001021	 2.587853	 -1.422852	 0.544317	 -0.367755	 0.653793	 -0.549277	 0.368247	 1
1463570508.505	 4	 0.005378	 0.021350	 0.001049	 2.590179	 -1.422516	 0.546417	 -0.367797	 0.653946	 -0.549193	 0.368059	 1
1463570508.515	 4	 0.004305	 0.022413	 -0.000002	 2.593373	 -1.422204	 0.549355	 -0.367877	 0.654096	 -0.549122	 0.367817	 1
1463570508.525	 4	 0.001099	 0.026650	 -0.004205	 2.598054	 -1.421977	 0.553740	 -0.368023	 0.654225	 -0.549092	 0.367486	 1
1463570508.535	 4	 0.002213	 0.041521	 -0.007280	 2.603725	 -1.421520	 0.558992	 -0.368179	 0.654451	 -0.549000	 0.367065	 1
1463570508.545	 4	 -0.000911	 0.055401	 -0.001788	 2.604721	 -1.420627	 0.559445	 -0.368045	 0.654845	 -0.548765	 0.366848	 1
1463570508.555	 4	 -0.007388	 0.032098	 0.008720	 2.602687	 -1.419862	 0.557040	 -0.367808	 0.655166	 -0.548546	 0.366841	 1
1463570508.565	 4	 -0.007548	 -0.007213	 0.014755	 2.600498	 -1.419635	 0.554840	 -0.367685	 0.655244	 -0.548461	 0.366951	 1
1463570508.575	 4	 -0.004437	 -0.027426	 0.015609	 2.598040	 -1.419493	 0.552618	 -0.367629	 0.655249	 -0.548364	 0.367145	 1
1463570508.585	 4	 0.004077	 -0.029601	 0.012314	 2.598071	 -1.419560	 0.552927	 -0.367723	 0.655175	 -0.548338	 0.367220	 1
1463570508.595	 4	 0.006262	 -0.016858	 0.010276	 2.599205	 -1.419656	 0.554238	 -0.367842	 0.655111	 -0.548342	 0.367210	 1
1463570508.605	 4	 0.004207	 0.002281	 0.008334	 2.601157	 -1.419656	 0.556183	 -0.367944	 0.655111	 -0.548344	 0.367104	 1
1463570508.615	 4	 0.005321	 0.015029	 0.006308	 2.602867	 -1.419486	 0.557738	 -0.367983	 0.655195	 -0.548309	 0.366967	 1
1463570508.625	 4	 0.002125	 0.018224	 0.005299	 2.604153	 -1.419185	 0.558815	 -0.367980	 0.655332	 -0.548236	 0.366836	 1
1463570508.635	 4	 -0.000053	 0.009723	 0.005238	 2.604865	 -1.418978	 0.559388	 -0.367971	 0.655426	 -0.548183	 0.366756	 1
1463570508.645	 4	 -0.003297	 0.000176	 0.007309	 2.605465	 -1.418641	 0.559948	 -0.367986	 0.655544	 -0.548065	 0.366706	 1
1463570508.655	 4	 -0.004378	 -0.001946	 0.007297	 2.606759	 -1.418390	 0.561254	 -0.368058	 0.655623	 -0.547969	 0.366636	 1
1463570508.665	 4	 -0.004364	 0.004415	 0.004153	 2.608845	 -1.418276	 0.563290	 -0.368153	 0.655668	 -0.547937	 0.366507	 1
1463570508.675	 4	 -0.004337	 0.011855	 0.003150	 2.611463	 -1.418180	 0.565781	 -0.368251	 0.655721	 -0.547927	 0.366329	 1
1463570508.685	 4	 -0.003253	 0.016108	 0.003174	 2.613976	 -1.418136	 0.568109	 -0.368326	 0.655767	 -0.547947	 0.366142	 1
1463570508.695	 4	 -0.003264	 0.017151	 -0.000019	 2.616436	 -1.418126	 0.570372	 -0.368394	 0.655804	 -0.547982	 0.365956	 1
1463570508.705	 4	 -0.001137	 0.015026	 0.001004	 2.618151	 -1.418136	 0.571903	 -0.368426	 0.655832	 -0.548021	 0.365813	 1
1463570508.715	 4	 0.000982	 0.008669	 0.005188	 2.618796	 -1.418058	 0.572429	 -0.368421	 0.655879	 -0.548015	 0.365744	 1
1463570508.725	 4	 0.005205	 -0.003020	 0.008238	 2.618929	 -1.417945	 0.572551	 -0.368424	 0.655918	 -0.547975	 0.365731	 1
1463570508.735	 4	 0.007251	 -0.020051	 0.006993	 2.619573	 -1.417879	 0.573322	 -0.368500	 0.655915	 -0.547927	 0.365730	 1
1463570508.745	 4	 0.006138	 -0.025396	 0.002686	 2.620519	 -1.417853	 0.574490	 -0.368624	 0.655882	 -0.547878	 0.365739	 1
1463570508.755	 4	 0.007205	 -0.025390	 0.003741	 2.621140	 -1.417728	 0.575344	 -0.368734	 0.655879	 -0.547790	 0.365766	 1
1463570508.765	 4	 0.004042	 -0.016861	 0.004911	 2.622185	 -1.417521	 0.576565	 -0.368847	 0.655913	 -0.547681	 0.365753	 1
1463570508.775	 4	 -0.000209	 -0.011536	 0.003931	 2.622868	 -1.417348	 0.577353	 -0.368917	 0.655950	 -0.547598	 0.365740	 1
1463570508.785	 4	 0.000889	 -0.005149	 0.005046	 2.623067	 -1.417180	 0.577615	 -0.368948	 0.655993	 -0.547524	 0.365743	 1
1463570508.795	 4	 -0.001255	 -0.005158	 0.002933	 2.623222	 -1.417085	 0.577811	 -0.368970	 0.656016	 -0.547481	 0.365743	 1
1463570508.805	 4	 0.003011	 -0.006226	 0.003953	 2.622771	 -1.416989	 0.577415	 -0.368963	 0.656039	 -0.547434	 0.365780	 1
1463570508.815	 4	 0.003010	 -0.005170	 0.002900	 2.621892	 -1.416816	 0.576601	 -0.368936	 0.656085	 -0.547356	 0.365842	 1
1463570508.825	 4	 0.005142	 -0.005177	 0.002885	 2.621098	 -1.416674	 0.575865	 -0.368911	 0.656122	 -0.547291	 0.365897	 1
1463570508.835	 4	 0.003026	 -0.003019	 0.006124	 2.620428	 -1.416415	 0.575228	 -0.368884	 0.656202	 -0.547186	 0.365937	 1
1463570508.845	 4	 0.003013	 -0.004090	 0.005051	 2.619960	 -1.416193	 0.574784	 -0.368866	 0.656272	 -0.547098	 0.365964	 1
1463570508.855	 4	 -0.001301	 -0.009426	 0.000776	 2.620370	 -1.416046	 0.575271	 -0.368912	 0.656305	 -0.547030	 0.365959	 1
1463570508.865	 4	 -0.002361	 -0.005182	 -0.001307	 2.620963	 -1.415822	 0.575927	 -0.368965	 0.656366	 -0.546935	 0.365938	 1
1463570508.875	 4	 -0.003408	 -0.001972	 0.000865	 2.621195	 -1.415616	 0.576199	 -0.368989	 0.656427	 -0.546850	 0.365931	 1
1463570508.885	 4	 -0.003397	 0.000163	 0.001954	 2.621027	 -1.415372	 0.576038	 -0.368981	 0.656506	 -0.546757	 0.365937	 1
1463570508.895	 4	 -0.003381	 0.001250	 0.005164	 2.620540	 -1.415198	 0.575541	 -0.368951	 0.656565	 -0.546693	 0.365957	 1
1463570508.905	 4	 -0.006592	 -0.005084	 0.010465	 2.619600	 -1.415008	 0.574635	 -0.368909	 0.656623	 -0.546614	 0.366013	 1
1463570508.915	 4	 -0.003414	 -0.013573	 0.014627	 2.617497	 -1.414810	 0.572659	 -0.368834	 0.656668	 -0.546513	 0.366159	 1
1463570508.925	 4	 -0.000249	 -0.022085	 0.015588	 2.616037	 -1.414648	 0.571392	 -0.368816	 0.656687	 -0.546415	 0.366289	 1
1463570508.935	 4	 0.002922	 -0.028476	 0.015501	 2.614710	 -1.414566	 0.570320	 -0.368826	 0.656669	 -0.546336	 0.366429	 1
1463570508.945	 4	 0.002997	 -0.025258	 0.011168	 2.614488	 -1.414509	 0.570341	 -0.368893	 0.656643	 -0.546269	 0.366507	 1
1463570508.955	 4	 0.000887	 -0.017821	 0.009121	 2.614987	 -1.414432	 0.571022	 -0.368980	 0.656634	 -0.546208	 0.366527	 1
1463570508.965	 4	 -0.003338	 -0.008234	 0.009245	 2.615564	 -1.414301	 0.571689	 -0.369041	 0.656660	 -0.546143	 0.366517	 1
1463570508.975	 4	 -0.003309	 -0.001852	 0.009303	 2.615705	 -1.414221	 0.571847	 -0.369053	 0.656683	 -0.546110	 0.366512	 1
1463570508.985	 4	 -0.003326	 -0.002939	 0.006094	 2.615892	 -1.414228	 0.572054	 -0.369071	 0.656677	 -0.546109	 0.366507	 1
1463570508.995	 4	 -0.001195	 -0.001896	 0.003950	 2.616452	 -1.414292	 0.572622	 -0.369104	 0.656653	 -0.546132	 0.366480	 1
1463570509.005	 4	 0.000946	 0.000217	 0.002883	 2.616965	 -1.414397	 0.573133	 -0.369133	 0.656619	 -0.546173	 0.366454	 1
1463570509.015	 4	 0.003060	 -0.004044	 0.002823	 2.617225	 -1.414503	 0.573405	 -0.369151	 0.656581	 -0.546211	 0.366445	 1
1463570509.025	 4	 0.007304	 -0.009375	 0.002736	 2.616800	 -1.414605	 0.573058	 -0.369154	 0.656534	 -0.546234	 0.366492	 1
1463570509.035	 4	 0.007254	 -0.018956	 0.001580	 2.616697	 -1.414674	 0.573104	 -0.369198	 0.656484	 -0.546233	 0.366540	 1
1463570509.045	 4	 0.005098	 -0.025316	 0.003672	 2.615972	 -1.414669	 0.572614	 -0.369235	 0.656443	 -0.546187	 0.366644	 1
1463570509.055	 4	 0.002955	 -0.029541	 0.006850	 2.615208	 -1.414585	 0.572135	 -0.369286	 0.656419	 -0.546102	 0.366762	 1
1463570509.065	 4	 0.000836	 -0.028448	 0.010077	 2.614279	 -1.414424	 0.571490	 -0.369327	 0.656421	 -0.545988	 0.366887	 1
1463570509.075	 4	 -0.000197	 -0.022055	 0.011213	 2.613195	 -1.414285	 0.570643	 -0.369344	 0.656424	 -0.545891	 0.367009	 1
1463570509.085	 4	 -0.001244	 -0.017797	 0.011262	 2.612180	 -1.414183	 0.569806	 -0.369345	 0.656426	 -0.545819	 0.367111	 1
1463570509.095	 4	 0.001977	 -0.014608	 0.012329	 2.611297	 -1.414186	 0.569071	 -0.369345	 0.656398	 -0.545792	 0.367201	 1
1463570509.105	 4	 0.001984	 -0.011433	 0.010227	 2.610516	 -1.414150	 0.568402	 -0.369339	 0.656390	 -0.545757	 0.367274	 1
1463570509.115	 4	 0.004125	 -0.007208	 0.007051	 2.609718	 -1.414122	 0.567688	 -0.369321	 0.656385	 -0.545730	 0.367340	 1
1463570509.125	 4	 -0.000155	 -0.009322	 0.007068	 2.609585	 -1.414025	 0.567627	 -0.369337	 0.656404	 -0.545680	 0.367365	 1
1463570509.135	 4	 -0.003369	 -0.010384	 0.006021	 2.609753	 -1.413852	 0.567885	 -0.369374	 0.656444	 -0.545599	 0.367377	 1
1463570509.145	 4	 -0.004435	 -0.011428	 0.008152	 2.609856	 -1.413636	 0.568098	 -0.369415	 0.656494	 -0.545498	 0.367397	 1
1463570509.155	 4	 -0.004461	 -0.014634	 0.005991	 2.609740	 -1.413464	 0.568119	 -0.369452	 0.656526	 -0.545408	 0.367437	 1
1463570509.165	 4	 -0.003399	 -0.014645	 0.004915	 2.609768	 -1.413361	 0.568292	 -0.369500	 0.656533	 -0.545343	 0.367472	 1
1463570509.175	 4	 -0.004471	 -0.014650	 0.003858	 2.609739	 -1.413315	 0.568407	 -0.369545	 0.656521	 -0.545299	 0.367512	 1
1463570509.185	 4	 -0.000183	 -0.011464	 0.004917	 2.609402	 -1.413257	 0.568188	 -0.369565	 0.656519	 -0.545255	 0.367562	 1
1463570509.195	 4	 0.000892	 -0.012508	 0.008095	 2.608689	 -1.413219	 0.567596	 -0.369565	 0.656510	 -0.545218	 0.367634	 1
1463570509.205	 4	 0.004075	 -0.013604	 0.004860	 2.608204	 -1.413229	 0.567241	 -0.369580	 0.656483	 -0.545197	 0.367696	 1
1463570509.215	 4	 0.006227	 -0.008308	 0.002758	 2.607696	 -1.413288	 0.566831	 -0.369585	 0.656446	 -0.545201	 0.367753	 1
1463570509.225	 4	 0.007320	 -0.000881	 0.000686	 2.607558	 -1.413342	 0.566711	 -0.369584	 0.656425	 -0.545218	 0.367767	 1
1463570509.235	 4	 0.005200	 0.004429	 -0.001377	 2.607649	 -1.413279	 0.566770	 -0.369578	 0.656451	 -0.545200	 0.367752	 1
1463570509.245	 4	 0.003056	 0.001260	 0.000745	 2.607719	 -1.413132	 0.566813	 -0.369571	 0.656504	 -0.545150	 0.367737	 1
1463570509.255	 4	 0.000914	 -0.000853	 0.001811	 2.607468	 -1.413009	 0.566565	 -0.369557	 0.656545	 -0.545103	 0.367749	 1
1463570509.265	 4	 0.000915	 -0.002958	 0.004991	 2.606886	 -1.412894	 0.566008	 -0.369532	 0.656579	 -0.545054	 0.367786	 1
1463570509.275	 4	 0.001992	 -0.000834	 0.005002	 2.606408	 -1.412862	 0.565541	 -0.369509	 0.656587	 -0.545040	 0.367815	 1
1463570509.285	 4	 0.003066	 0.002339	 0.002890	 2.606372	 -1.412890	 0.565485	 -0.369500	 0.656582	 -0.545054	 0.367812	 1
1463570509.295	 4	 0.006259	 0.003370	 -0.000326	 2.606236	 -1.412952	 0.565312	 -0.369481	 0.656568	 -0.545084	 0.367811	 1
1463570509.305	 4	 0.005190	 0.002317	 0.000740	 2.606067	 -1.412946	 0.565118	 -0.369463	 0.656575	 -0.545086	 0.367814	 1
1463570509.315	 4	 0.004122	 0.002320	 0.000750	 2.605965	 -1.412943	 0.564990	 -0.369449	 0.656581	 -0.545090	 0.367812	 1
1463570509.325	 4	 0.004118	 0.002312	 -0.000316	 2.605752	 -1.412955	 0.564759	 -0.369431	 0.656581	 -0.545098	 0.367819	 1
1463570509.335	 4	 0.004131	 0.003391	 0.001828	 2.605120	 -1.412935	 0.564101	 -0.369387	 0.656592	 -0.545094	 0.367847	 1
1463570509.345	 4	 0.005211	 0.006579	 0.001849	 2.605040	 -1.412851	 0.563961	 -0.369362	 0.656631	 -0.545074	 0.367834	 1
1463570509.355	 4	 0.005224	 0.009770	 0.001880	 2.604646	 -1.412789	 0.563474	 -0.369309	 0.656669	 -0.545067	 0.367829	 1
1463570509.365	 4	 0.003109	 0.011919	 0.004051	 2.604319	 -1.412779	 0.563036	 -0.369255	 0.656693	 -0.545083	 0.367817	 1
1463570509.375	 4	 0.003118	 0.014046	 0.004070	 2.604300	 -1.412736	 0.562875	 -0.369207	 0.656733	 -0.545093	 0.367778	 1
1463570509.385	 4	 0.002062	 0.018289	 0.001987	 2.604548	 -1.412738	 0.562944	 -0.369162	 0.656766	 -0.545127	 0.367716	 1
1463570509.395	 4	 0.003108	 0.015088	 0.000879	 2.605310	 -1.412772	 0.563533	 -0.369148	 0.656786	 -0.545172	 0.367627	 1
1463570509.405	 4	 0.000937	 0.007649	 0.000827	 2.606023	 -1.412793	 0.564138	 -0.369152	 0.656798	 -0.545200	 0.367558	 1
1463570509.415	 4	 0.001980	 0.002327	 0.000766	 2.606334	 -1.412872	 0.564401	 -0.369154	 0.656781	 -0.545240	 0.367529	 1
1463570509.425	 4	 0.004094	 -0.001934	 0.000706	 2.606522	 -1.412960	 0.564596	 -0.369168	 0.656751	 -0.545271	 0.367522	 1
1463570509.435	 4	 0.007287	 -0.001958	 -0.001455	 2.606791	 -1.413049	 0.564881	 -0.369189	 0.656718	 -0.545302	 0.367513	 1
1463570509.445	 4	 0.009425	 0.000155	 -0.002523	 2.607724	 -1.413135	 0.565797	 -0.369236	 0.656692	 -0.545339	 0.367458	 1
1463570509.455	 4	 0.011553	 0.000142	 -0.003611	 2.608474	 -1.413263	 0.566531	 -0.369274	 0.656652	 -0.545390	 0.367415	 1
1463570509.465	 4	 0.010489	 0.002265	 -0.004649	 2.609121	 -1.413318	 0.567150	 -0.369301	 0.656639	 -0.545417	 0.367373	 1
1463570509.475	 4	 0.009421	 0.002268	 -0.004640	 2.609199	 -1.413382	 0.567203	 -0.369298	 0.656623	 -0.545445	 0.367363	 1
1463570509.485	 4	 0.010496	 0.003337	 -0.003572	 2.609021	 -1.413414	 0.566990	 -0.369277	 0.656619	 -0.545464	 0.367364	 1
1463570509.495	 4	 0.008367	 0.001247	 0.000690	 2.608929	 -1.413425	 0.566876	 -0.369264	 0.656619	 -0.545472	 0.367363	 1
1463570509.505	 4	 0.009448	 0.005490	 -0.000345	 2.608788	 -1.413435	 0.566684	 -0.369240	 0.656625	 -0.545485	 0.367357	 1
1463570509.515	 4	 0.006250	 0.007620	 -0.001363	 2.608843	 -1.413409	 0.566658	 -0.369216	 0.656649	 -0.545490	 0.367332	 1
1463570509.525	 4	 0.005191	 0.008694	 -0.000276	 2.608595	 -1.413374	 0.566320	 -0.369173	 0.656677	 -0.545493	 0.367320	 1
1463570509.535	 4	 0.004128	 0.008705	 0.000802	 2.608003	 -1.413358	 0.565645	 -0.369113	 0.656698	 -0.545502	 0.367330	 1
1463570509.545	 4	 0.005186	 0.006574	 0.000773	 2.607534	 -1.413426	 0.565107	 -0.369064	 0.656689	 -0.545540	 0.367339	 1
1463570509.555	 4	 0.003067	 0.008715	 0.001877	 2.607285	 -1.413492	 0.564776	 -0.369024	 0.656683	 -0.545579	 0.367331	 1
1463570509.565	 4	 0.006284	 0.011896	 0.001879	 2.607080	 -1.413519	 0.564455	 -0.368975	 0.656695	 -0.545610	 0.367312	 1
1463570509.575	 4	 0.006308	 0.015103	 0.004041	 2.606696	 -1.413570	 0.563913	 -0.368902	 0.656708	 -0.545658	 0.367291	 1
1463570509.585	 4	 0.009513	 0.012989	 0.007191	 2.606007	 -1.413664	 0.563077	 -0.368816	 0.656705	 -0.545720	 0.367291	 1
1463570509.595	 4	 0.010540	 0.005532	 0.006045	 2.605624	 -1.413726	 0.562604	 -0.368766	 0.656701	 -0.545760	 0.367289	 1
1463570509.605	 4	 0.009470	 0.003424	 0.008164	 2.605602	 -1.413780	 0.562530	 -0.368749	 0.656693	 -0.545790	 0.367277	 1
1463570509.615	 4	 0.005174	 -0.002937	 0.009206	 2.605685	 -1.413788	 0.562609	 -0.368752	 0.656691	 -0.545794	 0.367271	 1
1463570509.625	 4	 -0.000167	 -0.005040	 0.010295	 2.605886	 -1.413829	 0.562838	 -0.368773	 0.656673	 -0.545804	 0.367269	 1
1463570509.635	 4	 -0.001223	 -0.001853	 0.009264	 2.606150	 -1.413891	 0.563117	 -0.368792	 0.656649	 -0.545825	 0.367259	 1
1463570509.645	 4	 0.001967	 -0.001886	 0.006034	 2.606538	 -1.413999	 0.563512	 -0.368818	 0.656612	 -0.545864	 0.367242	 1
1463570509.655	 4	 0.005165	 -0.001902	 0.004936	 2.606882	 -1.414131	 0.563870	 -0.368843	 0.656566	 -0.545911	 0.367229	 1
1463570509.665	 4	 0.009425	 -0.001930	 0.002764	 2.607176	 -1.414251	 0.564169	 -0.368862	 0.656525	 -0.545956	 0.367217	 1
1463570509.675	 4	 0.009424	 -0.002986	 0.003816	 2.607550	 -1.414358	 0.564556	 -0.368887	 0.656487	 -0.545994	 0.367201	 1
1463570509.685	 4	 0.009409	 -0.004064	 0.001671	 2.608094	 -1.414471	 0.565123	 -0.368926	 0.656445	 -0.546033	 0.367180	 1
1463570509.695	 4	 0.008389	 -0.004034	 0.000598	 2.608368	 -1.414582	 0.565431	 -0.368953	 0.656402	 -0.546069	 0.367176	 1
1463570509.705	 4	 0.006251	 -0.002979	 -0.001507	 2.608696	 -1.414699	 0.565781	 -0.368980	 0.656359	 -0.546109	 0.367167	 1
1463570509.715	 4	 0.004124	 -0.000853	 -0.002535	 2.608865	 -1.414830	 0.565972	 -0.368997	 0.656312	 -0.546154	 0.367166	 1
1463570509.725	 4	 0.005190	 0.002304	 -0.006780	 2.609325	 -1.414965	 0.566406	 -0.369015	 0.656272	 -0.546210	 0.367136	 1
1463570509.735	 4	 0.004136	 0.007602	 -0.009920	 2.610129	 -1.415104	 0.567151	 -0.369041	 0.656237	 -0.546274	 0.367079	 1
1463570509.755	 5	 0.003082	 0.008685	 -0.007770	 2.611042	 -1.415262	 0.567890	 -0.369035	 0.656216	 -0.546366	 0.366984	 1
1463570509.765	 5	 0.000945	 0.007635	 -0.006696	 2.611743	 -1.415268	 0.568511	 -0.369048	 0.656228	 -0.546384	 0.366924	 1
1463570509.775	 5	 -0.000111	 0.011878	 -0.008779	 2.612590	 -1.415297	 0.569251	 -0.369059	 0.656237	 -0.546415	 0.366849	 1
1463570509.785	 5	 0.000945	 0.008691	 -0.007752	 2.612937	 -1.415320	 0.569506	 -0.369049	 0.656246	 -0.546441	 0.366806	 1
1463570509.795	 5	 -0.000154	 -0.000856	 -0.004632	 2.612616	 -1.415312	 0.569173	 -0.369027	 0.656251	 -0.546440	 0.366820	 1
1463570509.805	 5	 -0.001233	 -0.005092	 -0.002529	 2.612404	 -1.415288	 0.569009	 -0.369031	 0.656250	 -0.546422	 0.366844	 1
1463570509.815	 5	 0.000890	 -0.008282	 -0.001510	 2.612028	 -1.415255	 0.568717	 -0.369037	 0.656246	 -0.546394	 0.366886	 1
1463570509.825	 5	 -0.000163	 -0.007200	 0.000640	 2.612057	 -1.415277	 0.568815	 -0.369062	 0.656226	 -0.546390	 0.366905	 1
1463570509.835	 5	 -0.001220	 -0.005069	 0.000668	 2.612471	 -1.415317	 0.569280	 -0.369102	 0.656203	 -0.546396	 0.366896	 1
1463570509.845	 5	 -0.000158	 -0.005080	 -0.000409	 2.613039	 -1.415341	 0.569892	 -0.369147	 0.656187	 -0.546397	 0.366878	 1
1463570509.855	 5	 0.000925	 -0.007273	 -0.001350	 2.613470	 -1.415389	 0.570386	 -0.369192	 0.656159	 -0.546404	 0.366873	 1
1463570509.865	 5	 -0.000142	 -0.007269	 -0.001341	 2.613740	 -1.415430	 0.570716	 -0.369227	 0.656134	 -0.546409	 0.366875	 1
1463570509.875	 5	 0.000925	 -0.007273	 -0.001351	 2.613932	 -1.415458	 0.570979	 -0.369261	 0.656111	 -0.546407	 0.366884	 1
1463570509.885	 5	 0.002006	 -0.005141	 -0.000275	 2.613975	 -1.415461	 0.571082	 -0.369283	 0.656099	 -0.546397	 0.366899	 1
1463570509.895	 5	 0.000949	 -0.003010	 -0.000247	 2.614100	 -1.415487	 0.571230	 -0.369298	 0.656086	 -0.546402	 0.366899	 1
1463570509.905	 5	 0.002046	 0.003369	 -0.000198	 2.614492	 -1.415498	 0.571600	 -0.369312	 0.656086	 -0.546411	 0.366871	 1
1463570509.915	 5	 0.000997	 0.006571	 0.000906	 2.614681	 -1.415492	 0.571735	 -0.369304	 0.656098	 -0.546419	 0.366846	 1
1463570509.925	 5	 0.003135	 0.007628	 0.000896	 2.615315	 -1.415491	 0.572283	 -0.369311	 0.656113	 -0.546435	 0.366788	 1
1463570509.935	 5	 0.001005	 0.008698	 0.000924	 2.615779	 -1.415457	 0.572654	 -0.369306	 0.656141	 -0.546440	 0.366736	 1
1463570509.945	 5	 -0.000088	 0.004439	 -0.000173	 2.616347	 -1.415454	 0.573154	 -0.369314	 0.656154	 -0.546452	 0.366686	 1
1463570509.955	 5	 -0.000107	 0.001241	 -0.001269	 2.616456	 -1.415497	 0.573245	 -0.369315	 0.656143	 -0.546472	 0.366676	 1
1463570509.965	 5	 -0.002245	 0.001239	 -0.002317	 2.616942	 -1.415518	 0.573723	 -0.369339	 0.656137	 -0.546482	 0.366648	 1
1463570509.975	 5	 -0.000092	 0.004432	 -0.001242	 2.617583	 -1.415564	 0.574320	 -0.369360	 0.656129	 -0.546508	 0.366602	 1
1463570509.985	 5	 -0.000084	 0.009720	 -0.005457	 2.618432	 -1.415592	 0.575084	 -0.369379	 0.656134	 -0.546535	 0.366533	 1
1463570509.995	 5	 0.000994	 0.012900	 -0.006505	 2.619559	 -1.415663	 0.576082	 -0.369399	 0.656133	 -0.546587	 0.366437	 1
1463570510.005	 5	 -0.000059	 0.017150	 -0.007523	 2.620585	 -1.415685	 0.576942	 -0.369400	 0.656155	 -0.546627	 0.366336	 1
1463570510.015	 5	 -0.003246	 0.019295	 -0.006409	 2.621285	 -1.415686	 0.577461	 -0.369379	 0.656187	 -0.546662	 0.366248	 1
1463570510.025	 5	 -0.004288	 0.018155	 -0.005041	 2.621521	 -1.415668	 0.577513	 -0.369332	 0.656226	 -0.546689	 0.366185	 1
1463570510.035	 5	 -0.006436	 0.010754	 0.000239	 2.621427	 -1.415603	 0.577311	 -0.369291	 0.656268	 -0.546685	 0.366159	 1
1463570510.045	 5	 -0.004316	 0.007557	 0.000191	 2.621359	 -1.415602	 0.577167	 -0.369262	 0.656283	 -0.546698	 0.366142	 1
1463570510.055	 5	 -0.003244	 0.007561	 0.001247	 2.621673	 -1.415590	 0.577403	 -0.369254	 0.656300	 -0.546708	 0.366103	 1
1463570510.075	 6	 -0.005363	 0.009703	 0.002347	 2.622921	 -1.415687	 0.578455	 -0.369258	 0.656303	 -0.546783	 0.365983	 1
1463570510.085	 6	 -0.004304	 0.009685	 0.000204	 2.623925	 -1.415736	 0.579359	 -0.369281	 0.656303	 -0.546821	 0.365902	 1
1463570510.095	 6	 -0.005377	 0.007568	 0.001257	 2.624739	 -1.415771	 0.580092	 -0.369299	 0.656305	 -0.546850	 0.365837	 1
1463570510.105	 6	 -0.006463	 0.004373	 0.000170	 2.625402	 -1.415798	 0.580714	 -0.369322	 0.656303	 -0.546869	 0.365790	 1
1463570510.115	 6	 -0.004342	 0.003288	 -0.001992	 2.626125	 -1.415829	 0.581407	 -0.369351	 0.656297	 -0.546887	 0.365743	 1
1463570510.125	 6	 -0.004354	 0.003265	 -0.005192	 2.627272	 -1.415908	 0.582522	 -0.369404	 0.656275	 -0.546925	 0.365673	 1
1463570510.135	 6	 -0.001160	 0.004296	 -0.008410	 2.628484	 -1.416006	 0.583693	 -0.369457	 0.656248	 -0.546972	 0.365599	 1
1463570510.145	 6	 -0.002218	 0.005370	 -0.007326	 2.629547	 -1.416101	 0.584708	 -0.369499	 0.656223	 -0.547019	 0.365530	 1
1463570510.155	 6	 0.001002	 0.007504	 -0.005204	 2.630281	 -1.416189	 0.585372	 -0.369516	 0.656206	 -0.547066	 0.365473	 1
1463570510.165	 6	 0.002059	 0.004317	 -0.004177	 2.630460	 -1.416229	 0.585499	 -0.369509	 0.656202	 -0.547090	 0.365450	 1
1463570510.175	 6	 0.003099	 -0.002060	 -0.003179	 2.630476	 -1.416214	 0.585523	 -0.369513	 0.656205	 -0.547084	 0.365451	 1
1463570510.185	 6	 0.003108	 -0.000989	 -0.002104	 2.630604	 -1.416246	 0.585660	 -0.369523	 0.656193	 -0.547094	 0.365448	 1
1463570510.195	 6	 0.004211	 0.003163	 -0.000681	 2.630350	 -1.416224	 0.585380	 -0.369500	 0.656205	 -0.547090	 0.365454	 1
1463570510.205	 6	 0.005303	 0.008478	 -0.000640	 2.630075	 -1.416202	 0.585037	 -0.369463	 0.656226	 -0.547094	 0.365449	 1
1463570510.215	 6	 0.005336	 0.014868	 0.000486	 2.629961	 -1.416151	 0.584789	 -0.369413	 0.656268	 -0.547099	 0.365418	 1
1463570510.225	 6	 0.002128	 0.014870	 -0.000550	 2.629823	 -1.416033	 0.584497	 -0.369355	 0.656335	 -0.547082	 0.365380	 1
1463570510.235	 6	 -0.002152	 0.011699	 0.000524	 2.629707	 -1.415927	 0.584251	 -0.369305	 0.656394	 -0.547066	 0.365348	 1
1463570510.245	 6	 -0.005346	 0.011724	 0.002686	 2.629400	 -1.415738	 0.583829	 -0.369250	 0.656478	 -0.547016	 0.365328	 1
1463570510.255	 6	 -0.004274	 0.012784	 0.002688	 2.628731	 -1.415618	 0.583042	 -0.369175	 0.656541	 -0.546991	 0.365329	 1
1463570510.265	 6	 -0.002128	 0.011744	 0.006925	 2.627890	 -1.415471	 0.582083	 -0.369090	 0.656612	 -0.546955	 0.365339	 1
1463570510.275	 6	 0.002136	 0.006452	 0.012168	 2.627045	 -1.415386	 0.581158	 -0.369017	 0.656657	 -0.546937	 0.365361	 1
1463570510.285	 6	 0.004258	 0.000094	 0.016355	 2.625554	 -1.415370	 0.579656	 -0.368931	 0.656667	 -0.546930	 0.365440	 1
1463570510.295	 6	 0.007438	 -0.006282	 0.018399	 2.624444	 -1.415374	 0.578575	 -0.368880	 0.656662	 -0.546924	 0.365509	 1
1463570510.315	 7	 0.010630	 -0.013691	 0.024694	 2.621651	 -1.415434	 0.575985	 -0.368794	 0.656609	 -0.546905	 0.365719	 1
1463570510.325	 7	 0.012736	 -0.021127	 0.026738	 2.620101	 -1.415393	 0.574603	 -0.368764	 0.656594	 -0.546857	 0.365849	 1
1463570510.335	 7	 0.010561	 -0.027614	 0.024829	 2.618265	 -1.415382	 0.573004	 -0.368740	 0.656557	 -0.546807	 0.366014	 1
1463570510.345	 7	 0.008411	 -0.031854	 0.025872	 2.617033	 -1.415356	 0.572048	 -0.368764	 0.656516	 -0.546744	 0.366157	 1
1463570510.355	 7	 0.007329	 -0.032930	 0.023738	 2.616159	 -1.415345	 0.571466	 -0.368811	 0.656467	 -0.546686	 0.366284	 1
1463570510.365	 7	 0.006262	 -0.028710	 0.018452	 2.616698	 -1.415542	 0.572256	 -0.368924	 0.656355	 -0.546715	 0.366328	 1
1463570510.375	 7	 0.004141	 -0.022352	 0.014264	 2.616557	 -1.415603	 0.572329	 -0.368987	 0.656296	 -0.546698	 0.366395	 1
1463570510.385	 7	 0.006279	 -0.017079	 0.008963	 2.616583	 -1.415675	 0.572515	 -0.369042	 0.656243	 -0.546696	 0.366439	 1
1463570510.395	 7	 0.005218	 -0.013900	 0.006869	 2.616539	 -1.415758	 0.572604	 -0.369084	 0.656191	 -0.546703	 0.366480	 1
1463570510.405	 7	 0.004145	 -0.017072	 0.008979	 2.616027	 -1.415828	 0.572237	 -0.369103	 0.656142	 -0.546702	 0.366549	 1
1463570510.415	 7	 0.001977	 -0.023456	 0.007872	 2.615471	 -1.415892	 0.571886	 -0.369140	 0.656083	 -0.546688	 0.366637	 1
1463570510.425	 7	 -0.001268	 -0.030907	 0.005698	 2.615224	 -1.415968	 0.571922	 -0.369220	 0.656006	 -0.546664	 0.366729	 1
1463570510.435	 7	 -0.002339	 -0.031967	 0.005696	 2.615135	 -1.416022	 0.572138	 -0.369316	 0.655933	 -0.546628	 0.366819	 1
1463570510.445	 7	 -0.002320	 -0.024552	 0.001500	 2.615324	 -1.416120	 0.572590	 -0.369413	 0.655851	 -0.546617	 0.366883	 1
1463570510.455	 7	 -0.000166	 -0.016088	 -0.003770	 2.615653	 -1.416204	 0.573098	 -0.369490	 0.655790	 -0.546616	 0.366916	 1
1463570510.465	 7	 -0.000136	 -0.009706	 -0.003711	 2.615505	 -1.416229	 0.573058	 -0.369518	 0.655762	 -0.546605	 0.366954	 1
1463570510.475	 7	 0.002003	 -0.009705	 -0.002663	 2.615074	 -1.416219	 0.572721	 -0.369525	 0.655749	 -0.546584	 0.367003	 1
1463570510.495	 8	 0.000917	 -0.016061	 0.000488	 2.613781	 -1.416108	 0.571713	 -0.369547	 0.655734	 -0.546488	 0.367149	 1
1463570510.505	 8	 -0.001215	 -0.012970	 0.000719	 2.613474	 -1.415967	 0.571553	 -0.369578	 0.655754	 -0.546408	 0.367203	 1
1463570510.515	 8	 -0.006512	 -0.006557	 0.002956	 2.613332	 -1.415841	 0.571499	 -0.369598	 0.655779	 -0.546344	 0.367231	 1
1463570510.525	 8	 -0.008628	 -0.004408	 0.005127	 2.613193	 -1.415691	 0.571405	 -0.369604	 0.655820	 -0.546279	 0.367248	 1
1463570510.535	 8	 -0.008649	 -0.009718	 0.006144	 2.612694	 -1.415602	 0.570993	 -0.369604	 0.655834	 -0.546230	 0.367297	 1
1463570510.545	 8	 -0.008666	 -0.016077	 0.009282	 2.612054	 -1.415549	 0.570498	 -0.369617	 0.655825	 -0.546182	 0.367371	 1
1463570510.555	 8	 -0.007617	 -0.019279	 0.008177	 2.611609	 -1.415525	 0.570238	 -0.369653	 0.655800	 -0.546139	 0.367445	 1
1463570510.565	 8	 -0.004395	 -0.016090	 0.009244	 2.611286	 -1.415531	 0.570081	 -0.369689	 0.655767	 -0.546110	 0.367508	 1
1463570510.575	 8	 -0.002211	 -0.006516	 0.010379	 2.610847	 -1.415489	 0.569720	 -0.369691	 0.655767	 -0.546080	 0.367553	 1
1463570510.585	 8	 0.001035	 0.001992	 0.011495	 2.610627	 -1.415454	 0.569483	 -0.369673	 0.655782	 -0.546069	 0.367560	 1
1463570510.595	 8	 0.003188	 0.005184	 0.012571	 2.610199	 -1.415377	 0.568997	 -0.369630	 0.655819	 -0.546051	 0.367566	 1
1463570510.606	 8	 0.006387	 0.004119	 0.013599	 2.609722	 -1.415280	 0.568459	 -0.369583	 0.655862	 -0.546025	 0.367573	 1
1463570510.615	 8	 0.002125	 0.003091	 0.016824	 2.608873	 -1.415152	 0.567574	 -0.369523	 0.655912	 -0.545982	 0.367608	 1
1463570510.626	 8	 0.002127	 0.002043	 0.018946	 2.608203	 -1.415005	 0.566860	 -0.369471	 0.655969	 -0.545935	 0.367629	 1
1463570510.636	 8	 0.002125	 -0.000069	 0.021056	 2.607639	 -1.414936	 0.566275	 -0.369432	 0.655996	 -0.545912	 0.367653	 1
1463570510.646	 8	 -0.001065	 0.004180	 0.018990	 2.607741	 -1.414891	 0.566320	 -0.369419	 0.656021	 -0.545906	 0.367631	 1
1463570510.655	 8	 -0.002143	 0.008311	 0.015025	 2.608084	 -1.414877	 0.566567	 -0.369406	 0.656043	 -0.545918	 0.367586	 1
1463570510.666	 8	 -0.000001	 0.013593	 0.010790	 2.608640	 -1.414935	 0.566973	 -0.369388	 0.656052	 -0.545968	 0.367515	 1
1463570510.676	 8	 0.003178	 0.011433	 0.007543	 2.608844	 -1.415031	 0.567037	 -0.369354	 0.656045	 -0.546030	 0.367468	 1
1463570510.685	 8	 0.003156	 0.009282	 0.004325	 2.608839	 -1.415089	 0.566932	 -0.369322	 0.656045	 -0.546070	 0.367442	 1
1463570510.696	 8	 0.005249	 -0.000290	 0.005284	 2.608209	 -1.415157	 0.566282	 -0.369281	 0.656027	 -0.546099	 0.367472	 1
1463570510.706	 8	 0.007437	 0.009292	 0.007485	 2.608156	 -1.415168	 0.566160	 -0.369255	 0.656036	 -0.546116	 0.367457	 1
1463570510.715	 8	 0.004296	 0.017850	 0.012922	 2.607341	 -1.415026	 0.565164	 -0.369150	 0.656117	 -0.546095	 0.367449	 1
1463570510.726	 8	 0.002005	 -0.009845	 0.006288	 2.607358	 -1.415057	 0.565185	 -0.369153	 0.656106	 -0.546106	 0.367450	 1
1463570510.736	 8	 0.001935	 -0.022625	 0.004038	 2.606812	 -1.415030	 0.564842	 -0.369189	 0.656078	 -0.546058	 0.367535	 1
1463570510.745	 8	 0.000867	 -0.024734	 0.006160	 2.605971	 -1.415005	 0.564240	 -0.369221	 0.656042	 -0.546004	 0.367646	 1
1463570510.756	 8	 -0.002316	 -0.021525	 0.007284	 2.605320	 -1.414919	 0.563817	 -0.369259	 0.656029	 -0.545930	 0.367742	 1
1463570510.766	 8	 -0.002314	 -0.019414	 0.005171	 2.604844	 -1.414910	 0.563543	 -0.369299	 0.655995	 -0.545889	 0.367824	 1
1463570510.775	 8	 -0.005498	 -0.013045	 0.002061	 2.604976	 -1.414832	 0.563822	 -0.369354	 0.655994	 -0.545832	 0.367855	 1
1463570510.786	 8	 -0.004421	 -0.009865	 0.001015	 2.605061	 -1.414759	 0.564016	 -0.369393	 0.655998	 -0.545785	 0.367879	 1
1463570510.806	 9	 -0.006520	 -0.001357	 0.000047	 2.605703	 -1.414583	 0.564742	 -0.369455	 0.656040	 -0.545704	 0.367863	 1
1463570510.816	 9	 -0.005449	 0.005956	 -0.003927	 2.606555	 -1.414534	 0.565552	 -0.369488	 0.656063	 -0.545693	 0.367803	 1
1463570510.826	 9	 -0.002184	 0.019774	 -0.003827	 2.607772	 -1.414476	 0.566594	 -0.369496	 0.656113	 -0.545705	 0.367687	 1
1463570510.836	 9	 -0.004332	 0.013430	 0.000396	 2.607686	 -1.414346	 0.566359	 -0.369442	 0.656183	 -0.545684	 0.367649	 1
1463570510.846	 9	 -0.003305	 0.004917	 0.000308	 2.607785	 -1.414308	 0.566400	 -0.369428	 0.656207	 -0.545680	 0.367627	 1
1463570510.856	 9	 -0.000110	 0.001732	 0.002382	 2.607764	 -1.414303	 0.566349	 -0.369417	 0.656214	 -0.545684	 0.367620	 1
1463570510.866	 9	 0.000942	 -0.000406	 0.001287	 2.607910	 -1.414314	 0.566495	 -0.369425	 0.656210	 -0.545688	 0.367611	 1
1463570510.876	 9	 -0.000120	 0.000660	 0.001306	 2.608197	 -1.414295	 0.566769	 -0.369437	 0.656218	 -0.545683	 0.367592	 1
1463570510.886	 9	 0.000931	 -0.003590	 0.002323	 2.608197	 -1.414294	 0.566796	 -0.369445	 0.656214	 -0.545678	 0.367599	 1
1463570510.896	 9	 -0.000128	 -0.003571	 0.004463	 2.608233	 -1.414285	 0.566856	 -0.369455	 0.656212	 -0.545670	 0.367604	 1
1463570510.906	 9	 0.004131	 -0.004655	 0.003349	 2.608189	 -1.414350	 0.566852	 -0.369466	 0.656184	 -0.545687	 0.367618	 1
1463570510.916	 9	 0.006267	 -0.002550	 0.001218	 2.608245	 -1.414414	 0.566931	 -0.369478	 0.656158	 -0.545707	 0.367623	 1
1463570510.926	 9	 0.004144	 0.000640	 0.000200	 2.608327	 -1.414479	 0.567017	 -0.369484	 0.656136	 -0.545731	 0.367621	 1
1463570510.936	 9	 -0.001178	 0.003847	 0.000275	 2.608910	 -1.414449	 0.567560	 -0.369503	 0.656153	 -0.545727	 0.367577	 1
1463570510.946	 9	 -0.002220	 0.010225	 -0.000722	 2.609276	 -1.414346	 0.567832	 -0.369491	 0.656203	 -0.545706	 0.367529	 1
1463570510.956	 9	 -0.002195	 0.015543	 -0.000672	 2.609432	 -1.414299	 0.567841	 -0.369451	 0.656246	 -0.545716	 0.367479	 1
1463570510.966	 9	 -0.003239	 0.018752	 0.001498	 2.609812	 -1.414241	 0.568033	 -0.369410	 0.656299	 -0.545729	 0.367406	 1
1463570510.976	 9	 -0.001124	 0.015547	 0.000384	 2.609911	 -1.414228	 0.567971	 -0.369363	 0.656333	 -0.545754	 0.367356	 1
1463570510.986	 9	 -0.001145	 0.014389	 0.000580	 2.610037	 -1.414222	 0.567952	 -0.369322	 0.656362	 -0.545778	 0.367310	 1
1463570510.996	 9	 -0.001126	 0.016532	 0.002731	 2.610288	 -1.414246	 0.568040	 -0.369283	 0.656384	 -0.545818	 0.367252	 1
1463570511.006	 9	 0.001012	 0.015478	 0.004833	 2.610618	 -1.414320	 0.568203	 -0.369247	 0.656390	 -0.545876	 0.367189	 1
1463570511.016	 9	 0.002065	 0.012284	 0.004792	 2.610944	 -1.414451	 0.568386	 -0.369219	 0.656373	 -0.545952	 0.367135	 1
1463570511.026	 9	 0.004176	 0.011183	 0.000499	 2.611550	 -1.414488	 0.568858	 -0.369208	 0.656385	 -0.545992	 0.367066	 1
1463570511.036	 9	 0.007383	 0.013293	 -0.000576	 2.612266	 -1.414586	 0.569450	 -0.369208	 0.656375	 -0.546052	 0.366995	 1
1463570511.046	 9	 0.002091	 0.021826	 0.000615	 2.612942	 -1.414577	 0.569913	 -0.369175	 0.656416	 -0.546088	 0.366899	 1
1463570511.056	 9	 -0.001157	 0.016479	 -0.004737	 2.614200	 -1.414654	 0.570974	 -0.369181	 0.656426	 -0.546155	 0.366777	 1
1463570511.066	 9	 -0.003257	 0.023931	 -0.004651	 2.615744	 -1.414684	 0.572292	 -0.369192	 0.656456	 -0.546209	 0.366631	 1
1463570511.076	 9	 -0.007583	 0.010131	 -0.002610	 2.616099	 -1.414596	 0.572513	 -0.369167	 0.656509	 -0.546201	 0.366573	 1
1463570511.086	 9	 -0.009782	 -0.008962	 0.003627	 2.615691	 -1.414476	 0.572155	 -0.369160	 0.656540	 -0.546146	 0.366606	 1
1463570511.096	 9	 -0.009846	 -0.025950	 0.007733	 2.615069	 -1.414384	 0.571753	 -0.369197	 0.656530	 -0.546071	 0.366699	 1
1463570511.106	 9	 -0.006649	 -0.028079	 0.008751	 2.614206	 -1.414362	 0.571182	 -0.369245	 0.656485	 -0.546008	 0.366826	 1
1463570511.116	 9	 0.001946	 -0.013237	 0.005616	 2.613846	 -1.414410	 0.570995	 -0.369283	 0.656437	 -0.545994	 0.366894	 1
1463570511.126	 9	 0.005245	 0.006964	 0.005774	 2.613724	 -1.414542	 0.570848	 -0.369268	 0.656399	 -0.546048	 0.366897	 1
1463570511.136	 9	 0.003111	 0.012254	 0.003857	 2.613982	 -1.414622	 0.570988	 -0.369244	 0.656394	 -0.546100	 0.366852	 1
1463570511.146	 9	 -0.001143	 0.020730	 -0.002423	 2.615030	 -1.414661	 0.571839	 -0.369238	 0.656416	 -0.546152	 0.366741	 1
1463570511.156	 9	 -0.004323	 0.027106	 -0.004469	 2.616402	 -1.414678	 0.572942	 -0.369225	 0.656459	 -0.546210	 0.366592	 1
1463570511.166	 9	 -0.008616	 0.022857	 -0.005536	 2.617275	 -1.414565	 0.573586	 -0.369198	 0.656537	 -0.546210	 0.366479	 1
1463570511.176	 9	 -0.009671	 0.022883	 -0.002330	 2.618067	 -1.414467	 0.574144	 -0.369164	 0.656611	 -0.546217	 0.366369	 1
1463570511.186	 9	 -0.003272	 0.017584	 0.002895	 2.617868	 -1.414423	 0.573759	 -0.369092	 0.656660	 -0.546235	 0.366328	 1
1463570511.196	 9	 -0.006476	 0.018642	 0.000800	 2.618436	 -1.414447	 0.574145	 -0.369063	 0.656685	 -0.546278	 0.366248	 1
1463570511.206	 9	 -0.004333	 0.024979	 -0.004490	 2.620051	 -1.414499	 0.575518	 -0.369073	 0.656710	 -0.546344	 0.366094	 1
1463570511.216	 9	 -0.007504	 0.031371	 -0.004405	 2.621747	 -1.414548	 0.576911	 -0.369068	 0.656747	 -0.546421	 0.365919	 1
1463570511.226	 9	 -0.011802	 0.026058	 -0.005484	 2.623418	 -1.414577	 0.578304	 -0.369069	 0.656786	 -0.546485	 0.365752	 1
1463570511.236	 9	 -0.016149	 0.006948	 -0.002427	 2.624520	 -1.414527	 0.579287	 -0.369090	 0.656823	 -0.546490	 0.365657	 1
1463570511.246	 9	 -0.020519	 -0.016425	 -0.000476	 2.625125	 -1.414448	 0.580006	 -0.369161	 0.656827	 -0.546440	 0.365653	 1
1463570511.256	 9	 -0.023841	 -0.041943	 -0.000685	 2.625604	 -1.414338	 0.580837	 -0.369303	 0.656797	 -0.546335	 0.365720	 1
1463570511.266	 9	 -0.029279	 -0.065313	 0.001276	 2.625700	 -1.414143	 0.581545	 -0.369508	 0.656748	 -0.546150	 0.365876	 1
1463570511.276	 9	 -0.037900	 -0.080202	 -0.001984	 2.625937	 -1.413859	 0.582588	 -0.369785	 0.656692	 -0.545897	 0.366076	 1
1463570511.286	 9	 -0.040054	 -0.083394	 -0.003061	 2.626480	 -1.413438	 0.583935	 -0.370078	 0.656680	 -0.545592	 0.366254	 1
1463570511.296	 9	 -0.037070	 -0.123891	 -0.005472	 2.626315	 -1.413140	 0.584930	 -0.370449	 0.656564	 -0.545267	 0.366572	 1
1463570511.306	 9	 -0.044604	 -0.136640	 -0.006591	 2.626383	 -1.412870	 0.586387	 -0.370908	 0.656395	 -0.544911	 0.366939	 1
1463570511.316	 9	 -0.048814	 -0.125976	 -0.004324	 2.627224	 -1.412488	 0.588542	 -0.371386	 0.656275	 -0.544528	 0.367239	 1
1463570511.326	 9	 -0.051846	 -0.092969	 -0.000794	 2.628288	 -1.412061	 0.590657	 -0.371790	 0.656218	 -0.544177	 0.367454	 1
1463570511.336	 9	 -0.062022	 0.006030	 0.006610	 2.630250	 -1.411519	 0.592844	 -0.371973	 0.656350	 -0.543936	 0.367389	 1
1463570511.346	 9	 -0.059456	 0.089060	 0.016951	 2.632753	 -1.410822	 0.594616	 -0.371874	 0.656708	 -0.543814	 0.367029	 1
1463570511.356	 9	 -0.055136	 0.100739	 0.015955	 2.635432	 -1.410277	 0.596292	 -0.371696	 0.657067	 -0.543800	 0.366588	 1
1463570511.366	 9	 -0.056311	 0.081566	 0.011522	 2.638263	 -1.409845	 0.598258	 -0.371573	 0.657362	 -0.543803	 0.366179	 1
1463570511.376	 9	 -0.061759	 0.063453	 0.005005	 2.641260	 -1.409347	 0.600596	 -0.371528	 0.657639	 -0.543744	 0.365814	 1
1463570511.386	 9	 -0.059695	 0.049612	 0.003792	 2.643870	 -1.408819	 0.602711	 -0.371516	 0.657896	 -0.543644	 0.365513	 1
1463570511.396	 9	 -0.051196	 0.045301	 -0.000586	 2.646458	 -1.408324	 0.604832	 -0.371512	 0.658137	 -0.543551	 0.365221	 1
1463570511.406	 9	 -0.038451	 0.037770	 -0.007164	 2.649301	 -1.408043	 0.607298	 -0.371553	 0.658290	 -0.543523	 0.364946	 1
1463570511.416	 9	 -0.042703	 0.048358	 -0.015556	 2.652658	 -1.407888	 0.610226	 -0.371605	 0.658409	 -0.543554	 0.364631	 1
1463570511.426	 9	 -0.033145	 0.049301	 -0.028422	 2.656362	 -1.407822	 0.613446	 -0.371659	 0.658507	 -0.543631	 0.364284	 1
1463570511.436	 9	 -0.023509	 0.073582	 -0.049597	 2.661250	 -1.407968	 0.617706	 -0.371731	 0.658558	 -0.543819	 0.363839	 1
1463570511.446	 9	 -0.010545	 0.113901	 -0.057863	 2.666673	 -1.408228	 0.622113	 -0.371705	 0.658639	 -0.544124	 0.363262	 1
1463570511.456	 9	 -0.002924	 0.150005	 -0.062923	 2.672073	 -1.408553	 0.626142	 -0.371559	 0.658764	 -0.544518	 0.362594	 1
1463570511.466	 9	 0.001404	 0.164855	 -0.061662	 2.677233	 -1.408810	 0.629713	 -0.371326	 0.658952	 -0.544926	 0.361877	 1
1463570511.476	 9	 -0.003883	 0.174452	 -0.060461	 2.682955	 -1.408986	 0.633748	 -0.371094	 0.659180	 -0.545325	 0.361099	 1
1463570511.486	 9	 -0.003771	 0.199964	 -0.062358	 2.689539	 -1.409187	 0.638445	 -0.370843	 0.659430	 -0.545775	 0.360220	 1
1463570511.496	 9	 -0.002453	 0.258417	 -0.068222	 2.697183	 -1.409418	 0.643700	 -0.370484	 0.659755	 -0.546333	 0.359145	 1
1463570511.506	 9	 0.009485	 0.297760	 -0.064762	 2.704007	 -1.409726	 0.647648	 -0.369915	 0.660148	 -0.547003	 0.357988	 1
1463570511.516	 9	 0.014836	 0.295663	 -0.058432	 2.708915	 -1.410002	 0.649626	 -0.369219	 0.660569	 -0.547660	 0.356923	 1
1463570511.526	 9	 0.008310	 0.256442	 -0.042752	 2.712344	 -1.410215	 0.650430	 -0.368540	 0.660962	 -0.548229	 0.356022	 1
1463570511.536	 9	 0.004932	 0.206567	 -0.028263	 2.713957	 -1.410432	 0.649901	 -0.367917	 0.661276	 -0.548702	 0.355355	 1
1463570511.546	 9	 0.005928	 0.182176	 -0.017839	 2.714688	 -1.410668	 0.648807	 -0.367349	 0.661530	 -0.549119	 0.354826	 1
1463570511.556	 9	 -0.013271	 0.189624	 -0.025058	 2.713689	 -1.410948	 0.646033	 -0.366699	 0.661771	 -0.549532	 0.354409	 1
1463570511.566	 9	 -0.001390	 0.193012	 0.006843	 2.716100	 -1.410838	 0.646517	 -0.366199	 0.662145	 -0.549847	 0.353738	 1
1463570511.576	 9	 0.064864	 0.189815	 0.032881	 2.714584	 -1.411243	 0.643052	 -0.365459	 0.662379	 -0.550334	 0.353309	 1
1463570511.586	 9	 0.084142	 0.185665	 0.055055	 2.711592	 -1.411781	 0.638127	 -0.364639	 0.662574	 -0.550859	 0.352971	 1
1463570511.596	 9	 0.093770	 0.171971	 0.077225	 2.706837	 -1.412314	 0.631522	 -0.363749	 0.662763	 -0.551358	 0.352753	 1
1463570511.606	 9	 0.077730	 0.154037	 0.091052	 2.701965	 -1.412547	 0.624962	 -0.362914	 0.663020	 -0.551717	 0.352570	 1
1463570511.616	 9	 0.046623	 0.102173	 0.113221	 2.696919	 -1.412393	 0.618628	 -0.362209	 0.663329	 -0.551861	 0.352489	 1
1463570511.626	 9	 0.017696	 0.064104	 0.134504	 2.690295	 -1.411714	 0.611201	 -0.361583	 0.663727	 -0.551717	 0.352608	 1
1463570511.636	 9	 -0.048576	 0.020869	 0.159191	 2.682962	 -1.410684	 0.603415	 -0.361033	 0.664178	 -0.551378	 0.352853	 1
1463570511.646	 9	 -0.108426	 -0.025514	 0.192319	 2.675692	 -1.408978	 0.596206	 -0.360658	 0.664753	 -0.550697	 0.353216	 1
1463570511.656	 9	 -0.134946	 -0.017765	 0.223529	 2.667455	 -1.406833	 0.588080	 -0.360237	 0.665463	 -0.549841	 0.353642	 1
1463570511.666	 9	 -0.123961	 0.023895	 0.252596	 2.658111	 -1.404725	 0.578487	 -0.359618	 0.666225	 -0.549062	 0.354048	 1
1463570511.676	 9	 -0.101035	 0.105954	 0.284068	 2.646121	 -1.402788	 0.565482	 -0.358572	 0.667069	 -0.548482	 0.354419	 1
1463570511.686	 9	 -0.012241	 0.117683	 0.323899	 2.632134	 -1.401617	 0.550103	 -0.357268	 0.667724	 -0.548263	 0.354840	 1
1463570511.696	 9	 0.057145	 0.118569	 0.327566	 2.615564	 -1.400386	 0.532082	 -0.355777	 0.668396	 -0.548044	 0.355413	 1
1463570511.706	 9	 0.086946	 0.071941	 0.363109	 2.596518	 -1.399273	 0.511830	 -0.354204	 0.668965	 -0.547845	 0.356218	 1
1463570511.716	 9	 0.103998	 0.019124	 0.420020	 2.574303	 -1.398018	 0.488971	 -0.352607	 0.669450	 -0.547523	 0.357384	 1
1463570511.726	 9	 0.123433	 -0.014269	 0.516527	 2.545084	 -1.396218	 0.459448	 -0.350654	 0.669992	 -0.546993	 0.359097	 1
1463570511.736	 9	 0.140674	 -0.035107	 0.583326	 2.514189	 -1.394079	 0.428374	 -0.348588	 0.670556	 -0.546378	 0.360987	 1
1463570511.746	 9	 0.120692	 -0.034513	 0.657043	 2.481168	 -1.391280	 0.395191	 -0.346313	 0.671247	 -0.545593	 0.363075	 1
1463570511.756	 9	 0.079487	 -0.011496	 0.734351	 2.447529	 -1.387494	 0.361179	 -0.343798	 0.672203	 -0.544559	 0.365242	 1
1463570511.766	 9	 0.051922	 0.001568	 0.764554	 2.414722	 -1.382975	 0.327827	 -0.341137	 0.673342	 -0.543358	 0.367422	 1
1463570511.776	 9	 0.026445	 0.035626	 0.760876	 2.385077	 -1.378072	 0.297297	 -0.338443	 0.674612	 -0.542117	 0.369412	 1
1463570511.786	 9	 0.073142	 -0.050394	 0.798037	 2.354133	 -1.372988	 0.265997	 -0.335732	 0.675738	 -0.540814	 0.371730	 1
1463570511.796	 9	 0.153834	 -0.165265	 0.830370	 2.320183	 -1.367992	 0.232725	 -0.333082	 0.676504	 -0.539502	 0.374614	 1
1463570511.806	 9	 0.280257	 -0.338552	 0.892668	 2.280383	 -1.363086	 0.195067	 -0.330443	 0.676746	 -0.538194	 0.378377	 1
1463570511.816	 9	 0.377092	 -0.447953	 0.952621	 2.235075	 -1.358130	 0.153140	 -0.327738	 0.676497	 -0.536926	 0.382949	 1
1463570511.826	 9	 0.249678	 -0.347283	 0.996232	 2.193565	 -1.351964	 0.114584	 -0.324866	 0.676590	 -0.535377	 0.387374	 1
1463570511.836	 9	 0.127953	 -0.139486	 1.001357	 2.160630	 -1.344610	 0.082827	 -0.321688	 0.677412	 -0.533639	 0.390973	 1
1463570511.846	 9	 0.011453	 0.050168	 0.999873	 2.136270	 -1.336461	 0.057660	 -0.318201	 0.678937	 -0.531830	 0.393636	 1
1463570511.856	 9	 -0.053150	 0.127178	 1.033125	 2.116535	 -1.327562	 0.036211	 -0.314503	 0.680876	 -0.529854	 0.395917	 1
1463570511.866	 9	 -0.100725	 0.193509	 1.067195	 2.099921	 -1.317992	 0.017255	 -0.310600	 0.683122	 -0.527718	 0.397978	 1
1463570511.876	 9	 -0.109900	 0.266021	 1.089265	 2.085545	 -1.308043	 -0.000187	 -0.306456	 0.685582	 -0.525561	 0.399810	 1
1463570511.886	 9	 -0.087254	 0.296963	 1.111736	 2.071969	 -1.297937	 -0.017326	 -0.302082	 0.688102	 -0.523472	 0.401545	 1
1463570511.896	 9	 -0.053376	 0.215174	 1.140522	 2.057414	 -1.287657	 -0.034983	 -0.297661	 0.690449	 -0.521342	 0.403584	 1
1463570511.906	 9	 -0.030682	 0.053403	 1.135622	 2.041779	 -1.277395	 -0.052285	 -0.293553	 0.692418	 -0.519056	 0.406159	 1
1463570511.916	 9	 -0.021730	 -0.083839	 1.134266	 2.025475	 -1.267146	 -0.068794	 -0.289806	 0.694024	 -0.516588	 0.409242	 1
1463570511.926	 9	 -0.013921	 -0.241248	 1.138063	 2.008589	 -1.256813	 -0.084428	 -0.286405	 0.695298	 -0.513904	 0.412839	 1
1463570511.936	 9	 -0.000892	 -0.417866	 1.135240	 1.990625	 -1.246485	 -0.099421	 -0.283416	 0.696145	 -0.511013	 0.417041	 1
1463570511.946	 9	 -0.014270	 -0.540145	 1.138524	 1.972477	 -1.236033	 -0.113158	 -0.280794	 0.696692	 -0.507871	 0.421714	 1
1463570511.956	 9	 -0.024324	 -0.633727	 1.136675	 1.954655	 -1.225443	 -0.125561	 -0.278434	 0.697040	 -0.504522	 0.426694	 1
1463570511.966	 9	 -0.028659	 -0.653870	 1.143986	 1.937330	 -1.214704	 -0.137042	 -0.276148	 0.697288	 -0.501068	 0.431813	 1
1463570511.976	 9	 -0.072479	 -0.630663	 1.099821	 1.922102	 -1.204105	 -0.146528	 -0.273990	 0.697581	 -0.497580	 0.436720	 1
1463570511.986	 9	 -0.133606	 -0.769164	 1.189654	 1.907879	 -1.192946	 -0.154096	 -0.272037	 0.697857	 -0.493680	 0.441896	 1
1463570511.996	 9	 -0.166148	 -0.932418	 1.251298	 1.892779	 -1.180560	 -0.160786	 -0.270214	 0.697978	 -0.489116	 0.447857	 1
1463570512.006	 9	 -0.092543	 -1.129705	 1.209388	 1.875743	 -1.168630	 -0.167542	 -0.268875	 0.697471	 -0.484500	 0.454423	 1
1463570512.016	 9	 0.089124	 -1.444910	 1.377527	 1.852524	 -1.156121	 -0.178130	 -0.267440	 0.696047	 -0.479809	 0.462361	 1
1463570512.026	 9	 0.191907	 -1.839867	 1.662844	 1.821950	 -1.141226	 -0.192467	 -0.265676	 0.693663	 -0.474364	 0.472469	 1
1463570512.036	 9	 0.207322	 -1.914974	 1.871966	 1.789405	 -1.123977	 -0.207153	 -0.263413	 0.690991	 -0.468170	 0.483696	 1
1463570512.046	 9	 0.259508	 -1.659417	 2.079582	 1.758963	 -1.104639	 -0.221750	 -0.259876	 0.688841	 -0.461778	 0.494696	 1
1463570512.056	 9	 0.370212	 -1.254788	 2.333903	 1.731177	 -1.082870	 -0.237645	 -0.254344	 0.687562	 -0.455521	 0.505044	 1
1463570512.066	 9	 0.512166	 -0.734760	 2.527212	 1.707114	 -1.058976	 -0.255151	 -0.246548	 0.687381	 -0.449732	 0.514259	 1
1463570512.076	 9	 0.638538	 -0.259084	 2.611536	 1.687361	 -1.033986	 -0.273712	 -0.236872	 0.688207	 -0.444648	 0.522064	 1
1463570512.086	 9	 0.788124	 0.060148	 2.546061	 1.670537	 -1.009199	 -0.293318	 -0.226056	 0.689502	 -0.440456	 0.528663	 1
1463570512.096	 9	 0.901285	 0.277118	 2.297706	 1.655861	 -0.986439	 -0.313450	 -0.215067	 0.690783	 -0.437440	 0.534051	 1
1463570512.106	 9	 0.922230	 0.354367	 2.105340	 1.643319	 -0.965830	 -0.332866	 -0.204424	 0.691965	 -0.435261	 0.538463	 1
1463570512.116	 9	 0.838231	 0.250946	 2.036900	 1.631993	 -0.945942	 -0.350166	 -0.194382	 0.692895	 -0.432985	 0.542804	 1
1463570512.126	 9	 0.699588	 0.082967	 1.990716	 1.621833	 -0.926371	 -0.364477	 -0.185140	 0.693575	 -0.430215	 0.547350	 1
1463570512.136	 9	 0.548364	 -0.272097	 1.954625	 1.611205	 -0.907059	 -0.375543	 -0.177131	 0.693591	 -0.426684	 0.552718	 1
1463570512.146	 9	 0.455028	 -0.611039	 1.965073	 1.599195	 -0.887640	 -0.384217	 -0.170132	 0.692833	 -0.422427	 0.559101	 1
1463570512.156	 9	 0.445459	 -1.073527	 1.986430	 1.583863	 -0.867898	 -0.391833	 -0.164005	 0.690888	 -0.417592	 0.566916	 1
1463570512.166	 9	 0.440359	 -1.736901	 2.028261	 1.562862	 -0.847698	 -0.398689	 -0.159054	 0.687078	 -0.412062	 0.576914	 1
1463570512.176	 9	 0.484367	 -2.043083	 1.918453	 1.538171	 -0.828010	 -0.405089	 -0.155063	 0.681854	 -0.406391	 0.588113	 1
1463570512.186	 9	 0.568385	 -2.070043	 1.608399	 1.512308	 -0.810827	 -0.412011	 -0.151879	 0.675868	 -0.401631	 0.599022	 1
1463570512.196	 9	 0.643315	 -2.122229	 1.189482	 1.485907	 -0.797430	 -0.419621	 -0.149815	 0.669284	 -0.398225	 0.609123	 1
1463570512.206	 9	 0.707788	 -2.313018	 0.720342	 1.457125	 -0.788381	 -0.428293	 -0.149375	 0.661592	 -0.396269	 0.618833	 1
1463570512.216	 9	 0.713956	 -2.664094	 0.271533	 1.424903	 -0.783723	 -0.437674	 -0.150966	 0.652476	 -0.395532	 0.628521	 1
1463570512.226	 9	 0.618411	 -3.206340	 -0.033226	 1.387886	 -0.782342	 -0.446679	 -0.154858	 0.641494	 -0.395197	 0.639002	 1
1463570512.236	 9	 0.369130	 -3.676716	 -0.169719	 1.347593	 -0.782888	 -0.453153	 -0.160960	 0.628995	 -0.394240	 0.650409	 1
1463570512.246	 9	 0.078401	 -3.796911	 -0.141662	 1.307841	 -0.784076	 -0.455737	 -0.168423	 0.616126	 -0.392104	 0.662024	 1
1463570512.256	 9	 -0.100093	 -3.497757	 -0.028616	 1.272430	 -0.784690	 -0.455068	 -0.175778	 0.604234	 -0.388979	 0.672829	 1
1463570512.266	 9	 -0.249324	 -2.935466	 0.154845	 1.245052	 -0.782782	 -0.450940	 -0.181569	 0.594639	 -0.384695	 0.682237	 1
1463570512.276	 9	 -0.305119	 -2.330203	 0.434864	 1.224243	 -0.780366	 -0.445301	 -0.186267	 0.587039	 -0.380300	 0.689973	 1
1463570512.286	 9	 -0.306493	 -1.750415	 0.744013	 1.210418	 -0.775166	 -0.438025	 -0.188955	 0.581682	 -0.375316	 0.696477	 1
1463570512.296	 9	 -0.342340	 -1.223840	 1.034849	 1.203282	 -0.767342	 -0.428923	 -0.189830	 0.578499	 -0.369710	 0.701868	 1
1463570512.306	 9	 -0.398227	 -0.850560	 1.298855	 1.201617	 -0.757222	 -0.417827	 -0.189330	 0.577088	 -0.363374	 0.706458	 1
1463570512.316	 9	 -0.444515	 -0.708081	 1.567025	 1.203104	 -0.744804	 -0.404923	 -0.187859	 0.576686	 -0.356127	 0.710856	 1
1463570512.326	 9	 -0.507661	 -0.752690	 1.843192	 1.205658	 -0.729982	 -0.390185	 -0.185775	 0.576578	 -0.347706	 0.715644	 1
1463570512.336	 9	 -0.650125	 -0.836712	 2.079184	 1.208844	 -0.713252	 -0.373012	 -0.183535	 0.576561	 -0.337931	 0.720899	 1
1463570512.346	 9	 -0.844916	 -0.892175	 2.272201	 1.213022	 -0.695207	 -0.352977	 -0.181449	 0.576730	 -0.326784	 0.726410	 1
1463570512.356	 9	 -1.038029	 -1.011743	 2.426239	 1.217721	 -0.676256	 -0.330220	 -0.179730	 0.576935	 -0.314333	 0.732146	 1
1463570512.366	 9	 -1.174610	 -1.382323	 2.603028	 1.220323	 -0.656228	 -0.305344	 -0.178543	 0.576288	 -0.300495	 0.738727	 1
1463570512.376	 9	 -1.185381	 -1.805153	 2.812340	 1.218911	 -0.634413	 -0.279468	 -0.177515	 0.574184	 -0.285312	 0.746591	 1
1463570512.386	 9	 -1.089431	 -2.246214	 3.044000	 1.212522	 -0.610304	 -0.253802	 -0.176127	 0.570352	 -0.269013	 0.755850	 1
1463570512.396	 9	 -0.986199	 -2.692910	 3.235044	 1.200858	 -0.584063	 -0.228659	 -0.174266	 0.564642	 -0.251742	 0.766444	 1
1463570512.406	 9	 -0.938580	 -3.082720	 3.327987	 1.184414	 -0.556779	 -0.203696	 -0.172261	 0.557104	 -0.233711	 0.778036	 1
1463570512.416	 9	 -0.911158	 -3.362659	 3.310223	 1.164300	 -0.529704	 -0.178812	 -0.170395	 0.548053	 -0.215329	 0.790087	 1
1463570512.426	 9	 -0.825078	 -3.585891	 3.215740	 1.140904	 -0.503533	 -0.154720	 -0.168624	 0.537628	 -0.197118	 0.802288	 1
1463570512.436	 9	 -0.619752	 -3.838448	 3.085842	 1.113592	 -0.478270	 -0.132605	 -0.166626	 0.525625	 -0.179545	 0.814689	 1
1463570512.446	 9	 -0.323484	 -4.060268	 2.977820	 1.082172	 -0.453370	 -0.113307	 -0.163916	 0.511993	 -0.162868	 0.827326	 1
1463570512.456	 9	 0.012864	 -4.180949	 2.899165	 1.047601	 -0.428207	 -0.096965	 -0.160081	 0.497097	 -0.147156	 0.840008	 1
1463570512.466	 9	 0.394322	 -4.253783	 2.836549	 1.010608	 -0.402251	 -0.083671	 -0.154816	 0.481212	 -0.132479	 0.852594	 1
1463570512.476	 9	 0.796473	 -4.254218	 2.792545	 0.971905	 -0.374990	 -0.073387	 -0.147875	 0.464603	 -0.118869	 0.864955	 1
1463570512.486	 9	 1.083851	 -4.035334	 2.878406	 0.933939	 -0.345862	 -0.064608	 -0.139245	 0.448199	 -0.105833	 0.876657	 1
1463570512.496	 9	 1.338160	 -3.604546	 2.984645	 0.899489	 -0.314633	 -0.056272	 -0.128954	 0.433166	 -0.093104	 0.887169	 1
1463570512.506	 9	 1.622462	 -3.136736	 3.074981	 0.869160	 -0.281196	 -0.048543	 -0.116955	 0.419837	 -0.080780	 0.896400	 1
1463570512.516	 9	 1.925549	 -2.509638	 3.137860	 0.844149	 -0.245483	 -0.041814	 -0.103165	 0.408818	 -0.069072	 0.904132	 1
1463570512.526	 9	 2.210906	 -1.766801	 3.166800	 0.825833	 -0.207685	 -0.036308	 -0.087683	 0.400779	 -0.058126	 0.910115	 1
1463570512.536	 9	 2.471358	 -1.084651	 3.177275	 0.814185	 -0.168063	 -0.032156	 -0.070720	 0.395732	 -0.047940	 0.914383	 1
1463570512.546	 9	 2.714069	 -0.765179	 3.182397	 0.806546	 -0.126656	 -0.029439	 -0.052438	 0.392458	 -0.038343	 0.917473	 1
1463570512.556	 9	 2.728921	 -1.052917	 2.964306	 0.796738	 -0.085936	 -0.027994	 -0.034163	 0.388073	 -0.029550	 0.920521	 1
1463570512.566	 9	 2.815436	 -1.057082	 2.718389	 0.786208	 -0.046505	 -0.028285	 -0.016059	 0.383219	 -0.021965	 0.923257	 1
1463570512.576	 9	 2.809833	 -1.250180	 2.342558	 0.774157	 -0.009292	 -0.030759	 0.001504	 0.377502	 -0.015995	 0.925869	 1
1463570512.586	 9	 2.715772	 -1.377428	 1.918020	 0.760723	 0.024535	 -0.035264	 0.017934	 0.370970	 -0.011816	 0.928397	 1
1463570512.596	 9	 2.529819	 -1.565777	 1.537409	 0.745853	 0.054441	 -0.041064	 0.032818	 0.363610	 -0.009198	 0.930928	 1
1463570512.606	 9	 2.349469	 -1.805328	 1.285231	 0.728777	 0.081153	 -0.047221	 0.046298	 0.355091	 -0.007587	 0.933654	 1
1463570512.616	 9	 2.234900	 -1.977398	 1.124762	 0.710014	 0.105791	 -0.053430	 0.058828	 0.345663	 -0.006640	 0.936489	 1
1463570512.626	 9	 2.119368	 -2.162983	 1.006808	 0.689572	 0.128904	 -0.059400	 0.070606	 0.335345	 -0.006130	 0.939426	 1
1463570512.636	 9	 1.996458	 -2.361033	 0.927168	 0.667211	 0.150601	 -0.064825	 0.081626	 0.324049	 -0.005912	 0.942494	 1
1463570512.646	 9	 1.897240	 -2.557710	 0.899558	 0.642868	 0.171336	 -0.069420	 0.092056	 0.311762	 -0.005789	 0.945673	 1
1463570512.656	 9	 1.818738	 -2.688269	 0.904355	 0.616877	 0.191496	 -0.073020	 0.102059	 0.298655	 -0.005618	 0.948872	 1
1463570512.666	 9	 1.768707	 -2.682623	 0.929356	 0.590482	 0.211371	 -0.075584	 0.111785	 0.285327	 -0.005274	 0.951874	 1
1463570512.676	 9	 1.772403	 -2.613193	 0.971535	 0.564533	 0.231412	 -0.077223	 0.121477	 0.272184	 -0.004694	 0.954535	 1
1463570512.686	 9	 1.846351	 -2.589642	 1.022267	 0.538868	 0.252241	 -0.078217	 0.131480	 0.259129	 -0.003932	 0.956844	 1
1463570512.696	 9	 1.944552	 -2.623634	 1.067989	 0.512879	 0.274151	 -0.078724	 0.141963	 0.245863	 -0.003076	 0.958847	 1
1463570512.706	 9	 2.017983	 -2.692761	 1.098679	 0.486135	 0.296958	 -0.078737	 0.152843	 0.232197	 -0.002204	 0.960582	 1
1463570512.716	 9	 1.994603	 -2.681969	 1.110705	 0.459026	 0.319687	 -0.077974	 0.163627	 0.218391	 -0.001288	 0.962045	 1
1463570512.726	 9	 1.877341	 -2.616016	 1.064358	 0.432699	 0.338466	 -0.076520	 0.172473	 0.205152	 -0.000696	 0.963413	 1
1463570512.736	 9	 1.738423	 -2.530533	 0.916089	 0.406633	 0.358348	 -0.074904	 0.181863	 0.192011	 -0.000125	 0.964395	 1
1463570512.746	 9	 1.621886	 -2.399827	 0.706232	 0.382051	 0.376362	 -0.074177	 0.190459	 0.179575	 -0.000268	 0.965131	 1
1463570512.756	 9	 1.555677	 -2.236266	 0.500507	 0.359503	 0.392978	 -0.074778	 0.198502	 0.168042	 -0.001191	 0.965587	 1
1463570512.766	 9	 1.533392	 -2.071472	 0.335976	 0.339120	 0.408706	 -0.076672	 0.206209	 0.157450	 -0.002771	 0.965753	 1
1463570512.776	 9	 1.523005	 -1.914859	 0.221355	 0.320758	 0.423932	 -0.079535	 0.213725	 0.147738	 -0.004798	 0.965646	 1
1463570512.786	 9	 1.496686	 -1.817115	 0.195850	 0.303661	 0.438855	 -0.082568	 0.221076	 0.138615	 -0.006925	 0.965331	 1
1463570512.796	 9	 1.441443	 -1.798573	 0.237002	 0.286693	 0.453449	 -0.084886	 0.228187	 0.129635	 -0.008837	 0.964908	 1
1463570512.806	 9	 1.353901	 -1.853212	 0.293742	 0.268869	 0.467458	 -0.086119	 0.234917	 0.120385	 -0.010484	 0.964475	 1
1463570512.816	 9	 1.233343	 -1.901309	 0.359355	 0.249929	 0.480577	 -0.086057	 0.241116	 0.110790	 -0.011819	 0.964079	 1
1463570512.826	 9	 1.087168	 -1.955665	 0.431528	 0.229843	 0.492483	 -0.084548	 0.246636	 0.100877	 -0.012790	 0.963759	 1
1463570512.836	 9	 0.956050	 -1.951856	 0.463612	 0.208969	 0.503109	 -0.081883	 0.251479	 0.090795	 -0.013487	 0.963500	 1
1463570512.846	 9	 0.875092	 -1.896519	 0.434991	 0.188418	 0.512736	 -0.078910	 0.255837	 0.080967	 -0.014152	 0.963219	 1
1463570512.856	 9	 0.824009	 -1.808591	 0.365914	 0.168769	 0.521638	 -0.076255	 0.259872	 0.071580	 -0.014979	 0.962870	 1
1463570512.866	 9	 0.798577	 -1.672159	 0.249105	 0.150809	 0.530017	 -0.074517	 0.263700	 0.062924	 -0.016130	 0.962415	 1
1463570512.876	 9	 0.782850	 -1.499722	 0.114429	 0.135172	 0.538020	 -0.074136	 0.267401	 0.055234	 -0.017708	 0.961838	 1
1463570512.886	 9	 0.754499	 -1.322699	 0.020404	 0.121847	 0.545638	 -0.074805	 0.270952	 0.048536	 -0.019550	 0.961170	 1
1463570512.896	 9	 0.721064	 -1.127275	 -0.031840	 0.110719	 0.552862	 -0.076044	 0.274332	 0.042833	 -0.021423	 0.960442	 1
1463570512.906	 9	 0.685598	 -0.942205	 -0.045796	 0.101611	 0.559717	 -0.077451	 0.277546	 0.038091	 -0.023145	 0.959678	 1
1463570512.916	 9	 0.671407	 -0.791065	 -0.036805	 0.093991	 0.566370	 -0.078670	 0.280665	 0.034096	 -0.024601	 0.958885	 1
1463570512.926	 9	 0.683959	 -0.597706	 -0.061759	 0.088211	 0.573087	 -0.080038	 0.283829	 0.030963	 -0.025888	 0.958025	 1
1463570512.936	 9	 0.702049	 -0.351271	 -0.096894	 0.085104	 0.579957	 -0.081832	 0.287101	 0.029044	 -0.027008	 0.957079	 1
1463570512.946	 9	 0.703621	 -0.245964	 -0.094862	 0.083498	 0.586906	 -0.083690	 0.290426	 0.027828	 -0.027948	 0.956084	 1
1463570512.956	 9	 0.659849	 -0.238488	 -0.108267	 0.082188	 0.593540	 -0.085591	 0.293599	 0.026750	 -0.028875	 0.955118	 1
1463570512.966	 9	 0.554028	 -0.256416	 -0.129893	 0.080840	 0.599251	 -0.087681	 0.296330	 0.025646	 -0.029924	 0.954272	 1
1463570512.976	 9	 0.396172	 -0.241036	 -0.126244	 0.079481	 0.603516	 -0.089664	 0.298366	 0.024588	 -0.030962	 0.953632	 1
1463570512.986	 9	 0.226760	 -0.197873	 -0.109447	 0.078313	 0.606105	 -0.091305	 0.299601	 0.023714	 -0.031853	 0.953238	 1
1463570512.996	 9	 0.076740	 -0.115420	 -0.093518	 0.077675	 0.607148	 -0.092605	 0.300102	 0.023187	 -0.032542	 0.953070	 1
1463570513.006	 9	 -0.033878	 -0.039560	 -0.090784	 0.077746	 0.606979	 -0.093695	 0.300036	 0.023062	 -0.033055	 0.953076	 1
1463570513.016	 9	 -0.072183	 0.006100	 -0.116669	 0.078418	 0.606233	 -0.094952	 0.299706	 0.023215	 -0.033572	 0.953158	 1
1463570513.026	 9	 -0.058251	 0.056782	 -0.162147	 0.079871	 0.605485	 -0.096729	 0.299395	 0.023662	 -0.034221	 0.953222	 1
1463570513.036	 9	 -0.010148	 0.097913	 -0.190958	 0.082030	 0.605095	 -0.098961	 0.299274	 0.024369	 -0.034972	 0.953215	 1
1463570513.046	 9	 0.059426	 0.140267	 -0.189039	 0.084659	 0.605352	 -0.101312	 0.299472	 0.025262	 -0.035692	 0.953103	 1
1463570513.056	 9	 0.118461	 0.199765	 -0.174078	 0.087795	 0.606245	 -0.103584	 0.299983	 0.026389	 -0.036279	 0.952889	 1
1463570513.066	 9	 0.161454	 0.251864	 -0.159047	 0.091425	 0.607605	 -0.105729	 0.300725	 0.027753	 -0.036716	 0.952600	 1
1463570513.076	 9	 0.188266	 0.254136	 -0.128352	 0.095063	 0.609303	 -0.107603	 0.301626	 0.029148	 -0.037010	 0.952262	 1
1463570513.086	 9	 0.183983	 0.196126	 -0.062778	 0.097929	 0.611101	 -0.108851	 0.302552	 0.030264	 -0.037115	 0.951929	 1
1463570513.096	 9	 0.159158	 0.065986	 0.021489	 0.099014	 0.612733	 -0.108984	 0.303349	 0.030706	 -0.036962	 0.951667	 1
1463570513.106	 9	 0.159687	 -0.059422	 0.035238	 0.098583	 0.614329	 -0.108767	 0.304096	 0.030481	 -0.036874	 0.951439	 1
1463570513.116	 9	 0.180902	 -0.120877	 0.076046	 0.097173	 0.616123	 -0.108189	 0.304914	 0.029838	 -0.036757	 0.951203	 1
1463570513.126	 9	 0.233188	 -0.142129	 0.099905	 0.095234	 0.618384	 -0.107257	 0.305937	 0.028984	 -0.036540	 0.950909	 1
1463570513.136	 9	 0.275103	 -0.098482	 0.122327	 0.093487	 0.621158	 -0.106183	 0.307207	 0.028228	 -0.036212	 0.950534	 1
1463570513.146	 9	 0.311572	 -0.032875	 0.090648	 0.092450	 0.624277	 -0.105250	 0.308655	 0.027779	 -0.035835	 0.950093	 1
1463570513.156	 9	 0.339345	 0.037744	 0.013262	 0.092621	 0.627626	 -0.105239	 0.310246	 0.027754	 -0.035703	 0.949580	 1
1463570513.166	 9	 0.317337	 0.130281	 0.004723	 0.093894	 0.630866	 -0.105579	 0.311809	 0.028201	 -0.035567	 0.949060	 1
1463570513.176	 9	 0.258964	 0.164779	 0.044985	 0.095504	 0.633639	 -0.105499	 0.313149	 0.028888	 -0.035193	 0.948612	 1
1463570513.186	 9	 0.189175	 0.286364	 0.062711	 0.097702	 0.635738	 -0.104988	 0.314174	 0.029942	 -0.034541	 0.948264	 1
1463570513.196	 9	 0.097752	 0.333672	 0.095920	 0.100465	 0.637054	 -0.104089	 0.314830	 0.031350	 -0.033639	 0.948034	 1
1463570513.206	 9	 -0.024985	 0.313980	 0.117062	 0.103996	 0.638949	 -0.103355	 0.315773	 0.033078	 -0.032673	 0.947695	 1
1463570513.216	 9	 -0.143886	 0.236552	 0.098191	 0.106988	 0.637968	 -0.102669	 0.315346	 0.034636	 -0.031908	 0.947808	 1
1463570513.226	 9	 -0.239576	 0.117446	 0.061672	 0.108784	 0.634674	 -0.102094	 0.313806	 0.035685	 -0.031464	 0.948294	 1
1463570513.236	 9	 -0.320382	 -0.011292	 0.022798	 0.109527	 0.629794	 -0.101887	 0.311503	 0.036230	 -0.031414	 0.949034	 1
1463570513.246	 9	 -0.371254	 -0.148460	 0.007033	 0.109041	 0.624401	 -0.101893	 0.308940	 0.036174	 -0.031675	 0.949865	 1
1463570513.256	 9	 -0.388766	 -0.254641	 0.024308	 0.107251	 0.619461	 -0.101727	 0.306565	 0.035509	 -0.032036	 0.950647	 1
1463570513.266	 9	 -0.374755	 -0.257595	 0.062526	 0.103967	 0.615731	 -0.100595	 0.304723	 0.034240	 -0.032123	 0.951283	 1
1463570513.276	 9	 -0.320952	 -0.189457	 0.093598	 0.101011	 0.612473	 -0.099114	 0.303103	 0.033161	 -0.031971	 0.951844	 1
1463570513.286	 9	 -0.241498	 -0.092853	 0.100200	 0.098958	 0.609973	 -0.097579	 0.301857	 0.032494	 -0.031629	 0.952274	 1
1463570513.306	 10	 -0.140328	 0.070798	 0.121092	 0.097243	 0.606728	 -0.094010	 0.300229	 0.032312	 -0.030286	 0.952838	 1
1463570513.316	 10	 -0.096435	 0.143681	 0.069165	 0.097888	 0.605753	 -0.092945	 0.299758	 0.032808	 -0.029711	 0.952988	 1
1463570513.326	 10	 -0.082393	 0.176636	 0.072547	 0.099068	 0.604988	 -0.091980	 0.299395	 0.033537	 -0.029098	 0.953096	 1
1463570513.336	 10	 -0.092066	 0.176542	 0.055575	 0.100412	 0.603658	 -0.091172	 0.298768	 0.034337	 -0.028553	 0.953280	 1
1463570513.346	 10	 -0.109232	 0.167991	 0.042856	 0.101752	 0.602654	 -0.090500	 0.298297	 0.035105	 -0.028063	 0.953414	 1
1463570513.356	 10	 -0.109500	 0.101072	 0.055025	 0.102521	 0.601603	 -0.089734	 0.297794	 0.035616	 -0.027616	 0.953566	 1
1463570513.366	 10	 -0.120405	 0.034248	 0.075813	 0.102450	 0.600520	 -0.088752	 0.297260	 0.035760	 -0.027192	 0.953739	 1
1463570513.376	 10	 -0.135545	 -0.031444	 0.104107	 0.102148	 0.598968	 -0.087741	 0.296498	 0.035811	 -0.026803	 0.953985	 1
1463570513.386	 10	 -0.126321	 -0.139720	 0.137123	 0.100065	 0.597795	 -0.086023	 0.295881	 0.035104	 -0.026327	 0.954216	 1
1463570513.396	 10	 -0.086966	 -0.180142	 0.152391	 0.097193	 0.596977	 -0.084092	 0.295421	 0.034042	 -0.025854	 0.954410	 1
1463570513.406	 10	 -0.058028	 -0.138877	 0.134405	 0.094707	 0.596470	 -0.082336	 0.295118	 0.033128	 -0.025399	 0.954549	 1
1463570513.416	 11	 -0.055785	 -0.098620	 0.113447	 0.092253	 0.596372	 -0.080544	 0.295011	 0.032224	 -0.024908	 0.954625	 1
