% Gyrometer data recorded with 'snsrlog'
% 
% 
% Label description:
% 	 0: Default Label
% 	 1: still_drop
% 	 2: walk_drop
% 	 3: other
% 	 4: dtw_same
% 	 5: dtw_diff
% 	 6: delete
% 	 7: steal
% 
% Column description:
% 	 1: Seconds.milliseconds since 1970
% 	 2: Number of skipped measurements
% 	 3: Gyro X
% 	 4: Gyro Y
% 	 5: Gyro Z
% 	 6: Roll of the device
% 	 7: Pitch of the device
% 	 8: Yaw of the device
% 	 9: Quaternion X
% 	 10: Quaternion Y
% 	 11: Quaternion Z
% 	 12: Quaternion W
% 	 13: Label used for the current sample
% 
% 
1463623886.277	 0	 -0.486340	 0.220825	 -0.876177	 0.346369	 0.639690	 -0.160376	 0.321824	 0.138246	 -0.020895	 0.936419	 1
1463623886.287	 0	 -0.430176	 0.441215	 -0.969468	 0.355647	 0.632264	 -0.169551	 0.319127	 0.141609	 -0.024413	 0.936754	 1
1463623886.307	 1	 -0.376649	 1.041029	 -1.102902	 0.383718	 0.617350	 -0.190259	 0.314130	 0.152523	 -0.031169	 0.936529	 1
1463623886.317	 1	 -0.361294	 1.402201	 -1.159358	 0.403315	 0.609581	 -0.201534	 0.311741	 0.160516	 -0.034214	 0.935886	 1
1463623886.327	 1	 -0.345503	 1.784201	 -1.130362	 0.426456	 0.601775	 -0.212549	 0.309460	 0.170243	 -0.036652	 0.934830	 1
1463623886.337	 1	 -0.315418	 2.198556	 -1.034047	 0.452981	 0.594345	 -0.222493	 0.307413	 0.181712	 -0.038092	 0.933288	 1
1463623886.347	 1	 -0.272659	 2.592602	 -0.946557	 0.482886	 0.587456	 -0.231326	 0.305659	 0.194891	 -0.038495	 0.931187	 1
1463623886.357	 1	 -0.275199	 2.919477	 -0.899797	 0.515754	 0.580767	 -0.239377	 0.304048	 0.209547	 -0.038124	 0.928543	 1
1463623886.367	 1	 -0.362823	 3.126031	 -0.905638	 0.550493	 0.573310	 -0.246611	 0.302100	 0.225248	 -0.037272	 0.925532	 1
1463623886.377	 1	 -0.580230	 3.209456	 -0.929613	 0.585652	 0.563997	 -0.252531	 0.299224	 0.241499	 -0.036120	 0.922409	 1
1463623886.387	 1	 -0.908394	 3.156705	 -1.002916	 0.619579	 0.551665	 -0.256546	 0.294777	 0.257743	 -0.034881	 0.919488	 1
1463623886.397	 1	 -1.271761	 2.734298	 -1.171008	 0.649589	 0.535540	 -0.258912	 0.288378	 0.272796	 -0.034260	 0.917195	 1
1463623886.407	 1	 -1.733247	 2.019481	 -1.513619	 0.672224	 0.514138	 -0.260449	 0.279410	 0.285112	 -0.035417	 0.916181	 1
1463623886.417	 1	 -2.291604	 1.700478	 -1.728076	 0.689657	 0.486746	 -0.259945	 0.267400	 0.295913	 -0.037611	 0.916252	 1
1463623886.427	 1	 -2.678299	 1.445904	 -1.788892	 0.703164	 0.455460	 -0.256525	 0.253129	 0.305625	 -0.039874	 0.917022	 1
1463623886.437	 1	 -2.877592	 1.324823	 -1.845835	 0.714451	 0.421999	 -0.251498	 0.237549	 0.314613	 -0.042237	 0.918044	 1
1463623886.447	 1	 -2.950574	 1.474905	 -1.859789	 0.726295	 0.387654	 -0.245610	 0.221396	 0.323885	 -0.044458	 0.918752	 1
1463623886.457	 1	 -2.921148	 1.852215	 -1.885310	 0.741579	 0.353286	 -0.239493	 0.205224	 0.334593	 -0.046391	 0.918574	 1
1463623886.467	 1	 -2.791300	 2.247353	 -1.905145	 0.761179	 0.319640	 -0.233745	 0.189509	 0.347003	 -0.048171	 0.917254	 1
1463623886.477	 1	 -2.561187	 2.649490	 -1.946037	 0.785239	 0.287350	 -0.229046	 0.174691	 0.361070	 -0.050066	 0.914661	 1
1463623886.487	 1	 -2.258238	 3.139423	 -2.024048	 0.814550	 0.256708	 -0.226143	 0.161107	 0.377080	 -0.052370	 0.910556	 1
1463623886.497	 1	 -1.906995	 3.716179	 -2.136842	 0.850085	 0.227690	 -0.225547	 0.148938	 0.395441	 -0.055312	 0.904646	 1
1463623886.507	 1	 -1.551705	 4.274592	 -2.283946	 0.891888	 0.199961	 -0.227529	 0.138188	 0.416159	 -0.059133	 0.896783	 1
1463623886.517	 1	 -1.248098	 4.759565	 -2.458993	 0.939109	 0.172779	 -0.231854	 0.128571	 0.438876	 -0.063984	 0.886997	 1
1463623886.527	 1	 -0.963121	 5.182544	 -2.683480	 0.990913	 0.145320	 -0.238376	 0.119796	 0.463221	 -0.070062	 0.875310	 1
1463623886.537	 1	 -0.677379	 5.594428	 -2.970956	 1.046959	 0.116729	 -0.247258	 0.111674	 0.489007	 -0.077682	 0.861607	 1
1463623886.547	 1	 -0.392943	 5.982682	 -3.290615	 1.107020	 0.086268	 -0.258438	 0.104052	 0.516082	 -0.087039	 0.845729	 1
1463623886.557	 1	 -0.170532	 6.120086	 -3.613133	 1.168965	 0.053269	 -0.271293	 0.096596	 0.543502	 -0.098183	 0.828031	 1
1463623886.567	 1	 -0.077377	 5.948840	 -3.869189	 1.229500	 0.017416	 -0.284254	 0.088735	 0.569909	 -0.110739	 0.809361	 1
1463623886.577	 1	 -0.065846	 5.642968	 -4.095946	 1.286663	 -0.021206	 -0.296038	 0.080072	 0.594523	 -0.124282	 0.790370	 1
1463623886.587	 1	 -0.025225	 5.282680	 -4.188110	 1.340046	 -0.061681	 -0.306263	 0.070793	 0.617132	 -0.138425	 0.771346	 1
1463623886.597	 1	 0.113922	 4.872116	 -4.133460	 1.388981	 -0.102196	 -0.315512	 0.061655	 0.637388	 -0.152839	 0.752712	 1
1463623886.607	 1	 0.361864	 4.650769	 -4.049220	 1.434705	 -0.141867	 -0.324890	 0.053350	 0.655743	 -0.167545	 0.734223	 1
1463623886.617	 1	 0.762421	 4.747282	 -4.072059	 1.479925	 -0.181471	 -0.336111	 0.046344	 0.673219	 -0.183251	 0.714875	 1
1463623886.627	 1	 1.307446	 4.990671	 -4.169392	 1.526295	 -0.222002	 -0.350846	 0.041066	 0.690374	 -0.200738	 0.693831	 1
1463623886.637	 1	 1.770725	 4.894813	 -4.293683	 1.571419	 -0.264269	 -0.368998	 0.037079	 0.706347	 -0.220160	 0.671736	 1
1463623886.647	 1	 1.936549	 4.360963	 -4.361909	 1.611204	 -0.308141	 -0.387982	 0.033087	 0.719828	 -0.240558	 0.650296	 1
1463623886.657	 1	 1.882568	 3.550653	 -4.361519	 1.643195	 -0.352799	 -0.405468	 0.028079	 0.730173	 -0.260866	 0.630879	 1
1463623886.667	 1	 1.714816	 2.554958	 -4.304312	 1.665858	 -0.397343	 -0.420417	 0.021506	 0.737088	 -0.280428	 0.614490	 1
1463623886.677	 1	 1.488459	 1.511089	 -4.167111	 1.678603	 -0.440756	 -0.432566	 0.013220	 0.740596	 -0.298769	 0.601731	 1
1463623886.687	 1	 1.262117	 0.632632	 -3.953768	 1.682679	 -0.482074	 -0.442246	 0.003570	 0.741249	 -0.315581	 0.592407	 1
1463623886.697	 1	 1.072381	 -0.005094	 -3.676688	 1.680266	 -0.520555	 -0.450162	 -0.006798	 0.739827	 -0.330750	 0.585845	 1
1463623886.707	 1	 0.939518	 -0.363149	 -3.384713	 1.673779	 -0.555950	 -0.457111	 -0.017228	 0.737131	 -0.344393	 0.581149	 1
1463623886.717	 1	 0.865656	 -0.425732	 -3.097963	 1.665880	 -0.588337	 -0.463796	 -0.027080	 0.734000	 -0.356754	 0.577268	 1
1463623886.727	 1	 0.864368	 -0.241935	 -2.834064	 1.658791	 -0.617969	 -0.470977	 -0.035764	 0.731119	 -0.368188	 0.573257	 1
1463623886.737	 1	 0.945950	 0.131640	 -2.620277	 1.654013	 -0.645352	 -0.479521	 -0.042828	 0.728950	 -0.379174	 0.568353	 1
1463623886.747	 1	 1.091363	 0.660868	 -2.464866	 1.652699	 -0.671138	 -0.490185	 -0.047955	 0.727828	 -0.390193	 0.561886	 1
1463623886.757	 1	 1.278180	 1.243055	 -2.335316	 1.655294	 -0.695742	 -0.503450	 -0.050967	 0.727869	 -0.401538	 0.553513	 1
1463623886.777	 2	 1.759138	 2.244945	 -1.998728	 1.669107	 -0.741190	 -0.539887	 -0.050201	 0.730535	 -0.425567	 0.531687	 1
1463623886.787	 2	 1.995247	 2.547031	 -1.753914	 1.677669	 -0.761258	 -0.563737	 -0.046391	 0.732435	 -0.438036	 0.519145	 1
1463623886.797	 2	 2.149286	 2.609288	 -1.466920	 1.684974	 -0.778907	 -0.590688	 -0.040820	 0.734081	 -0.450319	 0.506628	 1
1463623886.807	 2	 2.178535	 2.438111	 -1.153302	 1.689671	 -0.793697	 -0.619305	 -0.034202	 0.735126	 -0.461884	 0.495058	 1
1463623886.817	 2	 2.041666	 2.079491	 -0.794154	 1.691241	 -0.804991	 -0.647523	 -0.027253	 0.735457	 -0.472069	 0.485295	 1
1463623886.827	 2	 1.684237	 1.552538	 -0.416534	 1.690249	 -0.812183	 -0.672277	 -0.020806	 0.735225	 -0.480055	 0.478078	 1
1463623886.837	 2	 1.214218	 0.928981	 -0.059082	 1.687262	 -0.815230	 -0.691358	 -0.015542	 0.734574	 -0.485421	 0.473843	 1
1463623886.857	 3	 0.130293	 -0.255171	 0.626754	 1.678322	 -0.808978	 -0.708609	 -0.009276	 0.732770	 -0.487725	 0.474433	 1
1463623886.867	 3	 -0.482803	 -0.795143	 0.865798	 1.674288	 -0.800580	 -0.705026	 -0.008721	 0.732045	 -0.484539	 0.478807	 1
1463623886.877	 3	 -1.008571	 -1.304063	 1.022307	 1.670331	 -0.789822	 -0.694008	 -0.010052	 0.731352	 -0.478886	 0.485481	 1
1463623886.887	 3	 -1.586832	 -1.705636	 1.000158	 1.667474	 -0.778295	 -0.675227	 -0.013679	 0.730877	 -0.471050	 0.493703	 1
1463623886.897	 3	 -2.205864	 -1.987275	 0.780183	 1.667335	 -0.767892	 -0.647865	 -0.020177	 0.730933	 -0.461288	 0.502537	 1
1463623886.907	 3	 -2.781560	 -2.084381	 0.503996	 1.671228	 -0.759632	 -0.612136	 -0.029555	 0.731763	 -0.449902	 0.511115	 1
1463623886.927	 4	 -2.902058	 -1.066958	 0.393016	 1.695124	 -0.745721	 -0.531424	 -0.049291	 0.736966	 -0.425355	 0.522997	 1
1463623886.937	 4	 -2.277245	 -0.282931	 0.665575	 1.711814	 -0.736588	 -0.499501	 -0.054553	 0.741000	 -0.414601	 0.525403	 1
1463623886.947	 4	 -1.484574	 0.645637	 0.844231	 1.729757	 -0.726169	 -0.478741	 -0.055167	 0.745745	 -0.406357	 0.525067	 1
1463623886.957	 4	 -0.680311	 1.492708	 1.082775	 1.748797	 -0.714662	 -0.469451	 -0.051061	 0.751173	 -0.400739	 0.522054	 1
1463623886.967	 4	 0.093406	 2.101400	 1.437667	 1.767243	 -0.701343	 -0.471438	 -0.042342	 0.756813	 -0.397351	 0.517256	 1
1463623886.977	 4	 0.724794	 2.434739	 1.751803	 1.783189	 -0.685941	 -0.483358	 -0.029733	 0.762021	 -0.395638	 0.511772	 1
1463623886.987	 4	 1.045793	 2.682091	 1.670312	 1.798742	 -0.671428	 -0.500465	 -0.015510	 0.766956	 -0.395351	 0.505208	 1
1463623886.997	 4	 1.182026	 2.764337	 1.480185	 1.814653	 -0.659242	 -0.519293	 -0.001276	 0.771638	 -0.396072	 0.497695	 1
1463623887.007	 4	 1.199804	 2.667837	 1.234007	 1.830316	 -0.649651	 -0.537993	 0.012071	 0.775903	 -0.397429	 0.489775	 1
1463623887.017	 4	 1.205960	 2.384055	 0.971267	 1.844164	 -0.642851	 -0.555951	 0.023927	 0.779404	 -0.399377	 0.482136	 1
1463623887.027	 4	 1.173233	 1.971948	 0.743907	 1.854824	 -0.638411	 -0.572907	 0.034055	 0.781893	 -0.401784	 0.475451	 1
1463623887.037	 4	 1.033406	 1.573169	 0.404633	 1.862861	 -0.636762	 -0.587501	 0.041895	 0.783579	 -0.404522	 0.469692	 1
1463623887.047	 4	 0.737080	 1.198851	 0.147813	 1.865334	 -0.649773	 -0.600461	 0.043475	 0.783377	 -0.411872	 0.463455	 1
1463623887.057	 4	 0.341058	 0.946034	 -0.114334	 1.872294	 -0.651574	 -0.605643	 0.046390	 0.784796	 -0.413516	 0.459290	 1
1463623887.067	 4	 -0.089602	 0.776620	 -0.329577	 1.880872	 -0.654270	 -0.604779	 0.047001	 0.786670	 -0.414025	 0.455548	 1
1463623887.077	 4	 -0.495521	 0.842469	 -0.506609	 1.892931	 -0.657484	 -0.598242	 0.045942	 0.789421	 -0.413348	 0.451494	 1
1463623887.087	 4	 -0.882874	 1.216776	 -0.674539	 1.911308	 -0.660846	 -0.586236	 0.043966	 0.793660	 -0.411388	 0.446016	 1
1463623887.097	 4	 -1.209280	 2.012746	 -1.045833	 1.940046	 -0.665704	 -0.568599	 0.041387	 0.800134	 -0.408558	 0.437211	 1
1463623887.107	 4	 -1.399812	 2.742681	 -1.521238	 1.980303	 -0.673506	 -0.545753	 0.038125	 0.808798	 -0.405584	 0.424139	 1
1463623887.117	 4	 -1.373656	 2.320371	 -1.958095	 2.021822	 -0.684496	 -0.519520	 0.032753	 0.817176	 -0.403322	 0.410465	 1
1463623887.127	 4	 -1.027816	 0.738074	 -2.209232	 2.050144	 -0.698736	 -0.493603	 0.023919	 0.822185	 -0.402862	 0.401425	 1
1463623887.137	 4	 -0.375937	 -0.758371	 -2.084955	 2.058186	 -0.715124	 -0.474229	 0.013134	 0.822570	 -0.404946	 0.399030	 1
1463623887.147	 4	 0.031359	 -0.797299	 -1.861855	 2.057689	 -0.731804	 -0.461774	 0.003416	 0.820995	 -0.408612	 0.398737	 1
1463623887.157	 4	 0.154983	 -0.061559	 -1.703682	 2.061437	 -0.747791	 -0.452316	 -0.003995	 0.820196	 -0.412618	 0.396244	 1
1463623887.167	 4	 0.236467	 0.562636	 -1.544047	 2.071142	 -0.762812	 -0.444512	 -0.009199	 0.820556	 -0.416645	 0.391165	 1
1463623887.177	 4	 0.330807	 0.946633	 -1.354787	 2.083668	 -0.776479	 -0.438817	 -0.012534	 0.821502	 -0.420648	 0.384750	 1
1463623887.187	 4	 0.495727	 0.995703	 -1.268374	 2.096304	 -0.789874	 -0.435264	 -0.014835	 0.822402	 -0.425006	 0.377895	 1
1463623887.197	 4	 0.714634	 0.962622	 -1.194919	 2.106194	 -0.803699	 -0.434742	 -0.016530	 0.822662	 -0.430097	 0.371445	 1
1463623887.207	 4	 0.930855	 1.059133	 -1.145812	 2.114943	 -0.818092	 -0.436934	 -0.017451	 0.822584	 -0.435890	 0.364761	 1
1463623887.217	 4	 1.107229	 1.143506	 -1.173207	 2.122885	 -0.833551	 -0.441490	 -0.017804	 0.822174	 -0.442478	 0.357669	 1
1463623887.227	 4	 1.112822	 0.883839	 -1.337668	 2.129438	 -0.850486	 -0.445914	 -0.018856	 0.821252	 -0.449539	 0.350863	 1
1463623887.237	 4	 0.621281	 0.145595	 -1.696222	 2.135192	 -0.868104	 -0.442687	 -0.023363	 0.819940	 -0.455484	 0.345957	 1
1463623887.247	 4	 0.213380	 -0.158057	 -1.933161	 2.143182	 -0.885613	 -0.430757	 -0.030846	 0.818796	 -0.459940	 0.342164	 1
1463623887.257	 4	 -0.155914	 -0.501549	 -2.074890	 2.153921	 -0.902492	 -0.411986	 -0.040264	 0.817912	 -0.463114	 0.339003	 1
1463623887.267	 4	 -0.406223	 -0.738097	 -1.941691	 2.165004	 -0.917114	 -0.389127	 -0.050636	 0.817106	 -0.464877	 0.337139	 1
1463623887.277	 4	 -0.583379	 -0.834775	 -1.558440	 2.175161	 -0.927812	 -0.366194	 -0.060232	 0.816533	 -0.465248	 0.336437	 1
1463623887.287	 4	 -0.716911	 -0.842355	 -1.044716	 2.183308	 -0.933548	 -0.345473	 -0.068167	 0.816327	 -0.464152	 0.336937	 1
1463623887.297	 4	 -0.781666	 -0.761747	 -0.515850	 2.189016	 -0.934359	 -0.328627	 -0.073914	 0.816560	 -0.461814	 0.338370	 1
1463623887.307	 4	 -0.769844	 -0.675504	 -0.059004	 2.191893	 -0.931214	 -0.316373	 -0.077521	 0.817102	 -0.458663	 0.340535	 1
1463623887.317	 4	 -0.712627	 -0.581855	 0.264295	 2.192185	 -0.925371	 -0.308413	 -0.079347	 0.817803	 -0.455111	 0.343186	 1
1463623887.337	 5	 -0.384779	 -0.396982	 0.369737	 2.188576	 -0.913083	 -0.301301	 -0.080213	 0.818907	 -0.449089	 0.348247	 1
1463623887.347	 5	 -0.191247	 -0.247130	 0.285251	 2.185869	 -0.909206	 -0.301039	 -0.080023	 0.819053	 -0.447465	 0.350033	 1
1463623887.357	 5	 -0.071940	 -0.005510	 0.211858	 2.184492	 -0.906788	 -0.301909	 -0.079409	 0.819237	 -0.446645	 0.350789	 1
1463623887.367	 5	 -0.048013	 0.173446	 0.112067	 2.185325	 -0.905340	 -0.302578	 -0.078611	 0.819642	 -0.446246	 0.350530	 1
1463623887.377	 5	 -0.043133	 0.251691	 -0.096137	 2.188436	 -0.905369	 -0.301618	 -0.078317	 0.820145	 -0.446211	 0.349464	 1
1463623887.387	 5	 -0.034132	 0.366565	 -0.385034	 2.194445	 -0.907681	 -0.298215	 -0.078909	 0.820684	 -0.446734	 0.347392	 1
1463623887.397	 5	 -0.012519	 0.437813	 -0.671249	 2.203502	 -0.912437	 -0.292166	 -0.080462	 0.821230	 -0.447861	 0.344277	 1
1463623887.407	 5	 0.073369	 0.219505	 -0.820037	 2.211766	 -0.919129	 -0.285227	 -0.082985	 0.821251	 -0.449566	 0.341397	 1
1463623887.417	 5	 0.034105	 0.113694	 -0.907015	 2.219882	 -0.927021	 -0.276802	 -0.086398	 0.820938	 -0.451497	 0.338743	 1
1463623887.427	 5	 -0.066105	 0.195371	 -0.977854	 2.229918	 -0.934393	 -0.266427	 -0.090032	 0.820901	 -0.453018	 0.335844	 1
1463623887.437	 5	 -0.075701	 0.178544	 -0.955546	 2.240771	 -0.941544	 -0.255306	 -0.093708	 0.820945	 -0.454409	 0.332838	 1
1463623887.447	 5	 -0.069921	 0.191987	 -0.859553	 2.251078	 -0.948019	 -0.244869	 -0.097052	 0.820993	 -0.455669	 0.330025	 1
1463623887.457	 5	 -0.071050	 0.215960	 -0.634444	 2.260119	 -0.952978	 -0.236366	 -0.099541	 0.821158	 -0.456635	 0.327530	 1
1463623887.467	 5	 -0.065883	 0.271392	 -0.471997	 2.270905	 -0.956793	 -0.227435	 -0.101551	 0.821762	 -0.457202	 0.324594	 1
1463623887.477	 5	 -0.029672	 0.485044	 -0.475653	 2.279851	 -0.960110	 -0.221651	 -0.102573	 0.822292	 -0.458016	 0.321772	 1
1463623887.487	 5	 -0.003852	 0.817342	 -0.549520	 2.292199	 -0.964020	 -0.215518	 -0.103069	 0.823210	 -0.459197	 0.317553	 1
1463623887.497	 5	 0.069316	 1.079733	 -0.710777	 2.308397	 -0.969281	 -0.208267	 -0.103393	 0.824376	 -0.460953	 0.311828	 1
1463623887.517	 6	 0.470903	 0.994089	 -1.064641	 2.341967	 -0.987309	 -0.193690	 -0.105145	 0.825191	 -0.467575	 0.298962	 1
1463623887.527	 6	 0.619909	 0.847582	 -1.260205	 2.357470	 -1.000069	 -0.185746	 -0.107198	 0.824474	 -0.472263	 0.292777	 1
1463623887.537	 6	 0.675429	 0.758008	 -1.416057	 2.373484	 -1.014493	 -0.175985	 -0.110088	 0.823270	 -0.477424	 0.286658	 1
1463623887.547	 6	 0.665298	 0.691704	 -1.469874	 2.390320	 -1.029447	 -0.164502	 -0.113468	 0.821838	 -0.482656	 0.280624	 1
1463623887.557	 6	 0.637974	 0.725239	 -1.403247	 2.407813	 -1.043851	 -0.152433	 -0.116705	 0.820437	 -0.487696	 0.274618	 1
1463623887.567	 6	 0.605711	 0.811181	 -1.298787	 2.425913	 -1.057212	 -0.140679	 -0.119361	 0.819227	 -0.492472	 0.268499	 1
1463623887.577	 6	 0.625652	 0.891539	 -1.209755	 2.444246	 -1.069907	 -0.129640	 -0.121437	 0.818110	 -0.497157	 0.262268	 1
1463623887.587	 6	 0.653876	 0.899705	 -1.099085	 2.461800	 -1.082091	 -0.119930	 -0.122967	 0.816969	 -0.501820	 0.256159	 1
1463623887.597	 6	 0.675128	 0.980500	 -0.949310	 2.477945	 -1.093353	 -0.112406	 -0.123714	 0.815895	 -0.506349	 0.250241	 1
1463623887.607	 6	 0.710874	 1.158341	 -0.758260	 2.493251	 -1.103864	 -0.107688	 -0.123330	 0.814981	 -0.510900	 0.244085	 1
1463623887.617	 6	 0.724173	 1.236004	 -0.457109	 2.505574	 -1.112907	 -0.107700	 -0.121497	 0.814278	 -0.515258	 0.238116	 1
1463623887.637	 7	 0.699270	 0.963196	 0.046807	 2.514181	 -1.125846	 -0.122976	 -0.114938	 0.813025	 -0.522693	 0.229285	 1
1463623887.647	 7	 0.661199	 0.656196	 0.230790	 2.510009	 -1.130183	 -0.135702	 -0.111498	 0.812206	 -0.525625	 0.227174	 1
1463623887.657	 7	 0.612322	 0.384836	 0.338464	 2.501155	 -1.133327	 -0.150448	 -0.108316	 0.811243	 -0.528050	 0.226530	 1
1463623887.667	 7	 0.534509	 0.163955	 0.355204	 2.490025	 -1.135614	 -0.165106	 -0.105669	 0.810209	 -0.530012	 0.226898	 1
1463623887.677	 7	 0.439581	 0.008431	 0.284243	 2.479084	 -1.137435	 -0.177647	 -0.103782	 0.809181	 -0.531575	 0.227780	 1
1463623887.687	 7	 0.337661	 -0.050246	 0.218507	 2.469887	 -1.138842	 -0.187307	 -0.102549	 0.808291	 -0.532749	 0.228754	 1
1463623887.697	 7	 0.271429	 -0.024867	 0.171360	 2.462538	 -1.139923	 -0.195012	 -0.101572	 0.807583	 -0.533675	 0.229531	 1
1463623887.707	 7	 0.198567	 -0.012535	 0.082586	 2.457588	 -1.140946	 -0.200317	 -0.100921	 0.807038	 -0.534429	 0.229981	 1
1463623887.717	 7	 0.096843	 0.030375	 -0.054679	 2.456315	 -1.142008	 -0.201866	 -0.100813	 0.806716	 -0.534952	 0.229942	 1
1463623887.727	 7	 0.011439	 0.165545	 -0.223199	 2.460230	 -1.143382	 -0.198970	 -0.101161	 0.806690	 -0.535346	 0.228960	 1
1463623887.737	 7	 -0.037410	 0.325349	 -0.352296	 2.466448	 -1.140467	 -0.194801	 -0.100703	 0.807889	 -0.534059	 0.227939	 1
1463623887.747	 7	 -0.025487	 0.383645	 -0.375304	 2.477127	 -1.142570	 -0.187205	 -0.101260	 0.808209	 -0.534552	 0.225388	 1
1463623887.757	 7	 0.026947	 0.332079	 -0.278191	 2.485823	 -1.144566	 -0.181494	 -0.101560	 0.808411	 -0.535126	 0.223153	 1
1463623887.767	 7	 0.114782	 0.257573	 -0.147683	 2.490541	 -1.146358	 -0.179398	 -0.101426	 0.808393	 -0.535829	 0.221588	 1
1463623887.777	 7	 0.220562	 0.175248	 -0.017215	 2.490640	 -1.148188	 -0.181378	 -0.100887	 0.808058	 -0.536764	 0.220793	 1
1463623887.787	 7	 0.308605	 0.010578	 0.044432	 2.486825	 -1.150280	 -0.186298	 -0.100254	 0.807373	 -0.537927	 0.220754	 1
1463623887.797	 7	 0.396001	 -0.267042	 0.077323	 2.478181	 -1.152798	 -0.193345	 -0.100141	 0.806156	 -0.539247	 0.222028	 1
1463623887.807	 7	 0.451783	 -0.184356	 0.056279	 2.479990	 -1.154087	 -0.191035	 -0.100791	 0.805927	 -0.539579	 0.221759	 1
1463623887.817	 7	 0.381504	 -0.118492	 0.017005	 2.472505	 -1.157120	 -0.197798	 -0.100579	 0.804697	 -0.541123	 0.222560	 1
1463623887.827	 7	 0.238584	 -0.074692	 -0.014382	 2.467868	 -1.159334	 -0.201951	 -0.100525	 0.803851	 -0.542203	 0.223014	 1
1463623887.837	 7	 0.087099	 -0.062554	 -0.015081	 2.465799	 -1.160417	 -0.203525	 -0.100632	 0.803435	 -0.542690	 0.223278	 1
1463623887.847	 7	 -0.029436	 -0.141687	 0.025696	 2.464460	 -1.160315	 -0.203716	 -0.100901	 0.803320	 -0.542604	 0.223777	 1
1463623887.857	 7	 -0.105490	 -0.257977	 0.092419	 2.462107	 -1.159164	 -0.203787	 -0.101322	 0.803339	 -0.542052	 0.224853	 1
1463623887.867	 7	 -0.164259	 -0.320132	 0.148801	 2.464310	 -1.159744	 -0.198945	 -0.102765	 0.803199	 -0.541842	 0.225205	 1
1463623887.877	 7	 -0.204560	 -0.259451	 0.140125	 2.461830	 -1.157308	 -0.198647	 -0.103156	 0.803496	 -0.540747	 0.226598	 1
1463623887.887	 7	 -0.169090	 -0.231677	 0.170982	 2.459330	 -1.154871	 -0.198836	 -0.103354	 0.803812	 -0.539704	 0.227868	 1
1463623887.897	 7	 -0.068858	 -0.301716	 0.233403	 2.454087	 -1.152750	 -0.201521	 -0.103337	 0.803864	 -0.538926	 0.229528	 1
1463623887.907	 7	 0.044922	 -0.395583	 0.242197	 2.445839	 -1.151338	 -0.206442	 -0.103345	 0.803506	 -0.538527	 0.231704	 1
1463623887.917	 7	 0.108797	 -0.406597	 0.215960	 2.436510	 -1.150636	 -0.212160	 -0.103441	 0.802884	 -0.538442	 0.234004	 1
1463623887.927	 7	 0.107123	 -0.287653	 0.190437	 2.428309	 -1.150208	 -0.217586	 -0.103398	 0.802303	 -0.538492	 0.235893	 1
1463623887.937	 7	 0.059712	 -0.128230	 0.155032	 2.422856	 -1.149689	 -0.221806	 -0.103083	 0.801999	 -0.538512	 0.237015	 1
1463623887.947	 7	 0.000112	 -0.065337	 0.133625	 2.454711	 -1.152932	 -0.192478	 -0.106833	 0.803417	 -0.537986	 0.231688	 1
1463623887.957	 7	 -0.049041	 -0.061090	 0.112778	 2.452572	 -1.151893	 -0.194168	 -0.106557	 0.803510	 -0.537669	 0.232228	 1
1463623887.967	 7	 -0.110618	 -0.193026	 0.081179	 2.450920	 -1.150596	 -0.194388	 -0.106697	 0.803642	 -0.537108	 0.233001	 1
1463623887.977	 7	 -0.123534	 -0.220605	 0.086363	 2.448967	 -1.149113	 -0.194006	 -0.107128	 0.803751	 -0.536390	 0.234081	 1
1463623887.997	 7	 -0.134423	 -0.237746	 0.056353	 2.464511	 -1.151972	 -0.175337	 -0.110932	 0.803854	 -0.536161	 0.232475	 1
1463623888.007	 8	 -0.133404	 -0.233618	 0.039330	 2.463279	 -1.150660	 -0.174117	 -0.111541	 0.803962	 -0.535444	 0.233461	 1
1463623888.017	 8	 -0.136664	 -0.231605	 0.022325	 2.462390	 -1.149443	 -0.172548	 -0.112213	 0.804067	 -0.534740	 0.234389	 1
1463623888.037	 9	 -0.142061	 -0.213717	 -0.011628	 2.473176	 -1.150431	 -0.157941	 -0.115362	 0.804257	 -0.534026	 0.233835	 1
1463623888.047	 9	 -0.144164	 -0.201001	 -0.018952	 2.473415	 -1.149404	 -0.155431	 -0.116146	 0.804391	 -0.533348	 0.234532	 1
1463623888.057	 9	 -0.141968	 -0.186132	 -0.020964	 2.473837	 -1.148408	 -0.152875	 -0.116905	 0.804536	 -0.532685	 0.235162	 1
1463623888.067	 9	 -0.132269	 -0.168042	 -0.017704	 2.478187	 -1.148397	 -0.146929	 -0.118138	 0.804701	 -0.532238	 0.234996	 1
1463623888.077	 9	 -0.116160	 -0.151033	 -0.012357	 2.478512	 -1.147531	 -0.144864	 -0.118748	 0.804830	 -0.531677	 0.235516	 1
1463623888.087	 9	 -0.097927	 -0.131941	 -0.012338	 2.478743	 -1.146806	 -0.143105	 -0.119282	 0.804931	 -0.531201	 0.235975	 1
1463623888.097	 9	 -0.079697	 -0.116018	 -0.009152	 2.478868	 -1.146207	 -0.141655	 -0.119740	 0.805006	 -0.530803	 0.236379	 1
1463623888.107	 9	 -0.061493	 -0.104351	 -0.007082	 2.480556	 -1.146446	 -0.138951	 -0.120417	 0.804984	 -0.530678	 0.236390	 1
1463623888.117	 9	 -0.052839	 -0.079912	 -0.006930	 2.480533	 -1.146060	 -0.138024	 -0.120737	 0.805021	 -0.530417	 0.236690	 1
1463623888.127	 9	 -0.047418	 -0.068174	 0.000592	 2.480537	 -1.145682	 -0.137264	 -0.120984	 0.805069	 -0.530179	 0.236933	 1
1463623888.137	 9	 -0.042081	 -0.076622	 0.011125	 2.480258	 -1.145284	 -0.136759	 -0.121200	 0.805103	 -0.529947	 0.237225	 1
1463623888.147	 9	 -0.035673	 -0.081909	 0.018488	 2.478443	 -1.144438	 -0.137635	 -0.121198	 0.805149	 -0.529611	 0.237821	 1
1463623888.157	 9	 -0.026002	 -0.072326	 0.023822	 2.477695	 -1.144068	 -0.137633	 -0.121340	 0.805151	 -0.529421	 0.238165	 1
1463623888.167	 9	 -0.019575	 -0.062811	 0.018526	 2.476963	 -1.143778	 -0.137718	 -0.121454	 0.805140	 -0.529273	 0.238471	 1
1463623888.177	 9	 -0.016400	 -0.058651	 0.006814	 2.476435	 -1.143579	 -0.137649	 -0.121591	 0.805122	 -0.529155	 0.238725	 1
1463623888.187	 9	 -0.017486	 -0.053404	 -0.003792	 2.477067	 -1.143705	 -0.136526	 -0.121895	 0.805098	 -0.529109	 0.238753	 1
1463623888.197	 9	 -0.018568	 -0.051320	 -0.010157	 2.476948	 -1.143623	 -0.136092	 -0.122089	 0.805077	 -0.529018	 0.238925	 1
1463623888.207	 9	 -0.023877	 -0.045978	 -0.008989	 2.476664	 -1.142865	 -0.135825	 -0.122154	 0.805213	 -0.528673	 0.239197	 1
1463623888.217	 9	 -0.030230	 -0.039540	 -0.003536	 2.476047	 -1.142003	 -0.135923	 -0.122145	 0.805357	 -0.528310	 0.239519	 1
1463623888.227	 9	 -0.030190	 -0.040520	 0.008188	 2.475298	 -1.141035	 -0.136186	 -0.122087	 0.805521	 -0.527917	 0.239862	 1
1463623888.237	 9	 -0.029081	 -0.039392	 0.017787	 2.474459	 -1.140230	 -0.136557	 -0.122035	 0.805640	 -0.527596	 0.240195	 1
1463623888.247	 9	 -0.027986	 -0.038286	 0.024189	 2.473731	 -1.139375	 -0.136873	 -0.121967	 0.805781	 -0.527255	 0.240504	 1
1463623888.257	 9	 -0.026926	 -0.044624	 0.030519	 2.473256	 -1.138490	 -0.136942	 -0.121927	 0.805945	 -0.526889	 0.240779	 1
1463623888.267	 9	 -0.021596	 -0.048863	 0.034699	 2.472669	 -1.137813	 -0.137089	 -0.121917	 0.806049	 -0.526606	 0.241055	 1
1463623888.277	 9	 -0.017311	 -0.047789	 0.037871	 2.471787	 -1.137242	 -0.137523	 -0.121885	 0.806108	 -0.526382	 0.241362	 1
1463623888.287	 9	 -0.010849	 -0.035041	 0.037930	 2.471563	 -1.136955	 -0.137458	 -0.121926	 0.806147	 -0.526248	 0.241503	 1
1463623888.297	 9	 -0.008644	 -0.016984	 0.034878	 2.471914	 -1.136604	 -0.137037	 -0.121949	 0.806250	 -0.526081	 0.241513	 1
1463623888.307	 9	 -0.004325	 -0.004245	 0.032822	 2.472176	 -1.136550	 -0.136824	 -0.121957	 0.806282	 -0.526050	 0.241469	 1
1463623888.317	 9	 -0.001052	 0.012751	 0.030815	 2.472599	 -1.136488	 -0.136623	 -0.121917	 0.806336	 -0.526028	 0.241359	 1
1463623888.327	 9	 0.002222	 0.027644	 0.031987	 2.472962	 -1.136328	 -0.136620	 -0.121798	 0.806418	 -0.525987	 0.241231	 1
1463623888.337	 9	 0.007591	 0.034019	 0.033063	 2.473183	 -1.136182	 -0.136847	 -0.121626	 0.806494	 -0.525971	 0.241100	 1
1463623888.347	 9	 0.009740	 0.036149	 0.034126	 2.473212	 -1.136221	 -0.137280	 -0.121450	 0.806515	 -0.526040	 0.240969	 1
1463623888.357	 9	 0.014007	 0.035083	 0.035141	 2.473328	 -1.136292	 -0.137650	 -0.121281	 0.806534	 -0.526119	 0.240817	 1
1463623888.367	 9	 0.017204	 0.034011	 0.035097	 2.473445	 -1.136458	 -0.138020	 -0.121127	 0.806530	 -0.526236	 0.240654	 1
1463623888.377	 9	 0.016144	 0.035079	 0.035112	 2.473215	 -1.136684	 -0.138700	 -0.120948	 0.806488	 -0.526392	 0.240541	 1
1463623888.387	 9	 0.016145	 0.032967	 0.037219	 2.472839	 -1.136951	 -0.139502	 -0.120766	 0.806426	 -0.526570	 0.240451	 1
1463623888.397	 9	 0.020419	 0.032963	 0.038242	 2.472647	 -1.137160	 -0.140156	 -0.120585	 0.806391	 -0.526719	 0.240332	 1
1463623888.407	 9	 0.025766	 0.034019	 0.039267	 2.472054	 -1.137438	 -0.141182	 -0.120371	 0.806314	 -0.526915	 0.240268	 1
1463623888.417	 9	 0.029002	 0.038288	 0.042471	 2.471659	 -1.137736	 -0.142089	 -0.120156	 0.806249	 -0.527116	 0.240154	 1
1463623888.427	 9	 0.031161	 0.041490	 0.044607	 2.471418	 -1.137978	 -0.142899	 -0.119930	 0.806209	 -0.527294	 0.240009	 1
1463623888.437	 9	 0.029050	 0.043649	 0.047837	 2.471277	 -1.138171	 -0.143648	 -0.119696	 0.806190	 -0.527450	 0.239846	 1
1463623888.447	 9	 0.026925	 0.045786	 0.047869	 2.471280	 -1.138296	 -0.144290	 -0.119456	 0.806198	 -0.527576	 0.239661	 1
1463623888.457	 9	 0.022642	 0.045779	 0.044702	 2.471519	 -1.138419	 -0.144705	 -0.119245	 0.806222	 -0.527688	 0.239441	 1
1463623888.467	 9	 0.022595	 0.040426	 0.039315	 2.471893	 -1.138621	 -0.144933	 -0.119086	 0.806231	 -0.527817	 0.239206	 1
1463623888.477	 9	 0.019331	 0.028722	 0.037095	 2.471992	 -1.138921	 -0.145303	 -0.118958	 0.806192	 -0.527984	 0.239033	 1
1463623888.487	 9	 0.016087	 0.021274	 0.034914	 2.472126	 -1.139224	 -0.145548	 -0.118871	 0.806148	 -0.528140	 0.238879	 1
1463623888.497	 9	 0.012859	 0.017015	 0.032764	 2.472000	 -1.139486	 -0.145966	 -0.118777	 0.806094	 -0.528284	 0.238789	 1
1463623888.507	 9	 0.010713	 0.015944	 0.030633	 2.472016	 -1.139778	 -0.146234	 -0.118710	 0.806041	 -0.528431	 0.238677	 1
1463623888.517	 9	 0.010714	 0.014890	 0.031681	 2.472024	 -1.139994	 -0.146497	 -0.118636	 0.806005	 -0.528547	 0.238579	 1
1463623888.527	 9	 0.011799	 0.019136	 0.030638	 2.471974	 -1.140303	 -0.146838	 -0.118560	 0.805943	 -0.528705	 0.238473	 1
1463623888.537	 9	 0.015029	 0.023390	 0.031707	 2.471914	 -1.140674	 -0.147235	 -0.118474	 0.805869	 -0.528894	 0.238349	 1
1463623888.547	 9	 0.016097	 0.028662	 0.025341	 2.472338	 -1.141045	 -0.147229	 -0.118422	 0.805829	 -0.529063	 0.238136	 1
1463623888.557	 9	 0.015020	 0.030758	 0.020030	 2.473036	 -1.141489	 -0.146980	 -0.118408	 0.805789	 -0.529248	 0.237868	 1
1463623888.567	 9	 0.014981	 0.027525	 0.013593	 2.473815	 -1.141968	 -0.146626	 -0.118419	 0.805743	 -0.529438	 0.237592	 1
1463623888.577	 9	 0.018145	 0.023234	 0.009253	 2.474539	 -1.142371	 -0.146261	 -0.118437	 0.805709	 -0.529595	 0.237349	 1
1463623888.587	 9	 0.015996	 0.018996	 0.010290	 2.474953	 -1.142716	 -0.146145	 -0.118428	 0.805667	 -0.529740	 0.237173	 1
1463623888.597	 9	 0.018122	 0.015817	 0.012368	 2.475309	 -1.142947	 -0.146055	 -0.118406	 0.805647	 -0.529841	 0.237026	 1
1463623888.607	 9	 0.019196	 0.015832	 0.014485	 2.475579	 -1.143100	 -0.146048	 -0.118361	 0.805641	 -0.529916	 0.236901	 1
1463623888.617	 9	 0.020285	 0.017981	 0.017688	 2.475734	 -1.143275	 -0.146172	 -0.118298	 0.805624	 -0.530008	 0.236785	 1
1463623888.627	 9	 0.024562	 0.019042	 0.018721	 2.475809	 -1.143463	 -0.146393	 -0.118218	 0.805600	 -0.530112	 0.236675	 1
1463623888.637	 9	 0.024595	 0.023322	 0.021953	 2.475788	 -1.143636	 -0.146746	 -0.118108	 0.805576	 -0.530219	 0.236569	 1
1463623888.647	 9	 0.023538	 0.026510	 0.020922	 2.475786	 -1.143780	 -0.147109	 -0.117985	 0.805562	 -0.530319	 0.236457	 1
1463623888.657	 9	 0.018210	 0.028656	 0.020984	 2.475960	 -1.143873	 -0.147327	 -0.117865	 0.805572	 -0.530391	 0.236318	 1
1463623888.667	 9	 0.013936	 0.029720	 0.018896	 2.476253	 -1.143915	 -0.147431	 -0.117752	 0.805603	 -0.530437	 0.236168	 1
1463623888.677	 9	 0.010700	 0.025454	 0.015682	 2.476701	 -1.143959	 -0.147351	 -0.117673	 0.805640	 -0.530471	 0.236003	 1
1463623888.687	 9	 0.011749	 0.022263	 0.015638	 2.477248	 -1.143986	 -0.147142	 -0.117616	 0.805686	 -0.530489	 0.235835	 1
1463623888.697	 9	 0.011699	 0.015854	 0.011309	 2.477792	 -1.144105	 -0.146879	 -0.117596	 0.805706	 -0.530536	 0.235672	 1
1463623888.707	 9	 0.011663	 0.010523	 0.009123	 2.478142	 -1.144228	 -0.146725	 -0.117584	 0.805707	 -0.530587	 0.235557	 1
1463623888.717	 9	 0.007372	 0.006284	 0.009115	 2.478575	 -1.144303	 -0.146443	 -0.117595	 0.805723	 -0.530608	 0.235449	 1
1463623888.727	 9	 -0.000119	 0.003111	 0.008079	 2.479075	 -1.144337	 -0.146058	 -0.117622	 0.805751	 -0.530606	 0.235345	 1
1463623888.737	 9	 -0.005471	 0.002050	 0.005981	 2.479554	 -1.144294	 -0.145654	 -0.117651	 0.805794	 -0.530569	 0.235265	 1
1463623888.747	 9	 -0.007609	 0.002050	 0.004929	 2.479912	 -1.144334	 -0.145348	 -0.117686	 0.805809	 -0.530570	 0.235197	 1
1463623888.757	 9	 -0.006537	 0.002056	 0.005980	 2.480295	 -1.144407	 -0.145019	 -0.117728	 0.805817	 -0.530582	 0.235121	 1
1463623888.767	 9	 -0.003329	 0.003111	 0.005959	 2.480449	 -1.144474	 -0.144916	 -0.117739	 0.805812	 -0.530606	 0.235079	 1
1463623888.777	 9	 -0.000128	 0.000991	 0.008038	 2.480550	 -1.144593	 -0.144856	 -0.117755	 0.805791	 -0.530651	 0.235040	 1
1463623888.787	 9	 0.002148	 0.000045	 0.003761	 2.480714	 -1.144759	 -0.144727	 -0.117789	 0.805762	 -0.530710	 0.234989	 1
1463623888.797	 9	 0.000024	 0.002179	 0.003797	 2.480924	 -1.144871	 -0.144568	 -0.117815	 0.805750	 -0.530747	 0.234934	 1
1463623888.807	 9	 0.000022	 0.000069	 0.005906	 2.481180	 -1.144932	 -0.144364	 -0.117838	 0.805753	 -0.530762	 0.234878	 1
1463623888.817	 9	 -0.000014	 -0.008433	 0.006893	 2.481043	 -1.144896	 -0.144454	 -0.117833	 0.805751	 -0.530751	 0.234913	 1
1463623888.827	 9	 0.001047	 -0.010556	 0.007929	 2.480846	 -1.144896	 -0.144569	 -0.117839	 0.805735	 -0.530753	 0.234962	 1
1463623888.837	 9	 0.002148	 -0.007337	 0.012211	 2.480571	 -1.144957	 -0.144783	 -0.117835	 0.805700	 -0.530785	 0.235009	 1
1463623888.847	 9	 0.006435	 -0.002047	 0.010089	 2.480360	 -1.145106	 -0.144992	 -0.117830	 0.805651	 -0.530856	 0.235021	 1
1463623888.857	 9	 0.010719	 0.004292	 0.005845	 2.480211	 -1.145336	 -0.145205	 -0.117819	 0.805589	 -0.530962	 0.234998	 1
1463623888.867	 9	 0.013941	 0.010641	 0.002676	 2.480086	 -1.145607	 -0.145448	 -0.117797	 0.805523	 -0.531088	 0.234952	 1
1463623888.877	 9	 0.018237	 0.017002	 0.001631	 2.479933	 -1.145854	 -0.145780	 -0.117742	 0.805463	 -0.531215	 0.234896	 1
1463623888.887	 9	 0.024684	 0.023388	 0.004831	 2.479777	 -1.146054	 -0.146199	 -0.117645	 0.805421	 -0.531333	 0.234825	 1
1463623888.897	 9	 0.026836	 0.025525	 0.006963	 2.479572	 -1.146225	 -0.146704	 -0.117523	 0.805384	 -0.531447	 0.234753	 1
1463623888.907	 9	 0.025772	 0.023424	 0.010149	 2.479447	 -1.146411	 -0.147136	 -0.117411	 0.805349	 -0.531563	 0.234667	 1
1463623888.917	 9	 0.024695	 0.022357	 0.009081	 2.479377	 -1.146581	 -0.147492	 -0.117313	 0.805320	 -0.531667	 0.234581	 1
1463623888.927	 9	 0.021502	 0.024495	 0.009127	 2.479465	 -1.146724	 -0.147711	 -0.117223	 0.805308	 -0.531753	 0.234470	 1
1463623888.937	 9	 0.017229	 0.025557	 0.007039	 2.479714	 -1.146888	 -0.147787	 -0.117152	 0.805301	 -0.531840	 0.234330	 1
1463623888.947	 9	 0.015095	 0.025564	 0.007056	 2.479852	 -1.147062	 -0.147958	 -0.117073	 0.805285	 -0.531936	 0.234209	 1
1463623888.957	 9	 0.010803	 0.021316	 0.005984	 2.480193	 -1.147255	 -0.147908	 -0.117033	 0.805274	 -0.532026	 0.234062	 1
1463623888.967	 9	 0.008643	 0.013893	 0.008062	 2.480264	 -1.147443	 -0.148037	 -0.116991	 0.805244	 -0.532118	 0.233977	 1
1463623888.977	 9	 0.005406	 0.005402	 0.009074	 2.480355	 -1.147566	 -0.148068	 -0.116974	 0.805226	 -0.532175	 0.233918	 1
1463623888.987	 9	 0.005391	 0.001156	 0.010096	 2.480410	 -1.147695	 -0.148084	 -0.116972	 0.805202	 -0.532230	 0.233876	 1
1463623888.997	 9	 0.005405	 0.002236	 0.012235	 2.480364	 -1.147787	 -0.148194	 -0.116954	 0.805180	 -0.532276	 0.233855	 1
1463623889.007	 9	 0.006468	 0.003282	 0.010101	 2.480465	 -1.147852	 -0.148183	 -0.116942	 0.805175	 -0.532306	 0.233810	 1
1463623889.017	 9	 0.007555	 0.006478	 0.011185	 2.480382	 -1.147912	 -0.148361	 -0.116901	 0.805162	 -0.532346	 0.233788	 1
1463623889.027	 9	 0.008643	 0.010730	 0.011213	 2.480321	 -1.147980	 -0.148569	 -0.116845	 0.805150	 -0.532393	 0.233750	 1
1463623889.037	 9	 0.010810	 0.016057	 0.013375	 2.480200	 -1.147967	 -0.148880	 -0.116750	 0.805157	 -0.532417	 0.233717	 1
1463623889.047	 9	 0.009752	 0.017132	 0.014460	 2.480112	 -1.147937	 -0.149185	 -0.116646	 0.805172	 -0.532436	 0.233675	 1
1463623889.057	 9	 0.008698	 0.018215	 0.016609	 2.480032	 -1.147933	 -0.149492	 -0.116543	 0.805181	 -0.532466	 0.233626	 1
1463623889.067	 9	 0.008697	 0.017160	 0.017664	 2.479900	 -1.147953	 -0.149845	 -0.116439	 0.805182	 -0.532507	 0.233583	 1
1463623889.077	 9	 0.008697	 0.016104	 0.018718	 2.479835	 -1.147981	 -0.150137	 -0.116343	 0.805184	 -0.532548	 0.233528	 1
1463623889.087	 9	 0.005471	 0.010796	 0.018694	 2.479689	 -1.148022	 -0.150460	 -0.116258	 0.805176	 -0.532593	 0.233496	 1
1463623889.097	 9	 0.006531	 0.009722	 0.017606	 2.479501	 -1.148141	 -0.150790	 -0.116194	 0.805144	 -0.532667	 0.233469	 1
1463623889.107	 9	 0.005452	 0.007591	 0.016526	 2.479322	 -1.148269	 -0.151091	 -0.116140	 0.805109	 -0.532742	 0.233446	 1
1463623889.117	 9	 0.006522	 0.009700	 0.014402	 2.479241	 -1.148408	 -0.151312	 -0.116095	 0.805078	 -0.532817	 0.233404	 1
1463623889.127	 9	 0.008660	 0.010750	 0.013324	 2.479042	 -1.148559	 -0.151650	 -0.116035	 0.805037	 -0.532904	 0.233376	 1
1463623889.137	 9	 0.009739	 0.011818	 0.014389	 2.478718	 -1.148710	 -0.152121	 -0.115955	 0.804990	 -0.532999	 0.233363	 1
1463623889.147	 9	 0.010808	 0.010759	 0.015433	 2.478486	 -1.148851	 -0.152512	 -0.115882	 0.804951	 -0.533085	 0.233336	 1
1463623889.157	 9	 0.011881	 0.011820	 0.015430	 2.478434	 -1.148989	 -0.152742	 -0.115825	 0.804924	 -0.533163	 0.233279	 1
1463623889.167	 9	 0.012953	 0.012882	 0.015427	 2.478372	 -1.149111	 -0.153000	 -0.115756	 0.804902	 -0.533237	 0.233220	 1
1463623889.177	 9	 0.010810	 0.012874	 0.013310	 2.478473	 -1.149205	 -0.153092	 -0.115707	 0.804896	 -0.533290	 0.233144	 1
1463623889.187	 9	 0.009736	 0.011815	 0.013306	 2.478644	 -1.149239	 -0.153119	 -0.115656	 0.804909	 -0.533317	 0.233064	 1
1463623889.197	 9	 0.007576	 0.007561	 0.012216	 2.478858	 -1.149299	 -0.153061	 -0.115632	 0.804916	 -0.533345	 0.232986	 1
1463623889.207	 9	 0.003297	 0.005448	 0.012230	 2.479034	 -1.149339	 -0.152998	 -0.115616	 0.804923	 -0.533364	 0.232927	 1
1463623889.217	 9	 0.003289	 0.002273	 0.014330	 2.479042	 -1.149282	 -0.153070	 -0.115576	 0.804942	 -0.533350	 0.232912	 1
1463623889.227	 9	 0.002214	 -0.001954	 0.017495	 2.478927	 -1.149233	 -0.153226	 -0.115536	 0.804950	 -0.533343	 0.232922	 1
1463623889.237	 9	 0.001140	 -0.006182	 0.020660	 2.478719	 -1.149202	 -0.153436	 -0.115503	 0.804945	 -0.533343	 0.232954	 1
1463623889.247	 9	 0.002201	 -0.008304	 0.021694	 2.478472	 -1.149176	 -0.153659	 -0.115474	 0.804936	 -0.533345	 0.232997	 1
1463623889.257	 9	 0.003284	 -0.005115	 0.021711	 2.478187	 -1.149183	 -0.153944	 -0.115437	 0.804917	 -0.533364	 0.233034	 1
1463623889.267	 9	 0.004349	 -0.004069	 0.019577	 2.477916	 -1.149232	 -0.154231	 -0.115402	 0.804890	 -0.533401	 0.233061	 1
1463623889.277	 9	 0.007557	 -0.000902	 0.017444	 2.477800	 -1.149235	 -0.154400	 -0.115365	 0.804886	 -0.533415	 0.233063	 1
1463623889.287	 9	 0.005428	 0.001225	 0.016414	 2.477694	 -1.149237	 -0.154573	 -0.115324	 0.804883	 -0.533430	 0.233059	 1
1463623889.297	 9	 0.004346	 -0.000906	 0.015336	 2.477530	 -1.149227	 -0.154776	 -0.115284	 0.804878	 -0.533441	 0.233072	 1
1463623889.307	 9	 0.000059	 -0.001979	 0.012163	 2.477592	 -1.149191	 -0.154743	 -0.115275	 0.804892	 -0.533426	 0.233060	 1
1463623889.317	 9	 -0.002076	 -0.001972	 0.012180	 2.477613	 -1.149145	 -0.154742	 -0.115263	 0.804906	 -0.533409	 0.233058	 1
1463623889.327	 9	 -0.006346	 -0.003014	 0.013270	 2.477685	 -1.149085	 -0.154681	 -0.115259	 0.804925	 -0.533383	 0.233052	 1
1463623889.337	 9	 -0.008483	 -0.003015	 0.012220	 2.477749	 -1.149077	 -0.154614	 -0.115267	 0.804931	 -0.533376	 0.233045	 1
1463623889.347	 9	 -0.010636	 -0.006206	 0.011140	 2.477844	 -1.149026	 -0.154490	 -0.115284	 0.804947	 -0.533347	 0.233046	 1
1463623889.357	 9	 -0.012798	 -0.011525	 0.010040	 2.477895	 -1.149029	 -0.154351	 -0.115327	 0.804944	 -0.533335	 0.233062	 1
1463623889.367	 9	 -0.011765	 -0.020029	 0.011014	 2.477826	 -1.149045	 -0.154260	 -0.115385	 0.804927	 -0.533327	 0.233112	 1
1463623889.377	 9	 -0.009639	 -0.021106	 0.009916	 2.477784	 -1.149046	 -0.154121	 -0.115452	 0.804914	 -0.533309	 0.233166	 1
1463623889.387	 9	 -0.007493	 -0.018985	 0.009914	 2.477719	 -1.149028	 -0.154010	 -0.115511	 0.804905	 -0.533285	 0.233224	 1
1463623889.397	 9	 -0.012851	 -0.023230	 0.008852	 2.477617	 -1.149029	 -0.153896	 -0.115584	 0.804886	 -0.533266	 0.233295	 1
1463623889.407	 9	 -0.016059	 -0.024292	 0.007802	 2.477481	 -1.149038	 -0.153787	 -0.115666	 0.804861	 -0.533249	 0.233378	 1
1463623889.417	 9	 -0.012854	 -0.022190	 0.005660	 2.477327	 -1.149039	 -0.153704	 -0.115740	 0.804838	 -0.533231	 0.233462	 1
1463623889.427	 9	 -0.010679	 -0.015799	 0.007831	 2.477097	 -1.148984	 -0.153751	 -0.115774	 0.804828	 -0.533201	 0.233548	 1
1463623889.437	 9	 -0.005308	 -0.011538	 0.011022	 2.476787	 -1.148916	 -0.153939	 -0.115771	 0.804819	 -0.533179	 0.233631	 1
1463623889.447	 9	 -0.003164	 -0.010473	 0.012078	 2.476513	 -1.148864	 -0.154119	 -0.115763	 0.804810	 -0.533164	 0.233700	 1
1463623889.457	 9	 -0.001034	 -0.011543	 0.012048	 2.476230	 -1.148849	 -0.154311	 -0.115759	 0.804792	 -0.533164	 0.233764	 1
1463623889.467	 9	 -0.001047	 -0.012622	 0.009906	 2.475982	 -1.148799	 -0.154458	 -0.115758	 0.804784	 -0.533148	 0.233831	 1
1463623889.477	 9	 -0.002118	 -0.012626	 0.008848	 2.475813	 -1.148762	 -0.154522	 -0.115771	 0.804777	 -0.533131	 0.233886	 1
1463623889.487	 9	 -0.004258	 -0.013683	 0.008856	 2.475630	 -1.148709	 -0.154587	 -0.115786	 0.804772	 -0.533107	 0.233949	 1
1463623889.497	 9	 -0.007464	 -0.015793	 0.009930	 2.475407	 -1.148623	 -0.154672	 -0.115798	 0.804772	 -0.533071	 0.234026	 1
1463623889.507	 9	 -0.008529	 -0.013678	 0.007825	 2.475305	 -1.148594	 -0.154642	 -0.115832	 0.804765	 -0.533050	 0.234078	 1
1463623889.517	 9	 -0.006378	 -0.011549	 0.008889	 2.475189	 -1.148620	 -0.154657	 -0.115861	 0.804746	 -0.533055	 0.234118	 1
1463623889.527	 9	 -0.001025	 -0.008373	 0.008870	 2.475043	 -1.148677	 -0.154732	 -0.115879	 0.804720	 -0.533078	 0.234150	 1
1463623889.537	 9	 0.000049	 -0.007312	 0.008867	 2.474903	 -1.148760	 -0.154829	 -0.115890	 0.804689	 -0.533113	 0.234170	 1
1463623889.547	 9	 0.000127	 -0.008283	 0.008902	 2.474787	 -1.148813	 -0.154894	 -0.115903	 0.804666	 -0.533135	 0.234194	 1
1463623889.557	 9	 -0.000949	 -0.008294	 0.006777	 2.474838	 -1.148789	 -0.154794	 -0.115926	 0.804672	 -0.533117	 0.234202	 1
1463623889.567	 9	 -0.004148	 -0.009332	 0.008926	 2.474893	 -1.148721	 -0.154677	 -0.115948	 0.804688	 -0.533080	 0.234220	 1
1463623889.577	 9	 -0.006298	 -0.011460	 0.007857	 2.474960	 -1.148618	 -0.154523	 -0.115976	 0.804712	 -0.533026	 0.234246	 1
1463623889.587	 9	 -0.008457	 -0.014659	 0.005713	 2.475106	 -1.148539	 -0.154259	 -0.116031	 0.804733	 -0.532973	 0.234267	 1
1463623889.597	 9	 -0.012717	 -0.013574	 0.006825	 2.475255	 -1.148411	 -0.153991	 -0.116079	 0.804767	 -0.532900	 0.234294	 1
1463623889.607	 9	 -0.010593	 -0.015708	 0.006785	 2.475199	 -1.148320	 -0.153899	 -0.116117	 0.804777	 -0.532851	 0.234352	 1
1463623889.617	 9	 -0.010597	 -0.017828	 0.007831	 2.474975	 -1.148281	 -0.153939	 -0.116154	 0.804763	 -0.532827	 0.234436	 1
1463623889.627	 9	 -0.010609	 -0.018907	 0.005687	 2.474882	 -1.148312	 -0.153844	 -0.116222	 0.804739	 -0.532823	 0.234495	 1
1463623889.637	 9	 -0.010601	 -0.017843	 0.005695	 2.474711	 -1.148371	 -0.153819	 -0.116287	 0.804703	 -0.532833	 0.234563	 1
1463623889.647	 9	 -0.006315	 -0.014665	 0.005685	 2.474587	 -1.148423	 -0.153788	 -0.116340	 0.804674	 -0.532842	 0.234615	 1
1463623889.657	 9	 -0.004161	 -0.012528	 0.007816	 2.474505	 -1.148423	 -0.153754	 -0.116376	 0.804662	 -0.532833	 0.234657	 1
1463623889.667	 9	 -0.003084	 -0.010404	 0.007825	 2.474442	 -1.148393	 -0.153742	 -0.116393	 0.804661	 -0.532817	 0.234689	 1
1463623889.677	 9	 -0.003089	 -0.010411	 0.006758	 2.474471	 -1.148381	 -0.153640	 -0.116424	 0.804662	 -0.532802	 0.234706	 1
1463623889.687	 9	 -0.004139	 -0.006160	 0.005739	 2.474495	 -1.148378	 -0.153567	 -0.116447	 0.804661	 -0.532793	 0.234717	 1
1463623889.697	 9	 -0.004131	 -0.005088	 0.006813	 2.474577	 -1.148331	 -0.153452	 -0.116464	 0.804676	 -0.532766	 0.234720	 1
1463623889.707	 9	 -0.003117	 -0.005282	 0.006983	 2.474642	 -1.148287	 -0.153352	 -0.116480	 0.804688	 -0.532741	 0.234725	 1
1463623889.717	 9	 -0.002052	 -0.006340	 0.008028	 2.474811	 -1.148226	 -0.153158	 -0.116503	 0.804712	 -0.532705	 0.234716	 1
1463623889.727	 9	 -0.004206	 -0.010588	 0.008006	 2.474753	 -1.148221	 -0.153148	 -0.116522	 0.804706	 -0.532698	 0.234743	 1
1463623889.737	 9	 -0.003157	 -0.012733	 0.005843	 2.474786	 -1.148232	 -0.153027	 -0.116564	 0.804700	 -0.532690	 0.234761	 1
1463623889.747	 9	 -0.005296	 -0.011678	 0.003738	 2.474954	 -1.148211	 -0.152766	 -0.116621	 0.804709	 -0.532661	 0.234765	 1
1463623889.757	 9	 -0.007423	 -0.008495	 0.001653	 2.475106	 -1.148217	 -0.152533	 -0.116675	 0.804712	 -0.532645	 0.234765	 1
1463623889.767	 9	 -0.007413	 -0.008480	 0.003783	 2.475152	 -1.148250	 -0.152402	 -0.116721	 0.804702	 -0.532645	 0.234778	 1
1463623889.777	 9	 -0.006360	 -0.011674	 0.003743	 2.475044	 -1.148269	 -0.152397	 -0.116754	 0.804684	 -0.532646	 0.234820	 1
1463623889.787	 9	 -0.005308	 -0.014868	 0.003703	 2.474997	 -1.148260	 -0.152314	 -0.116799	 0.804676	 -0.532630	 0.234862	 1
1463623889.797	 9	 -0.006389	 -0.016999	 0.002625	 2.475045	 -1.148289	 -0.152110	 -0.116873	 0.804662	 -0.532620	 0.234894	 1
1463623889.807	 9	 -0.007460	 -0.015947	 0.000510	 2.475307	 -1.148327	 -0.151707	 -0.116971	 0.804660	 -0.532603	 0.234891	 1
1463623889.817	 9	 -0.007451	 -0.014875	 0.001583	 2.475539	 -1.148296	 -0.151349	 -0.117048	 0.804674	 -0.532562	 0.234897	 1
1463623889.827	 9	 -0.008518	 -0.014871	 0.001591	 2.475674	 -1.148258	 -0.151077	 -0.117116	 0.804684	 -0.532523	 0.234919	 1
1463623889.837	 9	 -0.008519	 -0.015927	 0.002646	 2.475723	 -1.148217	 -0.150876	 -0.117177	 0.804688	 -0.532487	 0.234958	 1
1463623889.847	 9	 -0.006386	 -0.016989	 0.003682	 2.475771	 -1.148189	 -0.150669	 -0.117243	 0.804688	 -0.532454	 0.234998	 1
1463623889.857	 9	 -0.004238	 -0.015916	 0.005804	 2.475666	 -1.148138	 -0.150626	 -0.117281	 0.804686	 -0.532423	 0.235057	 1
1463623889.867	 9	 -0.001119	 -0.013028	 0.008164	 2.475544	 -1.148119	 -0.150638	 -0.117306	 0.804677	 -0.532410	 0.235105	 1
1463623889.877	 9	 -0.000047	 -0.011967	 0.008162	 2.475518	 -1.148128	 -0.150572	 -0.117340	 0.804668	 -0.532404	 0.235132	 1
1463623889.887	 9	 -0.000038	 -0.009839	 0.008180	 2.475590	 -1.148143	 -0.150432	 -0.117380	 0.804664	 -0.532398	 0.235139	 1
1463623889.897	 9	 0.001035	 -0.007721	 0.007122	 2.475730	 -1.148174	 -0.150251	 -0.117420	 0.804662	 -0.532397	 0.235127	 1
1463623889.907	 9	 0.005311	 -0.003502	 0.003925	 2.475738	 -1.148268	 -0.150227	 -0.117442	 0.804639	 -0.532431	 0.235119	 1
1463623889.917	 9	 0.006402	 -0.000298	 0.006075	 2.475791	 -1.148341	 -0.150203	 -0.117449	 0.804626	 -0.532459	 0.235096	 1
1463623889.927	 9	 0.007484	 0.002890	 0.006094	 2.475823	 -1.148408	 -0.150233	 -0.117439	 0.804615	 -0.532491	 0.235067	 1
1463623889.937	 9	 0.005338	 0.000769	 0.006092	 2.475868	 -1.148415	 -0.150241	 -0.117425	 0.804619	 -0.532497	 0.235045	 1
1463623889.947	 9	 0.003199	 -0.000288	 0.006101	 2.475813	 -1.148394	 -0.150323	 -0.117403	 0.804622	 -0.532496	 0.235048	 1
1463623889.957	 9	 0.002125	 -0.002404	 0.007155	 2.475793	 -1.148367	 -0.150346	 -0.117395	 0.804628	 -0.532487	 0.235053	 1
1463623889.967	 9	 0.001058	 -0.001344	 0.006108	 2.475772	 -1.148357	 -0.150372	 -0.117389	 0.804629	 -0.532485	 0.235056	 1
1463623889.977	 9	 -0.001047	 0.003989	 0.007240	 2.475895	 -1.148337	 -0.150298	 -0.117383	 0.804644	 -0.532475	 0.235029	 1
1463623889.987	 9	 -0.003181	 0.005052	 0.006202	 2.476114	 -1.148289	 -0.150153	 -0.117375	 0.804674	 -0.532452	 0.234985	 1
1463623889.997	 9	 -0.002115	 0.003993	 0.007247	 2.476286	 -1.148296	 -0.150057	 -0.117369	 0.804686	 -0.532454	 0.234941	 1
1463623890.007	 9	 -0.002126	 -0.000246	 0.009337	 2.476436	 -1.148311	 -0.149947	 -0.117376	 0.804694	 -0.532456	 0.234907	 1
1463623890.017	 9	 -0.001098	 -0.007701	 0.008188	 2.476760	 -1.148465	 -0.149618	 -0.117446	 0.804675	 -0.532496	 0.234847	 1
1463623890.027	 9	 -0.000174	 -0.012299	 0.008359	 2.476799	 -1.148548	 -0.149507	 -0.117493	 0.804653	 -0.532517	 0.234850	 1
1463623890.037	 9	 -0.001265	 -0.016558	 0.007260	 2.476843	 -1.148631	 -0.149347	 -0.117559	 0.804628	 -0.532534	 0.234866	 1
1463623890.047	 9	 -0.005547	 -0.017623	 0.005154	 2.476849	 -1.148682	 -0.149192	 -0.117627	 0.804607	 -0.532536	 0.234899	 1
1463623890.057	 9	 -0.008757	 -0.017629	 0.003050	 2.476842	 -1.148640	 -0.149027	 -0.117689	 0.804607	 -0.532499	 0.234950	 1
1463623890.067	 9	 -0.006602	 -0.013381	 0.003070	 2.476797	 -1.148623	 -0.148925	 -0.117740	 0.804599	 -0.532478	 0.234998	 1
1463623890.077	 9	 -0.006578	 -0.010174	 0.005230	 2.476806	 -1.148606	 -0.148817	 -0.117778	 0.804599	 -0.532459	 0.235025	 1
1463623890.087	 9	 -0.006568	 -0.009103	 0.006305	 2.476713	 -1.148599	 -0.148824	 -0.117799	 0.804590	 -0.532452	 0.235061	 1
1463623890.097	 9	 -0.005492	 -0.010146	 0.009482	 2.476553	 -1.148614	 -0.148889	 -0.117817	 0.804571	 -0.532456	 0.235106	 1
1463623890.107	 9	 -0.009779	 -0.013332	 0.008421	 2.476670	 -1.148601	 -0.148679	 -0.117869	 0.804576	 -0.532433	 0.235117	 1
1463623890.117	 9	 -0.023691	 -0.020743	 0.007405	 2.476938	 -1.148539	 -0.148240	 -0.117964	 0.804596	 -0.532373	 0.235133	 1
1463623890.127	 9	 -0.034394	 -0.022877	 0.002150	 2.477085	 -1.148266	 -0.147835	 -0.118046	 0.804657	 -0.532228	 0.235214	 1
1463623890.137	 9	 -0.041872	 -0.021813	 -0.000976	 2.477895	 -1.148066	 -0.146793	 -0.118219	 0.804740	 -0.532075	 0.235189	 1
1463623890.147	 9	 -0.048272	 -0.023897	 0.002256	 2.478603	 -1.147784	 -0.145825	 -0.118376	 0.804835	 -0.531894	 0.235194	 1
1463623890.157	 9	 -0.045068	 -0.020738	 -0.000942	 2.479388	 -1.147502	 -0.144795	 -0.118538	 0.804936	 -0.531709	 0.235185	 1
1463623890.167	 9	 -0.047232	 -0.020785	 -0.008387	 2.480381	 -1.147293	 -0.143568	 -0.118735	 0.805031	 -0.531543	 0.235136	 1
1463623890.177	 9	 -0.047352	 -0.044200	 -0.010738	 2.481122	 -1.147108	 -0.142382	 -0.118988	 0.805093	 -0.531375	 0.235174	 1
1463623890.187	 9	 -0.049380	 -0.021856	 -0.010515	 2.482117	 -1.146923	 -0.141046	 -0.119233	 0.805177	 -0.531205	 0.235150	 1
1463623890.197	 9	 -0.041948	 -0.005031	 -0.011297	 2.482865	 -1.146744	 -0.140142	 -0.119371	 0.805255	 -0.531073	 0.235110	 1
1463623890.207	 9	 -0.032315	 -0.008174	 -0.000753	 2.483249	 -1.146602	 -0.139633	 -0.119452	 0.805304	 -0.530981	 0.235107	 1
1463623890.217	 9	 -0.038657	 -0.009103	 0.015279	 2.483372	 -1.146387	 -0.139361	 -0.119495	 0.805356	 -0.530872	 0.235154	 1
1463623890.227	 9	 -0.055463	 0.043108	 0.021238	 2.484349	 -1.145925	 -0.138639	 -0.119456	 0.805541	 -0.530666	 0.235005	 1
1463623890.237	 9	 -0.065731	 0.120850	 0.030575	 2.486081	 -1.145289	 -0.137934	 -0.119184	 0.805859	 -0.530438	 0.234568	 1
1463623890.247	 9	 -0.046290	 0.162338	 0.039315	 2.488141	 -1.144878	 -0.137457	 -0.118767	 0.806173	 -0.530344	 0.233911	 1
1463623890.257	 9	 -0.026920	 0.200536	 0.034166	 2.490690	 -1.144796	 -0.136910	 -0.118299	 0.806459	 -0.530399	 0.233038	 1
1463623890.267	 9	 -0.020464	 0.222755	 0.020456	 2.493574	 -1.144869	 -0.136314	 -0.117786	 0.806741	 -0.530528	 0.232024	 1
1463623890.277	 9	 -0.012055	 0.204572	 0.009548	 2.496637	 -1.145048	 -0.135421	 -0.117360	 0.806999	 -0.530675	 0.231005	 1
1463623890.287	 9	 -0.024238	 0.136311	 -0.021895	 2.499576	 -1.145508	 -0.134092	 -0.117186	 0.807146	 -0.530874	 0.230121	 1
1463623890.297	 9	 -0.037927	 -0.056129	 -0.017174	 2.499511	 -1.145828	 -0.133816	 -0.117362	 0.807043	 -0.530964	 0.230184	 1
1463623890.307	 9	 -0.062388	 0.026357	 -0.092933	 2.502719	 -1.145707	 -0.130486	 -0.117836	 0.807246	 -0.530723	 0.229787	 1
1463623890.317	 9	 -0.092402	 0.062055	 -0.169074	 2.507144	 -1.145934	 -0.126323	 -0.118376	 0.807451	 -0.530596	 0.229080	 1
1463623890.327	 9	 -0.155785	 -0.000737	 -0.200014	 2.512578	 -1.145993	 -0.120543	 -0.119278	 0.807715	 -0.530281	 0.228412	 1
1463623890.337	 9	 -0.208226	 -0.026163	 -0.207254	 2.518561	 -1.145570	 -0.113677	 -0.120405	 0.808092	 -0.529689	 0.227860	 1
1463623890.347	 9	 -0.204085	 -0.011641	 -0.233656	 2.525681	 -1.145189	 -0.105808	 -0.121646	 0.808521	 -0.529075	 0.227105	 1
1463623890.357	 9	 -0.165750	 0.015513	 -0.287025	 2.532889	 -1.145313	 -0.097949	 -0.122935	 0.808826	 -0.528673	 0.226256	 1
1463623890.367	 9	 -0.105640	 0.136183	 -0.342911	 2.541365	 -1.146187	 -0.089710	 -0.124147	 0.809052	 -0.528615	 0.224919	 1
1463623890.377	 9	 -0.029185	 0.286942	 -0.349634	 2.551058	 -1.147782	 -0.081926	 -0.124947	 0.809248	 -0.528981	 0.222901	 1
1463623890.387	 9	 0.053263	 0.320941	 -0.321259	 2.559488	 -1.149986	 -0.076065	 -0.125378	 0.809254	 -0.529737	 0.220833	 1
1463623890.397	 9	 0.130290	 0.334770	 -0.289828	 2.567049	 -1.152553	 -0.071421	 -0.125583	 0.809136	 -0.530725	 0.218768	 1
1463623890.407	 9	 0.187942	 0.308284	 -0.252209	 2.573067	 -1.155441	 -0.068327	 -0.125604	 0.808853	 -0.531918	 0.216894	 1
1463623890.417	 9	 0.206797	 0.202138	 -0.214994	 2.577179	 -1.158378	 -0.066379	 -0.125666	 0.808417	 -0.533138	 0.215486	 1
1463623890.427	 9	 0.179677	 0.081189	 -0.183907	 2.578194	 -1.161293	 -0.066189	 -0.125836	 0.807759	 -0.534345	 0.214865	 1
1463623890.437	 9	 0.146454	 0.029361	 -0.157456	 2.579881	 -1.163470	 -0.064786	 -0.126223	 0.807286	 -0.535169	 0.214365	 1
1463623890.447	 9	 0.120022	 0.045705	 -0.114443	 2.581168	 -1.165204	 -0.063737	 -0.126517	 0.806906	 -0.535829	 0.213972	 1
1463623890.457	 9	 0.135873	 0.192832	 -0.059924	 2.582497	 -1.166699	 -0.063960	 -0.126255	 0.806672	 -0.536532	 0.213244	 1
1463623890.467	 9	 0.144983	 0.287713	 -0.026077	 2.584368	 -1.167251	 -0.064910	 -0.125438	 0.806787	 -0.536971	 0.212185	 1
1463623890.477	 9	 0.150573	 0.325064	 -0.006594	 2.585933	 -1.168574	 -0.066649	 -0.124479	 0.806716	 -0.537780	 0.210969	 1
1463623890.487	 9	 0.162520	 0.347551	 0.019089	 2.587129	 -1.169868	 -0.069067	 -0.123341	 0.806653	 -0.538624	 0.209720	 1
1463623890.497	 9	 0.175421	 0.333979	 0.059349	 2.587458	 -1.171070	 -0.072451	 -0.122036	 0.806580	 -0.539476	 0.208568	 1
1463623890.507	 9	 0.197375	 0.199136	 0.101609	 2.582164	 -1.172622	 -0.080108	 -0.120572	 0.806087	 -0.540570	 0.208493	 1
1463623890.517	 9	 0.207358	 0.244082	 0.143505	 2.579110	 -1.173651	 -0.085887	 -0.119199	 0.805847	 -0.541397	 0.208065	 1
1463623890.527	 9	 0.198824	 0.251379	 0.157637	 2.575983	 -1.174535	 -0.092048	 -0.117676	 0.805657	 -0.542202	 0.207572	 1
1463623890.537	 9	 0.161336	 0.214332	 0.167211	 2.572702	 -1.175102	 -0.098042	 -0.116225	 0.805520	 -0.542856	 0.207213	 1
1463623890.547	 9	 0.117318	 0.167595	 0.157562	 2.571358	 -1.175249	 -0.101731	 -0.115124	 0.805556	 -0.543218	 0.206738	 1
1463623890.557	 9	 0.082917	 0.120842	 0.149966	 2.568506	 -1.175246	 -0.106338	 -0.114042	 0.805526	 -0.543530	 0.206635	 1
1463623890.567	 9	 0.004591	 0.042271	 0.137128	 2.565891	 -1.174666	 -0.109780	 -0.113290	 0.805601	 -0.543508	 0.206811	 1
1463623890.577	 9	 -0.035187	 0.013385	 0.097772	 2.564284	 -1.173846	 -0.111731	 -0.112832	 0.805757	 -0.543296	 0.207011	 1
1463623890.587	 9	 -0.032195	 0.001392	 0.058190	 2.565225	 -1.174084	 -0.111036	 -0.112888	 0.805754	 -0.543371	 0.206797	 1
1463623890.597	 9	 -0.013004	 0.022392	 0.028377	 2.564947	 -1.173740	 -0.111512	 -0.112726	 0.805841	 -0.543269	 0.206814	 1
1463623890.607	 9	 0.008336	 0.042360	 0.003864	 2.565114	 -1.173719	 -0.111761	 -0.112577	 0.805878	 -0.543296	 0.206681	 1
1463623890.617	 9	 0.022196	 0.047567	 -0.005800	 2.565423	 -1.173910	 -0.111954	 -0.112441	 0.805871	 -0.543408	 0.206485	 1
1463623890.627	 9	 0.025319	 0.026324	 -0.000700	 2.566071	 -1.174503	 -0.111705	 -0.112444	 0.805771	 -0.543653	 0.206232	 1
1463623890.637	 9	 0.018751	 -0.023518	 0.017011	 2.565480	 -1.174614	 -0.112257	 -0.112397	 0.805712	 -0.543720	 0.206309	 1
1463623890.647	 9	 0.003595	 -0.090299	 0.042100	 2.563926	 -1.174485	 -0.113147	 -0.112444	 0.805635	 -0.543674	 0.206706	 1
1463623890.657	 9	 -0.014658	 -0.135789	 0.068479	 2.561557	 -1.174059	 -0.114346	 -0.112548	 0.805567	 -0.543497	 0.207377	 1
1463623890.667	 9	 -0.024306	 -0.162206	 0.088567	 2.558401	 -1.173533	 -0.116043	 -0.112651	 0.805470	 -0.543289	 0.208241	 1
1463623890.677	 9	 -0.022187	 -0.170675	 0.094864	 2.555138	 -1.172818	 -0.117742	 -0.112756	 0.805410	 -0.543001	 0.209167	 1
1463623890.687	 9	 -0.013621	 -0.166431	 0.096961	 2.551761	 -1.172145	 -0.119589	 -0.112837	 0.805333	 -0.542739	 0.210096	 1
1463623890.697	 9	 -0.005051	 -0.162179	 0.100123	 2.548246	 -1.171531	 -0.121633	 -0.112884	 0.805236	 -0.542515	 0.211021	 1
1463623890.707	 9	 -0.008259	 -0.162185	 0.098019	 2.544646	 -1.171097	 -0.123758	 -0.112945	 0.805086	 -0.542366	 0.211939	 1
1463623890.717	 9	 -0.017840	 -0.153678	 0.093918	 2.541430	 -1.170437	 -0.125552	 -0.113003	 0.805015	 -0.542116	 0.212817	 1
1463623890.727	 9	 -0.028441	 -0.134538	 0.088860	 2.538630	 -1.169709	 -0.127080	 -0.113045	 0.804989	 -0.541835	 0.213608	 1
1463623890.737	 9	 -0.028379	 -0.114390	 0.080521	 2.536223	 -1.169009	 -0.128395	 -0.113069	 0.804984	 -0.541565	 0.214296	 1
1463623890.747	 9	 -0.027245	 -0.097399	 0.077475	 2.533502	 -1.168043	 -0.130148	 -0.112963	 0.805037	 -0.541221	 0.215021	 1
1463623890.757	 9	 -0.027232	 -0.091048	 0.073271	 2.531515	 -1.167402	 -0.131301	 -0.112946	 0.805051	 -0.540982	 0.215578	 1
1463623890.767	 9	 -0.032652	 -0.089188	 0.072403	 2.529647	 -1.166726	 -0.132360	 -0.112929	 0.805081	 -0.540726	 0.216118	 1
1463623890.777	 9	 -0.041193	 -0.089170	 0.071412	 2.527928	 -1.165995	 -0.133254	 -0.112929	 0.805131	 -0.540439	 0.216648	 1
1463623890.787	 9	 -0.029323	 -0.062599	 0.073691	 2.525980	 -1.164836	 -0.134524	 -0.112777	 0.805285	 -0.540013	 0.217216	 1
1463623890.797	 9	 -0.028249	 -0.064699	 0.077925	 2.524239	 -1.164178	 -0.135778	 -0.112648	 0.805333	 -0.539794	 0.217651	 1
1463623890.807	 9	 -0.034670	 -0.057334	 0.064193	 2.522845	 -1.163713	 -0.136616	 -0.112619	 0.805346	 -0.539625	 0.218038	 1
1463623890.817	 9	 -0.028149	 -0.022336	 0.052737	 2.522490	 -1.163077	 -0.136769	 -0.112561	 0.805476	 -0.539373	 0.218209	 1
1463623890.827	 9	 -0.020627	 -0.001169	 0.041143	 2.522784	 -1.162654	 -0.136531	 -0.112516	 0.805601	 -0.539198	 0.218202	 1
1463623890.837	 9	 -0.010984	 0.011529	 0.035845	 2.523027	 -1.162442	 -0.136475	 -0.112443	 0.805678	 -0.539123	 0.218143	 1
1463623890.847	 9	 -0.003485	 0.015778	 0.037948	 2.523218	 -1.162347	 -0.136558	 -0.112344	 0.805728	 -0.539105	 0.218054	 1
1463623890.857	 9	 -0.004584	 0.007288	 0.040007	 2.523222	 -1.162278	 -0.136756	 -0.112253	 0.805757	 -0.539100	 0.218006	 1
1463623890.867	 9	 -0.006753	 -0.005423	 0.046300	 2.522907	 -1.162220	 -0.137161	 -0.112167	 0.805760	 -0.539104	 0.218031	 1
1463623890.877	 9	 -0.002516	 -0.021312	 0.056769	 2.522240	 -1.162215	 -0.137779	 -0.112097	 0.805723	 -0.539132	 0.218133	 1
1463623890.887	 9	 -0.002507	 -0.028680	 0.067355	 2.521266	 -1.162174	 -0.138630	 -0.112010	 0.805674	 -0.539154	 0.218301	 1
1463623890.897	 9	 -0.005704	 -0.029717	 0.069500	 2.520483	 -1.162090	 -0.139295	 -0.111941	 0.805647	 -0.539150	 0.218447	 1
1463623890.907	 9	 -0.014281	 -0.040312	 0.071603	 2.519586	 -1.161935	 -0.139974	 -0.111887	 0.805626	 -0.539113	 0.218642	 1
1463623890.917	 9	 -0.024977	 -0.051925	 0.079045	 2.518422	 -1.161662	 -0.140793	 -0.111831	 0.805613	 -0.539031	 0.218921	 1
1463623890.927	 9	 -0.031441	 -0.068893	 0.083203	 2.517043	 -1.161306	 -0.141664	 -0.111800	 0.805601	 -0.538910	 0.219281	 1
1463623890.937	 9	 -0.036812	 -0.083706	 0.091634	 2.515643	 -1.160886	 -0.142416	 -0.111812	 0.805594	 -0.538750	 0.219690	 1
1463623890.947	 9	 -0.038842	 -0.087729	 0.122518	 2.513760	 -1.160163	 -0.143632	 -0.111723	 0.805637	 -0.538496	 0.220202	 1
1463623890.957	 9	 -0.053834	 -0.096216	 0.119369	 2.511743	 -1.159364	 -0.144896	 -0.111639	 0.805685	 -0.538211	 0.220765	 1
1463623890.967	 9	 -0.054934	 -0.104713	 0.120360	 2.509975	 -1.158727	 -0.145828	 -0.111645	 0.805701	 -0.537967	 0.221299	 1
1463623890.977	 9	 -0.047504	 -0.120627	 0.128669	 2.507870	 -1.158051	 -0.146991	 -0.111642	 0.805702	 -0.537714	 0.221911	 1
1463623890.987	 9	 -0.037950	 -0.138675	 0.136939	 2.505338	 -1.157393	 -0.148416	 -0.111650	 0.805664	 -0.537474	 0.222623	 1
1463623890.997	 9	 -0.044385	 -0.139773	 0.129519	 2.502791	 -1.156721	 -0.149794	 -0.111678	 0.805624	 -0.537224	 0.223356	 1
1463623891.007	 9	 -0.063642	 -0.138751	 0.115838	 2.500399	 -1.155945	 -0.150961	 -0.111733	 0.805615	 -0.536918	 0.224096	 1
1463623891.017	 9	 -0.074370	 -0.138827	 0.101006	 2.498534	 -1.155191	 -0.151550	 -0.111882	 0.805626	 -0.536586	 0.224777	 1
1463623891.027	 9	 -0.076547	 -0.141008	 0.092474	 2.497050	 -1.154384	 -0.151738	 -0.112082	 0.805670	 -0.536209	 0.225418	 1
1463623891.037	 9	 -0.071285	 -0.145378	 0.078529	 2.495727	 -1.153694	 -0.151716	 -0.112341	 0.805690	 -0.535864	 0.226037	 1
1463623891.047	 9	 -0.066036	 -0.155043	 0.067731	 2.494553	 -1.153106	 -0.151454	 -0.112671	 0.805688	 -0.535539	 0.226649	 1
1463623891.057	 9	 -0.058647	 -0.162595	 0.055870	 2.493120	 -1.152564	 -0.151342	 -0.113017	 0.805653	 -0.535234	 0.227319	 1
1463623891.067	 9	 -0.047990	 -0.154218	 0.041997	 2.491888	 -1.152110	 -0.151051	 -0.113394	 0.805609	 -0.534954	 0.227946	 1
1463623891.077	 9	 -0.033061	 -0.141629	 0.023864	 2.490950	 -1.151872	 -0.150584	 -0.113797	 0.805534	 -0.534755	 0.228477	 1
1463623891.087	 9	 -0.015970	 -0.125832	 0.008937	 2.490418	 -1.151922	 -0.149869	 -0.114235	 0.805421	 -0.534662	 0.228876	 1
1463623891.097	 9	 -0.002082	 -0.111081	 -0.004905	 2.490096	 -1.152132	 -0.149099	 -0.114663	 0.805288	 -0.534638	 0.229187	 1
1463623891.107	 9	 0.002158	 -0.109036	 -0.014517	 2.489620	 -1.152352	 -0.148493	 -0.115068	 0.805144	 -0.534626	 0.229515	 1
1463623891.117	 9	 -0.000018	 -0.113322	 -0.019868	 2.489143	 -1.152457	 -0.147847	 -0.115472	 0.805026	 -0.534566	 0.229868	 1
1463623891.127	 9	 -0.008641	 -0.129267	 -0.022073	 2.488511	 -1.152476	 -0.147197	 -0.115905	 0.804911	 -0.534462	 0.230294	 1
1463623891.137	 9	 -0.023629	 -0.140907	 -0.019918	 2.487715	 -1.152318	 -0.146540	 -0.116358	 0.804820	 -0.534278	 0.230808	 1
1463623891.147	 9	 -0.040752	 -0.153597	 -0.016688	 2.486886	 -1.151938	 -0.145777	 -0.116828	 0.804774	 -0.533994	 0.231390	 1
1463623891.157	 9	 -0.051466	 -0.164187	 -0.014560	 2.486038	 -1.151471	 -0.144912	 -0.117331	 0.804740	 -0.533662	 0.232016	 1
1463623891.167	 9	 -0.057922	 -0.171645	 -0.018835	 2.485057	 -1.151018	 -0.144053	 -0.117869	 0.804688	 -0.533328	 0.232692	 1
1463623891.177	 9	 -0.057920	 -0.169534	 -0.020945	 2.484163	 -1.150619	 -0.143099	 -0.118430	 0.804626	 -0.533008	 0.233353	 1
1463623891.187	 9	 -0.058987	 -0.169531	 -0.020934	 2.483282	 -1.150192	 -0.142151	 -0.118980	 0.804572	 -0.532679	 0.234009	 1
1463623891.207	 10	 -0.058931	 -0.162049	 -0.015531	 2.481177	 -1.149198	 -0.140645	 -0.119994	 0.804481	 -0.531989	 0.235372	 1
1463623891.217	 10	 -0.064231	 -0.158804	 -0.010124	 2.480307	 -1.148527	 -0.139795	 -0.120464	 0.804493	 -0.531575	 0.236025	 1
1463623891.227	 10	 -0.068477	 -0.155585	 -0.007923	 2.479627	 -1.147806	 -0.138794	 -0.120936	 0.804530	 -0.531134	 0.236648	 1
1463623891.237	 10	 -0.072722	 -0.149198	 -0.008891	 2.479174	 -1.147022	 -0.137623	 -0.121407	 0.804599	 -0.530662	 0.237232	 1
1463623891.247	 10	 -0.071599	 -0.134326	 -0.010890	 2.478958	 -1.145800	 -0.136343	 -0.121791	 0.804796	 -0.530020	 0.237799	 1
1463623891.257	 10	 -0.071495	 -0.110933	 -0.011736	 2.478870	 -1.144930	 -0.135133	 -0.122168	 0.804926	 -0.529531	 0.238255	 1
1463623891.267	 10	 -0.065003	 -0.090751	 -0.012668	 2.478946	 -1.144153	 -0.133980	 -0.122492	 0.805056	 -0.529095	 0.238618	 1
1463623891.277	 10	 -0.055322	 -0.076929	 -0.009424	 2.478887	 -1.143484	 -0.133118	 -0.122752	 0.805161	 -0.528727	 0.238946	 1
1463623891.287	 10	 -0.046715	 -0.063120	 -0.008303	 2.478711	 -1.142974	 -0.132530	 -0.122957	 0.805229	 -0.528446	 0.239231	 1
1463623891.297	 10	 -0.041298	 -0.049278	 -0.003956	 2.478598	 -1.142503	 -0.132032	 -0.123115	 0.805301	 -0.528196	 0.239462	 1
1463623891.307	 10	 -0.028416	 -0.038633	 0.002426	 2.478460	 -1.142191	 -0.131708	 -0.123234	 0.805342	 -0.528026	 0.239639	 1
1463623891.327	 11	 -0.017618	 -0.018402	 0.009981	 2.477980	 -1.141838	 -0.131606	 -0.123348	 0.805364	 -0.527847	 0.239899	 1
1463623891.337	 11	 -0.014360	 -0.010927	 0.015350	 2.477870	 -1.141694	 -0.131599	 -0.123357	 0.805386	 -0.527782	 0.239962	 1
1463623891.347	 11	 -0.015391	 -0.009806	 0.022829	 2.477709	 -1.141546	 -0.131683	 -0.123343	 0.805408	 -0.527725	 0.240021	 1
1463623891.357	 11	 -0.010061	 -0.011942	 0.023827	 2.477568	 -1.141503	 -0.131753	 -0.123345	 0.805407	 -0.527708	 0.240064	 1
1463623891.367	 11	 -0.010051	 -0.011925	 0.025956	 2.477511	 -1.141513	 -0.131759	 -0.123360	 0.805398	 -0.527709	 0.240084	 1
1463623891.377	 11	 -0.012157	 -0.009760	 0.030254	 2.477553	 -1.141476	 -0.131685	 -0.123373	 0.805407	 -0.527688	 0.240091	 1
1463623891.387	 11	 -0.013221	 -0.011860	 0.033438	 2.477489	 -1.141425	 -0.131728	 -0.123365	 0.805415	 -0.527669	 0.240112	 1
1463623891.397	 11	 -0.020747	 -0.019321	 0.028102	 2.477543	 -1.141343	 -0.131571	 -0.123401	 0.805432	 -0.527622	 0.240141	 1
1463623891.407	 11	 -0.027275	 -0.032261	 0.027055	 2.477477	 -1.141194	 -0.131391	 -0.123468	 0.805449	 -0.527538	 0.240232	 1
1463623891.417	 11	 -0.031588	 -0.040765	 0.025946	 2.477359	 -1.141005	 -0.131155	 -0.123565	 0.805467	 -0.527428	 0.240363	 1
1463623891.427	 11	 -0.036948	 -0.047123	 0.026997	 2.477171	 -1.140786	 -0.130910	 -0.123680	 0.805483	 -0.527301	 0.240528	 1
1463623891.437	 11	 -0.044419	 -0.050268	 0.030228	 2.476937	 -1.140568	 -0.130656	 -0.123810	 0.805493	 -0.527171	 0.240714	 1
1463623891.447	 11	 -0.050807	 -0.051281	 0.034535	 2.476669	 -1.140304	 -0.130418	 -0.123936	 0.805510	 -0.527023	 0.240915	 1
1463623891.457	 11	 -0.056164	 -0.060800	 0.039820	 2.476204	 -1.140040	 -0.130297	 -0.124067	 0.805512	 -0.526876	 0.241165	 1
1463623891.467	 11	 -0.057206	 -0.066030	 0.051501	 2.475562	 -1.139745	 -0.130316	 -0.124183	 0.805508	 -0.526723	 0.241452	 1
1463623891.477	 11	 -0.044485	 -0.093646	 0.061786	 2.474491	 -1.139662	 -0.130578	 -0.124346	 0.805415	 -0.526656	 0.241823	 1
1463623891.487	 11	 -0.028621	 -0.131924	 0.069814	 2.472727	 -1.139718	 -0.131215	 -0.124563	 0.805228	 -0.526645	 0.242359	 1
1463623891.497	 11	 -0.019104	 -0.152154	 0.070603	 2.470623	 -1.139823	 -0.131967	 -0.124831	 0.804993	 -0.526646	 0.242996	 1
1463623891.507	 11	 -0.018095	 -0.167025	 0.073654	 2.467979	 -1.139231	 -0.133074	 -0.124989	 0.804886	 -0.526384	 0.243837	 1
1463623891.517	 11	 -0.037321	 -0.178598	 0.083305	 2.465252	 -1.138475	 -0.134128	 -0.125165	 0.804803	 -0.526047	 0.244745	 1
1463623891.527	 11	 -0.061741	 -0.166701	 0.100681	 2.462702	 -1.137439	 -0.135071	 -0.125293	 0.804803	 -0.525599	 0.245643	 1
1463623891.537	 11	 -0.081928	 -0.170701	 0.127460	 2.460445	 -1.136447	 -0.135774	 -0.125447	 0.804811	 -0.525157	 0.246482	 1
1463623891.547	 11	 -0.090302	 -0.168270	 0.165923	 2.457348	 -1.134784	 -0.137310	 -0.125379	 0.804929	 -0.524503	 0.247520	 1
1463623891.557	 11	 -0.085835	 -0.159488	 0.205399	 2.453687	 -1.132863	 -0.139572	 -0.125122	 0.805082	 -0.523805	 0.248626	 1
1463623891.567	 11	 -0.075013	 -0.162410	 0.246842	 2.449273	 -1.130752	 -0.142678	 -0.124689	 0.805236	 -0.523094	 0.249841	 1
1463623891.577	 11	 -0.057872	 -0.167655	 0.280740	 2.444013	 -1.128528	 -0.146652	 -0.124104	 0.805360	 -0.522398	 0.251186	 1
1463623891.587	 11	 -0.044980	 -0.177027	 0.313579	 2.438010	 -1.126201	 -0.151379	 -0.123387	 0.805453	 -0.521717	 0.252651	 1
1463623891.597	 11	 -0.041649	 -0.196837	 0.369851	 2.431043	 -1.123585	 -0.156989	 -0.122512	 0.805538	 -0.520983	 0.254315	 1
1463623891.607	 11	 -0.040404	 -0.220771	 0.443155	 2.422793	 -1.120502	 -0.163759	 -0.121416	 0.805627	 -0.520148	 0.256260	 1
1463623891.617	 11	 -0.042248	 -0.224456	 0.520938	 2.413378	 -1.116882	 -0.171730	 -0.120035	 0.805746	 -0.519204	 0.258441	 1
1463623891.627	 11	 -0.062129	 -0.215245	 0.609655	 2.403102	 -1.112541	 -0.180758	 -0.118310	 0.805960	 -0.518087	 0.260801	 1
1463623891.637	 11	 -0.101201	 -0.211217	 0.709148	 2.392071	 -1.107243	 -0.190708	 -0.116217	 0.806316	 -0.516703	 0.263373	 1
1463623891.647	 11	 -0.149938	 -0.218869	 0.807552	 2.380455	 -1.100874	 -0.201292	 -0.113798	 0.806834	 -0.514988	 0.266187	 1
1463623891.657	 11	 -0.198704	 -0.231847	 0.904840	 2.368372	 -1.093415	 -0.212311	 -0.111085	 0.807507	 -0.512924	 0.269261	 1
1463623891.667	 11	 -0.228324	 -0.266086	 1.011355	 2.355339	 -1.084877	 -0.224139	 -0.108040	 0.808272	 -0.510547	 0.272702	 1
1463623891.677	 11	 -0.224366	 -0.355239	 1.039267	 2.341493	 -1.075914	 -0.236085	 -0.105017	 0.808948	 -0.508030	 0.276550	 1
1463623891.687	 11	 -0.189621	 -0.464809	 1.050734	 2.326468	 -1.066967	 -0.248221	 -0.102160	 0.809385	 -0.505540	 0.280871	 1
1463623891.697	 11	 -0.159472	 -0.625577	 1.040449	 2.310109	 -1.058193	 -0.260311	 -0.099632	 0.809506	 -0.503102	 0.285765	 1
1463623891.707	 11	 -0.150612	 -0.775637	 1.031515	 2.292531	 -1.049476	 -0.271955	 -0.097543	 0.809324	 -0.500624	 0.291300	 1
1463623891.717	 11	 -0.128196	 -0.768313	 1.023928	 2.274890	 -1.040815	 -0.283346	 -0.095521	 0.809010	 -0.498193	 0.296956	 1
1463623891.727	 11	 -0.122982	 -0.743241	 0.963368	 2.258414	 -1.032500	 -0.293843	 -0.093588	 0.808664	 -0.495875	 0.302344	 1
1463623891.737	 11	 -0.147963	 -0.780867	 0.898223	 2.242991	 -1.024509	 -0.302879	 -0.092005	 0.808263	 -0.493558	 0.307648	 1
1463623891.747	 11	 -0.176122	 -0.849021	 0.875453	 2.228031	 -1.016564	 -0.310613	 -0.090796	 0.807787	 -0.491125	 0.313103	 1
1463623891.757	 11	 -0.192991	 -0.847543	 0.925705	 2.213084	 -1.008170	 -0.318201	 -0.089497	 0.807313	 -0.488543	 0.318688	 1
1463623891.767	 11	 -0.200920	 -0.809509	 1.033770	 2.198103	 -0.998909	 -0.326245	 -0.087773	 0.806929	 -0.485757	 0.324347	 1
1463623891.777	 11	 -0.174456	 -0.766913	 1.198063	 2.182289	 -0.988436	 -0.335843	 -0.085286	 0.806598	 -0.482795	 0.330204	 1
1463623891.787	 11	 -0.122610	 -0.725903	 1.315171	 2.165582	 -0.977023	 -0.347032	 -0.082083	 0.806234	 -0.479784	 0.336239	 1
1463623891.797	 11	 -0.083411	 -0.598061	 1.359716	 2.149406	 -0.965250	 -0.358901	 -0.078322	 0.805919	 -0.476859	 0.342003	 1
1463623891.807	 11	 -0.084102	 -0.371886	 1.454548	 2.135095	 -0.952848	 -0.371155	 -0.073737	 0.805910	 -0.473926	 0.347082	 1
1463623891.817	 11	 -0.093240	 -0.352032	 1.548599	 2.121532	 -0.939352	 -0.383653	 -0.068537	 0.806078	 -0.470748	 0.352047	 1
1463623891.827	 11	 -0.071403	 -0.451205	 1.521908	 2.107442	 -0.925804	 -0.395879	 -0.063484	 0.806010	 -0.467571	 0.357346	 1
1463623891.837	 11	 -0.068788	 -0.517656	 1.453058	 2.093415	 -0.912790	 -0.407131	 -0.058877	 0.805704	 -0.464496	 0.362792	 1
1463623891.847	 11	 -0.098601	 -0.524827	 1.478829	 2.079945	 -0.899664	 -0.417601	 -0.054362	 0.805361	 -0.461333	 0.368253	 1
1463623891.857	 11	 -0.175555	 -0.494408	 1.682277	 2.067151	 -0.884592	 -0.427763	 -0.049239	 0.805260	 -0.457513	 0.373916	 1
1463623891.867	 11	 -0.147462	 -0.562401	 1.850856	 2.053113	 -0.867876	 -0.438947	 -0.043475	 0.805004	 -0.453351	 0.380198	 1
1463623891.877	 11	 -0.107014	 -0.715611	 2.006811	 2.037244	 -0.849870	 -0.451079	 -0.037306	 0.804383	 -0.448976	 0.387293	 1
1463623891.887	 11	 -0.103216	 -0.977992	 2.200437	 2.018630	 -0.830077	 -0.463904	 -0.030880	 0.803212	 -0.444181	 0.395727	 1
1463623891.897	 11	 -0.149789	 -1.288065	 2.397254	 1.997076	 -0.808306	 -0.476773	 -0.024409	 0.801378	 -0.438813	 0.405759	 1
1463623891.907	 11	 -0.305514	 -1.228582	 2.616579	 1.976283	 -0.783791	 -0.487979	 -0.017511	 0.799614	 -0.432324	 0.416422	 1
1463623891.917	 11	 -0.321466	 -1.028252	 2.661213	 1.958617	 -0.757900	 -0.498211	 -0.009779	 0.798269	 -0.425332	 0.426336	 1
1463623891.927	 11	 -0.179772	 -1.569541	 2.437527	 1.938247	 -0.733816	 -0.507967	 -0.003185	 0.795851	 -0.419001	 0.437092	 1
1463623891.937	 11	 0.044555	 -2.860351	 2.145398	 1.906458	 -0.712916	 -0.518032	 0.000369	 0.790308	 -0.414000	 0.451683	 1
1463623891.947	 11	 0.229513	 -4.194951	 1.665631	 1.861454	 -0.696329	 -0.527778	 -0.000059	 0.780982	 -0.410605	 0.470606	 1
1463623891.957	 11	 0.141473	 -5.073907	 0.693703	 1.809132	 -0.687584	 -0.533386	 -0.005885	 0.768887	 -0.408960	 0.491458	 1
1463623891.967	 11	 -0.195163	 -5.982618	 -0.228377	 1.752568	 -0.687667	 -0.532095	 -0.017962	 0.754666	 -0.408325	 0.513251	 1
1463623891.977	 11	 -0.666709	 -7.029172	 -0.560133	 1.689947	 -0.691918	 -0.524091	 -0.035112	 0.737925	 -0.406733	 0.537403	 1
1463623891.987	 11	 -1.076339	 -7.661970	 -0.572047	 1.623084	 -0.696854	 -0.510758	 -0.055182	 0.719023	 -0.403061	 0.563473	 1
1463623891.997	 11	 -1.379456	 -7.697011	 -0.539892	 1.556918	 -0.702079	 -0.493486	 -0.076375	 0.699192	 -0.397447	 0.589350	 1
1463623892.007	 11	 -1.714076	 -7.148235	 -0.535070	 1.497298	 -0.708241	 -0.472634	 -0.097515	 0.680150	 -0.390344	 0.612795	 1
1463623892.017	 11	 -2.234669	 -6.190806	 -0.280765	 1.450728	 -0.713877	 -0.445377	 -0.117710	 0.663986	 -0.380915	 0.632590	 1
1463623892.027	 11	 -2.517148	 -5.526806	 0.087035	 1.415369	 -0.717315	 -0.413016	 -0.136248	 0.650468	 -0.369232	 0.649612	 1
1463623892.037	 11	 -2.504167	 -5.257974	 0.349469	 1.384495	 -0.718652	 -0.379260	 -0.153220	 0.637820	 -0.356259	 0.665424	 1
1463623892.047	 11	 -2.251275	 -5.030109	 0.339796	 1.354135	 -0.719807	 -0.348113	 -0.168802	 0.625047	 -0.343643	 0.680243	 1
1463623892.057	 11	 -1.956726	 -4.722156	 0.244178	 1.323963	 -0.721882	 -0.321009	 -0.183073	 0.612201	 -0.332224	 0.693773	 1
1463623892.067	 11	 -1.705937	 -4.346770	 0.336077	 1.295244	 -0.723566	 -0.297253	 -0.195612	 0.599818	 -0.321629	 0.706052	 1
1463623892.077	 11	 -1.470152	 -3.906249	 0.603499	 1.269363	 -0.722836	 -0.275659	 -0.205840	 0.588478	 -0.311159	 0.717289	 1
1463623892.087	 11	 -1.215772	 -3.389037	 0.893852	 1.247023	 -0.718931	 -0.256084	 -0.213451	 0.578562	 -0.300755	 0.727496	 1
1463623892.097	 11	 -0.979082	 -2.747576	 1.150346	 1.229514	 -0.712042	 -0.238362	 -0.218438	 0.570612	 -0.290642	 0.736352	 1
1463623892.107	 11	 -0.715771	 -2.136879	 1.428703	 1.216989	 -0.702017	 -0.222586	 -0.220766	 0.564791	 -0.280909	 0.743884	 1
1463623892.117	 11	 -0.414430	 -1.649320	 1.755673	 1.208032	 -0.688039	 -0.208955	 -0.220323	 0.560709	 -0.271317	 0.750634	 1
1463623892.127	 11	 -0.148745	 -1.198306	 2.015471	 1.202197	 -0.670537	 -0.197430	 -0.217395	 0.558203	 -0.261927	 0.756666	 1
1463623892.137	 11	 -0.001863	 -0.845642	 2.305230	 1.199465	 -0.649826	 -0.186821	 -0.212476	 0.557138	 -0.252361	 0.762080	 1
1463623892.147	 11	 0.102339	 -0.614992	 2.472728	 1.198881	 -0.626801	 -0.176713	 -0.206192	 0.557068	 -0.242564	 0.767022	 1
1463623892.157	 11	 0.166505	 -0.595953	 2.484070	 1.198363	 -0.603057	 -0.167359	 -0.199377	 0.557137	 -0.232809	 0.771782	 1
1463623892.167	 11	 0.204238	 -0.683775	 2.415781	 1.196526	 -0.579687	 -0.158882	 -0.192588	 0.556755	 -0.223298	 0.776577	 1
1463623892.177	 11	 0.206801	 -0.801991	 2.395475	 1.193192	 -0.556636	 -0.150750	 -0.185954	 0.555791	 -0.213816	 0.781537	 1
1463623892.187	 11	 0.182811	 -0.956807	 2.450729	 1.188436	 -0.533347	 -0.142266	 -0.179416	 0.554225	 -0.203972	 0.786791	 1
1463623892.197	 11	 0.166383	 -1.142059	 2.565316	 1.182073	 -0.509226	 -0.133091	 -0.172823	 0.551972	 -0.193474	 0.792482	 1
1463623892.207	 11	 0.181021	 -1.310315	 2.689383	 1.174011	 -0.483986	 -0.123371	 -0.165995	 0.549009	 -0.182307	 0.798623	 1
1463623892.217	 11	 0.227727	 -1.463807	 2.809045	 1.164279	 -0.457570	 -0.113391	 -0.158791	 0.545360	 -0.170592	 0.805150	 1
1463623892.227	 11	 0.325764	 -1.591947	 2.925298	 1.152880	 -0.429838	 -0.103561	 -0.151005	 0.541044	 -0.158480	 0.812005	 1
1463623892.237	 11	 0.474334	 -1.635191	 3.035507	 1.140279	 -0.400640	 -0.094341	 -0.142381	 0.536266	 -0.146182	 0.819010	 1
1463623892.247	 11	 0.647934	 -1.560580	 3.127411	 1.127542	 -0.369947	 -0.086057	 -0.132720	 0.531462	 -0.133930	 0.825830	 1
1463623892.257	 11	 0.816288	 -1.423576	 3.167719	 1.115447	 -0.338096	 -0.078838	 -0.122078	 0.526932	 -0.121936	 0.832209	 1
1463623892.267	 11	 0.976656	 -1.309627	 3.105569	 1.103957	 -0.305921	 -0.073034	 -0.110730	 0.522641	 -0.110566	 0.838069	 1
1463623892.277	 11	 1.092620	 -1.282144	 2.982253	 1.092396	 -0.274224	 -0.068616	 -0.099077	 0.518271	 -0.099992	 0.843553	 1
1463623892.287	 11	 1.168383	 -1.380273	 2.828276	 1.079778	 -0.243480	 -0.065346	 -0.087443	 0.513367	 -0.090205	 0.848924	 1
1463623892.297	 11	 1.200675	 -1.629437	 2.656220	 1.064750	 -0.214062	 -0.062887	 -0.076131	 0.507321	 -0.081129	 0.854545	 1
1463623892.307	 11	 1.191064	 -1.957026	 2.506180	 1.046451	 -0.186057	 -0.060748	 -0.065320	 0.499730	 -0.072588	 0.860659	 1
1463623892.317	 11	 1.160321	 -2.281005	 2.405383	 1.024822	 -0.159228	 -0.058386	 -0.055021	 0.490542	 -0.064335	 0.867296	 1
1463623892.327	 11	 1.122697	 -2.512152	 2.342811	 1.000638	 -0.133237	 -0.055483	 -0.045111	 0.480078	 -0.056205	 0.874261	 1
1463623892.337	 11	 1.079114	 -2.659174	 2.291732	 0.974815	 -0.108010	 -0.051876	 -0.035548	 0.468734	 -0.048153	 0.881310	 1
1463623892.347	 11	 1.033643	 -2.748797	 2.234808	 0.947906	 -0.083581	 -0.047540	 -0.026324	 0.456763	 -0.040192	 0.888290	 1
1463623892.357	 11	 1.007672	 -2.730393	 2.122235	 0.920881	 -0.060247	 -0.042868	 -0.017457	 0.444617	 -0.032571	 0.894958	 1
1463623892.367	 11	 1.009177	 -2.739974	 1.975057	 0.893767	 -0.038196	 -0.038411	 -0.008921	 0.432329	 -0.025566	 0.901309	 1
1463623892.377	 11	 1.028664	 -2.781536	 1.825294	 0.866172	 -0.017320	 -0.034424	 -0.000636	 0.419731	 -0.019256	 0.907444	 1
1463623892.387	 11	 1.065356	 -2.800765	 1.681983	 0.838235	 0.002530	 -0.031056	 0.007474	 0.406887	 -0.013669	 0.913346	 1
1463623892.397	 11	 1.137477	 -2.808113	 1.577908	 0.810140	 0.021871	 -0.028381	 0.015641	 0.393877	 -0.008732	 0.918988	 1
1463623892.407	 11	 1.231119	 -2.805713	 1.506775	 0.782001	 0.041196	 -0.026361	 0.024063	 0.380749	 -0.004334	 0.924355	 1
1463623892.417	 11	 1.312168	 -2.774417	 1.455204	 0.754077	 0.060696	 -0.024778	 0.032769	 0.367621	 -0.000342	 0.929398	 1
1463623892.427	 11	 1.390156	 -2.719656	 1.411338	 0.726666	 0.080394	 -0.023520	 0.041736	 0.354638	 0.003298	 0.934066	 1
1463623892.437	 11	 1.477805	 -2.664824	 1.381244	 0.699793	 0.100473	 -0.022547	 0.051029	 0.341814	 0.006636	 0.938358	 1
1463623892.447	 11	 1.570962	 -2.588603	 1.369419	 0.673627	 0.121116	 -0.021737	 0.060702	 0.329235	 0.009761	 0.942244	 1
1463623892.457	 11	 1.665241	 -2.508069	 1.366150	 0.648270	 0.142460	 -0.021010	 0.070797	 0.316955	 0.012733	 0.945709	 1
1463623892.467	 11	 1.750958	 -2.432827	 1.362906	 0.623643	 0.164470	 -0.020311	 0.081282	 0.304946	 0.015566	 0.948767	 1
1463623892.477	 11	 1.818598	 -2.334216	 1.348314	 0.599923	 0.186996	 -0.019577	 0.092068	 0.293306	 0.018275	 0.951400	 1
1463623892.487	 11	 1.867968	 -2.242110	 1.309308	 0.577153	 0.209761	 -0.018884	 0.103027	 0.282064	 0.020790	 0.953621	 1
1463623892.497	 11	 1.907518	 -2.183057	 1.255159	 0.555075	 0.232588	 -0.018338	 0.114082	 0.271103	 0.023032	 0.955488	 1
1463623892.507	 11	 1.933154	 -2.128255	 1.195763	 0.533557	 0.255335	 -0.017959	 0.125160	 0.260367	 0.024973	 0.957037	 1
1463623892.517	 11	 1.950398	 -2.043638	 1.137784	 0.512828	 0.277949	 -0.017696	 0.136215	 0.249973	 0.026655	 0.958253	 1
1463623892.527	 11	 1.975269	 -1.948213	 1.106482	 0.493036	 0.300552	 -0.017433	 0.147283	 0.240004	 0.028175	 0.959121	 1
1463623892.537	 11	 2.010980	 -1.845135	 1.108196	 0.474167	 0.323421	 -0.016929	 0.158459	 0.230471	 0.029694	 0.959631	 1
1463623892.547	 11	 2.036001	 -1.754712	 1.120543	 0.456110	 0.346580	 -0.016001	 0.169736	 0.221346	 0.031304	 0.959800	 1
1463623892.557	 11	 2.029718	 -1.724949	 1.115546	 0.438355	 0.369757	 -0.014627	 0.180988	 0.212404	 0.032951	 0.959710	 1
1463623892.567	 11	 1.981278	 -1.779345	 1.074962	 0.420187	 0.392303	 -0.012948	 0.191931	 0.203314	 0.034435	 0.959500	 1
1463623892.577	 11	 1.889840	 -1.868978	 0.998187	 0.401140	 0.413698	 -0.011154	 0.202344	 0.193855	 0.035567	 0.959277	 1
1463623892.587	 11	 1.772766	 -1.950142	 0.904645	 0.382552	 0.431467	 -0.009907	 0.211077	 0.184662	 0.035945	 0.959195	 1
1463623892.597	 11	 1.658992	 -1.993177	 0.791199	 0.361989	 0.450163	 -0.008239	 0.220261	 0.174561	 0.036225	 0.959011	 1
1463623892.607	 11	 1.514684	 -1.980537	 0.715838	 0.341421	 0.467268	 -0.006643	 0.228697	 0.164508	 0.036146	 0.958816	 1
1463623892.617	 11	 1.347150	 -1.978972	 0.717311	 0.320411	 0.482694	 -0.004006	 0.236260	 0.154425	 0.036207	 0.958657	 1
1463623892.627	 11	 1.266778	 -1.940327	 0.587282	 0.299760	 0.496809	 -0.001666	 0.243222	 0.144534	 0.035913	 0.958469	 1
1463623892.647	 12	 1.269569	 -1.578506	 0.322052	 0.265113	 0.523169	 -0.000964	 0.256404	 0.127549	 0.033719	 0.957523	 1
1463623892.657	 12	 1.316836	 -1.468411	 0.269377	 0.250547	 0.536493	 -0.001642	 0.263063	 0.120262	 0.032331	 0.956708	 1
1463623892.667	 12	 1.369257	 -1.383968	 0.201497	 0.237195	 0.550193	 -0.002987	 0.269901	 0.113468	 0.030713	 0.955686	 1
1463623892.677	 12	 1.404598	 -1.318467	 0.154906	 0.224869	 0.564174	 -0.004884	 0.276866	 0.107087	 0.028900	 0.954485	 1
1463623892.687	 12	 1.411179	 -1.274930	 0.147793	 0.213050	 0.578273	 -0.006809	 0.283854	 0.100945	 0.027071	 0.953155	 1
1463623892.697	 12	 1.364684	 -1.173779	 0.143810	 0.201940	 0.592074	 -0.008510	 0.290654	 0.095178	 0.025357	 0.951745	 1
1463623892.707	 12	 1.272597	 -0.993927	 0.120707	 0.192406	 0.605046	 -0.010065	 0.297010	 0.090199	 0.023835	 0.950306	 1
1463623892.717	 12	 1.163246	 -0.834403	 0.074119	 0.184662	 0.616899	 -0.011746	 0.302799	 0.086071	 0.022418	 0.948895	 1
1463623892.727	 12	 1.035617	 -0.714088	 0.040114	 0.178310	 0.627515	 -0.013582	 0.307977	 0.082601	 0.021045	 0.947568	 1
1463623892.737	 12	 0.869515	 -0.646486	 0.054978	 0.172455	 0.636558	 -0.014876	 0.312370	 0.079474	 0.019911	 0.946421	 1
1463623892.747	 12	 0.736132	 -0.612327	 0.018090	 0.167014	 0.644173	 -0.016131	 0.316071	 0.076574	 0.018778	 0.945454	 1
1463623892.757	 12	 0.644534	 -0.538976	 -0.024126	 0.162343	 0.650710	 -0.017683	 0.319260	 0.074009	 0.017567	 0.944610	 1
1463623892.767	 12	 0.581048	 -0.430244	 -0.016167	 0.158656	 0.656548	 -0.019166	 0.322100	 0.071930	 0.016506	 0.943825	 1
1463623892.777	 12	 0.550705	 -0.340479	 0.029694	 0.155611	 0.662065	 -0.020051	 0.324757	 0.070255	 0.015809	 0.943052	 1
1463623892.787	 12	 0.547634	 -0.332868	 0.057418	 0.152545	 0.667556	 -0.020457	 0.327382	 0.068648	 0.015327	 0.942271	 1
1463623892.797	 12	 0.537939	 -0.362529	 0.070016	 0.149125	 0.673010	 -0.020659	 0.329981	 0.066910	 0.014873	 0.941496	 1
1463623892.807	 12	 0.503763	 -0.394113	 0.100927	 0.145124	 0.678222	 -0.020453	 0.332456	 0.064973	 0.014497	 0.940767	 1
1463623892.817	 12	 0.451621	 -0.401070	 0.147144	 0.140588	 0.683028	 -0.019612	 0.334720	 0.062901	 0.014305	 0.940107	 1
1463623892.827	 12	 0.384618	 -0.395187	 0.197873	 0.135540	 0.687243	 -0.017923	 0.336683	 0.060745	 0.014395	 0.939546	 1
1463623892.837	 12	 0.320771	 -0.358815	 0.200899	 0.130543	 0.690848	 -0.015898	 0.338352	 0.058685	 0.014621	 0.939074	 1
1463623892.847	 12	 0.251701	 -0.262115	 0.160835	 0.126503	 0.693745	 -0.014116	 0.339690	 0.057049	 0.014864	 0.938688	 1
1463623892.857	 12	 0.191243	 -0.124182	 0.090173	 0.124215	 0.695920	 -0.013044	 0.340697	 0.056127	 0.015044	 0.938376	 1
1463623892.867	 12	 0.144712	 0.034899	 0.007863	 0.124088	 0.697501	 -0.012931	 0.341436	 0.056065	 0.015123	 0.938110	 1
1463623892.877	 12	 0.092787	 0.168583	 -0.058649	 0.125919	 0.698499	 -0.013661	 0.341911	 0.056786	 0.015124	 0.937893	 1
1463623892.897	 13	 -0.036518	 0.381474	 -0.087516	 0.133382	 0.698743	 -0.016004	 0.342036	 0.059880	 0.015309	 0.937652	 1
1463623892.907	 13	 -0.085746	 0.353951	 -0.089475	 0.137756	 0.697852	 -0.017023	 0.341616	 0.061771	 0.015550	 0.937678	 1
1463623892.927	 14	 -0.114258	 0.174436	 -0.068516	 0.143672	 0.695510	 -0.018588	 0.340522	 0.064316	 0.015744	 0.937902	 1
1463623892.937	 14	 -0.111509	 0.087136	 -0.078944	 0.145220	 0.694295	 -0.019345	 0.339964	 0.064933	 0.015609	 0.938064	 1
1463623892.947	 14	 -0.112795	 0.051946	 -0.092049	 0.146402	 0.693059	 -0.020290	 0.339407	 0.065348	 0.015322	 0.938242	 1
