% Gyrometer data recorded with 'snsrlog'
% 
% 
% Label description:
% 	 0: Default Label
% 	 1: still_drop
% 	 2: walk_drop
% 	 3: other
% 	 4: dtw_same
% 	 5: dtw_diff
% 	 6: delete
% 	 7: steal
% 
% Column description:
% 	 1: Seconds.milliseconds since 1970
% 	 2: Number of skipped measurements
% 	 3: Gyro X
% 	 4: Gyro Y
% 	 5: Gyro Z
% 	 6: Roll of the device
% 	 7: Pitch of the device
% 	 8: Yaw of the device
% 	 9: Quaternion X
% 	 10: Quaternion Y
% 	 11: Quaternion Z
% 	 12: Quaternion W
% 	 13: Label used for the current sample
% 
% 
1463630270.960	 0	 0.224055	 0.243561	 -0.129396	 0.372707	 0.374155	 0.174654	 0.166194	 0.197291	 0.118538	 0.958856	 2
1463630270.970	 0	 0.204991	 0.293441	 -0.152212	 0.376342	 0.375639	 0.172316	 0.166927	 0.198875	 0.117844	 0.958487	 2
1463630270.980	 0	 0.079398	 0.362956	 -0.150472	 0.380532	 0.376144	 0.170336	 0.167122	 0.200729	 0.117288	 0.958134	 2
1463630270.990	 0	 -0.059170	 0.381585	 -0.130974	 0.384816	 0.375383	 0.169083	 0.166630	 0.202659	 0.116980	 0.957851	 2
1463630271.000	 0	 -0.121212	 0.320340	 -0.094768	 0.388416	 0.373960	 0.168490	 0.165794	 0.204301	 0.116873	 0.957661	 2
1463630271.010	 0	 -0.061768	 0.207814	 -0.040913	 0.390879	 0.372964	 0.168293	 0.165191	 0.205442	 0.116895	 0.957518	 2
1463630271.020	 0	 0.140453	 0.058610	 -0.000366	 0.391994	 0.373685	 0.167880	 0.165516	 0.205958	 0.116853	 0.957356	 2
1463630271.030	 0	 0.449170	 -0.095523	 -0.009817	 0.391981	 0.377069	 0.166349	 0.167304	 0.205899	 0.116416	 0.957112	 2
1463630271.040	 0	 0.766331	 -0.226652	 -0.070284	 0.391260	 0.383251	 0.162984	 0.170668	 0.205401	 0.115286	 0.956761	 2
1463630271.050	 0	 0.980158	 -0.298099	 -0.155940	 0.390383	 0.391385	 0.157805	 0.175164	 0.204696	 0.113444	 0.956320	 2
1463630271.070	 1	 1.011864	 -0.276607	 -0.259395	 0.389714	 0.408803	 0.144862	 0.184897	 0.203510	 0.108720	 0.955289	 2
1463630271.080	 1	 0.898815	 -0.183353	 -0.352396	 0.390462	 0.416173	 0.137685	 0.189127	 0.203300	 0.106008	 0.954810	 2
1463630271.090	 1	 0.713677	 -0.005713	 -0.424800	 0.392921	 0.421656	 0.130350	 0.192376	 0.203839	 0.103224	 0.954351	 2
1463630271.100	 1	 0.548873	 0.148774	 -0.454966	 0.396931	 0.425361	 0.123319	 0.194669	 0.205108	 0.100588	 0.953896	 2
1463630271.110	 1	 0.409953	 0.319495	 -0.436182	 0.402340	 0.427708	 0.116922	 0.196184	 0.207080	 0.098279	 0.953400	 2
1463630271.120	 1	 0.325332	 0.416014	 -0.361009	 0.408567	 0.429337	 0.111570	 0.197218	 0.209531	 0.096492	 0.952833	 2
1463630271.130	 1	 0.313877	 0.392313	 -0.262017	 0.414375	 0.431060	 0.107298	 0.198215	 0.211883	 0.095193	 0.952237	 2
1463630271.140	 1	 0.340508	 0.313061	 -0.179857	 0.419186	 0.433296	 0.103815	 0.199427	 0.213833	 0.094226	 0.951644	 2
1463630271.150	 1	 0.389335	 0.209099	 -0.122633	 0.422841	 0.436173	 0.100756	 0.200959	 0.215271	 0.093415	 0.951077	 2
1463630271.160	 1	 0.436923	 0.087960	 -0.087939	 0.425264	 0.439658	 0.097868	 0.202822	 0.216134	 0.092626	 0.950563	 2
1463630271.170	 1	 0.464105	 -0.038630	 -0.079761	 0.426421	 0.443506	 0.094966	 0.204920	 0.216388	 0.091741	 0.950141	 2
1463630271.190	 2	 0.490784	 -0.232563	 -0.118034	 0.425884	 0.451430	 0.088477	 0.209425	 0.215448	 0.089380	 0.949597	 2
1463630271.200	 2	 0.500037	 -0.302825	 -0.123032	 0.424571	 0.455462	 0.084940	 0.211786	 0.214440	 0.087958	 0.949434	 2
1463630271.210	 2	 0.499867	 -0.353750	 -0.105386	 0.422656	 0.459561	 0.081521	 0.214189	 0.213150	 0.086531	 0.949317	 2
1463630271.220	 2	 0.490275	 -0.382170	 -0.068265	 0.420257	 0.463750	 0.078457	 0.216613	 0.211661	 0.085226	 0.949218	 2
1463630271.230	 2	 0.468050	 -0.384931	 -0.018007	 0.417514	 0.467950	 0.075980	 0.218992	 0.210066	 0.084158	 0.949122	 2
1463630271.240	 2	 0.441732	 -0.353618	 0.035802	 0.414685	 0.472144	 0.074194	 0.221295	 0.208501	 0.083402	 0.948999	 2
1463630271.250	 2	 0.425140	 -0.289423	 0.081306	 0.412165	 0.476350	 0.072978	 0.223529	 0.207143	 0.082946	 0.948813	 2
1463630271.260	 2	 0.411899	 -0.185951	 0.117554	 0.410375	 0.480590	 0.072225	 0.225700	 0.206180	 0.082791	 0.948523	 2
1463630271.270	 2	 0.409392	 -0.066579	 0.150660	 0.409591	 0.484905	 0.071861	 0.227823	 0.205736	 0.082937	 0.948098	 2
1463630271.290	 3	 0.466772	 0.081317	 0.181378	 0.410526	 0.494332	 0.071512	 0.232303	 0.206066	 0.083770	 0.946866	 2
1463630271.300	 3	 0.529879	 0.105647	 0.188515	 0.411712	 0.499772	 0.071129	 0.234877	 0.206539	 0.084241	 0.946086	 2
1463630271.310	 3	 0.603585	 0.119270	 0.190131	 0.413214	 0.505887	 0.070445	 0.237787	 0.207115	 0.084675	 0.945194	 2
1463630271.320	 3	 0.695396	 0.124336	 0.192576	 0.414989	 0.512801	 0.069355	 0.241103	 0.207758	 0.085030	 0.944180	 2
1463630271.330	 3	 0.802068	 0.103907	 0.205312	 0.416835	 0.520694	 0.067884	 0.244915	 0.208370	 0.085314	 0.943038	 2
1463630271.340	 3	 0.918292	 0.064373	 0.227379	 0.418505	 0.529713	 0.066049	 0.249301	 0.208831	 0.085520	 0.941767	 2
1463630271.350	 3	 1.020738	 0.032434	 0.264558	 0.419921	 0.539854	 0.064043	 0.254240	 0.209121	 0.085729	 0.940362	 2
1463630271.360	 3	 1.078461	 0.015568	 0.308660	 0.421106	 0.550804	 0.062128	 0.259553	 0.209287	 0.086035	 0.938844	 2
1463630271.370	 3	 1.083941	 0.004214	 0.358598	 0.421988	 0.562129	 0.060617	 0.265005	 0.209341	 0.086534	 0.937262	 2
1463630271.380	 3	 1.037084	 -0.013396	 0.404669	 0.422355	 0.573335	 0.059760	 0.270346	 0.209228	 0.087263	 0.935693	 2
1463630271.400	 4	 0.818604	 -0.006959	 0.470577	 0.421565	 0.593651	 0.060608	 0.279819	 0.208650	 0.089500	 0.932822	 2
1463630271.410	 4	 0.669428	 0.028690	 0.486063	 0.420718	 0.602080	 0.062449	 0.283610	 0.208376	 0.091043	 0.931588	 2
1463630271.430	 5	 0.415685	 0.113179	 0.447494	 0.419250	 0.615043	 0.067889	 0.289170	 0.208265	 0.094591	 0.929548	 2
1463630271.440	 5	 0.348432	 0.143918	 0.405735	 0.418959	 0.620047	 0.070749	 0.291221	 0.208467	 0.096347	 0.928681	 2
1463630271.450	 5	 0.314195	 0.155458	 0.369904	 0.418961	 0.624520	 0.073394	 0.293031	 0.208787	 0.097993	 0.927867	 2
1463630271.460	 5	 0.287279	 0.128745	 0.342180	 0.418895	 0.628622	 0.075856	 0.294690	 0.209058	 0.099508	 0.927120	 2
1463630271.470	 5	 0.242049	 0.069082	 0.310046	 0.418378	 0.632249	 0.078167	 0.296164	 0.209108	 0.100839	 0.926495	 2
1463630271.480	 5	 0.140394	 0.011940	 0.309334	 0.417087	 0.635031	 0.080752	 0.297255	 0.208855	 0.102102	 0.926064	 2
1463630271.490	 5	 -0.000736	 -0.045069	 0.311098	 0.414755	 0.636630	 0.084170	 0.297762	 0.208263	 0.103484	 0.925881	 2
1463630271.500	 5	 -0.150390	 -0.033485	 0.234708	 0.412262	 0.636636	 0.087667	 0.297531	 0.207629	 0.104732	 0.925957	 2
1463630271.510	 5	 -0.312570	 0.042967	 0.151570	 0.410516	 0.634833	 0.090937	 0.296444	 0.207326	 0.105825	 0.926249	 2
1463630271.520	 5	 -0.459658	 0.123868	 0.101381	 0.409566	 0.631403	 0.094338	 0.294543	 0.207424	 0.106953	 0.926704	 2
1463630271.530	 5	 -0.601404	 0.202657	 0.055389	 0.409295	 0.626489	 0.097872	 0.291898	 0.207860	 0.108112	 0.927309	 2
1463630271.540	 5	 -0.751643	 0.298420	 0.000038	 0.409908	 0.620000	 0.101550	 0.288452	 0.208730	 0.109328	 0.928049	 2
1463630271.550	 5	 -0.864935	 0.331130	 -0.081801	 0.411206	 0.612058	 0.104988	 0.284309	 0.209879	 0.110401	 0.928941	 2
1463630271.560	 5	 -0.889247	 0.261143	 -0.209066	 0.412673	 0.603218	 0.107385	 0.279838	 0.210950	 0.110929	 0.929992	 2
1463630271.570	 5	 -0.815654	 0.155576	 -0.363094	 0.414207	 0.594207	 0.107843	 0.275483	 0.211772	 0.110543	 0.931151	 2
1463630271.580	 5	 -0.650889	 0.073778	 -0.429235	 0.415846	 0.586130	 0.106617	 0.271734	 0.212407	 0.109463	 0.932235	 2
1463630271.590	 5	 -0.387025	 -0.097155	 -0.426728	 0.416726	 0.580219	 0.104146	 0.269174	 0.212513	 0.107889	 0.933137	 2
1463630271.600	 5	 -0.096760	 -0.314013	 -0.439800	 0.416246	 0.576935	 0.100209	 0.268074	 0.211778	 0.105685	 0.933872	 2
1463630271.610	 5	 0.095812	 -0.403162	 -0.481739	 0.415285	 0.575548	 0.094813	 0.268043	 0.210615	 0.102908	 0.934454	 2
1463630271.620	 5	 0.118527	 -0.330969	 -0.490857	 0.414920	 0.574697	 0.088823	 0.268290	 0.209648	 0.099981	 0.934918	 2
1463630271.630	 5	 -0.078056	 -0.043268	 -0.351117	 0.415990	 0.572955	 0.084597	 0.267861	 0.209597	 0.097988	 0.935263	 2
1463630271.640	 5	 -0.316065	 0.195346	 -0.103830	 0.417758	 0.569894	 0.083995	 0.266399	 0.210372	 0.097656	 0.935542	 2
1463630271.650	 5	 -0.511638	 0.324769	 0.210280	 0.418759	 0.566175	 0.087604	 0.264220	 0.211352	 0.099129	 0.935784	 2
1463630271.660	 5	 -0.747178	 0.454315	 0.671814	 0.418095	 0.562117	 0.096806	 0.261369	 0.212280	 0.102969	 0.935960	 2
1463630271.670	 5	 -0.946550	 0.529768	 1.168765	 0.414948	 0.558134	 0.112401	 0.258003	 0.212848	 0.109492	 0.936024	 2
1463630271.680	 5	 -1.087661	 0.590554	 1.573418	 0.409562	 0.554391	 0.133369	 0.254313	 0.213010	 0.118278	 0.935929	 2
1463630271.690	 5	 -1.131597	 0.902139	 1.694999	 0.405552	 0.550726	 0.156682	 0.250341	 0.214051	 0.128359	 0.935433	 2
1463630271.700	 5	 -1.206670	 1.198709	 1.786871	 0.404088	 0.546760	 0.181123	 0.245937	 0.216349	 0.139265	 0.934512	 2
1463630271.710	 5	 -1.268334	 1.348877	 1.935880	 0.403747	 0.542650	 0.207281	 0.241173	 0.219297	 0.151095	 0.933228	 2
1463630271.720	 5	 -1.265520	 1.376466	 2.074662	 0.403238	 0.538992	 0.235019	 0.236423	 0.222278	 0.163668	 0.931616	 2
1463630271.730	 5	 -1.247457	 1.295073	 2.151548	 0.401830	 0.535861	 0.263590	 0.231871	 0.224867	 0.176550	 0.929785	 2
1463630271.740	 5	 -1.250388	 1.130188	 2.146842	 0.398953	 0.532752	 0.292295	 0.227427	 0.226704	 0.189312	 0.927924	 2
1463630271.750	 5	 -1.246256	 0.990907	 2.009092	 0.395169	 0.529172	 0.319862	 0.222976	 0.227888	 0.201397	 0.926168	 2
1463630271.760	 5	 -1.202341	 1.038695	 1.723530	 0.392893	 0.524863	 0.344505	 0.218365	 0.229324	 0.212237	 0.924490	 2
1463630271.770	 5	 -1.150107	 1.319989	 1.373991	 0.394895	 0.519735	 0.365228	 0.213343	 0.232184	 0.221661	 0.922736	 2
1463630271.780	 5	 -1.121337	 1.818429	 1.038401	 0.403365	 0.513708	 0.382115	 0.207569	 0.237485	 0.229907	 0.920684	 2
1463630271.790	 5	 -1.134468	 2.427033	 0.770277	 0.419284	 0.506673	 0.396022	 0.200725	 0.245756	 0.237411	 0.918123	 2
1463630271.800	 5	 -1.170635	 3.049159	 0.597333	 0.442407	 0.498777	 0.408150	 0.192711	 0.257005	 0.244634	 0.914858	 2
1463630271.810	 5	 -1.209003	 3.600520	 0.491959	 0.471731	 0.490280	 0.419414	 0.183610	 0.270855	 0.251829	 0.910773	 2
1463630271.820	 5	 -1.226610	 3.996808	 0.424394	 0.505734	 0.481530	 0.430294	 0.173670	 0.286650	 0.259019	 0.905859	 2
1463630271.830	 5	 -1.198297	 4.189671	 0.337483	 0.542526	 0.472873	 0.440642	 0.163290	 0.303516	 0.265940	 0.900272	 2
1463630271.840	 5	 -1.089934	 4.190577	 0.212920	 0.580458	 0.464675	 0.449672	 0.152984	 0.320660	 0.272116	 0.894274	 2
1463630271.850	 5	 -0.897149	 4.035553	 0.033948	 0.618271	 0.457296	 0.456443	 0.143277	 0.337484	 0.277082	 0.888145	 2
1463630271.860	 5	 -0.620758	 3.985343	 -0.177815	 0.656539	 0.450948	 0.459882	 0.134438	 0.354208	 0.280471	 0.881929	 2
1463630271.870	 5	 -0.345406	 4.308136	 -0.288048	 0.698399	 0.446064	 0.460428	 0.126216	 0.372294	 0.282785	 0.874928	 2
1463630271.880	 5	 -0.102462	 4.738753	 -0.356497	 0.745429	 0.442611	 0.458794	 0.118294	 0.392444	 0.284450	 0.866650	 2
1463630271.890	 5	 0.107135	 4.925570	 -0.470620	 0.796044	 0.439962	 0.454863	 0.110686	 0.413870	 0.285241	 0.857378	 2
1463630271.900	 5	 0.216250	 5.127137	 -0.644479	 0.849308	 0.436908	 0.448789	 0.103022	 0.436070	 0.284985	 0.847356	 2
1463630271.910	 5	 0.237526	 5.304108	 -0.872157	 0.905235	 0.432160	 0.441073	 0.094703	 0.458984	 0.283643	 0.836607	 2
1463630271.920	 5	 0.231175	 5.306502	 -1.131059	 0.962165	 0.424985	 0.432068	 0.085652	 0.481893	 0.281074	 0.825494	 2
1463630271.930	 5	 0.240592	 5.061835	 -1.425437	 1.017700	 0.414980	 0.421788	 0.076124	 0.503822	 0.277028	 0.814631	 2
1463630271.940	 5	 0.286026	 4.719565	 -1.670945	 1.070283	 0.402381	 0.410404	 0.066475	 0.524220	 0.271513	 0.804397	 2
1463630271.950	 5	 0.403682	 4.405809	 -1.768677	 1.119785	 0.388446	 0.398129	 0.057255	 0.543158	 0.264887	 0.794692	 2
1463630271.960	 5	 0.616705	 4.261028	 -1.700472	 1.167496	 0.375042	 0.384966	 0.049094	 0.561250	 0.257671	 0.784980	 2
1463630271.970	 5	 0.905127	 4.403944	 -1.530066	 1.216196	 0.363466	 0.370426	 0.042321	 0.579606	 0.250143	 0.774399	 2
1463630271.980	 5	 1.172998	 4.699150	 -1.341011	 1.268114	 0.353927	 0.354404	 0.036805	 0.599034	 0.242452	 0.762247	 2
1463630271.990	 5	 1.300977	 4.838705	 -1.258763	 1.322006	 0.345215	 0.337635	 0.032035	 0.618968	 0.234599	 0.748876	 2
1463630272.000	 5	 1.303378	 4.792956	 -1.406285	 1.375713	 0.334893	 0.320959	 0.027082	 0.638535	 0.226183	 0.735106	 2
1463630272.010	 5	 1.271710	 4.697010	 -1.742617	 1.428101	 0.320767	 0.304721	 0.021168	 0.657322	 0.216598	 0.721502	 2
1463630272.020	 5	 1.298933	 4.694043	 -2.140411	 1.479889	 0.301993	 0.288838	 0.014000	 0.675623	 0.205441	 0.707906	 2
1463630272.030	 5	 1.507359	 4.593138	 -2.476749	 1.530961	 0.278992	 0.272192	 0.006236	 0.693411	 0.192330	 0.694371	 2
1463630272.040	 5	 1.910184	 4.240131	 -2.738258	 1.579345	 0.252532	 0.253116	 -0.000962	 0.710027	 0.176872	 0.681599	 2
1463630272.050	 5	 2.325967	 3.986484	 -3.079954	 1.624855	 0.221975	 0.231200	 -0.007554	 0.725463	 0.158708	 0.669670	 2
1463630272.060	 5	 2.656975	 3.889181	 -3.456758	 1.668745	 0.186438	 0.207558	 -0.014233	 0.740166	 0.137868	 0.657985	 2
1463630272.070	 5	 2.881603	 3.761168	 -3.711425	 1.710723	 0.146773	 0.183440	 -0.021056	 0.754017	 0.115028	 0.646362	 2
1463630272.080	 5	 2.944551	 3.650408	 -3.852618	 1.750361	 0.104354	 0.160322	 -0.028071	 0.766829	 0.091154	 0.634725	 2
1463630272.090	 5	 2.800477	 3.679287	 -3.888397	 1.788710	 0.060646	 0.140001	 -0.035584	 0.778865	 0.067351	 0.622548	 2
1463630272.100	 5	 2.523058	 3.631676	 -3.819281	 1.825905	 0.017205	 0.123734	 -0.043674	 0.790094	 0.044595	 0.609799	 2
1463630272.110	 5	 2.175636	 3.400683	 -3.692646	 1.860516	 -0.024748	 0.111948	 -0.052235	 0.800044	 0.023526	 0.597200	 2
1463630272.120	 5	 1.855222	 3.055439	 -3.616334	 1.891665	 -0.065145	 0.104440	 -0.061336	 0.808455	 0.004147	 0.585339	 2
1463630272.130	 5	 1.624705	 2.638855	 -3.660834	 1.918807	 -0.105040	 0.100556	 -0.071191	 0.815172	 -0.014124	 0.574653	 2
1463630272.140	 5	 1.479988	 2.131232	 -3.758085	 1.941351	 -0.145292	 0.099537	 -0.081887	 0.820032	 -0.031805	 0.565535	 2
1463630272.150	 5	 1.407479	 1.556310	 -3.866182	 1.958421	 -0.186193	 0.100526	 -0.093301	 0.822814	 -0.049169	 0.558439	 2
1463630272.160	 5	 1.340952	 1.121738	 -3.978355	 1.971237	 -0.227889	 0.103239	 -0.105450	 0.823865	 -0.066340	 0.552925	 2
1463630272.170	 5	 1.411845	 0.813743	 -4.034060	 1.980893	 -0.270279	 0.106560	 -0.117898	 0.823536	 -0.083575	 0.548546	 2
1463630272.180	 5	 1.537685	 0.382273	 -4.080736	 1.986668	 -0.313608	 0.109169	 -0.130272	 0.821688	 -0.101228	 0.545537	 2
1463630272.190	 5	 1.592054	 -0.075296	 -4.088664	 1.987689	 -0.357408	 0.111344	 -0.142703	 0.818109	 -0.118882	 0.544243	 2
1463630272.200	 5	 1.491220	 -0.418486	 -4.080322	 1.985331	 -0.400915	 0.114060	 -0.155413	 0.813179	 -0.135963	 0.544151	 2
1463630272.210	 5	 1.262428	 -0.726315	 -4.087589	 1.980832	 -0.443642	 0.118714	 -0.168819	 0.807171	 -0.151925	 0.544879	 2
1463630272.220	 5	 0.977086	 -1.064543	 -4.056279	 1.974261	 -0.485147	 0.125924	 -0.183076	 0.800084	 -0.166379	 0.546504	 2
1463630272.240	 6	 0.402586	 -1.642096	 -3.996969	 1.956542	 -0.563882	 0.148621	 -0.214100	 0.783047	 -0.190332	 0.552062	 2
1463630272.250	 6	 0.213236	 -1.781571	 -3.946527	 1.947204	 -0.601617	 0.163458	 -0.230533	 0.773547	 -0.200346	 0.555284	 2
1463630272.260	 6	 0.113043	 -1.890726	 -3.785740	 1.937670	 -0.637832	 0.179046	 -0.246806	 0.763658	 -0.209318	 0.558658	 2
1463630272.270	 6	 0.131353	 -2.134063	 -3.453515	 1.925893	 -0.671426	 0.193495	 -0.262134	 0.753254	 -0.217080	 0.562823	 2
1463630272.280	 6	 0.250938	 -2.267338	 -3.010307	 1.910360	 -0.701524	 0.204587	 -0.275679	 0.742437	 -0.223689	 0.568113	 2
1463630272.290	 6	 0.445514	 -2.289585	 -2.626403	 1.891787	 -0.728476	 0.211287	 -0.287153	 0.731613	 -0.229664	 0.574056	 2
1463630272.300	 6	 0.589134	 -2.151969	 -2.365261	 1.871791	 -0.753244	 0.214131	 -0.296888	 0.721104	 -0.235479	 0.580014	 2
1463630272.310	 6	 0.697518	 -1.951014	 -2.184221	 1.851784	 -0.776496	 0.214100	 -0.305294	 0.711131	 -0.241356	 0.585522	 2
1463630272.320	 6	 0.821864	 -1.757579	 -2.006583	 1.831161	 -0.797990	 0.210809	 -0.312276	 0.701674	 -0.247261	 0.590761	 2
1463630272.330	 6	 0.989733	 -1.592108	 -1.854097	 1.809692	 -0.818076	 0.203936	 -0.317880	 0.692702	 -0.253421	 0.595730	 2
1463630272.340	 6	 1.136877	 -1.466422	 -1.768935	 1.786142	 -0.836519	 0.193073	 -0.322105	 0.683987	 -0.259707	 0.600801	 2
1463630272.350	 6	 1.174356	 -1.274584	 -1.699253	 1.762664	 -0.853865	 0.180112	 -0.325503	 0.675794	 -0.266130	 0.605413	 2
1463630272.360	 6	 1.142135	 -1.178032	 -1.597888	 1.740661	 -0.871395	 0.166953	 -0.328882	 0.668019	 -0.272823	 0.609224	 2
1463630272.370	 6	 1.040977	 -1.040417	 -1.435863	 1.719890	 -0.887707	 0.154004	 -0.332006	 0.660796	 -0.279126	 0.612543	 2
1463630272.380	 6	 0.914773	 -1.239853	 -1.268229	 1.698814	 -0.901967	 0.141969	 -0.335056	 0.653696	 -0.284294	 0.616113	 2
1463630272.390	 6	 0.751038	 -1.676604	 -1.133380	 1.674506	 -0.913888	 0.130981	 -0.338382	 0.645838	 -0.287710	 0.620978	 2
1463630272.400	 6	 0.368150	 -2.119728	 -1.086210	 1.649351	 -0.925208	 0.124777	 -0.343315	 0.636979	 -0.289205	 0.626700	 2
1463630272.410	 6	 -0.031079	 -2.403297	 -1.043808	 1.626083	 -0.935804	 0.124885	 -0.349830	 0.627700	 -0.288692	 0.632668	 2
1463630272.420	 6	 -0.294548	 -2.658376	 -0.977811	 1.603993	 -0.945631	 0.129711	 -0.357430	 0.618026	 -0.286508	 0.638906	 2
1463630272.430	 6	 -0.401376	 -2.753169	 -0.892502	 1.582205	 -0.954697	 0.136662	 -0.365378	 0.608108	 -0.283311	 0.645321	 2
1463630272.440	 6	 -0.375145	 -2.474961	 -0.798486	 1.562039	 -0.962896	 0.143441	 -0.372734	 0.598806	 -0.280054	 0.651207	 2
1463630272.450	 6	 -0.262529	 -1.935764	 -0.760345	 1.545298	 -0.970595	 0.148411	 -0.378880	 0.590974	 -0.277760	 0.655782	 2
1463630272.460	 6	 -0.102874	 -1.334338	 -0.775322	 1.532231	 -0.978344	 0.150483	 -0.383659	 0.584843	 -0.277060	 0.658789	 2
1463630272.470	 6	 -0.062328	 -0.804402	 -0.869860	 1.523275	 -0.986752	 0.150947	 -0.387603	 0.580230	 -0.277845	 0.660227	 2
1463630272.480	 6	 -0.138824	 -0.392477	 -1.004975	 1.519536	 -0.996538	 0.152252	 -0.391489	 0.576906	 -0.279772	 0.660033	 2
1463630272.490	 6	 -0.081926	 -0.046329	 -1.062998	 1.519014	 -1.007124	 0.153280	 -0.395081	 0.574529	 -0.282659	 0.658734	 2
1463630272.510	 7	 0.549479	 0.774931	 -0.786953	 1.517643	 -1.025398	 0.141097	 -0.397333	 0.573015	 -0.292104	 0.654565	 2
1463630272.520	 7	 0.888108	 1.321318	 -0.546086	 1.515481	 -1.031012	 0.124785	 -0.394680	 0.574474	 -0.298748	 0.651887	 2
1463630272.540	 8	 1.178186	 1.858282	 -0.157809	 1.512649	 -1.035492	 0.080691	 -0.383747	 0.581305	 -0.313873	 0.645218	 2
1463630272.550	 8	 1.208964	 1.691272	 -0.001898	 1.509793	 -1.035151	 0.057205	 -0.377247	 0.584915	 -0.320786	 0.642382	 2
1463630272.560	 8	 1.253882	 1.737716	 -0.032764	 1.506425	 -1.034497	 0.032960	 -0.370477	 0.588483	 -0.327730	 0.639553	 2
1463630272.570	 8	 1.338491	 1.647502	 -0.118536	 1.500984	 -1.034640	 0.007114	 -0.363799	 0.591467	 -0.335021	 0.636850	 2
1463630272.580	 8	 1.339399	 1.243683	 -0.216088	 1.491702	 -1.035478	 -0.019492	 -0.357758	 0.593175	 -0.342053	 0.634943	 2
1463630272.590	 8	 1.217904	 0.943090	 -0.355311	 1.480055	 -1.037650	 -0.044576	 -0.353027	 0.593586	 -0.348571	 0.633661	 2
1463630272.610	 9	 0.605732	 1.172122	 -0.260457	 1.470592	 -1.042564	 -0.080046	 -0.345756	 0.596023	 -0.359522	 0.629248	 2
1463630272.620	 9	 0.371422	 1.119876	 -0.079855	 1.474656	 -1.043443	 -0.088554	 -0.342769	 0.598628	 -0.363141	 0.626325	 2
1463630272.630	 9	 0.366898	 1.079183	 0.173457	 1.479556	 -1.042060	 -0.095330	 -0.339389	 0.601526	 -0.365703	 0.623893	 2
1463630272.640	 9	 0.696874	 1.249103	 0.564366	 1.482173	 -1.037015	 -0.106181	 -0.333980	 0.604931	 -0.368095	 0.622111	 2
1463630272.650	 9	 1.494593	 1.646895	 1.033254	 1.477266	 -1.026574	 -0.129689	 -0.324303	 0.608810	 -0.371651	 0.621331	 2
1463630272.660	 9	 1.075233	 1.977903	 1.188127	 1.477552	 -1.013776	 -0.151358	 -0.313359	 0.614162	 -0.374832	 0.619768	 2
1463630272.670	 9	 0.278512	 2.550144	 1.162021	 1.496044	 -1.001766	 -0.157989	 -0.303824	 0.622552	 -0.376349	 0.615209	 2
1463630272.680	 9	 0.349977	 2.819479	 1.370663	 1.521029	 -0.988705	 -0.161301	 -0.293738	 0.632490	 -0.377359	 0.609323	 2
1463630272.690	 9	 1.298838	 2.826117	 1.935843	 1.535135	 -0.970516	 -0.178349	 -0.279615	 0.641674	 -0.379287	 0.605154	 2
1463630272.700	 9	 2.151902	 3.402573	 2.424030	 1.540174	 -0.946688	 -0.211405	 -0.260040	 0.650717	 -0.383011	 0.601871	 2
1463630272.710	 9	 2.469200	 4.098613	 2.759197	 1.548017	 -0.919263	 -0.250747	 -0.236411	 0.661214	 -0.387800	 0.597091	 2
1463630272.720	 9	 2.529579	 4.431380	 3.056983	 1.560184	 -0.888995	 -0.290757	 -0.210453	 0.672581	 -0.392223	 0.591190	 2
1463630272.730	 9	 2.420991	 4.581742	 3.213864	 1.576578	 -0.857052	 -0.328844	 -0.183443	 0.684281	 -0.395669	 0.584426	 2
1463630272.740	 9	 2.234550	 4.498668	 3.123059	 1.595789	 -0.825800	 -0.363838	 -0.156916	 0.695592	 -0.398226	 0.577014	 2
1463630272.760	 10	 1.641582	 4.314786	 2.900569	 1.641289	 -0.768807	 -0.422234	 -0.107867	 0.716712	 -0.400694	 0.560475	 2
1463630272.770	 10	 1.148365	 4.042951	 2.909794	 1.668301	 -0.740858	 -0.443015	 -0.085563	 0.727046	 -0.399188	 0.552026	 2
1463630272.780	 10	 0.710530	 3.579008	 2.850672	 1.695322	 -0.713265	 -0.458075	 -0.065484	 0.736665	 -0.395700	 0.544480	 2
1463630272.790	 10	 0.383353	 3.050874	 2.784660	 1.720112	 -0.686160	 -0.469018	 -0.047610	 0.745171	 -0.390724	 0.538319	 2
1463630272.800	 10	 0.093716	 2.522975	 2.766284	 1.741801	 -0.659149	 -0.476790	 -0.031666	 0.752502	 -0.384477	 0.533775	 2
1463630272.810	 10	 -0.249558	 2.037789	 2.895846	 1.760626	 -0.630772	 -0.481286	 -0.017193	 0.758878	 -0.376548	 0.531056	 2
1463630272.820	 10	 -0.675702	 1.576715	 3.090301	 1.777268	 -0.599872	 -0.481823	 -0.003973	 0.764586	 -0.366423	 0.530214	 2
1463630272.830	 10	 -1.132722	 0.956805	 3.222798	 1.790552	 -0.566348	 -0.478091	 0.007672	 0.769363	 -0.354002	 0.531700	 2
1463630272.850	 11	 -1.883320	 -0.151211	 3.102854	 1.805329	 -0.497940	 -0.457364	 0.023784	 0.775576	 -0.324500	 0.540939	 2
1463630272.860	 11	 -1.922817	 -0.251121	 2.949865	 1.808659	 -0.464070	 -0.444151	 0.029811	 0.777473	 -0.308826	 0.547059	 2
1463630272.870	 11	 -1.737866	 0.149646	 2.555520	 1.814370	 -0.433938	 -0.431852	 0.035304	 0.779848	 -0.294524	 0.551222	 2
1463630272.880	 11	 -1.431603	 0.566303	 2.054756	 1.823357	 -0.409070	 -0.421608	 0.040332	 0.782947	 -0.282488	 0.552781	 2
1463630272.890	 12	 -1.010555	 0.723593	 1.474911	 1.833067	 -0.390450	 -0.414331	 0.044580	 0.786062	 -0.273435	 0.552588	 2
1463630272.910	 12	 0.025051	 1.189211	 -0.045287	 1.855320	 -0.377908	 -0.409489	 0.049511	 0.792462	 -0.266928	 0.546171	 2
1463630272.920	 12	 0.581731	 1.612022	 -0.915862	 1.869372	 -0.385909	 -0.411929	 0.049948	 0.796096	 -0.270233	 0.539176	 2
1463630272.930	 12	 1.071277	 1.890742	 -1.590027	 1.885859	 -0.402525	 -0.417025	 0.049258	 0.800080	 -0.277421	 0.529606	 2
1463630272.940	 12	 1.527909	 1.876710	 -1.873363	 1.901418	 -0.424378	 -0.425353	 0.048304	 0.803483	 -0.287438	 0.519097	 2
1463630272.950	 12	 1.930675	 1.657175	 -1.770205	 1.913231	 -0.447555	 -0.437821	 0.048218	 0.805624	 -0.299061	 0.509125	 2
1463630272.970	 13	 2.481929	 1.806919	 -0.992407	 1.931104	 -0.488482	 -0.476536	 0.054634	 0.807886	 -0.323547	 0.489544	 2
1463630272.980	 13	 2.451218	 1.729234	 -0.570821	 1.936822	 -0.503582	 -0.500113	 0.060699	 0.808118	 -0.334693	 0.480876	 2
1463630272.990	 13	 2.255184	 2.197025	 -0.237572	 1.945929	 -0.514839	 -0.523503	 0.068430	 0.809177	 -0.344114	 0.471312	 2
1463630273.000	 13	 1.987490	 2.736440	 -0.029859	 1.961372	 -0.523227	 -0.545152	 0.077466	 0.811721	 -0.351671	 0.459820	 2
1463630273.010	 13	 1.662239	 2.908478	 0.095005	 1.980858	 -0.529414	 -0.564100	 0.086856	 0.815169	 -0.357442	 0.447426	 2
1463630273.020	 13	 1.151387	 2.697720	 0.159306	 2.001216	 -0.533362	 -0.578473	 0.095268	 0.818885	 -0.361143	 0.435807	 2
1463630273.030	 13	 0.533890	 2.184936	 0.332565	 2.020206	 -0.533799	 -0.587056	 0.102102	 0.822540	 -0.362217	 0.426381	 2
1463630273.040	 13	 0.189306	 1.643255	 0.737646	 2.034910	 -0.529246	 -0.592839	 0.108403	 0.825496	 -0.360975	 0.420122	 2
1463630273.050	 13	 0.056849	 1.389277	 1.008205	 2.046399	 -0.521190	 -0.598814	 0.115146	 0.827818	 -0.358573	 0.415794	 2
1463630273.060	 13	 -0.162048	 1.161032	 0.979211	 2.056387	 -0.511734	 -0.603149	 0.121294	 0.829915	 -0.355332	 0.412636	 2
1463630273.070	 13	 -0.450437	 0.826429	 0.776114	 2.065219	 -0.502638	 -0.603782	 0.125572	 0.831954	 -0.351487	 0.410537	 2
1463630273.080	 13	 -0.748654	 0.510430	 0.494409	 2.072793	 -0.494403	 -0.600185	 0.127602	 0.833964	 -0.347148	 0.409524	 2
1463630273.090	 13	 -1.142469	 0.304138	 0.195373	 2.080457	 -0.487080	 -0.591354	 0.127184	 0.836299	 -0.342060	 0.409175	 2
1463630273.100	 13	 -1.573065	 -0.123341	 0.034214	 2.087585	 -0.479180	 -0.577303	 0.124595	 0.838867	 -0.335700	 0.409981	 2
1463630273.120	 14	 -2.023515	 -1.878169	 -0.862776	 2.080582	 -0.470073	 -0.535253	 0.108190	 0.840134	 -0.323840	 0.421423	 2
1463630273.130	 14	 -1.872645	 -1.087506	 -0.894047	 2.077214	 -0.468484	 -0.510876	 0.097825	 0.840728	 -0.318224	 0.427014	 2
1463630273.140	 14	 -1.156492	 -0.219296	 -0.562883	 2.081582	 -0.467847	 -0.494425	 0.091760	 0.842464	 -0.314251	 0.427880	 2
1463630273.150	 14	 -1.014649	 -0.417066	 -0.350674	 2.083021	 -0.466077	 -0.482331	 0.087353	 0.843380	 -0.310899	 0.429444	 2
1463630273.160	 14	 -0.898702	 -0.131434	 -0.516351	 2.086188	 -0.465493	 -0.470630	 0.083059	 0.844582	 -0.308020	 0.430008	 2
1463630273.170	 14	 -0.621756	 0.179828	 -0.749268	 2.092136	 -0.468122	 -0.459954	 0.078774	 0.846183	 -0.306528	 0.428731	 2
1463630273.180	 14	 -0.424823	 0.122469	 -0.805870	 2.097741	 -0.472681	 -0.451053	 0.074681	 0.847525	 -0.306219	 0.427029	 2
1463630273.190	 14	 -0.427578	 -0.060906	 -1.013244	 2.102114	 -0.478836	 -0.441577	 0.069742	 0.848516	 -0.306491	 0.425700	 2
1463630273.200	 14	 -0.434757	 -0.315201	 -1.175412	 2.104721	 -0.486489	 -0.430777	 0.063587	 0.849054	 -0.307159	 0.425109	 2
1463630273.210	 14	 -0.436115	 -0.848956	 -1.151592	 2.102819	 -0.494322	 -0.419817	 0.056627	 0.848569	 -0.308008	 0.426445	 2
1463630273.220	 14	 -0.459326	 -1.315201	 -1.067270	 2.095796	 -0.501428	 -0.409113	 0.049173	 0.846958	 -0.308734	 0.430031	 2
1463630273.230	 14	 -0.505669	 -1.468793	 -0.999021	 2.086478	 -0.507768	 -0.398460	 0.041583	 0.844823	 -0.309165	 0.434697	 2
1463630273.240	 14	 -0.525551	 -1.420566	 -0.956835	 2.077281	 -0.513597	 -0.387827	 0.034153	 0.842670	 -0.309330	 0.439381	 2
1463630273.250	 14	 -0.528138	 -1.250725	 -1.004257	 2.069574	 -0.519747	 -0.377051	 0.026811	 0.840757	 -0.309505	 0.443413	 2
1463630273.260	 14	 -0.588544	 -1.115859	 -1.057896	 2.063976	 -0.526211	 -0.365551	 0.019411	 0.839234	 -0.309568	 0.446628	 2
1463630273.270	 14	 -0.834680	 -1.035362	 -1.057135	 2.060221	 -0.532039	 -0.352018	 0.011617	 0.838113	 -0.308869	 0.449480	 2
1463630273.280	 14	 -1.286744	 -0.940489	 -1.064039	 2.059639	 -0.535874	 -0.334310	 0.003096	 0.837782	 -0.306399	 0.451920	 2
1463630273.290	 14	 -1.703015	 -0.919373	 -1.107112	 2.062005	 -0.538012	 -0.311736	 -0.006565	 0.838144	 -0.302137	 0.454077	 2
1463630273.300	 14	 -1.945994	 -1.166742	 -0.996459	 2.063843	 -0.538116	 -0.286588	 -0.016857	 0.838407	 -0.296461	 0.457056	 2
1463630273.310	 14	 -1.903886	 -0.951916	 -1.129113	 2.066624	 -0.538583	 -0.260727	 -0.027414	 0.838721	 -0.290752	 0.459629	 2
1463630273.320	 14	 -1.646070	 -0.611099	 -1.107937	 2.072037	 -0.540226	 -0.236873	 -0.037066	 0.839446	 -0.286013	 0.460602	 2
1463630273.330	 14	 -1.219998	 -0.597089	 -1.057162	 2.076425	 -0.543137	 -0.217186	 -0.045454	 0.839798	 -0.282743	 0.461225	 2
1463630273.350	 15	 0.001942	 -0.956684	 -1.162803	 2.070903	 -0.557509	 -0.195651	 -0.058935	 0.836648	 -0.283432	 0.464986	 2
1463630273.360	 15	 0.053296	 -0.559225	 -1.334337	 2.067746	 -0.569127	 -0.188997	 -0.065136	 0.834599	 -0.286481	 0.465972	 2
1463630273.370	 15	 0.609329	 -0.727049	 -1.664731	 2.063759	 -0.584897	 -0.184484	 -0.071628	 0.831959	 -0.291649	 0.466536	 2
1463630273.380	 15	 1.471841	 -0.861490	 -2.254333	 2.054350	 -0.609264	 -0.186147	 -0.078591	 0.827321	 -0.301450	 0.467430	 2
1463630273.390	 15	 1.961839	 -0.742948	 -3.162328	 2.044066	 -0.643814	 -0.190116	 -0.087468	 0.821356	 -0.315672	 0.466984	 2
1463630273.400	 15	 1.895917	 -0.232821	 -3.977644	 2.040377	 -0.686500	 -0.190155	 -0.099105	 0.815586	 -0.332287	 0.463232	 2
1463630273.410	 15	 1.533088	 0.003409	 -4.255780	 2.044171	 -0.731485	 -0.184039	 -0.112538	 0.810536	 -0.348607	 0.456989	 2
1463630273.420	 15	 1.345552	 -0.245268	 -4.156279	 2.049316	 -0.775039	 -0.174386	 -0.126632	 0.805258	 -0.363573	 0.450930	 2
1463630273.430	 15	 1.479245	 -0.817368	 -3.938956	 2.048368	 -0.817093	 -0.166242	 -0.140699	 0.798420	 -0.377822	 0.447192	 2
1463630273.450	 16	 1.723160	 -1.171136	 -3.636364	 2.028410	 -0.898006	 -0.161183	 -0.166994	 0.780880	 -0.405668	 0.444716	 2
1463630273.460	 16	 1.744615	 -1.022312	 -3.785438	 2.018710	 -0.939192	 -0.160091	 -0.179798	 0.771705	 -0.419795	 0.442625	 2
1463630273.470	 16	 1.649076	 -0.878594	 -4.098725	 2.012450	 -0.981492	 -0.156546	 -0.193127	 0.762550	 -0.433830	 0.439330	 2
1463630273.480	 16	 1.422768	 -0.894927	 -4.095840	 2.010213	 -1.025206	 -0.148742	 -0.207487	 0.753211	 -0.447607	 0.435051	 2
1463630273.490	 16	 1.260777	 -0.984913	 -3.663633	 2.008124	 -1.064937	 -0.140031	 -0.221036	 0.744146	 -0.459603	 0.431457	 2
1463630273.500	 16	 1.170449	 -0.870415	 -3.165136	 2.004721	 -1.099765	 -0.133492	 -0.232768	 0.735675	 -0.470038	 0.428564	 2
1463630273.510	 16	 1.119499	 -0.508591	 -2.719034	 2.001889	 -1.130159	 -0.129840	 -0.242157	 0.728336	 -0.479476	 0.425429	 2
1463630273.520	 16	 1.099498	 -0.098349	 -2.330303	 2.000059	 -1.156781	 -0.129697	 -0.249075	 0.722273	 -0.488371	 0.421636	 2
1463630273.530	 16	 1.057101	 0.149763	 -2.014291	 1.998586	 -1.180240	 -0.132386	 -0.254104	 0.717217	 -0.496734	 0.417475	 2
1463630273.540	 16	 0.932457	 0.213617	 -1.766420	 1.997528	 -1.200859	 -0.135774	 -0.258092	 0.712890	 -0.504255	 0.413404	 2
1463630273.550	 16	 0.723733	 0.140159	 -1.567055	 1.998110	 -1.218782	 -0.136930	 -0.261806	 0.709156	 -0.510565	 0.409730	 2
1463630273.560	 16	 0.492123	 -0.005800	 -1.401203	 2.001232	 -1.234163	 -0.133960	 -0.265699	 0.705917	 -0.515488	 0.406642	 2
1463630273.570	 16	 0.317982	 -0.161705	 -1.263654	 2.006470	 -1.247412	 -0.127134	 -0.269857	 0.703016	 -0.519202	 0.404197	 2
1463630273.580	 16	 0.188744	 -0.280687	 -1.149600	 2.012985	 -1.259000	 -0.117594	 -0.274196	 0.700323	 -0.522007	 0.402333	 2
1463630273.590	 16	 0.051999	 -0.362803	 -1.088425	 2.022162	 -1.269298	 -0.104374	 -0.278770	 0.697891	 -0.524042	 0.400769	 2
1463630273.600	 16	 -0.012294	 -0.397890	 -1.112704	 2.034250	 -1.279149	 -0.087642	 -0.283635	 0.695572	 -0.525678	 0.399241	 2
1463630273.610	 16	 0.006324	 -0.503413	 -1.136229	 2.047127	 -1.289281	 -0.069376	 -0.288809	 0.693023	 -0.527274	 0.397858	 2
1463630273.630	 17	 0.110267	 -1.044609	 -0.922623	 2.059241	 -1.307631	 -0.039266	 -0.299904	 0.686362	 -0.529234	 0.398592	 2
1463630273.640	 17	 0.119534	 -1.169679	 -0.858856	 2.059195	 -1.315907	 -0.027402	 -0.305701	 0.682422	 -0.529646	 0.400402	 2
1463630273.650	 17	 0.104638	 -1.241261	 -0.762408	 2.057734	 -1.323396	 -0.016348	 -0.311395	 0.678473	 -0.529724	 0.402616	 2
1463630273.660	 17	 0.046760	 -1.429247	 -0.601657	 2.053650	 -1.329419	 -0.006407	 -0.317074	 0.674506	 -0.529100	 0.405659	 2
1463630273.670	 17	 -0.131879	 -2.115622	 -0.428507	 2.045951	 -1.333297	 0.005343	 -0.323848	 0.670028	 -0.526771	 0.410727	 2
1463630273.680	 17	 -0.862193	 -2.208180	 -0.140582	 2.051503	 -1.332313	 0.034107	 -0.331807	 0.666724	 -0.521400	 0.416564	 2
1463630273.690	 17	 -1.809665	 -1.857623	 0.296168	 2.084334	 -1.323221	 0.088162	 -0.339589	 0.666987	 -0.512473	 0.420926	 2
1463630273.700	 17	 -2.503391	 -1.112098	 0.739714	 2.135848	 -1.305677	 0.155082	 -0.345790	 0.671253	 -0.500988	 0.422917	 2
1463630273.710	 17	 -2.673803	 -0.142767	 1.016658	 2.191090	 -1.282812	 0.216566	 -0.349163	 0.678699	 -0.489277	 0.421972	 2
1463630273.720	 17	 -2.284150	 0.938449	 1.108588	 2.238754	 -1.259607	 0.259526	 -0.348879	 0.687829	 -0.479911	 0.418163	 2
1463630273.730	 17	 -1.837538	 1.959232	 1.103540	 2.279837	 -1.238845	 0.284695	 -0.344984	 0.697911	 -0.473920	 0.411467	 2
1463630273.740	 17	 -1.588527	 3.093992	 1.188666	 2.320414	 -1.219158	 0.298324	 -0.337701	 0.709437	 -0.470475	 0.401635	 2
1463630273.750	 17	 -1.156076	 4.609395	 1.330091	 2.363283	 -1.201061	 0.299011	 -0.325704	 0.722899	 -0.470372	 0.387407	 2
1463630273.760	 17	 -0.533648	 5.907052	 1.735342	 2.401989	 -1.184927	 0.280249	 -0.307877	 0.737719	 -0.473678	 0.369611	 2
1463630273.770	 17	 0.018471	 6.452745	 2.259967	 2.428951	 -1.170014	 0.240482	 -0.284957	 0.752593	 -0.478898	 0.350799	 2
1463630273.780	 17	 0.163837	 6.202825	 2.615538	 2.444923	 -1.154780	 0.189118	 -0.259841	 0.766459	 -0.483762	 0.333164	 2
1463630273.790	 17	 -0.125574	 5.400283	 2.711837	 2.455477	 -1.137306	 0.139044	 -0.235819	 0.779028	 -0.486206	 0.317976	 2
1463630273.800	 17	 -0.672195	 4.310918	 2.606278	 2.465174	 -1.116591	 0.098826	 -0.215073	 0.790453	 -0.485222	 0.305758	 2
1463630273.810	 17	 -1.385930	 2.798381	 2.306399	 2.474805	 -1.092316	 0.073711	 -0.199615	 0.800662	 -0.480170	 0.297540	 2
1463630273.820	 17	 -2.134872	 0.956250	 1.863079	 2.482067	 -1.064702	 0.065871	 -0.191112	 0.809337	 -0.470765	 0.294669	 2
1463630273.830	 17	 -2.664591	 -0.626465	 1.493801	 2.484891	 -1.034884	 0.072274	 -0.189136	 0.816356	 -0.457800	 0.296999	 2
1463630273.840	 17	 -2.817514	 -1.592708	 1.218635	 2.482406	 -1.004877	 0.085482	 -0.191152	 0.821820	 -0.443107	 0.302867	 2
1463630273.850	 17	 -2.747429	 -2.181440	 1.023907	 2.474999	 -0.976471	 0.101308	 -0.195520	 0.825720	 -0.428057	 0.311008	 2
1463630273.860	 17	 -2.528866	 -2.213034	 1.008921	 2.464563	 -0.949975	 0.115880	 -0.200192	 0.828628	 -0.413548	 0.319808	 2
1463630273.870	 17	 -2.211173	 -1.745815	 1.177827	 2.453469	 -0.925067	 0.125495	 -0.203047	 0.831379	 -0.400309	 0.327617	 2
1463630273.880	 17	 -1.942573	 -1.022387	 1.310112	 2.445100	 -0.901420	 0.130277	 -0.203410	 0.834635	 -0.388594	 0.333173	 2
1463630273.890	 17	 -1.657747	 -0.156255	 1.327415	 2.442542	 -0.879611	 0.131829	 -0.201482	 0.838674	 -0.378742	 0.335537	 2
1463630273.900	 17	 -1.287870	 0.659483	 1.323259	 2.445770	 -0.860484	 0.129928	 -0.197368	 0.843378	 -0.371159	 0.334665	 2
1463630273.910	 17	 -0.881515	 1.284775	 1.325539	 2.452667	 -0.844476	 0.123940	 -0.191294	 0.848372	 -0.365913	 0.331330	 2
1463630273.920	 17	 -0.607395	 1.680916	 1.355614	 2.461803	 -0.830821	 0.114688	 -0.183761	 0.853477	 -0.362370	 0.326338	 2
1463630273.930	 17	 -0.512886	 1.677508	 1.510361	 2.470108	 -0.817653	 0.102700	 -0.175271	 0.858491	 -0.359325	 0.321184	 2
1463630273.940	 17	 -0.434253	 1.611285	 1.503731	 2.476775	 -0.804537	 0.089532	 -0.166554	 0.863215	 -0.356267	 0.316533	 2
1463630273.950	 17	 -0.271277	 1.481786	 1.312467	 2.482907	 -0.793688	 0.076838	 -0.158434	 0.867272	 -0.354010	 0.312114	 2
1463630273.960	 17	 -0.069342	 1.243659	 1.117722	 2.487428	 -0.785604	 0.064840	 -0.151273	 0.870416	 -0.352673	 0.308406	 2
1463630273.970	 17	 0.187394	 1.041904	 0.973994	 2.489626	 -0.780433	 0.052531	 -0.144783	 0.872621	 -0.352453	 0.305529	 2
1463630273.980	 17	 0.460403	 0.838477	 0.899384	 2.489161	 -0.778018	 0.039034	 -0.138624	 0.873949	 -0.353414	 0.303473	 2
1463630273.990	 17	 0.709243	 0.612602	 0.946272	 2.484368	 -0.777513	 0.022994	 -0.132388	 0.874401	 -0.355299	 0.302753	 2
1463630274.000	 17	 0.844835	 0.716712	 0.837353	 2.479414	 -0.778595	 0.006280	 -0.126125	 0.874537	 -0.357979	 0.301876	 2
1463630274.010	 17	 0.935693	 0.918125	 0.634875	 2.477154	 -0.781553	 -0.009251	 -0.120185	 0.874622	 -0.361470	 0.299886	 2
1463630274.020	 17	 1.024258	 1.100275	 0.415186	 2.477914	 -0.786532	 -0.023191	 -0.114708	 0.874661	 -0.365766	 0.296692	 2
1463630274.030	 17	 1.131488	 1.137972	 0.230226	 2.480263	 -0.793557	 -0.035914	 -0.109785	 0.874459	 -0.370832	 0.292837	 2
1463630274.040	 17	 1.223208	 1.035487	 0.068610	 2.482500	 -0.802371	 -0.047711	 -0.105561	 0.873827	 -0.376497	 0.289020	 2
1463630274.050	 17	 1.337750	 0.831567	 -0.137846	 2.483696	 -0.813213	 -0.058312	 -0.102370	 0.872577	 -0.382780	 0.285672	 2
1463630274.060	 17	 1.519342	 0.627121	 -0.389652	 2.483625	 -0.826798	 -0.067700	 -0.100385	 0.870546	 -0.389976	 0.282829	 2
1463630274.070	 17	 1.862206	 0.299234	 -0.731403	 2.481123	 -0.844666	 -0.076291	 -0.099911	 0.867290	 -0.398739	 0.280771	 2
1463630274.080	 17	 2.169832	 0.019919	 -1.136342	 2.476297	 -0.867653	 -0.083686	 -0.101267	 0.862614	 -0.409350	 0.279418	 2
1463630274.090	 17	 1.964684	 -0.028273	 -1.411036	 2.473729	 -0.892274	 -0.086803	 -0.104311	 0.857622	 -0.420094	 0.277714	 2
1463630274.100	 17	 1.156760	 0.056031	 -1.259340	 2.476209	 -0.911368	 -0.083847	 -0.108027	 0.854000	 -0.427871	 0.275573	 2
1463630274.110	 17	 -0.067831	 1.109803	 -0.764607	 2.491139	 -0.918937	 -0.074660	 -0.109904	 0.854000	 -0.430620	 0.270503	 2
1463630274.120	 17	 -0.875806	 1.264322	 -0.171031	 2.514094	 -0.914888	 -0.063347	 -0.109214	 0.857275	 -0.428654	 0.263453	 2
1463630274.130	 17	 -0.781451	 -0.162076	 0.293402	 2.520608	 -0.906891	 -0.057684	 -0.109101	 0.859462	 -0.424866	 0.262509	 2
1463630274.140	 17	 -0.255060	 -1.073684	 0.639497	 2.508668	 -0.900388	 -0.061406	 -0.109088	 0.859406	 -0.421939	 0.267372	 2
1463630274.150	 17	 0.153307	 -1.402250	 0.670186	 2.487940	 -0.896820	 -0.070869	 -0.108859	 0.857832	 -0.420576	 0.274573	 2
1463630274.160	 17	 0.239674	 -1.684884	 0.450444	 2.464857	 -0.895540	 -0.079706	 -0.109727	 0.855354	 -0.420004	 0.282713	 2
1463630274.170	 17	 0.101312	 -1.706834	 0.301172	 2.443378	 -0.894569	 -0.085132	 -0.111760	 0.852766	 -0.419184	 0.290835	 2
1463630274.180	 17	 0.002547	 -1.386332	 0.310343	 2.425475	 -0.892743	 -0.089076	 -0.113527	 0.850711	 -0.417991	 0.297804	 2
1463630274.190	 17	 0.015497	 -0.921418	 0.331609	 2.412052	 -0.890626	 -0.092984	 -0.114311	 0.849329	 -0.416928	 0.302895	 2
1463630274.200	 17	 0.114943	 -0.492511	 0.409338	 2.401851	 -0.888693	 -0.098455	 -0.113782	 0.848460	 -0.416373	 0.306273	 2
1463630274.210	 17	 0.248327	 -0.145284	 0.530773	 2.393266	 -0.886868	 -0.106593	 -0.111800	 0.847949	 -0.416380	 0.308401	 2
1463630274.220	 17	 0.314128	 0.140344	 0.637302	 2.385994	 -0.884913	 -0.116906	 -0.108597	 0.847765	 -0.416761	 0.309535	 2
1463630274.230	 17	 0.432000	 0.344222	 0.785248	 2.379114	 -0.882660	 -0.129718	 -0.104197	 0.847804	 -0.417446	 0.310016	 2
1463630274.240	 17	 0.476504	 0.220141	 0.852981	 2.370445	 -0.880210	 -0.144555	 -0.099273	 0.847668	 -0.418297	 0.310856	 2
1463630274.250	 17	 0.288487	 -0.156830	 0.714692	 2.360326	 -0.877356	 -0.156857	 -0.095648	 0.847213	 -0.418547	 0.312890	 2
1463630274.260	 17	 0.131619	 -0.378515	 0.442226	 2.351285	 -0.874804	 -0.164315	 -0.093900	 0.846609	 -0.418243	 0.315450	 2
1463630274.270	 17	 0.289738	 -0.617683	 0.232932	 2.341527	 -0.874511	 -0.169737	 -0.093591	 0.845370	 -0.418525	 0.318477	 2
1463630274.290	 18	 -0.156588	 0.915379	 -0.038804	 2.338356	 -0.875452	 -0.176709	 -0.091491	 0.845019	 -0.419872	 0.318245	 2
1463630274.300	 18	 -0.732353	 1.968798	 -0.356506	 2.363549	 -0.873181	 -0.166909	 -0.089928	 0.848939	 -0.418546	 0.309896	 2
1463630274.310	 18	 -0.942290	 1.945867	 -0.523282	 2.395422	 -0.869985	 -0.151588	 -0.089211	 0.853693	 -0.416317	 0.299883	 2
1463630274.320	 18	 -0.926940	 1.138456	 -0.535192	 2.421344	 -0.866628	 -0.135610	 -0.090075	 0.857434	 -0.413713	 0.292464	 2
1463630274.330	 18	 -0.668154	 -0.103559	 -0.538345	 2.433893	 -0.864365	 -0.121893	 -0.092987	 0.859055	 -0.411339	 0.290136	 2
1463630274.340	 18	 -0.121946	 -1.179161	 -0.651160	 2.432231	 -0.866375	 -0.111907	 -0.097954	 0.857960	 -0.410650	 0.292706	 2
1463630274.350	 18	 0.484912	 -1.921332	 -0.667613	 2.418056	 -0.873308	 -0.107428	 -0.103962	 0.854331	 -0.412184	 0.299022	 2
1463630274.360	 18	 1.007527	 -2.255396	 -0.615589	 2.394467	 -0.884055	 -0.109476	 -0.109834	 0.848828	 -0.415721	 0.307576	 2
1463630274.370	 18	 1.443646	 -2.370145	 -0.569298	 2.364880	 -0.897719	 -0.117434	 -0.115102	 0.842058	 -0.420952	 0.317001	 2
1463630274.380	 18	 2.021891	 -2.542785	 -0.675055	 2.328634	 -0.915285	 -0.131849	 -0.120030	 0.833718	 -0.428318	 0.327187	 2
1463630274.400	 19	 2.241541	 -2.546758	 -0.987141	 2.243441	 -0.960036	 -0.172338	 -0.130969	 0.813330	 -0.447604	 0.347839	 2
1463630274.410	 19	 1.429501	 -2.417706	 -1.119550	 2.209589	 -0.978661	 -0.183805	 -0.137938	 0.804587	 -0.454540	 0.356379	 2
1463630274.420	 19	 0.650140	 -2.370678	 -1.256205	 2.186631	 -0.993465	 -0.182826	 -0.146806	 0.797548	 -0.458368	 0.363681	 2
1463630274.430	 19	 0.262122	 -2.240110	 -1.301702	 2.171034	 -1.005969	 -0.174233	 -0.156570	 0.791616	 -0.460329	 0.370036	 2
1463630274.440	 19	 0.208815	 -1.978517	 -1.330777	 2.159672	 -1.018082	 -0.163451	 -0.166137	 0.786256	 -0.461950	 0.375237	 2
1463630274.450	 19	 0.394057	 -1.593211	 -1.363974	 2.150252	 -1.031243	 -0.154534	 -0.174745	 0.781103	 -0.464380	 0.379069	 2
1463630274.460	 19	 0.700000	 -1.202785	 -1.375794	 2.141403	 -1.046185	 -0.149927	 -0.181938	 0.775997	 -0.468262	 0.381389	 2
1463630274.470	 19	 1.019610	 -0.824371	 -1.425147	 2.131409	 -1.063083	 -0.150788	 -0.187746	 0.770716	 -0.473730	 0.382528	 2
1463630274.480	 19	 1.260317	 -0.635243	 -1.501152	 2.120285	 -1.082077	 -0.155896	 -0.192722	 0.765151	 -0.480580	 0.382682	 2
1463630274.490	 19	 1.396065	 -0.509759	 -1.596019	 2.107947	 -1.102593	 -0.163671	 -0.197411	 0.759268	 -0.488265	 0.382281	 2
1463630274.500	 19	 1.486464	 -0.539059	 -1.639709	 2.093891	 -1.124096	 -0.173609	 -0.202051	 0.753047	 -0.496413	 0.381668	 2
1463630274.510	 19	 1.502714	 -0.729360	 -1.621372	 2.076220	 -1.145665	 -0.185632	 -0.206981	 0.746329	 -0.504462	 0.381669	 2
1463630274.520	 19	 1.450887	 -0.920110	 -1.545961	 2.055054	 -1.166438	 -0.199168	 -0.212237	 0.739281	 -0.511986	 0.382478	 2
1463630274.531	 19	 1.359032	 -1.045470	 -1.416304	 2.031174	 -1.185650	 -0.214032	 -0.217542	 0.732212	 -0.518763	 0.383963	 2
1463630274.540	 19	 1.237696	 -1.143654	 -1.217930	 2.005036	 -1.202637	 -0.230163	 -0.222648	 0.725353	 -0.524618	 0.386093	 2
1463630274.550	 19	 1.106026	 -1.206396	 -0.976505	 1.976356	 -1.216647	 -0.247796	 -0.227350	 0.718834	 -0.529350	 0.389073	 2
1463630274.561	 19	 0.932293	 -1.205496	 -0.922762	 1.949371	 -1.228952	 -0.263945	 -0.231891	 0.712864	 -0.533309	 0.391960	 2
1463630274.570	 19	 0.686904	 -1.853723	 -0.942643	 1.922609	 -1.240446	 -0.275009	 -0.238120	 0.706533	 -0.535916	 0.396111	 2
1463630274.580	 19	 0.495574	 -2.059176	 -1.044137	 1.896808	 -1.251724	 -0.280266	 -0.246186	 0.699732	 -0.537279	 0.401372	 2
1463630274.591	 19	 0.454254	 -1.850776	 -1.216623	 1.875549	 -1.264296	 -0.282579	 -0.254476	 0.693188	 -0.538854	 0.405425	 2
1463630274.601	 19	 0.494666	 -1.619331	 -1.258517	 1.855667	 -1.277735	 -0.285825	 -0.262365	 0.686846	 -0.540909	 0.408441	 2
1463630274.611	 19	 0.554931	 -1.301363	 -1.241163	 1.835601	 -1.291170	 -0.292286	 -0.269270	 0.680890	 -0.543459	 0.410530	 2
1463630274.621	 19	 0.606654	 -0.960176	 -1.252293	 1.815807	 -1.304752	 -0.301999	 -0.275124	 0.675422	 -0.546624	 0.411479	 2
1463630274.631	 19	 0.609466	 -0.617471	 -1.220353	 1.797137	 -1.318179	 -0.314025	 -0.279945	 0.670578	 -0.550248	 0.411318	 2
1463630274.641	 19	 0.576763	 -0.394359	 -1.121008	 1.779931	 -1.330645	 -0.327281	 -0.283779	 0.666453	 -0.553947	 0.410430	 2
1463630274.651	 19	 0.536029	 -0.311436	 -0.996253	 1.762800	 -1.341801	 -0.341537	 -0.286979	 0.662798	 -0.557404	 0.409441	 2
1463630274.661	 19	 0.483953	 -0.327766	 -0.922414	 1.745647	 -1.351912	 -0.355859	 -0.289947	 0.659407	 -0.560502	 0.408596	 2
1463630274.681	 20	 0.382890	 -0.366962	 -0.795073	 1.712419	 -1.370134	 -0.382470	 -0.295890	 0.653082	 -0.565677	 0.407360	 2
1463630274.691	 20	 0.279722	 -0.378683	 -0.693036	 1.698043	 -1.377664	 -0.393336	 -0.298648	 0.650375	 -0.567601	 0.407002	 2
1463630274.701	 20	 0.071124	 -0.555082	 -0.608666	 1.690345	 -1.384060	 -0.396123	 -0.301830	 0.648050	 -0.568560	 0.407024	 2
1463630274.711	 20	 -0.278749	 -1.029005	 -0.541821	 1.694863	 -1.389392	 -0.382493	 -0.306536	 0.645909	 -0.567758	 0.408030	 2
1463630274.721	 20	 -0.737632	 -1.845436	 -0.375967	 1.715274	 -1.392721	 -0.345087	 -0.313792	 0.643651	 -0.564082	 0.411169	 2
1463630274.731	 20	 -1.234368	 -2.436295	 -0.067003	 1.754375	 -1.392296	 -0.281756	 -0.323064	 0.641744	 -0.557094	 0.416462	 2
1463630274.741	 20	 -1.654265	 -2.430872	 0.070989	 1.812408	 -1.388584	 -0.197718	 -0.332981	 0.640938	 -0.547984	 0.421943	 2
1463630274.751	 20	 -2.043670	 -2.061853	 0.199311	 1.888253	 -1.381660	 -0.098527	 -0.342478	 0.641913	 -0.537735	 0.426025	 2
1463630274.761	 20	 -2.275101	 -1.789198	 0.450054	 1.968897	 -1.370247	 0.002507	 -0.350933	 0.644561	 -0.526538	 0.429121	 2
1463630274.771	 20	 -2.405161	 -1.517910	 0.699902	 2.041997	 -1.354453	 0.093484	 -0.358115	 0.648442	 -0.514677	 0.431723	 2
1463630274.781	 20	 -2.560635	 -0.993282	 0.967249	 2.107725	 -1.334402	 0.172681	 -0.363567	 0.653999	 -0.502455	 0.433177	 2
1463630274.791	 20	 -2.564449	 -0.211751	 1.228206	 2.164855	 -1.310723	 0.235885	 -0.366343	 0.661635	 -0.490691	 0.432729	 2
1463630274.801	 20	 -2.357731	 0.492901	 1.386433	 2.210784	 -1.285689	 0.280123	 -0.366254	 0.670701	 -0.480322	 0.430475	 2
1463630274.811	 20	 -2.108326	 1.043644	 1.458661	 2.246951	 -1.261006	 0.308444	 -0.363853	 0.680442	 -0.471567	 0.426890	 2
1463630274.821	 20	 -2.051452	 1.548808	 1.474590	 2.280325	 -1.236601	 0.328595	 -0.359826	 0.690920	 -0.464000	 0.421733	 2
1463630274.831	 20	 -2.076446	 2.087454	 1.527779	 2.315024	 -1.211508	 0.344834	 -0.354448	 0.702465	 -0.457069	 0.414726	 2
1463630274.841	 20	 -1.738323	 2.846815	 1.656595	 2.347263	 -1.187023	 0.351035	 -0.346494	 0.714935	 -0.451827	 0.405786	 2
1463630274.851	 20	 -1.087767	 3.502527	 1.845672	 2.371682	 -1.165457	 0.341084	 -0.334988	 0.727559	 -0.449418	 0.395556	 2
1463630274.861	 20	 -0.448259	 3.763380	 2.140945	 2.384504	 -1.146910	 0.314417	 -0.320238	 0.739543	 -0.449307	 0.385548	 2
1463630274.881	 21	 0.026779	 3.321307	 2.972516	 2.376316	 -1.109624	 0.226279	 -0.284451	 0.761283	 -0.449734	 0.370507	 2
1463630274.891	 21	 -0.174961	 2.814775	 3.295683	 2.362068	 -1.086341	 0.177213	 -0.265690	 0.771383	 -0.447429	 0.366311	 2
1463630274.901	 21	 -0.572579	 2.328842	 3.447026	 2.348140	 -1.058858	 0.133509	 -0.247815	 0.781269	 -0.442531	 0.363830	 2
1463630274.921	 22	 -1.409284	 1.615722	 3.479649	 2.332003	 -0.993441	 0.071248	 -0.216340	 0.800903	 -0.425422	 0.361618	 2
1463630274.931	 22	 -1.640111	 1.449380	 3.328772	 2.329498	 -0.957987	 0.050282	 -0.202479	 0.810465	 -0.414466	 0.361063	 2
1463630274.941	 22	 -1.747869	 1.267659	 3.013620	 2.330597	 -0.923617	 0.035345	 -0.190276	 0.819415	 -0.403130	 0.360334	 2
1463630274.951	 22	 -1.731246	 1.034090	 2.639351	 2.333532	 -0.891804	 0.025210	 -0.179988	 0.827376	 -0.392045	 0.359658	 2
1463630274.961	 22	 -1.576458	 0.883276	 2.292358	 2.336985	 -0.863434	 0.017864	 -0.171290	 0.834239	 -0.381832	 0.359040	 2
1463630274.971	 22	 -1.333264	 0.826629	 2.059509	 2.340112	 -0.838569	 0.010859	 -0.163376	 0.840141	 -0.372913	 0.358340	 2
1463630274.981	 22	 -1.089489	 0.829032	 1.902873	 2.342648	 -0.816615	 0.003138	 -0.155755	 0.845289	 -0.365234	 0.357533	 2
1463630274.991	 22	 -0.858690	 0.792148	 1.750248	 2.344515	 -0.797440	 -0.005508	 -0.148325	 0.849747	 -0.358796	 0.356644	 2
1463630275.011	 23	 -0.484719	 0.658315	 1.486767	 2.345389	 -0.765997	 -0.023591	 -0.134778	 0.856662	 -0.348697	 0.355494	 2
1463630275.021	 23	 -0.226219	 0.763453	 1.422614	 2.345134	 -0.753692	 -0.034573	 -0.127865	 0.859408	 -0.345376	 0.354659	 2
1463630275.031	 23	 0.005937	 0.934656	 1.364635	 2.345406	 -0.743473	 -0.047246	 -0.120486	 0.861927	 -0.343268	 0.353174	 2
1463630275.041	 23	 0.239229	 1.129180	 1.296205	 2.346682	 -0.735352	 -0.061419	 -0.112648	 0.864290	 -0.342363	 0.350857	 2
1463630275.051	 23	 0.460514	 1.276852	 1.215720	 2.348704	 -0.729388	 -0.076986	 -0.104456	 0.866435	 -0.342640	 0.347817	 2
1463630275.061	 23	 0.608717	 1.348936	 1.095735	 2.351361	 -0.725414	 -0.093071	 -0.096281	 0.868324	 -0.343856	 0.344249	 2
1463630275.071	 23	 0.753669	 1.418833	 0.966166	 2.354624	 -0.723363	 -0.109200	 -0.088324	 0.869943	 -0.345889	 0.340234	 2
1463630275.081	 23	 1.033271	 1.437002	 0.944717	 2.357268	 -0.723477	 -0.127036	 -0.080123	 0.871123	 -0.349064	 0.335974	 2
1463630275.101	 24	 1.348001	 1.430826	 0.660558	 2.359856	 -0.729867	 -0.166591	 -0.063641	 0.872011	 -0.358437	 0.327215	 2
1463630275.111	 24	 1.359227	 1.361491	 0.344349	 2.362322	 -0.736535	 -0.183514	 -0.057094	 0.871925	 -0.364087	 0.322379	 2
1463630275.121	 24	 1.356679	 1.289214	 0.057009	 2.365893	 -0.745324	 -0.197621	 -0.051975	 0.871563	 -0.370157	 0.317271	 2
1463630275.131	 24	 1.361394	 1.135350	 -0.185332	 2.369684	 -0.755918	 -0.209370	 -0.048182	 0.870853	 -0.376567	 0.312235	 2
1463630275.141	 24	 1.410586	 0.898473	 -0.416038	 2.372514	 -0.768430	 -0.219222	 -0.045758	 0.869613	 -0.383417	 0.307686	 2
1463630275.161	 25	 1.617208	 0.215554	 -0.783354	 2.370252	 -0.799476	 -0.236217	 -0.044809	 0.864805	 -0.398911	 0.301620	 2
1463630275.171	 25	 1.607114	 -0.080219	 -1.092958	 2.365627	 -0.818102	 -0.242324	 -0.046719	 0.861265	 -0.407431	 0.300065	 2
1463630275.181	 25	 1.268303	 -0.244327	 -1.565799	 2.364597	 -0.837972	 -0.241232	 -0.051264	 0.857828	 -0.415417	 0.298215	 2
1463630275.191	 25	 0.793433	 -0.748544	 -1.766720	 2.365169	 -0.856862	 -0.232192	 -0.058676	 0.854480	 -0.421826	 0.297462	 2
1463630275.201	 25	 -0.175436	 -0.011366	 -1.265436	 2.372785	 -0.867756	 -0.217516	 -0.065419	 0.853269	 -0.424344	 0.295948	 2
1463630275.211	 25	 -1.139666	 1.330012	 -0.313083	 2.396311	 -0.864474	 -0.201322	 -0.066754	 0.856757	 -0.421400	 0.289712	 2
1463630275.221	 25	 -0.985069	 0.693611	 0.138993	 2.413510	 -0.856005	 -0.190860	 -0.066100	 0.860387	 -0.416955	 0.285506	 2
1463630275.231	 25	 -0.334696	 -0.183043	 0.222157	 2.415560	 -0.850887	 -0.188300	 -0.065858	 0.861502	 -0.414526	 0.285736	 2
1463630275.241	 25	 0.047960	 -0.677099	 0.155611	 2.408508	 -0.849526	 -0.190075	 -0.066309	 0.860788	 -0.413981	 0.288559	 2
1463630275.251	 25	 0.075555	 -1.143198	 0.133981	 2.396604	 -0.849275	 -0.192385	 -0.067734	 0.859179	 -0.413813	 0.293229	 2
1463630275.261	 25	 0.002724	 -1.488112	 0.209206	 2.380646	 -0.848140	 -0.194657	 -0.069848	 0.857089	 -0.413131	 0.299738	 2
1463630275.271	 25	 0.041717	 -1.468201	 0.330549	 2.363127	 -0.846203	 -0.198111	 -0.071618	 0.854889	 -0.412235	 0.306753	 2
1463630275.281	 25	 0.245438	 -1.103427	 0.406773	 2.346374	 -0.844740	 -0.204280	 -0.072154	 0.852766	 -0.411987	 0.312810	 2
1463630275.291	 25	 0.456628	 -0.683843	 0.417365	 2.331998	 -0.844576	 -0.213120	 -0.071321	 0.850847	 -0.412796	 0.317130	 2
1463630275.301	 25	 0.568056	 -0.577917	 0.402460	 2.318593	 -0.845368	 -0.223233	 -0.069954	 0.848934	 -0.414258	 0.320635	 2
1463630275.311	 25	 0.710150	 -0.617057	 0.489316	 2.303433	 -0.846468	 -0.235392	 -0.068172	 0.846728	 -0.416141	 0.324395	 2
1463630275.321	 25	 0.848220	 -0.610400	 0.583029	 2.286156	 -0.847681	 -0.250274	 -0.065738	 0.844208	 -0.418479	 0.328431	 2
1463630275.341	 26	 0.909196	 -0.798893	 0.575415	 2.247115	 -0.849994	 -0.283864	 -0.060328	 0.838399	 -0.423760	 0.337454	 2
1463630275.351	 26	 0.759315	 -1.048011	 0.482747	 2.226660	 -0.851014	 -0.297923	 -0.059020	 0.835181	 -0.425941	 0.342875	 2
1463630275.361	 26	 0.773256	 -1.253382	 0.475385	 2.204468	 -0.851752	 -0.311523	 -0.058259	 0.831629	 -0.427931	 0.349106	 2
1463630275.371	 26	 0.566671	 -1.314012	 0.391359	 2.182112	 -0.852191	 -0.323453	 -0.058204	 0.827972	 -0.429551	 0.355755	 2
1463630275.381	 26	 -0.521746	 -0.113434	 0.065635	 2.178093	 -0.849582	 -0.322123	 -0.058997	 0.827598	 -0.428196	 0.358119	 2
1463630275.391	 26	 -1.056066	 0.981728	 -0.345827	 2.196711	 -0.845898	 -0.307764	 -0.060115	 0.831029	 -0.424775	 0.354038	 2
1463630275.401	 26	 -0.873131	 1.107665	 -0.652122	 2.220262	 -0.845011	 -0.291188	 -0.061826	 0.834790	 -0.422239	 0.347875	 2
1463630275.411	 26	 -0.715038	 0.828380	 -0.820225	 2.241509	 -0.846685	 -0.275035	 -0.064478	 0.837687	 -0.420781	 0.342149	 2
1463630275.421	 26	 -0.580499	 0.180125	 -0.837020	 2.256735	 -0.849311	 -0.259665	 -0.068300	 0.839354	 -0.419710	 0.338620	 2
1463630275.431	 26	 -0.172843	 -0.867500	 -0.668073	 2.258576	 -0.853033	 -0.249351	 -0.073048	 0.838705	 -0.419504	 0.339491	 2
1463630275.441	 26	 0.318028	 -1.719447	 -0.469253	 2.245133	 -0.858279	 -0.246759	 -0.078097	 0.835459	 -0.420632	 0.344931	 2
1463630275.451	 26	 0.728002	 -1.983772	 -0.379364	 2.222702	 -0.865223	 -0.250658	 -0.082739	 0.830583	 -0.423145	 0.352469	 2
1463630275.461	 26	 1.125728	 -1.999239	 -0.444785	 2.195889	 -0.874702	 -0.259551	 -0.086903	 0.824659	 -0.427287	 0.360295	 2
1463630275.471	 26	 1.547436	 -2.065360	 -0.591884	 2.165074	 -0.887465	 -0.273142	 -0.090918	 0.817614	 -0.433298	 0.368096	 2
1463630275.481	 26	 1.832178	 -2.438436	 -0.735318	 2.127800	 -0.903092	 -0.290963	 -0.095562	 0.809032	 -0.440781	 0.376891	 2
1463630275.491	 26	 1.501480	 -2.585754	 -0.796690	 2.089169	 -0.918183	 -0.307233	 -0.101335	 0.800107	 -0.447568	 0.386320	 2
1463630275.501	 26	 0.719728	 -2.401217	 -0.892611	 2.059481	 -0.930199	 -0.313686	 -0.108499	 0.792794	 -0.451634	 0.394630	 2
1463630275.511	 26	 0.134421	 -2.170700	 -1.021787	 2.040351	 -0.940162	 -0.309791	 -0.116944	 0.787230	 -0.453354	 0.401327	 2
1463630275.521	 26	 -0.003827	 -1.999644	 -1.103187	 2.026613	 -0.949902	 -0.301597	 -0.125819	 0.782441	 -0.454332	 0.406863	 2
1463630275.531	 26	 0.190915	 -1.834772	 -1.169426	 2.013279	 -0.960828	 -0.294916	 -0.134327	 0.777558	 -0.455962	 0.411653	 2
1463630275.541	 26	 0.559572	 -1.623020	 -1.300688	 1.998089	 -0.974189	 -0.292956	 -0.142092	 0.772156	 -0.459194	 0.415603	 2
1463630275.551	 26	 0.931684	 -1.327511	 -1.467437	 1.981196	 -0.990661	 -0.296372	 -0.149070	 0.766241	 -0.464390	 0.418324	 2
1463630275.561	 26	 1.237933	 -1.037590	 -1.551601	 1.962780	 -1.009349	 -0.305114	 -0.155077	 0.760031	 -0.471212	 0.419836	 2
1463630275.571	 26	 1.438268	 -0.876488	 -1.548649	 1.942059	 -1.028974	 -0.318784	 -0.160183	 0.753583	 -0.479045	 0.420679	 2
1463630275.581	 26	 1.518700	 -0.829609	 -1.505217	 1.918822	 -1.048469	 -0.336041	 -0.164723	 0.746953	 -0.487205	 0.421376	 2
1463630275.591	 26	 1.466514	 -0.855627	 -1.447453	 1.894007	 -1.067182	 -0.354852	 -0.169092	 0.740302	 -0.495120	 0.422158	 2
1463630275.601	 26	 1.285663	 -1.001526	 -1.399277	 1.868876	 -1.084688	 -0.372543	 -0.173851	 0.733743	 -0.502200	 0.423311	 2
1463630275.611	 26	 1.048811	 -1.252576	 -1.353723	 1.843920	 -1.100922	 -0.387292	 -0.179486	 0.727221	 -0.508099	 0.425170	 2
1463630275.621	 26	 0.811976	 -1.510980	 -1.295449	 1.819377	 -1.115813	 -0.398540	 -0.186067	 0.720720	 -0.512714	 0.427862	 2
1463630275.631	 26	 0.628718	 -1.717470	 -1.243552	 1.795254	 -1.129586	 -0.406789	 -0.193423	 0.714221	 -0.516231	 0.431256	 2
1463630275.641	 26	 0.494814	 -1.861413	 -1.200029	 1.771374	 -1.142529	 -0.412938	 -0.201324	 0.707700	 -0.518917	 0.435149	 2
1463630275.651	 26	 0.379401	 -1.929905	 -1.158097	 1.748161	 -1.154772	 -0.417377	 -0.209527	 0.701249	 -0.520942	 0.439281	 2
1463630275.661	 26	 0.236461	 -1.940976	 -1.129246	 1.726864	 -1.166439	 -0.419426	 -0.217956	 0.695034	 -0.522333	 0.443387	 2
1463630275.671	 26	 0.098312	 -1.879407	 -1.054998	 1.708588	 -1.177236	 -0.418671	 -0.226338	 0.689280	 -0.523060	 0.447293	 2
1463630275.681	 26	 0.029601	 -1.737770	 -1.058411	 1.693100	 -1.187709	 -0.416168	 -0.234510	 0.683963	 -0.523512	 0.450705	 2
1463630275.691	 26	 0.030460	 -1.598074	 -1.008093	 1.679180	 -1.198014	 -0.413683	 -0.242222	 0.678990	 -0.524009	 0.453559	 2
1463630275.701	 26	 0.051677	 -1.427709	 -0.973654	 1.665769	 -1.207732	 -0.412188	 -0.249290	 0.674310	 -0.524554	 0.456075	 2
1463630275.711	 26	 0.082216	 -1.218867	 -1.056172	 1.653570	 -1.218081	 -0.411715	 -0.255906	 0.669920	 -0.525568	 0.457709	 2
1463630275.721	 26	 0.092878	 -1.180954	 -1.103871	 1.641570	 -1.229097	 -0.411931	 -0.262464	 0.665553	 -0.526862	 0.458878	 2
1463630275.731	 26	 0.046926	 -1.245260	 -1.043321	 1.629516	 -1.239770	 -0.411758	 -0.269074	 0.661162	 -0.527897	 0.460205	 2
1463630275.741	 26	 -0.106807	 -1.422075	 -0.847528	 1.619043	 -1.248748	 -0.408349	 -0.275805	 0.656935	 -0.527909	 0.462255	 2
1463630275.751	 26	 -0.312475	 -1.708642	 -0.700262	 1.611608	 -1.255918	 -0.398978	 -0.283105	 0.652816	 -0.526463	 0.465316	 2
1463630275.761	 26	 -0.491176	 -2.056808	 -0.676368	 1.606701	 -1.262510	 -0.383472	 -0.291522	 0.648430	 -0.523756	 0.469290	 2
1463630275.771	 26	 -0.611133	 -2.354442	 -0.700474	 1.603128	 -1.269253	 -0.363203	 -0.301123	 0.643525	 -0.520111	 0.474009	 2
1463630275.781	 26	 -0.676294	 -2.390219	 -0.673596	 1.601330	 -1.275919	 -0.339949	 -0.311128	 0.638464	 -0.515950	 0.478915	 2
1463630275.791	 26	 -0.784675	 -2.163559	 -0.555440	 1.604570	 -1.281566	 -0.313242	 -0.320544	 0.634088	 -0.511452	 0.483323	 2
1463630275.801	 26	 -0.971739	 -1.684291	 -0.395882	 1.618248	 -1.285572	 -0.280010	 -0.328803	 0.631318	 -0.506638	 0.486462	 2
1463630275.811	 26	 -1.100841	 -1.116011	 -0.258381	 1.643051	 -1.287810	 -0.241100	 -0.335496	 0.630493	 -0.501865	 0.487907	 2
1463630275.821	 26	 -1.145614	 -0.713318	 -0.187101	 1.674722	 -1.288838	 -0.199810	 -0.340907	 0.631042	 -0.497425	 0.487992	 2
1463630275.831	 26	 -1.214681	 -0.502901	 -0.092886	 1.710554	 -1.288578	 -0.156785	 -0.345552	 0.632448	 -0.493010	 0.487385	 2
1463630275.841	 26	 -1.393570	 -0.338384	 0.080724	 1.752096	 -1.286129	 -0.109569	 -0.349652	 0.634872	 -0.488023	 0.486328	 2
1463630275.851	 26	 -1.668884	 -0.118557	 0.362265	 1.801117	 -1.280059	 -0.056563	 -0.353053	 0.638807	 -0.481927	 0.484795	 2
1463630275.861	 26	 -1.953794	 0.077058	 0.674571	 1.856374	 -1.269453	 0.000798	 -0.355609	 0.644476	 -0.474490	 0.482755	 2
1463630275.871	 26	 -2.124699	 0.313135	 0.892474	 1.912820	 -1.254962	 0.057516	 -0.357322	 0.651467	 -0.466125	 0.480249	 2
1463630275.881	 26	 -2.200261	 0.721478	 0.997113	 1.969200	 -1.237958	 0.110535	 -0.357956	 0.659730	 -0.457713	 0.476574	 2
1463630275.891	 26	 -2.126012	 1.247171	 1.064239	 2.023099	 -1.219516	 0.156026	 -0.357060	 0.669104	 -0.450053	 0.471444	 2
1463630275.901	 26	 -2.016097	 1.874809	 1.123476	 2.074859	 -1.200300	 0.192959	 -0.354266	 0.679658	 -0.443640	 0.464483	 2
1463630275.911	 26	 -1.955865	 2.412936	 1.139682	 2.125907	 -1.180480	 0.223319	 -0.349858	 0.691277	 -0.438273	 0.455690	 2
1463630275.921	 26	 -1.491623	 2.705482	 1.334463	 2.169037	 -1.160936	 0.241346	 -0.343425	 0.703043	 -0.434273	 0.446315	 2
1463630275.931	 26	 -0.468544	 2.929133	 1.788045	 2.189570	 -1.142979	 0.232496	 -0.332891	 0.713798	 -0.432807	 0.438582	 2
1463630275.941	 26	 0.287499	 3.235375	 2.082726	 2.193616	 -1.127365	 0.202092	 -0.318500	 0.723667	 -0.434054	 0.431812	 2
1463630275.951	 26	 0.437793	 3.384011	 2.399332	 2.192090	 -1.111128	 0.163039	 -0.301825	 0.733501	 -0.435911	 0.425276	 2
1463630275.961	 26	 0.085171	 3.167870	 2.811775	 2.190448	 -1.090257	 0.124727	 -0.284322	 0.743902	 -0.435692	 0.419456	 2
1463630275.971	 26	 -0.471276	 2.567787	 3.144619	 2.189626	 -1.063308	 0.092803	 -0.267583	 0.754556	 -0.431802	 0.415442	 2
1463630275.981	 26	 -0.915287	 1.975625	 3.295379	 2.189399	 -1.031962	 0.068152	 -0.252334	 0.764925	 -0.424683	 0.413354	 2
1463630275.991	 26	 -1.186049	 1.578704	 3.305766	 2.189880	 -0.998465	 0.049123	 -0.238416	 0.774789	 -0.415557	 0.412519	 2
1463630276.001	 26	 -1.374463	 1.316836	 3.199460	 2.191743	 -0.964432	 0.034802	 -0.225734	 0.784108	 -0.405308	 0.412243	 2
1463630276.011	 26	 -1.530178	 1.067886	 2.981083	 2.195181	 -0.930988	 0.025124	 -0.214542	 0.792771	 -0.394392	 0.412238	 2
1463630276.021	 26	 -1.627558	 0.812840	 2.679013	 2.199944	 -0.899255	 0.020000	 -0.205174	 0.800606	 -0.383235	 0.412388	 2
1463630276.031	 26	 -1.620457	 0.530943	 2.383243	 2.204212	 -0.869802	 0.017861	 -0.197536	 0.807379	 -0.372212	 0.413009	 2
1463630276.041	 26	 -1.491740	 0.467777	 2.085253	 2.208336	 -0.843366	 0.017184	 -0.191128	 0.813245	 -0.361999	 0.413595	 2
1463630276.051	 26	 -1.206119	 0.546392	 1.894858	 2.212217	 -0.820173	 0.015350	 -0.184957	 0.818444	 -0.353248	 0.413710	 2
1463630276.061	 26	 -0.831159	 0.699948	 1.807761	 2.215107	 -0.800014	 0.010255	 -0.178238	 0.823083	 -0.346268	 0.413357	 2
1463630276.071	 26	 -0.427834	 0.935740	 1.778733	 2.217255	 -0.782590	 0.001053	 -0.170492	 0.827344	 -0.341157	 0.412368	 2
1463630276.081	 26	 -0.003681	 1.255779	 1.788676	 2.219297	 -0.767676	 -0.012766	 -0.161332	 0.831424	 -0.337991	 0.410448	 2
1463630276.091	 26	 0.372464	 1.620273	 1.749360	 2.222215	 -0.755373	 -0.030691	 -0.150810	 0.835440	 -0.336778	 0.407280	 2
1463630276.101	 26	 0.612503	 1.841763	 1.735476	 2.226369	 -0.745050	 -0.051097	 -0.139406	 0.839414	 -0.336925	 0.403028	 2
1463630276.111	 26	 0.735360	 1.876442	 1.727268	 2.230230	 -0.735638	 -0.073110	 -0.127514	 0.843124	 -0.337682	 0.398564	 2
1463630276.121	 26	 0.841670	 1.929172	 1.561640	 2.234696	 -0.727922	 -0.095056	 -0.115856	 0.846516	 -0.339092	 0.393706	 2
1463630276.131	 26	 0.923633	 1.905526	 1.267622	 2.240120	 -0.722992	 -0.115608	 -0.105172	 0.849445	 -0.341360	 0.388401	 2
1463630276.141	 26	 1.031356	 2.036910	 1.095253	 2.247047	 -0.720405	 -0.135384	 -0.095022	 0.852147	 -0.344442	 0.382330	 2
1463630276.151	 26	 1.188380	 2.142178	 1.007469	 2.254759	 -0.719606	 -0.155846	 -0.084785	 0.854643	 -0.348333	 0.375580	 2
1463630276.161	 26	 1.345904	 2.127251	 0.919632	 2.262095	 -0.720677	 -0.177236	 -0.074574	 0.856708	 -0.353050	 0.368573	 2
1463630276.171	 26	 1.465592	 1.992397	 0.852323	 2.267765	 -0.723190	 -0.199336	 -0.064626	 0.858159	 -0.358325	 0.361924	 2
1463630276.181	 26	 1.562775	 1.850056	 0.770220	 2.271655	 -0.727022	 -0.221935	 -0.055039	 0.859000	 -0.364081	 0.355716	 2
1463630276.191	 26	 1.613402	 1.683440	 0.548682	 2.274330	 -0.732627	 -0.243730	 -0.046385	 0.859252	 -0.370303	 0.349872	 2
1463630276.201	 26	 1.636677	 1.496700	 0.181185	 2.277030	 -0.741112	 -0.262923	 -0.039458	 0.858966	 -0.377174	 0.344036	 2
1463630276.211	 26	 1.611982	 1.093143	 -0.183648	 2.278232	 -0.752358	 -0.278879	 -0.034804	 0.857918	 -0.384516	 0.338989	 2
1463630276.221	 26	 1.579799	 0.626307	 -0.477600	 2.276721	 -0.765772	 -0.291836	 -0.032448	 0.856018	 -0.392126	 0.335286	 2
1463630276.231	 26	 1.588738	 0.222599	 -0.703113	 2.272249	 -0.780962	 -0.302818	 -0.031948	 0.853315	 -0.400023	 0.332887	 2
1463630276.241	 26	 1.649239	 -0.109996	 -0.928413	 2.264974	 -0.798122	 -0.312624	 -0.033011	 0.849824	 -0.408413	 0.331523	 2
1463630276.251	 26	 1.740876	 -0.349545	 -1.217064	 2.255697	 -0.817847	 -0.321283	 -0.035629	 0.845584	 -0.417526	 0.330741	 2
1463630276.261	 26	 1.762495	 -0.241377	 -1.545566	 2.247749	 -0.840339	 -0.328037	 -0.039492	 0.841081	 -0.427346	 0.329240	 2
1463630276.271	 26	 1.337578	 0.376068	 -1.787641	 2.248910	 -0.863169	 -0.329028	 -0.043951	 0.837830	 -0.436448	 0.324996	 2
1463630276.281	 26	 0.726570	 1.209156	 -1.849172	 2.265047	 -0.882846	 -0.321202	 -0.048053	 0.837148	 -0.443227	 0.316898	 2
1463630276.291	 26	 -0.125442	 2.975466	 -1.361711	 2.300601	 -0.895541	 -0.306853	 -0.048904	 0.840233	 -0.446833	 0.303244	 2
1463630276.301	 26	 -0.707852	 3.330047	 -0.369642	 2.345959	 -0.895546	 -0.292993	 -0.044628	 0.846604	 -0.445849	 0.287208	 2
1463630276.311	 26	 -0.620511	 1.356675	 0.053526	 2.370923	 -0.890986	 -0.285428	 -0.041380	 0.850763	 -0.443488	 0.278942	 2
1463630276.321	 26	 -0.339642	 -0.448755	 0.100357	 2.373158	 -0.887311	 -0.281972	 -0.041636	 0.851640	 -0.441572	 0.279267	 2
1463630276.331	 26	 -0.062047	 -1.544091	 0.090945	 2.360323	 -0.885735	 -0.281683	 -0.044280	 0.850095	 -0.440621	 0.285010	 2
1463630276.341	 26	 0.023860	 -2.353594	 0.112506	 2.337604	 -0.885160	 -0.282996	 -0.048609	 0.846933	 -0.440053	 0.294441	 2
1463630276.351	 26	 -0.114316	 -2.759928	 0.198386	 2.309999	 -0.883432	 -0.284051	 -0.053874	 0.843107	 -0.438816	 0.306119	 2
1463630276.361	 26	 -0.265699	 -2.882580	 0.384006	 2.280714	 -0.879358	 -0.284737	 -0.059133	 0.839228	 -0.436483	 0.318877	 2
1463630276.371	 26	 -0.175843	 -2.535868	 0.563366	 2.252144	 -0.873959	 -0.287365	 -0.063076	 0.835545	 -0.433915	 0.331064	 2
1463630276.381	 26	 0.026939	 -1.684025	 0.630276	 2.228485	 -0.868974	 -0.293140	 -0.064680	 0.832553	 -0.432183	 0.340427	 2
1463630276.391	 26	 -0.003846	 -0.816476	 0.715351	 2.213384	 -0.863699	 -0.299791	 -0.063973	 0.830999	 -0.430790	 0.346076	 2
1463630276.401	 26	 -0.184080	 -0.397615	 1.054402	 2.203095	 -0.855095	 -0.306802	 -0.061289	 0.830744	 -0.428357	 0.350169	 2
1463630276.411	 26	 -0.215473	 -0.023445	 1.304348	 2.195902	 -0.843689	 -0.315172	 -0.056692	 0.831429	 -0.425207	 0.353143	 2
1463630276.421	 26	 -0.076247	 0.013069	 1.115901	 2.189108	 -0.833205	 -0.324253	 -0.051893	 0.831998	 -0.422582	 0.355684	 2
1463630276.431	 26	 0.184494	 0.137717	 0.516899	 2.185282	 -0.828411	 -0.331334	 -0.048621	 0.832178	 -0.421898	 0.356537	 2
1463630276.441	 26	 0.462860	 -0.338459	 0.234011	 2.178262	 -0.828444	 -0.338462	 -0.047148	 0.831090	 -0.423016	 0.357945	 2
1463630276.451	 26	 0.157298	 -0.452089	 0.281442	 2.168571	 -0.827930	 -0.344491	 -0.046573	 0.829561	 -0.423675	 0.360775	 2
1463630276.461	 26	 -0.703851	 0.689755	 0.015007	 2.176292	 -0.824169	 -0.339160	 -0.046251	 0.831349	 -0.421452	 0.359301	 2
1463630276.471	 26	 -0.809643	 1.227428	 -0.391519	 2.197114	 -0.821815	 -0.326649	 -0.046531	 0.835101	 -0.418796	 0.353627	 2
1463630276.481	 26	 -0.479591	 0.744557	 -0.550224	 2.214702	 -0.822631	 -0.315283	 -0.047797	 0.837803	 -0.417533	 0.348521	 2
1463630276.491	 26	 -0.027961	 -0.491208	 -0.640259	 2.218368	 -0.826696	 -0.308081	 -0.050982	 0.837672	 -0.417960	 0.347872	 2
1463630276.501	 26	 0.306356	 -1.366199	 -0.602287	 2.208367	 -0.833101	 -0.305400	 -0.055670	 0.834911	 -0.419726	 0.351644	 2
1463630276.511	 26	 0.503684	 -1.676805	 -0.526963	 2.191575	 -0.840096	 -0.306153	 -0.060516	 0.830926	 -0.422089	 0.357408	 2
1463630276.521	 26	 0.805017	 -1.711602	 -0.656736	 2.171701	 -0.849266	 -0.309767	 -0.065395	 0.826107	 -0.425647	 0.363449	 2
1463630276.531	 26	 1.161225	 -1.600224	 -0.847441	 2.150247	 -0.861882	 -0.316598	 -0.070207	 0.820552	 -0.430980	 0.368811	 2
1463630276.541	 26	 1.432772	 -1.590475	 -1.006382	 2.126938	 -0.877434	 -0.326457	 -0.075047	 0.814291	 -0.437816	 0.373652	 2
1463630276.551	 26	 1.603974	 -1.856594	 -1.113728	 2.099681	 -0.894855	 -0.338747	 -0.080440	 0.807073	 -0.445523	 0.379041	 2
1463630276.561	 26	 1.608107	 -2.246672	 -1.221838	 2.067555	 -0.913236	 -0.352191	 -0.086968	 0.798797	 -0.453432	 0.385695	 2
1463630276.571	 26	 1.295422	 -2.366861	 -1.348125	 2.035801	 -0.931317	 -0.362499	 -0.094869	 0.790446	 -0.460437	 0.392673	 2
1463630276.581	 26	 0.914771	 -2.388178	 -1.508071	 2.008355	 -0.948901	 -0.366988	 -0.104166	 0.782673	 -0.466109	 0.399143	 2
1463630276.591	 26	 0.636083	 -2.310669	 -1.639210	 1.985379	 -0.966453	 -0.366487	 -0.114511	 0.775454	 -0.470790	 0.404863	 2
1463630276.601	 26	 0.456379	 -1.925303	 -1.664966	 1.968099	 -0.983702	 -0.362797	 -0.124754	 0.769159	 -0.474861	 0.409069	 2
1463630276.611	 26	 0.479520	 -1.752162	 -1.687003	 1.953406	 -1.000994	 -0.359005	 -0.134489	 0.763293	 -0.478932	 0.412215	 2
1463630276.621	 26	 0.521217	 -1.703636	 -1.725282	 1.938740	 -1.018796	 -0.356147	 -0.144050	 0.757338	 -0.483226	 0.414948	 2
1463630276.631	 26	 0.682287	 -1.623043	 -1.839971	 1.922918	 -1.037942	 -0.355272	 -0.153576	 0.751010	 -0.488138	 0.417277	 2
1463630276.641	 26	 0.949833	 -1.390469	 -1.927529	 1.905192	 -1.058918	 -0.358985	 -0.162450	 0.744304	 -0.494281	 0.418698	 2
1463630276.651	 26	 1.201947	 -1.173676	 -1.850972	 1.884079	 -1.080366	 -0.369115	 -0.170055	 0.737333	 -0.501438	 0.419502	 2
1463630276.661	 26	 1.295979	 -1.055800	 -1.691895	 1.859572	 -1.100736	 -0.384605	 -0.176431	 0.730319	 -0.508868	 0.420190	 2
1463630276.671	 26	 1.191993	 -1.064957	 -1.530145	 1.833845	 -1.119182	 -0.401543	 -0.182259	 0.723548	 -0.515683	 0.421107	 2
1463630276.681	 26	 0.987197	 -1.166461	 -1.383297	 1.808672	 -1.135521	 -0.416837	 -0.188124	 0.717140	 -0.521375	 0.422479	 2
1463630276.691	 26	 0.780080	 -1.317858	 -1.224104	 1.784337	 -1.149690	 -0.429520	 -0.194225	 0.711049	 -0.525791	 0.424535	 2
1463630276.701	 26	 0.599492	 -1.499134	 -1.067551	 1.760639	 -1.161846	 -0.439603	 -0.200603	 0.705179	 -0.528998	 0.427366	 2
1463630276.711	 26	 0.470168	 -1.646741	 -0.940973	 1.736764	 -1.172165	 -0.447792	 -0.207229	 0.699371	 -0.531143	 0.431074	 2
1463630276.721	 26	 0.354118	 -1.618491	 -0.905595	 1.714806	 -1.181825	 -0.454011	 -0.213905	 0.693871	 -0.532762	 0.434686	 2
1463630276.731	 26	 0.218937	 -1.618515	 -0.817026	 1.695229	 -1.190477	 -0.457654	 -0.220576	 0.688754	 -0.533702	 0.438321	 2
1463630276.741	 26	 0.131863	 -1.573185	 -0.761492	 1.677811	 -1.198328	 -0.459304	 -0.227137	 0.683991	 -0.534143	 0.441878	 2
1463630276.751	 26	 0.093003	 -1.456996	 -0.741955	 1.662305	 -1.205854	 -0.460007	 -0.233427	 0.679572	 -0.534429	 0.445061	 2
1463630276.761	 26	 0.084020	 -1.321920	 -0.745948	 1.648140	 -1.213318	 -0.460618	 -0.239386	 0.675435	 -0.534764	 0.447783	 2
1463630276.771	 26	 0.075991	 -1.173344	 -0.794587	 1.635413	 -1.221158	 -0.461301	 -0.245069	 0.671566	 -0.535318	 0.449861	 2
1463630276.781	 26	 0.049595	 -1.058867	 -0.859369	 1.624328	 -1.229619	 -0.461544	 -0.250673	 0.667918	 -0.536069	 0.451308	 2
1463630276.791	 26	 0.006960	 -1.014359	 -0.899082	 1.614924	 -1.238527	 -0.460729	 -0.256332	 0.664446	 -0.536848	 0.452327	 2
1463630276.801	 26	 -0.016616	 -1.021851	 -0.914933	 1.606065	 -1.247631	 -0.459222	 -0.262143	 0.660969	 -0.537538	 0.453271	 2
1463630276.811	 26	 0.013459	 -0.999441	 -0.892606	 1.596757	 -1.256637	 -0.458428	 -0.267813	 0.657485	 -0.538257	 0.454168	 2
1463630276.821	 26	 0.083198	 -0.965225	 -0.839606	 1.585547	 -1.265169	 -0.459953	 -0.273089	 0.653943	 -0.539084	 0.455158	 2
1463630276.841	 27	 0.225905	 -0.874605	 -0.752613	 1.554761	 -1.280844	 -0.472649	 -0.282376	 0.646507	 -0.541279	 0.457503	 2
1463630276.851	 27	 0.233518	 -0.708984	 -0.644562	 1.538810	 -1.287564	 -0.481470	 -0.286056	 0.643197	 -0.542519	 0.458412	 2
1463630276.861	 27	 0.189827	 -0.628772	 -0.454795	 1.524626	 -1.292542	 -0.489574	 -0.288947	 0.640446	 -0.543418	 0.459386	 2
1463630276.871	 27	 0.096370	 -0.685671	 -0.272266	 1.513081	 -1.295629	 -0.494606	 -0.291499	 0.638116	 -0.543559	 0.460848	 2
1463630276.881	 27	 -0.007622	 -0.709604	 -0.094666	 1.504982	 -1.297038	 -0.495661	 -0.293830	 0.636218	 -0.542914	 0.462747	 2
1463630276.891	 27	 -0.163002	 -0.648439	 0.209932	 1.502818	 -1.295887	 -0.490923	 -0.295540	 0.635167	 -0.541254	 0.465041	 2
1463630276.901	 27	 -0.341775	 -0.455413	 0.648116	 1.509505	 -1.290777	 -0.478724	 -0.295914	 0.635587	 -0.538314	 0.467634	 2
1463630276.911	 27	 -0.439817	 -0.175951	 1.157807	 1.523263	 -1.280739	 -0.461742	 -0.294312	 0.637641	 -0.534184	 0.470577	 2
1463630276.921	 27	 -0.391511	 0.197199	 1.592492	 1.539679	 -1.265986	 -0.445607	 -0.290255	 0.641158	 -0.529480	 0.473624	 2
1463630276.931	 27	 -0.237364	 0.643147	 1.988566	 1.554784	 -1.247200	 -0.435257	 -0.283456	 0.645838	 -0.524869	 0.476506	 2
1463630276.941	 27	 -0.226755	 1.309811	 2.255789	 1.572622	 -1.225156	 -0.428257	 -0.273875	 0.652151	 -0.520472	 0.478330	 2
1463630276.951	 27	 -0.496157	 2.001853	 2.389269	 1.601387	 -1.201504	 -0.417262	 -0.262360	 0.660823	 -0.515921	 0.477814	 2
1463630276.961	 27	 -0.618194	 2.341780	 2.427599	 1.636308	 -1.176983	 -0.404136	 -0.249891	 0.670906	 -0.511032	 0.475696	 2
1463630276.971	 27	 -0.514123	 2.535457	 2.336839	 1.669377	 -1.152977	 -0.395203	 -0.236877	 0.681071	 -0.506600	 0.472639	 2
1463630276.981	 27	 -0.355258	 2.836146	 2.211428	 1.699992	 -1.130259	 -0.391802	 -0.223179	 0.691130	 -0.503125	 0.468397	 2
1463630276.991	 27	 -0.217225	 3.204257	 2.134785	 1.729774	 -1.108705	 -0.393301	 -0.208478	 0.701303	 -0.500645	 0.462672	 2
1463630277.001	 27	 -0.132846	 3.538074	 2.293824	 1.759661	 -1.086199	 -0.398368	 -0.192287	 0.711868	 -0.498336	 0.455994	 2
1463630277.011	 27	 0.247891	 3.733367	 2.537452	 1.785373	 -1.062365	 -0.411330	 -0.173952	 0.722198	 -0.496628	 0.448923	 2
1463630277.021	 27	 0.911316	 3.711460	 3.011064	 1.798949	 -1.035891	 -0.438540	 -0.152610	 0.730998	 -0.495933	 0.443173	 2
1463630277.041	 28	 1.558866	 3.703375	 3.770568	 1.805076	 -0.973503	 -0.520344	 -0.101615	 0.744952	 -0.495670	 0.434778	 2
1463630277.051	 28	 1.408446	 3.159077	 3.893639	 1.805353	 -0.939233	 -0.560683	 -0.075731	 0.750249	 -0.494226	 0.432588	 2
1463630277.071	 29	 0.625643	 1.297704	 3.276715	 1.800870	 -0.873523	 -0.617534	 -0.034604	 0.756321	 -0.486863	 0.435598	 2
1463630277.081	 29	 0.149571	 0.663887	 2.657886	 1.798288	 -0.846713	 -0.631375	 -0.021436	 0.757788	 -0.481841	 0.439462	 2
1463630277.091	 29	 -0.291139	 0.512845	 2.038978	 1.800066	 -0.824957	 -0.636027	 -0.012292	 0.759578	 -0.476340	 0.442708	 2
1463630277.111	 30	 -0.632901	 1.221809	 1.397371	 1.821917	 -0.792006	 -0.630591	 0.001250	 0.766336	 -0.465117	 0.443164	 2
1463630277.121	 30	 -0.454678	 1.769291	 1.284745	 1.839737	 -0.777945	 -0.628339	 0.008931	 0.771078	 -0.460185	 0.439988	 2
1463630277.131	 30	 -0.039320	 2.416665	 1.109170	 1.860646	 -0.766418	 -0.630669	 0.018218	 0.776284	 -0.456901	 0.433928	 2
1463630277.141	 30	 0.499120	 2.961158	 0.876144	 1.883126	 -0.758556	 -0.639325	 0.029143	 0.781451	 -0.455973	 0.424939	 2
1463630277.151	 30	 0.843566	 3.070421	 0.682324	 1.904669	 -0.754128	 -0.652621	 0.040621	 0.785988	 -0.456956	 0.414445	 2
1463630277.161	 30	 0.875301	 2.938178	 0.499638	 1.924987	 -0.751951	 -0.666510	 0.051401	 0.789945	 -0.458621	 0.403746	 2
1463630277.171	 30	 0.842949	 2.578421	 0.304735	 1.943400	 -0.751656	 -0.679062	 0.060688	 0.793281	 -0.460511	 0.393640	 2
1463630277.181	 30	 0.813723	 1.974047	 0.112857	 1.956858	 -0.753190	 -0.690357	 0.067826	 0.795453	 -0.462781	 0.385341	 2
1463630277.191	 30	 0.777521	 1.421208	 -0.015601	 1.965490	 -0.756159	 -0.700402	 0.072950	 0.796583	 -0.465371	 0.378898	 2
1463630277.201	 30	 0.735052	 0.988672	 0.015914	 1.969860	 -0.759030	 -0.709872	 0.076896	 0.796892	 -0.467931	 0.374288	 2
1463630277.221	 31	 0.400966	 0.259116	 0.331763	 1.969324	 -0.759823	 -0.726059	 0.082983	 0.796102	 -0.471225	 0.370517	 2
1463630277.231	 31	 0.099539	 -0.216290	 0.506880	 1.965250	 -0.756205	 -0.730803	 0.084979	 0.795335	 -0.471101	 0.371865	 2
1463630277.241	 31	 -0.252567	 -1.070714	 0.463628	 1.956543	 -0.751072	 -0.731368	 0.084677	 0.793941	 -0.469913	 0.376391	 2
1463630277.261	 32	 -1.029309	 -2.343066	 0.405263	 1.927791	 -0.737569	 -0.716631	 0.076167	 0.789631	 -0.463865	 0.394349	 2
1463630277.271	 32	 -1.242429	 -2.857006	 0.289366	 1.909804	 -0.730507	 -0.702928	 0.068749	 0.786843	 -0.459495	 0.406221	 2
1463630277.281	 32	 -1.361386	 -3.347564	 0.209102	 1.887982	 -0.724045	 -0.686968	 0.059467	 0.783127	 -0.454818	 0.419900	 2
1463630277.291	 32	 -1.411572	 -3.544489	 0.167207	 1.864148	 -0.718143	 -0.669874	 0.049221	 0.778750	 -0.449920	 0.434394	 2
1463630277.301	 32	 -1.297272	 -3.468695	 0.105103	 1.840057	 -0.713210	 -0.653228	 0.038905	 0.774001	 -0.445198	 0.448562	 2
1463630277.311	 32	 -0.921777	 -3.148615	 -0.045460	 1.816139	 -0.710598	 -0.640115	 0.029366	 0.768888	 -0.441793	 0.461268	 2
1463630277.321	 32	 -0.486791	 -2.671195	 -0.182288	 1.793565	 -0.710784	 -0.632041	 0.021235	 0.763718	 -0.440254	 0.471657	 2
1463630277.331	 32	 -0.357927	 -2.604735	 -0.059164	 1.770942	 -0.711080	 -0.627172	 0.014312	 0.758361	 -0.439387	 0.481273	 2
1463630277.341	 32	 -0.762054	 -2.989781	 0.214673	 1.747256	 -0.708378	 -0.619227	 0.007002	 0.752733	 -0.436742	 0.492545	 2
1463630277.351	 32	 -1.291760	 -3.416893	 0.357057	 1.723450	 -0.703282	 -0.604932	 -0.001850	 0.746985	 -0.431637	 0.505667	 2
1463630277.361	 32	 -1.742551	 -3.777902	 0.406648	 1.699711	 -0.697035	 -0.584467	 -0.012467	 0.741033	 -0.424391	 0.520198	 2
1463630277.371	 32	 -2.127201	 -4.128616	 0.438769	 1.676187	 -0.680463	 -0.558555	 -0.021389	 0.735137	 -0.412270	 0.537727	 2
1463630277.381	 32	 -2.477530	 -4.504416	 0.542767	 1.650852	 -0.673132	 -0.528595	 -0.035019	 0.728036	 -0.401489	 0.554566	 2
1463630277.391	 32	 -2.718817	 -4.807426	 0.608126	 1.624181	 -0.665389	 -0.495185	 -0.049735	 0.720080	 -0.389147	 0.572343	 2
1463630277.401	 32	 -2.793895	 -4.834250	 0.545650	 1.597136	 -0.658572	 -0.460203	 -0.065072	 0.711463	 -0.376128	 0.590011	 2
1463630277.411	 32	 -2.680006	 -4.487313	 0.326210	 1.572172	 -0.654009	 -0.425915	 -0.080219	 0.702930	 -0.363581	 0.606022	 2
1463630277.421	 32	 -2.402997	 -3.896666	 0.045801	 1.550596	 -0.653086	 -0.394678	 -0.094675	 0.694993	 -0.352789	 0.619323	 2
1463630277.431	 32	 -2.023725	 -3.165525	 -0.179836	 1.533295	 -0.655000	 -0.367996	 -0.107595	 0.688155	 -0.344161	 0.629619	 2
1463630277.441	 32	 -1.619147	 -2.427803	 -0.221256	 1.520396	 -0.658001	 -0.346437	 -0.118252	 0.682705	 -0.337509	 0.637195	 2
1463630277.451	 32	 -1.250488	 -1.777891	 -0.066015	 1.511335	 -0.659882	 -0.329609	 -0.126168	 0.678680	 -0.332136	 0.642776	 2
1463630277.461	 32	 -0.959645	 -1.206679	 0.205341	 1.505917	 -0.659196	 -0.316556	 -0.131237	 0.676130	 -0.327373	 0.646879	 2
1463630277.471	 32	 -0.829300	 -0.759143	 0.517441	 1.504079	 -0.655385	 -0.305466	 -0.133916	 0.675010	 -0.322507	 0.649936	 2
1463630277.481	 32	 -0.858955	 -0.502746	 0.807841	 1.505355	 -0.648570	 -0.294257	 -0.135053	 0.675057	 -0.316881	 0.652414	 2
1463630277.491	 32	 -0.980548	 -0.437068	 1.015203	 1.508466	 -0.639495	 -0.281685	 -0.135564	 0.675745	 -0.310219	 0.654794	 2
1463630277.501	 32	 -1.176562	 -0.456958	 1.126498	 1.512700	 -0.629167	 -0.266950	 -0.136207	 0.676738	 -0.302502	 0.657241	 2
1463630277.511	 32	 -1.414587	 -0.528050	 1.200381	 1.517836	 -0.618109	 -0.249482	 -0.137416	 0.677898	 -0.293674	 0.659793	 2
1463630277.521	 32	 -1.631524	 -0.700900	 1.330684	 1.522862	 -0.606026	 -0.229410	 -0.139205	 0.678919	 -0.283601	 0.662768	 2
1463630277.531	 32	 -1.781241	 -1.238651	 1.623266	 1.524802	 -0.591477	 -0.207459	 -0.141227	 0.678949	 -0.271838	 0.667224	 2
1463630277.541	 32	 -2.030341	 -1.950352	 2.088813	 1.520451	 -0.572798	 -0.182850	 -0.143518	 0.676947	 -0.257320	 0.674487	 2
1463630277.551	 32	 -2.179014	 -2.464067	 2.616077	 1.511447	 -0.549157	 -0.155797	 -0.145361	 0.673479	 -0.239903	 0.683918	 2
1463630277.561	 32	 -2.091931	 -2.902708	 3.031147	 1.497174	 -0.521261	 -0.128893	 -0.146053	 0.668412	 -0.220611	 0.695143	 2
1463630277.571	 32	 -1.871658	 -3.187104	 3.209894	 1.478046	 -0.491147	 -0.103861	 -0.145535	 0.661804	 -0.200746	 0.707485	 2
1463630277.581	 32	 -1.533487	 -3.403259	 3.166571	 1.454661	 -0.461161	 -0.081942	 -0.144055	 0.653730	 -0.181610	 0.720349	 2
1463630277.591	 32	 -1.063161	 -3.612735	 3.071003	 1.426545	 -0.432009	 -0.064445	 -0.141407	 0.643997	 -0.163962	 0.733750	 2
1463630277.601	 32	 -0.528830	 -3.595901	 2.968457	 1.395353	 -0.403478	 -0.052052	 -0.137122	 0.633193	 -0.148222	 0.747191	 2
1463630277.611	 32	 0.007933	 -3.219120	 2.781847	 1.364806	 -0.375884	 -0.044911	 -0.131049	 0.622654	 -0.134920	 0.759556	 2
1463630277.621	 32	 0.431329	 -2.966887	 2.681392	 1.335587	 -0.348851	 -0.042108	 -0.123394	 0.612592	 -0.123723	 0.770842	 2
1463630277.631	 32	 0.845592	 -2.261565	 2.429631	 1.310491	 -0.322688	 -0.043129	 -0.114377	 0.604047	 -0.114742	 0.780308	 2
1463630277.651	 33	 1.735341	 -1.272012	 2.257373	 1.274503	 -0.271855	 -0.059170	 -0.091428	 0.592464	 -0.104147	 0.793587	 2
1463630277.661	 33	 1.920094	 -0.886708	 2.370189	 1.261837	 -0.243915	 -0.070542	 -0.077527	 0.588605	 -0.099982	 0.798459	 2
1463630277.671	 33	 1.985675	 -0.690058	 2.527049	 1.252004	 -0.214178	 -0.081946	 -0.062682	 0.585612	 -0.095576	 0.802493	 2
1463630277.681	 33	 1.955173	 -0.715522	 2.669890	 1.242946	 -0.182911	 -0.092454	 -0.047379	 0.582612	 -0.090531	 0.806302	 2
1463630277.691	 33	 1.782451	 -0.961307	 2.734118	 1.232704	 -0.151198	 -0.101001	 -0.032454	 0.578787	 -0.084677	 0.810421	 2
1463630277.701	 33	 1.552496	 -1.525379	 2.738332	 1.218226	 -0.119957	 -0.106921	 -0.018574	 0.572923	 -0.077993	 0.815679	 2
1463630277.711	 33	 1.383659	 -2.162746	 2.633689	 1.197729	 -0.089996	 -0.110776	 -0.005923	 0.564328	 -0.070998	 0.822471	 2
1463630277.721	 34	 1.305963	 -2.630877	 2.436041	 1.172237	 -0.061970	 -0.113638	 0.005629	 0.553440	 -0.064396	 0.830377	 2
1463630277.741	 34	 1.463566	 -2.993129	 1.974086	 1.114100	 -0.011701	 -0.121004	 0.027009	 0.528009	 -0.054410	 0.847064	 2
1463630277.761	 35	 1.951233	 -3.053491	 1.767849	 1.053463	 0.037128	 -0.134514	 0.049790	 0.500409	 -0.048776	 0.862979	 2
1463630277.771	 36	 2.243276	 -3.100343	 1.731831	 1.023014	 0.063121	 -0.144443	 0.062748	 0.485987	 -0.047486	 0.870416	 2
1463630277.791	 36	 2.617882	 -2.920227	 1.788836	 0.962457	 0.114362	 -0.166861	 0.088992	 0.456283	 -0.047388	 0.884104	 2
1463630277.801	 36	 2.678313	 -2.825349	 1.843537	 0.934681	 0.142927	 -0.177881	 0.103408	 0.441925	 -0.047055	 0.889828	 2
1463630277.811	 36	 2.610265	 -2.876369	 1.967280	 0.907502	 0.173520	 -0.187326	 0.118384	 0.427493	 -0.045930	 0.895056	 2
1463630277.821	 36	 2.385069	 -3.314260	 2.213489	 0.875688	 0.205456	 -0.192778	 0.133032	 0.410857	 -0.043425	 0.900896	 2
1463630277.841	 37	 1.754013	 -3.082302	 2.117763	 0.810873	 0.264715	 -0.193322	 0.158439	 0.377441	 -0.036102	 0.911664	 2
1463630277.851	 37	 1.453605	 -2.813668	 1.933172	 0.781363	 0.289539	 -0.190273	 0.168588	 0.362459	 -0.032226	 0.916058	 2
1463630277.861	 37	 1.210060	 -2.914433	 1.726532	 0.751289	 0.311034	 -0.186010	 0.177129	 0.347496	 -0.028773	 0.920350	 2
1463630277.881	 37	 0.847132	 -3.009151	 1.279058	 0.688940	 0.344445	 -0.177205	 0.190112	 0.317124	 -0.024411	 0.928813	 2
1463630277.871	 37	 1.023074	 -2.957368	 1.450662	 0.720457	 0.329143	 -0.181713	 0.184232	 0.332381	 -0.026251	 0.924604	 2
1463630277.891	 37	 0.732828	 -2.898306	 1.118024	 0.657976	 0.357604	 -0.172565	 0.195085	 0.302248	 -0.023007	 0.932770	 2
1463630277.901	 37	 0.718647	 -2.760685	 0.876434	 0.628908	 0.368973	 -0.169109	 0.199502	 0.288230	 -0.022415	 0.936280	 2
1463630277.911	 37	 0.820152	 -2.764803	 0.643175	 0.600838	 0.379430	 -0.167849	 0.203860	 0.274488	 -0.023027	 0.939450	 2
1463630277.921	 37	 1.053763	 -2.671818	 0.506655	 0.574177	 0.390615	 -0.168979	 0.208903	 0.261080	 -0.024640	 0.942120	 2
1463630277.931	 37	 1.318899	 -2.348166	 0.510555	 0.550776	 0.403895	 -0.171632	 0.215143	 0.248870	 -0.026465	 0.943969	 2
1463630277.941	 37	 1.553190	 -1.847255	 0.598437	 0.532197	 0.419673	 -0.174653	 0.222635	 0.238693	 -0.027732	 0.944823	 2
1463630277.951	 37	 1.742533	 -1.342225	 0.649448	 0.518922	 0.437583	 -0.177916	 0.231205	 0.230816	 -0.028354	 0.944703	 2
1463630277.961	 37	 1.857538	 -0.943704	 0.650023	 0.510215	 0.456773	 -0.181651	 0.240470	 0.224913	 -0.028588	 0.943807	 2
1463630277.971	 37	 1.848026	 -0.709580	 0.664008	 0.504260	 0.476207	 -0.185298	 0.249852	 0.220258	 -0.028477	 0.942470	 2
1463630277.981	 37	 1.745254	 -0.569791	 0.685387	 0.499590	 0.495042	 -0.188209	 0.258868	 0.216304	 -0.027977	 0.940966	 2
1463630277.991	 37	 1.606998	 -0.475727	 0.693861	 0.495598	 0.512771	 -0.190203	 0.267258	 0.212837	 -0.027133	 0.939435	 2
1463630278.001	 37	 1.478978	 -0.445754	 0.668610	 0.491790	 0.529276	 -0.191571	 0.275000	 0.209610	 -0.026155	 0.937952	 2
1463630278.011	 37	 1.354850	 -0.457601	 0.598175	 0.487890	 0.544426	 -0.192806	 0.282084	 0.206446	 -0.025327	 0.936572	 2
1463630278.021	 37	 1.191061	 -0.472814	 0.487554	 0.483940	 0.557760	 -0.194218	 0.288335	 0.203360	 -0.024845	 0.935356	 2
1463630278.031	 37	 0.965127	 -0.522042	 0.354777	 0.479705	 0.568651	 -0.195772	 0.293460	 0.200301	 -0.024802	 0.934423	 2
1463630278.041	 37	 0.669787	 -0.576411	 0.218294	 0.474819	 0.576452	 -0.197193	 0.297133	 0.197193	 -0.025202	 0.933912	 2
1463630278.051	 37	 0.339574	 -0.567841	 0.093357	 0.469605	 0.580774	 -0.198176	 0.299152	 0.194269	 -0.025897	 0.933861	 2
1463630278.071	 38	 -0.145229	 -0.323564	 -0.004593	 0.460924	 0.581001	 -0.198006	 0.299126	 0.190222	 -0.027088	 0.934669	 2
1463630278.081	 38	 -0.213802	 -0.190112	 0.036679	 0.457963	 0.579276	 -0.196665	 0.298163	 0.189173	 -0.027114	 0.935188	 2
1463630278.091	 38	 -0.169472	 -0.106945	 0.082894	 0.455765	 0.577908	 -0.194893	 0.297335	 0.188515	 -0.026779	 0.935594	 2
1463630278.101	 38	 -0.028643	 -0.139061	 0.111211	 0.453752	 0.577750	 -0.193401	 0.297094	 0.187807	 -0.026399	 0.935824	 2
1463630278.111	 38	 0.184813	 -0.351427	 0.099916	 0.450618	 0.579373	 -0.192924	 0.297758	 0.186287	 -0.026447	 0.935915	 2
1463630278.121	 38	 0.439155	 -0.670694	 0.030785	 0.445491	 0.582973	 -0.194321	 0.299481	 0.183403	 -0.027436	 0.935907	 2
1463630278.131	 38	 0.645896	 -0.907860	 -0.029708	 0.438657	 0.588319	 -0.197527	 0.302143	 0.179310	 -0.029332	 0.935787	 2
1463630278.141	 38	 0.770622	 -0.884203	 -0.091327	 0.432169	 0.594759	 -0.202171	 0.305427	 0.175068	 -0.031737	 0.935445	 2
1463630278.151	 38	 0.782705	 -0.586416	 -0.089727	 0.428258	 0.601519	 -0.207207	 0.308917	 0.171932	 -0.033906	 0.934805	 2
1463630278.161	 38	 0.652806	 -0.165100	 0.021900	 0.427610	 0.607783	 -0.210830	 0.312102	 0.170565	 -0.034973	 0.933958	 2
1463630278.171	 38	 0.429777	 0.199026	 0.129544	 0.429492	 0.612682	 -0.212133	 0.314499	 0.170843	 -0.034717	 0.933112	 2
1463630278.181	 38	 0.135732	 0.471618	 0.199652	 0.433046	 0.615382	 -0.211166	 0.315717	 0.172433	 -0.033390	 0.932456	 2
1463630278.191	 38	 -0.177197	 0.605832	 0.247322	 0.437053	 0.615467	 -0.208037	 0.315550	 0.174788	 -0.031289	 0.932147	 2
1463630278.201	 38	 -0.435437	 0.545453	 0.323612	 0.439730	 0.613332	 -0.202736	 0.314143	 0.177042	 -0.028649	 0.932282	 2
1463630278.211	 38	 -0.591824	 0.350831	 0.409489	 0.439626	 0.609933	 -0.195525	 0.311938	 0.178390	 -0.025705	 0.932851	 2
1463630278.221	 38	 -0.646165	 0.111944	 0.446107	 0.436689	 0.606011	 -0.187364	 0.309368	 0.178589	 -0.022812	 0.933743	 2
1463630278.231	 38	 -0.608713	 -0.088164	 0.440721	 0.431687	 0.602213	 -0.179285	 0.306843	 0.177780	 -0.020248	 0.934790	 2
1463630278.241	 38	 -0.511233	 -0.220476	 0.421589	 0.425579	 0.599083	 -0.171877	 0.304682	 0.176282	 -0.018073	 0.935824	 2
1463630278.251	 38	 -0.385552	 -0.274014	 0.423194	 0.419143	 0.596998	 -0.165168	 0.303073	 0.174435	 -0.016144	 0.936727	 2
1463630278.271	 39	 -0.133326	 -0.072836	 0.546498	 0.408025	 0.596809	 -0.151804	 0.301754	 0.171258	 -0.011583	 0.937807	 2
1463630278.281	 39	 0.013988	 0.143869	 0.568547	 0.405314	 0.598819	 -0.145429	 0.302129	 0.170820	 -0.008788	 0.937796	 2
1463630278.291	 39	 0.154853	 0.344691	 0.597965	 0.404909	 0.602257	 -0.139432	 0.303211	 0.171321	 -0.005673	 0.937379	 2
1463630278.301	 39	 0.266421	 0.449816	 0.619287	 0.405963	 0.606891	 -0.133709	 0.304873	 0.172398	 -0.002341	 0.936657	 2
1463630278.311	 39	 0.346368	 0.435710	 0.613131	 0.407384	 0.612358	 -0.128395	 0.306952	 0.173544	 0.000942	 0.935768	 2
1463630278.321	 39	 0.361804	 0.316524	 0.610822	 0.407935	 0.618115	 -0.123268	 0.309176	 0.174246	 0.004032	 0.934897	 2
1463630278.331	 39	 0.323553	 0.149447	 0.582956	 0.406924	 0.623538	 -0.118230	 0.311253	 0.174236	 0.006800	 0.934193	 2
1463630278.341	 39	 0.263861	 -0.036727	 0.552968	 0.404106	 0.628311	 -0.113238	 0.313043	 0.173422	 0.009189	 0.933726	 2
1463630278.351	 39	 0.222438	 -0.187925	 0.513554	 0.399688	 0.632465	 -0.108371	 0.314570	 0.171888	 0.011197	 0.933475	 2
1463630278.361	 39	 0.177545	 -0.149962	 0.450353	 0.395336	 0.636041	 -0.103933	 0.315874	 0.170359	 0.012946	 0.933292	 2
1463630278.371	 39	 0.131680	 -0.065426	 0.355620	 0.392331	 0.638785	 -0.100248	 0.316853	 0.169390	 0.014466	 0.933114	 2
