% Gyrometer data recorded with 'snsrlog'
% 
% 
% Label description:
% 	 0: Default Label
% 	 1: still_drop
% 	 2: walk_drop
% 	 3: other
% 	 4: dtw_same
% 	 5: dtw_diff
% 	 6: delete
% 	 7: steal
% 
% Column description:
% 	 1: Seconds.milliseconds since 1970
% 	 2: Number of skipped measurements
% 	 3: Gyro X
% 	 4: Gyro Y
% 	 5: Gyro Z
% 	 6: Roll of the device
% 	 7: Pitch of the device
% 	 8: Yaw of the device
% 	 9: Quaternion X
% 	 10: Quaternion Y
% 	 11: Quaternion Z
% 	 12: Quaternion W
% 	 13: Label used for the current sample
% 
% 
1463630199.271	 0	 -2.055779	 0.408129	 -0.182613	 0.168264	 0.294197	 -0.056056	 0.148322	 0.079000	 -0.015312	 0.985660	 2
1463630199.281	 0	 -2.102729	 0.821295	 -0.134663	 0.174915	 0.273248	 -0.053768	 0.137956	 0.082854	 -0.014636	 0.986858	 2
1463630199.301	 1	 -1.545314	 0.858266	 -0.091213	 0.192351	 0.236766	 -0.048838	 0.119854	 0.092456	 -0.012796	 0.988394	 2
1463630199.311	 1	 -0.931595	 0.421483	 -0.086766	 0.197486	 0.225915	 -0.047552	 0.114466	 0.095260	 -0.012398	 0.988772	 2
1463630199.321	 1	 -0.381737	 -0.020079	 -0.033848	 0.198125	 0.220807	 -0.047084	 0.111922	 0.095690	 -0.012388	 0.989021	 2
1463630199.331	 1	 0.014780	 -0.245646	 0.115136	 0.195931	 0.220228	 -0.046167	 0.111579	 0.094666	 -0.012086	 0.989162	 2
1463630199.341	 1	 0.221376	 -0.248264	 0.277440	 0.192849	 0.222478	 -0.044144	 0.112579	 0.093218	 -0.011147	 0.989198	 2
1463630199.351	 1	 0.234894	 0.022768	 0.403473	 0.191479	 0.225577	 -0.040818	 0.113949	 0.092680	 -0.009428	 0.989109	 2
1463630199.361	 1	 0.084055	 0.520802	 0.525589	 0.194287	 0.227818	 -0.036123	 0.114849	 0.094303	 -0.006837	 0.988873	 2
1463630199.371	 1	 -0.205002	 1.079226	 0.705955	 0.202146	 0.227868	 -0.029276	 0.114563	 0.098580	 -0.002998	 0.988508	 2
1463630199.381	 1	 -0.551752	 1.541740	 0.983982	 0.214267	 0.225207	 -0.019173	 0.112735	 0.105175	 0.002543	 0.988040	 2
1463630199.391	 1	 -0.861253	 1.708872	 1.318618	 0.228000	 0.220225	 -0.005050	 0.109462	 0.112789	 0.010007	 0.987520	 2
1463630199.401	 1	 -1.080666	 1.544728	 1.621678	 0.240201	 0.213791	 0.012827	 0.105157	 0.119805	 0.019113	 0.987028	 2
1463630199.411	 1	 -1.231055	 1.145833	 1.848414	 0.248387	 0.206517	 0.033628	 0.100195	 0.124917	 0.029361	 0.986658	 2
1463630199.421	 1	 -1.284911	 0.740334	 1.936765	 0.252281	 0.198902	 0.055909	 0.094961	 0.127889	 0.040078	 0.986418	 2
1463630199.431	 1	 -1.239908	 0.389729	 1.861705	 0.252776	 0.191469	 0.077763	 0.089877	 0.129066	 0.050425	 0.986266	 2
1463630199.441	 1	 -1.106279	 0.166551	 1.647444	 0.251180	 0.184636	 0.097514	 0.085273	 0.129036	 0.059682	 0.986162	 2
1463630199.451	 1	 -0.878409	 0.079726	 1.353698	 0.249181	 0.179069	 0.113954	 0.081529	 0.128622	 0.067372	 0.986038	 2
1463630199.461	 1	 -0.612925	 0.051268	 1.056972	 0.247470	 0.175261	 0.126771	 0.078887	 0.128200	 0.073397	 0.985877	 2
1463630199.471	 1	 -0.369377	 0.079621	 0.812121	 0.246498	 0.173232	 0.136394	 0.077306	 0.128042	 0.077984	 0.985671	 2
1463630199.481	 1	 -0.177561	 0.158703	 0.648125	 0.246624	 0.172749	 0.143670	 0.076596	 0.128370	 0.081546	 0.985396	 2
1463630199.491	 1	 -0.052678	 0.224815	 0.575181	 0.247672	 0.173419	 0.149660	 0.076498	 0.129136	 0.084576	 0.985048	 2
1463630199.501	 1	 0.018034	 0.293657	 0.563483	 0.249484	 0.174829	 0.155198	 0.076756	 0.130286	 0.087454	 0.984625	 2
1463630199.511	 1	 0.065390	 0.341698	 0.607214	 0.251776	 0.176833	 0.160890	 0.077269	 0.131701	 0.090462	 0.984125	 2
1463630199.521	 1	 0.079909	 0.402934	 0.697181	 0.254468	 0.179290	 0.167289	 0.077932	 0.133359	 0.093859	 0.983531	 2
1463630199.531	 1	 0.049029	 0.540060	 0.820223	 0.258141	 0.181845	 0.174903	 0.078502	 0.135555	 0.097898	 0.982791	 2
1463630199.541	 1	 0.019022	 0.652579	 0.923845	 0.262820	 0.184418	 0.183683	 0.078933	 0.138297	 0.102550	 0.981900	 2
1463630199.551	 2	 -0.011306	 0.744479	 0.970792	 0.268269	 0.186930	 0.193158	 0.079221	 0.141447	 0.107568	 0.980890	 2
1463630199.571	 2	 -0.122155	 1.171950	 0.765779	 0.284494	 0.189971	 0.210571	 0.078534	 0.150214	 0.116932	 0.978568	 2
1463630199.581	 2	 -0.143343	 1.572832	 0.597041	 0.297854	 0.190507	 0.217217	 0.077492	 0.157029	 0.120738	 0.977118	 2
1463630199.591	 2	 -0.153359	 2.076873	 0.431296	 0.316354	 0.190470	 0.222255	 0.075935	 0.166251	 0.123904	 0.975316	 2
1463630199.601	 2	 -0.152598	 2.558931	 0.318541	 0.340084	 0.190126	 0.226052	 0.073954	 0.177936	 0.126617	 0.973056	 2
1463630199.611	 2	 -0.182918	 2.958587	 0.270302	 0.368064	 0.189481	 0.229316	 0.071549	 0.191618	 0.129168	 0.970298	 2
1463630199.631	 3	 -0.375682	 3.606811	 0.405904	 0.434663	 0.186522	 0.237817	 0.064825	 0.223959	 0.135273	 0.962986	 2
1463630199.641	 3	 -0.405146	 3.476887	 0.663932	 0.468848	 0.185907	 0.244977	 0.061346	 0.240578	 0.139726	 0.958559	 2
1463630199.651	 3	 -0.336477	 3.009328	 1.043724	 0.498391	 0.187386	 0.255176	 0.058686	 0.255083	 0.145656	 0.954082	 2
1463630199.661	 3	 -0.230114	 2.446500	 1.355158	 0.521787	 0.191429	 0.267907	 0.057216	 0.266794	 0.152873	 0.949830	 2
1463630199.671	 3	 -0.112739	 2.143664	 1.442973	 0.541243	 0.197467	 0.281252	 0.056761	 0.276716	 0.160496	 0.945753	 2
1463630199.681	 3	 0.021815	 2.018122	 1.345781	 0.559221	 0.204589	 0.293328	 0.056976	 0.285935	 0.167608	 0.941755	 2
1463630199.691	 3	 0.093658	 2.220996	 1.190376	 0.578538	 0.211859	 0.303407	 0.057308	 0.295710	 0.173845	 0.937576	 2
1463630199.711	 3	 0.008269	 2.689071	 1.167765	 0.626313	 0.225749	 0.322179	 0.056673	 0.319327	 0.185872	 0.927508	 2
1463630199.721	 4	 -0.101888	 2.531840	 1.295153	 0.649682	 0.232668	 0.332986	 0.055945	 0.330848	 0.192529	 0.922140	 2
1463630199.731	 4	 -0.251706	 2.309028	 1.456380	 0.670241	 0.239673	 0.345857	 0.055031	 0.341081	 0.200062	 0.916848	 2
1463630199.751	 5	 -0.511899	 2.129998	 1.450585	 0.706855	 0.252081	 0.374864	 0.051889	 0.359332	 0.216180	 0.906341	 2
1463630199.761	 5	 -0.540813	 2.243787	 1.289899	 0.725297	 0.256778	 0.388984	 0.049454	 0.368334	 0.223776	 0.901004	 2
1463630199.771	 5	 -0.417237	 2.700514	 0.960555	 0.748044	 0.260459	 0.400240	 0.046457	 0.379069	 0.229977	 0.895131	 2
1463630199.781	 5	 -0.149048	 3.400340	 0.478745	 0.778611	 0.263015	 0.406388	 0.042890	 0.393009	 0.233832	 0.888272	 2
1463630199.791	 5	 0.258766	 4.166916	 -0.129419	 0.818712	 0.264797	 0.405502	 0.039179	 0.410840	 0.234578	 0.880141	 2
1463630199.801	 5	 0.805023	 4.738715	 -0.847178	 0.867539	 0.264566	 0.395775	 0.035439	 0.432021	 0.231187	 0.871008	 2
1463630199.811	 5	 1.448729	 5.206451	 -1.354667	 0.923248	 0.262792	 0.377270	 0.032423	 0.455727	 0.223764	 0.860925	 2
1463630199.831	 6	 2.683255	 5.161371	 -1.351980	 1.044514	 0.263773	 0.322249	 0.033166	 0.506385	 0.202585	 0.837516	 2
1463630199.841	 6	 3.163662	 4.420553	 -1.233034	 1.099662	 0.267277	 0.288239	 0.038046	 0.528831	 0.190264	 0.826251	 2
1463630199.851	 6	 3.520448	 3.574075	 -1.214176	 1.147475	 0.271215	 0.250646	 0.045433	 0.547767	 0.176821	 0.816469	 2
1463630199.861	 6	 3.737632	 2.886537	 -1.334369	 1.188818	 0.273727	 0.210108	 0.054237	 0.563577	 0.162049	 0.808195	 2
1463630199.871	 6	 3.807312	 2.452965	 -1.546834	 1.225726	 0.273303	 0.167743	 0.063304	 0.577182	 0.145972	 0.800966	 2
1463630199.881	 6	 3.740877	 2.369535	 -1.784697	 1.260797	 0.269057	 0.124997	 0.071648	 0.589767	 0.128904	 0.793993	 2
1463630199.891	 6	 3.591640	 2.587499	 -2.001982	 1.296930	 0.260873	 0.083161	 0.078683	 0.602625	 0.111337	 0.786293	 2
1463630199.901	 6	 3.445752	 3.136664	 -2.306805	 1.337145	 0.248058	 0.042529	 0.083976	 0.617030	 0.093224	 0.776873	 2
1463630199.921	 7	 3.091984	 4.045187	 -2.715181	 1.428459	 0.209488	 -0.032245	 0.089492	 0.650087	 0.056362	 0.752464	 2
1463630199.931	 7	 2.979424	 4.475542	 -2.816772	 1.478844	 0.185237	 -0.066014	 0.090440	 0.668352	 0.038010	 0.737348	 2
1463630199.941	 7	 2.885598	 4.717279	 -2.813706	 1.530912	 0.159023	 -0.097343	 0.090808	 0.687073	 0.019997	 0.720614	 2
1463630199.951	 7	 2.814555	 4.755223	 -2.743460	 1.582693	 0.131791	 -0.126336	 0.090996	 0.705419	 0.002470	 0.702921	 2
1463630199.961	 7	 2.757593	 4.586995	 -2.644347	 1.632237	 0.104091	 -0.153232	 0.091218	 0.722644	 -0.014577	 0.685020	 2
1463630199.971	 7	 2.687127	 4.266747	 -2.540138	 1.678022	 0.076245	 -0.178121	 0.091490	 0.738230	 -0.031145	 0.667589	 2
1463630199.981	 7	 2.600872	 3.806865	 -2.483983	 1.718733	 0.048184	 -0.201004	 0.091622	 0.751810	 -0.047336	 0.651265	 2
1463630199.991	 7	 2.503336	 3.279478	 -2.500831	 1.753576	 0.019445	 -0.221839	 0.091264	 0.763240	 -0.063370	 0.636490	 2
1463630200.001	 7	 2.391311	 2.701453	 -2.612876	 1.782182	 -0.010563	 -0.240500	 0.090003	 0.772529	 -0.079480	 0.623523	 2
1463630200.011	 7	 2.299545	 2.185552	 -2.803386	 1.804725	 -0.042553	 -0.257034	 0.087483	 0.779835	 -0.095971	 0.612367	 2
1463630200.021	 7	 2.229068	 1.863348	 -2.968832	 1.823267	 -0.076395	 -0.271798	 0.083847	 0.785814	 -0.112825	 0.602276	 2
1463630200.031	 7	 2.136171	 1.509555	 -3.099207	 1.838039	 -0.111613	 -0.284853	 0.079180	 0.790535	 -0.129865	 0.593229	 2
1463630200.041	 7	 1.980616	 1.178643	 -3.179798	 1.849209	 -0.147526	 -0.295905	 0.073481	 0.794055	 -0.146718	 0.585279	 2
1463630200.051	 7	 1.752899	 0.918275	 -3.236726	 1.857573	 -0.183520	 -0.304445	 0.066698	 0.796623	 -0.162957	 0.578264	 2
1463630200.061	 7	 1.504238	 0.736728	 -3.291670	 1.864236	 -0.219410	 -0.310193	 0.058796	 0.798561	 -0.178383	 0.571860	 2
1463630200.071	 7	 1.244830	 0.527658	 -3.332922	 1.869340	 -0.255009	 -0.313114	 0.049784	 0.799894	 -0.192913	 0.566106	 2
1463630200.081	 7	 0.992163	 0.394050	 -3.378858	 1.873540	 -0.290282	 -0.313214	 0.039704	 0.800785	 -0.206519	 0.560818	 2
1463630200.091	 7	 0.782256	 0.269941	 -3.417619	 1.877337	 -0.325283	 -0.310779	 0.028689	 0.801340	 -0.219301	 0.555822	 2
1463630200.101	 7	 0.674213	 0.013717	 -3.446772	 1.879594	 -0.360161	 -0.306756	 0.016939	 0.801199	 -0.231595	 0.551504	 2
1463630200.111	 7	 0.671275	 -0.382997	 -3.446175	 1.878395	 -0.395022	 -0.302288	 0.004619	 0.799816	 -0.243741	 0.548510	 2
1463630200.121	 7	 0.814836	 -0.752184	 -3.403967	 1.873054	 -0.429923	 -0.299109	 -0.007738	 0.797015	 -0.256166	 0.546887	 2
1463630200.131	 7	 1.044984	 -1.115032	 -3.332612	 1.862975	 -0.464854	 -0.298675	 -0.019712	 0.792685	 -0.269175	 0.546633	 2
1463630200.141	 7	 1.247145	 -1.309688	 -3.253054	 1.848986	 -0.499630	 -0.301291	 -0.031113	 0.787118	 -0.282704	 0.547316	 2
1463630200.151	 7	 1.326382	 -1.302054	 -3.195056	 1.833524	 -0.534052	 -0.306027	 -0.041981	 0.781033	 -0.296408	 0.548057	 2
1463630200.161	 7	 1.283516	 -1.176941	 -3.119981	 1.818530	 -0.567740	 -0.311462	 -0.052488	 0.774993	 -0.309788	 0.548326	 2
1463630200.171	 7	 1.197100	 -1.048166	 -2.997600	 1.804733	 -0.600071	 -0.317011	 -0.062534	 0.769250	 -0.322495	 0.548034	 2
1463630200.181	 7	 1.079320	 -1.016015	 -2.865186	 1.791528	 -0.630801	 -0.322255	 -0.072270	 0.763663	 -0.334342	 0.547550	 2
1463630200.191	 7	 0.974839	 -1.094612	 -2.745642	 1.777923	 -0.660018	 -0.327099	 -0.081902	 0.757972	 -0.345318	 0.547290	 2
1463630200.201	 7	 0.912566	 -1.240634	 -2.666527	 1.762948	 -0.688165	 -0.331896	 -0.091602	 0.751907	 -0.355639	 0.547509	 2
1463630200.211	 7	 0.863738	 -1.474997	 -2.590482	 1.745589	 -0.715414	 -0.336943	 -0.101507	 0.745204	 -0.365386	 0.548507	 2
1463630200.221	 7	 0.757578	 -1.871931	 -2.515450	 1.724738	 -0.741708	 -0.341832	 -0.111984	 0.737555	 -0.374341	 0.550764	 2
1463630200.231	 7	 0.518483	 -2.384517	 -2.455258	 1.700008	 -0.766974	 -0.345025	 -0.123674	 0.728761	 -0.381987	 0.554705	 2
1463630200.241	 7	 0.125879	 -2.818325	 -2.447351	 1.673340	 -0.791534	 -0.344296	 -0.137110	 0.719145	 -0.387872	 0.559989	 2
1463630200.251	 7	 -0.360825	 -3.028819	 -2.483439	 1.648186	 -0.815961	 -0.337716	 -0.152434	 0.709401	 -0.391830	 0.565671	 2
1463630200.261	 7	 -0.846785	 -3.138841	 -2.451456	 1.626752	 -0.840106	 -0.324531	 -0.169322	 0.699995	 -0.393773	 0.571210	 2
1463630200.271	 7	 -1.240195	 -3.183405	 -2.302436	 1.609412	 -0.863001	 -0.305416	 -0.187027	 0.691065	 -0.393681	 0.576598	 2
1463630200.281	 7	 -1.517324	 -3.288491	 -2.092112	 1.595018	 -0.883996	 -0.281724	 -0.205003	 0.682387	 -0.391713	 0.582136	 2
1463630200.291	 7	 -1.689218	 -3.446306	 -1.923693	 1.581899	 -0.903309	 -0.254802	 -0.223133	 0.673534	 -0.388197	 0.588104	 2
1463630200.301	 7	 -1.777730	 -3.553492	 -1.780042	 1.569461	 -0.921393	 -0.225891	 -0.241227	 0.664384	 -0.383582	 0.594364	 2
1463630200.311	 7	 -1.777153	 -3.583026	 -1.599142	 1.557409	 -0.937996	 -0.196261	 -0.258809	 0.655026	 -0.378143	 0.600805	 2
1463630200.321	 7	 -1.638327	 -3.532818	 -1.366482	 1.544783	 -0.952574	 -0.168021	 -0.275187	 0.645550	 -0.372236	 0.607436	 2
1463630200.331	 7	 -1.382453	 -3.315023	 -1.150333	 1.531061	 -0.965065	 -0.143471	 -0.289714	 0.636205	 -0.366482	 0.614003	 2
1463630200.341	 7	 -1.078177	 -3.002829	 -0.950780	 1.516483	 -0.975606	 -0.123828	 -0.302051	 0.627333	 -0.361357	 0.620193	 2
1463630200.351	 7	 -0.757502	 -2.662556	 -0.686097	 1.500605	 -0.983707	 -0.109805	 -0.311948	 0.619082	 -0.356912	 0.626130	 2
1463630200.361	 7	 -0.544891	 -2.444798	 -0.345943	 1.484253	 -0.988481	 -0.099606	 -0.319569	 0.611644	 -0.352504	 0.632067	 2
1463630200.371	 7	 -0.373403	 -2.429377	 0.089677	 1.466283	 -0.988181	 -0.092322	 -0.324827	 0.604804	 -0.347209	 0.638863	 2
1463630200.381	 7	 -0.492350	 -2.709542	 0.567704	 1.447473	 -0.983385	 -0.083310	 -0.329160	 0.597969	 -0.339868	 0.646975	 2
1463630200.391	 7	 -0.913618	 -2.798689	 1.010703	 1.433050	 -0.975493	 -0.066971	 -0.333773	 0.591689	 -0.329915	 0.655481	 2
1463630200.401	 7	 -1.329232	 -2.562661	 1.416178	 1.427190	 -0.964196	 -0.042051	 -0.338247	 0.587193	 -0.317493	 0.663318	 2
1463630200.411	 7	 -1.515113	 -2.212892	 1.758898	 1.428509	 -0.949691	 -0.012365	 -0.341844	 0.584706	 -0.303640	 0.670122	 2
1463630200.421	 7	 -1.412683	 -1.953107	 1.983168	 1.431849	 -0.932581	 0.016721	 -0.344089	 0.583392	 -0.289418	 0.676383	 2
1463630200.431	 7	 -1.086539	 -1.710505	 2.128596	 1.433423	 -0.913457	 0.040853	 -0.344485	 0.582661	 -0.275824	 0.682464	 2
1463630200.441	 7	 -0.677078	 -1.423717	 2.240670	 1.432051	 -0.892598	 0.058275	 -0.342742	 0.582360	 -0.263372	 0.688491	 2
1463630200.451	 7	 -0.237108	 -0.969268	 2.311408	 1.429233	 -0.870343	 0.068733	 -0.338658	 0.582958	 -0.252566	 0.694033	 2
1463630200.461	 7	 0.123414	 -0.575560	 2.334314	 1.425995	 -0.847202	 0.073166	 -0.332518	 0.584520	 -0.243467	 0.698922	 2
1463630200.471	 7	 0.290164	 -0.473269	 2.280526	 1.422041	 -0.824083	 0.074324	 -0.325450	 0.586301	 -0.235381	 0.703512	 2
1463630200.481	 7	 0.284431	 -0.446555	 2.148669	 1.417818	 -0.802056	 0.074881	 -0.318543	 0.587844	 -0.227793	 0.707871	 2
1463630200.491	 7	 0.226347	 -0.181653	 1.987512	 1.415867	 -0.781833	 0.075909	 -0.312081	 0.589792	 -0.220943	 0.711291	 2
1463630200.501	 7	 0.273788	 0.228065	 1.891793	 1.417438	 -0.762919	 0.076421	 -0.305500	 0.592842	 -0.215206	 0.713369	 2
1463630200.511	 7	 0.400930	 0.488255	 1.888842	 1.421034	 -0.743899	 0.075318	 -0.298173	 0.596824	 -0.210284	 0.714615	 2
1463630200.521	 7	 0.407016	 0.714205	 1.808828	 1.426149	 -0.725070	 0.073370	 -0.290491	 0.601392	 -0.205902	 0.715225	 2
1463630200.531	 7	 0.141704	 1.276584	 1.515813	 1.439006	 -0.710036	 0.074474	 -0.284270	 0.607754	 -0.202664	 0.713270	 2
1463630200.541	 7	 -0.137749	 1.839577	 1.154716	 1.460221	 -0.699034	 0.078905	 -0.279672	 0.616075	 -0.200604	 0.708514	 2
1463630200.551	 7	 0.030320	 2.151112	 0.915289	 1.482223	 -0.689492	 0.080705	 -0.274747	 0.624811	 -0.199963	 0.702951	 2
1463630200.561	 7	 0.590013	 2.315931	 0.842675	 1.502057	 -0.680666	 0.075990	 -0.268263	 0.633519	 -0.201444	 0.697216	 2
1463630200.571	 7	 1.218059	 2.437413	 0.835140	 1.517955	 -0.671664	 0.062958	 -0.259437	 0.641888	 -0.205121	 0.691808	 2
1463630200.581	 7	 1.586659	 2.558378	 0.797886	 1.531647	 -0.662887	 0.044164	 -0.248972	 0.650067	 -0.210446	 0.686395	 2
1463630200.591	 7	 1.678027	 2.545769	 0.709580	 1.544520	 -0.655005	 0.023387	 -0.238140	 0.657930	 -0.216507	 0.680840	 2
1463630200.601	 7	 1.621315	 2.421399	 0.550118	 1.556634	 -0.648714	 0.002890	 -0.227906	 0.665144	 -0.222778	 0.675287	 2
1463630200.611	 7	 1.507727	 2.288187	 0.321795	 1.568259	 -0.644771	 -0.016314	 -0.218846	 0.671634	 -0.229218	 0.669681	 2
1463630200.621	 7	 1.436944	 2.200408	 0.069008	 1.579547	 -0.643486	 -0.034445	 -0.210985	 0.677485	 -0.236047	 0.663914	 2
1463630200.631	 7	 1.414432	 2.157228	 -0.174191	 1.590572	 -0.644849	 -0.052154	 -0.204098	 0.682822	 -0.243500	 0.657880	 2
1463630200.641	 7	 1.409467	 2.164413	 -0.358458	 1.601594	 -0.648373	 -0.069696	 -0.197901	 0.687828	 -0.251534	 0.651505	 2
1463630200.651	 7	 1.449822	 2.209280	 -0.461771	 1.612767	 -0.653306	 -0.087507	 -0.191968	 0.692681	 -0.260054	 0.644758	 2
1463630200.661	 7	 1.527605	 2.200399	 -0.481714	 1.623427	 -0.658829	 -0.106237	 -0.185883	 0.697313	 -0.268927	 0.637872	 2
1463630200.671	 7	 1.539914	 2.084521	 -0.469045	 1.632820	 -0.664442	 -0.125423	 -0.179747	 0.701491	 -0.277763	 0.631228	 2
1463630200.681	 7	 1.412232	 1.931795	 -0.460828	 1.641336	 -0.670006	 -0.143499	 -0.174027	 0.705221	 -0.286067	 0.624935	 2
1463630200.691	 7	 1.097620	 1.748720	 -0.459793	 1.650171	 -0.675501	 -0.158194	 -0.169362	 0.708700	 -0.293244	 0.618925	 2
1463630200.701	 7	 0.676063	 1.500165	 -0.438186	 1.659856	 -0.680582	 -0.167696	 -0.166220	 0.711993	 -0.298695	 0.613366	 2
1463630200.711	 7	 0.398906	 1.246515	 -0.327293	 1.669580	 -0.684631	 -0.173033	 -0.164176	 0.715014	 -0.302496	 0.608520	 2
1463630200.721	 7	 0.353039	 1.031572	 -0.065651	 1.677572	 -0.686397	 -0.177480	 -0.161944	 0.717630	 -0.305094	 0.604730	 2
1463630200.731	 7	 0.155123	 0.806483	 0.348559	 1.684218	 -0.684305	 -0.180676	 -0.159102	 0.720094	 -0.305882	 0.602152	 2
1463630200.741	 7	 -0.278431	 0.517079	 0.892114	 1.690713	 -0.676615	 -0.179746	 -0.155962	 0.722712	 -0.303493	 0.601044	 2
1463630200.751	 7	 -0.639936	 0.238123	 1.292327	 1.697046	 -0.663902	 -0.174448	 -0.152830	 0.725416	 -0.298032	 0.601325	 2
1463630200.761	 7	 -0.597019	 0.005543	 1.357998	 1.701162	 -0.649550	 -0.168690	 -0.149697	 0.727566	 -0.291659	 0.602639	 2
1463630200.771	 7	 -0.274571	 -0.171916	 1.071112	 1.701390	 -0.637590	 -0.166110	 -0.146756	 0.728548	 -0.286752	 0.604528	 2
1463630200.781	 7	 -0.015063	 -0.242645	 0.663205	 1.698814	 -0.629911	 -0.166480	 -0.144515	 0.728491	 -0.284010	 0.606428	 2
1463630200.791	 7	 0.105929	 -0.149303	 0.383790	 1.696092	 -0.625710	 -0.168155	 -0.142934	 0.728159	 -0.282865	 0.607735	 2
1463630200.801	 7	 0.155340	 -0.070831	 0.371301	 1.693818	 -0.622277	 -0.170497	 -0.141292	 0.727936	 -0.282225	 0.608682	 2
1463630200.811	 7	 0.165889	 0.046846	 0.469288	 1.692414	 -0.618086	 -0.173194	 -0.139149	 0.728062	 -0.281494	 0.609364	 2
1463630200.831	 8	 0.148518	 0.137930	 0.555548	 1.691652	 -0.607629	 -0.177935	 -0.134134	 0.729040	 -0.279262	 0.610346	 2
1463630200.841	 8	 0.263015	 0.226735	 0.527668	 1.691685	 -0.602631	 -0.181546	 -0.131187	 0.729703	 -0.278633	 0.610482	 2
1463630200.851	 8	 0.236408	 0.168946	 0.614754	 1.691386	 -0.597096	 -0.185525	 -0.127974	 0.730318	 -0.277907	 0.610759	 2
1463630200.861	 8	 0.273360	 0.076373	 0.624229	 1.690246	 -0.591109	 -0.189214	 -0.124832	 0.730678	 -0.276884	 0.611443	 2
1463630200.871	 8	 0.937967	 0.118283	 0.512256	 1.685893	 -0.586526	 -0.198848	 -0.120419	 0.730290	 -0.277977	 0.612294	 2
1463630200.881	 8	 1.508864	 0.364349	 0.207964	 1.679311	 -0.585124	 -0.215952	 -0.114639	 0.729384	 -0.282343	 0.612486	 2
1463630200.891	 8	 1.598473	 0.689865	 -0.188382	 1.675053	 -0.587761	 -0.234813	 -0.109241	 0.728950	 -0.288778	 0.610987	 2
1463630200.901	 8	 1.707599	 0.906216	 -0.377025	 1.672651	 -0.592869	 -0.254383	 -0.104151	 0.728914	 -0.296355	 0.608285	 2
1463630200.911	 8	 1.960463	 1.125594	 -0.383580	 1.670978	 -0.598678	 -0.276623	 -0.098225	 0.729151	 -0.304982	 0.604712	 2
1463630200.921	 8	 2.242710	 1.160501	 -0.296188	 1.667930	 -0.604000	 -0.302516	 -0.091030	 0.729126	 -0.314430	 0.601018	 2
1463630200.931	 8	 2.420074	 1.165643	 -0.248660	 1.663258	 -0.608796	 -0.331070	 -0.082973	 0.728688	 -0.324378	 0.597418	 2
1463630200.941	 8	 2.528786	 1.160854	 -0.278426	 1.657634	 -0.613696	 -0.361217	 -0.074569	 0.727936	 -0.334747	 0.593711	 2
1463630200.951	 8	 2.584286	 1.050154	 -0.414226	 1.650467	 -0.619540	 -0.392310	 -0.066455	 0.726623	 -0.345597	 0.590055	 2
1463630200.961	 8	 2.540209	 0.931765	 -0.623833	 1.642109	 -0.627166	 -0.423142	 -0.059325	 0.724794	 -0.356847	 0.586356	 2
1463630200.971	 8	 2.470380	 0.734110	 -0.774271	 1.632201	 -0.636226	 -0.453284	 -0.053311	 0.722383	 -0.368239	 0.582855	 2
1463630200.981	 8	 2.361272	 0.514800	 -0.846768	 1.620415	 -0.645868	 -0.482499	 -0.048298	 0.719355	 -0.379423	 0.579857	 2
1463630200.991	 8	 2.212162	 0.346167	 -0.840644	 1.607421	 -0.655323	 -0.510305	 -0.044092	 0.715941	 -0.390047	 0.577363	 2
1463630201.001	 8	 2.057065	 0.193071	 -0.747997	 1.593705	 -0.663700	 -0.536491	 -0.040368	 0.712315	 -0.399807	 0.575441	 2
1463630201.011	 8	 1.922276	 0.019936	 -0.623740	 1.578996	 -0.670572	 -0.561257	 -0.036954	 0.708411	 -0.408654	 0.574273	 2
1463630201.031	 9	 1.664360	 -0.246535	 -0.220050	 1.547877	 -0.678010	 -0.606067	 -0.030281	 0.700113	 -0.423117	 0.574366	 2
1463630201.041	 9	 1.551007	 -0.476508	 -0.004854	 1.531004	 -0.678084	 -0.626403	 -0.026805	 0.695551	 -0.428745	 0.575907	 2
1463630201.051	 9	 1.396454	 -0.804572	 0.163969	 1.512306	 -0.676134	 -0.644738	 -0.023779	 0.690388	 -0.433273	 0.578855	 2
1463630201.061	 9	 1.230789	 -1.147088	 0.238959	 1.491622	 -0.672998	 -0.660773	 -0.021628	 0.684550	 -0.436861	 0.583160	 2
1463630201.071	 9	 1.025327	 -1.447874	 0.185726	 1.469426	 -0.669928	 -0.674346	 -0.020747	 0.678164	 -0.439801	 0.588420	 2
1463630201.081	 9	 0.615882	 -1.668199	 -0.001399	 1.447546	 -0.668647	 -0.683536	 -0.021996	 0.671776	 -0.441956	 0.594060	 2
1463630201.091	 9	 0.219734	 -1.846547	 -0.114711	 1.427056	 -0.669195	 -0.687551	 -0.025390	 0.665718	 -0.443049	 0.599902	 2
1463630201.101	 9	 0.044927	 -2.038457	 -0.102186	 1.406352	 -0.670153	 -0.688756	 -0.029937	 0.659510	 -0.443363	 0.606283	 2
1463630201.111	 9	 -0.083904	 -1.979545	 -0.097319	 1.386276	 -0.671107	 -0.688331	 -0.034885	 0.653407	 -0.443140	 0.612756	 2
1463630201.131	 10	 -0.432152	 -1.285647	 -0.472570	 1.360286	 -0.678355	 -0.682390	 -0.045315	 0.645444	 -0.442517	 0.620909	 2
1463630201.141	 10	 -0.638069	 -1.215191	 -0.813297	 1.351449	 -0.686631	 -0.677044	 -0.052145	 0.642759	 -0.442585	 0.623105	 2
1463630201.151	 10	 -0.954692	 -1.291362	 -1.177871	 1.343848	 -0.699199	 -0.669162	 -0.061156	 0.640434	 -0.442842	 0.624496	 2
1463630201.161	 10	 -1.327621	 -1.434395	 -1.398700	 1.337465	 -0.715191	 -0.657417	 -0.072442	 0.638334	 -0.442658	 0.625568	 2
1463630201.171	 10	 -1.674486	 -1.361738	 -1.493053	 1.334143	 -0.733235	 -0.641346	 -0.085209	 0.636898	 -0.441650	 0.626135	 2
1463630201.181	 10	 -1.929338	 -1.115102	 -1.466158	 1.335857	 -0.752004	 -0.621295	 -0.098398	 0.636643	 -0.439768	 0.625785	 2
1463630201.191	 10	 -1.998615	 -0.721754	 -1.373437	 1.343003	 -0.770184	 -0.598900	 -0.110907	 0.637692	 -0.437345	 0.624321	 2
1463630201.201	 10	 -1.895248	 -0.123888	 -1.315485	 1.355801	 -0.787353	 -0.576592	 -0.121769	 0.640228	 -0.435155	 0.621225	 2
1463630201.211	 10	 -1.721758	 0.490083	 -1.354979	 1.374124	 -0.804052	 -0.555764	 -0.130782	 0.644290	 -0.433829	 0.616099	 2
1463630201.221	 10	 -1.502538	 0.959338	 -1.531569	 1.395941	 -0.821488	 -0.537460	 -0.138497	 0.649286	 -0.433899	 0.609080	 2
1463630201.231	 10	 -1.229092	 1.219454	 -1.778786	 1.418597	 -0.840525	 -0.522562	 -0.145487	 0.654420	 -0.435672	 0.600631	 2
1463630201.241	 10	 -0.913280	 1.343887	 -1.945571	 1.439976	 -0.860878	 -0.511715	 -0.151847	 0.659114	 -0.439091	 0.591363	 2
1463630201.251	 10	 -0.580325	 1.273314	 -1.862800	 1.458011	 -0.880573	 -0.505116	 -0.157212	 0.662914	 -0.443493	 0.582360	 2
1463630201.261	 10	 -0.304168	 1.109507	 -1.459608	 1.472034	 -0.896681	 -0.501913	 -0.160965	 0.665820	 -0.447751	 0.574711	 2
1463630201.271	 10	 -0.011187	 0.911280	 -0.809625	 1.481549	 -0.906546	 -0.502019	 -0.162331	 0.667964	 -0.451050	 0.569233	 2
1463630201.281	 10	 0.291960	 0.741460	 -0.051825	 1.486348	 -0.908776	 -0.505873	 -0.160755	 0.669502	 -0.453098	 0.566239	 2
1463630201.291	 10	 0.573540	 0.629293	 0.580940	 1.486820	 -0.903969	 -0.513450	 -0.156391	 0.670524	 -0.454059	 0.565481	 2
1463630201.301	 10	 0.872445	 0.613661	 0.892592	 1.483968	 -0.894983	 -0.525021	 -0.149938	 0.671115	 -0.454838	 0.565902	 2
1463630201.311	 10	 1.295115	 0.574590	 0.955691	 1.476333	 -0.884410	 -0.542333	 -0.142067	 0.670767	 -0.456523	 0.566988	 2
1463630201.321	 10	 1.603200	 0.591023	 0.852980	 1.464688	 -0.874111	 -0.565019	 -0.133406	 0.669495	 -0.459596	 0.568112	 2
1463630201.331	 10	 1.679179	 0.697686	 0.778707	 1.452450	 -0.864293	 -0.589661	 -0.124415	 0.667979	 -0.463406	 0.568840	 2
1463630201.341	 10	 0.210080	 0.632219	 0.690708	 1.452027	 -0.856508	 -0.598767	 -0.118625	 0.668669	 -0.464080	 0.568718	 2
1463630201.351	 10	 -1.324856	 1.110088	 0.846002	 1.474038	 -0.849669	 -0.582246	 -0.116601	 0.674176	 -0.459001	 0.566754	 2
1463630201.361	 10	 -1.774295	 1.687404	 0.926694	 1.509790	 -0.841873	 -0.555284	 -0.114800	 0.683020	 -0.451470	 0.562565	 2
1463630201.371	 10	 -1.630369	 1.843675	 0.973788	 1.547293	 -0.833031	 -0.529514	 -0.112124	 0.692477	 -0.444036	 0.557437	 2
1463630201.381	 10	 -1.284298	 1.749371	 1.162800	 1.580038	 -0.822105	 -0.509061	 -0.108208	 0.701025	 -0.437156	 0.552946	 2
1463630201.391	 10	 -0.950526	 1.902605	 1.454405	 1.609025	 -0.808031	 -0.494568	 -0.102159	 0.709060	 -0.430694	 0.548908	 2
1463630201.401	 10	 -0.745705	 2.204166	 1.614226	 1.637564	 -0.791810	 -0.484439	 -0.094125	 0.717340	 -0.424595	 0.544318	 2
1463630201.411	 10	 -0.543819	 2.575815	 1.757673	 1.666937	 -0.774241	 -0.477963	 -0.084336	 0.726087	 -0.418894	 0.538714	 2
1463630201.421	 10	 -0.228525	 2.884387	 2.048752	 1.696025	 -0.754357	 -0.476652	 -0.072130	 0.735055	 -0.413587	 0.532388	 2
1463630201.431	 10	 0.083416	 3.037683	 2.486557	 1.722939	 -0.730948	 -0.481251	 -0.057184	 0.743740	 -0.408342	 0.526153	 2
1463630201.441	 10	 0.253114	 3.307709	 2.976777	 1.749188	 -0.703123	 -0.490410	 -0.039368	 0.752417	 -0.402480	 0.519932	 2
1463630201.451	 10	 0.159456	 3.729726	 3.346010	 1.778635	 -0.671512	 -0.501123	 -0.019260	 0.761841	 -0.395371	 0.512747	 2
1463630201.461	 10	 -0.237574	 3.832924	 3.482582	 1.812055	 -0.637414	 -0.509263	 0.001208	 0.772012	 -0.386224	 0.504803	 2
1463630201.471	 10	 -0.570398	 3.443263	 3.442420	 1.844879	 -0.602703	 -0.514171	 0.020187	 0.781716	 -0.375431	 0.497559	 2
1463630201.481	 10	 -0.753358	 2.963657	 3.086783	 1.874236	 -0.570099	 -0.516902	 0.036677	 0.790208	 -0.364312	 0.491430	 2
1463630201.491	 10	 -0.905248	 2.523198	 2.715253	 1.900213	 -0.540725	 -0.517442	 0.050400	 0.797578	 -0.353426	 0.486230	 2
1463630201.501	 10	 -0.902047	 1.932304	 2.342039	 1.921466	 -0.514704	 -0.516835	 0.061577	 0.803566	 -0.343270	 0.482344	 2
1463630201.511	 10	 -0.766799	 1.439461	 2.049585	 1.936916	 -0.492087	 -0.516718	 0.070771	 0.807930	 -0.334439	 0.479991	 2
1463630201.521	 10	 -0.562777	 1.171715	 1.877993	 1.948520	 -0.472020	 -0.518038	 0.079044	 0.811166	 -0.326889	 0.478440	 2
1463630201.531	 10	 -0.313690	 1.075992	 1.832303	 1.957835	 -0.453602	 -0.521840	 0.087396	 0.813634	 -0.320536	 0.477093	 2
1463630201.541	 10	 -0.218270	 0.883713	 1.903220	 1.964881	 -0.435372	 -0.527386	 0.095985	 0.815389	 -0.314690	 0.476338	 2
1463630201.551	 10	 -0.222185	 0.649386	 2.002321	 1.969207	 -0.416210	 -0.533619	 0.104651	 0.816373	 -0.308729	 0.476728	 2
1463630201.561	 10	 -0.244570	 0.430334	 2.000478	 1.971610	 -0.396757	 -0.539648	 0.112990	 0.816800	 -0.302670	 0.477976	 2
1463630201.571	 10	 -0.141636	 0.343736	 1.687573	 1.972980	 -0.379759	 -0.545493	 0.120383	 0.816871	 -0.297532	 0.479275	 2
1463630201.581	 10	 -0.149102	 0.299649	 1.471944	 1.974199	 -0.365216	 -0.550470	 0.126693	 0.816871	 -0.293113	 0.480370	 2
1463630201.591	 10	 -0.221319	 0.338629	 1.244862	 1.976284	 -0.352412	 -0.554003	 0.132037	 0.817116	 -0.288939	 0.481043	 2
1463630201.601	 10	 -0.327377	 0.301463	 0.917185	 1.978990	 -0.342018	 -0.555295	 0.135865	 0.817631	 -0.285091	 0.481397	 2
1463630201.611	 10	 -0.379290	 0.216175	 0.575800	 1.981683	 -0.334508	 -0.554429	 0.137990	 0.818291	 -0.281817	 0.481599	 2
1463630201.621	 10	 -0.266874	 0.218786	 0.394731	 1.983982	 -0.329349	 -0.553296	 0.139286	 0.818885	 -0.279400	 0.481624	 2
1463630201.631	 10	 -0.085401	 0.539803	 0.294891	 1.988521	 -0.325905	 -0.553381	 0.140910	 0.819944	 -0.277776	 0.480289	 2
1463630201.641	 10	 0.108421	 0.770324	 0.187707	 1.995346	 -0.324160	 -0.554871	 0.142951	 0.821458	 -0.276974	 0.477552	 2
1463630201.651	 10	 0.342206	 0.678205	 0.046265	 2.001498	 -0.324585	 -0.557944	 0.144950	 0.822705	 -0.277427	 0.474532	 2
1463630201.661	 10	 0.530374	 0.456129	 -0.140751	 2.005258	 -0.327465	 -0.562251	 0.146455	 0.823303	 -0.279288	 0.471933	 2
1463630201.671	 10	 0.598533	 0.180795	 -0.386901	 2.006410	 -0.332867	 -0.566442	 0.146861	 0.823307	 -0.282281	 0.470016	 2
1463630201.681	 10	 0.644139	 -0.298076	 -0.695496	 2.003878	 -0.341047	 -0.569773	 0.145627	 0.822522	 -0.286408	 0.469277	 2
1463630201.691	 10	 0.758898	 -0.919722	 -1.157360	 1.995022	 -0.353527	 -0.572197	 0.141898	 0.820332	 -0.292411	 0.470548	 2
1463630201.701	 10	 0.918135	 -0.978481	 -1.568546	 1.984412	 -0.370564	 -0.574375	 0.136477	 0.817738	 -0.300167	 0.471783	 2
1463630201.711	 10	 1.079803	 -0.888197	 -1.813173	 1.974242	 -0.390863	 -0.577084	 0.130332	 0.815171	 -0.309173	 0.472146	 2
1463630201.721	 10	 1.297112	 -0.707290	 -1.859210	 1.964813	 -0.412826	 -0.581654	 0.124485	 0.812606	 -0.319097	 0.471543	 2
1463630201.731	 10	 1.517488	 -0.268631	 -1.707840	 1.957858	 -0.434628	 -0.589189	 0.120188	 0.810396	 -0.329405	 0.469367	 2
1463630201.741	 10	 1.616836	 0.192617	 -1.424117	 1.954275	 -0.454578	 -0.599405	 0.117993	 0.808798	 -0.339362	 0.465572	 2
1463630201.751	 10	 1.516321	 0.521035	 -1.057827	 1.953735	 -0.471038	 -0.610663	 0.117706	 0.807851	 -0.348025	 0.460869	 2
1463630201.761	 10	 1.310277	 0.734156	 -0.792938	 1.955690	 -0.484044	 -0.621430	 0.118643	 0.807519	 -0.355108	 0.455779	 2
1463630201.771	 10	 0.823828	 0.858056	 -0.624488	 1.960498	 -0.493873	 -0.628653	 0.119586	 0.808057	 -0.360020	 0.450698	 2
1463630201.781	 10	 0.377493	 1.021997	 -0.345176	 1.968911	 -0.499577	 -0.631752	 0.120719	 0.809677	 -0.362275	 0.445653	 2
1463630201.791	 10	 0.203035	 1.193122	 -0.138504	 1.979574	 -0.502102	 -0.633374	 0.122588	 0.811903	 -0.362902	 0.440555	 2
1463630201.801	 10	 0.353855	 1.463093	 -0.103200	 1.992080	 -0.504256	 -0.635946	 0.125293	 0.814444	 -0.363474	 0.434591	 2
1463630201.811	 10	 0.691118	 1.908937	 -0.087067	 2.007261	 -0.507631	 -0.641802	 0.129497	 0.817279	 -0.365002	 0.426683	 2
1463630201.821	 10	 0.986161	 2.150299	 0.021318	 2.023795	 -0.511665	 -0.651257	 0.135270	 0.820066	 -0.367381	 0.417402	 2
1463630201.831	 10	 1.127065	 1.875957	 0.087878	 2.037780	 -0.515991	 -0.662983	 0.141469	 0.822057	 -0.370424	 0.408650	 2
1463630201.841	 10	 1.023669	 1.188405	 0.129274	 2.045688	 -0.519711	 -0.674680	 0.146729	 0.822743	 -0.373593	 0.402484	 2
1463630201.851	 10	 0.555463	 0.402211	 0.061023	 2.047985	 -0.522125	 -0.682137	 0.149566	 0.822602	 -0.375804	 0.399659	 2
1463630201.861	 10	 -0.113429	 -0.303363	 -0.117701	 2.046164	 -0.523048	 -0.682530	 0.149132	 0.822191	 -0.376356	 0.400148	 2
1463630201.871	 10	 -0.923408	 -0.459874	 -0.467003	 2.045924	 -0.523001	 -0.673447	 0.145365	 0.822812	 -0.374535	 0.401961	 2
1463630201.881	 10	 -1.350801	 -0.132682	 -0.987790	 2.051789	 -0.524891	 -0.656021	 0.138762	 0.825186	 -0.371310	 0.402419	 2
1463630201.891	 10	 -1.413683	 -0.029011	 -1.090722	 2.062222	 -0.527844	 -0.635364	 0.131346	 0.828599	 -0.367550	 0.401346	 2
1463630201.901	 10	 -0.901667	 -0.430400	 -0.940117	 2.067108	 -0.531488	 -0.619227	 0.124564	 0.830501	 -0.365358	 0.401578	 2
1463630201.911	 10	 -0.331418	 -0.658978	 -0.842764	 2.065807	 -0.536862	 -0.609677	 0.118912	 0.830642	 -0.365529	 0.402844	 2
1463630201.921	 10	 0.187129	 -0.694414	 -0.826294	 2.060796	 -0.544323	 -0.605719	 0.114333	 0.829598	 -0.367813	 0.404238	 2
1463630201.931	 10	 0.751321	 -0.159234	 -1.012734	 2.056894	 -0.555674	 -0.606761	 0.110962	 0.828331	 -0.372474	 0.403507	 2
1463630201.941	 10	 1.241370	 0.929390	 -1.178459	 2.060134	 -0.571020	 -0.612258	 0.109675	 0.828074	 -0.379092	 0.398189	 2
1463630201.951	 10	 1.306929	 2.066095	 -1.338974	 2.074963	 -0.588742	 -0.618739	 0.110399	 0.829871	 -0.386110	 0.387357	 2
1463630201.961	 10	 0.950605	 1.748170	 -1.469919	 2.092690	 -0.606458	 -0.621367	 0.110185	 0.832268	 -0.392193	 0.375997	 2
1463630201.971	 10	 0.484645	 0.404859	 -1.654213	 2.102235	 -0.623247	 -0.617885	 0.106148	 0.833355	 -0.397247	 0.369388	 2
1463630201.981	 10	 0.084541	 -0.587178	 -2.066016	 2.104543	 -0.641034	 -0.607527	 0.097571	 0.833283	 -0.401806	 0.366975	 2
1463630201.991	 10	 -0.166262	 -0.995105	 -2.391619	 2.105186	 -0.660311	 -0.591253	 0.085809	 0.832926	 -0.405923	 0.366193	 2
1463630202.001	 10	 -0.241776	 -0.853119	 -2.496217	 2.107763	 -0.680530	 -0.572454	 0.073152	 0.832731	 -0.409860	 0.364998	 2
1463630202.011	 10	 0.022091	 -0.588883	 -2.472609	 2.111995	 -0.701477	 -0.555312	 0.061360	 0.832466	 -0.414346	 0.362703	 2
1463630202.021	 10	 0.384084	 -0.088996	 -2.474306	 2.118791	 -0.724182	 -0.541670	 0.051138	 0.832167	 -0.420092	 0.358338	 2
1463630202.031	 10	 0.898607	 0.156346	 -2.461583	 2.125787	 -0.749082	 -0.532967	 0.042500	 0.831345	 -0.427576	 0.352473	 2
1463630202.041	 10	 1.453720	 0.191966	 -2.458624	 2.129430	 -0.777034	 -0.530474	 0.034980	 0.829295	 -0.437347	 0.346083	 2
1463630202.051	 10	 1.923416	 -0.132711	 -2.306936	 2.126057	 -0.806571	 -0.534772	 0.028319	 0.825585	 -0.448904	 0.340723	 2
1463630202.061	 11	 2.070664	 -0.473627	 -2.176036	 2.115694	 -0.836125	 -0.543556	 0.021826	 0.820520	 -0.461149	 0.337063	 2
1463630202.081	 11	 1.790860	 -1.552298	 -2.019510	 2.079350	 -0.891285	 -0.562629	 0.006256	 0.808055	 -0.483929	 0.335888	 2
1463630202.091	 11	 1.479206	 -2.057275	 -1.966075	 2.054339	 -0.916133	 -0.569669	 -0.003819	 0.800955	 -0.493576	 0.338880	 2
1463630202.101	 11	 1.053657	 -2.220957	 -1.975617	 2.030414	 -0.938960	 -0.572033	 -0.015171	 0.794212	 -0.501467	 0.342823	 2
1463630202.111	 11	 0.651444	 -2.101649	 -1.819666	 2.010957	 -0.959083	 -0.569578	 -0.026711	 0.788436	 -0.507426	 0.346662	 2
1463630202.121	 11	 0.433940	 -1.584466	 -1.577426	 1.997430	 -0.975926	 -0.565012	 -0.036731	 0.783965	 -0.511858	 0.349360	 2
1463630202.131	 11	 0.488959	 -0.947149	 -1.379072	 1.988837	 -0.990782	 -0.562026	 -0.044342	 0.780562	 -0.515913	 0.350130	 2
1463630202.141	 11	 0.695301	 -0.204160	 -1.361166	 1.984243	 -1.005683	 -0.562818	 -0.049484	 0.777899	 -0.520668	 0.348323	 2
1463630202.151	 11	 1.027683	 0.420734	 -1.443506	 1.982430	 -1.022544	 -0.568224	 -0.052689	 0.775558	 -0.526856	 0.343739	 2
1463630202.161	 11	 1.380085	 0.719436	 -1.471504	 1.978896	 -1.041162	 -0.580053	 -0.054394	 0.772847	 -0.534557	 0.337635	 2
1463630202.171	 11	 1.586500	 0.769213	 -1.417419	 1.971697	 -1.060469	 -0.597244	 -0.055278	 0.769581	 -0.543132	 0.331206	 2
1463630202.181	 11	 1.671591	 0.602896	 -1.290750	 1.959643	 -1.079067	 -0.618418	 -0.055865	 0.765755	 -0.551838	 0.325535	 2
1463630202.191	 11	 1.690201	 0.402454	 -1.203253	 1.942843	 -1.096631	 -0.642522	 -0.056505	 0.761445	 -0.560388	 0.320895	 2
1463630202.201	 11	 1.586004	 0.093780	 -1.276624	 1.923374	 -1.114086	 -0.666371	 -0.058157	 0.756809	 -0.568586	 0.317124	 2
1463630202.211	 11	 1.433339	 -0.287265	 -1.375825	 1.902029	 -1.131754	 -0.687859	 -0.061504	 0.751888	 -0.576203	 0.314438	 2
1463630202.221	 11	 1.331604	 -0.512047	 -1.466555	 1.879233	 -1.149693	 -0.707818	 -0.066131	 0.746774	 -0.583386	 0.312436	 2
1463630202.231	 11	 1.278940	 -0.690607	 -1.616965	 1.855101	 -1.168541	 -0.727118	 -0.071881	 0.741443	 -0.590417	 0.310650	 2
1463630202.241	 11	 1.248775	 -0.869072	 -1.745189	 1.828748	 -1.188422	 -0.746708	 -0.078721	 0.735796	 -0.597394	 0.309076	 2
1463630202.251	 11	 1.253280	 -1.000298	 -1.798671	 1.798988	 -1.208806	 -0.768220	 -0.086272	 0.729803	 -0.604334	 0.307775	 2
1463630202.261	 11	 1.276377	 -1.073815	 -1.807017	 1.764936	 -1.229105	 -0.793260	 -0.094081	 0.723513	 -0.611241	 0.306696	 2
1463630202.271	 11	 1.360230	 -1.408987	 -1.791682	 1.723291	 -1.249126	 -0.823815	 -0.102451	 0.716600	 -0.618145	 0.306406	 2
1463630202.281	 11	 1.390337	 -1.843829	 -1.755492	 1.668579	 -1.268343	 -0.862293	 -0.112170	 0.708490	 -0.624907	 0.308142	 2
1463630202.291	 11	 1.133284	 -1.845995	 -1.718104	 1.614735	 -1.286461	 -0.899507	 -0.122130	 0.700889	 -0.630748	 0.309832	 2
1463630202.301	 11	 0.805749	 -2.095680	 -1.667484	 1.563820	 -1.303433	 -0.931325	 -0.133019	 0.693819	 -0.635197	 0.312163	 2
1463630202.311	 11	 0.297165	 -2.314636	 -1.559583	 1.523343	 -1.319254	 -0.949819	 -0.145041	 0.687793	 -0.637616	 0.315196	 2
1463630202.321	 11	 -0.164985	 -2.485286	 -1.371705	 1.497864	 -1.333486	 -0.950866	 -0.157811	 0.683030	 -0.637812	 0.318999	 2
1463630202.331	 11	 -0.442407	 -2.455044	 -1.127080	 1.485403	 -1.345663	 -0.938141	 -0.170404	 0.679296	 -0.636368	 0.323351	 2
1463630202.341	 11	 -0.531556	 -2.061957	 -0.931874	 1.482874	 -1.355827	 -0.918379	 -0.181481	 0.676535	 -0.634280	 0.327192	 2
1463630202.351	 11	 -0.486449	 -1.405136	 -0.834500	 1.487101	 -1.364762	 -0.897923	 -0.190186	 0.674743	 -0.632518	 0.329352	 2
1463630202.361	 11	 -0.363738	 -0.791264	 -0.761647	 1.494084	 -1.372879	 -0.881281	 -0.196424	 0.673708	 -0.631565	 0.329637	 2
1463630202.371	 11	 -0.214326	 -0.466190	 -0.608585	 1.499023	 -1.379549	 -0.870887	 -0.200685	 0.672986	 -0.631272	 0.329107	 2
1463630202.381	 11	 -0.169277	 -0.550267	 -0.450961	 1.500976	 -1.384543	 -0.863788	 -0.204190	 0.672196	 -0.631002	 0.329082	 2
1463630202.391	 11	 -0.333925	 -0.975127	 -0.290419	 1.506294	 -1.388028	 -0.849636	 -0.208474	 0.671328	 -0.629712	 0.330637	 2
1463630202.401	 11	 -0.572133	 -1.378546	 -0.136498	 1.520690	 -1.390075	 -0.821932	 -0.213950	 0.670615	 -0.626930	 0.333856	 2
1463630202.411	 11	 -0.816924	 -1.654850	 0.090070	 1.546108	 -1.390086	 -0.779891	 -0.220108	 0.670324	 -0.622624	 0.338464	 2
1463630202.421	 11	 -1.052748	 -1.668003	 0.380823	 1.583363	 -1.387099	 -0.724835	 -0.226019	 0.670868	 -0.616882	 0.343961	 2
1463630202.431	 11	 -1.258764	 -1.267302	 0.698613	 1.632242	 -1.380461	 -0.660982	 -0.230289	 0.672886	 -0.610160	 0.349136	 2
1463630202.441	 11	 -1.395945	 -0.727690	 0.986190	 1.688359	 -1.370116	 -0.595006	 -0.232214	 0.676585	 -0.602940	 0.353232	 2
1463630202.451	 11	 -1.379256	 -0.301885	 1.189305	 1.742031	 -1.356756	 -0.536043	 -0.231999	 0.681376	 -0.595708	 0.356419	 2
1463630202.461	 11	 -1.317417	 0.045472	 1.299641	 1.788591	 -1.341699	 -0.487863	 -0.230157	 0.686705	 -0.588834	 0.358803	 2
1463630202.471	 11	 -1.357653	 0.643548	 1.475012	 1.833029	 -1.324645	 -0.447042	 -0.226243	 0.693108	 -0.582195	 0.359812	 2
1463630202.481	 11	 -1.525616	 1.282673	 1.685983	 1.880953	 -1.304851	 -0.409196	 -0.219951	 0.701234	 -0.575378	 0.358933	 2
1463630202.491	 11	 -1.746929	 1.818631	 2.022218	 1.931508	 -1.281088	 -0.374196	 -0.211337	 0.711160	 -0.567789	 0.356656	 2
1463630202.501	 11	 -1.964965	 2.256647	 2.493930	 1.981107	 -1.251935	 -0.344845	 -0.200151	 0.722816	 -0.558950	 0.353626	 2
1463630202.511	 11	 -2.280423	 2.344465	 3.035704	 2.026563	 -1.216402	 -0.321547	 -0.186931	 0.735818	 -0.548123	 0.350985	 2
1463630202.521	 11	 -2.812077	 2.005049	 3.389942	 2.069055	 -1.174651	 -0.298574	 -0.173548	 0.749722	 -0.534307	 0.349734	 2
1463630202.531	 11	 -3.337038	 1.345034	 3.391568	 2.109082	 -1.129033	 -0.271482	 -0.162236	 0.763721	 -0.517437	 0.350239	 2
1463630202.541	 11	 -3.489857	 0.425376	 3.086993	 2.141463	 -1.083720	 -0.242770	 -0.154426	 0.776254	 -0.498992	 0.352973	 2
1463630202.551	 11	 -3.209089	 -0.560183	 2.670388	 2.160426	 -1.042341	 -0.217351	 -0.150227	 0.785884	 -0.480899	 0.358546	 2
1463630202.561	 11	 -2.707969	 -1.187094	 2.225360	 2.167060	 -1.007160	 -0.197246	 -0.148641	 0.792411	 -0.464708	 0.366111	 2
1463630202.571	 11	 -2.324904	 -1.344026	 1.860337	 2.167435	 -0.977526	 -0.180773	 -0.148440	 0.796886	 -0.450536	 0.374105	 2
1463630202.581	 11	 -2.103980	 -0.913517	 1.621557	 2.168957	 -0.951619	 -0.166071	 -0.148167	 0.800909	 -0.438014	 0.380441	 2
1463630202.601	 12	 -1.462015	 1.076255	 1.554551	 2.190275	 -0.905985	 -0.146607	 -0.141335	 0.811860	 -0.418184	 0.382138	 2
1463630202.611	 12	 -0.722567	 1.990633	 1.515056	 2.206104	 -0.888196	 -0.149035	 -0.133172	 0.818190	 -0.412741	 0.377458	 2
1463630202.631	 13	 0.185715	 2.558506	 1.136218	 2.237397	 -0.867373	 -0.173908	 -0.111993	 0.829115	 -0.410999	 0.362086	 2
1463630202.641	 13	 -0.281063	 2.046076	 0.832838	 2.253938	 -0.859534	 -0.181112	 -0.103936	 0.833804	 -0.410050	 0.354723	 2
1463630202.651	 13	 -0.924824	 1.666108	 0.683569	 2.272823	 -0.849039	 -0.178807	 -0.098846	 0.838785	 -0.406379	 0.348605	 2
1463630202.661	 13	 -1.017702	 1.700060	 0.634603	 2.293875	 -0.837416	 -0.173444	 -0.094461	 0.844122	 -0.401754	 0.342241	 2
1463630202.671	 13	 -0.659622	 1.242927	 0.516392	 2.309973	 -0.828184	 -0.170409	 -0.090665	 0.848267	 -0.398208	 0.337126	 2
1463630202.681	 13	 -0.136171	 0.818981	 0.348025	 2.318278	 -0.823484	 -0.171382	 -0.087665	 0.850490	 -0.396810	 0.333952	 2
1463630202.691	 13	 0.197518	 0.841650	 0.235557	 2.323450	 -0.822519	 -0.175427	 -0.084727	 0.851685	 -0.397308	 0.331060	 2
1463630202.701	 13	 0.287752	 1.032270	 0.157679	 2.329879	 -0.823107	 -0.180151	 -0.081550	 0.852841	 -0.398596	 0.327312	 2
1463630202.711	 13	 0.330331	 1.082564	 0.070383	 2.337497	 -0.824642	 -0.184456	 -0.078492	 0.853996	 -0.400233	 0.323022	 2
1463630202.721	 13	 0.400539	 1.080896	 0.015403	 2.345127	 -0.827098	 -0.188766	 -0.075599	 0.854975	 -0.402232	 0.318610	 2
1463630202.731	 13	 0.571059	 1.081039	 -0.042566	 2.352134	 -0.830944	 -0.193969	 -0.072705	 0.855630	 -0.404902	 0.314111	 2
1463630202.741	 13	 0.824862	 1.082073	 -0.090594	 2.357629	 -0.836871	 -0.201103	 -0.069678	 0.855740	 -0.408656	 0.309604	 2
1463630202.751	 13	 1.064239	 1.160007	 -0.100479	 2.361827	 -0.844730	 -0.210708	 -0.066219	 0.855377	 -0.413510	 0.304886	 2
1463630202.761	 13	 1.223495	 1.213770	 -0.102431	 2.365217	 -0.853921	 -0.222235	 -0.062353	 0.854690	 -0.419136	 0.299904	 2
1463630202.771	 13	 1.281952	 1.212113	 -0.160507	 2.368168	 -0.863984	 -0.234362	 -0.058489	 0.853764	 -0.425146	 0.294815	 2
1463630202.781	 13	 1.257779	 1.129725	 -0.237798	 2.371137	 -0.874611	 -0.245597	 -0.055109	 0.852677	 -0.431204	 0.289773	 2
1463630202.791	 13	 1.206508	 0.909573	 -0.256452	 2.372848	 -0.885131	 -0.256032	 -0.052325	 0.851366	 -0.437022	 0.285393	 2
1463630202.801	 13	 1.219938	 0.590444	 -0.257407	 2.371431	 -0.895589	 -0.266415	 -0.050249	 0.849593	 -0.442686	 0.282304	 2
1463630202.811	 13	 1.422530	 0.341906	 -0.274273	 2.365891	 -0.907182	 -0.278627	 -0.048570	 0.847066	 -0.448926	 0.280332	 2
1463630202.821	 13	 1.846371	 0.251523	 -0.392841	 2.355923	 -0.921951	 -0.294390	 -0.047091	 0.843425	 -0.456779	 0.278873	 2
1463630202.831	 13	 2.497842	 0.372843	 -0.413371	 2.341305	 -0.941218	 -0.317058	 -0.044829	 0.838476	 -0.467185	 0.276923	 2
1463630202.841	 13	 3.283091	 0.407995	 -0.235504	 2.316427	 -0.964544	 -0.352435	 -0.040811	 0.831636	 -0.480572	 0.275258	 2
1463630202.851	 13	 3.763333	 0.294843	 -0.097926	 2.280256	 -0.989922	 -0.400002	 -0.035485	 0.823090	 -0.496006	 0.274302	 2
1463630202.861	 13	 3.438871	 0.681316	 -0.029691	 2.242564	 -1.013263	 -0.450983	 -0.029432	 0.814727	 -0.510917	 0.272612	 2
1463630202.871	 13	 1.542485	 1.999517	 0.283646	 2.229947	 -1.024787	 -0.484809	 -0.021656	 0.811509	 -0.519433	 0.266784	 2
1463630202.881	 13	 -0.459790	 2.353244	 0.877751	 2.247412	 -1.018841	 -0.492858	 -0.012436	 0.814868	 -0.518529	 0.258774	 2
1463630202.891	 13	 -1.183676	 1.405150	 1.113962	 2.266144	 -1.003555	 -0.490211	 -0.005098	 0.819809	 -0.512795	 0.254809	 2
1463630202.901	 13	 -1.033208	 0.676735	 0.903379	 2.277733	 -0.989042	 -0.486291	 -0.000388	 0.823680	 -0.507055	 0.253861	 2
1463630202.911	 13	 -0.712089	 0.172083	 0.671011	 2.282668	 -0.978457	 -0.483952	 0.002329	 0.826045	 -0.502891	 0.254448	 2
1463630202.921	 13	 -0.524970	 -0.374572	 0.605678	 2.280686	 -0.970141	 -0.483475	 0.003546	 0.827144	 -0.499785	 0.256974	 2
1463630202.931	 13	 -0.388156	 -0.765453	 0.586995	 2.272888	 -0.962877	 -0.484648	 0.003763	 0.827296	 -0.497286	 0.261294	 2
1463630202.941	 13	 -0.256066	 -0.928496	 0.451108	 2.262615	 -0.957230	 -0.486315	 0.003216	 0.826830	 -0.495454	 0.266209	 2
1463630202.951	 13	 -0.203121	 -1.048386	 0.220392	 2.252085	 -0.953747	 -0.486628	 0.001556	 0.825958	 -0.494234	 0.271152	 2
1463630202.961	 13	 -0.224716	 -1.184639	 0.049856	 2.242456	 -0.951735	 -0.484512	 -0.001219	 0.824952	 -0.493211	 0.276036	 2
1463630202.971	 13	 -0.268250	 -1.322080	 -0.000069	 2.232070	 -0.950137	 -0.481248	 -0.004743	 0.823745	 -0.492158	 0.281429	 2
1463630202.981	 13	 -0.437020	 -1.200775	 0.085659	 2.223586	 -0.947282	 -0.476440	 -0.008123	 0.822960	 -0.490409	 0.286652	 2
1463630202.991	 13	 -0.449997	 -1.225301	 0.071689	 2.215856	 -0.943774	 -0.471207	 -0.011324	 0.822349	 -0.488339	 0.291786	 2
1463630203.001	 13	 -0.458236	 -1.414202	 -0.166597	 2.207913	 -0.941910	 -0.464028	 -0.015760	 0.821413	 -0.486550	 0.297156	 2
1463630203.011	 13	 -0.619794	 -1.323797	 -0.378567	 2.203385	 -0.941225	 -0.452859	 -0.021279	 0.820735	 -0.484586	 0.301857	 2
1463630203.021	 13	 -0.846420	 -1.103616	 -0.468332	 2.204049	 -0.940171	 -0.437525	 -0.027157	 0.820811	 -0.481881	 0.305487	 2
1463630203.031	 13	 -0.973065	 -0.768510	 -0.509939	 2.210066	 -0.938559	 -0.419485	 -0.032735	 0.821713	 -0.478613	 0.307645	 2
1463630203.041	 13	 -0.620925	 -0.188021	 -0.401027	 2.218576	 -0.937544	 -0.404656	 -0.036561	 0.822925	 -0.476104	 0.307869	 2
1463630203.051	 13	 0.156258	 0.064011	 -0.093180	 2.220741	 -0.938766	 -0.402501	 -0.037219	 0.823024	 -0.476266	 0.307273	 2
1463630203.061	 13	 0.335282	 -0.141557	 0.085593	 2.215805	 -0.940351	 -0.407767	 -0.036603	 0.822111	 -0.477572	 0.307763	 2
1463630203.071	 13	 -0.201969	 -0.570720	 -0.057600	 2.211725	 -0.940177	 -0.407162	 -0.037785	 0.821498	 -0.477338	 0.309616	 2
1463630203.081	 13	 -0.742516	 -1.389879	 -0.299245	 2.209086	 -0.938303	 -0.396167	 -0.042485	 0.821162	 -0.474879	 0.313652	 2
1463630203.091	 13	 -0.821398	 -2.220626	 -0.633478	 2.202202	 -0.937780	 -0.379399	 -0.050870	 0.819763	 -0.471865	 0.320538	 2
1463630203.101	 13	 -0.588545	 -2.596865	 -0.940617	 2.191177	 -0.940954	 -0.361760	 -0.061434	 0.816968	 -0.469871	 0.328648	 2
1463630203.111	 13	 -0.260202	 -2.721657	 -1.149263	 2.176731	 -0.947988	 -0.346199	 -0.072838	 0.812898	 -0.469404	 0.336974	 2
1463630203.121	 13	 0.036696	 -2.544961	 -1.303674	 2.161097	 -0.958263	 -0.333378	 -0.084161	 0.808039	 -0.470397	 0.344554	 2
1463630203.131	 13	 0.328300	 -2.135304	 -1.455871	 2.146807	 -0.971485	 -0.323435	 -0.094716	 0.802901	 -0.472880	 0.350376	 2
1463630203.141	 13	 0.650034	 -1.646193	 -1.639563	 2.134765	 -0.987947	 -0.316609	 -0.104289	 0.797641	 -0.477074	 0.353966	 2
1463630203.151	 13	 0.997295	 -1.162584	 -1.838450	 2.124642	 -1.007936	 -0.313391	 -0.112855	 0.792207	 -0.483172	 0.355269	 2
1463630203.161	 13	 1.258077	 -0.723083	 -1.994364	 2.116307	 -1.030953	 -0.313430	 -0.120482	 0.786658	 -0.490921	 0.354471	 2
1463630203.171	 13	 1.314961	 -0.400157	 -2.028090	 2.110244	 -1.055103	 -0.315017	 -0.127266	 0.781317	 -0.499367	 0.352107	 2
1463630203.191	 14	 0.979301	 -0.448886	 -1.843375	 2.104126	 -1.099846	 -0.314094	 -0.140116	 0.771821	 -0.514393	 0.346497	 2
1463630203.201	 14	 0.822320	 -0.832285	 -1.682515	 2.099535	 -1.119045	 -0.311082	 -0.147149	 0.767107	 -0.520147	 0.345459	 2
1463630203.211	 14	 0.736810	 -1.207512	 -1.539252	 2.091151	 -1.136421	 -0.307938	 -0.154786	 0.762011	 -0.524898	 0.346213	 2
1463630203.221	 14	 0.694326	 -1.439890	 -1.480296	 2.080009	 -1.152826	 -0.304946	 -0.162876	 0.756577	 -0.529038	 0.348110	 2
1463630203.231	 14	 0.723958	 -1.693336	 -1.510623	 2.066016	 -1.169381	 -0.302506	 -0.171587	 0.750599	 -0.532980	 0.350844	 2
1463630203.241	 14	 0.813704	 -2.038942	 -1.611604	 2.047495	 -1.187069	 -0.301434	 -0.181327	 0.743648	 -0.537002	 0.354595	 2
1463630203.251	 14	 0.867260	 -2.356853	 -1.721605	 2.024514	 -1.206084	 -0.301642	 -0.192206	 0.735680	 -0.541081	 0.359253	 2
1463630203.261	 14	 0.819864	 -2.625185	 -1.782306	 1.998852	 -1.225665	 -0.301700	 -0.204115	 0.727018	 -0.544810	 0.364642	 2
1463630203.271	 14	 0.716128	 -2.858153	 -1.829399	 1.972334	 -1.245271	 -0.300130	 -0.216956	 0.717932	 -0.547882	 0.370580	 2
1463630203.291	 15	 0.501039	 -3.238922	 -2.062340	 1.921444	 -1.286226	 -0.288196	 -0.245834	 0.698416	 -0.552252	 0.383144	 2
1463630203.301	 15	 0.381981	 -3.296608	 -2.144963	 1.900105	 -1.306789	 -0.276212	 -0.261285	 0.688422	 -0.553354	 0.389365	 2
1463630203.311	 15	 0.311656	 -3.245587	 -2.177974	 1.882366	 -1.327568	 -0.260801	 -0.276918	 0.678403	 -0.554049	 0.395114	 2
1463630203.321	 15	 0.284245	 -2.976168	 -2.144315	 1.868238	 -1.348131	 -0.243962	 -0.291887	 0.668702	 -0.554668	 0.399979	 2
1463630203.331	 15	 0.324869	 -2.573684	 -2.067386	 1.855553	 -1.369022	 -0.229542	 -0.305636	 0.659345	 -0.555888	 0.403534	 2
1463630203.341	 15	 0.454321	 -2.157291	 -1.943142	 1.840034	 -1.389160	 -0.222342	 -0.317543	 0.650531	 -0.557736	 0.406086	 2
1463630203.351	 15	 0.576163	 -1.769601	 -1.820164	 1.818071	 -1.408452	 -0.225716	 -0.327617	 0.642221	 -0.560269	 0.407821	 2
1463630203.361	 15	 0.696055	 -1.328846	 -1.713728	 1.787457	 -1.426882	 -0.242063	 -0.335861	 0.634518	 -0.563542	 0.408663	 2
1463630203.371	 15	 0.913358	 -0.596964	 -1.609694	 1.741757	 -1.444620	 -0.279894	 -0.341648	 0.627679	 -0.568159	 0.408033	 2
1463630203.381	 15	 1.299063	 0.295207	 -1.481121	 1.657981	 -1.461086	 -0.365327	 -0.343578	 0.621869	 -0.575171	 0.405477	 2
1463630203.391	 15	 1.520846	 0.528143	 -1.537370	 1.521653	 -1.476547	 -0.507446	 -0.343822	 0.616015	 -0.583662	 0.402058	 2
1463630203.401	 15	 1.600785	 0.381328	 -1.656666	 1.318456	 -1.490319	 -0.715727	 -0.344362	 0.609409	 -0.592522	 0.398689	 2
1463630203.411	 15	 1.602324	 0.107299	 -1.749819	 1.035856	 -1.500245	 -1.000950	 -0.345872	 0.602000	 -0.601130	 0.395741	 2
1463630203.421	 15	 1.565285	 -0.273411	 -1.756237	 0.693418	 -1.503467	 -1.342443	 -0.348554	 0.593835	 -0.609012	 0.393669	 2
1463630203.431	 15	 1.498493	 -0.710744	 -1.662740	 0.366776	 -1.498876	 -1.663868	 -0.352389	 0.585049	 -0.615761	 0.392910	 2
1463630203.441	 15	 1.383150	 -1.090013	 -1.502204	 0.117479	 -1.488773	 -1.903819	 -0.357202	 0.575954	 -0.621127	 0.393554	 2
1463630203.451	 15	 1.234433	 -1.358111	 -1.278528	 -0.051676	 -1.476449	 -2.060636	 -0.362547	 0.567026	 -0.625077	 0.395373	 2
1463630203.461	 15	 0.978019	 -1.667915	 -0.982896	 -0.161405	 -1.464788	 -2.155008	 -0.368392	 0.558632	 -0.627269	 0.398435	 2
1463630203.471	 15	 0.290056	 -1.903562	 -0.609279	 -0.234558	 -1.458559	 -2.209848	 -0.375213	 0.552039	 -0.626591	 0.402308	 2
1463630203.481	 15	 -0.606276	 -1.750326	 -0.228098	 -0.289650	 -1.461527	 -2.247072	 -0.382541	 0.549006	 -0.622728	 0.405543	 2
1463630203.491	 15	 -1.092976	 -1.297168	 0.023350	 -0.335883	 -1.470980	 -2.279215	 -0.389079	 0.549160	 -0.617281	 0.407438	 2
1463630203.501	 15	 -1.182631	 -0.697435	 0.113906	 -0.378208	 -1.482360	 -2.313233	 -0.393809	 0.551249	 -0.612185	 0.407761	 2
1463630203.511	 15	 -0.975675	 0.074081	 0.252504	 -0.403498	 -1.492737	 -2.337684	 -0.395628	 0.554634	 -0.608714	 0.406603	 2
1463630203.521	 15	 -1.220111	 -0.200526	 0.566477	 -0.403654	 -1.504900	 -2.337138	 -0.396770	 0.558834	 -0.604489	 0.406044	 2
1463630203.531	 15	 -1.944657	 -0.724314	 0.938797	 -0.391960	 -1.524342	 -2.319136	 -0.399842	 0.564507	 -0.596594	 0.406858	 2
1463630203.541	 15	 -2.423927	 -0.535756	 1.226085	 -0.313605	 -1.550300	 -2.234505	 -0.403139	 0.572478	 -0.586338	 0.407377	 2
1463630203.551	 15	 -2.589034	 0.039463	 1.425779	 2.251853	 -1.561213	 0.332092	 -0.404672	 0.582458	 -0.575944	 0.406537	 2
1463630203.561	 15	 -2.755197	 0.675869	 1.555710	 2.544508	 -1.530584	 0.619711	 -0.404229	 0.594325	 -0.565894	 0.403907	 2
1463630203.571	 15	 -2.763701	 1.541008	 1.610728	 2.587759	 -1.498545	 0.649969	 -0.401337	 0.607970	 -0.556950	 0.398883	 2
1463630203.581	 15	 -2.468790	 2.766340	 1.590787	 2.607395	 -1.468384	 0.645191	 -0.394719	 0.623051	 -0.550777	 0.390704	 2
1463630203.591	 15	 -2.042230	 4.087951	 1.553543	 2.622196	 -1.441954	 0.622213	 -0.383603	 0.639233	 -0.548311	 0.378925	 2
1463630203.601	 15	 -1.639045	 5.198035	 1.525193	 2.636682	 -1.419163	 0.586942	 -0.368278	 0.656105	 -0.549076	 0.363886	 2
1463630203.621	 16	 -1.172137	 5.644599	 1.400598	 2.665167	 -1.382519	 0.500393	 -0.331117	 0.688130	 -0.555204	 0.329524	 2
1463630203.631	 16	 -1.115775	 4.989748	 1.322608	 2.682218	 -1.366428	 0.465019	 -0.313869	 0.701741	 -0.557483	 0.313462	 2
1463630203.641	 16	 -1.099612	 4.167110	 1.264721	 2.695032	 -1.350933	 0.433436	 -0.298856	 0.713470	 -0.558319	 0.299875	 2
1463630203.651	 16	 -1.108172	 3.515930	 1.226763	 2.703643	 -1.335670	 0.404703	 -0.285811	 0.723741	 -0.557887	 0.288569	 2
1463630203.661	 16	 -1.221392	 3.138914	 1.112336	 2.713766	 -1.320080	 0.381995	 -0.274344	 0.733215	 -0.556442	 0.278395	 2
1463630203.671	 16	 -1.427492	 2.845409	 0.889721	 2.731308	 -1.303661	 0.369866	 -0.264585	 0.742311	 -0.554017	 0.268391	 2
1463630203.681	 16	 -1.618847	 2.321796	 0.622205	 2.755116	 -1.286531	 0.368892	 -0.257249	 0.750804	 -0.550482	 0.259010	 2
1463630203.691	 16	 -1.987491	 1.338863	 0.598151	 2.776146	 -1.266780	 0.373994	 -0.253028	 0.758795	 -0.544652	 0.252112	 2
1463630203.701	 16	 -2.165114	 0.305806	 0.632715	 2.786954	 -1.244558	 0.379592	 -0.251861	 0.766052	 -0.536406	 0.248996	 2
1463630203.711	 16	 -1.994475	 -0.579097	 0.851068	 2.782729	 -1.222544	 0.379044	 -0.252391	 0.772047	 -0.527051	 0.249919	 2
1463630203.721	 16	 -1.512734	 -1.047546	 0.982129	 2.765104	 -1.203694	 0.370342	 -0.253221	 0.776380	 -0.518256	 0.254014	 2
1463630203.731	 16	 -0.842647	 -1.393273	 1.098838	 2.736696	 -1.190248	 0.353971	 -0.253777	 0.778650	 -0.511269	 0.260587	 2
1463630203.741	 16	 -0.201320	 -1.535472	 1.256058	 2.697745	 -1.182017	 0.328264	 -0.253348	 0.779089	 -0.506365	 0.269127	 2
1463630203.751	 16	 0.246362	 -1.517879	 1.369558	 2.651704	 -1.177293	 0.295005	 -0.251768	 0.778317	 -0.503172	 0.278664	 2
1463630203.761	 16	 0.452388	 -1.320296	 1.418628	 2.603500	 -1.173969	 0.257793	 -0.249173	 0.777079	 -0.501050	 0.288114	 2
1463630203.771	 16	 0.445183	 -0.803433	 1.408579	 2.559709	 -1.170349	 0.220614	 -0.245390	 0.776287	 -0.499592	 0.295922	 2
1463630203.781	 16	 0.257714	 -0.000287	 1.349476	 2.526939	 -1.165232	 0.187320	 -0.240151	 0.776847	 -0.498507	 0.300544	 2
1463630203.791	 16	 0.019500	 0.909325	 1.284345	 2.508429	 -1.158279	 0.159702	 -0.233285	 0.779217	 -0.497665	 0.301211	 2
1463630203.801	 16	 -0.132055	 1.629442	 1.230552	 2.501940	 -1.150055	 0.136525	 -0.224929	 0.783104	 -0.497080	 0.298440	 2
1463630203.811	 16	 -0.133639	 1.984585	 1.215752	 2.501316	 -1.141646	 0.114861	 -0.215603	 0.787627	 -0.496827	 0.293806	 2
1463630203.821	 16	 -0.052117	 2.129570	 1.148183	 2.503022	 -1.134044	 0.093545	 -0.205857	 0.792115	 -0.497039	 0.288320	 2
1463630203.831	 16	 0.076028	 2.057815	 0.985469	 2.505749	 -1.128252	 0.073481	 -0.196509	 0.796027	 -0.497837	 0.282636	 2
1463630203.841	 16	 0.231000	 1.839846	 0.764676	 2.508452	 -1.124927	 0.055436	 -0.188229	 0.798998	 -0.499279	 0.277294	 2
1463630203.851	 16	 0.370830	 1.586758	 0.535162	 2.510788	 -1.124155	 0.039755	 -0.181275	 0.800966	 -0.501339	 0.272493	 2
1463630203.861	 16	 0.518259	 1.357080	 0.310062	 2.512778	 -1.125874	 0.026344	 -0.175618	 0.801992	 -0.504023	 0.268195	 2
1463630203.871	 16	 0.690533	 1.193252	 0.082162	 2.514758	 -1.130278	 0.014884	 -0.171085	 0.802123	 -0.507493	 0.264157	 2
1463630203.881	 16	 0.899931	 0.996215	 -0.163423	 2.516357	 -1.137725	 0.005114	 -0.167719	 0.801253	 -0.511901	 0.260426	 2
1463630203.891	 16	 1.130928	 0.856521	 -0.412925	 2.517690	 -1.148464	 -0.003132	 -0.165462	 0.799347	 -0.517377	 0.256880	 2
1463630203.901	 16	 1.370986	 0.802111	 -0.631871	 2.519062	 -1.162493	 -0.010480	 -0.163987	 0.796487	 -0.524016	 0.253226	 2
1463630203.911	 16	 1.579763	 0.923117	 -0.874491	 2.522398	 -1.179650	 -0.016413	 -0.162964	 0.792892	 -0.531831	 0.248841	 2
1463630203.921	 16	 1.773170	 1.239352	 -1.188698	 2.531600	 -1.200096	 -0.018919	 -0.162114	 0.788788	 -0.540941	 0.242725	 2
1463630203.931	 16	 1.776764	 1.422654	 -1.577093	 2.550900	 -1.223385	 -0.013267	 -0.161949	 0.784321	 -0.550958	 0.234644	 2
1463630203.941	 16	 1.234414	 1.328040	 -1.789600	 2.585060	 -1.244623	 0.008546	 -0.163457	 0.780586	 -0.559533	 0.225587	 2
1463630203.951	 16	 -0.165456	 1.781300	 -1.453466	 2.637992	 -1.255011	 0.047475	 -0.164848	 0.780275	 -0.563665	 0.215123	 2
1463630203.961	 16	 -1.132003	 1.713693	 -0.753999	 2.695429	 -1.250076	 0.088389	 -0.164265	 0.784355	 -0.562145	 0.204445	 2
1463630203.971	 16	 -0.617500	 0.443494	 -0.287508	 2.723855	 -1.244528	 0.110151	 -0.164436	 0.787042	 -0.560069	 0.199621	 2
1463630203.981	 16	 0.237576	 -0.461700	 0.049391	 2.721101	 -1.244968	 0.110281	 -0.165288	 0.786629	 -0.560005	 0.200723	 2
1463630203.991	 16	 0.516209	 -0.644756	 0.292518	 2.702796	 -1.248418	 0.097534	 -0.165658	 0.784832	 -0.561158	 0.204199	 2
1463630204.001	 16	 0.454900	 -0.812232	 0.639998	 2.673886	 -1.250314	 0.075060	 -0.165114	 0.783156	 -0.561844	 0.209130	 2
1463630204.011	 16	 0.236662	 -1.028736	 0.763512	 2.639995	 -1.249464	 0.049691	 -0.164629	 0.781895	 -0.561406	 0.215315	 2
1463630204.021	 16	 0.075824	 -1.195206	 0.769758	 2.606882	 -1.246542	 0.026995	 -0.164757	 0.780974	 -0.560011	 0.222087	 2
1463630204.031	 16	 0.111095	 -1.126668	 0.701880	 2.575522	 -1.243546	 0.006157	 -0.165071	 0.780001	 -0.558600	 0.228726	 2
1463630204.041	 16	 0.261775	 -0.972773	 0.570911	 2.547129	 -1.242038	 -0.013235	 -0.165264	 0.778735	 -0.557914	 0.234504	 2
1463630204.051	 16	 0.550693	 -0.965713	 0.489591	 2.517555	 -1.243027	 -0.034349	 -0.165430	 0.776699	 -0.558357	 0.240021	 2
1463630204.061	 16	 0.803299	 -1.047162	 0.506883	 2.482215	 -1.246056	 -0.060847	 -0.165446	 0.773768	 -0.559814	 0.246006	 2
1463630204.071	 16	 0.873877	 -1.105102	 0.612306	 2.441687	 -1.249180	 -0.092010	 -0.165231	 0.770449	 -0.561531	 0.252567	 2
1463630204.081	 16	 0.776858	 -0.898311	 0.928409	 2.396954	 -1.249752	 -0.128918	 -0.163704	 0.767607	 -0.562789	 0.259323	 2
1463630204.091	 16	 0.515666	 -0.356625	 1.158468	 2.355538	 -1.246178	 -0.167246	 -0.160052	 0.766208	 -0.563148	 0.264904	 2
1463630204.101	 16	 0.346102	 0.022472	 1.005739	 2.325550	 -1.241191	 -0.198501	 -0.155614	 0.765937	 -0.563141	 0.268325	 2
1463630204.111	 16	 0.399255	 -0.255045	 0.745845	 2.300035	 -1.237737	 -0.223947	 -0.152399	 0.765306	 -0.563372	 0.271463	 2
1463630204.121	 16	 0.116380	 -0.616585	 0.350612	 2.280490	 -1.235856	 -0.238795	 -0.151855	 0.764222	 -0.563247	 0.275059	 2
1463630204.131	 16	 -0.658379	 -0.212545	 -0.127002	 2.287318	 -1.232852	 -0.227667	 -0.153592	 0.765039	 -0.561171	 0.276066	 2
1463630204.141	 16	 -0.959602	 0.484504	 -0.488778	 2.317556	 -1.229764	 -0.199110	 -0.155474	 0.767738	 -0.558482	 0.272956	 2
1463630204.151	 16	 -0.950047	 0.633070	 -0.678251	 2.356065	 -1.227695	 -0.164914	 -0.157517	 0.770786	 -0.556117	 0.267975	 2
1463630204.161	 16	 -0.555044	 0.413023	 -0.648567	 2.387347	 -1.227463	 -0.136793	 -0.159641	 0.772774	 -0.554773	 0.263745	 2
1463630204.171	 16	 -0.031402	 0.066231	 -0.591342	 2.404553	 -1.230384	 -0.120244	 -0.161746	 0.772949	 -0.555072	 0.261311	 2
1463630204.181	 16	 0.441733	 -0.347485	 -0.542826	 2.407543	 -1.236524	 -0.114477	 -0.164138	 0.771268	 -0.556859	 0.260985	 2
1463630204.191	 16	 0.874645	 -0.670853	 -0.518697	 2.397719	 -1.245711	 -0.118530	 -0.166813	 0.767909	 -0.559999	 0.262468	 2
1463630204.201	 16	 1.270553	 -0.884868	 -0.536925	 2.376609	 -1.257898	 -0.131945	 -0.169636	 0.763055	 -0.564493	 0.265176	 2
1463630204.211	 16	 1.605569	 -1.062968	 -0.613971	 2.345745	 -1.272892	 -0.153641	 -0.172734	 0.756867	 -0.570204	 0.268669	 2
1463630204.221	 16	 1.919817	 -1.317824	 -0.723523	 2.304176	 -1.290560	 -0.184004	 -0.176434	 0.749294	 -0.576987	 0.272975	 2
1463630204.231	 16	 2.246214	 -1.693066	 -0.855617	 2.247912	 -1.310843	 -0.225877	 -0.181121	 0.740079	 -0.584758	 0.278452	 2
1463630204.241	 16	 2.545304	 -2.167436	 -1.027828	 2.172372	 -1.333496	 -0.282690	 -0.187275	 0.729005	 -0.593341	 0.285352	 2
1463630204.251	 16	 2.858934	 -2.720608	 -1.207294	 2.069909	 -1.357929	 -0.361419	 -0.195144	 0.715877	 -0.602587	 0.293817	 2
1463630204.261	 16	 2.912334	 -3.278002	 -1.340837	 1.934216	 -1.382183	 -0.467723	 -0.204977	 0.700935	 -0.611805	 0.303925	 2
1463630204.271	 16	 2.277533	 -3.443338	 -1.369887	 1.790499	 -1.402428	 -0.578865	 -0.216472	 0.686586	 -0.618873	 0.314223	 2
1463630204.281	 16	 1.504333	 -3.195692	 -1.267061	 1.672999	 -1.417625	 -0.664649	 -0.228464	 0.674972	 -0.622701	 0.323203	 2
1463630204.301	 17	 0.695595	 -1.330202	 -1.018851	 1.508932	 -1.439987	 -0.788245	 -0.245888	 0.659929	 -0.627339	 0.332382	 2
1463630204.311	 17	 0.788715	 -0.392159	 -0.989617	 1.436135	 -1.449145	 -0.855427	 -0.249841	 0.655312	 -0.630700	 0.332210	 2
1463630204.321	 17	 1.029849	 0.268759	 -0.981304	 1.342122	 -1.457077	 -0.951354	 -0.251058	 0.651236	 -0.635633	 0.329898	 2
1463630204.331	 17	 1.281110	 0.599829	 -0.986805	 1.216847	 -1.463009	 -1.082780	 -0.250540	 0.646982	 -0.641879	 0.326550	 2
1463630204.341	 17	 1.481604	 0.601108	 -1.022644	 1.060888	 -1.466194	 -1.245893	 -0.249455	 0.642099	 -0.648928	 0.323070	 2
1463630204.351	 17	 1.592032	 0.315231	 -1.092342	 0.883260	 -1.466227	 -1.428486	 -0.249070	 0.636273	 -0.656172	 0.320248	 2
1463630204.361	 17	 1.585032	 0.005373	 -1.143124	 0.702628	 -1.463100	 -1.610917	 -0.249854	 0.629729	 -0.663120	 0.318254	 2
1463630204.371	 17	 1.489083	 -0.174319	 -1.173802	 0.536031	 -1.457512	 -1.777115	 -0.251572	 0.622991	 -0.669545	 0.316707	 2
1463630204.381	 17	 1.348967	 -0.229319	 -1.188015	 0.390640	 -1.450409	 -1.921325	 -0.253786	 0.616497	 -0.675436	 0.315138	 2
1463630204.391	 17	 1.218819	 -0.229908	 -1.175164	 0.266773	 -1.442384	 -2.043810	 -0.256229	 0.610395	 -0.680821	 0.313445	 2
1463630204.401	 17	 1.128159	 -0.235879	 -1.155246	 0.161050	 -1.433631	 -2.148062	 -0.258783	 0.604606	 -0.685815	 0.311674	 2
1463630204.411	 17	 1.101629	 -0.253457	 -1.096562	 0.072191	 -1.423942	 -2.235342	 -0.261262	 0.598973	 -0.690552	 0.310017	 2
1463630204.431	 18	 1.108039	 -0.362076	 -0.965474	 -0.062108	 -1.401915	 -2.365095	 -0.266002	 0.587678	 -0.699424	 0.307706	 2
1463630204.441	 18	 1.133632	 -0.396984	 -0.928720	 -0.113172	 -1.389894	 -2.412962	 -0.268385	 0.581882	 -0.703624	 0.307077	 2
1463630204.461	 19	 1.182075	 -0.406907	 -0.810934	 -0.190486	 -1.364089	 -2.483497	 -0.272643	 0.570002	 -0.711937	 0.306446	 2
1463630204.471	 19	 1.134186	 -0.441324	 -0.736234	 -0.218099	 -1.351305	 -2.507346	 -0.274553	 0.564210	 -0.715762	 0.306550	 2
1463630204.481	 19	 1.025173	 -0.529875	 -0.671098	 -0.241855	 -1.339470	 -2.526570	 -0.276668	 0.558710	 -0.719085	 0.306943	 2
1463630204.491	 19	 0.876501	 -0.659752	 -0.600671	 -0.263437	 -1.329055	 -2.542300	 -0.279242	 0.553585	 -0.721708	 0.307742	 2
1463630204.501	 19	 0.695848	 -0.746239	 -0.573259	 -0.284928	 -1.320346	 -2.557038	 -0.282303	 0.548982	 -0.723636	 0.308666	 2
1463630204.511	 19	 0.515022	 -0.908963	 -0.498596	 -0.306470	 -1.313481	 -2.570353	 -0.285993	 0.544880	 -0.724740	 0.309944	 2
1463630204.521	 19	 0.332066	 -1.105417	 -0.382663	 -0.327382	 -1.308598	 -2.580981	 -0.290378	 0.541260	 -0.724876	 0.311888	 2
1463630204.531	 19	 0.174513	 -1.050473	 -0.349872	 -0.347838	 -1.305475	 -2.591020	 -0.294898	 0.538310	 -0.724410	 0.313828	 2
1463630204.541	 19	 0.061909	 -0.946920	 -0.342600	 -0.368295	 -1.303414	 -2.602179	 -0.299198	 0.535943	 -0.723759	 0.315307	 2
1463630204.551	 19	 -0.140084	 -0.812067	 -0.308679	 -0.388569	 -1.303000	 -2.614416	 -0.303235	 0.534423	 -0.722765	 0.316309	 2
1463630204.561	 19	 -0.378895	 -1.045923	 -0.239501	 -0.411391	 -1.304897	 -2.628186	 -0.307875	 0.533654	 -0.720876	 0.317433	 2
1463630204.571	 19	 -0.724177	 -1.699421	 -0.146657	 -0.442000	 -1.309928	 -2.644158	 -0.314793	 0.533235	 -0.717103	 0.319891	 2
1463630204.581	 19	 -1.181779	 -2.480668	 0.031237	 -0.483731	 -1.319310	 -2.663565	 -0.324749	 0.533284	 -0.710642	 0.324243	 2
1463630204.591	 19	 -1.741689	 -2.888417	 0.338191	 -0.534308	 -1.334512	 -2.686639	 -0.336634	 0.534738	 -0.701297	 0.330022	 2
1463630204.601	 19	 -2.296579	 -2.736273	 0.706798	 -0.590065	 -1.356068	 -2.715029	 -0.348358	 0.538629	 -0.689667	 0.335983	 2
1463630204.611	 19	 -2.751201	 -2.132473	 1.063813	 -0.649585	 -1.383283	 -2.752267	 -0.358062	 0.545497	 -0.676775	 0.340881	 2
1463630204.621	 19	 -3.038713	 -1.377222	 1.399467	 -0.714713	 -1.414712	 -2.802390	 -0.364816	 0.555162	 -0.663481	 0.344236	 2
1463630204.631	 19	 -3.170279	 -0.520943	 1.649443	 -0.792909	 -1.448584	 -2.873795	 -0.368222	 0.567130	 -0.650534	 0.345806	 2
1463630204.641	 19	 -3.232824	 0.384070	 1.754328	 -0.913072	 -1.482870	 -2.996252	 -0.368275	 0.580975	 -0.638606	 0.344998	 2
1463630204.651	 19	 -3.248404	 1.124632	 1.787999	 -1.169394	 -1.514939	 3.020495	 -0.365627	 0.596163	 -0.627715	 0.341877	 2
1463630204.661	 19	 -3.015645	 1.987107	 1.866470	 -1.820344	 -1.536827	 2.351448	 -0.359874	 0.612115	 -0.618418	 0.336697	 2
1463630204.671	 19	 -2.408975	 3.121105	 1.991105	 -2.747777	 -1.534466	 1.395188	 -0.349392	 0.628249	 -0.612170	 0.329358	 2
1463630204.681	 19	 -1.666471	 3.889691	 2.088776	 3.044208	 -1.518693	 0.866056	 -0.334401	 0.643500	 -0.609349	 0.320588	 2
1463630204.691	 19	 -1.100109	 3.956906	 2.199573	 2.780749	 -1.501639	 0.562257	 -0.317170	 0.657061	 -0.608417	 0.312255	 2
1463630204.701	 19	 -0.856179	 3.490511	 2.371092	 2.599555	 -1.483359	 0.344093	 -0.299801	 0.668972	 -0.607467	 0.305908	 2
1463630204.711	 19	 -0.979891	 2.694334	 2.532085	 2.473915	 -1.461515	 0.188564	 -0.283963	 0.679843	 -0.604814	 0.302289	 2
1463630204.721	 19	 -1.403637	 1.763942	 2.544169	 2.402819	 -1.435175	 0.096936	 -0.271172	 0.690250	 -0.599317	 0.301399	 2
1463630204.731	 19	 -1.854941	 1.013236	 2.389774	 2.376062	 -1.405774	 0.057892	 -0.261814	 0.700482	 -0.591146	 0.302198	 2
1463630204.741	 19	 -2.131679	 0.436079	 2.184319	 2.372480	 -1.375310	 0.048413	 -0.255384	 0.710326	 -0.581181	 0.304047	 2
1463630204.751	 19	 -2.172010	 -0.057445	 2.020213	 2.374511	 -1.345384	 0.049907	 -0.251191	 0.719277	 -0.570341	 0.307011	 2
1463630204.761	 19	 -2.023249	 -0.336208	 1.920405	 2.373327	 -1.316994	 0.051608	 -0.248167	 0.727113	 -0.559497	 0.310938	 2
1463630204.771	 19	 -1.760328	 -0.415170	 1.844909	 2.367095	 -1.290904	 0.049329	 -0.245347	 0.733848	 -0.549406	 0.315317	 2
1463630204.781	 19	 -1.482633	 -0.333313	 1.804886	 2.356775	 -1.267127	 0.042351	 -0.242114	 0.739705	 -0.540373	 0.319711	 2
1463630204.791	 19	 -1.275063	 -0.207457	 1.790394	 2.344434	 -1.245114	 0.031975	 -0.238253	 0.744996	 -0.532297	 0.323848	 2
1463630204.801	 19	 -1.127382	 0.112199	 1.782491	 2.333039	 -1.224182	 0.019718	 -0.233421	 0.750206	 -0.525062	 0.327132	 2
1463630204.811	 19	 -1.031858	 0.511339	 1.713968	 2.325754	 -1.204396	 0.007416	 -0.227517	 0.755636	 -0.518761	 0.328844	 2
1463630204.821	 19	 -1.009836	 0.739222	 1.613583	 2.322917	 -1.185508	 -0.003031	 -0.221189	 0.761220	 -0.512994	 0.329328	 2
1463630204.831	 19	 -0.975462	 0.880832	 1.501631	 2.323626	 -1.167604	 -0.011481	 -0.214801	 0.766804	 -0.507637	 0.328902	 2
1463630204.841	 19	 -0.915794	 0.940595	 1.406815	 2.326072	 -1.150799	 -0.018966	 -0.208480	 0.772200	 -0.502687	 0.327947	 2
1463630204.851	 19	 -0.806077	 0.977870	 1.311353	 2.328969	 -1.135334	 -0.026383	 -0.202263	 0.777247	 -0.498245	 0.326692	 2
1463630204.861	 19	 -0.622619	 1.057302	 1.192195	 2.331840	 -1.121837	 -0.034691	 -0.196013	 0.781824	 -0.494667	 0.325015	 2
1463630204.871	 19	 -0.408335	 1.134312	 1.045037	 2.334513	 -1.110818	 -0.044102	 -0.189775	 0.785811	 -0.492176	 0.322878	 2
1463630204.881	 19	 -0.202346	 1.257133	 0.904771	 2.337429	 -1.102295	 -0.054510	 -0.183488	 0.789275	 -0.490808	 0.320131	 2
1463630204.891	 19	 -0.000270	 1.432279	 0.791671	 2.340865	 -1.096060	 -0.066219	 -0.176932	 0.792344	 -0.490555	 0.316610	 2
1463630204.901	 19	 0.187982	 1.610719	 0.687248	 2.344922	 -1.091945	 -0.079280	 -0.170034	 0.795076	 -0.491357	 0.312268	 2
1463630204.911	 19	 0.340903	 1.777456	 0.568102	 2.350019	 -1.089796	 -0.093093	 -0.162903	 0.797513	 -0.493083	 0.307091	 2
1463630204.921	 19	 0.444359	 1.900421	 0.406350	 2.356952	 -1.089580	 -0.106442	 -0.155821	 0.799680	 -0.495581	 0.301049	 2
1463630204.931	 19	 0.490427	 1.916602	 0.163106	 2.366526	 -1.091401	 -0.117284	 -0.149421	 0.801513	 -0.498635	 0.294302	 2
1463630204.941	 19	 0.532273	 1.770659	 -0.144491	 2.378624	 -1.095588	 -0.124129	 -0.144379	 0.802808	 -0.502148	 0.287230	 2
1463630204.951	 19	 0.621366	 1.483976	 -0.480452	 2.391855	 -1.102629	 -0.126800	 -0.141185	 0.803240	 -0.506214	 0.280391	 2
1463630204.961	 19	 0.754078	 1.167394	 -0.814940	 2.405367	 -1.112871	 -0.125613	 -0.139961	 0.802625	 -0.510988	 0.274037	 2
1463630204.971	 19	 0.915115	 0.943523	 -1.113641	 2.419307	 -1.126331	 -0.121134	 -0.140412	 0.800992	 -0.516597	 0.267998	 2
1463630204.981	 19	 1.073019	 0.879894	 -1.317037	 2.434269	 -1.142489	 -0.114389	 -0.141839	 0.798580	 -0.523042	 0.261877	 2
1463630204.991	 19	 1.245840	 0.948876	 -1.414884	 2.450378	 -1.160678	 -0.107048	 -0.143389	 0.795638	 -0.530304	 0.255299	 2
1463630205.001	 19	 1.558880	 0.788502	 -1.403116	 2.462772	 -1.180946	 -0.102837	 -0.144858	 0.791780	 -0.538512	 0.249210	 2
1463630205.011	 19	 1.912470	 0.161205	 -1.374730	 2.464112	 -1.203933	 -0.105051	 -0.147096	 0.786193	 -0.547729	 0.245471	 2
1463630205.021	 19	 1.791004	 -0.454457	 -1.400716	 2.458657	 -1.227166	 -0.107396	 -0.151192	 0.779625	 -0.556469	 0.244272	 2
1463630205.031	 19	 0.049675	 1.087248	 -1.004587	 2.477940	 -1.239371	 -0.091963	 -0.153623	 0.777536	 -0.560707	 0.239677	 2
1463630205.041	 19	 -0.870625	 1.946372	 -0.241480	 2.520712	 -1.235504	 -0.067248	 -0.150740	 0.781725	 -0.559578	 0.230339	 2
1463630205.051	 19	 -0.154123	 0.895297	 0.309486	 2.534688	 -1.231370	 -0.065101	 -0.147126	 0.784282	 -0.558779	 0.225882	 2
1463630205.061	 19	 0.812107	 -0.243857	 0.697592	 2.511148	 -1.232518	 -0.090319	 -0.143985	 0.783136	 -0.560369	 0.227932	 2
1463630205.071	 19	 1.391366	 -1.253351	 0.767350	 2.461091	 -1.238006	 -0.132730	 -0.142293	 0.778916	 -0.563781	 0.234933	 2
1463630205.081	 19	 1.292132	 -2.017915	 0.604432	 2.402255	 -1.244050	 -0.175223	 -0.143412	 0.773314	 -0.566929	 0.244967	 2
1463630205.091	 19	 0.870793	 -2.050957	 0.424482	 2.351325	 -1.247901	 -0.206961	 -0.146319	 0.768265	 -0.568612	 0.255031	 2
1463630205.101	 19	 0.539650	 -1.660751	 0.418207	 2.311822	 -1.249166	 -0.229854	 -0.149020	 0.764518	 -0.569116	 0.263460	 2
1463630205.111	 19	 0.412014	 -0.918813	 0.449669	 2.282007	 -1.248653	 -0.249469	 -0.149918	 0.762138	 -0.569320	 0.269341	 2
1463630205.121	 19	 0.410921	 -0.141154	 0.324760	 2.262407	 -1.248515	 -0.266697	 -0.148914	 0.760807	 -0.570138	 0.271919	 2
1463630205.131	 19	 0.380056	 0.414463	 0.222557	 2.251634	 -1.249167	 -0.281161	 -0.146624	 0.760256	 -0.571534	 0.271774	 2
1463630205.141	 19	 0.195801	 0.371376	 0.366573	 2.244123	 -1.248368	 -0.293687	 -0.143842	 0.760334	 -0.572414	 0.271189	 2
1463630205.151	 19	 -0.187105	 -0.275298	 0.651645	 2.234568	 -1.243123	 -0.302675	 -0.142033	 0.760900	 -0.571158	 0.273197	 2
1463630205.161	 19	 -0.196897	 -0.733971	 0.612292	 2.221847	 -1.236689	 -0.309364	 -0.141716	 0.761106	 -0.568979	 0.277304	 2
1463630205.171	 19	 0.006454	 -0.945107	 0.473205	 2.205207	 -1.232322	 -0.317354	 -0.142441	 0.760338	 -0.567430	 0.282171	 2
1463630205.181	 19	 0.285264	 -0.687065	 0.235514	 2.187465	 -1.231090	 -0.327871	 -0.143203	 0.758844	 -0.567241	 0.286157	 2
1463630205.191	 19	 0.823982	 -0.479165	 -0.064590	 2.166693	 -1.234815	 -0.344597	 -0.143625	 0.756236	 -0.569399	 0.288555	 2
1463630205.201	 19	 0.815483	 -0.566249	 -0.489500	 2.145087	 -1.242929	 -0.361634	 -0.145272	 0.752572	 -0.572973	 0.290230	 2
1463630205.211	 19	 -0.273204	 0.160713	 -0.857996	 2.156230	 -1.249601	 -0.348917	 -0.148430	 0.751792	 -0.574134	 0.288355	 2
1463630205.221	 19	 -0.901352	 1.046456	 -0.998820	 2.201931	 -1.253005	 -0.309847	 -0.150811	 0.754615	 -0.573115	 0.281693	 2
1463630205.231	 19	 -0.720460	 1.364141	 -0.971861	 2.252340	 -1.255972	 -0.270514	 -0.151886	 0.757937	 -0.572483	 0.273359	 2
1463630205.241	 19	 -0.491289	 1.785488	 -1.004040	 2.301315	 -1.260037	 -0.236414	 -0.151630	 0.760937	 -0.573036	 0.263842	 2
1463630205.251	 19	 -0.501456	 2.432496	 -1.108770	 2.358326	 -1.264477	 -0.200403	 -0.149846	 0.764453	 -0.574272	 0.251735	 2
1463630205.261	 19	 -0.478304	 3.243285	 -1.348684	 2.429359	 -1.269533	 -0.157855	 -0.146591	 0.768640	 -0.576188	 0.236032	 2
1463630205.271	 19	 0.185691	 3.046113	 -1.868932	 2.506900	 -1.279802	 -0.110537	 -0.143945	 0.771230	 -0.580261	 0.218590	 2
1463630205.281	 19	 1.704280	 0.722797	 -2.335407	 2.559086	 -1.303487	 -0.070777	 -0.147126	 0.767230	 -0.588741	 0.207594	 2
1463630205.291	 19	 2.498856	 -1.609262	 -2.100782	 2.569691	 -1.335381	 -0.048389	 -0.156374	 0.757372	 -0.599217	 0.207061	 2
1463630205.301	 19	 2.437988	 -2.393528	 -1.445712	 2.546144	 -1.365032	 -0.049191	 -0.166727	 0.746176	 -0.608415	 0.212734	 2
1463630205.321	 20	 1.956523	 -1.994347	 -1.155378	 2.463207	 -1.412397	 -0.088795	 -0.183864	 0.726361	 -0.622604	 0.225739	 2
1463630205.331	 20	 1.707071	 -1.650595	 -1.227808	 2.432290	 -1.433858	 -0.102422	 -0.191692	 0.717668	 -0.628774	 0.229892	 2
1463630205.341	 20	 1.319721	 -1.200531	 -1.215985	 2.417946	 -1.452625	 -0.103634	 -0.198553	 0.710459	 -0.633991	 0.232120	 2
1463630205.351	 20	 0.909025	 -0.735396	 -1.188897	 2.431127	 -1.468076	 -0.081776	 -0.204338	 0.705061	 -0.638081	 0.232351	 2
1463630205.361	 20	 0.659355	 -0.287817	 -1.170835	 2.474580	 -1.480996	 -0.034189	 -0.208900	 0.701135	 -0.641519	 0.230702	 2
1463630205.371	 20	 0.670418	 0.032202	 -1.183940	 2.541338	 -1.493226	 0.033220	 -0.212406	 0.697751	 -0.645104	 0.227745	 2
1463630205.381	 20	 0.773168	 0.097827	 -1.186355	 2.627743	 -1.505919	 0.118851	 -0.215366	 0.694152	 -0.649177	 0.224365	 2
1463630205.391	 20	 0.799937	 -0.094888	 -1.203302	 2.752086	 -1.518322	 0.243626	 -0.218699	 0.690240	 -0.653238	 0.221402	 2
1463630205.401	 20	 0.829158	 -0.653656	 -1.242860	 2.949426	 -1.529793	 0.446191	 -0.223671	 0.685631	 -0.656873	 0.219998	 2
1463630205.411	 20	 0.857805	 -1.129277	 -1.257128	 -3.004875	 -1.538738	 0.785596	 -0.230424	 0.680281	 -0.659981	 0.220337	 2
1463630205.421	 20	 0.913611	 -1.363853	 -1.168141	 -2.531514	 -1.542871	 1.272109	 -0.237769	 0.674469	 -0.662841	 0.221810	 2
1463630205.431	 20	 0.943605	 -1.666203	 -1.048653	 -2.052661	 -1.540958	 1.766938	 -0.245562	 0.668291	 -0.665287	 0.224679	 2
1463630205.441	 20	 0.912410	 -1.988010	 -0.997022	 -1.713378	 -1.534101	 2.125583	 -0.254249	 0.661788	 -0.667098	 0.228852	 2
1463630205.451	 20	 0.870188	 -2.110246	 -1.003120	 -1.512292	 -1.524492	 2.347822	 -0.263501	 0.655144	 -0.668427	 0.233578	 2
1463630205.461	 20	 0.857627	 -1.990608	 -1.083961	 -1.392980	 -1.512893	 2.487583	 -0.272733	 0.648459	 -0.669762	 0.237775	 2
1463630205.471	 20	 0.871798	 -1.870950	 -1.151180	 -1.318271	 -1.499945	 2.581523	 -0.281738	 0.641701	 -0.671276	 0.241313	 2
1463630205.481	 20	 0.911348	 -1.811896	 -1.205329	 -1.267189	 -1.486000	 2.650901	 -0.290527	 0.634770	 -0.673012	 0.244368	 2
1463630205.491	 20	 0.980679	 -1.793182	 -1.236665	 -1.228884	 -1.471280	 2.707458	 -0.299300	 0.627506	 -0.674898	 0.247322	 2
1463630205.501	 20	 1.084756	 -1.715489	 -1.187824	 -1.193595	 -1.456264	 2.760420	 -0.307616	 0.619940	 -0.677061	 0.250268	 2
1463630205.511	 20	 1.173988	 -1.674486	 -1.070985	 -1.158021	 -1.441642	 2.813176	 -0.315253	 0.612194	 -0.679391	 0.253499	 2
1463630205.521	 20	 1.197718	 -1.727876	 -0.943797	 -1.125244	 -1.427785	 2.863510	 -0.322507	 0.604383	 -0.681552	 0.257288	 2
1463630205.531	 20	 1.179377	 -1.873704	 -0.820300	 -1.098165	 -1.414892	 2.909444	 -0.329788	 0.596571	 -0.683223	 0.261818	 2
1463630205.541	 20	 1.143129	 -1.767201	 -0.668721	 -1.073983	 -1.403237	 2.952304	 -0.336563	 0.589050	 -0.684562	 0.266685	 2
1463630205.551	 20	 1.086650	 -1.647903	 -0.521110	 -1.050826	 -1.393062	 2.992785	 -0.342419	 0.582089	 -0.685691	 0.271568	 2
1463630205.561	 20	 0.929867	 -1.468186	 -0.442403	 -1.032964	 -1.384097	 3.026380	 -0.347637	 0.575851	 -0.686543	 0.276047	 2
1463630205.571	 20	 0.648405	 -1.277234	 -0.331599	 -1.023396	 -1.377280	 3.049581	 -0.352188	 0.570892	 -0.686813	 0.279882	 2
1463630205.581	 20	 0.298641	 -1.037582	 -0.279431	 -1.025492	 -1.372790	 3.058690	 -0.356264	 0.567504	 -0.686364	 0.282702	 2
1463630205.591	 20	 0.047138	 -0.797013	 -0.207859	 -1.035567	 -1.370308	 3.057096	 -0.359690	 0.565541	 -0.685450	 0.284507	 2
1463630205.601	 20	 -0.070245	 -0.700872	 -0.051407	 -1.047204	 -1.369726	 3.052500	 -0.362476	 0.564520	 -0.684160	 0.286103	 2
1463630205.611	 20	 -0.096050	 -0.699209	 0.167314	 -1.055401	 -1.371135	 3.051279	 -0.364687	 0.564026	 -0.682472	 0.288289	 2
1463630205.621	 20	 -0.094988	 -0.645614	 0.371365	 -1.058361	 -1.374443	 3.055021	 -0.366174	 0.563994	 -0.680513	 0.291083	 2
1463630205.631	 20	 -0.023935	 -0.688985	 0.579232	 -1.053938	 -1.379232	 3.066330	 -0.367030	 0.564134	 -0.678393	 0.294661	 2
1463630205.641	 20	 0.097997	 -0.842799	 0.831456	 -1.038781	 -1.385532	 3.089914	 -0.367481	 0.564124	 -0.675972	 0.299639	 2
1463630205.651	 20	 0.218687	 -1.025398	 1.073831	 -1.011143	 -1.393217	 3.128016	 -0.367656	 0.563861	 -0.673160	 0.306179	 2
1463630205.661	 20	 0.259139	 -1.051180	 1.348206	 -0.969171	 -1.402474	 -3.101801	 -0.367211	 0.563691	 -0.669966	 0.313935	 2
1463630205.671	 20	 0.075606	 -0.849540	 1.652225	 -0.915052	 -1.414426	 -3.037737	 -0.365594	 0.564678	 -0.666174	 0.322011	 2
1463630205.681	 20	 -0.268000	 -0.624229	 1.929083	 -0.851754	 -1.429971	 -2.966909	 -0.362840	 0.567558	 -0.661407	 0.329796	 2
1463630205.691	 20	 -0.691069	 -0.430161	 2.118949	 -0.781182	 -1.449084	 -2.890874	 -0.359487	 0.572419	 -0.655422	 0.336940	 2
1463630205.701	 20	 -1.075865	 -0.083737	 2.359991	 -0.689794	 -1.471815	 -2.797049	 -0.355189	 0.579419	 -0.648342	 0.343172	 2
1463630205.711	 20	 -1.233009	 0.430139	 2.757276	 -0.513444	 -1.496898	 -2.623073	 -0.348574	 0.588507	 -0.640749	 0.348707	 2
1463630205.721	 20	 -1.144080	 0.774827	 3.243565	 -0.091809	 -1.517845	 -2.207873	 -0.339127	 0.598866	 -0.633036	 0.354426	 2
1463630205.731	 20	 -1.035291	 1.115537	 3.629462	 0.638406	 -1.518327	 -1.486815	 -0.327050	 0.609902	 -0.625171	 0.360860	 2
1463630205.741	 20	 -1.274350	 1.579848	 3.612418	 1.161656	 -1.496655	 -0.977234	 -0.313514	 0.622073	 -0.617247	 0.365705	 2
1463630205.751	 20	 -1.682036	 1.994009	 3.651794	 1.455815	 -1.465452	 -0.701049	 -0.299186	 0.635969	 -0.608533	 0.368401	 2
1463630205.761	 20	 -1.917994	 2.217702	 3.895727	 1.635401	 -1.427538	 -0.541884	 -0.283808	 0.651200	 -0.598578	 0.370265	 2
1463630205.771	 20	 -1.824117	 2.507009	 4.080912	 1.743169	 -1.385117	 -0.457293	 -0.266750	 0.666841	 -0.588236	 0.371679	 2
1463630205.781	 20	 -1.216051	 2.849307	 4.154472	 1.797142	 -1.341807	 -0.430388	 -0.247351	 0.681387	 -0.579372	 0.372636	 2
1463630205.791	 20	 -0.313677	 3.215632	 4.140432	 1.811333	 -1.300163	 -0.447979	 -0.225081	 0.693673	 -0.573461	 0.373228	 2
1463630205.801	 20	 0.393314	 3.656180	 4.015813	 1.806999	 -1.261480	 -0.489481	 -0.200387	 0.703891	 -0.570538	 0.372651	 2
1463630205.811	 20	 0.516408	 3.900961	 4.086294	 1.802944	 -1.223261	 -0.534556	 -0.174043	 0.713363	 -0.568485	 0.371008	 2
1463630205.831	 21	 -0.336749	 3.407129	 4.284162	 1.826716	 -1.141039	 -0.589020	 -0.122445	 0.733309	 -0.558380	 0.368073	 2
1463630205.841	 21	 -0.603762	 2.775328	 4.174031	 1.844276	 -1.098911	 -0.602107	 -0.099776	 0.742584	 -0.550210	 0.368624	 2
1463630205.851	 21	 -0.616451	 2.175202	 3.841368	 1.858395	 -1.059386	 -0.612417	 -0.079920	 0.750349	 -0.541647	 0.370417	 2
1463630205.861	 21	 -0.458465	 1.605024	 3.454210	 1.866627	 -1.023952	 -0.623115	 -0.062789	 0.756211	 -0.533782	 0.373201	 2
1463630205.871	 21	 -0.344695	 1.086694	 3.158509	 1.869318	 -0.992083	 -0.634276	 -0.048041	 0.760344	 -0.526696	 0.377042	 2
1463630205.881	 21	 -0.255731	 0.875528	 2.969261	 1.869163	 -0.962449	 -0.645280	 -0.034752	 0.763409	 -0.520089	 0.381453	 2
1463630205.891	 21	 -0.263495	 1.126870	 2.865091	 1.870943	 -0.934192	 -0.655868	 -0.021511	 0.766432	 -0.513784	 0.384897	 2
1463630205.901	 21	 -0.406304	 1.803053	 2.916323	 1.880345	 -0.905440	 -0.664246	 -0.007016	 0.770701	 -0.506863	 0.386083	 2
1463630205.911	 21	 -0.318912	 2.297686	 3.105607	 1.894859	 -0.875340	 -0.673974	 0.009648	 0.775834	 -0.499588	 0.385227	 2
1463630205.921	 21	 0.001049	 2.811538	 3.252547	 1.910259	 -0.844503	 -0.688709	 0.028622	 0.780863	 -0.492762	 0.382908	 2
1463630205.931	 21	 0.454128	 3.397256	 3.243394	 1.927340	 -0.815075	 -0.709843	 0.050009	 0.785612	 -0.487254	 0.378016	 2
1463630205.941	 21	 0.872922	 3.597227	 3.121178	 1.944023	 -0.788348	 -0.736387	 0.072555	 0.789473	 -0.483282	 0.371356	 2
1463630205.951	 21	 1.174189	 3.380053	 2.922565	 1.957614	 -0.764829	 -0.766370	 0.094716	 0.791909	 -0.480762	 0.364386	 2
1463630205.961	 21	 1.209948	 2.826955	 2.641074	 1.967016	 -0.744427	 -0.796025	 0.114788	 0.792935	 -0.479136	 0.358477	 2
1463630205.971	 21	 1.211178	 2.249016	 2.293576	 1.972431	 -0.727101	 -0.823543	 0.132124	 0.792826	 -0.478192	 0.353981	 2
1463630205.981	 21	 1.274368	 1.645704	 1.992196	 1.973424	 -0.713079	 -0.849524	 0.146798	 0.791602	 -0.478253	 0.350843	 2
1463630205.991	 21	 1.408814	 0.971089	 1.714044	 1.967910	 -0.702009	 -0.875382	 0.158969	 0.788912	 -0.479714	 0.349601	 2
1463630206.001	 21	 1.406853	 0.517437	 1.490293	 1.958236	 -0.693179	 -0.900100	 0.168992	 0.785337	 -0.482073	 0.349704	 2
1463630206.011	 21	 1.347240	 0.168132	 1.405498	 1.945855	 -0.685152	 -0.923416	 0.177526	 0.781225	 -0.484755	 0.350976	 2
1463630206.021	 21	 1.219686	 0.021966	 1.438287	 1.932629	 -0.676354	 -0.945044	 0.185378	 0.776959	 -0.487083	 0.353156	 2
1463630206.031	 21	 1.172476	 -0.204020	 1.643353	 1.918246	 -0.665664	 -0.966166	 0.193274	 0.772365	 -0.488975	 0.356370	 2
1463630206.041	 21	 1.128234	 -0.676135	 2.082702	 1.899290	 -0.650947	 -0.988033	 0.201512	 0.766626	 -0.490403	 0.362191	 2
1463630206.051	 21	 1.002938	 -0.819103	 2.411781	 1.878255	 -0.631937	 -1.009474	 0.210341	 0.760167	 -0.490920	 0.370002	 2
1463630206.061	 21	 0.894787	 -0.759519	 2.517722	 1.859129	 -0.610698	 -1.029331	 0.219683	 0.753802	 -0.490533	 0.378020	 2
1463630206.081	 22	 0.667959	 -1.429895	 2.091417	 1.818701	 -0.570498	 -1.061873	 0.234356	 0.740496	 -0.489938	 0.395858	 2
1463630206.091	 22	 0.454786	 -1.983829	 1.740680	 1.794388	 -0.553894	 -1.072813	 0.237601	 0.733373	 -0.490334	 0.406549	 2
1463630206.101	 22	 0.259006	 -2.594009	 1.267771	 1.766429	 -0.540872	 -1.079699	 0.237339	 0.725941	 -0.491458	 0.418508	 2
1463630206.111	 22	 0.334308	 -3.157321	 0.474275	 1.733746	 -0.534458	 -1.084430	 0.233025	 0.717985	 -0.494553	 0.430830	 2
1463630206.121	 22	 0.481445	 -3.682099	 -0.549692	 1.695858	 -0.538152	 -1.089207	 0.224112	 0.709455	 -0.500913	 0.442192	 2
1463630206.131	 22	 0.348811	 -4.273151	 -0.999526	 1.652855	 -0.548014	 -1.092863	 0.211314	 0.700234	 -0.508970	 0.453836	 2
1463630206.141	 22	 -0.143432	 -4.851844	 -0.917496	 1.606020	 -0.557492	 -1.092057	 0.195872	 0.690345	 -0.515926	 0.467844	 2
1463630206.151	 22	 -0.651810	 -5.147406	 -0.666431	 1.558574	 -0.564848	 -1.085716	 0.178902	 0.680318	 -0.520642	 0.483832	 2
1463630206.161	 22	 -1.175174	 -5.382019	 -0.230292	 1.511897	 -0.568686	 -1.073505	 0.161276	 0.670216	 -0.522502	 0.501789	 2
1463630206.171	 22	 -1.667639	 -5.638952	 0.220291	 1.466090	 -0.568855	 -1.055047	 0.143123	 0.659915	 -0.521302	 0.521797	 2
1463630206.181	 22	 -2.049676	 -5.891951	 0.525005	 1.420680	 -0.566791	 -1.031223	 0.124271	 0.649210	 -0.517534	 0.543362	 2
1463630206.191	 22	 -2.257641	 -6.213604	 0.673029	 1.373983	 -0.564268	 -1.004062	 0.104431	 0.637557	 -0.512121	 0.565993	 2
1463630206.201	 22	 -2.302509	 -6.697228	 0.698761	 1.323464	 -0.562516	 -0.975714	 0.083280	 0.624113	 -0.505929	 0.589563	 2
1463630206.211	 22	 -2.186726	 -7.204360	 0.628023	 1.267296	 -0.562305	 -0.948252	 0.060775	 0.608180	 -0.499645	 0.613823	 2
1463630206.221	 22	 -1.900588	 -7.564188	 0.551843	 1.205299	 -0.563417	 -0.924056	 0.037701	 0.589486	 -0.493816	 0.638147	 2
1463630206.231	 22	 -1.688479	 -7.573712	 0.497685	 1.140797	 -0.565406	 -0.902744	 0.014909	 0.569018	 -0.488110	 0.661623	 2
1463630206.251	 23	 -2.268672	 -5.166030	 0.950380	 1.037628	 -0.571686	 -0.855761	 -0.025385	 0.534446	 -0.472928	 0.700044	 2
1463630206.261	 23	 -2.361332	 -3.745340	 1.458920	 1.015047	 -0.572601	 -0.823111	 -0.039691	 0.526033	 -0.461173	 0.713466	 2
1463630206.281	 24	 -1.077723	 -3.032197	 1.903066	 0.979446	 -0.560008	 -0.768459	 -0.056642	 0.510517	 -0.438420	 0.737531	 2
1463630206.291	 24	 -0.645892	 -2.362056	 2.086722	 0.964735	 -0.547358	 -0.747820	 -0.059764	 0.503212	 -0.428251	 0.748203	 2
1463630206.301	 24	 -0.378159	 -1.492913	 2.365313	 0.957722	 -0.531124	 -0.728279	 -0.059310	 0.498421	 -0.418006	 0.757186	 2
1463630206.311	 24	 -0.089230	 -0.833773	 2.587413	 0.957098	 -0.511298	 -0.709863	 -0.055644	 0.495764	 -0.407648	 0.764817	 2
1463630206.321	 24	 0.184694	 -0.511803	 2.656232	 0.959135	 -0.488942	 -0.693648	 -0.049782	 0.494013	 -0.397629	 0.771598	 2
1463630206.331	 24	 0.346271	 -0.402875	 2.635590	 0.961441	 -0.465472	 -0.679484	 -0.042868	 0.492380	 -0.388064	 0.777901	 2
1463630206.341	 24	 0.397086	 -0.439618	 2.576188	 0.962889	 -0.441982	 -0.666558	 -0.035787	 0.490496	 -0.378821	 0.783982	 2
1463630206.351	 24	 0.392957	 -0.597355	 2.529994	 0.962560	 -0.418872	 -0.654169	 -0.029043	 0.488002	 -0.369705	 0.790145	 2
1463630206.361	 24	 0.342400	 -0.868768	 2.483147	 0.959466	 -0.396347	 -0.641830	 -0.023001	 0.484499	 -0.360580	 0.796689	 2
1463630206.371	 24	 0.182124	 -1.095208	 2.433410	 0.953964	 -0.375055	 -0.628627	 -0.018059	 0.480158	 -0.351238	 0.803588	 2
1463630206.381	 24	 0.009387	 -1.259824	 2.397146	 0.946944	 -0.355201	 -0.614105	 -0.014227	 0.475339	 -0.341558	 0.810672	 2
1463630206.391	 24	 -0.109438	 -1.314981	 2.369958	 0.939100	 -0.336466	 -0.598534	 -0.011164	 0.470291	 -0.331597	 0.817768	 2
1463630206.401	 24	 -0.143304	 -1.239498	 2.351772	 0.931629	 -0.318332	 -0.582584	 -0.008282	 0.465460	 -0.321537	 0.824556	 2
1463630206.411	 24	 -0.083056	 -1.099597	 2.307787	 0.924902	 -0.300363	 -0.567077	 -0.005150	 0.460967	 -0.311637	 0.830882	 2
1463630206.421	 24	 0.041025	 -1.037219	 2.306221	 0.918526	 -0.281975	 -0.552614	 -0.001451	 0.456604	 -0.302039	 0.836829	 2
1463630206.431	 24	 0.239310	 -0.831668	 2.277632	 0.913183	 -0.262703	 -0.539667	 0.003213	 0.452615	 -0.292859	 0.842237	 2
1463630206.441	 24	 0.482176	 -0.649883	 2.216460	 0.908907	 -0.242479	 -0.528953	 0.009018	 0.449004	 -0.284392	 0.847015	 2
1463630206.461	 25	 0.991647	 -0.449181	 2.084935	 0.902201	 -0.199178	 -0.514925	 0.023927	 0.442282	 -0.269937	 0.854955	 2
1463630206.471	 25	 1.259394	 -0.489185	 2.103547	 0.898167	 -0.175369	 -0.511202	 0.033015	 0.438367	 -0.263666	 0.858618	 2
1463630206.481	 25	 1.490801	 -0.606164	 2.199559	 0.892828	 -0.149445	 -0.508817	 0.043183	 0.433618	 -0.257569	 0.862420	 2
1463630206.491	 25	 1.653647	 -0.829920	 2.356989	 0.885411	 -0.121284	 -0.506769	 0.054178	 0.427673	 -0.251232	 0.866628	 2
1463630206.501	 25	 1.750171	 -1.170819	 2.614088	 0.874919	 -0.090645	 -0.503877	 0.065752	 0.420075	 -0.244163	 0.871549	 2
1463630206.511	 25	 1.797514	 -1.498030	 2.832310	 0.861035	 -0.057847	 -0.499516	 0.077646	 0.410719	 -0.236216	 0.877202	 2
1463630206.521	 25	 1.819224	 -1.742954	 2.947076	 0.844387	 -0.023892	 -0.493927	 0.089597	 0.399965	 -0.227726	 0.883256	 2
1463630206.531	 25	 1.852785	 -1.876986	 2.958325	 0.825907	 0.010426	 -0.487717	 0.101530	 0.388285	 -0.219119	 0.889333	 2
1463630206.541	 25	 1.872690	 -1.906191	 2.899263	 0.806739	 0.044479	 -0.481361	 0.113403	 0.376236	 -0.210702	 0.895093	 2
1463630206.551	 25	 1.822201	 -1.897155	 2.804934	 0.787303	 0.077581	 -0.474748	 0.124938	 0.364105	 -0.202544	 0.900441	 2
1463630206.561	 25	 1.668422	 -1.826248	 2.693962	 0.768144	 0.108885	 -0.467340	 0.135713	 0.352294	 -0.194527	 0.905334	 2
1463630206.571	 25	 1.461398	 -1.725452	 2.576272	 0.749577	 0.137789	 -0.458780	 0.145426	 0.341074	 -0.186557	 0.909789	 2
1463630206.591	 26	 1.321285	 -1.616997	 2.368546	 0.713451	 0.190196	 -0.439995	 0.162695	 0.319834	 -0.171205	 0.917565	 2
1463630206.601	 26	 1.453353	 -1.585169	 2.264313	 0.695831	 0.215812	 -0.431502	 0.171461	 0.309423	 -0.164217	 0.920810	 2
1463630206.611	 26	 1.641840	 -1.533726	 2.101155	 0.678818	 0.241754	 -0.424860	 0.180829	 0.299099	 -0.158114	 0.923494	 2
1463630206.621	 26	 1.801504	 -1.423163	 1.865260	 0.663220	 0.267565	 -0.420589	 0.190693	 0.289221	 -0.153143	 0.925491	 2
1463630206.631	 26	 1.889016	 -1.462255	 1.643521	 0.648375	 0.292723	 -0.418522	 0.200692	 0.279540	 -0.149369	 0.926968	 2
1463630206.641	 26	 1.921268	 -1.747345	 1.504170	 0.631360	 0.317274	 -0.417583	 0.210449	 0.268781	 -0.146582	 0.928430	 2
1463630206.651	 26	 1.860877	 -1.995946	 1.372359	 0.611791	 0.340777	 -0.417110	 0.219638	 0.256877	 -0.144618	 0.929978	 2
1463630206.661	 26	 1.669196	 -2.008179	 1.221511	 0.591367	 0.362108	 -0.416429	 0.227782	 0.244833	 -0.143174	 0.931490	 2
1463630206.671	 26	 1.444110	 -1.875550	 1.086155	 0.571814	 0.380782	 -0.415246	 0.234747	 0.233558	 -0.141968	 0.932840	 2
1463630206.681	 26	 1.251491	 -1.673655	 0.982069	 0.553858	 0.397109	 -0.413524	 0.240721	 0.223371	 -0.140810	 0.933987	 2
1463630206.691	 26	 1.113845	 -1.381295	 0.908188	 0.538439	 0.411701	 -0.411394	 0.246062	 0.214630	 -0.139515	 0.934838	 2
1463630206.701	 26	 1.017914	 -1.100482	 0.872203	 0.525759	 0.425126	 -0.408877	 0.251045	 0.207365	 -0.137950	 0.935385	 2
1463630206.711	 26	 0.943269	 -0.850418	 0.858127	 0.515380	 0.437749	 -0.405918	 0.255796	 0.201340	 -0.136063	 0.935691	 2
1463630206.721	 26	 0.867440	 -0.630086	 0.850180	 0.507110	 0.449644	 -0.402495	 0.260330	 0.196461	 -0.133837	 0.935799	 2
1463630206.731	 26	 0.792334	 -0.476815	 0.835208	 0.500296	 0.460790	 -0.398663	 0.264596	 0.192423	 -0.131371	 0.935791	 2
1463630206.741	 26	 0.711671	 -0.386145	 0.838886	 0.494340	 0.471209	 -0.394357	 0.268557	 0.188952	 -0.128697	 0.935741	 2
1463630206.751	 26	 0.677386	 -0.466433	 0.900251	 0.487622	 0.481361	 -0.389208	 0.272284	 0.185288	 -0.125794	 0.935791	 2
1463630206.761	 26	 0.736824	 -0.592679	 0.968899	 0.479290	 0.492143	 -0.383440	 0.276164	 0.180900	 -0.122766	 0.935915	 2
1463630206.771	 26	 0.830514	 -0.666114	 1.000439	 0.469951	 0.503862	 -0.377550	 0.280428	 0.175972	 -0.119733	 0.935980	 2
1463630206.781	 26	 0.930575	 -0.680574	 0.953605	 0.460579	 0.516309	 -0.372264	 0.285105	 0.170886	 -0.116936	 0.935863	 2
1463630206.801	 27	 0.968024	 -0.705642	 0.738828	 0.443306	 0.541136	 -0.365235	 0.294876	 0.160970	 -0.112934	 0.935084	 2
1463630206.811	 27	 0.829818	 -0.780034	 0.691380	 0.434107	 0.551987	 -0.362123	 0.299071	 0.155897	 -0.111468	 0.934788	 2
1463630206.831	 28	 0.411540	 -1.088394	 0.534419	 0.411004	 0.567425	 -0.354733	 0.304297	 0.144478	 -0.109596	 0.935157	 2
1463630206.841	 28	 0.189485	 -1.224809	 0.407192	 0.397057	 0.571409	 -0.351063	 0.305098	 0.138074	 -0.109531	 0.935871	 2
1463630206.851	 28	 -0.007448	 -1.227383	 0.266070	 0.383003	 0.572919	 -0.347937	 0.304808	 0.131807	 -0.110035	 0.936809	 2
1463630206.861	 28	 -0.179034	 -1.096764	 0.168598	 0.370182	 0.572335	 -0.345230	 0.303657	 0.126273	 -0.110782	 0.937856	 2
1463630206.871	 28	 -0.312916	 -0.920271	 0.105329	 0.359174	 0.570116	 -0.342703	 0.301867	 0.121725	 -0.111506	 0.938949	 2
1463630206.881	 28	 -0.382863	 -0.792644	 0.076218	 0.349684	 0.566920	 -0.340279	 0.299717	 0.117966	 -0.112136	 0.940042	 2
1463630206.891	 28	 -0.364632	 -0.780937	 0.084695	 0.340657	 0.563677	 -0.337884	 0.297571	 0.114414	 -0.112697	 0.941095	 2
1463630206.901	 28	 -0.257339	 -0.896027	 0.097610	 0.330891	 0.561253	 -0.335701	 0.295775	 0.110388	 -0.113364	 0.942062	 2
1463630206.911	 28	 -0.078858	 -1.066728	 0.097665	 0.319814	 0.560370	 -0.334113	 0.294649	 0.105491	 -0.114339	 0.942857	 2
1463630206.921	 28	 0.122179	 -1.195049	 0.084063	 0.307747	 0.561320	 -0.333377	 0.294358	 0.099814	 -0.115677	 0.943403	 2
1463630206.931	 28	 0.351152	 -1.230301	 0.008191	 0.297424	 0.562616	 -0.334898	 0.294432	 0.094591	 -0.117792	 0.943656	 2
1463630206.941	 28	 0.547707	 -1.109255	 -0.087247	 0.287215	 0.567242	 -0.337353	 0.296089	 0.088952	 -0.120032	 0.943404	 2
1463630206.951	 28	 0.660893	 -0.837578	 -0.125137	 0.279998	 0.573029	 -0.340855	 0.298493	 0.084452	 -0.122233	 0.942777	 2
1463630206.961	 28	 0.706301	 -0.533122	 -0.070477	 0.275710	 0.579500	 -0.344155	 0.301372	 0.081287	 -0.123853	 0.941928	 2
1463630206.971	 28	 0.720845	 -0.260058	 0.042776	 0.273653	 0.586455	 -0.346354	 0.304559	 0.079284	 -0.124580	 0.940977	 2
1463630206.981	 28	 0.675662	 0.011134	 0.167190	 0.273471	 0.593487	 -0.347047	 0.307834	 0.078380	 -0.124308	 0.940022	 2
1463630206.991	 28	 0.556700	 0.255917	 0.286672	 0.274855	 0.599857	 -0.345957	 0.310825	 0.078554	 -0.123012	 0.939194	 2
1463630207.001	 28	 0.398591	 0.379278	 0.366997	 0.276919	 0.605038	 -0.343344	 0.313244	 0.079406	 -0.120997	 0.938580	 2
1463630207.011	 28	 0.191951	 0.392193	 0.450980	 0.278487	 0.608587	 -0.339150	 0.314811	 0.080443	 -0.118463	 0.938291	 2
1463630207.021	 28	 -0.042981	 0.288203	 0.536253	 0.278266	 0.610163	 -0.333151	 0.315284	 0.081127	 -0.115541	 0.938437	 2
1463630207.031	 28	 -0.279523	 0.097820	 0.587698	 0.275461	 0.609626	 -0.325662	 0.314572	 0.081043	 -0.112516	 0.939051	 2
1463630207.041	 28	 -0.508793	 -0.123524	 0.626002	 0.269788	 0.606929	 -0.316923	 0.312655	 0.080006	 -0.109537	 0.940132	 2
1463630207.051	 28	 -0.694372	 -0.330348	 0.631022	 0.261574	 0.602302	 -0.307417	 0.309688	 0.078051	 -0.106738	 0.941599	 2
1463630207.061	 28	 -0.815653	 -0.453581	 0.603221	 0.251880	 0.596220	 -0.297839	 0.305977	 0.075505	 -0.104218	 0.943300	 2
1463630207.071	 28	 -0.870369	 -0.485583	 0.568229	 0.241863	 0.589279	 -0.288561	 0.301877	 0.072791	 -0.101911	 0.945085	 2
1463630207.081	 28	 -0.842467	 -0.425277	 0.535509	 0.232564	 0.582248	 -0.279814	 0.297804	 0.070296	 -0.099705	 0.946800	 2
1463630207.091	 28	 -0.735229	 -0.287559	 0.502818	 0.224916	 0.575949	 -0.271798	 0.294192	 0.068373	 -0.097504	 0.948298	 2
1463630207.101	 28	 -0.566078	 -0.142612	 0.465393	 0.219284	 0.571025	 -0.264678	 0.291364	 0.067133	 -0.095302	 0.949483	 2
1463630207.111	 28	 -0.380990	 -0.032636	 0.452015	 0.215295	 0.567850	 -0.258356	 0.289470	 0.066402	 -0.093100	 0.950332	 2
1463630207.121	 28	 -0.234168	 0.068237	 0.487911	 0.212412	 0.566245	 -0.252153	 0.288375	 0.066049	 -0.090678	 0.950923	 2
1463630207.131	 28	 -0.119492	 0.135222	 0.531232	 0.210184	 0.565905	 -0.245765	 0.287905	 0.065935	 -0.087984	 0.951327	 2
1463630207.141	 28	 -0.037974	 0.173696	 0.589498	 0.208202	 0.566552	 -0.238981	 0.287900	 0.065922	 -0.084999	 0.951600	 2
1463630207.151	 28	 0.002905	 0.157297	 0.691302	 0.205712	 0.567869	 -0.231276	 0.288166	 0.065754	 -0.081605	 0.951829	 2
1463630207.161	 29	 0.007206	 0.081419	 0.789675	 0.201938	 0.569502	 -0.222384	 0.288496	 0.065129	 -0.077811	 0.952089	 2
1463630207.181	 29	 -0.022281	 -0.077891	 0.809764	 0.191126	 0.572443	 -0.203123	 0.288874	 0.062570	 -0.070018	 0.952751	 2
1463630207.191	 29	 0.002661	 -0.147724	 0.723636	 0.185072	 0.573770	 -0.194365	 0.289025	 0.060871	 -0.066642	 0.953057	 2
1463630207.201	 29	 0.019802	 -0.075948	 0.654880	 0.179727	 0.575220	 -0.186570	 0.289305	 0.059366	 -0.063617	 0.953274	 2
1463630207.211	 29	 -0.051770	 -0.015761	 0.565474	 0.175780	 0.575935	 -0.179567	 0.289315	 0.058457	 -0.060811	 0.953510	 2
1463630207.221	 29	 -0.132892	 -0.131378	 0.429752	 0.171669	 0.575656	 -0.173901	 0.288895	 0.057331	 -0.058718	 0.953837	 2
1463630207.231	 29	 -0.237318	 -0.242392	 0.332644	 0.167051	 0.574156	 -0.169297	 0.287919	 0.055872	 -0.057266	 0.954307	 2
1463630207.241	 29	 -0.305544	 -0.368430	 0.231884	 0.161718	 0.571721	 -0.165703	 0.286511	 0.053968	 -0.056441	 0.954889	 2
