% Gyrometer data recorded with 'snsrlog'
% 
% 
% Label description:
% 	 0: Default Label
% 	 1: still_drop
% 	 2: walk_drop
% 	 3: other
% 	 4: dtw_same
% 	 5: dtw_diff
% 	 6: delete
% 	 7: steal
% 
% Column description:
% 	 1: Seconds.milliseconds since 1970
% 	 2: Number of skipped measurements
% 	 3: Gyro X
% 	 4: Gyro Y
% 	 5: Gyro Z
% 	 6: Roll of the device
% 	 7: Pitch of the device
% 	 8: Yaw of the device
% 	 9: Quaternion X
% 	 10: Quaternion Y
% 	 11: Quaternion Z
% 	 12: Quaternion W
% 	 13: Label used for the current sample
% 
% 
1463623977.042	 0	 -0.878023	 4.603685	 -1.936423	 0.669992	 0.302726	 -0.158946	 0.167756	 0.312675	 -0.024702	 0.934602	 1
1463623977.052	 0	 -1.055656	 4.364301	 -2.311187	 0.717528	 0.280704	 -0.170045	 0.160036	 0.335285	 -0.029791	 0.927947	 1
1463623977.062	 0	 -1.204048	 4.057067	 -2.497130	 0.761685	 0.255447	 -0.180745	 0.151040	 0.356498	 -0.035948	 0.921305	 1
1463623977.072	 0	 -1.309297	 3.851592	 -2.420325	 0.802654	 0.229045	 -0.189332	 0.141405	 0.376400	 -0.042004	 0.914638	 1
1463623977.082	 0	 -1.352131	 3.867095	 -2.206656	 0.842343	 0.203315	 -0.194983	 0.131763	 0.395773	 -0.047080	 0.907626	 1
1463623977.092	 0	 -1.310550	 4.175528	 -2.045349	 0.883770	 0.178922	 -0.198502	 0.122568	 0.415836	 -0.051194	 0.899687	 1
1463623977.102	 0	 -1.212299	 4.543047	 -1.926617	 0.928755	 0.155864	 -0.200861	 0.114025	 0.437278	 -0.054680	 0.890391	 1
1463623977.112	 0	 -1.069682	 4.871645	 -1.876841	 0.976952	 0.134144	 -0.202728	 0.106260	 0.459833	 -0.057865	 0.879724	 1
1463623977.122	 0	 -0.944880	 4.982954	 -2.023968	 1.027018	 0.112252	 -0.205229	 0.098845	 0.482878	 -0.061671	 0.867903	 1
1463623977.132	 0	 -0.955261	 4.796156	 -2.266478	 1.075830	 0.088460	 -0.207967	 0.090894	 0.505140	 -0.066519	 0.855656	 1
1463623977.142	 0	 -1.101061	 4.412937	 -2.516031	 1.121211	 0.061786	 -0.209716	 0.081641	 0.525788	 -0.072270	 0.843599	 1
1463623977.152	 0	 -1.338470	 3.804800	 -2.724249	 1.160847	 0.032182	 -0.209238	 0.070640	 0.543904	 -0.078540	 0.832472	 1
1463623977.162	 0	 -1.623520	 3.194298	 -2.888729	 1.194155	 -0.000099	 -0.205816	 0.057715	 0.559258	 -0.084980	 0.822604	 1
1463623977.172	 0	 -1.878652	 2.782938	 -2.956413	 1.222985	 -0.034093	 -0.199231	 0.043198	 0.572549	 -0.091155	 0.813641	 1
1463623977.182	 0	 -2.010619	 2.603834	 -2.920695	 1.249789	 -0.068350	 -0.190072	 0.027895	 0.584661	 -0.096814	 0.804997	 1
1463623977.192	 0	 -1.856854	 2.709885	 -2.754788	 1.277301	 -0.100839	 -0.180257	 0.013285	 0.596581	 -0.102095	 0.795922	 1
1463623977.202	 0	 -1.477036	 3.000355	 -2.587002	 1.307389	 -0.130471	 -0.172215	 0.000630	 0.609032	 -0.107622	 0.785810	 1
1463623977.212	 0	 -0.966767	 3.599702	 -2.453713	 1.342276	 -0.157225	 -0.167569	 -0.009401	 0.622929	 -0.113999	 0.773870	 1
1463623977.222	 0	 -0.415199	 4.430166	 -2.407091	 1.384582	 -0.181985	 -0.167138	 -0.016644	 0.639282	 -0.121788	 0.759084	 1
1463623977.232	 0	 0.044891	 4.960196	 -2.465848	 1.432492	 -0.206205	 -0.170568	 -0.021719	 0.657310	 -0.131236	 0.741788	 1
1463623977.242	 0	 0.284650	 5.010523	 -2.615608	 1.481541	 -0.231511	 -0.175993	 -0.025990	 0.675237	 -0.142062	 0.723324	 1
1463623977.252	 0	 0.322054	 4.718758	 -2.793433	 1.528381	 -0.258722	 -0.181162	 -0.030680	 0.691782	 -0.153656	 0.704901	 1
1463623977.262	 0	 0.257008	 4.191254	 -2.959772	 1.570769	 -0.287840	 -0.184655	 -0.036468	 0.706156	 -0.165502	 0.687475	 1
1463623977.272	 0	 0.184157	 3.569315	 -3.098145	 1.607584	 -0.318533	 -0.186165	 -0.043510	 0.718033	 -0.177380	 0.671619	 1
1463623977.282	 0	 0.132142	 3.013710	 -3.174268	 1.639107	 -0.350159	 -0.185907	 -0.051578	 0.727597	 -0.189138	 0.657396	 1
1463623977.292	 0	 0.130453	 2.648957	 -3.165925	 1.666873	 -0.381881	 -0.184468	 -0.060115	 0.735456	 -0.200687	 0.644372	 1
1463623977.302	 0	 0.199292	 2.473809	 -3.090353	 1.692644	 -0.413017	 -0.182720	 -0.068457	 0.742278	 -0.212085	 0.631947	 1
1463623977.312	 0	 0.334840	 2.379594	 -2.974110	 1.717129	 -0.443202	 -0.181543	 -0.076115	 0.748377	 -0.223468	 0.619839	 1
1463623977.322	 0	 0.517732	 2.334452	 -2.818390	 1.740479	 -0.472180	 -0.181691	 -0.082732	 0.753891	 -0.234938	 0.607954	 1
1463623977.332	 0	 0.742798	 2.388262	 -2.640801	 1.763138	 -0.499828	 -0.183834	 -0.087982	 0.759043	 -0.246619	 0.596064	 1
1463623977.342	 0	 1.000134	 2.509927	 -2.479913	 1.785639	 -0.526383	 -0.188511	 -0.091678	 0.764043	 -0.258726	 0.583861	 1
1463623977.352	 0	 1.211688	 2.474973	 -2.374439	 1.807059	 -0.552334	 -0.195489	 -0.094181	 0.768611	 -0.271268	 0.571648	 1
1463623977.362	 0	 1.302198	 2.160278	 -2.319538	 1.825258	 -0.578067	 -0.203581	 -0.096384	 0.772090	 -0.283897	 0.560348	 1
1463623977.372	 0	 1.274339	 1.658559	 -2.288794	 1.838825	 -0.603576	 -0.211400	 -0.099090	 0.774080	 -0.296124	 0.550719	 1
1463623977.382	 0	 1.175738	 1.065799	 -2.227374	 1.847067	 -0.628446	 -0.218200	 -0.102660	 0.774460	 -0.307539	 0.543224	 1
1463623977.402	 1	 0.857686	 -0.043032	 -1.991929	 1.848302	 -0.673918	 -0.227547	 -0.112401	 0.770973	 -0.326719	 0.534997	 1
1463623977.412	 1	 0.700716	 -0.395832	 -1.864888	 1.843549	 -0.694170	 -0.230055	 -0.118250	 0.767814	 -0.334438	 0.533506	 1
1463623977.422	 1	 0.597774	 -0.603108	 -1.742292	 1.836893	 -0.712894	 -0.231693	 -0.124331	 0.764203	 -0.341193	 0.533032	 1
1463623977.432	 1	 0.569062	 -0.677708	 -1.627634	 1.829148	 -0.730371	 -0.233334	 -0.130265	 0.760388	 -0.347363	 0.533085	 1
1463623977.442	 1	 0.601846	 -0.627902	 -1.493170	 1.820964	 -0.746653	 -0.235844	 -0.135631	 0.756609	 -0.353242	 0.533261	 1
1463623977.452	 1	 0.694191	 -0.430121	 -1.316283	 1.813116	 -0.761488	 -0.240165	 -0.139864	 0.753179	 -0.359055	 0.533140	 1
1463623977.462	 1	 0.841572	 -0.120672	 -1.118586	 1.806220	 -0.774725	 -0.247154	 -0.142485	 0.750361	 -0.365032	 0.532360	 1
1463623977.472	 1	 1.032881	 0.241691	 -0.939964	 1.800488	 -0.786547	 -0.257435	 -0.143275	 0.748249	 -0.371434	 0.530692	 1
1463623977.482	 1	 1.229454	 0.615507	 -0.793253	 1.795929	 -0.797284	 -0.271167	 -0.142266	 0.746822	 -0.378416	 0.528033	 1
1463623977.492	 1	 1.385301	 0.965928	 -0.662392	 1.792725	 -0.807037	 -0.287886	 -0.139619	 0.746074	 -0.385899	 0.524369	 1
1463623977.502	 1	 1.486338	 1.233561	 -0.529692	 1.790685	 -0.815734	 -0.306858	 -0.135608	 0.745891	 -0.393637	 0.519910	 1
1463623977.512	 1	 1.515420	 1.414110	 -0.407834	 1.789598	 -0.823305	 -0.327133	 -0.130591	 0.746140	 -0.401337	 0.514927	 1
1463623977.522	 1	 1.437227	 1.505383	 -0.319978	 1.789794	 -0.829780	 -0.347107	 -0.125095	 0.746778	 -0.408609	 0.509619	 1
1463623977.532	 1	 1.311412	 1.482754	 -0.264739	 1.791016	 -0.835413	 -0.365673	 -0.119650	 0.747635	 -0.415242	 0.504282	 1
1463623977.542	 1	 1.202119	 1.359949	 -0.229760	 1.792220	 -0.840420	 -0.382832	 -0.114533	 0.748426	 -0.421254	 0.499286	 1
1463623977.552	 1	 1.045463	 1.175384	 -0.223719	 1.793053	 -0.845004	 -0.398099	 -0.110064	 0.749025	 -0.426584	 0.494847	 1
1463623977.562	 1	 0.720751	 0.881771	 -0.216163	 1.794305	 -0.848951	 -0.409340	 -0.106811	 0.749548	 -0.430698	 0.491191	 1
1463623977.572	 1	 0.229027	 0.448484	 -0.176481	 1.796403	 -0.851584	 -0.414044	 -0.105414	 0.750049	 -0.432811	 0.488865	 1
1463623977.582	 1	 -0.345130	 -0.074668	 -0.095352	 1.799565	 -0.852298	 -0.410660	 -0.106221	 0.750570	 -0.432382	 0.488269	 1
1463623977.592	 1	 -0.828141	 -0.562495	 0.053521	 1.803013	 -0.850534	 -0.400091	 -0.108900	 0.751024	 -0.429412	 0.489600	 1
1463623977.602	 1	 -1.102003	 -0.871872	 0.254456	 1.806003	 -0.846148	 -0.385380	 -0.112434	 0.751397	 -0.424537	 0.492473	 1
1463623977.612	 1	 -1.166761	 -1.004987	 0.498906	 1.807717	 -0.839199	 -0.369924	 -0.115743	 0.751667	 -0.418533	 0.496417	 1
1463623977.622	 1	 -1.051258	 -0.948103	 0.762739	 1.807864	 -0.829845	 -0.356573	 -0.117861	 0.751911	 -0.412120	 0.500895	 1
1463623977.632	 1	 -0.824158	 -0.723824	 0.981330	 1.806935	 -0.818735	 -0.347111	 -0.118203	 0.752289	 -0.405989	 0.505234	 1
1463623977.642	 1	 -0.586099	 -0.412588	 1.168662	 1.805834	 -0.806312	 -0.341834	 -0.116599	 0.752994	 -0.400432	 0.508978	 1
1463623977.652	 1	 -0.410050	 -0.023343	 1.234697	 1.806157	 -0.793274	 -0.339706	 -0.113335	 0.754287	 -0.395528	 0.511628	 1
1463623977.662	 1	 -0.357931	 0.273387	 1.106981	 1.809097	 -0.781277	 -0.338486	 -0.109534	 0.756176	 -0.391329	 0.512895	 1
1463623977.672	 1	 -0.325771	 0.505545	 0.866933	 1.814561	 -0.771408	 -0.337051	 -0.105988	 0.758475	 -0.387906	 0.512846	 1
1463623977.682	 1	 -0.276539	 0.769283	 0.588663	 1.822705	 -0.764351	 -0.335404	 -0.102884	 0.761166	 -0.385500	 0.511303	 1
1463623977.692	 1	 -0.238425	 1.036289	 0.462925	 1.833586	 -0.759098	 -0.333728	 -0.099833	 0.764370	 -0.383819	 0.508384	 1
1463623977.702	 1	 -0.144249	 1.244059	 0.551430	 1.845836	 -0.753633	 -0.333327	 -0.095990	 0.767989	 -0.382427	 0.504707	 1
1463623977.712	 1	 0.015110	 1.386414	 0.738946	 1.858040	 -0.746525	 -0.335465	 -0.090704	 0.771852	 -0.381058	 0.500812	 1
1463623977.722	 1	 0.136524	 1.445550	 0.875922	 1.869189	 -0.738738	 -0.340207	 -0.084424	 0.775594	 -0.380000	 0.496917	 1
1463623977.732	 1	 0.001784	 2.028236	 0.651247	 1.885310	 -0.731914	 -0.343890	 -0.077910	 0.780381	 -0.379156	 0.491098	 1
1463623977.742	 1	 -0.155278	 2.170710	 0.434393	 1.906795	 -0.727063	 -0.344370	 -0.072231	 0.786099	 -0.378352	 0.483405	 1
1463623977.752	 1	 -0.266460	 1.868211	 0.476243	 1.927012	 -0.721962	 -0.343393	 -0.067321	 0.791410	 -0.376989	 0.476463	 1
1463623977.762	 1	 -0.299944	 1.477588	 0.570949	 1.943406	 -0.715770	 -0.342366	 -0.062874	 0.795864	 -0.375033	 0.471166	 1
1463623977.772	 1	 -0.286395	 1.147073	 0.613583	 1.955774	 -0.709162	 -0.341920	 -0.058864	 0.799396	 -0.372890	 0.467390	 1
1463623977.782	 1	 -0.211025	 0.872131	 0.570935	 1.965139	 -0.702839	 -0.341994	 -0.055311	 0.802194	 -0.370849	 0.464646	 1
1463623977.792	 1	 -0.092349	 0.597303	 0.414940	 1.971276	 -0.698143	 -0.342799	 -0.052534	 0.804092	 -0.369468	 0.462785	 1
1463623977.802	 1	 0.052249	 0.395722	 0.249810	 1.974562	 -0.695531	 -0.344464	 -0.050527	 0.805145	 -0.368971	 0.461573	 1
1463623977.812	 1	 0.144778	 0.468696	 0.083424	 1.977521	 -0.694912	 -0.346618	 -0.048940	 0.805939	 -0.369311	 0.460083	 1
1463623977.822	 1	 0.143718	 0.746927	 0.023143	 1.982928	 -0.695224	 -0.348582	 -0.047235	 0.807197	 -0.370007	 0.457489	 1
1463623977.832	 1	 0.038824	 1.081655	 0.084722	 1.992199	 -0.694947	 -0.349760	 -0.044967	 0.809362	 -0.370386	 0.453569	 1
1463623977.842	 1	 -0.174355	 1.254451	 0.212880	 2.004692	 -0.692859	 -0.349388	 -0.042231	 0.812375	 -0.369795	 0.448905	 1
1463623977.852	 1	 -0.493501	 1.101314	 0.380492	 2.018032	 -0.688174	 -0.346593	 -0.039630	 0.815753	 -0.367684	 0.444731	 1
1463623977.862	 1	 -0.762142	 0.304879	 0.593901	 2.026772	 -0.680237	 -0.341432	 -0.037992	 0.818365	 -0.363707	 0.443342	 1
1463623977.872	 1	 -0.828437	 -0.786932	 0.784682	 2.024850	 -0.669958	 -0.336152	 -0.037726	 0.818828	 -0.358592	 0.446664	 1
1463623977.882	 1	 -0.774491	 -1.404497	 0.860529	 2.014583	 -0.658870	 -0.331781	 -0.038338	 0.817481	 -0.353197	 0.453328	 1
1463623977.892	 1	 -0.729361	 -1.309164	 0.824787	 2.003288	 -0.648142	 -0.327861	 -0.038991	 0.815811	 -0.348006	 0.460243	 1
1463623977.902	 1	 -0.678143	 -0.834092	 0.795724	 1.995898	 -0.637975	 -0.324107	 -0.039007	 0.814939	 -0.343131	 0.465419	 1
1463623977.912	 1	 -0.552977	 -0.261653	 0.729620	 1.993581	 -0.628718	 -0.321253	 -0.038016	 0.815155	 -0.338899	 0.468215	 1
1463623977.922	 1	 -0.334204	 0.033856	 0.647336	 1.993994	 -0.621023	 -0.320223	 -0.036245	 0.815895	 -0.335732	 0.469345	 1
1463623977.932	 1	 -0.085176	 0.212021	 0.529592	 1.994919	 -0.615269	 -0.321404	 -0.034023	 0.816621	 -0.333829	 0.469607	 1
1463623977.942	 1	 0.173947	 0.601949	 0.283707	 1.998070	 -0.612486	 -0.324382	 -0.031514	 0.817642	 -0.333515	 0.468226	 1
1463623977.952	 1	 0.472630	 1.114217	 -0.089275	 2.005403	 -0.614050	 -0.328844	 -0.028891	 0.819288	 -0.335264	 0.464252	 1
1463623977.962	 1	 0.785720	 1.585403	 -0.548026	 2.016835	 -0.620929	 -0.334451	 -0.026540	 0.821420	 -0.339352	 0.457608	 1
1463623977.982	 2	 1.449897	 2.385770	 -1.671806	 2.051256	 -0.653855	 -0.347385	 -0.024081	 0.826347	 -0.355323	 0.436252	 1
1463623977.992	 2	 1.741602	 2.421781	 -2.161064	 2.071804	 -0.679852	 -0.353873	 -0.024541	 0.828346	 -0.366958	 0.422590	 1
1463623978.002	 2	 1.249513	 1.122778	 -2.259457	 2.085770	 -0.706638	 -0.355942	 -0.028059	 0.828554	 -0.377855	 0.412233	 1
1463623978.012	 2	 0.645619	 0.495749	 -2.287744	 2.095322	 -0.730112	 -0.349718	 -0.034866	 0.827864	 -0.385727	 0.405759	 1
1463623978.022	 2	 0.431367	 0.595952	 -2.343563	 2.108125	 -0.752614	 -0.339249	 -0.042448	 0.827645	 -0.392487	 0.398943	 1
1463623978.032	 2	 0.376064	 0.647073	 -2.356461	 2.123057	 -0.774750	 -0.326852	 -0.050190	 0.827601	 -0.398872	 0.391737	 1
1463623978.042	 2	 0.453416	 0.629858	 -2.205956	 2.137980	 -0.796118	 -0.314956	 -0.057403	 0.827410	 -0.405173	 0.384619	 1
1463623978.052	 2	 0.604512	 0.451287	 -1.835917	 2.148799	 -0.815496	 -0.306747	 -0.063320	 0.826592	 -0.411383	 0.378813	 1
1463623978.062	 2	 0.566227	 0.667468	 -1.521303	 2.158685	 -0.831978	 -0.301180	 -0.067552	 0.825940	 -0.416996	 0.373329	 1
1463623978.072	 2	 0.295077	 1.292901	 -1.480084	 2.175572	 -0.846268	 -0.293443	 -0.070610	 0.826702	 -0.421650	 0.365772	 1
1463623978.082	 2	 -0.025105	 2.328609	 -1.643509	 2.206260	 -0.859525	 -0.279973	 -0.072771	 0.829722	 -0.425458	 0.353908	 1
1463623978.092	 2	 -0.012427	 3.061753	 -1.741242	 2.248381	 -0.873000	 -0.263054	 -0.073826	 0.834239	 -0.429344	 0.338022	 1
1463623978.102	 2	 0.603482	 2.753395	 -1.335961	 2.286992	 -0.886733	 -0.251655	 -0.073203	 0.837905	 -0.434304	 0.322392	 1
1463623978.112	 2	 1.182825	 1.930184	 -0.659118	 2.304960	 -0.900086	 -0.255908	 -0.070272	 0.838611	 -0.440921	 0.312062	 1
1463623978.122	 2	 1.140655	 1.413659	 -0.182898	 2.311537	 -0.910116	 -0.266880	 -0.066284	 0.838251	 -0.446813	 0.305452	 1
1463623978.132	 2	 0.914283	 1.245363	 -0.015168	 2.315292	 -0.916996	 -0.278196	 -0.062118	 0.837975	 -0.451364	 0.300349	 1
1463623978.142	 2	 0.765319	 1.112848	 -0.015105	 2.319327	 -0.922446	 -0.287645	 -0.058369	 0.837902	 -0.455041	 0.295722	 1
1463623978.152	 2	 0.724631	 0.906218	 -0.072094	 2.322783	 -0.927803	 -0.295512	 -0.055390	 0.837688	 -0.458400	 0.291687	 1
1463623978.162	 2	 0.651336	 0.760616	 -0.102779	 2.325026	 -0.933151	 -0.302614	 -0.053003	 0.837258	 -0.461588	 0.288316	 1
1463623978.172	 2	 0.495053	 0.641051	 -0.080149	 2.327228	 -0.937475	 -0.308223	 -0.051039	 0.836952	 -0.464142	 0.285445	 1
1463623978.182	 2	 0.288736	 0.594679	 -0.109746	 2.337881	 -0.945916	 -0.305475	 -0.051440	 0.836875	 -0.467328	 0.280353	 1
1463623978.192	 2	 0.150009	 0.713198	 -0.249181	 2.344864	 -0.948646	 -0.305214	 -0.050470	 0.837347	 -0.468539	 0.277082	 1
1463623978.202	 2	 0.068728	 0.858636	 -0.466667	 2.356314	 -0.952180	 -0.301331	 -0.050122	 0.838177	 -0.469679	 0.272669	 1
1463623978.212	 2	 0.041044	 0.823149	 -0.677778	 2.370619	 -0.956885	 -0.294153	 -0.050700	 0.839057	 -0.470921	 0.267667	 1
1463623978.222	 2	 0.121031	 0.537398	 -0.888957	 2.384541	 -0.963342	 -0.284774	 -0.052608	 0.839447	 -0.472585	 0.263104	 1
1463623978.232	 2	 0.216665	 0.173966	 -1.098868	 2.396002	 -0.972599	 -0.273883	 -0.056229	 0.838874	 -0.475138	 0.259562	 1
1463623978.242	 2	 0.239294	 -0.106910	 -1.247688	 2.406666	 -0.982513	 -0.260640	 -0.061099	 0.837922	 -0.477673	 0.256869	 1
1463623978.252	 2	 0.279892	 -0.503093	 -1.302885	 2.414481	 -0.993191	 -0.246427	 -0.067142	 0.836335	 -0.480343	 0.255549	 1
1463623978.262	 2	 0.256619	 -0.738688	 -1.239863	 2.419529	 -1.003555	 -0.232165	 -0.073761	 0.834367	 -0.482818	 0.255494	 1
1463623978.272	 2	 0.242392	 -0.758442	 -1.036363	 2.422297	 -1.012567	 -0.219820	 -0.079847	 0.832381	 -0.484928	 0.256148	 1
1463623978.282	 2	 0.262279	 -0.570795	 -0.819506	 2.423932	 -1.020258	 -0.210511	 -0.084683	 0.830592	 -0.486858	 0.256738	 1
1463623978.292	 2	 0.327921	 -0.142215	 -0.654093	 2.426471	 -1.027103	 -0.204421	 -0.087794	 0.829202	 -0.488904	 0.256297	 1
1463623978.302	 2	 0.478148	 0.455340	 -0.620000	 2.432600	 -1.034456	 -0.200829	 -0.089061	 0.828248	 -0.491636	 0.253706	 1
1463623978.312	 2	 0.685994	 0.952713	 -0.737614	 2.443823	 -1.043884	 -0.197776	 -0.089176	 0.827475	 -0.495495	 0.248629	 1
1463623978.322	 2	 0.870097	 1.260030	 -0.965496	 2.458766	 -1.056084	 -0.194344	 -0.088933	 0.826466	 -0.500582	 0.241790	 1
1463623978.332	 2	 0.934641	 1.302071	 -1.155373	 2.477141	 -1.070232	 -0.188310	 -0.089128	 0.825207	 -0.506298	 0.233992	 1
1463623978.342	 2	 0.970274	 1.064751	 -1.306032	 2.496378	 -1.085616	 -0.179376	 -0.090369	 0.823493	 -0.512241	 0.226499	 1
1463623978.352	 2	 1.009400	 0.773116	 -1.318679	 2.514066	 -1.101546	 -0.168967	 -0.092556	 0.821258	 -0.518213	 0.220055	 1
1463623978.362	 2	 1.059712	 0.568676	 -1.036461	 2.526360	 -1.116606	 -0.162104	 -0.094428	 0.818674	 -0.524015	 0.215091	 1
1463623978.372	 2	 1.017966	 0.314263	 -0.495992	 2.528387	 -1.128971	 -0.164093	 -0.094914	 0.815987	 -0.529215	 0.212341	 1
1463623978.382	 2	 0.857876	 -0.091449	 0.252989	 2.516363	 -1.135944	 -0.177474	 -0.093700	 0.813641	 -0.532814	 0.212880	 1
1463623978.392	 2	 0.793142	 -0.234183	 0.784040	 2.491742	 -1.138222	 -0.202035	 -0.090650	 0.811582	 -0.535202	 0.216048	 1
1463623978.402	 2	 0.836269	 0.162809	 0.691440	 2.468270	 -1.140116	 -0.228271	 -0.086621	 0.809743	 -0.537743	 0.218279	 1
1463623978.412	 2	 0.837235	 0.776167	 0.204757	 2.457127	 -1.144547	 -0.247406	 -0.082636	 0.808292	 -0.541051	 0.217021	 1
1463623978.422	 2	 0.666212	 1.157895	 -0.318820	 2.461250	 -1.151382	 -0.254786	 -0.079708	 0.807420	 -0.544616	 0.212399	 1
1463623978.432	 2	 0.299836	 1.100528	 -0.603920	 2.476819	 -1.157943	 -0.250279	 -0.078390	 0.807309	 -0.547260	 0.206431	 1
1463623978.442	 2	 -0.006470	 0.612430	 -0.567427	 2.494407	 -1.162035	 -0.239255	 -0.078700	 0.807685	 -0.548389	 0.201793	 1
1463623978.452	 2	 -0.099785	 0.294445	 -0.307396	 2.506205	 -1.163603	 -0.230275	 -0.079345	 0.808131	 -0.548557	 0.199282	 1
1463623978.462	 2	 -0.123863	 0.106609	 0.034241	 2.510386	 -1.162971	 -0.227437	 -0.079245	 0.808589	 -0.548197	 0.198453	 1
1463623978.472	 2	 -0.142428	 -0.183036	 0.272570	 2.507068	 -1.160529	 -0.229924	 -0.078760	 0.808954	 -0.547373	 0.199431	 1
1463623978.482	 2	 -0.142583	 -0.493167	 0.333631	 2.498792	 -1.157415	 -0.234352	 -0.078732	 0.809054	 -0.546295	 0.201977	 1
1463623978.492	 2	 -0.156612	 -0.766352	 0.350394	 2.487635	 -1.154123	 -0.238886	 -0.079405	 0.808891	 -0.545052	 0.205692	 1
1463623978.502	 2	 -0.151031	 -0.930253	 0.338163	 2.474702	 -1.150813	 -0.243239	 -0.080616	 0.808513	 -0.543719	 0.210184	 1
1463623978.512	 2	 -0.149614	 -1.062316	 0.314541	 2.460903	 -1.147665	 -0.247089	 -0.082274	 0.807951	 -0.542363	 0.215149	 1
1463623978.522	 2	 -0.172673	 -1.188910	 0.301840	 2.446406	 -1.144456	 -0.250258	 -0.084368	 0.807260	 -0.540881	 0.220593	 1
1463623978.532	 2	 -0.210413	 -1.239069	 0.263335	 2.432309	 -1.141152	 -0.252200	 -0.086812	 0.806541	 -0.539239	 0.226224	 1
1463623978.542	 2	 -0.230312	 -1.118113	 0.214543	 2.420220	 -1.137945	 -0.252723	 -0.089284	 0.805925	 -0.537550	 0.231416	 1
1463623978.552	 2	 -0.215337	 -0.836716	 0.157348	 2.411484	 -1.135155	 -0.252306	 -0.091295	 0.805530	 -0.536050	 0.235450	 1
1463623978.562	 2	 -0.171734	 -0.573665	 0.075221	 2.406243	 -1.133144	 -0.251100	 -0.092819	 0.805316	 -0.534905	 0.238175	 1
1463623978.572	 2	 -0.121107	 -0.411622	 0.000619	 2.403423	 -1.132034	 -0.249283	 -0.094102	 0.805149	 -0.534136	 0.239957	 1
1463623978.582	 2	 -0.089850	 -0.315192	 -0.036058	 2.401903	 -1.131535	 -0.247265	 -0.095230	 0.804985	 -0.533632	 0.241180	 1
1463623978.592	 2	 -0.116469	 -0.304460	 -0.033595	 2.400969	 -1.130988	 -0.244968	 -0.096303	 0.804887	 -0.533102	 0.242248	 1
1463623978.602	 2	 -0.162622	 -0.380729	 -0.009390	 2.399781	 -1.129989	 -0.242325	 -0.097501	 0.804844	 -0.532346	 0.243574	 1
1463623978.612	 2	 -0.211048	 -0.495206	 0.025137	 2.397721	 -1.128416	 -0.239443	 -0.098922	 0.804811	 -0.531296	 0.245395	 1
1463623978.622	 2	 -0.254076	 -0.605368	 0.070314	 2.394504	 -1.126230	 -0.236585	 -0.100527	 0.804772	 -0.529954	 0.247761	 1
1463623978.632	 2	 -0.283986	 -0.661220	 0.129737	 2.390200	 -1.123423	 -0.234151	 -0.102132	 0.804753	 -0.528367	 0.250539	 1
1463623978.642	 2	 -0.294438	 -0.669226	 0.194765	 2.384936	 -1.120061	 -0.232542	 -0.103551	 0.804772	 -0.526618	 0.253562	 1
1463623978.652	 2	 -0.284367	 -0.623114	 0.254824	 2.371694	 -1.114318	 -0.238604	 -0.103525	 0.804688	 -0.524530	 0.258126	 1
1463623978.662	 2	 -0.257186	 -0.553739	 0.298929	 2.365530	 -1.110399	 -0.239095	 -0.104204	 0.804790	 -0.522790	 0.261048	 1
1463623978.672	 2	 -0.220388	 -0.469609	 0.328167	 2.359266	 -1.106502	 -0.240617	 -0.104489	 0.804914	 -0.521188	 0.263742	 1
1463623978.682	 2	 -0.184851	 -0.403752	 0.330602	 2.353139	 -1.102790	 -0.242790	 -0.104499	 0.805036	 -0.519751	 0.266188	 1
1463623978.692	 2	 -0.151577	 -0.350771	 0.313664	 2.352326	 -1.107657	 -0.240765	 -0.106458	 0.803746	 -0.521278	 0.266324	 1
1463623978.702	 2	 -0.117357	 -0.305398	 0.277552	 2.346937	 -1.104730	 -0.243266	 -0.106294	 0.803805	 -0.520220	 0.268272	 1
1463623978.712	 2	 -0.090656	 -0.259040	 0.227660	 2.342252	 -1.102325	 -0.245470	 -0.106160	 0.803820	 -0.519361	 0.269940	 1
1463623978.722	 2	 -0.070372	 -0.203198	 0.162992	 2.338669	 -1.100510	 -0.247045	 -0.106104	 0.803816	 -0.518700	 0.271243	 1
1463623978.732	 2	 -0.054432	 -0.162246	 0.093857	 2.340806	 -1.108894	 -0.243760	 -0.108497	 0.802089	 -0.521526	 0.269985	 1
1463623978.742	 2	 -0.032039	 -0.117000	 0.035466	 2.339383	 -1.108277	 -0.243900	 -0.108692	 0.802040	 -0.521236	 0.270611	 1
1463623978.752	 2	 -0.021292	 -0.067333	 -0.004664	 2.338870	 -1.108087	 -0.243598	 -0.108910	 0.801996	 -0.521096	 0.270924	 1
1463623978.762	 2	 -0.015872	 -0.029235	 -0.028869	 2.339068	 -1.108142	 -0.242949	 -0.109129	 0.801976	 -0.521039	 0.271005	 1
1463623978.772	 2	 -0.016873	 -0.010186	 -0.039345	 2.333971	 -1.110040	 -0.247226	 -0.109114	 0.801100	 -0.522054	 0.271648	 1
1463623978.782	 2	 -0.021116	 -0.003799	 -0.040314	 2.334786	 -1.110192	 -0.246256	 -0.109320	 0.801124	 -0.522024	 0.271552	 1
1463623978.792	 2	 -0.022147	 -0.001622	 -0.033890	 2.335576	 -1.110295	 -0.245343	 -0.109499	 0.801159	 -0.521982	 0.271458	 1
1463623978.802	 2	 -0.023162	 -0.000470	 -0.022147	 2.336244	 -1.110314	 -0.244580	 -0.109634	 0.801203	 -0.521922	 0.271386	 1
1463623978.812	 2	 -0.022036	 0.000643	 -0.011467	 2.330636	 -1.109463	 -0.249488	 -0.108966	 0.800896	 -0.521964	 0.272480	 1
1463623978.822	 2	 -0.024165	 -0.003559	 -0.005093	 2.331040	 -1.109352	 -0.249009	 -0.109031	 0.800949	 -0.521879	 0.272460	 1
1463623978.832	 2	 -0.025268	 -0.012058	 -0.004096	 2.331365	 -1.109208	 -0.248535	 -0.109107	 0.801000	 -0.521778	 0.272476	 1
1463623978.842	 2	 -0.023143	 -0.013135	 -0.005191	 2.331658	 -1.109078	 -0.248061	 -0.109195	 0.801042	 -0.521681	 0.272502	 1
1463623978.852	 2	 -0.022081	 -0.015302	 -0.007344	 2.326777	 -1.109497	 -0.252202	 -0.108893	 0.800510	 -0.522137	 0.273312	 1
1463623978.862	 2	 -0.017813	 -0.016371	 -0.006325	 2.326989	 -1.109417	 -0.251788	 -0.108988	 0.800534	 -0.522062	 0.273347	 1
1463623978.872	 2	 -0.015667	 -0.017410	 -0.002091	 2.327103	 -1.109325	 -0.251466	 -0.109069	 0.800552	 -0.521990	 0.273399	 1
1463623978.882	 2	 -0.012458	 -0.018460	 0.001069	 2.327109	 -1.109236	 -0.251254	 -0.109135	 0.800561	 -0.521928	 0.273466	 1
1463623978.892	 2	 -0.010303	 -0.020585	 0.005308	 2.321607	 -1.109060	 -0.255980	 -0.108645	 0.800103	 -0.522210	 0.274461	 1
1463623978.902	 2	 -0.006007	 -0.017384	 0.008498	 2.321415	 -1.108949	 -0.255994	 -0.108667	 0.800101	 -0.522160	 0.274551	 1
1463623978.912	 2	 -0.007040	 -0.012047	 0.010688	 2.321243	 -1.108827	 -0.256034	 -0.108672	 0.800107	 -0.522110	 0.274628	 1
1463623978.922	 2	 -0.010217	 -0.007775	 0.011821	 2.321132	 -1.108686	 -0.256065	 -0.108660	 0.800124	 -0.522056	 0.274686	 1
1463623978.932	 2	 -0.009131	 -0.006723	 0.012898	 2.317297	 -1.108432	 -0.259443	 -0.108260	 0.799835	 -0.522218	 0.275378	 1
1463623978.942	 2	 -0.009094	 -0.002466	 0.015077	 2.314132	 -1.108289	 -0.262251	 -0.107934	 0.799581	 -0.522381	 0.275932	 1
1463623978.952	 2	 -0.006940	 -0.001414	 0.016138	 2.310916	 -1.108428	 -0.265141	 -0.107647	 0.799263	 -0.522658	 0.276441	 1
1463623978.962	 2	 -0.004782	 0.000704	 0.017207	 2.308133	 -1.108773	 -0.267666	 -0.107436	 0.798939	 -0.522986	 0.276838	 1
1463623978.972	 2	 -0.000487	 0.003882	 0.018264	 2.305988	 -1.109207	 -0.269662	 -0.107288	 0.798656	 -0.523308	 0.277105	 1
1463623978.982	 2	 0.000619	 0.010253	 0.018310	 2.304077	 -1.109779	 -0.271512	 -0.107166	 0.798367	 -0.523674	 0.277293	 1
1463623978.992	 2	 0.007033	 0.011292	 0.018259	 2.302518	 -1.110455	 -0.273081	 -0.107086	 0.798090	 -0.524058	 0.277396	 1
1463623979.002	 2	 0.009218	 0.019799	 0.019380	 2.301403	 -1.111029	 -0.274325	 -0.106999	 0.797878	 -0.524383	 0.277424	 1
1463623979.012	 2	 0.007107	 0.027218	 0.015196	 2.300856	 -1.111835	 -0.275123	 -0.106989	 0.797672	 -0.524762	 0.277304	 1
1463623979.022	 2	 0.007106	 0.029312	 0.010943	 2.300305	 -1.112685	 -0.275936	 -0.106984	 0.797456	 -0.525159	 0.277175	 1
1463623979.032	 2	 0.010285	 0.027142	 0.006623	 2.299938	 -1.113603	 -0.276568	 -0.107017	 0.797242	 -0.525566	 0.277008	 1
1463623979.042	 2	 0.014527	 0.023905	 0.002286	 2.299325	 -1.114407	 -0.277393	 -0.107014	 0.797028	 -0.525944	 0.276906	 1
1463623979.052	 2	 0.013461	 0.024954	 0.000168	 2.298795	 -1.115061	 -0.278139	 -0.106990	 0.796854	 -0.526259	 0.276816	 1
1463623979.062	 2	 0.013467	 0.024960	 0.001231	 2.298522	 -1.115477	 -0.278657	 -0.106941	 0.796755	 -0.526470	 0.276721	 1
1463623979.072	 2	 0.013464	 0.022839	 0.002276	 2.298113	 -1.115770	 -0.279279	 -0.106861	 0.796669	 -0.526642	 0.276673	 1
1463623979.082	 2	 0.012392	 0.019664	 0.004387	 2.297594	 -1.115929	 -0.279976	 -0.106753	 0.796600	 -0.526769	 0.276671	 1
1463623979.092	 2	 0.009202	 0.019687	 0.006548	 2.297012	 -1.115992	 -0.280722	 -0.106622	 0.796546	 -0.526864	 0.276696	 1
1463623979.102	 2	 0.008126	 0.017561	 0.006538	 2.296487	 -1.116103	 -0.281402	 -0.106513	 0.796485	 -0.526972	 0.276708	 1
1463623979.112	 2	 0.008148	 0.019702	 0.008688	 2.295998	 -1.116270	 -0.282072	 -0.106409	 0.796417	 -0.527100	 0.276699	 1
1463623979.122	 2	 0.007086	 0.018655	 0.010818	 2.295591	 -1.116456	 -0.282665	 -0.106318	 0.796353	 -0.527228	 0.276675	 1
1463623979.132	 2	 0.008170	 0.019729	 0.012949	 2.295041	 -1.116616	 -0.283395	 -0.106206	 0.796281	 -0.527359	 0.276676	 1
1463623979.142	 2	 0.009233	 0.017606	 0.013982	 2.294762	 -1.116834	 -0.283874	 -0.106134	 0.796221	 -0.527490	 0.276625	 1
1463623979.152	 2	 0.008163	 0.015489	 0.015034	 2.294485	 -1.117109	 -0.284337	 -0.106079	 0.796148	 -0.527641	 0.276568	 1
1463623979.162	 2	 0.007086	 0.013492	 0.011784	 2.294343	 -1.117416	 -0.284652	 -0.106055	 0.796080	 -0.527789	 0.276492	 1
1463623979.172	 2	 0.004939	 0.012420	 0.009658	 2.294449	 -1.117656	 -0.284714	 -0.106052	 0.796046	 -0.527892	 0.276394	 1
1463623979.182	 2	 0.002787	 0.011341	 0.006465	 2.294917	 -1.117949	 -0.284431	 -0.106102	 0.796033	 -0.527985	 0.276235	 1
1463623979.192	 2	 -0.000446	 0.009185	 0.001141	 2.295272	 -1.118197	 -0.284208	 -0.106148	 0.796017	 -0.528064	 0.276112	 1
1463623979.202	 2	 -0.002602	 0.007041	 -0.002060	 2.295560	 -1.118432	 -0.284018	 -0.106196	 0.795996	 -0.528140	 0.276009	 1
1463623979.212	 2	 -0.001556	 0.002784	 -0.002111	 2.295904	 -1.118601	 -0.283728	 -0.106255	 0.795992	 -0.528180	 0.275922	 1
1463623979.222	 2	 0.000563	 -0.001469	 -0.001105	 2.295889	 -1.118727	 -0.283728	 -0.106285	 0.795963	 -0.528225	 0.275907	 1
1463623979.232	 2	 0.001610	 -0.006783	 -0.000098	 2.295792	 -1.118847	 -0.283772	 -0.106318	 0.795926	 -0.528270	 0.275915	 1
1463623979.242	 2	 0.002689	 -0.007819	 0.004145	 2.295638	 -1.118856	 -0.283868	 -0.106323	 0.795908	 -0.528278	 0.275950	 1
1463623979.252	 2	 0.004813	 -0.011009	 0.005163	 2.295259	 -1.118922	 -0.284140	 -0.106328	 0.795856	 -0.528320	 0.276018	 1
1463623979.262	 2	 0.004841	 -0.007795	 0.008389	 2.295015	 -1.118929	 -0.284318	 -0.106323	 0.795830	 -0.528335	 0.276066	 1
1463623979.272	 2	 0.007024	 -0.000333	 0.011637	 2.294718	 -1.118907	 -0.284623	 -0.106276	 0.795810	 -0.528353	 0.276108	 1
1463623979.282	 2	 0.008099	 0.003895	 0.008471	 2.294379	 -1.118823	 -0.285010	 -0.106194	 0.795802	 -0.528357	 0.276154	 1
1463623979.292	 2	 0.005989	 0.008163	 0.009596	 2.294149	 -1.118700	 -0.285331	 -0.106101	 0.795814	 -0.528344	 0.276180	 1
1463623979.302	 2	 0.005999	 0.011347	 0.008560	 2.294015	 -1.118616	 -0.285606	 -0.106010	 0.795827	 -0.528344	 0.276175	 1
1463623979.312	 2	 0.004918	 0.011326	 0.005374	 2.293935	 -1.118481	 -0.285814	 -0.105920	 0.795857	 -0.528319	 0.276174	 1
1463623979.322	 2	 0.002783	 0.010276	 0.006450	 2.293725	 -1.118307	 -0.286123	 -0.105817	 0.795881	 -0.528287	 0.276204	 1
1463623979.332	 2	 0.003863	 0.011351	 0.008585	 2.293493	 -1.118104	 -0.286473	 -0.105697	 0.795911	 -0.528249	 0.276237	 1
1463623979.342	 2	 0.004944	 0.012427	 0.010719	 2.293213	 -1.117940	 -0.286883	 -0.105574	 0.795929	 -0.528230	 0.276267	 1
1463623979.352	 2	 0.007097	 0.014562	 0.012853	 2.292914	 -1.117854	 -0.287331	 -0.105457	 0.795930	 -0.528245	 0.276282	 1
1463623979.362	 2	 0.009251	 0.016698	 0.014985	 2.292660	 -1.117870	 -0.287782	 -0.105348	 0.795915	 -0.528300	 0.276261	 1
1463623979.372	 2	 0.008176	 0.016686	 0.012862	 2.292415	 -1.117950	 -0.288217	 -0.105256	 0.795887	 -0.528376	 0.276230	 1
1463623979.382	 2	 0.006034	 0.015621	 0.011800	 2.292503	 -1.118248	 -0.288341	 -0.105245	 0.795842	 -0.528507	 0.276114	 1
1463623979.392	 2	 0.003889	 0.016661	 0.007563	 2.292563	 -1.118370	 -0.288472	 -0.105203	 0.795831	 -0.528573	 0.276036	 1
1463623979.402	 2	 0.001745	 0.014540	 0.007561	 2.292593	 -1.118434	 -0.288607	 -0.105154	 0.795829	 -0.528617	 0.275977	 1
1463623979.412	 2	 -0.002527	 0.013488	 0.007587	 2.292494	 -1.118469	 -0.288838	 -0.105095	 0.795820	 -0.528656	 0.275950	 1
1463623979.422	 2	 -0.007873	 0.009264	 0.009725	 2.292436	 -1.118463	 -0.288988	 -0.105050	 0.795821	 -0.528672	 0.275935	 1
1463623979.432	 2	 -0.005758	 0.003947	 0.010722	 2.292312	 -1.118506	 -0.289154	 -0.105025	 0.795803	 -0.528704	 0.275933	 1
1463623979.442	 2	 -0.003653	 -0.004554	 0.012753	 2.292075	 -1.118605	 -0.289367	 -0.105024	 0.795760	 -0.528757	 0.275955	 1
1463623979.452	 2	 0.000594	 -0.008829	 0.011607	 2.291811	 -1.118829	 -0.289564	 -0.105062	 0.795687	 -0.528852	 0.275971	 1
1463623979.462	 2	 0.001645	 -0.009919	 0.008385	 2.291708	 -1.119128	 -0.289590	 -0.105141	 0.795610	 -0.528960	 0.275956	 1
1463623979.472	 2	 0.004851	 -0.007816	 0.006240	 2.291651	 -1.119460	 -0.289597	 -0.105222	 0.795531	 -0.529080	 0.275923	 1
1463623979.482	 2	 0.004860	 -0.003584	 0.003077	 2.291676	 -1.119766	 -0.289565	 -0.105292	 0.795467	 -0.529189	 0.275871	 1
1463623979.492	 2	 0.002733	 -0.001457	 0.002045	 2.291711	 -1.120015	 -0.289537	 -0.105346	 0.795417	 -0.529278	 0.275823	 1
1463623979.502	 2	 0.002729	 -0.001464	 0.000975	 2.292013	 -1.120236	 -0.289265	 -0.105420	 0.795397	 -0.529337	 0.275739	 1
1463623979.512	 2	 -0.000500	 -0.004667	 -0.002227	 2.292294	 -1.120423	 -0.288979	 -0.105498	 0.795381	 -0.529381	 0.275673	 1
1463623979.522	 2	 -0.000520	 -0.008921	 -0.002269	 2.292393	 -1.120578	 -0.288812	 -0.105570	 0.795352	 -0.529420	 0.275652	 1
1463623979.532	 2	 -0.004818	 -0.014234	 -0.003350	 2.292586	 -1.120721	 -0.288499	 -0.105673	 0.795332	 -0.529439	 0.275634	 1
1463623979.542	 2	 -0.006985	 -0.019561	 -0.005515	 2.292752	 -1.120842	 -0.288147	 -0.105794	 0.795310	 -0.529444	 0.275642	 1
1463623979.552	 2	 -0.008062	 -0.021684	 -0.005528	 2.292853	 -1.120982	 -0.287826	 -0.105924	 0.795277	 -0.529456	 0.275664	 1
1463623979.562	 2	 -0.008075	 -0.023819	 -0.006617	 2.292921	 -1.121161	 -0.287507	 -0.106070	 0.795231	 -0.529481	 0.275692	 1
1463623979.572	 2	 -0.008074	 -0.023819	 -0.006619	 2.293002	 -1.121289	 -0.287169	 -0.106210	 0.795197	 -0.529486	 0.275728	 1
1463623979.582	 2	 -0.008054	 -0.019564	 -0.006580	 2.293096	 -1.121291	 -0.286853	 -0.106311	 0.795193	 -0.529448	 0.275774	 1
1463623979.592	 2	 -0.010184	 -0.018493	 -0.006551	 2.293201	 -1.121217	 -0.286538	 -0.106393	 0.795206	 -0.529383	 0.275828	 1
1463623979.602	 2	 -0.011243	 -0.017419	 -0.005465	 2.293219	 -1.121118	 -0.286313	 -0.106457	 0.795218	 -0.529317	 0.275896	 1
1463623979.612	 2	 -0.011241	 -0.019524	 -0.002285	 2.293172	 -1.120947	 -0.286136	 -0.106505	 0.795239	 -0.529227	 0.275990	 1
1463623979.622	 2	 -0.015516	 -0.022688	 -0.000143	 2.292941	 -1.120764	 -0.286099	 -0.106543	 0.795244	 -0.529143	 0.276122	 1
1463623979.632	 2	 -0.015520	 -0.023752	 -0.000151	 2.292677	 -1.120585	 -0.286076	 -0.106584	 0.795245	 -0.529060	 0.276262	 1
1463623979.642	 2	 -0.014428	 -0.020550	 0.002004	 2.292395	 -1.120401	 -0.286093	 -0.106614	 0.795246	 -0.528980	 0.276400	 1
1463623979.652	 2	 -0.011206	 -0.016306	 0.002017	 2.292136	 -1.120255	 -0.286134	 -0.106636	 0.795244	 -0.528918	 0.276516	 1
1463623979.662	 2	 -0.006908	 -0.012050	 0.004153	 2.291817	 -1.120107	 -0.286288	 -0.106628	 0.795240	 -0.528868	 0.276626	 1
1463623979.672	 2	 -0.003677	 -0.005678	 0.004185	 2.291675	 -1.119998	 -0.286348	 -0.106620	 0.795247	 -0.528829	 0.276684	 1
1463623979.682	 2	 -0.001513	 -0.000359	 0.005283	 2.291523	 -1.119876	 -0.286473	 -0.106585	 0.795259	 -0.528794	 0.276731	 1
1463623979.692	 2	 -0.003624	 0.004966	 0.005352	 2.291600	 -1.119711	 -0.286448	 -0.106540	 0.795304	 -0.528734	 0.276735	 1
1463623979.702	 2	 -0.003609	 0.009213	 0.004327	 2.291775	 -1.119590	 -0.286362	 -0.106503	 0.795349	 -0.528687	 0.276707	 1
1463623979.712	 2	 -0.003590	 0.013467	 0.004368	 2.291823	 -1.119442	 -0.286430	 -0.106433	 0.795391	 -0.528645	 0.276695	 1
1463623979.722	 2	 -0.004655	 0.013470	 0.004378	 2.291741	 -1.119385	 -0.286614	 -0.106369	 0.795402	 -0.528645	 0.276688	 1
1463623979.732	 2	 -0.004640	 0.015604	 0.005465	 2.291673	 -1.119317	 -0.286819	 -0.106291	 0.795418	 -0.528645	 0.276671	 1
1463623979.742	 2	 -0.004643	 0.014539	 0.005455	 2.291563	 -1.119307	 -0.287048	 -0.106227	 0.795417	 -0.528667	 0.276657	 1
1463623979.752	 2	 -0.002506	 0.014531	 0.005437	 2.291425	 -1.119330	 -0.287311	 -0.106164	 0.795407	 -0.528704	 0.276638	 1
1463623979.762	 2	 0.001780	 0.017708	 0.005429	 2.291252	 -1.119360	 -0.287642	 -0.106085	 0.795394	 -0.528752	 0.276615	 1
1463623979.772	 2	 0.006061	 0.020878	 0.004355	 2.291205	 -1.119417	 -0.287891	 -0.106010	 0.795389	 -0.528805	 0.276558	 1
1463623979.782	 2	 0.012470	 0.021922	 0.004309	 2.291066	 -1.119477	 -0.288260	 -0.105912	 0.795376	 -0.528870	 0.276506	 1
1463623979.792	 2	 0.015650	 0.018714	 0.003187	 2.291054	 -1.119486	 -0.288508	 -0.105819	 0.795386	 -0.528907	 0.276444	 1
1463623979.802	 2	 0.017780	 0.015540	 0.006337	 2.290979	 -1.119470	 -0.288795	 -0.105721	 0.795394	 -0.528937	 0.276400	 1
1463623979.812	 2	 0.016729	 0.015575	 0.010610	 2.290833	 -1.119462	 -0.289150	 -0.105617	 0.795394	 -0.528976	 0.276366	 1
1463623979.822	 2	 0.016741	 0.015598	 0.013808	 2.290591	 -1.119431	 -0.289600	 -0.105495	 0.795391	 -0.529014	 0.276348	 1
1463623979.832	 2	 0.016745	 0.014550	 0.015928	 2.290306	 -1.119480	 -0.290091	 -0.105386	 0.795367	 -0.529085	 0.276323	 1
1463623979.842	 2	 0.016746	 0.014550	 0.015928	 2.289944	 -1.119526	 -0.290655	 -0.105267	 0.795337	 -0.529160	 0.276311	 1
1463623979.852	 2	 0.014609	 0.015604	 0.013823	 2.289656	 -1.119603	 -0.291145	 -0.105164	 0.795306	 -0.529241	 0.276283	 1
1463623979.862	 2	 0.012474	 0.018770	 0.009607	 2.289424	 -1.119689	 -0.291587	 -0.105068	 0.795279	 -0.529321	 0.276244	 1
1463623979.872	 2	 0.011407	 0.018774	 0.009616	 2.289382	 -1.119703	 -0.291869	 -0.104969	 0.795285	 -0.529363	 0.276183	 1
1463623979.882	 2	 0.010336	 0.019825	 0.007503	 2.289365	 -1.119703	 -0.292120	 -0.104874	 0.795296	 -0.529397	 0.276124	 1
1463623979.892	 2	 0.010328	 0.016650	 0.009605	 2.289291	 -1.119696	 -0.292404	 -0.104780	 0.795302	 -0.529429	 0.276080	 1
1463623979.902	 2	 0.012471	 0.017715	 0.010662	 2.289254	 -1.119679	 -0.292666	 -0.104682	 0.795315	 -0.529458	 0.276028	 1
1463623979.912	 2	 0.012495	 0.020922	 0.012822	 2.289119	 -1.119700	 -0.293049	 -0.104569	 0.795311	 -0.529511	 0.275977	 1
1463623979.922	 2	 0.011453	 0.025188	 0.013935	 2.288980	 -1.119771	 -0.293470	 -0.104454	 0.795299	 -0.529588	 0.275909	 1
1463623979.932	 2	 0.008268	 0.027332	 0.015047	 2.288936	 -1.119832	 -0.293823	 -0.104337	 0.795298	 -0.529656	 0.275823	 1
1463623979.942	 2	 0.006116	 0.025196	 0.012911	 2.288991	 -1.119934	 -0.294063	 -0.104249	 0.795297	 -0.529730	 0.275720	 1
1463623979.952	 2	 0.003963	 0.020948	 0.012887	 2.289025	 -1.119995	 -0.294284	 -0.104165	 0.795300	 -0.529784	 0.275638	 1
1463623979.962	 2	 0.003935	 0.015623	 0.011769	 2.289098	 -1.120088	 -0.294425	 -0.104109	 0.795298	 -0.529841	 0.275556	 1
1463623979.972	 2	 0.003926	 0.013496	 0.011745	 2.289200	 -1.120202	 -0.294507	 -0.104073	 0.795291	 -0.529900	 0.275475	 1
1463623979.982	 2	 0.002843	 0.013469	 0.007488	 2.289272	 -1.120314	 -0.294595	 -0.104042	 0.795282	 -0.529956	 0.275405	 1
1463623979.992	 2	 -0.001433	 0.013466	 0.005391	 2.289390	 -1.120348	 -0.294627	 -0.104005	 0.795293	 -0.529980	 0.275344	 1
1463623980.002	 2	 -0.003575	 0.011345	 0.005389	 2.289421	 -1.120386	 -0.294719	 -0.103969	 0.795294	 -0.530007	 0.275301	 1
1463623980.012	 2	 -0.003583	 0.008161	 0.006424	 2.289312	 -1.120453	 -0.294905	 -0.103937	 0.795274	 -0.530052	 0.275284	 1
1463623980.022	 2	 -0.002538	 0.002839	 0.006364	 2.289141	 -1.120526	 -0.295104	 -0.103919	 0.795245	 -0.530097	 0.275287	 1
1463623980.032	 2	 0.000671	 0.003892	 0.006344	 2.288890	 -1.120604	 -0.295379	 -0.103892	 0.795208	 -0.530150	 0.275301	 1
1463623980.042	 2	 0.002814	 0.004948	 0.006334	 2.288690	 -1.120698	 -0.295622	 -0.103868	 0.795173	 -0.530208	 0.275300	 1
1463623980.052	 2	 0.004956	 0.006005	 0.006323	 2.288463	 -1.120810	 -0.295915	 -0.103835	 0.795133	 -0.530277	 0.275294	 1
1463623980.062	 2	 0.006025	 0.004946	 0.007368	 2.288265	 -1.120926	 -0.296175	 -0.103809	 0.795095	 -0.530345	 0.275285	 1
1463623980.072	 2	 0.001715	 -0.001447	 0.004148	 2.288053	 -1.120992	 -0.296390	 -0.103793	 0.795063	 -0.530388	 0.275301	 1
1463623980.082	 2	 0.000645	 -0.002508	 0.004145	 2.287890	 -1.121082	 -0.296530	 -0.103800	 0.795028	 -0.530432	 0.275314	 1
1463623980.092	 2	 -0.000446	 -0.007823	 0.004103	 2.287825	 -1.121166	 -0.296535	 -0.103832	 0.795002	 -0.530460	 0.275325	 1
1463623980.102	 2	 0.000623	 -0.008883	 0.005147	 2.287595	 -1.121266	 -0.296685	 -0.103855	 0.794957	 -0.530505	 0.275360	 1
1463623980.112	 2	 0.001670	 -0.009889	 0.004077	 2.287451	 -1.121401	 -0.296742	 -0.103899	 0.794911	 -0.530554	 0.275380	 1
1463623980.122	 2	 -0.002592	 -0.007756	 0.003067	 2.287416	 -1.121457	 -0.296702	 -0.103935	 0.794892	 -0.530568	 0.275395	 1
1463623980.142	 3	 -0.010051	 -0.004550	 0.002093	 2.287648	 -1.121449	 -0.296362	 -0.104007	 0.794908	 -0.530530	 0.275394	 1
1463623980.152	 3	 -0.014329	 -0.005608	 0.001053	 2.287962	 -1.121412	 -0.295990	 -0.104064	 0.794940	 -0.530481	 0.275374	 1
1463623980.162	 3	 -0.016493	 -0.010927	 -0.000045	 2.288267	 -1.121374	 -0.295577	 -0.104140	 0.794968	 -0.530427	 0.275369	 1
1463623980.172	 3	 -0.012234	 -0.013067	 -0.000104	 2.288441	 -1.121375	 -0.295260	 -0.104219	 0.794976	 -0.530392	 0.275383	 1
1463623980.182	 3	 -0.010113	 -0.014153	 -0.002266	 2.288537	 -1.121418	 -0.295006	 -0.104304	 0.794966	 -0.530378	 0.275405	 1
1463623980.202	 4	 -0.005818	 -0.009903	 -0.001201	 2.288589	 -1.121537	 -0.294662	 -0.104452	 0.794930	 -0.530377	 0.275456	 1
1463623980.212	 4	 -0.005803	 -0.007768	 -0.000115	 2.288554	 -1.121525	 -0.294597	 -0.104485	 0.794924	 -0.530362	 0.275490	 1
1463623980.222	 4	 -0.004721	 -0.004581	 -0.000094	 2.288482	 -1.121446	 -0.294595	 -0.104488	 0.794931	 -0.530329	 0.275532	 1
1463623980.232	 4	 -0.002569	 -0.003501	 0.003097	 2.288313	 -1.121326	 -0.294712	 -0.104461	 0.794940	 -0.530293	 0.275587	 1
1463623980.242	 4	 -0.003637	 -0.003498	 0.003108	 2.288139	 -1.121166	 -0.294835	 -0.104425	 0.794957	 -0.530242	 0.275651	 1
1463623980.252	 4	 -0.003643	 -0.006675	 0.005212	 2.287912	 -1.121030	 -0.294992	 -0.104394	 0.794963	 -0.530202	 0.275722	 1
1463623980.262	 4	 -0.004820	 -0.009984	 0.005350	 2.287780	 -1.120852	 -0.295032	 -0.104376	 0.794984	 -0.530135	 0.275793	 1
1463623980.272	 4	 -0.006955	 -0.009977	 0.005370	 2.287684	 -1.120709	 -0.295027	 -0.104374	 0.795001	 -0.530078	 0.275856	 1
1463623980.292	 5	 -0.012236	 -0.001430	 0.008694	 2.287505	 -1.120450	 -0.295080	 -0.104346	 0.795035	 -0.529981	 0.275956	 1
1463623980.302	 5	 -0.011148	 0.001765	 0.009779	 2.287404	 -1.120386	 -0.295176	 -0.104321	 0.795040	 -0.529966	 0.275981	 1
1463623980.312	 5	 -0.009003	 0.001773	 0.011891	 2.287222	 -1.120363	 -0.295354	 -0.104294	 0.795028	 -0.529972	 0.276010	 1
1463623980.322	 5	 -0.004760	 -0.000398	 0.007569	 2.287155	 -1.120420	 -0.295420	 -0.104297	 0.795010	 -0.529999	 0.276010	 1
1463623980.332	 5	 -0.004758	 -0.000398	 0.007567	 2.287125	 -1.120458	 -0.295456	 -0.104299	 0.795000	 -0.530016	 0.276006	 1
1463623980.342	 5	 -0.002645	 -0.001499	 0.003274	 2.287196	 -1.120520	 -0.295379	 -0.104324	 0.794993	 -0.530032	 0.275988	 1
1463623980.352	 5	 -0.002669	 -0.005760	 0.002166	 2.287328	 -1.120626	 -0.295213	 -0.104377	 0.794980	 -0.530055	 0.275962	 1
1463623980.362	 5	 -0.003732	 -0.005749	 0.003239	 2.287410	 -1.120690	 -0.295082	 -0.104421	 0.794970	 -0.530064	 0.275954	 1
1463623980.372	 5	 -0.002655	 -0.003625	 0.003249	 2.287430	 -1.120663	 -0.295018	 -0.104435	 0.794976	 -0.530046	 0.275967	 1
1463623980.382	 5	 -0.001571	 -0.003597	 0.007503	 2.287426	 -1.120567	 -0.294996	 -0.104425	 0.794994	 -0.530008	 0.275990	 1
1463623980.392	 5	 -0.001582	 -0.006780	 0.008538	 2.287326	 -1.120550	 -0.295051	 -0.104426	 0.794987	 -0.530004	 0.276018	 1
1463623980.402	 5	 0.002681	 -0.007856	 0.008490	 2.287244	 -1.120517	 -0.295096	 -0.104423	 0.794985	 -0.529994	 0.276045	 1
1463623980.412	 5	 0.002696	 -0.004665	 0.008518	 2.287119	 -1.120515	 -0.295190	 -0.104418	 0.794973	 -0.530000	 0.276070	 1
1463623980.422	 5	 0.003773	 -0.001484	 0.007471	 2.287141	 -1.120521	 -0.295176	 -0.104419	 0.794974	 -0.530001	 0.276064	 1
1463623980.432	 5	 0.001655	 0.003826	 0.005407	 2.287273	 -1.120490	 -0.295099	 -0.104408	 0.794995	 -0.529986	 0.276037	 1
1463623980.442	 5	 -0.000622	 0.005651	 0.004545	 2.287499	 -1.120437	 -0.294953	 -0.104395	 0.795030	 -0.529958	 0.275995	 1
1463623980.452	 5	 -0.005973	 0.004588	 0.002450	 2.287765	 -1.120335	 -0.294753	 -0.104383	 0.795078	 -0.529908	 0.275958	 1
1463623980.462	 5	 -0.010249	 0.002482	 0.003534	 2.288095	 -1.120159	 -0.294465	 -0.104373	 0.795146	 -0.529821	 0.275933	 1
1463623980.472	 5	 -0.010271	 -0.002829	 0.004550	 2.288237	 -1.120011	 -0.294304	 -0.104369	 0.795189	 -0.529752	 0.275943	 1
1463623980.482	 5	 -0.009226	 -0.009198	 0.006614	 2.288204	 -1.119888	 -0.294249	 -0.104374	 0.795208	 -0.529697	 0.275991	 1
1463623980.492	 5	 -0.009231	 -0.011318	 0.007660	 2.288041	 -1.119817	 -0.294288	 -0.104387	 0.795202	 -0.529668	 0.276058	 1
1463623980.502	 5	 -0.008158	 -0.011314	 0.008715	 2.287894	 -1.119799	 -0.294307	 -0.104414	 0.795187	 -0.529657	 0.276114	 1
1463623980.512	 5	 -0.006018	 -0.010257	 0.008704	 2.287785	 -1.119851	 -0.294308	 -0.104454	 0.795161	 -0.529670	 0.276149	 1
1463623980.522	 5	 -0.006000	 -0.006010	 0.007676	 2.287721	 -1.119906	 -0.294314	 -0.104480	 0.795141	 -0.529688	 0.276164	 1
1463623980.532	 5	 -0.006023	 -0.009216	 0.005512	 2.287742	 -1.119966	 -0.294216	 -0.104525	 0.795126	 -0.529697	 0.276171	 1
1463623980.542	 5	 -0.007109	 -0.012411	 0.004424	 2.287845	 -1.119989	 -0.294012	 -0.104584	 0.795124	 -0.529683	 0.276180	 1
1463623980.552	 5	 -0.012459	 -0.013474	 0.002328	 2.288073	 -1.119950	 -0.293661	 -0.104655	 0.795146	 -0.529632	 0.276189	 1
1463623980.562	 5	 -0.014603	 -0.014538	 0.001270	 2.288283	 -1.119875	 -0.293309	 -0.104724	 0.795172	 -0.529567	 0.276211	 1
1463623980.572	 5	 -0.016757	 -0.017730	 0.000192	 2.288434	 -1.119778	 -0.292970	 -0.104798	 0.795196	 -0.529493	 0.276257	 1
1463623980.582	 5	 -0.017969	 -0.020135	 -0.000573	 2.288468	 -1.119657	 -0.292709	 -0.104868	 0.795213	 -0.529414	 0.276332	 1
1463623980.592	 5	 -0.021181	 -0.023309	 0.000491	 2.288518	 -1.119567	 -0.292396	 -0.104960	 0.795223	 -0.529341	 0.276410	 1
1463623980.602	 5	 -0.017990	 -0.024398	 -0.001680	 2.288406	 -1.119676	 -0.292214	 -0.105085	 0.795174	 -0.529350	 0.276485	 1
1463623980.612	 5	 -0.016916	 -0.022282	 -0.002737	 2.288436	 -1.119703	 -0.291921	 -0.105199	 0.795157	 -0.529320	 0.276546	 1
1463623980.622	 5	 -0.011559	 -0.018044	 -0.002744	 2.288438	 -1.119694	 -0.291694	 -0.105287	 0.795148	 -0.529286	 0.276607	 1
1463623980.632	 5	 -0.008329	 -0.013783	 -0.000601	 2.288390	 -1.119655	 -0.291569	 -0.105341	 0.795143	 -0.529252	 0.276665	 1
1463623980.642	 5	 -0.008310	 -0.010585	 0.000495	 2.288323	 -1.119546	 -0.291500	 -0.105364	 0.795153	 -0.529199	 0.276728	 1
1463623980.652	 5	 -0.006166	 -0.009520	 0.001553	 2.288192	 -1.119432	 -0.291520	 -0.105367	 0.795160	 -0.529153	 0.276794	 1
1463623980.662	 5	 -0.006157	 -0.008449	 0.002629	 2.288093	 -1.119352	 -0.291520	 -0.105376	 0.795164	 -0.529119	 0.276846	 1
1463623980.672	 5	 -0.004018	 -0.009504	 0.004733	 2.287903	 -1.119300	 -0.291602	 -0.105383	 0.795153	 -0.529101	 0.276909	 1
1463623980.682	 5	 -0.006138	 -0.007363	 0.005837	 2.287783	 -1.119268	 -0.291628	 -0.105398	 0.795144	 -0.529087	 0.276955	 1
1463623980.692	 5	 -0.001868	 -0.007376	 0.005798	 2.287606	 -1.119295	 -0.291725	 -0.105411	 0.795119	 -0.529100	 0.276995	 1
1463623980.702	 5	 -0.003997	 -0.006305	 0.005825	 2.287661	 -1.119295	 -0.291621	 -0.105438	 0.795122	 -0.529089	 0.277001	 1
1463623980.712	 5	 -0.008237	 -0.002022	 0.008032	 2.287779	 -1.119255	 -0.291489	 -0.105452	 0.795139	 -0.529062	 0.276996	 1
1463623980.722	 5	 -0.011451	 -0.000979	 0.003805	 2.288114	 -1.119218	 -0.291158	 -0.105487	 0.795176	 -0.529021	 0.276956	 1
1463623980.732	 5	 -0.011446	 0.000085	 0.003813	 2.288446	 -1.119208	 -0.290836	 -0.105525	 0.795207	 -0.528990	 0.276911	 1
1463623980.742	 5	 -0.010383	 0.001131	 0.001680	 2.288849	 -1.119196	 -0.290458	 -0.105566	 0.795246	 -0.528954	 0.276852	 1
1463623980.752	 5	 -0.010547	 0.000935	 0.002026	 2.289281	 -1.119195	 -0.290048	 -0.105615	 0.795284	 -0.528920	 0.276789	 1
1463623980.762	 5	 -0.011643	 -0.002276	 -0.001193	 2.289689	 -1.119194	 -0.289633	 -0.105672	 0.795319	 -0.528884	 0.276737	 1
1463623980.772	 5	 -0.012724	 -0.004407	 -0.002271	 2.290014	 -1.119187	 -0.289253	 -0.105735	 0.795345	 -0.528846	 0.276709	 1
1463623980.782	 5	 -0.012743	 -0.007606	 -0.003367	 2.290151	 -1.119214	 -0.289016	 -0.105799	 0.795346	 -0.528830	 0.276713	 1
1463623980.792	 5	 -0.011677	 -0.009721	 -0.001265	 2.290283	 -1.119198	 -0.288773	 -0.105857	 0.795355	 -0.528798	 0.276728	 1
1463623980.802	 5	 -0.007383	 -0.005472	 -0.000197	 2.290312	 -1.119202	 -0.288658	 -0.105896	 0.795352	 -0.528785	 0.276746	 1
1463623980.812	 5	 -0.008438	 -0.006502	 0.004065	 2.290360	 -1.119142	 -0.288535	 -0.105920	 0.795365	 -0.528748	 0.276769	 1
1463623980.822	 5	 -0.006302	 -0.005452	 0.002990	 2.290276	 -1.119110	 -0.288541	 -0.105933	 0.795360	 -0.528733	 0.276806	 1
1463623980.832	 5	 -0.005226	 -0.005440	 0.005113	 2.290151	 -1.119063	 -0.288602	 -0.105932	 0.795356	 -0.528718	 0.276847	 1
1463623980.842	 5	 -0.004160	 -0.006500	 0.006160	 2.290047	 -1.118963	 -0.288642	 -0.105923	 0.795365	 -0.528681	 0.276895	 1
1463623980.852	 5	 -0.006285	 -0.005422	 0.007254	 2.289982	 -1.118841	 -0.288649	 -0.105912	 0.795383	 -0.528634	 0.276938	 1
1463623980.862	 5	 -0.010548	 -0.003290	 0.006246	 2.289971	 -1.118722	 -0.288609	 -0.105906	 0.795405	 -0.528584	 0.276973	 1
1463623980.872	 5	 -0.007327	 -0.000101	 0.007313	 2.289970	 -1.118662	 -0.288589	 -0.105902	 0.795416	 -0.528559	 0.276988	 1
1463623980.882	 5	 -0.007320	 0.002019	 0.006266	 2.289990	 -1.118646	 -0.288577	 -0.105898	 0.795422	 -0.528553	 0.276986	 1
1463623980.892	 5	 -0.005186	 0.002012	 0.006247	 2.290061	 -1.118587	 -0.288534	 -0.105884	 0.795442	 -0.528529	 0.276979	 1
1463623980.902	 5	 -0.001047	 0.002744	 0.004342	 2.290116	 -1.118584	 -0.288512	 -0.105877	 0.795449	 -0.528528	 0.276963	 1
1463623980.912	 5	 0.000022	 0.003796	 0.003276	 2.290135	 -1.118659	 -0.288532	 -0.105880	 0.795437	 -0.528559	 0.276938	 1
1463623980.922	 5	 0.002163	 0.005909	 0.002210	 2.290103	 -1.118750	 -0.288631	 -0.105868	 0.795418	 -0.528605	 0.276910	 1
1463623980.932	 5	 0.006443	 0.009080	 0.001136	 2.290079	 -1.118820	 -0.288748	 -0.105842	 0.795406	 -0.528645	 0.276877	 1
1463623980.942	 5	 0.006443	 0.009080	 0.001136	 2.290074	 -1.118859	 -0.288855	 -0.105810	 0.795403	 -0.528674	 0.276844	 1
1463623980.952	 5	 0.005379	 0.009091	 0.002211	 2.290102	 -1.118839	 -0.288942	 -0.105763	 0.795416	 -0.528680	 0.276814	 1
1463623980.962	 5	 0.002183	 0.005948	 0.007539	 2.290157	 -1.118793	 -0.288975	 -0.105726	 0.795435	 -0.528671	 0.276791	 1
1463623980.972	 5	 0.002165	 0.000646	 0.009621	 2.290210	 -1.118701	 -0.288978	 -0.105692	 0.795462	 -0.528640	 0.276784	 1
1463623980.982	 5	 -0.002105	 -0.001453	 0.011769	 2.290250	 -1.118636	 -0.288951	 -0.105678	 0.795480	 -0.528615	 0.276786	 1
1463623980.992	 5	 -0.001028	 0.000671	 0.011778	 2.290267	 -1.118589	 -0.288964	 -0.105659	 0.795493	 -0.528600	 0.276783	 1
1463623981.002	 5	 0.002189	 0.004909	 0.010722	 2.290319	 -1.118622	 -0.288988	 -0.105642	 0.795494	 -0.528618	 0.276751	 1
1463623981.012	 5	 0.005398	 0.009131	 0.007535	 2.290296	 -1.118669	 -0.289119	 -0.105606	 0.795488	 -0.528653	 0.276718	 1
1463623981.022	 5	 0.005414	 0.013378	 0.006509	 2.290340	 -1.118618	 -0.289231	 -0.105539	 0.795511	 -0.528652	 0.276679	 1
1463623981.032	 5	 0.004356	 0.015509	 0.006538	 2.290356	 -1.118543	 -0.289389	 -0.105457	 0.795537	 -0.528647	 0.276643	 1
1463623981.042	 5	 0.005426	 0.014457	 0.008651	 2.290345	 -1.118500	 -0.289579	 -0.105375	 0.795555	 -0.528657	 0.276604	 1
1463623981.052	 5	 0.004336	 0.008094	 0.010733	 2.290292	 -1.118364	 -0.289762	 -0.105288	 0.795587	 -0.528629	 0.276599	 1
1463623981.062	 5	 0.004305	 -0.004616	 0.018075	 2.290084	 -1.118272	 -0.290001	 -0.105229	 0.795590	 -0.528618	 0.276634	 1
1463623981.072	 5	 -0.003369	 -0.023973	 0.019262	 2.289935	 -1.118257	 -0.290007	 -0.105263	 0.795573	 -0.528605	 0.276694	 1
1463623981.082	 5	 -0.010897	 -0.034602	 0.017094	 2.289858	 -1.118368	 -0.289805	 -0.105387	 0.795528	 -0.528614	 0.276760	 1
1463623981.092	 5	 -0.014121	 -0.038855	 0.016013	 2.289550	 -1.118451	 -0.289744	 -0.105509	 0.795465	 -0.528620	 0.276885	 1
1463623981.102	 5	 -0.010994	 -0.050603	 0.010545	 2.289140	 -1.118635	 -0.289664	 -0.105688	 0.795364	 -0.528655	 0.277039	 1
1463623981.112	 5	 -0.003522	 -0.049569	 0.009421	 2.288654	 -1.118774	 -0.289665	 -0.105845	 0.795267	 -0.528680	 0.277209	 1
1463623981.122	 5	 -0.002442	 -0.044277	 0.006262	 2.288266	 -1.118810	 -0.289610	 -0.105977	 0.795203	 -0.528665	 0.277372	 1
1463623981.132	 5	 -0.003487	 -0.043179	 0.010544	 2.287831	 -1.118750	 -0.289633	 -0.106070	 0.795156	 -0.528623	 0.277548	 1
1463623981.142	 5	 -0.006661	 -0.041012	 0.014855	 2.287354	 -1.118642	 -0.289706	 -0.106145	 0.795117	 -0.528568	 0.277737	 1
1463623981.152	 5	 -0.007698	 -0.034626	 0.014923	 2.286944	 -1.118488	 -0.289767	 -0.106197	 0.795096	 -0.528499	 0.277909	 1
1463623981.162	 5	 -0.006606	 -0.029311	 0.014963	 2.286547	 -1.118329	 -0.289866	 -0.106229	 0.795080	 -0.528433	 0.278067	 1
1463623981.172	 5	 -0.005523	 -0.026124	 0.014984	 2.285989	 -1.118148	 -0.290156	 -0.106224	 0.795057	 -0.528378	 0.278242	 1
1463623981.182	 5	 -0.000166	 -0.020830	 0.013921	 2.285494	 -1.118021	 -0.290439	 -0.106215	 0.795030	 -0.528345	 0.278384	 1
1463623981.192	 5	 0.000910	 -0.020818	 0.016044	 2.285027	 -1.117876	 -0.290713	 -0.106199	 0.795010	 -0.528305	 0.278522	 1
1463623981.202	 5	 0.001974	 -0.018717	 0.012857	 2.284582	 -1.117782	 -0.290987	 -0.106188	 0.794983	 -0.528285	 0.278642	 1
1463623981.212	 5	 0.000927	 -0.015515	 0.013961	 2.284293	 -1.117746	 -0.291132	 -0.106199	 0.794958	 -0.528277	 0.278724	 1
1463623981.222	 5	 0.000846	 -0.010358	 0.008857	 2.284107	 -1.117725	 -0.291228	 -0.106206	 0.794942	 -0.528272	 0.278776	 1
1463623981.232	 5	 -0.000199	 -0.003988	 0.006793	 2.284074	 -1.117719	 -0.291232	 -0.106212	 0.794939	 -0.528269	 0.278789	 1
1463623981.242	 5	 -0.001261	 -0.001864	 0.005756	 2.284159	 -1.117667	 -0.291146	 -0.106213	 0.794957	 -0.528242	 0.278787	 1
1463623981.252	 5	 -0.006581	 -0.002873	 0.011121	 2.284186	 -1.117566	 -0.291106	 -0.106200	 0.794980	 -0.528201	 0.278804	 1
1463623981.262	 5	 -0.009812	 -0.008190	 0.010033	 2.284229	 -1.117478	 -0.290998	 -0.106213	 0.794999	 -0.528157	 0.278829	 1
1463623981.272	 5	 -0.011981	 -0.014573	 0.008926	 2.284269	 -1.117428	 -0.290836	 -0.106257	 0.795007	 -0.528118	 0.278864	 1
1463623981.282	 5	 -0.013051	 -0.013521	 0.006812	 2.284295	 -1.117387	 -0.290662	 -0.106311	 0.795010	 -0.528080	 0.278907	 1
1463623981.292	 5	 -0.010919	 -0.012479	 0.004671	 2.284338	 -1.117364	 -0.290482	 -0.106366	 0.795011	 -0.528049	 0.278941	 1
1463623981.302	 5	 -0.009836	 -0.008235	 0.003635	 2.284417	 -1.117312	 -0.290301	 -0.106406	 0.795024	 -0.528009	 0.278966	 1
1463623981.312	 5	 -0.009803	 -0.003958	 0.006871	 2.284462	 -1.117210	 -0.290200	 -0.106413	 0.795046	 -0.527960	 0.278992	 1
1463623981.322	 5	 -0.011923	 -0.000760	 0.006919	 2.284604	 -1.117096	 -0.290049	 -0.106412	 0.795082	 -0.527905	 0.278994	 1
1463623981.332	 5	 -0.008730	 -0.000785	 0.004759	 2.284799	 -1.117061	 -0.289847	 -0.106433	 0.795106	 -0.527874	 0.278976	 1
1463623981.342	 5	 -0.007661	 0.000268	 0.003692	 2.284885	 -1.117115	 -0.289756	 -0.106458	 0.795102	 -0.527885	 0.278956	 1
1463623981.352	 5	 -0.001251	 0.002368	 0.002589	 2.284928	 -1.117219	 -0.289734	 -0.106477	 0.795085	 -0.527923	 0.278928	 1
1463623981.362	 5	 0.000880	 0.002354	 0.001503	 2.284839	 -1.117351	 -0.289834	 -0.106488	 0.795049	 -0.527980	 0.278915	 1
1463623981.372	 5	 0.000888	 0.000257	 0.005746	 2.284633	 -1.117452	 -0.290036	 -0.106484	 0.795010	 -0.528035	 0.278927	 1
1463623981.382	 5	 0.000806	 -0.003158	 0.005875	 2.284491	 -1.117522	 -0.290168	 -0.106484	 0.794982	 -0.528071	 0.278937	 1
1463623981.392	 5	 -0.000281	 -0.008465	 0.006900	 2.284297	 -1.117539	 -0.290299	 -0.106486	 0.794958	 -0.528085	 0.278977	 1
1463623981.402	 5	 -0.002425	 -0.010586	 0.006899	 2.284133	 -1.117538	 -0.290372	 -0.106500	 0.794940	 -0.528086	 0.279023	 1
1463623981.412	 5	 -0.005637	 -0.012704	 0.006907	 2.284101	 -1.117451	 -0.290297	 -0.106520	 0.794950	 -0.528042	 0.279070	 1
1463623981.422	 5	 -0.007767	 -0.011634	 0.006935	 2.284103	 -1.117357	 -0.290190	 -0.106543	 0.794964	 -0.527993	 0.279113	 1
1463623981.432	 5	 -0.006671	 -0.007367	 0.009096	 2.284103	 -1.117311	 -0.290119	 -0.106561	 0.794970	 -0.527966	 0.279139	 1
1463623981.442	 5	 -0.008798	 -0.004185	 0.007011	 2.284155	 -1.117274	 -0.290014	 -0.106582	 0.794980	 -0.527941	 0.279153	 1
1463623981.452	 5	 -0.007736	 -0.005251	 0.006991	 2.284156	 -1.117237	 -0.289966	 -0.106593	 0.794985	 -0.527920	 0.279171	 1
1463623981.462	 5	 -0.007755	 -0.008450	 0.005895	 2.284128	 -1.117275	 -0.289913	 -0.106629	 0.794971	 -0.527925	 0.279190	 1
1463623981.472	 5	 -0.006712	 -0.013772	 0.005835	 2.284167	 -1.117309	 -0.289760	 -0.106687	 0.794961	 -0.527919	 0.279209	 1
1463623981.482	 5	 -0.006738	 -0.020146	 0.006840	 2.284007	 -1.117376	 -0.289740	 -0.106751	 0.794923	 -0.527932	 0.279267	 1
1463623981.492	 5	 -0.002489	 -0.024413	 0.006763	 2.283783	 -1.117430	 -0.289741	 -0.106821	 0.794880	 -0.527940	 0.279347	 1
1463623981.502	 5	 -0.000358	 -0.024427	 0.005677	 2.283450	 -1.117511	 -0.289833	 -0.106889	 0.794821	 -0.527964	 0.279441	 1
1463623981.512	 5	 0.001788	 -0.021250	 0.004621	 2.283241	 -1.117563	 -0.289837	 -0.106954	 0.794781	 -0.527973	 0.279515	 1
1463623981.522	 5	 0.001809	 -0.015940	 0.003604	 2.283105	 -1.117609	 -0.289818	 -0.107007	 0.794751	 -0.527980	 0.279566	 1
1463623981.532	 5	 0.001820	 -0.012756	 0.002567	 2.282912	 -1.117633	 -0.289878	 -0.107039	 0.794722	 -0.527987	 0.279623	 1
1463623981.542	 5	 -0.000315	 -0.012750	 0.002586	 2.282824	 -1.117599	 -0.289852	 -0.107065	 0.794716	 -0.527966	 0.279670	 1
1463623981.552	 5	 0.000717	 -0.012915	 0.004836	 2.282678	 -1.117548	 -0.289884	 -0.107080	 0.794708	 -0.527944	 0.279728	 1
1463623981.562	 5	 -0.000362	 -0.017151	 0.006937	 2.282524	 -1.117501	 -0.289895	 -0.107107	 0.794697	 -0.527920	 0.279794	 1
1463623981.572	 5	 -0.002489	 -0.018185	 0.010142	 2.282436	 -1.117451	 -0.289832	 -0.107145	 0.794692	 -0.527888	 0.279854	 1
1463623981.582	 5	 0.000712	 -0.018194	 0.010113	 2.282358	 -1.117414	 -0.289763	 -0.107185	 0.794686	 -0.527861	 0.279910	 1
1463623981.592	 5	 -0.001421	 -0.016075	 0.008019	 2.282392	 -1.117394	 -0.289610	 -0.107233	 0.794686	 -0.527834	 0.279940	 1
1463623981.602	 5	 -0.001388	 -0.009685	 0.009143	 2.282450	 -1.117309	 -0.289475	 -0.107253	 0.794705	 -0.527787	 0.279966	 1
1463623981.612	 5	 -0.001383	 -0.007565	 0.008097	 2.282546	 -1.117161	 -0.289332	 -0.107253	 0.794743	 -0.527718	 0.279990	 1
1463623981.622	 5	 -0.002431	 -0.002251	 0.007090	 2.282690	 -1.116998	 -0.289186	 -0.107239	 0.794790	 -0.527646	 0.279999	 1
1463623981.632	 5	 -0.005608	 0.003077	 0.007167	 2.282882	 -1.116841	 -0.289028	 -0.107219	 0.794841	 -0.527577	 0.279990	 1
1463623981.642	 5	 -0.005602	 0.006253	 0.005065	 2.283086	 -1.116680	 -0.288892	 -0.107185	 0.794897	 -0.527509	 0.279971	 1
1463623981.652	 5	 -0.005594	 0.006269	 0.007197	 2.283189	 -1.116502	 -0.288858	 -0.107134	 0.794947	 -0.527445	 0.279968	 1
1463623981.662	 5	 -0.005605	 0.004141	 0.007178	 2.283263	 -1.116400	 -0.288826	 -0.107106	 0.794978	 -0.527407	 0.279964	 1
1463623981.672	 5	 -0.006662	 0.005216	 0.008262	 2.283391	 -1.116386	 -0.288748	 -0.107100	 0.794995	 -0.527398	 0.279936	 1
1463623981.682	 5	 -0.003474	 0.004128	 0.006091	 2.283533	 -1.116454	 -0.288673	 -0.107107	 0.794996	 -0.527420	 0.279888	 1
1463623981.692	 5	 -0.003487	 0.001993	 0.005004	 2.283690	 -1.116593	 -0.288559	 -0.107140	 0.794982	 -0.527464	 0.279833	 1
1463623981.702	 5	 -0.002458	 0.000776	 0.002915	 2.283863	 -1.116718	 -0.288413	 -0.107179	 0.794972	 -0.527498	 0.279782	 1
1463623981.712	 5	 -0.005673	 -0.000294	 0.000800	 2.283968	 -1.116814	 -0.288302	 -0.107215	 0.794960	 -0.527523	 0.279754	 1
1463623981.722	 5	 -0.006751	 -0.004530	 0.002901	 2.283889	 -1.116833	 -0.288329	 -0.107229	 0.794947	 -0.527530	 0.279775	 1
1463623981.732	 5	 -0.008897	 -0.009819	 0.006068	 2.283773	 -1.116783	 -0.288355	 -0.107239	 0.794942	 -0.527509	 0.279823	 1
1463623981.742	 5	 -0.008904	 -0.014051	 0.009226	 2.283493	 -1.116704	 -0.288485	 -0.107245	 0.794927	 -0.527483	 0.279913	 1
1463623981.752	 5	 -0.007851	 -0.017246	 0.009187	 2.283131	 -1.116679	 -0.288661	 -0.107265	 0.794891	 -0.527479	 0.280015	 1
1463623981.762	 5	 -0.004644	 -0.017248	 0.010224	 2.282759	 -1.116742	 -0.288843	 -0.107304	 0.794835	 -0.527508	 0.280104	 1
1463623981.772	 5	 -0.001433	 -0.013026	 0.007036	 2.282469	 -1.116874	 -0.288989	 -0.107350	 0.794775	 -0.527561	 0.280159	 1
1463623981.782	 5	 0.001796	 -0.005606	 0.004945	 2.282232	 -1.116982	 -0.289152	 -0.107370	 0.794727	 -0.527611	 0.280192	 1
1463623981.792	 5	 0.002881	 0.000750	 0.001797	 2.282166	 -1.117078	 -0.289215	 -0.107383	 0.794701	 -0.527651	 0.280186	 1
1463623981.802	 5	 0.001834	 0.003952	 0.002901	 2.282083	 -1.117089	 -0.289331	 -0.107361	 0.794693	 -0.527667	 0.280187	 1
1463623981.812	 5	 -0.002448	 0.002886	 0.000796	 2.282146	 -1.117148	 -0.289297	 -0.107370	 0.794687	 -0.527687	 0.280160	 1
1463623981.822	 5	 -0.001377	 0.001834	 0.002908	 2.282215	 -1.117175	 -0.289257	 -0.107373	 0.794689	 -0.527695	 0.280139	 1
1463623981.832	 5	 -0.000301	 0.002902	 0.003974	 2.282260	 -1.117213	 -0.289250	 -0.107372	 0.794687	 -0.527710	 0.280117	 1
1463623981.842	 5	 0.000757	 0.001828	 0.002888	 2.282283	 -1.117288	 -0.289256	 -0.107380	 0.794675	 -0.527740	 0.280094	 1
1463623981.852	 5	 0.001814	 -0.001359	 0.003914	 2.282252	 -1.117362	 -0.289297	 -0.107387	 0.794657	 -0.527771	 0.280083	 1
1463623981.862	 5	 0.001808	 -0.003478	 0.004960	 2.282162	 -1.117387	 -0.289373	 -0.107386	 0.794643	 -0.527786	 0.280095	 1
1463623981.872	 5	 0.000722	 -0.004636	 0.005028	 2.282091	 -1.117367	 -0.289419	 -0.107382	 0.794640	 -0.527781	 0.280114	 1
1463623981.882	 5	 -0.001417	 -0.005694	 0.005037	 2.282079	 -1.117363	 -0.289397	 -0.107393	 0.794638	 -0.527776	 0.280125	 1
1463623981.892	 5	 -0.004615	 -0.005676	 0.006130	 2.282071	 -1.117307	 -0.289350	 -0.107402	 0.794646	 -0.527748	 0.280150	 1
1463623981.902	 5	 -0.005679	 -0.006721	 0.008261	 2.282151	 -1.117222	 -0.289221	 -0.107415	 0.794668	 -0.527704	 0.280166	 1
1463623981.912	 5	 -0.006746	 -0.006717	 0.008269	 2.282300	 -1.117191	 -0.289025	 -0.107447	 0.794685	 -0.527673	 0.280164	 1
1463623981.922	 5	 -0.006726	 -0.002463	 0.008307	 2.282435	 -1.117186	 -0.288866	 -0.107473	 0.794697	 -0.527656	 0.280153	 1
1463623981.932	 5	 -0.006725	 -0.001406	 0.007250	 2.282596	 -1.117240	 -0.288708	 -0.107505	 0.794699	 -0.527662	 0.280122	 1
1463623981.942	 5	 -0.006727	 -0.000358	 0.005126	 2.282720	 -1.117329	 -0.288587	 -0.107539	 0.794691	 -0.527685	 0.280090	 1
1463623981.952	 5	 -0.005659	 0.000695	 0.004060	 2.282794	 -1.117403	 -0.288522	 -0.107561	 0.794682	 -0.527706	 0.280066	 1
1463623981.962	 5	 -0.004581	 0.002819	 0.004069	 2.282890	 -1.117463	 -0.288454	 -0.107575	 0.794679	 -0.527724	 0.280036	 1
1463623981.972	 5	 -0.003493	 0.008126	 0.003043	 2.283079	 -1.117474	 -0.288337	 -0.107574	 0.794697	 -0.527722	 0.279989	 1
1463623981.982	 5	 -0.005594	 0.012411	 0.006298	 2.283307	 -1.117443	 -0.288236	 -0.107547	 0.794730	 -0.527708	 0.279931	 1
1463623981.992	 5	 -0.004528	 0.011352	 0.007343	 2.283560	 -1.117423	 -0.288125	 -0.107521	 0.794764	 -0.527699	 0.279863	 1
1463623982.002	 5	 -0.005621	 0.004981	 0.008358	 2.283814	 -1.117402	 -0.287965	 -0.107512	 0.794795	 -0.527683	 0.279808	 1
1463623982.012	 5	 -0.007781	 -0.000330	 0.008327	 2.284036	 -1.117354	 -0.287772	 -0.107521	 0.794826	 -0.527650	 0.279778	 1
1463623982.022	 5	 -0.009915	 0.000676	 0.007328	 2.284181	 -1.117336	 -0.287625	 -0.107537	 0.794842	 -0.527631	 0.279762	 1
1463623982.032	 5	 -0.012106	 -0.007858	 0.003003	 2.284321	 -1.117389	 -0.287423	 -0.107592	 0.794840	 -0.527630	 0.279751	 1
1463623982.042	 5	 -0.011075	 -0.011091	 -0.002366	 2.284462	 -1.117506	 -0.287154	 -0.107686	 0.794820	 -0.527643	 0.279747	 1
1463623982.052	 5	 -0.010020	 -0.011117	 -0.005574	 2.284694	 -1.117587	 -0.286801	 -0.107782	 0.794816	 -0.527635	 0.279734	 1
1463623982.062	 5	 -0.010017	 -0.012165	 -0.003453	 2.284874	 -1.117603	 -0.286483	 -0.107864	 0.794821	 -0.527606	 0.279745	 1
1463623982.072	 5	 -0.011076	 -0.013202	 -0.000257	 2.285006	 -1.117661	 -0.286217	 -0.107947	 0.794813	 -0.527598	 0.279752	 1
1463623982.082	 5	 -0.008085	 -0.063158	 0.005645	 2.284521	 -1.117833	 -0.286206	 -0.108115	 0.794708	 -0.527632	 0.279920	 1
1463623982.092	 5	 -0.013380	 -0.044089	 -0.006922	 2.284367	 -1.117954	 -0.285797	 -0.108343	 0.794638	 -0.527611	 0.280069	 1
1463623982.102	 5	 -0.011044	 0.003724	 -0.012894	 2.284932	 -1.118132	 -0.285160	 -0.108485	 0.794644	 -0.527618	 0.279984	 1
1463623982.112	 5	 -0.007894	 0.001510	 -0.023601	 2.285463	 -1.118483	 -0.284632	 -0.108627	 0.794615	 -0.527701	 0.279854	 1
1463623982.122	 5	 -0.004799	 -0.015565	 -0.030182	 2.285832	 -1.118737	 -0.284103	 -0.108793	 0.794584	 -0.527740	 0.279806	 1
1463623982.132	 5	 -0.003698	 -0.014450	 -0.022720	 2.286188	 -1.118761	 -0.283557	 -0.108921	 0.794598	 -0.527692	 0.279805	 1
1463623982.142	 5	 -0.006873	 -0.017554	 -0.012062	 2.286332	 -1.118580	 -0.283224	 -0.108978	 0.794639	 -0.527587	 0.279865	 1
1463623982.152	 5	 -0.005818	 -0.032341	 0.002713	 2.286047	 -1.118377	 -0.283199	 -0.109021	 0.794641	 -0.527494	 0.280018	 1
1463623982.162	 5	 -0.003719	 -0.050337	 0.015317	 2.285396	 -1.118172	 -0.283387	 -0.109075	 0.794604	 -0.527410	 0.280260	 1
1463623982.172	 5	 -0.002671	 -0.059867	 0.021614	 2.284489	 -1.118048	 -0.283723	 -0.109155	 0.794522	 -0.527362	 0.280552	 1
1463623982.182	 5	 -0.000585	 -0.067386	 0.016217	 2.283632	 -1.118061	 -0.283959	 -0.109290	 0.794412	 -0.527353	 0.280828	 1
1463623982.192	 5	 0.001535	 -0.064255	 0.008766	 2.282929	 -1.118136	 -0.284013	 -0.109470	 0.794300	 -0.527349	 0.281081	 1
1463623982.202	 5	 0.003750	 -0.041971	 0.002559	 2.282575	 -1.118095	 -0.283918	 -0.109592	 0.794254	 -0.527302	 0.281253	 1
1463623982.212	 5	 0.000629	 -0.022830	 0.000633	 2.282505	 -1.117973	 -0.283737	 -0.109657	 0.794260	 -0.527228	 0.281349	 1
1463623982.222	 5	 -0.003609	 -0.014323	 -0.001382	 2.282702	 -1.117832	 -0.283402	 -0.109708	 0.794300	 -0.527140	 0.281382	 1
1463623982.232	 5	 -0.006772	 -0.006860	 -0.000219	 2.283022	 -1.117649	 -0.283011	 -0.109741	 0.794362	 -0.527035	 0.281388	 1
1463623982.242	 5	 -0.007844	 -0.005808	 -0.002331	 2.283291	 -1.117475	 -0.282679	 -0.109766	 0.794419	 -0.526940	 0.281397	 1
1463623982.252	 5	 -0.007834	 -0.003681	 -0.002311	 2.283472	 -1.117386	 -0.282448	 -0.109791	 0.794451	 -0.526885	 0.281400	 1
1463623982.262	 5	 -0.011030	 -0.001551	 -0.003330	 2.283691	 -1.117388	 -0.282188	 -0.109837	 0.794467	 -0.526861	 0.281382	 1
1463623982.272	 5	 -0.013176	 -0.001568	 -0.006510	 2.284143	 -1.117531	 -0.281720	 -0.109934	 0.794474	 -0.526872	 0.281302	 1
1463623982.282	 5	 -0.013248	 -0.009083	 -0.016173	 2.284470	 -1.117835	 -0.281281	 -0.110085	 0.794431	 -0.526940	 0.281238	 1
1463623982.292	 5	 -0.017614	 -0.021904	 -0.025848	 2.284805	 -1.118176	 -0.280699	 -0.110300	 0.794373	 -0.527001	 0.281203	 1
1463623982.302	 5	 -0.017717	 -0.035801	 -0.035570	 2.285144	 -1.118587	 -0.279945	 -0.110595	 0.794291	 -0.527065	 0.281200	 1
1463623982.312	 5	 -0.015590	 -0.034767	 -0.038777	 2.285582	 -1.118910	 -0.279060	 -0.110898	 0.794234	 -0.527083	 0.281207	 1
1463623982.322	 5	 -0.011274	 -0.023095	 -0.040838	 2.286133	 -1.119124	 -0.278177	 -0.111148	 0.794217	 -0.527068	 0.281185	 1
1463623982.332	 5	 -0.004778	 -0.011345	 -0.031193	 2.286541	 -1.119321	 -0.277557	 -0.111328	 0.794198	 -0.527075	 0.281155	 1
1463623982.342	 5	 -0.002551	 -0.005944	 -0.018369	 2.286770	 -1.119416	 -0.277230	 -0.111417	 0.794191	 -0.527077	 0.281135	 1
1463623982.352	 5	 -0.006795	 -0.007997	 -0.009825	 2.286905	 -1.119489	 -0.276990	 -0.111492	 0.794181	 -0.527078	 0.281133	 1
1463623982.362	 5	 -0.010004	 -0.008003	 -0.011930	 2.287128	 -1.119630	 -0.276661	 -0.111593	 0.794164	 -0.527096	 0.281108	 1
1463623982.372	 5	 -0.014297	 -0.006980	 -0.019345	 2.287574	 -1.119876	 -0.276075	 -0.111759	 0.794141	 -0.527128	 0.281045	 1
1463623982.382	 5	 -0.032462	 0.001468	 -0.035096	 2.289079	 -1.120035	 -0.274710	 -0.111937	 0.794241	 -0.527079	 0.280782	 1
1463623982.392	 5	 -0.028494	 -0.061309	 -0.036782	 2.289055	 -1.120445	 -0.274008	 -0.112307	 0.794110	 -0.527130	 0.280910	 1
1463623982.402	 5	 -0.002727	 -0.040012	 -0.022953	 2.289271	 -1.120557	 -0.273310	 -0.112550	 0.794077	 -0.527085	 0.280990	 1
1463623982.412	 5	 -0.000591	 -0.038963	 -0.024027	 2.288984	 -1.120702	 -0.273143	 -0.112722	 0.793996	 -0.527098	 0.281125	 1
1463623982.422	 5	 -0.000544	 -0.038878	 -0.012303	 2.288725	 -1.120775	 -0.272985	 -0.112868	 0.793935	 -0.527088	 0.281258	 1
1463623982.432	 5	 -0.004794	 -0.041995	 -0.003769	 2.288453	 -1.120769	 -0.272832	 -0.112999	 0.793890	 -0.527049	 0.281407	 1
1463623982.442	 5	 -0.004772	 -0.040900	 0.000504	 2.288094	 -1.120801	 -0.272759	 -0.113130	 0.793828	 -0.527030	 0.281563	 1
1463623982.452	 5	 -0.001577	 -0.044085	 0.002577	 2.287824	 -1.120941	 -0.272618	 -0.113286	 0.793752	 -0.527047	 0.281685	 1
1463623982.462	 5	 0.006920	 -0.048404	 -0.002868	 2.287488	 -1.121260	 -0.272491	 -0.113490	 0.793628	 -0.527127	 0.281801	 1
1463623982.472	 5	 0.017690	 -0.018730	 -0.013346	 2.287612	 -1.121683	 -0.272141	 -0.113684	 0.793535	 -0.527240	 0.281775	 1
1463623982.482	 5	 0.029647	 0.034358	 -0.021486	 2.288533	 -1.122231	 -0.271528	 -0.113798	 0.793511	 -0.527407	 0.281483	 1
1463623982.492	 5	 0.034107	 0.075822	 -0.022208	 2.290089	 -1.122879	 -0.270766	 -0.113823	 0.793546	 -0.527626	 0.280962	 1
1463623982.502	 5	 0.033170	 0.103482	 -0.021947	 2.291885	 -1.123495	 -0.270066	 -0.113754	 0.793625	 -0.527856	 0.280335	 1
1463623982.512	 5	 0.032116	 0.115085	 -0.037829	 2.293890	 -1.124166	 -0.269272	 -0.113677	 0.793715	 -0.528105	 0.279642	 1
1463623982.522	 5	 0.031022	 0.131915	 -0.064312	 2.296748	 -1.125135	 -0.267785	 -0.113711	 0.793818	 -0.528417	 0.278745	 1
1463623982.532	 5	 0.032072	 0.143483	 -0.082336	 2.299994	 -1.126388	 -0.265991	 -0.113820	 0.793894	 -0.528812	 0.277731	 1
1463623982.542	 5	 0.041777	 0.175273	 -0.094919	 2.303392	 -1.127770	 -0.264284	 -0.113880	 0.793965	 -0.529278	 0.276614	 1
1463623982.552	 5	 0.044071	 0.206137	 -0.091458	 2.306658	 -1.129094	 -0.263005	 -0.113790	 0.794053	 -0.529775	 0.275446	 1
1463623982.562	 5	 0.046537	 0.209893	 -0.012579	 2.308642	 -1.129912	 -0.263171	 -0.113364	 0.794155	 -0.530212	 0.274485	 1
1463623982.572	 5	 0.055383	 0.252607	 0.014386	 2.309963	 -1.130186	 -0.264355	 -0.112599	 0.794342	 -0.530550	 0.273603	 1
1463623982.582	 5	 0.026529	 0.243128	 0.015615	 2.311665	 -1.130301	 -0.265190	 -0.111838	 0.794596	 -0.530802	 0.272687	 1
1463623982.592	 5	 0.016992	 0.247496	 0.027462	 2.313526	 -1.130244	 -0.265851	 -0.111071	 0.794899	 -0.530975	 0.271781	 1
1463623982.602	 5	 0.024464	 0.227441	 0.051724	 2.314335	 -1.129988	 -0.267454	 -0.110167	 0.795153	 -0.531143	 0.271074	 1
1463623982.612	 5	 0.022157	 0.178627	 0.066211	 2.314959	 -1.129681	 -0.268874	 -0.109375	 0.795384	 -0.531256	 0.270498	 1
1463623982.622	 5	 0.002732	 0.135058	 0.063843	 2.315353	 -1.129251	 -0.270043	 -0.108719	 0.795595	 -0.531277	 0.270099	 1
1463623982.632	 5	 -0.008179	 0.093530	 0.052894	 2.315706	 -1.128802	 -0.270804	 -0.108232	 0.795783	 -0.531233	 0.269827	 1
1463623982.642	 5	 0.005351	 0.035920	 0.034118	 2.315819	 -1.129108	 -0.271295	 -0.108068	 0.795757	 -0.531418	 0.269603	 1
1463623982.652	 5	 0.023051	 -0.046130	 0.020411	 2.314965	 -1.129083	 -0.271965	 -0.108024	 0.795684	 -0.531453	 0.269769	 1
1463623982.662	 5	 0.032419	 -0.122545	 0.045178	 2.312918	 -1.129021	 -0.273079	 -0.108112	 0.795481	 -0.531470	 0.270297	 1
1463623982.672	 5	 0.044032	 -0.175532	 0.076557	 2.309564	 -1.128774	 -0.274918	 -0.108222	 0.795181	 -0.531447	 0.271182	 1
1463623982.682	 5	 0.038805	 -0.155283	 0.079988	 2.306139	 -1.128461	 -0.276907	 -0.108278	 0.794892	 -0.531416	 0.272065	 1
1463623982.692	 5	 0.013310	 -0.119142	 0.066692	 2.303546	 -1.128070	 -0.278365	 -0.108308	 0.794703	 -0.531331	 0.272771	 1
1463623982.702	 5	 -0.016756	 -0.140480	 0.045440	 2.301681	 -1.127638	 -0.278998	 -0.108463	 0.794577	 -0.531158	 0.273413	 1
1463623982.712	 5	 -0.045703	 -0.177545	 0.056004	 2.299896	 -1.127019	 -0.279061	 -0.108785	 0.794470	 -0.530842	 0.274206	 1
1463623982.722	 5	 -0.073868	 -0.103525	 0.131542	 2.298087	 -1.125747	 -0.279622	 -0.108781	 0.794529	 -0.530355	 0.274981	 1
1463623982.732	 5	 -0.117812	 0.013135	 0.214008	 2.296920	 -1.123589	 -0.280758	 -0.108196	 0.794897	 -0.529656	 0.275494	 1
1463623982.742	 5	 -0.143799	 0.089338	 0.298073	 2.296000	 -1.120619	 -0.282592	 -0.107098	 0.795510	 -0.528769	 0.275856	 1
1463623982.752	 5	 -0.157086	 0.103093	 0.429405	 2.294070	 -1.116652	 -0.285904	 -0.105470	 0.796272	 -0.527667	 0.276394	 1
1463623982.762	 5	 -0.178910	 0.068371	 0.618978	 2.289836	 -1.111254	 -0.291498	 -0.103236	 0.797128	 -0.526240	 0.277489	 1
1463623982.772	 5	 -0.226021	 0.056455	 0.863336	 2.283153	 -1.103811	 -0.299653	 -0.100179	 0.798181	 -0.524306	 0.279240	 1
1463623982.782	 5	 -0.282239	 -0.039773	 1.064360	 2.274074	 -1.094317	 -0.309746	 -0.096506	 0.799373	 -0.521798	 0.281809	 1
1463623982.792	 5	 -0.326611	 -0.263265	 1.174571	 2.262540	 -1.083454	 -0.320492	 -0.092869	 0.800455	 -0.518804	 0.285462	 1
1463623982.802	 5	 -0.348938	 -0.495920	 1.203508	 2.248979	 -1.071972	 -0.330874	 -0.089703	 0.801262	 -0.515491	 0.290176	 1
1463623982.812	 5	 -0.334763	 -0.634434	 1.175451	 2.234362	 -1.060569	 -0.340623	 -0.087009	 0.801768	 -0.512124	 0.295510	 1
1463623982.822	 5	 -0.313985	 -0.660830	 1.064186	 2.220404	 -1.049941	 -0.349106	 -0.084762	 0.802069	 -0.508933	 0.300812	 1
1463623982.832	 5	 -0.288958	 -0.651420	 0.905257	 2.208197	 -1.040600	 -0.355679	 -0.083076	 0.802230	 -0.506036	 0.305701	 1
1463623982.842	 5	 -0.241510	 -0.680035	 0.785185	 2.196863	 -1.032544	 -0.361075	 -0.081897	 0.802175	 -0.503490	 0.310330	 1
1463623982.852	 5	 -0.182676	 -0.806322	 0.701434	 2.184949	 -1.025557	 -0.366038	 -0.081255	 0.801767	 -0.501263	 0.315123	 1
1463623982.862	 5	 -0.116824	 -0.661735	 0.719259	 2.172913	 -1.018976	 -0.371711	 -0.080424	 0.801245	 -0.499313	 0.319727	 1
1463623982.872	 5	 -0.039778	 -0.465614	 0.807805	 2.161519	 -1.012145	 -0.379121	 -0.078649	 0.800888	 -0.497606	 0.323700	 1
1463623982.882	 5	 0.036972	 -0.363881	 0.933843	 2.149539	 -1.004752	 -0.388740	 -0.075970	 0.800561	 -0.496072	 0.327480	 1
1463623982.892	 5	 0.050133	 -0.388582	 1.052864	 2.136442	 -0.996386	 -0.399801	 -0.072719	 0.800198	 -0.494436	 0.331555	 1
1463623982.902	 5	 0.015131	 -0.449250	 1.179430	 2.122400	 -0.986827	 -0.411387	 -0.069152	 0.799802	 -0.492492	 0.336134	 1
1463623982.912	 5	 -0.097503	 -0.459639	 1.314600	 2.108714	 -0.975524	 -0.422312	 -0.065271	 0.799616	 -0.489903	 0.341101	 1
1463623982.922	 5	 -0.248707	 -0.441719	 1.377898	 2.096684	 -0.962672	 -0.431459	 -0.061241	 0.799780	 -0.486584	 0.346175	 1
1463623982.932	 5	 -0.423719	 -0.432763	 1.368847	 2.087431	 -0.948891	 -0.437541	 -0.057466	 0.800364	 -0.482541	 0.351096	 1
1463623982.942	 5	 -0.495736	 -0.528394	 1.352598	 2.079202	 -0.934672	 -0.441657	 -0.054066	 0.801044	 -0.478057	 0.356183	 1
1463623982.952	 5	 -0.457701	 -0.806361	 1.317707	 2.068867	 -0.920762	 -0.445403	 -0.051348	 0.801204	 -0.473582	 0.362154	 1
1463623982.962	 5	 -0.367068	 -1.071273	 1.344295	 2.055143	 -0.907261	 -0.450026	 -0.049129	 0.800611	 -0.469355	 0.369206	 1
1463623982.972	 5	 -0.386154	 -1.263966	 1.604845	 2.038034	 -0.891729	 -0.456091	 -0.046502	 0.799553	 -0.464655	 0.377688	 1
1463623982.982	 5	 -0.344228	 -1.244551	 1.659015	 2.020537	 -0.875329	 -0.462526	 -0.043486	 0.798364	 -0.459781	 0.386426	 1
1463623982.992	 5	 -0.233813	 -1.201793	 1.733055	 2.002614	 -0.858775	 -0.470121	 -0.039966	 0.796948	 -0.455149	 0.395114	 1
1463623983.002	 5	 -0.187353	 -1.236744	 1.918833	 1.983724	 -0.840966	 -0.479106	 -0.035658	 0.795304	 -0.450435	 0.404139	 1
1463623983.012	 5	 -0.388700	 -1.633950	 2.211040	 1.962665	 -0.820198	 -0.487057	 -0.031288	 0.793265	 -0.444568	 0.414863	 1
1463623983.022	 5	 -0.648112	 -1.771665	 2.622336	 1.941090	 -0.794525	 -0.492753	 -0.026354	 0.791252	 -0.436656	 0.427267	 1
1463623983.032	 5	 -0.748830	 -1.922897	 2.700672	 1.919783	 -0.766610	 -0.496471	 -0.021296	 0.789109	 -0.427659	 0.440410	 1
1463623983.042	 5	 -0.637762	 -2.378099	 2.455673	 1.895365	 -0.740485	 -0.499183	 -0.017621	 0.785739	 -0.419112	 0.454586	 1
1463623983.052	 5	 -0.330894	 -2.821181	 2.054546	 1.865879	 -0.718644	 -0.502716	 -0.015759	 0.780514	 -0.412268	 0.469665	 1
1463623983.062	 5	 0.011076	 -3.211849	 1.561946	 1.831219	 -0.702135	 -0.507975	 -0.015734	 0.773333	 -0.407702	 0.485270	 1
1463623983.072	 5	 0.310678	 -3.414114	 0.925458	 1.793415	 -0.692109	 -0.514354	 -0.017815	 0.764640	 -0.405636	 0.500468	 1
1463623983.082	 5	 0.670542	 -3.541832	 0.326441	 1.752961	 -0.688735	 -0.522940	 -0.021683	 0.754627	 -0.406319	 0.514755	 1
1463623983.092	 5	 0.980810	 -3.773836	 -0.006674	 1.708346	 -0.689597	 -0.534706	 -0.026655	 0.743090	 -0.409124	 0.528890	 1
1463623983.102	 5	 1.164601	 -3.882383	 -0.087085	 1.660500	 -0.691682	 -0.549093	 -0.031888	 0.730397	 -0.412922	 0.543137	 1
1463623983.112	 5	 1.233923	 -3.770007	 0.036985	 1.612330	 -0.692540	 -0.564929	 -0.036442	 0.717391	 -0.416712	 0.557112	 1
1463623983.122	 5	 1.240455	 -3.511784	 0.300443	 1.566135	 -0.690426	 -0.581065	 -0.039624	 0.704722	 -0.419773	 0.570603	 1
1463623983.132	 5	 1.128975	 -3.139579	 0.540410	 1.524238	 -0.685340	 -0.596060	 -0.041385	 0.693016	 -0.421829	 0.583161	 1
1463623983.142	 5	 0.695556	 -2.728895	 0.822972	 1.489609	 -0.677343	 -0.606046	 -0.042357	 0.683087	 -0.421870	 0.594662	 1
1463623983.152	 5	 0.132730	 -2.357358	 1.081784	 1.463878	 -0.666914	 -0.608210	 -0.043212	 0.675432	 -0.419187	 0.605151	 1
1463623983.162	 5	 -0.282789	 -2.314842	 1.203031	 1.443404	 -0.655416	 -0.604119	 -0.044606	 0.669066	 -0.414456	 0.615295	 1
1463623983.172	 5	 -0.623319	 -2.628100	 1.281948	 1.423501	 -0.643548	 -0.595168	 -0.047261	 0.662618	 -0.408113	 0.626217	 1
1463623983.182	 5	 -0.886718	 -3.013637	 1.251879	 1.401849	 -0.632287	 -0.582523	 -0.051580	 0.655378	 -0.400650	 0.638200	 1
1463623983.192	 5	 -1.056528	 -3.361018	 1.094523	 1.377820	 -0.622925	 -0.567638	 -0.057652	 0.647145	 -0.392777	 0.650850	 1
1463623983.202	 5	 -1.196171	 -3.652092	 0.928865	 1.351491	 -0.615831	 -0.551239	 -0.065331	 0.637918	 -0.384761	 0.663891	 1
1463623983.212	 5	 -1.322069	 -3.788586	 0.829575	 1.324055	 -0.610555	 -0.533471	 -0.074143	 0.628048	 -0.376513	 0.676976	 1
1463623983.222	 5	 -1.396490	 -3.718261	 0.817023	 1.297322	 -0.606245	 -0.514659	 -0.083304	 0.618131	 -0.367955	 0.689625	 1
1463623983.232	 5	 -1.423689	 -3.459008	 0.915591	 1.273072	 -0.601789	 -0.495094	 -0.091964	 0.608800	 -0.358987	 0.701452	 1
1463623983.242	 5	 -1.405046	 -3.129493	 1.188132	 1.252532	 -0.595532	 -0.474713	 -0.099290	 0.600514	 -0.349266	 0.712417	 1
1463623983.252	 5	 -1.337921	 -2.826703	 1.608144	 1.235373	 -0.585713	 -0.453454	 -0.104678	 0.593204	 -0.338365	 0.722952	 1
1463623983.262	 5	 -1.232110	 -2.689979	 2.024143	 1.220324	 -0.571821	 -0.431530	 -0.108084	 0.586478	 -0.326196	 0.733455	 1
1463623983.272	 5	 -1.162459	 -2.648712	 2.315939	 1.205593	 -0.554856	 -0.409193	 -0.110123	 0.579735	 -0.313003	 0.744183	 1
1463623983.292	 6	 -1.209493	 -2.217943	 2.591061	 1.181664	 -0.516927	 -0.361987	 -0.111856	 0.567961	 -0.284580	 0.764148	 1
1463623983.302	 6	 -1.183817	 -2.044083	 2.669190	 1.172632	 -0.497043	 -0.337742	 -0.111841	 0.563104	 -0.269857	 0.773035	 1
1463623983.312	 6	 -1.123463	 -1.988349	 2.752312	 1.163888	 -0.476378	 -0.313776	 -0.111230	 0.558367	 -0.254935	 0.781577	 1
1463623983.322	 6	 -1.056111	 -2.046326	 2.851368	 1.154265	 -0.454790	 -0.290124	 -0.110100	 0.553304	 -0.239736	 0.790101	 1
1463623983.332	 6	 -0.967916	 -2.234974	 2.979933	 1.142499	 -0.431984	 -0.266751	 -0.108458	 0.547405	 -0.224116	 0.798972	 1
1463623983.342	 6	 -0.851407	 -2.553259	 3.136887	 1.127243	 -0.407642	 -0.243680	 -0.106248	 0.540109	 -0.207951	 0.808548	 1
1463623983.352	 6	 -0.732863	 -2.897040	 3.298915	 1.107912	 -0.381662	 -0.220807	 -0.103419	 0.531134	 -0.191173	 0.818934	 1
1463623983.362	 6	 -0.639811	 -3.171984	 3.409583	 1.085071	 -0.354568	 -0.197936	 -0.100078	 0.520653	 -0.173901	 0.829858	 1
1463623983.372	 6	 -0.550822	 -3.350586	 3.457237	 1.059585	 -0.327015	 -0.175107	 -0.096327	 0.508987	 -0.156394	 0.840949	 1
1463623983.382	 6	 -0.452151	 -3.460534	 3.442566	 1.032186	 -0.299551	 -0.152594	 -0.092210	 0.496434	 -0.138975	 0.851902	 1
1463623983.392	 6	 -0.340941	 -3.591038	 3.384963	 1.002801	 -0.272565	 -0.130706	 -0.087785	 0.482961	 -0.121900	 0.862660	 1
1463623983.402	 6	 -0.214883	 -3.752333	 3.340800	 0.971166	 -0.245972	 -0.109474	 -0.082991	 0.468441	 -0.105190	 0.873276	 1
1463623983.412	 6	 -0.058120	 -4.008009	 3.347714	 0.936605	 -0.219303	 -0.088777	 -0.077645	 0.452553	 -0.088705	 0.883911	 1
1463623983.422	 6	 0.175288	 -4.361270	 3.422327	 0.898033	 -0.191623	 -0.068557	 -0.071323	 0.434789	 -0.072235	 0.894793	 1
1463623983.432	 6	 0.475123	 -4.645708	 3.481015	 0.855579	 -0.162392	 -0.049128	 -0.063620	 0.415182	 -0.055912	 0.905787	 1
1463623983.442	 6	 0.695514	 -4.498771	 3.445293	 0.812663	 -0.132410	 -0.030469	 -0.054755	 0.395256	 -0.040108	 0.916060	 1
1463623983.452	 6	 0.826943	 -3.880206	 3.288975	 0.774129	 -0.103060	 -0.012619	 -0.045317	 0.377264	 -0.025277	 0.924651	 1
1463623983.462	 6	 1.001749	 -3.016927	 3.015190	 0.743280	 -0.074924	 0.003358	 -0.035506	 0.362830	 -0.012038	 0.931101	 1
1463623983.472	 6	 1.360664	 -2.448093	 2.693367	 0.718394	 -0.047033	 0.015640	 -0.024761	 0.351243	 -0.000947	 0.935957	 1
1463623983.492	 6	 2.186039	 -2.061459	 2.075899	 0.675001	 0.011531	 0.026512	 0.001050	 0.331167	 0.014416	 0.943461	 1
1463623983.482	 6	 1.807571	 -2.222059	 2.363324	 0.696018	 -0.018231	 0.023214	 -0.012526	 0.340890	 0.007802	 0.939987	 1
1463623983.502	 6	 2.483002	 -1.894136	 1.949110	 0.655645	 0.042698	 0.027120	 0.015844	 0.322153	 0.019707	 0.946350	 1
1463623983.512	 6	 2.658345	 -1.762242	 1.874207	 0.637740	 0.075046	 0.026441	 0.031478	 0.313717	 0.024304	 0.948683	 1
1463623983.532	 7	 2.596188	 -1.536873	 1.540065	 0.605983	 0.137833	 0.022651	 0.062350	 0.298394	 0.031329	 0.951889	 1
1463623983.552	 8	 2.128937	 -1.698302	 1.237823	 0.574420	 0.191453	 0.018975	 0.088986	 0.282838	 0.036131	 0.954347	 1
1463623983.562	 8	 1.824564	 -1.896957	 1.148035	 0.556070	 0.213750	 0.018648	 0.100026	 0.273845	 0.038191	 0.955795	 1
1463623983.572	 8	 1.566212	 -2.109213	 1.107810	 0.535162	 0.233475	 0.019762	 0.109728	 0.263697	 0.040258	 0.957498	 1
1463623983.582	 8	 1.304627	 -2.078102	 1.038971	 0.513603	 0.250560	 0.022134	 0.118059	 0.253320	 0.042354	 0.959217	 1
1463623983.592	 8	 1.105295	 -1.931583	 0.922704	 0.493185	 0.265129	 0.025044	 0.125139	 0.243545	 0.044298	 0.960762	 1
1463623983.602	 8	 1.019050	 -1.773857	 0.784241	 0.474392	 0.278003	 0.027579	 0.131453	 0.234546	 0.045828	 0.962085	 1
1463623983.612	 8	 1.013886	 -1.630117	 0.656666	 0.457294	 0.290118	 0.029247	 0.137494	 0.226314	 0.046853	 0.963162	 1
1463623983.622	 8	 1.081100	 -1.550206	 0.556643	 0.441471	 0.302199	 0.029896	 0.143621	 0.218624	 0.047372	 0.964019	 1
1463623983.632	 8	 1.190545	 -1.579857	 0.472285	 0.425944	 0.314798	 0.029460	 0.150117	 0.210987	 0.047347	 0.964732	 1
1463623983.642	 8	 1.303225	 -1.627383	 0.417573	 0.410184	 0.328207	 0.028136	 0.157102	 0.203151	 0.046856	 0.965325	 1
1463623983.652	 8	 1.392839	 -1.615042	 0.395593	 0.394569	 0.342394	 0.026328	 0.164501	 0.195324	 0.046109	 0.965744	 1
1463623983.662	 8	 1.449855	 -1.565873	 0.452039	 0.379315	 0.357337	 0.024809	 0.172218	 0.187672	 0.045490	 0.965946	 1
1463623983.672	 8	 1.481316	 -1.560816	 0.575441	 0.363848	 0.373048	 0.024487	 0.180194	 0.180004	 0.045381	 0.965955	 1
1463623983.682	 8	 1.482774	 -1.584364	 0.702034	 0.347663	 0.389234	 0.025673	 0.188283	 0.172123	 0.045850	 0.965827	 1
1463623983.692	 8	 1.424502	 -1.563391	 0.783733	 0.331030	 0.405247	 0.028263	 0.196189	 0.164179	 0.046806	 0.965590	 1
1463623983.702	 8	 1.320278	 -1.483348	 0.778983	 0.315487	 0.419354	 0.031360	 0.203125	 0.156854	 0.047839	 0.965323	 1
1463623983.712	 8	 1.199778	 -1.381600	 0.680797	 0.300107	 0.433099	 0.034672	 0.209884	 0.149661	 0.048855	 0.964968	 1
1463623983.722	 8	 1.087617	 -1.260202	 0.509183	 0.286194	 0.445372	 0.036995	 0.215983	 0.143107	 0.049345	 0.964592	 1
1463623983.732	 8	 0.997844	 -1.099894	 0.285515	 0.274543	 0.456111	 0.037532	 0.221416	 0.137477	 0.049039	 0.964194	 1
1463623983.742	 8	 0.924089	 -0.930122	 0.053269	 0.265542	 0.465481	 0.035914	 0.226265	 0.132896	 0.047846	 0.963770	 1
1463623983.752	 8	 0.867503	 -0.781320	 -0.130296	 0.258958	 0.473764	 0.032398	 0.230645	 0.129265	 0.045911	 0.963320	 1
1463623983.762	 8	 0.843111	 -0.653377	 -0.243995	 0.254344	 0.481406	 0.027582	 0.234739	 0.126422	 0.043516	 0.962819	 1
1463623983.772	 8	 0.808172	 -0.581065	 -0.260070	 0.250795	 0.488666	 0.022401	 0.238636	 0.124035	 0.041036	 0.962281	 1
1463623983.782	 8	 0.762577	 -0.577235	 -0.190363	 0.247209	 0.495652	 0.017907	 0.242346	 0.121698	 0.038855	 0.961742	 1
1463623983.792	 8	 0.705818	 -0.713460	 -0.078166	 0.242026	 0.502371	 0.014725	 0.245867	 0.118743	 0.037083	 0.961288	 1
1463623983.802	 8	 0.628544	 -0.913328	 0.049604	 0.234155	 0.508730	 0.013158	 0.249159	 0.114694	 0.035716	 0.960984	 1
1463623983.812	 8	 0.537635	 -1.069491	 0.185360	 0.223662	 0.514535	 0.013406	 0.252120	 0.109618	 0.034836	 0.960836	 1
1463623983.822	 8	 0.456554	 -1.131425	 0.265422	 0.211651	 0.519718	 0.015031	 0.254733	 0.103999	 0.034362	 0.960789	 1
1463623983.832	 8	 0.391606	 -1.088784	 0.252529	 0.199598	 0.524241	 0.017021	 0.257011	 0.098421	 0.033996	 0.960782	 1
1463623983.842	 8	 0.333029	 -0.992440	 0.167609	 0.188720	 0.528015	 0.018428	 0.258941	 0.093345	 0.033441	 0.960790	 1
1463623983.852	 8	 0.283972	 -0.895224	 0.060233	 0.179347	 0.531103	 0.018762	 0.260565	 0.088863	 0.032517	 0.960808	 1
1463623983.862	 8	 0.228671	 -0.779774	 -0.028801	 0.171504	 0.533458	 0.018229	 0.261845	 0.085009	 0.031334	 0.960848	 1
1463623983.872	 8	 0.213673	 -0.676494	 -0.166258	 0.165484	 0.535360	 0.016337	 0.262930	 0.081855	 0.029710	 0.960877	 1
1463623983.882	 8	 0.230587	 -0.595640	 -0.303137	 0.161141	 0.537139	 0.012780	 0.263990	 0.079287	 0.027497	 0.960868	 1
1463623983.892	 8	 0.260528	 -0.542893	 -0.350866	 0.157876	 0.539087	 0.008333	 0.265143	 0.077114	 0.025002	 0.960795	 1
1463623983.902	 8	 0.269459	 -0.522169	 -0.276147	 0.154674	 0.541277	 0.004363	 0.266384	 0.075029	 0.022751	 0.960673	 1
1463623983.912	 8	 0.243219	 -0.549765	 -0.132298	 0.150521	 0.543498	 0.001949	 0.267586	 0.072691	 0.021118	 0.960556	 1
1463623983.922	 8	 0.192356	 -0.581651	 -0.003194	 0.145146	 0.545488	 0.001217	 0.268624	 0.069993	 0.020117	 0.960488	 1
1463623983.932	 8	 0.145702	 -0.578858	 0.069710	 0.139144	 0.547119	 0.001597	 0.269453	 0.067146	 0.019547	 0.960471	 1
1463623983.942	 8	 0.108710	 -0.533810	 0.106687	 0.133160	 0.548418	 0.002552	 0.270104	 0.064390	 0.019241	 0.960483	 1
1463623983.952	 8	 0.086843	 -0.439962	 0.132263	 0.127804	 0.549479	 0.003886	 0.270622	 0.061989	 0.019191	 0.960496	 1
1463623983.962	 8	 0.086532	 -0.284633	 0.137974	 0.123735	 0.550502	 0.005361	 0.271108	 0.060228	 0.019379	 0.960467	 1
1463623983.972	 8	 0.108909	 -0.053997	 0.123939	 0.121882	 0.551659	 0.006722	 0.271641	 0.059515	 0.019815	 0.960352	 1
1463623983.982	 8	 0.178082	 0.154068	 0.096497	 0.122444	 0.553354	 0.007699	 0.272420	 0.059906	 0.020409	 0.960095	 1
1463623983.992	 8	 0.271366	 0.256881	 0.084918	 0.124484	 0.555933	 0.008329	 0.273618	 0.060954	 0.021065	 0.959674	 1
1463623984.002	 8	 0.303781	 0.281767	 0.156274	 0.126684	 0.559028	 0.009504	 0.275043	 0.062150	 0.022022	 0.959168	 1
1463623984.012	 8	 0.339478	 0.154057	 0.160103	 0.127914	 0.562516	 0.010938	 0.276657	 0.062916	 0.022983	 0.958631	 1
1463623984.022	 8	 0.319262	 -0.047011	 0.145619	 0.127309	 0.565977	 0.012154	 0.278284	 0.062774	 0.023585	 0.958155	 1
1463623984.032	 8	 0.230866	 -0.262427	 0.178489	 0.124365	 0.568724	 0.013757	 0.279586	 0.061571	 0.024023	 0.957843	 1
1463623984.042	 8	 0.121222	 -0.449136	 0.201153	 0.119163	 0.570428	 0.015872	 0.280401	 0.059368	 0.024355	 0.957736	 1
1463623984.062	 9	 -0.008694	 -0.586217	 0.165838	 0.105557	 0.571438	 0.020104	 0.280932	 0.053442	 0.024499	 0.957925	 1
1463623984.072	 9	 -0.032994	 -0.523488	 0.152779	 0.099117	 0.571311	 0.021981	 0.280901	 0.050621	 0.024490	 0.958088	 1
1463623984.082	 9	 -0.038950	 -0.426698	 0.150534	 0.093634	 0.571111	 0.023760	 0.280829	 0.048244	 0.024568	 0.958230	 1
1463623984.092	 9	 -0.062837	 -0.323148	 0.193270	 0.088931	 0.570679	 0.026021	 0.280626	 0.046308	 0.024983	 0.958374	 1
1463623984.102	 9	 -0.044679	 -0.262012	 0.124406	 0.085173	 0.570310	 0.027827	 0.280456	 0.044761	 0.025314	 0.958489	 1
1463623984.112	 9	 -0.074085	 -0.109222	 0.062162	 0.080860	 0.574281	 0.029982	 0.282366	 0.043002	 0.025811	 0.957995	 1
1463623984.122	 9	 -0.124759	 0.013191	 0.055216	 0.080330	 0.573199	 0.030761	 0.281838	 0.042856	 0.026090	 0.958149	 1
1463623984.132	 9	 -0.154685	 0.031124	 0.022605	 0.080358	 0.571743	 0.031303	 0.281129	 0.042943	 0.026329	 0.958347	 1
1463623984.142	 9	 -0.172036	 0.003257	 -0.013739	 0.080432	 0.570051	 0.031384	 0.280314	 0.042987	 0.026350	 0.958583	 1
1463623984.152	 9	 -0.120302	 -0.107575	 -0.022681	 0.079792	 0.568596	 0.031260	 0.279628	 0.042660	 0.026176	 0.958803	 1
1463623984.162	 9	 0.004675	 -0.112997	 0.013482	 0.078416	 0.568400	 0.031331	 0.279551	 0.042010	 0.026014	 0.958859	 1
1463623984.172	 9	 0.056483	 0.013394	 0.009958	 0.077293	 0.572000	 0.031959	 0.281278	 0.041567	 0.026217	 0.958367	 1
1463623984.182	 9	 0.071647	 0.054871	 0.002698	 0.077745	 0.572722	 0.031929	 0.281619	 0.041781	 0.026278	 0.958256	 1
1463623984.192	 9	 0.010259	 0.166695	 -0.002121	 0.079117	 0.573014	 0.031903	 0.281741	 0.042436	 0.026464	 0.958186	 1
1463623984.202	 9	 -0.078993	 0.267842	 -0.023850	 0.081655	 0.572435	 0.031739	 0.281433	 0.043627	 0.026733	 0.958216	 1
1463623984.212	 9	 -0.163091	 0.333836	 -0.050203	 0.083322	 0.572609	 0.032296	 0.281482	 0.044505	 0.027237	 0.958147	 1
