% Gyrometer data recorded with 'snsrlog'
% 
% 
% Label description:
% 	 0: Default Label
% 	 1: still_drop
% 	 2: walk_drop
% 	 3: other
% 	 4: dtw_same
% 	 5: dtw_diff
% 	 6: delete
% 	 7: steal
% 
% Column description:
% 	 1: Seconds.milliseconds since 1970
% 	 2: Number of skipped measurements
% 	 3: Gyro X
% 	 4: Gyro Y
% 	 5: Gyro Z
% 	 6: Roll of the device
% 	 7: Pitch of the device
% 	 8: Yaw of the device
% 	 9: Quaternion X
% 	 10: Quaternion Y
% 	 11: Quaternion Z
% 	 12: Quaternion W
% 	 13: Label used for the current sample
% 
% 
1463629329.762	 0	 -0.310316	 0.190143	 -0.546203	 -0.003835	 0.424343	 -0.106026	 0.210188	 -0.013030	 -0.052203	 0.976179	 2
1463629329.772	 0	 0.012351	 0.557740	 -0.619130	 0.003604	 0.423649	 -0.112656	 0.210009	 -0.010077	 -0.054661	 0.976118	 2
1463629329.782	 0	 0.337097	 0.851415	 -0.618159	 0.014249	 0.426161	 -0.119529	 0.211505	 -0.005680	 -0.056873	 0.975704	 2
1463629329.792	 0	 0.588284	 1.084282	 -0.525458	 0.027152	 0.431370	 -0.125707	 0.214407	 -0.000207	 -0.058452	 0.974994	 2
1463629329.802	 0	 0.730580	 1.270998	 -0.387476	 0.041466	 0.438223	 -0.130678	 0.218173	 0.006004	 -0.059221	 0.974093	 2
1463629329.812	 0	 0.781350	 1.436293	 -0.160438	 0.056693	 0.445845	 -0.133562	 0.222344	 0.012833	 -0.058802	 0.973109	 2
1463629329.822	 0	 0.757489	 1.528120	 0.172076	 0.071620	 0.453557	 -0.133178	 0.226519	 0.019857	 -0.056762	 0.972149	 2
1463629329.832	 0	 0.714054	 1.518108	 0.533655	 0.084960	 0.461134	 -0.128864	 0.230512	 0.026556	 -0.052942	 0.971265	 2
1463629329.842	 0	 0.684065	 1.474595	 0.827661	 0.096334	 0.468697	 -0.121103	 0.234349	 0.032711	 -0.047632	 0.970434	 2
1463629329.852	 0	 0.674815	 1.380361	 1.029360	 0.105772	 0.476420	 -0.110874	 0.238118	 0.038234	 -0.041314	 0.969604	 2
1463629329.862	 0	 0.693688	 1.212030	 1.144863	 0.112918	 0.484478	 -0.099142	 0.241915	 0.042847	 -0.034508	 0.968737	 2
1463629329.872	 0	 0.709175	 1.099264	 1.147942	 0.118458	 0.492828	 -0.087086	 0.245768	 0.046752	 -0.027715	 0.967804	 2
1463629329.882	 0	 0.663185	 1.154048	 1.057196	 0.124374	 0.500897	 -0.075779	 0.249462	 0.050794	 -0.021237	 0.966818	 2
1463629329.892	 0	 0.511990	 1.335431	 0.928046	 0.132336	 0.507645	 -0.065703	 0.252523	 0.055737	 -0.015130	 0.965866	 2
1463629329.902	 0	 0.272205	 1.510720	 0.802808	 0.142726	 0.512105	 -0.056764	 0.254475	 0.061781	 -0.009332	 0.965059	 2
1463629329.912	 0	 -0.006591	 1.535308	 0.707414	 0.154176	 0.513811	 -0.048592	 0.255069	 0.068308	 -0.003865	 0.964499	 2
1463629329.922	 0	 -0.285364	 1.333393	 0.618438	 0.164295	 0.512684	 -0.040928	 0.254260	 0.074187	 0.001073	 0.964286	 2
1463629329.932	 0	 -0.501261	 1.154336	 0.480103	 0.172896	 0.509103	 -0.034175	 0.252262	 0.079260	 0.005264	 0.964393	 2
1463629329.942	 0	 -0.639319	 1.079328	 0.201377	 0.181641	 0.503601	 -0.029794	 0.249402	 0.084130	 0.008227	 0.964704	 2
1463629329.952	 0	 -0.712876	 1.146290	 -0.127746	 0.192408	 0.496654	 -0.028861	 0.245964	 0.089569	 0.009684	 0.965083	 2
1463629329.962	 0	 -0.715978	 1.339452	 -0.332679	 0.206005	 0.489017	 -0.030482	 0.242289	 0.096081	 0.010179	 0.965381	 2
1463629329.972	 0	 -0.711823	 1.637483	 -0.447176	 0.222942	 0.481196	 -0.033425	 0.238577	 0.104064	 0.010374	 0.965476	 2
1463629329.982	 0	 -0.788157	 2.027557	 -0.515353	 0.243786	 0.472600	 -0.036928	 0.234513	 0.113902	 0.010644	 0.965358	 2
1463629329.992	 0	 -0.901685	 2.380060	 -0.499361	 0.268271	 0.462883	 -0.039969	 0.229876	 0.125599	 0.011394	 0.965014	 2
1463629330.002	 0	 -1.054153	 2.643153	 -0.508375	 0.295191	 0.451748	 -0.042195	 0.224497	 0.138620	 0.012591	 0.964483	 2
1463629330.022	 1	 -1.366975	 2.095989	 -0.699383	 0.342999	 0.424137	 -0.046064	 0.211182	 0.162016	 0.013728	 0.963828	 2
1463629330.032	 1	 -1.477100	 1.999094	 -0.905017	 0.364465	 0.407554	 -0.049310	 0.203333	 0.172515	 0.012921	 0.963705	 2
1463629330.042	 1	 -1.555596	 2.005630	 -1.062006	 0.386096	 0.389487	 -0.053580	 0.194894	 0.183070	 0.011320	 0.963521	 2
1463629330.052	 1	 -1.624662	 2.123425	 -1.126386	 0.408586	 0.370347	 -0.057951	 0.185990	 0.194100	 0.009453	 0.963143	 2
1463629330.062	 1	 -1.658643	 2.376738	 -1.116272	 0.432944	 0.350667	 -0.061686	 0.176806	 0.206138	 0.007792	 0.962386	 2
1463629330.072	 1	 -1.622209	 2.794141	 -1.037036	 0.460625	 0.331322	 -0.064357	 0.167711	 0.219874	 0.006731	 0.960980	 2
1463629330.082	 1	 -1.506929	 3.319529	 -0.848774	 0.492804	 0.313499	 -0.065387	 0.159188	 0.235849	 0.006745	 0.958639	 2
1463629330.092	 1	 -1.329189	 3.839431	 -0.511901	 0.529471	 0.298526	 -0.063868	 0.151717	 0.254030	 0.008417	 0.955186	 2
1463629330.102	 1	 -1.067959	 4.296280	 -0.037797	 0.570452	 0.288071	 -0.059248	 0.145926	 0.274259	 0.012242	 0.950441	 2
1463629330.112	 1	 -0.704806	 4.671757	 0.401616	 0.615210	 0.283015	 -0.052302	 0.142208	 0.296134	 0.018016	 0.944329	 2
1463629330.122	 1	 -0.296600	 4.963346	 0.732215	 0.662713	 0.283352	 -0.044566	 0.140664	 0.319012	 0.025067	 0.936919	 2
1463629330.132	 1	 0.117856	 5.131423	 0.901751	 0.712118	 0.288725	 -0.037762	 0.141327	 0.342350	 0.032627	 0.928310	 2
1463629330.142	 1	 0.522902	 5.293700	 0.856038	 0.763512	 0.297745	 -0.033942	 0.143878	 0.366041	 0.039676	 0.918553	 2
1463629330.152	 1	 0.940550	 5.524111	 0.677630	 0.818360	 0.308773	 -0.034800	 0.147898	 0.390611	 0.045398	 0.907463	 2
1463629330.162	 1	 1.341430	 5.877449	 0.430170	 0.878142	 0.320699	 -0.041165	 0.153125	 0.416582	 0.049469	 0.894743	 2
1463629330.172	 1	 1.665792	 6.322277	 0.154387	 0.944001	 0.332212	 -0.052984	 0.159091	 0.444353	 0.051882	 0.880085	 2
1463629330.182	 1	 1.872686	 6.746212	 -0.116305	 1.015859	 0.341979	 -0.069352	 0.165202	 0.473834	 0.052859	 0.863363	 2
1463629330.192	 1	 1.994125	 7.125962	 -0.354691	 1.092836	 0.349110	 -0.089071	 0.171018	 0.504621	 0.052694	 0.844591	 2
1463629330.202	 1	 2.065270	 7.479248	 -0.596082	 1.174400	 0.352953	 -0.111248	 0.176252	 0.536458	 0.051553	 0.823705	 2
1463629330.212	 1	 2.065837	 7.822985	 -0.862526	 1.259891	 0.352672	 -0.134843	 0.180503	 0.569098	 0.049512	 0.800684	 2
1463629330.222	 1	 2.028807	 8.144242	 -1.164022	 1.348787	 0.347552	 -0.158799	 0.183407	 0.602370	 0.046605	 0.775461	 2
1463629330.232	 1	 2.014967	 8.374225	 -1.429268	 1.439933	 0.337624	 -0.182403	 0.184988	 0.635781	 0.042820	 0.748150	 2
1463629330.242	 1	 2.057291	 8.453584	 -1.615407	 1.531830	 0.323689	 -0.205310	 0.185636	 0.668635	 0.038220	 0.719031	 2
1463629330.252	 1	 2.175454	 8.264123	 -1.733301	 1.622066	 0.306465	 -0.227699	 0.185843	 0.699923	 0.032615	 0.688844	 2
1463629330.262	 1	 2.363881	 7.772737	 -1.803460	 1.707708	 0.286506	 -0.249994	 0.186093	 0.728581	 0.025698	 0.658695	 2
1463629330.272	 1	 2.592465	 7.007571	 -1.917015	 1.785954	 0.263521	 -0.272458	 0.186494	 0.753847	 0.016963	 0.629799	 2
1463629330.282	 1	 2.808982	 6.052208	 -2.155863	 1.854388	 0.236491	 -0.294686	 0.186644	 0.775353	 0.005863	 0.603288	 2
1463629330.292	 1	 2.975845	 5.147636	 -2.597367	 1.912604	 0.203915	 -0.315496	 0.185643	 0.793511	 -0.007973	 0.579494	 2
1463629330.302	 1	 3.024315	 4.381664	 -3.187888	 1.961491	 0.164757	 -0.333093	 0.182430	 0.809046	 -0.024501	 0.558178	 2
1463629330.312	 1	 2.911906	 3.664093	 -3.769099	 2.001783	 0.119706	 -0.345750	 0.176363	 0.822366	 -0.043032	 0.539221	 2
1463629330.322	 1	 2.625485	 2.833031	 -4.230484	 2.032917	 0.070832	 -0.352356	 0.167278	 0.833296	 -0.062560	 0.523184	 2
1463629330.332	 1	 2.188843	 1.913229	 -4.522998	 2.054410	 0.020611	 -0.352533	 0.155318	 0.841616	 -0.082008	 0.510719	 2
1463629330.342	 1	 1.643056	 0.954027	 -4.572999	 2.066387	 -0.028153	 -0.346740	 0.141055	 0.847222	 -0.100236	 0.502266	 2
1463629330.352	 1	 1.035597	 0.066944	 -4.383061	 2.069766	 -0.072875	 -0.335965	 0.125318	 0.850248	 -0.116198	 0.497868	 2
1463629330.362	 1	 0.716477	 -0.663665	 -4.059893	 2.066089	 -0.112886	 -0.322758	 0.109262	 0.850996	 -0.129992	 0.496961	 2
1463629330.372	 1	 0.570937	 -1.455557	 -3.756923	 2.055096	 -0.149502	 -0.309980	 0.093636	 0.849370	 -0.142738	 0.499428	 2
1463629330.392	 2	 0.447787	 -2.085332	 -3.383365	 2.020589	 -0.216482	 -0.286613	 0.063415	 0.841602	 -0.166041	 0.510015	 2
1463629330.402	 2	 0.441582	 -2.183022	 -3.216896	 2.001366	 -0.247837	 -0.276411	 0.049013	 0.836609	 -0.176847	 0.516147	 2
1463629330.412	 2	 0.441874	 -2.286888	 -3.019633	 1.980997	 -0.277689	 -0.267664	 0.035314	 0.830970	 -0.187161	 0.522697	 2
1463629330.422	 2	 0.350792	 -2.289578	 -2.840883	 1.960372	 -0.305693	 -0.259586	 0.022179	 0.824986	 -0.196631	 0.529379	 2
1463629330.432	 2	 0.192268	 -2.230237	 -2.788859	 1.940650	 -0.332470	 -0.251020	 0.009098	 0.818999	 -0.205207	 0.535769	 2
1463629330.442	 2	 -0.014606	 -2.313537	 -2.918922	 1.921375	 -0.359570	 -0.240619	 -0.004933	 0.812843	 -0.213155	 0.542057	 2
1463629330.452	 2	 -0.245073	 -2.419118	 -3.051118	 1.901968	 -0.387410	 -0.227850	 -0.020290	 0.806297	 -0.220473	 0.548511	 2
1463629330.462	 2	 -0.361152	 -2.296018	 -3.136355	 1.884220	 -0.415858	 -0.213593	 -0.036353	 0.799811	 -0.227348	 0.554340	 2
1463629330.472	 2	 -0.227063	 -2.328724	 -3.192180	 1.866797	 -0.445411	 -0.200186	 -0.052461	 0.793011	 -0.234610	 0.559767	 2
1463629330.482	 2	 0.035759	 -2.567095	 -3.102900	 1.846337	 -0.475399	 -0.189948	 -0.067913	 0.785071	 -0.242546	 0.565882	 2
1463629330.492	 2	 0.388963	 -2.630863	 -2.801737	 1.822447	 -0.504037	 -0.184610	 -0.081612	 0.776117	 -0.250916	 0.572733	 2
1463629330.502	 2	 0.864830	 -2.489352	 -2.456059	 1.796518	 -0.530449	 -0.186010	 -0.092484	 0.766794	 -0.259993	 0.579549	 2
1463629330.512	 2	 1.197582	 -2.559411	 -2.155866	 1.767474	 -0.554586	 -0.193505	 -0.100989	 0.756877	 -0.269583	 0.586739	 2
1463629330.522	 2	 1.185469	 -2.818406	 -1.941821	 1.734657	 -0.576352	 -0.203331	 -0.108687	 0.746040	 -0.278559	 0.594993	 2
1463629330.532	 2	 0.922966	 -2.988428	 -1.733294	 1.700328	 -0.595498	 -0.212062	 -0.116473	 0.734780	 -0.285958	 0.603954	 2
1463629330.542	 2	 0.522918	 -3.158885	 -1.493732	 1.666132	 -0.611648	 -0.217520	 -0.124716	 0.723473	 -0.291103	 0.613427	 2
1463629330.552	 2	 0.061919	 -3.337824	 -1.275033	 1.632623	 -0.625020	 -0.218401	 -0.133759	 0.712153	 -0.293709	 0.623444	 2
1463629330.562	 2	 -0.300965	 -3.293784	 -1.068969	 1.601449	 -0.636130	 -0.214999	 -0.143303	 0.701278	 -0.294149	 0.633364	 2
1463629330.572	 2	 -0.425283	 -3.119672	 -0.870166	 1.572987	 -0.645210	 -0.209674	 -0.152450	 0.691111	 -0.293294	 0.642731	 2
1463629330.582	 2	 -0.309817	 -2.892026	 -0.818962	 1.546034	 -0.653447	 -0.205383	 -0.160726	 0.681423	 -0.292429	 0.651395	 2
1463629330.602	 3	 0.364356	 -2.050368	 -1.085573	 1.495783	 -0.672672	 -0.208692	 -0.173770	 0.663698	 -0.295313	 0.664905	 2
1463629330.612	 3	 0.766306	 -1.559060	 -1.227313	 1.472761	 -0.683994	 -0.218551	 -0.177991	 0.656040	 -0.300016	 0.669269	 2
1463629330.622	 3	 1.099122	 -1.061855	 -1.317239	 1.451365	 -0.695774	 -0.233561	 -0.180588	 0.649355	 -0.306642	 0.672084	 2
1463629330.632	 3	 1.316679	 -0.576977	 -1.393488	 1.432290	 -0.707766	 -0.252338	 -0.181845	 0.643802	 -0.314731	 0.673347	 2
1463629330.642	 3	 1.489199	 -0.160901	 -1.442275	 1.415486	 -0.719821	 -0.274045	 -0.181984	 0.639316	 -0.323959	 0.673207	 2
1463629330.652	 3	 1.656185	 0.156763	 -1.423721	 1.400118	 -0.731337	 -0.298449	 -0.180984	 0.635639	 -0.333998	 0.672052	 2
1463629330.662	 3	 1.808166	 0.417413	 -1.353344	 1.385605	 -0.741689	 -0.325331	 -0.178768	 0.632580	 -0.344552	 0.670200	 2
1463629330.672	 3	 1.864532	 0.572789	 -1.318285	 1.371857	 -0.751127	 -0.353587	 -0.175782	 0.629980	 -0.355316	 0.667815	 2
1463629330.682	 3	 1.817671	 0.627931	 -1.359994	 1.358454	 -0.760558	 -0.382049	 -0.172795	 0.627537	 -0.366103	 0.665062	 2
1463629330.692	 3	 1.745269	 0.764473	 -1.480656	 1.346126	 -0.770829	 -0.410258	 -0.170129	 0.625421	 -0.377031	 0.661629	 2
1463629330.702	 3	 1.700562	 0.980983	 -1.709522	 1.335314	 -0.782958	 -0.438869	 -0.167863	 0.623805	 -0.388579	 0.657036	 2
1463629330.712	 3	 1.646842	 1.135494	 -1.984715	 1.325484	 -0.797610	 -0.468286	 -0.166212	 0.622547	 -0.400947	 0.651191	 2
1463629330.722	 3	 1.585926	 1.058708	 -2.184197	 1.314757	 -0.814390	 -0.498337	 -0.165457	 0.621063	 -0.413767	 0.644749	 2
1463629330.732	 3	 1.549281	 0.827395	 -2.269160	 1.301079	 -0.832115	 -0.529053	 -0.165593	 0.618768	 -0.426554	 0.638559	 2
1463629330.742	 3	 1.551066	 0.760324	 -2.277260	 1.285037	 -0.849785	 -0.560769	 -0.166060	 0.615939	 -0.439208	 0.632566	 2
1463629330.752	 3	 1.603007	 0.877467	 -2.236123	 1.268450	 -0.866691	 -0.593829	 -0.166110	 0.613212	 -0.451822	 0.626287	 2
1463629330.762	 3	 1.773848	 1.121610	 -2.234273	 1.250979	 -0.882718	 -0.630298	 -0.165153	 0.610652	 -0.464984	 0.619369	 2
1463629330.772	 3	 1.865602	 1.486866	 -2.136820	 1.234650	 -0.897265	 -0.669170	 -0.162794	 0.608790	 -0.478417	 0.611547	 2
1463629330.782	 3	 1.902239	 1.863513	 -1.957783	 1.221172	 -0.909802	 -0.708934	 -0.158838	 0.607969	 -0.491708	 0.602800	 2
1463629330.792	 3	 1.901827	 2.046958	 -1.741854	 1.210002	 -0.919986	 -0.748448	 -0.153572	 0.607850	 -0.504436	 0.593699	 2
1463629330.802	 3	 1.807520	 2.047400	 -1.572639	 1.200167	 -0.928464	 -0.786518	 -0.147810	 0.607998	 -0.516322	 0.584725	 2
1463629330.812	 3	 1.653522	 1.924938	 -1.508492	 1.191076	 -0.936383	 -0.822311	 -0.142381	 0.608179	 -0.527305	 0.576017	 2
1463629330.822	 3	 1.444751	 1.538553	 -1.486823	 1.180887	 -0.944577	 -0.855400	 -0.138222	 0.607871	 -0.537292	 0.568071	 2
1463629330.832	 3	 1.171876	 0.936213	 -1.496442	 1.167908	 -0.953131	 -0.884845	 -0.136126	 0.606578	 -0.545945	 0.561673	 2
1463629330.842	 3	 0.870288	 0.320422	 -1.465431	 1.152308	 -0.961994	 -0.909864	 -0.136288	 0.604338	 -0.553081	 0.557048	 2
1463629330.852	 3	 0.566482	 -0.215544	 -1.281255	 1.135359	 -0.970578	 -0.929518	 -0.138416	 0.601430	 -0.558477	 0.554280	 2
1463629330.862	 3	 0.317780	 -0.503842	 -0.950320	 1.119301	 -0.978356	 -0.943489	 -0.141755	 0.598406	 -0.562164	 0.552980	 2
1463629330.872	 3	 0.142476	 -0.646380	 -0.583498	 1.106293	 -0.983607	 -0.951792	 -0.144987	 0.595721	 -0.564136	 0.553033	 2
1463629330.882	 3	 -0.004243	 -0.769382	 -0.297741	 1.095980	 -0.986650	 -0.955275	 -0.148051	 0.593311	 -0.564687	 0.554249	 2
1463629330.892	 3	 -0.175775	 -0.792622	 -0.198413	 1.088310	 -0.989161	 -0.954916	 -0.151303	 0.591315	 -0.564289	 0.555906	 2
1463629330.902	 3	 -0.300010	 -0.671969	 -0.184485	 1.083600	 -0.992102	 -0.952082	 -0.154617	 0.589975	 -0.563459	 0.557258	 2
1463629330.912	 3	 -0.329993	 -0.494027	 -0.152727	 1.081483	 -0.995085	 -0.948168	 -0.157534	 0.589267	 -0.562525	 0.558133	 2
1463629330.922	 3	 -0.260504	 -0.312806	 -0.068516	 1.081082	 -0.997221	 -0.944380	 -0.159598	 0.588988	 -0.561666	 0.558707	 2
1463629330.932	 3	 -0.116070	 -0.120817	 0.064167	 1.081761	 -0.997735	 -0.941550	 -0.160442	 0.588983	 -0.560985	 0.559154	 2
1463629330.942	 3	 0.069207	 0.078960	 0.260513	 1.083258	 -0.995806	 -0.940128	 -0.159686	 0.589170	 -0.560497	 0.559662	 2
1463629330.952	 3	 0.185141	 0.239967	 0.509324	 1.086270	 -0.991106	 -0.938986	 -0.157340	 0.589638	 -0.559899	 0.560432	 2
1463629330.962	 3	 0.384115	 0.348699	 0.769716	 1.090254	 -0.983390	 -0.938024	 -0.153489	 0.590210	 -0.559078	 0.561716	 2
1463629330.972	 3	 0.393756	 0.491977	 0.877541	 1.095289	 -0.973912	 -0.937497	 -0.148527	 0.591004	 -0.558231	 0.563057	 2
1463629330.982	 3	 0.228178	 0.589001	 0.989659	 1.103726	 -0.964137	 -0.934148	 -0.143338	 0.592535	 -0.556761	 0.564245	 2
1463629330.992	 3	 0.069185	 0.678954	 1.156008	 1.116050	 -0.953727	 -0.927068	 -0.137941	 0.594888	 -0.554369	 0.565469	 2
1463629331.002	 3	 0.324436	 0.788062	 1.344507	 1.128731	 -0.941138	 -0.920804	 -0.131375	 0.597310	 -0.551865	 0.566927	 2
1463629331.012	 3	 0.749085	 1.064709	 1.530957	 1.138877	 -0.924750	 -0.920532	 -0.122250	 0.599204	 -0.550291	 0.568498	 2
1463629331.022	 3	 0.644805	 1.379461	 1.771394	 1.152584	 -0.906355	 -0.919474	 -0.111612	 0.601938	 -0.548300	 0.569719	 2
1463629331.032	 3	 0.206876	 2.142631	 2.111629	 1.177937	 -0.886501	 -0.911454	 -0.099363	 0.607559	 -0.544525	 0.569642	 2
1463629331.042	 3	 -0.006140	 3.004677	 2.537152	 1.216616	 -0.863898	 -0.897768	 -0.084289	 0.616659	 -0.538950	 0.567591	 2
1463629331.052	 3	 0.432745	 3.511478	 3.079454	 1.258352	 -0.835253	 -0.887379	 -0.065267	 0.626589	 -0.532816	 0.565008	 2
1463629331.072	 4	 1.831706	 4.812894	 4.462743	 1.338970	 -0.751611	 -0.894581	 -0.009800	 0.644962	 -0.520851	 0.559144	 2
1463629331.082	 4	 1.906430	 5.409929	 4.834271	 1.383860	 -0.701086	 -0.906420	 0.024638	 0.654511	 -0.513634	 0.554245	 2
1463629331.092	 4	 1.609621	 5.759245	 4.923235	 1.433630	 -0.649814	 -0.917732	 0.060009	 0.664804	 -0.504485	 0.547658	 2
1463629331.102	 4	 1.215224	 5.915183	 4.853517	 1.486979	 -0.599917	 -0.927138	 0.094589	 0.675650	 -0.493342	 0.539596	 2
1463629331.112	 4	 0.982011	 5.960172	 4.656668	 1.541597	 -0.552234	 -0.936204	 0.127914	 0.686448	 -0.480911	 0.530238	 2
1463629331.122	 4	 0.818869	 5.830481	 4.307312	 1.595383	 -0.508245	 -0.946023	 0.159311	 0.696677	 -0.468113	 0.519742	 2
1463629331.132	 4	 0.733909	 5.487174	 4.012838	 1.646212	 -0.467902	 -0.956798	 0.188436	 0.705773	 -0.455395	 0.508913	 2
1463629331.142	 4	 0.652286	 4.870108	 3.809575	 1.691530	 -0.430184	 -0.968480	 0.215145	 0.713054	 -0.442996	 0.499020	 2
1463629331.152	 4	 0.511743	 4.003060	 3.577854	 1.729240	 -0.394882	 -0.979963	 0.238789	 0.718192	 -0.431147	 0.491215	 2
1463629331.162	 4	 0.323160	 3.023463	 3.206956	 1.758211	 -0.362936	 -0.990060	 0.258573	 0.721271	 -0.420345	 0.486023	 2
1463629331.172	 4	 0.084808	 2.014306	 2.699798	 1.778343	 -0.335443	 -0.997524	 0.273876	 0.722689	 -0.410993	 0.483526	 2
1463629331.182	 4	 -0.302241	 0.999657	 2.108623	 1.789844	 -0.312954	 -1.000628	 0.284131	 0.722940	 -0.403103	 0.483876	 2
1463629331.192	 4	 -0.983116	 0.143227	 1.509755	 1.794507	 -0.295101	 -0.996315	 0.288847	 0.722978	 -0.395743	 0.487091	 2
1463629331.202	 5	 -1.797036	 -0.359263	 1.116768	 1.795670	 -0.279809	 -0.982905	 0.288784	 0.723712	 -0.387408	 0.492706	 2
1463629331.222	 5	 -3.038318	 -0.722551	 0.972857	 1.796604	 -0.249206	 -0.934128	 0.280372	 0.727929	 -0.365122	 0.508131	 2
1463629331.232	 5	 -3.316964	 -0.775725	 1.007827	 1.796044	 -0.232116	 -0.903705	 0.274273	 0.730379	 -0.351737	 0.517303	 2
1463629331.242	 5	 -3.359287	 -0.605165	 0.896812	 1.796625	 -0.215411	 -0.872167	 0.267817	 0.733242	 -0.337820	 0.525841	 2
1463629331.252	 5	 -3.041600	 -0.019510	 0.384732	 1.800723	 -0.203253	 -0.842184	 0.261102	 0.737179	 -0.325210	 0.531631	 2
1463629331.262	 5	 -2.399729	 0.690082	 -0.066137	 1.811143	 -0.196919	 -0.816538	 0.255167	 0.742704	 -0.314853	 0.533056	 2
1463629331.272	 5	 -1.170628	 0.825175	 -0.300457	 1.822473	 -0.195717	 -0.800960	 0.251486	 0.747591	 -0.308852	 0.531482	 2
1463629331.282	 5	 0.452272	 0.541730	 -0.303370	 1.828912	 -0.198866	 -0.800422	 0.251349	 0.749625	 -0.309005	 0.528585	 2
1463629331.292	 5	 2.027617	 0.279312	 -0.212952	 1.828771	 -0.205327	 -0.816288	 0.255363	 0.748112	 -0.315465	 0.524976	 2
1463629331.302	 5	 2.888176	 0.510601	 -0.384552	 1.827776	 -0.215375	 -0.842327	 0.261965	 0.745331	 -0.325884	 0.519284	 2
1463629331.312	 5	 3.113518	 0.661213	 -0.791167	 1.827716	 -0.229786	 -0.871203	 0.268457	 0.742726	 -0.338290	 0.511711	 2
1463629331.332	 5	 2.497943	 0.601815	 -1.749810	 1.828881	 -0.270921	 -0.919475	 0.274445	 0.740027	 -0.364166	 0.494392	 2
1463629331.342	 6	 2.226615	 0.547633	 -2.290424	 1.829782	 -0.297485	 -0.936615	 0.273115	 0.740158	 -0.377043	 0.485193	 2
1463629331.352	 6	 2.118612	 0.643854	 -2.998386	 1.831141	 -0.330248	 -0.951064	 0.269019	 0.741202	 -0.391041	 0.474695	 2
1463629331.362	 6	 1.505739	 1.245962	 -3.524591	 1.839406	 -0.367643	 -0.958832	 0.262425	 0.744958	 -0.403843	 0.461608	 2
1463629331.372	 6	 0.853248	 1.355495	 -3.497642	 1.853288	 -0.404493	 -0.958876	 0.254300	 0.750639	 -0.413872	 0.447865	 2
1463629331.382	 6	 0.342185	 0.675105	 -2.927209	 1.863914	 -0.435499	 -0.954099	 0.245473	 0.755465	 -0.421382	 0.437554	 2
1463629331.392	 6	 -0.162495	 -0.044529	 -2.045994	 1.868409	 -0.457183	 -0.946430	 0.237043	 0.758533	 -0.426072	 0.432320	 2
1463629331.402	 6	 -0.658045	 -0.245698	 -1.093957	 1.870658	 -0.468296	 -0.936254	 0.230329	 0.760751	 -0.427148	 0.430989	 2
1463629331.412	 6	 -0.888964	 0.038088	 -0.188737	 1.874839	 -0.469697	 -0.925771	 0.226808	 0.762914	 -0.424857	 0.431297	 2
1463629331.422	 6	 -0.815732	 0.499208	 0.506596	 1.882216	 -0.463673	 -0.917938	 0.227173	 0.765128	 -0.420395	 0.431554	 2
1463629331.432	 6	 -0.498058	 0.755664	 0.652226	 1.891320	 -0.455638	 -0.913906	 0.229919	 0.767201	 -0.415882	 0.430792	 2
1463629331.442	 6	 0.015963	 0.455439	 0.380648	 1.896673	 -0.450852	 -0.914316	 0.232602	 0.768096	 -0.413791	 0.429770	 2
1463629331.452	 6	 0.333728	 0.085494	 -0.050800	 1.897004	 -0.451189	 -0.917492	 0.233791	 0.767811	 -0.414545	 0.428906	 2
1463629331.462	 6	 0.163857	 -0.324041	 -0.418689	 1.894332	 -0.455124	 -0.918771	 0.232564	 0.767263	 -0.416412	 0.428745	 2
1463629331.472	 6	 -0.229122	 -0.862750	 -0.649419	 1.888621	 -0.460398	 -0.915270	 0.228469	 0.766670	 -0.418031	 0.430429	 2
1463629331.482	 6	 -0.425161	 -1.351453	 -0.799341	 1.879299	 -0.466460	 -0.908388	 0.222074	 0.765689	 -0.419555	 0.434024	 2
1463629331.492	 6	 -0.194777	 -1.610532	 -0.792034	 1.866244	 -0.473335	 -0.902715	 0.215095	 0.763749	 -0.421958	 0.438604	 2
1463629331.502	 6	 0.338203	 -1.374161	 -0.688965	 1.851502	 -0.480673	 -0.902572	 0.209693	 0.760822	 -0.425837	 0.442541	 2
1463629331.512	 6	 0.848711	 -0.576134	 -0.731812	 1.840835	 -0.489538	 -0.908335	 0.206891	 0.758231	 -0.431029	 0.443279	 2
1463629331.522	 6	 1.047832	 0.509865	 -0.790583	 1.838824	 -0.499773	 -0.917241	 0.206691	 0.757297	 -0.436411	 0.439688	 2
1463629331.532	 6	 0.568619	 1.859893	 -0.795163	 1.851142	 -0.509427	 -0.922963	 0.208603	 0.759778	 -0.439394	 0.431457	 2
1463629331.542	 6	 -0.447920	 2.726844	 -0.897611	 1.879469	 -0.517077	 -0.917993	 0.210597	 0.766608	 -0.437773	 0.419899	 2
1463629331.552	 6	 -1.045764	 2.162427	 -1.089494	 1.910374	 -0.523974	 -0.903840	 0.209813	 0.774712	 -0.433792	 0.409419	 2
1463629331.562	 6	 -0.859118	 0.831941	 -1.148262	 1.929602	 -0.531450	 -0.888954	 0.205973	 0.780344	 -0.431190	 0.403378	 2
1463629331.572	 6	 -0.202470	 -0.011220	 -1.137313	 1.935524	 -0.540775	 -0.880138	 0.201062	 0.782607	 -0.431859	 0.400748	 2
1463629331.582	 6	 0.472058	 -0.011998	 -1.118681	 1.935690	 -0.552374	 -0.878820	 0.197167	 0.782953	 -0.435363	 0.398208	 2
1463629331.592	 6	 1.009719	 0.117719	 -1.053946	 1.934005	 -0.565560	 -0.884093	 0.194971	 0.782281	 -0.440852	 0.394552	 2
1463629331.602	 6	 1.350475	 -0.306244	 -1.005439	 1.926903	 -0.579534	 -0.894072	 0.193148	 0.780093	 -0.447995	 0.391725	 2
1463629331.612	 6	 1.524222	 -0.976207	 -1.066474	 1.911925	 -0.594426	 -0.906588	 0.190180	 0.776153	 -0.456598	 0.391069	 2
1463629331.622	 6	 1.557092	 -1.588835	 -1.198220	 1.889936	 -0.610517	 -0.919889	 0.185386	 0.770823	 -0.466268	 0.392503	 2
1463629331.632	 6	 1.406883	 -1.950324	 -1.239710	 1.863884	 -0.626716	 -0.932352	 0.179065	 0.764812	 -0.476014	 0.395485	 2
1463629331.642	 6	 0.889942	 -1.955038	 -1.072191	 1.839024	 -0.640441	 -0.940965	 0.172111	 0.759361	 -0.483978	 0.399391	 2
1463629331.652	 6	 0.164803	 -1.715909	 -0.950681	 1.820636	 -0.650636	 -0.941993	 0.164820	 0.755779	 -0.488701	 0.403490	 2
1463629331.662	 6	 -0.274893	 -1.586014	 -1.109772	 1.807871	 -0.660422	 -0.936455	 0.156497	 0.753822	 -0.491419	 0.407148	 2
1463629331.682	 7	 -0.119895	 -0.827989	 -1.678513	 1.794203	 -0.687934	 -0.921511	 0.138683	 0.752561	 -0.497208	 0.408905	 2
1463629331.692	 7	 0.165385	 -0.408677	 -1.822039	 1.791680	 -0.705653	 -0.917527	 0.130846	 0.752505	 -0.501557	 0.406270	 2
1463629331.702	 7	 0.432459	 -0.153930	 -1.785758	 1.789913	 -0.724074	 -0.917084	 0.124284	 0.752310	 -0.506726	 0.402259	 2
1463629331.712	 7	 0.630799	 -0.079038	 -1.645042	 1.787185	 -0.741773	 -0.919878	 0.118907	 0.751671	 -0.512346	 0.397937	 2
1463629331.722	 7	 0.776916	 -0.252558	 -1.460354	 1.781474	 -0.758109	 -0.925427	 0.114210	 0.750255	 -0.518240	 0.394337	 2
1463629331.742	 8	 0.656894	 -1.151199	 -1.054156	 1.755689	 -0.784374	 -0.939873	 0.104247	 0.744444	 -0.529492	 0.393160	 2
1463629331.752	 8	 0.425855	 -1.501406	 -1.039416	 1.738644	 -0.795410	 -0.943918	 0.097564	 0.740913	 -0.534010	 0.395427	 2
1463629331.762	 8	 0.411776	 -1.727228	 -1.091486	 1.719401	 -0.806646	 -0.947180	 0.089862	 0.736985	 -0.538416	 0.398605	 2
1463629331.772	 8	 0.550894	 -1.548726	 -1.207204	 1.699565	 -0.818981	 -0.952203	 0.082195	 0.732868	 -0.543343	 0.401158	 2
1463629331.782	 8	 0.697446	 -1.131111	 -1.347407	 1.681723	 -0.832811	 -0.959624	 0.075349	 0.729083	 -0.548896	 0.401838	 2
1463629331.792	 8	 0.746527	 -0.596984	 -1.447308	 1.667716	 -0.847781	 -0.968442	 0.069587	 0.726065	 -0.554723	 0.400336	 2
1463629331.802	 8	 0.687199	 0.200661	 -1.479868	 1.661011	 -0.863118	 -0.977109	 0.065609	 0.724554	 -0.560235	 0.396047	 2
1463629331.812	 8	 0.562991	 1.107502	 -1.587582	 1.664555	 -0.879075	 -0.984098	 0.063668	 0.725124	 -0.565138	 0.388278	 2
1463629331.822	 8	 0.463811	 1.566447	 -1.847823	 1.675716	 -0.897274	 -0.988967	 0.062373	 0.727167	 -0.569842	 0.377649	 2
1463629331.832	 8	 0.384166	 1.224141	 -2.148728	 1.687144	 -0.918262	 -0.991780	 0.059503	 0.729180	 -0.574742	 0.366644	 2
1463629331.842	 8	 0.249842	 0.279936	 -2.603965	 1.692535	 -0.943276	 -0.991611	 0.052475	 0.729998	 -0.580141	 0.357472	 2
1463629331.852	 8	 0.028824	 -0.618252	 -2.908812	 1.692257	 -0.971676	 -0.987118	 0.041077	 0.729709	 -0.585599	 0.350587	 2
1463629331.862	 8	 -0.203042	 -1.379985	 -2.881908	 1.687782	 -1.000425	 -0.978088	 0.026658	 0.728560	 -0.590322	 0.346423	 2
1463629331.872	 8	 -0.215855	 -1.782776	 -2.403821	 1.678913	 -1.025507	 -0.968290	 0.011889	 0.726528	 -0.594047	 0.345143	 2
1463629331.882	 8	 0.156771	 -1.643800	 -1.716223	 1.664471	 -1.044275	 -0.965306	 0.000062	 0.723535	 -0.597486	 0.345699	 2
1463629331.892	 8	 0.826948	 -1.336264	 -1.277971	 1.640977	 -1.058375	 -0.976101	 -0.007959	 0.719115	 -0.602157	 0.346723	 2
1463629331.902	 8	 1.378261	 -1.267093	 -1.196867	 1.606696	 -1.071014	 -1.000846	 -0.013880	 0.713027	 -0.608697	 0.347689	 2
1463629331.912	 8	 1.413125	 -1.482781	 -1.298293	 1.566168	 -1.083893	 -1.030762	 -0.020208	 0.706052	 -0.615877	 0.348967	 2
1463629331.922	 8	 1.020272	 -1.846389	 -1.436805	 1.526085	 -1.097674	 -1.056179	 -0.028584	 0.699285	 -0.622128	 0.350914	 2
1463629331.932	 8	 0.427165	 -1.994840	 -1.467127	 1.493040	 -1.111987	 -1.070999	 -0.038867	 0.693749	 -0.626390	 0.353322	 2
1463629331.942	 8	 -0.116673	 -1.812343	 -1.308290	 1.471579	 -1.125527	 -1.074023	 -0.049431	 0.690091	 -0.628428	 0.355540	 2
1463629331.952	 8	 -0.508350	 -1.379416	 -1.021621	 1.463077	 -1.136889	 -1.066797	 -0.058697	 0.688444	 -0.628520	 0.357158	 2
1463629331.962	 8	 -0.658991	 -0.816869	 -0.656979	 1.465620	 -1.145026	 -1.053500	 -0.065415	 0.688506	 -0.627371	 0.357890	 2
1463629331.972	 8	 -0.649049	 -0.289552	 -0.392113	 1.474815	 -1.150125	 -1.038815	 -0.069434	 0.689645	 -0.625785	 0.357717	 2
1463629331.982	 8	 -0.727902	 0.174527	 -0.376450	 1.490368	 -1.154330	 -1.022457	 -0.071736	 0.691812	 -0.624034	 0.356134	 2
1463629331.992	 8	 -0.836749	 0.612296	 -0.627212	 1.513137	 -1.160421	 -1.003215	 -0.073495	 0.695056	 -0.622383	 0.352327	 2
1463629332.002	 8	 -0.880992	 0.990983	 -0.932374	 1.541443	 -1.169403	 -0.982047	 -0.075268	 0.699000	 -0.621170	 0.346238	 2
1463629332.012	 8	 -0.947408	 1.306898	 -1.102575	 1.575691	 -1.180180	 -0.958492	 -0.076700	 0.703597	 -0.620238	 0.338190	 2
1463629332.022	 8	 -1.291253	 1.404526	 -1.272392	 1.619425	 -1.192096	 -0.926183	 -0.078720	 0.709076	 -0.618647	 0.329074	 2
1463629332.032	 8	 -1.938774	 1.463989	 -1.547562	 1.682379	 -1.205400	 -0.874239	 -0.082367	 0.716317	 -0.615297	 0.318614	 2
1463629332.042	 8	 -2.298070	 1.414159	 -1.670657	 1.762439	 -1.218409	 -0.804042	 -0.087453	 0.724722	 -0.610428	 0.307421	 2
1463629332.052	 8	 -2.045935	 1.623436	 -1.310678	 1.844310	 -1.227533	 -0.733251	 -0.091285	 0.732886	 -0.605503	 0.296497	 2
1463629332.062	 8	 -1.637392	 2.662208	 -0.171663	 1.918666	 -1.226904	 -0.679532	 -0.088467	 0.741378	 -0.600869	 0.285464	 2
1463629332.072	 8	 -1.180820	 3.719656	 1.215429	 1.977235	 -1.214127	 -0.653943	 -0.076710	 0.750422	 -0.596284	 0.274640	 2
1463629332.082	 8	 -0.875951	 4.673028	 2.416366	 2.020850	 -1.190762	 -0.654851	 -0.056698	 0.759914	 -0.591335	 0.263891	 2
1463629332.092	 8	 -0.804728	 5.359872	 3.143658	 2.057789	 -1.160425	 -0.671345	 -0.030938	 0.769670	 -0.585540	 0.252576	 2
1463629332.102	 8	 -0.960854	 5.334269	 3.363261	 2.093807	 -1.126816	 -0.691065	 -0.003437	 0.779271	 -0.578355	 0.241310	 2
1463629332.112	 8	 -1.272872	 4.440922	 3.248956	 2.127268	 -1.092514	 -0.706256	 0.021562	 0.788091	 -0.569609	 0.232365	 2
1463629332.122	 8	 -1.644399	 3.222711	 3.046887	 2.155677	 -1.058022	 -0.714009	 0.042005	 0.796031	 -0.559333	 0.227415	 2
1463629332.132	 8	 -1.921106	 2.266335	 2.762233	 2.179366	 -1.024097	 -0.715240	 0.058116	 0.803260	 -0.548077	 0.225850	 2
1463629332.142	 8	 -2.249683	 1.980136	 2.324402	 2.204524	 -0.991676	 -0.709117	 0.070973	 0.810557	 -0.535989	 0.225115	 2
1463629332.152	 8	 -2.825784	 2.313413	 1.702654	 2.241365	 -0.960584	 -0.691349	 0.081439	 0.819403	 -0.522145	 0.222061	 2
1463629332.162	 8	 -3.218478	 2.414072	 1.051566	 2.288488	 -0.931213	 -0.663215	 0.089209	 0.829641	 -0.506827	 0.216482	 2
1463629332.172	 8	 -3.190850	 2.044164	 0.654617	 2.334462	 -0.903954	 -0.632299	 0.094212	 0.839640	 -0.491587	 0.210879	 2
1463629332.182	 8	 -2.760956	 1.544327	 0.396834	 2.372707	 -0.880376	 -0.604824	 0.097209	 0.848176	 -0.478130	 0.206252	 2
1463629332.192	 8	 -2.140969	 0.801819	 0.192690	 2.399263	 -0.861942	 -0.583083	 0.098238	 0.854515	 -0.467597	 0.203732	 2
1463629332.202	 8	 -1.525699	 0.202806	 -0.026065	 2.415200	 -0.849312	 -0.566358	 0.097443	 0.858715	 -0.460239	 0.203208	 2
1463629332.212	 8	 -1.121328	 -0.091339	 -0.236949	 2.425435	 -0.841543	 -0.552232	 0.095323	 0.861525	 -0.455279	 0.203494	 2
1463629332.222	 8	 -0.981294	 0.010962	 -0.300097	 2.434823	 -0.835871	 -0.539066	 0.092932	 0.863899	 -0.451267	 0.203471	 2
1463629332.232	 8	 -0.879895	 0.346740	 -0.157174	 2.445549	 -0.830224	 -0.528010	 0.091698	 0.866298	 -0.447415	 0.202333	 2
1463629332.242	 8	 -0.614354	 0.754259	 0.118207	 2.456504	 -0.824632	 -0.521976	 0.092634	 0.868475	 -0.444076	 0.199919	 2
1463629332.252	 8	 -0.274827	 1.206486	 0.428530	 2.466922	 -0.819590	 -0.522681	 0.096237	 0.870191	 -0.441635	 0.196121	 2
1463629332.262	 8	 0.047960	 1.623690	 0.595860	 2.477583	 -0.815851	 -0.528884	 0.102015	 0.871447	 -0.440206	 0.190769	 2
1463629332.272	 8	 0.322363	 2.050924	 0.660327	 2.489964	 -0.813935	 -0.538642	 0.109361	 0.872361	 -0.439694	 0.183562	 2
1463629332.282	 8	 0.519210	 2.332613	 0.716653	 2.503782	 -0.813511	 -0.550972	 0.117861	 0.872959	 -0.439843	 0.174897	 2
1463629332.292	 8	 0.657138	 2.337959	 0.776251	 2.516907	 -0.814059	 -0.565279	 0.126891	 0.873125	 -0.440480	 0.165921	 2
1463629332.302	 8	 0.779237	 2.169856	 0.818385	 2.527464	 -0.815451	 -0.581238	 0.135924	 0.872733	 -0.441637	 0.157541	 2
1463629332.312	 8	 0.898359	 1.894783	 0.775355	 2.534950	 -0.818021	 -0.597998	 0.144409	 0.871771	 -0.443433	 0.150094	 2
1463629332.323	 8	 1.055367	 1.563798	 0.664332	 2.539104	 -0.822389	 -0.614803	 0.151834	 0.870216	 -0.446107	 0.143730	 2
1463629332.333	 8	 1.303985	 1.276533	 0.459131	 2.540353	 -0.829643	 -0.631385	 0.157957	 0.867999	 -0.450066	 0.138088	 2
1463629332.343	 8	 1.675701	 1.050746	 0.274745	 2.538653	 -0.840836	 -0.648496	 0.162863	 0.864930	 -0.455787	 0.132774	 2
1463629332.353	 8	 2.243550	 1.094637	 0.249960	 2.533453	 -0.856601	 -0.669534	 0.167714	 0.860616	 -0.463759	 0.127047	 2
1463629332.363	 8	 3.046041	 1.463091	 0.342320	 2.524776	 -0.877948	 -0.698676	 0.173989	 0.854542	 -0.474543	 0.119560	 2
1463629332.373	 8	 4.013310	 2.192317	 0.383315	 2.513539	 -0.906341	 -0.738628	 0.182550	 0.846260	 -0.488579	 0.108675	 2
1463629332.383	 8	 4.636463	 2.706719	 0.288888	 2.500713	 -0.940886	 -0.787455	 0.192700	 0.836037	 -0.505002	 0.094242	 2
1463629332.393	 8	 4.190033	 2.743409	 -0.111873	 2.490541	 -0.975761	 -0.833529	 0.201717	 0.825984	 -0.520475	 0.078526	 2
1463629332.403	 8	 2.803787	 2.645706	 -0.797721	 2.495646	 -1.004888	 -0.859534	 0.207338	 0.819201	 -0.531040	 0.062590	 2
1463629332.412	 8	 1.301425	 2.095455	 -1.161711	 2.516773	 -1.024805	 -0.861280	 0.209299	 0.816562	 -0.535772	 0.048663	 2
1463629332.422	 8	 0.270146	 1.337809	 -0.894407	 2.540921	 -1.034607	 -0.851033	 0.209462	 0.816606	 -0.536417	 0.039199	 2
1463629332.433	 8	 -0.457847	 0.527816	 -0.243359	 2.556636	 -1.034558	 -0.841132	 0.209634	 0.817945	 -0.534569	 0.035440	 2
1463629332.443	 8	 -1.164613	 0.370822	 0.408251	 2.565331	 -1.024998	 -0.834888	 0.211396	 0.820333	 -0.530175	 0.035778	 2
1463629332.453	 8	 -1.870381	 0.852381	 0.820670	 2.577871	 -1.006574	 -0.828973	 0.216071	 0.824210	 -0.522171	 0.036452	 2
1463629332.463	 8	 -1.996656	 0.688670	 0.927888	 2.589930	 -0.984667	 -0.823961	 0.221566	 0.828523	 -0.512863	 0.037800	 2
1463629332.483	 9	 -1.111610	 -1.228446	 0.338554	 2.588399	 -0.952748	 -0.813767	 0.223319	 0.834649	 -0.501156	 0.048289	 2
1463629332.493	 9	 -0.440148	 -1.816699	 0.010700	 2.574852	 -0.947180	 -0.809620	 0.219306	 0.835608	 -0.500499	 0.056247	 2
1463629332.503	 9	 -0.143489	 -2.084038	 -0.213918	 2.557914	 -0.946545	 -0.805477	 0.213459	 0.835641	 -0.501974	 0.064507	 2
1463629332.513	 9	 -0.202462	 -2.117060	 -0.244619	 2.540837	 -0.946475	 -0.800266	 0.207003	 0.835613	 -0.503564	 0.072968	 2
1463629332.523	 9	 -0.335818	 -1.746813	 -0.136633	 2.526560	 -0.944943	 -0.794902	 0.201481	 0.835840	 -0.504257	 0.080634	 2
1463629332.533	 9	 -0.338924	 -1.157682	 -0.006430	 2.516718	 -0.942297	 -0.790941	 0.197897	 0.836214	 -0.504110	 0.086349	 2
1463629332.543	 9	 -0.164727	 -0.491813	 0.070721	 2.511208	 -0.940261	 -0.789544	 0.196352	 0.836407	 -0.503850	 0.089469	 2
1463629332.552	 9	 0.011064	 0.300490	 0.129851	 2.511159	 -0.939347	 -0.790803	 0.197059	 0.836414	 -0.503578	 0.089381	 2
1463629332.563	 9	 0.227370	 1.096826	 0.174811	 2.517062	 -0.939693	 -0.794726	 0.200112	 0.836232	 -0.503290	 0.085846	 2
1463629332.573	 9	 0.572760	 1.690413	 0.180525	 2.526718	 -0.942569	 -0.801983	 0.204975	 0.835476	 -0.503659	 0.079326	 2
1463629332.583	 9	 0.870810	 2.252861	 0.126678	 2.539785	 -0.948313	 -0.811948	 0.211234	 0.834080	 -0.504762	 0.070042	 2
1463629332.593	 9	 0.941732	 2.765854	 -0.091910	 2.559156	 -0.956312	 -0.820528	 0.218055	 0.832582	 -0.505866	 0.057962	 2
1463629332.603	 9	 0.699761	 3.007489	 -0.309233	 2.586339	 -0.964299	 -0.824203	 0.224842	 0.831641	 -0.505859	 0.043890	 2
1463629332.613	 9	 0.370142	 1.287029	 -0.378858	 2.605497	 -0.970087	 -0.822677	 0.227901	 0.831280	 -0.505777	 0.034991	 2
1463629332.623	 9	 0.315312	 -0.894290	 -1.113805	 2.610765	 -0.976896	 -0.812082	 0.223493	 0.831472	 -0.507496	 0.033946	 2
1463629332.633	 9	 0.745036	 -3.418406	 -1.696297	 2.598841	 -0.990487	 -0.793000	 0.209847	 0.831089	 -0.513416	 0.040734	 2
1463629332.643	 9	 1.115524	 -5.501129	 -1.863846	 2.564150	 -1.008945	 -0.774334	 0.189417	 0.829041	 -0.523156	 0.055867	 2
1463629332.653	 9	 1.399081	 -6.235935	 -1.875284	 2.515421	 -1.030550	 -0.759371	 0.165864	 0.825149	 -0.534761	 0.075160	 2
1463629332.663	 9	 1.496364	 -5.608827	 -2.040818	 2.468797	 -1.054378	 -0.745844	 0.142566	 0.820219	 -0.546200	 0.092637	 2
1463629332.673	 9	 1.627541	 -4.141483	 -2.194565	 2.435553	 -1.080435	 -0.732027	 0.121963	 0.815049	 -0.556755	 0.104137	 2
1463629332.683	 9	 1.209803	 -4.121260	 -2.068177	 2.409232	 -1.104754	 -0.717393	 0.103115	 0.810208	 -0.565746	 0.113413	 2
1463629332.693	 9	 0.725930	 -4.423292	 -1.819517	 2.381930	 -1.123429	 -0.698320	 0.083338	 0.806154	 -0.572178	 0.125627	 2
1463629332.703	 9	 0.751085	 -3.760551	 -1.647311	 2.357319	 -1.140427	 -0.681966	 0.065718	 0.802092	 -0.577698	 0.136361	 2
1463629332.713	 9	 0.909909	 -3.028107	 -1.489474	 2.335347	 -1.157380	 -0.670820	 0.050874	 0.797782	 -0.583153	 0.144525	 2
1463629332.723	 9	 1.084261	 -2.394648	 -1.334825	 2.314017	 -1.174532	 -0.666441	 0.038774	 0.793148	 -0.588900	 0.150364	 2
1463629332.733	 9	 1.114509	 -2.071565	 -1.357660	 2.294334	 -1.191947	 -0.664648	 0.028015	 0.788444	 -0.594688	 0.154654	 2
1463629332.743	 9	 1.078103	 -1.998921	 -1.474967	 2.277561	 -1.209995	 -0.661240	 0.017233	 0.783789	 -0.600328	 0.158060	 2
1463629332.753	 9	 1.236650	 -2.205677	 -1.614689	 2.259234	 -1.229571	 -0.657678	 0.005458	 0.778636	 -0.606259	 0.161696	 2
1463629332.763	 9	 1.735391	 -2.244248	 -1.745150	 2.231613	 -1.252917	 -0.663026	 -0.006769	 0.771927	 -0.613830	 0.165215	 2
1463629332.773	 9	 2.504375	 -2.021817	 -1.855286	 2.186228	 -1.281393	 -0.688892	 -0.018254	 0.762918	 -0.624113	 0.167649	 2
1463629332.783	 9	 3.082968	 -1.679574	 -1.947729	 2.118037	 -1.313708	 -0.741242	 -0.028660	 0.751884	 -0.636711	 0.168663	 2
1463629332.793	 9	 3.369562	 -1.238730	 -2.054830	 2.025541	 -1.347427	 -0.822603	 -0.037756	 0.739745	 -0.650557	 0.167712	 2
1463629332.803	 9	 3.460539	 -0.809503	 -2.229610	 1.904873	 -1.380876	 -0.936397	 -0.045967	 0.727212	 -0.664787	 0.164643	 2
1463629332.813	 9	 3.416451	 -0.371653	 -2.296558	 1.743528	 -1.411730	 -1.095381	 -0.053015	 0.714704	 -0.678926	 0.159524	 2
1463629332.823	 9	 3.083870	 -0.145563	 -2.200969	 1.536550	 -1.436366	 -1.302754	 -0.059060	 0.703006	 -0.691928	 0.153397	 2
1463629332.833	 9	 2.394712	 -0.313951	 -1.939687	 1.308998	 -1.452577	 -1.529642	 -0.064996	 0.693190	 -0.702388	 0.148033	 2
1463629332.843	 9	 1.597785	 -0.781302	 -1.587527	 1.102895	 -1.461921	 -1.730494	 -0.071779	 0.685816	 -0.709568	 0.144970	 2
1463629332.853	 9	 1.018562	 -1.252449	 -1.230903	 0.935418	 -1.467183	 -1.887449	 -0.079514	 0.680431	 -0.713989	 0.144605	 2
1463629332.863	 9	 0.821729	 -1.630244	 -0.900187	 0.795756	 -1.469180	 -2.012368	 -0.087732	 0.675878	 -0.716923	 0.146671	 2
1463629332.873	 9	 0.935850	 -2.110322	 -0.614695	 0.668797	 -1.467095	 -2.120209	 -0.096433	 0.670890	 -0.719533	 0.151261	 2
1463629332.883	 9	 1.234491	 -2.533123	 -0.422997	 0.547747	 -1.460277	 -2.217341	 -0.105909	 0.664608	 -0.722499	 0.158346	 2
1463629332.893	 9	 1.590439	 -2.703767	 -0.343489	 0.433550	 -1.448711	 -2.305374	 -0.115558	 0.656802	 -0.726265	 0.166725	 2
1463629332.913	 10	 1.808124	 -2.436765	 -0.397254	 0.245632	 -1.416724	 -2.442777	 -0.133632	 0.638525	 -0.735451	 0.183139	 2
1463629332.923	 10	 1.428156	 -2.118523	 -0.519942	 0.174723	 -1.402674	 -2.492317	 -0.141849	 0.630466	 -0.739270	 0.189397	 2
1463629332.933	 10	 0.942570	 -1.735590	 -0.711448	 0.110402	 -1.393111	 -2.538974	 -0.149698	 0.624302	 -0.741889	 0.193490	 2
1463629332.943	 10	 0.595743	 -1.316107	 -0.940058	 0.045057	 -1.387111	 -2.590952	 -0.157076	 0.619752	 -0.743744	 0.195139	 2
1463629332.953	 10	 0.410106	 -0.928645	 -1.119213	 -0.022736	 -1.382724	 -2.649536	 -0.163770	 0.616215	 -0.745367	 0.194646	 2
1463629332.973	 11	 0.349061	 -0.863651	 -0.981659	 -0.149750	 -1.374251	 -2.763777	 -0.175583	 0.610428	 -0.748282	 0.191371	 2
1463629332.983	 11	 0.161251	 -1.183648	 -0.597196	 -0.193233	 -1.370706	 -2.796706	 -0.181677	 0.607836	 -0.748679	 0.192377	 2
1463629332.993	 11	 -0.449180	 -1.523536	 -0.193251	 -0.224575	 -1.372815	 -2.814111	 -0.188175	 0.607219	 -0.746799	 0.195363	 2
1463629333.003	 11	 -1.150881	 -1.749407	 0.202957	 -0.248312	 -1.382616	 -2.820861	 -0.195201	 0.609286	 -0.742066	 0.200011	 2
1463629333.013	 11	 -1.638590	 -1.824098	 0.559276	 -0.262404	 -1.398642	 -2.816792	 -0.201985	 0.613581	 -0.735103	 0.205777	 2
1463629333.023	 11	 -1.935804	 -1.711723	 0.828284	 -0.264588	 -1.418657	 -2.801206	 -0.207999	 0.619352	 -0.726750	 0.212071	 2
1463629333.033	 11	 -2.211700	 -1.363421	 1.079052	 -0.248140	 -1.441954	 -2.769857	 -0.212409	 0.626584	 -0.717452	 0.218031	 2
1463629333.043	 11	 -2.536479	 -0.958713	 1.314785	 -0.199805	 -1.468630	 -2.710540	 -0.214910	 0.635479	 -0.707208	 0.223241	 2
1463629333.053	 11	 -2.981421	 -0.566414	 1.404373	 -0.096827	 -1.499054	 -2.600484	 -0.216009	 0.646272	 -0.695744	 0.227184	 2
1463629333.063	 11	 -3.490343	 -0.009335	 1.310609	 0.167277	 -1.532473	 -2.334348	 -0.216037	 0.659119	 -0.683063	 0.228724	 2
1463629333.073	 11	 -3.930616	 0.961369	 1.081547	 1.604933	 -1.552867	 -0.903192	 -0.214277	 0.674086	 -0.669728	 0.226182	 2
1463629333.093	 12	 -3.973554	 3.651277	 0.776565	 2.769701	 -1.481868	 0.208755	 -0.199657	 0.708172	 -0.645520	 0.204779	 2
1463629333.103	 12	 -3.760231	 4.472272	 0.847359	 2.854816	 -1.443129	 0.251126	 -0.186706	 0.725397	 -0.635199	 0.188314	 2
1463629333.123	 13	 -3.549537	 4.661960	 1.275726	 2.928062	 -1.368038	 0.229183	 -0.155011	 0.757873	 -0.614751	 0.153890	 2
1463629333.133	 13	 -3.529026	 4.121714	 1.439977	 2.942058	 -1.330564	 0.199696	 -0.139210	 0.772803	 -0.603341	 0.139197	 2
1463629333.143	 13	 -3.474107	 3.261611	 1.511427	 2.947084	 -1.293421	 0.168665	 -0.125207	 0.786548	 -0.591058	 0.127734	 2
1463629333.153	 13	 -3.385975	 1.917097	 1.385178	 2.945507	 -1.257171	 0.143163	 -0.114982	 0.798798	 -0.578016	 0.120825	 2
1463629333.163	 13	 -3.136299	 0.253672	 1.201266	 2.935443	 -1.223211	 0.125414	 -0.109997	 0.809079	 -0.564734	 0.119866	 2
1463629333.183	 14	 -1.696590	 -2.442540	 1.202009	 2.871639	 -1.172203	 0.089983	 -0.111486	 0.821343	 -0.542489	 0.136646	 2
1463629333.193	 14	 -0.952471	 -3.048762	 0.921317	 2.827467	 -1.158624	 0.073835	 -0.116079	 0.822815	 -0.535510	 0.150765	 2
1463629333.203	 14	 -0.618085	 -3.220621	 0.678076	 2.784927	 -1.149876	 0.062273	 -0.122126	 0.822513	 -0.530265	 0.165457	 2
1463629333.213	 14	 -0.680363	 -3.010406	 0.600642	 2.746726	 -1.141626	 0.054284	 -0.128338	 0.821935	 -0.525145	 0.179373	 2
1463629333.223	 14	 -0.906847	 -2.430729	 0.657033	 2.715553	 -1.131315	 0.048450	 -0.133265	 0.822167	 -0.519379	 0.191119	 2
1463629333.233	 14	 -1.095584	 -1.804046	 0.757229	 2.691520	 -1.118673	 0.043482	 -0.136338	 0.823466	 -0.513011	 0.200336	 2
1463629333.243	 14	 -1.197407	 -1.299962	 0.853396	 2.672845	 -1.104444	 0.038467	 -0.137729	 0.825589	 -0.506341	 0.207491	 2
1463629333.253	 14	 -1.213470	 -0.920741	 0.926339	 2.657864	 -1.089469	 0.032952	 -0.137777	 0.828213	 -0.499665	 0.213108	 2
1463629333.263	 14	 -1.136716	 -0.711441	 0.925487	 2.645155	 -1.074846	 0.027094	 -0.137037	 0.830923	 -0.493330	 0.217748	 2
1463629333.273	 14	 -0.951619	 -0.579306	 0.887803	 2.633532	 -1.061725	 0.020812	 -0.135910	 0.833326	 -0.487748	 0.221807	 2
1463629333.283	 14	 -0.694547	 -0.372704	 0.881093	 2.622269	 -1.050783	 0.012854	 -0.134146	 0.835281	 -0.483301	 0.225235	 2
1463629333.293	 14	 -0.419579	 -0.012816	 0.899100	 2.611983	 -1.042047	 0.002240	 -0.131214	 0.836932	 -0.480163	 0.227531	 2
1463629333.303	 14	 -0.133096	 0.321324	 0.891189	 2.603139	 -1.035738	 -0.010872	 -0.127116	 0.838280	 -0.478447	 0.228512	 2
1463629333.323	 15	 0.289479	 0.824804	 0.822920	 2.588485	 -1.029543	 -0.042485	 -0.116613	 0.839998	 -0.478570	 0.227543	 2
1463629333.333	 15	 0.349472	 1.177078	 0.730823	 2.585696	 -1.028435	 -0.058449	 -0.110434	 0.840847	 -0.479755	 0.224977	 2
1463629333.343	 15	 0.376006	 1.497132	 0.582232	 2.587904	 -1.028306	 -0.072445	 -0.103999	 0.841874	 -0.481379	 0.220695	 2
1463629333.353	 15	 0.422266	 1.720169	 0.410185	 2.594663	 -1.029424	 -0.084077	 -0.097612	 0.842937	 -0.483452	 0.214950	 2
1463629333.363	 15	 0.514921	 1.830279	 0.231355	 2.604606	 -1.032155	 -0.093577	 -0.091542	 0.843804	 -0.486063	 0.208224	 2
1463629333.373	 15	 0.666751	 1.836864	 0.027599	 2.616551	 -1.037156	 -0.101107	 -0.086079	 0.844196	 -0.489443	 0.200920	 2
1463629333.383	 15	 0.847979	 1.729655	 -0.162550	 2.629141	 -1.044697	 -0.106939	 -0.081455	 0.843916	 -0.493677	 0.193529	 2
1463629333.393	 15	 1.065383	 1.548329	 -0.291890	 2.640629	 -1.054792	 -0.112093	 -0.077659	 0.842828	 -0.498812	 0.186541	 2
1463629333.403	 15	 1.363256	 1.390750	 -0.340712	 2.649184	 -1.067658	 -0.118608	 -0.074313	 0.840788	 -0.505057	 0.180196	 2
1463629333.413	 15	 1.798599	 1.368273	 -0.330857	 2.653642	 -1.084034	 -0.129024	 -0.070763	 0.837604	 -0.512887	 0.174237	 2
1463629333.423	 15	 2.199380	 1.289262	 -0.357463	 2.653621	 -1.104451	 -0.143999	 -0.066966	 0.833120	 -0.522523	 0.168513	 2
1463629333.433	 15	 1.884085	 0.922520	 -0.310171	 2.650441	 -1.123807	 -0.158914	 -0.063968	 0.828545	 -0.531512	 0.164064	 2
1463629333.443	 15	 0.513591	 1.094454	 -0.035527	 2.653571	 -1.132535	 -0.166450	 -0.061089	 0.826850	 -0.535740	 0.159904	 2
1463629333.453	 15	 -0.495020	 1.011572	 0.300739	 2.663419	 -1.128550	 -0.167731	 -0.057437	 0.828665	 -0.534527	 0.155876	 2
1463629333.463	 15	 -0.410629	 0.070502	 0.365850	 2.664752	 -1.122639	 -0.170030	 -0.055409	 0.830310	 -0.532354	 0.155286	 2
1463629333.473	 15	 0.050575	 -1.037924	 0.385625	 2.650742	 -1.120295	 -0.177014	 -0.055948	 0.829984	 -0.531567	 0.159476	 2
1463629333.483	 15	 0.424399	 -1.764478	 0.521619	 2.622408	 -1.120956	 -0.190490	 -0.057982	 0.827888	 -0.532128	 0.167567	 2
1463629333.493	 15	 0.569337	 -1.909724	 0.641567	 2.586492	 -1.122506	 -0.209250	 -0.060009	 0.824968	 -0.533304	 0.177239	 2
1463629333.503	 15	 0.548863	 -1.745694	 0.665652	 2.550664	 -1.123608	 -0.229056	 -0.061580	 0.822046	 -0.534452	 0.186574	 2
1463629333.513	 15	 0.539157	 -1.353920	 0.712013	 2.517567	 -1.124042	 -0.249425	 -0.062142	 0.819418	 -0.535540	 0.194652	 2
1463629333.523	 15	 0.510358	 -0.703700	 0.749221	 2.489785	 -1.123839	 -0.270548	 -0.060912	 0.817372	 -0.536692	 0.200386	 2
1463629333.533	 15	 0.179272	 -0.238522	 0.667974	 2.471499	 -1.121789	 -0.287190	 -0.058672	 0.816494	 -0.537039	 0.203677	 2
1463629333.543	 15	 -0.376233	 -0.262197	 0.552160	 2.462830	 -1.116410	 -0.294314	 -0.057146	 0.817036	 -0.535458	 0.206086	 2
1463629333.553	 15	 -0.947833	 -0.564199	 0.476526	 2.460508	 -1.106990	 -0.291496	 -0.057256	 0.818837	 -0.531488	 0.209158	 2
1463629333.563	 15	 -1.381749	 -0.868680	 0.408196	 2.461865	 -1.094321	 -0.280944	 -0.058996	 0.821508	 -0.525533	 0.213210	 2
1463629333.573	 15	 -1.359534	 -0.615137	 0.326166	 2.466214	 -1.081177	 -0.267747	 -0.061001	 0.824501	 -0.519146	 0.216712	 2
1463629333.583	 15	 -0.656441	 0.764963	 0.252955	 2.475751	 -1.072726	 -0.260950	 -0.059888	 0.827198	 -0.515398	 0.215690	 2
1463629333.593	 15	 -0.180880	 1.766045	 0.036451	 2.493152	 -1.070076	 -0.259378	 -0.055610	 0.829588	 -0.514692	 0.209244	 2
1463629333.603	 15	 -0.186169	 1.622023	 -0.318676	 2.515443	 -1.070092	 -0.253484	 -0.052324	 0.831715	 -0.514694	 0.201500	 2
1463629333.613	 15	 -0.359969	 0.725229	 -0.558910	 2.536359	 -1.070468	 -0.240869	 -0.052256	 0.833379	 -0.514137	 0.195991	 2
1463629333.623	 15	 -0.244683	 -0.402503	 -0.554421	 2.546708	 -1.071147	 -0.227587	 -0.055238	 0.833879	 -0.513388	 0.195005	 2
1463629333.633	 15	 0.259044	 -1.350185	 -0.498351	 2.542080	 -1.075005	 -0.220070	 -0.060149	 0.832325	 -0.514057	 0.198399	 2
1463629333.643	 15	 0.875011	 -2.034403	 -0.439741	 2.522436	 -1.083507	 -0.220952	 -0.066162	 0.828420	 -0.516912	 0.205293	 2
1463629333.653	 15	 1.405199	 -2.310305	 -0.430938	 2.491856	 -1.096356	 -0.229885	 -0.072475	 0.822573	 -0.521858	 0.213976	 2
1463629333.663	 15	 1.812243	 -2.193625	 -0.456843	 2.455259	 -1.112629	 -0.245715	 -0.078336	 0.815439	 -0.528539	 0.222640	 2
1463629333.673	 15	 2.062766	 -1.765998	 -0.494478	 2.416972	 -1.131078	 -0.267299	 -0.083037	 0.807757	 -0.536490	 0.229811	 2
1463629333.683	 15	 2.155364	 -1.306243	 -0.565610	 2.380020	 -1.150519	 -0.292393	 -0.086566	 0.800098	 -0.545122	 0.234929	 2
1463629333.693	 15	 2.200543	 -0.894644	 -0.696459	 2.345528	 -1.170719	 -0.319135	 -0.089346	 0.792620	 -0.554171	 0.238046	 2
1463629333.703	 15	 2.439676	 -0.499922	 -0.876048	 2.311604	 -1.192999	 -0.349411	 -0.091446	 0.784928	 -0.564221	 0.239126	 2
1463629333.713	 15	 2.708450	 -0.401863	 -1.032011	 2.272707	 -1.217982	 -0.386763	 -0.093300	 0.776434	 -0.575575	 0.239081	 2
1463629333.723	 15	 2.713980	 -0.698550	 -1.168040	 2.226702	 -1.243977	 -0.429165	 -0.096164	 0.767234	 -0.587191	 0.239399	 2
1463629333.733	 15	 2.401769	 -1.208755	 -1.248936	 2.176335	 -1.268684	 -0.470795	 -0.101068	 0.757935	 -0.597663	 0.241078	 2
1463629333.743	 15	 1.894014	 -1.616729	 -1.245114	 2.127473	 -1.290254	 -0.505826	 -0.107928	 0.749332	 -0.606011	 0.244140	 2
1463629333.753	 15	 1.416422	 -1.781917	 -1.190270	 2.084859	 -1.308421	 -0.531857	 -0.115888	 0.741849	 -0.612206	 0.247858	 2
1463629333.763	 15	 1.070202	 -1.705982	 -1.125801	 2.049568	 -1.323931	 -0.550322	 -0.124026	 0.735463	 -0.616826	 0.251470	 2
1463629333.773	 15	 0.850189	 -1.349582	 -1.055557	 2.021882	 -1.337556	 -0.563842	 -0.131327	 0.730160	 -0.620545	 0.254055	 2
1463629333.783	 15	 0.750670	 -0.785091	 -0.988690	 2.001048	 -1.349923	 -0.575639	 -0.136916	 0.725909	 -0.623992	 0.254842	 2
1463629333.793	 15	 0.756769	 -0.222020	 -0.928083	 1.983787	 -1.361587	 -0.589689	 -0.140476	 0.722457	 -0.627663	 0.253696	 2
1463629333.803	 15	 0.831307	 0.157793	 -0.883633	 1.965522	 -1.372981	 -0.609102	 -0.142441	 0.719374	 -0.631758	 0.251185	 2
1463629333.813	 15	 0.977406	 0.337326	 -0.854459	 1.940360	 -1.384462	 -0.637840	 -0.143394	 0.716168	 -0.636413	 0.248032	 2
1463629333.823	 15	 1.160944	 0.326217	 -0.845503	 1.902327	 -1.396246	 -0.679950	 -0.143961	 0.712417	 -0.641681	 0.244914	 2
1463629333.833	 15	 1.339399	 0.143871	 -0.838096	 1.846452	 -1.408137	 -0.738637	 -0.144727	 0.707879	 -0.647445	 0.242438	 2
1463629333.843	 15	 1.500371	 -0.135126	 -0.818647	 1.768200	 -1.419578	 -0.817235	 -0.146065	 0.702451	 -0.653550	 0.241040	 2
1463629333.853	 15	 1.625819	 -0.472573	 -0.806893	 1.664928	 -1.429921	 -0.917726	 -0.148236	 0.696150	 -0.659824	 0.240901	 2
1463629333.863	 15	 1.699899	 -0.839657	 -0.796033	 1.536617	 -1.438434	 -1.039694	 -0.151448	 0.689064	 -0.666064	 0.242102	 2
1463629333.873	 15	 1.725081	 -1.174614	 -0.774857	 1.387616	 -1.444342	 -1.178913	 -0.155689	 0.681377	 -0.672069	 0.244561	 2
1463629333.883	 15	 1.739806	 -1.462753	 -0.755285	 1.224511	 -1.447152	 -1.329254	 -0.160831	 0.673204	 -0.677778	 0.248085	 2
1463629333.893	 15	 1.773854	 -1.718054	 -0.746234	 1.054076	 -1.446564	 -1.484323	 -0.166755	 0.664518	 -0.683258	 0.252520	 2
1463629333.903	 15	 1.796962	 -2.012825	 -0.757704	 0.884400	 -1.442622	 -1.635873	 -0.173584	 0.655259	 -0.688495	 0.257836	 2
1463629333.913	 15	 1.743375	 -2.282863	 -0.762947	 0.725956	 -1.435912	 -1.773302	 -0.181442	 0.645596	 -0.693255	 0.263975	 2
1463629333.923	 15	 1.559795	 -2.573243	 -0.692645	 0.589948	 -1.427439	 -1.885177	 -0.190314	 0.635942	 -0.697044	 0.271088	 2
1463629333.933	 15	 1.197649	 -2.485513	 -0.621533	 0.482840	 -1.419570	 -1.967847	 -0.199403	 0.627315	 -0.699548	 0.278114	 2
1463629333.943	 15	 0.793583	 -2.034749	 -0.520033	 0.404486	 -1.413839	 -2.025192	 -0.207451	 0.620576	 -0.700906	 0.283869	 2
1463629333.953	 15	 0.432217	 -1.380740	 -0.388238	 0.352647	 -1.410610	 -2.062046	 -0.213434	 0.616119	 -0.701475	 0.287709	 2
1463629333.963	 15	 0.265131	 -0.913674	 -0.289716	 0.318576	 -1.408868	 -2.086343	 -0.217504	 0.613300	 -0.701736	 0.290036	 2
1463629333.973	 15	 0.275288	 -0.890555	 -0.177684	 0.292814	 -1.406965	 -2.103683	 -0.220798	 0.610876	 -0.701910	 0.292235	 2
1463629333.983	 15	 0.343199	 -1.246651	 -0.120841	 0.268780	 -1.404184	 -2.116442	 -0.224717	 0.607913	 -0.701809	 0.295649	 2
1463629333.993	 15	 0.362151	 -1.740334	 -0.136257	 0.239588	 -1.401003	 -2.129720	 -0.230233	 0.604084	 -0.701281	 0.300467	 2
1463629334.003	 15	 0.218973	 -2.232343	 -0.133194	 0.207411	 -1.398660	 -2.140893	 -0.237638	 0.599767	 -0.699822	 0.306687	 2
1463629334.013	 15	 -0.204693	 -2.492446	 -0.091427	 0.177732	 -1.399670	 -2.146166	 -0.246635	 0.596126	 -0.696781	 0.313531	 2
1463629334.023	 15	 -0.806348	 -2.378668	 0.101379	 0.162330	 -1.406030	 -2.137147	 -0.255980	 0.594593	 -0.691721	 0.320086	 2
1463629334.033	 15	 -1.364993	 -2.066353	 0.408628	 0.174039	 -1.417641	 -2.103577	 -0.264369	 0.595804	 -0.684729	 0.325995	 2
1463629334.043	 15	 -1.779241	 -1.884449	 0.684631	 0.218750	 -1.432958	 -2.039003	 -0.271813	 0.599211	 -0.676108	 0.331576	 2
1463629334.053	 15	 -2.125606	 -1.747787	 0.909532	 0.305103	 -1.450477	 -1.933891	 -0.278659	 0.604240	 -0.666082	 0.337014	 2
1463629334.063	 15	 -2.478812	 -1.484479	 1.142065	 0.459312	 -1.468681	 -1.763077	 -0.284570	 0.611010	 -0.654798	 0.341945	 2
1463629334.073	 15	 -2.845705	 -1.233447	 1.436417	 0.728899	 -1.484044	 -1.479386	 -0.289300	 0.619670	 -0.642146	 0.346357	 2
1463629334.083	 15	 -3.254966	 -1.141823	 1.731786	 1.138562	 -1.489557	 -1.056678	 -0.293283	 0.630070	 -0.627719	 0.350664	 2
1463629334.093	 16	 -3.591077	 -0.833185	 1.915566	 1.573847	 -1.478449	 -0.610344	 -0.296442	 0.642077	 -0.611832	 0.354289	 2
1463629334.113	 16	 -3.426901	 1.884398	 2.136591	 2.073988	 -1.419271	 -0.120700	 -0.291527	 0.671868	 -0.583171	 0.351450	 2
1463629334.123	 16	 -3.174035	 3.347054	 2.265234	 2.194521	 -1.383139	 -0.028970	 -0.280876	 0.689630	 -0.572598	 0.343002	 2
1463629334.133	 16	 -2.958950	 4.219920	 2.449465	 2.277462	 -1.345704	 0.014439	 -0.266091	 0.708277	 -0.563568	 0.331557	 2
1463629334.143	 16	 -2.701838	 4.399005	 2.754767	 2.332187	 -1.307316	 0.025552	 -0.248738	 0.726617	 -0.554933	 0.319696	 2
1463629334.153	 16	 -2.362872	 4.064079	 3.053507	 2.361978	 -1.268843	 0.013088	 -0.230107	 0.743505	 -0.546233	 0.309647	 2
1463629334.163	 16	 -2.019389	 3.284052	 3.137045	 2.373847	 -1.231930	 -0.011353	 -0.212075	 0.758029	 -0.537425	 0.302639	 2
1463629334.173	 16	 -1.669238	 2.054734	 3.014915	 2.371453	 -1.198069	 -0.039372	 -0.196686	 0.769424	 -0.528561	 0.299874	 2
1463629334.183	 16	 -1.346921	 0.664171	 2.793477	 2.356115	 -1.167918	 -0.066809	 -0.185146	 0.777385	 -0.519735	 0.302109	 2
1463629334.193	 16	 -1.132997	 -0.575504	 2.508310	 2.331594	 -1.141220	 -0.090589	 -0.177586	 0.782334	 -0.510954	 0.308776	 2
1463629334.203	 16	 -1.026848	 -1.596740	 2.234639	 2.301227	 -1.117228	 -0.109146	 -0.173653	 0.784868	 -0.502056	 0.319008	 2
1463629334.213	 16	 -1.012658	 -2.234543	 1.997310	 2.268600	 -1.095107	 -0.122116	 -0.172468	 0.785735	 -0.492934	 0.331498	 2
1463629334.223	 16	 -1.070362	 -2.355611	 1.852808	 2.237992	 -1.073871	 -0.130018	 -0.172624	 0.785937	 -0.483581	 0.344462	 2
1463629334.233	 16	 -1.149757	 -1.948401	 1.799737	 2.213528	 -1.052634	 -0.134240	 -0.172465	 0.786568	 -0.474175	 0.355985	 2
1463629334.243	 16	 -1.163478	 -1.229434	 1.789495	 2.197317	 -1.031312	 -0.136574	 -0.170870	 0.788289	 -0.465133	 0.364767	 2
1463629334.263	 17	 -0.759141	 0.074654	 1.820490	 2.181568	 -0.990626	 -0.146830	 -0.161660	 0.794388	 -0.450258	 0.374274	 2
1463629334.273	 17	 -0.435454	 0.390492	 1.797164	 2.175726	 -0.972880	 -0.157798	 -0.154707	 0.797580	 -0.445086	 0.376603	 2
1463629334.283	 17	 -0.212316	 0.476488	 1.719287	 2.169231	 -0.957045	 -0.171346	 -0.147211	 0.800348	 -0.441109	 0.378412	 2
1463629334.293	 17	 -0.066328	 0.554760	 1.571669	 2.163075	 -0.943138	 -0.185431	 -0.139782	 0.802732	 -0.438028	 0.379755	 2
1463629334.303	 17	 0.090777	 0.722386	 1.430114	 2.158180	 -0.931255	 -0.199878	 -0.132332	 0.804900	 -0.435908	 0.380273	 2
1463629334.313	 17	 0.252342	 0.939906	 1.277262	 2.154978	 -0.921436	 -0.214954	 -0.124688	 0.806968	 -0.434825	 0.379714	 2
1463629334.323	 17	 0.390924	 1.084747	 1.066382	 2.153569	 -0.914048	 -0.230023	 -0.117188	 0.808870	 -0.434782	 0.378102	 2
1463629334.333	 17	 0.522454	 1.109275	 0.835261	 2.153039	 -0.909292	 -0.244718	 -0.110240	 0.810401	 -0.435713	 0.375834	 2
1463629334.343	 17	 0.601696	 1.125526	 0.615175	 2.153203	 -0.906936	 -0.258656	 -0.103997	 0.811566	 -0.437438	 0.373085	 2
1463629334.353	 17	 0.594258	 1.296434	 0.419664	 2.155975	 -0.906343	 -0.270932	 -0.098263	 0.812798	 -0.439632	 0.369359	 2
1463629334.363	 17	 0.590174	 1.484482	 0.242401	 2.162169	 -0.907244	 -0.281431	 -0.092840	 0.814290	 -0.442195	 0.364384	 2
1463629334.373	 17	 0.606031	 1.578011	 0.092861	 2.170396	 -0.909547	 -0.290728	 -0.087770	 0.815824	 -0.445118	 0.358604	 2
1463629334.383	 17	 0.618451	 1.631053	 -0.067684	 2.180280	 -0.913253	 -0.298732	 -0.083165	 0.817322	 -0.448364	 0.352190	 2
1463629334.393	 17	 0.644545	 1.652059	 -0.240369	 2.191474	 -0.918528	 -0.305395	 -0.079151	 0.818684	 -0.451977	 0.345265	 2
1463629334.403	 17	 0.694008	 1.654874	 -0.418756	 2.203658	 -0.925541	 -0.310874	 -0.075765	 0.819824	 -0.456039	 0.337901	 2
1463629334.413	 17	 0.792510	 1.675377	 -0.631509	 2.216739	 -0.934735	 -0.315398	 -0.073021	 0.820644	 -0.460763	 0.330012	 2
1463629334.423	 17	 0.933550	 1.682833	 -0.866070	 2.230497	 -0.946586	 -0.319150	 -0.070984	 0.821013	 -0.466358	 0.321573	 2
1463629334.433	 17	 1.163345	 1.712500	 -1.082013	 2.244393	 -0.961467	 -0.323025	 -0.069471	 0.820780	 -0.473091	 0.312535	 2
1463629334.443	 17	 1.615931	 1.678851	 -1.285564	 2.255783	 -0.980389	 -0.329769	 -0.068194	 0.819421	 -0.481662	 0.303151	 2
1463629334.453	 17	 2.038188	 1.563282	 -1.504534	 2.262693	 -1.004011	 -0.340464	 -0.067358	 0.816542	 -0.492353	 0.293787	 2
1463629334.463	 17	 1.934075	 1.516103	 -1.598920	 2.269477	 -1.029011	 -0.350372	 -0.067140	 0.813224	 -0.503313	 0.284317	 2
1463629334.473	 17	 0.569940	 2.403427	 -1.379488	 2.293558	 -1.046737	 -0.346756	 -0.066361	 0.813076	 -0.510185	 0.272424	 2
1463629334.483	 17	 -0.562665	 2.034952	 -1.025617	 2.334174	 -1.052232	 -0.326257	 -0.065500	 0.816726	 -0.510848	 0.260197	 2
1463629334.493	 17	 -0.402512	 0.241074	 -0.754883	 2.357736	 -1.054715	 -0.307319	 -0.067730	 0.818628	 -0.510132	 0.255003	 2
1463629334.503	 17	 0.074500	 -1.018725	 -0.335928	 2.356080	 -1.057533	 -0.300361	 -0.071558	 0.817595	 -0.510254	 0.257017	 2
1463629334.513	 17	 0.378508	 -1.581735	 0.030269	 2.338234	 -1.060190	 -0.304118	 -0.075113	 0.814869	 -0.511095	 0.262925	 2
1463629334.523	 17	 0.506340	 -1.933670	 0.391437	 2.309651	 -1.061261	 -0.315606	 -0.077973	 0.811272	 -0.511938	 0.271435	 2
1463629334.533	 17	 0.443288	 -2.121347	 0.592735	 2.275935	 -1.060210	 -0.330351	 -0.080416	 0.807405	 -0.512251	 0.281478	 2
1463629334.543	 17	 0.298473	 -2.115069	 0.666526	 2.242710	 -1.057304	 -0.344015	 -0.082779	 0.803764	 -0.511788	 0.291862	 2
1463629334.553	 17	 0.305706	 -1.784754	 0.751600	 2.211875	 -1.053304	 -0.357729	 -0.084255	 0.800520	 -0.511086	 0.301431	 2
1463629334.563	 17	 0.475117	 -1.173590	 0.763273	 2.184594	 -1.049583	 -0.373809	 -0.083930	 0.797718	 -0.511060	 0.308900	 2
1463629334.573	 17	 0.503618	 -0.699006	 0.657667	 2.162492	 -1.046849	 -0.390111	 -0.082433	 0.795444	 -0.511711	 0.314046	 2
1463629334.583	 17	 0.315269	 -0.522428	 0.584215	 2.145946	 -1.043895	 -0.402878	 -0.080872	 0.793868	 -0.512017	 0.317917	 2
1463629334.593	 17	 -0.103675	 -0.595078	 0.516847	 2.135176	 -1.039468	 -0.408877	 -0.080150	 0.793149	 -0.510999	 0.321514	 2
1463629334.603	 17	 -0.548728	 -0.950984	 0.392716	 2.129087	 -1.033479	 -0.405989	 -0.081352	 0.793064	 -0.508201	 0.325827	 2
1463629334.613	 17	 -0.763249	 -0.997674	 0.174602	 2.127113	 -1.027625	 -0.396351	 -0.084211	 0.793331	 -0.504496	 0.330179	 2
1463629334.623	 17	 -0.593782	 -0.222962	 0.005550	 2.131073	 -1.023784	 -0.386047	 -0.086349	 0.794198	 -0.501612	 0.331932	 2
1463629334.633	 17	 -0.519931	 1.099746	 -0.169293	 2.146909	 -1.022021	 -0.376655	 -0.085684	 0.796709	 -0.500120	 0.328318	 2
1463629334.643	 17	 -0.716068	 1.642564	 -0.489723	 2.175576	 -1.021682	 -0.361589	 -0.084460	 0.800779	 -0.498774	 0.320693	 2
1463629334.653	 17	 -0.903516	 1.007562	 -0.715678	 2.205532	 -1.022172	 -0.340897	 -0.085423	 0.804564	 -0.496942	 0.313734	 2
1463629334.663	 17	 -1.154195	 -0.195771	 -0.870703	 2.229117	 -1.022187	 -0.314547	 -0.090201	 0.807086	 -0.493869	 0.310756	 2
1463629334.673	 17	 -1.080296	 -1.180602	 -0.977495	 2.243719	 -1.022745	 -0.286180	 -0.098185	 0.807917	 -0.490349	 0.311748	 2
1463629334.683	 17	 -0.665388	 -1.780655	 -1.127371	 2.248249	 -1.026299	 -0.261458	 -0.107827	 0.806668	 -0.488038	 0.315402	 2
1463629334.693	 17	 -0.067422	 -2.107264	 -1.189971	 2.243083	 -1.034105	 -0.243718	 -0.117906	 0.803312	 -0.487858	 0.320598	 2
1463629334.703	 17	 0.576794	 -2.206804	 -1.162402	 2.227811	 -1.045892	 -0.235928	 -0.127296	 0.798016	 -0.490073	 0.326794	 2
1463629334.713	 17	 1.315535	 -1.948205	 -1.137652	 2.203752	 -1.061711	 -0.240120	 -0.135010	 0.791152	 -0.495050	 0.332830	 2
1463629334.723	 17	 2.206614	 -1.278573	 -1.131719	 2.171411	 -1.082416	 -0.260300	 -0.139785	 0.782971	 -0.503751	 0.337123	 2
1463629334.733	 17	 2.893590	 -0.653128	 -1.141472	 2.131066	 -1.106988	 -0.296686	 -0.141625	 0.773827	 -0.515787	 0.339261	 2
1463629334.743	 17	 3.207228	 -0.251771	 -1.109561	 2.083566	 -1.132707	 -0.345777	 -0.141430	 0.764235	 -0.529572	 0.339847	 2
1463629334.753	 17	 3.176181	 -0.243424	 -1.144383	 2.030526	 -1.157664	 -0.401586	 -0.140864	 0.754471	 -0.543496	 0.339916	 2
1463629334.763	 17	 2.928143	 -0.483777	 -1.241445	 1.974113	 -1.181272	 -0.458316	 -0.141474	 0.744651	 -0.556513	 0.340255	 2
1463629334.773	 17	 2.535218	 -0.711656	 -1.290235	 1.917577	 -1.202895	 -0.512057	 -0.143580	 0.735190	 -0.567997	 0.340970	 2
1463629334.783	 17	 2.025764	 -0.822695	 -1.261254	 1.865586	 -1.221782	 -0.559016	 -0.146841	 0.726716	 -0.577477	 0.341822	 2
1463629334.793	 17	 1.460443	 -0.806826	 -1.208225	 1.823264	 -1.237874	 -0.595236	 -0.150899	 0.719755	 -0.584747	 0.342423	 2
1463629334.803	 17	 0.978755	 -0.706129	 -1.157266	 1.792710	 -1.251799	 -0.619742	 -0.155379	 0.714402	 -0.590095	 0.342455	 2
1463629334.813	 17	 0.678543	 -0.576331	 -1.126800	 1.771521	 -1.264432	 -0.635596	 -0.159952	 0.710268	 -0.594194	 0.341860	 2
1463629334.823	 17	 0.546094	 -0.393905	 -1.104766	 1.755947	 -1.276416	 -0.647271	 -0.164232	 0.706919	 -0.597744	 0.340580	 2
1463629334.833	 17	 0.533245	 -0.204307	 -1.071983	 1.742302	 -1.287994	 -0.658911	 -0.167886	 0.704007	 -0.601247	 0.338659	 2
1463629334.843	 17	 0.586068	 -0.118083	 -1.040733	 1.727262	 -1.299262	 -0.673187	 -0.171001	 0.701182	 -0.604905	 0.336441	 2
1463629334.853	 17	 0.675767	 -0.135115	 -1.006503	 1.707719	 -1.310265	 -0.692120	 -0.173846	 0.698110	 -0.608783	 0.334369	 2
1463629334.863	 17	 0.775910	 -0.214804	 -0.954828	 1.681897	 -1.320810	 -0.716832	 -0.176554	 0.694653	 -0.612842	 0.332731	 2
1463629334.873	 17	 0.888602	 -0.358267	 -0.892133	 1.647908	 -1.330646	 -0.748574	 -0.179249	 0.690674	 -0.617040	 0.331813	 2
1463629334.883	 17	 0.998999	 -0.529433	 -0.837135	 1.604630	 -1.339671	 -0.788090	 -0.182066	 0.686095	 -0.621354	 0.331730	 2
1463629334.893	 17	 1.107175	 -0.702859	 -0.801324	 1.551521	 -1.347837	 -0.835826	 -0.185092	 0.680889	 -0.625783	 0.332455	 2
1463629334.903	 17	 1.197148	 -0.873178	 -0.784508	 1.488734	 -1.355110	 -0.891633	 -0.188415	 0.675077	 -0.630304	 0.333899	 2
1463629334.923	 18	 1.303279	 -1.202328	 -0.809810	 1.337870	 -1.366777	 -1.023635	 -0.196345	 0.661865	 -0.639331	 0.338585	 2
1463629334.933	 18	 1.358224	 -1.277299	 -0.858946	 1.250751	 -1.371251	 -1.099703	 -0.200885	 0.654571	 -0.643943	 0.341349	 2
1463629334.953	 19	 1.535430	 -1.423063	 -0.940711	 1.053063	 -1.376094	 -1.273483	 -0.210613	 0.638565	 -0.653684	 0.347237	 2
1463629334.963	 19	 1.592592	 -1.490509	 -0.978072	 0.943977	 -1.375645	 -1.369619	 -0.215764	 0.629741	 -0.658841	 0.350430	 2
1463629334.973	 19	 1.371006	 -1.423781	 -0.959536	 0.841785	 -1.374090	 -1.458925	 -0.221066	 0.621317	 -0.663491	 0.353375	 2
1463629334.983	 19	 0.845829	 -1.088549	 -0.851662	 0.763571	 -1.373595	 -1.526628	 -0.225982	 0.614952	 -0.666788	 0.355189	 2
1463629334.993	 19	 0.313795	 -0.696294	 -0.656871	 0.714452	 -1.375125	 -1.568630	 -0.230020	 0.611270	 -0.668491	 0.355752	 2
1463629335.003	 19	 -0.024524	 -0.389892	 -0.489079	 0.688036	 -1.378172	 -1.590904	 -0.233069	 0.609703	 -0.669032	 0.355440	 2
1463629335.013	 19	 -0.107009	 -0.274396	 -0.436129	 0.670597	 -1.381736	 -1.605724	 -0.235562	 0.609009	 -0.669173	 0.354721	 2
1463629335.023	 19	 -0.038320	 -0.401312	 -0.456026	 0.650373	 -1.384973	 -1.622697	 -0.238223	 0.608055	 -0.669360	 0.354228	 2
1463629335.033	 19	 0.070911	 -0.763345	 -0.467806	 0.622227	 -1.387398	 -1.644610	 -0.241775	 0.606175	 -0.669529	 0.354721	 2
1463629335.043	 19	 0.140083	 -1.065313	 -0.426456	 0.588751	 -1.388846	 -1.668447	 -0.246234	 0.603430	 -0.669470	 0.356443	 2
1463629335.053	 19	 0.115033	 -1.262294	 -0.319364	 0.556712	 -1.389636	 -1.688620	 -0.251131	 0.600376	 -0.668972	 0.359109	 2
1463629335.063	 19	 -0.172558	 -1.230937	 -0.218518	 0.534987	 -1.391638	 -1.697956	 -0.256213	 0.598084	 -0.667574	 0.361934	 2
1463629335.073	 19	 -0.637859	 -0.959996	 -0.005187	 0.536062	 -1.396429	 -1.686265	 -0.260829	 0.597824	 -0.664802	 0.364161	 2
1463629335.083	 19	 -1.117829	 -0.478846	 0.295488	 0.571264	 -1.403780	 -1.644384	 -0.264008	 0.600314	 -0.660614	 0.365393	 2
1463629335.093	 19	 -1.523258	 -0.021405	 0.583570	 0.645449	 -1.412568	 -1.567933	 -0.265483	 0.605461	 -0.655205	 0.365571	 2
1463629335.103	 19	 -1.823899	 0.281264	 0.838392	 0.758804	 -1.420967	 -1.455387	 -0.265629	 0.612603	 -0.648727	 0.365120	 2
1463629335.113	 19	 -2.084682	 0.438089	 1.091511	 0.910807	 -1.426926	 -1.305864	 -0.264827	 0.621220	 -0.641167	 0.364495	 2
1463629335.123	 19	 -2.432449	 0.485569	 1.337974	 1.100279	 -1.428634	 -1.119288	 -0.263548	 0.631210	 -0.632165	 0.363983	 2
1463629335.133	 19	 -2.960886	 0.547762	 1.487032	 1.323308	 -1.424868	 -0.899222	 -0.262394	 0.642914	 -0.621217	 0.363181	 2
1463629335.143	 19	 -3.460829	 0.879070	 1.504060	 1.562061	 -1.414160	 -0.665556	 -0.261195	 0.656579	 -0.608626	 0.360910	 2
1463629335.153	 19	 -3.545815	 1.642962	 1.500184	 1.779221	 -1.395625	 -0.459822	 -0.258322	 0.671789	 -0.595972	 0.356071	 2
1463629335.163	 19	 -3.194604	 2.729519	 1.579709	 1.947130	 -1.371213	 -0.313909	 -0.251629	 0.687833	 -0.585147	 0.348097	 2
1463629335.173	 19	 -2.699689	 3.634677	 1.783120	 2.066061	 -1.343661	 -0.227340	 -0.240512	 0.704035	 -0.576591	 0.337684	 2
1463629335.193	 20	 -1.988239	 3.975036	 2.364130	 2.201368	 -1.283919	 -0.170621	 -0.209405	 0.734552	 -0.562783	 0.316004	 2
1463629335.203	 20	 -1.848135	 3.391332	 2.597276	 2.235710	 -1.252318	 -0.171963	 -0.192942	 0.747910	 -0.555447	 0.308029	 2
1463629335.213	 20	 -1.761318	 2.452893	 2.732731	 2.254258	 -1.220098	 -0.180989	 -0.178018	 0.759462	 -0.547118	 0.303624	 2
1463629335.223	 20	 -1.642502	 1.360546	 2.778017	 2.258555	 -1.188020	 -0.193922	 -0.165506	 0.768867	 -0.537922	 0.303465	 2
1463629335.233	 20	 -1.457168	 0.249836	 2.664821	 2.251070	 -1.157539	 -0.207786	 -0.155965	 0.775872	 -0.528391	 0.307410	 2
1463629335.243	 20	 -1.116445	 -0.848378	 2.431022	 2.231896	 -1.130464	 -0.222445	 -0.149654	 0.780036	 -0.519360	 0.315298	 2
1463629335.253	 20	 -0.792703	 -1.616486	 2.097064	 2.204418	 -1.107863	 -0.236828	 -0.146266	 0.781542	 -0.511421	 0.325956	 2
1463629335.263	 20	 -0.687912	 -1.844896	 1.883005	 2.175338	 -1.088117	 -0.248919	 -0.144539	 0.781676	 -0.504167	 0.337501	 2
1463629335.273	 20	 -0.779166	 -1.373547	 1.722993	 2.153193	 -1.069315	 -0.256636	 -0.142772	 0.782190	 -0.497117	 0.347374	 2
1463629335.283	 20	 -0.926560	 -0.441854	 1.659408	 2.143616	 -1.050516	 -0.259810	 -0.139523	 0.784382	 -0.490218	 0.353504	 2
1463629335.293	 20	 -0.953999	 0.481836	 1.714070	 2.144234	 -1.031104	 -0.262113	 -0.133921	 0.788327	 -0.483637	 0.355951	 2
1463629335.303	 20	 -0.889849	 1.122483	 1.788748	 2.150716	 -1.011262	 -0.266021	 -0.126166	 0.793415	 -0.477516	 0.355743	 2
1463629335.313	 20	 -0.770885	 1.483523	 1.755901	 2.160027	 -0.992072	 -0.271720	 -0.117194	 0.798901	 -0.472039	 0.353838	 2
1463629335.323	 20	 -0.635822	 1.491771	 1.627976	 2.169682	 -0.974533	 -0.278435	 -0.108142	 0.804106	 -0.467271	 0.351252	 2
1463629335.333	 20	 -0.399011	 1.129546	 1.494652	 2.174986	 -0.959311	 -0.286921	 -0.099939	 0.808133	 -0.463362	 0.349612	 2
1463629335.343	 20	 -0.082218	 0.755388	 1.361587	 2.174177	 -0.946905	 -0.298263	 -0.092633	 0.810657	 -0.460670	 0.349339	 2
1463629335.353	 20	 0.238447	 0.546936	 1.200188	 2.168523	 -0.937550	 -0.312456	 -0.085970	 0.811863	 -0.459405	 0.349907	 2
1463629335.363	 20	 0.528395	 0.641462	 1.005640	 2.161357	 -0.931366	 -0.328803	 -0.079504	 0.812292	 -0.459667	 0.350095	 2
1463629335.373	 20	 0.731036	 1.019043	 0.794237	 2.156520	 -0.928135	 -0.346224	 -0.072762	 0.812626	 -0.461328	 0.348599	 2
1463629335.383	 20	 0.814681	 1.490722	 0.603929	 2.156477	 -0.927109	 -0.363343	 -0.065564	 0.813371	 -0.463915	 0.344835	 2
1463629335.393	 20	 0.801181	 1.993207	 0.368925	 2.163032	 -0.928022	 -0.378553	 -0.058069	 0.814820	 -0.467053	 0.338466	 2
1463629335.403	 20	 0.700683	 2.424284	 0.078596	 2.177031	 -0.930873	 -0.390092	 -0.050773	 0.817030	 -0.470410	 0.329542	 2
1463629335.413	 20	 0.552129	 2.636278	 -0.228275	 2.197709	 -0.935525	 -0.396691	 -0.044309	 0.819813	 -0.473687	 0.318691	 2
1463629335.423	 20	 0.397244	 2.622929	 -0.518004	 2.223043	 -0.941686	 -0.398064	 -0.039180	 0.822827	 -0.476713	 0.306863	 2
1463629335.433	 20	 0.325476	 2.347774	 -0.795972	 2.249904	 -0.949473	 -0.394896	 -0.035864	 0.825546	 -0.479644	 0.295177	 2
1463629335.443	 20	 0.369328	 1.909669	 -1.057279	 2.275281	 -0.959351	 -0.388608	 -0.034586	 0.827462	 -0.482887	 0.284483	 2
1463629335.453	 20	 0.531584	 1.424724	 -1.276357	 2.297051	 -0.971773	 -0.380899	 -0.035241	 0.828235	 -0.486873	 0.275210	 2
1463629335.463	 20	 0.805526	 1.033521	 -1.430523	 2.314166	 -0.987032	 -0.373810	 -0.037287	 0.827718	 -0.491992	 0.267275	 2
1463629335.473	 20	 1.167120	 0.819307	 -1.490019	 2.326215	 -1.005180	 -0.369683	 -0.039872	 0.825910	 -0.498543	 0.260264	 2
1463629335.483	 20	 1.566406	 0.792076	 -1.417014	 2.332958	 -1.025760	 -0.371038	 -0.041956	 0.822940	 -0.506611	 0.253681	 2
1463629335.493	 20	 1.785828	 0.818989	 -1.287585	 2.335059	 -1.047397	 -0.378013	 -0.043101	 0.819197	 -0.515629	 0.247358	 2
1463629335.503	 20	 1.540779	 0.784579	 -1.145091	 2.336699	 -1.067312	 -0.385363	 -0.043857	 0.815660	 -0.523955	 0.241344	 2
1463629335.513	 20	 0.425746	 1.112399	 -0.684712	 2.347073	 -1.078501	 -0.384617	 -0.043773	 0.814653	 -0.528227	 0.235372	 2
1463629335.523	 20	 -0.335277	 0.959207	 -0.263864	 2.365515	 -1.079362	 -0.376429	 -0.042419	 0.816448	 -0.527992	 0.229866	 2
1463629335.533	 20	 -0.388804	 -0.568761	 -0.371404	 2.373410	 -1.078766	 -0.365640	 -0.044623	 0.817242	 -0.526702	 0.229587	 2
1463629335.543	 20	 -0.061393	 -1.813375	 -0.558489	 2.366884	 -1.081169	 -0.355352	 -0.051026	 0.815745	 -0.526250	 0.234559	 2
1463629335.553	 20	 0.344708	 -2.377155	 -0.550219	 2.348581	 -1.087001	 -0.350523	 -0.058995	 0.812229	 -0.527343	 0.242309	 2
1463629335.563	 20	 0.498882	 -2.528543	 -0.243899	 2.321208	 -1.092725	 -0.352965	 -0.066419	 0.807749	 -0.528901	 0.251783	 2
1463629335.573	 20	 0.381956	 -2.334731	 0.180964	 2.290196	 -1.095006	 -0.360964	 -0.071890	 0.803580	 -0.529689	 0.261764	 2
1463629335.583	 20	 0.150458	 -2.144447	 0.513005	 2.259783	 -1.092987	 -0.370498	 -0.075675	 0.800278	 -0.529109	 0.271795	 2
1463629335.593	 20	 0.138225	 -1.532279	 0.736224	 2.232383	 -1.088409	 -0.381974	 -0.077298	 0.797826	 -0.528009	 0.280544	 2
1463629335.603	 20	 0.109304	 -0.668390	 0.757303	 2.212776	 -1.083097	 -0.394227	 -0.076359	 0.796531	 -0.527109	 0.286117	 2
1463629335.613	 20	 -0.132984	 -0.261945	 0.532990	 2.203800	 -1.077894	 -0.400729	 -0.074912	 0.796460	 -0.525870	 0.288963	 2
1463629335.623	 20	 -0.475530	 -0.228054	 0.228283	 2.204034	 -1.073138	 -0.397874	 -0.074869	 0.797269	 -0.523788	 0.290520	 2
1463629335.633	 20	 -0.556920	 -0.309358	 -0.015824	 2.209011	 -1.069478	 -0.388921	 -0.076281	 0.798334	 -0.521378	 0.291562	 2
1463629335.643	 20	 -0.183189	 -0.167692	 -0.129665	 2.212429	 -1.068548	 -0.382442	 -0.077761	 0.798757	 -0.520234	 0.292057	 2
1463629335.653	 20	 0.424501	 0.441594	 -0.199627	 2.212904	 -1.071640	 -0.384860	 -0.077391	 0.798342	 -0.521705	 0.290664	 2
1463629335.663	 20	 0.479073	 1.275291	 -0.347946	 2.219285	 -1.077236	 -0.389973	 -0.074981	 0.798405	 -0.524672	 0.285738	 2
1463629335.673	 20	 -0.265438	 1.955844	 -0.523771	 2.243839	 -1.080639	 -0.382605	 -0.072259	 0.800942	 -0.525752	 0.277226	 2
1463629335.683	 20	 -0.794223	 1.931110	 -0.628104	 2.281041	 -1.080928	 -0.363095	 -0.070390	 0.805255	 -0.524527	 0.267359	 2
1463629335.693	 20	 -0.929457	 1.156621	 -0.707671	 2.316147	 -1.079897	 -0.338881	 -0.070756	 0.809233	 -0.522197	 0.259702	 2
1463629335.703	 20	 -0.665224	 0.303732	 -0.876707	 2.342036	 -1.080762	 -0.315263	 -0.073756	 0.811535	 -0.520413	 0.255226	 2
1463629335.713	 20	 -0.231335	 -0.388531	 -0.974319	 2.357416	 -1.085153	 -0.295352	 -0.078712	 0.811811	 -0.520117	 0.253469	 2
1463629335.723	 20	 0.296642	 -0.733109	 -0.903256	 2.361038	 -1.092817	 -0.283676	 -0.084004	 0.810160	 -0.521673	 0.253854	 2
1463629335.733	 20	 0.875021	 -0.842409	 -0.781418	 2.353973	 -1.103699	 -0.282306	 -0.088533	 0.806853	 -0.525286	 0.255390	 2
1463629335.743	 20	 1.488544	 -0.704308	 -0.703411	 2.337347	 -1.118171	 -0.292437	 -0.091712	 0.802039	 -0.531233	 0.257127	 2
1463629335.753	 20	 2.108195	 -0.322252	 -0.715908	 2.313178	 -1.136703	 -0.314428	 -0.093158	 0.795921	 -0.539757	 0.257865	 2
1463629335.763	 20	 2.653034	 0.090403	 -0.792481	 2.282634	 -1.159248	 -0.347877	 -0.092977	 0.788676	 -0.550747	 0.256950	 2
1463629335.773	 20	 2.951555	 0.314498	 -0.863336	 2.245309	 -1.184273	 -0.391374	 -0.091814	 0.780565	 -0.563327	 0.254854	 2
1463629335.783	 20	 2.793693	 -0.035700	 -0.964336	 2.202684	 -1.209167	 -0.438095	 -0.091568	 0.772078	 -0.575693	 0.253158	 2
1463629335.793	 20	 2.134148	 -0.592200	 -1.116176	 2.163151	 -1.231290	 -0.475375	 -0.094074	 0.764275	 -0.585749	 0.252849	 2
1463629335.803	 20	 1.403427	 -1.083579	 -1.263592	 2.134626	 -1.250221	 -0.495264	 -0.099634	 0.757810	 -0.592831	 0.253672	 2
1463629335.813	 20	 0.958311	 -1.317451	 -1.280011	 2.115136	 -1.266659	 -0.502322	 -0.106948	 0.752398	 -0.597766	 0.255215	 2
1463629335.823	 20	 0.790393	 -1.227120	 -1.211631	 2.100052	 -1.281426	 -0.504813	 -0.114329	 0.747639	 -0.601707	 0.256737	 2
1463629335.833	 20	 0.812562	 -0.917945	 -1.102371	 2.085621	 -1.295213	 -0.509394	 -0.120547	 0.743276	 -0.605547	 0.257530	 2
1463629335.843	 20	 0.952424	 -0.561110	 -0.973443	 2.067923	 -1.308407	 -0.521021	 -0.125070	 0.739059	 -0.609813	 0.257442	 2
1463629335.853	 20	 1.130040	 -0.308930	 -0.887382	 2.043647	 -1.321494	 -0.542369	 -0.128118	 0.734690	 -0.614757	 0.256692	 2
1463629335.863	 20	 1.249104	 -0.224869	 -0.834348	 2.011991	 -1.334470	 -0.572549	 -0.130370	 0.730064	 -0.620167	 0.255741	 2
1463629335.873	 20	 1.302108	 -0.319518	 -0.811178	 1.973046	 -1.347224	 -0.609618	 -0.132581	 0.725136	 -0.625727	 0.255081	 2
1463629335.883	 20	 1.294943	 -0.522289	 -0.761845	 1.926573	 -1.359218	 -0.652354	 -0.135204	 0.719926	 -0.631094	 0.255238	 2
1463629335.893	 20	 1.251531	 -0.718561	 -0.711071	 1.874069	 -1.370179	 -0.699193	 -0.138305	 0.714582	 -0.636092	 0.256185	 2
1463629335.903	 20	 1.214529	 -0.954908	 -0.610635	 1.814514	 -1.379635	 -0.750796	 -0.141861	 0.709084	 -0.640638	 0.258183	 2
1463629335.913	 20	 1.186262	 -1.161398	 -0.496143	 1.747606	 -1.387247	 -0.807544	 -0.145745	 0.703427	 -0.644727	 0.261296	 2
1463629335.923	 20	 1.177690	 -1.280594	 -0.362891	 1.674415	 -1.392848	 -0.869208	 -0.149647	 0.697682	 -0.648445	 0.265262	 2
1463629335.933	 20	 1.200348	 -1.379333	 -0.182828	 1.594901	 -1.395911	 -0.936183	 -0.153266	 0.691814	 -0.651868	 0.270132	 2
1463629335.943	 20	 1.229627	 -1.437625	 0.003949	 1.511446	 -1.396096	 -1.006474	 -0.156387	 0.685849	 -0.655028	 0.275850	 2
1463629335.953	 20	 1.261946	 -1.501493	 0.156543	 1.427173	 -1.393642	 -1.077021	 -0.159095	 0.679762	 -0.657972	 0.282286	 2
1463629335.963	 20	 1.284031	 -1.705666	 0.317513	 1.344307	 -1.388535	 -1.144452	 -0.161765	 0.673410	 -0.660571	 0.289823	 2
1463629335.973	 20	 1.282347	 -1.822774	 0.301517	 1.264597	 -1.382094	 -1.207221	 -0.164776	 0.666766	 -0.662944	 0.297956	 2
1463629335.983	 20	 1.140849	 -1.870959	 0.199987	 1.192144	 -1.375994	 -1.262080	 -0.168414	 0.660195	 -0.665003	 0.305858	 2
1463629335.993	 20	 0.781408	 -1.816830	 0.185503	 1.136753	 -1.370836	 -1.299752	 -0.172590	 0.654558	 -0.666050	 0.313280	 2
1463629336.003	 20	 0.338345	 -1.514632	 0.317932	 1.106949	 -1.366414	 -1.313814	 -0.176320	 0.650776	 -0.665671	 0.319818	 2
1463629336.013	 20	 0.014856	 -1.067343	 0.559379	 1.102109	 -1.361611	 -1.306658	 -0.178512	 0.649023	 -0.664097	 0.325387	 2
1463629336.023	 20	 -0.155746	 -0.594681	 0.841295	 1.115904	 -1.355275	 -1.285305	 -0.178565	 0.648948	 -0.661816	 0.330122	 2
1463629336.033	 20	 -0.220283	 -0.280632	 1.147456	 1.141411	 -1.346479	 -1.255629	 -0.176572	 0.650015	 -0.659050	 0.334598	 2
1463629336.043	 20	 -0.219078	 -0.201471	 1.357071	 1.170649	 -1.335355	 -1.223491	 -0.173349	 0.651547	 -0.655935	 0.339389	 2
1463629336.053	 20	 -0.140357	 -0.329747	 1.446848	 1.195895	 -1.322753	 -1.194533	 -0.169913	 0.652824	 -0.652705	 0.344857	 2
1463629336.063	 20	 -0.003941	 -0.641381	 1.502443	 1.212196	 -1.308996	 -1.171942	 -0.166930	 0.653235	 -0.649520	 0.351485	 2
1463629336.073	 20	 0.079045	 -0.970914	 1.561534	 1.220484	 -1.294290	 -1.154134	 -0.164649	 0.652722	 -0.646257	 0.359439	 2
1463629336.083	 20	 0.069078	 -1.134989	 1.665604	 1.225907	 -1.278616	 -1.136915	 -0.162740	 0.651785	 -0.642628	 0.368405	 2
1463629336.093	 20	 -0.104042	 -1.156178	 1.900316	 1.235411	 -1.261589	 -1.114852	 -0.160595	 0.651253	 -0.638134	 0.377972	 2
1463629336.103	 20	 -0.424060	 -0.717899	 2.220515	 1.257224	 -1.242338	 -1.082806	 -0.156990	 0.652382	 -0.632244	 0.387324	 2
1463629336.123	 21	 -1.207923	 0.652676	 2.872091	 1.347955	 -1.196472	 -0.990414	 -0.142107	 0.662874	 -0.616081	 0.401058	 2
1463629336.133	 21	 -1.563381	 1.063234	 3.168893	 1.407470	 -1.168859	 -0.936470	 -0.131814	 0.671431	 -0.605562	 0.406325	 2
1463629336.143	 21	 -1.894832	 1.478018	 3.324846	 1.471664	 -1.138633	 -0.881327	 -0.120277	 0.681768	 -0.593563	 0.410377	 2
1463629336.153	 21	 -2.103880	 1.851792	 3.448444	 1.536733	 -1.105852	 -0.828694	 -0.107578	 0.693392	 -0.580442	 0.413186	 2
1463629336.163	 21	 -2.100846	 2.006318	 3.491420	 1.597328	 -1.071114	 -0.782742	 -0.094091	 0.705338	 -0.566828	 0.415152	 2
1463629336.173	 21	 -1.925669	 1.930175	 3.622406	 1.648214	 -1.034326	 -0.746692	 -0.079995	 0.716495	 -0.553209	 0.417367	 2
1463629336.183	 21	 -1.625459	 1.791767	 3.871090	 1.687948	 -0.994829	 -0.721474	 -0.064858	 0.726377	 -0.539745	 0.420530	 2
1463629336.193	 21	 -1.254388	 1.715088	 4.153836	 1.717022	 -0.952524	 -0.707213	 -0.048171	 0.734784	 -0.526659	 0.424738	 2
1463629336.203	 21	 -0.874000	 1.658951	 4.339707	 1.737640	 -0.908622	 -0.702435	 -0.030023	 0.741722	 -0.514253	 0.429524	 2
1463629336.213	 21	 -0.585198	 1.546484	 4.640954	 1.751524	 -0.862595	 -0.704831	 -0.010448	 0.747228	 -0.502148	 0.435187	 2
1463629336.223	 21	 -0.417741	 1.308573	 4.901591	 1.760443	 -0.814142	 -0.711502	 0.010150	 0.751401	 -0.489825	 0.442002	 2
1463629336.233	 21	 -0.255956	 0.678137	 5.006221	 1.762373	 -0.764580	 -0.720820	 0.030337	 0.753515	 -0.477489	 0.450886	 2
1463629336.243	 21	 -0.155410	 0.167350	 4.865241	 1.758137	 -0.715941	 -0.731063	 0.049107	 0.753557	 -0.465562	 0.461511	 2
1463629336.253	 21	 -0.179589	 0.106212	 4.491866	 1.753516	 -0.670544	 -0.739936	 0.066244	 0.752857	 -0.454209	 0.471713	 2
1463629336.263	 21	 -0.273565	 0.185628	 4.111880	 1.751138	 -0.628654	 -0.746273	 0.081798	 0.752228	 -0.443150	 0.480709	 2
1463629336.273	 21	 -0.194204	 0.437247	 3.641398	 1.751763	 -0.591272	 -0.751858	 0.096239	 0.751965	 -0.433046	 0.487605	 2
1463629336.283	 21	 -0.119195	 0.354623	 3.278682	 1.752652	 -0.558011	 -0.757531	 0.109387	 0.751495	 -0.424112	 0.493374	 2
1463629336.293	 21	 -0.130580	 0.137361	 3.088120	 1.751874	 -0.527044	 -0.762701	 0.121214	 0.750422	 -0.415783	 0.499299	 2
1463629336.303	 21	 -0.162485	 -0.003476	 3.014615	 1.749924	 -0.496945	 -0.767154	 0.132227	 0.748883	 -0.407565	 0.505550	 2
1463629336.313	 21	 -0.140592	 -0.017133	 2.900261	 1.747754	 -0.467821	 -0.771354	 0.142769	 0.747113	 -0.399564	 0.511652	 2
1463629336.323	 21	 -0.020554	 0.045837	 2.685584	 1.745981	 -0.440668	 -0.776070	 0.152929	 0.745273	 -0.392258	 0.517024	 2
1463629336.333	 21	 0.187941	 -0.019088	 2.324002	 1.743609	 -0.417029	 -0.782150	 0.162330	 0.743140	 -0.386456	 0.521578	 2
1463629336.343	 21	 0.303820	 -0.385624	 1.841055	 1.738181	 -0.398127	 -0.788843	 0.169839	 0.740231	 -0.382593	 0.526152	 2
1463629336.363	 22	 -0.073267	 -1.637454	 0.814887	 1.713046	 -0.375090	 -0.795813	 0.175047	 0.731652	 -0.379249	 0.538714	 2
1463629336.373	 22	 -0.536049	 -2.334756	 0.393583	 1.692796	 -0.369653	 -0.792124	 0.171637	 0.726140	 -0.378277	 0.547876	 2
1463629336.383	 22	 -1.035804	 -3.208248	 0.008263	 1.666440	 -0.367656	 -0.782508	 0.163841	 0.719523	 -0.377197	 0.559611	 2
1463629336.393	 22	 -1.377510	 -4.077788	 -0.354949	 1.632849	 -0.369243	 -0.768322	 0.151909	 0.711225	 -0.376321	 0.573991	 2
1463629336.403	 22	 -1.353432	 -4.631629	 -0.889996	 1.593184	 -0.376032	 -0.753147	 0.136768	 0.701217	 -0.376844	 0.589558	 2
1463629336.413	 22	 -1.124140	 -5.145424	 -1.393419	 1.548042	 -0.388966	 -0.740544	 0.119349	 0.689369	 -0.379832	 0.605189	 2
1463629336.423	 22	 -1.444142	 -6.425626	 -1.176604	 1.492668	 -0.402403	 -0.726844	 0.099340	 0.673962	 -0.382543	 0.624154	 2
1463629336.433	 22	 -1.868851	 -7.528936	 -0.663080	 1.427045	 -0.412215	 -0.708639	 0.077157	 0.654537	 -0.382389	 0.647616	 2
1463629336.443	 22	 -2.151278	 -8.227273	 -0.274919	 1.355266	 -0.419527	 -0.686835	 0.053721	 0.632024	 -0.379491	 0.673533	 2
1463629336.453	 22	 -2.256888	 -8.713899	 0.045464	 1.278888	 -0.425471	 -0.663163	 0.029694	 0.606677	 -0.374464	 0.700598	 2
1463629336.463	 22	 -2.279253	 -9.003736	 0.402124	 1.199762	 -0.429977	 -0.638414	 0.005890	 0.578945	 -0.367413	 0.727870	 2
1463629336.473	 22	 -2.343906	 -9.044037	 0.831814	 1.120228	 -0.432621	 -0.611843	 -0.017110	 0.549572	 -0.357939	 0.754691	 2
1463629336.483	 22	 -3.082288	 -6.656378	 1.246266	 1.060563	 -0.435818	 -0.578083	 -0.038008	 0.526489	 -0.344881	 0.776158	 2
1463629336.493	 22	 -3.475969	 -4.840729	 1.531964	 1.026091	 -0.440315	 -0.537255	 -0.056317	 0.512306	 -0.329002	 0.791283	 2
1463629336.503	 22	 -3.384722	 -4.654599	 1.715147	 0.997698	 -0.444349	 -0.495314	 -0.073201	 0.499851	 -0.312171	 0.804574	 2
1463629336.513	 22	 -2.964824	 -4.413612	 1.822441	 0.969518	 -0.446415	 -0.455720	 -0.088139	 0.486931	 -0.295395	 0.817234	 2
1463629336.523	 22	 -2.376259	 -3.583900	 1.780275	 0.946252	 -0.446274	 -0.421421	 -0.099681	 0.475745	 -0.280168	 0.827790	 2
1463629336.533	 22	 -1.893514	 -2.618328	 1.803175	 0.930430	 -0.443717	 -0.391770	 -0.107721	 0.467527	 -0.266513	 0.835934	 2
1463629336.543	 22	 -1.443136	 -1.850492	 1.972658	 0.921544	 -0.437745	 -0.365222	 -0.112432	 0.462133	 -0.253717	 0.842270	 2
1463629336.553	 22	 -0.776330	 -1.423040	 2.225547	 0.916023	 -0.426427	 -0.342303	 -0.113416	 0.458164	 -0.241500	 0.847880	 2
1463629336.563	 22	 -0.026352	 -1.181374	 2.413103	 0.910888	 -0.408902	 -0.324631	 -0.110335	 0.454505	 -0.230239	 0.853371	 2
1463629336.573	 22	 0.617031	 -0.868525	 2.546829	 0.906214	 -0.386252	 -0.311845	 -0.103750	 0.451208	 -0.220025	 0.858625	 2
1463629336.583	 22	 1.116036	 -0.443154	 2.738280	 0.904197	 -0.358941	 -0.302485	 -0.093979	 0.449124	 -0.210445	 0.863231	 2
1463629336.593	 22	 1.472234	 -0.314212	 3.062502	 0.903592	 -0.326967	 -0.294575	 -0.081624	 0.447586	 -0.200558	 0.867630	 2
1463629336.603	 22	 1.723963	 -0.192139	 3.423805	 0.903606	 -0.290481	 -0.286606	 -0.067180	 0.446159	 -0.189670	 0.872040	 2
1463629336.613	 22	 1.920667	 0.175588	 3.610957	 0.906390	 -0.250730	 -0.278984	 -0.050923	 0.445815	 -0.178238	 0.875721	 2
1463629336.623	 22	 1.903867	 0.766310	 3.515353	 0.914022	 -0.210815	 -0.272158	 -0.034012	 0.447570	 -0.167059	 0.877847	 2
1463629336.633	 22	 1.648576	 1.300029	 3.089843	 0.926969	 -0.174811	 -0.266251	 -0.018280	 0.451785	 -0.156957	 0.878021	 2
1463629336.643	 22	 1.382226	 1.338860	 2.617193	 0.941389	 -0.144357	 -0.261652	 -0.004717	 0.456844	 -0.148389	 0.877070	 2
1463629336.653	 22	 1.101718	 1.041889	 2.472994	 0.953231	 -0.117302	 -0.256643	 0.006952	 0.460885	 -0.140183	 0.876290	 2
1463629336.663	 22	 0.790895	 0.651249	 2.599957	 0.961639	 -0.091417	 -0.248959	 0.017165	 0.463478	 -0.130935	 0.876213	 2
1463629336.683	 23	 0.579542	 -1.057590	 3.006872	 0.956625	 -0.037615	 -0.226438	 0.035403	 0.459140	 -0.108881	 0.880955	 2
1463629336.693	 23	 0.650425	 -2.029593	 3.200770	 0.938970	 -0.008384	 -0.213143	 0.044407	 0.450254	 -0.096746	 0.886532	 2
1463629336.703	 23	 0.849387	 -2.746921	 3.365016	 0.913002	 0.023029	 -0.199427	 0.054163	 0.437562	 -0.084299	 0.893588	 2
1463629336.713	 23	 1.135906	 -3.299915	 3.345653	 0.880840	 0.055926	 -0.186763	 0.064918	 0.421938	 -0.072447	 0.901391	 2
1463629336.723	 23	 1.362028	 -3.679012	 3.228251	 0.843949	 0.089200	 -0.175437	 0.076363	 0.404019	 -0.061652	 0.909471	 2
1463629336.733	 23	 1.653682	 -3.655920	 3.010643	 0.806148	 0.122465	 -0.166126	 0.088579	 0.385493	 -0.052255	 0.916962	 2
1463629336.743	 23	 1.939195	 -3.315101	 2.750216	 0.771044	 0.155631	 -0.159500	 0.101669	 0.367975	 -0.044455	 0.923191	 2
1463629336.753	 23	 2.122314	 -2.741014	 2.494984	 0.741346	 0.188330	 -0.155125	 0.115321	 0.352763	 -0.037944	 0.927804	 2
1463629336.763	 23	 2.210824	 -2.117474	 2.274074	 0.718110	 0.220213	 -0.152328	 0.129154	 0.340421	 -0.032306	 0.930800	 2
1463629336.773	 23	 2.189857	 -1.639215	 2.068752	 0.700214	 0.250714	 -0.150523	 0.142700	 0.330513	 -0.027311	 0.932551	 2
1463629336.783	 23	 2.061595	 -1.360989	 1.956289	 0.685576	 0.279461	 -0.148662	 0.155529	 0.322178	 -0.022577	 0.933543	 2
1463629336.793	 23	 1.917663	 -1.328687	 1.952514	 0.671451	 0.306887	 -0.145622	 0.167612	 0.314223	 -0.017657	 0.934269	 2
1463629336.803	 23	 1.813844	 -1.459692	 2.032131	 0.655783	 0.333730	 -0.140877	 0.179204	 0.305720	 -0.012349	 0.935023	 2
1463629336.813	 23	 1.746792	 -1.718403	 2.116635	 0.637089	 0.360438	 -0.134364	 0.190528	 0.295990	 -0.006712	 0.935972	 2
1463629336.823	 23	 1.676935	 -2.048976	 2.117364	 0.614623	 0.386626	 -0.126568	 0.201519	 0.284688	 -0.001159	 0.937199	 2
1463629336.833	 23	 1.574404	 -2.430209	 2.012396	 0.588026	 0.411397	 -0.118117	 0.211890	 0.271653	 0.003788	 0.938772	 2
1463629336.843	 23	 1.467115	 -2.829190	 1.804991	 0.557324	 0.434031	 -0.109822	 0.221441	 0.256851	 0.007609	 0.940709	 2
1463629336.853	 23	 1.399274	 -3.173520	 1.523148	 0.523357	 0.454359	 -0.102721	 0.230216	 0.240554	 0.009874	 0.942888	 2
1463629336.863	 23	 1.407827	 -3.387237	 1.242921	 0.487594	 0.472958	 -0.097489	 0.238517	 0.223314	 0.010518	 0.945055	 2
1463629336.873	 23	 1.492051	 -3.439130	 1.014697	 0.451749	 0.490871	 -0.094244	 0.246777	 0.205851	 0.009824	 0.946905	 2
1463629336.883	 23	 1.609081	 -3.362091	 0.832150	 0.417183	 0.508888	 -0.092767	 0.255279	 0.188781	 0.008167	 0.948223	 2
1463629336.893	 23	 1.721309	 -3.220799	 0.707793	 0.384521	 0.527350	 -0.092604	 0.264092	 0.172435	 0.005885	 0.948940	 2
1463629336.903	 23	 1.809422	 -3.052294	 0.659569	 0.353690	 0.546433	 -0.092851	 0.273197	 0.156890	 0.003428	 0.949072	 2
1463629336.913	 23	 1.883901	 -2.854842	 0.637311	 0.324731	 0.566161	 -0.093018	 0.282559	 0.142236	 0.001049	 0.948645	 2
1463629336.923	 23	 1.929558	 -2.642560	 0.595193	 0.297842	 0.586315	 -0.093131	 0.292080	 0.128584	 -0.001240	 0.947710	 2
1463629336.933	 23	 1.911091	 -2.428151	 0.527008	 0.273164	 0.606269	 -0.093343	 0.301474	 0.116011	 -0.003512	 0.946384	 2
1463629336.943	 23	 1.823096	 -2.249684	 0.461226	 0.250389	 0.625350	 -0.093562	 0.310420	 0.104411	 -0.005780	 0.944830	 2
1463629336.953	 23	 1.680431	 -2.127390	 0.400726	 0.228870	 0.643034	 -0.093617	 0.318665	 0.093526	 -0.008060	 0.943208	 2
1463629336.963	 23	 1.507681	 -2.041233	 0.331626	 0.208238	 0.658935	 -0.093556	 0.326033	 0.083186	 -0.010417	 0.941634	 2
1463629336.973	 23	 1.333771	 -1.964731	 0.250723	 0.188420	 0.672968	 -0.093617	 0.332501	 0.073318	 -0.012946	 0.940160	 2
1463629336.983	 23	 1.171763	 -1.845786	 0.160519	 0.169928	 0.685204	 -0.094080	 0.338116	 0.064102	 -0.015653	 0.938788	 2
1463629336.993	 23	 1.054793	 -1.680182	 0.069291	 0.153364	 0.696013	 -0.095156	 0.343063	 0.055762	 -0.018482	 0.937474	 2
1463629337.003	 23	 0.993569	 -1.464721	 -0.017695	 0.139366	 0.705967	 -0.097021	 0.347622	 0.048534	 -0.021350	 0.936134	 2
1463629337.013	 23	 0.980471	 -1.228123	 -0.103837	 0.128303	 0.715582	 -0.099826	 0.352046	 0.042536	 -0.024214	 0.934702	 2
1463629337.023	 23	 1.004925	 -0.976506	 -0.157129	 0.120303	 0.725293	 -0.103409	 0.356540	 0.037830	 -0.026935	 0.933125	 2
1463629337.043	 24	 1.148109	 -0.745830	 -0.116796	 0.109045	 0.746581	 -0.110562	 0.366387	 0.030545	 -0.031528	 0.929427	 2
1463629337.053	 24	 1.196530	 -0.700960	 -0.069906	 0.103856	 0.758314	 -0.113404	 0.371777	 0.027193	 -0.033395	 0.927323	 2
1463629337.063	 24	 1.173474	 -0.655837	 -0.017063	 0.098638	 0.770049	 -0.115488	 0.377137	 0.023965	 -0.034937	 0.925188	 2
1463629337.073	 24	 1.110874	 -0.640233	 0.056099	 0.092900	 0.781285	 -0.116438	 0.382226	 0.020730	 -0.036093	 0.923131	 2
1463629337.083	 24	 1.065866	 -0.693166	 0.071985	 0.086387	 0.792075	 -0.116795	 0.387074	 0.017276	 -0.037168	 0.921137	 2
1463629337.093	 24	 0.998477	 -0.712234	 0.055342	 0.079498	 0.802276	 -0.117141	 0.391630	 0.013682	 -0.038358	 0.919221	 2
1463629337.103	 24	 0.883423	 -0.638774	 0.018660	 0.073300	 0.811419	 -0.117712	 0.395703	 0.010409	 -0.039574	 0.917466	 2
1463629337.113	 24	 0.741671	 -0.534689	 -0.059070	 0.068679	 0.819152	 -0.119042	 0.399154	 0.007763	 -0.040886	 0.915939	 2
1463629337.123	 24	 0.586884	 -0.429927	 -0.195296	 0.066249	 0.825305	 -0.121981	 0.401925	 0.005851	 -0.042549	 0.914665	 2
1463629337.133	 24	 0.423174	 -0.409145	 -0.329029	 0.065813	 0.829741	 -0.126841	 0.403952	 0.004517	 -0.044736	 0.913675	 2
1463629337.143	 24	 0.246546	 -0.440198	 -0.429028	 0.066101	 0.832367	 -0.133109	 0.405167	 0.003285	 -0.047466	 0.913004	 2
1463629337.153	 24	 0.076460	 -0.484727	 -0.478052	 0.066657	 0.833249	 -0.140217	 0.405592	 0.002065	 -0.050572	 0.912652	 2
1463629337.163	 24	 -0.086031	 -0.564902	 -0.452871	 0.066256	 0.832479	 -0.147016	 0.405235	 0.000534	 -0.053778	 0.912629	 2
1463629337.173	 24	 -0.245098	 -0.627814	 -0.392389	 0.064417	 0.830165	 -0.152867	 0.404130	 -0.001395	 -0.056890	 0.912930	 2
1463629337.183	 24	 -0.412201	 -0.593796	 -0.318170	 0.068323	 0.825424	 -0.162350	 0.402078	 -0.001320	 -0.060580	 0.913598	 2
1463629337.193	 24	 -0.576723	 -0.471487	 -0.238864	 0.065672	 0.819899	 -0.165618	 0.399474	 -0.002942	 -0.062780	 0.914588	 2
1463629337.203	 24	 -0.724031	 -0.311014	 -0.170011	 0.063661	 0.812909	 -0.167681	 0.396215	 -0.003962	 -0.064343	 0.915892	 2
1463629337.213	 24	 -0.825665	 -0.173208	 -0.128411	 0.062510	 0.804796	 -0.168919	 0.392465	 -0.004370	 -0.065388	 0.917429	 2
1463629337.223	 24	 -0.822167	 -0.107277	 -0.131072	 0.069814	 0.791875	 -0.175509	 0.386777	 -0.001705	 -0.067404	 0.919705	 2
1463629337.233	 24	 -0.682503	 -0.105824	 -0.167445	 0.069848	 0.784523	 -0.177002	 0.383402	 -0.001629	 -0.068327	 0.921049	 2
1463629337.243	 24	 -0.422507	 -0.139986	 -0.226512	 0.070292	 0.779450	 -0.179471	 0.381084	 -0.001654	 -0.069547	 0.921919	 2
1463629337.253	 24	 -0.108068	 -0.166897	 -0.290249	 0.071239	 0.777396	 -0.183139	 0.380170	 -0.001815	 -0.071127	 0.922176	 2
1463629337.263	 24	 0.159906	 -0.099684	 -0.324326	 0.142675	 0.743449	 -0.235643	 0.367593	 0.023361	 -0.083532	 0.925933	 2
1463629337.273	 24	 0.289999	 0.079897	 -0.295012	 0.146146	 0.745646	 -0.240302	 0.368805	 0.023960	 -0.084929	 0.925309	 2
1463629337.283	 24	 0.273440	 0.327463	 -0.190251	 0.151153	 0.748163	 -0.243843	 0.370218	 0.025446	 -0.085500	 0.924652	 2
1463629337.293	 24	 0.116361	 0.619301	 -0.050816	 0.157640	 0.749645	 -0.245352	 0.371194	 0.028060	 -0.084909	 0.924239	 2
1463629337.303	 24	 -0.123177	 0.849700	 0.089831	 0.165036	 0.749127	 -0.244463	 0.371254	 0.031680	 -0.083156	 0.924257	 2
1463629337.313	 24	 -0.339000	 0.918241	 0.213845	 0.172013	 0.746596	 -0.241306	 0.370326	 0.035671	 -0.080558	 0.924714	 2
1463629337.323	 24	 -0.492657	 0.841740	 0.309323	 0.177340	 0.742587	 -0.236375	 0.368605	 0.039331	 -0.077541	 0.925511	 2
1463629337.333	 24	 -0.575357	 0.662814	 0.389377	 0.180245	 0.737739	 -0.230102	 0.366361	 0.042168	 -0.074405	 0.926534	 2
1463629337.343	 24	 -0.582789	 0.376253	 0.470970	 0.179838	 0.732794	 -0.222723	 0.363914	 0.043666	 -0.071365	 0.927668	 2
1463629337.353	 24	 -0.554094	 0.053450	 0.556175	 0.175532	 0.728193	 -0.214307	 0.361460	 0.043499	 -0.068518	 0.928849	 2
1463629337.363	 24	 -0.510168	 -0.192945	 0.623840	 0.168064	 0.724085	 -0.205125	 0.359117	 0.041945	 -0.065836	 0.930022	 2
1463629337.383	 25	 -0.358703	 -0.316898	 0.752456	 0.148300	 0.717949	 -0.184645	 0.355251	 0.036766	 -0.060162	 0.932108	 2
1463629337.393	 25	 -0.261861	 -0.186031	 0.797593	 0.138926	 0.716236	 -0.173793	 0.353989	 0.034412	 -0.056849	 0.932886	 2
1463629337.403	 25	 -0.161527	 -0.005088	 0.855954	 0.130945	 0.715525	 -0.162414	 0.353249	 0.032736	 -0.052984	 0.933454	 2
1463629337.413	 25	 -0.073146	 0.147033	 0.894967	 0.124317	 0.715721	 -0.150588	 0.352981	 0.031721	 -0.048625	 0.933828	 2
1463629337.423	 25	 -0.005327	 0.256512	 0.912448	 0.118767	 0.716610	 -0.138592	 0.353077	 0.031207	 -0.043966	 0.934039	 2
1463629337.443	 26	 0.149668	 0.332448	 0.886227	 0.109514	 0.720408	 -0.115084	 0.354300	 0.030893	 -0.034481	 0.933985	 2
1463629337.453	 26	 0.233458	 0.563081	 0.750160	 0.107863	 0.723426	 -0.104904	 0.355520	 0.031822	 -0.029915	 0.933648	 2
1463629337.463	 26	 0.265113	 0.589752	 0.627570	 0.108360	 0.726702	 -0.096616	 0.356917	 0.033422	 -0.025846	 0.933180	 2
1463629337.473	 26	 0.265311	 0.447926	 0.577223	 0.108285	 0.729993	 -0.089183	 0.358322	 0.034613	 -0.022282	 0.932690	 2
1463629337.483	 26	 0.261251	 0.277627	 0.558679	 0.106738	 0.733211	 -0.082059	 0.359680	 0.035075	 -0.019133	 0.932220	 2
