% Gyrometer data recorded with 'snsrlog'
% 
% 
% Label description:
% 	 0: Default Label
% 	 1: still_drop
% 	 2: walk_drop
% 	 3: other
% 	 4: dtw_same
% 	 5: dtw_diff
% 	 6: delete
% 	 7: steal
% 
% Column description:
% 	 1: Seconds.milliseconds since 1970
% 	 2: Number of skipped measurements
% 	 3: Gyro X
% 	 4: Gyro Y
% 	 5: Gyro Z
% 	 6: Roll of the device
% 	 7: Pitch of the device
% 	 8: Yaw of the device
% 	 9: Quaternion X
% 	 10: Quaternion Y
% 	 11: Quaternion Z
% 	 12: Quaternion W
% 	 13: Label used for the current sample
% 
% 
1463628814.725	 0	 -0.129145	 1.290125	 1.343701	 0.138600	 0.355400	 0.153540	 0.170596	 0.081478	 0.087510	 0.978060	 2
1463628814.735	 0	 -0.144432	 1.065277	 0.985777	 0.145848	 0.355532	 0.165105	 0.169847	 0.086010	 0.093784	 0.977220	 2
1463628814.745	 0	 -0.159989	 0.769288	 0.644246	 0.151510	 0.355077	 0.173034	 0.169005	 0.089431	 0.098123	 0.976633	 2
1463628814.755	 0	 -0.207429	 0.505266	 0.297961	 0.155595	 0.353782	 0.177381	 0.167972	 0.091745	 0.100551	 0.976349	 2
1463628814.765	 0	 -0.340094	 0.232273	 0.000294	 0.158209	 0.350903	 0.178627	 0.166373	 0.093019	 0.101289	 0.976426	 2
1463628814.775	 0	 -0.533253	 -0.040990	 -0.212654	 0.158756	 0.345888	 0.177696	 0.163934	 0.093025	 0.100724	 0.976897	 2
1463628814.785	 0	 -0.784346	 -0.228344	 -0.335839	 0.157582	 0.338314	 0.175625	 0.160378	 0.092006	 0.099380	 0.977721	 2
1463628814.795	 0	 -1.029134	 -0.275817	 -0.381043	 0.155599	 0.328134	 0.173337	 0.155589	 0.090485	 0.097786	 0.978796	 2
1463628814.805	 0	 -1.171915	 -0.217003	 -0.395239	 0.153944	 0.316226	 0.171108	 0.149926	 0.089073	 0.096197	 0.979966	 2
1463628814.815	 0	 -1.202099	 -0.052080	 -0.398771	 0.153596	 0.303741	 0.168902	 0.143907	 0.088293	 0.094700	 0.981085	 2
1463628814.825	 0	 -1.118492	 0.239211	 -0.383999	 0.155831	 0.291822	 0.166701	 0.138038	 0.088810	 0.093397	 0.982006	 2
1463628814.835	 0	 -0.948006	 0.546862	 -0.278176	 0.161076	 0.281456	 0.165173	 0.132762	 0.090917	 0.092658	 0.982610	 2
1463628814.845	 0	 -0.674469	 0.745810	 -0.160407	 0.168239	 0.273807	 0.164500	 0.128696	 0.094126	 0.092529	 0.982861	 2
1463628814.855	 0	 -0.390560	 0.914658	 -0.082441	 0.177027	 0.269084	 0.164307	 0.125972	 0.098268	 0.092819	 0.982781	 2
1463628814.875	 1	 0.097592	 1.397728	 -0.005461	 0.200781	 0.267616	 0.163969	 0.124157	 0.109862	 0.094077	 0.981664	 2
1463628814.885	 1	 0.271914	 1.907928	 0.019084	 0.218481	 0.269909	 0.163602	 0.124469	 0.118599	 0.095104	 0.980509	 2
1463628814.895	 1	 0.397398	 2.696943	 0.044517	 0.243462	 0.273584	 0.163110	 0.125107	 0.130923	 0.096611	 0.978710	 2
1463628814.905	 1	 0.505344	 3.580957	 0.109354	 0.277191	 0.278435	 0.162735	 0.125863	 0.147534	 0.098827	 0.976025	 2
1463628814.915	 1	 0.494659	 3.999255	 0.146378	 0.316583	 0.283767	 0.162625	 0.126504	 0.166874	 0.101618	 0.972535	 2
1463628814.935	 2	 0.447756	 4.268213	 0.108790	 0.400776	 0.292691	 0.161971	 0.126507	 0.207837	 0.107362	 0.963988	 2
1463628814.945	 2	 0.599165	 4.306551	 0.030028	 0.444263	 0.297986	 0.160106	 0.126909	 0.228749	 0.109737	 0.958919	 2
1463628814.965	 3	 0.978745	 4.544209	 -0.337687	 0.536384	 0.311114	 0.148469	 0.129564	 0.272148	 0.111593	 0.946940	 2
1463628814.975	 3	 1.092435	 4.695874	 -0.644206	 0.586387	 0.317150	 0.137480	 0.131214	 0.295094	 0.110460	 0.939947	 2
1463628814.985	 3	 1.086193	 4.803916	 -1.001242	 0.638735	 0.320885	 0.122996	 0.132342	 0.318670	 0.107665	 0.932386	 2
1463628814.995	 3	 0.887775	 4.867020	 -1.326116	 0.692478	 0.320630	 0.106483	 0.132115	 0.342527	 0.103512	 0.924395	 2
1463628815.005	 3	 0.513934	 4.984560	 -1.548775	 0.747012	 0.315367	 0.090336	 0.129784	 0.366589	 0.098757	 0.915978	 2
1463628815.015	 3	 0.090829	 5.150265	 -1.603232	 0.802177	 0.305586	 0.076932	 0.125177	 0.390975	 0.094370	 0.906953	 2
1463628815.025	 3	 -0.231226	 5.415077	 -1.590503	 0.858514	 0.292741	 0.066919	 0.118768	 0.415951	 0.090760	 0.897018	 2
1463628815.035	 3	 -0.389163	 5.843328	 -1.560630	 0.917856	 0.278296	 0.059504	 0.111242	 0.442210	 0.087827	 0.885642	 2
1463628815.045	 3	 -0.379029	 6.338474	 -1.478311	 0.981562	 0.263816	 0.053727	 0.103410	 0.470168	 0.085452	 0.872323	 2
1463628815.055	 3	 -0.241270	 6.742825	 -1.397947	 1.049420	 0.250287	 0.048487	 0.095945	 0.499517	 0.083326	 0.856933	 2
1463628815.065	 3	 -0.048651	 6.826527	 -1.364741	 1.119159	 0.237741	 0.042775	 0.089208	 0.529113	 0.080933	 0.839959	 2
1463628815.075	 3	 0.111581	 6.566226	 -1.554000	 1.186676	 0.224361	 0.035942	 0.082812	 0.557195	 0.077387	 0.822610	 2
1463628815.085	 3	 0.349196	 6.501771	 -1.839096	 1.254046	 0.208758	 0.026946	 0.076501	 0.584627	 0.071977	 0.804474	 2
1463628815.095	 3	 0.498401	 6.181805	 -2.046933	 1.318806	 0.190858	 0.016641	 0.070232	 0.610463	 0.064920	 0.786249	 2
1463628815.105	 3	 0.510994	 5.808435	 -2.194395	 1.379522	 0.170951	 0.006713	 0.063727	 0.634247	 0.056906	 0.768395	 2
1463628815.115	 3	 0.440661	 5.607756	 -2.468485	 1.437334	 0.148142	 -0.001770	 0.056282	 0.656527	 0.048058	 0.750663	 2
1463628815.125	 3	 0.409153	 5.593296	 -2.861612	 1.494123	 0.121093	 -0.008816	 0.047384	 0.678039	 0.037887	 0.732518	 2
1463628815.135	 3	 0.458267	 5.808484	 -3.381195	 1.552160	 0.089088	 -0.014787	 0.036952	 0.699538	 0.025920	 0.713168	 2
1463628815.145	 3	 0.642841	 6.122270	 -4.036392	 1.613120	 0.050181	 -0.020186	 0.024644	 0.721472	 0.011128	 0.691916	 2
1463628815.155	 3	 0.968417	 6.000557	 -4.408047	 1.673925	 0.006306	 -0.025793	 0.011688	 0.742520	 -0.006296	 0.669693	 2
1463628815.165	 3	 1.338166	 5.473667	 -4.460931	 1.729943	 -0.039612	 -0.032269	 -0.000568	 0.761036	 -0.025534	 0.648207	 2
1463628815.175	 3	 1.739420	 5.036100	 -4.210582	 1.780763	 -0.084794	 -0.040504	 -0.010933	 0.776994	 -0.045668	 0.627754	 2
1463628815.185	 3	 2.091597	 4.690269	 -3.796956	 1.827389	 -0.127429	 -0.051095	 -0.018695	 0.790895	 -0.065968	 0.608098	 2
1463628815.195	 3	 2.243948	 4.299199	 -3.395866	 1.869589	 -0.167081	 -0.063017	 -0.024284	 0.802835	 -0.085742	 0.589504	 2
1463628815.205	 3	 2.101956	 4.091772	 -3.163158	 1.908947	 -0.204304	 -0.073616	 -0.029033	 0.813375	 -0.104317	 0.571573	 2
1463628815.215	 3	 1.741683	 3.874444	 -3.063993	 1.946883	 -0.239621	 -0.080256	 -0.034241	 0.822935	 -0.121149	 0.554011	 2
1463628815.225	 3	 1.260780	 3.526811	 -3.088619	 1.982900	 -0.273295	 -0.081279	 -0.040835	 0.831366	 -0.135936	 0.537294	 2
1463628815.235	 3	 0.765653	 3.007926	 -3.267119	 2.015926	 -0.306215	 -0.075740	 -0.049672	 0.838335	 -0.148858	 0.522081	 2
1463628815.245	 3	 0.331282	 2.301201	 -3.509710	 2.044703	 -0.339023	 -0.063726	 -0.061114	 0.843481	 -0.160257	 0.509041	 2
1463628815.255	 3	 -0.066563	 1.384083	 -3.709815	 2.067141	 -0.371587	 -0.045780	 -0.075185	 0.846288	 -0.170174	 0.499183	 2
1463628815.265	 3	 -0.460694	 0.463666	 -3.776762	 2.082759	 -0.402820	 -0.022677	 -0.091437	 0.846746	 -0.178264	 0.492832	 2
1463628815.275	 3	 -0.801528	 -0.332757	 -3.737509	 2.092323	 -0.431852	 0.004522	 -0.109229	 0.845164	 -0.184330	 0.489684	 2
1463628815.285	 3	 -0.807209	 -1.123725	 -3.690466	 2.095499	 -0.459745	 0.032789	 -0.127631	 0.841534	 -0.189389	 0.489553	 2
1463628815.295	 3	 -0.791642	 -1.914926	 -3.667057	 2.091103	 -0.487593	 0.061222	 -0.146679	 0.835518	 -0.193859	 0.492761	 2
1463628815.305	 3	 -0.730753	 -2.403938	 -3.608191	 2.081397	 -0.515487	 0.088939	 -0.165841	 0.827704	 -0.197964	 0.498209	 2
1463628815.315	 3	 -0.827877	 -2.524942	 -3.466726	 2.070311	 -0.542327	 0.116684	 -0.184788	 0.819138	 -0.201273	 0.504337	 2
1463628815.325	 3	 -0.942616	 -2.574286	 -3.277546	 2.059465	 -0.567238	 0.144726	 -0.203247	 0.810343	 -0.203483	 0.510519	 2
1463628815.335	 3	 -0.987614	 -2.518759	 -3.118905	 2.049307	 -0.590625	 0.172618	 -0.221075	 0.801469	 -0.204942	 0.516500	 2
1463628815.345	 3	 -0.950959	 -2.336990	 -2.972589	 2.040756	 -0.612990	 0.199701	 -0.238029	 0.792807	 -0.206166	 0.521819	 2
1463628815.355	 3	 -0.835921	 -2.084983	 -2.789000	 2.033995	 -0.634433	 0.224972	 -0.253719	 0.784576	 -0.207536	 0.526304	 2
1463628815.365	 3	 -0.676632	 -1.765772	 -2.560409	 2.029098	 -0.654705	 0.247601	 -0.267772	 0.777026	 -0.209235	 0.529857	 2
1463628815.375	 3	 -0.477620	 -1.438862	 -2.280936	 2.025763	 -0.673492	 0.266808	 -0.279876	 0.770331	 -0.211361	 0.532528	 2
1463628815.385	 3	 -0.238393	 -1.207588	 -1.972861	 2.022675	 -0.690611	 0.281855	 -0.289882	 0.764374	 -0.213889	 0.534745	 2
1463628815.395	 3	 0.007625	 -1.113595	 -1.672518	 2.018168	 -0.706101	 0.292387	 -0.297886	 0.758844	 -0.216707	 0.537082	 2
1463628815.405	 3	 0.243391	 -1.129363	 -1.405080	 2.010956	 -0.720169	 0.298501	 -0.304162	 0.753411	 -0.219680	 0.539999	 2
1463628815.415	 3	 0.413772	 -1.184477	 -1.163017	 2.000836	 -0.732834	 0.300830	 -0.309019	 0.747962	 -0.222613	 0.543603	 2
1463628815.425	 3	 0.488659	 -1.328824	 -0.944399	 1.987771	 -0.743877	 0.300508	 -0.312875	 0.742373	 -0.225107	 0.548013	 2
1463628815.435	 3	 0.485479	 -1.470079	 -0.770901	 1.972089	 -0.753215	 0.298778	 -0.316152	 0.736561	 -0.226850	 0.553232	 2
1463628815.445	 3	 0.439077	 -1.695484	 -0.631914	 1.954237	 -0.761130	 0.296526	 -0.319195	 0.730448	 -0.227784	 0.559173	 2
1463628815.455	 3	 0.370941	 -1.993238	 -0.505134	 1.933496	 -0.767536	 0.294205	 -0.322225	 0.723763	 -0.227639	 0.566144	 2
1463628815.465	 3	 0.236361	 -2.360904	 -0.365637	 1.909660	 -0.772264	 0.292549	 -0.325468	 0.716332	 -0.226102	 0.574297	 2
1463628815.475	 3	 0.019900	 -2.684566	 -0.204768	 1.883562	 -0.774817	 0.292612	 -0.329044	 0.708280	 -0.222805	 0.583462	 2
1463628815.495	 4	 -0.501813	 -3.184397	 -0.113221	 1.830208	 -0.775522	 0.301602	 -0.338160	 0.690818	 -0.211507	 0.603061	 2
1463628815.505	 4	 -0.811918	 -3.507129	 -0.155089	 1.803216	 -0.775129	 0.312035	 -0.344438	 0.680904	 -0.203579	 0.613424	 2
1463628815.515	 4	 -1.111915	 -3.716147	 -0.205579	 1.776840	 -0.774769	 0.326819	 -0.351961	 0.670240	 -0.194279	 0.623825	 2
1463628815.525	 4	 -1.364252	 -3.789049	 -0.240296	 1.751957	 -0.774548	 0.345291	 -0.360394	 0.659169	 -0.183957	 0.633855	 2
1463628815.535	 4	 -1.598269	 -3.619435	 -0.277482	 1.730526	 -0.774608	 0.367259	 -0.369504	 0.648308	 -0.173057	 0.642818	 2
1463628815.545	 4	 -1.730056	 -3.288181	 -0.265792	 1.713666	 -0.774728	 0.391418	 -0.378721	 0.638314	 -0.162137	 0.650259	 2
1463628815.555	 4	 -1.674543	 -2.878451	 -0.210240	 1.700620	 -0.774662	 0.415422	 -0.387335	 0.629469	 -0.151773	 0.656281	 2
1463628815.565	 4	 -1.449856	 -2.372239	 -0.128620	 1.690432	 -0.774275	 0.436691	 -0.394635	 0.622034	 -0.142635	 0.661053	 2
1463628815.575	 4	 -1.167180	 -1.811760	 -0.020355	 1.682983	 -0.773329	 0.453951	 -0.400241	 0.616330	 -0.135090	 0.664602	 2
1463628815.585	 4	 -0.903890	 -1.289507	 0.088789	 1.678171	 -0.771636	 0.467288	 -0.404201	 0.612396	 -0.129065	 0.667034	 2
1463628815.595	 4	 -0.671307	 -0.893094	 0.139477	 1.675198	 -0.769565	 0.477166	 -0.406851	 0.609832	 -0.124409	 0.668655	 2
1463628815.605	 4	 -0.483210	 -0.617039	 0.148934	 1.673341	 -0.767552	 0.484255	 -0.408584	 0.608187	 -0.120925	 0.669735	 2
1463628815.615	 4	 -0.302077	 -0.474847	 0.176390	 1.671501	 -0.765544	 0.488813	 -0.409540	 0.607059	 -0.118290	 0.670645	 2
1463628815.625	 4	 -0.127905	 -0.492879	 0.253572	 1.668119	 -0.763065	 0.490839	 -0.409687	 0.606028	 -0.116015	 0.671883	 2
1463628815.635	 4	 -0.001271	 -0.640475	 0.338489	 1.662129	 -0.759863	 0.490829	 -0.409164	 0.604685	 -0.113628	 0.673817	 2
1463628815.645	 4	 0.064215	 -0.803237	 0.360917	 1.653687	 -0.756319	 0.489690	 -0.408332	 0.602807	 -0.111003	 0.676437	 2
1463628815.655	 4	 0.079407	 -0.946063	 0.325351	 1.643602	 -0.753022	 0.488262	 -0.407554	 0.600364	 -0.108238	 0.679520	 2
1463628815.665	 4	 0.101043	 -1.063528	 0.269716	 1.632174	 -0.750263	 0.486722	 -0.406942	 0.597355	 -0.105443	 0.682969	 2
1463628815.675	 4	 0.172251	 -1.096955	 0.235746	 1.619698	 -0.747932	 0.484482	 -0.406275	 0.594019	 -0.102838	 0.686663	 2
1463628815.685	 4	 0.304816	 -1.044191	 0.231885	 1.606511	 -0.745726	 0.480701	 -0.405206	 0.590697	 -0.100678	 0.690470	 2
1463628815.695	 4	 0.477130	 -0.947827	 0.243005	 1.592737	 -0.743462	 0.474727	 -0.403490	 0.587597	 -0.099159	 0.694329	 2
1463628815.705	 4	 0.646240	 -0.863061	 0.266834	 1.578325	 -0.740950	 0.466461	 -0.401055	 0.584750	 -0.098253	 0.698261	 2
1463628815.715	 4	 0.748013	 -0.800431	 0.291043	 1.563532	 -0.738094	 0.456607	 -0.398072	 0.582110	 -0.097747	 0.702234	 2
1463628815.725	 4	 0.776212	 -0.691080	 0.274763	 1.549355	 -0.735147	 0.446245	 -0.394884	 0.579754	 -0.097560	 0.705998	 2
1463628815.735	 4	 0.773306	 -0.569266	 0.204516	 1.536440	 -0.732703	 0.435871	 -0.391782	 0.577702	 -0.097846	 0.709361	 2
1463628815.745	 4	 0.722188	 -0.470856	 0.114221	 1.524914	 -0.731029	 0.426033	 -0.389004	 0.575849	 -0.098518	 0.712297	 2
1463628815.755	 4	 0.636839	 -0.386202	 0.019833	 1.514975	 -0.730260	 0.417209	 -0.386725	 0.574161	 -0.099475	 0.714764	 2
1463628815.765	 4	 0.517289	 -0.315251	 -0.071187	 1.506714	 -0.730401	 0.409811	 -0.385060	 0.572605	 -0.100577	 0.716754	 2
1463628815.775	 4	 0.388073	 -0.242274	 -0.180222	 1.500265	 -0.731645	 0.404065	 -0.384129	 0.571162	 -0.101819	 0.718228	 2
1463628815.785	 4	 0.312273	 -0.168294	 -0.275858	 1.495285	 -0.733937	 0.399412	 -0.383769	 0.569836	 -0.103309	 0.719261	 2
1463628815.795	 4	 0.283612	 -0.090954	 -0.329243	 1.491362	 -0.736896	 0.395188	 -0.383693	 0.568681	 -0.105073	 0.719960	 2
1463628815.805	 4	 0.276579	 -0.002616	 -0.324096	 1.488296	 -0.739945	 0.391068	 -0.383637	 0.567797	 -0.106992	 0.720404	 2
1463628815.815	 4	 0.311249	 0.091023	 -0.304343	 1.486055	 -0.742777	 0.386702	 -0.383405	 0.567299	 -0.109085	 0.720606	 2
1463628815.825	 4	 0.417196	 0.151359	 -0.301507	 1.483600	 -0.745440	 0.381093	 -0.382785	 0.566993	 -0.111528	 0.720803	 2
1463628815.835	 4	 0.496324	 0.233664	 -0.360047	 1.481007	 -0.748421	 0.374155	 -0.381902	 0.566832	 -0.114528	 0.720927	 2
1463628815.845	 4	 0.533706	 0.322189	 -0.457599	 1.478768	 -0.752246	 0.366456	 -0.381055	 0.566787	 -0.118151	 0.720826	 2
1463628815.855	 4	 0.532746	 0.429945	 -0.558901	 1.477279	 -0.757057	 0.358462	 -0.380397	 0.566887	 -0.122347	 0.720395	 2
1463628815.865	 4	 0.523712	 0.626088	 -0.648653	 1.477474	 -0.762811	 0.350436	 -0.379926	 0.567427	 -0.127183	 0.719379	 2
1463628815.875	 4	 0.541806	 0.889401	 -0.704977	 1.479915	 -0.769225	 0.342149	 -0.379440	 0.568703	 -0.132750	 0.717620	 2
1463628815.885	 4	 0.588210	 1.211650	 -0.689593	 1.485049	 -0.775678	 0.333321	 -0.378611	 0.571036	 -0.139025	 0.715013	 2
1463628815.895	 4	 0.726672	 1.534142	 -0.603603	 1.492361	 -0.781369	 0.323030	 -0.376933	 0.574550	 -0.145966	 0.711694	 2
1463628815.905	 4	 1.014468	 1.839199	 -0.514812	 1.500343	 -0.786001	 0.309334	 -0.373840	 0.579112	 -0.153865	 0.707954	 2
1463628815.915	 4	 1.423346	 2.085913	 -0.502221	 1.507093	 -0.790102	 0.290246	 -0.369040	 0.584301	 -0.163222	 0.704102	 2
1463628815.935	 4	 2.253963	 2.314016	 -0.685313	 1.511506	 -0.799668	 0.233227	 -0.354869	 0.594491	 -0.187164	 0.696863	 2
1463628815.925	 4	 1.873137	 2.244756	 -0.563276	 1.511036	 -0.794465	 0.264728	 -0.362590	 0.589580	 -0.174353	 0.700374	 2
1463628815.945	 4	 2.486128	 2.368357	 -0.871205	 1.509325	 -0.806408	 0.197481	 -0.346564	 0.598861	 -0.201422	 0.693317	 2
1463628815.955	 4	 2.576119	 2.384716	 -1.072200	 1.505651	 -0.814988	 0.159484	 -0.338294	 0.602687	 -0.216727	 0.689460	 2
1463628815.965	 4	 2.625253	 2.312064	 -1.243826	 1.500161	 -0.825245	 0.120051	 -0.330329	 0.605759	 -0.232671	 0.685422	 2
1463628815.975	 4	 2.621559	 2.251074	 -1.295518	 1.493082	 -0.836186	 0.079799	 -0.322553	 0.608227	 -0.248751	 0.681280	 2
1463628815.985	 4	 2.633290	 2.179320	 -1.212092	 1.484641	 -0.846386	 0.039019	 -0.314593	 0.610343	 -0.264455	 0.677182	 2
1463628815.995	 4	 2.699625	 2.087695	 -1.060053	 1.474222	 -0.854900	 -0.002947	 -0.306038	 0.612127	 -0.279634	 0.673384	 2
1463628816.005	 4	 2.823572	 1.966346	 -0.876819	 1.460958	 -0.861227	 -0.046846	 -0.296638	 0.613431	 -0.294295	 0.670148	 2
1463628816.015	 4	 2.902500	 1.830009	 -0.725305	 1.445004	 -0.865379	 -0.092401	 -0.286489	 0.614209	 -0.308434	 0.667488	 2
1463628816.025	 4	 2.869561	 1.518406	 -0.587237	 1.426472	 -0.867680	 -0.137866	 -0.276249	 0.614156	 -0.321644	 0.665615	 2
1463628816.035	 4	 2.756390	 1.143416	 -0.422416	 1.405346	 -0.867950	 -0.181590	 -0.266390	 0.613031	 -0.333399	 0.664887	 2
1463628816.045	 4	 2.599220	 0.964074	 -0.283102	 1.384094	 -0.866486	 -0.222635	 -0.256896	 0.611481	 -0.343862	 0.664721	 2
1463628816.065	 5	 2.501468	 0.803627	 0.285373	 1.343860	 -0.855344	 -0.297005	 -0.237215	 0.608223	 -0.360707	 0.666096	 2
1463628816.075	 5	 2.817192	 1.118251	 0.677753	 1.325415	 -0.843320	 -0.335121	 -0.224502	 0.607312	 -0.368241	 0.667210	 2
1463628816.085	 5	 2.836838	 1.240082	 0.912117	 1.309583	 -0.827797	 -0.373279	 -0.209999	 0.607080	 -0.375424	 0.668140	 2
1463628816.095	 5	 2.413407	 1.069865	 1.175332	 1.297637	 -0.810499	 -0.404799	 -0.196096	 0.607117	 -0.380559	 0.669425	 2
1463628816.105	 5	 1.867741	 0.905112	 1.555830	 1.291262	 -0.790969	 -0.426878	 -0.183113	 0.607837	 -0.382676	 0.671239	 2
1463628816.115	 5	 1.285995	 0.810431	 1.904255	 1.290914	 -0.769533	 -0.439074	 -0.171208	 0.609495	 -0.381620	 0.673476	 2
1463628816.125	 5	 0.957348	 0.826059	 2.166242	 1.295328	 -0.746458	 -0.444583	 -0.159776	 0.612074	 -0.378290	 0.675821	 2
1463628816.135	 5	 0.914837	 0.786432	 2.257899	 1.300861	 -0.722365	 -0.448280	 -0.148288	 0.614799	 -0.374103	 0.678292	 2
1463628816.145	 5	 1.010622	 0.784625	 2.194168	 1.305522	 -0.698366	 -0.453048	 -0.136667	 0.617190	 -0.370146	 0.680728	 2
1463628816.155	 5	 1.061142	 0.812725	 1.982969	 1.309664	 -0.675873	 -0.459330	 -0.125253	 0.619357	 -0.366965	 0.682675	 2
1463628816.165	 5	 1.017357	 0.838276	 1.675583	 1.313499	 -0.656297	 -0.466328	 -0.114798	 0.621305	 -0.364677	 0.683968	 2
1463628816.175	 5	 0.924828	 0.935077	 1.639987	 1.318948	 -0.638178	 -0.472746	 -0.104791	 0.623654	 -0.362593	 0.684544	 2
1463628816.185	 5	 0.672285	 0.729990	 1.710618	 1.324611	 -0.619881	 -0.476446	 -0.095529	 0.625853	 -0.359479	 0.685534	 2
1463628816.195	 5	 0.514971	 0.742304	 1.585277	 1.330842	 -0.602744	 -0.478089	 -0.087270	 0.628088	 -0.355915	 0.686450	 2
1463628816.205	 5	 0.521272	 0.979363	 1.277291	 1.338838	 -0.588314	 -0.480243	 -0.079601	 0.630909	 -0.353235	 0.686180	 2
1463628816.225	 6	 0.621948	 1.105554	 0.679696	 1.354985	 -0.568414	 -0.489640	 -0.066116	 0.636706	 -0.351798	 0.682988	 2
1463628816.235	 6	 0.524493	 1.199067	 0.482117	 1.364002	 -0.562101	 -0.494774	 -0.060469	 0.639904	 -0.352152	 0.680334	 2
1463628816.245	 6	 0.354355	 1.198733	 0.367427	 1.374111	 -0.557492	 -0.498457	 -0.055744	 0.643411	 -0.352459	 0.677265	 2
1463628816.255	 6	 0.182294	 1.146064	 0.368435	 1.384747	 -0.553516	 -0.500254	 -0.051776	 0.647025	 -0.352278	 0.674225	 2
1463628816.265	 6	 -0.006638	 1.051633	 0.470449	 1.395779	 -0.549128	 -0.499816	 -0.048312	 0.650695	 -0.351209	 0.671502	 2
1463628816.275	 6	 -0.216037	 0.862012	 0.637832	 1.406547	 -0.543516	 -0.496744	 -0.045308	 0.654196	 -0.348886	 0.669517	 2
1463628816.285	 6	 -0.400614	 0.556998	 0.743177	 1.415751	 -0.536947	 -0.491302	 -0.043018	 0.657117	 -0.345442	 0.668593	 2
1463628816.295	 6	 -0.575467	 0.142678	 0.739779	 1.422044	 -0.530361	 -0.483906	 -0.041896	 0.659032	 -0.341253	 0.668931	 2
1463628816.305	 6	 -0.786272	 -0.357232	 0.652767	 1.424551	 -0.524717	 -0.474386	 -0.042492	 0.659647	 -0.336522	 0.670681	 2
1463628816.315	 6	 -1.043119	 -0.848851	 0.517208	 1.423283	 -0.520682	 -0.462300	 -0.045173	 0.658945	 -0.331284	 0.673796	 2
1463628816.325	 6	 -1.336917	 -1.206768	 0.323533	 1.419464	 -0.518790	 -0.447278	 -0.050033	 0.657295	 -0.325578	 0.677834	 2
1463628816.345	 7	 -1.793205	 -1.453828	 -0.341960	 1.410001	 -0.525367	 -0.410101	 -0.066202	 0.652963	 -0.314509	 0.685813	 2
1463628816.355	 7	 -1.943996	 -1.471722	 -0.670135	 1.405684	 -0.534285	 -0.389395	 -0.076990	 0.650649	 -0.309790	 0.689027	 2
1463628816.365	 7	 -1.990250	 -1.176108	 -0.844963	 1.403870	 -0.545649	 -0.368148	 -0.088462	 0.648970	 -0.305641	 0.691083	 2
1463628816.375	 7	 -1.984621	 -0.723558	 -0.771527	 1.406820	 -0.556818	 -0.346691	 -0.099185	 0.648746	 -0.301574	 0.691625	 2
1463628816.385	 7	 -1.976198	 -0.605858	 -0.671389	 1.412262	 -0.566827	 -0.324966	 -0.109182	 0.649222	 -0.297240	 0.691548	 2
1463628816.395	 7	 -2.056527	 -0.594552	 -0.757977	 1.418429	 -0.577049	 -0.302405	 -0.119426	 0.649720	 -0.292770	 0.691293	 2
1463628816.405	 7	 -2.160403	 -0.328115	 -1.165977	 1.427181	 -0.590554	 -0.278979	 -0.130799	 0.650731	 -0.289193	 0.689788	 2
1463628816.415	 7	 -2.280949	 0.145785	 -1.718978	 1.441237	 -0.609260	 -0.254589	 -0.143639	 0.652987	 -0.287313	 0.685877	 2
1463628816.425	 7	 -2.371233	 0.520286	 -2.326454	 1.460377	 -0.633613	 -0.229068	 -0.158152	 0.656190	 -0.287344	 0.679585	 2
1463628816.435	 7	 -2.572278	 0.614310	 -3.081586	 1.483766	 -0.664797	 -0.201388	 -0.175133	 0.659639	 -0.289414	 0.671152	 2
1463628816.445	 7	 -2.769351	 0.232377	 -3.614174	 1.506935	 -0.701916	 -0.169573	 -0.195431	 0.661393	 -0.292369	 0.662485	 2
1463628816.455	 7	 -2.458883	 0.121659	 -3.502805	 1.529419	 -0.738899	 -0.137911	 -0.215463	 0.662032	 -0.295770	 0.654071	 2
1463628816.465	 7	 -1.912552	 -0.475666	 -3.077223	 1.544680	 -0.771357	 -0.111287	 -0.233081	 0.660539	 -0.299012	 0.648038	 2
1463628816.475	 7	 -1.464838	 -1.126050	 -2.967808	 1.549859	 -0.801347	 -0.089981	 -0.249413	 0.656133	 -0.302209	 0.644944	 2
1463628816.485	 7	 -1.022962	 -1.377845	 -3.190348	 1.547892	 -0.832816	 -0.074432	 -0.265281	 0.649555	 -0.306855	 0.643074	 2
1463628816.495	 7	 -0.584883	 -1.530706	 -3.411935	 1.539746	 -0.866649	 -0.065358	 -0.280680	 0.641225	 -0.313397	 0.641741	 2
1463628816.505	 7	 -0.265414	 -1.657309	 -3.434012	 1.525952	 -0.901168	 -0.062131	 -0.295291	 0.631578	 -0.321022	 0.640982	 2
1463628816.515	 7	 -0.096097	 -1.684996	 -3.223657	 1.508525	 -0.934093	 -0.062872	 -0.308753	 0.621427	 -0.328610	 0.640714	 2
1463628816.525	 7	 -0.006683	 -1.546823	 -2.907684	 1.489988	 -0.963880	 -0.066091	 -0.320680	 0.611674	 -0.335587	 0.640625	 2
1463628816.535	 7	 0.052785	 -1.321156	 -2.712134	 1.471991	 -0.991197	 -0.071149	 -0.331239	 0.602717	 -0.342242	 0.640222	 2
1463628816.545	 7	 0.117815	 -1.148702	 -2.665267	 1.453995	 -1.017650	 -0.078403	 -0.340959	 0.594252	 -0.349099	 0.639329	 2
1463628816.555	 7	 0.134403	 -1.064434	 -2.625265	 1.435446	 -1.043660	 -0.087508	 -0.350201	 0.586019	 -0.356078	 0.638082	 2
1463628816.565	 7	 0.227513	 -0.900948	 -2.483874	 1.416156	 -1.068400	 -0.098624	 -0.358697	 0.578146	 -0.362964	 0.636664	 2
1463628816.575	 7	 0.445043	 -0.979048	 -2.165700	 1.392684	 -1.089989	 -0.114852	 -0.365587	 0.570417	 -0.369624	 0.635884	 2
1463628816.585	 7	 0.709621	 -1.185765	 -1.671151	 1.362269	 -1.106531	 -0.135811	 -0.370923	 0.562199	 -0.374960	 0.636988	 2
1463628816.595	 7	 0.936379	 -1.609395	 -1.036544	 1.324154	 -1.115963	 -0.163137	 -0.373725	 0.553805	 -0.378932	 0.640343	 2
1463628816.605	 7	 0.012631	 -2.880126	 -0.491458	 1.289281	 -1.121385	 -0.172938	 -0.379517	 0.543711	 -0.376815	 0.646804	 2
1463628816.615	 7	 -0.685872	 -3.230616	 0.321342	 1.269050	 -1.122016	 -0.159995	 -0.387000	 0.534566	 -0.368875	 0.654524	 2
1463628816.625	 7	 -0.666601	 -3.246892	 1.164040	 1.256587	 -1.115006	 -0.137756	 -0.392692	 0.527041	 -0.357480	 0.663497	 2
1463628816.635	 7	 -0.294025	 -3.073208	 1.797607	 1.243096	 -1.100508	 -0.117800	 -0.395154	 0.520507	 -0.344749	 0.673850	 2
1463628816.645	 7	 -0.224917	 -2.688447	 2.081947	 1.231755	 -1.081976	 -0.099077	 -0.395327	 0.515391	 -0.331776	 0.684115	 2
1463628816.655	 7	 -0.495147	 -2.101248	 2.131329	 1.229616	 -1.063423	 -0.075812	 -0.395029	 0.512507	 -0.318917	 0.692517	 2
1463628816.665	 7	 -0.512440	 -1.383114	 2.298026	 1.235816	 -1.044018	 -0.050586	 -0.393593	 0.512294	 -0.306644	 0.699006	 2
1463628816.675	 7	 -0.267203	 -0.555186	 2.604140	 1.247198	 -1.021253	 -0.028435	 -0.389454	 0.515059	 -0.295436	 0.704101	 2
1463628816.685	 7	 -0.033358	 0.252314	 3.022068	 1.263413	 -0.993888	 -0.009977	 -0.382146	 0.521008	 -0.285062	 0.707994	 2
1463628816.695	 7	 0.090474	 0.935535	 3.564491	 1.284933	 -0.960946	 0.006763	 -0.371840	 0.530077	 -0.274534	 0.710904	 2
1463628816.705	 7	 0.162485	 1.625033	 4.218264	 1.312543	 -0.921617	 0.022927	 -0.358543	 0.542448	 -0.263172	 0.712697	 2
1463628816.715	 7	 0.280299	 2.203521	 4.982510	 1.344634	 -0.874546	 0.037473	 -0.341828	 0.557895	 -0.250412	 0.713583	 2
1463628816.725	 7	 0.321692	 2.670326	 5.715475	 1.379607	 -0.819700	 0.050074	 -0.321885	 0.575803	 -0.235791	 0.713613	 2
1463628816.735	 7	 0.286574	 3.154990	 6.240382	 1.417640	 -0.758839	 0.060890	 -0.299443	 0.595804	 -0.219519	 0.712153	 2
1463628816.745	 7	 0.338364	 3.514050	 6.493726	 1.456909	 -0.694473	 0.068196	 -0.275127	 0.616964	 -0.202491	 0.708984	 2
1463628816.755	 7	 0.452652	 3.233747	 6.314272	 1.491864	 -0.630628	 0.070636	 -0.250406	 0.636753	 -0.185675	 0.705242	 2
1463628816.765	 7	 0.590110	 2.930843	 5.814677	 1.520579	 -0.570702	 0.068522	 -0.226513	 0.653889	 -0.170055	 0.701571	 2
1463628816.775	 7	 0.713107	 2.829378	 4.927013	 1.546134	 -0.519043	 0.062941	 -0.204827	 0.668835	 -0.157348	 0.697099	 2
1463628816.785	 7	 0.997574	 3.111701	 3.933873	 1.571584	 -0.477091	 0.052974	 -0.185161	 0.682690	 -0.148900	 0.690999	 2
1463628816.795	 7	 1.197009	 2.881697	 3.098702	 1.595632	 -0.444128	 0.039623	 -0.167592	 0.695072	 -0.144133	 0.684115	 2
1463628816.805	 7	 1.117738	 2.148311	 2.550095	 1.613265	 -0.418032	 0.025822	 -0.152680	 0.704336	 -0.141054	 0.678752	 2
1463628816.815	 7	 0.691213	 1.685665	 2.381113	 1.626923	 -0.394280	 0.015732	 -0.140158	 0.711514	 -0.137026	 0.674779	 2
1463628816.825	 7	 0.174427	 1.896348	 2.331088	 1.643078	 -0.371134	 0.010867	 -0.129573	 0.718931	 -0.131454	 0.670126	 2
1463628816.835	 7	 -0.267864	 2.589054	 2.193244	 1.667009	 -0.348671	 0.010629	 -0.120483	 0.728441	 -0.124886	 0.662768	 2
1463628816.845	 7	 -0.587492	 3.168630	 1.905138	 1.698652	 -0.328390	 0.013705	 -0.113036	 0.739980	 -0.118262	 0.652432	 2
1463628816.855	 7	 -0.815786	 2.995795	 1.593249	 1.731067	 -0.310764	 0.019137	 -0.107512	 0.751273	 -0.111705	 0.641523	 2
1463628816.865	 7	 -0.963133	 2.508369	 1.347002	 1.759674	 -0.295353	 0.026234	 -0.103759	 0.760952	 -0.105114	 0.631773	 2
1463628816.875	 7	 -0.967716	 2.094793	 1.221697	 1.783384	 -0.281181	 0.033581	 -0.100937	 0.768872	 -0.098581	 0.623642	 2
1463628816.885	 7	 -0.908935	 2.000046	 1.087083	 1.805435	 -0.268178	 0.040378	 -0.098505	 0.776136	 -0.092532	 0.615912	 2
1463628816.895	 7	 -0.757989	 2.157587	 1.019026	 1.827881	 -0.256286	 0.045895	 -0.096035	 0.783426	 -0.087278	 0.607786	 2
1463628816.905	 7	 -0.429419	 2.251143	 1.145993	 1.850934	 -0.244291	 0.048064	 -0.092317	 0.790960	 -0.082966	 0.599147	 2
1463628816.915	 7	 0.028096	 1.938184	 1.441774	 1.870583	 -0.230991	 0.044959	 -0.086355	 0.797671	 -0.079464	 0.591565	 2
1463628816.925	 7	 0.464767	 1.044625	 1.747254	 1.881893	 -0.216114	 0.036198	 -0.078054	 0.802122	 -0.076540	 0.587069	 2
1463628816.935	 7	 0.763781	 -1.226597	 1.810909	 1.873739	 -0.200876	 0.023858	 -0.068949	 0.800882	 -0.073752	 0.590250	 2
1463628816.945	 7	 1.143415	 -3.386103	 1.619118	 1.841163	 -0.187812	 0.008755	 -0.060231	 0.792191	 -0.071996	 0.603011	 2
1463628816.955	 7	 1.339555	 -2.741012	 1.333526	 1.806658	 -0.177401	 -0.007789	 -0.051786	 0.782512	 -0.071974	 0.616290	 2
1463628816.965	 7	 1.084255	 0.952720	 0.911842	 1.804225	 -0.170176	 -0.021665	 -0.044215	 0.782325	 -0.073370	 0.616952	 2
1463628816.975	 7	 0.745921	 3.113804	 0.751586	 1.830153	 -0.164798	 -0.031687	 -0.037663	 0.790616	 -0.074855	 0.606551	 2
1463628816.985	 7	 0.551520	 2.649193	 0.991949	 1.857646	 -0.157537	 -0.039883	 -0.031186	 0.799213	 -0.074912	 0.595545	 2
1463628816.995	 7	 0.659869	 1.444417	 1.222789	 1.873434	 -0.148078	 -0.049330	 -0.023996	 0.804247	 -0.074145	 0.589164	 2
1463628817.005	 7	 0.754306	 0.876183	 1.224139	 1.881681	 -0.138543	 -0.060304	 -0.016455	 0.806978	 -0.073622	 0.585743	 2
1463628817.015	 7	 0.545908	 0.494864	 1.064673	 1.886397	 -0.129874	 -0.069666	 -0.009951	 0.808571	 -0.072901	 0.583780	 2
1463628817.025	 7	 0.189648	 0.054905	 0.826016	 1.887325	 -0.122296	 -0.075152	 -0.005474	 0.808976	 -0.071451	 0.583457	 2
1463628817.035	 7	 -0.141177	 -0.169450	 0.555039	 1.885836	 -0.116180	 -0.076478	 -0.003194	 0.808624	 -0.069369	 0.584213	 2
1463628817.045	 7	 -0.311579	 -0.125975	 0.321394	 1.884444	 -0.111704	 -0.074951	 -0.002542	 0.808268	 -0.067117	 0.584971	 2
1463628817.055	 7	 -0.186760	 0.131940	 0.004044	 1.885354	 -0.110079	 -0.072960	 -0.002839	 0.808550	 -0.065881	 0.584721	 2
1463628817.065	 7	 0.164917	 0.464299	 -0.516017	 1.889034	 -0.113851	 -0.072446	 -0.004032	 0.809579	 -0.067259	 0.583132	 2
1463628817.075	 7	 0.587058	 0.935700	 -1.194197	 1.897151	 -0.125031	 -0.073770	 -0.006481	 0.811790	 -0.072183	 0.579435	 2
1463628817.085	 7	 0.934248	 1.161344	 -1.911312	 1.907994	 -0.144157	 -0.076255	 -0.010612	 0.814612	 -0.080695	 0.574267	 2
1463628817.095	 7	 1.154937	 1.064863	 -2.659100	 1.918904	 -0.171188	 -0.078373	 -0.017067	 0.817175	 -0.092355	 0.568686	 2
1463628817.105	 7	 1.218064	 0.531034	 -3.058949	 1.925451	 -0.203462	 -0.079507	 -0.025521	 0.818169	 -0.105873	 0.564570	 2
1463628817.115	 7	 1.027689	 -0.029819	 -3.034800	 1.926550	 -0.235925	 -0.079074	 -0.034900	 0.817378	 -0.118962	 0.562604	 2
1463628817.125	 7	 0.651423	 -0.352523	 -2.806454	 1.924399	 -0.265450	 -0.076038	 -0.044693	 0.815523	 -0.130036	 0.562152	 2
1463628817.135	 7	 0.298959	 -0.403874	 -2.550211	 1.921887	 -0.291273	 -0.070400	 -0.054524	 0.813477	 -0.138831	 0.562146	 2
1463628817.145	 7	 0.009885	 -0.328098	 -2.338100	 1.920776	 -0.313924	 -0.062564	 -0.064245	 0.811747	 -0.145734	 0.561872	 2
1463628817.155	 7	 -0.152085	 -0.316644	 -2.290755	 1.920634	 -0.335022	 -0.053081	 -0.074106	 0.810156	 -0.151565	 0.561412	 2
1463628817.165	 7	 -0.136379	 -0.269784	 -2.422611	 1.921197	 -0.356866	 -0.042893	 -0.084387	 0.808519	 -0.157517	 0.560683	 2
1463628817.175	 7	 0.052879	 0.007664	 -2.660407	 1.923908	 -0.381205	 -0.033254	 -0.094944	 0.807145	 -0.164723	 0.558899	 2
1463628817.185	 7	 0.425787	 0.545041	 -2.914437	 1.930662	 -0.409078	 -0.025752	 -0.105227	 0.806519	 -0.174171	 0.555084	 2
1463628817.195	 7	 0.863866	 1.588001	 -2.944782	 1.945127	 -0.439525	 -0.021857	 -0.113952	 0.807752	 -0.186135	 0.547637	 2
1463628817.205	 7	 1.081418	 3.362372	 -2.673316	 1.974470	 -0.468833	 -0.021102	 -0.119412	 0.812987	 -0.199479	 0.533855	 2
1463628817.215	 7	 0.639087	 3.854479	 -2.313184	 2.014734	 -0.494202	 -0.018277	 -0.123138	 0.820909	 -0.211510	 0.515955	 2
1463628817.225	 7	 0.002190	 2.989377	 -2.037525	 2.051348	 -0.513347	 -0.008870	 -0.127965	 0.827628	 -0.219292	 0.500568	 2
1463628817.235	 7	 -0.006924	 1.961965	 -2.036348	 2.079472	 -0.531011	 0.002514	 -0.133936	 0.831889	 -0.225643	 0.488986	 2
1463628817.245	 7	 -0.037122	 1.314533	 -2.152949	 2.100239	 -0.549344	 0.014954	 -0.141168	 0.833932	 -0.231702	 0.480565	 2
1463628817.255	 7	 0.050635	 0.717343	 -2.186980	 2.116068	 -0.568140	 0.028186	 -0.149268	 0.834449	 -0.237560	 0.474320	 2
1463628817.265	 7	 0.370358	 0.331967	 -2.105958	 2.125719	 -0.587782	 0.038526	 -0.156975	 0.833418	 -0.244093	 0.470311	 2
1463628817.275	 7	 0.658801	 0.474921	 -1.930222	 2.133619	 -0.607725	 0.045253	 -0.163361	 0.832065	 -0.251514	 0.466607	 2
1463628817.285	 7	 0.912319	 0.993563	 -1.589757	 2.143348	 -0.626512	 0.047496	 -0.167294	 0.831537	 -0.259674	 0.461658	 2
1463628817.295	 7	 1.068027	 1.574324	 -1.229744	 2.156685	 -0.643175	 0.045664	 -0.168483	 0.832372	 -0.268203	 0.454793	 2
1463628817.305	 7	 1.160014	 1.876733	 -0.998592	 2.172116	 -0.658213	 0.041125	 -0.167787	 0.834038	 -0.276837	 0.446755	 2
1463628817.315	 7	 1.155934	 1.918213	 -1.000302	 2.188255	 -0.672955	 0.036133	 -0.166613	 0.835829	 -0.285489	 0.438322	 2
1463628817.325	 7	 1.016082	 1.815358	 -1.159905	 2.205035	 -0.688187	 0.033483	 -0.166302	 0.837372	 -0.293872	 0.429873	 2
1463628817.335	 7	 0.761249	 1.584858	 -1.367655	 2.222629	 -0.703691	 0.035107	 -0.167583	 0.838562	 -0.301532	 0.421673	 2
1463628817.345	 7	 0.508900	 1.193819	 -1.565197	 2.239713	 -0.719151	 0.041444	 -0.170776	 0.839119	 -0.308182	 0.414415	 2
1463628817.355	 7	 0.260021	 0.866528	 -1.770702	 2.256666	 -0.734543	 0.052648	 -0.175889	 0.839094	 -0.313861	 0.408015	 2
1463628817.365	 7	 0.117455	 0.598126	 -1.879600	 2.273090	 -0.749782	 0.067263	 -0.182358	 0.838522	 -0.318833	 0.402459	 2
1463628817.375	 7	 0.068734	 0.427228	 -1.851991	 2.288695	 -0.764436	 0.083175	 -0.189267	 0.837598	 -0.323325	 0.397578	 2
1463628817.385	 7	 0.116152	 0.186621	 -1.718225	 2.301892	 -0.778255	 0.098420	 -0.196018	 0.836253	 -0.327461	 0.393735	 2
1463628817.395	 7	 0.203729	 -0.210882	 -1.496745	 2.309888	 -0.790996	 0.111238	 -0.202323	 0.834199	 -0.331164	 0.391800	 2
1463628817.405	 7	 0.267608	 -0.608717	 -1.330481	 2.312279	 -0.802799	 0.121741	 -0.208367	 0.831370	 -0.334374	 0.391920	 2
1463628817.415	 7	 0.329656	 -0.921637	 -1.188989	 2.310022	 -0.813941	 0.130374	 -0.214263	 0.827884	 -0.337173	 0.393719	 2
1463628817.425	 7	 0.446393	 -1.174116	 -1.051694	 2.304257	 -0.826138	 0.137180	 -0.220162	 0.823636	 -0.340370	 0.396611	 2
1463628817.435	 7	 0.543763	 -1.171824	 -0.989640	 2.295191	 -0.837054	 0.141227	 -0.225269	 0.819230	 -0.343163	 0.400444	 2
1463628817.445	 7	 0.551572	 -0.837128	 -1.033487	 2.288785	 -0.848351	 0.145088	 -0.229919	 0.815252	 -0.346411	 0.403114	 2
1463628817.455	 7	 0.531052	 -0.571951	 -1.141680	 2.286261	 -0.860267	 0.150054	 -0.234453	 0.811760	 -0.350113	 0.404349	 2
1463628817.465	 7	 0.487248	 -0.460137	 -1.287334	 2.286672	 -0.872966	 0.156883	 -0.239343	 0.808432	 -0.354093	 0.404685	 2
1463628817.475	 7	 0.448184	 -0.443268	 -1.470148	 2.289393	 -0.886679	 0.166159	 -0.244946	 0.805003	 -0.358272	 0.404490	 2
1463628817.485	 7	 0.411703	 -0.535088	 -1.679574	 2.293785	 -0.901671	 0.178232	 -0.251525	 0.801211	 -0.362627	 0.404101	 2
1463628817.495	 7	 0.386202	 -0.791765	 -1.884235	 2.298477	 -0.917998	 0.193316	 -0.259387	 0.796697	 -0.366974	 0.404133	 2
1463628817.505	 7	 0.426986	 -1.055800	 -2.050109	 2.302287	 -0.935723	 0.210516	 -0.268368	 0.791273	 -0.371361	 0.404915	 2
1463628817.515	 7	 0.560382	 -1.148814	 -2.208803	 2.305622	 -0.955322	 0.228668	 -0.277978	 0.785029	 -0.376258	 0.406063	 2
1463628817.525	 7	 0.787438	 -1.053975	 -2.385748	 2.309734	 -0.977549	 0.246901	 -0.287721	 0.778126	 -0.382316	 0.406905	 2
1463628817.545	 8	 1.381003	 -0.754955	 -2.419041	 2.317984	 -1.029269	 0.276953	 -0.305241	 0.762870	 -0.398656	 0.407346	 2
1463628817.555	 8	 1.481069	 -0.240432	 -2.561182	 2.324668	 -1.057629	 0.289418	 -0.312560	 0.755196	 -0.408712	 0.406126	 2
1463628817.565	 8	 1.504449	 0.366369	 -2.769957	 2.341339	 -1.087605	 0.305954	 -0.319289	 0.748238	 -0.420165	 0.402064	 2
1463628817.575	 8	 1.509123	 1.035469	 -3.195406	 2.372142	 -1.120164	 0.330707	 -0.325921	 0.741752	 -0.433368	 0.394679	 2
1463628817.585	 8	 1.389557	 1.645951	 -3.394376	 2.419542	 -1.153470	 0.366352	 -0.332239	 0.736005	 -0.447668	 0.384067	 2
1463628817.595	 8	 1.189322	 1.973971	 -3.416224	 2.482297	 -1.184823	 0.413750	 -0.338120	 0.731065	 -0.461874	 0.371336	 2
1463628817.605	 8	 1.297805	 1.628166	 -3.097461	 2.548311	 -1.213601	 0.465389	 -0.343354	 0.725987	 -0.475266	 0.359408	 2
1463628817.615	 8	 1.564355	 0.719197	 -2.346220	 2.595075	 -1.240169	 0.505120	 -0.347665	 0.719586	 -0.486911	 0.352482	 2
1463628817.625	 8	 1.397016	 0.128148	 -1.051098	 2.611443	 -1.260017	 0.519572	 -0.349478	 0.713987	 -0.495119	 0.350635	 2
1463628817.635	 8	 0.967439	 -0.637546	 0.255339	 2.590411	 -1.269369	 0.502019	 -0.348752	 0.710515	 -0.498243	 0.353971	 2
1463628817.645	 8	 0.715210	 -1.387951	 0.515927	 2.551027	 -1.272984	 0.473589	 -0.348631	 0.707334	 -0.497886	 0.360895	 2
1463628817.655	 8	 0.693872	 -1.632178	 0.269780	 2.512871	 -1.276720	 0.450502	 -0.350174	 0.703273	 -0.496900	 0.368612	 2
1463628817.665	 8	 0.757759	 -1.519794	 0.099748	 2.478998	 -1.281815	 0.431364	 -0.352195	 0.698782	 -0.496511	 0.375686	 2
1463628817.675	 8	 0.818902	 -1.417117	 0.056475	 2.445741	 -1.287711	 0.411655	 -0.354010	 0.694166	 -0.496673	 0.382264	 2
1463628817.685	 8	 0.771003	 -1.390389	 0.056075	 2.412382	 -1.293325	 0.391457	 -0.355759	 0.689615	 -0.496824	 0.388630	 2
1463628817.695	 8	 0.655829	 -1.367761	 0.049828	 2.380783	 -1.298015	 0.372927	 -0.357655	 0.685308	 -0.496625	 0.394715	 2
1463628817.705	 8	 0.529268	 -1.281193	 0.055998	 2.352242	 -1.301650	 0.356866	 -0.359604	 0.681414	 -0.496092	 0.400315	 2
1463628817.715	 8	 0.423471	 -1.105222	 0.078806	 2.327118	 -1.304240	 0.342769	 -0.361310	 0.678114	 -0.495390	 0.405223	 2
1463628817.725	 8	 0.345475	 -0.911305	 0.094079	 2.305446	 -1.306025	 0.330243	 -0.362633	 0.675430	 -0.494695	 0.409351	 2
1463628817.735	 8	 0.287612	 -0.744072	 0.104665	 2.286764	 -1.307256	 0.319005	 -0.363604	 0.673262	 -0.494078	 0.412792	 2
1463628817.745	 8	 0.252878	 -0.647135	 0.111198	 2.270138	 -1.308113	 0.308685	 -0.364344	 0.671440	 -0.493512	 0.415774	 2
1463628817.755	 8	 0.245478	 -0.633277	 0.112458	 2.254098	 -1.308808	 0.298617	 -0.365010	 0.669723	 -0.492948	 0.418618	 2
1463628817.765	 8	 0.279436	 -0.648487	 0.082179	 2.237667	 -1.309770	 0.288279	 -0.365726	 0.667875	 -0.492476	 0.421491	 2
1463628817.775	 8	 0.366716	 -0.641774	 0.016470	 2.220218	 -1.311591	 0.276910	 -0.366477	 0.665728	 -0.492362	 0.424358	 2
1463628817.785	 8	 0.481792	 -0.602364	 -0.075821	 2.201541	 -1.314702	 0.263941	 -0.367202	 0.663216	 -0.492846	 0.427095	 2
1463628817.795	 8	 0.605528	 -0.535340	 -0.170061	 2.181260	 -1.319237	 0.248702	 -0.367819	 0.660344	 -0.494046	 0.429621	 2
1463628817.805	 8	 0.717526	 -0.472497	 -0.258910	 2.159211	 -1.325095	 0.230968	 -0.368316	 0.657151	 -0.495938	 0.431905	 2
1463628817.815	 8	 0.786624	 -0.468967	 -0.330885	 2.135292	 -1.331945	 0.211114	 -0.368829	 0.653645	 -0.498295	 0.434069	 2
1463628817.825	 8	 0.801081	 -0.527885	 -0.382716	 2.109881	 -1.339286	 0.190246	 -0.369575	 0.649852	 -0.500760	 0.436287	 2
1463628817.835	 8	 0.770653	 -0.627911	 -0.401500	 2.083370	 -1.346656	 0.169186	 -0.370662	 0.645842	 -0.503053	 0.438674	 2
1463628817.845	 8	 0.712597	 -0.713934	 -0.407123	 2.056576	 -1.353694	 0.148857	 -0.372118	 0.641727	 -0.504994	 0.441244	 2
1463628817.855	 8	 0.664362	 -0.748976	 -0.418753	 2.030110	 -1.360474	 0.129372	 -0.373828	 0.637598	 -0.506692	 0.443829	 2
1463628817.865	 8	 0.627932	 -0.763898	 -0.437758	 2.004056	 -1.367121	 0.110522	 -0.375716	 0.633480	 -0.508252	 0.446341	 2
1463628817.875	 8	 0.578573	 -0.790606	 -0.473813	 1.978966	 -1.373764	 0.092903	 -0.377846	 0.629352	 -0.509681	 0.448747	 2
1463628817.885	 8	 0.534565	 -0.796210	 -0.531033	 1.955576	 -1.380631	 0.077184	 -0.380275	 0.625193	 -0.511040	 0.450958	 2
1463628817.895	 8	 0.502321	 -0.791259	 -0.594652	 1.933691	 -1.387875	 0.062979	 -0.382952	 0.620994	 -0.512422	 0.452921	 2
1463628817.905	 8	 0.490469	 -0.760849	 -0.659277	 1.912737	 -1.395611	 0.049516	 -0.385803	 0.616747	 -0.513923	 0.454600	 2
1463628817.915	 8	 0.488371	 -0.696453	 -0.726869	 1.892211	 -1.403909	 0.035930	 -0.388707	 0.612491	 -0.515658	 0.455915	 2
1463628817.925	 8	 0.481065	 -0.608610	 -0.789933	 1.872313	 -1.412763	 0.022173	 -0.391602	 0.608289	 -0.517667	 0.456786	 2
1463628817.935	 8	 0.454625	 -0.507922	 -0.849515	 1.853853	 -1.422090	 0.008890	 -0.394458	 0.604229	 -0.519930	 0.457147	 2
1463628817.945	 8	 0.404805	 -0.396442	 -0.897069	 1.838464	 -1.431759	 -0.002355	 -0.397283	 0.600411	 -0.522371	 0.456947	 2
1463628817.955	 8	 0.349855	 -0.277192	 -0.901875	 1.826750	 -1.441428	 -0.011082	 -0.399961	 0.596960	 -0.524910	 0.456222	 2
1463628817.965	 8	 0.303554	 -0.179910	 -0.852605	 1.817711	 -1.450353	 -0.018148	 -0.402303	 0.594000	 -0.527338	 0.455226	 2
1463628817.975	 8	 0.263536	 -0.133480	 -0.772958	 1.809905	 -1.458694	 -0.024614	 -0.404393	 0.591366	 -0.529669	 0.454096	 2
1463628817.985	 8	 0.219214	 -0.106082	 -0.679596	 1.803430	 -1.466087	 -0.029977	 -0.406258	 0.589069	 -0.531713	 0.453027	 2
1463628817.995	 8	 0.211145	 -0.105207	 -0.562283	 1.795400	 -1.472331	 -0.037011	 -0.407796	 0.587069	 -0.533463	 0.452183	 2
1463628818.005	 8	 0.225141	 -0.167240	 -0.457472	 1.782440	 -1.477520	 -0.048563	 -0.409103	 0.585165	 -0.534901	 0.451772	 2
1463628818.015	 8	 0.247235	 -0.302854	 -0.375797	 1.762376	 -1.481867	 -0.066058	 -0.410412	 0.583110	 -0.535960	 0.451986	 2
1463628818.025	 8	 0.239053	 -0.497097	 -0.324245	 1.737340	 -1.485607	 -0.086722	 -0.412032	 0.580760	 -0.536513	 0.452881	 2
1463628818.035	 8	 0.209314	 -0.730677	 -0.279266	 1.710410	 -1.488819	 -0.107012	 -0.414186	 0.578055	 -0.536415	 0.454490	 2
1463628818.045	 8	 0.195507	 -0.997133	 -0.214482	 1.680601	 -1.491376	 -0.127630	 -0.416891	 0.574934	 -0.535590	 0.456943	 2
1463628818.055	 8	 0.201864	 -1.309194	 -0.123654	 1.644692	 -1.493038	 -0.151313	 -0.420145	 0.571267	 -0.533931	 0.460489	 2
1463628818.065	 8	 0.167893	 -1.596476	 -0.005601	 1.606431	 -1.493497	 -0.174360	 -0.423900	 0.567173	 -0.531304	 0.465125	 2
1463628818.075	 8	 0.070202	 -1.826066	 0.122071	 1.575898	 -1.492615	 -0.187203	 -0.428109	 0.562958	 -0.527593	 0.470581	 2
1463628818.085	 8	 -0.064657	 -1.996165	 0.225041	 1.560242	 -1.490575	 -0.183280	 -0.432747	 0.558844	 -0.522813	 0.476539	 2
1463628818.095	 8	 -0.162607	 -2.094411	 0.131193	 1.556478	 -1.488910	 -0.166155	 -0.438024	 0.554571	 -0.517495	 0.482478	 2
1463628818.105	 8	 -0.278982	 -2.024571	 0.034805	 1.566430	 -1.488416	 -0.135614	 -0.443761	 0.550360	 -0.512162	 0.487719	 2
1463628818.115	 8	 -0.400896	 -1.876169	 0.062826	 1.591802	 -1.487904	 -0.090942	 -0.449411	 0.546717	 -0.506756	 0.492269	 2
1463628818.125	 8	 -0.554777	 -1.778201	 0.163128	 1.634274	 -1.486347	 -0.030300	 -0.454837	 0.543874	 -0.500967	 0.496343	 2
1463628818.135	 8	 -0.790215	 -1.797865	 0.289689	 1.697262	 -1.483088	 0.050844	 -0.460386	 0.541820	 -0.494270	 0.500173	 2
1463628818.145	 8	 -1.097699	 -1.900558	 0.377737	 1.782614	 -1.477826	 0.155355	 -0.466560	 0.540445	 -0.486274	 0.503765	 2
1463628818.155	 8	 -1.426257	 -1.906741	 0.418908	 1.886322	 -1.470354	 0.278807	 -0.473467	 0.539803	 -0.477103	 0.506768	 2
1463628818.165	 8	 -1.731150	 -1.654475	 0.468672	 1.999218	 -1.460091	 0.409798	 -0.480553	 0.540386	 -0.467336	 0.508575	 2
1463628818.175	 8	 -1.945000	 -1.144745	 0.564801	 2.107908	 -1.446487	 0.532168	 -0.486901	 0.542815	 -0.457718	 0.508698	 2
1463628818.185	 8	 -1.999154	 -0.492929	 0.665125	 2.199760	 -1.430128	 0.631506	 -0.491718	 0.547225	 -0.449034	 0.507077	 2
1463628818.195	 8	 -1.978634	 0.186033	 0.725618	 2.274216	 -1.412267	 0.706634	 -0.494735	 0.553438	 -0.441819	 0.503726	 2
1463628818.205	 8	 -2.009422	 0.859722	 0.771588	 2.338392	 -1.393235	 0.764726	 -0.496110	 0.561428	 -0.436061	 0.498522	 2
1463628818.215	 8	 -2.081738	 1.533698	 0.840304	 2.397065	 -1.372734	 0.810549	 -0.495932	 0.571319	 -0.431572	 0.491317	 2
1463628818.225	 8	 -2.090316	 2.116269	 0.943850	 2.449431	 -1.350950	 0.843851	 -0.494142	 0.582898	 -0.428202	 0.482386	 2
1463628818.235	 8	 -1.985233	 2.555197	 1.085568	 2.492474	 -1.328630	 0.862826	 -0.490630	 0.595650	 -0.425805	 0.472412	 2
1463628818.245	 8	 -1.805316	 2.780255	 1.245960	 2.524660	 -1.306568	 0.867773	 -0.485507	 0.608928	 -0.424097	 0.462203	 2
1463628818.255	 8	 -1.617078	 2.743553	 1.394252	 2.546316	 -1.285171	 0.861511	 -0.479267	 0.622053	 -0.422552	 0.452552	 2
1463628818.265	 8	 -1.454641	 2.473712	 1.503298	 2.558755	 -1.264546	 0.847790	 -0.472579	 0.634448	 -0.420632	 0.444087	 2
1463628818.275	 8	 -1.321329	 1.943100	 1.575000	 2.562483	 -1.244693	 0.829727	 -0.466188	 0.645545	 -0.417776	 0.437496	 2
1463628818.285	 8	 -1.234622	 1.280569	 1.623500	 2.558057	 -1.225372	 0.809716	 -0.460667	 0.655034	 -0.413546	 0.433240	 2
1463628818.295	 8	 -1.178695	 0.662719	 1.660960	 2.546983	 -1.206286	 0.789246	 -0.456131	 0.663022	 -0.407911	 0.431225	 2
1463628818.305	 8	 -1.099986	 0.143546	 1.674627	 2.530692	 -1.187550	 0.768878	 -0.452429	 0.669671	 -0.401170	 0.431176	 2
1463628818.315	 8	 -0.974195	 -0.280632	 1.606705	 2.511007	 -1.169876	 0.749535	 -0.449488	 0.674956	 -0.393856	 0.432750	 2
1463628818.325	 8	 -0.820622	 -0.632065	 1.461417	 2.489595	 -1.154016	 0.732172	 -0.447336	 0.678808	 -0.386463	 0.435611	 2
1463628818.335	 8	 -0.705129	 -0.893140	 1.293854	 2.467900	 -1.140045	 0.717540	 -0.445999	 0.681358	 -0.379193	 0.439373	 2
1463628818.345	 8	 -0.634424	 -0.973879	 1.189108	 2.446970	 -1.127363	 0.705125	 -0.445130	 0.683136	 -0.372148	 0.443497	 2
1463628818.355	 8	 -0.575192	 -0.839154	 1.164268	 2.427611	 -1.115323	 0.693459	 -0.444088	 0.684844	 -0.365569	 0.447364	 2
1463628818.365	 8	 -0.543938	 -0.569966	 1.189948	 2.410671	 -1.103389	 0.681725	 -0.442438	 0.687014	 -0.359607	 0.450493	 2
1463628818.375	 8	 -0.519876	 -0.252798	 1.228925	 2.396640	 -1.091288	 0.669696	 -0.440020	 0.689894	 -0.354307	 0.452654	 2
1463628818.385	 8	 -0.470290	 0.049371	 1.263278	 2.385317	 -1.079183	 0.657165	 -0.436830	 0.693443	 -0.349732	 0.453877	 2
1463628818.405	 9	 -0.240603	 0.511725	 1.312474	 2.367013	 -1.056245	 0.628176	 -0.428099	 0.701856	 -0.342978	 0.454417	 2
1463628818.415	 9	 -0.056234	 0.688769	 1.307188	 2.358492	 -1.046298	 0.610920	 -0.422630	 0.706288	 -0.341006	 0.454155	 2
1463628818.425	 9	 0.151799	 0.902986	 1.304173	 2.349998	 -1.037752	 0.591276	 -0.416340	 0.710778	 -0.340172	 0.453585	 2
1463628818.435	 9	 0.337567	 1.141789	 1.309040	 2.341921	 -1.030461	 0.569290	 -0.409175	 0.715429	 -0.340486	 0.452557	 2
1463628818.445	 9	 0.460011	 1.314740	 1.301057	 2.334544	 -1.024079	 0.545709	 -0.401321	 0.720227	 -0.341690	 0.451068	 2
1463628818.455	 9	 0.512122	 1.332187	 1.234689	 2.327840	 -1.018446	 0.522188	 -0.393371	 0.724866	 -0.343332	 0.449390	 2
1463628818.465	 9	 0.551882	 1.259982	 1.120700	 2.321578	 -1.013763	 0.499742	 -0.385769	 0.729051	 -0.345216	 0.447765	 2
1463628818.475	 9	 0.610633	 1.165180	 0.978626	 2.315441	 -1.010365	 0.478498	 -0.378674	 0.732615	 -0.347390	 0.446319	 2
1463628818.485	 9	 0.679021	 1.084116	 0.828069	 2.309406	 -1.008455	 0.458333	 -0.372096	 0.735544	 -0.349963	 0.445022	 2
1463628818.495	 9	 0.725084	 1.009602	 0.691623	 2.303573	 -1.007880	 0.439292	 -0.366035	 0.737908	 -0.352882	 0.443829	 2
1463628818.505	 9	 0.742485	 0.948100	 0.577928	 2.298060	 -1.008305	 0.421394	 -0.360454	 0.739829	 -0.356022	 0.442689	 2
1463628818.515	 9	 0.739796	 0.912302	 0.480634	 2.293114	 -1.009439	 0.404693	 -0.355302	 0.741438	 -0.359294	 0.441517	 2
1463628818.525	 9	 0.740423	 0.905176	 0.378249	 2.289062	 -1.011284	 0.389223	 -0.350539	 0.742811	 -0.362747	 0.440192	 2
1463628818.535	 9	 0.753877	 0.907537	 0.269446	 2.285973	 -1.013975	 0.374881	 -0.346138	 0.743954	 -0.366463	 0.438664	 2
1463628818.545	 9	 0.785430	 0.906607	 0.154060	 2.283619	 -1.017669	 0.361462	 -0.342086	 0.744822	 -0.370507	 0.436969	 2
1463628818.555	 9	 0.824561	 0.957519	 0.003921	 2.282561	 -1.022655	 0.349143	 -0.338390	 0.745437	 -0.375049	 0.434919	 2
1463628818.565	 9	 0.875366	 0.994542	 -0.150759	 2.282903	 -1.029137	 0.337999	 -0.335082	 0.745762	 -0.380166	 0.432473	 2
1463628818.575	 9	 0.938739	 0.972073	 -0.290069	 2.283800	 -1.037096	 0.327618	 -0.332163	 0.745686	 -0.385792	 0.429866	 2
1463628818.585	 9	 0.989177	 0.914611	 -0.420000	 2.284792	 -1.046432	 0.318004	 -0.329709	 0.745133	 -0.391806	 0.427266	 2
1463628818.595	 9	 1.036352	 0.820138	 -0.521472	 2.285429	 -1.056920	 0.308986	 -0.327712	 0.744092	 -0.398078	 0.424812	 2
1463628818.605	 9	 1.087910	 0.707933	 -0.573055	 2.284849	 -1.068210	 0.299908	 -0.326057	 0.742575	 -0.404463	 0.422704	 2
1463628818.615	 9	 1.138918	 0.660994	 -0.571805	 2.282723	 -1.079945	 0.289907	 -0.324455	 0.740745	 -0.410945	 0.420892	 2
1463628818.625	 9	 1.109464	 0.700872	 -0.511495	 2.279951	 -1.091299	 0.279028	 -0.322633	 0.738997	 -0.417328	 0.419081	 2
1463628818.635	 9	 0.941663	 0.787196	 -0.409049	 2.278477	 -1.101076	 0.268742	 -0.320557	 0.737812	 -0.423141	 0.416927	 2
1463628818.645	 9	 0.642284	 0.769990	 -0.262724	 2.279290	 -1.108066	 0.260892	 -0.318502	 0.737420	 -0.427683	 0.414554	 2
1463628818.655	 9	 0.339598	 0.697770	 -0.077450	 2.281800	 -1.111702	 0.255716	 -0.316582	 0.737815	 -0.430596	 0.412302	 2
1463628818.665	 9	 0.133245	 0.673242	 0.123416	 2.284867	 -1.112305	 0.251599	 -0.314488	 0.738938	 -0.432165	 0.410246	 2
1463628818.675	 9	 0.016354	 0.807183	 0.359082	 2.287816	 -1.110399	 0.246592	 -0.311721	 0.740821	 -0.432895	 0.408187	 2
1463628818.685	 9	 -0.026311	 1.412994	 0.719990	 2.292356	 -1.105474	 0.237571	 -0.306673	 0.744413	 -0.433472	 0.404849	 2
1463628818.695	 9	 -0.031020	 1.258252	 0.793194	 2.296146	 -1.099316	 0.226225	 -0.300715	 0.748485	 -0.433883	 0.401355	 2
1463628818.705	 9	 -0.114750	 0.112229	 0.688407	 2.292304	 -1.093390	 0.217632	 -0.297449	 0.750513	 -0.432672	 0.401309	 2
1463628818.715	 9	 -0.056899	 0.061850	 0.804668	 2.283800	 -1.087108	 0.207993	 -0.294717	 0.751823	 -0.430847	 0.402833	 2
1463628818.725	 9	 0.002162	 0.322631	 0.855605	 2.276160	 -1.080565	 0.196228	 -0.290923	 0.753649	 -0.429496	 0.403622	 2
1463628818.735	 9	 0.021605	 0.413686	 0.806192	 2.269963	 -1.074434	 0.184767	 -0.286961	 0.755579	 -0.428475	 0.403934	 2
1463628818.745	 9	 0.056246	 0.548399	 0.769843	 2.265308	 -1.068767	 0.173625	 -0.282833	 0.757624	 -0.427809	 0.403722	 2
1463628818.755	 9	 0.154964	 0.690389	 0.736200	 2.261481	 -1.063837	 0.161778	 -0.278353	 0.759720	 -0.427702	 0.403010	 2
1463628818.765	 9	 0.284575	 0.818482	 0.705356	 2.257744	 -1.059935	 0.148461	 -0.273441	 0.761751	 -0.428316	 0.401884	 2
1463628818.775	 9	 0.385003	 0.861629	 0.682503	 2.253606	 -1.056912	 0.133864	 -0.268252	 0.763625	 -0.429486	 0.400575	 2
1463628818.785	 9	 0.431729	 0.819952	 0.674248	 2.248605	 -1.054324	 0.118550	 -0.263031	 0.765276	 -0.430859	 0.399409	 2
1463628818.795	 9	 0.401515	 0.760383	 0.661167	 2.243370	 -1.051746	 0.103599	 -0.257985	 0.766789	 -0.432141	 0.398413	 2
1463628818.805	 9	 0.273695	 0.600026	 0.643736	 2.238653	 -1.048590	 0.090611	 -0.253461	 0.768251	 -0.432878	 0.397698	 2
1463628818.815	 9	 0.141300	 0.183057	 0.585589	 2.232846	 -1.044887	 0.080457	 -0.250150	 0.769236	 -0.432709	 0.398076	 2
1463628818.825	 9	 0.092959	 -0.231452	 0.460656	 2.224961	 -1.041589	 0.072892	 -0.248343	 0.769367	 -0.431939	 0.399786	 2
1463628818.835	 9	 0.126256	 -0.517640	 0.317022	 2.215218	 -1.039463	 0.066874	 -0.247738	 0.768647	 -0.431104	 0.402440	 2
1463628818.845	 9	 0.234657	 -0.493465	 0.174557	 2.205035	 -1.038984	 0.061230	 -0.247674	 0.767399	 -0.430795	 0.405181	 2
1463628818.855	 9	 0.390217	 0.000901	 0.061634	 2.197878	 -1.040348	 0.054561	 -0.246920	 0.766462	 -0.431795	 0.406350	 2
1463628818.865	 9	 0.442322	 0.525206	 -0.071424	 2.196239	 -1.043197	 0.047944	 -0.245285	 0.766298	 -0.434044	 0.405251	 2
1463628818.875	 9	 0.370158	 0.745484	 -0.231807	 2.199741	 -1.047043	 0.043827	 -0.243682	 0.766636	 -0.436797	 0.402611	 2
1463628818.885	 9	 0.278779	 0.756135	 -0.413158	 2.206947	 -1.051783	 0.043318	 -0.242812	 0.767064	 -0.439617	 0.399239	 2
1463628818.895	 9	 0.216645	 0.618971	 -0.579086	 2.215995	 -1.057479	 0.046119	 -0.242966	 0.767217	 -0.442373	 0.395793	 2
1463628818.905	 9	 0.188211	 0.345918	 -0.696482	 2.224728	 -1.063983	 0.051307	 -0.244230	 0.766803	 -0.444943	 0.392925	 2
1463628818.915	 9	 0.186184	 -0.043700	 -0.743786	 2.230847	 -1.070963	 0.057558	 -0.246541	 0.765607	 -0.447185	 0.391266	 2
1463628818.925	 9	 0.230848	 -0.516186	 -0.759229	 2.232337	 -1.078242	 0.063791	 -0.249913	 0.763411	 -0.448983	 0.391359	 2
1463628818.935	 9	 0.402888	 -0.950390	 -0.724269	 2.227111	 -1.086216	 0.067466	 -0.253931	 0.760030	 -0.450700	 0.393373	 2
1463628818.945	 9	 0.703830	 -1.226321	 -0.665511	 2.213795	 -1.095402	 0.065660	 -0.257928	 0.755439	 -0.452904	 0.397069	 2
1463628818.955	 9	 1.023198	 -1.228847	 -0.591580	 2.193410	 -1.105929	 0.056761	 -0.261163	 0.750007	 -0.456073	 0.401598	 2
1463628818.965	 9	 1.212183	 -1.043807	 -0.519032	 2.169173	 -1.117060	 0.041941	 -0.263297	 0.744399	 -0.460113	 0.406006	 2
1463628818.975	 9	 1.211042	 -0.866954	 -0.479009	 2.144537	 -1.127864	 0.024654	 -0.264699	 0.739087	 -0.464440	 0.409855	 2
1463628818.985	 9	 1.075729	 -0.821874	 -0.477411	 2.121580	 -1.137838	 0.008367	 -0.266068	 0.734164	 -0.468440	 0.413249	 2
1463628818.995	 9	 0.894863	 -0.908748	 -0.503289	 2.100698	 -1.146925	 -0.004858	 -0.268019	 0.729458	 -0.471722	 0.416574	 2
1463628819.005	 9	 0.754498	 -1.015868	 -0.517984	 2.081251	 -1.155292	 -0.015339	 -0.270577	 0.724841	 -0.474327	 0.420009	 2
1463628819.015	 9	 0.657934	 -1.110378	 -0.536141	 2.062546	 -1.163222	 -0.023856	 -0.273656	 0.720203	 -0.476421	 0.423607	 2
1463628819.025	 9	 0.586252	 -1.116824	 -0.573944	 2.044999	 -1.171008	 -0.030772	 -0.277067	 0.715611	 -0.478241	 0.427107	 2
1463628819.035	 9	 0.528536	 -1.102053	 -0.613803	 2.028872	 -1.178841	 -0.036281	 -0.280707	 0.711103	 -0.479929	 0.430354	 2
1463628819.045	 9	 0.465425	 -1.109519	 -0.642099	 2.013942	 -1.186670	 -0.040467	 -0.284573	 0.706655	 -0.481453	 0.433428	 2
1463628819.055	 9	 0.354245	 -1.129582	 -0.666896	 2.000952	 -1.194283	 -0.042362	 -0.288766	 0.702337	 -0.482638	 0.436345	 2
1463628819.065	 9	 0.194930	 -1.149709	 -0.720050	 1.991446	 -1.201678	 -0.040279	 -0.293482	 0.698236	 -0.483341	 0.438995	 2
1463628819.075	 9	 0.037768	 -1.149772	 -0.792220	 1.986338	 -1.209063	 -0.033418	 -0.298795	 0.694372	 -0.483603	 0.441244	 2
1463628819.085	 9	 -0.096903	 -1.155028	 -0.837990	 1.985337	 -1.216393	 -0.022215	 -0.304586	 0.690734	 -0.483482	 0.443124	 2
1463628819.095	 9	 -0.147213	 -1.128796	 -0.907648	 1.987296	 -1.223952	 -0.007977	 -0.310722	 0.687178	 -0.483209	 0.444688	 2
1463628819.105	 9	 -0.110745	 -1.056861	 -0.946729	 1.990411	 -1.232041	 0.006752	 -0.316819	 0.683607	 -0.483190	 0.445908	 2
1463628819.115	 9	 0.004708	 -0.880910	 -0.837389	 1.992062	 -1.239904	 0.018408	 -0.322125	 0.680192	 -0.483548	 0.446940	 2
1463628819.125	 9	 0.177891	 -0.682795	 -0.728346	 1.990296	 -1.247298	 0.024203	 -0.326134	 0.677034	 -0.484500	 0.447797	 2
1463628819.135	 9	 0.303732	 -0.761351	 -0.656635	 1.983570	 -1.254615	 0.024745	 -0.329546	 0.673622	 -0.485775	 0.449061	 2
1463628819.145	 9	 0.338450	 -0.928967	 -0.582828	 1.972587	 -1.261424	 0.022579	 -0.332982	 0.669817	 -0.486756	 0.451150	 2
1463628819.155	 9	 0.391492	 -1.001402	 -0.576503	 1.958715	 -1.268162	 0.018397	 -0.336455	 0.665707	 -0.487653	 0.453681	 2
1463628819.165	 9	 0.487246	 -1.039119	 -0.605398	 1.941647	 -1.275416	 0.011346	 -0.339906	 0.661221	 -0.488796	 0.456431	 2
1463628819.175	 9	 0.598336	 -0.992861	 -0.634709	 1.920145	 -1.283186	 -0.000546	 -0.343021	 0.656417	 -0.490414	 0.459290	 2
1463628819.185	 9	 0.652055	 -0.918549	 -0.632353	 1.897189	 -1.291299	 -0.014669	 -0.345926	 0.651584	 -0.492355	 0.461909	 2
1463628819.195	 9	 0.639925	 -0.796019	 -0.607661	 1.873946	 -1.299153	 -0.030220	 -0.348474	 0.647005	 -0.494439	 0.464198	 2
1463628819.205	 9	 0.601533	 -0.618876	 -0.542798	 1.851827	 -1.306285	 -0.046244	 -0.350511	 0.642959	 -0.496551	 0.466029	 2
1463628819.215	 9	 0.577158	 -0.422527	 -0.464019	 1.832183	 -1.311911	 -0.061784	 -0.351801	 0.639777	 -0.498477	 0.467379	 2
1463628819.225	 9	 0.586765	 -0.233967	 -0.418652	 1.811913	 -1.317504	 -0.079845	 -0.352504	 0.636915	 -0.500843	 0.468227	 2
1463628819.235	 9	 0.614328	 -0.054234	 -0.409759	 1.791498	 -1.322879	 -0.099898	 -0.352631	 0.634437	 -0.503557	 0.468584	 2
1463628819.245	 9	 0.642749	 0.108246	 -0.433007	 1.770889	 -1.328365	 -0.121848	 -0.352316	 0.632243	 -0.506687	 0.468413	 2
1463628819.255	 9	 0.657026	 0.236530	 -0.484160	 1.750295	 -1.334214	 -0.145192	 -0.351738	 0.630240	 -0.510218	 0.467712	 2
1463628819.265	 9	 0.643476	 0.141369	 -0.558465	 1.729118	 -1.340590	 -0.168955	 -0.351412	 0.628090	 -0.513853	 0.466870	 2
1463628819.275	 9	 0.582627	 -0.199802	 -0.695396	 1.706310	 -1.347995	 -0.191083	 -0.352399	 0.625093	 -0.517053	 0.466615	 2
1463628819.285	 9	 0.540466	 -0.220698	 -0.807128	 1.684022	 -1.356383	 -0.211537	 -0.354155	 0.621767	 -0.520153	 0.466285	 2
1463628819.295	 9	 0.589559	 -0.157565	 -0.881572	 1.659668	 -1.365597	 -0.234702	 -0.355954	 0.618336	 -0.523650	 0.465562	 2
1463628819.305	 9	 0.632188	 -0.135650	 -0.922238	 1.630975	 -1.375156	 -0.262554	 -0.357681	 0.614744	 -0.527445	 0.464711	 2
1463628819.315	 9	 0.629803	 -0.168787	 -0.945972	 1.598805	 -1.384842	 -0.293709	 -0.359515	 0.611014	 -0.531287	 0.463838	 2
1463628819.325	 9	 0.608318	 -0.205890	 -0.937604	 1.563847	 -1.394319	 -0.327231	 -0.361487	 0.607221	 -0.534980	 0.463040	 2
1463628819.335	 9	 0.577337	 -0.233275	 -0.913077	 1.526635	 -1.403366	 -0.362766	 -0.363509	 0.603476	 -0.538479	 0.462298	 2
1463628819.345	 9	 0.542927	 -0.326443	 -0.867816	 1.486703	 -1.411804	 -0.400136	 -0.365709	 0.599673	 -0.541617	 0.461845	 2
1463628819.355	 9	 0.485383	 -0.366196	 -0.799477	 1.445739	 -1.419417	 -0.437983	 -0.367965	 0.595984	 -0.544351	 0.461613	 2
1463628819.365	 9	 0.382013	 -0.414135	 -0.705236	 1.407432	 -1.426055	 -0.472647	 -0.370284	 0.592588	 -0.546515	 0.461574	 2
1463628819.375	 9	 0.246974	 -0.418121	 -0.576205	 1.376287	 -1.431554	 -0.499845	 -0.372592	 0.589714	 -0.547968	 0.461675	 2
1463628819.385	 9	 0.144379	 -0.353934	 -0.420179	 1.353929	 -1.435726	 -0.518651	 -0.374586	 0.587535	 -0.548826	 0.461820	 2
1463628819.395	 9	 0.092209	 -0.252500	 -0.240799	 1.338911	 -1.438326	 -0.530986	 -0.375968	 0.586064	 -0.549272	 0.462036	 2
1463628819.405	 9	 0.083518	 -0.193875	 -0.080313	 1.328644	 -1.439252	 -0.539277	 -0.376673	 0.585142	 -0.549401	 0.462476	 2
1463628819.415	 9	 0.080701	 -0.202659	 0.027271	 1.320769	 -1.439037	 -0.545239	 -0.377020	 0.584468	 -0.549264	 0.463208	 2
1463628819.425	 9	 0.062582	 -0.280597	 0.125820	 1.315074	 -1.437864	 -0.548426	 -0.377253	 0.583881	 -0.548752	 0.464364	 2
1463628819.435	 9	 -0.025525	 -0.462800	 0.192035	 1.314217	 -1.436140	 -0.545147	 -0.377857	 0.583258	 -0.547567	 0.466053	 2
1463628819.445	 9	 -0.148437	 -0.748376	 0.216026	 1.319743	 -1.434382	 -0.532778	 -0.379352	 0.582409	 -0.545455	 0.468371	 2
1463628819.455	 9	 -0.255541	 -1.056508	 0.216222	 1.330113	 -1.432847	 -0.512419	 -0.381933	 0.581152	 -0.542404	 0.471367	 2
1463628819.465	 9	 -0.314701	 -1.357538	 0.188358	 1.341525	 -1.431638	 -0.487923	 -0.385548	 0.579302	 -0.538601	 0.475048	 2
1463628819.475	 9	 -0.406598	 -1.576652	 0.149818	 1.355047	 -1.430924	 -0.458817	 -0.390096	 0.576977	 -0.534159	 0.479163	 2
1463628819.485	 9	 -0.582078	 -1.663449	 0.136683	 1.377541	 -1.430662	 -0.419432	 -0.395370	 0.574691	 -0.529054	 0.483234	 2
1463628819.495	 9	 -0.789778	 -1.609396	 0.173099	 1.414758	 -1.430361	 -0.365368	 -0.400993	 0.572999	 -0.523294	 0.486867	 2
1463628819.505	 9	 -0.908251	 -1.436315	 0.232226	 1.463936	 -1.429378	 -0.300687	 -0.406407	 0.572116	 -0.517225	 0.489893	 2
1463628819.515	 9	 -0.913214	 -1.192206	 0.304881	 1.516782	 -1.427274	 -0.234635	 -0.411070	 0.571980	 -0.511338	 0.492336	 2
1463628819.525	 9	 -0.868839	 -0.916157	 0.401916	 1.567881	 -1.423758	 -0.173020	 -0.414676	 0.572565	 -0.505849	 0.494298	 2
1463628819.545	 10	 -0.864098	 -0.373817	 0.682954	 1.662525	 -1.411681	 -0.065866	 -0.418419	 0.576353	 -0.495858	 0.496858	 2
1463628819.555	 10	 -1.029019	 -0.196516	 0.865088	 1.713287	 -1.402397	 -0.012017	 -0.419071	 0.579896	 -0.490492	 0.497510	 2
1463628819.565	 10	 -1.285966	 -0.064740	 1.039073	 1.770849	 -1.390503	 0.047417	 -0.419440	 0.584711	 -0.484264	 0.497666	 2
1463628819.575	 10	 -1.551100	 0.122527	 1.234962	 1.833419	 -1.375574	 0.110404	 -0.419495	 0.590935	 -0.477098	 0.497189	 2
1463628819.585	 10	 -1.738835	 0.416048	 1.447154	 1.897143	 -1.356857	 0.171984	 -0.418760	 0.598892	 -0.469096	 0.495900	 2
1463628819.595	 10	 -1.817404	 0.770945	 1.659984	 1.953584	 -1.335538	 0.222888	 -0.416793	 0.608124	 -0.461107	 0.493811	 2
1463628819.605	 10	 -1.839440	 1.121438	 1.875524	 2.002104	 -1.311535	 0.262269	 -0.413361	 0.618644	 -0.453136	 0.490998	 2
1463628819.615	 10	 -1.854130	 1.478012	 2.052689	 2.044114	 -1.285360	 0.291447	 -0.408483	 0.630332	 -0.445298	 0.487373	 2
1463628819.625	 10	 -1.844696	 1.806333	 2.156909	 2.081565	 -1.257795	 0.312571	 -0.402366	 0.642934	 -0.437726	 0.482840	 2
1463628819.635	 10	 -1.751379	 2.080916	 2.218334	 2.114472	 -1.229793	 0.326014	 -0.395111	 0.656038	 -0.430672	 0.477517	 2
1463628819.645	 10	 -1.534711	 2.262598	 2.278887	 2.141019	 -1.202143	 0.330612	 -0.386653	 0.669152	 -0.424356	 0.471866	 2
1463628819.655	 10	 -1.230137	 2.334194	 2.301414	 2.160120	 -1.175726	 0.326159	 -0.377052	 0.681753	 -0.418975	 0.466373	 2
1463628819.665	 10	 -0.952409	 2.238065	 2.211771	 2.172356	 -1.152124	 0.314875	 -0.366978	 0.693084	 -0.414786	 0.461426	 2
1463628819.675	 10	 -0.776058	 1.968429	 2.061717	 2.181230	 -1.130225	 0.302159	 -0.357288	 0.703259	 -0.410825	 0.457160	 2
1463628819.685	 10	 -0.711402	 1.598709	 1.852022	 2.187650	 -1.110476	 0.290467	 -0.348716	 0.711959	 -0.406920	 0.453792	 2
1463628819.695	 10	 -0.723901	 1.213871	 1.579978	 2.193321	 -1.092859	 0.282148	 -0.341775	 0.719225	 -0.402876	 0.451216	 2
1463628819.705	 10	 -0.749504	 0.823260	 1.239785	 2.199219	 -1.077760	 0.278423	 -0.336819	 0.725033	 -0.398767	 0.449294	 2
1463628819.715	 10	 -0.787696	 0.426752	 0.961461	 2.204877	 -1.064917	 0.278890	 -0.333797	 0.729466	 -0.394529	 0.448114	 2
1463628819.725	 10	 -0.830332	 0.096202	 0.829799	 2.209318	 -1.053171	 0.282014	 -0.332177	 0.732882	 -0.389901	 0.447794	 2
1463628819.735	 10	 -0.841899	 -0.092035	 0.828148	 2.211971	 -1.041564	 0.285704	 -0.331152	 0.735751	 -0.384884	 0.448189	 2
1463628819.745	 10	 -0.820313	 -0.091658	 0.888712	 2.213307	 -1.029621	 0.288478	 -0.329997	 0.738540	 -0.379702	 0.448873	 2
1463628819.755	 10	 -0.779796	 0.065107	 0.962290	 2.214609	 -1.017339	 0.289752	 -0.328240	 0.741629	 -0.374698	 0.449273	 2
1463628819.765	 10	 -0.744650	 0.236587	 1.009408	 2.216591	 -1.004809	 0.289770	 -0.325847	 0.745111	 -0.369970	 0.449173	 2
1463628819.775	 10	 -0.694436	 0.286105	 0.964669	 2.219006	 -0.992707	 0.289263	 -0.323245	 0.748644	 -0.365583	 0.448770	 2
1463628819.785	 10	 -0.631899	 0.249296	 0.900902	 2.221054	 -0.981510	 0.288608	 -0.320799	 0.751875	 -0.361520	 0.448413	 2
1463628819.795	 10	 -0.551918	 0.245796	 0.890581	 2.222233	 -0.970955	 0.287095	 -0.318288	 0.754873	 -0.357756	 0.448186	 2
1463628819.805	 10	 -0.486764	 0.250981	 0.898588	 2.222648	 -0.960790	 0.284554	 -0.315578	 0.757746	 -0.354249	 0.448038	 2
1463628819.815	 10	 -0.434532	 0.242284	 0.893790	 2.222427	 -0.950955	 0.281298	 -0.312750	 0.760489	 -0.350928	 0.447989	 2
1463628819.825	 10	 -0.370451	 0.273825	 0.869013	 2.221965	 -0.941630	 0.277496	 -0.309824	 0.763119	 -0.347893	 0.447917	 2
1463628819.835	 10	 -0.270857	 0.377504	 0.832874	 2.221712	 -0.933124	 0.272893	 -0.306677	 0.765708	 -0.345400	 0.447594	 2
1463628819.845	 10	 -0.106749	 0.577832	 0.803468	 2.221982	 -0.925765	 0.266713	 -0.303012	 0.768371	 -0.343803	 0.446754	 2
1463628819.855	 10	 0.116395	 0.839769	 0.786911	 2.222765	 -0.919824	 0.258014	 -0.298515	 0.771183	 -0.343421	 0.445228	 2
1463628819.865	 10	 0.384363	 1.101580	 0.771027	 2.223742	 -0.915603	 0.246170	 -0.293044	 0.774088	 -0.344461	 0.443012	 2
1463628819.875	 10	 0.613629	 1.295501	 0.764441	 2.224417	 -0.912913	 0.231257	 -0.286678	 0.776991	 -0.346746	 0.440305	 2
1463628819.885	 10	 0.780562	 1.437139	 0.709952	 2.225143	 -0.911652	 0.214393	 -0.279766	 0.779813	 -0.350030	 0.437151	 2
1463628819.895	 10	 0.886220	 1.504334	 0.631856	 2.226107	 -0.911753	 0.196753	 -0.272725	 0.782438	 -0.354045	 0.433663	 2
1463628819.905	 10	 0.947071	 1.536886	 0.598591	 2.227094	 -0.912670	 0.178670	 -0.265628	 0.784887	 -0.358458	 0.430002	 2
1463628819.915	 10	 0.990047	 1.577334	 0.620957	 2.226695	 -0.916271	 0.158930	 -0.258595	 0.786618	 -0.364106	 0.426365	 2
1463628819.925	 10	 1.023382	 1.598787	 0.659234	 2.227000	 -0.917343	 0.139195	 -0.250961	 0.788969	 -0.368772	 0.422556	 2
1463628819.935	 10	 1.033095	 1.556775	 0.736559	 2.226309	 -0.917964	 0.118554	 -0.243050	 0.791242	 -0.373282	 0.418956	 2
1463628819.945	 10	 1.011922	 1.505476	 0.840711	 2.224443	 -0.917718	 0.097106	 -0.234857	 0.793467	 -0.377434	 0.415688	 2
1463628819.955	 10	 0.999527	 1.516799	 0.930444	 2.221708	 -0.917150	 0.074763	 -0.226392	 0.795594	 -0.381515	 0.412581	 2
1463628819.965	 10	 1.014815	 1.555347	 0.972234	 2.219089	 -0.915574	 0.051975	 -0.217512	 0.797907	 -0.385269	 0.409391	 2
1463628819.975	 10	 1.059668	 1.550003	 0.986714	 2.216105	 -0.914023	 0.028573	 -0.208436	 0.800103	 -0.389097	 0.406193	 2
1463628819.985	 10	 1.114819	 1.471187	 0.994027	 2.211924	 -0.912677	 0.004419	 -0.199311	 0.801987	 -0.393018	 0.403273	 2
1463628819.995	 10	 1.174006	 1.349757	 0.993444	 2.205833	 -0.912001	 -0.020660	 -0.190312	 0.803338	 -0.397195	 0.400831	 2
1463628820.005	 10	 1.219147	 1.173221	 1.014855	 2.197739	 -0.911007	 -0.046291	 -0.181421	 0.804293	 -0.401173	 0.399074	 2
1463628820.015	 10	 1.224596	 0.941593	 1.049954	 2.187155	 -0.909690	 -0.072420	 -0.172765	 0.804746	 -0.404922	 0.398214	 2
1463628820.025	 10	 1.186748	 0.599316	 1.063085	 2.173695	 -0.907828	 -0.098295	 -0.164689	 0.804593	 -0.408207	 0.398590	 2
1463628820.035	 10	 1.138900	 0.217335	 1.023711	 2.157212	 -0.905701	 -0.123145	 -0.157603	 0.803689	 -0.411012	 0.400393	 2
1463628820.045	 10	 1.073105	 -0.104133	 0.961610	 2.138481	 -0.903470	 -0.146614	 -0.151535	 0.802134	 -0.413416	 0.403367	 2
1463628820.055	 10	 0.957063	 -0.257072	 0.945211	 2.119257	 -0.900713	 -0.168176	 -0.146239	 0.800321	 -0.415294	 0.406977	 2
1463628820.065	 10	 0.810984	 -0.269074	 0.991133	 2.101111	 -0.896647	 -0.187910	 -0.141156	 0.798715	 -0.416477	 0.410703	 2
1463628820.075	 10	 0.771112	 -0.348746	 0.988607	 2.083382	 -0.891895	 -0.206515	 -0.136272	 0.797126	 -0.417291	 0.414593	 2
1463628820.085	 10	 0.727184	 -0.384787	 0.987589	 2.065603	 -0.886876	 -0.224423	 -0.131609	 0.795422	 -0.417951	 0.418688	 2
1463628820.095	 10	 0.571038	 -0.284941	 1.052757	 2.050001	 -0.880606	 -0.240571	 -0.126869	 0.794156	 -0.418007	 0.422482	 2
1463628820.105	 10	 0.450213	 -0.169191	 1.125227	 2.036892	 -0.872908	 -0.255101	 -0.121862	 0.793437	 -0.417429	 0.425864	 2
1463628820.115	 10	 0.379954	 -0.223503	 1.234041	 2.024423	 -0.863866	 -0.268798	 -0.116673	 0.792908	 -0.416290	 0.429403	 2
1463628820.125	 10	 0.492891	 -0.319070	 1.301443	 2.010287	 -0.854151	 -0.283544	 -0.111202	 0.792069	 -0.415113	 0.433522	 2
1463628820.135	 10	 0.714256	 -0.394632	 1.238064	 1.993760	 -0.845489	 -0.300568	 -0.105570	 0.790569	 -0.414780	 0.437965	 2
1463628820.145	 10	 0.881680	 -0.452286	 1.275503	 1.975031	 -0.837406	 -0.319751	 -0.099676	 0.788483	 -0.415130	 0.442748	 2
1463628820.155	 10	 0.996073	 -0.483881	 1.364803	 1.954761	 -0.828697	 -0.340741	 -0.093203	 0.786064	 -0.415720	 0.447876	 2
1463628820.165	 10	 1.053344	 -0.609126	 1.423887	 1.932958	 -0.819402	 -0.362649	 -0.086511	 0.783229	 -0.416397	 0.453521	 2
1463628820.175	 10	 1.036839	 -0.782917	 1.505543	 1.909799	 -0.809038	 -0.384319	 -0.079874	 0.779988	 -0.416769	 0.459938	 2
1463628820.185	 10	 1.006594	 -0.962755	 1.627761	 1.885419	 -0.797228	 -0.405535	 -0.073226	 0.776367	 -0.416685	 0.467189	 2
1463628820.195	 10	 0.852873	 -1.358712	 1.818318	 1.858972	 -0.783004	 -0.425207	 -0.066849	 0.772174	 -0.415560	 0.476013	 2
1463628820.205	 10	 0.813380	 -1.655806	 1.901158	 1.830351	 -0.767023	 -0.443345	 -0.060920	 0.767255	 -0.413645	 0.486319	 2
1463628820.215	 10	 0.876981	 -1.966622	 1.893449	 1.799379	 -0.750670	 -0.461104	 -0.055430	 0.761430	 -0.411698	 0.497651	 2
1463628820.225	 10	 0.965741	 -2.183601	 1.929025	 1.765761	 -0.733931	 -0.479073	 -0.050208	 0.754590	 -0.409881	 0.509971	 2
1463628820.235	 10	 1.111761	 -2.220211	 1.926347	 1.731394	 -0.716777	 -0.497694	 -0.044690	 0.747183	 -0.408375	 0.522446	 2
1463628820.245	 10	 1.327548	 -2.548050	 1.832959	 1.693857	 -0.700209	 -0.517693	 -0.039446	 0.738497	 -0.407667	 0.535606	 2
1463628820.255	 10	 1.532996	 -2.869982	 1.816452	 1.652071	 -0.683645	 -0.539330	 -0.034445	 0.728206	 -0.407676	 0.549845	 2
1463628820.265	 10	 1.666383	 -3.093770	 1.811076	 1.607747	 -0.666497	 -0.561645	 -0.029520	 0.716692	 -0.408050	 0.564781	 2
1463628820.275	 10	 1.690345	 -3.388931	 1.746307	 1.561458	 -0.649071	 -0.583312	 -0.025153	 0.704023	 -0.408546	 0.580353	 2
1463628820.285	 10	 1.661880	 -3.902289	 1.638400	 1.512236	 -0.631746	 -0.603176	 -0.022082	 0.689853	 -0.408920	 0.596992	 2
1463628820.295	 10	 1.680040	 -4.433255	 1.468111	 1.458740	 -0.615076	 -0.621752	 -0.020600	 0.673729	 -0.409430	 0.614843	 2
1463628820.305	 10	 1.542133	 -4.928385	 1.189744	 1.401445	 -0.599727	 -0.638643	 -0.021000	 0.655739	 -0.410078	 0.633562	 2
1463628820.315	 10	 0.898240	 -5.233722	 0.918614	 1.344342	 -0.587391	 -0.648816	 -0.024722	 0.637137	 -0.409591	 0.652442	 2
1463628820.325	 10	 0.050536	 -5.239295	 0.834296	 1.292387	 -0.577819	 -0.648991	 -0.031566	 0.619595	 -0.406603	 0.670656	 2
1463628820.335	 10	 -0.827760	 -5.285261	 0.887344	 1.245297	 -0.571351	 -0.638874	 -0.041623	 0.603135	 -0.400793	 0.688375	 2
1463628820.345	 10	 -1.483842	 -5.464130	 0.890326	 1.200999	 -0.567513	 -0.620365	 -0.054386	 0.587075	 -0.392408	 0.705975	 2
1463628820.355	 10	 -1.957919	 -5.205024	 0.788157	 1.160955	 -0.566948	 -0.596375	 -0.068869	 0.572011	 -0.382482	 0.722335	 2
1463628820.365	 10	 -2.299757	 -4.681962	 0.618018	 1.127360	 -0.570143	 -0.569204	 -0.084192	 0.558857	 -0.371974	 0.736360	 2
1463628820.375	 10	 -2.588838	 -4.109702	 0.506495	 1.100989	 -0.576520	 -0.539486	 -0.099877	 0.547955	 -0.361078	 0.747925	 2
1463628820.385	 10	 -2.746035	 -3.714736	 0.493421	 1.080309	 -0.584746	 -0.507983	 -0.115524	 0.538757	 -0.349821	 0.757642	 2
1463628820.395	 10	 -2.769939	 -3.471140	 0.634445	 1.063107	 -0.592848	 -0.475354	 -0.130583	 0.530424	 -0.338004	 0.766389	 2
1463628820.405	 10	 -2.722581	 -3.187232	 0.936153	 1.049553	 -0.598920	 -0.441495	 -0.144292	 0.523007	 -0.325278	 0.774492	 2
1463628820.415	 10	 -2.603672	 -3.000454	 1.366358	 1.039103	 -0.601351	 -0.406222	 -0.156141	 0.516327	 -0.311264	 0.782394	 2
1463628820.425	 10	 -2.413631	 -2.932657	 1.844928	 1.030217	 -0.599111	 -0.369860	 -0.165876	 0.509886	 -0.295786	 0.790577	 2
1463628820.435	 10	 -2.178901	 -2.846251	 2.267861	 1.022135	 -0.592175	 -0.333132	 -0.173411	 0.503545	 -0.279056	 0.799061	 2
1463628820.445	 10	 -1.884078	 -2.822514	 2.579915	 1.013784	 -0.581120	 -0.297240	 -0.178833	 0.497073	 -0.261574	 0.807784	 2
1463628820.455	 10	 -1.500960	 -2.761585	 2.776444	 1.004115	 -0.566518	 -0.263753	 -0.182111	 0.490257	 -0.244003	 0.816668	 2
1463628820.465	 10	 -0.993771	 -2.560262	 2.876214	 0.993518	 -0.548609	 -0.234330	 -0.182876	 0.483454	 -0.227135	 0.825372	 2
1463628820.475	 10	 -0.356227	 -2.259908	 2.897971	 0.982195	 -0.527294	 -0.210683	 -0.180657	 0.476938	 -0.211734	 0.833704	 2
1463628820.485	 10	 0.331083	 -1.799241	 2.899470	 0.971424	 -0.502394	 -0.193573	 -0.175089	 0.471313	 -0.198273	 0.841366	 2
1463628820.495	 10	 0.959489	 -1.215580	 2.970836	 0.963133	 -0.473535	 -0.182132	 -0.166078	 0.467286	 -0.186540	 0.848095	 2
1463628820.505	 10	 1.518585	 -0.645323	 3.072522	 0.958346	 -0.440651	 -0.175300	 -0.153806	 0.465150	 -0.176175	 0.853781	 2
1463628820.515	 10	 1.998986	 -0.219684	 3.146903	 0.956396	 -0.404219	 -0.172416	 -0.138742	 0.464484	 -0.166919	 0.858571	 2
1463628820.525	 10	 2.468725	 -0.026866	 3.232000	 0.955586	 -0.364508	 -0.173121	 -0.121252	 0.464426	 -0.158528	 0.862830	 2
1463628820.535	 10	 3.001769	 -0.036960	 3.375406	 0.953827	 -0.320688	 -0.177508	 -0.101118	 0.463940	 -0.150738	 0.867072	 2
1463628820.545	 10	 3.477638	 0.030912	 3.540285	 0.951660	 -0.272684	 -0.184977	 -0.078391	 0.463044	 -0.143331	 0.871149	 2
1463628820.555	 10	 3.801821	 0.097905	 3.669174	 0.950301	 -0.221367	 -0.194507	 -0.053608	 0.462062	 -0.136108	 0.874700	 2
1463628820.575	 11	 3.729264	 -0.126299	 3.669851	 0.945973	 -0.116699	 -0.213803	 -0.003095	 0.457715	 -0.121236	 0.880789	 2
1463628820.585	 11	 3.358678	 -0.285832	 3.521321	 0.942924	 -0.067511	 -0.221018	 0.020178	 0.454478	 -0.113432	 0.883276	 2
1463628820.595	 11	 2.752195	 -0.609101	 3.285928	 0.937586	 -0.023258	 -0.224848	 0.040375	 0.450091	 -0.105298	 0.885833	 2
1463628820.605	 11	 2.051494	 -1.154976	 2.969352	 0.927541	 0.014483	 -0.224551	 0.056553	 0.443770	 -0.096984	 0.889081	 2
1463628820.615	 11	 1.491971	 -1.871377	 2.660574	 0.910559	 0.046030	 -0.220860	 0.068989	 0.434641	 -0.088896	 0.893546	 2
1463628820.625	 11	 1.125106	 -2.560929	 2.466581	 0.886225	 0.073129	 -0.214690	 0.078741	 0.422462	 -0.081143	 0.899300	 2
1463628820.645	 11	 0.892873	 -3.329655	 2.409227	 0.822528	 0.121694	 -0.196868	 0.094683	 0.391619	 -0.065722	 0.912880	 2
1463628820.655	 12	 1.007225	 -3.482421	 2.363113	 0.786716	 0.145564	 -0.187306	 0.102619	 0.374321	 -0.058395	 0.919752	 2
1463628820.665	 12	 1.181006	 -3.453708	 2.286198	 0.750624	 0.169761	 -0.178517	 0.111121	 0.356758	 -0.051684	 0.926123	 2
1463628820.675	 12	 1.356616	 -3.261224	 2.206528	 0.716021	 0.194418	 -0.170639	 0.120291	 0.339742	 -0.045550	 0.931681	 2
1463628820.685	 12	 1.517954	 -2.939891	 2.142036	 0.684289	 0.219620	 -0.163513	 0.130127	 0.323943	 -0.039823	 0.936238	 2
1463628820.695	 12	 1.692384	 -2.555863	 2.074809	 0.656288	 0.244402	 -0.157152	 0.140146	 0.309839	 -0.034588	 0.939767	 2
1463628820.705	 12	 1.899798	 -2.164723	 1.974284	 0.632467	 0.265023	 -0.152098	 0.148630	 0.297831	 -0.030605	 0.942480	 2
1463628820.715	 12	 2.077142	 -1.787547	 1.843006	 0.612875	 0.289271	 -0.148626	 0.159201	 0.287488	 -0.026687	 0.944083	 2
1463628820.725	 12	 2.188802	 -1.526186	 1.701641	 0.596543	 0.315171	 -0.146588	 0.170855	 0.278463	 -0.023134	 0.944845	 2
1463628820.735	 12	 2.208259	 -1.365507	 1.572932	 0.582325	 0.340940	 -0.145517	 0.182641	 0.270343	 -0.020055	 0.945069	 2
1463628820.745	 12	 2.122776	 -1.297961	 1.465581	 0.569352	 0.364834	 -0.144798	 0.193628	 0.262869	 -0.017458	 0.945041	 2
1463628820.755	 12	 1.973938	 -1.330066	 1.378112	 0.556057	 0.388332	 -0.143748	 0.204399	 0.255284	 -0.014937	 0.944896	 2
1463628820.765	 12	 1.781065	 -1.450077	 1.324315	 0.541448	 0.410106	 -0.141877	 0.214268	 0.247262	 -0.012550	 0.944878	 2
1463628820.775	 12	 1.560267	 -1.645203	 1.314830	 0.524096	 0.430710	 -0.138461	 0.223411	 0.238191	 -0.010044	 0.945120	 2
1463628820.785	 12	 1.353420	 -1.826519	 1.308549	 0.504135	 0.449375	 -0.133470	 0.231494	 0.228208	 -0.007510	 0.945661	 2
1463628820.795	 12	 1.183010	 -1.939123	 1.258894	 0.482315	 0.466181	 -0.127414	 0.238640	 0.217617	 -0.005096	 0.946397	 2
1463628820.805	 12	 1.055324	 -2.016985	 1.177218	 0.459378	 0.481278	 -0.120944	 0.245003	 0.206685	 -0.002991	 0.947231	 2
1463628820.815	 12	 0.946028	 -2.041726	 1.094810	 0.435882	 0.494870	 -0.114336	 0.250712	 0.195629	 -0.001216	 0.948088	 2
1463628820.825	 12	 0.839297	 -1.986605	 1.025912	 0.412589	 0.507051	 -0.107570	 0.255805	 0.184802	 0.000365	 0.948900	 2
1463628820.835	 12	 0.751059	 -1.854978	 0.954367	 0.390330	 0.517947	 -0.100744	 0.260347	 0.174574	 0.001852	 0.949600	 2
1463628820.845	 12	 0.705797	 -1.653355	 0.872442	 0.370002	 0.527901	 -0.094235	 0.264524	 0.165301	 0.003245	 0.950101	 2
1463628820.855	 12	 0.711968	 -1.409322	 0.792595	 0.352283	 0.537386	 -0.088321	 0.268567	 0.157242	 0.004570	 0.950329	 2
1463628820.865	 12	 0.761016	 -1.137654	 0.727553	 0.337533	 0.546916	 -0.083114	 0.272715	 0.150525	 0.005889	 0.950228	 2
1463628820.875	 12	 0.841049	 -0.876553	 0.684524	 0.325747	 0.556929	 -0.078553	 0.277154	 0.145137	 0.007284	 0.949772	 2
1463628820.885	 12	 0.923123	 -0.666244	 0.678306	 0.316340	 0.567629	 -0.074320	 0.281951	 0.140832	 0.008856	 0.948995	 2
1463628820.895	 12	 0.985707	 -0.540747	 0.702376	 0.308345	 0.579018	 -0.070008	 0.287074	 0.137209	 0.010670	 0.947971	 2
1463628820.905	 12	 0.991348	 -0.519119	 0.753684	 0.300460	 0.590718	 -0.065131	 0.292314	 0.133738	 0.012743	 0.946839	 2
1463628820.915	 12	 0.927330	 -0.563199	 0.809251	 0.291671	 0.602106	 -0.059276	 0.297362	 0.130029	 0.015072	 0.945749	 2
1463628820.925	 12	 0.798018	 -0.627480	 0.839620	 0.281635	 0.612457	 -0.052398	 0.301884	 0.125958	 0.017567	 0.944824	 2
1463628820.935	 12	 0.655729	 -0.687816	 0.822180	 0.270564	 0.621367	 -0.044920	 0.305724	 0.121578	 0.020033	 0.944114	 2
1463628820.955	 13	 0.378625	 -0.673525	 0.627560	 0.248441	 0.634259	 -0.030920	 0.311221	 0.112925	 0.024057	 0.943298	 2
1463628820.965	 13	 0.287705	 -0.601936	 0.489402	 0.238998	 0.638509	 -0.025513	 0.313039	 0.109207	 0.025389	 0.943099	 2
1463628820.975	 13	 0.239770	 -0.470879	 0.355688	 0.231536	 0.641834	 -0.021522	 0.314487	 0.106235	 0.026291	 0.942932	 2
1463628820.985	 13	 0.221066	 -0.276935	 0.252145	 0.226629	 0.644638	 -0.018795	 0.315730	 0.104287	 0.026960	 0.942715	 2
1463628820.995	 13	 0.219570	 -0.091235	 0.192071	 0.224163	 0.647223	 -0.016910	 0.316883	 0.103366	 0.027599	 0.942411	 2
1463628821.005	 13	 0.231717	 0.004375	 0.181132	 0.223074	 0.649852	 -0.015325	 0.318054	 0.103048	 0.028316	 0.942030	 2
1463628821.015	 13	 0.249889	 -0.010385	 0.206415	 0.222017	 0.652685	 -0.013579	 0.319313	 0.102768	 0.029122	 0.941610	 2
1463628821.025	 13	 0.261436	 -0.100400	 0.265159	 0.219857	 0.655774	 -0.011253	 0.320679	 0.102060	 0.030035	 0.941194	 2
1463628821.035	 13	 0.266629	 -0.198742	 0.346263	 0.216098	 0.659076	 -0.007964	 0.322122	 0.100754	 0.031151	 0.940806	 2
1463628821.045	 13	 0.257006	 -0.257800	 0.411874	 0.211041	 0.662475	 -0.003753	 0.323591	 0.098992	 0.032488	 0.940443	 2
1463628821.055	 13	 0.185755	 -0.240266	 0.454222	 0.205480	 0.665431	 0.001233	 0.324829	 0.097135	 0.034077	 0.940154	 2
1463628821.065	 13	 0.063341	 -0.173967	 0.453774	 0.200179	 0.667284	 0.006683	 0.325530	 0.095501	 0.035864	 0.940012	 2
1463628821.075	 13	 -0.068762	 -0.083537	 0.403543	 0.195805	 0.667757	 0.011995	 0.325581	 0.094303	 0.037671	 0.940045	 2
1463628821.085	 13	 -0.179481	 0.038537	 0.325711	 0.192954	 0.666906	 0.016711	 0.325014	 0.093740	 0.039386	 0.940227	 2
1463628821.095	 13	 -0.247608	 0.156098	 0.229348	 0.191924	 0.665107	 0.020440	 0.324013	 0.093882	 0.040893	 0.940494	 2
1463628821.105	 13	 -0.301965	 0.243905	 0.142180	 0.192496	 0.662584	 0.023160	 0.322685	 0.094617	 0.042155	 0.940821	 2
1463628821.115	 13	 -0.367073	 0.272548	 0.105711	 0.193821	 0.659358	 0.025397	 0.321032	 0.095632	 0.043280	 0.941233	 2
1463628821.125	 13	 -0.437577	 0.231500	 0.136850	 0.194709	 0.655479	 0.027965	 0.319061	 0.096497	 0.044461	 0.941760	 2
1463628821.135	 13	 -0.503967	 0.121617	 0.211009	 0.194075	 0.651052	 0.031513	 0.316817	 0.096801	 0.045839	 0.942420	 2
1463628821.145	 13	 -0.553208	 0.037127	 0.273532	 0.191882	 0.646216	 0.036020	 0.314368	 0.096514	 0.047409	 0.943192	 2
1463628821.155	 13	 -0.576670	 0.023580	 0.299131	 0.195604	 0.634470	 0.037145	 0.308674	 0.098523	 0.048015	 0.944832	 2
1463628821.165	 13	 -0.570156	 0.064890	 0.278143	 0.193236	 0.629389	 0.042010	 0.306088	 0.098181	 0.049732	 0.945620	 2
1463628821.175	 13	 -0.498439	 0.163141	 0.215553	 0.192219	 0.624692	 0.046074	 0.303689	 0.098340	 0.051300	 0.946293	 2
1463628821.185	 13	 -0.335186	 0.430290	 0.160132	 0.193858	 0.621403	 0.049047	 0.301941	 0.099577	 0.052816	 0.946640	 2
1463628821.195	 13	 -0.242613	 0.711962	 0.025530	 0.199716	 0.618922	 0.050451	 0.300537	 0.102570	 0.054256	 0.946685	 2
1463628821.205	 13	 -0.139763	 0.664055	 -0.085585	 0.206756	 0.617188	 0.050103	 0.299540	 0.105856	 0.055070	 0.946593	 2
1463628821.215	 13	 -0.063700	 0.540107	 -0.133228	 0.213256	 0.616131	 0.048829	 0.298928	 0.108745	 0.055391	 0.946440	 2
1463628821.225	 13	 0.023745	 0.300609	 -0.127877	 0.226034	 0.591146	 0.042587	 0.287067	 0.114024	 0.053082	 0.949618	 2
1463628821.235	 13	 0.081422	 0.033917	 -0.066915	 0.227683	 0.591656	 0.041389	 0.287334	 0.114632	 0.052776	 0.949481	 2
1463628821.245	 13	 0.073385	 -0.170607	 0.033565	 0.226509	 0.592440	 0.041261	 0.287745	 0.114051	 0.052586	 0.949437	 2
1463628821.255	 13	 0.050924	 -0.271864	 0.141526	 0.223281	 0.593234	 0.042464	 0.288139	 0.112687	 0.052733	 0.949472	 2
