% Gyrometer data recorded with 'snsrlog'
% 
% 
% Label description:
% 	 0: Default Label
% 	 1: still_drop
% 	 2: walk_drop
% 	 3: other
% 	 4: dtw_same
% 	 5: dtw_diff
% 	 6: delete
% 
% Column description:
% 	 1: Seconds.milliseconds since 1970
% 	 2: Number of skipped measurements
% 	 3: Gyro X
% 	 4: Gyro Y
% 	 5: Gyro Z
% 	 6: Roll of the device
% 	 7: Pitch of the device
% 	 8: Yaw of the device
% 	 9: Quaternion X
% 	 10: Quaternion Y
% 	 11: Quaternion Z
% 	 12: Quaternion W
% 	 13: Label used for the current sample
% 
% 
1462092029.453	 0	 -1.943999	 0.197086	 0.996397	 0.124043	 0.634454	 -0.245932	 0.316206	 0.020257	 -0.097124	 0.943488	 2
1462092029.463	 0	 -2.088516	 -0.623187	 1.052902	 0.110655	 0.615255	 -0.230184	 0.306387	 0.017635	 -0.092646	 0.947224	 2
1462092029.473	 0	 -2.220481	 -1.219525	 1.047437	 0.090910	 0.594575	 -0.214777	 0.295596	 0.011832	 -0.089141	 0.951071	 2
1462092029.483	 0	 -2.319661	 -1.370789	 0.975486	 0.069544	 0.572440	 -0.200645	 0.284079	 0.004924	 -0.086256	 0.954900	 2
1462092029.493	 0	 -2.276299	 -1.330503	 0.828409	 0.049780	 0.550035	 -0.188772	 0.272529	 -0.001741	 -0.083948	 0.958477	 2
1462092029.503	 0	 -2.072722	 -1.226106	 0.640033	 0.032530	 0.529012	 -0.179724	 0.261752	 -0.007823	 -0.082374	 0.961582	 2
1462092029.513	 0	 -1.798516	 -1.023494	 0.383748	 0.018926	 0.510473	 -0.173935	 0.252304	 -0.012807	 -0.081660	 0.964111	 2
1462092029.523	 0	 -1.538952	 -0.674776	 0.028769	 0.010112	 0.494433	 -0.172270	 0.244218	 -0.016167	 -0.082179	 0.966097	 2
1462092029.533	 0	 -1.173298	 0.091840	 -0.443677	 0.010743	 0.481702	 -0.175711	 0.238064	 -0.015733	 -0.083932	 0.967488	 2
1462092029.543	 0	 -0.744274	 0.768492	 -0.976129	 0.021088	 0.473033	 -0.185063	 0.234249	 -0.011443	 -0.087362	 0.968176	 2
1462092029.553	 0	 -0.369643	 1.526390	 -1.327237	 0.040646	 0.468126	 -0.199060	 0.232700	 -0.003371	 -0.091946	 0.968187	 2
1462092029.563	 0	 -0.148466	 2.293396	 -1.364656	 0.068645	 0.465418	 -0.214284	 0.232728	 0.008553	 -0.096125	 0.967742	 2
1462092029.573	 0	 -0.045454	 2.725062	 -1.198475	 0.101270	 0.463724	 -0.228150	 0.233611	 0.022816	 -0.099085	 0.966999	 2
1462092029.583	 0	 -0.065240	 2.853432	 -0.958377	 0.134611	 0.462018	 -0.239375	 0.234624	 0.037723	 -0.100679	 0.966122	 2
1462092029.593	 0	 -0.229578	 2.942330	 -0.793057	 0.167651	 0.459003	 -0.248181	 0.235041	 0.052847	 -0.101203	 0.965257	 2
1462092029.603	 0	 -0.492592	 3.041162	 -0.764269	 0.201204	 0.453443	 -0.255674	 0.234299	 0.068551	 -0.101207	 0.964449	 2
1462092029.613	 0	 -0.758320	 2.845969	 -0.801074	 0.233437	 0.444963	 -0.262577	 0.232133	 0.083917	 -0.101342	 0.963744	 2
1462092029.623	 0	 -0.996696	 2.357003	 -0.856836	 0.261027	 0.433808	 -0.269037	 0.228494	 0.097329	 -0.102102	 0.963272	 2
1462092029.633	 0	 -1.215441	 1.987903	 -0.948956	 0.284315	 0.420171	 -0.275376	 0.223504	 0.108918	 -0.103615	 0.963040	 2
1462092029.643	 0	 -1.402681	 1.754697	 -1.062467	 0.304887	 0.404134	 -0.281830	 0.217295	 0.119429	 -0.105821	 0.962975	 2
1462092029.653	 0	 -1.568117	 1.682549	 -1.251403	 0.324537	 0.385951	 -0.289060	 0.210124	 0.129647	 -0.108837	 0.962909	 2
1462092029.663	 0	 -1.756285	 2.030282	 -1.483129	 0.346763	 0.365133	 -0.297482	 0.201998	 0.141272	 -0.112570	 0.962583	 2
1462092029.673	 0	 -1.957782	 2.689947	 -1.679862	 0.375052	 0.341538	 -0.306588	 0.193055	 0.156069	 -0.116525	 0.961662	 2
1462092029.683	 0	 -2.143438	 3.484067	 -1.809405	 0.410719	 0.315320	 -0.315507	 0.183438	 0.174742	 -0.120272	 0.959870	 2
1462092029.693	 0	 -2.260441	 4.265976	 -1.835215	 0.453766	 0.287339	 -0.323155	 0.173504	 0.197281	 -0.123351	 0.956954	 2
1462092029.703	 0	 -2.299817	 4.925958	 -1.779728	 0.506177	 0.255399	 -0.329595	 0.162369	 0.224765	 -0.126077	 0.952482	 2
1462092029.713	 0	 -2.221508	 5.619809	 -1.696152	 0.561401	 0.227285	 -0.333030	 0.153073	 0.253375	 -0.127252	 0.946666	 2
1462092029.723	 0	 -1.936168	 6.345743	 -1.651383	 0.623625	 0.201266	 -0.335580	 0.145251	 0.284977	 -0.127759	 0.938812	 2
1462092029.733	 0	 -1.437043	 6.733541	 -1.654251	 0.690992	 0.178708	 -0.339133	 0.139681	 0.318306	 -0.128362	 0.928813	 2
1462092029.743	 0	 -0.793771	 6.621571	 -1.580962	 0.758709	 0.160792	 -0.344960	 0.136844	 0.350845	 -0.129610	 0.917269	 2
1462092029.753	 0	 -0.130153	 6.250435	 -1.450579	 0.823366	 0.148211	 -0.353373	 0.136936	 0.380915	 -0.131476	 0.904912	 2
1462092029.763	 0	 0.444892	 6.213666	 -1.448467	 0.887055	 0.139386	 -0.365284	 0.139605	 0.409542	 -0.134270	 0.891492	 2
1462092029.773	 0	 0.844175	 6.406818	 -1.638786	 0.952670	 0.131395	 -0.381006	 0.143923	 0.438211	 -0.138353	 0.876422	 2
1462092029.783	 0	 1.039844	 6.757023	 -1.961223	 1.021591	 0.121253	 -0.399864	 0.148715	 0.467756	 -0.143903	 0.859290	 2
1462092029.793	 0	 1.052772	 7.299044	 -2.306928	 1.095426	 0.107087	 -0.420077	 0.153102	 0.499036	 -0.150487	 0.839570	 2
1462092029.803	 0	 0.987784	 7.856036	 -2.673130	 1.174605	 0.088014	 -0.440142	 0.156584	 0.532236	 -0.157755	 0.816897	 2
1462092029.813	 0	 0.927255	 8.064663	 -3.115085	 1.256476	 0.063112	 -0.459438	 0.158616	 0.566184	 -0.166079	 0.791641	 2
1462092029.823	 0	 0.872205	 7.801465	 -3.497532	 1.336315	 0.032717	 -0.477168	 0.158871	 0.598876	 -0.175636	 0.765022	 2
1462092029.833	 0	 0.986264	 7.147798	 -3.828599	 1.409939	 -0.002133	 -0.493687	 0.157550	 0.628566	 -0.186770	 0.738376	 2
1462092029.843	 0	 1.045738	 5.968151	 -4.111863	 1.472340	 -0.040973	 -0.509202	 0.154386	 0.653497	 -0.199911	 0.713542	 2
1462092029.853	 0	 1.047551	 5.014987	 -4.134604	 1.523858	 -0.081577	 -0.522672	 0.149710	 0.673947	 -0.213971	 0.691085	 2
1462092029.863	 0	 0.991105	 4.360860	 -3.865232	 1.567755	 -0.120792	 -0.533779	 0.144632	 0.691066	 -0.227536	 0.670624	 2
1462092029.873	 0	 0.992487	 4.052462	 -3.418362	 1.607523	 -0.156253	 -0.543113	 0.140350	 0.706001	 -0.239718	 0.651460	 2
1462092029.883	 0	 1.201009	 4.137864	 -3.144416	 1.646826	 -0.188843	 -0.552737	 0.137593	 0.719980	 -0.251174	 0.632146	 2
1462092029.893	 0	 1.676359	 4.287928	 -2.939335	 1.686808	 -0.220098	 -0.565509	 0.137002	 0.733287	 -0.263166	 0.611771	 2
1462092029.903	 0	 2.228028	 4.332435	 -2.739098	 1.725985	 -0.250557	 -0.582978	 0.138824	 0.745384	 -0.276312	 0.590578	 2
1462092029.913	 0	 2.596380	 4.214633	 -2.554761	 1.763029	 -0.280538	 -0.604046	 0.142399	 0.755985	 -0.290325	 0.569140	 2
1462092029.923	 0	 2.694705	 3.857309	 -2.361776	 1.796137	 -0.309683	 -0.626290	 0.146626	 0.764791	 -0.304414	 0.548569	 2
1462092029.933	 0	 2.599036	 3.356674	 -2.208935	 1.824243	 -0.337707	 -0.647629	 0.150530	 0.771771	 -0.317971	 0.529721	 2
1462092029.943	 0	 2.414889	 2.699526	 -2.114331	 1.846312	 -0.364787	 -0.666998	 0.153335	 0.776891	 -0.330903	 0.513256	 2
1462092029.953	 0	 2.186437	 1.898098	 -1.986579	 1.861031	 -0.390466	 -0.684109	 0.154693	 0.779993	 -0.343140	 0.499937	 2
1462092029.963	 0	 1.965718	 1.112942	 -1.811849	 1.868151	 -0.414090	 -0.699262	 0.154717	 0.781139	 -0.354605	 0.490041	 2
1462092029.973	 0	 1.759304	 0.420268	 -1.638515	 1.868431	 -0.435462	 -0.712831	 0.153612	 0.780608	 -0.365305	 0.483329	 2
1462092029.983	 0	 1.558491	 -0.168600	 -1.521815	 1.862951	 -0.454932	 -0.724884	 0.151395	 0.778743	 -0.375313	 0.479353	 2
1462092029.993	 0	 1.334498	 -0.647194	 -1.461439	 1.853019	 -0.472992	 -0.735136	 0.147985	 0.775924	 -0.384641	 0.477592	 2
1462092030.003	 0	 1.101499	 -1.020278	 -1.375489	 1.839855	 -0.489621	 -0.743461	 0.143535	 0.772460	 -0.393162	 0.477627	 2
1462092030.023	 1	 0.755711	 -1.288036	 -1.331274	 1.809934	 -0.519659	 -0.754591	 0.132455	 0.765019	 -0.407760	 0.480556	 2
1462092030.033	 1	 0.715418	 -1.279012	 -1.276485	 1.794726	 -0.533900	 -0.759264	 0.126610	 0.761281	 -0.414454	 0.482337	 2
1462092030.043	 1	 0.715000	 -1.230379	 -1.170518	 1.779638	 -0.547152	 -0.764406	 0.121184	 0.757525	 -0.420838	 0.484113	 2
1462092030.053	 1	 0.689269	 -1.181129	 -0.989722	 1.764798	 -0.558749	 -0.770005	 0.116425	 0.753776	 -0.426710	 0.485988	 2
1462092030.063	 1	 0.645307	 -1.201586	 -0.748668	 1.749766	 -0.567932	 -0.775845	 0.112417	 0.749932	 -0.431831	 0.488351	 2
1462092030.073	 1	 0.592523	 -1.277367	 -0.513380	 1.733987	 -0.574583	 -0.781821	 0.109054	 0.745853	 -0.436197	 0.491470	 2
1462092030.083	 1	 0.395249	 -1.422033	 -0.301987	 1.717600	 -0.578799	 -0.786493	 0.105815	 0.741639	 -0.439500	 0.495594	 2
1462092030.093	 1	 0.177742	 -1.589761	 -0.052266	 1.700750	 -0.580301	 -0.789098	 0.102569	 0.737338	 -0.441474	 0.500912	 2
1462092030.103	 1	 -0.157162	 -1.791960	 0.236524	 1.683618	 -0.578596	 -0.788613	 0.099178	 0.733002	 -0.441714	 0.507701	 2
1462092030.113	 1	 -0.900875	 -2.221765	 0.507572	 1.666824	 -0.573482	 -0.781168	 0.094481	 0.728933	 -0.439123	 0.516624	 2
1462092030.123	 1	 -1.897438	 -2.752822	 0.647725	 1.650732	 -0.565841	 -0.762093	 0.086630	 0.725395	 -0.432636	 0.528322	 2
1462092030.133	 1	 -2.310251	 -2.980993	 0.697156	 1.635173	 -0.557359	 -0.736155	 0.076810	 0.722079	 -0.423851	 0.541343	 2
1462092030.143	 1	 -2.040059	 -2.991968	 0.759713	 1.618120	 -0.548765	 -0.711479	 0.067306	 0.718088	 -0.415182	 0.554477	 2
1462092030.153	 1	 -1.348156	 -2.799452	 0.892963	 1.598616	 -0.539649	 -0.693914	 0.060170	 0.712959	 -0.408202	 0.566956	 2
1462092030.163	 1	 -0.614313	 -2.385205	 1.112107	 1.578153	 -0.528962	 -0.684963	 0.056582	 0.707088	 -0.403111	 0.578210	 2
1462092030.173	 1	 -0.138977	 -1.793674	 1.326625	 1.560058	 -0.516221	 -0.682201	 0.056473	 0.701528	 -0.399111	 0.587690	 2
1462092030.183	 1	 -0.020802	 -1.135102	 1.548074	 1.547398	 -0.501309	 -0.681547	 0.059021	 0.697322	 -0.394963	 0.595200	 2
1462092030.193	 1	 -0.014627	 -0.451854	 1.753676	 1.541475	 -0.484251	 -0.680734	 0.063645	 0.694965	 -0.389960	 0.600753	 2
1462092030.203	 1	 0.060113	 0.189670	 1.806954	 1.541945	 -0.466201	 -0.680739	 0.070163	 0.694401	 -0.384693	 0.604066	 2
1462092030.213	 1	 0.019470	 0.700711	 1.714013	 1.547695	 -0.448768	 -0.680504	 0.077372	 0.695419	 -0.379298	 0.605425	 2
1462092030.223	 1	 0.361862	 1.423326	 1.617574	 1.559145	 -0.432379	 -0.682785	 0.086120	 0.698064	 -0.374664	 0.604083	 2
1462092030.233	 1	 1.100397	 1.910206	 1.587965	 1.573131	 -0.416375	 -0.692729	 0.097830	 0.701068	 -0.372222	 0.600319	 2
1462092030.243	 1	 1.566620	 2.202637	 1.474721	 1.588048	 -0.401408	 -0.708929	 0.111508	 0.703922	 -0.371759	 0.594858	 2
1462092030.253	 1	 1.903117	 2.419495	 1.301156	 1.604054	 -0.388462	 -0.728956	 0.126018	 0.706758	 -0.372788	 0.587913	 2
1462092030.263	 1	 2.288240	 2.424468	 1.262679	 1.619385	 -0.376756	 -0.753079	 0.141423	 0.708930	 -0.375222	 0.580195	 2
1462092030.273	 1	 2.751015	 2.492910	 1.354139	 1.633464	 -0.365012	 -0.782044	 0.158325	 0.710059	 -0.378901	 0.571999	 2
1462092030.283	 1	 3.166737	 2.766768	 1.445789	 1.648524	 -0.352915	 -0.815829	 0.177242	 0.710646	 -0.383497	 0.562582	 2
1462092030.293	 1	 3.472977	 3.017657	 1.406024	 1.665413	 -0.341672	 -0.853174	 0.197488	 0.710989	 -0.388853	 0.551621	 2
1462092030.303	 1	 3.715646	 3.198031	 1.296882	 1.683771	 -0.332271	 -0.893167	 0.218364	 0.711057	 -0.394955	 0.539191	 2
1462092030.313	 1	 3.878575	 3.263356	 1.130878	 1.702867	 -0.325313	 -0.934993	 0.239264	 0.710734	 -0.401763	 0.525544	 2
1462092030.323	 1	 3.819221	 3.042113	 0.958814	 1.720792	 -0.320829	 -0.976685	 0.259118	 0.709762	 -0.408966	 0.511705	 2
1462092030.333	 1	 3.462898	 2.496591	 0.830015	 1.735238	 -0.317957	 -1.015240	 0.276654	 0.707962	 -0.415899	 0.499279	 2
1462092030.343	 1	 2.907991	 1.641633	 0.777866	 1.743635	 -0.315346	 -1.048290	 0.290890	 0.705076	 -0.422091	 0.489990	 2
1462092030.353	 1	 2.364413	 0.692051	 0.735395	 1.744500	 -0.312276	 -1.075487	 0.301568	 0.700923	 -0.427666	 0.484629	 2
1462092030.363	 1	 1.883855	 -0.175410	 0.605755	 1.738176	 -0.309347	 -1.097345	 0.308727	 0.695725	 -0.433047	 0.482830	 2
1462092030.373	 1	 1.398330	 -0.914545	 0.419793	 1.725742	 -0.307181	 -1.113921	 0.312417	 0.689889	 -0.438347	 0.484047	 2
1462092030.383	 1	 0.875439	 -1.440762	 0.245730	 1.709230	 -0.305830	 -1.124812	 0.312930	 0.684010	 -0.443181	 0.487643	 2
1462092030.393	 1	 0.377394	 -1.737852	 0.143923	 1.690843	 -0.304838	 -1.130205	 0.310978	 0.678536	 -0.447087	 0.492945	 2
1462092030.403	 1	 0.010466	 -1.906057	 0.121040	 1.671875	 -0.303715	 -1.131287	 0.307436	 0.673518	 -0.449969	 0.499384	 2
1462092030.413	 1	 -0.056644	 -1.900367	 0.145124	 1.652896	 -0.302313	 -1.130751	 0.303412	 0.668645	 -0.452339	 0.506207	 2
1462092030.423	 1	 0.225481	 -1.807686	 0.132873	 1.634061	 -0.301006	 -1.132237	 0.300043	 0.663448	 -0.455195	 0.512453	 2
1462092030.433	 1	 0.783098	 -1.586864	 0.008575	 1.615561	 -0.300864	 -1.138871	 0.298048	 0.657676	 -0.459630	 0.517079	 2
1462092030.443	 1	 1.434124	 -1.207119	 -0.163015	 1.598542	 -0.302537	 -1.152161	 0.297928	 0.651521	 -0.466061	 0.519178	 2
1462092030.453	 1	 1.863239	 -0.829776	 -0.315644	 1.583773	 -0.305640	 -1.170761	 0.299498	 0.645359	 -0.473920	 0.518857	 2
1462092030.463	 1	 1.731981	 -0.657503	 -0.519656	 1.571234	 -0.310443	 -1.189696	 0.301051	 0.639982	 -0.481962	 0.517208	 2
1462092030.473	 1	 1.188069	 -0.664604	 -0.691903	 1.560295	 -0.316909	 -1.203690	 0.300789	 0.636032	 -0.488881	 0.515737	 2
1462092030.483	 1	 0.837771	 -0.651410	 -0.773991	 1.550691	 -0.324388	 -1.213330	 0.299084	 0.633262	 -0.494694	 0.514593	 2
1462092030.493	 1	 0.815924	 -0.564908	 -0.734629	 1.541975	 -0.331689	 -1.222007	 0.297306	 0.630861	 -0.500043	 0.513401	 2
1462092030.503	 1	 0.889348	 -0.442302	 -0.664853	 1.534108	 -0.338223	 -1.231510	 0.296210	 0.628457	 -0.505252	 0.511880	 2
1462092030.513	 1	 0.852880	 -0.317216	 -0.590899	 1.527469	 -0.343941	 -1.240982	 0.295645	 0.626263	 -0.510043	 0.510142	 2
1462092030.523	 1	 0.736215	 -0.181640	 -0.569438	 1.522455	 -0.349309	 -1.249406	 0.295256	 0.624597	 -0.514217	 0.508216	 2
1462092030.533	 1	 0.647791	 -0.132600	 -0.589527	 1.518520	 -0.354843	 -1.256788	 0.294749	 0.623397	 -0.517984	 0.506154	 2
1462092030.543	 1	 0.590614	 -0.287510	 -0.560630	 1.513779	 -0.360179	 -1.263608	 0.293908	 0.622056	 -0.521660	 0.504515	 2
1462092030.553	 1	 0.495727	 -0.524156	 -0.524704	 1.507030	 -0.365179	 -1.269518	 0.292351	 0.620299	 -0.525304	 0.503802	 2
1462092030.563	 1	 0.397671	 -0.769171	 -0.470710	 1.498239	 -0.369706	 -1.274385	 0.290065	 0.618114	 -0.528853	 0.504096	 2
1462092030.573	 1	 0.247997	 -1.025294	 -0.502698	 1.487312	 -0.374369	 -1.277885	 0.286720	 0.615618	 -0.532373	 0.505357	 2
1462092030.583	 1	 0.076506	 -1.145302	 -0.547083	 1.475416	 -0.379614	 -1.279657	 0.282364	 0.613223	 -0.535692	 0.507210	 2
1462092030.593	 1	 -0.069921	 -1.150553	 -0.597014	 1.463779	 -0.385485	 -1.279930	 0.277383	 0.611205	 -0.538693	 0.509213	 2
1462092030.603	 1	 -0.184741	 -1.105140	 -0.541238	 1.452972	 -0.391256	 -1.278907	 0.272238	 0.609551	 -0.541182	 0.511328	 2
1462092030.613	 1	 -0.292834	 -1.041232	 -0.425665	 1.443266	 -0.396088	 -1.276676	 0.267317	 0.608172	 -0.542968	 0.513667	 2
1462092030.623	 1	 -0.440268	 -0.947422	 -0.309472	 1.435010	 -0.399940	 -1.272859	 0.262623	 0.607195	 -0.543909	 0.516242	 2
1462092030.633	 1	 -0.630498	 -0.824158	 -0.255512	 1.428751	 -0.403382	 -1.266974	 0.257977	 0.606914	 -0.543938	 0.518878	 2
1462092030.643	 1	 -0.729859	 -0.627056	 -0.249616	 1.424807	 -0.406841	 -1.259682	 0.253523	 0.607394	 -0.543286	 0.521190	 2
1462092030.653	 1	 -0.680483	 -0.348465	 -0.239993	 1.423450	 -0.410325	 -1.252510	 0.249794	 0.608514	 -0.542330	 0.522678	 2
1462092030.663	 1	 -0.554172	 -0.104719	 -0.164221	 1.424265	 -0.413010	 -1.246487	 0.247268	 0.609912	 -0.541228	 0.523390	 2
1462092030.673	 1	 -0.515587	 0.088272	 -0.082829	 1.426841	 -0.414780	 -1.241082	 0.245712	 0.611538	 -0.539876	 0.523622	 2
1462092030.683	 1	 -0.669136	 0.265930	 0.006488	 1.431759	 -0.415823	 -1.234422	 0.244642	 0.613808	 -0.537755	 0.523650	 2
1462092030.693	 1	 -0.952150	 0.356885	 0.114243	 1.439082	 -0.416125	 -1.224792	 0.243539	 0.616949	 -0.534405	 0.523903	 2
1462092030.703	 1	 -1.226522	 0.265746	 0.195716	 1.447263	 -0.415848	 -1.211955	 0.241839	 0.620609	 -0.529985	 0.524856	 2
1462092030.713	 1	 -1.467406	 0.045717	 0.263975	 1.454606	 -0.415082	 -1.196364	 0.239183	 0.624299	 -0.524832	 0.526872	 2
1462092030.723	 1	 -1.723320	 -0.181814	 0.318440	 1.460718	 -0.413922	 -1.177987	 0.235421	 0.627923	 -0.518987	 0.530039	 2
1462092030.733	 1	 -1.962620	 -0.287025	 0.380293	 1.466503	 -0.412342	 -1.156874	 0.230804	 0.631696	 -0.512331	 0.534047	 2
1462092030.743	 1	 -2.135598	 -0.348908	 0.430248	 1.472494	 -0.410239	 -1.133678	 0.225698	 0.635657	 -0.504934	 0.538555	 2
1462092030.753	 1	 -2.234657	 -0.364095	 0.495980	 1.478614	 -0.407680	 -1.109171	 0.220295	 0.639700	 -0.497011	 0.543354	 2
1462092030.763	 1	 -2.277897	 -0.305037	 0.555523	 1.485261	 -0.404242	 -1.084013	 0.215042	 0.643804	 -0.488586	 0.548231	 2
1462092030.773	 1	 -2.254363	 -0.084787	 0.576552	 1.493597	 -0.400402	 -1.059010	 0.210306	 0.648275	 -0.479866	 0.552485	 2
1462092030.783	 1	 -2.202554	 0.222810	 0.626922	 1.504455	 -0.395916	 -1.034546	 0.206471	 0.653290	 -0.470821	 0.555796	 2
1462092030.793	 1	 -2.049364	 0.623789	 0.835012	 1.518522	 -0.389442	 -1.011406	 0.204385	 0.658830	 -0.461259	 0.558041	 2
1462092030.803	 1	 -1.706733	 1.014670	 1.193762	 1.535279	 -0.379296	 -0.991426	 0.205077	 0.664418	 -0.451278	 0.559322	 2
1462092030.813	 1	 -1.061180	 1.278900	 1.663798	 1.552488	 -0.364223	 -0.977651	 0.209462	 0.669009	 -0.441559	 0.559982	 2
1462092030.823	 1	 -0.311828	 1.473917	 2.018250	 1.568561	 -0.344850	 -0.972174	 0.217690	 0.671982	 -0.432951	 0.560005	 2
1462092030.833	 1	 0.291484	 1.938552	 2.092990	 1.585999	 -0.323941	 -0.973874	 0.229005	 0.674361	 -0.425588	 0.558274	 2
1462092030.843	 1	 0.855838	 2.671046	 1.981922	 1.608282	 -0.303991	 -0.981958	 0.243038	 0.677357	 -0.419485	 0.553311	 2
1462092030.853	 1	 1.325664	 3.509027	 1.858803	 1.637269	 -0.285810	 -0.995655	 0.259643	 0.681506	 -0.414297	 0.544512	 2
1462092030.863	 1	 1.702928	 4.299284	 1.863938	 1.673375	 -0.268688	 -1.013975	 0.278792	 0.686759	 -0.409281	 0.532096	 2
1462092030.873	 1	 1.986403	 4.848730	 1.917739	 1.714994	 -0.252147	 -1.036156	 0.300031	 0.692502	 -0.404068	 0.516867	 2
1462092030.883	 1	 2.001543	 4.910207	 1.894732	 1.758588	 -0.236681	 -1.059943	 0.321703	 0.698033	 -0.398574	 0.500396	 2
1462092030.893	 1	 1.660471	 4.326188	 1.890136	 1.798750	 -0.221968	 -1.081623	 0.341533	 0.702549	 -0.392646	 0.485395	 2
1462092030.903	 1	 1.187636	 3.080818	 2.008424	 1.828933	 -0.205689	 -1.099536	 0.358333	 0.704661	 -0.386494	 0.475051	 2
1462092030.913	 1	 0.795060	 2.058113	 1.917065	 1.849024	 -0.189324	 -1.113504	 0.371647	 0.704806	 -0.380872	 0.469110	 2
1462092030.923	 1	 0.538822	 1.546681	 1.689661	 1.863573	 -0.174175	 -1.124343	 0.382340	 0.704229	 -0.375763	 0.465489	 2
1462092030.933	 1	 0.323963	 1.233817	 1.433903	 1.875223	 -0.160953	 -1.132486	 0.390927	 0.703642	 -0.371098	 0.462980	 2
1462092030.943	 1	 0.108420	 1.314807	 1.075240	 1.887094	 -0.150283	 -1.137615	 0.397744	 0.703969	 -0.366450	 0.460372	 2
1462092030.953	 1	 -0.036077	 1.477898	 0.773208	 1.901207	 -0.142295	 -1.140287	 0.403341	 0.705615	 -0.361605	 0.456799	 2
1462092030.963	 1	 -0.108458	 1.508145	 0.515139	 1.916122	 -0.136523	 -1.141300	 0.407868	 0.708040	 -0.356896	 0.452712	 2
1462092030.973	 1	 -0.073244	 1.445994	 0.319220	 1.930749	 -0.132805	 -1.141729	 0.411563	 0.710760	 -0.352754	 0.448331	 2
1462092030.983	 1	 0.028952	 1.298834	 0.161359	 1.944010	 -0.130940	 -1.142449	 0.414619	 0.713327	 -0.349550	 0.443926	 2
1462092030.993	 1	 0.205237	 1.237696	 0.015378	 1.956226	 -0.131058	 -1.144103	 0.417309	 0.715695	 -0.347414	 0.439246	 2
1462092031.003	 1	 0.438994	 1.334112	 -0.088074	 1.968786	 -0.133107	 -1.147374	 0.420151	 0.718013	 -0.346192	 0.433684	 2
1462092031.013	 1	 0.684242	 1.584882	 -0.168873	 1.983227	 -0.136940	 -1.152580	 0.423579	 0.720502	 -0.345566	 0.426663	 2
1462092031.023	 1	 0.814949	 1.962766	 -0.220849	 2.000863	 -0.142138	 -1.159049	 0.427695	 0.723492	 -0.344949	 0.417908	 2
1462092031.033	 1	 0.737546	 2.327532	 -0.259411	 2.022449	 -0.147413	 -1.164996	 0.432301	 0.727307	 -0.343336	 0.407751	 2
1462092031.043	 1	 0.678667	 2.355839	 -0.339633	 2.045485	 -0.153460	 -1.169800	 0.436567	 0.731611	 -0.341373	 0.397013	 2
1462092031.053	 1	 0.541574	 2.101380	 -0.430331	 2.066734	 -0.159727	 -1.173081	 0.439927	 0.735774	 -0.339519	 0.387075	 2
1462092031.063	 1	 0.367053	 1.620345	 -0.539864	 2.084074	 -0.166204	 -1.174229	 0.441796	 0.739561	 -0.338157	 0.378835	 2
1462092031.073	 1	 0.222863	 1.028434	 -0.673074	 2.095993	 -0.172987	 -1.173241	 0.441894	 0.742751	 -0.337692	 0.372846	 2
1462092031.083	 1	 0.176618	 0.530715	 -0.977848	 2.102947	 -0.181482	 -1.170360	 0.440063	 0.745568	 -0.338578	 0.368561	 2
1462092031.093	 1	 0.324279	 0.225704	 -1.324081	 2.106641	 -0.193573	 -1.166277	 0.436407	 0.748375	 -0.341227	 0.364757	 2
1462092031.103	 1	 0.858339	 0.168406	 -1.675637	 2.108820	 -0.210770	 -1.164188	 0.432053	 0.750919	 -0.346350	 0.359850	 2
1462092031.113	 1	 1.258616	 -0.305559	 -1.897751	 2.107056	 -0.232821	 -1.164857	 0.426890	 0.752552	 -0.354473	 0.354653	 2
1462092031.123	 1	 1.254351	 -0.580591	 -1.838459	 2.101210	 -0.255383	 -1.166334	 0.421105	 0.753268	 -0.363717	 0.350669	 2
1462092031.133	 1	 1.051105	 -0.494749	 -1.523622	 2.095601	 -0.274914	 -1.167855	 0.416005	 0.753694	 -0.371806	 0.347341	 2
1462092031.143	 1	 0.786684	 -0.532733	 -1.148657	 2.090190	 -0.289920	 -1.169122	 0.411861	 0.753784	 -0.378217	 0.345155	 2
1462092031.153	 1	 0.506975	 -0.783086	 -0.877847	 2.082946	 -0.300916	 -1.169559	 0.407978	 0.753372	 -0.383471	 0.344868	 2
1462092031.163	 1	 0.181864	 -1.031196	 -0.755828	 2.073653	 -0.309029	 -1.168003	 0.403612	 0.752760	 -0.387797	 0.346500	 2
1462092031.173	 1	 -0.139344	 -1.129362	 -0.635646	 2.063679	 -0.314602	 -1.164096	 0.398821	 0.752273	 -0.390972	 0.349526	 2
1462092031.193	 2	 -0.781635	 -1.506666	 -0.417214	 2.042435	 -0.318299	 -1.149491	 0.388234	 0.751689	 -0.393789	 0.359400	 2
1462092031.203	 2	 -1.245314	 -2.082733	 -0.401485	 2.026981	 -0.316871	 -1.137070	 0.380887	 0.751147	 -0.394029	 0.368027	 2
1462092031.213	 2	 -1.882660	 -2.502769	 -0.500026	 2.008511	 -0.313713	 -1.118693	 0.371166	 0.750884	 -0.393023	 0.379396	 2
1462092031.223	 2	 -2.488231	 -2.940206	 -0.638439	 1.988033	 -0.309478	 -1.093568	 0.358828	 0.751156	 -0.390504	 0.393083	 2
1462092031.233	 2	 -2.695505	 -3.342516	 -0.758678	 1.964194	 -0.305622	 -1.064780	 0.344403	 0.751112	 -0.387645	 0.408594	 2
1462092031.243	 2	 -2.438048	 -3.428022	 -0.858699	 1.938280	 -0.304001	 -1.036924	 0.329377	 0.750272	 -0.385672	 0.424099	 2
1462092031.253	 2	 -1.904271	 -3.109893	 -0.921135	 1.913087	 -0.305388	 -1.013521	 0.315367	 0.748733	 -0.385151	 0.437723	 2
1462092031.263	 2	 -1.444886	 -2.215575	 -1.053231	 1.894039	 -0.309919	 -0.994779	 0.303410	 0.747795	 -0.385451	 0.447406	 2
1462092031.283	 3	 -0.344864	 -0.854839	 -0.849783	 1.878001	 -0.324527	 -0.970007	 0.286867	 0.749008	 -0.387058	 0.454841	 2
1462092031.293	 3	 0.820970	 -0.637151	 -0.720425	 1.870065	 -0.333111	 -0.973017	 0.283967	 0.747443	 -0.391698	 0.455263	 2
1462092031.303	 3	 1.707188	 0.014549	 -0.842508	 1.863961	 -0.345190	 -0.985957	 0.284077	 0.745163	 -0.399438	 0.452196	 2
1462092031.313	 3	 2.022288	 0.801337	 -0.900810	 1.864231	 -0.359540	 -1.003334	 0.286417	 0.743868	 -0.407924	 0.445224	 2
1462092031.323	 3	 2.025059	 1.068046	 -0.788579	 1.867980	 -0.373264	 -1.021629	 0.289990	 0.743127	 -0.415798	 0.436783	 2
1462092031.333	 3	 1.922732	 1.061185	 -0.749384	 1.872137	 -0.386234	 -1.039348	 0.293667	 0.742447	 -0.423125	 0.428365	 2
1462092031.343	 3	 1.802755	 0.713782	 -0.449961	 1.873941	 -0.397100	 -1.056359	 0.297201	 0.741160	 -0.429876	 0.421379	 2
1462092031.353	 3	 1.576205	 0.412280	 -0.170496	 1.872402	 -0.403937	 -1.072828	 0.300973	 0.738910	 -0.435677	 0.416668	 2
1462092031.363	 3	 1.016979	 -0.058205	 -0.154031	 1.867773	 -0.410580	 -1.084785	 0.302435	 0.736674	 -0.440900	 0.414068	 2
1462092031.373	 3	 0.352783	 -0.493409	 -0.008419	 1.861930	 -0.412496	 -1.089965	 0.302489	 0.734834	 -0.443441	 0.414583	 2
1462092031.383	 3	 -0.016825	 -1.255932	 0.000492	 1.851251	 -0.412537	 -1.090556	 0.300321	 0.732525	 -0.445185	 0.418359	 2
1462092031.393	 3	 -0.188971	 -2.108432	 -0.144491	 1.832991	 -0.413203	 -1.088686	 0.295365	 0.729008	 -0.447711	 0.425279	 2
1462092031.403	 3	 -0.433182	 -2.884938	 -0.252969	 1.807763	 -0.414501	 -1.084231	 0.287691	 0.724342	 -0.450817	 0.435117	 2
1462092031.413	 3	 -0.791064	 -3.345052	 -0.338330	 1.778610	 -0.416067	 -1.076017	 0.277660	 0.719211	 -0.453587	 0.447101	 2
1462092031.423	 3	 -1.086759	 -3.564568	 -0.367651	 1.747357	 -0.419253	 -1.064583	 0.265472	 0.713961	 -0.456165	 0.460105	 2
1462092031.433	 3	 -1.192533	 -3.476952	 -0.500292	 1.712658	 -0.433452	 -1.053164	 0.248983	 0.708634	 -0.462034	 0.471560	 2
1462092031.443	 3	 -1.159517	 -3.253617	 -0.783066	 1.685046	 -0.439707	 -1.039486	 0.235759	 0.704270	 -0.463879	 0.482947	 2
1462092031.453	 3	 -1.049411	 -3.144814	 -1.134718	 1.658705	 -0.449539	 -1.026566	 0.221903	 0.700211	 -0.466476	 0.492812	 2
1462092031.463	 3	 -0.914568	 -3.178976	 -1.536940	 1.631862	 -0.463628	 -1.015028	 0.206944	 0.696036	 -0.470344	 0.501482	 2
1462092031.473	 3	 -0.923390	 -3.092826	 -1.980485	 1.605776	 -0.481861	 -1.003798	 0.190782	 0.692169	 -0.475005	 0.508797	 2
1462092031.483	 3	 -0.925271	 -2.852819	 -2.471683	 1.581646	 -0.505084	 -0.992662	 0.173291	 0.688997	 -0.480475	 0.514195	 2
1462092031.493	 3	 -0.863288	 -2.357228	 -3.039925	 1.561859	 -0.533978	 -0.982488	 0.155072	 0.687100	 -0.486932	 0.516472	 2
1462092031.503	 3	 -0.771408	 -1.766793	 -3.717319	 1.547187	 -0.569529	 -0.973860	 0.136150	 0.686675	 -0.494743	 0.514946	 2
1462092031.513	 3	 -0.695934	 -1.246627	 -4.411211	 1.537516	 -0.612194	 -0.966730	 0.116321	 0.687644	 -0.504033	 0.509476	 2
1462092031.523	 3	 -0.677512	 -0.729470	 -4.956492	 1.532607	 -0.660738	 -0.960475	 0.095773	 0.689750	 -0.514367	 0.500499	 2
1462092031.533	 3	 -0.675305	 -0.201213	 -5.297968	 1.533170	 -0.713205	 -0.954309	 0.075172	 0.692910	 -0.525093	 0.488367	 2
1462092031.543	 3	 -0.649902	 0.308365	 -5.419208	 1.539296	 -0.767424	 -0.947957	 0.055311	 0.696855	 -0.535746	 0.473613	 2
1462092031.553	 3	 -0.587479	 0.809682	 -5.344746	 1.550887	 -0.821276	 -0.941327	 0.036986	 0.701321	 -0.545976	 0.456828	 2
1462092031.563	 3	 -0.472950	 1.122808	 -5.093441	 1.566423	 -0.873004	 -0.934634	 0.020571	 0.705813	 -0.555617	 0.438970	 2
1462092031.573	 3	 -0.259020	 1.286187	 -4.624848	 1.583346	 -0.920523	 -0.929243	 0.006626	 0.709757	 -0.564630	 0.421182	 2
1462092031.583	 3	 0.055896	 0.978420	 -3.964352	 1.595698	 -0.961904	 -0.927385	 -0.005069	 0.712106	 -0.573068	 0.405552	 2
1462092031.593	 3	 0.484022	 0.127763	 -3.173477	 1.595103	 -0.995741	 -0.932561	 -0.015272	 0.711601	 -0.581163	 0.394513	 2
1462092031.603	 3	 0.874380	 -0.769939	 -2.431735	 1.577748	 -1.021949	 -0.946443	 -0.024642	 0.707959	 -0.588987	 0.388949	 2
1462092031.613	 3	 1.131177	 -1.319738	 -1.876364	 1.547384	 -1.041885	 -0.967723	 -0.033199	 0.702134	 -0.596491	 0.387434	 2
1462092031.623	 3	 1.259781	 -1.517372	 -1.504175	 1.509909	 -1.057228	 -0.993812	 -0.040809	 0.695260	 -0.603602	 0.388087	 2
1462092031.633	 3	 1.334362	 -1.510598	 -1.273491	 1.469178	 -1.069354	 -1.023025	 -0.047440	 0.688017	 -0.610394	 0.389616	 2
1462092031.643	 3	 1.405496	 -1.452591	 -1.165928	 1.426407	 -1.079411	 -1.054977	 -0.053289	 0.680598	 -0.617083	 0.391351	 2
1462092031.653	 3	 1.469684	 -1.410314	 -1.176751	 1.381469	 -1.088514	 -1.089771	 -0.058791	 0.672979	 -0.623896	 0.392935	 2
1462092031.663	 3	 1.505555	 -1.414332	 -1.276217	 1.334021	 -1.097505	 -1.127335	 -0.064424	 0.665123	 -0.630921	 0.394207	 2
1462092031.673	 3	 1.531006	 -1.499940	 -1.483993	 1.282877	 -1.107325	 -1.168137	 -0.070804	 0.656897	 -0.638274	 0.395068	 2
1462092031.683	 3	 1.551555	 -1.637301	 -1.790258	 1.226238	 -1.118744	 -1.213439	 -0.078454	 0.648129	 -0.646101	 0.395382	 2
1462092031.693	 3	 1.570740	 -1.772032	 -2.174288	 1.162329	 -1.132293	 -1.264970	 -0.087695	 0.638738	 -0.654517	 0.394881	 2
1462092031.703	 3	 1.544563	 -1.809717	 -2.541033	 1.090778	 -1.147766	 -1.323825	 -0.098360	 0.628917	 -0.663434	 0.393248	 2
1462092031.713	 3	 1.477398	 -1.769158	 -2.841681	 1.012160	 -1.164405	 -1.390237	 -0.110028	 0.618978	 -0.672607	 0.390333	 2
1462092031.723	 3	 1.337011	 -1.535888	 -2.998152	 0.929121	 -1.181181	 -1.462859	 -0.121935	 0.609475	 -0.681669	 0.386005	 2
1462092031.733	 3	 1.132436	 -1.078453	 -2.922840	 0.847715	 -1.196622	 -1.537587	 -0.132733	 0.601211	 -0.690155	 0.380280	 2
1462092031.743	 3	 0.892092	 -0.448266	 -2.653772	 0.774708	 -1.209894	 -1.609238	 -0.141243	 0.594875	 -0.697736	 0.373280	 2
1462092031.753	 3	 0.680141	 0.215700	 -2.262074	 0.715205	 -1.220504	 -1.673294	 -0.146688	 0.590713	 -0.704300	 0.365379	 2
1462092031.763	 3	 0.505229	 0.672482	 -1.971742	 0.667961	 -1.229232	 -1.729658	 -0.149635	 0.588322	 -0.710003	 0.356907	 2
1462092031.773	 3	 0.438224	 0.839700	 -2.113480	 0.621920	 -1.237935	 -1.787055	 -0.151946	 0.586624	 -0.715520	 0.347585	 2
1462092031.783	 3	 0.339294	 0.867269	 -2.604744	 0.563959	 -1.248738	 -1.857317	 -0.155494	 0.584867	 -0.721490	 0.336458	 2
1462092031.793	 3	 0.155293	 0.904074	 -3.030170	 0.492023	 -1.261724	 -1.942441	 -0.160463	 0.583271	 -0.727655	 0.323365	 2
1462092031.803	 3	 -0.239820	 0.840604	 -3.288433	 0.408890	 -1.276874	 -2.038505	 -0.166912	 0.582432	 -0.733108	 0.308976	 2
1462092031.813	 3	 -0.799941	 0.784676	 -3.453532	 0.315362	 -1.295171	 -2.144292	 -0.174939	 0.583123	 -0.737039	 0.293492	 2
1462092031.823	 3	 -1.408834	 0.600820	 -3.385996	 0.212765	 -1.316217	 -2.257427	 -0.184256	 0.585636	 -0.738833	 0.277859	 2
1462092031.833	 3	 -1.973043	 0.339606	 -3.260951	 0.096462	 -1.339521	 -2.381317	 -0.194980	 0.589836	 -0.738264	 0.262759	 2
1462092031.843	 3	 -2.541652	 0.480469	 -2.840108	 -0.029553	 -1.364486	 -2.514538	 -0.205356	 0.596195	 -0.735370	 0.248217	 2
1462092031.853	 3	 -3.119126	 1.244166	 -1.897563	 -0.143628	 -1.392341	 -2.641249	 -0.211696	 0.606089	 -0.730110	 0.234053	 2
1462092031.863	 3	 -3.510540	 1.888664	 -0.450445	 -0.212757	 -1.424595	 -2.729144	 -0.211732	 0.619654	 -0.722428	 0.222028	 2
1462092031.873	 3	 -3.708057	 2.012651	 0.725833	 -0.218060	 -1.461439	 -2.754716	 -0.207058	 0.635491	 -0.712505	 0.213574	 2
1462092031.883	 3	 -3.714339	 2.157895	 1.391209	 -0.133114	 -1.500246	 -2.690609	 -0.199513	 0.652120	 -0.701368	 0.207407	 2
1462092031.893	 3	 -3.668888	 2.449602	 1.740966	 0.253133	 -1.536560	 -2.327696	 -0.189488	 0.668973	 -0.689816	 0.201799	 2
1462092031.903	 3	 -3.722403	 2.588497	 1.805605	 1.728844	 -1.543499	 -0.877211	 -0.178280	 0.685831	 -0.677858	 0.195858	 2
1462092031.913	 3	 -3.859647	 2.481221	 1.770631	 2.347486	 -1.508868	 -0.283340	 -0.167310	 0.702636	 -0.665054	 0.189772	 2
1462092031.923	 3	 -3.990777	 2.066716	 1.759390	 2.519011	 -1.467233	 -0.133240	 -0.157554	 0.719144	 -0.651111	 0.184562	 2
1462092031.933	 3	 -4.004779	 1.354200	 1.767802	 2.593527	 -1.424011	 -0.073777	 -0.149809	 0.734830	 -0.636103	 0.181535	 2
1462092031.943	 3	 -3.711789	 0.387236	 1.720017	 2.625491	 -1.382350	 -0.047887	 -0.144791	 0.748667	 -0.620868	 0.181816	 2
1462092031.953	 3	 -3.010649	 -0.863344	 1.594633	 2.627887	 -1.346379	 -0.040008	 -0.143231	 0.759205	 -0.606881	 0.186514	 2
1462092031.963	 3	 -1.966537	 -2.213134	 1.420578	 2.603018	 -1.319631	 -0.046250	 -0.145423	 0.765198	 -0.595582	 0.196484	 2
1462092031.973	 3	 -1.015311	 -3.319311	 1.215494	 2.556556	 -1.302460	 -0.062586	 -0.150883	 0.766650	 -0.587307	 0.211075	 2
1462092031.983	 3	 -0.497382	 -3.798413	 1.065846	 2.499629	 -1.291298	 -0.083007	 -0.158230	 0.765140	 -0.580949	 0.228084	 2
1462092031.993	 3	 -0.490488	 -3.504563	 1.109019	 2.444124	 -1.280931	 -0.103114	 -0.165089	 0.763075	 -0.574972	 0.244682	 2
1462092032.003	 3	 -0.857196	 -2.663021	 1.285236	 2.400903	 -1.267144	 -0.118006	 -0.169601	 0.762607	 -0.568130	 0.258639	 2
1462092032.013	 3	 -1.313303	 -1.545726	 1.463732	 2.375912	 -1.248616	 -0.124952	 -0.170940	 0.764796	 -0.560086	 0.268647	 2
1462092032.023	 3	 -1.643651	 -0.315211	 1.465265	 2.371854	 -1.227220	 -0.122823	 -0.169272	 0.769606	 -0.551532	 0.273615	 2
1462092032.033	 3	 -1.827111	 0.696070	 1.362206	 2.388459	 -1.207329	 -0.110845	 -0.166018	 0.775965	 -0.543848	 0.273031	 2
1462092032.043	 3	 -1.875804	 1.322960	 1.254427	 2.408554	 -1.184875	 -0.102010	 -0.160362	 0.783676	 -0.535776	 0.270332	 2
1462092032.053	 3	 -1.806485	 1.650447	 1.121519	 2.432499	 -1.163511	 -0.093211	 -0.154054	 0.791571	 -0.528269	 0.265734	 2
1462092032.063	 3	 -1.682354	 1.841566	 0.979404	 2.457759	 -1.143840	 -0.085248	 -0.147556	 0.799202	 -0.521467	 0.259952	 2
1462092032.073	 3	 -1.512946	 1.911226	 0.827239	 2.483039	 -1.126262	 -0.078375	 -0.141140	 0.806308	 -0.515481	 0.253428	 2
1462092032.083	 3	 -1.330597	 1.791459	 0.665738	 2.506866	 -1.111026	 -0.072258	 -0.135311	 0.812619	 -0.510293	 0.246867	 2
1462092032.093	 3	 -1.111374	 1.537851	 0.543170	 2.527320	 -1.098188	 -0.067327	 -0.130335	 0.817930	 -0.505889	 0.240997	 2
1462092032.103	 3	 -0.809899	 1.291528	 0.431677	 2.543278	 -1.088261	 -0.064539	 -0.126109	 0.822074	 -0.502560	 0.236060	 2
1462092032.113	 3	 -0.503959	 1.097219	 0.307840	 2.555485	 -1.081576	 -0.063673	 -0.122516	 0.825071	 -0.500497	 0.231841	 2
1462092032.123	 3	 -0.247831	 0.969061	 0.192512	 2.565161	 -1.077783	 -0.063964	 -0.119481	 0.827120	 -0.499567	 0.228101	 2
1462092032.133	 3	 -0.035861	 0.949794	 0.114818	 2.573487	 -1.076364	 -0.065326	 -0.116655	 0.828486	 -0.499631	 0.224436	 2
1462092032.143	 3	 0.142348	 0.991437	 0.062497	 2.580999	 -1.076747	 -0.067784	 -0.113807	 0.829370	 -0.500495	 0.220676	 2
1462092032.153	 3	 0.349231	 1.266670	 -0.033727	 2.590077	 -1.079332	 -0.070995	 -0.110525	 0.829914	 -0.502414	 0.215886	 2
1462092032.163	 3	 0.502561	 1.529052	 -0.163710	 2.602289	 -1.083991	 -0.073791	 -0.106867	 0.830231	 -0.505286	 0.209721	 2
1462092032.173	 3	 0.633220	 1.738303	 -0.296120	 2.617713	 -1.090512	 -0.075458	 -0.103058	 0.830308	 -0.508941	 0.202352	 2
1462092032.183	 3	 0.749486	 1.844366	 -0.436826	 2.635838	 -1.098757	 -0.075607	 -0.099338	 0.830073	 -0.513254	 0.194116	 2
1462092032.193	 3	 0.892947	 1.853389	 -0.601053	 2.656082	 -1.108893	 -0.073687	 -0.096068	 0.829365	 -0.518218	 0.185405	 2
1462092032.203	 3	 1.135738	 1.904454	 -0.794529	 2.678497	 -1.121804	 -0.069712	 -0.093279	 0.827931	 -0.524211	 0.176161	 2
1462092032.213	 3	 1.441620	 2.198982	 -0.976697	 2.704778	 -1.138118	 -0.063921	 -0.090414	 0.825707	 -0.531603	 0.165626	 2
1462092032.223	 3	 1.801484	 2.835970	 -1.140162	 2.738134	 -1.158194	 -0.056439	 -0.086473	 0.822752	 -0.540689	 0.152501	 2
1462092032.233	 3	 2.229633	 3.904732	 -1.283151	 2.782916	 -1.182474	 -0.046924	 -0.080233	 0.819044	 -0.551772	 0.135192	 2
1462092032.243	 3	 2.792772	 5.566338	 -1.461233	 2.846490	 -1.212027	 -0.033602	 -0.070070	 0.814286	 -0.565357	 0.111354	 2
1462092032.253	 3	 3.283898	 7.452717	 -1.766618	 2.940239	 -1.247099	 -0.008326	 -0.055325	 0.807938	 -0.581298	 0.079173	 2
1462092032.263	 3	 1.923949	 7.560237	 -1.716475	 3.061692	 -1.274240	 0.037872	 -0.038963	 0.802577	 -0.593694	 0.043353	 2
1462092032.273	 3	 -1.505983	 5.209313	 -0.804721	 -3.129370	 -1.266653	 0.073018	 -0.025807	 0.805643	 -0.591604	 0.016679	 2
1462092032.283	 3	 -2.467597	 2.453003	 -0.235828	 -3.089720	 -1.243008	 0.081733	 -0.018117	 0.812669	 -0.582438	 0.002714	 2
1462092032.293	 3	 -2.007978	 0.090532	 0.069639	 -3.086921	 -1.221241	 0.078015	 -0.016279	 0.818974	 -0.573599	 -0.000024	 2
1462092032.303	 3	 -0.988445	 -1.569270	 0.256338	 -3.106131	 -1.208791	 0.070253	 -0.018824	 0.822563	 -0.568337	 0.005374	 2
1462092032.313	 3	 -0.069637	 -2.515089	 0.297088	 -3.137612	 -1.206086	 0.061441	 -0.024170	 0.823258	 -0.566933	 0.015782	 2
1462092032.323	 3	 0.495041	 -2.754449	 0.078923	 3.114399	 -1.209821	 0.057327	 -0.031301	 0.821917	 -0.568082	 0.027476	 2
1462092032.333	 3	 0.789421	 -2.394078	 -0.121715	 3.090559	 -1.217103	 0.058774	 -0.038680	 0.819427	 -0.570632	 0.037717	 2
1462092032.343	 3	 0.994966	 -1.553584	 -0.151920	 3.075446	 -1.226651	 0.061693	 -0.044231	 0.816316	 -0.574167	 0.044770	 2
1462092032.353	 3	 1.098180	 -0.402901	 0.016688	 3.067244	 -1.237436	 0.060537	 -0.046183	 0.813035	 -0.578409	 0.047803	 2
1462092032.363	 3	 1.165427	 1.144598	 0.328956	 3.064810	 -1.248691	 0.050194	 -0.042775	 0.809930	 -0.583170	 0.045790	 2
1462092032.373	 3	 1.315038	 2.564795	 0.574271	 3.068358	 -1.260974	 0.030230	 -0.033781	 0.806780	 -0.588629	 0.038472	 2
1462092032.383	 3	 1.351431	 2.782996	 0.611155	 3.074067	 -1.274159	 0.006597	 -0.022730	 0.803308	 -0.594419	 0.029095	 2
1462092032.393	 3	 0.799114	 1.309332	 0.603317	 3.069646	 -1.283544	 -0.016627	 -0.014874	 0.800669	 -0.598447	 0.023835	 2
1462092032.403	 3	 -0.067487	 -0.745071	 0.614126	 3.045867	 -1.284477	 -0.038675	 -0.013187	 0.800244	 -0.598932	 0.026736	 2
1462092032.413	 3	 -0.723885	 -2.028768	 0.506649	 3.012401	 -1.278155	 -0.055250	 -0.016363	 0.801730	 -0.596415	 0.035351	 2
1462092032.423	 3	 -1.104767	 -2.499376	 0.284973	 2.981719	 -1.267501	 -0.061889	 -0.022411	 0.804317	 -0.591989	 0.046052	 2
1462092032.433	 3	 -1.208507	 -1.874506	 0.023119	 2.964114	 -1.255546	 -0.058046	 -0.028636	 0.807324	 -0.586868	 0.054718	 2
1462092032.443	 3	 -1.032344	 0.304276	 -0.128663	 2.969859	 -1.244913	 -0.048815	 -0.030232	 0.810435	 -0.582412	 0.055479	 2
1462092032.453	 3	 -0.598281	 1.864066	 -0.172282	 2.993847	 -1.238149	 -0.040237	 -0.026480	 0.812892	 -0.579791	 0.048455	 2
1462092032.463	 3	 -0.163195	 1.828470	 -0.211571	 3.019716	 -1.235740	 -0.033110	 -0.021807	 0.814074	 -0.578968	 0.040062	 2
1462092032.473	 3	 0.239566	 0.870410	 -0.307123	 3.038698	 -1.237462	 -0.025209	 -0.019570	 0.813849	 -0.579716	 0.034587	 2
1462092032.483	 3	 0.578900	 -0.573032	 -0.480176	 3.047729	 -1.242837	 -0.013535	 -0.021816	 0.812324	 -0.581793	 0.034208	 2
1462092032.493	 3	 0.850495	 -2.044615	 -0.747754	 3.048866	 -1.251310	 0.005434	 -0.029342	 0.809632	 -0.584895	 0.039157	 2
1462092032.503	 3	 1.006336	 -3.198651	 -0.980462	 3.045066	 -1.261897	 0.032324	 -0.041491	 0.805963	 -0.588517	 0.048474	 2
1462092032.513	 3	 1.052450	 -3.905255	 -1.159027	 3.039720	 -1.273413	 0.066058	 -0.056773	 0.801578	 -0.592104	 0.060524	 2
1462092032.523	 3	 1.031358	 -4.201762	 -1.280968	 3.036205	 -1.285042	 0.105724	 -0.073758	 0.796692	 -0.595320	 0.073725	 2
1462092032.533	 3	 1.079681	 -4.094854	 -1.332616	 3.036611	 -1.296960	 0.149273	 -0.090949	 0.791326	 -0.598347	 0.086674	 2
1462092032.543	 3	 1.291931	 -3.644705	 -1.360116	 3.043522	 -1.310547	 0.195571	 -0.107042	 0.785229	 -0.601942	 0.098100	 2
1462092032.553	 3	 1.657257	 -2.910664	 -1.338349	 3.059053	 -1.327291	 0.243744	 -0.120912	 0.778154	 -0.606952	 0.107083	 2
1462092032.563	 3	 2.093792	 -1.874007	 -1.212072	 3.084098	 -1.347968	 0.291605	 -0.131220	 0.770125	 -0.613964	 0.112856	 2
1462092032.573	 3	 2.451419	 -0.663185	 -1.007819	 3.119441	 -1.372098	 0.337669	 -0.136925	 0.761527	 -0.622999	 0.114888	 2
1462092032.583	 3	 2.652095	 0.538464	 -0.811876	 -3.115461	 -1.398205	 0.384323	 -0.137915	 0.752873	 -0.633542	 0.113075	 2
1462092032.593	 3	 2.714269	 1.639877	 -0.707315	 -3.046423	 -1.424785	 0.440346	 -0.134756	 0.744485	 -0.645007	 0.107464	 2
1462092032.603	 3	 2.698637	 2.602672	 -0.682234	 -2.942669	 -1.450562	 0.521103	 -0.128177	 0.736451	 -0.656931	 0.098244	 2
1462092032.613	 3	 2.656487	 3.436306	 -0.731661	 -2.779454	 -1.474273	 0.652749	 -0.118843	 0.728655	 -0.669026	 0.085689	 2
1462092032.623	 3	 2.609194	 4.070124	 -0.763718	 -2.520635	 -1.493905	 0.873118	 -0.107317	 0.720917	 -0.681035	 0.070384	 2
1462092032.633	 3	 2.571555	 4.460584	 -0.762955	 -2.136561	 -1.506281	 1.214231	 -0.094213	 0.713024	 -0.692728	 0.053367	 2
1462092032.643	 3	 2.524271	 4.625512	 -0.772732	 -1.674184	 -1.507409	 1.631479	 -0.080316	 0.704853	 -0.703896	 0.035512	 2
1462092032.653	 3	 2.416811	 4.515864	 -0.829302	 -1.282863	 -1.496901	 1.977931	 -0.066649	 0.696474	 -0.714265	 0.017532	 2
1462092032.663	 3	 2.255296	 4.057297	 -0.915292	 -1.030784	 -1.479398	 2.188892	 -0.054608	 0.688153	 -0.723507	 0.000534	 2
1462092032.673	 3	 2.172456	 3.515714	 -0.977161	 -0.874395	 -1.458807	 2.309334	 -0.044691	 0.679823	 -0.731861	 -0.014945	 2
1462092032.683	 3	 2.135329	 2.862956	 -0.950939	 -0.769921	 -1.437142	 2.383965	 -0.036996	 0.671412	 -0.739618	 -0.028322	 2
1462092032.693	 3	 1.902931	 -0.136889	 -0.815900	 -0.712904	 -1.416674	 2.433062	 -0.037055	 0.663750	 -0.746264	 -0.033971	 2
1462092032.703	 3	 1.482376	 -3.269662	 -0.606922	 -0.706733	 -1.400335	 2.465842	 -0.049287	 0.658079	 -0.750832	 -0.027460	 2
1462092032.713	 3	 1.148349	 -4.318279	 -0.434724	 -0.723598	 -1.387980	 2.491055	 -0.066656	 0.653784	 -0.753585	 -0.015222	 2
1462092032.723	 3	 0.924664	 -4.111406	 -0.305091	 -0.744424	 -1.378504	 2.512643	 -0.083650	 0.650172	 -0.755164	 -0.002420	 2
1462092032.733	 3	 0.807260	 -3.523198	 -0.201611	 -0.761027	 -1.370912	 2.533247	 -0.098279	 0.646878	 -0.756180	 0.009040	 2
1462092032.743	 3	 0.799298	 -2.771844	 -0.143394	 -0.769450	 -1.364129	 2.554957	 -0.109952	 0.643594	 -0.757203	 0.018449	 2
1462092032.753	 3	 1.003335	 -1.817377	 -0.151209	 -0.764624	 -1.356387	 2.581058	 -0.118160	 0.639739	 -0.759041	 0.025075	 2
1462092032.763	 3	 1.449103	 -0.708662	 -0.204456	 -0.740028	 -1.345409	 2.616371	 -0.122335	 0.634443	 -0.762702	 0.028303	 2
1462092032.773	 3	 1.875673	 0.201002	 -0.287098	 -0.698959	 -1.330274	 2.658611	 -0.122927	 0.627465	 -0.768355	 0.028395	 2
1462092032.783	 3	 2.077344	 0.732544	 -0.388352	 -0.653721	 -1.312087	 2.698885	 -0.121381	 0.619454	 -0.775146	 0.026307	 2
1462092032.793	 3	 2.072869	 0.987199	 -0.474402	 -0.612817	 -1.292599	 2.731591	 -0.118873	 0.611183	 -0.782176	 0.022910	 2
1462092032.803	 3	 1.920394	 1.062751	 -0.530988	 -0.579508	 -1.273424	 2.755355	 -0.116111	 0.603269	 -0.788816	 0.018834	 2
1462092032.813	 3	 1.657814	 1.048654	 -0.527768	 -0.553785	 -1.255974	 2.771260	 -0.113383	 0.596205	 -0.794652	 0.014554	 2
1462092032.823	 3	 1.325922	 0.990569	 -0.458275	 -0.534116	 -1.241415	 2.781379	 -0.110704	 0.590374	 -0.799434	 0.010447	 2
1462092032.833	 3	 0.971468	 0.872169	 -0.355044	 -0.519188	 -1.230342	 2.787562	 -0.108137	 0.585961	 -0.803063	 0.006828	 2
1462092032.843	 3	 0.641600	 0.534608	 -0.249802	 -0.509572	 -1.222701	 2.790975	 -0.106348	 0.582928	 -0.805523	 0.004235	 2
1462092032.853	 3	 0.346971	 -0.241341	 -0.155341	 -0.508410	 -1.218184	 2.792395	 -0.106925	 0.581147	 -0.806735	 0.003793	 2
1462092032.863	 3	 0.078354	 -1.368500	 -0.080362	 -0.519628	 -1.216446	 2.791936	 -0.111561	 0.580486	 -0.806565	 0.006603	 2
1462092032.873	 3	 -0.134349	 -2.425460	 0.017165	 -0.542748	 -1.217123	 2.790458	 -0.120350	 0.580714	 -0.805060	 0.012824	 2
1462092032.883	 3	 -0.300958	 -3.244039	 0.151680	 -0.574417	 -1.219952	 2.789282	 -0.132321	 0.581572	 -0.802360	 0.022005	 2
1462092032.893	 3	 -0.432062	 -3.787145	 0.300171	 -0.611241	 -1.224753	 2.789114	 -0.146285	 0.582853	 -0.798601	 0.033454	 2
1462092032.903	 3	 -0.560028	 -4.077468	 0.400897	 -0.651568	 -1.231243	 2.789019	 -0.161299	 0.584437	 -0.793897	 0.046307	 2
1462092032.913	 3	 -0.852893	 -3.953188	 0.406735	 -0.696189	 -1.239743	 2.784295	 -0.176186	 0.586735	 -0.788171	 0.059041	 2
1462092032.923	 3	 -1.468734	 -3.276123	 0.388556	 -0.747725	 -1.252052	 2.766618	 -0.189101	 0.591060	 -0.781051	 0.069628	 2
1462092032.933	 3	 -2.285501	 -2.229227	 0.393686	 -0.809584	 -1.269550	 2.727930	 -0.198417	 0.598578	 -0.772317	 0.076567	 2
1462092032.943	 3	 -3.167307	 -1.170435	 0.399493	 -0.889225	 -1.291999	 2.659721	 -0.203842	 0.609720	 -0.761827	 0.079438	 2
1462092032.953	 3	 -4.037486	 -0.318389	 0.354249	 -1.000026	 -1.317421	 2.550160	 -0.206131	 0.624334	 -0.749371	 0.078483	 2
1462092032.963	 3	 -4.681884	 0.487874	 0.246931	 -1.155015	 -1.341433	 2.387875	 -0.206026	 0.641590	 -0.735148	 0.073982	 2
1462092032.973	 3	 -4.900283	 1.569356	 0.129939	 -1.345928	 -1.358321	 2.178959	 -0.202497	 0.659912	 -0.720583	 0.065358	 2
1462092032.983	 3	 -4.906394	 2.568880	 0.090268	 -1.552504	 -1.365232	 1.944037	 -0.195341	 0.678215	 -0.706439	 0.053012	 2
1462092032.993	 3	 -4.862132	 3.352649	 0.092913	 -1.752749	 -1.362127	 1.707022	 -0.185033	 0.696064	 -0.692697	 0.037787	 2
1462092033.003	 3	 -4.791591	 3.833145	 0.086112	 -1.929538	 -1.350054	 1.487946	 -0.172637	 0.713186	 -0.679070	 0.020646	 2
1462092033.013	 3	 -4.684905	 4.066703	 0.069239	 -2.073600	 -1.330957	 1.298714	 -0.159130	 0.729323	 -0.665401	 0.002484	 2
1462092033.023	 3	 -4.488732	 4.076335	 0.010069	 -2.183358	 -1.307075	 1.143186	 -0.145407	 0.744175	 -0.651772	 -0.015946	 2
1462092033.033	 3	 -4.168407	 3.773418	 -0.124496	 -2.261896	 -1.280537	 1.021284	 -0.132702	 0.757364	 -0.638477	 -0.033719	 2
1462092033.043	 3	 -3.747442	 2.935627	 -0.348044	 -2.316654	 -1.252955	 0.930544	 -0.122936	 0.768716	 -0.625730	 -0.049236	 2
1462092033.053	 3	 -3.266785	 1.602269	 -0.537290	 -2.358056	 -1.225872	 0.866085	 -0.117863	 0.778381	 -0.613667	 -0.060375	 2
1462092033.063	 3	 -2.796618	 -0.007890	 -0.620312	 -2.396231	 -1.200668	 0.820987	 -0.118075	 0.786745	 -0.602327	 -0.065525	 2
1462092033.073	 3	 -2.406941	 -1.613534	 -0.553385	 -2.438997	 -1.178123	 0.788157	 -0.123218	 0.794251	 -0.591524	 -0.063898	 2
1462092033.083	 3	 -2.053648	 -2.704119	 -0.317221	 -2.488343	 -1.158987	 0.761458	 -0.131376	 0.801043	 -0.581272	 -0.056514	 2
1462092033.093	 3	 -1.397282	 -2.651447	 0.171002	 -2.537409	 -1.146373	 0.737799	 -0.138747	 0.806347	 -0.573058	 -0.046455	 2
1462092033.103	 3	 -0.644254	 -1.849759	 0.730365	 -2.579024	 -1.142826	 0.714741	 -0.142035	 0.809542	 -0.568418	 -0.036988	 2
1462092033.113	 3	 -0.207813	 -1.194829	 1.018284	 -2.613896	 -1.145338	 0.691063	 -0.141842	 0.811281	 -0.566444	 -0.029054	 2
1462092033.123	 3	 -0.166841	 -1.065539	 0.970105	 -2.645477	 -1.148915	 0.668046	 -0.140760	 0.812552	 -0.565208	 -0.022029	 2
1462092033.133	 3	 -0.503044	 -1.530208	 0.705465	 -2.678839	 -1.148969	 0.646639	 -0.141451	 0.814356	 -0.562678	 -0.014485	 2
1462092033.143	 3	 -0.984963	 -2.061940	 0.374327	 -2.715688	 -1.143124	 0.627633	 -0.145018	 0.817203	 -0.557777	 -0.005860	 2
1462092033.153	 3	 -1.364756	 -2.044623	 0.115617	 -2.750941	 -1.132065	 0.611773	 -0.150084	 0.820895	 -0.551000	 0.002215	 2
1462092033.163	 3	 -1.554275	 -1.566814	 -0.073321	 -2.779129	 -1.117840	 0.599432	 -0.154904	 0.824985	 -0.543452	 0.007996	 2
1462092033.173	 3	 -1.610170	 -1.091092	 -0.202694	 -2.798881	 -1.102195	 0.590751	 -0.158950	 0.829109	 -0.535898	 0.011212	 2
1462092033.183	 3	 -1.580772	 -0.757068	 -0.183855	 -2.813735	 -1.086488	 0.583428	 -0.162096	 0.833140	 -0.528618	 0.012870	 2
1462092033.193	 3	 -1.443203	 -0.462728	 -0.020318	 -2.826678	 -1.072187	 0.574864	 -0.163896	 0.836948	 -0.521984	 0.013732	 2
1462092033.203	 3	 -1.221734	 -0.051441	 0.170221	 -2.837524	 -1.060380	 0.564314	 -0.163873	 0.840363	 -0.516477	 0.013686	 2
1462092033.213	 3	 -1.009699	 0.483559	 0.256483	 -2.843732	 -1.050974	 0.553248	 -0.162043	 0.843308	 -0.512279	 0.012004	 2
1462092033.223	 3	 -0.826707	 1.057244	 0.238912	 -2.843121	 -1.043374	 0.543372	 -0.158696	 0.845780	 -0.509321	 0.008071	 2
1462092033.233	 3	 -0.661510	 1.555860	 0.129143	 -2.834928	 -1.037156	 0.536214	 -0.154382	 0.847724	 -0.507471	 0.001847	 2
1462092033.243	 3	 -0.499085	 1.947876	 -0.014633	 -2.819491	 -1.032079	 0.532564	 -0.149581	 0.849088	 -0.506590	 -0.006392	 2
1462092033.253	 3	 -0.312682	 2.194327	 -0.127999	 -2.798413	 -1.028327	 0.532158	 -0.144570	 0.849808	 -0.506625	 -0.016018	 2
1462092033.263	 3	 -0.079103	 2.223987	 -0.196900	 -2.774053	 -1.026358	 0.534525	 -0.139670	 0.849803	 -0.507589	 -0.026074	 2
1462092033.273	 3	 0.252303	 1.938651	 -0.249334	 -2.749158	 -1.026996	 0.539902	 -0.135531	 0.848918	 -0.509639	 -0.035178	 2
1462092033.283	 3	 0.639251	 1.469933	 -0.340194	 -2.724915	 -1.030745	 0.549675	 -0.132918	 0.847010	 -0.512946	 -0.042350	 2
1462092033.293	 3	 0.973308	 1.099231	 -0.429682	 -2.700575	 -1.037168	 0.564265	 -0.131820	 0.844167	 -0.517416	 -0.047807	 2
1462092033.303	 3	 1.208320	 0.932531	 -0.441805	 -2.675497	 -1.045628	 0.582209	 -0.131485	 0.840625	 -0.522811	 -0.052239	 2
1462092033.313	 3	 1.293297	 1.002043	 -0.355572	 -2.649537	 -1.055243	 0.600929	 -0.130884	 0.836739	 -0.528722	 -0.056480	 2
1462092033.323	 3	 1.263069	 1.466018	 -0.187929	 -2.621895	 -1.065224	 0.617786	 -0.128810	 0.832821	 -0.534802	 -0.061682	 2
1462092033.333	 3	 1.453112	 3.517005	 0.083153	 -2.580295	 -1.077145	 0.632326	 -0.121442	 0.828144	 -0.542344	 -0.072749	 2
1462092033.343	 3	 1.497660	 5.627861	 0.190891	 -2.514348	 -1.090928	 0.647568	 -0.106980	 0.821856	 -0.551775	 -0.093021	 2
1462092033.353	 3	 0.489881	 3.873495	 0.304837	 -2.463097	 -1.098943	 0.653635	 -0.093582	 0.817420	 -0.557511	 -0.110673	 2
1462092033.363	 3	 -0.911852	 0.645764	 0.516146	 -2.463564	 -1.097313	 0.637721	 -0.087550	 0.818474	 -0.556014	 -0.115255	 2
1462092033.373	 3	 -1.488445	 -0.544026	 0.776535	 -2.494527	 -1.090732	 0.606799	 -0.084793	 0.822830	 -0.550560	 -0.112447	 2
1462092033.383	 3	 -1.600661	 -0.428171	 0.867048	 -2.530955	 -1.082818	 0.571701	 -0.081846	 0.827864	 -0.544204	 -0.108561	 2
1462092033.393	 3	 -1.328888	 0.174100	 0.867089	 -2.558930	 -1.076046	 0.539635	 -0.077391	 0.832012	 -0.538833	 -0.106888	 2
1462092033.403	 3	 -0.947688	 0.550723	 0.742581	 -2.576818	 -1.071514	 0.513920	 -0.072299	 0.834862	 -0.535070	 -0.107140	 2
1462092033.413	 3	 -0.482661	 0.501612	 0.465240	 -2.585548	 -1.069284	 0.497674	 -0.068236	 0.836365	 -0.533035	 -0.108213	 2
1462092033.423	 3	 0.075012	 0.179983	 0.193082	 -2.587777	 -1.069981	 0.492354	 -0.066483	 0.836520	 -0.532940	 -0.108581	 2
1462092033.433	 3	 0.831010	 0.378928	 0.065788	 -2.579962	 -1.075837	 0.497830	 -0.065659	 0.834688	 -0.535741	 -0.109391	 2
1462092033.443	 3	 1.465955	 0.555072	 0.118384	 -2.562602	 -1.087504	 0.511441	 -0.064570	 0.830849	 -0.541492	 -0.110938	 2
1462092033.453	 3	 1.724064	 0.547553	 0.359061	 -2.543606	 -1.103149	 0.526591	 -0.062794	 0.826038	 -0.548815	 -0.111895	 2
1462092033.463	 3	 1.209232	 -0.062151	 0.702111	 -2.536265	 -1.118172	 0.533202	 -0.060677	 0.822270	 -0.554985	 -0.110367	 2
1462092033.473	 3	 0.283801	 -0.050480	 0.910641	 -2.546775	 -1.127254	 0.522988	 -0.057704	 0.821212	 -0.557477	 -0.107241	 2
1462092033.483	 3	 -0.205549	 -0.196688	 0.938053	 -2.565729	 -1.131398	 0.503028	 -0.054030	 0.821873	 -0.557432	 -0.104284	 2
1462092033.493	 3	 -0.079617	 -0.965086	 0.777403	 -2.589913	 -1.134684	 0.484783	 -0.052686	 0.822861	 -0.557092	 -0.098860	 2
1462092033.503	 3	 0.123118	 -1.448171	 0.537740	 -2.613802	 -1.138483	 0.473595	 -0.054088	 0.823440	 -0.557356	 -0.091514	 2
1462092033.513	 3	 0.147802	 -1.150623	 0.218434	 -2.630615	 -1.141293	 0.469008	 -0.056420	 0.823669	 -0.557755	 -0.085413	 2
1462092033.523	 3	 0.134688	 -0.636721	 -0.201909	 -2.634907	 -1.142031	 0.472531	 -0.058947	 0.823579	 -0.558059	 -0.082544	 2
1462092033.533	 3	 0.154036	 -0.553050	 -0.535948	 -2.629921	 -1.141071	 0.484037	 -0.062451	 0.823245	 -0.558318	 -0.081542	 2
1462092033.543	 3	 0.143841	 -0.770092	 -0.695612	 -2.622775	 -1.139095	 0.499635	 -0.067206	 0.822898	 -0.558435	 -0.080455	 2
1462092033.553	 3	 0.100715	 -1.063740	 -0.725679	 -2.617840	 -1.136448	 0.516010	 -0.073016	 0.822723	 -0.558261	 -0.078363	 2
1462092033.563	 3	 0.061445	 -1.303489	 -0.655096	 -2.617021	 -1.133669	 0.530639	 -0.079286	 0.822753	 -0.557810	 -0.075098	 2
1462092033.573	 3	 0.065721	 -1.556395	 -0.621251	 -2.619725	 -1.131075	 0.544134	 -0.086043	 0.822866	 -0.557219	 -0.070677	 2
1462092033.583	 3	 0.115791	 -1.802225	 -0.619711	 -2.624705	 -1.128869	 0.557899	 -0.093478	 0.822902	 -0.556637	 -0.065186	 2
1462092033.593	 3	 0.202603	 -1.975625	 -0.589042	 -2.631205	 -1.127478	 0.572165	 -0.101400	 0.822712	 -0.556243	 -0.058792	 2
1462092033.603	 3	 0.323395	 -2.012519	 -0.494518	 -2.638751	 -1.127490	 0.586075	 -0.109217	 0.822186	 -0.556235	 -0.051818	 2
1462092033.613	 3	 0.572780	 -1.706284	 -0.405382	 -2.644360	 -1.129762	 0.600180	 -0.116173	 0.821033	 -0.557107	 -0.045172	 2
1462092033.623	 3	 1.685503	 0.419445	 -0.600982	 -2.621786	 -1.139065	 0.626977	 -0.119157	 0.816939	 -0.562470	 -0.045170	 2
1462092033.633	 3	 2.777465	 1.602149	 -0.603747	 -2.566161	 -1.157446	 0.672335	 -0.118286	 0.809015	 -0.573478	 -0.051250	 2
1462092033.643	 3	 3.250964	 1.285935	 -0.310267	 -2.501714	 -1.181268	 0.726831	 -0.116558	 0.799204	 -0.586961	 -0.056255	 2
1462092033.653	 3	 3.280751	 0.475286	 -0.176323	 -2.439541	 -1.205835	 0.786416	 -0.116247	 0.789140	 -0.600356	 -0.057600	 2
1462092033.663	 3	 3.293238	 0.073250	 -0.316591	 -2.373314	 -1.228354	 0.855651	 -0.117855	 0.779002	 -0.613203	 -0.056997	 2
1462092033.673	 3	 3.536162	 0.389063	 -0.522525	 -2.288285	 -1.248781	 0.942649	 -0.119822	 0.767909	 -0.626621	 -0.057486	 2
1462092033.683	 3	 3.812537	 0.870829	 -0.564145	 -2.178400	 -1.267420	 1.050166	 -0.120681	 0.755455	 -0.641198	 -0.059907	 2
1462092033.693	 3	 3.931875	 1.182989	 -0.443977	 -2.050235	 -1.283626	 1.172542	 -0.119993	 0.742245	 -0.656262	 -0.063194	 2
1462092033.703	 3	 3.900437	 1.215766	 -0.336811	 -1.913001	 -1.296631	 1.302928	 -0.118197	 0.729010	 -0.670969	 -0.066139	 2
1462092033.713	 3	 3.698663	 0.884219	 -0.230493	 -1.771471	 -1.304694	 1.439636	 -0.116871	 0.715926	 -0.684941	 -0.068161	 2
1462092033.723	 3	 3.271187	 0.203505	 -0.110542	 -1.642640	 -1.307905	 1.569019	 -0.117169	 0.703988	 -0.697166	 -0.068063	 2
1462092033.733	 3	 2.613414	 -0.657353	 0.008671	 -1.543271	 -1.308289	 1.676469	 -0.119723	 0.694331	 -0.706648	 -0.064954	 2
1462092033.743	 3	 1.821760	 -1.384950	 0.116435	 -1.480238	 -1.308003	 1.754396	 -0.124375	 0.687593	 -0.712913	 -0.059176	 2
1462092033.753	 3	 1.090262	 -1.758924	 0.171547	 -1.449797	 -1.308258	 1.803364	 -0.130198	 0.683656	 -0.716210	 -0.052027	 2
1462092033.763	 3	 0.575431	 -1.878456	 0.200495	 -1.441973	 -1.309315	 1.830727	 -0.136373	 0.681760	 -0.717372	 -0.044523	 2
1462092033.773	 3	 0.303525	 -1.834023	 0.204342	 -1.446363	 -1.310914	 1.845344	 -0.142383	 0.681014	 -0.717329	 -0.037230	 2
1462092033.783	 3	 0.338931	 -1.750478	 0.152589	 -1.451679	 -1.312206	 1.858168	 -0.148215	 0.680322	 -0.717127	 -0.030373	 2
1462092033.793	 3	 0.647563	 -1.619169	 0.050942	 -1.446975	 -1.312325	 1.880186	 -0.153968	 0.678609	 -0.717779	 -0.024032	 2
1462092033.803	 3	 1.101849	 -1.352370	 -0.081620	 -1.424731	 -1.310523	 1.917980	 -0.159370	 0.675184	 -0.719987	 -0.018599	 2
1462092033.813	 3	 1.498260	 -0.933120	 -0.188812	 -1.384440	 -1.306585	 1.970529	 -0.163811	 0.670055	 -0.723866	 -0.014530	 2
1462092033.823	 3	 1.692478	 -0.422613	 -0.260356	 -1.332618	 -1.300698	 2.029984	 -0.166745	 0.663867	 -0.728922	 -0.012206	 2
1462092033.833	 3	 1.702276	 0.100395	 -0.296073	 -1.276951	 -1.293416	 2.088112	 -0.167912	 0.657381	 -0.734519	 -0.011737	 2
1462092033.843	 3	 1.626739	 0.603689	 -0.298193	 -1.221362	 -1.285371	 2.140972	 -0.167219	 0.651029	 -0.740290	 -0.013032	 2
1462092033.853	 3	 1.562685	 1.045324	 -0.291394	 -1.166450	 -1.276842	 2.188469	 -0.164794	 0.644863	 -0.746152	 -0.015858	 2
1462092033.863	 3	 1.565372	 1.408894	 -0.315744	 -1.111358	 -1.267543	 2.232233	 -0.160945	 0.638658	 -0.752205	 -0.019989	 2
1462092033.873	 3	 1.687076	 1.465566	 -0.371696	 -1.056088	 -1.256670	 2.274722	 -0.156676	 0.631980	 -0.758579	 -0.024723	 2
1462092033.883	 3	 1.853361	 1.045382	 -0.459118	 -1.004237	 -1.243603	 2.316910	 -0.153788	 0.624580	 -0.765132	 -0.028687	 2
1462092033.893	 3	 1.950135	 0.158341	 -0.565199	 -0.962544	 -1.228401	 2.356772	 -0.154195	 0.616681	 -0.771360	 -0.030525	 2
1462092033.903	 3	 1.858350	 -0.875008	 -0.682723	 -0.937004	 -1.212064	 2.390598	 -0.158890	 0.608930	 -0.776581	 -0.029658	 2
1462092033.913	 3	 1.588381	 -1.670685	 -0.805010	 -0.929166	 -1.195932	 2.415000	 -0.167287	 0.602034	 -0.780289	 -0.026795	 2
1462092033.923	 3	 1.286318	 -2.052338	 -0.901850	 -0.934935	 -1.180733	 2.430129	 -0.177842	 0.596208	 -0.782543	 -0.023142	 2
1462092033.933	 3	 1.041714	 -2.076279	 -0.928719	 -0.947657	 -1.166794	 2.439005	 -0.188891	 0.591283	 -0.783787	 -0.019549	 2
1462092033.943	 3	 0.908314	 -1.846186	 -0.933942	 -0.961724	 -1.153790	 2.444548	 -0.199233	 0.586896	 -0.784590	 -0.016664	 2
1462092033.953	 3	 0.939768	 -1.509148	 -0.938540	 -0.972649	 -1.140846	 2.450060	 -0.208306	 0.582451	 -0.785584	 -0.014741	 2
1462092033.963	 3	 1.087397	 -1.207512	 -0.938085	 -0.978110	 -1.127203	 2.458137	 -0.216125	 0.577425	 -0.787201	 -0.013611	 2
1462092033.973	 3	 1.183108	 -1.067269	 -0.920561	 -0.979649	 -1.112998	 2.468489	 -0.223146	 0.571880	 -0.789300	 -0.012865	 2
1462092033.983	 3	 1.099560	 -1.186743	 -0.855934	 -0.981999	 -1.099434	 2.478622	 -0.230212	 0.566487	 -0.791174	 -0.011790	 2
1462092033.993	 3	 0.925612	 -1.519282	 -0.728556	 -0.988770	 -1.087699	 2.487015	 -0.238054	 0.561829	 -0.792203	 -0.009671	 2
1462092034.003	 3	 0.668920	 -2.031881	 -0.530728	 -1.001914	 -1.078746	 2.493575	 -0.247218	 0.558243	 -0.791969	 -0.005776	 2
1462092034.013	 3	 0.122859	 -2.604042	 -0.303224	 -1.025722	 -1.074185	 2.494543	 -0.257985	 0.556712	 -0.789630	 0.000017	 2
1462092034.023	 3	 -0.697928	 -2.841253	 -0.052094	 -1.062666	 -1.075592	 2.484539	 -0.269397	 0.558408	 -0.784576	 0.006765	 2
1462092034.033	 3	 -1.548857	 -2.457214	 0.200816	 -1.109606	 -1.083054	 2.460730	 -0.279211	 0.563708	 -0.777246	 0.012737	 2
1462092034.043	 3	 -2.293983	 -1.564229	 0.424503	 -1.161319	 -1.095315	 2.422719	 -0.285283	 0.572266	 -0.768674	 0.016300	 2
1462092034.053	 3	 -3.031483	 -0.789969	 0.559626	 -1.219226	 -1.110835	 2.368572	 -0.287632	 0.583808	 -0.759043	 0.017033	 2
1462092034.063	 3	 -3.879243	 -0.446952	 0.584054	 -1.292435	 -1.127688	 2.292887	 -0.288140	 0.598389	 -0.747440	 0.015449	 2
1462092034.073	 3	 -4.768015	 -0.196390	 0.602650	 -1.387507	 -1.143906	 2.191079	 -0.287653	 0.616055	 -0.733205	 0.011939	 2
1462092034.083	 3	 -5.635889	 0.600071	 0.666643	 -1.502593	 -1.157102	 2.061172	 -0.284591	 0.636639	 -0.716707	 0.005401	 2
1462092034.093	 3	 -6.465615	 1.924770	 0.840730	 -1.631031	 -1.165232	 1.903973	 -0.276449	 0.659887	 -0.698636	 -0.005719	 2
1462092034.103	 3	 -7.222847	 3.183745	 1.074322	 -1.768321	 -1.166215	 1.723210	 -0.262613	 0.685316	 -0.678908	 -0.021450	 2
1462092034.113	 3	 -7.610268	 3.965504	 1.211795	 -1.905835	 -1.157818	 1.531996	 -0.244586	 0.711449	 -0.657566	 -0.040313	 2
1462092034.123	 3	 -7.421006	 3.827661	 1.200339	 -2.031287	 -1.139821	 1.351419	 -0.225617	 0.736152	 -0.635327	 -0.059471	 2
1462092034.133	 3	 -6.580975	 2.859396	 1.047597	 -2.136937	 -1.115775	 1.199906	 -0.209449	 0.757625	 -0.613585	 -0.075158	 2
1462092034.143	 3	 -5.218772	 1.618478	 0.762012	 -2.217943	 -1.090857	 1.087476	 -0.198120	 0.774557	 -0.594527	 -0.085722	 2
1462092034.153	 3	 -3.755766	 0.108547	 0.381390	 -2.278561	 -1.068855	 1.013003	 -0.192920	 0.786881	 -0.579178	 -0.090293	 2
1462092034.163	 3	 -2.505551	 -1.633350	 -0.098653	 -2.328015	 -1.050342	 0.970013	 -0.194976	 0.795471	 -0.566950	 -0.088193	 2
1462092034.173	 3	 -1.463033	 -3.087261	 -0.550761	 -2.371246	 -1.035145	 0.951961	 -0.203788	 0.801012	 -0.557164	 -0.080116	 2
1462092034.183	 3	 -0.536209	 -3.665148	 -0.810400	 -2.406507	 -1.024423	 0.952638	 -0.216471	 0.803648	 -0.550072	 -0.068634	 2
1462092034.193	 3	 0.172752	 -3.308211	 -0.877197	 -2.430193	 -1.018791	 0.965297	 -0.229413	 0.803723	 -0.546016	 -0.057139	 2
1462092034.203	 3	 0.518122	 -2.253133	 -0.887438	 -2.440031	 -1.016531	 0.983720	 -0.240036	 0.802118	 -0.544620	 -0.048768	 2
1462092034.213	 3	 0.536366	 -0.842061	 -0.926689	 -2.435078	 -1.014787	 1.003702	 -0.247109	 0.799792	 -0.545137	 -0.045777	 2
1462092034.223	 3	 0.415092	 0.378182	 -0.936659	 -2.417944	 -1.012013	 1.022658	 -0.250678	 0.797376	 -0.546835	 -0.048201	 2
1462092034.233	 3	 0.294462	 0.738756	 -0.837401	 -2.396968	 -1.008617	 1.038914	 -0.252246	 0.795206	 -0.548823	 -0.053040	 2
1462092034.243	 3	 0.014932	 -0.142400	 -0.577792	 -2.386667	 -1.004930	 1.049265	 -0.254457	 0.794038	 -0.549268	 -0.055323	 2
1462092034.253	 3	 -0.645586	 -1.572559	 -0.203806	 -2.400758	 -0.999516	 1.047319	 -0.258898	 0.795279	 -0.545732	 -0.051774	 2
1462092034.263	 3	 -1.310694	 -1.988497	 -0.042021	 -2.431367	 -0.990432	 1.034200	 -0.264203	 0.798794	 -0.538554	 -0.045655	 2
1462092034.273	 3	 -1.750137	 -1.515777	 -0.007152	 -2.463775	 -0.977592	 1.015273	 -0.268352	 0.803561	 -0.529695	 -0.041235	 2
1462092034.283	 3	 -1.917390	 -0.825631	 0.052949	 -2.491170	 -0.962930	 0.994184	 -0.270454	 0.808771	 -0.520741	 -0.039660	 2
1462092034.293	 3	 -1.913071	 -0.204969	 0.134356	 -2.512210	 -0.948233	 0.972787	 -0.270533	 0.813945	 -0.512508	 -0.040513	 2
1462092034.303	 3	 -1.988358	 0.509505	 0.213066	 -2.526834	 -0.933421	 0.950703	 -0.268506	 0.819129	 -0.504974	 -0.043978	 2
1462092034.313	 3	 -2.023577	 1.085898	 0.333838	 -2.535720	 -0.918578	 0.927459	 -0.264394	 0.824351	 -0.498047	 -0.049909	 2
1462092034.323	 3	 -1.954951	 1.323381	 0.402593	 -2.541682	 -0.904515	 0.903728	 -0.259045	 0.829438	 -0.491631	 -0.056805	 2
1462092034.333	 3	 -1.755787	 1.343168	 0.278481	 -2.544253	 -0.891331	 0.883191	 -0.253894	 0.833859	 -0.485928	 -0.063967	 2
1462092034.343	 3	 -1.395637	 1.040751	 0.228835	 -2.545418	 -0.880196	 0.866865	 -0.249660	 0.837392	 -0.481176	 -0.070100	 2
1462092034.353	 3	 -0.946780	 0.803520	 0.403899	 -2.547630	 -0.873411	 0.853147	 -0.245830	 0.840047	 -0.477914	 -0.074070	 2
1462092034.363	 3	 -0.556213	 0.811657	 0.656371	 -2.549779	 -0.871337	 0.839765	 -0.241138	 0.842027	 -0.476381	 -0.076845	 2
1462092034.373	 3	 -0.112458	 0.613883	 0.843570	 -2.552369	 -0.873865	 0.827487	 -0.236070	 0.843259	 -0.476536	 -0.078093	 2
1462092034.383	 3	 0.365016	 0.297124	 1.063472	 -2.557106	 -0.881512	 0.816483	 -0.231021	 0.843702	 -0.478405	 -0.076967	 2
1462092034.393	 3	 0.822293	 0.069147	 1.198050	 -2.563149	 -0.893840	 0.807151	 -0.226069	 0.843297	 -0.481963	 -0.073857	 2
1462092034.403	 3	 1.355573	 -0.083759	 1.301758	 -2.568821	 -0.910994	 0.800563	 -0.221249	 0.841793	 -0.487489	 -0.069191	 2
1462092034.413	 3	 1.929932	 -0.066055	 1.335289	 -2.571737	 -0.933225	 0.797955	 -0.216439	 0.838896	 -0.495340	 -0.063607	 2
1462092034.423	 3	 2.495158	 0.363612	 1.266157	 -2.566983	 -0.960059	 0.801166	 -0.211204	 0.834314	 -0.505828	 -0.058743	 2
1462092034.433	 3	 2.993891	 1.293420	 1.057314	 -2.546987	 -0.990185	 0.812781	 -0.204727	 0.827817	 -0.519166	 -0.057202	 2
1462092034.443	 3	 3.399622	 2.481393	 0.770686	 -2.505929	 -1.022043	 0.835555	 -0.196479	 0.819308	 -0.535212	 -0.060648	 2
1462092034.453	 3	 3.482541	 2.505877	 0.660418	 -2.451639	 -1.053769	 0.867555	 -0.187596	 0.809585	 -0.552248	 -0.066344	 2
1462092034.463	 3	 2.755192	 0.201212	 0.830748	 -2.417882	 -1.081546	 0.895952	 -0.183029	 0.801614	 -0.565411	 -0.065008	 2
1462092034.473	 3	 1.061318	 -2.537469	 1.334775	 -2.436430	 -1.100544	 0.897678	 -0.184424	 0.799069	 -0.569866	 -0.052245	 2
1462092034.483	 3	 -0.065702	 -2.161728	 1.944911	 -2.486143	 -1.113182	 0.868991	 -0.184140	 0.800762	 -0.568750	 -0.037358	 2
1462092034.493	 3	 -0.782480	 -0.404789	 2.368228	 -2.540306	 -1.121540	 0.818404	 -0.177335	 0.804745	 -0.565824	 -0.027960	 2
1462092034.503	 3	 -1.137528	 1.039404	 2.345325	 -2.586769	 -1.125595	 0.758876	 -0.165564	 0.809697	 -0.562451	 -0.025081	 2
1462092034.513	 3	 -1.163230	 1.599082	 1.925517	 -2.621050	 -1.125917	 0.703943	 -0.152806	 0.814447	 -0.559128	 -0.026495	 2
1462092034.523	 3	 -0.840434	 1.237005	 1.407771	 -2.644964	 -1.125195	 0.662380	 -0.142648	 0.817996	 -0.556528	 -0.028472	 2
1462092034.533	 3	 -0.415291	 0.645620	 1.137455	 -2.664222	 -1.126160	 0.632231	 -0.135480	 0.820163	 -0.555112	 -0.028779	 2
1462092034.543	 3	 -0.075121	 0.362950	 0.869685	 -2.679435	 -1.129116	 0.610958	 -0.130461	 0.821150	 -0.554900	 -0.027893	 2
1462092034.553	 3	 0.107481	 0.508147	 0.725569	 -2.688246	 -1.132949	 0.596251	 -0.126220	 0.821371	 -0.555566	 -0.027668	 2
1462092034.563	 3	 0.344613	 0.932472	 0.813779	 -2.692926	 -1.138881	 0.582004	 -0.120686	 0.820990	 -0.557305	 -0.028661	 2
1462092034.573	 3	 0.635619	 1.098514	 0.801067	 -2.692419	 -1.147580	 0.570563	 -0.114419	 0.819687	 -0.560436	 -0.030550	 2
1462092034.583	 3	 0.245953	 0.604113	 0.814780	 -2.697317	 -1.154612	 0.556872	 -0.109039	 0.818916	 -0.562596	 -0.031181	 2
1462092034.593	 3	 -0.247683	 0.087930	 1.009309	 -2.716539	 -1.157292	 0.533837	 -0.104582	 0.819814	 -0.562234	 -0.029336	 2
1462092034.603	 3	 -0.759393	 -0.026486	 1.011634	 -2.743463	 -1.155787	 0.504572	 -0.100350	 0.822047	 -0.559869	 -0.026733	 2
1462092034.613	 3	 -1.510495	 0.159358	 1.108362	 -2.775827	 -1.147525	 0.468127	 -0.095519	 0.826234	 -0.554616	 -0.024785	 2
1462092034.623	 3	 -2.079070	 0.362669	 1.194070	 -2.811772	 -1.133133	 0.425055	 -0.089428	 0.832162	 -0.546761	 -0.023718	 2
1462092034.633	 3	 -1.905270	 0.533773	 0.952221	 -2.840352	 -1.117156	 0.388098	 -0.083641	 0.838008	 -0.538683	 -0.023816	 2
1462092034.643	 3	 -1.126655	 2.294244	 1.440351	 -2.855060	 -1.108112	 0.353235	 -0.073933	 0.841790	 -0.533982	 -0.028032	 2
1462092034.653	 3	 0.075108	 4.405449	 1.917403	 -2.852591	 -1.110991	 0.311765	 -0.055515	 0.842379	 -0.534535	 -0.039842	 2
1462092034.663	 3	 1.431826	 5.161002	 1.639785	 -2.829426	 -1.126533	 0.281341	 -0.034923	 0.838624	 -0.540678	 -0.056184	 2
1462092034.673	 3	 2.388467	 4.344939	 1.109099	 -2.792864	 -1.151535	 0.270091	 -0.017619	 0.831253	 -0.550932	 -0.071993	 2
1462092034.683	 3	 2.034137	 1.584663	 0.351123	 -2.763191	 -1.173917	 0.277109	 -0.009781	 0.824320	 -0.560363	 -0.079970	 2
1462092034.693	 3	 1.388357	 -0.571424	 -0.076833	 -2.750317	 -1.188146	 0.292168	 -0.010674	 0.820041	 -0.566663	 -0.079447	 2
1462092034.703	 3	 1.027835	 -1.737393	 -0.257197	 -2.749685	 -1.197478	 0.309052	 -0.016279	 0.817474	 -0.570982	 -0.073832	 2
1462092034.713	 3	 0.810220	 -2.437321	 -0.208528	 -2.758186	 -1.204544	 0.324353	 -0.024096	 0.815769	 -0.574192	 -0.065150	 2
1462092034.723	 3	 0.804067	 -2.494846	 -0.076855	 -2.773493	 -1.211399	 0.335072	 -0.032036	 0.814278	 -0.576974	 -0.055013	 2
1462092034.733	 3	 1.386753	 -1.993879	 -0.133752	 -2.780557	 -1.222288	 0.350401	 -0.038992	 0.811307	 -0.581470	 -0.046398	 2
1462092034.743	 3	 2.215442	 -1.137432	 -0.205470	 -2.768806	 -1.240391	 0.377340	 -0.044187	 0.805679	 -0.589276	 -0.041011	 2
1462092034.753	 3	 2.748551	 -0.433858	 -0.357034	 -2.735182	 -1.263653	 0.418777	 -0.047694	 0.797860	 -0.599683	 -0.039052	 2
1462092034.763	 3	 2.793504	 -0.358881	 -0.413213	 -2.687904	 -1.287505	 0.471777	 -0.050892	 0.789323	 -0.610670	 -0.038230	 2
1462092034.773	 3	 2.508898	 -0.550254	 -0.370951	 -2.638028	 -1.308725	 0.528726	 -0.054417	 0.781345	 -0.620634	 -0.036779	 2
1462092034.783	 3	 2.197739	 -0.739211	 -0.299660	 -2.590188	 -1.326753	 0.585329	 -0.058231	 0.774285	 -0.629212	 -0.034422	 2
1462092034.793	 3	 1.988914	 -0.905475	 -0.284468	 -2.543116	 -1.342252	 0.642652	 -0.062400	 0.767918	 -0.636730	 -0.031369	 2
1462092034.803	 3	 1.983062	 -1.047697	 -0.245242	 -2.492774	 -1.356736	 0.704695	 -0.066946	 0.761676	 -0.643897	 -0.027667	 2
1462092034.813	 3	 2.136782	 -1.078640	 -0.196777	 -2.433321	 -1.371749	 0.776450	 -0.071477	 0.754970	 -0.651428	 -0.023516	 2
1462092034.823	 3	 2.360566	 -1.161075	 -0.180309	 -2.356251	 -1.387342	 0.866267	 -0.076095	 0.747470	 -0.659646	 -0.019129	 2
1462092034.833	 3	 2.473094	 -1.545262	 0.127405	 -2.270158	 -1.404344	 0.968373	 -0.080904	 0.739447	 -0.668216	 -0.012623	 2
1462092034.843	 3	 2.483183	 -1.841607	 0.333448	 -2.174969	 -1.421765	 1.082787	 -0.085919	 0.731295	 -0.676616	 -0.004053	 2
1462092034.853	 3	 2.548656	 -2.122495	 0.493326	 -2.059546	 -1.438780	 1.220020	 -0.091228	 0.722897	 -0.684880	 0.006044	 2
1462092034.863	 3	 2.676900	 -2.355408	 0.547594	 -1.905450	 -1.454407	 1.398513	 -0.097059	 0.713898	 -0.693272	 0.017434	 2
1462092034.873	 3	 2.727757	 -2.427759	 0.271511	 -1.700245	 -1.464311	 1.629304	 -0.103867	 0.704323	 -0.701654	 0.028654	 2
1462092034.883	 3	 2.785625	 -2.523989	 -0.360820	 -1.466854	 -1.462747	 1.889139	 -0.112881	 0.694020	 -0.710024	 0.038212	 2
1462092034.893	 3	 2.793456	 -2.582948	 -1.007289	 -1.270163	 -1.448658	 2.112943	 -0.124402	 0.682997	 -0.718301	 0.045641	 2
1462092034.903	 3	 2.776532	 -2.781581	 -1.271167	 -1.136471	 -1.427023	 2.275211	 -0.137731	 0.671479	 -0.726239	 0.052180	 2
1462092034.913	 3	 2.686002	 -3.193125	 -1.004570	 -1.045296	 -1.404715	 2.398720	 -0.151875	 0.659900	 -0.733359	 0.060422	 2
1462092034.923	 3	 2.427271	 -3.599215	 -0.640540	 -0.982473	 -1.385416	 2.497962	 -0.166255	 0.649010	 -0.738972	 0.071174	 2
1462092034.933	 3	 2.105391	 -3.774520	 -0.597804	 -0.945434	 -1.368072	 2.574026	 -0.181233	 0.638924	 -0.742994	 0.083010	 2
1462092034.943	 3	 1.804093	 -3.722611	 -0.748165	 -0.932448	 -1.351785	 2.625581	 -0.196496	 0.629808	 -0.745571	 0.094095	 2
1462092034.953	 3	 1.805726	 -3.398031	 -0.722778	 -0.925045	 -1.335075	 2.669036	 -0.211006	 0.620647	 -0.747965	 0.104028	 2
1462092034.963	 3	 1.984660	 -2.684047	 -0.315900	 -0.902685	 -1.319793	 2.721874	 -0.222121	 0.611332	 -0.751047	 0.113419	 2
1462092034.973	 3	 1.990812	 -1.796611	 0.179358	 -0.862485	 -1.307527	 2.784249	 -0.228335	 0.602672	 -0.754826	 0.122011	 2
1462092034.983	 3	 1.856341	 -1.226435	 0.575903	 -0.812820	 -1.298441	 2.849623	 -0.230759	 0.595220	 -0.758656	 0.130017	 2
1462092034.993	 3	 1.658276	 -1.233686	 0.962300	 -0.760360	 -1.292533	 2.916694	 -0.231632	 0.588922	 -0.761729	 0.138874	 2
1462092035.003	 3	 1.396780	 -1.433347	 1.190792	 -0.710315	 -1.289315	 2.983114	 -0.232478	 0.583656	 -0.763612	 0.148987	 2
1462092035.013	 3	 1.064262	 -1.582199	 1.210420	 -0.668196	 -1.288162	 3.043108	 -0.233979	 0.579482	 -0.764213	 0.159479	 2
1462092035.023	 3	 0.703009	 -1.661226	 1.167003	 -0.635827	 -1.289000	 3.093935	 -0.236212	 0.576485	 -0.763601	 0.169655	 2
1462092035.033	 3	 0.410242	 -1.722189	 1.148735	 -0.610834	 -1.291833	 3.137666	 -0.238989	 0.574544	 -0.761947	 0.179499	 2
1462092035.043	 3	 0.270262	 -1.821230	 1.221504	 -0.588330	 -1.296101	 -3.103462	 -0.242130	 0.573192	 -0.759540	 0.189532	 2
1462092035.053	 3	 0.253587	 -1.983730	 1.246781	 -0.565358	 -1.300807	 -3.059350	 -0.245699	 0.571859	 -0.756665	 0.200169	 2
1462092035.063	 3	 0.252654	 -2.131997	 1.187858	 -0.544084	 -1.304961	 -3.015683	 -0.249873	 0.570240	 -0.753579	 0.210971	 2
1462092035.073	 3	 0.209217	 -2.298788	 1.197342	 -0.524532	 -1.309095	 -2.971992	 -0.254747	 0.568448	 -0.750073	 0.222172	 2
1462092035.083	 3	 0.122815	 -2.448203	 1.385344	 -0.502618	 -1.314351	 -2.924372	 -0.259856	 0.566866	 -0.745866	 0.234139	 2
1462092035.093	 3	 -0.021438	 -2.391345	 1.540599	 -0.474538	 -1.321283	 -2.870418	 -0.264512	 0.565871	 -0.740937	 0.246649	 2
1462092035.103	 3	 -0.183494	 -2.281096	 1.717821	 -0.440507	 -1.329935	 -2.811548	 -0.268506	 0.565704	 -0.735348	 0.259127	 2
1462092035.113	 3	 -0.466572	 -2.130323	 2.007313	 -0.395681	 -1.341248	 -2.743087	 -0.271552	 0.566816	 -0.728775	 0.271781	 2
1462092035.123	 3	 -0.901841	 -1.682212	 2.316883	 -0.333313	 -1.356631	 -2.660631	 -0.272824	 0.570219	 -0.720956	 0.283972	 2
1462092035.133	 3	 -1.200704	 -1.244337	 2.590001	 -0.245819	 -1.374802	 -2.557562	 -0.272038	 0.575805	 -0.712198	 0.295326	 2
1462092035.143	 3	 -1.290348	 -1.039679	 2.615067	 -0.133188	 -1.392384	 -2.432001	 -0.270172	 0.582288	 -0.703081	 0.305982	 2
1462092035.153	 3	 -1.195813	 -1.130391	 2.611268	 0.001324	 -1.406314	 -2.284322	 -0.268299	 0.588341	 -0.693974	 0.316655	 2
1462092035.163	 3	 -1.095741	 -1.220755	 2.657515	 0.157791	 -1.415397	 -2.113643	 -0.266466	 0.593776	 -0.684815	 0.327801	 2
1462092035.173	 3	 -1.106580	 -1.028398	 2.924774	 0.343242	 -1.419015	 -1.914949	 -0.263511	 0.599477	 -0.675329	 0.339294	 2
1462092035.183	 3	 -1.162532	 -0.628874	 3.141066	 0.548754	 -1.415988	 -1.699516	 -0.258651	 0.606073	 -0.665580	 0.350399	 2
1462092035.193	 3	 -1.218120	 -0.159094	 3.365468	 0.754877	 -1.405529	 -1.488109	 -0.251589	 0.613832	 -0.655674	 0.360561	 2
1462092035.203	 3	 -1.228474	 0.127992	 3.642131	 0.941719	 -1.386648	 -1.298687	 -0.242659	 0.622291	 -0.645376	 0.370622	 2
1462092035.213	 3	 -1.454509	 0.648376	 3.882343	 1.105413	 -1.361056	 -1.137116	 -0.231572	 0.632184	 -0.634531	 0.379590	 2
1462092035.223	 3	 -1.985104	 1.039207	 4.174086	 1.263856	 -1.330912	 -0.984701	 -0.219369	 0.644968	 -0.621426	 0.386940	 2
1462092035.233	 3	 -1.868633	 1.251656	 4.768667	 1.396622	 -1.291396	 -0.860064	 -0.204864	 0.658889	 -0.606690	 0.394744	 2
1462092035.243	 3	 -1.411587	 1.988320	 5.042246	 1.483630	 -1.243880	 -0.787604	 -0.185953	 0.671895	 -0.593412	 0.402294	 2
1462092035.253	 3	 -1.050216	 2.710289	 5.157722	 1.547741	 -1.193408	 -0.746571	 -0.163383	 0.684879	 -0.581433	 0.407655	 2
1462092035.263	 3	 -0.674754	 2.508334	 5.620444	 1.592133	 -1.138506	 -0.726800	 -0.138467	 0.696632	 -0.569460	 0.413819	 2
1462092035.273	 3	 -0.202337	 1.708257	 6.217436	 1.613820	 -1.077777	 -0.724102	 -0.112440	 0.705362	 -0.556856	 0.423950	 2
1462092035.283	 3	 0.204833	 0.965040	 6.708949	 1.618481	 -1.011932	 -0.732120	 -0.085671	 0.710843	 -0.543582	 0.438043	 2
1462092035.293	 3	 0.705839	 0.116134	 7.037731	 1.608650	 -0.942594	 -0.747846	 -0.058721	 0.712511	 -0.530205	 0.455809	 2
1462092035.303	 3	 1.269691	 -0.802592	 7.151099	 1.586199	 -0.871544	 -0.769232	 -0.032173	 0.709874	 -0.517448	 0.476750	 2
1462092035.313	 3	 1.701539	 -1.546180	 6.868650	 1.554124	 -0.801828	 -0.793432	 -0.007187	 0.702959	 -0.506036	 0.499724	 2
1462092035.323	 3	 1.423913	 -1.325983	 6.027967	 1.527020	 -0.738715	 -0.812036	 0.015078	 0.695410	 -0.495412	 0.520331	 2
1462092035.333	 3	 1.086605	 -1.249761	 5.109728	 1.507042	 -0.684996	 -0.823530	 0.033483	 0.688628	 -0.485506	 0.537544	 2
1462092035.343	 3	 0.980030	 -1.265561	 4.354897	 1.489248	 -0.638959	 -0.831821	 0.048688	 0.681862	 -0.476762	 0.552623	 2
1462092035.353	 3	 1.010449	 -1.162927	 3.560528	 1.472887	 -0.600729	 -0.840079	 0.061494	 0.675203	 -0.470042	 0.565137	 2
1462092035.363	 3	 0.757461	 -1.459165	 3.088907	 1.455709	 -0.568156	 -0.845994	 0.071335	 0.668218	 -0.464217	 0.576974	 2
1462092035.373	 3	 0.484879	 -1.809994	 2.854614	 1.437567	 -0.538747	 -0.848029	 0.078587	 0.660919	 -0.458192	 0.589126	 2
1462092035.383	 3	 0.672174	 -2.134886	 2.569665	 1.415840	 -0.511533	 -0.850463	 0.084443	 0.652364	 -0.453067	 0.601681	 2
1462092035.393	 3	 1.184393	 -2.809390	 2.019653	 1.386132	 -0.488426	 -0.857976	 0.088711	 0.641137	 -0.450976	 0.614569	 2
1462092035.403	 3	 1.834481	 -3.720842	 1.264806	 1.344236	 -0.470597	 -0.873099	 0.090690	 0.625836	 -0.453283	 0.628203	 2
1462092035.413	 3	 2.023836	 -3.566252	 0.659243	 1.297855	 -0.458167	 -0.892940	 0.090933	 0.608974	 -0.458812	 0.640604	 2
1462092035.423	 3	 1.739211	 -1.551262	 0.761469	 1.269272	 -0.445950	 -0.909984	 0.094138	 0.597639	 -0.462895	 0.647838	 2
1462092035.433	 3	 1.272681	 -0.159141	 0.406534	 1.259669	 -0.436699	 -0.923070	 0.099333	 0.592817	 -0.465573	 0.649572	 2
1462092035.443	 3	 0.650713	 0.248835	 0.239895	 1.258121	 -0.431910	 -0.930665	 0.103047	 0.591357	 -0.467072	 0.649247	 2
1462092035.453	 3	 0.119759	 0.108932	 0.533104	 1.259657	 -0.426822	 -0.931696	 0.105649	 0.591185	 -0.466216	 0.649601	 2
1462092035.463	 3	 -0.295213	 -0.633528	 0.650239	 1.257085	 -0.421382	 -0.927504	 0.105886	 0.589906	 -0.463796	 0.652451	 2
1462092035.473	 3	 -0.530310	 -1.294075	 0.549155	 1.248510	 -0.417345	 -0.920418	 0.103361	 0.586977	 -0.461040	 0.657432	 2
1462092035.483	 3	 -0.422166	 -1.842442	 0.215922	 1.233935	 -0.415896	 -0.914480	 0.098826	 0.582287	 -0.459500	 0.663351	 2
1462092035.493	 3	 -0.141068	 -2.528098	 -0.205356	 1.211178	 -0.417579	 -0.912654	 0.092415	 0.574996	 -0.460341	 0.670019	 2
1462092035.503	 3	 0.126378	 -2.934042	 -0.634570	 1.181435	 -0.422146	 -0.915415	 0.084558	 0.565432	 -0.463542	 0.676953	 2
1462092035.513	 3	 0.231762	 -3.121136	 -1.017705	 1.147919	 -0.430289	 -0.921820	 0.075351	 0.554828	 -0.468703	 0.683232	 2
1462092035.523	 3	 0.149978	 -3.085566	 -0.692670	 1.114415	 -0.436767	 -0.927422	 0.066445	 0.543985	 -0.473069	 0.689834	 2
1462092035.533	 3	 -0.133001	 -2.699975	 0.150005	 1.086318	 -0.437859	 -0.927307	 0.059326	 0.534393	 -0.474116	 0.697222	 2
1462092035.543	 3	 -0.328100	 -2.180047	 0.926022	 1.066114	 -0.432580	 -0.920547	 0.054869	 0.526777	 -0.471359	 0.705206	 2
1462092035.553	 3	 -0.346644	 -1.732193	 1.368379	 1.052026	 -0.423205	 -0.910277	 0.052645	 0.520762	 -0.466399	 0.713097	 2
1462092035.563	 3	 -0.233100	 -1.651786	 1.648434	 1.040168	 -0.410821	 -0.899103	 0.052003	 0.515085	 -0.460467	 0.721078	 2
1462092035.573	 3	 -0.145898	 -2.083713	 1.816309	 1.025184	 -0.396347	 -0.887658	 0.051520	 0.507927	 -0.454090	 0.730177	 2
1462092035.583	 3	 -0.134999	 -2.757694	 1.868560	 1.003765	 -0.381241	 -0.875842	 0.049881	 0.498226	 -0.447576	 0.740918	 2
1462092035.593	 3	 -0.236704	 -3.255363	 1.841367	 0.976903	 -0.366885	 -0.863099	 0.046672	 0.486463	 -0.440920	 0.752838	 2
1462092035.603	 3	 -0.374365	 -3.396084	 1.741075	 0.947941	 -0.354301	 -0.849309	 0.042234	 0.473977	 -0.434140	 0.764908	 2
1462092035.613	 3	 -0.464210	 -3.119029	 1.629333	 0.920747	 -0.343599	 -0.834965	 0.037484	 0.462245	 -0.427329	 0.776090	 2
1462092035.623	 3	 -0.495804	 -2.677565	 1.479181	 0.897467	 -0.334665	 -0.821024	 0.033116	 0.452112	 -0.420798	 0.785765	 2
1462092035.633	 3	 -0.554815	 -2.266884	 1.179774	 0.878134	 -0.328084	 -0.808022	 0.028949	 0.443732	 -0.414878	 0.793814	 2
1462092035.643	 3	 -0.663587	 -1.871159	 0.997895	 0.862165	 -0.324412	 -0.796038	 0.024580	 0.437003	 -0.409718	 0.800347	 2
1462092035.653	 3	 -0.784874	 -1.462385	 1.143435	 0.850950	 -0.321115	 -0.782438	 0.020752	 0.432185	 -0.403852	 0.806032	 2
1462092035.663	 3	 -0.879659	 -1.153134	 1.362422	 0.843661	 -0.316979	 -0.766549	 0.017647	 0.428813	 -0.396833	 0.811376	 2
1462092035.673	 3	 -0.916041	 -0.864617	 1.532748	 0.839702	 -0.311961	 -0.748819	 0.015238	 0.426660	 -0.388842	 0.816413	 2
1462092035.683	 3	 -0.742098	 -0.500624	 1.635868	 0.839083	 -0.305282	 -0.731321	 0.014276	 0.425641	 -0.380601	 0.820834	 2
1462092035.693	 3	 -0.449592	 -0.101985	 1.724423	 0.841789	 -0.296122	 -0.715313	 0.015344	 0.425671	 -0.372490	 0.824512	 2
1462092035.703	 3	 -0.185887	 0.295708	 1.817483	 0.847870	 -0.284323	 -0.700986	 0.018527	 0.426786	 -0.364547	 0.827415	 2
1462092035.713	 3	 -0.117723	 0.647122	 1.903289	 0.857293	 -0.270935	 -0.687162	 0.023074	 0.429141	 -0.356431	 0.829616	 2
1462092035.723	 3	 -0.255896	 0.949954	 1.953138	 0.869902	 -0.257534	 -0.672404	 0.027924	 0.432902	 -0.347789	 0.831180	 2
1462092035.733	 3	 -0.478605	 1.262109	 1.934535	 0.885743	 -0.245268	 -0.656252	 0.032438	 0.438245	 -0.338616	 0.832003	 2
1462092035.743	 3	 -0.722974	 1.524189	 1.895405	 0.904575	 -0.234554	 -0.638677	 0.036334	 0.445119	 -0.328983	 0.832057	 2
1462092035.753	 3	 -0.881636	 1.586443	 1.909090	 0.924766	 -0.224707	 -0.619835	 0.039625	 0.452754	 -0.318864	 0.831726	 2
1462092035.763	 3	 -0.820750	 1.255429	 2.048291	 0.942608	 -0.213664	 -0.600616	 0.042796	 0.459359	 -0.308309	 0.831928	 2
1462092035.773	 3	 -0.531731	 0.529101	 2.327838	 0.953727	 -0.198970	 -0.582097	 0.046531	 0.462838	 -0.297354	 0.833785	 2
1462092035.783	 3	 -0.097303	 -0.430028	 2.683884	 0.955110	 -0.179014	 -0.565088	 0.051387	 0.461752	 -0.286071	 0.838038	 2
1462092035.793	 3	 0.396565	 -1.423659	 2.999658	 0.945790	 -0.153615	 -0.550091	 0.057592	 0.455606	 -0.274707	 0.844773	 2
1462092035.803	 3	 0.869071	 -2.189660	 3.309211	 0.927430	 -0.123185	 -0.536997	 0.065349	 0.445035	 -0.263364	 0.853412	 2
1462092035.813	 3	 1.277879	 -2.611278	 3.561774	 0.903487	 -0.088195	 -0.524832	 0.074830	 0.431470	 -0.251750	 0.863051	 2
1462092035.823	 3	 1.732902	 -2.784633	 3.600961	 0.876633	 -0.050002	 -0.514700	 0.086098	 0.416072	 -0.240647	 0.872674	 2
1462092035.833	 3	 2.154117	 -2.750587	 3.479311	 0.849162	 -0.009942	 -0.507426	 0.099011	 0.399884	 -0.230693	 0.881516	 2
1462092035.843	 3	 2.477675	 -2.542371	 3.282331	 0.823064	 0.030920	 -0.502913	 0.113240	 0.383862	 -0.222024	 0.889119	 2
1462092035.853	 3	 2.683610	 -2.144598	 3.070021	 0.800388	 0.071730	 -0.500568	 0.128428	 0.369036	 -0.214427	 0.895176	 2
1462092035.863	 3	 2.760284	 -1.592905	 2.910360	 0.782925	 0.111993	 -0.499418	 0.144268	 0.356343	 -0.207378	 0.899556	 2
1462092035.873	 3	 2.725300	 -1.008534	 2.811658	 0.771240	 0.151383	 -0.498392	 0.160400	 0.346192	 -0.200295	 0.902388	 2
1462092035.883	 3	 2.675797	 -0.523358	 2.668463	 0.764946	 0.189502	 -0.497603	 0.176560	 0.338488	 -0.193203	 0.903839	 2
1462092035.893	 3	 2.558908	 -0.541973	 2.547810	 0.759733	 0.226075	 -0.496874	 0.192133	 0.331360	 -0.186363	 0.904740	 2
1462092035.903	 3	 2.524655	 -1.340854	 2.665369	 0.748627	 0.262152	 -0.495049	 0.206757	 0.321644	 -0.179752	 0.906359	 2
1462092035.913	 3	 2.487297	 -2.342896	 2.779998	 0.726443	 0.299398	 -0.491316	 0.220662	 0.306863	 -0.173389	 0.909439	 2
1462092035.923	 3	 2.228185	 -2.877980	 2.663238	 0.696872	 0.334419	 -0.485636	 0.232789	 0.289178	 -0.167681	 0.913273	 2
1462092035.933	 3	 1.974138	 -2.979460	 2.500379	 0.664589	 0.366219	 -0.478222	 0.243198	 0.270867	 -0.162431	 0.917116	 2
1462092035.943	 3	 1.811458	 -2.917624	 2.308402	 0.632240	 0.395138	 -0.470010	 0.252412	 0.253014	 -0.157660	 0.920552	 2
1462092035.953	 3	 1.778654	 -2.965357	 2.166497	 0.599488	 0.422338	 -0.461663	 0.261000	 0.235243	 -0.153481	 0.923571	 2
1462092035.963	 3	 1.845803	 -3.165886	 2.115021	 0.564837	 0.449266	 -0.453199	 0.269492	 0.216671	 -0.149856	 0.926267	 2
1462092035.973	 3	 1.890712	 -3.390295	 2.134923	 0.527263	 0.476406	 -0.443825	 0.277953	 0.196882	 -0.146512	 0.928716	 2
1462092035.983	 3	 1.866041	 -3.440020	 2.161306	 0.488104	 0.500971	 -0.433013	 0.285202	 0.176960	 -0.143451	 0.931003	 2
1462092035.993	 3	 1.770450	 -3.307106	 2.117542	 0.448688	 0.525748	 -0.420592	 0.292608	 0.157206	 -0.139991	 0.932775	 2
1462092036.003	 3	 1.647451	 -3.030084	 1.987970	 0.410797	 0.549422	 -0.407305	 0.299782	 0.138542	 -0.136388	 0.933989	 2
1462092036.013	 3	 1.581560	 -2.594059	 1.807159	 0.376768	 0.571240	 -0.394293	 0.306602	 0.121993	 -0.132869	 0.934590	 2
1462092036.023	 3	 1.599228	 -2.053306	 1.581832	 0.348498	 0.591927	 -0.382688	 0.313540	 0.108176	 -0.129513	 0.934461	 2
1462092036.033	 3	 1.651815	 -1.547990	 1.323899	 0.326509	 0.611981	 -0.373343	 0.320831	 0.097125	 -0.126506	 0.933611	 2
1462092036.043	 3	 1.695475	 -1.136151	 1.079028	 0.310255	 0.631561	 -0.366554	 0.328457	 0.088486	 -0.123981	 0.932156	 2
1462092036.053	 3	 1.691664	 -0.903321	 0.917101	 0.297793	 0.650584	 -0.361568	 0.336173	 0.081451	 -0.121850	 0.930326	 2
1462092036.063	 3	 1.636030	 -0.878106	 0.851742	 0.286363	 0.668902	 -0.357139	 0.343666	 0.074935	 -0.119969	 0.928378	 2
1462092036.073	 3	 1.526550	 -0.994922	 0.832425	 0.273745	 0.686176	 -0.352346	 0.350613	 0.068098	 -0.118316	 0.926518	 2
1462092036.083	 3	 1.397600	 -1.163824	 0.809595	 0.259126	 0.702114	 -0.347012	 0.356833	 0.060629	 -0.116985	 0.924829	 2
1462092036.093	 3	 1.274813	 -1.358489	 0.756630	 0.242402	 0.716656	 -0.341413	 0.362311	 0.052438	 -0.116136	 0.923306	 2
1462092036.103	 3	 1.184656	 -1.631048	 0.682407	 0.223204	 0.730012	 -0.336025	 0.367136	 0.043249	 -0.116041	 0.921887	 2
1462092036.113	 3	 1.086683	 -1.749373	 0.606490	 0.202472	 0.742210	 -0.330950	 0.371374	 0.033468	 -0.116572	 0.920528	 2
1462092036.123	 3	 0.959867	 -1.650612	 0.533910	 0.182337	 0.753014	 -0.326155	 0.375035	 0.024096	 -0.117326	 0.919240	 2
1462092036.143	 4	 0.755266	 -1.231013	 0.378666	 0.148840	 0.770580	 -0.317940	 0.380969	 0.008702	 -0.118699	 0.916896	 2
1462092036.153	 4	 0.775463	 -0.959328	 0.304283	 0.136517	 0.778584	 -0.314989	 0.383860	 0.002932	 -0.119205	 0.915660	 2
1462092036.163	 4	 0.897701	 -0.770932	 0.226105	 0.127127	 0.787461	 -0.313136	 0.387325	 -0.001756	 -0.119636	 0.914146	 2
1462092036.173	 4	 1.050057	 -0.732813	 0.117492	 0.119545	 0.797690	 -0.312853	 0.391503	 -0.006017	 -0.120389	 0.912247	 2
1462092036.183	 4	 1.191012	 -0.643433	 0.032901	 0.113689	 0.809224	 -0.314080	 0.396358	 -0.009884	 -0.121445	 0.909975	 2
1462092036.203	 5	 1.433132	 -0.021680	 0.067485	 0.110302	 0.836092	 -0.317343	 0.408226	 -0.014306	 -0.122083	 0.904568	 2
1462092036.213	 5	 1.512832	 0.297696	 0.140104	 0.113103	 0.851093	 -0.318064	 0.415110	 -0.014440	 -0.120970	 0.901577	 2
1462092036.223	 5	 1.534542	 0.540661	 0.212516	 0.117675	 0.866541	 -0.317766	 0.422280	 -0.013613	 -0.118970	 0.898521	 2
1462092036.233	 5	 1.506592	 0.730010	 0.204929	 0.124256	 0.881837	 -0.317342	 0.429468	 -0.011858	 -0.116454	 0.895463	 2
1462092036.243	 5	 1.436226	 0.787281	 0.153853	 0.132276	 0.896473	 -0.317649	 0.436407	 -0.009581	 -0.113941	 0.892454	 2
1462092036.253	 5	 1.344104	 0.782706	 0.072548	 0.141331	 0.910148	 -0.319145	 0.442939	 -0.007050	 -0.111729	 0.889535	 2
1462092036.263	 5	 1.227135	 0.702785	 0.004614	 0.150759	 0.922631	 -0.321856	 0.448933	 -0.004557	 -0.109989	 0.886759	 2
1462092036.273	 5	 1.051235	 0.526648	 -0.008282	 0.158932	 0.933472	 -0.324846	 0.454114	 -0.002577	 -0.108708	 0.884283	 2
1462092036.284	 5	 0.813162	 0.252122	 0.026406	 0.163884	 0.942150	 -0.326974	 0.458161	 -0.001657	 -0.107894	 0.882295	 2
1462092036.293	 5	 0.528263	 -0.016759	 0.087133	 0.164757	 0.948205	 -0.327469	 0.460840	 -0.001935	 -0.107469	 0.880950	 2
1462092036.304	 5	 0.251044	 -0.262084	 0.172525	 0.161406	 0.951585	 -0.325812	 0.462130	 -0.003334	 -0.107266	 0.880295	 2
1462092036.314	 5	 0.025165	 -0.491530	 0.268275	 0.153847	 0.952734	 -0.321871	 0.462233	 -0.005853	 -0.107197	 0.880236	 2
1462092036.324	 5	 -0.159213	 -0.736077	 0.351800	 0.142245	 0.952085	 -0.315911	 0.461351	 -0.009527	 -0.107297	 0.880654	 2
1462092036.334	 5	 -0.318992	 -0.935254	 0.395034	 0.127415	 0.949828	 -0.308653	 0.459614	 -0.014199	 -0.107661	 0.881455	 2
1462092036.344	 5	 -0.459245	 -1.022144	 0.382670	 0.111270	 0.946061	 -0.301175	 0.457159	 -0.019301	 -0.108292	 0.882556	 2
1462092036.354	 5	 -0.577812	 -1.028325	 0.362329	 0.095230	 0.940997	 -0.294064	 0.454146	 -0.024371	 -0.109092	 0.883887	 2
1462092036.363	 5	 -0.677698	 -0.950277	 0.377780	 0.079588	 0.934795	 -0.286799	 0.450662	 -0.029186	 -0.109739	 0.885443	 2
1462092036.374	 5	 -0.700305	 -0.739840	 0.346896	 0.066105	 0.928064	 -0.279962	 0.447061	 -0.033148	 -0.110057	 0.887088	 2
1462092036.384	 5	 -0.617985	 -0.413092	 0.263959	 0.056783	 0.921798	 -0.274549	 0.443871	 -0.035651	 -0.110009	 0.888597	 2
1462092036.394	 5	 -0.429843	 -0.044159	 0.174099	 0.052551	 0.917098	 -0.270923	 0.441622	 -0.036415	 -0.109532	 0.889745	 2
1462092036.404	 5	 -0.225731	 0.242408	 0.172857	 0.051959	 0.914432	 -0.267936	 0.440462	 -0.035844	 -0.108443	 0.890477	 2
1462092036.414	 5	 -0.088141	 0.418853	 0.212734	 0.053055	 0.913375	 -0.264508	 0.440112	 -0.034533	 -0.106719	 0.890910	 2
1462092036.423	 5	 -0.086608	 0.495619	 0.239013	 0.054813	 0.912730	 -0.260645	 0.439984	 -0.032857	 -0.104637	 0.891283	 2
1462092036.434	 5	 -0.211407	 0.478166	 0.275107	 0.056161	 0.911139	 -0.256178	 0.439418	 -0.031173	 -0.102414	 0.891881	 2
1462092036.444	 5	 -0.381217	 0.400395	 0.335545	 0.056040	 0.907950	 -0.250686	 0.438078	 -0.029822	 -0.100119	 0.892846	 2
1462092036.453	 5	 -0.544688	 0.313059	 0.395785	 0.070182	 0.901601	 -0.256625	 0.435879	 -0.024397	 -0.099947	 0.894106	 2
1462092036.474	 6	 -0.696524	 0.232821	 0.416610	 0.063696	 0.888934	 -0.241821	 0.430089	 -0.023297	 -0.095250	 0.897446	 2
1462092036.484	 6	 -0.656183	 0.208065	 0.392582	 0.060446	 0.882490	 -0.234860	 0.427132	 -0.022877	 -0.093074	 0.899095	 2
1462092036.494	 6	 -0.565644	 0.195892	 0.363970	 0.057529	 0.876808	 -0.228511	 0.424522	 -0.022504	 -0.091054	 0.900547	 2
1462092036.504	 6	 -0.438722	 0.202772	 0.337351	 0.055107	 0.872292	 -0.222751	 0.422448	 -0.022119	 -0.089136	 0.901722	 2
1462092036.514	 6	 -0.288282	 0.220203	 0.308494	 0.053305	 0.869207	 -0.217577	 0.421037	 -0.021670	 -0.087291	 0.902573	 2
1462092036.524	 6	 -0.143115	 0.240926	 0.291436	 0.052085	 0.867586	 -0.212883	 0.420305	 -0.021145	 -0.085485	 0.903099	 2
1462092036.534	 6	 -0.013827	 0.262984	 0.305436	 0.051089	 0.867294	 -0.208212	 0.420180	 -0.020598	 -0.083594	 0.903347	 2
1462092036.544	 6	 0.098535	 0.300124	 0.338908	 0.050161	 0.868182	 -0.203180	 0.420593	 -0.020006	 -0.081488	 0.903361	 2
1462092036.554	 6	 0.191701	 0.331017	 0.383146	 0.049113	 0.870067	 -0.197572	 0.421456	 -0.019394	 -0.079115	 0.903183	 2
1462092036.564	 6	 0.248701	 0.375938	 0.440619	 0.047833	 0.872633	 -0.191155	 0.422623	 -0.018744	 -0.076407	 0.902885	 2
1462092036.574	 6	 0.287562	 0.428298	 0.489793	 0.046443	 0.875649	 -0.183920	 0.423996	 -0.017983	 -0.073344	 0.902510	 2
1462092036.584	 6	 0.304064	 0.492418	 0.538205	 0.045044	 0.878903	 -0.175929	 0.425481	 -0.017065	 -0.069940	 0.902099	 2
1462092036.594	 6	 0.300335	 0.565115	 0.587939	 0.043711	 0.882173	 -0.167095	 0.426981	 -0.015925	 -0.066148	 0.901697	 2
1462092036.604	 6	 0.288870	 0.594116	 0.622413	 0.042286	 0.885360	 -0.157617	 0.428441	 -0.014672	 -0.062094	 0.901314	 2
1462092036.614	 6	 0.251463	 0.558272	 0.651181	 0.040237	 0.888250	 -0.147595	 0.429751	 -0.013557	 -0.057944	 0.900984	 2
1462092036.624	 6	 0.195509	 0.445820	 0.668740	 0.036934	 0.890600	 -0.137181	 0.430785	 -0.012890	 -0.053907	 0.900751	 2
1462092036.634	 6	 0.139272	 0.281188	 0.677289	 0.031891	 0.892355	 -0.126513	 0.431512	 -0.012919	 -0.050152	 0.900619	 2
1462092036.644	 6	 0.091373	 0.078207	 0.681146	 0.024791	 0.893581	 -0.115732	 0.431964	 -0.013827	 -0.046806	 0.900569	 2
1462092036.654	 6	 0.048839	 -0.125792	 0.693473	 0.015471	 0.894308	 -0.104729	 0.432161	 -0.015666	 -0.043853	 0.900594	 2
1462092036.664	 6	 0.026584	 -0.312972	 0.686597	 0.004175	 0.894682	 -0.093684	 0.432182	 -0.018375	 -0.041315	 0.900652	 2
1462092036.674	 6	 0.006639	 -0.477698	 0.696961	 -0.008780	 0.894788	 -0.082661	 0.432080	 -0.021830	 -0.039149	 0.900720	 2
1462092036.684	 6	 0.030397	 -0.627880	 0.677239	 -0.023255	 0.894884	 -0.071675	 0.431978	 -0.025977	 -0.037328	 0.900737	 2
1462092036.694	 6	 0.099850	 -0.755347	 0.581661	 -0.038049	 0.895529	 -0.061948	 0.432134	 -0.030546	 -0.036143	 0.900567	 2
1462092036.704	 6	 0.148890	 -0.689147	 0.490194	 -0.051894	 0.896649	 -0.053590	 0.432529	 -0.034981	 -0.035378	 0.900247	 2
1462092036.714	 6	 0.255889	 -0.552918	 0.398875	 -0.062963	 0.898603	 -0.046752	 0.433340	 -0.038492	 -0.034711	 0.899739	 2
1462092036.724	 6	 0.340444	 -0.289262	 0.416578	 -0.072418	 0.901750	 -0.039732	 0.434735	 -0.041227	 -0.033640	 0.898985	 2
1462092036.734	 6	 0.189663	 0.140506	 0.365405	 -0.076851	 0.903749	 -0.033387	 0.435693	 -0.041839	 -0.031778	 0.898561	 2
1462092036.744	 6	 0.073318	 0.258030	 0.239749	 -0.089956	 0.944903	 -0.019267	 0.454204	 -0.044415	 -0.029030	 0.889316	 2
1462092036.754	 6	 -0.106679	 0.275189	 0.040047	 -0.088325	 0.944259	 -0.017883	 0.453971	 -0.043379	 -0.028032	 0.889518	 2
