% Gyrometer data recorded with 'snsrlog'
% 
% 
% Label description:
% 	 0: Default Label
% 	 1: still_drop
% 	 2: walk_drop
% 	 3: other
% 	 4: dtw_same
% 	 5: dtw_diff
% 	 6: delete
% 	 7: steal
% 
% Column description:
% 	 1: Seconds.milliseconds since 1970
% 	 2: Number of skipped measurements
% 	 3: Gyro X
% 	 4: Gyro Y
% 	 5: Gyro Z
% 	 6: Roll of the device
% 	 7: Pitch of the device
% 	 8: Yaw of the device
% 	 9: Quaternion X
% 	 10: Quaternion Y
% 	 11: Quaternion Z
% 	 12: Quaternion W
% 	 13: Label used for the current sample
% 
% 
1463571553.812	 0	 -1.652399	 -0.111624	 0.670185	 0.302492	 0.329428	 0.118261	 0.153032	 0.157950	 0.082293	 0.972040	 2
1463571553.822	 0	 -1.670635	 -0.134769	 0.404753	 0.297927	 0.314890	 0.128229	 0.145349	 0.156211	 0.085800	 0.973196	 2
1463571553.832	 0	 -1.590491	 -0.051334	 0.062722	 0.295149	 0.299882	 0.134761	 0.137632	 0.155008	 0.087765	 0.974334	 2
1463571553.842	 0	 -1.428272	 0.306737	 -0.361663	 0.296526	 0.285059	 0.136671	 0.130177	 0.155474	 0.087783	 0.975283	 2
1463571553.852	 0	 -1.246529	 1.083613	 -0.667219	 0.305859	 0.270943	 0.134655	 0.123024	 0.159577	 0.086410	 0.975671	 2
1463571553.862	 0	 -1.093304	 1.722972	 -0.734010	 0.322582	 0.257960	 0.131050	 0.116253	 0.167230	 0.084703	 0.975369	 2
1463571553.872	 0	 -1.036023	 2.232037	 -0.619998	 0.344345	 0.245965	 0.128166	 0.109723	 0.177420	 0.083589	 0.974421	 2
1463571553.882	 0	 -1.091381	 2.785537	 -0.437449	 0.370974	 0.234227	 0.127365	 0.102953	 0.190099	 0.083625	 0.972764	 2
1463571553.892	 0	 -1.185313	 3.346251	 -0.302456	 0.402803	 0.222243	 0.128724	 0.095639	 0.205385	 0.084766	 0.970301	 2
1463571553.902	 0	 -1.304248	 3.734495	 -0.346833	 0.438635	 0.209287	 0.131042	 0.087565	 0.222584	 0.086233	 0.967136	 2
1463571553.912	 0	 -1.337308	 4.344842	 -0.529506	 0.480129	 0.195149	 0.132693	 0.078730	 0.242387	 0.087202	 0.963040	 2
1463571553.922	 0	 -1.178534	 4.883510	 -0.692135	 0.527618	 0.181207	 0.132919	 0.069910	 0.264918	 0.087391	 0.957755	 2
1463571553.932	 0	 -0.775080	 5.535890	 -0.915519	 0.581643	 0.169137	 0.130318	 0.062146	 0.290377	 0.086325	 0.950982	 2
1463571553.942	 1	 -0.202981	 6.244778	 -1.198462	 0.643493	 0.159779	 0.123012	 0.056191	 0.319273	 0.083315	 0.942319	 2
1463571553.962	 1	 0.597574	 6.844876	 -1.870213	 0.782863	 0.144217	 0.093253	 0.048788	 0.383211	 0.070429	 0.919679	 2
1463571553.972	 1	 0.563266	 6.820607	 -2.150435	 0.853742	 0.132974	 0.074562	 0.045037	 0.415077	 0.061341	 0.906598	 2
1463571553.982	 1	 0.393151	 6.587443	 -2.251305	 0.922579	 0.118376	 0.056887	 0.040313	 0.445651	 0.051742	 0.892801	 2
1463571553.992	 1	 0.197988	 6.316359	 -2.164736	 0.987911	 0.101880	 0.042135	 0.034847	 0.474337	 0.042659	 0.878619	 2
1463571554.002	 1	 0.162701	 6.406851	 -2.020775	 1.052671	 0.085177	 0.029979	 0.029286	 0.502408	 0.034335	 0.863452	 2
1463571554.012	 1	 0.486469	 6.872400	 -1.932935	 1.120780	 0.069693	 0.017607	 0.024833	 0.531433	 0.025969	 0.846338	 2
1463571554.022	 1	 1.170883	 7.354890	 -2.149688	 1.194387	 0.054655	 0.000104	 0.022566	 0.562115	 0.015408	 0.826608	 2
1463571554.032	 1	 1.775854	 7.782976	 -2.420610	 1.272210	 0.037792	 -0.023166	 0.022078	 0.593745	 0.001908	 0.804348	 2
1463571554.042	 1	 2.136276	 8.131333	 -2.637922	 1.353478	 0.018074	 -0.049676	 0.022596	 0.625860	 -0.013704	 0.779487	 2
1463571554.052	 1	 2.329618	 8.372582	 -2.879288	 1.436814	 -0.005671	 -0.077090	 0.023230	 0.657777	 -0.030876	 0.752221	 2
1463571554.062	 1	 2.513237	 8.418733	 -3.187397	 1.520532	 -0.034304	 -0.104459	 0.023559	 0.688722	 -0.049629	 0.722941	 2
1463571554.082	 2	 2.987533	 7.797081	 -3.944411	 1.678344	 -0.109168	 -0.158246	 0.022391	 0.743538	 -0.093195	 0.661788	 2
1463571554.092	 2	 3.182528	 7.345164	 -4.289227	 1.749623	 -0.155273	 -0.183475	 0.020574	 0.766449	 -0.117827	 0.631070	 2
1463571554.102	 2	 3.293217	 6.876618	 -4.614279	 1.815462	 -0.206441	 -0.206273	 0.017621	 0.786278	 -0.143808	 0.600646	 2
1463571554.112	 2	 3.332482	 6.372571	 -4.877225	 1.875987	 -0.261841	 -0.225692	 0.013311	 0.803081	 -0.170626	 0.570763	 2
1463571554.122	 2	 3.385090	 5.880002	 -5.018684	 1.931302	 -0.319974	 -0.241872	 0.007987	 0.816920	 -0.197813	 0.541709	 2
1463571554.132	 2	 3.487357	 5.686574	 -5.103438	 1.983812	 -0.380154	 -0.255479	 0.002193	 0.828465	 -0.225303	 0.512717	 2
1463571554.142	 2	 3.718855	 5.561326	 -4.974465	 2.034696	 -0.441079	 -0.268275	 -0.002935	 0.838033	 -0.253020	 0.483397	 2
1463571554.152	 2	 4.114877	 5.165088	 -4.747133	 2.080927	 -0.502304	 -0.282791	 -0.006699	 0.844951	 -0.281290	 0.454850	 2
1463571554.162	 2	 4.530673	 4.450650	 -4.536788	 2.118492	 -0.564280	 -0.300294	 -0.009480	 0.848474	 -0.310370	 0.428570	 2
1463571554.172	 2	 4.781950	 3.492959	 -4.349656	 2.144652	 -0.626676	 -0.320438	 -0.012176	 0.848358	 -0.339818	 0.405789	 2
1463571554.182	 2	 4.764161	 2.321911	 -4.212257	 2.158038	 -0.688404	 -0.341537	 -0.016007	 0.844799	 -0.368668	 0.387482	 2
1463571554.192	 2	 4.495515	 1.078706	 -4.006202	 2.158325	 -0.747614	 -0.362105	 -0.021787	 0.838311	 -0.395785	 0.374319	 2
1463571554.202	 2	 4.118409	 0.103144	 -3.750885	 2.147676	 -0.802612	 -0.381975	 -0.029235	 0.829837	 -0.420438	 0.365715	 2
1463571554.212	 2	 3.782784	 -0.605122	 -3.579769	 2.129018	 -0.853861	 -0.401329	 -0.038102	 0.820103	 -0.442848	 0.360369	 2
1463571554.222	 2	 3.527915	 -1.124619	 -3.452361	 2.103766	 -0.902247	 -0.421008	 -0.048151	 0.809415	 -0.463488	 0.357364	 2
1463571554.232	 2	 3.366121	 -1.379461	 -3.312643	 2.073256	 -0.948200	 -0.442536	 -0.058709	 0.798104	 -0.482771	 0.355690	 2
1463571554.242	 2	 3.294116	 -1.465751	 -3.067693	 2.037363	 -0.991359	 -0.468446	 -0.068830	 0.786393	 -0.500979	 0.354781	 2
1463571554.252	 2	 3.275327	 -1.435579	 -2.728337	 1.994989	 -1.030886	 -0.501299	 -0.077707	 0.774436	 -0.518225	 0.354476	 2
1463571554.262	 2	 3.293442	 -1.270469	 -2.393374	 1.945919	 -1.066460	 -0.542685	 -0.084860	 0.762445	 -0.534696	 0.354368	 2
1463571554.272	 2	 3.368175	 -1.065348	 -2.091572	 1.889402	 -1.098204	 -0.594053	 -0.090147	 0.750445	 -0.550698	 0.354173	 2
1463571554.282	 2	 3.441525	 -0.923011	 -1.794604	 1.823930	 -1.125788	 -0.656415	 -0.093693	 0.738325	 -0.566319	 0.354090	 2
1463571554.292	 2	 3.425857	 -0.847652	 -1.529457	 1.750215	 -1.148733	 -0.728138	 -0.095916	 0.726190	 -0.581307	 0.354302	 2
1463571554.302	 2	 3.331732	 -0.872191	 -1.284806	 1.669973	 -1.166734	 -0.806340	 -0.097338	 0.714135	 -0.595369	 0.355065	 2
1463571554.312	 2	 3.199784	 -0.975506	 -1.065072	 1.585114	 -1.179734	 -0.888104	 -0.098389	 0.702174	 -0.608344	 0.356636	 2
1463571554.322	 2	 3.020680	 -1.100140	 -0.870703	 1.498431	 -1.188052	 -0.970145	 -0.099388	 0.690377	 -0.620148	 0.359051	 2
1463571554.332	 2	 2.713637	 -1.222070	 -0.648552	 1.414971	 -1.191871	 -1.047241	 -0.100463	 0.679119	 -0.630423	 0.362314	 2
1463571554.342	 2	 2.219855	 -1.348698	 -0.416292	 1.341565	 -1.192048	 -1.112031	 -0.101978	 0.669022	 -0.638536	 0.366445	 2
1463571554.352	 2	 1.707299	 -1.401720	 -0.161868	 1.281833	 -1.189562	 -1.161337	 -0.103830	 0.660460	 -0.644327	 0.371288	 2
1463571554.362	 2	 1.296690	 -1.383363	 0.149883	 1.235651	 -1.184654	 -1.196131	 -0.105506	 0.653401	 -0.648039	 0.376804	 2
1463571554.372	 2	 1.038035	 -1.341496	 0.538330	 1.200890	 -1.176804	 -1.219091	 -0.106408	 0.647523	 -0.650042	 0.383193	 2
1463571554.382	 2	 0.876472	 -1.367437	 1.002037	 1.174953	 -1.165161	 -1.232594	 -0.106163	 0.642381	 -0.650589	 0.390910	 2
1463571554.392	 2	 0.690732	 -1.581223	 1.513230	 1.156780	 -1.149550	 -1.235884	 -0.105207	 0.637718	 -0.649409	 0.400644	 2
1463571554.402	 2	 0.438271	 -1.893893	 2.001704	 1.145239	 -1.130301	 -1.228601	 -0.104078	 0.633368	 -0.646242	 0.412775	 2
1463571554.412	 2	 0.116160	 -2.179457	 2.386591	 1.140049	 -1.108560	 -1.210888	 -0.103201	 0.629481	 -0.640953	 0.426947	 2
1463571554.422	 2	 -0.237028	 -2.372369	 2.628734	 1.140319	 -1.085788	 -1.184373	 -0.102877	 0.626210	 -0.633690	 0.442396	 2
1463571554.432	 2	 -0.571773	 -2.423470	 2.775051	 1.145376	 -1.062871	 -1.151079	 -0.103032	 0.623716	 -0.624729	 0.458340	 2
1463571554.442	 2	 -0.812165	 -2.293743	 2.819916	 1.154296	 -1.040278	 -1.113909	 -0.103271	 0.622081	 -0.614595	 0.473945	 2
1463571554.452	 2	 -0.987423	 -2.082942	 2.777576	 1.165748	 -1.018473	 -1.075559	 -0.103394	 0.621236	 -0.603853	 0.488608	 2
1463571554.462	 2	 -1.129985	 -1.742353	 2.752145	 1.180439	 -0.997303	 -1.036432	 -0.103060	 0.621409	 -0.592634	 0.502010	 2
1463571554.472	 2	 -1.079854	 -1.370482	 2.571858	 1.196220	 -0.977038	 -1.000095	 -0.101958	 0.622297	 -0.581793	 0.513681	 2
1463571554.482	 2	 -1.112166	 -1.156863	 2.242675	 1.211107	 -0.959154	 -0.967464	 -0.100964	 0.623498	 -0.571756	 0.523595	 2
1463571554.492	 2	 -1.510267	 -1.212383	 1.759637	 1.226782	 -0.946209	 -0.933726	 -0.102084	 0.625274	 -0.561834	 0.531934	 2
1463571554.502	 2	 -1.914106	 -1.177047	 1.336111	 1.244918	 -0.938806	 -0.896293	 -0.105920	 0.627869	 -0.551648	 0.538745	 2
1463571554.512	 2	 -1.806632	 -0.634319	 1.419092	 1.266721	 -0.931704	 -0.859217	 -0.108913	 0.631541	 -0.541648	 0.543978	 2
1463571554.522	 2	 -1.337210	 0.178162	 2.032181	 1.292078	 -0.918105	 -0.827143	 -0.107078	 0.636388	 -0.531940	 0.548256	 2
1463571554.542	 3	 -1.594980	 1.480381	 3.296682	 1.361835	 -0.868272	 -0.764572	 -0.090185	 0.651803	 -0.508637	 0.555255	 2
1463571554.552	 3	 -2.410855	 1.374027	 3.554316	 1.408523	 -0.837950	 -0.721875	 -0.081182	 0.662848	 -0.492290	 0.558294	 2
1463571554.562	 3	 -3.155598	 0.677674	 3.882576	 1.454500	 -0.804467	 -0.670875	 -0.074755	 0.673927	 -0.472029	 0.563403	 2
1463571554.572	 3	 -3.510196	 -0.005853	 4.083929	 1.494512	 -0.767343	 -0.616455	 -0.070461	 0.683819	 -0.448774	 0.570989	 2
1463571554.582	 3	 -2.874737	 -0.672399	 3.654415	 1.520528	 -0.731368	 -0.571088	 -0.067361	 0.690481	 -0.427064	 0.579926	 2
1463571554.592	 3	 -1.721450	 -1.062673	 2.957588	 1.528993	 -0.700984	 -0.542440	 -0.064590	 0.692719	 -0.410578	 0.589402	 2
1463571554.602	 3	 -0.514990	 0.470525	 2.346406	 1.536000	 -0.676514	 -0.530599	 -0.058518	 0.694991	 -0.400378	 0.594358	 2
1463571554.612	 3	 0.678614	 2.740958	 2.190881	 1.555857	 -0.654632	 -0.534664	 -0.045347	 0.701440	 -0.395805	 0.590985	 2
1463571554.622	 3	 1.735961	 3.382136	 2.446622	 1.577773	 -0.630780	 -0.553307	 -0.026007	 0.708619	 -0.394700	 0.584290	 2
1463571554.632	 3	 1.995705	 3.159814	 2.547802	 1.595835	 -0.605768	 -0.578201	 -0.004806	 0.714330	 -0.394663	 0.577885	 2
1463571554.642	 3	 1.393643	 2.393039	 2.609854	 1.610549	 -0.580337	 -0.598461	 0.014219	 0.718621	 -0.392849	 0.573631	 2
1463571554.652	 3	 0.203730	 1.304886	 2.557867	 1.622373	 -0.554701	 -0.606037	 0.028140	 0.721887	 -0.387133	 0.572902	 2
1463571554.662	 3	 -1.149677	 0.276924	 2.379972	 1.631499	 -0.530028	 -0.598251	 0.035578	 0.724503	 -0.377176	 0.575819	 2
1463571554.672	 3	 -2.324533	 -0.140744	 2.097493	 1.641645	 -0.506883	 -0.576312	 0.037437	 0.727697	 -0.363420	 0.580501	 2
1463571554.682	 3	 -3.007957	 -0.380672	 1.736720	 1.653245	 -0.486601	 -0.545308	 0.035113	 0.731550	 -0.347710	 0.585406	 2
1463571554.692	 3	 -3.076425	 -0.707330	 1.544571	 1.662352	 -0.468083	 -0.512155	 0.030796	 0.734744	 -0.331795	 0.590860	 2
1463571554.702	 3	 -2.711814	 -1.056691	 1.330321	 1.665736	 -0.451653	 -0.482254	 0.025911	 0.736189	 -0.317445	 0.597146	 2
1463571554.712	 3	 -2.110819	 -1.010502	 1.049486	 1.665727	 -0.438344	 -0.458263	 0.021576	 0.736510	 -0.305807	 0.602967	 2
1463571554.722	 3	 -1.286642	 -0.563284	 0.865292	 1.665045	 -0.427949	 -0.442837	 0.019306	 0.736504	 -0.297655	 0.607116	 2
1463571554.732	 3	 -0.584158	 0.216047	 0.815271	 1.668226	 -0.419085	 -0.435522	 0.020074	 0.737581	 -0.292407	 0.608333	 2
1463571554.742	 3	 -0.033025	 1.049928	 0.747887	 1.675798	 -0.411815	 -0.435099	 0.023468	 0.739914	 -0.289728	 0.606658	 2
1463571554.752	 3	 0.319490	 1.642866	 0.667205	 1.689702	 -0.405402	 -0.438619	 0.028932	 0.744089	 -0.288418	 0.601922	 2
1463571554.762	 3	 0.299472	 1.634959	 0.741909	 1.704606	 -0.398654	 -0.443166	 0.035017	 0.748498	 -0.287219	 0.596683	 2
1463571554.772	 3	 -0.058105	 1.401942	 0.732197	 1.718568	 -0.391372	 -0.444802	 0.040030	 0.752628	 -0.284917	 0.592259	 2
1463571554.782	 3	 -0.548200	 1.226966	 0.605879	 1.732497	 -0.384322	 -0.441331	 0.042998	 0.756821	 -0.281137	 0.588503	 2
1463571554.792	 3	 -0.930503	 1.175066	 0.334823	 1.747434	 -0.378871	 -0.433082	 0.043720	 0.761392	 -0.276469	 0.584752	 2
1463571554.802	 3	 -1.000799	 1.064089	 -0.036482	 1.762276	 -0.376393	 -0.422562	 0.042537	 0.765954	 -0.272200	 0.580872	 2
1463571554.812	 3	 -0.880933	 1.045551	 -0.197563	 1.776302	 -0.376334	 -0.412587	 0.040623	 0.770221	 -0.269000	 0.576843	 2
1463571554.822	 3	 -0.618131	 1.201353	 -0.313504	 1.790834	 -0.377534	 -0.404549	 0.039085	 0.774545	 -0.266837	 0.572145	 2
1463571554.832	 3	 0.095237	 1.237250	 -0.501626	 1.804399	 -0.381971	 -0.402172	 0.038580	 0.778404	 -0.267515	 0.566600	 2
1463571554.842	 3	 0.972648	 1.393045	 -0.370333	 1.814847	 -0.387770	 -0.409162	 0.040903	 0.781137	 -0.271401	 0.560798	 2
1463571554.852	 3	 1.524216	 1.937913	 -0.252831	 1.827529	 -0.393940	 -0.423158	 0.046206	 0.784284	 -0.277284	 0.553062	 2
1463571554.862	 3	 1.809425	 2.452882	 -0.259048	 1.844021	 -0.400952	 -0.440770	 0.053289	 0.788276	 -0.284277	 0.543110	 2
1463571554.872	 3	 1.900808	 2.890227	 -0.341035	 1.864466	 -0.409264	 -0.459552	 0.061128	 0.793123	 -0.291799	 0.531105	 2
1463571554.882	 3	 1.844154	 3.229599	 -0.499380	 1.888791	 -0.419222	 -0.477478	 0.068864	 0.798781	 -0.299389	 0.517274	 2
1463571554.892	 3	 1.718679	 3.275244	 -0.708884	 1.915207	 -0.431114	 -0.493317	 0.075695	 0.804763	 -0.306890	 0.502439	 2
1463571554.902	 3	 1.644217	 2.781853	 -0.868428	 1.938709	 -0.444704	 -0.507179	 0.080975	 0.809806	 -0.314473	 0.488634	 2
1463571554.912	 3	 1.854068	 2.050297	 -0.901575	 1.954510	 -0.459607	 -0.521915	 0.085168	 0.812715	 -0.322943	 0.477440	 2
1463571554.922	 3	 2.263843	 1.603357	 -0.913565	 1.962989	 -0.476191	 -0.540369	 0.089303	 0.813555	 -0.333116	 0.468174	 2
1463571554.932	 3	 2.757649	 1.727748	 -0.867682	 1.968609	 -0.494409	 -0.563996	 0.094651	 0.813355	 -0.345080	 0.458709	 2
1463571554.942	 3	 3.146663	 2.126063	 -0.931308	 1.975226	 -0.514724	 -0.592188	 0.101470	 0.812993	 -0.358604	 0.447380	 2
1463571554.952	 3	 3.258154	 2.364972	 -1.088847	 1.984167	 -0.536697	 -0.621558	 0.108773	 0.812883	 -0.372603	 0.434231	 2
1463571554.962	 3	 3.151341	 2.129248	 -1.370406	 1.991622	 -0.561422	 -0.649585	 0.114534	 0.812272	 -0.387084	 0.421026	 2
1463571554.972	 3	 2.859618	 1.884047	 -1.713323	 1.997905	 -0.588364	 -0.673539	 0.117826	 0.811425	 -0.401276	 0.408270	 2
1463571554.982	 3	 2.450830	 1.873702	 -1.984827	 2.006016	 -0.616498	 -0.691975	 0.118953	 0.811078	 -0.414404	 0.395312	 2
1463571554.992	 3	 2.142653	 2.146034	 -2.249247	 2.019033	 -0.645611	 -0.705127	 0.118762	 0.811771	 -0.426341	 0.380995	 2
1463571555.002	 3	 1.985022	 1.983956	 -2.515824	 2.033950	 -0.676544	 -0.714340	 0.116989	 0.812710	 -0.437900	 0.366143	 2
1463571555.012	 3	 1.954018	 1.824887	 -2.609755	 2.047942	 -0.708558	 -0.721612	 0.114049	 0.813232	 -0.449414	 0.351673	 2
1463571555.022	 3	 2.155762	 1.573417	 -2.298386	 2.057783	 -0.739575	 -0.731573	 0.111648	 0.812644	 -0.461164	 0.338338	 2
1463571555.032	 3	 2.022873	 1.084386	 -1.587719	 2.060471	 -0.765222	 -0.745461	 0.110724	 0.810772	 -0.471985	 0.328054	 2
1463571555.042	 3	 1.308267	 0.433410	 -0.710432	 2.057556	 -0.780461	 -0.758038	 0.110837	 0.808647	 -0.479276	 0.322646	 2
1463571555.062	 4	 0.085273	 0.526955	 0.253878	 2.057909	 -0.785444	 -0.768594	 0.113782	 0.807797	 -0.482597	 0.318775	 2
1463571555.072	 4	 0.196233	 0.412356	 0.922210	 2.057535	 -0.779233	 -0.775121	 0.118081	 0.807741	 -0.481610	 0.318845	 2
1463571555.082	 4	 1.171775	 0.424365	 1.212241	 2.049086	 -0.772943	 -0.793569	 0.125267	 0.805636	 -0.483002	 0.319325	 2
1463571555.092	 4	 2.484407	 0.324591	 1.330973	 2.027667	 -0.771205	 -0.828859	 0.134723	 0.800009	 -0.489470	 0.319772	 2
1463571555.102	 4	 2.877537	 1.282038	 1.370564	 2.006262	 -0.771096	 -0.873133	 0.147109	 0.793484	 -0.497997	 0.317397	 2
1463571555.112	 4	 2.119684	 2.656225	 0.771807	 2.004573	 -0.772311	 -0.908842	 0.160470	 0.790430	 -0.504092	 0.308804	 2
1463571555.132	 5	 -0.110762	 2.316028	 -0.986432	 2.060966	 -0.783315	 -0.915863	 0.174281	 0.797757	 -0.503812	 0.281749	 2
1463571555.142	 5	 0.252339	 0.387433	 -1.316611	 2.074739	 -0.794921	 -0.908723	 0.171600	 0.799778	 -0.505257	 0.274998	 2
1463571555.152	 5	 1.092935	 -1.264715	 -1.320120	 2.064573	 -0.810821	 -0.910552	 0.165216	 0.797470	 -0.511320	 0.274404	 2
1463571555.162	 5	 1.931986	 -2.416472	 -0.962995	 2.031963	 -0.828328	 -0.925739	 0.157765	 0.790912	 -0.521399	 0.278767	 2
1463571555.172	 5	 2.545989	 -2.918292	 -0.540311	 1.982282	 -0.844243	 -0.954416	 0.151209	 0.781016	 -0.533972	 0.286399	 2
1463571555.182	 5	 2.508399	 -2.636354	 -0.397745	 1.929386	 -0.857807	 -0.988164	 0.145872	 0.770390	 -0.546600	 0.294024	 2
1463571555.192	 5	 1.729250	 -2.030573	 -0.338431	 1.887444	 -0.867603	 -1.014760	 0.141439	 0.762020	 -0.556178	 0.299978	 2
1463571555.202	 5	 0.739085	 -1.782899	 -0.318979	 1.859365	 -0.873591	 -1.027798	 0.136642	 0.756763	 -0.561646	 0.305274	 2
1463571555.212	 5	 0.036138	 -1.885545	 -0.384154	 1.839995	 -0.877573	 -1.029054	 0.130388	 0.753641	 -0.564137	 0.311084	 2
1463571555.222	 5	 -0.302755	 -2.287062	 -0.594895	 1.822752	 -0.882119	 -1.023300	 0.121885	 0.751239	 -0.565451	 0.317882	 2
1463571555.232	 5	 -0.432742	 -2.897227	 -0.892525	 1.802625	 -0.889074	 -1.013950	 0.110419	 0.748463	 -0.566826	 0.326067	 2
1463571555.242	 5	 -0.458419	 -3.608366	 -1.138716	 1.776869	 -0.898652	 -1.003087	 0.095906	 0.744652	 -0.568681	 0.336003	 2
1463571555.252	 5	 -0.457625	 -4.426469	 -1.310469	 1.742878	 -0.910619	 -0.992373	 0.078270	 0.739175	 -0.571173	 0.348219	 2
1463571555.262	 5	 -0.496207	 -5.073616	 -1.389729	 1.699223	 -0.925156	 -0.983711	 0.057682	 0.731577	 -0.574472	 0.362560	 2
1463571555.272	 5	 -0.615441	 -5.185403	 -1.452615	 1.656625	 -0.939020	 -0.971766	 0.036337	 0.723873	 -0.576353	 0.377497	 2
1463571555.282	 5	 -0.836814	 -4.129862	 -1.481364	 1.624261	 -0.953210	 -0.956736	 0.016675	 0.717771	 -0.576970	 0.389400	 2
1463571555.292	 5	 -0.956690	 -2.597062	 -1.510820	 1.608844	 -0.967789	 -0.939168	 0.000851	 0.714693	 -0.576687	 0.395785	 2
1463571555.312	 6	 -0.586157	 -0.553389	 -1.734825	 1.610403	 -0.999669	 -0.909238	 -0.020529	 0.714340	 -0.577517	 0.394678	 2
1463571555.322	 6	 -0.242426	 -0.104110	 -1.975565	 1.614916	 -1.018649	 -0.901511	 -0.028603	 0.714667	 -0.580060	 0.389824	 2
1463571555.332	 6	 0.176397	 0.156019	 -2.162234	 1.616337	 -1.039874	 -0.901010	 -0.035759	 0.714315	 -0.584424	 0.383305	 2
1463571555.342	 6	 0.640404	 0.426166	 -2.269271	 1.612442	 -1.062493	 -0.909534	 -0.041738	 0.713014	 -0.590605	 0.375571	 2
1463571555.362	 6	 1.482354	 1.611003	 -2.079068	 1.591202	 -1.109123	 -0.957822	 -0.047241	 0.708740	 -0.607976	 0.354712	 2
1463571555.352	 6	 1.101871	 0.866239	 -2.412006	 1.603158	 -1.086646	 -0.928494	 -0.046176	 0.710913	 -0.598710	 0.366082	 2
1463571555.372	 6	 1.528644	 2.027437	 -1.396705	 1.579578	 -1.124916	 -0.992655	 -0.044020	 0.707075	 -0.616627	 0.343333	 2
1463571555.382	 6	 1.127125	 1.660115	 -1.024676	 1.571201	 -1.135961	 -1.021758	 -0.040229	 0.706022	 -0.623266	 0.333847	 2
1463571555.392	 6	 0.708271	 0.878298	 -0.762930	 1.564515	 -1.144244	 -1.041025	 -0.038449	 0.705140	 -0.627682	 0.327590	 2
1463571555.402	 6	 0.381483	 -0.101337	 -0.462261	 1.555529	 -1.149548	 -1.052435	 -0.039133	 0.703809	 -0.630216	 0.325498	 2
1463571555.412	 6	 0.014887	 -0.510248	 -0.384007	 1.548612	 -1.153381	 -1.055172	 -0.041711	 0.702683	 -0.631121	 0.325857	 2
1463571555.422	 6	 -0.182968	 -0.719066	 -0.512119	 1.545088	 -1.158155	 -1.051761	 -0.045715	 0.701966	 -0.631226	 0.326662	 2
1463571555.432	 6	 -0.182513	 -0.970968	 -0.635944	 1.540020	 -1.164323	 -1.047396	 -0.051037	 0.700937	 -0.631337	 0.327867	 2
1463571555.442	 6	 -0.063449	 -1.133487	 -0.558561	 1.530795	 -1.170263	 -1.045373	 -0.056771	 0.699272	 -0.631658	 0.329855	 2
1463571555.452	 6	 0.148194	 -0.990242	 -0.373628	 1.517768	 -1.174446	 -1.048198	 -0.061392	 0.697137	 -0.632364	 0.332184	 2
1463571555.462	 6	 0.353342	 -0.622710	 -0.209998	 1.502788	 -1.176666	 -1.056628	 -0.063993	 0.694879	 -0.633621	 0.334024	 2
1463571555.472	 6	 0.303667	 -0.287587	 -0.218171	 1.490686	 -1.178486	 -1.065770	 -0.065311	 0.693135	 -0.635015	 0.334744	 2
1463571555.482	 6	 0.051868	 0.005169	 -0.283594	 1.486578	 -1.181040	 -1.069464	 -0.066254	 0.692553	 -0.635851	 0.334177	 2
1463571555.492	 6	 -0.167329	 0.210489	 -0.366102	 1.490540	 -1.184593	 -1.067044	 -0.067107	 0.693107	 -0.636069	 0.332439	 2
1463571555.502	 6	 -0.302199	 0.201711	 -0.457731	 1.498740	 -1.189131	 -1.060641	 -0.068347	 0.694205	 -0.635915	 0.330181	 2
1463571555.512	 6	 -0.317341	 -0.087372	 -0.433645	 1.506019	 -1.193799	 -1.052808	 -0.070424	 0.695072	 -0.635534	 0.328651	 2
1463571555.522	 6	 -0.260923	 -0.690621	 -0.289477	 1.507330	 -1.197310	 -1.045792	 -0.073701	 0.694980	 -0.634925	 0.329302	 2
1463571555.532	 6	 -0.132482	 -1.471172	 -0.071917	 1.498754	 -1.198677	 -1.041373	 -0.078443	 0.693369	 -0.634061	 0.333245	 2
1463571555.542	 6	 0.015383	 -2.146995	 0.075042	 1.479471	 -1.198268	 -1.040673	 -0.084648	 0.690100	 -0.633100	 0.340267	 2
1463571555.552	 6	 0.100220	 -2.076682	 0.125049	 1.455944	 -1.197014	 -1.042728	 -0.090932	 0.686155	 -0.632251	 0.348112	 2
1463571555.562	 6	 0.023698	 -1.325602	 0.117783	 1.439736	 -1.195733	 -1.043759	 -0.095237	 0.683369	 -0.631508	 0.353744	 2
1463571555.572	 6	 -0.211296	 -0.620366	 0.031539	 1.435709	 -1.195353	 -1.039593	 -0.097793	 0.682455	 -0.630524	 0.356555	 2
1463571555.582	 6	 -0.519927	 -0.335319	 -0.093144	 1.442907	 -1.196513	 -1.027940	 -0.099924	 0.683155	 -0.628953	 0.357397	 2
1463571555.592	 6	 -0.835114	 -0.346672	 -0.172569	 1.458177	 -1.199014	 -1.007847	 -0.102906	 0.684834	 -0.626477	 0.357686	 2
1463571555.602	 6	 -1.185083	 -0.107390	 -0.171559	 1.483996	 -1.201805	 -0.978141	 -0.106039	 0.687839	 -0.622917	 0.357223	 2
1463571555.612	 6	 -1.457167	 0.821810	 -0.189319	 1.525450	 -1.204554	 -0.939669	 -0.107432	 0.693067	 -0.618713	 0.353992	 2
1463571555.622	 6	 -1.448031	 1.704967	 -0.282428	 1.578749	 -1.207435	 -0.898548	 -0.106330	 0.700076	 -0.614838	 0.347218	 2
1463571555.632	 6	 -1.154653	 2.121176	 -0.264057	 1.632494	 -1.209809	 -0.863266	 -0.103081	 0.707293	 -0.612040	 0.338406	 2
1463571555.642	 6	 -0.789958	 2.086746	 -0.024559	 1.676799	 -1.210060	 -0.838307	 -0.098494	 0.713422	 -0.610149	 0.330221	 2
1463571555.652	 6	 -0.526842	 1.886697	 0.362424	 1.710918	 -1.206749	 -0.822806	 -0.092538	 0.718541	 -0.608561	 0.323711	 2
1463571555.662	 6	 -0.349041	 1.049550	 0.715445	 1.731503	 -1.199895	 -0.814792	 -0.086894	 0.722114	 -0.606732	 0.320745	 2
1463571555.672	 6	 -0.228776	 -0.380429	 0.989913	 1.734086	 -1.190364	 -0.811976	 -0.083979	 0.723277	 -0.604318	 0.323446	 2
1463571555.682	 6	 -0.359994	 -1.622358	 1.134034	 1.722331	 -1.178939	 -0.809565	 -0.084607	 0.722265	 -0.600932	 0.331745	 2
1463571555.692	 6	 -2.646596	 0.302590	 1.357298	 1.762038	 -1.163142	 -0.763965	 -0.084113	 0.728426	 -0.591426	 0.335465	 2
1463571555.702	 6	 -3.442847	 0.039638	 2.174961	 1.829469	 -1.136452	 -0.693360	 -0.081804	 0.739682	 -0.575745	 0.338667	 2
1463571555.712	 6	 -2.875829	 -1.240853	 2.710173	 1.864767	 -1.102995	 -0.643283	 -0.080004	 0.747615	 -0.559642	 0.348527	 2
1463571555.722	 6	 -2.782598	 -1.353082	 2.672081	 1.885791	 -1.068905	 -0.603946	 -0.078574	 0.753889	 -0.543908	 0.360058	 2
1463571555.732	 6	 -3.020608	 -1.107800	 2.372694	 1.909221	 -1.036175	 -0.563517	 -0.077783	 0.760611	 -0.527809	 0.369916	 2
1463571555.742	 6	 -3.370293	 -0.689623	 1.962917	 1.940194	 -1.005359	 -0.517955	 -0.078101	 0.768521	 -0.511025	 0.377001	 2
1463571555.752	 6	 -3.287959	 -0.593438	 1.619919	 1.971532	 -0.977095	 -0.473222	 -0.079398	 0.776410	 -0.494691	 0.382315	 2
1463571555.762	 6	 -2.866950	 -0.561876	 1.449223	 1.996836	 -0.951538	 -0.435615	 -0.080744	 0.783209	 -0.479966	 0.386905	 2
1463571555.772	 6	 -2.402526	 -0.251956	 1.400104	 2.016122	 -0.928170	 -0.407147	 -0.080957	 0.789000	 -0.467216	 0.390684	 2
1463571555.782	 6	 -1.895915	 0.195953	 1.329520	 2.032966	 -0.907177	 -0.386977	 -0.079384	 0.794372	 -0.456603	 0.392664	 2
1463571555.792	 6	 -1.416481	 0.770460	 1.251825	 2.049125	 -0.888915	 -0.374266	 -0.075931	 0.799554	 -0.448242	 0.392462	 2
1463571555.802	 6	 -0.985559	 1.392557	 1.263454	 2.066009	 -0.872742	 -0.368297	 -0.070314	 0.804844	 -0.441862	 0.389923	 2
1463571555.812	 6	 -0.555344	 2.241854	 1.364596	 2.085361	 -0.857826	 -0.369324	 -0.061771	 0.810642	 -0.437258	 0.384512	 2
1463571555.822	 6	 -0.128491	 3.109851	 1.403061	 2.108743	 -0.844566	 -0.376941	 -0.050175	 0.817071	 -0.434470	 0.375650	 2
1463571555.832	 6	 0.202401	 3.569481	 1.410851	 2.134240	 -0.833245	 -0.389546	 -0.036614	 0.823556	 -0.433141	 0.364422	 2
1463571555.842	 6	 0.424406	 3.489805	 1.513687	 2.157397	 -0.822889	 -0.406147	 -0.022160	 0.829301	 -0.432573	 0.353058	 2
1463571555.852	 6	 0.477185	 3.064863	 1.604126	 2.175587	 -0.812418	 -0.424906	 -0.007847	 0.833943	 -0.432023	 0.343269	 2
1463571555.862	 6	 0.393968	 2.436128	 1.551041	 2.188554	 -0.801945	 -0.442912	 0.005039	 0.837460	 -0.431121	 0.335812	 2
1463571555.872	 6	 0.333138	 1.894807	 1.387735	 2.197296	 -0.792308	 -0.458835	 0.015948	 0.840001	 -0.430068	 0.330433	 2
1463571555.882	 6	 0.392086	 1.633924	 1.223864	 2.203666	 -0.784301	 -0.473554	 0.025452	 0.841840	 -0.429373	 0.326031	 2
1463571555.892	 6	 0.565580	 1.570377	 1.184460	 2.208332	 -0.777816	 -0.489339	 0.034679	 0.843106	 -0.429393	 0.321856	 2
1463571555.902	 6	 0.764094	 1.645756	 1.099238	 2.212229	 -0.772999	 -0.506883	 0.044086	 0.843925	 -0.430290	 0.317329	 2
1463571555.912	 6	 0.884567	 1.750642	 0.944630	 2.217074	 -0.770307	 -0.524707	 0.053309	 0.844549	 -0.431955	 0.311945	 2
1463571555.922	 6	 0.945711	 1.789169	 0.708922	 2.223104	 -0.769703	 -0.541646	 0.061917	 0.845058	 -0.434169	 0.305845	 2
1463571555.932	 6	 0.941705	 1.699313	 0.343630	 2.230679	 -0.772059	 -0.555780	 0.068969	 0.845489	 -0.436949	 0.299111	 2
1463571555.942	 6	 0.923838	 1.356614	 0.013408	 2.237544	 -0.777041	 -0.566714	 0.073891	 0.845582	 -0.440199	 0.292841	 2
1463571555.952	 6	 0.972340	 0.995110	 -0.242964	 2.242009	 -0.784389	 -0.575701	 0.076902	 0.845101	 -0.444098	 0.287521	 2
1463571555.962	 6	 1.070484	 0.747296	 -0.495513	 2.244518	 -0.794261	 -0.583458	 0.078353	 0.844085	 -0.448804	 0.282767	 2
1463571555.972	 6	 1.210997	 0.637803	 -0.723697	 2.245922	 -0.806837	 -0.590617	 0.078647	 0.842613	 -0.454441	 0.278032	 2
1463571555.982	 6	 1.380971	 0.635902	 -0.917032	 2.246967	 -0.821956	 -0.597878	 0.078280	 0.840770	 -0.461004	 0.272860	 2
1463571555.992	 6	 1.639657	 0.667733	 -1.116154	 2.247449	 -0.840075	 -0.606127	 0.077454	 0.838428	 -0.468768	 0.267013	 2
1463571556.002	 6	 1.981816	 0.749308	 -1.315540	 2.246927	 -0.861811	 -0.616502	 0.076373	 0.835391	 -0.478083	 0.260240	 2
1463571556.012	 6	 2.300920	 0.864406	 -1.448336	 2.245051	 -0.886814	 -0.629774	 0.075320	 0.831610	 -0.488871	 0.252503	 2
1463571556.022	 6	 2.390837	 0.973255	 -1.508854	 2.242811	 -0.913422	 -0.644805	 0.074430	 0.827445	 -0.500283	 0.243949	 2
1463571556.032	 6	 1.987787	 0.992978	 -1.445479	 2.242740	 -0.938181	 -0.657267	 0.073406	 0.823798	 -0.510464	 0.235363	 2
1463571556.042	 6	 1.049920	 1.053863	 -1.202279	 2.250079	 -0.956328	 -0.661026	 0.072323	 0.822111	 -0.516939	 0.227327	 2
1463571556.052	 6	 -0.009851	 1.114488	 -0.751262	 2.266029	 -0.964635	 -0.654828	 0.071852	 0.822987	 -0.518557	 0.220519	 2
1463571556.062	 6	 -0.911459	 1.715665	 -0.349880	 2.292925	 -0.963414	 -0.640564	 0.073219	 0.826594	 -0.515605	 0.213384	 2
1463571556.072	 6	 -1.501185	 2.539971	 -0.147369	 2.333140	 -0.955461	 -0.620487	 0.077064	 0.832697	 -0.509160	 0.203549	 2
1463571556.082	 6	 -1.691428	 2.515580	 0.078936	 2.374949	 -0.943552	 -0.600658	 0.082029	 0.839424	 -0.501178	 0.193546	 2
1463571556.092	 6	 -1.576354	 1.758304	 0.127373	 2.408615	 -0.930747	 -0.583557	 0.085983	 0.845302	 -0.493364	 0.186182	 2
1463571556.102	 6	 -1.147543	 0.644015	 0.058916	 2.428346	 -0.920730	 -0.570481	 0.087397	 0.849244	 -0.487509	 0.182980	 2
1463571556.122	 7	 0.148837	 -0.666742	 -0.057289	 2.426662	 -0.915699	 -0.564327	 0.085422	 0.850137	 -0.485094	 0.186157	 2
1463571556.132	 7	 0.606483	 -0.559776	 -0.228669	 2.418016	 -0.920690	 -0.567444	 0.083598	 0.848422	 -0.487653	 0.188113	 2
1463571556.142	 7	 0.687608	 -0.242744	 -0.331936	 2.411683	 -0.928010	 -0.571321	 0.082145	 0.846528	 -0.491056	 0.188431	 2
1463571556.152	 7	 0.280658	 0.036893	 -0.216017	 2.410530	 -0.932758	 -0.572487	 0.081347	 0.845631	 -0.493007	 0.187708	 2
1463571556.162	 7	 -0.276982	 0.234152	 0.212716	 2.412732	 -0.931050	 -0.572049	 0.082067	 0.846123	 -0.492231	 0.187217	 2
1463571556.172	 7	 -0.404594	 0.485966	 0.564674	 2.415653	 -0.924698	 -0.573627	 0.084797	 0.847319	 -0.489853	 0.186828	 2
1463571556.182	 7	 -0.195933	 0.548593	 0.631649	 2.417250	 -0.918634	 -0.578745	 0.088638	 0.848180	 -0.487963	 0.186080	 2
1463571556.192	 7	 0.046227	 0.239102	 0.439087	 2.415629	 -0.915152	 -0.584498	 0.091420	 0.848302	 -0.487251	 0.186045	 2
1463571556.202	 7	 0.685950	 0.554465	 0.184931	 2.413332	 -0.917188	 -0.593050	 0.094052	 0.847384	 -0.488920	 0.184531	 2
1463571556.212	 7	 1.597860	 1.168445	 -0.141287	 2.411989	 -0.927744	 -0.607356	 0.097516	 0.844978	 -0.494257	 0.179478	 2
1463571556.222	 7	 2.249811	 1.844073	 -0.431630	 2.412938	 -0.946082	 -0.626723	 0.101964	 0.841296	 -0.502739	 0.170523	 2
1463571556.232	 7	 1.859340	 2.629621	 -0.799266	 2.425928	 -0.965804	 -0.640926	 0.106957	 0.838551	 -0.510509	 0.157394	 2
1463571556.242	 7	 0.990841	 2.611737	 -1.269332	 2.454176	 -0.982429	 -0.639162	 0.109914	 0.838091	 -0.514973	 0.142567	 2
1463571556.252	 7	 0.184527	 1.679752	 -1.924296	 2.491232	 -0.996124	 -0.618455	 0.107956	 0.839432	 -0.516629	 0.129590	 2
1463571556.262	 7	 0.074997	 0.336615	 -2.380264	 2.525819	 -1.010302	 -0.584976	 0.100030	 0.840818	 -0.518061	 0.120957	 2
1463571556.272	 7	 0.246305	 -0.404375	 -2.703050	 2.556550	 -1.026631	 -0.545916	 0.088497	 0.841410	 -0.520519	 0.115144	 2
1463571556.282	 7	 0.540675	 -0.761447	 -3.128846	 2.588728	 -1.046809	 -0.500710	 0.074270	 0.841061	 -0.524429	 0.109886	 2
1463571556.292	 7	 0.913304	 -1.163618	 -3.142227	 2.619024	 -1.070151	 -0.453593	 0.058517	 0.839370	 -0.529951	 0.105761	 2
1463571556.302	 7	 1.192456	 -1.276310	 -2.582984	 2.641057	 -1.093457	 -0.414330	 0.044224	 0.836405	 -0.536444	 0.103434	 2
1463571556.312	 7	 1.414833	 -1.070058	 -1.919031	 2.652997	 -1.115260	 -0.388156	 0.033195	 0.832545	 -0.543406	 0.102353	 2
1463571556.322	 7	 1.557078	 -0.878332	 -1.530548	 2.658699	 -1.136306	 -0.371742	 0.024809	 0.828126	 -0.550715	 0.101518	 2
1463571556.332	 7	 1.508536	 -0.877197	 -1.393697	 2.662155	 -1.156431	 -0.358498	 0.017355	 0.823594	 -0.557846	 0.100992	 2
1463571556.342	 7	 1.388970	 -1.073945	 -1.439249	 2.666099	 -1.175526	 -0.343130	 0.009403	 0.819196	 -0.564452	 0.101109	 2
1463571556.352	 7	 1.312107	 -1.380283	 -1.619413	 2.672888	 -1.194550	 -0.321895	 -0.000020	 0.814802	 -0.570719	 0.101867	 2
1463571556.362	 7	 1.137524	 -1.851939	 -1.755502	 2.681826	 -1.212839	 -0.293820	 -0.011350	 0.810469	 -0.576366	 0.103985	 2
1463571556.372	 7	 0.945871	 -2.246559	 -1.982381	 2.695292	 -1.230210	 -0.256160	 -0.024924	 0.806250	 -0.581213	 0.107382	 2
1463571556.382	 7	 1.072499	 -2.194868	 -2.136472	 2.716417	 -1.248255	 -0.210364	 -0.039342	 0.801767	 -0.586052	 0.110294	 2
1463571556.392	 7	 1.415404	 -1.732668	 -2.062685	 2.740343	 -1.268875	 -0.165525	 -0.052469	 0.796314	 -0.592116	 0.111937	 2
1463571556.402	 7	 1.682711	 -1.104550	 -1.873725	 2.766819	 -1.291164	 -0.124713	 -0.062964	 0.790227	 -0.599255	 0.111675	 2
1463571556.412	 7	 1.858339	 -0.556131	 -1.565343	 2.792641	 -1.314043	 -0.090835	 -0.070510	 0.783803	 -0.607109	 0.110002	 2
1463571556.422	 7	 1.901795	 -0.242019	 -1.206834	 2.813143	 -1.336269	 -0.066602	 -0.075444	 0.777360	 -0.615121	 0.107914	 2
1463571556.432	 7	 1.822597	 -0.311969	 -0.911579	 2.825573	 -1.356906	 -0.051088	 -0.079084	 0.771117	 -0.622698	 0.106637	 2
1463571556.442	 7	 1.632549	 -0.732144	 -0.703871	 2.828664	 -1.375278	 -0.041742	 -0.082954	 0.765205	 -0.629338	 0.107304	 2
1463571556.452	 7	 1.388697	 -1.171960	 -0.584344	 2.824933	 -1.390923	 -0.034669	 -0.087868	 0.759792	 -0.634729	 0.110066	 2
1463571556.462	 7	 1.236789	 -1.548470	 -0.498067	 2.815694	 -1.404593	 -0.029253	 -0.093767	 0.754701	 -0.639158	 0.114503	 2
1463571556.472	 7	 1.190964	 -1.825381	 -0.421378	 2.799510	 -1.417336	 -0.027761	 -0.100381	 0.749616	 -0.643058	 0.120313	 2
1463571556.482	 7	 1.237680	 -1.937730	 -0.348227	 2.775054	 -1.430047	 -0.033069	 -0.107195	 0.744307	 -0.646843	 0.126932	 2
1463571556.492	 7	 1.334359	 -1.882027	 -0.254763	 2.738612	 -1.443220	 -0.050659	 -0.113533	 0.738667	 -0.650828	 0.133806	 2
1463571556.502	 7	 1.457019	 -1.709738	 -0.207334	 2.688460	 -1.457062	 -0.083427	 -0.119104	 0.732688	 -0.655185	 0.140411	 2
1463571556.512	 7	 1.615997	 -1.484768	 -0.214085	 2.620682	 -1.471984	 -0.135992	 -0.123821	 0.726259	 -0.660150	 0.146350	 2
1463571556.522	 7	 1.747981	 -1.238145	 -0.325911	 2.534142	 -1.488046	 -0.209906	 -0.127887	 0.719430	 -0.665751	 0.151133	 2
1463571556.532	 7	 1.884406	 -1.116536	 -0.514607	 2.417915	 -1.505477	 -0.315021	 -0.131942	 0.712073	 -0.671983	 0.154862	 2
1463571556.542	 7	 2.011365	 -1.149488	 -0.753684	 2.233222	 -1.524178	 -0.488673	 -0.136661	 0.704027	 -0.678786	 0.157858	 2
1463571556.552	 7	 2.053319	 -1.321598	 -1.002907	 1.845086	 -1.542145	 -0.864363	 -0.142648	 0.695364	 -0.685823	 0.160520	 2
1463571556.562	 7	 1.928712	 -1.526059	 -1.233930	 0.909063	 -1.550825	 -1.785820	 -0.150225	 0.686511	 -0.692505	 0.163011	 2
1463571556.572	 7	 1.665819	 -1.666037	 -1.429043	 0.053267	 -1.540972	 -2.625462	 -0.159211	 0.678059	 -0.698298	 0.165134	 2
1463571556.582	 7	 1.352966	 -1.592673	 -1.558857	 -0.314709	 -1.524548	 -2.977420	 -0.168882	 0.670447	 -0.703053	 0.166423	 2
1463571556.602	 8	 0.951578	 -1.124941	 -1.609627	 -0.636931	 -1.490185	 3.009095	 -0.187009	 0.657769	 -0.710589	 0.165623	 2
1463571556.612	 8	 0.901677	 -0.936802	 -1.499800	 -0.716865	 -1.473502	 2.938621	 -0.194746	 0.652271	 -0.713896	 0.164221	 2
1463571556.622	 8	 0.881034	 -0.934416	 -1.325879	 -0.765191	 -1.457685	 2.899315	 -0.201779	 0.646979	 -0.716988	 0.163193	 2
1463571556.632	 8	 0.823679	 -1.038148	 -1.133441	 -0.795854	 -1.443425	 2.878583	 -0.208519	 0.641936	 -0.719617	 0.163063	 2
1463571556.642	 8	 0.776332	 -1.232749	 -1.000554	 -0.818254	 -1.430546	 2.867841	 -0.215402	 0.637047	 -0.721731	 0.163946	 2
1463571556.652	 8	 0.733253	 -1.599072	 -0.932182	 -0.839380	 -1.418528	 2.861595	 -0.223192	 0.632084	 -0.723237	 0.166083	 2
1463571556.672	 9	 0.423974	 -2.515755	 -0.596975	 -0.890554	 -1.399659	 2.854105	 -0.242804	 0.622485	 -0.722982	 0.175658	 2
1463571556.682	 9	 0.114390	 -2.731212	 -0.366080	 -0.923463	 -1.395088	 2.848083	 -0.253678	 0.618820	 -0.720633	 0.182748	 2
1463571556.692	 9	 -0.272418	 -2.575251	 -0.136385	 -0.964282	 -1.394558	 2.833392	 -0.263913	 0.616750	 -0.716856	 0.189963	 2
1463571556.702	 9	 -0.535122	 -2.149309	 0.119255	 -1.008180	 -1.397656	 2.811797	 -0.272309	 0.616362	 -0.712281	 0.196474	 2
1463571556.712	 9	 -0.698134	 -1.670125	 0.423546	 -1.048164	 -1.403996	 2.789364	 -0.278233	 0.617373	 -0.707463	 0.202321	 2
1463571556.722	 9	 -1.054914	 -1.275843	 0.675447	 -1.094813	 -1.413966	 2.755973	 -0.282120	 0.620181	 -0.701974	 0.207403	 2
1463571556.732	 9	 -1.572921	 -0.836952	 0.853498	 -1.167836	 -1.427465	 2.691750	 -0.284425	 0.625376	 -0.695282	 0.211162	 2
1463571556.742	 9	 -1.948002	 -0.394397	 1.007957	 -1.277652	 -1.442977	 2.585969	 -0.285094	 0.632696	 -0.687655	 0.213419	 2
1463571556.762	 10	 -2.177221	 0.311448	 1.301079	 -1.619546	 -1.472429	 2.239822	 -0.281165	 0.650645	 -0.671865	 0.214953	 2
1463571556.772	 10	 -2.322470	 0.237851	 1.360276	 -1.881911	 -1.481697	 1.973632	 -0.278305	 0.660428	 -0.663316	 0.215390	 2
1463571556.782	 10	 -2.653951	 0.065742	 1.399928	 -2.209136	 -1.482389	 1.644105	 -0.276097	 0.670877	 -0.653455	 0.216081	 2
1463571556.792	 10	 -3.071937	 0.337370	 1.433805	 -2.535944	 -1.470743	 1.313607	 -0.273758	 0.682727	 -0.642147	 0.215841	 2
1463571556.802	 10	 -3.095166	 1.245124	 1.492545	 -2.775452	 -1.449822	 1.062799	 -0.268921	 0.695717	 -0.631134	 0.212907	 2
1463571556.812	 10	 -2.691339	 2.145642	 1.606116	 -2.929649	 -1.427332	 0.887598	 -0.260238	 0.708634	 -0.622212	 0.207280	 2
1463571556.822	 10	 -2.227058	 2.645821	 1.832669	 -3.040471	 -1.406926	 0.749657	 -0.248421	 0.720721	 -0.615292	 0.200656	 2
1463571556.832	 10	 -1.885031	 2.484452	 2.158576	 -3.138997	 -1.388414	 0.623496	 -0.234945	 0.731770	 -0.609244	 0.195284	 2
1463571556.842	 10	 -1.751448	 1.655026	 2.385228	 3.046708	 -1.369647	 0.504948	 -0.222307	 0.741639	 -0.602619	 0.193397	 2
1463571556.852	 10	 -1.867331	 0.633105	 2.367136	 2.957430	 -1.348254	 0.404626	 -0.212543	 0.750543	 -0.594459	 0.195268	 2
1463571556.862	 10	 -2.137927	 -0.065813	 2.240426	 2.884398	 -1.323124	 0.328704	 -0.205755	 0.759083	 -0.584511	 0.199510	 2
1463571556.872	 10	 -2.442395	 -0.444786	 2.072226	 2.829728	 -1.294471	 0.275882	 -0.201118	 0.767712	 -0.572974	 0.204622	 2
1463571556.882	 10	 -2.736554	 -0.634811	 1.856669	 2.792275	 -1.263064	 0.243040	 -0.198187	 0.776546	 -0.560110	 0.209699	 2
1463571556.892	 10	 -3.018829	 -0.583300	 1.659243	 2.769707	 -1.229460	 0.225681	 -0.196347	 0.785735	 -0.546186	 0.213890	 2
1463571556.902	 10	 -3.240540	 -0.395532	 1.501990	 2.758395	 -1.194108	 0.218374	 -0.194892	 0.795361	 -0.531473	 0.216689	 2
1463571556.912	 10	 -3.300411	 -0.284835	 1.342611	 2.754453	 -1.158358	 0.217374	 -0.193753	 0.805015	 -0.516482	 0.218304	 2
1463571556.922	 10	 -3.158115	 -0.354017	 1.246942	 2.752088	 -1.123897	 0.218259	 -0.192925	 0.814052	 -0.501817	 0.219725	 2
1463571556.932	 10	 -2.842973	 -0.461732	 1.187776	 2.747909	 -1.092207	 0.218582	 -0.192377	 0.821973	 -0.488064	 0.221685	 2
1463571556.942	 10	 -2.364689	 -0.427985	 1.194583	 2.741043	 -1.064633	 0.215759	 -0.191299	 0.828631	 -0.476038	 0.223970	 2
1463571556.952	 10	 -1.875458	 -0.336825	 1.202895	 2.731845	 -1.041552	 0.209360	 -0.189412	 0.834067	 -0.466042	 0.226409	 2
1463571556.962	 10	 -1.400915	 -0.161861	 1.174813	 2.721817	 -1.022880	 0.200119	 -0.186662	 0.838451	 -0.458149	 0.228599	 2
1463571556.972	 10	 -0.957490	 0.040303	 1.071586	 2.712629	 -1.008631	 0.189420	 -0.183284	 0.841885	 -0.452398	 0.230158	 2
1463571556.982	 10	 -0.528473	 0.152960	 0.939942	 2.704311	 -0.998778	 0.177969	 -0.179619	 0.844354	 -0.448717	 0.231205	 2
1463571556.992	 10	 -0.114662	 0.168167	 0.857614	 2.695199	 -0.993135	 0.165134	 -0.175807	 0.845796	 -0.446960	 0.232268	 2
1463571557.002	 10	 0.130704	 0.171517	 0.832062	 2.684838	 -0.990207	 0.150708	 -0.171784	 0.846542	 -0.446476	 0.233486	 2
1463571557.012	 10	 0.231003	 0.184905	 0.812129	 2.674048	 -0.988469	 0.135691	 -0.167689	 0.846967	 -0.446569	 0.234742	 2
1463571557.022	 10	 0.294006	 0.401846	 0.832783	 2.664415	 -0.987147	 0.119995	 -0.163076	 0.847445	 -0.447047	 0.235353	 2
1463571557.032	 10	 0.348566	 0.688583	 0.794477	 2.657359	 -0.986383	 0.104188	 -0.157884	 0.848065	 -0.448010	 0.234832	 2
1463571557.042	 10	 0.404227	 1.040754	 0.686431	 2.654512	 -0.986467	 0.089365	 -0.152243	 0.848861	 -0.449559	 0.232711	 2
1463571557.052	 10	 0.472116	 1.154752	 0.447104	 2.655873	 -0.988074	 0.077255	 -0.146949	 0.849548	 -0.451749	 0.229341	 2
1463571557.062	 10	 0.585626	 1.272349	 0.136007	 2.661442	 -0.991949	 0.069067	 -0.142583	 0.849865	 -0.454744	 0.224960	 2
1463571557.072	 10	 0.741164	 1.308485	 -0.244422	 2.671600	 -0.998859	 0.065588	 -0.139445	 0.849613	 -0.458809	 0.219561	 2
1463571557.082	 10	 0.907759	 1.174631	 -0.594557	 2.684927	 -1.008890	 0.066932	 -0.137872	 0.848583	 -0.463883	 0.213801	 2
1463571557.092	 10	 1.134629	 0.785464	 -0.780267	 2.697210	 -1.021761	 0.070782	 -0.137787	 0.846525	 -0.469825	 0.208985	 2
1463571557.102	 10	 1.503807	 0.200595	 -0.908289	 2.703987	 -1.038150	 0.074619	 -0.139219	 0.842970	 -0.476883	 0.206401	 2
1463571557.112	 10	 2.168260	 -0.240390	 -1.022623	 2.703647	 -1.060381	 0.075779	 -0.141672	 0.837344	 -0.486169	 0.205968	 2
1463571557.122	 10	 2.815471	 -0.817486	 -1.286214	 2.695818	 -1.089763	 0.074727	 -0.145647	 0.829172	 -0.498081	 0.207787	 2
1463571557.132	 10	 2.817308	 -0.905383	 -1.525779	 2.688491	 -1.121928	 0.076643	 -0.151021	 0.819922	 -0.510741	 0.209915	 2
1463571557.142	 10	 1.887782	 -0.715175	 -1.486074	 2.689436	 -1.148368	 0.086260	 -0.156919	 0.812259	 -0.520721	 0.210858	 2
1463571557.152	 10	 -0.373433	 -0.470719	 -0.664789	 2.701182	 -1.154500	 0.104545	 -0.161765	 0.810387	 -0.522253	 0.210612	 2
1463571557.162	 10	 -1.362385	 -0.740713	 0.277048	 2.704490	 -1.142994	 0.115719	 -0.164559	 0.812929	 -0.516596	 0.212591	 2
1463571557.172	 10	 -0.957075	 -0.289541	 0.761574	 2.697231	 -1.130210	 0.112759	 -0.164234	 0.815815	 -0.511025	 0.215237	 2
1463571557.182	 10	 -0.292228	 0.592379	 1.056010	 2.686444	 -1.121798	 0.096611	 -0.159709	 0.818187	 -0.508403	 0.215847	 2
1463571557.192	 10	 0.212959	 0.838236	 1.135963	 2.672984	 -1.117669	 0.072283	 -0.152814	 0.819720	 -0.508262	 0.215354	 2
1463571557.202	 10	 0.331728	 0.182192	 0.918869	 2.655802	 -1.116126	 0.048927	 -0.147465	 0.820020	 -0.508855	 0.216536	 2
1463571557.212	 10	 0.081427	 -0.747513	 0.802624	 2.634480	 -1.113602	 0.030870	 -0.145235	 0.819662	 -0.508228	 0.220828	 2
1463571557.222	 10	 -0.142494	 -1.593649	 0.780713	 2.607719	 -1.108836	 0.016614	 -0.145673	 0.818914	 -0.505923	 0.228476	 2
1463571557.232	 10	 -0.153468	 -2.053583	 0.713649	 2.577214	 -1.103604	 0.004493	 -0.147812	 0.817570	 -0.502955	 0.238261	 2
1463571557.242	 10	 0.044716	 -2.048398	 0.628842	 2.545931	 -1.099936	 -0.007241	 -0.150421	 0.815558	 -0.500552	 0.248365	 2
1463571557.252	 10	 0.356099	 -1.463942	 0.681661	 2.515765	 -1.098391	 -0.022598	 -0.151509	 0.813290	 -0.499588	 0.256935	 2
1463571557.262	 10	 0.683363	 -0.508924	 0.799603	 2.489053	 -1.098673	 -0.044182	 -0.149460	 0.811377	 -0.500494	 0.262364	 2
1463571557.272	 10	 0.713793	 0.321357	 0.756973	 2.469439	 -1.099546	 -0.067637	 -0.144996	 0.810309	 -0.502489	 0.264351	 2
1463571557.282	 10	 0.652489	 0.420850	 0.518636	 2.457218	 -1.101124	 -0.086759	 -0.140567	 0.809678	 -0.504772	 0.264323	 2
1463571557.292	 10	 0.203678	 -1.282672	 0.243449	 2.440127	 -1.101890	 -0.097613	 -0.140613	 0.807982	 -0.505320	 0.268412	 2
1463571557.302	 10	 -1.155774	 -2.867106	 -0.258235	 2.425581	 -1.096817	 -0.084507	 -0.148754	 0.806254	 -0.500471	 0.278130	 2
1463571557.312	 10	 -2.317889	 -1.014039	 -0.838358	 2.445412	 -1.085413	 -0.043546	 -0.158598	 0.808602	 -0.491726	 0.281453	 2
1463571557.322	 10	 -1.998944	 1.180971	 -1.334407	 2.495535	 -1.075984	 0.005402	 -0.164859	 0.813881	 -0.485172	 0.273910	 2
1463571557.332	 10	 -1.004153	 2.423076	 -1.691738	 2.555098	 -1.075188	 0.048340	 -0.167850	 0.818458	 -0.484067	 0.260063	 2
1463571557.342	 10	 -0.322294	 2.430460	 -1.717856	 2.612195	 -1.080348	 0.084668	 -0.169458	 0.821314	 -0.486433	 0.245175	 2
1463571557.352	 10	 0.220432	 1.325715	 -1.597509	 2.654893	 -1.089009	 0.114262	 -0.172013	 0.821700	 -0.490143	 0.234479	 2
1463571557.362	 10	 0.811624	 -0.088044	 -1.535880	 2.678279	 -1.101945	 0.137705	 -0.176961	 0.819022	 -0.494866	 0.230206	 2
1463571557.372	 10	 1.416164	 -1.134065	 -1.506115	 2.685320	 -1.120013	 0.155707	 -0.183959	 0.813456	 -0.500958	 0.231279	 2
1463571557.382	 10	 2.025809	 -1.680152	 -1.322536	 2.678095	 -1.142881	 0.165005	 -0.191262	 0.805615	 -0.508674	 0.235911	 2
1463571557.392	 10	 2.565900	 -1.943942	 -1.252958	 2.659498	 -1.170322	 0.165290	 -0.198230	 0.795874	 -0.518106	 0.242601	 2
1463571557.402	 10	 2.872367	 -2.344858	 -1.266818	 2.631550	 -1.201129	 0.159148	 -0.205566	 0.784476	 -0.528557	 0.250933	 2
1463571557.412	 10	 2.533023	 -2.810636	 -1.245816	 2.597439	 -1.230499	 0.151704	 -0.214263	 0.772574	 -0.537703	 0.260952	 2
1463571557.422	 10	 1.557398	 -2.815580	 -1.297046	 2.572645	 -1.252714	 0.155535	 -0.224432	 0.762476	 -0.543272	 0.270399	 2
1463571557.432	 10	 0.704555	 -2.530968	 -1.408469	 2.567803	 -1.267640	 0.177860	 -0.235561	 0.754899	 -0.545526	 0.277560	 2
1463571557.442	 10	 0.530689	 -1.982315	 -1.502031	 2.577910	 -1.280043	 0.210867	 -0.246256	 0.748679	 -0.546988	 0.282210	 2
1463571557.452	 10	 0.935310	 -1.009535	 -1.543396	 2.595162	 -1.295117	 0.242082	 -0.254311	 0.742703	 -0.550631	 0.283767	 2
1463571557.462	 10	 1.250961	 0.055414	 -1.524511	 2.619214	 -1.313114	 0.269108	 -0.258852	 0.737172	 -0.556922	 0.281801	 2
1463571557.472	 10	 1.445554	 0.845870	 -1.565744	 2.652525	 -1.332854	 0.296617	 -0.260715	 0.732164	 -0.565086	 0.276842	 2
1463571557.482	 10	 1.599986	 1.517113	 -1.635445	 2.698342	 -1.354118	 0.329743	 -0.260641	 0.727442	 -0.574773	 0.269315	 2
1463571557.492	 10	 1.672540	 1.670661	 -1.552585	 2.752518	 -1.375747	 0.367769	 -0.259269	 0.722803	 -0.585109	 0.260736	 2
1463571557.502	 10	 1.543594	 1.125483	 -1.395605	 2.806540	 -1.395673	 0.409925	 -0.258669	 0.717887	 -0.594300	 0.254040	 2
1463571557.512	 10	 1.317504	 0.617438	 -1.290722	 2.864131	 -1.412741	 0.460636	 -0.259383	 0.713028	 -0.601851	 0.249172	 2
1463571557.522	 10	 1.157176	 0.048365	 -1.214689	 2.925636	 -1.427283	 0.521035	 -0.261756	 0.708049	 -0.607834	 0.246350	 2
1463571557.532	 10	 1.149401	 -0.297870	 -1.148569	 2.991251	 -1.440656	 0.589555	 -0.265142	 0.702748	 -0.612998	 0.245109	 2
1463571557.542	 10	 1.195609	 -0.495497	 -1.101785	 3.065114	 -1.453688	 0.668511	 -0.268975	 0.697067	 -0.617906	 0.244832	 2
1463571557.552	 10	 1.236931	 -0.634298	 -1.011781	 -3.134764	 -1.466319	 0.758397	 -0.272940	 0.691120	 -0.622616	 0.245371	 2
1463571557.562	 10	 1.271294	 -0.698334	 -0.881587	 -3.042060	 -1.478457	 0.858468	 -0.276693	 0.685067	 -0.627142	 0.246610	 2
1463571557.572	 10	 1.304058	 -0.674927	 -0.720724	 -2.939591	 -1.490134	 0.968187	 -0.279841	 0.679086	 -0.631549	 0.248349	 2
1463571557.582	 10	 1.333819	 -0.630059	 -0.535123	 -2.825697	 -1.501488	 1.088834	 -0.282190	 0.673262	 -0.635861	 0.250536	 2
1463571557.592	 10	 1.352885	 -0.594693	 -0.344189	 -2.696285	 -1.512582	 1.224533	 -0.283721	 0.667650	 -0.640023	 0.253213	 2
1463571557.602	 10	 1.350175	 -0.637028	 -0.169774	 -2.539815	 -1.523276	 1.387420	 -0.284688	 0.662217	 -0.643911	 0.256514	 2
1463571557.612	 10	 1.313600	 -0.820931	 -0.024092	 -2.335554	 -1.533061	 1.599517	 -0.285634	 0.656866	 -0.647267	 0.260739	 2
1463571557.622	 10	 1.203735	 -1.113490	 0.068995	 -2.057715	 -1.540779	 1.887894	 -0.287211	 0.651561	 -0.649761	 0.266062	 2
1463571557.632	 10	 1.025435	 -1.381843	 0.098958	 -1.713376	 -1.545074	 2.245552	 -0.289746	 0.646432	 -0.651215	 0.272198	 2
1463571557.642	 10	 0.782258	 -1.526232	 0.036851	 -1.393833	 -1.545515	 2.580222	 -0.293283	 0.641685	 -0.651678	 0.278461	 2
1463571557.652	 10	 0.470414	 -1.467739	 -0.089912	 -1.212295	 -1.543516	 2.776784	 -0.297559	 0.637709	 -0.651306	 0.283876	 2
1463571557.662	 10	 0.168385	 -1.133845	 -0.222725	 -1.171678	 -1.540846	 2.829794	 -0.301854	 0.634875	 -0.650489	 0.287547	 2
1463571557.672	 10	 0.012883	 -0.548988	 -0.303321	 -1.201660	 -1.538054	 2.806852	 -0.304998	 0.633301	 -0.649951	 0.288911	 2
1463571557.682	 10	 0.087040	 0.047190	 -0.343181	 -1.221997	 -1.534708	 2.787451	 -0.306291	 0.632471	 -0.650466	 0.288200	 2
1463571557.692	 10	 0.338667	 0.478044	 -0.375467	 -1.186019	 -1.530329	 2.819664	 -0.305819	 0.631571	 -0.652429	 0.286232	 2
1463571557.702	 10	 0.571077	 0.708758	 -0.440355	 -1.110649	 -1.524349	 2.888436	 -0.304236	 0.630183	 -0.655680	 0.283537	 2
1463571557.712	 10	 0.712562	 0.680114	 -0.519654	 -1.032125	 -1.516693	 2.960014	 -0.302531	 0.628175	 -0.659598	 0.280716	 2
1463571557.722	 10	 0.776916	 0.371891	 -0.609409	 -0.971644	 -1.507625	 3.015923	 -0.301759	 0.625412	 -0.663519	 0.278466	 2
1463571557.732	 10	 0.780401	 -0.161721	 -0.710324	 -0.936295	 -1.497509	 3.051512	 -0.302858	 0.621752	 -0.666888	 0.277422	 2
1463571557.742	 10	 0.724395	 -0.849504	 -0.828141	 -0.927780	 -1.486678	 3.066762	 -0.306534	 0.617129	 -0.669275	 0.277958	 2
1463571557.752	 10	 0.586194	 -1.560287	 -0.924142	 -0.945024	 -1.475689	 3.063412	 -0.313090	 0.611689	 -0.670307	 0.280178	 2
1463571557.762	 10	 0.310579	 -2.033125	 -0.970904	 -0.987002	 -1.465542	 3.040664	 -0.321957	 0.606127	 -0.669781	 0.283456	 2
1463571557.772	 10	 -0.090889	 -2.130404	 -0.907565	 -1.051964	 -1.457504	 2.996738	 -0.331884	 0.601518	 -0.667672	 0.286779	 2
1463571557.782	 10	 -0.449406	 -1.878634	 -0.654844	 -1.128800	 -1.452726	 2.939055	 -0.341116	 0.598704	 -0.664330	 0.289585	 2
1463571557.792	 10	 -0.671758	 -1.579712	 -0.298425	 -1.205877	 -1.451588	 2.878104	 -0.348658	 0.597676	 -0.660188	 0.292186	 2
1463571557.802	 10	 -0.952455	 -1.166101	 0.009479	 -1.290353	 -1.453753	 2.805903	 -0.354337	 0.598569	 -0.655419	 0.294255	 2
1463571557.812	 10	 -1.256412	 -0.696138	 0.305320	 -1.394141	 -1.458679	 2.709635	 -0.358051	 0.601638	 -0.650079	 0.295345	 2
1463571557.822	 10	 -1.472082	 -0.281790	 0.594546	 -1.522382	 -1.465500	 2.584443	 -0.359798	 0.606632	 -0.644320	 0.295626	 2
1463571557.832	 10	 -1.603861	 0.076725	 0.845221	 -1.679257	 -1.472896	 2.426943	 -0.359788	 0.613060	 -0.638331	 0.295369	 2
1463571557.842	 10	 -1.732175	 0.530613	 1.048793	 -1.872070	 -1.479263	 2.229085	 -0.357885	 0.620871	 -0.632359	 0.294212	 2
1463571557.852	 10	 -1.879496	 0.857500	 1.185272	 -2.102676	 -1.482413	 1.989577	 -0.354467	 0.629870	 -0.626339	 0.292091	 2
1463571557.862	 10	 -2.209053	 0.822972	 1.277344	 -2.365062	 -1.479286	 1.717597	 -0.350902	 0.639892	 -0.619315	 0.289577	 2
1463571557.872	 10	 -2.690408	 0.920055	 1.416725	 -2.627346	 -1.466888	 1.445498	 -0.347544	 0.651434	 -0.610518	 0.286556	 2
1463571557.882	 10	 -2.810188	 1.985005	 1.699447	 -2.839267	 -1.447310	 1.215608	 -0.341221	 0.665103	 -0.601790	 0.281169	 2
1463571557.892	 10	 -2.385698	 3.645769	 2.082090	 -2.992776	 -1.427112	 1.028095	 -0.328351	 0.680433	 -0.595995	 0.272004	 2
1463571557.902	 10	 -1.764824	 4.861350	 2.463174	 -3.131899	 -1.410425	 0.841292	 -0.308076	 0.696367	 -0.593190	 0.261319	 2
1463571557.912	 10	 -1.242267	 5.338283	 2.880841	 3.043732	 -1.395582	 0.678825	 -0.284443	 0.711221	 -0.592668	 0.249003	 2
1463571557.922	 10	 -0.990974	 5.144443	 3.239209	 2.935420	 -1.380549	 0.515493	 -0.258864	 0.724940	 -0.592221	 0.238172	 2
1463571557.932	 10	 -1.039584	 4.446841	 3.383413	 2.833424	 -1.362190	 0.364075	 -0.234014	 0.737501	 -0.590319	 0.229899	 2
1463571557.942	 10	 -1.319131	 3.434186	 3.257058	 2.750491	 -1.339237	 0.241187	 -0.212254	 0.749020	 -0.586108	 0.224488	 2
1463571557.952	 10	 -1.757898	 2.303681	 2.948748	 2.692339	 -1.311852	 0.154591	 -0.195100	 0.759778	 -0.579165	 0.221905	 2
1463571557.962	 10	 -2.190922	 1.109744	 2.549208	 2.655681	 -1.281260	 0.101805	 -0.183198	 0.769850	 -0.569582	 0.222140	 2
1463571557.972	 10	 -2.512392	 -0.190873	 2.150901	 2.631276	 -1.249089	 0.074839	 -0.176847	 0.778894	 -0.557740	 0.225777	 2
1463571557.982	 10	 -2.639737	 -1.335291	 1.809909	 2.610954	 -1.216938	 0.064608	 -0.175382	 0.786559	 -0.544374	 0.232859	 2
1463571557.992	 10	 -2.527113	 -2.166778	 1.597630	 2.588986	 -1.186489	 0.062295	 -0.177278	 0.792546	 -0.530544	 0.242828	 2
1463571558.002	 10	 -2.249950	 -2.599080	 1.497407	 2.563000	 -1.158707	 0.061402	 -0.180731	 0.796871	 -0.517157	 0.254720	 2
1463571558.012	 10	 -1.910401	 -2.753515	 1.458909	 2.533490	 -1.133970	 0.058956	 -0.184450	 0.799744	 -0.504790	 0.267535	 2
1463571558.022	 10	 -1.575125	 -2.689835	 1.428873	 2.502191	 -1.112129	 0.054400	 -0.187761	 0.801493	 -0.493656	 0.280462	 2
1463571558.032	 10	 -1.297508	 -2.448008	 1.447890	 2.470840	 -1.092579	 0.047472	 -0.190088	 0.802568	 -0.483763	 0.292787	 2
1463571558.042	 10	 -1.083850	 -1.968773	 1.471804	 2.441938	 -1.074513	 0.038547	 -0.190927	 0.803551	 -0.475019	 0.303661	 2
1463571558.052	 10	 -0.900314	 -1.300251	 1.478558	 2.418096	 -1.057698	 0.028175	 -0.189919	 0.804914	 -0.467535	 0.312179	 2
1463571558.062	 10	 -0.714462	 -0.571300	 1.459211	 2.400453	 -1.042240	 0.016519	 -0.186966	 0.806877	 -0.461448	 0.317898	 2
1463571558.072	 10	 -0.512949	 0.105306	 1.414727	 2.388704	 -1.028396	 0.003527	 -0.182235	 0.809400	 -0.456832	 0.320885	 2
1463571558.082	 10	 -0.282214	 0.643545	 1.368702	 2.381309	 -1.016446	 -0.011219	 -0.176010	 0.812245	 -0.453698	 0.321615	 2
1463571558.092	 10	 -0.043741	 1.020028	 1.313643	 2.376441	 -1.006523	 -0.027977	 -0.168657	 0.815123	 -0.451949	 0.320736	 2
1463571558.102	 10	 0.181474	 1.320859	 1.234549	 2.373409	 -0.998721	 -0.046402	 -0.160508	 0.817869	 -0.451486	 0.318572	 2
1463571558.112	 10	 0.378529	 1.547208	 1.140087	 2.371902	 -0.993009	 -0.066015	 -0.151840	 0.820399	 -0.452165	 0.315335	 2
1463571558.122	 10	 0.543078	 1.696838	 1.013221	 2.371707	 -0.989343	 -0.086136	 -0.142983	 0.822636	 -0.453822	 0.311242	 2
1463571558.132	 10	 0.688038	 1.793110	 0.854056	 2.372763	 -0.987789	 -0.106082	 -0.134256	 0.824510	 -0.456349	 0.306437	 2
1463571558.142	 10	 0.816632	 1.830781	 0.674239	 2.374885	 -0.988459	 -0.125417	 -0.125911	 0.825950	 -0.459693	 0.301058	 2
1463571558.152	 10	 0.925603	 1.798161	 0.473689	 2.377715	 -0.991285	 -0.143654	 -0.118227	 0.826895	 -0.463719	 0.295351	 2
1463571558.162	 10	 1.054637	 1.744006	 0.245054	 2.381097	 -0.996590	 -0.160601	 -0.111385	 0.827257	 -0.468513	 0.289369	 2
1463571558.172	 10	 1.184502	 1.641968	 0.013835	 2.384652	 -1.004456	 -0.176230	 -0.105504	 0.826975	 -0.474078	 0.283250	 2
1463571558.182	 10	 1.325762	 1.468621	 -0.219212	 2.387637	 -1.014936	 -0.190633	 -0.100740	 0.825945	 -0.480410	 0.277259	 2
1463571558.192	 10	 1.507886	 1.176735	 -0.501678	 2.388953	 -1.028498	 -0.203803	 -0.097458	 0.823924	 -0.487637	 0.271774	 2
1463571558.202	 10	 1.722633	 0.806940	 -0.807534	 2.387780	 -1.045647	 -0.215702	 -0.095992	 0.820698	 -0.495907	 0.267051	 2
1463571558.212	 10	 1.955745	 0.256296	 -1.110969	 2.382158	 -1.066568	 -0.226892	 -0.096678	 0.815992	 -0.505251	 0.263688	 2
1463571558.222	 10	 1.904451	 -0.368311	 -1.461642	 2.373093	 -1.090165	 -0.234545	 -0.100275	 0.810028	 -0.514883	 0.262097	 2
1463571558.232	 10	 1.148625	 -0.197870	 -1.730573	 2.374598	 -1.111813	 -0.229158	 -0.106099	 0.805131	 -0.522509	 0.259791	 2
1463571558.242	 10	 -0.382022	 1.748788	 -1.434823	 2.410972	 -1.122380	 -0.203150	 -0.108957	 0.805959	 -0.525182	 0.250484	 2
1463571558.252	 10	 -0.870341	 1.139589	 -0.864991	 2.451966	 -1.122789	 -0.173118	 -0.110403	 0.809261	 -0.523893	 0.241753	 2
1463571558.262	 10	 -0.545848	 0.112036	 -0.162252	 2.469424	 -1.119787	 -0.157514	 -0.111676	 0.811208	 -0.521813	 0.239125	 2
1463571558.272	 10	 -0.033848	 -0.345441	 0.320350	 2.465167	 -1.117159	 -0.159338	 -0.111626	 0.811426	 -0.520765	 0.240689	 2
1463571558.282	 10	 0.270892	 -0.552813	 0.447921	 2.450558	 -1.116078	 -0.170026	 -0.110921	 0.810507	 -0.520825	 0.243961	 2
1463571558.292	 10	 0.290755	 -0.916195	 0.507247	 2.430874	 -1.115262	 -0.182913	 -0.110694	 0.808988	 -0.521004	 0.248677	 2
1463571558.302	 10	 0.153993	 -1.284995	 0.636095	 2.407072	 -1.112708	 -0.196008	 -0.111158	 0.807308	 -0.520347	 0.255219	 2
1463571558.312	 10	 0.067741	 -1.355052	 0.767282	 2.381491	 -1.108290	 -0.209382	 -0.111619	 0.805750	 -0.518958	 0.262659	 2
1463571558.322	 10	 0.160621	 -1.157184	 0.809880	 2.356070	 -1.103551	 -0.224232	 -0.111351	 0.804258	 -0.517711	 0.269711	 2
1463571558.332	 10	 0.403863	 -0.882976	 0.733578	 2.331329	 -1.100457	 -0.241258	 -0.110319	 0.802510	 -0.517492	 0.275697	 2
1463571558.342	 10	 0.667400	 -0.577158	 0.624356	 2.307347	 -1.099828	 -0.260838	 -0.108560	 0.800384	 -0.518666	 0.280331	 2
1463571558.352	 10	 0.774363	 -0.276665	 0.597445	 2.284892	 -1.100392	 -0.282065	 -0.106027	 0.798237	 -0.520663	 0.283701	 2
1463571558.362	 10	 0.738966	 0.071806	 0.675600	 2.265052	 -1.100319	 -0.304140	 -0.102385	 0.796577	 -0.522747	 0.285865	 2
1463571558.372	 10	 0.475175	 0.460979	 0.700701	 2.251476	 -1.098389	 -0.323426	 -0.097841	 0.795995	 -0.524126	 0.286552	 2
1463571558.382	 10	 0.233814	 0.704774	 0.634731	 2.245956	 -1.095064	 -0.337119	 -0.093104	 0.796529	 -0.524621	 0.285739	 2
1463571558.392	 10	 0.258360	 0.271651	 0.612369	 2.239485	 -1.091689	 -0.349463	 -0.089132	 0.796839	 -0.524875	 0.285675	 2
1463571558.402	 10	 0.273738	 -0.410227	 0.457749	 2.225400	 -1.089539	 -0.361479	 -0.087560	 0.795769	 -0.525208	 0.288515	 2
1463571558.412	 10	 -0.714240	 1.425804	 -0.054774	 2.238906	 -1.086188	 -0.355896	 -0.085484	 0.798119	 -0.523792	 0.285202	 2
1463571558.422	 10	 -1.347188	 3.201307	 -0.852316	 2.293910	 -1.083156	 -0.325973	 -0.082451	 0.805124	 -0.520833	 0.271496	 2
1463571558.432	 10	 -1.170569	 3.162036	 -1.209118	 2.358257	 -1.083096	 -0.290099	 -0.080222	 0.812145	 -0.518707	 0.254811	 2
1463571558.442	 10	 -1.129447	 2.319156	 -1.408090	 2.416886	 -1.084207	 -0.252571	 -0.080546	 0.817656	 -0.516840	 0.240472	 2
1463571558.452	 10	 -1.125237	 1.063110	 -1.542378	 2.466866	 -1.085219	 -0.212066	 -0.084436	 0.821642	 -0.514528	 0.230295	 2
1463571558.462	 10	 -0.709616	 -0.675758	 -1.502494	 2.497447	 -1.087902	 -0.174995	 -0.092257	 0.822883	 -0.512701	 0.226914	 2
1463571558.472	 10	 -0.013843	 -2.226910	 -1.277861	 2.501438	 -1.094353	 -0.149260	 -0.102804	 0.820573	 -0.512513	 0.231132	 2
1463571558.482	 10	 0.652363	 -2.818502	 -1.039778	 2.485343	 -1.104880	 -0.136563	 -0.113741	 0.815492	 -0.514328	 0.239797	 2
1463571558.492	 10	 1.197929	 -2.429838	 -0.904494	 2.460903	 -1.119010	 -0.135112	 -0.122843	 0.809042	 -0.518278	 0.248493	 2
1463571558.502	 10	 1.643562	 -1.582711	 -0.949516	 2.437184	 -1.136743	 -0.141375	 -0.129348	 0.802183	 -0.524491	 0.254322	 2
1463571558.512	 10	 2.015127	 -0.698191	 -1.148081	 2.418341	 -1.158464	 -0.152047	 -0.133651	 0.795204	 -0.532987	 0.256345	 2
1463571558.522	 10	 2.416925	 -0.166033	 -1.376833	 2.402615	 -1.184424	 -0.166294	 -0.136633	 0.787782	 -0.543613	 0.255374	 2
1463571558.532	 10	 2.922503	 -0.053045	 -1.578415	 2.381483	 -1.215364	 -0.188185	 -0.139245	 0.778921	 -0.556493	 0.253394	 2
1463571558.542	 10	 3.089751	 -0.116118	 -1.847964	 2.355703	 -1.249793	 -0.214708	 -0.142442	 0.768901	 -0.570590	 0.250856	 2
1463571558.552	 10	 2.690372	 -0.629496	 -2.108244	 2.332181	 -1.284247	 -0.234347	 -0.148140	 0.758654	 -0.583606	 0.248803	 2
1463571558.562	 10	 1.841848	 -1.459605	 -2.225815	 2.320089	 -1.314454	 -0.234132	 -0.157494	 0.749362	 -0.593197	 0.248537	 2
1463571558.572	 10	 1.007157	 -2.363641	 -2.265327	 2.325411	 -1.339188	 -0.206450	 -0.170848	 0.741236	 -0.598729	 0.250807	 2
1463571558.582	 10	 0.429987	 -2.729494	 -2.054817	 2.346307	 -1.358500	 -0.157519	 -0.186079	 0.734255	 -0.601104	 0.254791	 2
1463571558.592	 10	 0.107932	 -2.527068	 -1.698427	 2.375259	 -1.372144	 -0.101220	 -0.200234	 0.728695	 -0.601446	 0.259176	 2
1463571558.602	 10	 0.208534	 -1.982180	 -1.467226	 2.405422	 -1.383749	 -0.048947	 -0.211914	 0.723874	 -0.601851	 0.262438	 2
1463571558.612	 10	 0.503175	 -1.403399	 -1.323725	 2.429712	 -1.395879	 -0.008415	 -0.220919	 0.719080	 -0.603477	 0.264451	 2
1463571558.622	 10	 0.802708	 -0.792748	 -1.330242	 2.451813	 -1.409995	 0.023527	 -0.227511	 0.714137	 -0.606800	 0.264652	 2
1463571558.632	 10	 0.941809	 -0.435184	 -1.394203	 2.479218	 -1.425796	 0.056274	 -0.232709	 0.709095	 -0.611322	 0.263281	 2
1463571558.642	 10	 0.913618	 -0.461216	 -1.475198	 2.518747	 -1.441945	 0.100769	 -0.238023	 0.703938	 -0.615974	 0.261521	 2
1463571558.652	 10	 0.837930	 -0.408122	 -1.517741	 2.578244	 -1.457500	 0.164968	 -0.243519	 0.698921	 -0.620435	 0.259363	 2
1463571558.662	 10	 0.793269	 -0.418246	 -1.465224	 2.657067	 -1.471875	 0.248302	 -0.248905	 0.694077	 -0.624644	 0.257144	 2
1463571558.672	 10	 0.766566	 -0.439301	 -1.446004	 2.758871	 -1.484970	 0.354992	 -0.254291	 0.689272	 -0.628608	 0.255133	 2
1463571558.682	 10	 0.809587	 -0.534608	 -1.517606	 2.902073	 -1.497131	 0.503585	 -0.259978	 0.684222	 -0.632598	 0.253122	 2
1463571558.692	 10	 0.913560	 -0.811070	 -1.611673	 3.107573	 -1.508111	 0.716942	 -0.266603	 0.678400	 -0.636641	 0.251762	 2
1463571558.702	 10	 1.098784	 -1.018962	 -1.750572	 -2.872164	 -1.516572	 1.030690	 -0.274199	 0.671517	 -0.640999	 0.250996	 2
1463571558.712	 10	 1.421188	 -1.138677	 -1.848281	 -2.454043	 -1.520078	 1.460518	 -0.282210	 0.663285	 -0.646195	 0.250685	 2
1463571558.722	 10	 1.721480	 -1.262000	 -1.865898	 -2.001469	 -1.515284	 1.926008	 -0.290263	 0.653704	 -0.652224	 0.251043	 2
1463571558.732	 10	 1.798503	 -1.466288	 -1.845023	 -1.658796	 -1.501780	 2.283439	 -0.298621	 0.643316	 -0.658309	 0.252189	 2
1463571558.742	 10	 1.570383	 -2.098395	 -1.835063	 -1.469494	 -1.483244	 2.492501	 -0.308704	 0.632677	 -0.662971	 0.254736	 2
1463571558.752	 10	 1.181966	 -2.107745	 -1.814716	 -1.388029	 -1.463352	 2.596004	 -0.319952	 0.622804	 -0.665932	 0.257449	 2
1463571558.762	 10	 0.800193	 -1.895404	 -1.728418	 -1.361666	 -1.444424	 2.642244	 -0.330732	 0.614437	 -0.667787	 0.259121	 2
1463571558.772	 10	 0.450402	 -1.489361	 -1.611821	 -1.364404	 -1.427262	 2.655615	 -0.340406	 0.607838	 -0.668853	 0.259409	 2
1463571558.782	 10	 0.299371	 -1.037018	 -1.483734	 -1.375057	 -1.411790	 2.656490	 -0.348424	 0.602663	 -0.669803	 0.258384	 2
1463571558.792	 10	 0.348815	 -0.562339	 -1.421131	 -1.379131	 -1.397105	 2.659232	 -0.354575	 0.598177	 -0.671436	 0.256191	 2
1463571558.802	 10	 0.528877	 -0.219970	 -1.364093	 -1.371229	 -1.382655	 2.670275	 -0.359074	 0.593739	 -0.674082	 0.253284	 2
1463571558.812	 10	 0.760253	 -0.136822	 -1.244903	 -1.351008	 -1.368624	 2.692133	 -0.362394	 0.588882	 -0.677568	 0.250581	 2
1463571558.822	 10	 0.852427	 -0.527415	 -0.948795	 -1.328051	 -1.356806	 2.720241	 -0.365872	 0.583622	 -0.680464	 0.249982	 2
1463571558.832	 10	 0.840201	 -0.700148	 -0.866100	 -1.307354	 -1.346222	 2.748134	 -0.369565	 0.578296	 -0.682832	 0.250472	 2
1463571558.842	 10	 0.593483	 -0.948480	 -0.889710	 -1.298477	 -1.335931	 2.766284	 -0.374272	 0.573258	 -0.684235	 0.251234	 2
1463571558.852	 10	 0.198031	 -1.376366	 -0.799659	 -1.308310	 -1.327100	 2.769221	 -0.380612	 0.569060	 -0.683749	 0.252574	 2
1463571558.862	 10	 -0.183985	 -1.577654	 -0.550949	 -1.333557	 -1.321285	 2.759156	 -0.387788	 0.566218	 -0.681297	 0.254658	 2
1463571558.872	 10	 -0.399569	 -1.460348	 -0.155779	 -1.364552	 -1.319643	 2.742922	 -0.394134	 0.564988	 -0.677624	 0.257435	 2
1463571558.882	 10	 -0.496207	 -0.936689	 0.148348	 -1.393005	 -1.321223	 2.724591	 -0.398170	 0.565349	 -0.674072	 0.259745	 2
1463571558.892	 10	 -0.609688	 -0.478993	 0.589492	 -1.418485	 -1.326857	 2.704431	 -0.399573	 0.567467	 -0.670633	 0.261867	 2
1463571558.902	 10	 -0.714710	 -0.152051	 0.897191	 -1.444026	 -1.336112	 2.680351	 -0.398820	 0.571176	 -0.667129	 0.263893	 2
1463571558.912	 10	 -0.742835	 -0.143337	 1.060579	 -1.471795	 -1.347058	 2.653125	 -0.397298	 0.575491	 -0.663415	 0.266170	 2
1463571558.922	 10	 -0.721299	 -0.252717	 1.239487	 -1.502547	 -1.359640	 2.624020	 -0.395577	 0.579976	 -0.659233	 0.269366	 2
1463571558.932	 10	 -0.747864	 -0.333628	 1.364725	 -1.537748	 -1.373418	 2.591471	 -0.393751	 0.584569	 -0.654633	 0.273306	 2
1463571558.942	 10	 -0.921729	 -0.153875	 1.441450	 -1.584369	 -1.387677	 2.546117	 -0.391468	 0.589905	 -0.649715	 0.276829	 2
1463571558.952	 10	 -1.172640	 0.132055	 1.608291	 -1.650360	 -1.402776	 2.478537	 -0.388197	 0.596614	 -0.644362	 0.279558	 2
1463571558.962	 10	 -1.454569	 0.385259	 1.796413	 -1.745389	 -1.418402	 2.378908	 -0.383807	 0.604877	 -0.638411	 0.281509	 2
1463571558.972	 10	 -1.978276	 0.507328	 1.990748	 -1.894621	 -1.432747	 2.223303	 -0.378960	 0.615047	 -0.631005	 0.282736	 2
1463571558.982	 10	 -2.418071	 0.923350	 2.273415	 -2.115017	 -1.442807	 1.993002	 -0.373005	 0.627623	 -0.622109	 0.282732	 2
1463571558.992	 10	 -2.058163	 1.945677	 2.739138	 -2.366379	 -1.449674	 1.723040	 -0.362714	 0.641553	 -0.614492	 0.281510	 2
1463571559.002	 10	 -1.188892	 3.354811	 3.362824	 -2.627720	 -1.457648	 1.429884	 -0.345178	 0.655755	 -0.610675	 0.279131	 2
1463571559.012	 10	 -0.462331	 4.679646	 3.891050	 -2.926100	 -1.465385	 1.085763	 -0.320217	 0.669964	 -0.610682	 0.275092	 2
1463571559.022	 10	 -0.170356	 5.541669	 4.370793	 3.006280	 -1.464907	 0.679211	 -0.289742	 0.684407	 -0.612317	 0.269639	 2
1463571559.032	 10	 -0.221675	 5.905989	 4.721003	 2.679100	 -1.449097	 0.291056	 -0.255998	 0.699134	 -0.613448	 0.263361	 2
1463571559.042	 10	 -0.458512	 5.942669	 4.696763	 2.462769	 -1.419991	 0.012682	 -0.221546	 0.713710	 -0.613030	 0.256377	 2
1463571559.052	 10	 -0.904745	 5.499208	 4.378924	 2.354608	 -1.384175	 -0.154273	 -0.189152	 0.727816	 -0.610371	 0.248903	 2
1463571559.062	 10	 -1.419011	 4.559224	 3.912114	 2.313607	 -1.346010	 -0.245301	 -0.161281	 0.741194	 -0.604877	 0.242372	 2
1463571559.072	 10	 -1.773143	 3.329233	 3.266426	 2.307192	 -1.309139	 -0.289524	 -0.139489	 0.753267	 -0.597147	 0.237796	 2
1463571559.082	 10	 -1.881314	 2.062716	 2.523404	 2.315259	 -1.276566	 -0.305831	 -0.124399	 0.763397	 -0.588432	 0.235581	 2
1463571559.092	 10	 -1.798013	 0.942859	 1.987903	 2.324281	 -1.248726	 -0.309018	 -0.114952	 0.771407	 -0.579670	 0.236009	 2
1463571559.102	 10	 -1.684854	 0.089315	 1.667772	 2.328694	 -1.224334	 -0.307385	 -0.109426	 0.777648	 -0.571137	 0.238939	 2
1463571559.112	 10	 -1.599182	 -0.598292	 1.484777	 2.327844	 -1.202175	 -0.303799	 -0.106624	 0.782537	 -0.562776	 0.244029	 2
1463571559.122	 10	 -1.668986	 -1.339678	 1.449711	 2.321345	 -1.180379	 -0.298331	 -0.106199	 0.786451	 -0.553931	 0.251747	 2
1463571559.132	 10	 -1.828047	 -1.841960	 1.496512	 2.311190	 -1.157356	 -0.290478	 -0.107420	 0.789918	 -0.544055	 0.261714	 2
1463571559.142	 10	 -1.934370	 -2.028463	 1.548991	 2.299778	 -1.133131	 -0.281042	 -0.109283	 0.793231	 -0.533346	 0.272735	 2
1463571559.152	 10	 -1.954361	 -2.051085	 1.648070	 2.287684	 -1.108174	 -0.271851	 -0.110988	 0.796429	 -0.522234	 0.283996	 2
1463571559.162	 10	 -1.841141	 -1.635052	 1.715967	 2.275880	 -1.082862	 -0.265117	 -0.111460	 0.799682	 -0.511239	 0.294483	 2
1463571559.172	 10	 -1.454661	 -0.801239	 1.571154	 2.268610	 -1.060458	 -0.261788	 -0.109933	 0.803024	 -0.501996	 0.301774	 2
1463571559.182	 10	 -0.945282	 -0.005429	 1.515508	 2.264116	 -1.041910	 -0.264776	 -0.105928	 0.806234	 -0.495263	 0.305746	 2
1463571559.192	 10	 -0.486468	 0.629503	 1.548328	 2.260083	 -1.026248	 -0.274994	 -0.099453	 0.809222	 -0.490740	 0.307318	 2
1463571559.202	 10	 -0.137902	 1.229362	 1.540218	 2.257709	 -1.012924	 -0.290479	 -0.090883	 0.812155	 -0.487994	 0.306606	 2
1463571559.212	 10	 0.135407	 1.739857	 1.498892	 2.257906	 -1.001687	 -0.309427	 -0.080680	 0.815106	 -0.486668	 0.303721	 2
1463571559.232	 11	 0.550896	 2.183065	 1.329942	 2.262809	 -0.985177	 -0.353575	 -0.057795	 0.820366	 -0.487234	 0.293704	 2
1463571559.242	 11	 0.727940	 2.025408	 1.221423	 2.263785	 -0.979948	 -0.377407	 -0.046604	 0.822050	 -0.488771	 0.288383	 2
1463571559.252	 11	 0.911925	 1.718083	 1.157279	 2.260719	 -0.976453	 -0.402700	 -0.036166	 0.822736	 -0.491026	 0.284062	 2
1463571559.262	 11	 1.122792	 1.456393	 1.090128	 2.253325	 -0.974606	 -0.430007	 -0.026334	 0.822429	 -0.494083	 0.280712	 2
1463571559.272	 11	 1.370422	 1.098622	 0.988724	 2.240873	 -0.974912	 -0.459482	 -0.017384	 0.820961	 -0.498179	 0.278458	 2
1463571559.282	 11	 1.580654	 0.716622	 0.904472	 2.222794	 -0.977017	 -0.491134	 -0.009440	 0.818325	 -0.503219	 0.277536	 2
1463571559.292	 11	 1.750950	 0.456071	 0.831291	 2.199985	 -0.980443	 -0.524800	 -0.002304	 0.814731	 -0.509042	 0.277640	 2
1463571559.302	 11	 1.841391	 0.208739	 0.788769	 2.173481	 -0.984483	 -0.559925	 0.004165	 0.810433	 -0.515346	 0.278567	 2
1463571559.312	 11	 1.757106	 -0.013302	 0.789568	 2.144715	 -0.987928	 -0.594849	 0.009929	 0.805804	 -0.521501	 0.280389	 2
1463571559.322	 11	 1.439866	 0.075504	 0.880549	 2.118283	 -0.988862	 -0.626704	 0.015558	 0.801757	 -0.526463	 0.282455	 2
1463571559.332	 11	 0.906361	 0.826270	 1.085083	 2.102521	 -0.985461	 -0.652609	 0.022691	 0.799715	 -0.529162	 0.282717	 2
1463571559.342	 11	 0.225190	 2.383803	 1.305871	 2.107706	 -0.976502	 -0.670176	 0.033541	 0.801293	 -0.528645	 0.278098	 2
1463571559.352	 11	 -0.017417	 3.175101	 1.350516	 2.128107	 -0.965117	 -0.682624	 0.047015	 0.805201	 -0.526228	 0.269306	 2
1463571559.362	 11	 -0.180611	 2.833188	 1.509686	 2.147607	 -0.952288	 -0.694612	 0.060421	 0.808983	 -0.523078	 0.261316	 2
1463571559.372	 11	 -0.706853	 2.823609	 2.028942	 2.167993	 -0.933335	 -0.704173	 0.074648	 0.813489	 -0.517329	 0.255019	 2
1463571559.382	 11	 -0.687124	 2.650502	 2.366071	 2.185736	 -0.910198	 -0.715968	 0.090107	 0.817847	 -0.510310	 0.250181	 2
1463571559.392	 11	 -0.256407	 2.025790	 2.195578	 2.195217	 -0.889589	 -0.732164	 0.104531	 0.820459	 -0.504874	 0.247028	 2
1463571559.402	 11	 0.189891	 1.002001	 1.853911	 2.193290	 -0.874368	 -0.751119	 0.115797	 0.820733	 -0.502149	 0.246647	 2
1463571559.412	 11	 0.441805	 -0.094269	 1.559089	 2.180048	 -0.863329	 -0.770706	 0.123406	 0.818980	 -0.501639	 0.249802	 2
1463571559.422	 11	 0.389690	 -0.931261	 1.254407	 2.159955	 -0.854733	 -0.787528	 0.127529	 0.816156	 -0.502147	 0.255880	 2
1463571559.432	 11	 0.175200	 -1.643816	 1.027963	 2.136334	 -0.846936	 -0.799378	 0.128530	 0.812975	 -0.502617	 0.264438	 2
1463571559.442	 11	 -0.043920	 -1.990396	 0.814559	 2.111609	 -0.839660	 -0.806465	 0.127187	 0.809756	 -0.502768	 0.274487	 2
1463571559.452	 11	 -0.290067	 -1.797260	 0.947457	 2.090249	 -0.830700	 -0.809992	 0.125741	 0.807197	 -0.501700	 0.284464	 2
1463571559.462	 11	 0.226595	 -1.473000	 1.136747	 2.068917	 -0.821493	 -0.818245	 0.126308	 0.804214	 -0.501268	 0.293287	 2
1463571559.472	 11	 1.356242	 -1.140090	 1.153456	 2.040912	 -0.815862	 -0.839791	 0.129512	 0.799018	 -0.504467	 0.300515	 2
1463571559.482	 11	 2.767110	 -0.875366	 1.121254	 2.003049	 -0.816497	 -0.878785	 0.135192	 0.790668	 -0.513078	 0.305480	 2
1463571559.492	 11	 3.361194	 -0.481726	 1.375527	 1.959656	 -0.817566	 -0.930273	 0.143842	 0.780367	 -0.524333	 0.308887	 2
1463571559.502	 11	 3.105555	 0.073163	 1.375456	 1.921660	 -0.816130	 -0.981469	 0.154075	 0.770707	 -0.534683	 0.310460	 2
1463571559.512	 11	 1.290936	 0.601430	 1.180888	 1.903148	 -0.810742	 -1.013431	 0.163047	 0.765381	 -0.539632	 0.310492	 2
1463571559.522	 11	 -0.884859	 0.074860	 1.316429	 1.906642	 -0.797790	 -1.013014	 0.167849	 0.766090	 -0.535744	 0.312907	 2
1463571559.532	 11	 -0.967389	 -1.400812	 1.368427	 1.902044	 -0.781014	 -1.005197	 0.168830	 0.766148	 -0.530274	 0.321438	 2
1463571559.542	 11	 0.088898	 -2.291140	 0.757316	 1.879445	 -0.771462	 -1.006747	 0.166407	 0.762361	 -0.529791	 0.332318	 2
1463571559.562	 12	 1.468040	 -2.455174	 -0.037422	 1.811015	 -0.775270	 -1.037182	 0.158365	 0.748254	 -0.541548	 0.348945	 2
1463571559.572	 12	 1.436191	 -2.690814	 0.016082	 1.770599	 -0.778388	 -1.057214	 0.153785	 0.739603	 -0.549032	 0.357634	 2
1463571559.582	 12	 1.303723	 -2.806502	 -0.150100	 1.730040	 -0.781680	 -1.075454	 0.148200	 0.730964	 -0.556199	 0.366566	 2
1463571559.592	 12	 1.216676	 -3.147606	 -0.434943	 1.687900	 -0.786985	 -1.091999	 0.140641	 0.722124	 -0.563554	 0.375719	 2
1463571559.602	 12	 1.179344	 -3.621534	 -0.682081	 1.631923	 -0.801065	 -1.114887	 0.128123	 0.710522	 -0.574787	 0.385178	 2
1463571559.612	 12	 1.112188	 -4.088881	 -0.913918	 1.580733	 -0.810003	 -1.130760	 0.115816	 0.700009	 -0.582867	 0.396032	 2
1463571559.622	 12	 0.955095	 -4.434351	 -1.095879	 1.526299	 -0.820437	 -1.145668	 0.101361	 0.688883	 -0.590851	 0.407506	 2
1463571559.632	 12	 0.614809	 -4.644881	 -1.077823	 1.471769	 -0.830877	 -1.157287	 0.085414	 0.677772	 -0.597698	 0.419626	 2
1463571559.642	 12	 0.155783	 -4.610227	 -0.884864	 1.421090	 -0.839893	 -1.163055	 0.068901	 0.667436	 -0.602412	 0.432298	 2
1463571559.652	 12	 -0.277953	 -4.247570	 -0.625127	 1.378185	 -0.847005	 -1.162231	 0.053091	 0.658634	 -0.604675	 0.444693	 2
1463571559.662	 12	 -0.597100	 -3.753762	 -0.420588	 1.344125	 -0.852674	 -1.155927	 0.038644	 0.651592	 -0.604899	 0.456106	 2
1463571559.672	 12	 -0.832605	 -3.329947	 -0.300557	 1.317721	 -0.857675	 -1.145599	 0.025465	 0.646105	 -0.603675	 0.466344	 2
1463571559.682	 12	 -1.105026	 -3.401407	 -0.289206	 1.295897	 -0.856172	 -1.130817	 0.014700	 0.640967	 -0.600186	 0.478248	 2
1463571559.692	 12	 -1.517263	 -4.175303	 -0.252319	 1.271312	 -0.862760	 -1.111388	 -0.001326	 0.635660	 -0.596499	 0.490024	 2
1463571559.702	 12	 -2.191170	 -5.757103	 -0.114096	 1.240004	 -0.870269	 -1.082486	 -0.022584	 0.628336	 -0.590155	 0.506361	 2
1463571559.712	 12	 -2.808771	 -7.109649	 -0.313141	 1.200921	 -0.881690	 -1.044692	 -0.050170	 0.618509	 -0.581233	 0.526400	 2
1463571559.722	 12	 -3.217476	 -7.944827	 -0.658398	 1.156324	 -0.898961	 -1.002283	 -0.082665	 0.606498	 -0.570628	 0.547458	 2
1463571559.732	 12	 -3.434948	 -8.394581	 -0.871711	 1.108098	 -0.920853	 -0.958028	 -0.118086	 0.592452	 -0.558603	 0.568348	 2
1463571559.742	 12	 -3.490500	 -8.145838	 -0.913675	 1.061462	 -0.945245	 -0.913477	 -0.153599	 0.577627	 -0.545458	 0.587563	 2
1463571559.752	 12	 -3.526596	 -7.280508	 -0.550409	 1.024086	 -0.968834	 -0.866824	 -0.186335	 0.563991	 -0.531058	 0.604294	 2
1463571559.762	 12	 -3.630573	 -5.893988	 0.374625	 1.008290	 -0.986841	 -0.810687	 -0.213343	 0.554500	 -0.514346	 0.618435	 2
1463571559.772	 12	 -3.457078	 -4.852741	 1.173599	 1.011303	 -0.997108	 -0.746375	 -0.234425	 0.548648	 -0.495802	 0.631039	 2
1463571559.782	 12	 -3.016011	 -4.108599	 1.445255	 1.021514	 -1.001692	 -0.683338	 -0.251000	 0.544363	 -0.477553	 0.642348	 2
1463571559.792	 12	 -2.245825	 -3.444434	 1.381850	 1.029904	 -1.002359	 -0.630739	 -0.263561	 0.540320	 -0.461699	 0.652245	 2
1463571559.802	 12	 -1.344601	 -3.225713	 1.253475	 1.028761	 -0.999460	 -0.593369	 -0.272708	 0.534927	 -0.448854	 0.661826	 2
1463571559.812	 12	 -0.378296	 -3.026194	 1.143540	 1.015322	 -0.992695	 -0.572540	 -0.278515	 0.527588	 -0.439070	 0.671787	 2
1463571559.822	 12	 0.344950	 -2.495784	 1.243425	 0.996241	 -0.981566	 -0.563707	 -0.280504	 0.519914	 -0.431795	 0.681586	 2
1463571559.832	 12	 0.781331	 -1.881034	 1.564009	 0.979501	 -0.965479	 -0.559430	 -0.278689	 0.513552	 -0.425667	 0.690945	 2
1463571559.842	 12	 1.024235	 -1.410763	 1.976589	 0.967786	 -0.944539	 -0.555185	 -0.273729	 0.508795	 -0.419560	 0.700121	 2
1463571559.852	 12	 1.094882	 -1.077876	 2.441612	 0.962017	 -0.919258	 -0.547959	 -0.266418	 0.505597	 -0.412564	 0.709355	 2
1463571559.862	 12	 1.078631	 -0.801452	 2.858907	 0.962111	 -0.890416	 -0.536786	 -0.257360	 0.503898	 -0.404302	 0.718605	 2
1463571559.872	 12	 1.095170	 -0.477148	 3.145274	 0.966790	 -0.858932	 -0.523307	 -0.246816	 0.503565	 -0.395184	 0.727553	 2
1463571559.882	 12	 1.221771	 -0.065384	 3.363287	 0.975134	 -0.824934	 -0.509891	 -0.234474	 0.504632	 -0.385849	 0.735859	 2
1463571559.892	 12	 1.407295	 0.254001	 3.479746	 0.985225	 -0.788648	 -0.498386	 -0.220365	 0.506631	 -0.376702	 0.743545	 2
1463571559.902	 12	 1.564533	 0.437512	 3.621831	 0.995850	 -0.750361	 -0.488877	 -0.204829	 0.509087	 -0.367646	 0.750808	 2
1463571559.912	 12	 1.694885	 0.475205	 3.885356	 1.006568	 -0.709301	 -0.480052	 -0.187960	 0.511641	 -0.357976	 0.758121	 2
1463571559.922	 12	 1.917011	 0.191179	 4.262322	 1.014574	 -0.664208	 -0.471803	 -0.169743	 0.513147	 -0.347126	 0.766401	 2
1463571559.932	 12	 2.194458	 -0.111250	 4.617320	 1.018466	 -0.614431	 -0.464534	 -0.149983	 0.512981	 -0.335034	 0.775956	 2
1463571559.942	 12	 2.551803	 -0.255991	 4.749279	 1.018827	 -0.561289	 -0.459845	 -0.128653	 0.511364	 -0.322698	 0.786016	 2
1463571559.952	 12	 3.010528	 -0.419841	 4.633987	 1.015068	 -0.506256	 -0.459823	 -0.105875	 0.508032	 -0.311332	 0.796095	 2
1463571559.962	 12	 3.408215	 -0.501640	 4.368651	 1.007864	 -0.451082	 -0.464990	 -0.082126	 0.503101	 -0.301736	 0.805668	 2
1463571559.972	 12	 3.702707	 -0.638445	 4.249712	 0.998389	 -0.395559	 -0.473418	 -0.057630	 0.496753	 -0.293316	 0.814789	 2
1463571559.982	 12	 3.953628	 -0.800099	 4.206590	 0.987130	 -0.339000	 -0.483655	 -0.032403	 0.488967	 -0.285468	 0.823632	 2
1463571559.992	 12	 4.211941	 -0.956642	 4.137872	 0.974339	 -0.281377	 -0.495541	 -0.006457	 0.479735	 -0.278209	 0.832113	 2
1463571560.002	 12	 4.459215	 -1.139129	 4.007195	 0.959972	 -0.223124	 -0.509260	 0.020024	 0.468974	 -0.271787	 0.840116	 2
1463571560.012	 12	 4.572653	 -1.185110	 3.872560	 0.945177	 -0.164882	 -0.524057	 0.046694	 0.457155	 -0.266069	 0.847370	 2
1463571560.022	 12	 4.237503	 -0.857514	 3.737846	 0.933772	 -0.108722	 -0.537057	 0.072463	 0.446208	 -0.260148	 0.853212	 2
1463571560.032	 12	 3.757811	 -0.663222	 3.642583	 0.926236	 -0.056335	 -0.546210	 0.096185	 0.436808	 -0.253331	 0.857771	 2
1463571560.042	 12	 3.434674	 -0.915848	 3.729372	 0.917617	 -0.005570	 -0.551845	 0.118253	 0.426807	 -0.245446	 0.862328	 2
1463571560.052	 12	 3.010028	 -1.133610	 3.742767	 0.906886	 0.043107	 -0.553617	 0.138326	 0.415995	 -0.236531	 0.867103	 2
1463571560.062	 12	 2.659210	 -1.553530	 3.776018	 0.892439	 0.089598	 -0.551667	 0.156288	 0.403825	 -0.226839	 0.872378	 2
1463571560.072	 12	 2.425731	 -2.154027	 3.742622	 0.871910	 0.134372	 -0.546850	 0.172366	 0.389239	 -0.216925	 0.878480	 2
1463571560.082	 12	 2.281323	 -2.775860	 3.589952	 0.844734	 0.176963	 -0.540579	 0.186699	 0.371972	 -0.207685	 0.885239	 2
1463571560.092	 12	 2.178638	 -3.360721	 3.419145	 0.811105	 0.217367	 -0.533248	 0.199484	 0.352080	 -0.199394	 0.892462	 2
1463571560.102	 12	 2.106398	 -3.799124	 3.216397	 0.772195	 0.255531	 -0.525161	 0.210945	 0.330064	 -0.192167	 0.899795	 2
1463571560.112	 12	 2.062957	 -3.946769	 2.932974	 0.730685	 0.291247	 -0.517000	 0.221392	 0.307096	 -0.186112	 0.906664	 2
1463571560.122	 12	 2.000522	 -3.779901	 2.598289	 0.690030	 0.324025	 -0.509496	 0.231013	 0.284756	 -0.181252	 0.912521	 2
1463571560.132	 12	 1.890411	 -3.387827	 2.352442	 0.652630	 0.354029	 -0.502193	 0.239971	 0.264206	 -0.177000	 0.917213	 2
1463571560.142	 12	 1.745064	 -2.872481	 2.224217	 0.619682	 0.381737	 -0.494153	 0.248408	 0.246090	 -0.172607	 0.920837	 2
1463571560.152	 12	 1.571384	 -2.325600	 2.179662	 0.591419	 0.407465	 -0.484643	 0.256371	 0.230611	 -0.167556	 0.923589	 2
1463571560.162	 12	 1.355897	 -1.854861	 2.178458	 0.567074	 0.431196	 -0.473155	 0.263718	 0.217526	 -0.161628	 0.925749	 2
1463571560.172	 12	 1.133086	 -1.548163	 2.140621	 0.545247	 0.452652	 -0.459839	 0.270223	 0.206236	 -0.155053	 0.927580	 2
1463571560.182	 12	 0.954981	 -1.409301	 2.003850	 0.524656	 0.471646	 -0.445866	 0.275815	 0.196023	 -0.148526	 0.929216	 2
1463571560.192	 12	 0.798843	 -1.291341	 1.780365	 0.505229	 0.487990	 -0.432507	 0.280507	 0.186693	 -0.142635	 0.930654	 2
1463571560.202	 12	 0.630357	 -1.120845	 1.609699	 0.487508	 0.501740	 -0.419686	 0.284324	 0.178481	 -0.137221	 0.931920	 2
1463571560.212	 12	 0.494071	 -0.973304	 1.513143	 0.471230	 0.513469	 -0.406886	 0.287435	 0.171247	 -0.131967	 0.933081	 2
1463571560.222	 12	 0.415182	 -0.886457	 1.430443	 0.455880	 0.523812	 -0.394151	 0.290079	 0.164654	 -0.126857	 0.934158	 2
1463571560.232	 12	 0.387137	 -0.865827	 1.330697	 0.441087	 0.533236	 -0.382012	 0.292477	 0.158385	 -0.122115	 0.935125	 2
1463571560.242	 12	 0.363870	 -0.981200	 1.252025	 0.425665	 0.541898	 -0.370344	 0.294607	 0.151878	 -0.117828	 0.936086	 2
1463571560.262	 13	 0.346762	 -1.377186	 0.907446	 0.391102	 0.556864	 -0.350991	 0.298088	 0.136881	 -0.112088	 0.938000	 2
1463571560.272	 13	 0.312134	 -1.514866	 0.681590	 0.372675	 0.562604	 -0.344312	 0.299258	 0.128615	 -0.111055	 0.938919	 2
1463571560.282	 13	 0.256798	 -1.533228	 0.474077	 0.354844	 0.567010	 -0.339682	 0.300011	 0.120471	 -0.111072	 0.939757	 2
1463571560.292	 13	 0.180840	 -1.477461	 0.360155	 0.338063	 0.570186	 -0.336216	 0.300342	 0.112775	 -0.111629	 0.940540	 2
1463571560.302	 13	 0.121234	 -1.415844	 0.326078	 0.322007	 0.572538	 -0.333007	 0.300356	 0.105464	 -0.112293	 0.941304	 2
1463571560.312	 13	 0.087431	 -1.330757	 0.312243	 0.306736	 0.574412	 -0.329795	 0.300201	 0.098569	 -0.112891	 0.942029	 2
1463571560.322	 13	 0.083554	 -1.245674	 0.309871	 0.292319	 0.576113	 -0.326558	 0.300021	 0.092094	 -0.113371	 0.942684	 2
1463571560.332	 13	 0.104218	 -1.170161	 0.317854	 0.278651	 0.577934	 -0.323272	 0.299945	 0.085967	 -0.113707	 0.943246	 2
1463571560.342	 13	 0.140728	 -1.122404	 0.317981	 0.265555	 0.580057	 -0.320029	 0.300054	 0.080073	 -0.113958	 0.943700	 2
1463571560.352	 13	 0.178158	 -1.079138	 0.286085	 0.253043	 0.582449	 -0.317103	 0.300342	 0.074384	 -0.114255	 0.944038	 2
1463571560.362	 13	 0.220791	 -1.011871	 0.192552	 0.241666	 0.585017	 -0.315178	 0.300819	 0.069065	 -0.114849	 0.944218	 2
1463571560.372	 13	 0.263633	 -0.894665	 0.092023	 0.232048	 0.587749	 -0.314553	 0.301519	 0.064369	 -0.115788	 0.944212	 2
1463571560.382	 13	 0.290884	 -0.739751	 0.051662	 0.224310	 0.590657	 -0.314665	 0.302430	 0.060435	 -0.116787	 0.944057	 2
1463571560.392	 13	 0.313219	 -0.553480	 0.079845	 0.218289	 0.593798	 -0.314640	 0.303543	 0.057313	 -0.117452	 0.943812	 2
1463571560.402	 13	 0.355680	 -0.411828	 0.123424	 0.213620	 0.597394	 -0.314207	 0.304936	 0.054852	 -0.117693	 0.943480	 2
1463571560.412	 13	 0.419120	 -0.340496	 0.158705	 0.209649	 0.601646	 -0.313440	 0.306666	 0.052716	 -0.117628	 0.943048	 2
1463571560.422	 13	 0.484351	 -0.319336	 0.166860	 0.205963	 0.606576	 -0.312636	 0.308729	 0.050662	 -0.117462	 0.942509	 2
1463571560.432	 13	 0.535650	 -0.297207	 0.159159	 0.202555	 0.612030	 -0.311992	 0.311056	 0.048671	 -0.117298	 0.941869	 2
1463571560.442	 13	 0.572026	 -0.268674	 0.148450	 0.199588	 0.617849	 -0.311569	 0.313584	 0.046825	 -0.117151	 0.941142	 2
1463571560.452	 13	 0.598657	 -0.263567	 0.130148	 0.196814	 0.623933	 -0.311366	 0.316250	 0.045014	 -0.117066	 0.940348	 2
1463571560.462	 13	 0.590178	 -0.214929	 0.086978	 0.194656	 0.629961	 -0.311594	 0.318934	 0.043432	 -0.117096	 0.939512	 2
1463571560.472	 13	 0.524998	 -0.220161	 0.072576	 0.192771	 0.635454	 -0.311995	 0.321385	 0.041997	 -0.117204	 0.938728	 2
1463571560.482	 13	 0.403202	 -0.268563	 0.095567	 0.190176	 0.639920	 -0.311952	 0.323307	 0.040392	 -0.117294	 0.938127	 2
1463571560.492	 13	 0.241069	 -0.281658	 0.130961	 0.186879	 0.642915	 -0.311108	 0.324488	 0.038720	 -0.117227	 0.937799	 2
1463571560.502	 13	 0.114038	 -0.298227	 0.141505	 0.183100	 0.644565	 -0.309683	 0.325006	 0.037035	 -0.117061	 0.937708	 2
1463571560.512	 13	 0.064510	 -0.362147	 0.107237	 0.178907	 0.645483	 -0.308385	 0.325164	 0.035200	 -0.117073	 0.937723	 2
1463571560.522	 13	 0.086254	 -0.438290	 0.029604	 0.174406	 0.646331	 -0.307911	 0.325285	 0.033094	 -0.117526	 0.937700	 2
1463571560.532	 13	 0.176293	 -0.497767	 -0.068717	 0.170084	 0.647731	 -0.308780	 0.325694	 0.030806	 -0.118547	 0.937508	 2
1463571560.542	 13	 0.302882	 -0.543161	 -0.117136	 0.165893	 0.650221	 -0.310688	 0.326629	 0.028316	 -0.119966	 0.937080	 2
1463571560.562	 14	 0.460215	 -0.624866	 -0.173620	 0.156961	 0.657955	 -0.315839	 0.329741	 0.022620	 -0.123359	 0.935704	 2
1463571560.572	 14	 0.479379	 -0.620785	 -0.189735	 0.152796	 0.662386	 -0.319153	 0.331572	 0.019740	 -0.125323	 0.934861	 2
1463571560.582	 14	 0.481857	 -0.583262	 -0.147843	 0.148379	 0.666989	 -0.322068	 0.333453	 0.016790	 -0.127138	 0.934004	 2
1463571560.592	 14	 0.277578	 -0.176801	 -0.206168	 0.141854	 0.677897	 -0.321518	 0.338082	 0.012886	 -0.127322	 0.932375	 2
1463571560.602	 14	 0.108423	 -0.030887	 -0.247034	 0.143423	 0.679030	 -0.324842	 0.338727	 0.012956	 -0.128538	 0.931973	 2
1463571560.612	 14	 -0.062046	 0.065022	 -0.290485	 0.145997	 0.678433	 -0.328329	 0.338640	 0.013617	 -0.129763	 0.931826	 2
1463571560.622	 14	 -0.156928	 0.137180	 -0.351867	 0.149745	 0.676555	 -0.332331	 0.338046	 0.014854	 -0.131109	 0.931834	 2
1463571560.632	 14	 -0.130590	 0.119610	 -0.417272	 0.154039	 0.674512	 -0.337122	 0.337423	 0.016231	 -0.132744	 0.931805	 2
1463571560.642	 14	 0.003138	 0.020871	 -0.485432	 0.158197	 0.673441	 -0.342979	 0.337256	 0.017279	 -0.134840	 0.931546	 2
