% Gyrometer data recorded with 'snsrlog'
% 
% 
% Label description:
% 	 0: Default Label
% 	 1: still_drop
% 	 2: walk_drop
% 	 3: other
% 	 4: dtw_same
% 	 5: dtw_diff
% 	 6: delete
% 	 7: steal
% 
% Column description:
% 	 1: Seconds.milliseconds since 1970
% 	 2: Number of skipped measurements
% 	 3: Gyro X
% 	 4: Gyro Y
% 	 5: Gyro Z
% 	 6: Roll of the device
% 	 7: Pitch of the device
% 	 8: Yaw of the device
% 	 9: Quaternion X
% 	 10: Quaternion Y
% 	 11: Quaternion Z
% 	 12: Quaternion W
% 	 13: Label used for the current sample
% 
% 
1463623513.457	 1	 -1.077137	 1.993752	 0.814222	 0.306783	 0.615446	 -0.009119	 0.299994	 0.144247	 0.041984	 0.942037	 1
1463623513.467	 1	 -1.036923	 2.048908	 0.663047	 0.320197	 0.607652	 0.002942	 0.295123	 0.152548	 0.049078	 0.941925	 1
1463623513.477	 1	 -1.059883	 2.036379	 0.539502	 0.334623	 0.599569	 0.013593	 0.290102	 0.161080	 0.055581	 0.941703	 1
1463623513.487	 1	 -1.218858	 1.921080	 0.416184	 0.348640	 0.590039	 0.023414	 0.284390	 0.169286	 0.061457	 0.941641	 1
1463623513.497	 1	 -1.483006	 1.932442	 0.262989	 0.362596	 0.577839	 0.032759	 0.277379	 0.177400	 0.066808	 0.941874	 1
1463623513.507	 1	 -1.709830	 2.261931	 -0.006937	 0.379956	 0.562618	 0.040683	 0.268872	 0.186922	 0.071602	 0.942147	 1
1463623513.527	 2	 -1.702893	 3.051641	 -0.812826	 0.432649	 0.526416	 0.046346	 0.249245	 0.213082	 0.077682	 0.941509	 1
1463623513.537	 2	 -1.477344	 3.326007	 -1.314210	 0.467497	 0.507355	 0.041743	 0.239408	 0.229259	 0.077770	 0.940253	 1
1463623513.547	 2	 -1.179884	 3.604067	 -1.717071	 0.507445	 0.488622	 0.032052	 0.230210	 0.247276	 0.075760	 0.938146	 1
1463623513.557	 2	 -0.869192	 3.812214	 -1.928860	 0.551115	 0.470922	 0.019089	 0.221955	 0.266706	 0.072403	 0.935073	 1
1463623513.567	 2	 -0.576851	 3.871349	 -2.016116	 0.596374	 0.454639	 0.004247	 0.214813	 0.286686	 0.068187	 0.931137	 1
1463623513.577	 2	 -0.361346	 3.893803	 -2.059348	 0.642074	 0.439420	 -0.011632	 0.208599	 0.306757	 0.063386	 0.926482	 1
1463623513.587	 2	 -0.283837	 4.066680	 -2.095716	 0.688940	 0.424219	 -0.027703	 0.202709	 0.327353	 0.058341	 0.921057	 1
1463623513.597	 2	 -0.291394	 4.287817	 -2.111711	 0.737502	 0.408239	 -0.043093	 0.196639	 0.348812	 0.053369	 0.914776	 1
1463623513.607	 2	 -0.319915	 4.503859	 -2.096787	 0.787495	 0.391482	 -0.057243	 0.190306	 0.371031	 0.048664	 0.907607	 1
1463623513.617	 2	 -0.330834	 4.681480	 -2.101434	 0.838754	 0.373976	 -0.070187	 0.183724	 0.393890	 0.044163	 0.899525	 1
1463623513.627	 2	 -0.260653	 4.907363	 -2.164954	 0.891635	 0.355796	 -0.082740	 0.177080	 0.417424	 0.039513	 0.890415	 1
1463623513.647	 3	 0.294272	 5.848993	 -2.480753	 1.010625	 0.318123	 -0.112498	 0.165248	 0.469422	 0.027981	 0.866921	 1
1463623513.657	 3	 0.641266	 6.333170	 -2.747841	 1.078609	 0.297803	 -0.131650	 0.160425	 0.498384	 0.020203	 0.851745	 1
1463623513.677	 4	 0.918427	 6.656767	 -3.479421	 1.223082	 0.246382	 -0.174992	 0.150014	 0.558807	 -0.000726	 0.815616	 1
1463623513.687	 4	 0.852283	 6.239932	 -3.785401	 1.291359	 0.213743	 -0.195269	 0.143112	 0.587154	 -0.013531	 0.796609	 1
1463623513.707	 5	 0.779790	 4.887509	 -4.040348	 1.405413	 0.139542	 -0.228334	 0.126298	 0.634456	 -0.041957	 0.761416	 1
1463623513.717	 5	 0.903879	 4.272376	 -4.040758	 1.451317	 0.100751	 -0.242711	 0.117627	 0.653352	 -0.057273	 0.745664	 1
1463623513.737	 6	 1.525429	 3.269420	 -4.078949	 1.525798	 0.022033	 -0.274425	 0.102402	 0.683394	 -0.091324	 0.717040	 1
1463623513.747	 6	 1.951748	 2.894230	 -4.309963	 1.555629	 -0.019766	 -0.294080	 0.095840	 0.695149	 -0.111236	 0.703710	 1
1463623513.757	 6	 2.426731	 2.581392	 -4.723065	 1.581189	 -0.065846	 -0.317262	 0.089354	 0.705125	 -0.134160	 0.690519	 1
1463623513.767	 6	 2.926754	 2.445480	 -5.222131	 1.603359	 -0.117360	 -0.344233	 0.082663	 0.713676	 -0.160428	 0.676828	 1
1463623513.777	 6	 3.451061	 2.494444	 -5.737806	 1.623601	 -0.174867	 -0.375334	 0.075803	 0.721278	 -0.190146	 0.661708	 1
1463623513.787	 6	 3.913255	 2.595750	 -6.101116	 1.642110	 -0.237334	 -0.410308	 0.069062	 0.727914	 -0.222675	 0.644816	 1
1463623513.797	 6	 4.209349	 2.631794	 -6.290933	 1.658344	 -0.302940	 -0.448055	 0.062560	 0.733358	 -0.256830	 0.626348	 1
1463623513.807	 6	 4.292350	 2.500361	 -6.194828	 1.670886	 -0.369117	 -0.487022	 0.056293	 0.737175	 -0.291079	 0.607187	 1
1463623513.817	 6	 4.174809	 2.310449	 -5.737294	 1.679334	 -0.431864	 -0.525867	 0.050847	 0.739327	 -0.323534	 0.588333	 1
1463623513.827	 6	 3.920321	 2.234015	 -5.233816	 1.685082	 -0.489489	 -0.563499	 0.046411	 0.740384	 -0.353251	 0.569992	 1
1463623513.837	 6	 3.566481	 2.064885	 -4.646139	 1.688747	 -0.541444	 -0.598833	 0.042748	 0.740672	 -0.379800	 0.552566	 1
1463623513.847	 6	 3.185096	 1.829770	 -3.928814	 1.690171	 -0.586172	 -0.631644	 0.040172	 0.740264	 -0.402766	 0.536819	 1
1463623513.857	 6	 2.675589	 1.540083	 -3.161856	 1.689783	 -0.622822	 -0.660747	 0.038552	 0.739407	 -0.421746	 0.523375	 1
1463623513.867	 6	 2.027267	 1.262249	 -2.429815	 1.689230	 -0.651282	 -0.683973	 0.037446	 0.738636	 -0.436336	 0.512470	 1
1463623513.877	 6	 1.465401	 1.006509	 -1.989275	 1.689573	 -0.673773	 -0.700921	 0.036210	 0.738235	 -0.447290	 0.503617	 1
1463623513.887	 6	 1.084533	 0.602016	 -1.747794	 1.688982	 -0.693076	 -0.713133	 0.034081	 0.737694	 -0.455991	 0.496708	 1
1463623513.897	 6	 0.817526	 0.143874	 -1.524857	 1.685737	 -0.709795	 -0.722122	 0.031008	 0.736569	 -0.463087	 0.491992	 1
1463623513.907	 6	 0.647037	 -0.201916	 -1.316635	 1.679869	 -0.724152	 -0.729106	 0.027355	 0.734862	 -0.468975	 0.489175	 1
1463623513.917	 6	 0.653857	 -0.274994	 -1.124471	 1.672656	 -0.736474	 -0.735917	 0.023974	 0.732865	 -0.474198	 0.487309	 1
1463623513.927	 6	 0.770484	 -0.432954	 -0.859450	 1.662861	 -0.746487	 -0.744710	 0.021447	 0.730263	 -0.479230	 0.486410	 1
1463623513.937	 6	 0.738048	 -0.564552	 -0.539598	 1.650890	 -0.753261	 -0.754364	 0.019766	 0.727180	 -0.483557	 0.486818	 1
1463623513.947	 6	 0.649077	 -0.705430	 -0.202288	 1.638232	 -0.756642	 -0.763260	 0.018760	 0.723980	 -0.486760	 0.488431	 1
1463623513.957	 6	 0.504202	 -0.936523	 0.138933	 1.624273	 -0.756414	 -0.770764	 0.018145	 0.720492	 -0.488667	 0.491698	 1
1463623513.967	 6	 0.342212	 -1.131787	 0.427348	 1.609684	 -0.752992	 -0.776208	 0.017723	 0.716847	 -0.489242	 0.496447	 1
1463623513.977	 6	 0.289197	 -1.209041	 0.606139	 1.594799	 -0.747381	 -0.780563	 0.017601	 0.713086	 -0.488997	 0.502076	 1
1463623513.987	 6	 0.074196	 -1.351677	 0.650380	 1.580263	 -0.740976	 -0.782538	 0.017003	 0.709368	 -0.487966	 0.508328	 1
1463623513.997	 6	 -0.136475	 -1.440434	 0.646059	 1.566800	 -0.734492	 -0.781376	 0.015603	 0.705885	 -0.486113	 0.514953	 1
1463623514.007	 6	 -0.256355	 -1.350215	 0.718283	 1.555110	 -0.727601	 -0.778145	 0.014075	 0.702812	 -0.483601	 0.521524	 1
1463623514.017	 6	 -0.234991	 -1.055326	 0.910547	 1.546062	 -0.719105	 -0.774568	 0.013665	 0.700364	 -0.480558	 0.527606	 1
1463623514.027	 6	 -0.012985	 -0.647282	 1.240666	 1.539552	 -0.707627	 -0.773022	 0.015663	 0.698488	 -0.477266	 0.532998	 1
1463623514.037	 6	 0.290209	 -0.261470	 1.617830	 1.534608	 -0.692309	 -0.775240	 0.020740	 0.696882	 -0.473987	 0.537831	 1
1463623514.047	 6	 0.421110	 0.079688	 1.927870	 1.531854	 -0.673578	 -0.779544	 0.028295	 0.695690	 -0.470373	 0.542184	 1
1463623514.057	 6	 0.214814	 0.225036	 1.940610	 1.532213	 -0.653813	 -0.782288	 0.036409	 0.695245	 -0.466007	 0.546028	 1
1463623514.067	 6	 -0.285596	 0.196430	 1.460845	 1.535895	 -0.637821	 -0.779586	 0.042041	 0.695856	 -0.461024	 0.549066	 1
1463623514.077	 6	 -0.569637	 0.215217	 0.857074	 1.541996	 -0.627985	 -0.772704	 0.044554	 0.697398	 -0.456406	 0.550768	 1
1463623514.087	 6	 -0.479824	 0.339866	 0.482304	 1.548875	 -0.622542	 -0.766049	 0.045732	 0.699289	 -0.452967	 0.551112	 1
1463623514.097	 6	 -0.104468	 0.656531	 0.300803	 1.556084	 -0.619212	 -0.763380	 0.047609	 0.701244	 -0.451169	 0.549943	 1
1463623514.107	 6	 0.334818	 1.089705	 0.224274	 1.564296	 -0.616805	 -0.766146	 0.051285	 0.703362	 -0.451073	 0.546977	 1
1463623514.117	 6	 0.602866	 1.340062	 0.242388	 1.573337	 -0.614467	 -0.772873	 0.056521	 0.705580	 -0.452027	 0.542801	 1
1463623514.127	 6	 0.680367	 1.377949	 0.364628	 1.582410	 -0.611258	 -0.781093	 0.062606	 0.707697	 -0.453103	 0.538463	 1
1463623514.137	 6	 0.624701	 1.175335	 0.562525	 1.590212	 -0.606274	 -0.789040	 0.068934	 0.709384	 -0.453614	 0.535030	 1
1463623514.147	 6	 0.496584	 0.971035	 0.791944	 1.596670	 -0.599035	 -0.795671	 0.075278	 0.710645	 -0.453162	 0.532880	 1
1463623514.157	 6	 0.333525	 0.880167	 0.955580	 1.602914	 -0.589948	 -0.800558	 0.081589	 0.711818	 -0.451706	 0.531619	 1
1463623514.167	 6	 0.037979	 0.648268	 0.978376	 1.609049	 -0.580141	 -0.802478	 0.087054	 0.713032	 -0.449231	 0.531224	 1
1463623514.177	 6	 -0.562140	 0.234224	 0.841200	 1.614836	 -0.571165	 -0.798286	 0.089955	 0.714442	 -0.445344	 0.532118	 1
1463623514.187	 6	 -1.372406	 -0.239156	 0.796956	 1.620633	 -0.562756	 -0.784667	 0.089264	 0.716309	 -0.439070	 0.534931	 1
1463623514.197	 6	 -1.579369	 -0.290270	 1.144655	 1.627159	 -0.551548	 -0.766840	 0.088143	 0.718485	 -0.430776	 0.538927	 1
1463623514.207	 6	 -1.519603	 -0.428747	 1.579809	 1.631963	 -0.535895	 -0.749880	 0.088438	 0.720041	 -0.421410	 0.544182	 1
1463623514.217	 6	 -1.292423	 -0.389742	 1.770031	 1.635174	 -0.517679	 -0.735444	 0.090144	 0.720990	 -0.411933	 0.549872	 1
1463623514.227	 6	 -0.973307	 -0.370581	 1.754641	 1.636658	 -0.499346	 -0.724712	 0.092843	 0.721297	 -0.403416	 0.555308	 1
1463623514.237	 6	 -0.584120	 -0.326975	 1.618438	 1.636324	 -0.482352	 -0.718169	 0.096220	 0.720934	 -0.396475	 0.560181	 1
1463623514.247	 6	 -0.095469	 -0.149346	 1.377106	 1.634911	 -0.467760	 -0.716707	 0.100396	 0.720080	 -0.391701	 0.563893	 1
1463623514.257	 6	 0.525161	 0.280171	 1.016537	 1.634322	 -0.456898	 -0.721521	 0.105718	 0.719242	 -0.389781	 0.565318	 1
1463623514.267	 6	 1.204404	 0.957001	 0.609800	 1.636842	 -0.450452	 -0.733509	 0.112715	 0.719029	 -0.391061	 0.563351	 1
1463623514.277	 6	 1.788813	 1.675499	 0.190421	 1.643805	 -0.448651	 -0.752047	 0.121364	 0.719815	 -0.395300	 0.557562	 1
1463623514.287	 6	 2.177043	 2.167297	 -0.182465	 1.654428	 -0.451231	 -0.775117	 0.130922	 0.721419	 -0.401794	 0.548612	 1
1463623514.297	 6	 2.376112	 2.279706	 -0.441067	 1.666013	 -0.457157	 -0.800632	 0.140499	 0.723129	 -0.409734	 0.538018	 1
1463623514.307	 6	 2.350972	 1.798193	 -0.556168	 1.674121	 -0.464868	 -0.826400	 0.148927	 0.723822	 -0.418337	 0.528106	 1
1463623514.317	 6	 2.016313	 0.808536	 -0.613620	 1.674571	 -0.472991	 -0.849387	 0.154633	 0.722632	 -0.426757	 0.521316	 1
1463623514.327	 6	 1.334414	 -0.184015	 -0.770389	 1.667402	 -0.481745	 -0.865644	 0.156040	 0.719993	 -0.434120	 0.518460	 1
1463623514.337	 6	 0.531632	 -0.543506	 -0.946858	 1.659200	 -0.491399	 -0.872741	 0.153576	 0.717869	 -0.439404	 0.517690	 1
1463623514.347	 6	 0.298697	 -0.468487	 -1.109325	 1.652873	 -0.502326	 -0.875291	 0.149429	 0.716658	 -0.443693	 0.516922	 1
1463623514.357	 6	 0.520932	 -0.070229	 -1.248235	 1.649063	 -0.514815	 -0.879309	 0.145817	 0.716075	 -0.448578	 0.514540	 1
1463623514.367	 6	 0.813255	 0.400838	 -1.292224	 1.648277	 -0.528222	 -0.886753	 0.143787	 0.716067	 -0.454339	 0.510048	 1
1463623514.377	 6	 0.904588	 0.722097	 -1.248465	 1.649987	 -0.541569	 -0.895910	 0.142957	 0.716559	 -0.460287	 0.504224	 1
1463623514.387	 6	 0.873024	 0.961153	 -1.150047	 1.654284	 -0.553969	 -0.905177	 0.143095	 0.717623	 -0.465757	 0.497605	 1
1463623514.407	 7	 0.376244	 0.688501	 -0.961751	 1.665320	 -0.575435	 -0.916826	 0.142657	 0.720583	 -0.473775	 0.485742	 1
1463623514.417	 7	 0.088277	 0.270303	 -0.958872	 1.668685	 -0.585096	 -0.917653	 0.140512	 0.721799	 -0.476398	 0.481982	 1
1463623514.427	 7	 -0.203373	 -0.170901	 -1.049962	 1.669644	 -0.595136	 -0.914832	 0.136351	 0.722681	 -0.478412	 0.479857	 1
1463623514.437	 7	 -0.424380	 -0.551826	 -1.160290	 1.668319	 -0.606050	 -0.908969	 0.130244	 0.723222	 -0.480085	 0.479066	 1
1463623514.447	 7	 -0.552892	 -0.804122	 -1.242517	 1.665329	 -0.617745	 -0.901151	 0.122756	 0.723467	 -0.481596	 0.479158	 1
1463623514.457	 7	 -0.658040	 -0.926107	 -1.239539	 1.661623	 -0.629558	 -0.891969	 0.114548	 0.723558	 -0.482830	 0.479811	 1
1463623514.467	 7	 -0.697139	 -0.862023	 -1.218353	 1.658644	 -0.641134	 -0.882045	 0.106313	 0.723777	 -0.483754	 0.480444	 1
1463623514.477	 7	 -0.667292	 -0.630353	 -1.233509	 1.657499	 -0.652742	 -0.872264	 0.098551	 0.724350	 -0.484607	 0.480375	 1
1463623514.487	 7	 -0.628887	 -0.085658	 -1.347075	 1.660904	 -0.665244	 -0.862763	 0.091681	 0.725943	 -0.485553	 0.478372	 1
1463623514.497	 7	 -0.568626	 0.703490	 -1.622683	 1.671703	 -0.680039	 -0.853417	 0.085884	 0.729237	 -0.486866	 0.473073	 1
1463623514.507	 7	 -0.451200	 1.532760	 -2.062543	 1.690715	 -0.698834	 -0.844404	 0.080875	 0.734339	 -0.489096	 0.463671	 1
1463623514.517	 7	 -0.237272	 2.278387	 -2.557310	 1.717037	 -0.722561	 -0.836254	 0.076376	 0.740824	 -0.492733	 0.450068	 1
1463623514.527	 7	 0.090968	 2.775218	 -2.993573	 1.747890	 -0.751098	 -0.830010	 0.072226	 0.747775	 -0.498136	 0.432985	 1
1463623514.537	 7	 0.477910	 3.092626	 -3.214601	 1.780280	 -0.782934	 -0.826730	 0.068679	 0.754313	 -0.505210	 0.413592	 1
1463623514.547	 7	 0.942924	 3.386923	 -3.365127	 1.813203	 -0.817837	 -0.827296	 0.065978	 0.760077	 -0.514028	 0.392053	 1
1463623514.557	 7	 1.680196	 3.063085	 -3.285062	 1.839679	 -0.855602	 -0.835356	 0.063828	 0.763564	 -0.525305	 0.370069	 1
1463623514.577	 8	 2.599264	 1.975404	 -1.394405	 1.839356	 -0.910715	 -0.891436	 0.067462	 0.759474	 -0.550290	 0.340337	 1
1463623514.587	 8	 2.226482	 2.256571	 -0.467724	 1.834289	 -0.923484	 -0.925604	 0.074901	 0.756917	 -0.559525	 0.329239	 1
1463623514.597	 8	 1.047621	 1.028655	 0.011773	 1.830996	 -0.927789	 -0.947878	 0.081006	 0.755360	 -0.564385	 0.323014	 1
1463623514.607	 8	 0.048761	 -0.000067	 0.165433	 1.829193	 -0.927123	 -0.952153	 0.082327	 0.754917	 -0.564981	 0.322676	 1
1463623514.617	 9	 -0.170087	 -0.129484	 0.274815	 1.829008	 -0.924325	 -0.950934	 0.082720	 0.755027	 -0.564084	 0.323883	 1
1463623514.637	 9	 0.135107	 -0.130406	 0.271084	 1.824601	 -0.918558	 -0.952640	 0.083990	 0.754418	 -0.563087	 0.326699	 1
1463623514.647	 9	 0.344273	 -0.046657	 0.170926	 1.819497	 -0.917359	 -0.958181	 0.085030	 0.753384	 -0.563906	 0.327401	 1
1463623514.657	 9	 0.506627	 0.123958	 0.003775	 1.814165	 -0.918022	 -0.965839	 0.086191	 0.752166	 -0.565554	 0.327057	 1
1463623514.667	 9	 0.633040	 0.374388	 -0.171912	 1.809970	 -0.920733	 -0.974997	 0.087560	 0.751015	 -0.567902	 0.325264	 1
1463623514.677	 9	 0.740574	 0.639182	 -0.281223	 1.807367	 -0.924924	 -0.985487	 0.089387	 0.750029	 -0.570744	 0.322052	 1
1463623514.687	 9	 0.828783	 0.843713	 -0.348297	 1.805903	 -0.930037	 -0.997278	 0.091715	 0.749144	 -0.573940	 0.317750	 1
1463623514.697	 9	 0.907709	 0.963615	 -0.502404	 1.805061	 -0.936491	 -1.010030	 0.094133	 0.748278	 -0.577539	 0.312517	 1
1463623514.707	 9	 0.959177	 0.903090	 -0.907339	 1.804241	 -0.946357	 -1.022576	 0.095351	 0.747349	 -0.581858	 0.306297	 1
1463623514.717	 9	 0.956235	 0.608996	 -1.568691	 1.802533	 -0.962092	 -1.033215	 0.093657	 0.746251	 -0.587222	 0.299179	 1
1463623514.727	 9	 0.852668	 0.131323	 -2.358767	 1.799677	 -0.985122	 -1.039779	 0.087678	 0.744997	 -0.593591	 0.291449	 1
1463623514.737	 9	 0.668012	 -0.339757	 -3.152338	 1.796932	 -1.015524	 -1.040323	 0.077022	 0.743752	 -0.600590	 0.283183	 1
1463623514.747	 9	 0.495941	 -0.649056	 -3.925330	 1.796363	 -1.053098	 -1.034194	 0.062136	 0.742618	 -0.607982	 0.273889	 1
1463623514.757	 9	 0.401965	 -0.719035	 -4.665868	 1.800364	 -1.097734	 -1.021508	 0.043868	 0.741562	 -0.615745	 0.262715	 1
1463623514.767	 9	 0.410483	 -0.512243	 -5.186241	 1.810959	 -1.148057	 -1.003300	 0.023768	 0.740424	 -0.623837	 0.249067	 1
1463623514.777	 9	 0.509189	 -0.043551	 -5.342604	 1.829498	 -1.200831	 -0.981336	 0.004114	 0.739076	 -0.632043	 0.232959	 1
1463623514.787	 9	 0.687738	 0.557076	 -5.166981	 1.855345	 -1.252890	 -0.958102	 -0.013193	 0.737360	 -0.640272	 0.214890	 1
1463623514.797	 9	 0.775584	 1.106311	 -4.928168	 1.889956	 -1.302756	 -0.932302	 -0.027558	 0.735384	 -0.648320	 0.195272	 1
1463623514.807	 9	 0.497411	 1.261559	 -4.752714	 1.945530	 -1.349866	 -0.887924	 -0.040547	 0.733799	 -0.655145	 0.175156	 1
1463623514.817	 9	 0.007700	 1.087108	 -4.513474	 2.043743	 -1.392146	 -0.799413	 -0.053444	 0.733223	 -0.659700	 0.155962	 1
1463623514.827	 9	 -0.438071	 0.856978	 -4.161098	 2.208769	 -1.426697	 -0.641517	 -0.066305	 0.733734	 -0.661875	 0.138420	 1
1463623514.837	 9	 -0.532478	 0.560753	 -3.394618	 2.429752	 -1.449723	 -0.424909	 -0.077886	 0.734614	 -0.662507	 0.123939	 1
1463623514.847	 9	 -0.381043	 0.521303	 -2.027865	 2.625153	 -1.460152	 -0.233514	 -0.085224	 0.735354	 -0.662590	 0.113864	 1
1463623514.857	 9	 -0.284901	 0.454788	 -0.309181	 2.701536	 -1.460943	 -0.161483	 -0.086524	 0.736280	 -0.662126	 0.109525	 1
1463623514.867	 9	 -0.337669	 0.261472	 0.877805	 2.666748	 -1.455188	 -0.199601	 -0.083328	 0.737801	 -0.660701	 0.110361	 1
1463623514.877	 9	 -0.326402	 0.026315	 1.308218	 2.591741	 -1.446244	 -0.276108	 -0.078632	 0.739443	 -0.658828	 0.113956	 1
1463623514.887	 9	 -0.266081	 -0.281471	 1.277119	 2.518143	 -1.436643	 -0.348256	 -0.074639	 0.740759	 -0.656938	 0.118902	 1
1463623514.897	 9	 -0.188530	 -0.566708	 0.989231	 2.460916	 -1.428484	 -0.400996	 -0.072428	 0.741530	 -0.655335	 0.124194	 1
1463623514.907	 9	 -0.124874	 -0.745439	 0.569235	 2.424388	 -1.423044	 -0.430721	 -0.072328	 0.741783	 -0.654128	 0.129004	 1
1463623514.917	 9	 -0.094340	 -0.743999	 0.193834	 2.407273	 -1.420478	 -0.440405	 -0.073825	 0.741707	 -0.653313	 0.132673	 1
1463623514.927	 9	 -0.174755	 -0.667471	 0.007672	 2.404859	 -1.419112	 -0.435888	 -0.076016	 0.741741	 -0.652483	 0.135304	 1
1463623514.937	 9	 -0.318446	 -0.558808	 -0.026301	 2.412452	 -1.417169	 -0.422235	 -0.078223	 0.742253	 -0.651221	 0.137305	 1
1463623514.947	 9	 -0.383676	 -0.360784	 -0.026022	 2.425320	 -1.414509	 -0.405011	 -0.079918	 0.743178	 -0.649679	 0.138621	 1
1463623514.957	 9	 -0.319831	 -0.128350	 -0.076774	 2.500289	 -1.422762	 -0.328663	 -0.085407	 0.742833	 -0.650312	 0.134162	 1
1463623514.967	 9	 -0.166452	 0.086669	 -0.137923	 2.515600	 -1.421822	 -0.313538	 -0.085895	 0.743480	 -0.649637	 0.133536	 1
1463623514.977	 9	 0.007113	 0.239250	 -0.147606	 2.527077	 -1.422396	 -0.304025	 -0.085797	 0.743668	 -0.649693	 0.132271	 1
1463623514.987	 9	 0.159066	 0.301801	 -0.116384	 2.546724	 -1.423751	 -0.287410	 -0.085805	 0.743849	 -0.649911	 0.130160	 1
1463623514.997	 9	 0.272484	 0.313611	 -0.055448	 2.544430	 -1.426197	 -0.292908	 -0.084887	 0.743218	 -0.651011	 0.128865	 1
1463623515.007	 9	 0.311909	 0.263824	 -0.011492	 2.536365	 -1.428852	 -0.303888	 -0.083854	 0.742387	 -0.652285	 0.127886	 1
1463623515.017	 9	 0.279619	 0.190659	 0.006226	 2.526528	 -1.431214	 -0.315924	 -0.082978	 0.741573	 -0.653447	 0.127245	 1
1463623515.027	 9	 0.217523	 0.146240	 0.011645	 2.549755	 -1.434290	 -0.294646	 -0.083761	 0.741251	 -0.654121	 0.125125	 1
1463623515.037	 9	 0.149143	 0.142074	 -0.003785	 2.544310	 -1.435662	 -0.301575	 -0.083189	 0.740796	 -0.654796	 0.124671	 1
1463623515.047	 9	 0.065745	 0.135744	 -0.034076	 2.575324	 -1.439468	 -0.272244	 -0.084469	 0.740351	 -0.655592	 0.122244	 1
1463623515.057	 9	 -0.014485	 0.140901	 -0.088749	 2.581217	 -1.439889	 -0.267678	 -0.084288	 0.740392	 -0.655708	 0.121501	 1
1463623515.067	 9	 -0.058227	 0.194831	 -0.149681	 2.593795	 -1.440182	 -0.256802	 -0.084234	 0.740606	 -0.655682	 0.120369	 1
1463623515.077	 9	 -0.089084	 0.217229	 -0.153466	 2.609253	 -1.440272	 -0.243374	 -0.084152	 0.740939	 -0.655560	 0.119034	 1
1463623515.087	 9	 -0.110446	 0.196167	 -0.133238	 2.627022	 -1.441091	 -0.227555	 -0.084298	 0.741074	 -0.655660	 0.117532	 1
1463623515.097	 9	 -0.108413	 0.158015	 -0.113361	 2.640669	 -1.440697	 -0.215481	 -0.084249	 0.741484	 -0.655390	 0.116479	 1
1463623515.117	 10	 -0.025895	 0.186874	 -0.060523	 2.660207	 -1.440414	 -0.199012	 -0.083921	 0.742008	 -0.655159	 0.114662	 1
1463623515.127	 10	 0.033311	 0.253009	 -0.010332	 2.663368	 -1.440692	 -0.198208	 -0.083217	 0.742069	 -0.655344	 0.113721	 1
1463623515.137	 10	 0.080694	 0.313752	 0.024991	 2.662662	 -1.441235	 -0.201950	 -0.082126	 0.742015	 -0.655720	 0.112694	 1
1463623515.147	 10	 0.089338	 0.331847	 0.030413	 2.660716	 -1.441887	 -0.207241	 -0.080880	 0.741920	 -0.656169	 0.111606	 1
1463623515.157	 10	 0.056075	 0.298926	 0.024001	 2.659659	 -1.442353	 -0.211439	 -0.079727	 0.741886	 -0.656525	 0.110566	 1
1463623515.167	 10	 0.001279	 0.224563	 0.015197	 2.669318	 -1.449103	 -0.204317	 -0.080009	 0.740034	 -0.658912	 0.108550	 1
1463623515.177	 10	 -0.042946	 0.134205	 0.004084	 2.671609	 -1.448781	 -0.203601	 -0.079481	 0.740230	 -0.658850	 0.107974	 1
1463623515.187	 10	 -0.054069	 0.050119	 -0.010519	 2.701160	 -1.452913	 -0.174920	 -0.080820	 0.739366	 -0.659970	 0.106050	 1
1463623515.197	 10	 -0.041755	 -0.032007	 -0.036969	 2.704848	 -1.452629	 -0.171094	 -0.080987	 0.739496	 -0.659815	 0.105978	 1
1463623515.207	 10	 -0.047784	 -0.120759	 -0.105984	 2.730287	 -1.454397	 -0.144730	 -0.082523	 0.739199	 -0.660097	 0.105099	 1
1463623515.217	 10	 -0.099660	 -0.208259	 -0.166029	 2.743461	 -1.454231	 -0.129584	 -0.083758	 0.739315	 -0.659789	 0.105243	 1
1463623515.227	 10	 -0.183182	 -0.276015	 -0.156341	 2.758968	 -1.453346	 -0.111341	 -0.085309	 0.739646	 -0.659162	 0.105601	 1
1463623515.237	 10	 -0.239580	 -0.290320	 -0.098431	 2.772071	 -1.451647	 -0.095226	 -0.086808	 0.740193	 -0.658255	 0.106198	 1
1463623515.247	 10	 -0.255320	 -0.289767	 -0.028988	 2.774405	 -1.446708	 -0.089891	 -0.087605	 0.741677	 -0.656270	 0.107471	 1
1463623515.257	 10	 -0.253235	 -0.343642	 0.022715	 2.777483	 -1.444297	 -0.083507	 -0.088766	 0.742338	 -0.655179	 0.108605	 1
1463623515.267	 10	 -0.250520	 -0.458419	 0.036544	 2.777550	 -1.441813	 -0.079130	 -0.090168	 0.742945	 -0.654032	 0.110198	 1
1463623515.277	 10	 -0.229716	 -0.562800	 0.024734	 2.776527	 -1.439507	 -0.074717	 -0.091956	 0.743429	 -0.652894	 0.112191	 1
1463623515.287	 10	 -0.175444	 -0.577999	 0.003863	 2.778403	 -1.438137	 -0.067015	 -0.094098	 0.743617	 -0.652042	 0.114106	 1
1463623515.297	 10	 -0.108928	 -0.498469	 -0.002371	 2.776644	 -1.436988	 -0.063520	 -0.095880	 0.743720	 -0.651335	 0.115981	 1
1463623515.307	 10	 -0.089225	 -0.413271	 0.020631	 2.773806	 -1.436102	 -0.062021	 -0.097292	 0.743766	 -0.650784	 0.117588	 1
1463623515.317	 10	 -0.099436	 -0.343861	 0.054405	 2.769530	 -1.435023	 -0.062678	 -0.098353	 0.743891	 -0.650216	 0.119042	 1
1463623515.327	 10	 -0.090442	 -0.253418	 0.062628	 2.767273	 -1.433514	 -0.062205	 -0.099141	 0.744217	 -0.649521	 0.120145	 1
1463623515.337	 10	 -0.089025	 -0.172644	 0.054841	 2.763808	 -1.432483	 -0.063768	 -0.099602	 0.744416	 -0.649063	 0.121002	 1
1463623515.347	 10	 -0.094061	 -0.091944	 0.034321	 2.762514	 -1.431472	 -0.063931	 -0.099878	 0.744669	 -0.648636	 0.121505	 1
1463623515.357	 10	 -0.103289	 0.000508	 0.019275	 2.763454	 -1.430459	 -0.062756	 -0.099929	 0.744991	 -0.648239	 0.121610	 1
1463623515.367	 10	 -0.129663	 0.064404	 0.021212	 2.746889	 -1.426912	 -0.079610	 -0.098714	 0.745947	 -0.647139	 0.122596	 1
1463623515.377	 10	 -0.168908	 0.099754	 0.040001	 2.749810	 -1.425320	 -0.077579	 -0.098389	 0.746532	 -0.646572	 0.122288	 1
1463623515.387	 10	 -0.175922	 0.144891	 0.101230	 2.750532	 -1.423357	 -0.078178	 -0.097763	 0.747228	 -0.645921	 0.121978	 1
1463623515.397	 10	 -0.133779	 0.192116	 0.176972	 2.746345	 -1.421434	 -0.084299	 -0.096660	 0.747880	 -0.645381	 0.121719	 1
1463623515.407	 10	 -0.112382	 0.138372	 0.254074	 2.741031	 -1.420046	 -0.091348	 -0.095614	 0.748334	 -0.645043	 0.121544	 1
1463623515.417	 10	 -0.075324	 0.045991	 0.290193	 2.726864	 -1.418122	 -0.106403	 -0.094369	 0.748792	 -0.644580	 0.122155	 1
1463623515.427	 10	 -0.030116	 -0.074534	 0.262034	 2.711500	 -1.416623	 -0.121504	 -0.093519	 0.749028	 -0.644235	 0.123177	 1
1463623515.437	 10	 0.017319	 -0.168535	 0.225576	 2.696298	 -1.415690	 -0.135394	 -0.093117	 0.749026	 -0.644045	 0.124484	 1
1463623515.447	 10	 0.051305	 -0.183682	 0.202733	 2.691533	 -1.415963	 -0.138572	 -0.093491	 0.748792	 -0.644120	 0.125218	 1
1463623515.457	 10	 0.092236	 -0.052357	 0.141785	 2.679442	 -1.416098	 -0.149957	 -0.093138	 0.748521	 -0.644321	 0.126064	 1
1463623515.467	 10	 0.047881	 0.083595	 0.097608	 2.671964	 -1.416157	 -0.158022	 -0.092536	 0.748406	 -0.644504	 0.126257	 1
1463623515.477	 10	 -0.009281	 0.206928	 0.068346	 2.669339	 -1.415857	 -0.162482	 -0.091679	 0.748538	 -0.644555	 0.125834	 1
1463623515.487	 10	 -0.043266	 0.265324	 0.040410	 2.670196	 -1.415302	 -0.164192	 -0.090699	 0.748841	 -0.644501	 0.125021	 1
1463623515.497	 10	 -0.045665	 0.237430	 0.004953	 2.687661	 -1.417284	 -0.149397	 -0.090828	 0.748641	 -0.645094	 0.123048	 1
1463623515.507	 10	 -0.037720	 0.129827	 -0.016367	 2.691123	 -1.416971	 -0.147509	 -0.090385	 0.748864	 -0.645022	 0.122392	 1
1463623515.517	 10	 -0.026583	 -0.001000	 -0.012352	 2.693069	 -1.416770	 -0.145852	 -0.090356	 0.748971	 -0.644935	 0.122218	 1
1463623515.527	 10	 -0.003497	 -0.090357	 -0.004859	 2.693008	 -1.416711	 -0.145177	 -0.090622	 0.748955	 -0.644870	 0.122464	 1
1463623515.537	 10	 0.023058	 -0.108574	 -0.013806	 2.700290	 -1.417436	 -0.136906	 -0.091448	 0.748799	 -0.644959	 0.122333	 1
1463623515.547	 10	 0.029556	 -0.067295	 -0.039056	 2.700726	 -1.417835	 -0.135650	 -0.091819	 0.748644	 -0.645048	 0.122537	 1
1463623515.557	 10	 0.022455	 0.014591	 -0.043561	 2.702529	 -1.418248	 -0.133747	 -0.091992	 0.748538	 -0.645165	 0.122436	 1
1463623515.567	 10	 0.004817	 0.106244	 -0.025503	 2.704860	 -1.418466	 -0.132237	 -0.091828	 0.748543	 -0.645259	 0.122030	 1
1463623515.577	 10	 -0.012904	 0.177711	 -0.004437	 2.708126	 -1.418642	 -0.130599	 -0.091406	 0.748612	 -0.645373	 0.121320	 1
1463623515.587	 10	 -0.026621	 0.191742	 0.018194	 2.709911	 -1.418368	 -0.130737	 -0.090750	 0.748812	 -0.645363	 0.120633	 1
1463623515.597	 10	 -0.033208	 0.156630	 0.013661	 2.711472	 -1.417996	 -0.130839	 -0.090170	 0.749026	 -0.645304	 0.120050	 1
1463623515.607	 10	 -0.008833	 0.135159	 -0.003803	 2.713250	 -1.417834	 -0.130430	 -0.089733	 0.749165	 -0.645300	 0.119531	 1
1463623515.617	 10	 0.061785	 0.166879	 0.000139	 2.707591	 -1.419746	 -0.137586	 -0.089077	 0.748551	 -0.646172	 0.119159	 1
1463623515.627	 10	 0.158269	 0.245426	 0.017082	 2.705376	 -1.420894	 -0.142088	 -0.088227	 0.748261	 -0.646759	 0.118423	 1
1463623515.637	 10	 0.258167	 0.351536	 0.032229	 2.700267	 -1.422891	 -0.150523	 -0.086936	 0.747707	 -0.647759	 0.117408	 1
1463623515.647	 10	 0.330291	 0.469505	 0.048685	 2.692778	 -1.425545	 -0.162549	 -0.085158	 0.746961	 -0.649100	 0.116040	 1
1463623515.657	 10	 0.359670	 0.563249	 0.080197	 2.689685	 -1.428830	 -0.171279	 -0.083268	 0.746130	 -0.650659	 0.114018	 1
1463623515.667	 10	 0.306327	 0.536016	 0.116644	 2.678182	 -1.431311	 -0.188588	 -0.080843	 0.745419	 -0.652059	 0.112404	 1
1463623515.677	 10	 0.163931	 0.195163	 0.137093	 2.666073	 -1.432435	 -0.203675	 -0.079305	 0.744997	 -0.652822	 0.111869	 1
1463623515.687	 10	 0.088727	 -0.117489	 0.113524	 2.654390	 -1.432804	 -0.215026	 -0.078937	 0.744677	 -0.653128	 0.112471	 1
1463623515.697	 10	 0.049201	 -0.312357	 0.066227	 2.644800	 -1.432932	 -0.221979	 -0.079497	 0.744371	 -0.653186	 0.113755	 1
1463623515.707	 10	 0.002586	 -0.425260	 0.024025	 2.647628	 -1.430142	 -0.215256	 -0.080724	 0.745117	 -0.651925	 0.115230	 1
1463623515.717	 10	 -0.047728	 -0.432780	 -0.006514	 2.644419	 -1.429817	 -0.214068	 -0.082171	 0.744982	 -0.651610	 0.116851	 1
1463623515.727	 10	 -0.070744	 -0.335916	 -0.005412	 2.643530	 -1.429267	 -0.211268	 -0.083435	 0.744982	 -0.651213	 0.118160	 1
1463623515.737	 10	 -0.068942	 -0.202775	 0.021389	 2.642642	 -1.428583	 -0.209773	 -0.084194	 0.745076	 -0.650844	 0.119059	 1
1463623515.747	 10	 -0.055485	 -0.100360	 0.068043	 2.652851	 -1.426728	 -0.198490	 -0.084849	 0.745776	 -0.649942	 0.119140	 1
1463623515.757	 10	 -0.026305	 -0.054438	 0.105518	 2.647447	 -1.425965	 -0.203336	 -0.084704	 0.745892	 -0.649730	 0.119669	 1
1463623515.767	 10	 0.000218	 -0.095924	 0.115558	 2.639829	 -1.425373	 -0.210217	 -0.084538	 0.745907	 -0.649610	 0.120345	 1
1463623515.777	 10	 -0.000433	 -0.207825	 0.084681	 2.632256	 -1.424938	 -0.216131	 -0.084736	 0.745833	 -0.649492	 0.121300	 1
1463623515.787	 10	 -0.019586	 -0.354124	 -0.002860	 2.625788	 -1.427832	 -0.219369	 -0.086007	 0.744697	 -0.650439	 0.122305	 1
1463623515.797	 10	 0.019118	 -0.440015	 -0.097783	 2.625673	 -1.428224	 -0.215209	 -0.087644	 0.744390	 -0.650317	 0.123652	 1
1463623515.807	 10	 0.056202	 -0.379446	 -0.237157	 2.632003	 -1.429639	 -0.204696	 -0.089679	 0.743885	 -0.650447	 0.124545	 1
1463623515.817	 10	 0.038177	 -0.237880	 -0.376364	 2.649205	 -1.431698	 -0.184586	 -0.091816	 0.743411	 -0.650709	 0.124450	 1
1463623515.827	 10	 -0.024684	 -0.178458	 -0.421091	 2.674157	 -1.433548	 -0.157491	 -0.093982	 0.743127	 -0.650850	 0.123792	 1
1463623515.837	 10	 -0.058525	 -0.137728	 -0.391642	 2.700578	 -1.434824	 -0.129312	 -0.095991	 0.743019	 -0.650826	 0.123018	 1
1463623515.847	 10	 -0.030300	 -0.066291	 -0.356053	 2.725292	 -1.435970	 -0.103496	 -0.097652	 0.742922	 -0.650857	 0.122133	 1
1463623515.857	 10	 0.028980	 0.024213	 -0.317325	 2.728000	 -1.436559	 -0.100437	 -0.097962	 0.742751	 -0.651017	 0.122072	 1
1463623515.867	 10	 0.087184	 0.097850	 -0.259595	 2.745575	 -1.438307	 -0.083524	 -0.098677	 0.742430	 -0.651492	 0.120909	 1
1463623515.877	 10	 0.140043	 0.153560	 -0.182802	 2.757472	 -1.440258	 -0.072943	 -0.098893	 0.741998	 -0.652157	 0.119790	 1
1463623515.887	 10	 0.171466	 0.187020	 -0.102832	 2.763266	 -1.442254	 -0.068919	 -0.098660	 0.741504	 -0.652935	 0.118803	 1
1463623515.897	 10	 0.161179	 0.205602	 -0.035392	 2.734784	 -1.445390	 -0.099179	 -0.097032	 0.740284	 -0.654487	 0.119213	 1
1463623515.907	 10	 0.119962	 0.257069	 0.004879	 2.733177	 -1.446612	 -0.103216	 -0.096176	 0.739993	 -0.655093	 0.118381	 1
1463623515.917	 10	 0.032351	 0.504774	 -0.046407	 2.737464	 -1.447235	 -0.103190	 -0.094839	 0.740044	 -0.655523	 0.116750	 1
1463623515.927	 10	 -0.024944	 0.889210	 -0.151039	 2.755402	 -1.447559	 -0.093116	 -0.092716	 0.740500	 -0.655902	 0.113387	 1
1463623515.937	 10	 0.017187	 1.250483	 -0.182121	 2.767705	 -1.446974	 -0.092232	 -0.088957	 0.741332	 -0.656198	 0.109166	 1
1463623515.947	 10	 0.120343	 1.560262	 -0.103402	 2.789738	 -1.448291	 -0.085031	 -0.084500	 0.741765	 -0.657253	 0.103261	 1
1463623515.957	 10	 0.221045	 1.739765	 0.049796	 2.800596	 -1.450139	 -0.091281	 -0.078756	 0.741967	 -0.658685	 0.097042	 1
1463623515.967	 10	 0.265190	 1.673913	 0.226781	 2.796133	 -1.451957	 -0.112972	 -0.072326	 0.741988	 -0.660202	 0.091408	 1
1463623515.977	 10	 0.259008	 1.398225	 0.341503	 2.777796	 -1.453350	 -0.146291	 -0.066146	 0.741875	 -0.661561	 0.087086	 1
1463623515.987	 10	 0.236488	 1.085078	 0.417652	 2.750318	 -1.454140	 -0.185629	 -0.060729	 0.741694	 -0.662658	 0.084181	 1
1463623515.997	 10	 0.182231	 0.845290	 0.476641	 2.716195	 -1.454121	 -0.229061	 -0.055935	 0.741545	 -0.663465	 0.082438	 1
1463623516.007	 10	 0.091851	 0.681823	 0.485499	 2.681605	 -1.453074	 -0.271127	 -0.051688	 0.741586	 -0.663889	 0.081427	 1
1463623516.017	 10	 -0.005180	 0.534800	 0.412503	 2.655162	 -1.451213	 -0.303532	 -0.048200	 0.741894	 -0.663893	 0.080718	 1
1463623516.027	 10	 -0.089544	 0.388539	 0.303169	 2.638191	 -1.449022	 -0.324906	 -0.045592	 0.742377	 -0.663598	 0.080222	 1
1463623516.037	 10	 -0.142809	 0.246680	 0.226644	 2.629004	 -1.446694	 -0.336997	 -0.043810	 0.742979	 -0.663076	 0.079953	 1
1463623516.047	 10	 -0.164941	 0.113499	 0.186164	 2.623338	 -1.444335	 -0.344184	 -0.042667	 0.743613	 -0.662432	 0.080018	 1
1463623516.057	 10	 -0.168847	 -0.018463	 0.172146	 2.643586	 -1.441909	 -0.324335	 -0.042998	 0.744722	 -0.661238	 0.079398	 1
1463623516.067	 10	 -0.163073	 -0.129289	 0.145486	 2.638263	 -1.439728	 -0.328646	 -0.042837	 0.745257	 -0.660542	 0.080261	 1
1463623516.077	 10	 -0.157112	 -0.213415	 0.133993	 2.633252	 -1.437695	 -0.331743	 -0.043042	 0.745729	 -0.659857	 0.081394	 1
1463623516.087	 10	 -0.159349	 -0.242066	 0.142272	 2.627517	 -1.435615	 -0.335124	 -0.043366	 0.746187	 -0.659153	 0.082714	 1
1463623516.097	 10	 -0.147583	 -0.228343	 0.132706	 2.622146	 -1.433627	 -0.338177	 -0.043702	 0.746620	 -0.658478	 0.083999	 1
1463623516.107	 10	 -0.113054	 -0.219319	 0.217750	 2.612617	 -1.431625	 -0.345582	 -0.043772	 0.746971	 -0.657893	 0.085412	 1
1463623516.117	 10	 -0.085947	 -0.237602	 0.347367	 2.594218	 -1.429200	 -0.361801	 -0.043389	 0.747241	 -0.657361	 0.087315	 1
1463623516.127	 10	 -0.060216	 -0.231135	 0.369584	 2.572452	 -1.426657	 -0.381424	 -0.042799	 0.747440	 -0.656894	 0.089397	 1
1463623516.137	 10	 -0.020853	 -0.205110	 0.307669	 2.552895	 -1.424614	 -0.399054	 -0.042292	 0.747517	 -0.656584	 0.091248	 1
1463623516.147	 10	 0.000289	 -0.171793	 0.217205	 2.537708	 -1.423229	 -0.412585	 -0.041981	 0.747497	 -0.656422	 0.092714	 1
1463623516.157	 10	 0.004242	 -0.150233	 0.111861	 2.528416	 -1.422484	 -0.420421	 -0.041972	 0.747438	 -0.656344	 0.093742	 1
1463623516.167	 10	 -0.008822	 -0.153826	 0.051193	 2.523729	 -1.422093	 -0.423627	 -0.042243	 0.747394	 -0.656267	 0.094509	 1
1463623516.177	 10	 -0.025727	 -0.177722	 0.122524	 2.517677	 -1.421375	 -0.428017	 -0.042459	 0.747400	 -0.656109	 0.095455	 1
1463623516.187	 10	 -0.060419	 -0.206194	 0.288820	 2.504591	 -1.419511	 -0.439235	 -0.042221	 0.747525	 -0.655756	 0.096995	 1
1463623516.197	 10	 -0.100400	 -0.190278	 0.414010	 2.486041	 -1.416448	 -0.455996	 -0.041464	 0.747807	 -0.655184	 0.098990	 1
1463623516.207	 10	 -0.114771	 -0.101679	 0.452262	 2.466856	 -1.412808	 -0.474134	 -0.040265	 0.748202	 -0.654516	 0.100903	 1
1463623516.217	 10	 -0.107857	 0.017332	 0.439454	 2.449603	 -1.409153	 -0.491489	 -0.038694	 0.748641	 -0.653879	 0.102382	 1
1463623516.227	 10	 -0.086237	 0.091586	 0.420773	 2.434301	 -1.405711	 -0.507781	 -0.036901	 0.749064	 -0.653328	 0.103461	 1
1463623516.237	 10	 -0.057425	 0.108371	 0.400429	 2.419647	 -1.402551	 -0.523719	 -0.035064	 0.749406	 -0.652891	 0.104380	 1
1463623516.247	 10	 -0.020137	 0.127128	 0.361911	 2.405741	 -1.399849	 -0.539053	 -0.033286	 0.749628	 -0.652607	 0.105140	 1
1463623516.257	 10	 0.008611	 0.149069	 0.319235	 2.393258	 -1.397657	 -0.553204	 -0.031585	 0.749751	 -0.652467	 0.105659	 1
1463623516.267	 10	 0.017013	 0.117164	 0.323128	 2.380579	 -1.395575	 -0.567375	 -0.029954	 0.749814	 -0.652378	 0.106231	 1
1463623516.277	 10	 0.000688	 0.056529	 0.315245	 2.368243	 -1.393408	 -0.580647	 -0.028520	 0.749881	 -0.652240	 0.106995	 1
1463623516.287	 10	 -0.021086	 -0.012731	 0.289212	 2.357210	 -1.391201	 -0.591903	 -0.027401	 0.749979	 -0.652018	 0.107946	 1
1463623516.297	 10	 -0.019456	 -0.076920	 0.238510	 2.347717	 -1.389262	 -0.600939	 -0.026664	 0.750051	 -0.651793	 0.108991	 1
1463623516.307	 10	 0.012150	 -0.120989	 0.187734	 2.338957	 -1.387862	 -0.608710	 -0.026282	 0.750005	 -0.651681	 0.110057	 1
1463623516.317	 10	 0.050499	 -0.109628	 0.156598	 2.330047	 -1.386967	 -0.616593	 -0.026022	 0.749826	 -0.651733	 0.111032	 1
1463623516.327	 10	 0.075107	 -0.064242	 0.118439	 2.321871	 -1.386510	 -0.624138	 -0.025751	 0.749575	 -0.651911	 0.111742	 1
1463623516.337	 10	 0.085692	 -0.038069	 0.064199	 2.321442	 -1.388458	 -0.624359	 -0.026267	 0.749102	 -0.652495	 0.111384	 1
1463623516.347	 10	 0.092883	 -0.051250	 0.009660	 2.316596	 -1.388930	 -0.628820	 -0.026289	 0.748781	 -0.652820	 0.111634	 1
1463623516.357	 10	 0.090497	 -0.103371	 0.008130	 2.311791	 -1.389509	 -0.632806	 -0.026504	 0.748431	 -0.653150	 0.111997	 1
1463623516.367	 10	 0.077372	 -0.171399	 0.008677	 2.306626	 -1.389982	 -0.636466	 -0.026935	 0.748081	 -0.653425	 0.112624	 1
1463623516.377	 10	 0.069694	 -0.204456	 -0.005399	 2.296336	 -1.389698	 -0.644734	 -0.027137	 0.747676	 -0.653671	 0.113837	 1
1463623516.387	 10	 0.064252	 -0.204634	 -0.031997	 2.292500	 -1.390318	 -0.646532	 -0.027869	 0.747341	 -0.653901	 0.114536	 1
1463623516.397	 10	 0.062111	 -0.190931	 -0.049969	 2.289674	 -1.391083	 -0.647438	 -0.028641	 0.747018	 -0.654135	 0.115115	 1
1463623516.407	 10	 0.061008	 -0.199429	 -0.048972	 2.286990	 -1.391861	 -0.648171	 -0.029434	 0.746698	 -0.654363	 0.115693	 1
1463623516.417	 10	 0.062011	 -0.221716	 -0.040630	 2.274976	 -1.391373	 -0.657908	 -0.029612	 0.746252	 -0.654612	 0.117107	 1
1463623516.427	 10	 0.066175	 -0.252498	 -0.030295	 2.270921	 -1.392044	 -0.659550	 -0.030493	 0.745889	 -0.654839	 0.117921	 1
1463623516.437	 10	 0.069164	 -0.297182	 -0.030737	 2.266229	 -1.392708	 -0.661423	 -0.031496	 0.745492	 -0.655067	 0.118897	 1
1463623516.447	 10	 0.075204	 -0.365345	 -0.041016	 2.260985	 -1.393469	 -0.663228	 -0.032730	 0.745040	 -0.655307	 0.120075	 1
1463623516.457	 10	 0.094829	 -0.486835	 -0.064670	 2.244231	 -1.393704	 -0.675332	 -0.033774	 0.744174	 -0.655828	 0.122289	 1
1463623516.467	 10	 0.154660	 -0.751391	 -0.001575	 2.232348	 -1.394753	 -0.680537	 -0.036003	 0.743304	 -0.656234	 0.124741	 1
1463623516.477	 10	 0.230649	 -0.995686	 0.075422	 2.211407	 -1.395527	 -0.692229	 -0.038734	 0.742031	 -0.656796	 0.128486	 1
1463623516.487	 10	 0.317470	 -1.134271	 0.066982	 2.184390	 -1.396699	 -0.708467	 -0.041901	 0.740348	 -0.657630	 0.132864	 1
1463623516.497	 10	 0.356666	 -1.171818	 0.038579	 2.155199	 -1.398410	 -0.726221	 -0.045400	 0.738415	 -0.658644	 0.137370	 1
1463623516.507	 10	 0.322993	 -1.037987	 -0.000382	 2.127748	 -1.400151	 -0.743113	 -0.048694	 0.736554	 -0.659625	 0.141465	 1
1463623516.517	 10	 0.224863	 -0.781539	 -0.023785	 2.107273	 -1.401620	 -0.755251	 -0.051391	 0.735110	 -0.660351	 0.144597	 1
1463623516.527	 10	 0.097190	 -0.468504	 -0.029352	 2.096119	 -1.402528	 -0.761010	 -0.053214	 0.734277	 -0.660705	 0.146546	 1
1463623516.537	 10	 -0.013561	 -0.187430	 -0.035365	 2.093992	 -1.402870	 -0.760603	 -0.054162	 0.734045	 -0.660702	 0.147368	 1
1463623516.547	 10	 -0.072604	 -0.016179	 -0.057769	 2.098067	 -1.403006	 -0.755950	 -0.054562	 0.734193	 -0.660504	 0.147372	 1
1463623516.557	 10	 -0.099153	 0.030533	 -0.080550	 2.105462	 -1.403188	 -0.748716	 -0.054827	 0.734505	 -0.660219	 0.146996	 1
1463623516.567	 10	 -0.085444	 -0.010930	 -0.072530	 2.112382	 -1.403372	 -0.741722	 -0.055164	 0.734785	 -0.659942	 0.146713	 1
1463623516.577	 10	 -0.049461	 -0.086451	 -0.058625	 2.116657	 -1.403600	 -0.736720	 -0.055654	 0.734916	 -0.659751	 0.146731	 1
1463623516.587	 10	 -0.019946	 -0.185269	 -0.033157	 2.117632	 -1.403801	 -0.734100	 -0.056350	 0.734875	 -0.659637	 0.147183	 1
1463623516.597	 10	 0.005381	 -0.256511	 -0.020186	 2.115925	 -1.403987	 -0.733387	 -0.057227	 0.734692	 -0.659583	 0.147996	 1
1463623516.607	 10	 0.022334	 -0.282090	 -0.020572	 2.112733	 -1.404256	 -0.733797	 -0.058203	 0.734414	 -0.659589	 0.148962	 1
1463623516.617	 10	 0.031945	 -0.272615	 -0.030159	 2.109259	 -1.404648	 -0.734513	 -0.059194	 0.734100	 -0.659640	 0.149896	 1
1463623516.627	 10	 0.025706	 -0.236447	 -0.031900	 2.106335	 -1.405065	 -0.734967	 -0.060108	 0.733812	 -0.659692	 0.150707	 1
1463623516.637	 10	 0.011007	 -0.187458	 -0.029184	 2.104488	 -1.405397	 -0.734810	 -0.060866	 0.733604	 -0.659708	 0.151347	 1
1463623516.647	 10	 -0.017579	 -0.141619	 -0.026377	 2.104299	 -1.405573	 -0.733458	 -0.061474	 0.733514	 -0.659644	 0.151815	 1
1463623516.657	 10	 -0.044018	 -0.101216	 -0.033205	 2.106111	 -1.405648	 -0.730493	 -0.061984	 0.733545	 -0.659494	 0.152109	 1
1463623516.667	 10	 -0.050241	 -0.065017	 -0.030682	 2.108912	 -1.405679	 -0.726896	 -0.062388	 0.733641	 -0.659315	 0.152259	 1
1463623516.677	 10	 -0.037312	 -0.047960	 -0.019979	 2.111234	 -1.405655	 -0.724035	 -0.062666	 0.733733	 -0.659164	 0.152356	 1
1463623516.687	 10	 -0.013845	 -0.061757	 -0.006456	 2.111968	 -1.405635	 -0.722708	 -0.062906	 0.733751	 -0.659081	 0.152530	 1
1463623516.697	 10	 0.004284	 -0.077651	 0.009224	 2.111066	 -1.405588	 -0.722884	 -0.063125	 0.733697	 -0.659053	 0.152815	 1
1463623516.707	 10	 0.014940	 -0.092474	 0.022848	 2.108880	 -1.405487	 -0.724194	 -0.063337	 0.733591	 -0.659059	 0.153212	 1
1463623516.717	 10	 0.022463	 -0.089236	 0.032405	 2.105912	 -1.405339	 -0.726277	 -0.063510	 0.733458	 -0.659087	 0.153654	 1
1463623516.727	 10	 0.020428	 -0.070068	 0.034733	 2.103008	 -1.405154	 -0.728452	 -0.063619	 0.733340	 -0.659116	 0.154051	 1
1463623516.737	 10	 0.011959	 -0.054103	 0.032823	 2.100680	 -1.404934	 -0.730226	 -0.063674	 0.733260	 -0.659123	 0.154379	 1
1463623516.747	 10	 0.005615	 -0.038166	 0.027686	 2.099818	 -1.405656	 -0.730703	 -0.063984	 0.733068	 -0.659314	 0.154344	 1
1463623516.757	 10	 0.003486	 -0.031824	 0.021368	 2.098593	 -1.405471	 -0.731606	 -0.064006	 0.733038	 -0.659298	 0.154545	 1
1463623516.767	 10	 -0.001817	 -0.023321	 0.018284	 2.098321	 -1.406215	 -0.731639	 -0.064290	 0.732874	 -0.659479	 0.154434	 1
1463623516.777	 10	 0.001403	 -0.019091	 0.016155	 2.096943	 -1.406841	 -0.732819	 -0.064486	 0.732685	 -0.659683	 0.154382	 1
1463623516.787	 10	 0.006736	 -0.020179	 0.015027	 2.094585	 -1.407391	 -0.734975	 -0.064627	 0.732466	 -0.659910	 0.154386	 1
1463623516.797	 10	 0.012047	 -0.028690	 0.017027	 2.091638	 -1.407874	 -0.737648	 -0.064755	 0.732232	 -0.660142	 0.154453	 1
1463623516.807	 10	 0.014153	 -0.039302	 0.021169	 2.088466	 -1.408221	 -0.740448	 -0.064875	 0.732011	 -0.660342	 0.154596	 1
1463623516.817	 10	 0.017343	 -0.044615	 0.023217	 2.085854	 -1.408646	 -0.742638	 -0.065055	 0.731799	 -0.660532	 0.154713	 1
1463623516.827	 10	 0.017305	 -0.048908	 0.017843	 2.083567	 -1.409071	 -0.744463	 -0.065262	 0.731600	 -0.660703	 0.154832	 1
1463623516.837	 10	 0.016244	 -0.045737	 0.014679	 2.081549	 -1.409459	 -0.746029	 -0.065465	 0.731421	 -0.660855	 0.154947	 1
1463623516.847	 10	 0.014133	 -0.038307	 0.011565	 2.080453	 -1.409732	 -0.746747	 -0.065641	 0.731308	 -0.660941	 0.155036	 1
1463623516.857	 10	 0.010967	 -0.028748	 0.008479	 2.079360	 -1.410074	 -0.747538	 -0.065810	 0.731184	 -0.661051	 0.155081	 1
1463623516.867	 10	 0.012061	 -0.019208	 0.004292	 2.079618	 -1.410216	 -0.747103	 -0.065923	 0.731163	 -0.661061	 0.155091	 1
1463623516.877	 10	 0.008869	 -0.016014	 0.003281	 2.079990	 -1.410354	 -0.746585	 -0.066029	 0.731149	 -0.661067	 0.155089	 1
1463623516.887	 10	 0.005663	 -0.014956	 0.001183	 2.080768	 -1.410531	 -0.745676	 -0.066154	 0.731145	 -0.661065	 0.155057	 1
1463623516.897	 10	 0.004604	 -0.011769	 0.000154	 2.081777	 -1.410617	 -0.744554	 -0.066254	 0.731170	 -0.661033	 0.155036	 1
1463623516.907	 10	 0.001427	 -0.005384	 -0.000828	 2.083204	 -1.410731	 -0.743078	 -0.066354	 0.731210	 -0.660994	 0.154971	 1
1463623516.917	 10	 0.001434	 -0.005368	 0.001302	 2.083849	 -1.410804	 -0.742395	 -0.066411	 0.731223	 -0.660981	 0.154941	 1
1463623516.927	 10	 0.003530	 -0.012828	 0.000146	 2.083626	 -1.410931	 -0.742516	 -0.066477	 0.731186	 -0.661014	 0.154948	 1
1463623516.937	 10	 0.004551	 -0.025572	 0.003214	 2.082589	 -1.411157	 -0.743325	 -0.066587	 0.731089	 -0.661098	 0.154998	 1
1463623516.947	 10	 0.006635	 -0.039383	 0.006262	 2.081164	 -1.411376	 -0.744393	 -0.066729	 0.730973	 -0.661187	 0.155107	 1
1463623516.957	 10	 0.008744	 -0.047876	 0.009361	 2.079189	 -1.411465	 -0.745909	 -0.066853	 0.730853	 -0.661261	 0.155303	 1
1463623516.967	 10	 0.008726	 -0.053187	 0.010376	 2.077067	 -1.411597	 -0.747505	 -0.067009	 0.730716	 -0.661346	 0.155514	 1
1463623516.977	 10	 0.012985	 -0.056383	 0.011374	 2.075189	 -1.411692	 -0.748839	 -0.067169	 0.730597	 -0.661410	 0.155734	 1
1463623516.987	 10	 0.011910	 -0.059564	 0.012418	 2.072839	 -1.411792	 -0.750603	 -0.067330	 0.730454	 -0.661493	 0.155981	 1
1463623516.997	 10	 0.010845	 -0.058504	 0.011368	 2.071443	 -1.411996	 -0.751425	 -0.067550	 0.730335	 -0.661560	 0.156163	 1
1463623517.007	 10	 0.009823	 -0.041544	 0.003004	 2.071670	 -1.412229	 -0.750755	 -0.067785	 0.730286	 -0.661572	 0.156238	 1
1463623517.017	 10	 0.006620	 -0.039429	 -0.000152	 2.071773	 -1.412577	 -0.750281	 -0.068023	 0.730212	 -0.661623	 0.156262	 1
1463623517.027	 10	 0.008742	 -0.039458	 -0.003371	 2.071496	 -1.412861	 -0.750173	 -0.068234	 0.730133	 -0.661675	 0.156321	 1
1463623517.037	 10	 0.003410	 -0.039434	 -0.002262	 2.071924	 -1.413065	 -0.749354	 -0.068449	 0.730100	 -0.661675	 0.156380	 1
1463623517.047	 10	 -0.003995	 -0.026640	 -0.001016	 2.072190	 -1.413218	 -0.748793	 -0.068609	 0.730073	 -0.661678	 0.156427	 1
1463623517.057	 10	 -0.005029	 -0.019199	 -0.002005	 2.072182	 -1.413368	 -0.748587	 -0.068729	 0.730037	 -0.661698	 0.156457	 1
1463623517.067	 10	 -0.002888	 -0.018142	 -0.002016	 2.071835	 -1.413573	 -0.748745	 -0.068844	 0.729976	 -0.661748	 0.156475	 1
1463623517.077	 10	 -0.000751	 -0.018148	 -0.002036	 2.070987	 -1.413747	 -0.749400	 -0.068935	 0.729899	 -0.661813	 0.156520	 1
1463623517.087	 10	 0.001367	 -0.021354	 -0.003152	 2.070115	 -1.413948	 -0.750054	 -0.069041	 0.729816	 -0.661883	 0.156567	 1
1463623517.097	 10	 0.004571	 -0.021364	 -0.003182	 2.069238	 -1.414157	 -0.750707	 -0.069153	 0.729730	 -0.661955	 0.156613	 1
1463623517.107	 10	 0.003521	 -0.018169	 -0.003145	 2.068727	 -1.414397	 -0.751018	 -0.069276	 0.729656	 -0.662020	 0.156631	 1
1463623517.117	 10	 0.003514	 -0.017129	 -0.006335	 2.068593	 -1.414592	 -0.750982	 -0.069389	 0.729607	 -0.662059	 0.156638	 1
1463623517.127	 10	 0.004557	 -0.022450	 -0.006395	 2.068314	 -1.414821	 -0.751057	 -0.069519	 0.729545	 -0.662111	 0.156652	 1
1463623517.137	 10	 0.001313	 -0.035174	 -0.002222	 2.067156	 -1.414854	 -0.751877	 -0.069613	 0.729476	 -0.662143	 0.156794	 1
1463623517.147	 10	 -0.002959	 -0.041498	 0.004151	 2.066422	 -1.414866	 -0.752202	 -0.069741	 0.729428	 -0.662146	 0.156951	 1
1463623517.157	 10	 -0.005058	 -0.035102	 0.005294	 2.065888	 -1.414888	 -0.752358	 -0.069866	 0.729387	 -0.662145	 0.157088	 1
1463623517.167	 10	 -0.001817	 -0.024498	 0.002165	 2.065534	 -1.414994	 -0.752429	 -0.069988	 0.729342	 -0.662164	 0.157165	 1
1463623517.177	 10	 -0.001764	 -0.010693	 -0.000906	 2.065692	 -1.415083	 -0.752133	 -0.070069	 0.729327	 -0.662168	 0.157180	 1
1463623517.187	 10	 -0.003862	 -0.003241	 -0.000819	 2.065642	 -1.415123	 -0.752136	 -0.070096	 0.729316	 -0.662176	 0.157187	 1
1463623517.197	 10	 -0.002782	 -0.003221	 0.002370	 2.065640	 -1.415032	 -0.752108	 -0.070081	 0.729332	 -0.662152	 0.157222	 1
1463623517.207	 10	 -0.000665	 -0.009587	 0.005490	 2.065217	 -1.414990	 -0.752454	 -0.070083	 0.729319	 -0.662154	 0.157273	 1
1463623517.217	 10	 0.001446	 -0.012800	 0.003309	 2.064744	 -1.415014	 -0.752811	 -0.070116	 0.729290	 -0.662171	 0.157320	 1
1463623517.227	 10	 0.002496	 -0.013890	 0.000091	 2.064587	 -1.415119	 -0.752828	 -0.070191	 0.729258	 -0.662192	 0.157343	 1
1463623517.237	 10	 -0.000674	 -0.006442	 -0.000879	 2.064579	 -1.415223	 -0.752753	 -0.070251	 0.729235	 -0.662211	 0.157343	 1
1463623517.247	 10	 -0.001699	 0.004182	 -0.002904	 2.064880	 -1.415306	 -0.752471	 -0.070277	 0.729234	 -0.662220	 0.157303	 1
1463623517.257	 10	 -0.001675	 0.008445	 -0.001800	 2.065617	 -1.415379	 -0.751817	 -0.070293	 0.729255	 -0.662212	 0.157231	 1
1463623517.267	 10	 0.000451	 0.004207	 0.001338	 2.066289	 -1.415398	 -0.751215	 -0.070295	 0.729283	 -0.662193	 0.157180	 1
1463623517.277	 10	 0.004667	 -0.007498	 0.002258	 2.066326	 -1.415394	 -0.751148	 -0.070306	 0.729284	 -0.662188	 0.157190	 1
1463623517.287	 10	 0.004593	 -0.025557	 0.005286	 2.066282	 -1.415398	 -0.750996	 -0.070377	 0.729275	 -0.662176	 0.157255	 1
1463623517.297	 10	 0.001344	 -0.035120	 0.005225	 2.066158	 -1.415331	 -0.750799	 -0.070471	 0.729270	 -0.662140	 0.157384	 1
1463623517.307	 10	 -0.004005	 -0.036183	 0.003129	 2.066283	 -1.415375	 -0.750319	 -0.070618	 0.729255	 -0.662117	 0.157486	 1
1463623517.317	 10	 -0.007189	 -0.028759	 -0.001040	 2.067032	 -1.415447	 -0.749264	 -0.070775	 0.729263	 -0.662078	 0.157542	 1
1463623517.327	 10	 -0.011414	 -0.014957	 -0.006206	 2.068096	 -1.415553	 -0.748012	 -0.070909	 0.729283	 -0.662042	 0.157539	 1
1463623517.337	 10	 -0.010306	 -0.006450	 -0.006139	 2.069120	 -1.415686	 -0.746903	 -0.071012	 0.729299	 -0.662024	 0.157497	 1
1463623517.347	 10	 -0.008135	 0.000989	 -0.006090	 2.069705	 -1.415804	 -0.746308	 -0.071069	 0.729301	 -0.662026	 0.157448	 1
1463623517.357	 10	 -0.007975	 0.037130	 -0.008954	 2.070596	 -1.415937	 -0.745663	 -0.071046	 0.729323	 -0.662040	 0.157300	 1
1463623517.367	 10	 -0.018656	 0.031875	 -0.004648	 2.072598	 -1.415922	 -0.744022	 -0.070978	 0.729425	 -0.661978	 0.157117	 1
1463623517.377	 10	 -0.019875	 0.001016	 -0.007056	 2.072865	 -1.415960	 -0.743814	 -0.070976	 0.729431	 -0.661981	 0.157078	 1
1463623517.387	 10	 -0.007111	 -0.012812	 -0.001965	 2.072127	 -1.415957	 -0.744406	 -0.071004	 0.729395	 -0.662000	 0.157152	 1
1463623517.397	 10	 -0.001740	 -0.007495	 0.000168	 2.071926	 -1.416015	 -0.744511	 -0.071048	 0.729372	 -0.662016	 0.157175	 1
1463623517.407	 10	 -0.001712	 -0.001121	 -0.000838	 2.071450	 -1.416075	 -0.744951	 -0.071062	 0.729339	 -0.662048	 0.157186	 1
1463623517.417	 10	 -0.000648	 -0.002188	 -0.000858	 2.071021	 -1.416156	 -0.745356	 -0.071079	 0.729304	 -0.662084	 0.157187	 1
1463623517.427	 10	 -0.000688	 -0.010697	 -0.000937	 2.070853	 -1.416165	 -0.745436	 -0.071108	 0.729292	 -0.662087	 0.157219	 1
1463623517.437	 10	 -0.007122	 -0.017060	 -0.000941	 2.071218	 -1.416160	 -0.744919	 -0.071175	 0.729303	 -0.662058	 0.157258	 1
1463623517.447	 10	 -0.011390	 -0.017047	 -0.000904	 2.071663	 -1.416168	 -0.744290	 -0.071259	 0.729314	 -0.662026	 0.157302	 1
1463623517.457	 10	 -0.008191	 -0.016009	 -0.003055	 2.071814	 -1.416239	 -0.743964	 -0.071348	 0.729301	 -0.662023	 0.157336	 1
1463623517.467	 10	 0.000373	 -0.010716	 -0.003082	 2.071657	 -1.416388	 -0.743983	 -0.071435	 0.729261	 -0.662055	 0.157346	 1
1463623517.477	 10	 0.001474	 -0.003282	 -0.004089	 2.071172	 -1.416534	 -0.744413	 -0.071480	 0.729211	 -0.662108	 0.157340	 1
1463623517.487	 10	 -0.001729	 -0.005384	 -0.001950	 2.071111	 -1.416594	 -0.744423	 -0.071513	 0.729195	 -0.662121	 0.157343	 1
1463623517.497	 10	 -0.006002	 -0.007491	 -0.000867	 2.071070	 -1.416637	 -0.744381	 -0.071554	 0.729182	 -0.662127	 0.157360	 1
1463623517.507	 10	 -0.004963	 -0.012821	 -0.001991	 2.070693	 -1.416667	 -0.744630	 -0.071597	 0.729155	 -0.662140	 0.157407	 1
1463623517.517	 10	 -0.002821	 -0.009652	 -0.004112	 2.070659	 -1.416712	 -0.744550	 -0.071650	 0.729141	 -0.662143	 0.157434	 1
1463623517.527	 10	 -0.002811	 -0.008581	 -0.003037	 2.070547	 -1.416754	 -0.744580	 -0.071688	 0.729126	 -0.662152	 0.157453	 1
1463623517.537	 10	 -0.002795	 -0.006446	 -0.001950	 2.070115	 -1.416717	 -0.744927	 -0.071694	 0.729111	 -0.662155	 0.157506	 1
1463623517.547	 10	 -0.002780	 -0.005367	 0.000194	 2.069514	 -1.416647	 -0.745462	 -0.071678	 0.729096	 -0.662158	 0.157567	 1
1463623517.557	 10	 -0.000634	 -0.008519	 0.006544	 2.068179	 -1.416474	 -0.746710	 -0.071617	 0.729068	 -0.662167	 0.157687	 1
1463623517.567	 10	 0.001485	 -0.013828	 0.008609	 2.067223	 -1.416403	 -0.747551	 -0.071606	 0.729037	 -0.662182	 0.157777	 1
1463623517.577	 10	 0.004640	 -0.027635	 0.012717	 2.065399	 -1.416294	 -0.749126	 -0.071605	 0.728970	 -0.662214	 0.157950	 1
1463623517.587	 10	 0.008827	 -0.048891	 0.016747	 2.063194	 -1.416246	 -0.750905	 -0.071673	 0.728868	 -0.662264	 0.158178	 1
1463623517.597	 10	 0.013120	 -0.044641	 0.017813	 2.061662	 -1.416210	 -0.751981	 -0.071778	 0.728792	 -0.662286	 0.158390	 1
1463623517.607	 10	 0.013074	 -0.059495	 0.023003	 2.058924	 -1.416230	 -0.754180	 -0.071890	 0.728651	 -0.662366	 0.158654	 1
1463623517.617	 10	 0.017234	 -0.080796	 0.020636	 2.056275	 -1.416222	 -0.756094	 -0.072067	 0.728510	 -0.662421	 0.158987	 1
1463623517.627	 10	 0.025729	 -0.091443	 0.022591	 2.053866	 -1.416286	 -0.757630	 -0.072324	 0.728362	 -0.662472	 0.159338	 1
1463623517.637	 10	 0.024669	 -0.086152	 0.018383	 2.051967	 -1.416359	 -0.758683	 -0.072590	 0.728235	 -0.662504	 0.159661	 1
1463623517.647	 10	 0.015065	 -0.076627	 0.007894	 2.051111	 -1.416421	 -0.758777	 -0.072858	 0.728159	 -0.662496	 0.159924	 1
1463623517.657	 10	 0.003374	 -0.061739	 0.002803	 2.051128	 -1.416456	 -0.758124	 -0.073100	 0.728130	 -0.662453	 0.160124	 1
1463623517.667	 10	 -0.005112	 -0.047908	 -0.000193	 2.051473	 -1.416489	 -0.757269	 -0.073306	 0.728120	 -0.662405	 0.160273	 1
1463623517.677	 10	 -0.010362	 -0.040484	 -0.001104	 2.051819	 -1.416485	 -0.756504	 -0.073469	 0.728121	 -0.662355	 0.160402	 1
1463623517.687	 10	 -0.009255	 -0.031978	 -0.001035	 2.052238	 -1.416453	 -0.755738	 -0.073600	 0.728132	 -0.662301	 0.160511	 1
1463623517.697	 10	 -0.007052	 -0.021317	 0.003308	 2.052172	 -1.416422	 -0.755558	 -0.073679	 0.728126	 -0.662277	 0.160604	 1
1463623517.707	 10	 -0.001675	 -0.011768	 0.002284	 2.052164	 -1.416438	 -0.755426	 -0.073734	 0.728117	 -0.662270	 0.160646	 1
1463623517.717	 10	 0.001567	 -0.003268	 0.002334	 2.051980	 -1.416477	 -0.755567	 -0.073755	 0.728101	 -0.662284	 0.160655	 1
1463623517.727	 10	 0.003712	 -0.000091	 0.001278	 2.052252	 -1.416539	 -0.755298	 -0.073780	 0.728101	 -0.662287	 0.160628	 1
1463623517.737	 10	 0.000539	 0.005245	 0.002420	 2.052630	 -1.416564	 -0.754969	 -0.073782	 0.728114	 -0.662281	 0.160593	 1
1463623517.747	 10	 -0.001586	 0.007378	 0.002457	 2.052897	 -1.416561	 -0.754774	 -0.073763	 0.728129	 -0.662274	 0.160561	 1
1463623517.757	 10	 -0.004787	 0.007388	 0.002484	 2.053417	 -1.416560	 -0.754329	 -0.073753	 0.728155	 -0.662257	 0.160519	 1
1463623517.767	 10	 -0.004803	 0.004197	 0.002454	 2.053994	 -1.416538	 -0.753792	 -0.073751	 0.728185	 -0.662230	 0.160493	 1
1463623517.777	 10	 -0.003735	 0.006306	 0.000332	 2.054555	 -1.416603	 -0.753284	 -0.073769	 0.728200	 -0.662226	 0.160439	 1
1463623517.787	 10	 -0.004801	 0.007365	 -0.000716	 2.055188	 -1.416640	 -0.752724	 -0.073774	 0.728223	 -0.662213	 0.160384	 1
1463623517.797	 10	 -0.005882	 0.007345	 -0.003905	 2.056002	 -1.416692	 -0.751988	 -0.073787	 0.728251	 -0.662197	 0.160316	 1
1463623517.807	 10	 -0.009083	 0.008411	 -0.004934	 2.056946	 -1.416713	 -0.751119	 -0.073797	 0.728291	 -0.662167	 0.160255	 1
1463623517.817	 10	 -0.012280	 0.008428	 -0.003841	 2.057758	 -1.416734	 -0.750382	 -0.073803	 0.728325	 -0.662143	 0.160197	 1
1463623517.827	 10	 -0.012289	 0.006300	 -0.003861	 2.058562	 -1.416748	 -0.749640	 -0.073810	 0.728359	 -0.662116	 0.160146	 1
1463623517.837	 10	 -0.008036	 0.000985	 -0.001816	 2.058894	 -1.416805	 -0.749318	 -0.073834	 0.728363	 -0.662117	 0.160116	 1
1463623517.847	 10	 -0.009123	 -0.004323	 -0.000791	 2.058961	 -1.416870	 -0.749202	 -0.073873	 0.728352	 -0.662126	 0.160112	 1
1463623517.857	 10	 -0.006996	 -0.005401	 -0.001886	 2.058821	 -1.416947	 -0.749270	 -0.073916	 0.728329	 -0.662144	 0.160120	 1
1463623517.867	 10	 -0.004880	 -0.008607	 -0.003001	 2.058638	 -1.417035	 -0.749362	 -0.073968	 0.728301	 -0.662166	 0.160132	 1
1463623517.877	 10	 -0.004913	 -0.014996	 -0.004128	 2.058603	 -1.417179	 -0.749261	 -0.074057	 0.728267	 -0.662192	 0.160138	 1
1463623517.887	 10	 -0.005993	 -0.017128	 -0.005204	 2.058712	 -1.417236	 -0.748979	 -0.074140	 0.728255	 -0.662187	 0.160176	 1
1463623517.897	 10	 -0.007054	 -0.013950	 -0.007298	 2.059245	 -1.417311	 -0.748288	 -0.074236	 0.728258	 -0.662169	 0.160190	 1
1463623517.907	 10	 -0.008101	 -0.009692	 -0.007250	 2.059896	 -1.417375	 -0.747524	 -0.074317	 0.728270	 -0.662148	 0.160189	 1
1463623517.917	 10	 -0.009141	 -0.006474	 -0.004014	 2.060937	 -1.417383	 -0.746410	 -0.074381	 0.728310	 -0.662099	 0.160176	 1
1463623517.927	 10	 -0.004875	 -0.009655	 -0.000883	 2.061458	 -1.417358	 -0.745799	 -0.074423	 0.728334	 -0.662064	 0.160195	 1
1463623517.937	 10	 0.000431	 -0.019213	 0.003244	 2.061676	 -1.417326	 -0.745420	 -0.074480	 0.728343	 -0.662034	 0.160251	 1
1463623517.947	 10	 0.000403	 -0.027699	 0.006363	 2.061355	 -1.417274	 -0.745490	 -0.074547	 0.728330	 -0.662015	 0.160358	 1
1463623517.957	 10	 -0.001761	 -0.034075	 0.006322	 2.060800	 -1.417238	 -0.745721	 -0.074636	 0.728301	 -0.662004	 0.160494	 1
1463623517.967	 10	 -0.008182	 -0.036199	 0.004225	 2.060420	 -1.417263	 -0.745734	 -0.074764	 0.728266	 -0.661997	 0.160621	 1
1463623517.977	 10	 -0.006035	 -0.033022	 0.003171	 2.059853	 -1.417230	 -0.745955	 -0.074862	 0.728235	 -0.661985	 0.160764	 1
1463623517.987	 10	 0.004556	 -0.052185	 0.005033	 2.058205	 -1.417189	 -0.747141	 -0.074964	 0.728155	 -0.662009	 0.160982	 1
1463623517.997	 10	 0.022504	 -0.096883	 0.008727	 2.054458	 -1.417144	 -0.750040	 -0.075136	 0.727970	 -0.662091	 0.161399	 1
1463623518.007	 10	 0.035077	 -0.149019	 0.011332	 2.049678	 -1.417143	 -0.753473	 -0.075469	 0.727713	 -0.662188	 0.162002	 1
1463623518.017	 10	 0.027571	 -0.163826	 0.019786	 2.045458	 -1.417115	 -0.756064	 -0.075916	 0.727474	 -0.662232	 0.162687	 1
1463623518.027	 10	 0.014934	 -0.128678	 0.021287	 2.043545	 -1.417036	 -0.756628	 -0.076321	 0.727354	 -0.662187	 0.163218	 1
1463623518.037	 10	 0.005462	 -0.091498	 0.011053	 2.043273	 -1.417101	 -0.755929	 -0.076684	 0.727293	 -0.662135	 0.163531	 1
1463623518.047	 10	 0.001281	 -0.059691	 -0.004606	 2.043637	 -1.417347	 -0.754908	 -0.077006	 0.727238	 -0.662124	 0.163668	 1
1463623518.057	 10	 -0.002928	 -0.038482	 -0.015032	 2.043916	 -1.417659	 -0.754197	 -0.077261	 0.727176	 -0.662151	 0.163716	 1
1463623518.067	 10	 -0.010368	 -0.033134	 -0.013853	 2.044340	 -1.417794	 -0.753424	 -0.077440	 0.727155	 -0.662136	 0.163780	 1
1463623518.077	 10	 -0.013550	 -0.036253	 -0.005326	 2.044454	 -1.417728	 -0.752942	 -0.077559	 0.727158	 -0.662085	 0.163916	 1
1463623518.087	 10	 -0.013542	 -0.044678	 0.006321	 2.043805	 -1.417557	 -0.753156	 -0.077647	 0.727145	 -0.662037	 0.164129	 1
1463623518.097	 10	 -0.012485	 -0.053137	 0.013695	 2.043066	 -1.417313	 -0.753373	 -0.077743	 0.727138	 -0.661968	 0.164393	 1
1463623518.107	 10	 -0.008228	 -0.058445	 0.016807	 2.042084	 -1.417103	 -0.753782	 -0.077859	 0.727112	 -0.661913	 0.164673	 1
1463623518.117	 10	 -0.014653	 -0.060577	 0.013646	 2.041691	 -1.416928	 -0.753564	 -0.078018	 0.727103	 -0.661838	 0.164937	 1
1463623518.127	 10	 -0.018927	 -0.056356	 0.007327	 2.042063	 -1.416829	 -0.752606	 -0.078215	 0.727115	 -0.661750	 0.165146	 1
1463623518.137	 10	 -0.022112	 -0.044715	 -0.002132	 2.043498	 -1.416832	 -0.750685	 -0.078439	 0.727158	 -0.661648	 0.165259	 1
1463623518.147	 10	 -0.022063	 -0.029862	 -0.007324	 2.044942	 -1.416872	 -0.748898	 -0.078623	 0.727200	 -0.661567	 0.165314	 1
1463623518.157	 10	 -0.020943	 -0.017117	 -0.009348	 2.046067	 -1.416890	 -0.747550	 -0.078746	 0.727236	 -0.661504	 0.165346	 1
1463623518.167	 10	 -0.017681	 -0.006475	 -0.007145	 2.046898	 -1.416906	 -0.746607	 -0.078818	 0.727265	 -0.661462	 0.165351	 1
1463623518.177	 10	 -0.013386	 -0.001169	 -0.007132	 2.047333	 -1.416882	 -0.746137	 -0.078839	 0.727287	 -0.661435	 0.165355	 1
1463623518.187	 10	 -0.010153	 0.005203	 -0.007100	 2.047523	 -1.416899	 -0.745964	 -0.078844	 0.727292	 -0.661432	 0.165338	 1
1463623518.197	 10	 -0.010094	 0.013743	 -0.002758	 2.047865	 -1.416867	 -0.745734	 -0.078805	 0.727318	 -0.661419	 0.165299	 1
1463623518.207	 10	 -0.016465	 0.021199	 -0.003697	 2.048485	 -1.416795	 -0.745293	 -0.078740	 0.727365	 -0.661390	 0.165239	 1
1463623518.217	 10	 -0.016398	 0.029692	 -0.006794	 2.049956	 -1.416799	 -0.744089	 -0.078693	 0.727438	 -0.661349	 0.165101	 1
1463623518.227	 10	 -0.017439	 0.037125	 -0.008849	 2.052027	 -1.416843	 -0.742365	 -0.078647	 0.727533	 -0.661299	 0.164906	 1
1463623518.237	 10	 -0.023820	 0.045623	 -0.012978	 2.054842	 -1.416862	 -0.739969	 -0.078594	 0.727667	 -0.661217	 0.164669	 1
1463623518.247	 10	 -0.027050	 0.048746	 -0.023580	 2.058571	 -1.416950	 -0.736721	 -0.078568	 0.727830	 -0.661118	 0.164361	 1
1463623518.257	 10	 -0.049166	 0.106298	 -0.016457	 2.063792	 -1.416756	 -0.732278	 -0.078405	 0.728121	 -0.660911	 0.163982	 1
1463623518.267	 10	 -0.122478	 0.154562	 0.009148	 2.072326	 -1.415739	 -0.725188	 -0.077882	 0.728738	 -0.660414	 0.163493	 1
1463623518.277	 10	 -0.200430	 0.130447	 0.025587	 2.083545	 -1.414810	 -0.715243	 -0.077545	 0.729447	 -0.659807	 0.162936	 1
1463623518.287	 10	 -0.177158	 0.123678	 -0.018383	 2.096647	 -1.414360	 -0.703234	 -0.077483	 0.730136	 -0.659225	 0.162235	 1
1463623518.297	 10	 -0.094212	 0.103920	 -0.069382	 2.106234	 -1.414483	 -0.694678	 -0.077481	 0.730555	 -0.658936	 0.161521	 1
1463623518.307	 10	 -0.035703	 0.042244	 -0.043822	 2.109612	 -1.414864	 -0.691820	 -0.077517	 0.730640	 -0.658934	 0.161129	 1
1463623518.317	 10	 -0.016747	 -0.044749	 -0.005361	 2.108738	 -1.414952	 -0.692429	 -0.077606	 0.730576	 -0.658971	 0.161224	 1
1463623518.327	 10	 -0.008480	 -0.109598	 0.002491	 2.106023	 -1.414951	 -0.694147	 -0.077872	 0.730424	 -0.659004	 0.161650	 1
1463623518.337	 10	 0.001045	 -0.122429	 -0.003038	 2.103718	 -1.414948	 -0.695213	 -0.078242	 0.730279	 -0.659000	 0.162141	 1
1463623518.347	 11	 0.005415	 -0.100113	 -0.003934	 2.102345	 -1.415001	 -0.695516	 -0.078598	 0.730169	 -0.658984	 0.162529	 1
1463623518.367	 11	 -0.011230	 -0.009650	 -0.002951	 2.103579	 -1.415215	 -0.693335	 -0.079047	 0.730140	 -0.658910	 0.162740	 1
1463623518.377	 11	 -0.009986	 0.030876	 -0.005790	 2.104171	 -1.415147	 -0.692952	 -0.078973	 0.730187	 -0.658885	 0.162668	 1
1463623518.387	 11	 -0.000262	 0.053207	 -0.002469	 2.104468	 -1.415148	 -0.693135	 -0.078808	 0.730218	 -0.658912	 0.162499	 1
1463623518.397	 11	 0.006152	 0.050043	 0.003841	 2.104171	 -1.415118	 -0.693936	 -0.078605	 0.730232	 -0.658957	 0.162352	 1
1463623518.407	 11	 0.013542	 0.033002	 0.003618	 2.103363	 -1.415155	 -0.695121	 -0.078449	 0.730205	 -0.659031	 0.162247	 1
1463623518.417	 11	 0.017742	 0.022322	 -0.000780	 2.102773	 -1.415213	 -0.695969	 -0.078350	 0.730179	 -0.659092	 0.162167	 1
1463623518.427	 11	 0.019876	 0.022315	 -0.000799	 2.102146	 -1.415324	 -0.696816	 -0.078277	 0.730139	 -0.659164	 0.162087	 1
1463623518.437	 11	 0.015598	 0.021257	 -0.001839	 2.101869	 -1.415472	 -0.697331	 -0.078221	 0.730107	 -0.659233	 0.161980	 1
1463623518.447	 11	 0.009195	 0.021276	 -0.001785	 2.102000	 -1.415653	 -0.697425	 -0.078193	 0.730085	 -0.659292	 0.161853	 1
1463623518.457	 11	 0.009141	 0.011687	 -0.004006	 2.102031	 -1.415838	 -0.697546	 -0.078190	 0.730055	 -0.659350	 0.161753	 1
1463623518.467	 11	 0.012279	 -0.001094	 -0.005220	 2.101569	 -1.416085	 -0.698032	 -0.078232	 0.729987	 -0.659434	 0.161696	 1
1463623518.477	 11	 0.017553	 -0.017042	 -0.002218	 2.100144	 -1.416287	 -0.699322	 -0.078287	 0.729882	 -0.659534	 0.161737	 1
1463623518.487	 11	 0.022865	 -0.021321	 -0.003370	 2.098362	 -1.416465	 -0.700905	 -0.078346	 0.729764	 -0.659637	 0.161818	 1
1463623518.497	 11	 0.019668	 -0.021304	 -0.002276	 2.096888	 -1.416649	 -0.702176	 -0.078418	 0.729658	 -0.659729	 0.161888	 1
1463623518.507	 11	 0.009033	 -0.013826	 -0.002114	 2.095905	 -1.416758	 -0.703004	 -0.078471	 0.729589	 -0.659785	 0.161945	 1
1463623518.517	 11	 0.001635	 0.002144	 -0.002967	 2.095765	 -1.416775	 -0.703119	 -0.078480	 0.729579	 -0.659793	 0.161953	 1
1463623518.527	 11	 -0.005794	 0.012981	 -0.002818	 2.095869	 -1.416786	 -0.703115	 -0.078450	 0.729585	 -0.659800	 0.161913	 1
1463623518.537	 11	 -0.003644	 0.016165	 -0.002807	 2.096101	 -1.416846	 -0.703033	 -0.078419	 0.729589	 -0.659817	 0.161840	 1
1463623518.547	 11	 0.001663	 0.010823	 -0.003969	 2.095852	 -1.416903	 -0.703399	 -0.078384	 0.729571	 -0.659852	 0.161795	 1
1463623518.557	 11	 0.005916	 0.005507	 -0.001924	 2.095292	 -1.417003	 -0.704022	 -0.078369	 0.729531	 -0.659905	 0.161767	 1
1463623518.567	 11	 0.006954	 -0.000878	 -0.001993	 2.094658	 -1.417105	 -0.704658	 -0.078375	 0.729484	 -0.659958	 0.161762	 1
1463623518.577	 11	 0.014263	 -0.039154	 0.002916	 2.093450	 -1.417197	 -0.705627	 -0.078445	 0.729406	 -0.660012	 0.161858	 1
1463623518.587	 11	 0.032387	 -0.049792	 0.010122	 2.089143	 -1.417248	 -0.709392	 -0.078508	 0.729194	 -0.660161	 0.162172	 1
1463623518.597	 11	 0.037826	 -0.027470	 0.010281	 2.087816	 -1.417334	 -0.710464	 -0.078579	 0.729112	 -0.660217	 0.162279	 1
1463623518.607	 11	 0.027180	 -0.023176	 0.011478	 2.085625	 -1.417446	 -0.712428	 -0.078617	 0.728989	 -0.660319	 0.162399	 1
1463623518.617	 11	 0.021878	 -0.011498	 0.006304	 2.084160	 -1.417451	 -0.713762	 -0.078616	 0.728922	 -0.660370	 0.162491	 1
1463623518.627	 11	 0.017606	 -0.009382	 0.003163	 2.083296	 -1.417545	 -0.714551	 -0.078640	 0.728864	 -0.660424	 0.162520	 1
1463623518.637	 11	 0.015440	 -0.012597	 -0.001111	 2.082408	 -1.417665	 -0.715341	 -0.078678	 0.728799	 -0.660483	 0.162551	 1
1463623518.647	 11	 0.012211	 -0.015802	 -0.004311	 2.081593	 -1.417828	 -0.716011	 -0.078749	 0.728728	 -0.660546	 0.162583	 1
1463623518.657	 11	 0.013267	 -0.018988	 -0.003284	 2.080570	 -1.417971	 -0.716848	 -0.078821	 0.728649	 -0.660610	 0.162640	 1
1463623518.667	 11	 0.018608	 -0.018997	 -0.002266	 2.079099	 -1.418159	 -0.718134	 -0.078891	 0.728544	 -0.660703	 0.162701	 1
1463623518.677	 11	 0.021815	 -0.018999	 -0.001228	 2.077226	 -1.418311	 -0.719825	 -0.078936	 0.728428	 -0.660804	 0.162784	 1
1463623518.687	 11	 0.020751	 -0.022156	 0.003015	 2.075186	 -1.418430	 -0.721662	 -0.078975	 0.728312	 -0.660903	 0.162888	 1
1463623518.697	 11	 0.010075	 -0.024998	 0.009450	 2.073572	 -1.418405	 -0.723037	 -0.079000	 0.728239	 -0.660945	 0.163028	 1
1463623518.707	 11	 0.002581	 -0.033455	 0.013700	 2.072415	 -1.418252	 -0.723892	 -0.079029	 0.728208	 -0.660931	 0.163208	 1
1463623518.717	 11	 -0.003880	 -0.049360	 0.017872	 2.071330	 -1.418097	 -0.724533	 -0.079110	 0.728175	 -0.660903	 0.163433	 1
1463623518.727	 11	 -0.000746	 -0.065309	 0.019827	 2.070075	 -1.417954	 -0.725182	 -0.079249	 0.728126	 -0.660871	 0.163714	 1
1463623518.737	 11	 0.007731	 -0.079155	 0.020690	 2.067891	 -1.417874	 -0.726607	 -0.079429	 0.728019	 -0.660881	 0.164060	 1
1463623518.747	 11	 0.013025	 -0.085576	 0.017386	 2.065172	 -1.417881	 -0.728489	 -0.079645	 0.727869	 -0.660929	 0.164426	 1
1463623518.757	 11	 0.006773	 -0.050487	 0.013503	 2.063412	 -1.417946	 -0.729643	 -0.079825	 0.727758	 -0.660970	 0.164667	 1
1463623518.777	 12	 -0.013469	 -0.029276	 -0.003179	 2.064151	 -1.418126	 -0.728224	 -0.080147	 0.727727	 -0.660927	 0.164818	 1
1463623518.787	 12	 0.000530	 0.006762	 -0.014692	 2.064994	 -1.418410	 -0.727340	 -0.080271	 0.727707	 -0.660957	 0.164726	 1
1463623518.797	 12	 0.002789	 0.038619	 -0.020811	 2.066719	 -1.418696	 -0.725934	 -0.080292	 0.727737	 -0.660981	 0.164486	 1
1463623518.807	 12	 -0.005666	 0.057775	 -0.022692	 2.068551	 -1.418950	 -0.724642	 -0.080228	 0.727787	 -0.661011	 0.164177	 1
1463623518.817	 12	 -0.014306	 0.034416	 -0.020702	 2.070521	 -1.419041	 -0.723096	 -0.080165	 0.727869	 -0.660985	 0.163946	 1
1463623518.827	 12	 -0.010246	 -0.014488	 -0.015862	 2.069929	 -1.419097	 -0.723625	 -0.080184	 0.727831	 -0.661019	 0.163972	 1
1463623518.837	 12	 0.005623	 -0.048535	 -0.010986	 2.067858	 -1.419158	 -0.725254	 -0.080293	 0.727715	 -0.661084	 0.164171	 1
1463623518.847	 12	 0.018382	 -0.061314	 -0.008017	 2.065108	 -1.419273	 -0.727407	 -0.080451	 0.727553	 -0.661179	 0.164428	 1
1463623518.857	 12	 0.020512	 -0.065231	 -0.003836	 2.061988	 -1.419394	 -0.729869	 -0.080621	 0.727372	 -0.661285	 0.164716	 1
1463623518.867	 12	 0.015244	 -0.056660	 0.002685	 2.059112	 -1.419479	 -0.732148	 -0.080767	 0.727211	 -0.661378	 0.164985	 1
1463623518.877	 12	 0.014285	 -0.034320	 0.002901	 2.056879	 -1.419557	 -0.733986	 -0.080860	 0.727086	 -0.661458	 0.165168	 1
1463623518.887	 12	 0.018687	 -0.003510	 -0.000049	 2.055834	 -1.419713	 -0.734929	 -0.080907	 0.727008	 -0.661532	 0.165193	 1
1463623518.897	 12	 0.021984	 0.020906	 -0.005181	 2.055082	 -1.419995	 -0.735851	 -0.080900	 0.726930	 -0.661646	 0.165084	 1
1463623518.907	 12	 0.022044	 0.038942	 -0.011409	 2.054806	 -1.420290	 -0.736487	 -0.080844	 0.726877	 -0.661759	 0.164894	 1
1463623518.917	 12	 0.018876	 0.048501	 -0.014490	 2.054462	 -1.420516	 -0.737301	 -0.080726	 0.726838	 -0.661866	 0.164687	 1
1463623518.927	 12	 0.015697	 0.049605	 -0.010188	 2.053802	 -1.420656	 -0.738467	 -0.080560	 0.726805	 -0.661970	 0.164503	 1
1463623518.937	 12	 0.016754	 0.040091	 -0.001758	 2.052430	 -1.420672	 -0.740267	 -0.080365	 0.726761	 -0.662066	 0.164401	 1
1463623518.947	 12	 0.023131	 0.028425	 0.005539	 2.050482	 -1.420663	 -0.742536	 -0.080183	 0.726694	 -0.662173	 0.164360	 1
1463623518.957	 12	 0.034822	 0.014593	 0.009573	 2.047752	 -1.420726	 -0.745459	 -0.080042	 0.726575	 -0.662319	 0.164367	 1
1463623518.967	 12	 0.044388	 0.008166	 0.007298	 2.044624	 -1.420907	 -0.748706	 -0.079951	 0.726414	 -0.662504	 0.164378	 1
1463623518.977	 12	 0.046518	 0.008152	 0.006213	 2.041907	 -1.421108	 -0.751545	 -0.079877	 0.726266	 -0.662676	 0.164368	 1
1463623518.987	 12	 0.043318	 0.009218	 0.005185	 2.039204	 -1.421234	 -0.754366	 -0.079785	 0.726133	 -0.662830	 0.164380	 1
1463623518.997	 12	 0.035918	 0.025187	 0.004333	 2.037422	 -1.421264	 -0.756383	 -0.079652	 0.726062	 -0.662932	 0.164350	 1
1463623519.007	 12	 0.030687	 0.040369	 0.004502	 2.036133	 -1.421273	 -0.758071	 -0.079469	 0.726021	 -0.663022	 0.164256	 1
1463623519.017	 12	 0.024334	 0.049969	 0.005713	 2.034943	 -1.421267	 -0.759753	 -0.079251	 0.725992	 -0.663111	 0.164132	 1
1463623519.027	 12	 0.023294	 0.053187	 0.008950	 2.033893	 -1.421243	 -0.761360	 -0.079009	 0.725974	 -0.663196	 0.163987	 1
1463623519.037	 12	 0.026474	 0.046810	 0.010994	 2.032483	 -1.421243	 -0.763284	 -0.078778	 0.725934	 -0.663298	 0.163861	 1
1463623519.047	 12	 0.024267	 0.029813	 0.012987	 2.031125	 -1.421243	 -0.765011	 -0.078602	 0.725890	 -0.663386	 0.163781	 1
1463623519.057	 12	 0.020976	 0.012789	 0.010726	 2.029731	 -1.421252	 -0.766594	 -0.078493	 0.725837	 -0.663463	 0.163759	 1
1463623519.067	 12	 0.015531	 -0.008484	 0.008443	 2.028492	 -1.421274	 -0.767830	 -0.078461	 0.725780	 -0.663520	 0.163792	 1
1463623519.077	 12	 0.017606	 -0.023359	 0.011484	 2.027259	 -1.421268	 -0.768869	 -0.078492	 0.725721	 -0.663556	 0.163897	 1
1463623519.087	 12	 0.019776	 -0.014863	 0.010477	 2.026170	 -1.421289	 -0.769805	 -0.078519	 0.725664	 -0.663595	 0.163975	 1
1463623519.097	 12	 0.015574	 0.000033	 0.009586	 2.025405	 -1.421283	 -0.770549	 -0.078502	 0.725632	 -0.663624	 0.164008	 1
1463623519.107	 12	 0.014572	 0.013864	 0.009723	 2.024797	 -1.421280	 -0.771281	 -0.078437	 0.725611	 -0.663660	 0.163986	 1
1463623519.117	 12	 0.011429	 0.024526	 0.011982	 2.024280	 -1.421199	 -0.772032	 -0.078312	 0.725613	 -0.663682	 0.163948	 1
1463623519.127	 12	 0.007164	 0.029818	 0.006739	 2.024279	 -1.421163	 -0.772338	 -0.078191	 0.725632	 -0.663699	 0.163856	 1
1463623519.137	 12	 0.005008	 0.024514	 0.007773	 2.024094	 -1.421197	 -0.772803	 -0.078094	 0.725628	 -0.663738	 0.163760	 1
1463623519.147	 12	 0.002795	 0.009613	 0.005522	 2.024017	 -1.421239	 -0.773018	 -0.078054	 0.725623	 -0.663762	 0.163704	 1
1463623519.157	 12	 0.001693	 0.002171	 0.005461	 2.023719	 -1.421250	 -0.773356	 -0.078033	 0.725610	 -0.663780	 0.163698	 1
1463623519.167	 12	 0.002728	 -0.001054	 0.001159	 2.023315	 -1.421331	 -0.773750	 -0.078047	 0.725577	 -0.663816	 0.163690	 1
1463623519.177	 12	 0.003853	 0.001344	 -0.000974	 2.022798	 -1.421462	 -0.774272	 -0.078068	 0.725532	 -0.663869	 0.163668	 1
1463623519.187	 12	 0.002789	 0.003458	 -0.003076	 2.021981	 -1.421569	 -0.775112	 -0.078066	 0.725479	 -0.663930	 0.163656	 1
1463623519.197	 12	 0.006001	 0.003464	 -0.000973	 2.020709	 -1.421702	 -0.776409	 -0.078056	 0.725401	 -0.664018	 0.163649	 1
1463623519.207	 12	 0.010293	 0.004546	 0.003263	 2.019220	 -1.421759	 -0.777935	 -0.078013	 0.725329	 -0.664098	 0.163666	 1
1463623519.217	 12	 0.017786	 0.005617	 0.007471	 2.017232	 -1.421781	 -0.779981	 -0.077938	 0.725242	 -0.664193	 0.163701	 1
1463623519.227	 12	 0.025279	 0.007745	 0.010623	 2.015279	 -1.421807	 -0.782028	 -0.077853	 0.725157	 -0.664290	 0.163722	 1
1463623519.237	 12	 0.027452	 0.014136	 0.012795	 2.013578	 -1.421861	 -0.783883	 -0.077760	 0.725080	 -0.664388	 0.163707	 1
1463623519.247	 12	 0.026371	 0.013061	 0.010662	 2.012140	 -1.421913	 -0.785489	 -0.077671	 0.725016	 -0.664476	 0.163680	 1
1463623519.257	 12	 0.019954	 0.012001	 0.008576	 2.011120	 -1.421946	 -0.786652	 -0.077598	 0.724972	 -0.664539	 0.163654	 1
1463623519.267	 12	 0.010327	 0.010935	 0.004386	 2.010887	 -1.422000	 -0.787017	 -0.077559	 0.724957	 -0.664572	 0.163602	 1
1463623519.277	 12	 0.003912	 0.011987	 0.000188	 2.011085	 -1.422061	 -0.786937	 -0.077540	 0.724959	 -0.664587	 0.163540	 1
1463623519.287	 12	 -0.000358	 0.016216	 -0.005065	 2.011639	 -1.422135	 -0.786537	 -0.077523	 0.724976	 -0.664593	 0.163451	 1
1463623519.297	 12	 0.003929	 0.022562	 -0.008241	 2.011536	 -1.422265	 -0.786850	 -0.077482	 0.724957	 -0.664644	 0.163347	 1
1463623519.307	 12	 0.007179	 0.030021	 -0.005002	 2.010982	 -1.422390	 -0.787673	 -0.077404	 0.724921	 -0.664718	 0.163239	 1
1463623519.317	 12	 0.006184	 0.043859	 -0.003799	 2.010158	 -1.422513	 -0.788885	 -0.077275	 0.724879	 -0.664814	 0.163099	 1
1463623519.327	 12	 0.004210	 0.066463	 -0.001449	 2.009913	 -1.422583	 -0.789732	 -0.077070	 0.724880	 -0.664889	 0.162887	 1
1463623519.337	 12	 -0.000979	 0.097325	 -0.001117	 2.010505	 -1.422633	 -0.790029	 -0.076780	 0.724931	 -0.664947	 0.162559	 1
1463623519.347	 12	 -0.002992	 0.121804	 0.000194	 2.011687	 -1.422675	 -0.790009	 -0.076406	 0.725018	 -0.665001	 0.162126	 1
1463623519.357	 12	 -0.001920	 0.121808	 0.001251	 2.012197	 -1.422665	 -0.790722	 -0.075976	 0.725089	 -0.665075	 0.161706	 1
1463623519.367	 12	 0.003333	 0.100549	 0.005271	 2.012024	 -1.422587	 -0.791950	 -0.075565	 0.725135	 -0.665150	 0.161383	 1
1463623519.377	 12	 0.007506	 0.075055	 0.011393	 2.011723	 -1.422494	 -0.793068	 -0.075233	 0.725169	 -0.665208	 0.161147	 1
1463623519.387	 12	 0.007432	 0.056995	 0.014423	 2.011374	 -1.422376	 -0.794042	 -0.074960	 0.725198	 -0.665246	 0.160983	 1
1463623519.397	 12	 0.005218	 0.041039	 0.013228	 2.011325	 -1.422298	 -0.794550	 -0.074770	 0.725227	 -0.665268	 0.160854	 1
1463623519.407	 12	 0.002000	 0.036802	 0.014282	 2.011311	 -1.422197	 -0.794940	 -0.074603	 0.725258	 -0.665275	 0.160758	 1
1463623519.417	 12	 -0.003279	 0.049574	 0.013381	 2.011423	 -1.422059	 -0.795289	 -0.074399	 0.725305	 -0.665276	 0.160641	 1
1463623519.427	 12	 -0.004259	 0.063443	 0.018848	 2.011459	 -1.421918	 -0.795851	 -0.074142	 0.725353	 -0.665291	 0.160481	 1
1463623519.437	 12	 -0.006301	 0.078379	 0.024333	 2.011791	 -1.421721	 -0.796267	 -0.073823	 0.725429	 -0.665292	 0.160278	 1
1463623519.447	 12	 -0.005178	 0.090076	 0.024431	 2.012215	 -1.421556	 -0.796726	 -0.073467	 0.725509	 -0.665306	 0.160019	 1
1463623519.457	 12	 0.001253	 0.086943	 0.035004	 2.011851	 -1.421326	 -0.797981	 -0.073065	 0.725567	 -0.665341	 0.159799	 1
1463623519.467	 12	 0.006615	 0.080645	 0.048752	 2.010706	 -1.421046	 -0.799966	 -0.072643	 0.725596	 -0.665395	 0.159634	 1
1463623519.477	 12	 0.010949	 0.087076	 0.057300	 2.008642	 -1.420679	 -0.802889	 -0.072161	 0.725601	 -0.665470	 0.159515	 1
1463623519.487	 12	 0.015351	 0.096919	 0.069070	 2.006188	 -1.420254	 -0.806308	 -0.071612	 0.725602	 -0.665558	 0.159390	 1
1463623519.497	 12	 0.022936	 0.111865	 0.079801	 2.002722	 -1.419688	 -0.810865	 -0.070945	 0.725586	 -0.665671	 0.159293	 1
1463623519.507	 12	 0.028383	 0.128922	 0.087373	 1.999144	 -1.419028	 -0.815718	 -0.070180	 0.725585	 -0.665783	 0.159165	 1
1463623519.517	 12	 0.034877	 0.140664	 0.095953	 1.994994	 -1.418258	 -0.821293	 -0.069310	 0.725580	 -0.665911	 0.159037	 1
1463623519.527	 12	 0.045556	 0.138536	 0.100104	 1.990128	 -1.417474	 -0.827603	 -0.068407	 0.725542	 -0.666071	 0.158929	 1
1463623519.537	 12	 0.050823	 0.126796	 0.096752	 1.985484	 -1.416724	 -0.833617	 -0.067547	 0.725502	 -0.666227	 0.158828	 1
1463623519.547	 12	 0.057149	 0.115038	 0.091258	 1.981249	 -1.416151	 -0.839105	 -0.066796	 0.725444	 -0.666395	 0.158704	 1
1463623519.557	 12	 0.058095	 0.089507	 0.091011	 1.977113	 -1.415708	 -0.844297	 -0.066158	 0.725361	 -0.666574	 0.158603	 1
1463623519.567	 12	 0.054739	 0.059711	 0.087563	 1.972903	 -1.415396	 -0.849253	 -0.065669	 0.725240	 -0.666761	 0.158569	 1
1463623519.577	 12	 0.061085	 0.040607	 0.095854	 1.968091	 -1.415044	 -0.854596	 -0.065229	 0.725090	 -0.666951	 0.158636	 1
1463623519.587	 12	 0.064263	 0.032119	 0.100008	 1.962526	 -1.414533	 -0.860566	 -0.064766	 0.724923	 -0.667136	 0.158813	 1
1463623519.597	 12	 0.062109	 0.022599	 0.106332	 1.956843	 -1.414000	 -0.866580	 -0.064320	 0.724749	 -0.667318	 0.159024	 1
1463623519.607	 12	 0.063166	 0.014140	 0.113702	 1.950557	 -1.413421	 -0.873086	 -0.063883	 0.724547	 -0.667513	 0.159303	 1
1463623519.617	 12	 0.063226	 0.020576	 0.121221	 1.944513	 -1.412688	 -0.879408	 -0.063385	 0.724378	 -0.667672	 0.159601	 1
1463623519.627	 12	 0.061189	 0.013376	 0.154208	 1.938286	 -1.411782	 -0.885883	 -0.062839	 0.724221	 -0.667807	 0.159966	 1
1463623519.637	 12	 0.060330	 0.026414	 0.191636	 1.932433	 -1.410455	 -0.892073	 -0.062141	 0.724142	 -0.667849	 0.160417	 1
1463623519.647	 12	 0.041474	 0.056641	 0.245369	 1.927046	 -1.408468	 -0.898071	 -0.061151	 0.724185	 -0.667763	 0.160965	 1
1463623519.657	 12	 0.008660	 0.080426	 0.285309	 1.922070	 -1.405909	 -0.903912	 -0.059899	 0.724329	 -0.667569	 0.161592	 1
1463623519.667	 12	 -0.017947	 0.064925	 0.317364	 1.917868	 -1.403072	 -0.908926	 -0.058598	 0.724540	 -0.667283	 0.162301	 1
1463623519.677	 12	 -0.058505	 0.032343	 0.354710	 1.915365	 -1.400373	 -0.911932	 -0.057498	 0.724802	 -0.666917	 0.163026	 1
1463623519.687	 12	 -0.097830	 0.026419	 0.401888	 1.911677	 -1.396734	 -0.915866	 -0.056159	 0.725118	 -0.666410	 0.164159	 1
1463623519.697	 12	 -0.117503	 0.124584	 0.437077	 1.910620	 -1.392358	 -0.917918	 -0.054391	 0.725688	 -0.665680	 0.165193	 1
1463623519.707	 12	 -0.125348	 0.232372	 0.483974	 1.912072	 -1.387690	 -0.918596	 -0.052193	 0.726462	 -0.664845	 0.165862	 1
1463623519.717	 12	 -0.130101	 0.312534	 0.535916	 1.913388	 -1.382528	 -0.920306	 -0.049511	 0.727313	 -0.663988	 0.166387	 1
1463623519.727	 12	 -0.126739	 0.300162	 0.591188	 1.913197	 -1.376994	 -0.923633	 -0.046622	 0.728119	 -0.663149	 0.167037	 1
1463623519.737	 12	 -0.153265	 0.333208	 0.590660	 1.913965	 -1.371003	 -0.926189	 -0.043549	 0.729036	 -0.662175	 0.167735	 1
1463623519.747	 12	 -0.211977	 0.352329	 0.563639	 1.917032	 -1.364975	 -0.926627	 -0.040477	 0.730095	 -0.661056	 0.168306	 1
1463623519.757	 12	 -0.283720	 0.320463	 0.540520	 1.923276	 -1.358924	 -0.923633	 -0.037606	 0.731358	 -0.659690	 0.168850	 1
1463623519.767	 12	 -0.335466	 0.275379	 0.462751	 1.932365	 -1.353229	 -0.917264	 -0.035158	 0.732764	 -0.658137	 0.169343	 1
1463623519.777	 12	 -0.331069	 0.148176	 0.377333	 1.941919	 -1.348331	 -0.909408	 -0.033371	 0.734094	 -0.656603	 0.169894	 1
1463623519.787	 12	 -0.273709	 -0.087456	 0.321353	 1.948134	 -1.344170	 -0.902764	 -0.032480	 0.735077	 -0.655251	 0.171036	 1
1463623519.797	 12	 -0.201041	 -0.276069	 0.301913	 1.949724	 -1.340547	 -0.898719	 -0.032323	 0.735641	 -0.654147	 0.172856	 1
1463623519.807	 12	 -0.141548	 -0.335688	 0.306164	 1.947731	 -1.337151	 -0.897362	 -0.032422	 0.735906	 -0.653261	 0.175044	 1
1463623519.817	 12	 -0.128291	 -0.250548	 0.318564	 1.945176	 -1.333749	 -0.897145	 -0.032281	 0.736136	 -0.652463	 0.177068	 1
1463623519.827	 12	 -0.145696	 -0.116294	 0.344477	 1.943904	 -1.330094	 -0.896895	 -0.031654	 0.736509	 -0.651627	 0.178705	 1
1463623519.837	 12	 -0.181281	 0.007401	 0.373648	 1.944794	 -1.326055	 -0.895781	 -0.030521	 0.737109	 -0.650660	 0.179942	 1
1463623519.847	 12	 -0.194032	 0.001211	 0.395017	 1.946381	 -1.321707	 -0.894299	 -0.029204	 0.737808	 -0.649598	 0.181130	 1
1463623519.857	 12	 -0.159643	 -0.174384	 0.395215	 1.945709	 -1.317391	 -0.893719	 -0.028297	 0.738310	 -0.648587	 0.182846	 1
1463623519.867	 12	 -0.091571	 -0.430011	 0.373060	 1.940676	 -1.313471	 -0.895182	 -0.028172	 0.738381	 -0.647788	 0.185394	 1
1463623519.877	 12	 -0.049143	 -0.723582	 0.388076	 1.931006	 -1.309715	 -0.898456	 -0.028925	 0.738007	 -0.647133	 0.189020	 1
1463623519.887	 12	 -0.064041	 -1.016441	 0.478202	 1.917743	 -1.305294	 -0.902419	 -0.030369	 0.737352	 -0.646354	 0.193949	 1
1463623519.897	 12	 -0.140205	 -1.311139	 0.729775	 1.901501	 -1.298771	 -0.906435	 -0.032080	 0.736609	 -0.645091	 0.200590	 1
1463623519.907	 12	 -0.293662	 -1.500108	 1.009648	 1.884731	 -1.288979	 -0.908651	 -0.033562	 0.736080	 -0.642949	 0.208990	 1
1463623519.917	 12	 -0.430633	 -1.557500	 1.253300	 1.869939	 -1.276429	 -0.907942	 -0.034568	 0.735905	 -0.639949	 0.218434	 1
1463623519.927	 12	 -0.533228	 -1.559746	 1.488640	 1.856786	 -1.261244	 -0.905391	 -0.034842	 0.736040	 -0.636199	 0.228651	 1
1463623519.937	 12	 -0.640965	 -1.469884	 1.663068	 1.845973	 -1.243941	 -0.900952	 -0.034344	 0.736505	 -0.631784	 0.239227	 1
1463623519.947	 12	 -0.769724	 -1.227532	 1.736784	 1.840020	 -1.225373	 -0.893510	 -0.032978	 0.737525	 -0.626751	 0.249305	 1
1463623519.957	 12	 -0.954338	 -0.876177	 1.858895	 1.840920	 -1.205389	 -0.882322	 -0.030392	 0.739428	 -0.620935	 0.258386	 1
1463623519.967	 12	 -1.028717	 -0.700497	 2.000792	 1.845217	 -1.183692	 -0.869900	 -0.026693	 0.741915	 -0.614458	 0.267002	 1
1463623519.977	 12	 -0.943715	 -0.872249	 2.111425	 1.845799	 -1.161018	 -0.860488	 -0.022739	 0.744027	 -0.607938	 0.276256	 1
1463623519.987	 12	 -0.915359	 -1.384421	 2.336617	 1.839520	 -1.136688	 -0.853810	 -0.019319	 0.745293	 -0.601194	 0.287628	 1
1463623519.997	 12	 -0.912927	 -2.028895	 2.640735	 1.825340	 -1.109527	 -0.848785	 -0.016685	 0.745492	 -0.593839	 0.302190	 1
1463623520.007	 12	 -0.860124	 -2.479103	 2.767175	 1.805143	 -1.080722	 -0.844722	 -0.014827	 0.744600	 -0.586110	 0.319102	 1
1463623520.017	 12	 -0.772481	 -2.677187	 2.767766	 1.781601	 -1.052055	 -0.841373	 -0.013567	 0.742756	 -0.578454	 0.336926	 1
1463623520.027	 12	 -0.810750	 -2.662212	 3.057060	 1.758257	 -1.021515	 -0.837468	 -0.011662	 0.740616	 -0.570210	 0.355263	 1
1463623520.037	 12	 -0.873322	 -2.292761	 3.523584	 1.737951	 -0.986377	 -0.832875	 -0.007438	 0.738811	 -0.560679	 0.373821	 1
1463623520.047	 12	 -0.642350	 -1.897504	 3.707496	 1.720177	 -0.948824	 -0.830449	 -0.000721	 0.737126	 -0.550901	 0.391347	 1
1463623520.057	 12	 -0.320909	 -1.633533	 3.717811	 1.701434	 -0.911577	 -0.832713	 0.007525	 0.734736	 -0.542104	 0.407712	 1
1463623520.067	 12	 -0.297161	 -1.595149	 3.740342	 1.683798	 -0.873976	 -0.835254	 0.016453	 0.732061	 -0.533305	 0.423558	 1
1463623520.077	 12	 -0.187441	 -2.106745	 3.491633	 1.662642	 -0.838294	 -0.837461	 0.023832	 0.728079	 -0.524999	 0.440124	 1
1463623520.087	 12	 -0.130637	 -2.531970	 3.251648	 1.636554	 -0.805277	 -0.839354	 0.029073	 0.722441	 -0.517438	 0.457703	 1
1463623520.097	 12	 -0.182053	 -2.283479	 3.176607	 1.613138	 -0.773320	 -0.839264	 0.034109	 0.716925	 -0.509729	 0.474374	 1
1463623520.107	 12	 -0.150574	 -2.058000	 3.042014	 1.592435	 -0.742474	 -0.838507	 0.039375	 0.711632	 -0.502143	 0.489777	 1
1463623520.117	 12	 -0.418360	 -1.117158	 3.017930	 1.581076	 -0.712211	 -0.834731	 0.045829	 0.708371	 -0.493772	 0.502294	 1
1463623520.127	 12	 -0.796479	 -0.235801	 2.960149	 1.582574	 -0.682381	 -0.825949	 0.053565	 0.708308	 -0.483835	 0.511208	 1
1463623520.137	 12	 -1.056960	 0.074646	 2.837414	 1.590330	 -0.653513	 -0.813743	 0.061211	 0.709934	 -0.472881	 0.518295	 1
1463623520.147	 12	 -1.131061	 0.184737	 2.588630	 1.599852	 -0.626640	 -0.800568	 0.068133	 0.712126	 -0.461904	 0.524288	 1
1463623520.157	 12	 -0.952123	 0.024699	 2.152883	 1.607298	 -0.603594	 -0.789053	 0.073742	 0.713852	 -0.452269	 0.529557	 1
1463623520.167	 12	 -0.631654	 -0.310304	 1.554412	 1.609496	 -0.586234	 -0.781224	 0.077460	 0.714223	 -0.445256	 0.534446	 1
1463623520.177	 12	 -0.250853	 -0.703328	 0.899455	 1.605496	 -0.575448	 -0.777502	 0.078985	 0.712962	 -0.441379	 0.539103	 1
1463623520.187	 12	 0.107302	 -1.115693	 0.208280	 1.595164	 -0.571672	 -0.777935	 0.078172	 0.710024	 -0.440841	 0.543520	 1
1463623520.197	 12	 0.209998	 -1.710475	 -0.367265	 1.578480	 -0.574068	 -0.780421	 0.074529	 0.705458	 -0.442824	 0.548344	 1
1463623520.207	 12	 -0.247536	 -2.764200	 -0.655514	 1.554253	 -0.580110	 -0.779300	 0.066629	 0.699030	 -0.445028	 0.555759	 1
1463623520.217	 12	 -0.989138	 -3.610066	 -0.702756	 1.525217	 -0.587464	 -0.770127	 0.054358	 0.691435	 -0.445316	 0.566265	 1
1463623520.227	 12	 -1.862977	 -4.168899	 -0.529826	 1.495526	 -0.594241	 -0.750704	 0.038649	 0.683632	 -0.442240	 0.579291	 1
1463623520.237	 12	 -2.577082	 -4.420195	 -0.271229	 1.467866	 -0.599803	 -0.722051	 0.020808	 0.676136	 -0.435704	 0.593775	 1
1463623520.247	 12	 -3.122285	 -4.277421	 0.129178	 1.445080	 -0.603064	 -0.685886	 0.002530	 0.669597	 -0.425815	 0.608536	 1
1463623520.257	 12	 -3.439547	 -4.124674	 0.676901	 1.426949	 -0.602340	 -0.644452	 -0.014816	 0.663867	 -0.412808	 0.623419	 1
1463623520.267	 12	 -3.536654	 -4.163740	 1.263552	 1.410628	 -0.596629	 -0.600162	 -0.030620	 0.658101	 -0.397149	 0.638935	 1
1463623520.277	 12	 -3.423542	 -4.606973	 1.789192	 1.390748	 -0.586077	 -0.555664	 -0.045060	 0.650672	 -0.379582	 0.656135	 1
1463623520.287	 12	 -3.174983	 -5.427920	 2.204628	 1.362215	 -0.571632	 -0.512807	 -0.058668	 0.639908	 -0.360747	 0.675972	 1
1463623520.297	 12	 -2.850391	 -6.574106	 2.535378	 1.321111	 -0.554359	 -0.472404	 -0.071984	 0.624317	 -0.340968	 0.699133	 1
1463623520.307	 12	 -2.235773	 -7.955511	 2.814520	 1.263524	 -0.534524	 -0.436537	 -0.084721	 0.602235	 -0.320805	 0.726099	 1
1463623520.317	 12	 -2.740086	 -7.070395	 3.223610	 1.207516	 -0.513381	 -0.397704	 -0.096399	 0.579603	 -0.298590	 0.752072	 1
1463623520.327	 12	 -3.793411	 -4.787326	 3.461850	 1.181177	 -0.495004	 -0.344661	 -0.107894	 0.566778	 -0.272490	 0.769981	 1
1463623520.337	 12	 -3.339945	 -4.570691	 3.451391	 1.160000	 -0.476747	 -0.292735	 -0.117729	 0.555639	 -0.246562	 0.785247	 1
1463623520.347	 12	 -2.265078	 -5.030558	 3.245916	 1.129391	 -0.457140	 -0.251519	 -0.124518	 0.541132	 -0.223501	 0.801074	 1
1463623520.357	 12	 -1.326066	 -4.877415	 3.036671	 1.092766	 -0.436312	 -0.221032	 -0.127843	 0.524585	 -0.203771	 0.816666	 1
1463623520.367	 12	 -0.711429	 -3.899315	 2.933844	 1.060845	 -0.414378	 -0.197437	 -0.127786	 0.510156	 -0.186759	 0.829779	 1
1463623520.377	 12	 -0.162750	 -3.016606	 2.996964	 1.036169	 -0.390155	 -0.178458	 -0.124442	 0.498898	 -0.171560	 0.840346	 1
1463623520.387	 12	 0.421210	 -2.479586	 3.218555	 1.015732	 -0.361744	 -0.163411	 -0.117616	 0.489613	 -0.157340	 0.849523	 1
1463623520.397	 12	 0.925377	 -2.149452	 3.479415	 0.997687	 -0.328584	 -0.151203	 -0.107565	 0.481468	 -0.143455	 0.857927	 1
1463623520.407	 12	 1.445471	 -2.048165	 3.723086	 0.979991	 -0.290751	 -0.141579	 -0.094562	 0.473532	 -0.129755	 0.866019	 1
1463623520.417	 12	 1.940569	 -2.003511	 3.920619	 0.961736	 -0.248505	 -0.134477	 -0.078792	 0.465328	 -0.116305	 0.873919	 1
1463623520.427	 12	 2.345260	 -1.878957	 4.099434	 0.943734	 -0.202428	 -0.129182	 -0.060623	 0.457090	 -0.103031	 0.881350	 1
1463623520.437	 12	 2.602100	 -1.631823	 4.255099	 0.927593	 -0.153313	 -0.124612	 -0.040586	 0.449432	 -0.089716	 0.887871	 1
1463623520.447	 12	 2.440700	 -1.228289	 4.248536	 0.914773	 -0.104192	 -0.118756	 -0.020467	 0.443001	 -0.076126	 0.893049	 1
1463623520.457	 12	 2.066088	 -0.877336	 4.092002	 0.906189	 -0.058272	 -0.110385	 -0.002015	 0.438343	 -0.062310	 0.896643	 1
1463623520.467	 12	 1.780536	 -1.238972	 3.828945	 0.895434	 -0.016235	 -0.100655	 0.014469	 0.432714	 -0.048856	 0.900090	 1
1463623520.477	 12	 1.492317	 -1.863964	 3.476069	 0.878328	 0.021334	 -0.090274	 0.028828	 0.424290	 -0.036307	 0.904339	 1
1463623520.487	 12	 1.162424	 -2.472059	 3.089608	 0.854699	 0.053663	 -0.079150	 0.040789	 0.413021	 -0.024883	 0.909467	 1
1463623520.497	 12	 0.891601	 -3.037468	 2.746727	 0.824897	 0.081074	 -0.067346	 0.050591	 0.399047	 -0.014582	 0.915418	 1
1463623520.507	 12	 0.745638	 -3.454725	 2.496858	 0.790156	 0.104862	 -0.055275	 0.058973	 0.382868	 -0.005308	 0.921904	 1
1463623520.517	 12	 0.710901	 -3.708597	 2.381828	 0.752203	 0.126743	 -0.042929	 0.066757	 0.365212	 0.003333	 0.928522	 1
1463623520.527	 12	 0.752596	 -3.848660	 2.298098	 0.712312	 0.147745	 -0.030499	 0.074468	 0.346628	 0.011478	 0.934972	 1
1463623520.537	 12	 0.827719	 -3.882741	 2.175629	 0.671619	 0.168064	 -0.018497	 0.082278	 0.327624	 0.018956	 0.941028	 1
1463623520.547	 12	 0.917265	 -3.764020	 2.009696	 0.631617	 0.187625	 -0.007423	 0.090189	 0.308887	 0.025581	 0.946467	 1
1463623520.557	 12	 1.045880	 -3.496601	 1.830950	 0.594042	 0.206677	 0.002295	 0.098303	 0.291225	 0.031282	 0.951076	 1
1463623520.567	 12	 1.233321	 -3.193263	 1.642435	 0.559671	 0.225801	 0.010202	 0.106877	 0.274988	 0.035988	 0.954811	 1
1463623520.577	 12	 1.491209	 -2.885889	 1.452279	 0.528726	 0.245748	 0.015825	 0.116252	 0.260253	 0.039605	 0.957698	 1
1463623520.587	 12	 1.799114	 -2.614768	 1.269875	 0.501167	 0.267179	 0.018912	 0.126703	 0.246969	 0.042105	 0.959781	 1
1463623520.597	 12	 2.126181	 -2.364877	 1.100962	 0.476754	 0.290603	 0.019418	 0.138421	 0.234993	 0.043522	 0.961105	 1
1463623520.607	 12	 2.431836	 -2.139302	 0.943733	 0.455395	 0.316074	 0.017513	 0.151360	 0.224256	 0.043949	 0.961701	 1
1463623520.617	 12	 2.637332	 -1.927916	 0.842664	 0.436738	 0.343213	 0.013921	 0.165220	 0.214611	 0.043689	 0.961632	 1
1463623520.637	 13	 2.649448	 -1.532003	 0.735403	 0.406568	 0.398416	 0.005579	 0.193265	 0.198434	 0.042630	 0.959924	 1
1463623520.647	 13	 2.515254	 -1.435163	 0.688447	 0.393538	 0.424662	 0.001762	 0.206504	 0.191293	 0.042045	 0.958642	 1
1463623520.657	 13	 2.326371	 -1.379765	 0.624530	 0.381037	 0.449080	 -0.001572	 0.218774	 0.184442	 0.041412	 0.957290	 1
1463623520.667	 13	 2.116861	 -1.361852	 0.516747	 0.368801	 0.471258	 -0.004760	 0.229920	 0.177744	 0.040530	 0.955982	 1
1463623520.677	 13	 1.928420	 -1.379297	 0.381808	 0.356705	 0.491183	 -0.008267	 0.239983	 0.171094	 0.039187	 0.954777	 1
1463623520.687	 13	 1.782684	 -1.404215	 0.260283	 0.344660	 0.509240	 -0.012312	 0.249164	 0.164419	 0.037321	 0.953672	 1
1463623520.697	 13	 1.653137	 -1.429904	 0.185502	 0.332543	 0.525791	 -0.016566	 0.257608	 0.157692	 0.035122	 0.952648	 1
1463623520.707	 13	 1.535404	 -1.469202	 0.145663	 0.320047	 0.541097	 -0.020701	 0.265421	 0.150806	 0.032737	 0.951703	 1
1463623520.717	 13	 1.426130	 -1.531557	 0.116178	 0.306946	 0.555295	 -0.024581	 0.272658	 0.143677	 0.030217	 0.950842	 1
1463623520.727	 13	 1.318983	 -1.598457	 0.087712	 0.292965	 0.568432	 -0.028216	 0.279351	 0.136176	 0.027527	 0.950085	 1
1463623520.737	 13	 1.207090	 -1.550388	 0.071016	 0.279103	 0.580482	 -0.031508	 0.285465	 0.128800	 0.024855	 0.949369	 1
1463623520.747	 13	 1.113501	 -1.471496	 0.058710	 0.265823	 0.591588	 -0.034473	 0.291071	 0.121767	 0.022282	 0.948659	 1
1463623520.757	 13	 1.016876	 -1.382805	 0.076363	 0.253128	 0.601830	 -0.036884	 0.296197	 0.115112	 0.019935	 0.947955	 1
1463623520.767	 13	 0.930903	 -1.308945	 0.106574	 0.240820	 0.611284	 -0.038532	 0.300878	 0.108776	 0.017899	 0.947270	 1
1463623520.777	 13	 0.868149	 -1.260930	 0.102239	 0.228827	 0.620116	 -0.039789	 0.305222	 0.102669	 0.016005	 0.946595	 1
1463623520.787	 13	 0.817069	 -1.202522	 0.069123	 0.217410	 0.628375	 -0.041107	 0.309276	 0.096845	 0.014091	 0.945923	 1
1463623520.797	 13	 0.774580	 -1.122952	 0.024405	 0.206930	 0.636120	 -0.042721	 0.313077	 0.091434	 0.012112	 0.945239	 1
1463623520.807	 13	 0.750229	 -1.042387	 -0.022592	 0.197500	 0.643501	 -0.044728	 0.316700	 0.086470	 0.010058	 0.944523	 1
1463623520.827	 14	 0.736578	 -0.911185	 -0.122500	 0.181787	 0.657643	 -0.050347	 0.323655	 0.077783	 0.005578	 0.942956	 1
1463623520.837	 14	 0.740960	 -0.857213	 -0.158272	 0.175248	 0.664662	 -0.053880	 0.327106	 0.073939	 0.003175	 0.942085	 1
1463623520.847	 14	 0.726281	 -0.799753	 -0.160807	 0.169374	 0.671586	 -0.057538	 0.330498	 0.070384	 0.000800	 0.941178	 1
1463623520.857	 14	 0.692311	 -0.765583	 -0.155930	 0.163804	 0.678244	 -0.060984	 0.333742	 0.067007	 -0.001452	 0.940279	 1
1463623520.867	 14	 0.651847	 -0.729452	 -0.176557	 0.158627	 0.684505	 -0.064503	 0.336787	 0.063808	 -0.003704	 0.939409	 1
1463623520.877	 14	 0.579459	 -0.669862	 -0.202016	 0.154119	 0.690131	 -0.068231	 0.339529	 0.060900	 -0.005978	 0.938603	 1
1463623520.887	 14	 0.464481	 -0.614191	 -0.198365	 0.150110	 0.694719	 -0.071771	 0.341769	 0.058282	 -0.008130	 0.937940	 1
1463623520.897	 14	 0.335722	 -0.560420	 -0.169034	 0.146299	 0.698097	 -0.074767	 0.343418	 0.055881	 -0.010049	 0.937465	 1
1463623520.917	 15	 0.174526	 -0.615934	 -0.115925	 0.137492	 0.702091	 -0.078924	 0.345345	 0.050918	 -0.013355	 0.936998	 1
1463623520.927	 15	 0.139921	 -0.708401	 -0.120747	 0.131826	 0.703403	 -0.080737	 0.345963	 0.047910	 -0.015133	 0.936902	 1
1463623520.937	 15	 0.113815	 -0.799908	 -0.136292	 0.125262	 0.704418	 -0.082640	 0.346429	 0.044476	 -0.017123	 0.936865	 1
1463623520.947	 15	 0.078524	 -0.798886	 -0.156224	 0.118606	 0.705121	 -0.084793	 0.346743	 0.040963	 -0.019260	 0.936867	 1
1463623520.957	 15	 0.025396	 -0.760349	 -0.143680	 0.112198	 0.705325	 -0.086768	 0.346812	 0.037613	 -0.021289	 0.936938	 1
1463623520.967	 15	 0.004236	 -0.704066	 -0.164287	 0.106296	 0.705224	 -0.088799	 0.346736	 0.034499	 -0.023267	 0.937039	 1
1463623520.977	 15	 0.019654	 -0.561942	 -0.213190	 0.101989	 0.705165	 -0.091469	 0.346700	 0.032020	 -0.025267	 0.937089	 1
1463623520.987	 15	 0.068281	 -0.391214	 -0.264247	 0.099840	 0.705439	 -0.094792	 0.346852	 0.030428	 -0.027188	 0.937032	 1
1463623520.997	 15	 0.144347	 -0.275957	 -0.326717	 0.099551	 0.706373	 -0.099032	 0.347348	 0.029528	 -0.029195	 0.936816	 1
1463623521.007	 15	 0.195906	 -0.179541	 -0.357175	 0.100694	 0.707864	 -0.103881	 0.348133	 0.029172	 -0.031219	 0.936471	 1
1463623521.017	 15	 0.217385	 -0.144558	 -0.364497	 0.102485	 0.709619	 -0.108935	 0.349056	 0.029070	 -0.033214	 0.936062	 1
1463623521.027	 15	 0.233323	 -0.157385	 -0.366887	 0.104303	 0.711525	 -0.114053	 0.350051	 0.028960	 -0.035227	 0.935620	 1
1463623521.037	 15	 0.259807	 -0.199997	 -0.365383	 0.105791	 0.713650	 -0.119216	 0.351144	 0.028673	 -0.037307	 0.935138	 1
1463623521.047	 15	 0.291748	 -0.229752	 -0.348885	 0.106864	 0.716095	 -0.124276	 0.352377	 0.028192	 -0.039397	 0.934603	 1
1463623521.057	 15	 0.316480	 -0.222101	 -0.310662	 0.107692	 0.718832	 -0.128962	 0.353735	 0.027645	 -0.041341	 0.934023	 1
1463623521.067	 15	 0.325467	 -0.184404	 -0.242181	 0.108307	 0.721780	 -0.132879	 0.355173	 0.027120	 -0.042952	 0.933419	 1
1463623521.077	 15	 0.316564	 -0.107182	 -0.157189	 0.108907	 0.724773	 -0.135712	 0.356617	 0.026773	 -0.044056	 0.932827	 1
1463623521.097	 16	 0.238557	 -0.008164	 -0.029825	 0.113130	 0.733889	 -0.140398	 0.361011	 0.027517	 -0.045135	 0.931062	 1
1463623521.107	 16	 0.197056	 0.005881	 -0.016544	 0.113518	 0.735933	 -0.140953	 0.361975	 0.027510	 -0.045243	 0.930683	 1
1463623521.117	 16	 0.154344	 0.015450	 -0.034201	 0.114078	 0.737545	 -0.141588	 0.362744	 0.027586	 -0.045374	 0.930375	 1
1463623521.127	 16	 0.111588	 0.022830	 -0.060404	 0.114911	 0.738697	 -0.142510	 0.363310	 0.027756	 -0.045606	 0.930137	 1
1463623521.137	 16	 0.075208	 0.015389	 -0.075076	 0.116824	 0.740521	 -0.144278	 0.364224	 0.028244	 -0.046008	 0.929745	 1
1463623521.147	 16	 0.039784	 -0.023900	 -0.080462	 0.117470	 0.740915	 -0.145416	 0.364438	 0.028319	 -0.046403	 0.929640	 1
1463623521.157	 16	 0.003180	 -0.089754	 -0.082888	 0.117508	 0.740941	 -0.146543	 0.364467	 0.028131	 -0.046919	 0.929608	 1
1463623521.167	 16	 -0.020544	 -0.151292	 -0.071531	 0.116793	 0.740687	 -0.147521	 0.364346	 0.027632	 -0.047514	 0.929640	 1
1463623521.177	 16	 -0.016333	 -0.174600	 -0.057935	 0.117213	 0.740368	 -0.149387	 0.364234	 0.027501	 -0.048318	 0.929647	 1
1463623521.187	 16	 0.013761	 -0.155319	 -0.027110	 0.115935	 0.740382	 -0.149890	 0.364216	 0.026815	 -0.048784	 0.929649	 1
1463623521.197	 16	 0.045082	 -0.127317	 0.033626	 0.114491	 0.740769	 -0.149724	 0.364358	 0.026157	 -0.048954	 0.929604	 1
1463623521.207	 16	 0.067941	 -0.106533	 0.122079	 0.112535	 0.741507	 -0.148478	 0.364636	 0.025442	 -0.048702	 0.929528	 1
1463623521.217	 16	 0.083184	 -0.112341	 0.206084	 0.112408	 0.744177	 -0.147836	 0.365861	 0.025380	 -0.048322	 0.929068	 1
1463623521.227	 16	 0.091837	 -0.133246	 0.260168	 0.108939	 0.745349	 -0.144599	 0.366281	 0.024310	 -0.047407	 0.928978	 1
1463623521.237	 16	 0.085300	 -0.170378	 0.270537	 0.104944	 0.746524	 -0.141066	 0.366689	 0.023052	 -0.046454	 0.928897	 1
1463623521.247	 16	 0.036100	 -0.176760	 0.250657	 0.100750	 0.747287	 -0.137618	 0.366907	 0.021704	 -0.045594	 0.928886	 1
1463623521.257	 16	 -0.029818	 -0.085434	 0.204121	 0.097658	 0.747373	 -0.134679	 0.366846	 0.020804	 -0.044792	 0.928970	 1
1463623521.267	 16	 -0.090474	 -0.011126	 0.159520	 0.095716	 0.748832	 -0.132259	 0.367454	 0.020288	 -0.043975	 0.928780	 1
1463623521.277	 16	 -0.111688	 0.062985	 0.103909	 0.094987	 0.747837	 -0.130517	 0.366960	 0.020308	 -0.043334	 0.929005	 1
1463623521.287	 16	 -0.088732	 0.206266	 0.070938	 0.095802	 0.746984	 -0.129331	 0.366570	 0.020937	 -0.042662	 0.929176	 1
1463623521.297	 16	 -0.049832	 0.333567	 0.040877	 0.098413	 0.746406	 -0.128608	 0.366349	 0.022305	 -0.041868	 0.929267	 1
1463623521.307	 16	 0.013359	 0.384411	 0.037603	 0.101797	 0.746427	 -0.128104	 0.366423	 0.023969	 -0.041013	 0.929235	 1
1463623521.317	 16	 0.039128	 0.413091	 0.042974	 0.105461	 0.746682	 -0.127526	 0.366608	 0.025768	 -0.040064	 0.929155	 1
