% Gyrometer data recorded with 'snsrlog'
% 
% 
% Label description:
% 	 0: Default Label
% 	 1: still_drop
% 	 2: walk_drop
% 	 3: other
% 	 4: dtw_same
% 	 5: dtw_diff
% 	 6: delete
% 	 7: steal
% 
% Column description:
% 	 1: Seconds.milliseconds since 1970
% 	 2: Number of skipped measurements
% 	 3: Gyro X
% 	 4: Gyro Y
% 	 5: Gyro Z
% 	 6: Roll of the device
% 	 7: Pitch of the device
% 	 8: Yaw of the device
% 	 9: Quaternion X
% 	 10: Quaternion Y
% 	 11: Quaternion Z
% 	 12: Quaternion W
% 	 13: Label used for the current sample
% 
% 
1463623819.976	 0	 -1.222192	 2.402518	 0.029857	 0.198904	 0.535557	 0.045201	 0.261051	 0.101675	 0.047949	 0.958757	 1
1463623819.986	 0	 -1.132761	 2.392383	 -0.011515	 0.221499	 0.524246	 0.047939	 0.254912	 0.112890	 0.051638	 0.958963	 1
1463623819.996	 0	 -1.040019	 2.351856	 0.010747	 0.243718	 0.513922	 0.050784	 0.249191	 0.123933	 0.055257	 0.958901	 1
1463623820.006	 0	 -0.969410	 2.335097	 0.074988	 0.265383	 0.504536	 0.054255	 0.243841	 0.134779	 0.059045	 0.958588	 1
1463623820.016	 0	 -0.933486	 2.450161	 0.116245	 0.287476	 0.495793	 0.058402	 0.238677	 0.145896	 0.063144	 0.957998	 1
1463623820.026	 0	 -0.908744	 2.811967	 0.004294	 0.312885	 0.487181	 0.061943	 0.233447	 0.158510	 0.067246	 0.957003	 1
1463623820.036	 0	 -0.879166	 3.210813	 -0.277876	 0.343505	 0.478139	 0.063071	 0.227963	 0.173322	 0.070634	 0.955512	 1
1463623820.046	 0	 -0.802617	 3.504272	 -0.699986	 0.379229	 0.468327	 0.060174	 0.222252	 0.190109	 0.072450	 0.953527	 1
1463623820.056	 0	 -0.657180	 3.692266	 -1.117281	 0.419003	 0.457928	 0.052696	 0.216593	 0.208323	 0.072283	 0.951033	 1
1463623820.066	 0	 -0.436024	 3.963083	 -1.376733	 0.462781	 0.447804	 0.041749	 0.211404	 0.228069	 0.070718	 0.947783	 1
1463623820.076	 0	 -0.222114	 3.968766	 -1.533078	 0.508303	 0.438421	 0.028502	 0.206955	 0.248382	 0.068132	 0.943840	 1
1463623820.086	 0	 -0.130897	 3.751482	 -1.685101	 0.552667	 0.428865	 0.013660	 0.202895	 0.267973	 0.064475	 0.939610	 1
1463623820.106	 1	 -0.643175	 3.379084	 -2.057123	 0.634689	 0.401009	 -0.016297	 0.191704	 0.304242	 0.054560	 0.931509	 1
1463623820.116	 1	 -1.076163	 3.300894	 -2.160656	 0.672447	 0.380332	 -0.028282	 0.183002	 0.321421	 0.049248	 0.927779	 1
1463623820.126	 1	 -1.464144	 3.273526	 -2.277964	 0.708471	 0.355455	 -0.037457	 0.172181	 0.338244	 0.044026	 0.924125	 1
1463623820.136	 1	 -1.703908	 3.424599	 -2.369324	 0.744538	 0.327457	 -0.044444	 0.159770	 0.355403	 0.038851	 0.920137	 1
1463623820.146	 1	 -1.715877	 3.786619	 -2.320023	 0.782944	 0.298789	 -0.049682	 0.146909	 0.373766	 0.034068	 0.915181	 1
1463623820.166	 2	 -0.995908	 5.335740	 -2.106184	 0.879645	 0.248808	 -0.059447	 0.124780	 0.418965	 0.026126	 0.899008	 1
1463623820.176	 2	 -0.361235	 5.796986	 -2.192679	 0.938999	 0.228510	 -0.068902	 0.117092	 0.445721	 0.021034	 0.887231	 1
1463623820.186	 2	 0.222154	 5.860018	 -2.358102	 1.000637	 0.209896	 -0.083011	 0.111632	 0.472841	 0.014001	 0.873936	 1
1463623820.196	 2	 0.642358	 5.749874	 -2.563149	 1.062049	 0.191161	 -0.100958	 0.107623	 0.499311	 0.004958	 0.859698	 1
1463623820.206	 2	 0.898726	 5.557999	 -2.811226	 1.121801	 0.170693	 -0.121413	 0.104204	 0.524657	 -0.005925	 0.844891	 1
1463623820.216	 2	 0.991072	 5.277726	 -3.141828	 1.178914	 0.146798	 -0.143104	 0.100437	 0.548636	 -0.018604	 0.829798	 1
1463623820.226	 2	 0.918496	 5.091621	 -3.460525	 1.232714	 0.118505	 -0.164120	 0.095458	 0.571149	 -0.032651	 0.814623	 1
1463623820.236	 2	 0.945572	 5.324251	 -3.637644	 1.287271	 0.087053	 -0.184053	 0.089755	 0.593804	 -0.047439	 0.798180	 1
1463623820.246	 2	 1.215850	 5.661244	 -3.698675	 1.344511	 0.054191	 -0.204369	 0.084588	 0.617114	 -0.062999	 0.779773	 1
1463623820.256	 2	 1.643708	 5.797819	 -3.612672	 1.403123	 0.021491	 -0.226549	 0.081103	 0.640310	 -0.079442	 0.759680	 1
1463623820.266	 2	 2.043541	 5.774915	 -3.676049	 1.461160	 -0.011896	 -0.250881	 0.079091	 0.662601	 -0.097118	 0.738426	 1
1463623820.276	 2	 2.311925	 5.594051	 -3.867643	 1.516801	 -0.048105	 -0.276447	 0.077443	 0.683410	 -0.116377	 0.716526	 1
1463623820.286	 2	 2.432116	 5.204209	 -4.042839	 1.568256	 -0.087412	 -0.301736	 0.075456	 0.702169	 -0.136814	 0.694656	 1
1463623820.296	 2	 2.353006	 4.648984	 -4.224233	 1.613757	 -0.129653	 -0.324836	 0.072304	 0.718377	 -0.157790	 0.673653	 1
1463623820.306	 2	 2.116490	 3.928752	 -4.342912	 1.651993	 -0.174135	 -0.344132	 0.067335	 0.731715	 -0.178605	 0.654339	 1
1463623820.316	 2	 1.809262	 3.222811	 -4.279663	 1.683033	 -0.218832	 -0.359022	 0.060746	 0.742277	 -0.198377	 0.637167	 1
1463623820.326	 2	 1.528901	 2.624519	 -4.028072	 1.708100	 -0.261501	 -0.370035	 0.053327	 0.750510	 -0.216441	 0.622128	 1
1463623820.336	 2	 1.351985	 2.127911	 -3.646413	 1.728141	 -0.300601	 -0.378602	 0.045997	 0.756782	 -0.232650	 0.609130	 1
1463623820.346	 2	 1.304108	 1.811967	 -3.233289	 1.744481	 -0.335634	 -0.386396	 0.039540	 0.761591	 -0.247269	 0.597723	 1
1463623820.356	 2	 1.389956	 1.622769	 -2.888358	 1.758158	 -0.367272	 -0.394972	 0.034354	 0.765338	 -0.260948	 0.587353	 1
1463623820.366	 2	 1.616275	 1.669531	 -2.655426	 1.770480	 -0.396825	 -0.405704	 0.030653	 0.768461	 -0.274495	 0.577217	 1
1463623820.376	 2	 2.138486	 1.620160	 -2.505896	 1.780903	 -0.425712	 -0.421515	 0.029003	 0.770800	 -0.289214	 0.566904	 1
1463623820.386	 2	 2.544671	 1.467440	 -2.427725	 1.786839	 -0.454833	 -0.442274	 0.028645	 0.771664	 -0.305337	 0.557210	 1
1463623820.396	 2	 2.838189	 1.513947	 -2.202840	 1.790664	 -0.482971	 -0.467126	 0.029915	 0.771805	 -0.322080	 0.547437	 1
1463623820.406	 2	 3.003628	 1.529159	 -1.945159	 1.792566	 -0.509030	 -0.495090	 0.032757	 0.771338	 -0.338738	 0.537793	 1
1463623820.416	 2	 3.086742	 1.591787	 -1.782238	 1.793454	 -0.533537	 -0.524975	 0.036655	 0.770533	 -0.355138	 0.528026	 1
1463623820.426	 2	 3.091405	 1.543981	 -1.626056	 1.793014	 -0.556623	 -0.556004	 0.041185	 0.769328	 -0.371116	 0.518373	 1
1463623820.436	 2	 2.963405	 1.398946	 -1.437652	 1.790769	 -0.577735	 -0.586876	 0.045897	 0.767651	 -0.386170	 0.509391	 1
1463623820.446	 2	 2.717208	 1.274760	 -1.208591	 1.787584	 -0.596122	 -0.616210	 0.050642	 0.765789	 -0.399721	 0.501225	 1
1463623820.456	 2	 2.433202	 1.078149	 -1.008650	 1.783599	 -0.611765	 -0.643218	 0.055146	 0.763811	 -0.411625	 0.494082	 1
1463623820.476	 3	 1.853597	 0.370177	 -0.711755	 1.769855	 -0.636315	 -0.688945	 0.061737	 0.758756	 -0.431005	 0.484471	 1
1463623820.486	 3	 1.573084	 0.037171	 -0.545087	 1.759832	 -0.645256	 -0.707638	 0.063731	 0.755648	 -0.438610	 0.482240	 1
1463623820.496	 3	 1.331323	 -0.235235	 -0.366469	 1.748393	 -0.651844	 -0.723807	 0.065147	 0.752314	 -0.444888	 0.481511	 1
1463623820.506	 3	 1.148247	 -0.528920	 -0.165113	 1.735110	 -0.656014	 -0.738145	 0.066185	 0.748619	 -0.450036	 0.482345	 1
1463623820.516	 3	 0.960152	 -0.774563	 0.059115	 1.720272	 -0.657575	 -0.750718	 0.067008	 0.744609	 -0.454033	 0.484686	 1
1463623820.526	 3	 0.741412	 -0.959460	 0.287372	 1.704751	 -0.656402	 -0.761092	 0.067717	 0.740483	 -0.456736	 0.488356	 1
1463623820.536	 3	 0.538068	 -1.025473	 0.488892	 1.689689	 -0.652783	 -0.769121	 0.068450	 0.736497	 -0.458169	 0.492918	 1
1463623820.546	 3	 0.384349	 -0.959899	 0.668823	 1.676162	 -0.647037	 -0.775237	 0.069535	 0.732886	 -0.458500	 0.497816	 1
1463623820.556	 3	 0.280171	 -0.774495	 0.819596	 1.665039	 -0.639543	 -0.779988	 0.071264	 0.729845	 -0.457942	 0.502530	 1
1463623820.566	 3	 0.182632	 -0.530686	 0.960197	 1.656971	 -0.630515	 -0.783571	 0.073796	 0.727539	 -0.456573	 0.506736	 1
1463623820.576	 3	 0.102041	 -0.294536	 1.078199	 1.651999	 -0.620137	 -0.786165	 0.077143	 0.725985	 -0.454476	 0.510340	 1
1463623820.586	 3	 -0.012953	 -0.086162	 1.165334	 1.649799	 -0.608734	 -0.787540	 0.081034	 0.725125	 -0.451674	 0.513437	 1
1463623820.596	 3	 -0.215682	 0.193760	 1.110021	 1.651463	 -0.597259	 -0.786718	 0.085022	 0.725318	 -0.448119	 0.515630	 1
1463623820.606	 3	 -0.528355	 0.486783	 0.763769	 1.658169	 -0.588200	 -0.782238	 0.087973	 0.727021	 -0.444069	 0.516241	 1
1463623820.616	 3	 -0.838097	 0.688793	 0.188571	 1.669392	 -0.584210	 -0.773439	 0.088600	 0.730209	 -0.440146	 0.514992	 1
1463623820.626	 3	 -0.966068	 0.819204	 -0.213025	 1.683636	 -0.584488	 -0.761952	 0.087422	 0.734378	 -0.436651	 0.512232	 1
1463623820.636	 3	 -0.907456	 0.944369	 -0.382893	 1.699103	 -0.586857	 -0.750381	 0.085733	 0.738866	 -0.433734	 0.508529	 1
1463623820.646	 3	 -0.748376	 1.190613	 -0.389447	 1.715893	 -0.589702	 -0.740285	 0.084676	 0.743582	 -0.431320	 0.503864	 1
1463623820.656	 3	 -0.531623	 1.568414	 -0.271651	 1.734848	 -0.591876	 -0.732706	 0.085209	 0.748670	 -0.429280	 0.497947	 1
1463623820.666	 3	 -0.330708	 1.853772	 -0.001107	 1.755387	 -0.591982	 -0.728068	 0.087830	 0.753951	 -0.427277	 0.491201	 1
1463623820.676	 3	 -0.189869	 1.891101	 0.216496	 1.775541	 -0.589842	 -0.725893	 0.091996	 0.758959	 -0.425171	 0.484508	 1
1463623820.686	 3	 -0.294127	 1.864578	 0.330127	 1.795460	 -0.586410	 -0.723700	 0.096483	 0.763852	 -0.422620	 0.478135	 1
1463623820.696	 3	 -0.441240	 1.681810	 0.587622	 1.814699	 -0.580422	 -0.720437	 0.101182	 0.768592	 -0.418976	 0.472745	 1
1463623820.706	 3	 -0.528470	 1.393809	 0.731711	 1.831462	 -0.572297	 -0.716611	 0.105755	 0.772751	 -0.414575	 0.468827	 1
1463623820.716	 3	 -0.567051	 1.133338	 0.731755	 1.845561	 -0.563715	 -0.712592	 0.109780	 0.776285	 -0.410062	 0.466024	 1
1463623820.726	 3	 -0.417922	 0.779320	 0.814554	 1.855932	 -0.554844	 -0.709687	 0.113510	 0.778884	 -0.405871	 0.464461	 1
1463623820.736	 3	 -0.139892	 0.406585	 0.861953	 1.860611	 -0.546032	 -0.710257	 0.117392	 0.779955	 -0.402797	 0.464375	 1
1463623820.746	 3	 -0.000339	 0.207657	 0.767232	 1.861747	 -0.538262	 -0.712675	 0.120950	 0.780078	 -0.400694	 0.465074	 1
1463623820.756	 3	 -0.001003	 0.319284	 0.466665	 1.863624	 -0.533070	 -0.714523	 0.123638	 0.780396	 -0.399270	 0.465058	 1
1463623820.766	 3	 -0.022969	 0.452140	 0.151561	 1.867571	 -0.530802	 -0.715109	 0.125348	 0.781273	 -0.398399	 0.463874	 1
1463623820.776	 3	 0.004985	 0.526421	 -0.153864	 1.872836	 -0.531539	 -0.714758	 0.126035	 0.782514	 -0.398235	 0.461731	 1
1463623820.786	 3	 0.080133	 0.619977	 -0.422220	 1.879062	 -0.535128	 -0.714162	 0.125949	 0.783985	 -0.398916	 0.458662	 1
1463623820.796	 3	 0.214661	 0.819001	 -0.643218	 1.886734	 -0.541296	 -0.714005	 0.125550	 0.785737	 -0.400481	 0.454390	 1
1463623820.806	 3	 0.344907	 1.189724	 -0.802898	 1.897265	 -0.549575	 -0.714683	 0.125431	 0.788039	 -0.402774	 0.448369	 1
1463623820.816	 3	 0.410365	 1.612869	 -0.946606	 1.911887	 -0.559454	 -0.715586	 0.125775	 0.791163	 -0.405408	 0.440325	 1
1463623820.826	 3	 0.436446	 1.845633	 -1.105597	 1.929681	 -0.570937	 -0.716068	 0.126167	 0.794886	 -0.408302	 0.430729	 1
1463623820.836	 3	 0.450010	 1.920955	 -1.273405	 1.948888	 -0.584035	 -0.715760	 0.126116	 0.798796	 -0.411505	 0.420338	 1
1463623820.846	 3	 0.428013	 1.945141	 -1.466957	 1.969244	 -0.598775	 -0.714149	 0.125371	 0.802824	 -0.414956	 0.409350	 1
1463623820.856	 3	 0.412746	 1.850914	 -1.706432	 1.989839	 -0.615513	 -0.710832	 0.123492	 0.806757	 -0.418782	 0.398139	 1
1463623820.866	 3	 0.351793	 1.825730	 -1.976839	 2.011429	 -0.634416	 -0.705214	 0.120359	 0.810724	 -0.422920	 0.386495	 1
1463623820.876	 3	 0.202791	 1.683829	 -2.244368	 2.034395	 -0.655097	 -0.696023	 0.115663	 0.814814	 -0.427028	 0.374629	 1
1463623820.886	 3	 0.070657	 0.916528	 -2.358000	 2.053577	 -0.676365	 -0.683534	 0.108743	 0.818044	 -0.431100	 0.364872	 1
1463623820.896	 3	 0.076818	 -0.286251	 -2.333010	 2.062250	 -0.697397	 -0.670089	 0.099295	 0.819148	 -0.435609	 0.359697	 1
1463623820.906	 3	 0.158407	 -0.926228	 -2.256546	 2.062156	 -0.718112	 -0.657557	 0.088420	 0.818435	 -0.440644	 0.358021	 1
1463623820.916	 3	 0.197280	 -0.806358	 -2.284544	 2.061505	 -0.738973	 -0.645486	 0.077573	 0.817403	 -0.445824	 0.356477	 1
1463623820.926	 3	 0.284396	 -0.495366	 -2.484904	 2.064416	 -0.761575	 -0.632907	 0.066844	 0.816697	 -0.451384	 0.353256	 1
1463623820.936	 3	 0.433010	 -0.210582	 -2.754252	 2.070634	 -0.787048	 -0.619869	 0.055922	 0.816116	 -0.457790	 0.348219	 1
1463623820.946	 3	 0.448913	 0.023280	 -3.059154	 2.081172	 -0.815370	 -0.604969	 0.044524	 0.815768	 -0.464821	 0.341295	 1
1463623820.956	 3	 0.266677	 0.103524	 -3.360562	 2.096790	 -0.845489	 -0.584898	 0.031836	 0.815791	 -0.471635	 0.333214	 1
1463623820.966	 3	 0.113817	 0.277501	 -3.631513	 2.118921	 -0.876878	 -0.558778	 0.018065	 0.816275	 -0.478052	 0.323782	 1
1463623820.976	 3	 0.090457	 0.577088	 -3.689271	 2.147388	 -0.908601	 -0.528580	 0.004313	 0.817056	 -0.484265	 0.312871	 1
1463623820.986	 3	 0.293597	 0.842741	 -3.641674	 2.179835	 -0.940112	 -0.497867	 -0.008312	 0.817684	 -0.490791	 0.300744	 1
1463623820.996	 3	 0.746384	 0.783095	 -3.763405	 2.211677	 -0.973933	 -0.468845	 -0.020594	 0.817069	 -0.498875	 0.288268	 1
1463623821.006	 3	 1.284164	 0.796322	 -4.068510	 2.242825	 -1.012507	 -0.440954	 -0.033274	 0.814735	 -0.509275	 0.275207	 1
1463623821.016	 3	 1.667179	 0.994323	 -4.330048	 2.277250	 -1.055596	 -0.411918	 -0.046053	 0.811047	 -0.521662	 0.260673	 1
1463623821.026	 3	 1.683641	 0.849922	 -4.581989	 2.318669	 -1.100645	 -0.375280	 -0.059758	 0.806520	 -0.534493	 0.245504	 1
1463623821.036	 3	 1.412597	 0.603283	 -4.821721	 2.372304	 -1.145135	 -0.323007	 -0.075370	 0.801650	 -0.546383	 0.230525	 1
1463623821.046	 3	 0.974549	 0.675347	 -5.034651	 2.448217	 -1.186575	 -0.247379	 -0.092314	 0.797258	 -0.556565	 0.214692	 1
1463623821.056	 3	 0.278048	 1.307229	 -5.155927	 2.559864	 -1.220727	 -0.139631	 -0.109210	 0.794574	 -0.564146	 0.196123	 1
1463623821.066	 3	 0.873376	 3.460821	 -4.798962	 2.702061	 -1.249736	 -0.017196	 -0.120718	 0.792601	 -0.572419	 0.171893	 1
1463623821.076	 3	 2.104185	 6.056916	 -4.033092	 2.863243	 -1.284144	 0.089847	 -0.118611	 0.788582	 -0.587478	 0.137621	 1
1463623821.086	 3	 2.048904	 6.065382	 -3.182054	 3.029470	 -1.311015	 0.199432	 -0.112779	 0.784161	 -0.601159	 0.104785	 1
1463623821.096	 3	 1.909769	 5.998822	 -1.857785	 -3.109853	 -1.331678	 0.285831	 -0.102289	 0.779680	 -0.613122	 0.075618	 1
1463623821.106	 3	 1.239233	 5.998056	 -0.328980	 -3.015284	 -1.345429	 0.321302	 -0.086042	 0.776813	 -0.621758	 0.050748	 1
1463623821.116	 3	 0.551180	 5.427628	 0.959144	 -2.983921	 -1.353391	 0.295795	 -0.065752	 0.776007	 -0.626508	 0.031263	 1
1463623821.126	 3	 0.162629	 4.165811	 1.629676	 -3.005100	 -1.358039	 0.227997	 -0.045765	 0.776210	 -0.628538	 0.018550	 1
1463623821.136	 3	 0.147896	 3.009079	 1.982466	 -3.060133	 -1.361265	 0.138477	 -0.028161	 0.776443	 -0.629445	 0.011930	 1
1463623821.146	 3	 0.204016	 2.170309	 2.062630	 -3.133488	 -1.363982	 0.039479	 -0.012769	 0.776212	 -0.630274	 0.009297	 1
1463623821.156	 3	 0.351840	 1.676840	 1.982148	 3.070788	 -1.366482	 -0.059331	 0.000653	 0.775366	 -0.631451	 0.008724	 1
1463623821.166	 3	 0.540452	 1.489311	 1.865790	 2.991735	 -1.369311	 -0.155571	 0.012828	 0.773807	 -0.633231	 0.008809	 1
1463623821.176	 3	 0.639302	 1.348225	 1.664319	 2.916614	 -1.372133	 -0.246283	 0.023866	 0.771766	 -0.635396	 0.008876	 1
1463623821.186	 3	 0.625258	 1.130019	 1.342682	 2.851250	 -1.374649	 -0.325093	 0.033197	 0.769588	 -0.637618	 0.008745	 1
1463623821.196	 3	 0.544309	 0.846340	 0.912310	 2.802175	 -1.376862	 -0.384498	 0.040104	 0.767629	 -0.639583	 0.008380	 1
1463623821.206	 3	 0.441544	 0.533395	 0.397661	 2.774640	 -1.379364	 -0.418732	 0.044091	 0.766065	 -0.641204	 0.007649	 1
1463623821.216	 3	 0.450579	 0.363960	 -0.082521	 2.768834	 -1.383345	 -0.428651	 0.045485	 0.764663	 -0.642793	 0.006142	 1
1463623821.226	 3	 0.521574	 0.307117	 -0.411923	 2.779191	 -1.389277	 -0.421387	 0.045243	 0.763120	 -0.644660	 0.003713	 1
1463623821.236	 3	 0.648609	 0.385909	 -0.495425	 2.796615	 -1.396774	 -0.407378	 0.044549	 0.761241	 -0.646937	 0.000599	 1
1463623821.246	 3	 0.715270	 0.395065	 -0.380823	 2.814591	 -1.404700	 -0.393375	 0.044055	 0.759174	 -0.649389	 -0.002708	 1
1463623821.256	 3	 0.680055	 0.215907	 -0.166899	 2.816816	 -1.412012	 -0.393890	 0.044074	 0.756957	 -0.651961	 -0.004633	 1
1463623821.266	 3	 0.549874	 -0.175787	 0.034150	 2.804976	 -1.417593	 -0.405172	 0.043775	 0.755052	 -0.654186	 -0.004549	 1
1463623821.276	 3	 0.474329	 -0.529299	 0.242539	 2.777565	 -1.421487	 -0.428360	 0.043030	 0.753427	 -0.656118	 -0.002325	 1
1463623821.286	 3	 0.504728	 -0.729684	 0.342723	 2.738244	 -1.424802	 -0.461086	 0.041958	 0.751758	 -0.658101	 0.001246	 1
1463623821.296	 3	 0.640503	 -0.726474	 0.400187	 2.689228	 -1.428674	 -0.503184	 0.041005	 0.749678	 -0.660511	 0.005164	 1
1463623821.306	 3	 0.763429	 -0.689559	 0.406921	 2.632493	 -1.433319	 -0.553431	 0.040241	 0.747137	 -0.663390	 0.008970	 1
1463623821.316	 3	 0.812248	 -0.713392	 0.366841	 2.571460	 -1.438264	 -0.607854	 0.039318	 0.744363	 -0.666496	 0.012705	 1
1463623821.326	 3	 0.828133	 -0.701008	 0.320990	 2.507807	 -1.443154	 -0.664912	 0.038251	 0.741501	 -0.669662	 0.016287	 1
1463623821.336	 3	 0.765526	 -0.582075	 0.269354	 2.445204	 -1.447689	 -0.721801	 0.037290	 0.738723	 -0.672698	 0.019356	 1
1463623821.346	 3	 0.574106	 -0.390488	 0.210989	 2.393164	 -1.450842	 -0.769747	 0.036695	 0.736544	 -0.675046	 0.021648	 1
1463623821.356	 3	 0.395296	 -0.177151	 0.077048	 2.358270	 -1.453197	 -0.802652	 0.036427	 0.735011	 -0.676693	 0.022783	 1
1463623821.366	 3	 0.268007	 -0.106663	 -0.081052	 2.342012	 -1.455593	 -0.817879	 0.035907	 0.734010	 -0.677799	 0.022990	 1
1463623821.376	 3	 0.170937	 -0.267468	 -0.147781	 2.335811	 -1.457941	 -0.821996	 0.034715	 0.733342	 -0.678574	 0.023267	 1
1463623821.386	 3	 0.110001	 -0.528828	 -0.132630	 2.331978	 -1.459777	 -0.821180	 0.032643	 0.732902	 -0.679110	 0.024477	 1
1463623821.396	 3	 0.148007	 -0.678371	 -0.058683	 2.321961	 -1.461274	 -0.824631	 0.030118	 0.732388	 -0.679701	 0.026589	 1
1463623821.416	 4	 0.266278	 -0.318930	 0.274018	 2.258900	 -1.462221	 -0.878217	 0.028003	 0.730496	 -0.681630	 0.031163	 1
1463623821.426	 4	 0.221166	 0.006169	 0.352039	 2.222499	 -1.461013	 -0.914003	 0.028987	 0.729648	 -0.682431	 0.032581	 1
1463623821.436	 4	 0.271902	 0.535030	 0.406609	 2.187215	 -1.459338	 -0.953409	 0.031784	 0.728794	 -0.683224	 0.032468	 1
1463623821.446	 4	 0.361014	 1.105883	 0.400488	 2.151329	 -1.457873	 -0.999318	 0.036661	 0.727707	 -0.684238	 0.030269	 1
1463623821.456	 4	 0.428552	 1.155975	 0.148846	 2.122675	 -1.458129	 -1.040260	 0.041656	 0.726455	 -0.685435	 0.026590	 1
1463623821.466	 4	 0.527388	 0.621881	 -0.126622	 2.093596	 -1.461305	 -1.077129	 0.044085	 0.724801	 -0.687144	 0.023517	 1
1463623821.476	 4	 0.438514	 0.261258	 -0.302914	 2.071077	 -1.465905	 -1.103183	 0.044344	 0.723287	 -0.688794	 0.021277	 1
1463623821.486	 4	 0.257422	 -0.050462	 -0.387367	 2.062736	 -1.470658	 -1.111836	 0.043109	 0.722324	 -0.689926	 0.019819	 1
1463623821.496	 4	 0.046746	 -0.419551	 -0.328219	 2.067365	 -1.474243	 -1.103955	 0.040738	 0.722014	 -0.690396	 0.019743	 1
1463623821.506	 4	 -0.164213	 -0.910421	 -0.195598	 2.081538	 -1.475671	 -1.081921	 0.037229	 0.722377	 -0.690153	 0.021785	 1
1463623821.516	 4	 -0.268181	 -1.511659	 -0.132079	 2.097973	 -1.475681	 -1.051744	 0.031989	 0.723095	 -0.689508	 0.026251	 1
1463623821.526	 4	 -0.319709	 -1.986239	 -0.181874	 2.115439	 -1.475489	 -1.015218	 0.024852	 0.723903	 -0.688684	 0.032576	 1
1463623821.536	 4	 -0.405263	 -2.097921	 -0.363348	 2.145954	 -1.476103	 -0.963663	 0.016496	 0.724875	 -0.687573	 0.039079	 1
1463623821.546	 4	 -0.544242	 -2.160007	 -0.620630	 2.201766	 -1.477797	 -0.886195	 0.007071	 0.726183	 -0.685994	 0.044949	 1
1463623821.556	 4	 -0.779557	 -2.457319	 -0.940011	 2.297720	 -1.479976	 -0.765935	 -0.004384	 0.728092	 -0.683591	 0.050655	 1
1463623821.566	 4	 -0.824797	 -2.377806	 -1.140306	 2.425046	 -1.481792	 -0.613629	 -0.016921	 0.730224	 -0.680719	 0.055748	 1
1463623821.576	 4	 -0.833006	 -2.219010	 -1.246399	 2.568814	 -1.482558	 -0.446717	 -0.029279	 0.732238	 -0.677794	 0.059715	 1
1463623821.586	 4	 -0.911735	 -2.145582	 -1.272740	 2.719886	 -1.480777	 -0.273306	 -0.041531	 0.734361	 -0.674533	 0.063201	 1
1463623821.596	 4	 -0.957630	 -1.954767	 -1.232197	 2.861572	 -1.476122	 -0.110828	 -0.053183	 0.736612	 -0.670966	 0.066178	 1
1463623821.606	 4	 -0.964607	 -1.710436	 -1.129681	 2.980397	 -1.469251	 0.026336	 -0.063702	 0.738898	 -0.667289	 0.068538	 1
1463623821.616	 4	 -1.017621	 -1.555869	 -0.957259	 3.069410	 -1.460475	 0.131806	 -0.073048	 0.741330	 -0.663395	 0.070724	 1
1463623821.626	 4	 -1.124229	 -1.485935	 -0.743594	 3.127140	 -1.449877	 0.205020	 -0.081363	 0.744101	 -0.659038	 0.073233	 1
1463623821.646	 5	 -1.424476	 -1.550400	 -0.221487	 -3.122173	 -1.423651	 0.269544	 -0.095447	 0.751121	 -0.648251	 0.080480	 1
1463623821.656	 5	 -1.556806	 -1.593421	 0.098993	 -3.140377	 -1.408355	 0.267275	 -0.101158	 0.755401	 -0.641696	 0.085801	 1
1463623821.666	 5	 -1.359824	 -0.686687	 0.252791	 3.120709	 -1.394012	 0.254558	 -0.103973	 0.759673	 -0.635681	 0.089420	 1
1463623821.676	 5	 -0.994861	 0.231063	 0.233640	 3.108840	 -1.383025	 0.242488	 -0.103517	 0.763262	 -0.631411	 0.089639	 1
1463623821.686	 5	 -0.692647	 1.041998	 0.126650	 3.110967	 -1.375477	 0.235859	 -0.100553	 0.766083	 -0.628916	 0.086428	 1
1463623821.696	 5	 -0.759689	 1.327080	 0.104308	 3.119607	 -1.368260	 0.231519	 -0.096405	 0.768934	 -0.626747	 0.081454	 1
1463623821.706	 5	 -1.086964	 1.151682	 0.132170	 3.126806	 -1.358266	 0.226422	 -0.092515	 0.772591	 -0.623431	 0.076672	 1
1463623821.716	 5	 -1.448568	 0.665154	 0.216052	 3.127242	 -1.344628	 0.218626	 -0.089794	 0.777205	 -0.618452	 0.073523	 1
1463623821.726	 5	 -1.704185	 -0.054997	 0.393822	 3.115506	 -1.328075	 0.205157	 -0.088629	 0.782481	 -0.611958	 0.073320	 1
1463623821.736	 5	 -1.850446	 -0.895649	 0.572715	 3.090773	 -1.309708	 0.186627	 -0.089286	 0.787989	 -0.604320	 0.076795	 1
1463623821.746	 5	 -1.895271	 -1.888174	 0.676840	 3.055614	 -1.290348	 0.166985	 -0.092324	 0.793321	 -0.595826	 0.084321	 1
1463623821.756	 5	 -1.607888	 -2.992695	 0.724809	 3.010503	 -1.272660	 0.148387	 -0.098305	 0.797462	 -0.587436	 0.096488	 1
1463623821.766	 5	 -1.156896	 -3.475286	 0.653511	 2.961220	 -1.259072	 0.132512	 -0.106209	 0.799739	 -0.580270	 0.111462	 1
1463623821.776	 5	 -0.805004	 -2.927763	 0.470100	 2.919795	 -1.249384	 0.121821	 -0.113679	 0.800725	 -0.574712	 0.124987	 1
1463623821.786	 5	 -0.588402	 -1.657594	 0.294591	 2.894583	 -1.242421	 0.116286	 -0.118472	 0.801450	 -0.570789	 0.133570	 1
1463623821.796	 5	 -0.412142	 -0.403798	 0.191752	 2.884864	 -1.237486	 0.113406	 -0.119916	 0.802400	 -0.568405	 0.136713	 1
1463623821.806	 5	 -0.290348	 0.571872	 0.141154	 2.886414	 -1.234036	 0.111396	 -0.118545	 0.803625	 -0.567235	 0.135569	 1
1463623821.816	 5	 -0.195395	 1.264891	 0.116934	 2.895707	 -1.231608	 0.109491	 -0.115059	 0.805058	 -0.566919	 0.131325	 1
1463623821.826	 5	 -0.078184	 1.697280	 0.095425	 2.909743	 -1.230306	 0.107338	 -0.110168	 0.806455	 -0.567317	 0.125075	 1
1463623821.836	 5	 0.056082	 1.879839	 0.097020	 2.925467	 -1.230323	 0.104418	 -0.104526	 0.807562	 -0.568346	 0.117901	 1
1463623821.846	 5	 0.204287	 1.813787	 0.142009	 2.939444	 -1.231665	 0.099619	 -0.098648	 0.808218	 -0.569876	 0.110877	 1
1463623821.856	 5	 0.390645	 1.452057	 0.203097	 2.947869	 -1.234666	 0.092040	 -0.093260	 0.808168	 -0.571911	 0.105282	 1
1463623821.866	 5	 0.563440	 0.932927	 0.260708	 2.948642	 -1.239323	 0.081573	 -0.088935	 0.807335	 -0.574381	 0.101922	 1
1463623821.876	 5	 0.686056	 0.420229	 0.304960	 2.941828	 -1.245210	 0.068627	 -0.085846	 0.805843	 -0.577126	 0.100864	 1
1463623821.886	 5	 0.753553	 0.001168	 0.332446	 2.928768	 -1.251776	 0.053780	 -0.083865	 0.803895	 -0.579979	 0.101709	 1
1463623821.896	 5	 0.772078	 -0.383793	 0.348952	 2.910296	 -1.258535	 0.037479	 -0.082950	 0.801645	 -0.582771	 0.104227	 1
1463623821.906	 5	 0.712204	 -0.399639	 0.339734	 2.890065	 -1.264866	 0.020727	 -0.082433	 0.799410	 -0.585360	 0.107245	 1
1463623821.916	 5	 0.401619	 0.088032	 0.288359	 2.876073	 -1.268886	 0.006653	 -0.081115	 0.798049	 -0.587155	 0.108565	 1
1463623821.926	 5	 0.063983	 0.523439	 0.205827	 2.872319	 -1.269603	 -0.001873	 -0.078854	 0.797977	 -0.587752	 0.107531	 1
1463623821.936	 5	 -0.091512	 0.618309	 0.171827	 2.873501	 -1.268542	 -0.007025	 -0.076392	 0.798551	 -0.587649	 0.105588	 1
1463623821.946	 5	 -0.138591	 0.565498	 0.203719	 2.874557	 -1.266768	 -0.012031	 -0.073985	 0.799315	 -0.587243	 0.103769	 1
1463623821.956	 5	 -0.114256	 0.469086	 0.265490	 2.872884	 -1.264913	 -0.018979	 -0.071593	 0.800024	 -0.586799	 0.102478	 1
1463623821.966	 5	 -0.045326	 0.352099	 0.294708	 2.868406	 -1.263519	 -0.027698	 -0.069337	 0.800510	 -0.586531	 0.101774	 1
1463623821.976	 5	 0.030729	 0.200720	 0.277717	 2.862111	 -1.262859	 -0.036812	 -0.067495	 0.800694	 -0.586515	 0.101652	 1
1463623821.986	 5	 0.069493	 0.081193	 0.237899	 2.855093	 -1.262780	 -0.045302	 -0.066150	 0.800643	 -0.586682	 0.101975	 1
1463623821.996	 5	 0.046501	 -0.007317	 0.196777	 2.848563	 -1.262727	 -0.052319	 -0.065253	 0.800555	 -0.586805	 0.102534	 1
1463623822.006	 5	 -0.029621	 -0.083659	 0.198861	 2.842109	 -1.262076	 -0.058364	 -0.064683	 0.800608	 -0.586647	 0.103379	 1
1463623822.016	 5	 -0.107038	 -0.011898	 0.236439	 2.835778	 -1.260533	 -0.064606	 -0.063932	 0.800927	 -0.586154	 0.104172	 1
1463623822.026	 5	 -0.120231	 0.131731	 0.236824	 2.830734	 -1.258651	 -0.070880	 -0.062761	 0.801406	 -0.585573	 0.104465	 1
1463623822.036	 5	 -0.078978	 0.312147	 0.198711	 2.828078	 -1.257131	 -0.076456	 -0.061192	 0.801879	 -0.585177	 0.103989	 1
1463623822.046	 5	 0.003570	 0.452836	 0.125763	 2.828226	 -1.256489	 -0.080767	 -0.059372	 0.802201	 -0.585150	 0.102708	 1
1463623822.056	 5	 0.091762	 0.451883	 0.030134	 2.830572	 -1.256999	 -0.083147	 -0.057769	 0.802243	 -0.585542	 0.101039	 1
1463623822.066	 5	 0.146844	 0.400360	 -0.012390	 2.833598	 -1.258317	 -0.084281	 -0.056526	 0.802048	 -0.586209	 0.099411	 1
1463623822.076	 5	 0.162654	 0.359884	 -0.013970	 2.836219	 -1.259889	 -0.085431	 -0.055412	 0.801757	 -0.586964	 0.097926	 1
1463623822.086	 5	 0.148486	 0.289793	 -0.004907	 2.838095	 -1.261381	 -0.086693	 -0.054466	 0.801452	 -0.587669	 0.096711	 1
1463623822.096	 5	 0.109782	 0.226119	 -0.000899	 2.839430	 -1.262537	 -0.087814	 -0.053709	 0.801213	 -0.588217	 0.095775	 1
1463623822.106	 5	 0.072400	 0.210353	 0.009937	 2.840614	 -1.263291	 -0.088802	 -0.053021	 0.801078	 -0.588595	 0.094964	 1
1463623822.116	 5	 0.039314	 0.210445	 0.009160	 2.841923	 -1.263709	 -0.089636	 -0.052332	 0.801042	 -0.588835	 0.094168	 1
1463623822.126	 5	 0.017874	 0.227237	 -0.038589	 2.876273	 -1.269949	 -0.058946	 -0.054907	 0.799978	 -0.590828	 0.089117	 1
1463623822.136	 5	 0.041150	 0.220476	 -0.081485	 2.880464	 -1.270477	 -0.056839	 -0.054544	 0.799952	 -0.591059	 0.088037	 1
1463623822.146	 5	 0.091665	 0.307446	 -0.094970	 2.885574	 -1.271449	 -0.054474	 -0.054037	 0.799827	 -0.591481	 0.086644	 1
1463623822.156	 5	 0.145304	 0.382668	 -0.113921	 2.891579	 -1.273018	 -0.052040	 -0.053326	 0.799559	 -0.592163	 0.084888	 1
1463623822.166	 5	 0.171908	 0.378280	 -0.127054	 2.918239	 -1.276436	 -0.029980	 -0.054424	 0.799061	 -0.593329	 0.080623	 1
1463623822.176	 5	 0.160958	 0.319810	 -0.127503	 2.924571	 -1.278346	 -0.026888	 -0.053871	 0.798665	 -0.594138	 0.078938	 1
1463623822.186	 5	 0.119899	 0.201991	 -0.111174	 2.929141	 -1.277526	 -0.024507	 -0.053426	 0.799023	 -0.593841	 0.077851	 1
1463623822.196	 5	 0.056386	 0.058814	 -0.077806	 2.921999	 -1.276503	 -0.032051	 -0.052483	 0.799246	 -0.593539	 0.078504	 1
1463623822.206	 5	 -0.006990	 -0.061962	 -0.037879	 2.923146	 -1.276691	 -0.030504	 -0.052770	 0.799195	 -0.593583	 0.078497	 1
1463623822.216	 5	 -0.046625	 -0.378294	 0.031994	 2.920302	 -1.276317	 -0.030566	 -0.053571	 0.799195	 -0.593361	 0.079630	 1
1463623822.226	 5	 -0.133020	 -0.636139	 0.081504	 2.912911	 -1.275064	 -0.032221	 -0.055039	 0.799311	 -0.592728	 0.082142	 1
1463623822.236	 5	 -0.190249	 -0.774274	 0.075355	 2.911406	 -1.274976	 -0.026641	 -0.057711	 0.799116	 -0.592418	 0.084401	 1
1463623822.246	 5	 -0.221456	 -0.819996	 0.064543	 2.902755	 -1.272739	 -0.027175	 -0.059943	 0.799419	 -0.591295	 0.087790	 1
1463623822.256	 5	 -0.232882	 -0.760341	 0.072658	 2.894562	 -1.270327	 -0.027566	 -0.062080	 0.799774	 -0.590100	 0.091050	 1
1463623822.266	 5	 -0.222627	 -0.631597	 0.083359	 2.887189	 -1.267938	 -0.028317	 -0.063822	 0.800157	 -0.588949	 0.093879	 1
1463623822.276	 5	 -0.198566	 -0.513551	 0.089553	 2.886540	 -1.266456	 -0.023890	 -0.065703	 0.800417	 -0.588127	 0.095505	 1
1463623822.286	 5	 -0.181188	 -0.460326	 0.102686	 2.880325	 -1.264427	 -0.025491	 -0.066776	 0.800764	 -0.587189	 0.097610	 1
1463623822.296	 5	 -0.182168	 -0.469656	 0.135646	 2.873311	 -1.262352	 -0.027985	 -0.067716	 0.801107	 -0.586247	 0.099779	 1
1463623822.306	 5	 -0.208951	 -0.523545	 0.173745	 2.864987	 -1.259977	 -0.031383	 -0.068652	 0.801495	 -0.585186	 0.102228	 1
1463623822.316	 5	 -0.243371	 -0.608297	 0.207380	 2.851150	 -1.256315	 -0.039371	 -0.069265	 0.802114	 -0.583661	 0.105619	 1
1463623822.326	 5	 -0.280019	 -0.702700	 0.228136	 2.840233	 -1.253080	 -0.043693	 -0.070500	 0.802614	 -0.582220	 0.108906	 1
1463623822.336	 5	 -0.315428	 -0.756726	 0.243928	 2.828658	 -1.249429	 -0.048028	 -0.071875	 0.803179	 -0.580590	 0.112490	 1
1463623822.346	 5	 -0.327043	 -0.744867	 0.261192	 2.816862	 -1.245532	 -0.052507	 -0.073215	 0.803784	 -0.578861	 0.116150	 1
1463623822.356	 5	 -0.324468	 -0.661822	 0.273665	 2.805885	 -1.241450	 -0.056908	 -0.074313	 0.804464	 -0.577085	 0.119532	 1
1463623822.366	 5	 -0.321953	 -0.591541	 0.286021	 2.795196	 -1.237462	 -0.061810	 -0.075111	 0.805133	 -0.575389	 0.122665	 1
1463623822.376	 5	 -0.325199	 -0.587393	 0.270101	 2.785127	 -1.233470	 -0.066293	 -0.075877	 0.805806	 -0.573693	 0.125685	 1
1463623822.386	 5	 -0.324532	 -0.627138	 0.216437	 2.776039	 -1.229608	 -0.069396	 -0.076910	 0.806433	 -0.572000	 0.128712	 1
1463623822.396	 5	 -0.326015	 -0.640541	 0.126785	 2.771947	 -1.226773	 -0.067307	 -0.078682	 0.806881	 -0.570572	 0.131147	 1
1463623822.406	 5	 -0.314593	 -0.631660	 0.036178	 2.767325	 -1.223605	 -0.065480	 -0.080467	 0.807389	 -0.569000	 0.133744	 1
1463623822.416	 5	 -0.290168	 -0.598206	 -0.034063	 2.764672	 -1.220911	 -0.061817	 -0.082470	 0.807813	 -0.567566	 0.136035	 1
1463623822.426	 5	 -0.265450	 -0.530475	 -0.070950	 2.763550	 -1.218637	 -0.057172	 -0.084471	 0.808177	 -0.566290	 0.137954	 1
1463623822.436	 5	 -0.236366	 -0.473145	 -0.074969	 2.768117	 -1.218990	 -0.047779	 -0.087003	 0.807992	 -0.565977	 0.138745	 1
1463623822.446	 5	 -0.207351	 -0.441229	 -0.062135	 2.767433	 -1.217231	 -0.043734	 -0.088685	 0.808257	 -0.564958	 0.140275	 1
1463623822.456	 5	 -0.174113	 -0.424171	 -0.043082	 2.766160	 -1.215716	 -0.040535	 -0.090213	 0.808447	 -0.564067	 0.141786	 1
1463623822.466	 5	 -0.145158	 -0.411346	 -0.022965	 2.764219	 -1.214398	 -0.038184	 -0.091602	 0.808569	 -0.563281	 0.143314	 1
1463623822.476	 5	 -0.124786	 -0.407050	 -0.006016	 2.753649	 -1.213358	 -0.044065	 -0.092113	 0.808364	 -0.562803	 0.145996	 1
1463623822.486	 5	 -0.116197	 -0.400705	 0.007892	 2.750706	 -1.212256	 -0.042919	 -0.093310	 0.808402	 -0.562140	 0.147578	 1
1463623822.496	 5	 -0.110796	 -0.393222	 0.015375	 2.747541	 -1.211163	 -0.042071	 -0.094447	 0.808430	 -0.561489	 0.149166	 1
1463623822.506	 5	 -0.103154	 -0.363408	 0.023047	 2.744374	 -1.210115	 -0.041471	 -0.095488	 0.808455	 -0.560873	 0.150682	 1
1463623822.516	 5	 -0.085775	 -0.300698	 0.024547	 2.740235	 -1.209512	 -0.042330	 -0.096248	 0.808350	 -0.560497	 0.152153	 1
1463623822.526	 5	 -0.059767	 -0.214641	 0.021924	 2.738007	 -1.208808	 -0.042184	 -0.096869	 0.808367	 -0.560095	 0.153140	 1
1463623822.536	 5	 -0.030544	 -0.122242	 0.015069	 2.736528	 -1.208395	 -0.042209	 -0.097237	 0.808369	 -0.559860	 0.153758	 1
1463623822.546	 5	 -0.004538	 -0.034081	 0.009269	 2.735826	 -1.208263	 -0.042362	 -0.097359	 0.808359	 -0.559784	 0.154007	 1
1463623822.556	 5	 0.013961	 0.043492	 0.006625	 2.737394	 -1.208739	 -0.041166	 -0.097446	 0.808290	 -0.559960	 0.153678	 1
1463623822.566	 5	 0.017373	 0.091316	 0.002778	 2.737946	 -1.208879	 -0.041450	 -0.097189	 0.808307	 -0.560065	 0.153366	 1
1463623822.576	 5	 0.018495	 0.103013	 0.002877	 2.738703	 -1.209038	 -0.041730	 -0.096878	 0.808335	 -0.560187	 0.152971	 1
1463623822.586	 5	 0.019508	 0.093422	 0.000647	 2.739451	 -1.209215	 -0.041963	 -0.096590	 0.808354	 -0.560312	 0.152592	 1
1463623822.596	 5	 0.023701	 0.076392	 0.000442	 2.741709	 -1.210427	 -0.040638	 -0.096599	 0.808127	 -0.560807	 0.151972	 1
1463623822.606	 5	 0.027843	 0.055060	 -0.006187	 2.742123	 -1.210686	 -0.040858	 -0.096416	 0.808097	 -0.560947	 0.151726	 1
1463623822.616	 5	 0.034153	 0.039055	 -0.010654	 2.742479	 -1.211027	 -0.040940	 -0.096313	 0.808033	 -0.561108	 0.151537	 1
1463623822.626	 5	 0.033113	 0.035951	 0.001054	 2.741978	 -1.210704	 -0.041780	 -0.096086	 0.808126	 -0.561018	 0.151525	 1
1463623822.636	 5	 0.028936	 0.046685	 0.012923	 2.740680	 -1.209918	 -0.043491	 -0.095690	 0.808327	 -0.560769	 0.151621	 1
1463623822.646	 5	 0.024662	 0.044591	 0.015063	 2.743436	 -1.209876	 -0.041433	 -0.095745	 0.808448	 -0.560729	 0.151087	 1
1463623822.656	 5	 0.014967	 0.027600	 0.013913	 2.746512	 -1.209668	 -0.038936	 -0.095874	 0.808618	 -0.560604	 0.150557	 1
1463623822.666	 5	 0.003098	 0.007379	 0.006358	 2.749693	 -1.209429	 -0.036116	 -0.096103	 0.808788	 -0.560449	 0.150076	 1
1463623822.676	 5	 -0.010879	 -0.010679	 0.003105	 2.752613	 -1.209054	 -0.033325	 -0.096382	 0.808977	 -0.560229	 0.149700	 1
1463623822.686	 5	 -0.018458	 -0.030877	 0.000845	 2.754897	 -1.208493	 -0.030933	 -0.096663	 0.809188	 -0.559935	 0.149480	 1
1463623822.696	 5	 -0.023901	 -0.051083	 -0.001432	 2.756167	 -1.208177	 -0.029285	 -0.096948	 0.809291	 -0.559745	 0.149447	 1
1463623822.706	 5	 -0.028205	 -0.058513	 -0.001469	 2.757317	 -1.208018	 -0.027636	 -0.097280	 0.809341	 -0.559614	 0.149453	 1
1463623822.716	 5	 -0.030333	 -0.054273	 -0.004613	 2.758161	 -1.207809	 -0.026270	 -0.097579	 0.809395	 -0.559469	 0.149505	 1
1463623822.726	 5	 -0.028168	 -0.046840	 -0.005632	 2.759158	 -1.207664	 -0.024832	 -0.097871	 0.809440	 -0.559351	 0.149513	 1
1463623822.736	 5	 -0.027038	 -0.031965	 -0.007639	 2.760129	 -1.207583	 -0.023528	 -0.098120	 0.809471	 -0.559269	 0.149489	 1
1463623822.746	 5	 -0.029087	 -0.015988	 -0.005344	 2.760934	 -1.207519	 -0.022540	 -0.098290	 0.809501	 -0.559209	 0.149443	 1
1463623822.756	 5	 -0.027970	 -0.008521	 -0.002091	 2.761818	 -1.207491	 -0.021571	 -0.098433	 0.809527	 -0.559169	 0.149358	 1
1463623822.766	 5	 -0.026902	 -0.009579	 -0.001049	 2.762783	 -1.207577	 -0.020552	 -0.098583	 0.809525	 -0.559175	 0.149248	 1
1463623822.776	 5	 -0.029054	 -0.015938	 0.001037	 2.763583	 -1.207844	 -0.019635	 -0.098751	 0.809465	 -0.559254	 0.149165	 1
1463623822.786	 5	 -0.025898	 -0.026584	 0.000905	 2.764217	 -1.208298	 -0.018793	 -0.098951	 0.809344	 -0.559405	 0.149118	 1
1463623822.796	 5	 -0.021654	 -0.032978	 0.000802	 2.764762	 -1.208780	 -0.017963	 -0.099173	 0.809210	 -0.559565	 0.149102	 1
1463623822.806	 5	 -0.016299	 -0.029802	 0.000780	 2.765243	 -1.209178	 -0.017198	 -0.099379	 0.809097	 -0.559692	 0.149099	 1
1463623822.816	 5	 -0.008790	 -0.023434	 0.001835	 2.765657	 -1.209576	 -0.016563	 -0.099552	 0.808985	 -0.559826	 0.149087	 1
1463623822.826	 5	 -0.000218	 -0.017077	 0.001814	 2.766050	 -1.210094	 -0.016026	 -0.099700	 0.808843	 -0.560015	 0.149049	 1
1463623822.836	 5	 0.006243	 -0.006451	 0.002918	 2.766458	 -1.210578	 -0.015568	 -0.099809	 0.808716	 -0.560197	 0.148985	 1
1463623822.846	 5	 0.012711	 0.007350	 0.001919	 2.766927	 -1.211126	 -0.015183	 -0.099877	 0.808579	 -0.560413	 0.148872	 1
1463623822.856	 5	 0.015985	 0.022233	 0.002026	 2.767318	 -1.211547	 -0.015017	 -0.099867	 0.808482	 -0.560590	 0.148737	 1
1463623822.866	 5	 0.019245	 0.030764	 0.006338	 2.767548	 -1.211835	 -0.015111	 -0.099787	 0.808423	 -0.560724	 0.148601	 1
1463623822.876	 5	 0.014977	 0.030777	 0.006375	 2.767775	 -1.211988	 -0.015233	 -0.099686	 0.808404	 -0.560806	 0.148467	 1
1463623822.886	 5	 0.006411	 0.026533	 0.004276	 2.768305	 -1.212113	 -0.015025	 -0.099632	 0.808398	 -0.560868	 0.148304	 1
1463623822.896	 5	 0.003200	 0.026528	 0.002170	 2.768899	 -1.212140	 -0.014729	 -0.099587	 0.808419	 -0.560886	 0.148146	 1
1463623822.906	 5	 0.002127	 0.025468	 0.002169	 2.769416	 -1.212124	 -0.014499	 -0.099534	 0.808451	 -0.560888	 0.148002	 1
1463623822.916	 5	 0.001045	 0.023337	 0.001092	 2.769850	 -1.212103	 -0.014318	 -0.099484	 0.808480	 -0.560888	 0.147879	 1
1463623822.926	 5	 -0.001085	 0.025464	 0.000063	 2.770489	 -1.211994	 -0.013954	 -0.099443	 0.808539	 -0.560849	 0.147729	 1
1463623822.936	 5	 -0.004266	 0.031841	 -0.001983	 2.771328	 -1.211867	 -0.013436	 -0.099407	 0.808611	 -0.560801	 0.147541	 1
1463623822.946	 5	 -0.005314	 0.037155	 -0.002992	 2.772238	 -1.211760	 -0.012912	 -0.099356	 0.808682	 -0.560765	 0.147326	 1
1463623822.956	 5	 -0.007478	 0.032892	 -0.005146	 2.773090	 -1.211705	 -0.012409	 -0.099316	 0.808735	 -0.560748	 0.147126	 1
1463623822.966	 5	 -0.007518	 0.024384	 -0.005226	 2.773889	 -1.211686	 -0.011894	 -0.099298	 0.808774	 -0.560742	 0.146948	 1
1463623822.976	 5	 -0.004391	 0.010532	 -0.007517	 2.774724	 -1.211736	 -0.011222	 -0.099340	 0.808787	 -0.560754	 0.146796	 1
1463623822.986	 5	 -0.008709	 -0.000091	 -0.007581	 2.775489	 -1.211798	 -0.010496	 -0.099424	 0.808790	 -0.560764	 0.146687	 1
1463623822.996	 5	 -0.007666	 -0.004356	 -0.008698	 2.776179	 -1.211870	 -0.009777	 -0.099527	 0.808785	 -0.560775	 0.146606	 1
1463623823.006	 5	 -0.003378	 -0.001170	 -0.007641	 2.776501	 -1.211909	 -0.009418	 -0.099584	 0.808780	 -0.560780	 0.146574	 1
1463623823.016	 5	 -0.002274	 0.003113	 -0.003349	 2.776863	 -1.211864	 -0.009076	 -0.099618	 0.808802	 -0.560755	 0.146526	 1
1463623823.026	 5	 -0.002230	 0.010574	 -0.001148	 2.777069	 -1.211840	 -0.008949	 -0.099610	 0.808817	 -0.560746	 0.146479	 1
1463623823.036	 5	 -0.003262	 0.019080	 -0.002127	 2.777535	 -1.211827	 -0.008658	 -0.099596	 0.808840	 -0.560743	 0.146374	 1
1463623823.046	 5	 -0.002159	 0.027578	 -0.003124	 2.777976	 -1.211810	 -0.008472	 -0.099546	 0.808868	 -0.560745	 0.146248	 1
1463623823.056	 5	 0.000005	 0.032897	 -0.002026	 2.778192	 -1.211787	 -0.008562	 -0.099448	 0.808895	 -0.560752	 0.146137	 1
1463623823.066	 5	 0.003220	 0.033966	 0.000088	 2.778400	 -1.211766	 -0.008687	 -0.099337	 0.808922	 -0.560763	 0.146019	 1
1463623823.076	 5	 0.004269	 0.028660	 0.002163	 2.778419	 -1.211742	 -0.008967	 -0.099216	 0.808944	 -0.560775	 0.145934	 1
1463623823.086	 5	 0.002111	 0.019132	 0.007422	 2.778422	 -1.211772	 -0.009187	 -0.099129	 0.808947	 -0.560803	 0.145869	 1
1463623823.096	 5	 0.004245	 0.017013	 0.009516	 2.778159	 -1.211799	 -0.009624	 -0.099028	 0.808942	 -0.560833	 0.145852	 1
1463623823.106	 5	 0.010694	 0.020238	 0.016950	 2.777699	 -1.211927	 -0.010294	 -0.098896	 0.808906	 -0.560911	 0.145843	 1
1463623823.116	 5	 0.020421	 0.037296	 0.026619	 2.776590	 -1.212153	 -0.011728	 -0.098644	 0.808832	 -0.561052	 0.145877	 1
1463623823.126	 5	 0.034476	 0.066048	 0.037425	 2.775235	 -1.212487	 -0.013698	 -0.098253	 0.808737	 -0.561264	 0.145854	 1
1463623823.136	 5	 0.046409	 0.097991	 0.047212	 2.773936	 -1.212899	 -0.015959	 -0.097735	 0.808638	 -0.561531	 0.145722	 1
1463623823.146	 5	 0.054020	 0.129855	 0.044246	 2.773243	 -1.213391	 -0.017970	 -0.097155	 0.808548	 -0.561842	 0.145410	 1
1463623823.156	 5	 0.057253	 0.146771	 0.031584	 2.773451	 -1.213948	 -0.019308	 -0.096599	 0.808472	 -0.562174	 0.144919	 1
1463623823.166	 5	 0.048805	 0.179649	 0.014906	 2.775019	 -1.214466	 -0.019557	 -0.096098	 0.808453	 -0.562477	 0.144186	 1
1463623823.176	 5	 0.045267	 0.129491	 -0.010049	 2.777095	 -1.215004	 -0.019015	 -0.095774	 0.808425	 -0.562754	 0.143469	 1
1463623823.186	 5	 0.022594	 0.074249	 -0.010371	 2.778843	 -1.215437	 -0.018192	 -0.095648	 0.808390	 -0.562953	 0.142971	 1
1463623823.196	 5	 -0.003125	 0.049879	 -0.008246	 2.780187	 -1.215539	 -0.017423	 -0.095589	 0.808421	 -0.563004	 0.142638	 1
1463623823.206	 5	 -0.019267	 0.025432	 -0.012598	 2.781361	 -1.215425	 -0.016567	 -0.095596	 0.808495	 -0.562953	 0.142411	 1
1463623823.216	 5	 -0.043990	 -0.021217	 -0.002165	 2.782507	 -1.215233	 -0.015375	 -0.095741	 0.808573	 -0.562846	 0.142294	 1
1463623823.226	 5	 -0.039859	 -0.046785	 -0.006711	 2.783900	 -1.215068	 -0.013583	 -0.096061	 0.808633	 -0.562718	 0.142243	 1
1463623823.236	 5	 -0.023756	 -0.009750	 -0.026760	 2.785146	 -1.214952	 -0.012121	 -0.096293	 0.808684	 -0.562627	 0.142157	 1
1463623823.246	 5	 -0.008702	 0.015719	 -0.028790	 2.786613	 -1.215088	 -0.010735	 -0.096450	 0.808683	 -0.562655	 0.141947	 1
1463623823.256	 5	 -0.007496	 0.037059	 -0.019012	 2.787899	 -1.215128	 -0.009767	 -0.096483	 0.808716	 -0.562664	 0.141697	 1
1463623823.266	 5	 0.002038	 0.027412	 -0.025582	 2.789116	 -1.215263	 -0.008823	 -0.096532	 0.808719	 -0.562710	 0.141463	 1
1463623823.276	 5	 0.001042	 0.050747	 -0.034949	 2.790608	 -1.215368	 -0.007723	 -0.096564	 0.808742	 -0.562747	 0.141164	 1
1463623823.286	 5	 -0.007391	 0.070998	 -0.032558	 2.792528	 -1.215407	 -0.006426	 -0.096552	 0.808804	 -0.562764	 0.140751	 1
1463623823.296	 5	 -0.006322	 0.076275	 -0.037847	 2.794429	 -1.215388	 -0.005219	 -0.096504	 0.808884	 -0.562764	 0.140322	 1
1463623823.306	 5	 -0.000927	 0.093247	 -0.041997	 2.796317	 -1.215253	 -0.004146	 -0.096397	 0.809003	 -0.562725	 0.139868	 1
1463623823.316	 5	 0.008774	 0.107107	 -0.033423	 2.797849	 -1.215187	 -0.003579	 -0.096190	 0.809101	 -0.562732	 0.139410	 1
1463623823.326	 5	 0.019471	 0.107128	 -0.026053	 2.799374	 -1.215234	 -0.003091	 -0.095962	 0.809170	 -0.562791	 0.138928	 1
1463623823.336	 5	 0.029050	 0.099678	 -0.023010	 2.801081	 -1.215443	 -0.002394	 -0.095778	 0.809197	 -0.562909	 0.138424	 1
1463623823.346	 5	 0.035428	 0.103839	 -0.033690	 2.803406	 -1.215817	 -0.001114	 -0.095668	 0.809191	 -0.563083	 0.137825	 1
1463623823.356	 5	 0.040774	 0.122832	 -0.052748	 2.806252	 -1.216252	 0.000576	 -0.095580	 0.809183	 -0.563279	 0.137129	 1
1463623823.366	 5	 0.038781	 0.162119	 -0.063026	 2.809737	 -1.216731	 0.002566	 -0.095436	 0.809191	 -0.563503	 0.136257	 1
1463623823.376	 5	 0.038892	 0.179200	 -0.054344	 2.813043	 -1.217125	 0.004170	 -0.095180	 0.809228	 -0.563711	 0.135353	 1
1463623823.386	 5	 0.041170	 0.207928	 -0.051965	 2.816035	 -1.217621	 0.005234	 -0.094799	 0.809239	 -0.563982	 0.134420	 1
1463623823.396	 5	 0.050976	 0.250446	 -0.051653	 2.819259	 -1.218186	 0.006118	 -0.094285	 0.809254	 -0.564304	 0.133339	 1
1463623823.406	 5	 0.059595	 0.263223	 -0.046281	 2.822644	 -1.218891	 0.006931	 -0.093704	 0.809241	 -0.564695	 0.132168	 1
1463623823.416	 5	 0.071156	 0.229119	 -0.050961	 2.825555	 -1.219790	 0.007500	 -0.093169	 0.809152	 -0.565157	 0.131111	 1
1463623823.426	 5	 0.074135	 0.187579	 -0.057766	 2.828073	 -1.220675	 0.008125	 -0.092766	 0.809037	 -0.565592	 0.130231	 1
1463623823.436	 5	 0.069782	 0.168461	 -0.055774	 2.830675	 -1.221411	 0.009074	 -0.092460	 0.808953	 -0.565949	 0.129415	 1
1463623823.446	 5	 0.055978	 0.182347	 -0.053393	 2.833617	 -1.221874	 0.010310	 -0.092156	 0.808954	 -0.566192	 0.128556	 1
1463623823.456	 5	 0.041320	 0.238805	 -0.047411	 2.837031	 -1.222086	 0.011538	 -0.091698	 0.809056	 -0.566356	 0.127513	 1
1463623823.466	 5	 0.034129	 0.293121	 -0.040446	 2.840655	 -1.222309	 0.012397	 -0.091033	 0.809184	 -0.566558	 0.126281	 1
1463623823.476	 5	 0.040660	 0.309157	 -0.026499	 2.844361	 -1.222648	 0.013055	 -0.090269	 0.809290	 -0.566822	 0.124955	 1
1463623823.486	 5	 0.038598	 0.312464	 -0.011531	 2.847849	 -1.223005	 0.013413	 -0.089446	 0.809389	 -0.567101	 0.123631	 1
1463623823.496	 5	 0.023998	 0.363757	 0.015721	 2.850873	 -1.222796	 0.012982	 -0.088402	 0.809654	 -0.567177	 0.122293	 1
1463623823.506	 5	 -0.000131	 0.443605	 0.031681	 2.854444	 -1.222434	 0.012215	 -0.087058	 0.810007	 -0.567234	 0.120643	 1
1463623823.516	 5	 -0.002261	 0.461549	 0.011611	 2.859564	 -1.222391	 0.012630	 -0.085771	 0.810308	 -0.567413	 0.118689	 1
1463623823.526	 5	 0.004826	 0.421818	 -0.037850	 2.865301	 -1.222620	 0.014011	 -0.084716	 0.810522	 -0.567669	 0.116747	 1
1463623823.536	 5	 0.000217	 0.374814	 -0.068091	 2.871162	 -1.222910	 0.016087	 -0.083909	 0.810691	 -0.567913	 0.114951	 1
1463623823.546	 5	 -0.011744	 0.332264	 -0.073713	 2.876717	 -1.223109	 0.018341	 -0.083255	 0.810857	 -0.568097	 0.113332	 1
1463623823.556	 5	 -0.018261	 0.303602	 -0.068595	 2.881846	 -1.223218	 0.020493	 -0.082677	 0.811026	 -0.568234	 0.111860	 1
1463623823.566	 5	 -0.012014	 0.275883	 -0.075307	 2.887482	 -1.223444	 0.023380	 -0.082257	 0.811155	 -0.568397	 0.110387	 1
1463623823.576	 5	 0.016645	 0.248096	 -0.082213	 2.892592	 -1.223959	 0.026054	 -0.081914	 0.811179	 -0.568670	 0.109059	 1
1463623823.586	 5	 0.026245	 0.240677	 -0.074908	 2.897316	 -1.224572	 0.028460	 -0.081574	 0.811161	 -0.568982	 0.107809	 1
1463623823.596	 5	 0.014428	 0.230024	 -0.082373	 2.902867	 -1.225174	 0.031727	 -0.081347	 0.811153	 -0.569277	 0.106470	 1
1463623823.606	 5	 0.000181	 0.173498	 -0.109419	 2.907530	 -1.225438	 0.034664	 -0.081222	 0.811205	 -0.569419	 0.105408	 1
1463623823.616	 5	 -0.001214	 0.122290	 -0.131198	 2.912264	 -1.225716	 0.038288	 -0.081355	 0.811227	 -0.569534	 0.104512	 1
1463623823.626	 5	 -0.010969	 0.103065	 -0.146213	 2.917239	 -1.225960	 0.042429	 -0.081628	 0.811247	 -0.569621	 0.103668	 1
1463623823.636	 5	 -0.027117	 0.074380	 -0.148476	 2.922878	 -1.226399	 0.047472	 -0.082085	 0.811206	 -0.569770	 0.102807	 1
1463623823.646	 5	 -0.032515	 0.042648	 -0.126343	 2.927176	 -1.226371	 0.051513	 -0.082498	 0.811268	 -0.569728	 0.102215	 1
1463623823.656	 5	 -0.014311	 0.041653	 -0.109459	 2.930715	 -1.226408	 0.054852	 -0.082846	 0.811300	 -0.569719	 0.101731	 1
1463623823.666	 5	 0.024085	 0.042555	 -0.116179	 2.934172	 -1.226776	 0.058073	 -0.083180	 0.811236	 -0.569849	 0.101239	 1
1463623823.676	 5	 0.066660	 0.023223	 -0.125269	 2.939205	 -1.228593	 0.062900	 -0.083763	 0.810766	 -0.570556	 0.100543	 1
1463623823.686	 5	 0.099704	 -0.004362	 -0.102367	 2.941502	 -1.229702	 0.065356	 -0.084138	 0.810459	 -0.570980	 0.100295	 1
1463623823.696	 5	 0.140246	 0.023973	 -0.138692	 2.944491	 -1.231231	 0.068362	 -0.084549	 0.810041	 -0.571578	 0.099920	 1
1463623823.706	 5	 0.172334	 0.059864	 -0.163150	 2.948518	 -1.233166	 0.072086	 -0.084963	 0.809524	 -0.572351	 0.099328	 1
1463623823.716	 5	 0.189541	 0.080082	 -0.154579	 2.951475	 -1.235337	 0.074548	 -0.085174	 0.808938	 -0.573238	 0.098809	 1
1463623823.726	 5	 0.192755	 0.052679	 -0.118626	 2.954692	 -1.237466	 0.077301	 -0.085422	 0.808362	 -0.574104	 0.098273	 1
1463623823.736	 5	 0.177783	 0.004158	 -0.068856	 2.956193	 -1.239421	 0.078700	 -0.085608	 0.807809	 -0.574894	 0.098046	 1
1463623823.746	 5	 0.152139	 -0.049603	 -0.012648	 2.955748	 -1.241028	 0.078615	 -0.085744	 0.807324	 -0.575531	 0.098184	 1
1463623823.756	 5	 0.130725	 -0.113991	 0.046625	 2.952614	 -1.242162	 0.076390	 -0.085779	 0.806935	 -0.575967	 0.098795	 1
1463623823.766	 5	 0.109265	 -0.178463	 0.094172	 2.947982	 -1.243126	 0.073203	 -0.085855	 0.806562	 -0.576316	 0.099733	 1
1463623823.776	 5	 0.098480	 -0.245072	 0.144802	 2.941313	 -1.243850	 0.068580	 -0.085934	 0.806215	 -0.576555	 0.101079	 1
1463623823.786	 5	 0.093063	 -0.295818	 0.184876	 2.932720	 -1.244420	 0.062547	 -0.085998	 0.805870	 -0.576725	 0.102793	 1
1463623823.796	 5	 0.087724	 -0.300041	 0.187010	 2.924169	 -1.245382	 0.056646	 -0.086121	 0.805401	 -0.577052	 0.104518	 1
1463623823.806	 5	 0.103687	 -0.311831	 0.188959	 2.915005	 -1.245933	 0.050225	 -0.086201	 0.805034	 -0.577218	 0.106343	 1
1463623823.816	 5	 0.141033	 -0.327767	 0.206604	 2.905050	 -1.246746	 0.043152	 -0.086261	 0.804568	 -0.577497	 0.108287	 1
1463623823.826	 5	 0.175277	 -0.325587	 0.227641	 2.894143	 -1.247848	 0.035110	 -0.086226	 0.803999	 -0.577911	 0.110320	 1
1463623823.836	 5	 0.196808	 -0.307384	 0.253201	 2.882451	 -1.249095	 0.026080	 -0.086035	 0.803374	 -0.578413	 0.112369	 1
1463623823.846	 5	 0.200168	 -0.301837	 0.286267	 2.868553	 -1.250341	 0.014739	 -0.085566	 0.802710	 -0.578961	 0.114625	 1
1463623823.856	 5	 0.179047	 -0.279228	 0.315437	 2.855216	 -1.251285	 0.003715	 -0.085057	 0.802135	 -0.579409	 0.116747	 1
1463623823.866	 5	 0.138897	 -0.249909	 0.382137	 2.840874	 -1.251672	 -0.008712	 -0.084254	 0.801704	 -0.579689	 0.118880	 1
1463623823.876	 5	 0.090036	 -0.280985	 0.477126	 2.824212	 -1.251265	 -0.023429	 -0.083159	 0.801437	 -0.579713	 0.121312	 1
1463623823.886	 5	 0.052836	 -0.321729	 0.563395	 2.805435	 -1.250225	 -0.039964	 -0.081902	 0.801266	 -0.579537	 0.124099	 1
1463623823.896	 5	 0.019906	 -0.351936	 0.638004	 2.784193	 -1.248386	 -0.058715	 -0.080401	 0.801219	 -0.579122	 0.127289	 1
1463623823.906	 5	 -0.019514	 -0.402318	 0.714613	 2.761043	 -1.245790	 -0.079051	 -0.078735	 0.801272	 -0.578483	 0.130852	 1
1463623823.916	 5	 -0.048659	 -0.493522	 0.739596	 2.736727	 -1.242588	 -0.099761	 -0.077170	 0.801367	 -0.577644	 0.134848	 1
1463623823.926	 5	 -0.077838	 -0.573187	 0.742306	 2.712235	 -1.238947	 -0.119800	 -0.075845	 0.801472	 -0.576645	 0.139178	 1
1463623823.936	 5	 -0.127040	 -0.627025	 0.778470	 2.687512	 -1.234650	 -0.139450	 -0.074629	 0.801651	 -0.575418	 0.143810	 1
1463623823.946	 5	 -0.192873	 -0.630448	 0.866404	 2.662150	 -1.229304	 -0.159643	 -0.073205	 0.802003	 -0.573867	 0.148691	 1
1463623823.956	 5	 -0.250874	 -0.626018	 1.014091	 2.635131	 -1.222605	 -0.181698	 -0.071272	 0.802560	 -0.571953	 0.153907	 1
1463623823.966	 5	 -0.293944	 -0.635195	 1.197692	 2.605538	 -1.214423	 -0.206496	 -0.068683	 0.803277	 -0.569693	 0.159624	 1
1463623823.976	 5	 -0.323187	 -0.660315	 1.388484	 2.573145	 -1.204694	 -0.234130	 -0.065407	 0.804092	 -0.567112	 0.165960	 1
1463623823.986	 5	 -0.340806	 -0.671966	 1.534538	 2.539102	 -1.193581	 -0.263477	 -0.061544	 0.804955	 -0.564271	 0.172797	 1
1463623823.996	 5	 -0.374606	 -0.662799	 1.611653	 2.505462	 -1.181349	 -0.292562	 -0.057315	 0.805867	 -0.561198	 0.179863	 1
1463623824.006	 5	 -0.431023	 -0.656047	 1.639917	 2.473881	 -1.168129	 -0.319680	 -0.052945	 0.806879	 -0.557841	 0.186964	 1
1463623824.016	 5	 -0.479094	 -0.704500	 1.685712	 2.443970	 -1.153948	 -0.344783	 -0.048563	 0.807952	 -0.554180	 0.194269	 1
1463623824.026	 5	 -0.480412	 -0.839928	 1.783579	 2.413607	 -1.138799	 -0.369333	 -0.044154	 0.808906	 -0.550294	 0.202233	 1
1463623824.036	 5	 -0.417945	 -1.052963	 1.912142	 2.380517	 -1.122861	 -0.394862	 -0.039739	 0.809460	 -0.546381	 0.211337	 1
1463623824.046	 5	 -0.376821	 -1.222703	 1.989071	 2.345476	 -1.106274	 -0.420667	 -0.035394	 0.809587	 -0.542474	 0.221446	 1
1463623824.056	 5	 -0.314206	 -1.314205	 2.010055	 2.310329	 -1.089405	 -0.445645	 -0.031134	 0.809353	 -0.538642	 0.232041	 1
1463623824.066	 5	 -0.224412	 -1.238268	 1.957757	 2.276594	 -1.072924	 -0.469483	 -0.026838	 0.808802	 -0.535104	 0.242450	 1
1463623824.076	 5	 -0.102731	 -0.899206	 1.828764	 2.247015	 -1.057720	 -0.491834	 -0.022154	 0.808153	 -0.532138	 0.251451	 1
1463623824.086	 5	 0.044889	 -0.559626	 1.781614	 2.221470	 -1.043728	 -0.514029	 -0.016617	 0.807504	 -0.529834	 0.258720	 1
1463623824.096	 5	 0.159092	 -0.404036	 1.869460	 2.196662	 -1.029696	 -0.537744	 -0.010154	 0.806699	 -0.527925	 0.265384	 1
1463623824.106	 5	 0.184185	 -0.067957	 1.876632	 2.174743	 -1.015390	 -0.561483	 -0.002753	 0.806049	 -0.526143	 0.271019	 1
1463623824.116	 5	 0.140889	 0.287141	 1.838748	 2.158393	 -1.000950	 -0.583250	 0.005436	 0.805922	 -0.524228	 0.275036	 1
1463623824.126	 5	 0.130075	 0.535603	 1.776143	 2.146361	 -0.986661	 -0.603325	 0.014106	 0.806156	 -0.522248	 0.277795	 1
1463623824.136	 5	 0.153345	 0.526722	 1.734293	 2.135957	 -0.972819	 -0.622453	 0.022760	 0.806370	 -0.520373	 0.280109	 1
1463623824.146	 5	 0.086146	 0.314140	 1.726505	 2.125208	 -0.958724	 -0.640147	 0.030865	 0.806403	 -0.518309	 0.283051	 1
1463623824.156	 5	 -0.007386	 -0.035701	 1.700617	 2.112881	 -0.944194	 -0.655728	 0.037879	 0.806122	 -0.515922	 0.287328	 1
1463623824.166	 5	 -0.037558	 -0.213126	 1.569206	 2.100468	 -0.930214	 -0.669076	 0.043872	 0.805642	 -0.513491	 0.292134	 1
1463623824.176	 5	 -0.096222	 -0.617482	 1.520127	 2.086328	 -0.916647	 -0.680580	 0.048616	 0.804753	 -0.511055	 0.298047	 1
1463623824.186	 5	 -0.158958	 -1.077358	 1.586734	 2.068579	 -0.902195	 -0.690834	 0.052236	 0.803283	 -0.508323	 0.305967	 1
1463623824.196	 5	 -0.119500	 -1.624289	 1.423568	 2.046682	 -0.888422	 -0.700045	 0.054260	 0.800944	 -0.505862	 0.315671	 1
1463623824.206	 5	 -0.191981	 -2.389509	 0.741385	 2.021321	 -0.879212	 -0.704549	 0.052287	 0.797570	 -0.504292	 0.326859	 1
1463623824.216	 5	 -0.432073	 -3.106733	 -0.283133	 1.996333	 -0.877836	 -0.699111	 0.044226	 0.793662	 -0.503551	 0.338498	 1
1463623824.226	 5	 -0.515237	 -4.131003	 -1.197838	 1.968154	 -0.884833	 -0.685647	 0.029748	 0.788465	 -0.503963	 0.351368	 1
1463623824.236	 5	 -0.379135	 -5.187705	 -1.949561	 1.931795	 -0.899688	 -0.668991	 0.009604	 0.780852	 -0.505966	 0.366301	 1
1463623824.246	 5	 -0.204610	 -6.175084	 -2.513399	 1.885679	 -0.921397	 -0.652315	 -0.015165	 0.770331	 -0.509407	 0.383229	 1
1463623824.256	 5	 -0.171920	 -6.978730	 -2.732183	 1.830297	 -0.946830	 -0.636690	 -0.043191	 0.757030	 -0.513072	 0.402241	 1
1463623824.266	 5	 -0.337325	 -7.381935	 -2.519210	 1.769206	 -0.971585	 -0.621731	 -0.072381	 0.741853	 -0.515300	 0.422943	 1
1463623824.276	 5	 -1.248441	 -6.214977	 -1.690439	 1.722776	 -0.988964	 -0.598307	 -0.098576	 0.729303	 -0.513066	 0.441773	 1
1463623824.286	 5	 -2.041124	 -5.072662	 -0.838416	 1.700539	 -0.996457	 -0.561526	 -0.120037	 0.721620	 -0.505631	 0.457376	 1
1463623824.296	 5	 -2.158935	 -4.499070	 -0.550691	 1.688858	 -0.999588	 -0.520477	 -0.138743	 0.715955	 -0.496207	 0.471102	 1
1463623824.306	 5	 -1.804707	 -4.374752	 -0.717812	 1.675974	 -1.003992	 -0.483848	 -0.156412	 0.709733	 -0.487733	 0.483665	 1
1463623824.316	 5	 -1.342160	 -4.728007	 -0.989435	 1.654105	 -1.011811	 -0.455122	 -0.174407	 0.701176	 -0.481052	 0.496512	 1
1463623824.326	 5	 -0.888359	 -5.266150	 -1.093247	 1.620071	 -1.021935	 -0.434808	 -0.192955	 0.689650	 -0.475587	 0.510851	 1
1463623824.336	 5	 -0.599995	 -5.623881	 -0.879539	 1.575793	 -1.031185	 -0.421660	 -0.211005	 0.675841	 -0.470189	 0.526915	 1
1463623824.346	 5	 -0.550519	 -5.680439	 -0.445665	 1.528129	 -1.036862	 -0.411023	 -0.227615	 0.661315	 -0.463598	 0.543996	 1
1463623824.356	 5	 -0.546968	 -5.473476	 -0.065424	 1.481916	 -1.038765	 -0.400406	 -0.242366	 0.647105	 -0.455718	 0.561102	 1
1463623824.366	 5	 -0.500491	 -5.168138	 0.257807	 1.438551	 -1.037551	 -0.389908	 -0.255090	 0.633573	 -0.447035	 0.577645	 1
1463623824.376	 5	 -0.460940	 -4.958634	 0.563154	 1.397532	 -1.033453	 -0.379416	 -0.266000	 0.620582	 -0.437627	 0.593805	 1
1463623824.386	 5	 -0.533288	 -4.729540	 0.884579	 1.360539	 -1.026541	 -0.366702	 -0.275424	 0.608365	 -0.427158	 0.609565	 1
1463623824.396	 5	 -0.604711	 -4.498600	 1.167645	 1.328508	 -1.017158	 -0.350897	 -0.283531	 0.597106	 -0.415617	 0.624770	 1
1463623824.406	 5	 -0.569619	 -4.309463	 1.449395	 1.299635	 -1.005343	 -0.333601	 -0.290230	 0.586523	 -0.403283	 0.639625	 1
1463623824.416	 5	 -0.400241	 -4.168493	 1.743383	 1.271654	 -0.990575	 -0.316911	 -0.295170	 0.576277	 -0.390410	 0.654492	 1
1463623824.426	 5	 -0.124350	 -4.056677	 2.020185	 1.242670	 -0.972627	 -0.302688	 -0.298086	 0.566043	 -0.377332	 0.669597	 1
1463623824.436	 5	 0.196249	 -3.972612	 2.301668	 1.211985	 -0.951235	 -0.291437	 -0.298841	 0.555642	 -0.364140	 0.685097	 1
1463623824.446	 5	 0.511594	 -3.893657	 2.609794	 1.179979	 -0.926108	 -0.282598	 -0.297371	 0.545075	 -0.350734	 0.701035	 1
1463623824.456	 5	 0.746721	 -3.664172	 2.962650	 1.149049	 -0.896970	 -0.274453	 -0.293577	 0.534881	 -0.336896	 0.717088	 1
1463623824.466	 5	 0.843378	 -3.130285	 3.288636	 1.123511	 -0.864364	 -0.265004	 -0.287474	 0.526288	 -0.322687	 0.732293	 1
1463623824.476	 5	 0.778603	 -2.361762	 3.502159	 1.106994	 -0.829789	 -0.252884	 -0.279505	 0.520469	 -0.308376	 0.745582	 1
1463623824.486	 5	 0.622331	 -1.656325	 3.621989	 1.099600	 -0.794714	 -0.237975	 -0.270426	 0.517567	 -0.294102	 0.756636	 1
1463623824.496	 5	 0.389519	 -1.123945	 3.753664	 1.099783	 -0.759543	 -0.219938	 -0.260883	 0.517114	 -0.279462	 0.765790	 1
1463623824.506	 5	 0.197580	 -0.767033	 3.905731	 1.105370	 -0.723969	 -0.199104	 -0.251120	 0.518479	 -0.264098	 0.773544	 1
1463623824.516	 5	 0.087934	 -0.587124	 4.029857	 1.113610	 -0.687644	 -0.176970	 -0.241083	 0.520888	 -0.248076	 0.780392	 1
1463623824.526	 5	 0.143127	 -0.716479	 4.108105	 1.120237	 -0.650380	 -0.155494	 -0.230749	 0.522944	 -0.231579	 0.787182	 1
1463623824.536	 5	 0.323814	 -0.942942	 4.192883	 1.122832	 -0.611618	 -0.136108	 -0.219739	 0.523840	 -0.214804	 0.794460	 1
1463623824.546	 5	 0.604544	 -1.181792	 4.223386	 1.120728	 -0.571302	 -0.119768	 -0.207739	 0.523328	 -0.198138	 0.802317	 1
1463623824.556	 5	 0.982095	 -1.400363	 4.156250	 1.113626	 -0.529870	 -0.107595	 -0.194545	 0.521260	 -0.182238	 0.810697	 1
1463623824.566	 5	 1.420495	 -1.549477	 4.011431	 1.102014	 -0.487780	 -0.100311	 -0.180010	 0.517727	 -0.167717	 0.819406	 1
1463623824.576	 5	 1.842266	 -1.612322	 3.876086	 1.087243	 -0.445089	 -0.097557	 -0.164071	 0.513093	 -0.154726	 0.828176	 1
1463623824.586	 5	 2.223170	 -1.564011	 3.798615	 1.071077	 -0.401406	 -0.098405	 -0.146645	 0.507888	 -0.143058	 0.836708	 1
1463623824.596	 5	 2.506452	 -1.453243	 3.787588	 1.055089	 -0.356464	 -0.101597	 -0.127832	 0.502578	 -0.132313	 0.844729	 1
1463623824.606	 5	 2.663372	 -1.244999	 3.820132	 1.040707	 -0.310291	 -0.105515	 -0.107982	 0.497602	 -0.121924	 0.851978	 1
1463623824.616	 5	 2.785212	 -0.942555	 3.774992	 1.029252	 -0.263635	 -0.110036	 -0.087407	 0.493492	 -0.112049	 0.858062	 1
1463623824.626	 5	 2.873540	 -0.709336	 3.703921	 1.020392	 -0.217024	 -0.115263	 -0.066387	 0.490114	 -0.102769	 0.863029	 1
1463623824.636	 5	 2.893247	 -0.579842	 3.675113	 1.013307	 -0.170526	 -0.120598	 -0.045190	 0.487100	 -0.093749	 0.867123	 1
1463623824.646	 5	 2.856130	 -0.536074	 3.682238	 1.007205	 -0.124114	 -0.125382	 -0.024036	 0.484112	 -0.084636	 0.870572	 1
1463623824.656	 5	 2.794668	 -0.689946	 3.705854	 1.000479	 -0.077837	 -0.129228	 -0.003124	 0.480477	 -0.075237	 0.873769	 1
1463623824.666	 5	 2.751014	 -1.141671	 3.730806	 0.990166	 -0.031569	 -0.132150	 0.017507	 0.474926	 -0.065574	 0.877405	 1
1463623824.676	 5	 2.721762	 -1.938010	 3.760952	 0.973125	 0.014713	 -0.133949	 0.037780	 0.466094	 -0.055724	 0.882170	 1
1463623824.686	 5	 3.011158	 -3.304103	 3.820324	 0.943399	 0.062758	 -0.136137	 0.058774	 0.451225	 -0.046336	 0.889267	 1
1463623824.696	 5	 3.171768	 -4.103277	 3.829607	 0.904040	 0.112262	 -0.138142	 0.080444	 0.431573	 -0.037541	 0.897700	 1
1463623824.706	 5	 3.068219	 -3.827984	 3.762730	 0.864360	 0.161261	 -0.138186	 0.101786	 0.411445	 -0.028832	 0.905274	 1
1463623824.716	 5	 2.871358	 -3.041125	 3.507457	 0.831778	 0.207383	 -0.136252	 0.121817	 0.394456	 -0.020216	 0.910580	 1
1463623824.726	 5	 2.930831	 -2.784527	 3.128850	 0.803463	 0.250740	 -0.135345	 0.141056	 0.379273	 -0.012968	 0.914378	 1
1463623824.736	 5	 3.074217	 -2.885136	 2.806936	 0.775312	 0.292598	 -0.136706	 0.160189	 0.363890	 -0.007578	 0.917533	 1
1463623824.746	 5	 3.077402	 -2.933510	 2.591174	 0.746705	 0.333166	 -0.139012	 0.178998	 0.348099	 -0.003438	 0.920204	 1
1463623824.756	 5	 2.871391	 -2.804346	 2.425779	 0.718727	 0.371336	 -0.140386	 0.196627	 0.332663	 0.000234	 0.922320	 1
1463623824.766	 5	 2.557664	 -2.647328	 2.244527	 0.691768	 0.405976	 -0.139990	 0.212417	 0.317990	 0.003735	 0.923984	 1
1463623824.776	 5	 2.283894	 -2.576952	 2.012010	 0.665404	 0.434437	 -0.138527	 0.225280	 0.304061	 0.006342	 0.925611	 1
1463623824.786	 5	 2.052480	 -2.544178	 1.744688	 0.639180	 0.461765	 -0.136787	 0.237643	 0.290279	 0.008569	 0.926925	 1
1463623824.796	 5	 1.828532	 -2.521978	 1.488927	 0.613234	 0.485833	 -0.135123	 0.248571	 0.276824	 0.009964	 0.928160	 1
1463623824.806	 5	 1.561874	 -2.559800	 1.299057	 0.586869	 0.506599	 -0.133067	 0.257974	 0.263444	 0.010712	 0.929480	 1
1463623824.816	 5	 1.267490	 -2.661829	 1.190895	 0.559002	 0.524178	 -0.129767	 0.265796	 0.249747	 0.011135	 0.931050	 1
1463623824.826	 5	 1.012793	 -2.764660	 1.134602	 0.529237	 0.539024	 -0.124902	 0.272226	 0.235569	 0.011439	 0.932882	 1
1463623824.836	 5	 0.835200	 -2.819779	 1.088737	 0.498145	 0.551698	 -0.118838	 0.277578	 0.221092	 0.011645	 0.934844	 1
1463623824.846	 5	 0.732844	 -2.754990	 1.034809	 0.466906	 0.562986	 -0.112110	 0.282281	 0.206743	 0.011802	 0.936715	 1
1463623824.856	 5	 0.725859	 -2.604351	 0.977653	 0.436895	 0.573616	 -0.105305	 0.286726	 0.193039	 0.011943	 0.938286	 1
1463623824.866	 5	 0.818080	 -2.450912	 0.906872	 0.408615	 0.584626	 -0.099091	 0.291450	 0.180069	 0.011956	 0.939409	 1
1463623824.876	 5	 0.954979	 -2.315789	 0.821676	 0.382300	 0.596359	 -0.093989	 0.296643	 0.167854	 0.011667	 0.940049	 1
1463623824.886	 6	 1.081086	 -2.199835	 0.728936	 0.357811	 0.608879	 -0.090088	 0.302319	 0.156315	 0.011016	 0.940238	 1
1463623824.906	 6	 1.213925	 -1.964146	 0.576503	 0.313845	 0.635282	 -0.085107	 0.314525	 0.135204	 0.008850	 0.939529	 1
1463623824.916	 6	 1.215284	 -1.870825	 0.538992	 0.293736	 0.648530	 -0.083125	 0.320673	 0.125499	 0.007625	 0.938808	 1
1463623824.926	 6	 1.188663	 -1.806317	 0.476944	 0.274446	 0.661405	 -0.081373	 0.326652	 0.116190	 0.006271	 0.937955	 1
1463623824.936	 6	 1.130982	 -1.745085	 0.390623	 0.256075	 0.673561	 -0.080127	 0.332309	 0.107291	 0.004667	 0.937037	 1
1463623824.946	 6	 1.046575	 -1.690186	 0.300213	 0.238632	 0.684707	 -0.079453	 0.337508	 0.098799	 0.002783	 0.936119	 1
1463623824.966	 7	 0.863282	 -1.417118	 0.041107	 0.208929	 0.703516	 -0.081214	 0.346362	 0.083898	 -0.002004	 0.934340	 1
1463623824.976	 7	 0.777238	 -1.228446	 -0.083214	 0.198008	 0.711235	 -0.084041	 0.350051	 0.078022	 -0.004804	 0.933463	 1
1463623824.986	 7	 0.669966	 -1.040557	 -0.177516	 0.189654	 0.717805	 -0.087857	 0.353224	 0.073211	 -0.007706	 0.932638	 1
1463623824.996	 7	 0.515677	 -0.879003	 -0.255667	 0.183416	 0.722842	 -0.092320	 0.355695	 0.069324	 -0.010633	 0.931967	 1
1463623825.006	 7	 0.326015	 -0.752430	 -0.331704	 0.178922	 0.725977	 -0.097339	 0.357294	 0.066216	 -0.013613	 0.931542	 1
1463623825.016	 7	 0.120313	 -0.670158	 -0.363252	 0.175500	 0.727019	 -0.102482	 0.357919	 0.063662	 -0.016569	 0.931433	 1
1463623825.026	 7	 -0.016448	 -0.729106	 -0.333834	 0.171473	 0.726538	 -0.107035	 0.357801	 0.060991	 -0.019433	 0.931601	 1
1463623825.036	 7	 -0.053295	 -0.873432	 -0.303950	 0.165756	 0.725529	 -0.111017	 0.357392	 0.057656	 -0.022360	 0.931905	 1
1463623825.046	 7	 0.012131	 -1.041574	 -0.290097	 0.158287	 0.724957	 -0.114854	 0.357143	 0.053513	 -0.025510	 0.932166	 1
1463623825.056	 7	 0.132501	 -1.096105	 -0.280995	 0.149978	 0.725520	 -0.118808	 0.357393	 0.048911	 -0.028811	 0.932227	 1
1463623825.066	 7	 0.264347	 -0.992089	 -0.257729	 0.142348	 0.727415	 -0.122758	 0.358250	 0.044571	 -0.031932	 0.932015	 1
1463623825.086	 8	 0.502534	 -0.550918	 -0.192817	 0.132449	 0.735235	 -0.130046	 0.361860	 0.038323	 -0.036770	 0.930718	 1
1463623825.096	 8	 0.549720	 -0.273477	 -0.195975	 0.131414	 0.740349	 -0.133575	 0.364278	 0.036984	 -0.038382	 0.929764	 1
1463623825.106	 8	 0.533572	 -0.045031	 -0.234208	 0.133125	 0.745431	 -0.137547	 0.366738	 0.036832	 -0.039696	 0.928747	 1
1463623825.116	 8	 0.444437	 0.098508	 -0.276858	 0.136840	 0.749750	 -0.142016	 0.368892	 0.037541	 -0.040897	 0.927813	 1
1463623825.126	 8	 0.294108	 0.155094	 -0.308061	 0.141506	 0.752646	 -0.146722	 0.370417	 0.038702	 -0.042085	 0.927104	 1
1463623825.146	 9	 -0.027519	 0.105731	 -0.351548	 0.150812	 0.753339	 -0.156307	 0.371130	 0.041203	 -0.044769	 0.926585	 1
1463623825.156	 9	 -0.116393	 0.021088	 -0.325983	 0.154199	 0.751850	 -0.160628	 0.370610	 0.042047	 -0.046217	 0.926684	 1
1463623825.166	 9	 -0.134677	 -0.077184	 -0.244675	 0.155971	 0.750099	 -0.163977	 0.369915	 0.042338	 -0.047530	 0.926882	 1
1463623825.176	 9	 -0.108992	 -0.164649	 -0.122084	 0.155785	 0.748708	 -0.165819	 0.369308	 0.041985	 -0.048489	 0.927091	 1
1463623825.186	 9	 -0.073637	 -0.239371	 0.001607	 0.153706	 0.747868	 -0.166034	 0.368874	 0.041025	 -0.049015	 0.927279	 1
1463623825.196	 9	 -0.073467	 -0.287504	 0.107737	 0.154697	 0.751253	 -0.167911	 0.370498	 0.040959	 -0.049529	 0.926607	 1
1463623825.206	 9	 -0.102276	 -0.332753	 0.162986	 0.149939	 0.750563	 -0.165658	 0.370017	 0.039208	 -0.049401	 0.926882	 1
1463623825.216	 9	 -0.159977	 -0.354864	 0.170743	 0.144658	 0.749385	 -0.163062	 0.369294	 0.037300	 -0.049232	 0.927258	 1
1463623825.226	 9	 -0.245469	 -0.363264	 0.151160	 0.139306	 0.747389	 -0.160504	 0.368195	 0.035391	 -0.049127	 0.927775	 1
1463623825.246	 10	 -0.345741	 -0.303843	 0.091854	 0.129056	 0.743065	 -0.155937	 0.365867	 0.031683	 -0.049085	 0.928831	 1
1463623825.256	 10	 -0.319826	 -0.228499	 0.078474	 0.125447	 0.739902	 -0.154259	 0.364289	 0.030463	 -0.049102	 0.929492	 1
1463623825.266	 10	 -0.235291	 -0.175607	 0.072901	 0.122628	 0.737418	 -0.152853	 0.363048	 0.029524	 -0.049067	 0.930009	 1
1463623825.276	 10	 -0.111090	 -0.107749	 0.094850	 0.118942	 0.737562	 -0.150433	 0.362990	 0.028243	 -0.048604	 0.930096	 1
1463623825.286	 11	 0.084465	 -0.065663	 0.110591	 0.117265	 0.737943	 -0.149048	 0.363106	 0.027697	 -0.048249	 0.930085	 1
1463623825.306	 11	 0.080356	 0.250815	 0.043232	 0.119774	 0.740547	 -0.146850	 0.364341	 0.029146	 -0.046665	 0.929639	 1
1463623825.316	 11	 -0.053981	 0.109253	 -0.025125	 0.121263	 0.740390	 -0.146942	 0.364305	 0.029828	 -0.046443	 0.929643	 1
1463623825.326	 11	 -0.189485	 -0.056763	 -0.091577	 0.120413	 0.736173	 -0.146856	 0.362330	 0.029639	 -0.046731	 0.930406	 1
1463623825.336	 11	 -0.293897	 -0.200442	 -0.146358	 0.119634	 0.733342	 -0.148207	 0.361018	 0.029159	 -0.047617	 0.930886	 1
1463623825.346	 11	 -0.363869	 -0.301514	 -0.178663	 0.118026	 0.729665	 -0.149946	 0.359298	 0.028264	 -0.048867	 0.931514	 1
1463623825.356	 11	 -0.390971	 -0.377070	 -0.195116	 0.115705	 0.725602	 -0.151893	 0.357381	 0.027019	 -0.050355	 0.932209	 1
1463623825.366	 11	 -0.370893	 -0.405967	 -0.211559	 0.113014	 0.719524	 -0.154000	 0.354514	 0.025667	 -0.052061	 0.933247	 1
