% Gyrometer data recorded with 'snsrlog'
% 
% 
% Label description:
% 	 0: Default Label
% 	 1: still_drop
% 	 2: walk_drop
% 	 3: other
% 	 4: dtw_same
% 	 5: dtw_diff
% 	 6: delete
% 
% Column description:
% 	 1: Seconds.milliseconds since 1970
% 	 2: Number of skipped measurements
% 	 3: Gyro X
% 	 4: Gyro Y
% 	 5: Gyro Z
% 	 6: Roll of the device
% 	 7: Pitch of the device
% 	 8: Yaw of the device
% 	 9: Quaternion X
% 	 10: Quaternion Y
% 	 11: Quaternion Z
% 	 12: Quaternion W
% 	 13: Label used for the current sample
% 
% 
1462074610.248	 0	 -0.134968	 -0.098657	 1.192093	 0.056011	 0.373418	 0.088099	 0.184162	 0.035660	 0.048446	 0.981053	 2
1462074610.258	 0	 0.108935	 -0.119392	 1.364561	 0.049684	 0.374632	 0.102254	 0.184675	 0.033887	 0.054815	 0.980685	 2
1462074610.268	 0	 0.296706	 -0.037955	 1.523549	 0.043228	 0.377849	 0.118067	 0.186179	 0.032268	 0.061987	 0.980027	 2
1462074610.288	 1	 0.531008	 -0.015422	 1.645347	 0.030419	 0.388304	 0.153049	 0.191207	 0.029628	 0.077931	 0.978003	 2
1462074610.298	 1	 0.569324	 0.083405	 1.502055	 0.024651	 0.394322	 0.169576	 0.194144	 0.028631	 0.085445	 0.976825	 2
1462074610.318	 2	 0.631896	 0.072310	 0.877936	 0.016816	 0.407064	 0.194162	 0.200372	 0.027787	 0.096616	 0.974548	 2
1462074610.328	 2	 0.654614	 0.060491	 0.431074	 0.015150	 0.413641	 0.200028	 0.203577	 0.027880	 0.099264	 0.973615	 2
1462074610.338	 3	 0.695983	 0.065531	 -0.176724	 0.015823	 0.420465	 0.199798	 0.206869	 0.028511	 0.099177	 0.972911	 2
1462074610.358	 3	 0.598647	 0.035687	 -1.543527	 0.025791	 0.433571	 0.176493	 0.213127	 0.031499	 0.088825	 0.972468	 2
1462074610.368	 3	 0.263278	 0.276588	 -1.899659	 0.036581	 0.436589	 0.156044	 0.214478	 0.034678	 0.080029	 0.972827	 2
1462074610.378	 3	 -0.166505	 0.364664	 -1.661696	 0.048275	 0.435260	 0.136734	 0.213739	 0.038257	 0.071882	 0.973491	 2
1462074610.388	 3	 -0.492661	 0.478828	 -1.157951	 0.058469	 0.430340	 0.122860	 0.211266	 0.041605	 0.066180	 0.974298	 2
1462074610.398	 3	 -0.717228	 1.054597	 -0.613494	 0.070544	 0.423243	 0.115228	 0.207581	 0.046508	 0.063657	 0.975036	 2
1462074610.408	 3	 -0.836731	 1.629168	 -0.484544	 0.087549	 0.414709	 0.110509	 0.202996	 0.054117	 0.062987	 0.975652	 2
1462074610.418	 3	 -0.760780	 1.874801	 -0.462670	 0.107640	 0.406379	 0.106204	 0.198421	 0.063308	 0.062750	 0.976055	 2
1462074610.428	 3	 -0.543494	 1.672001	 -0.326834	 0.126348	 0.399969	 0.103008	 0.194810	 0.071998	 0.062879	 0.976172	 2
1462074610.438	 3	 -0.270034	 1.154267	 -0.182695	 0.140055	 0.396300	 0.101190	 0.192653	 0.078445	 0.063219	 0.976081	 2
1462074610.448	 3	 -0.141259	 0.817920	 0.128520	 0.148509	 0.394859	 0.101809	 0.191654	 0.082604	 0.064289	 0.975865	 2
1462074610.458	 3	 -0.330677	 0.761455	 0.332139	 0.154861	 0.392641	 0.105502	 0.190207	 0.086016	 0.066626	 0.975697	 2
1462074610.468	 3	 -0.573575	 0.733567	 0.201839	 0.160871	 0.387941	 0.109012	 0.187552	 0.089192	 0.068749	 0.975778	 2
1462074610.478	 3	 -0.723864	 0.720801	 -0.005860	 0.167477	 0.381192	 0.110717	 0.183947	 0.092446	 0.069959	 0.976075	 2
1462074610.488	 3	 -0.818283	 0.786587	 -0.212250	 0.175176	 0.373058	 0.110450	 0.179712	 0.096025	 0.070229	 0.976499	 2
1462074610.498	 3	 -0.897909	 0.967887	 -0.323906	 0.184882	 0.363870	 0.108939	 0.174951	 0.100460	 0.069992	 0.976935	 2
1462074610.508	 3	 -0.907673	 1.456568	 -0.407732	 0.198609	 0.354147	 0.106813	 0.169822	 0.106809	 0.069726	 0.977185	 2
1462074610.518	 3	 -0.776676	 2.239733	 -0.599817	 0.220363	 0.345051	 0.102914	 0.164832	 0.116959	 0.069215	 0.976914	 2
1462074610.528	 3	 -0.566926	 3.070781	 -0.904046	 0.251078	 0.337100	 0.096104	 0.160312	 0.131287	 0.067960	 0.975933	 2
1462074610.538	 3	 -0.356168	 3.645648	 -1.187222	 0.290023	 0.330168	 0.085671	 0.156357	 0.149372	 0.065522	 0.974139	 2
1462074610.548	 3	 -0.213360	 3.902004	 -1.272407	 0.332093	 0.323987	 0.073840	 0.152938	 0.168881	 0.062567	 0.971686	 2
1462074610.558	 3	 -0.154106	 4.249604	 -1.276083	 0.377565	 0.318043	 0.061755	 0.149744	 0.190009	 0.059644	 0.968461	 2
1462074610.568	 3	 -0.228305	 4.476224	 -1.149700	 0.425112	 0.311541	 0.051076	 0.146279	 0.212209	 0.057376	 0.964509	 2
1462074610.578	 3	 -0.376392	 4.606642	 -0.972412	 0.473306	 0.304104	 0.043034	 0.142225	 0.234859	 0.056177	 0.959926	 2
1462074610.588	 3	 -0.503262	 4.790547	 -0.890729	 0.522416	 0.295613	 0.037104	 0.137511	 0.258027	 0.055752	 0.954675	 2
1462074610.598	 3	 -0.537740	 5.161945	 -0.877381	 0.574357	 0.286458	 0.032186	 0.132365	 0.282514	 0.055701	 0.948453	 2
1462074610.608	 3	 -0.444174	 5.725741	 -0.828188	 0.631301	 0.277736	 0.027748	 0.127305	 0.309243	 0.056028	 0.940757	 2
1462074610.618	 3	 -0.199326	 6.428705	 -0.740649	 0.695039	 0.270926	 0.023211	 0.123051	 0.338898	 0.056801	 0.931010	 2
1462074610.628	 3	 0.169973	 7.053585	 -0.663446	 0.765653	 0.266906	 0.017443	 0.120192	 0.371285	 0.057719	 0.918896	 2
1462074610.638	 3	 0.623915	 7.315372	 -0.607411	 0.840563	 0.265941	 0.009205	 0.119179	 0.404968	 0.058259	 0.904656	 2
1462074610.648	 3	 1.070674	 7.265913	 -0.646932	 0.916603	 0.267247	 -0.002659	 0.120061	 0.438322	 0.057761	 0.888888	 2
1462074610.658	 3	 1.397760	 7.088057	 -0.840074	 0.992176	 0.268495	 -0.018562	 0.122083	 0.470593	 0.055617	 0.872092	 2
1462074610.668	 3	 1.612065	 6.830120	 -1.121439	 1.066347	 0.267569	 -0.038050	 0.124434	 0.501451	 0.051547	 0.854638	 2
1462074610.678	 3	 1.733886	 6.470993	 -1.460491	 1.137805	 0.263038	 -0.060257	 0.126522	 0.530485	 0.045454	 0.836966	 2
1462074610.688	 3	 1.759246	 6.063941	 -1.847108	 1.205564	 0.253755	 -0.084029	 0.127766	 0.557505	 0.037354	 0.819432	 2
1462074610.708	 3	 1.589580	 5.340000	 -2.596269	 1.328265	 0.219430	 -0.130817	 0.126083	 0.605724	 0.016186	 0.785455	 2
1462074610.698	 3	 1.696046	 5.656121	 -2.228698	 1.268935	 0.239211	 -0.107932	 0.127704	 0.582474	 0.027492	 0.802285	 2
1462074610.718	 3	 1.505148	 5.132626	 -2.919324	 1.384410	 0.194903	 -0.152181	 0.122973	 0.627676	 0.003676	 0.768692	 2
1462074610.728	 3	 1.514637	 5.072456	 -3.145908	 1.438809	 0.166707	 -0.172263	 0.118882	 0.648828	 -0.009825	 0.751527	 2
1462074610.738	 3	 1.643506	 5.078989	 -3.219441	 1.492527	 0.136475	 -0.191794	 0.114687	 0.669415	 -0.024061	 0.733588	 2
1462074610.748	 3	 1.869380	 4.989087	 -3.205192	 1.545136	 0.105355	 -0.211655	 0.111120	 0.689126	 -0.038994	 0.715008	 2
1462074610.758	 3	 2.158317	 4.636955	 -3.392164	 1.594369	 0.072142	 -0.232608	 0.107990	 0.707173	 -0.055404	 0.696546	 2
1462074610.768	 3	 2.418344	 4.045536	 -3.587506	 1.637776	 0.035581	 -0.254550	 0.104747	 0.722822	 -0.073797	 0.679051	 2
1462074610.778	 3	 2.589434	 3.189038	 -3.558598	 1.672196	 -0.002179	 -0.277010	 0.101724	 0.735027	 -0.093353	 0.663832	 2
1462074610.788	 3	 2.554249	 2.535926	 -3.580355	 1.698539	 -0.040572	 -0.298493	 0.098366	 0.744291	 -0.113257	 0.650790	 2
1462074610.798	 3	 2.426840	 2.039220	 -3.631827	 1.718985	 -0.079792	 -0.317873	 0.094085	 0.751490	 -0.133072	 0.639299	 2
1462074610.808	 3	 2.334024	 1.524410	 -3.819121	 1.733786	 -0.120574	 -0.335421	 0.088573	 0.756770	 -0.153123	 0.629291	 2
1462074610.818	 4	 2.199936	 1.185396	 -4.128047	 1.744113	 -0.164247	 -0.350793	 0.081198	 0.760573	 -0.173712	 0.620290	 2
1462074610.838	 4	 2.046065	 1.176167	 -4.435865	 1.761616	 -0.257917	 -0.376652	 0.062780	 0.766651	 -0.215609	 0.601513	 2
1462074610.848	 4	 1.996406	 1.213069	 -4.354091	 1.770475	 -0.304755	 -0.388347	 0.053337	 0.769261	 -0.236032	 0.591339	 2
1462074610.858	 4	 1.853800	 1.137224	 -4.163849	 1.778736	 -0.349932	 -0.398936	 0.044071	 0.771378	 -0.255427	 0.581198	 2
1462074610.868	 4	 1.570905	 0.874255	 -3.873946	 1.785176	 -0.391939	 -0.407376	 0.034862	 0.772716	 -0.272974	 0.571997	 2
1462074610.878	 4	 1.176070	 0.520249	 -3.716069	 1.789380	 -0.431256	 -0.412204	 0.024876	 0.773226	 -0.288454	 0.564179	 2
1462074610.888	 4	 0.778189	 0.103437	 -3.713286	 1.791262	 -0.469302	 -0.412729	 0.013327	 0.772880	 -0.302202	 0.557811	 2
1462074610.898	 4	 0.428970	 -0.263679	 -3.877789	 1.791261	 -0.507774	 -0.408925	 -0.000303	 0.771716	 -0.314817	 0.552580	 2
1462074610.908	 4	 0.108815	 -0.513378	 -4.119254	 1.790787	 -0.547779	 -0.400761	 -0.016169	 0.769990	 -0.326677	 0.547847	 2
1462074610.918	 4	 -0.137852	 -0.610826	 -4.309850	 1.791306	 -0.589240	 -0.388735	 -0.033794	 0.767971	 -0.337921	 0.543036	 2
1462074610.928	 4	 -0.289471	 -0.567295	 -4.381662	 1.793933	 -0.631321	 -0.373937	 -0.052258	 0.765890	 -0.348621	 0.537722	 2
1462074610.938	 4	 -0.330275	 -0.458136	 -4.305688	 1.798911	 -0.672831	 -0.357730	 -0.070567	 0.763838	 -0.358810	 0.531815	 2
1462074610.948	 4	 -0.270422	 -0.391884	 -4.092440	 1.805133	 -0.712588	 -0.341713	 -0.087896	 0.761658	 -0.368528	 0.525679	 2
1462074610.958	 4	 -0.193478	 -0.404739	 -3.780961	 1.811143	 -0.749625	 -0.326763	 -0.103870	 0.759162	 -0.377629	 0.519885	 2
1462074610.968	 4	 -0.155163	 -0.466369	 -3.464271	 1.816385	 -0.783603	 -0.312761	 -0.118556	 0.756345	 -0.385927	 0.514731	 2
1462074610.978	 4	 -0.175278	 -0.625247	 -3.234304	 1.820531	 -0.815025	 -0.298886	 -0.132507	 0.753123	 -0.393345	 0.510418	 2
1462074610.988	 4	 -0.218673	 -0.848904	 -3.146483	 1.823413	 -0.845085	 -0.284280	 -0.146459	 0.749325	 -0.400043	 0.506979	 2
1462074610.998	 4	 -0.242029	 -1.076214	 -3.114291	 1.824975	 -0.874784	 -0.268743	 -0.160805	 0.744817	 -0.406285	 0.504304	 2
1462074611.008	 4	 -0.276765	 -1.262769	 -3.040055	 1.825510	 -0.903697	 -0.252343	 -0.175337	 0.739733	 -0.411946	 0.502347	 2
1462074611.018	 4	 -0.235909	 -1.370950	 -2.834660	 1.824726	 -0.931110	 -0.236350	 -0.189439	 0.734229	 -0.417059	 0.501081	 2
1462074611.028	 4	 -0.088440	 -1.404934	 -2.474967	 1.821387	 -0.955689	 -0.223192	 -0.202119	 0.728488	 -0.421642	 0.500671	 2
1462074611.038	 4	 0.160150	 -1.453568	 -1.894611	 1.812859	 -0.975784	 -0.216050	 -0.212358	 0.722554	 -0.425629	 0.501657	 2
1462074611.048	 4	 0.407177	 -1.426288	 -1.260248	 1.798372	 -0.990416	 -0.216185	 -0.219668	 0.716661	 -0.428902	 0.504168	 2
1462074611.058	 4	 0.568110	 -1.340132	 -0.608601	 1.779287	 -0.999077	 -0.222677	 -0.223999	 0.711211	 -0.431236	 0.507975	 2
1462074611.068	 4	 0.632568	 -1.257637	 -0.060593	 1.757586	 -1.002099	 -0.233305	 -0.225817	 0.706407	 -0.432475	 0.512798	 2
1462074611.078	 4	 0.670595	 -1.224003	 0.339050	 1.734509	 -1.000945	 -0.246181	 -0.225927	 0.702084	 -0.432824	 0.518361	 2
1462074611.088	 4	 0.567665	 -1.147941	 0.665711	 1.712009	 -0.995952	 -0.258854	 -0.224824	 0.698366	 -0.432041	 0.524480	 2
1462074611.098	 4	 0.422506	 -1.019083	 0.775816	 1.693181	 -0.989051	 -0.268920	 -0.223232	 0.695491	 -0.430465	 0.530244	 2
1462074611.108	 4	 0.385461	 -0.953040	 0.774622	 1.676305	 -0.981713	 -0.277487	 -0.221574	 0.692936	 -0.428640	 0.535735	 2
1462074611.118	 4	 0.423256	 -0.876421	 0.795255	 1.660152	 -0.974325	 -0.286224	 -0.219658	 0.690517	 -0.426982	 0.540947	 2
1462074611.128	 4	 0.419964	 -0.761808	 0.905058	 1.644996	 -0.965980	 -0.294966	 -0.217191	 0.688407	 -0.425207	 0.546006	 2
1462074611.138	 4	 0.406461	 -0.610473	 1.087763	 1.631718	 -0.955895	 -0.303260	 -0.213883	 0.686888	 -0.423057	 0.550873	 2
1462074611.148	 4	 0.443301	 -0.460005	 1.317981	 1.619742	 -0.943562	 -0.311841	 -0.209424	 0.685929	 -0.420524	 0.555699	 2
1462074611.158	 4	 0.432163	 -0.314588	 1.565623	 1.609351	 -0.928738	 -0.320409	 -0.203766	 0.685580	 -0.417487	 0.560503	 2
1462074611.168	 4	 0.404837	 -0.177887	 1.778154	 1.601074	 -0.911616	 -0.328175	 -0.197122	 0.685867	 -0.413825	 0.565224	 2
1462074611.178	 4	 0.433612	 -0.087525	 1.930082	 1.594038	 -0.892855	 -0.335812	 -0.189658	 0.686526	 -0.409818	 0.569878	 2
1462074611.188	 4	 0.434423	 -0.067074	 2.110379	 1.587446	 -0.872263	 -0.343370	 -0.181452	 0.687334	 -0.405337	 0.574760	 2
1462074611.198	 4	 0.375383	 -0.000214	 2.212763	 1.582346	 -0.850413	 -0.349846	 -0.172826	 0.688433	 -0.400343	 0.579583	 2
1462074611.208	 4	 0.347164	 0.060001	 2.291369	 1.578667	 -0.827733	 -0.355423	 -0.163886	 0.689785	 -0.394981	 0.584232	 2
1462074611.218	 4	 0.322877	 0.067922	 2.347074	 1.575653	 -0.804395	 -0.360468	 -0.154721	 0.691191	 -0.389325	 0.588848	 2
1462074611.228	 4	 0.243116	 0.114000	 2.362052	 1.573829	 -0.780804	 -0.364418	 -0.145573	 0.692738	 -0.383352	 0.593266	 2
1462074611.238	 4	 0.097395	 0.220750	 2.356854	 1.574328	 -0.757230	 -0.366418	 -0.136630	 0.694705	 -0.376939	 0.597188	 2
1462074611.248	 4	 -0.099110	 0.410697	 2.363530	 1.578242	 -0.733622	 -0.365942	 -0.127887	 0.697431	 -0.369943	 0.600314	 2
1462074611.258	 4	 -0.260304	 0.666092	 2.316153	 1.586066	 -0.710294	 -0.363260	 -0.119316	 0.701108	 -0.362514	 0.602325	 2
1462074611.268	 4	 -0.311075	 0.824183	 2.242397	 1.596092	 -0.687604	 -0.359884	 -0.110867	 0.705324	 -0.355073	 0.603449	 2
1462074611.278	 4	 -0.307463	 0.990474	 2.147995	 1.607524	 -0.665812	 -0.356774	 -0.102455	 0.709888	 -0.347931	 0.603743	 2
1462074611.288	 4	 -0.242916	 1.170488	 2.063847	 1.620113	 -0.644852	 -0.354558	 -0.093889	 0.714761	 -0.341241	 0.603205	 2
1462074611.298	 4	 -0.050960	 1.377246	 2.052376	 1.633323	 -0.624371	 -0.354658	 -0.084630	 0.719851	 -0.335289	 0.601858	 2
1462074611.308	 4	 0.233411	 1.656599	 2.115380	 1.646886	 -0.603535	 -0.358370	 -0.073957	 0.725137	 -0.330176	 0.599742	 2
1462074611.318	 4	 0.624382	 1.999751	 2.072538	 1.661465	 -0.583141	 -0.366648	 -0.061662	 0.730745	 -0.326450	 0.596356	 2
1462074611.328	 4	 1.062367	 2.103674	 2.060100	 1.674963	 -0.563559	 -0.380377	 -0.047850	 0.735975	 -0.324410	 0.592291	 2
1462074611.338	 4	 1.353576	 2.121569	 2.005508	 1.686764	 -0.544872	 -0.398090	 -0.033149	 0.740525	 -0.323637	 0.588033	 2
1462074611.348	 4	 1.467961	 2.253406	 1.898097	 1.698964	 -0.527511	 -0.417550	 -0.018168	 0.744910	 -0.323661	 0.583115	 2
1462074611.358	 4	 1.447716	 2.384280	 1.750285	 1.712939	 -0.511753	 -0.436980	 -0.003427	 0.749497	 -0.324050	 0.577264	 2
1462074611.368	 4	 1.394505	 2.363784	 1.542734	 1.727710	 -0.498008	 -0.455578	 0.010480	 0.754012	 -0.324692	 0.570903	 2
1462074611.378	 4	 1.348262	 2.237963	 1.334142	 1.742048	 -0.486586	 -0.473335	 0.023256	 0.758141	 -0.325707	 0.564444	 2
1462074611.388	 4	 1.333767	 2.007168	 1.182914	 1.754783	 -0.477008	 -0.490625	 0.035010	 0.761603	 -0.327085	 0.558347	 2
1462074611.398	 4	 1.263828	 1.474156	 1.134866	 1.763512	 -0.468199	 -0.507214	 0.045608	 0.763791	 -0.328487	 0.553751	 2
1462074611.408	 4	 1.070422	 0.746129	 1.131907	 1.766164	 -0.459265	 -0.522081	 0.054596	 0.764215	 -0.329448	 0.551777	 2
1462074611.418	 4	 0.537592	 0.042178	 1.085234	 1.763934	 -0.449805	 -0.532049	 0.061076	 0.763344	 -0.329005	 0.552568	 2
1462074611.428	 4	 -0.333943	 -0.443422	 0.944426	 1.760118	 -0.439939	 -0.532979	 0.063981	 0.762262	 -0.325983	 0.555517	 2
1462074611.438	 4	 -1.021035	 -0.701237	 0.756172	 1.756969	 -0.430425	 -0.525143	 0.063552	 0.761623	 -0.320617	 0.559550	 2
1462074611.448	 4	 -1.182645	 -0.863833	 0.563163	 1.753424	 -0.422295	 -0.513633	 0.061232	 0.760973	 -0.314682	 0.564044	 2
1462074611.458	 4	 -0.821187	 -0.900257	 0.526639	 1.748100	 -0.415442	 -0.504551	 0.059164	 0.759728	 -0.309895	 0.568575	 2
1462074611.468	 4	 -0.207691	 -0.757986	 0.592961	 1.741192	 -0.409146	 -0.501726	 0.059068	 0.757825	 -0.307111	 0.572621	 2
1462074611.478	 4	 0.281419	 -0.329952	 0.707788	 1.735343	 -0.402773	 -0.504810	 0.061412	 0.756027	 -0.305967	 0.575357	 2
1462074611.488	 4	 0.537957	 0.331764	 0.832143	 1.734407	 -0.395642	 -0.511443	 0.066099	 0.755500	 -0.305441	 0.575809	 2
1462074611.498	 4	 0.658334	 0.952663	 0.846464	 1.739285	 -0.388256	 -0.519689	 0.072363	 0.756551	 -0.305087	 0.573861	 2
1462074611.508	 4	 0.785407	 1.544718	 0.699529	 1.749687	 -0.382238	 -0.529046	 0.079445	 0.759103	 -0.305278	 0.569436	 2
1462074611.518	 4	 0.949050	 2.001329	 0.516910	 1.764880	 -0.378392	 -0.539718	 0.087065	 0.762910	 -0.306325	 0.562630	 2
1462074611.528	 4	 1.166392	 2.064363	 0.350411	 1.780872	 -0.376926	 -0.552407	 0.094843	 0.766780	 -0.308629	 0.554798	 2
1462074611.538	 4	 0.997456	 2.033690	 0.305769	 1.796809	 -0.376196	 -0.564340	 0.102128	 0.770572	 -0.310874	 0.546942	 2
1462074611.548	 4	 0.545249	 1.845871	 0.330340	 1.813216	 -0.374545	 -0.572060	 0.108180	 0.774598	 -0.311525	 0.539673	 2
1462074611.558	 4	 0.244835	 1.111303	 0.262174	 1.824964	 -0.372557	 -0.575994	 0.112152	 0.777507	 -0.311227	 0.534829	 2
1462074611.568	 4	 0.090839	 0.241893	 0.139257	 1.828851	 -0.371158	 -0.577740	 0.113867	 0.778425	 -0.310974	 0.533276	 2
1462074611.578	 4	 0.089223	 -0.271068	 -0.195889	 1.826965	 -0.372281	 -0.578286	 0.113440	 0.777908	 -0.311628	 0.533740	 2
1462074611.588	 4	 0.281812	 -0.403077	 -0.721018	 1.822760	 -0.378474	 -0.579043	 0.111162	 0.776836	 -0.314272	 0.534230	 2
1462074611.598	 4	 0.560942	 -0.266435	 -1.272110	 1.818887	 -0.390743	 -0.581147	 0.107561	 0.775856	 -0.319396	 0.533351	 2
1462074611.608	 4	 0.808252	 -0.157814	 -1.740056	 1.815572	 -0.408265	 -0.584697	 0.102951	 0.774991	 -0.326695	 0.531093	 2
1462074611.618	 4	 1.100496	 0.038401	 -2.284314	 1.813269	 -0.431580	 -0.589985	 0.097341	 0.774318	 -0.336373	 0.527076	 2
1462074611.628	 4	 1.221748	 0.285118	 -2.680603	 1.813135	 -0.459656	 -0.595990	 0.090858	 0.774130	 -0.347704	 0.521123	 2
1462074611.638	 4	 1.214716	 0.223890	 -2.766372	 1.812997	 -0.489432	 -0.601867	 0.083772	 0.773837	 -0.359482	 0.514715	 2
1462074611.648	 4	 1.103187	 0.007059	 -2.644856	 1.810962	 -0.518115	 -0.607205	 0.076447	 0.772967	 -0.370709	 0.509168	 2
1462074611.658	 4	 0.893159	 -0.143804	 -2.413161	 1.807968	 -0.544456	 -0.611076	 0.069073	 0.771829	 -0.380691	 0.504563	 2
1462074611.678	 5	 0.269041	 -0.304933	 -2.444396	 1.802419	 -0.591657	 -0.610595	 0.052863	 0.769723	 -0.396467	 0.497540	 2
1462074611.688	 5	 -0.113571	 -0.332085	 -2.822861	 1.803657	 -0.618096	 -0.602787	 0.041711	 0.769606	 -0.403219	 0.493337	 2
1462074611.698	 5	 -0.503530	 -0.258816	 -3.289850	 1.809071	 -0.647962	 -0.588708	 0.027920	 0.770269	 -0.409479	 0.488091	 2
1462074611.708	 5	 -0.830253	 0.124610	 -3.788606	 1.821652	 -0.681284	 -0.568262	 0.012116	 0.772180	 -0.415343	 0.480709	 2
1462074611.718	 5	 -1.000927	 0.768310	 -4.267116	 1.844482	 -0.718639	 -0.542024	 -0.004923	 0.775691	 -0.421389	 0.469799	 2
1462074611.728	 5	 -0.959300	 1.369092	 -4.711639	 1.877426	 -0.759937	 -0.511440	 -0.022489	 0.780318	 -0.428290	 0.455155	 2
1462074611.738	 5	 -0.526791	 1.215822	 -4.991798	 1.913160	 -0.804688	 -0.480123	 -0.040412	 0.784059	 -0.436914	 0.439004	 2
1462074611.748	 5	 0.968341	 -1.682257	 -4.498902	 1.916117	 -0.850385	 -0.464295	 -0.059412	 0.779822	 -0.448934	 0.432210	 2
1462074611.758	 5	 2.021049	 -2.737220	 -4.201354	 1.884843	 -0.896351	 -0.470027	 -0.077945	 0.768359	 -0.464276	 0.433585	 2
1462074611.768	 5	 2.057556	 -1.714749	 -4.285944	 1.854765	 -0.943236	 -0.482335	 -0.094455	 0.757187	 -0.480610	 0.432158	 2
1462074611.778	 5	 1.703682	 0.054077	 -4.129986	 1.842375	 -0.988371	 -0.492578	 -0.107324	 0.749839	 -0.496137	 0.424349	 2
1462074611.798	 6	 1.611892	 0.372435	 -3.973820	 1.841216	 -1.073580	 -0.507596	 -0.127896	 0.739832	 -0.524616	 0.401333	 2
1462074611.808	 6	 2.003873	 -0.434116	 -4.008185	 1.823206	 -1.117130	 -0.525148	 -0.139470	 0.731624	 -0.539392	 0.392849	 2
1462074611.818	 6	 2.292491	 -0.970307	 -4.056187	 1.787864	 -1.161652	 -0.554615	 -0.152143	 0.720896	 -0.554758	 0.386528	 2
1462074611.828	 6	 2.302886	 -1.211094	 -4.108609	 1.739662	 -1.206313	 -0.594043	 -0.165628	 0.708888	 -0.569972	 0.381021	 2
1462074611.838	 6	 2.191978	 -1.203246	 -4.097978	 1.682092	 -1.250021	 -0.642255	 -0.179356	 0.696664	 -0.584459	 0.375363	 2
1462074611.848	 6	 2.268065	 -1.150166	 -4.081094	 1.607987	 -1.292471	 -0.707662	 -0.192728	 0.684079	 -0.598722	 0.369356	 2
1462074611.858	 6	 2.360430	 -1.507554	 -4.045791	 1.503276	 -1.332694	 -0.801721	 -0.206329	 0.670427	 -0.612709	 0.364067	 2
1462074611.868	 6	 2.376732	 -2.373176	 -4.017752	 1.350813	 -1.369210	 -0.935981	 -0.221986	 0.654886	 -0.625582	 0.361238	 2
1462074611.878	 6	 2.362478	 -3.149420	 -3.997141	 1.133623	 -1.399592	 -1.126591	 -0.240065	 0.637419	 -0.636994	 0.360977	 2
1462074611.888	 6	 2.394274	 -3.407035	 -4.014736	 0.840714	 -1.420072	 -1.389118	 -0.259172	 0.618675	 -0.647507	 0.361672	 2
1462074611.898	 6	 2.439028	 -3.365109	 -4.081878	 0.490017	 -1.426125	 -1.709413	 -0.278185	 0.599176	 -0.657703	 0.361978	 2
1462074611.908	 6	 2.441907	 -3.351994	 -4.178766	 0.143500	 -1.415671	 -2.026041	 -0.297049	 0.579054	 -0.667629	 0.361566	 2
1462074611.918	 6	 2.358093	 -3.255950	 -4.168616	 -0.138835	 -1.391812	 -2.278684	 -0.315805	 0.558667	 -0.676866	 0.360570	 2
1462074611.928	 6	 2.318262	 -2.461175	 -3.856066	 -0.332676	 -1.359737	 -2.448858	 -0.331595	 0.539481	 -0.686038	 0.358269	 2
1462074611.938	 6	 2.144761	 -1.474932	 -3.301839	 -0.451635	 -1.326210	 -2.552958	 -0.342901	 0.522954	 -0.695067	 0.354710	 2
1462074611.948	 6	 1.886124	 0.294795	 -2.543480	 -0.511257	 -1.296146	 -2.612681	 -0.347237	 0.511040	 -0.704629	 0.348945	 2
1462074611.958	 6	 1.779689	 2.137871	 -1.436194	 -0.515397	 -1.272001	 -2.634627	 -0.342513	 0.504599	 -0.715092	 0.341625	 2
1462074611.978	 7	 1.053783	 2.848418	 0.623002	 -0.411493	 -1.244896	 -2.594423	 -0.314012	 0.504657	 -0.733557	 0.329564	 2
1462074611.988	 7	 -0.034306	 0.126451	 0.743564	 -0.381588	 -1.245848	 -2.570256	 -0.309200	 0.506208	 -0.733943	 0.330871	 2
1462074611.998	 7	 -0.593304	 -0.644866	 0.636810	 -0.373833	 -1.252751	 -2.556325	 -0.310313	 0.508084	 -0.730779	 0.333944	 2
1462074612.008	 7	 -0.867370	 -0.532985	 0.553910	 -0.372282	 -1.262380	 -2.548589	 -0.312327	 0.510953	 -0.726852	 0.336251	 2
1462074612.018	 7	 -1.056723	 -0.546981	 0.454181	 -0.374777	 -1.273536	 -2.545879	 -0.314633	 0.514510	 -0.722656	 0.337720	 2
1462074612.028	 7	 -1.281401	 -1.394492	 0.242559	 -0.391767	 -1.286023	 -2.551891	 -0.319954	 0.517496	 -0.717199	 0.339783	 2
1462074612.038	 7	 -1.432869	 -2.705566	 -0.062473	 -0.435052	 -1.298952	 -2.572095	 -0.330840	 0.518456	 -0.709655	 0.343712	 2
1462074612.048	 7	 -1.424062	 -3.575428	 -0.035474	 -0.494942	 -1.311431	 -2.598987	 -0.345472	 0.517498	 -0.700331	 0.349830	 2
1462074612.068	 8	 -1.551347	 -3.913368	 0.832152	 -0.603121	 -1.341295	 -2.629736	 -0.375333	 0.515216	 -0.676974	 0.367946	 2
1462074612.078	 8	 -1.915235	 -3.653382	 1.335451	 -0.643558	 -1.363030	 -2.633033	 -0.388046	 0.516637	 -0.662952	 0.378155	 2
1462074612.088	 8	 -2.577384	 -3.163761	 1.703868	 -0.687083	 -1.391905	 -2.643618	 -0.399276	 0.521341	 -0.647104	 0.387349	 2
1462074612.098	 8	 -3.397645	 -2.239707	 1.781423	 -0.759703	 -1.427599	 -2.691961	 -0.408763	 0.530262	 -0.630218	 0.393141	 2
1462074612.108	 8	 -3.998032	 -1.198124	 1.728134	 -0.912012	 -1.466565	 -2.830749	 -0.416260	 0.543031	 -0.613397	 0.394449	 2
1462074612.128	 9	 -3.687315	 1.182548	 1.896788	 -1.882589	 -1.521678	 2.475786	 -0.420630	 0.574980	 -0.585130	 0.387417	 2
1462074612.138	 9	 -3.082588	 2.959627	 2.111619	 -2.615213	 -1.517049	 1.717231	 -0.413562	 0.593456	 -0.576962	 0.379329	 2
1462074612.148	 9	 -2.684101	 4.526080	 2.238894	 -3.040815	 -1.497025	 1.249050	 -0.400069	 0.613686	 -0.572967	 0.367482	 2
1462074612.158	 9	 -2.551007	 5.538708	 2.302578	 3.033383	 -1.471000	 0.985903	 -0.382347	 0.635086	 -0.571233	 0.352376	 2
1462074612.168	 9	 -2.569704	 6.054998	 2.355505	 2.926963	 -1.441822	 0.818939	 -0.362206	 0.656993	 -0.569986	 0.335086	 2
1462074612.188	 10	 -2.612191	 5.774278	 2.201924	 2.853965	 -1.379945	 0.622528	 -0.320611	 0.698684	 -0.565821	 0.298153	 2
1462074612.198	 10	 -2.433640	 4.823009	 2.072152	 2.842915	 -1.349971	 0.559255	 -0.302440	 0.716379	 -0.561870	 0.282194	 2
1462074612.208	 10	 -2.009869	 3.555487	 1.991656	 2.828314	 -1.323698	 0.504269	 -0.287230	 0.730645	 -0.557158	 0.270613	 2
1462074612.218	 10	 -1.637100	 2.056699	 1.973398	 2.802643	 -1.301080	 0.452461	 -0.275479	 0.741458	 -0.551624	 0.264693	 2
1462074612.228	 10	 -1.447627	 0.446255	 1.884291	 2.766757	 -1.280513	 0.406223	 -0.267955	 0.749250	 -0.544734	 0.264745	 2
1462074612.248	 11	 -1.405352	 -2.653312	 1.433038	 2.678581	 -1.241585	 0.346369	 -0.267895	 0.756876	 -0.525532	 0.281403	 2
1462074612.258	 11	 -1.278600	 -3.628670	 1.187325	 2.630535	 -1.224092	 0.331684	 -0.273956	 0.757060	 -0.514109	 0.295804	 2
1462074612.278	 12	 -0.887868	 -3.962251	 0.813131	 2.537312	 -1.197173	 0.317115	 -0.290100	 0.752343	 -0.492388	 0.327683	 2
1462074612.288	 12	 -0.897207	 -3.433782	 0.789355	 2.498245	 -1.185356	 0.313826	 -0.297399	 0.749639	 -0.482443	 0.341825	 2
1462074612.298	 12	 -0.946167	 -2.286971	 0.802584	 2.470630	 -1.173067	 0.312192	 -0.302264	 0.748544	 -0.473640	 0.352113	 2
1462074612.308	 12	 -0.947782	 -0.792834	 0.769608	 2.458624	 -1.160761	 0.311860	 -0.303775	 0.749890	 -0.466920	 0.356892	 2
1462074612.318	 12	 -0.880898	 0.577208	 0.665606	 2.461762	 -1.149364	 0.312560	 -0.302188	 0.753488	 -0.462664	 0.356203	 2
1462074612.328	 12	 -0.735729	 1.596910	 0.536347	 2.476351	 -1.139761	 0.313542	 -0.298259	 0.758552	 -0.460783	 0.351168	 2
1462074612.338	 12	 -0.519854	 2.191229	 0.444079	 2.496536	 -1.132313	 0.313076	 -0.292729	 0.764159	 -0.460809	 0.343549	 2
1462074612.348	 12	 -0.261523	 2.572166	 0.278050	 2.519954	 -1.127765	 0.311492	 -0.286304	 0.769592	 -0.462606	 0.334295	 2
1462074612.358	 12	 -0.032697	 2.836995	 0.076027	 2.546615	 -1.126336	 0.310259	 -0.279517	 0.774540	 -0.465993	 0.323741	 2
1462074612.368	 12	 0.177349	 3.056432	 -0.232831	 2.577624	 -1.128117	 0.311397	 -0.272838	 0.778828	 -0.470828	 0.311942	 2
1462074612.378	 12	 0.393816	 3.171659	 -0.682329	 2.615770	 -1.133961	 0.318715	 -0.267071	 0.782070	 -0.477273	 0.298747	 2
1462074612.388	 12	 0.624544	 3.160126	 -1.152315	 2.661201	 -1.143904	 0.333844	 -0.262670	 0.783961	 -0.485193	 0.284601	 2
1462074612.398	 12	 0.864378	 3.047485	 -1.627584	 2.714538	 -1.157737	 0.358480	 -0.259920	 0.784297	 -0.494463	 0.269862	 2
1462074612.408	 12	 1.111084	 2.785053	 -2.075531	 2.776134	 -1.174994	 0.394347	 -0.259106	 0.782884	 -0.504862	 0.255090	 2
1462074612.418	 12	 1.364828	 2.339388	 -2.414405	 2.844794	 -1.194907	 0.441912	 -0.260358	 0.779576	 -0.516039	 0.241203	 2
1462074612.428	 12	 1.564845	 1.903580	 -2.588594	 2.919236	 -1.216127	 0.500134	 -0.263269	 0.774632	 -0.527558	 0.228731	 2
1462074612.438	 12	 1.744631	 1.610104	 -2.651507	 2.999924	 -1.237627	 0.568067	 -0.267103	 0.768464	 -0.539276	 0.217486	 2
1462074612.448	 12	 1.915949	 1.474782	 -2.615891	 3.087861	 -1.258865	 0.644970	 -0.271096	 0.761403	 -0.551256	 0.207097	 2
1462074612.458	 12	 2.026368	 1.432132	 -2.439267	 -3.101280	 -1.279106	 0.728367	 -0.274493	 0.753872	 -0.563340	 0.197431	 2
1462074612.468	 12	 1.924487	 1.300594	 -2.139059	 -3.005724	 -1.296785	 0.813839	 -0.277086	 0.746508	 -0.574729	 0.188776	 2
1462074612.478	 12	 1.407146	 0.756479	 -1.699458	 -2.920850	 -1.308962	 0.892165	 -0.279711	 0.740302	 -0.583538	 0.182201	 2
1462074612.488	 12	 0.745717	 -0.319599	 -0.900127	 -2.871814	 -1.314925	 0.943313	 -0.283172	 0.736058	 -0.587808	 0.180318	 2
1462074612.498	 12	 -0.287312	 -0.737681	 0.136635	 -2.873441	 -1.315230	 0.949230	 -0.285770	 0.734993	 -0.587140	 0.182720	 2
1462074612.508	 12	 -1.344746	 1.036369	 1.021354	 -2.909643	 -1.305893	 0.906537	 -0.282290	 0.740078	 -0.582761	 0.181623	 2
1462074612.518	 12	 -1.168477	 2.702858	 1.506394	 -2.945263	 -1.296471	 0.845186	 -0.271389	 0.747793	 -0.580056	 0.175181	 2
1462074612.528	 12	 -0.579858	 2.992939	 1.851406	 -2.981058	 -1.292529	 0.776457	 -0.256545	 0.754827	 -0.579830	 0.167983	 2
1462074612.538	 12	 -0.045588	 2.106476	 2.001567	 -3.026786	 -1.293526	 0.704323	 -0.242361	 0.759754	 -0.580485	 0.164538	 2
1462074612.548	 12	 0.043300	 0.677035	 1.897968	 -3.084466	 -1.295892	 0.633154	 -0.231738	 0.762760	 -0.580413	 0.166178	 2
1462074612.558	 12	 -0.030023	 -0.513616	 1.510247	 3.138851	 -1.296005	 0.573987	 -0.226483	 0.764446	 -0.578598	 0.171908	 2
1462074612.568	 12	 0.084574	 -0.818498	 1.168566	 3.086748	 -1.296163	 0.527945	 -0.223915	 0.765020	 -0.576825	 0.178548	 2
1462074612.578	 12	 0.239832	 -0.709225	 0.899659	 3.044574	 -1.297405	 0.491965	 -0.222231	 0.764839	 -0.575868	 0.184421	 2
1462074612.588	 12	 0.464521	 -0.433600	 0.718022	 3.010807	 -1.300561	 0.462190	 -0.220419	 0.764039	 -0.576143	 0.188996	 2
1462074612.598	 12	 0.747537	 -0.095714	 0.638769	 2.981949	 -1.306272	 0.434149	 -0.217819	 0.762639	 -0.577890	 0.192301	 2
1462074612.608	 12	 1.100661	 0.285493	 0.694662	 2.952471	 -1.315062	 0.401630	 -0.213721	 0.760622	 -0.581300	 0.194595	 2
1462074612.618	 12	 1.177608	 0.171584	 0.858125	 2.913862	 -1.325064	 0.359148	 -0.208676	 0.758253	 -0.585305	 0.197296	 2
1462074612.628	 12	 0.433959	 -0.609794	 0.756081	 2.872180	 -1.329655	 0.320442	 -0.206213	 0.756687	 -0.586642	 0.201873	 2
1462074612.638	 12	 -0.734559	 -1.214245	 0.679633	 2.839966	 -1.323416	 0.298255	 -0.207181	 0.757615	 -0.583137	 0.207475	 2
1462074612.648	 12	 -1.561900	 -1.419905	 0.585807	 2.819401	 -1.308306	 0.291708	 -0.210406	 0.760787	 -0.575732	 0.213227	 2
1462074612.658	 12	 -1.929086	 -1.155352	 0.251487	 2.816672	 -1.289575	 0.301436	 -0.214534	 0.765166	 -0.566981	 0.216862	 2
1462074612.668	 12	 -1.810121	 -1.037555	 -0.029814	 2.824916	 -1.271567	 0.321476	 -0.219587	 0.769314	 -0.558516	 0.219081	 2
1462074612.678	 12	 -0.759733	 0.399315	 -0.054364	 2.836533	 -1.261629	 0.334174	 -0.221111	 0.772152	 -0.554430	 0.217941	 2
1462074612.688	 12	 0.024630	 1.503543	 -0.296044	 2.857123	 -1.261083	 0.341779	 -0.218330	 0.773693	 -0.555656	 0.212081	 2
1462074612.698	 12	 0.159588	 1.145150	 -0.821711	 2.889600	 -1.264429	 0.362132	 -0.217166	 0.773870	 -0.558409	 0.205289	 2
1462074612.708	 12	 -0.042074	 0.291633	 -1.411936	 2.933700	 -1.267443	 0.403205	 -0.220685	 0.772944	 -0.560281	 0.199851	 2
1462074612.718	 12	 -0.170723	 -0.200992	 -1.780956	 2.987418	 -1.269030	 0.460564	 -0.227725	 0.771351	 -0.561268	 0.195287	 2
1462074612.728	 12	 -0.086891	 -0.256934	 -1.834429	 3.043904	 -1.270138	 0.522552	 -0.235684	 0.769299	 -0.562263	 0.191029	 2
1462074612.738	 12	 0.170405	 0.064843	 -1.652495	 3.098604	 -1.272330	 0.580124	 -0.242245	 0.766948	 -0.564220	 0.186451	 2
1462074612.748	 12	 0.505261	 0.419341	 -1.327055	 -3.135175	 -1.276794	 0.628227	 -0.246302	 0.764346	 -0.567545	 0.181668	 2
1462074612.758	 12	 0.834932	 0.579218	 -1.001248	 -3.092827	 -1.284050	 0.666666	 -0.248171	 0.761354	 -0.572078	 0.177420	 2
1462074612.768	 12	 1.099325	 0.521904	 -0.731248	 -3.057673	 -1.293868	 0.697581	 -0.248702	 0.757870	 -0.577390	 0.174357	 2
1462074612.778	 12	 1.285804	 0.301523	 -0.538822	 -3.028751	 -1.305666	 0.723823	 -0.248772	 0.753854	 -0.583047	 0.172836	 2
1462074612.788	 12	 1.488673	 -0.024544	 -0.393350	 -3.005433	 -1.319234	 0.747328	 -0.248976	 0.749211	 -0.588829	 0.173129	 2
1462074612.798	 12	 2.242117	 -0.491398	 -0.372282	 -2.982226	 -1.338645	 0.774920	 -0.249650	 0.742464	 -0.596225	 0.175890	 2
1462074612.808	 12	 3.123776	 -1.295439	 -0.449254	 -2.950961	 -1.366664	 0.817879	 -0.251822	 0.732194	 -0.606036	 0.182203	 2
1462074612.818	 12	 3.573683	 -2.420785	 -0.567022	 -2.905650	 -1.399633	 0.885731	 -0.257037	 0.718844	 -0.616479	 0.192740	 2
1462074612.828	 12	 3.676524	 -3.409686	 -0.636803	 -2.835436	 -1.433306	 0.988962	 -0.265487	 0.703462	 -0.625984	 0.206886	 2
1462074612.838	 12	 3.626174	 -3.964215	 -0.563723	 -2.722727	 -1.465672	 1.141347	 -0.275701	 0.686964	 -0.634148	 0.223441	 2
1462074612.848	 12	 3.481499	 -4.020953	 -0.379680	 -2.530827	 -1.494421	 1.374542	 -0.285937	 0.670443	 -0.640938	 0.240719	 2
1462074612.858	 12	 3.172543	 -3.599754	 -0.210009	 -2.188544	 -1.516257	 1.754993	 -0.294719	 0.654925	 -0.646632	 0.257062	 2
1462074612.868	 12	 2.554723	 -2.429780	 -1.045287	 -1.683679	 -1.519245	 2.288084	 -0.302457	 0.641422	 -0.652270	 0.267660	 2
1462074612.878	 12	 1.992650	 -0.948431	 -2.187223	 -1.365930	 -1.498258	 2.619643	 -0.310190	 0.629611	 -0.659693	 0.268659	 2
1462074612.888	 12	 1.443395	 0.469999	 -2.174571	 -1.253279	 -1.472746	 2.731470	 -0.314612	 0.621078	 -0.667763	 0.263391	 2
1462074612.908	 13	 0.856985	 2.894026	 -1.963598	 -1.169500	 -1.428240	 2.774196	 -0.310344	 0.613138	 -0.685553	 0.240344	 2
1462074612.918	 13	 0.747394	 3.571412	 -1.879606	 -1.139319	 -1.407615	 2.770070	 -0.303467	 0.611504	 -0.695410	 0.224447	 2
1462074612.938	 14	 0.204507	 3.520480	 -1.202857	 -1.093672	 -1.377294	 2.741342	 -0.285564	 0.611800	 -0.712041	 0.192747	 2
1462074612.948	 14	 0.019513	 2.761450	 -0.931211	 -1.084308	 -1.368271	 2.720476	 -0.277887	 0.612992	 -0.717331	 0.180155	 2
1462074612.968	 15	 -0.044096	 0.644411	 -0.726547	 -1.092316	 -1.354833	 2.683246	 -0.272465	 0.613539	 -0.722391	 0.165783	 2
1462074612.978	 15	 -0.058729	 -0.004043	 -0.684494	 -1.107529	 -1.348879	 2.666358	 -0.274189	 0.612896	 -0.722963	 0.162797	 2
1462074612.988	 15	 0.009365	 -0.377735	 -0.560673	 -1.122593	 -1.343550	 2.653851	 -0.277079	 0.611892	 -0.723007	 0.161481	 2
1462074612.998	 15	 0.249134	 -0.399266	 -0.353005	 -1.127358	 -1.339154	 2.653354	 -0.279709	 0.610339	 -0.723284	 0.161587	 2
1462074613.008	 15	 0.608072	 -0.182592	 -0.249670	 -1.115174	 -1.334524	 2.668323	 -0.280965	 0.607913	 -0.724730	 0.162068	 2
1462074613.018	 15	 0.993325	 0.031234	 -0.235048	 -1.086961	 -1.328363	 2.697561	 -0.281020	 0.604310	 -0.727613	 0.162530	 2
1462074613.028	 15	 1.301286	 0.090504	 -0.150851	 -1.046692	 -1.320785	 2.738172	 -0.280253	 0.599625	 -0.731598	 0.163318	 2
1462074613.038	 15	 1.466964	 -0.021273	 0.049161	 -0.999384	 -1.313322	 2.786867	 -0.279015	 0.594385	 -0.735896	 0.165268	 2
1462074613.048	 15	 1.580162	 -0.294405	 0.124500	 -0.951091	 -1.305590	 2.839106	 -0.278176	 0.588645	 -0.740083	 0.168503	 2
1462074613.058	 15	 1.710234	 -0.717517	 0.058682	 -0.906870	 -1.296182	 2.891240	 -0.278751	 0.582020	 -0.744083	 0.172893	 2
1462074613.068	 15	 1.773828	 -1.214819	 0.002344	 -0.869854	 -1.285126	 2.941093	 -0.281228	 0.574490	 -0.747655	 0.178560	 2
1462074613.078	 15	 1.642015	 -1.588554	 0.039447	 -0.841898	 -1.274235	 2.986059	 -0.285287	 0.566825	 -0.750310	 0.185354	 2
1462074613.088	 15	 1.310418	 -1.599706	 0.127492	 -0.822442	 -1.265572	 3.023411	 -0.289758	 0.560181	 -0.751828	 0.192332	 2
1462074613.098	 15	 0.929755	 -1.325076	 0.150414	 -0.809828	 -1.259681	 3.051352	 -0.293608	 0.555194	 -0.752484	 0.198298	 2
1462074613.108	 15	 0.708397	 -1.126124	 0.068932	 -0.802710	 -1.255174	 3.071037	 -0.296962	 0.551348	 -0.752749	 0.202973	 2
1462074613.118	 15	 0.678362	 -1.256902	 -0.083362	 -0.800862	 -1.250137	 3.085628	 -0.300910	 0.547497	 -0.752863	 0.207118	 2
1462074613.138	 15	 0.653547	 -2.232924	 -0.335222	 -0.819020	 -1.237122	 3.105350	 -0.314694	 0.537709	 -0.751411	 0.217298	 2
1462074613.128	 15	 0.691685	 -1.705757	 -0.226204	 -0.805848	 -1.243959	 3.097037	 -0.306659	 0.542952	 -0.752546	 0.211749	 2
1462074613.148	 15	 0.563923	 -2.661466	 -0.358679	 -0.839150	 -1.230477	 3.111151	 -0.324614	 0.532095	 -0.749295	 0.223738	 2
1462074613.158	 15	 0.329038	 -2.987696	 -0.265882	 -0.865290	 -1.225593	 3.114309	 -0.335829	 0.526792	 -0.745889	 0.230995	 2
1462074613.168	 15	 -0.154482	 -3.238472	 0.010961	 -0.898708	 -1.225165	 3.112560	 -0.347842	 0.523007	 -0.740493	 0.239039	 2
1462074613.178	 15	 -0.846677	 -3.465605	 0.383628	 -0.942729	 -1.231494	 3.102036	 -0.360453	 0.521815	 -0.732365	 0.247840	 2
1462074613.188	 15	 -1.731620	 -3.358381	 0.731243	 -1.002340	 -1.245260	 3.075117	 -0.373082	 0.524143	 -0.721363	 0.256356	 2
1462074613.208	 16	 -3.609817	 -1.553487	 1.284483	 -1.184400	 -1.291890	 2.933727	 -0.391509	 0.542997	 -0.693837	 0.265453	 2
1462074613.218	 16	 -4.225789	 -0.500547	 1.324157	 -1.319433	 -1.317316	 2.801587	 -0.395875	 0.558656	 -0.679332	 0.263998	 2
1462074613.228	 16	 -4.505744	 0.170825	 1.243318	 -1.487686	 -1.337281	 2.628043	 -0.398041	 0.576159	 -0.665086	 0.259357	 2
1462074613.238	 16	 -4.538106	 1.250288	 1.216343	 -1.675429	 -1.348955	 2.425816	 -0.397239	 0.594719	 -0.652085	 0.251585	 2
1462074613.248	 16	 -4.420438	 2.847864	 1.268551	 -1.857538	 -1.352526	 2.214295	 -0.391067	 0.614564	 -0.641895	 0.239477	 2
1462074613.268	 17	 -4.282164	 5.808240	 1.665780	 -2.163221	 -1.341843	 1.802222	 -0.360712	 0.658218	 -0.629218	 0.201796	 2
1462074613.278	 17	 -4.161067	 6.360845	 1.942703	 -2.288135	 -1.331128	 1.609380	 -0.338781	 0.680626	 -0.624344	 0.179358	 2
1462074613.288	 17	 -3.878719	 6.188372	 2.033492	 -2.394738	 -1.318021	 1.434768	 -0.315605	 0.701538	 -0.619222	 0.157485	 2
1462074613.298	 17	 -3.451068	 5.338424	 1.896100	 -2.481251	 -1.303396	 1.287428	 -0.294106	 0.719612	 -0.613648	 0.138188	 2
1462074613.308	 17	 -3.154166	 3.858831	 1.561084	 -2.552541	 -1.287084	 1.168979	 -0.277133	 0.734555	 -0.607009	 0.123154	 2
1462074613.318	 17	 -3.216762	 1.881228	 1.047647	 -2.617651	 -1.266267	 1.076106	 -0.267458	 0.747179	 -0.597737	 0.113580	 2
1462074613.328	 17	 -3.187196	 0.278055	 0.723401	 -2.678638	 -1.241669	 1.005240	 -0.264431	 0.758072	 -0.586065	 0.109225	 2
1462074613.338	 17	 -2.948434	 -0.643046	 0.671186	 -2.736175	 -1.217144	 0.949008	 -0.264813	 0.767464	 -0.573593	 0.108928	 2
1462074613.348	 17	 -2.639466	 -1.066504	 0.776460	 -2.790165	 -1.194605	 0.901660	 -0.266231	 0.775619	 -0.561406	 0.111176	 2
1462074613.358	 17	 -2.332902	 -1.169169	 0.970002	 -2.842596	 -1.174783	 0.857744	 -0.267217	 0.782885	 -0.549935	 0.115138	 2
1462074613.368	 17	 -2.028111	 -0.793654	 0.954856	 -2.886977	 -1.157194	 0.819404	 -0.267116	 0.789383	 -0.539876	 0.118566	 2
1462074613.378	 17	 -1.761255	 -0.171457	 0.767551	 -2.917714	 -1.141431	 0.789359	 -0.265840	 0.795161	 -0.531725	 0.119652	 2
1462074613.388	 17	 -1.616240	 0.473965	 0.506919	 -2.934122	 -1.126600	 0.767797	 -0.263700	 0.800450	 -0.525241	 0.117742	 2
1462074613.398	 17	 -1.585550	 1.031946	 0.315744	 -2.938913	 -1.111792	 0.752470	 -0.260845	 0.805576	 -0.519850	 0.112972	 2
1462074613.408	 17	 -1.647962	 1.417847	 0.264459	 -2.937348	 -1.096381	 0.739261	 -0.257187	 0.810874	 -0.514847	 0.106163	 2
1462074613.418	 17	 -1.721846	 1.581938	 0.275154	 -2.933539	 -1.080248	 0.726049	 -0.252988	 0.816378	 -0.509753	 0.098369	 2
1462074613.428	 17	 -1.757843	 1.594164	 0.333132	 -2.929879	 -1.063770	 0.712001	 -0.248473	 0.821967	 -0.504436	 0.090417	 2
1462074613.438	 17	 -1.701256	 1.463289	 0.495549	 -2.929024	 -1.047885	 0.695691	 -0.243586	 0.827495	 -0.498991	 0.083224	 2
1462074613.448	 17	 -1.546368	 1.168019	 0.615081	 -2.932114	 -1.033579	 0.677650	 -0.238670	 0.832656	 -0.493658	 0.077598	 2
1462074613.458	 17	 -1.305919	 0.966689	 0.669731	 -2.937378	 -1.021510	 0.659760	 -0.233976	 0.837180	 -0.488874	 0.073397	 2
1462074613.468	 17	 -0.972742	 0.991420	 0.694770	 -2.942034	 -1.012501	 0.642827	 -0.229080	 0.840914	 -0.485303	 0.069764	 2
1462074613.478	 17	 -0.607470	 1.080530	 0.663644	 -2.944101	 -1.006995	 0.627835	 -0.223907	 0.843726	 -0.483342	 0.066130	 2
1462074613.488	 17	 -0.338876	 1.035906	 0.632114	 -2.944813	 -1.004286	 0.614660	 -0.218824	 0.845744	 -0.482583	 0.062828	 2
1462074613.498	 17	 -0.090542	 1.201043	 0.624028	 -2.943566	 -1.004064	 0.602576	 -0.213434	 0.847136	 -0.482995	 0.059349	 2
1462074613.508	 17	 0.139612	 1.451579	 0.504990	 -2.937898	 -1.005962	 0.592911	 -0.207754	 0.847905	 -0.484646	 0.054896	 2
1462074613.518	 17	 0.410814	 1.650341	 0.303050	 -2.926079	 -1.009994	 0.587783	 -0.202248	 0.847866	 -0.487641	 0.049247	 2
1462074613.528	 17	 0.736637	 1.594282	 0.184589	 -2.910901	 -1.016834	 0.586654	 -0.197257	 0.846848	 -0.491974	 0.043577	 2
1462074613.538	 17	 1.072636	 1.378064	 0.131692	 -2.894820	 -1.026761	 0.588596	 -0.192909	 0.844833	 -0.497534	 0.038778	 2
1462074613.548	 17	 1.341265	 1.011001	 0.223987	 -2.881325	 -1.039693	 0.591334	 -0.189083	 0.841998	 -0.503990	 0.035780	 2
1462074613.558	 17	 1.506886	 0.723191	 0.349890	 -2.872434	 -1.054651	 0.592656	 -0.185484	 0.838735	 -0.510797	 0.034725	 2
1462074613.568	 17	 1.816822	 0.589364	 0.354473	 -2.864021	 -1.072255	 0.595177	 -0.182092	 0.834724	 -0.518535	 0.034634	 2
1462074613.578	 17	 2.323623	 0.364311	 0.325585	 -2.854214	 -1.094151	 0.601371	 -0.179194	 0.829387	 -0.527954	 0.035671	 2
1462074613.588	 17	 3.066530	 -0.260269	 0.299449	 -2.844165	 -1.122463	 0.613376	 -0.177591	 0.821996	 -0.539664	 0.039323	 2
1462074613.598	 17	 3.953304	 -1.394612	 0.290765	 -2.836915	 -1.158930	 0.633271	 -0.178560	 0.811824	 -0.553866	 0.047859	 2
1462074613.608	 17	 4.747568	 -2.911573	 0.283588	 -2.835181	 -1.203337	 0.662247	 -0.183189	 0.798560	 -0.569903	 0.062887	 2
1462074613.618	 17	 4.837378	 -4.856585	 0.218880	 -2.844267	 -1.250674	 0.698865	 -0.193053	 0.783051	 -0.585042	 0.085369	 2
1462074613.628	 17	 2.709945	 -6.163373	 0.292386	 -2.878958	 -1.285388	 0.724457	 -0.207830	 0.769905	 -0.592779	 0.112544	 2
1462074613.638	 17	 -0.346276	 -3.727885	 0.938486	 -2.950569	 -1.288577	 0.698045	 -0.218349	 0.767486	 -0.587919	 0.132816	 2
1462074613.648	 17	 -0.984886	 0.028483	 0.932107	 -2.996181	 -1.281499	 0.659047	 -0.217633	 0.770565	 -0.582983	 0.137831	 2
1462074613.658	 17	 -1.273116	 1.811106	 0.670909	 -3.010616	 -1.270511	 0.628288	 -0.211258	 0.775887	 -0.579411	 0.132867	 2
1462074613.668	 17	 -1.349367	 2.247726	 0.567994	 -3.012380	 -1.257937	 0.603513	 -0.203557	 0.781775	 -0.576073	 0.124632	 2
1462074613.678	 17	 -1.424967	 1.934186	 0.714941	 -3.017474	 -1.244930	 0.576417	 -0.195812	 0.787713	 -0.572238	 0.117092	 2
1462074613.688	 17	 -1.426588	 0.881486	 0.752053	 -3.032186	 -1.231485	 0.548495	 -0.190355	 0.793214	 -0.567237	 0.113217	 2
1462074613.698	 17	 -0.957373	 -0.068863	 0.719940	 -3.054215	 -1.221134	 0.523589	 -0.187663	 0.797132	 -0.562530	 0.113680	 2
1462074613.708	 17	 -0.083318	 -0.445343	 0.638487	 -3.076629	 -1.218599	 0.503890	 -0.186321	 0.798374	 -0.560572	 0.116799	 2
1462074613.718	 17	 0.628837	 -0.171735	 0.668936	 -3.096676	 -1.223594	 0.485527	 -0.184215	 0.797513	 -0.561777	 0.120184	 2
1462074613.728	 17	 1.150156	 0.441094	 0.612549	 -3.110644	 -1.234158	 0.467619	 -0.180223	 0.795361	 -0.565767	 0.121773	 2
1462074613.738	 17	 1.174461	 0.502804	 0.478625	 -3.118955	 -1.246439	 0.453096	 -0.175939	 0.792688	 -0.570767	 0.122133	 2
1462074613.748	 17	 0.508021	 0.119078	 0.535211	 -3.131867	 -1.253637	 0.437300	 -0.172890	 0.791224	 -0.573453	 0.123388	 2
1462074613.758	 17	 -0.458324	 0.007009	 0.530859	 3.134910	 -1.251487	 0.419810	 -0.170800	 0.792325	 -0.572277	 0.124688	 2
1462074613.768	 17	 -1.455494	 0.447466	 0.438129	 3.124450	 -1.239352	 0.405922	 -0.168961	 0.796325	 -0.567423	 0.123896	 2
1462074613.778	 17	 -2.363768	 1.200031	 0.592655	 3.121424	 -1.217850	 0.391430	 -0.165165	 0.803441	 -0.559429	 0.119341	 2
1462074613.788	 17	 -2.464159	 1.502483	 0.751945	 3.118835	 -1.192332	 0.373264	 -0.159810	 0.811887	 -0.549941	 0.113427	 2
1462074613.798	 17	 -1.058061	 2.286546	 1.051806	 3.115555	 -1.177404	 0.347764	 -0.150991	 0.817801	 -0.544989	 0.106723	 2
1462074613.808	 17	 0.400267	 3.330976	 0.756808	 3.125504	 -1.177889	 0.325026	 -0.138945	 0.819821	 -0.547065	 0.096474	 2
1462074613.818	 17	 1.067430	 3.118087	 -0.022593	 -3.129244	 -1.187555	 0.320049	 -0.128656	 0.818778	 -0.553152	 0.084098	 2
1462074613.828	 17	 0.862843	 1.348358	 -0.528596	 -3.099046	 -1.196892	 0.332993	 -0.125078	 0.816588	 -0.558356	 0.076011	 2
1462074613.838	 17	 0.408714	 -0.016085	 -0.395592	 -3.084103	 -1.201872	 0.346036	 -0.125929	 0.814954	 -0.560824	 0.073948	 2
1462074613.848	 17	 0.302447	 -1.102509	 -0.064799	 -3.087556	 -1.204710	 0.351063	 -0.128773	 0.813719	 -0.561562	 0.076989	 2
1462074613.858	 17	 0.883551	 -2.291797	 0.146082	 -3.110006	 -1.211670	 0.348488	 -0.133635	 0.811038	 -0.563007	 0.085924	 2
1462074613.868	 17	 1.947504	 -3.059813	 -0.022732	 -3.139180	 -1.228410	 0.348370	 -0.140946	 0.804986	 -0.567759	 0.098907	 2
1462074613.878	 17	 2.762747	 -3.124378	 -0.236123	 3.117150	 -1.254358	 0.353284	 -0.149332	 0.795767	 -0.575949	 0.112860	 2
1462074613.888	 17	 2.935933	 -2.867207	 -0.196870	 3.091561	 -1.283720	 0.357164	 -0.156975	 0.785339	 -0.585422	 0.126031	 2
1462074613.898	 17	 2.733590	 -2.661454	 -0.066368	 3.061248	 -1.311648	 0.353839	 -0.163483	 0.775235	 -0.594207	 0.138572	 2
1462074613.908	 17	 2.538059	 -2.581343	 0.047985	 3.025182	 -1.337258	 0.343277	 -0.169325	 0.765674	 -0.601971	 0.150675	 2
1462074613.918	 17	 2.369669	 -2.425607	 0.188383	 2.977985	 -1.360927	 0.320330	 -0.174299	 0.756568	 -0.608894	 0.162703	 2
1462074613.928	 17	 2.127390	 -2.170995	 0.147034	 2.927473	 -1.382166	 0.291553	 -0.178675	 0.748125	 -0.615041	 0.173520	 2
1462074613.938	 17	 1.884333	 -1.993715	 0.001593	 2.879591	 -1.400925	 0.263526	 -0.183055	 0.740361	 -0.620388	 0.182963	 2
1462074613.948	 17	 1.680451	 -1.854021	 -0.177577	 2.838933	 -1.417933	 0.241482	 -0.187812	 0.733076	 -0.625141	 0.191115	 2
1462074613.958	 17	 1.438951	 -1.580953	 -0.313614	 2.808579	 -1.433073	 0.227568	 -0.192583	 0.726488	 -0.629315	 0.197711	 2
1462074613.968	 17	 1.220135	 -1.270546	 -0.424988	 2.791290	 -1.446382	 0.223696	 -0.196997	 0.720743	 -0.633002	 0.202559	 2
1462074613.978	 17	 1.065020	 -1.010485	 -0.559767	 2.790026	 -1.458502	 0.233205	 -0.201147	 0.715641	 -0.636418	 0.205841	 2
1462074613.988	 17	 0.992414	 -0.986089	 -0.598341	 2.800761	 -1.469995	 0.253819	 -0.205345	 0.710813	 -0.639633	 0.208443	 2
1462074613.998	 17	 0.939677	 -1.082703	 -0.595583	 2.816594	 -1.480951	 0.280332	 -0.209842	 0.706031	 -0.642538	 0.211261	 2
1462074614.008	 17	 0.900623	 -1.221882	 -0.590144	 2.837980	 -1.491423	 0.313719	 -0.214783	 0.701213	 -0.645103	 0.214499	 2
1462074614.018	 17	 0.911827	 -1.337826	 -0.587057	 2.865960	 -1.501782	 0.354895	 -0.220087	 0.696233	 -0.647480	 0.218154	 2
1462074614.028	 17	 0.967782	 -1.476172	 -0.574977	 2.901023	 -1.512471	 0.404455	 -0.225710	 0.690914	 -0.649816	 0.222335	 2
1462074614.038	 17	 1.022431	 -1.644475	 -0.587677	 2.952057	 -1.523585	 0.471576	 -0.231787	 0.685164	 -0.652115	 0.227095	 2
1462074614.048	 17	 1.054421	 -1.832142	 -0.639792	 3.046936	 -1.534850	 0.584393	 -0.238537	 0.678962	 -0.654303	 0.232375	 2
1462074614.058	 17	 1.092637	 -2.011714	 -0.746241	 -3.016383	 -1.545622	 0.824084	 -0.246140	 0.672237	 -0.656404	 0.238005	 2
1462074614.068	 17	 1.198582	 -2.041895	 -0.905177	 -2.436974	 -1.553151	 1.423971	 -0.254326	 0.664860	 -0.658808	 0.243416	 2
1462074614.078	 17	 1.320779	 -2.103316	 -0.965429	 -1.612663	 -1.549926	 2.269304	 -0.262795	 0.656792	 -0.661550	 0.248826	 2
1462074614.088	 17	 1.417600	 -2.186380	 -0.940401	 -1.181488	 -1.537854	 2.722220	 -0.271297	 0.648188	 -0.664409	 0.254581	 2
1462074614.098	 17	 1.507653	 -2.386081	 -0.868440	 -0.982742	 -1.522944	 2.944444	 -0.279996	 0.639011	 -0.667125	 0.261174	 2
1462074614.108	 17	 1.571124	 -2.576035	 -0.783368	 -0.871533	 -1.507150	 3.081194	 -0.288949	 0.629317	 -0.669516	 0.268732	 2
1462074614.118	 17	 1.619276	 -2.599140	 -0.723254	 -0.800167	 -1.490886	 -3.104245	 -0.297812	 0.619278	 -0.671709	 0.276784	 2
1462074614.128	 17	 1.647187	 -2.331253	 -0.731661	 -0.752709	 -1.474098	 -3.032410	 -0.305842	 0.609285	 -0.674127	 0.284227	 2
1462074614.138	 17	 1.639287	 -1.940081	 -0.767386	 -0.721877	 -1.456810	 -2.980894	 -0.312672	 0.599626	 -0.677033	 0.290364	 2
1462074614.148	 17	 1.585702	 -1.547352	 -0.753673	 -0.700050	 -1.439751	 -2.942378	 -0.318147	 0.590605	 -0.680313	 0.295201	 2
1462074614.158	 17	 1.509133	 -1.243119	 -0.778951	 -0.685730	 -1.423075	 -2.914654	 -0.322610	 0.582208	 -0.683834	 0.298879	 2
1462074614.168	 17	 1.384000	 -1.039906	 -0.820732	 -0.679649	 -1.406937	 -2.897507	 -0.326548	 0.574393	 -0.687395	 0.301541	 2
1462074614.178	 17	 1.172605	 -0.844549	 -0.807482	 -0.680494	 -1.392229	 -2.889265	 -0.330103	 0.567454	 -0.690674	 0.303313	 2
1462074614.188	 17	 0.858440	 -0.553692	 -0.719976	 -0.686010	 -1.380204	 -2.888435	 -0.332973	 0.561993	 -0.693419	 0.304076	 2
1462074614.198	 17	 0.542851	 -0.177178	 -0.554927	 -0.692251	 -1.371649	 -2.892038	 -0.334651	 0.558445	 -0.695601	 0.303787	 2
1462074614.208	 17	 0.371766	 0.079662	 -0.407169	 -0.695951	 -1.365722	 -2.896103	 -0.335173	 0.556344	 -0.697443	 0.302844	 2
1462074614.218	 17	 0.344469	 0.093212	 -0.309821	 -0.696341	 -1.360985	 -2.897588	 -0.335191	 0.554755	 -0.699071	 0.301983	 2
1462074614.228	 17	 0.400472	 -0.251558	 -0.309254	 -0.697192	 -1.356082	 -2.897018	 -0.335950	 0.552688	 -0.700358	 0.301948	 2
1462074614.238	 17	 0.429500	 -0.862345	 -0.335440	 -0.703100	 -1.350687	 -2.895873	 -0.338668	 0.549569	 -0.700852	 0.303455	 2
1462074614.248	 17	 0.346320	 -1.521594	 -0.342981	 -0.717365	 -1.345615	 -2.896602	 -0.343784	 0.545606	 -0.700086	 0.306604	 2
1462074614.258	 17	 0.180137	 -2.174897	 -0.297523	 -0.741147	 -1.341844	 -2.900355	 -0.351323	 0.541165	 -0.697685	 0.311364	 2
1462074614.268	 17	 -0.014357	 -2.795570	 -0.164122	 -0.772796	 -1.340216	 -2.905754	 -0.360990	 0.536537	 -0.693394	 0.317835	 2
1462074614.278	 17	 -0.175947	 -3.466227	 -0.016551	 -0.811508	 -1.340810	 -2.911627	 -0.372736	 0.531603	 -0.687058	 0.326216	 2
1462074614.288	 17	 -0.403811	 -3.908234	 0.100685	 -0.858434	 -1.343591	 -2.920579	 -0.386156	 0.526562	 -0.678802	 0.335923	 2
1462074614.298	 17	 -0.867027	 -4.054625	 0.260023	 -0.917701	 -1.349891	 -2.940032	 -0.400413	 0.522587	 -0.668586	 0.345780	 2
1462074614.308	 17	 -1.614582	 -4.113689	 0.466346	 -1.000840	 -1.361346	 -2.983142	 -0.415401	 0.520908	 -0.655821	 0.354959	 2
1462074614.318	 17	 -2.570791	 -3.868747	 0.709287	 -1.124924	 -1.378290	 -3.069298	 -0.430744	 0.522692	 -0.640211	 0.362468	 2
1462074614.328	 17	 -3.464880	 -2.917583	 0.975311	 -1.305328	 -1.398154	 3.062998	 -0.444409	 0.529118	 -0.623000	 0.366615	 2
1462074614.338	 17	 -4.051894	 -1.399947	 1.305746	 -1.548686	 -1.415899	 2.834643	 -0.453905	 0.540615	 -0.606221	 0.366335	 2
1462074614.348	 17	 -4.172992	 0.396738	 1.730641	 -1.839193	 -1.426911	 2.541545	 -0.457271	 0.556701	 -0.591670	 0.361821	 2
1462074614.358	 17	 -3.838909	 2.489261	 2.214007	 -2.131343	 -1.430145	 2.226863	 -0.452728	 0.576457	 -0.581201	 0.353468	 2
1462074614.368	 17	 -3.459638	 4.694096	 2.656461	 -2.395444	 -1.427064	 1.918091	 -0.439361	 0.599627	 -0.575620	 0.340693	 2
1462074614.378	 17	 -3.281822	 5.963367	 2.927835	 -2.623817	 -1.417230	 1.628871	 -0.419502	 0.624880	 -0.573112	 0.324170	 2
1462074614.388	 17	 -3.283826	 5.591545	 3.134348	 -2.820997	 -1.399617	 1.371480	 -0.398638	 0.649554	 -0.569407	 0.308129	 2
1462074614.398	 17	 -3.176114	 4.996706	 3.285608	 -2.981787	 -1.376061	 1.155185	 -0.377981	 0.672793	 -0.563973	 0.293962	 2
1462074614.408	 17	 -2.963641	 3.676025	 3.269337	 -3.110188	 -1.349050	 0.982828	 -0.359844	 0.693127	 -0.556343	 0.283849	 2
1462074614.418	 17	 -2.698161	 2.441018	 3.061564	 3.072413	 -1.320760	 0.851294	 -0.345225	 0.710101	 -0.547071	 0.278010	 2
1462074614.428	 17	 -2.473462	 1.292184	 2.694019	 2.995448	 -1.292713	 0.755210	 -0.334411	 0.723853	 -0.536869	 0.275640	 2
1462074614.438	 17	 -2.392929	 0.143596	 2.302152	 2.935217	 -1.264809	 0.687857	 -0.327851	 0.734803	 -0.525495	 0.276466	 2
1462074614.448	 17	 -2.318894	 -0.852418	 1.973576	 2.884866	 -1.237302	 0.641373	 -0.325137	 0.743368	 -0.512970	 0.280272	 2
1462074614.458	 17	 -2.068859	 -1.433968	 1.668640	 2.841474	 -1.211864	 0.609300	 -0.325009	 0.749770	 -0.500338	 0.286139	 2
1462074614.468	 17	 -1.623336	 -1.524683	 1.366569	 2.804915	 -1.190809	 0.586462	 -0.325881	 0.754217	 -0.489220	 0.292612	 2
1462074614.478	 17	 -1.158196	 -1.369188	 1.143354	 2.774291	 -1.174771	 0.568619	 -0.326698	 0.757153	 -0.480356	 0.298742	 2
1462074614.488	 17	 -0.834027	 -1.106084	 1.035337	 2.747339	 -1.162445	 0.552064	 -0.326837	 0.759272	 -0.473418	 0.304235	 2
1462074614.498	 17	 -0.668368	 -0.990124	 0.959305	 2.723186	 -1.152176	 0.536665	 -0.326570	 0.760966	 -0.467627	 0.309205	 2
1462074614.508	 17	 -0.625777	 -0.996750	 0.942886	 2.700119	 -1.142496	 0.522225	 -0.326267	 0.762432	 -0.462133	 0.314135	 2
1462074614.518	 17	 -0.622544	 -1.022010	 0.980990	 2.677004	 -1.132653	 0.507992	 -0.325902	 0.763828	 -0.456558	 0.319233	 2
1462074614.528	 17	 -0.606931	 -0.920659	 1.029757	 2.654257	 -1.122537	 0.493402	 -0.325160	 0.765338	 -0.451019	 0.324207	 2
1462074614.538	 17	 -0.566174	 -0.665389	 1.046698	 2.633731	 -1.112477	 0.478757	 -0.323755	 0.767126	 -0.445909	 0.328429	 2
1462074614.548	 17	 -0.514453	 -0.316826	 1.026044	 2.616865	 -1.102773	 0.464473	 -0.321562	 0.769294	 -0.441512	 0.331440	 2
1462074614.558	 17	 -0.432296	 -0.018843	 0.936446	 2.604264	 -1.093984	 0.451234	 -0.318777	 0.771698	 -0.438035	 0.333149	 2
1462074614.568	 17	 -0.337278	 0.133853	 0.764386	 2.595516	 -1.086700	 0.440251	 -0.316033	 0.773941	 -0.435441	 0.333961	 2
1462074614.578	 17	 -0.198632	 0.262994	 0.588530	 2.590045	 -1.081401	 0.431418	 -0.313484	 0.775835	 -0.433842	 0.334050	 2
1462074614.588	 17	 -0.022711	 0.305420	 0.496803	 2.585572	 -1.078097	 0.422934	 -0.310953	 0.777293	 -0.433178	 0.333886	 2
1462074614.598	 17	 0.189750	 0.366129	 0.447559	 2.580412	 -1.076812	 0.413163	 -0.308188	 0.778286	 -0.433473	 0.333754	 2
1462074614.608	 17	 0.390529	 0.474430	 0.356229	 2.575455	 -1.077660	 0.402470	 -0.305159	 0.778874	 -0.434851	 0.333374	 2
1462074614.618	 17	 0.559062	 0.579241	 0.210793	 2.571859	 -1.080688	 0.392088	 -0.302108	 0.779047	 -0.437299	 0.332543	 2
1462074614.628	 17	 0.694240	 0.655185	 0.031275	 2.570244	 -1.085848	 0.383061	 -0.299312	 0.778764	 -0.440708	 0.331233	 2
1462074614.638	 17	 0.813352	 0.730013	 -0.161969	 2.571075	 -1.093040	 0.375981	 -0.296886	 0.778038	 -0.444998	 0.329383	 2
1462074614.648	 17	 0.968550	 0.782234	 -0.378118	 2.574370	 -1.102591	 0.371004	 -0.294893	 0.776752	 -0.450275	 0.327027	 2
1462074614.658	 17	 1.146030	 0.805683	 -0.592598	 2.579730	 -1.114785	 0.368033	 -0.293379	 0.774767	 -0.456605	 0.324310	 2
1462074614.668	 17	 1.399995	 0.746022	 -0.796793	 2.585843	 -1.130007	 0.366344	 -0.292355	 0.771849	 -0.464066	 0.321590	 2
1462074614.678	 17	 1.796795	 0.643463	 -0.991974	 2.590819	 -1.149313	 0.364406	 -0.291716	 0.767600	 -0.473050	 0.319243	 2
1462074614.688	 17	 2.372309	 0.429676	 -1.199338	 2.591535	 -1.174199	 0.359830	 -0.291393	 0.761408	 -0.484065	 0.317852	 2
1462074614.698	 17	 3.047298	 0.029539	 -1.396512	 2.583827	 -1.205782	 0.349960	 -0.291565	 0.752609	 -0.497320	 0.318186	 2
1462074614.708	 17	 3.413799	 -0.619576	 -1.584792	 2.565415	 -1.242416	 0.335107	 -0.293072	 0.741167	 -0.511687	 0.320868	 2
1462074614.718	 17	 2.017894	 -0.161606	 -1.330711	 2.553560	 -1.272316	 0.327924	 -0.295527	 0.731438	 -0.522939	 0.322797	 2
1462074614.728	 17	 -0.666444	 0.804609	 -0.153719	 2.577260	 -1.272536	 0.344158	 -0.295281	 0.732773	 -0.523924	 0.318366	 2
1462074614.738	 17	 -0.823938	 0.174580	 0.171110	 2.592223	 -1.264552	 0.355966	 -0.295233	 0.735797	 -0.521102	 0.316059	 2
1462074614.748	 17	 -0.330273	 -0.373708	 0.444137	 2.586649	 -1.258696	 0.353367	 -0.295383	 0.737047	 -0.518368	 0.317498	 2
1462074614.758	 17	 0.054967	 -0.053572	 0.598297	 2.570705	 -1.255454	 0.338121	 -0.293689	 0.737717	 -0.517162	 0.319474	 2
1462074614.768	 17	 0.164152	 -0.108120	 0.747111	 2.549930	 -1.252880	 0.316769	 -0.291001	 0.738271	 -0.516527	 0.321673	 2
1462074614.778	 17	 0.079916	 -0.748536	 0.989142	 2.519104	 -1.248513	 0.290296	 -0.288836	 0.738400	 -0.514620	 0.326351	 2
1462074614.788	 17	 -0.189003	 -1.517001	 1.099435	 2.482144	 -1.241161	 0.265373	 -0.288459	 0.738042	 -0.510498	 0.333883	 2
1462074614.798	 17	 -0.426951	 -1.751231	 1.117445	 2.446565	 -1.231194	 0.246166	 -0.289411	 0.737673	 -0.504684	 0.342597	 2
1462074614.808	 17	 -0.329180	 -1.377200	 1.107285	 2.415061	 -1.221063	 0.228580	 -0.289723	 0.737646	 -0.499192	 0.350351	 2
1462074614.818	 17	 0.191359	 -0.666835	 1.007050	 2.384834	 -1.214349	 0.205461	 -0.287921	 0.737533	 -0.496284	 0.356158	 2
1462074614.828	 17	 0.511077	 -0.112126	 0.774960	 2.358062	 -1.211899	 0.179273	 -0.284595	 0.737171	 -0.496185	 0.359703	 2
1462074614.838	 17	 0.302770	 0.268434	 0.808025	 2.338040	 -1.209053	 0.156027	 -0.280604	 0.737627	 -0.496446	 0.361538	 2
1462074614.848	 17	 -0.248841	 0.555682	 1.035048	 2.327254	 -1.201349	 0.139191	 -0.275961	 0.740112	 -0.495017	 0.361991	 2
1462074614.858	 17	 -0.830047	 0.490623	 1.215354	 2.324813	 -1.187991	 0.130829	 -0.271506	 0.744403	 -0.491038	 0.361980	 2
1462074614.868	 17	 -1.229638	 0.246469	 1.119576	 2.328864	 -1.171640	 0.131881	 -0.268499	 0.749338	 -0.485052	 0.362113	 2
1462074614.878	 17	 -1.105712	 0.038959	 0.861849	 2.334675	 -1.156783	 0.137331	 -0.266959	 0.753571	 -0.479044	 0.362465	 2
1462074614.888	 17	 -0.325948	 0.181586	 0.604867	 2.334203	 -1.148180	 0.135494	 -0.265112	 0.755977	 -0.475942	 0.362896	 2
1462074614.898	 17	 0.067148	 0.564958	 0.242653	 2.333231	 -1.145889	 0.129411	 -0.262703	 0.757198	 -0.476017	 0.362001	 2
1462074614.908	 17	 -0.198434	 0.848600	 -0.058269	 2.342958	 -1.145089	 0.131222	 -0.260955	 0.758922	 -0.476650	 0.358811	 2
1462074614.918	 17	 -0.578173	 0.509765	 -0.148705	 2.359114	 -1.142633	 0.142002	 -0.260849	 0.761040	 -0.475865	 0.355428	 2
1462074614.928	 17	 -0.575598	 -0.169076	 -0.036745	 2.369640	 -1.138773	 0.153600	 -0.262225	 0.762398	 -0.473654	 0.354456	 2
1462074614.938	 17	 -0.303248	 -0.709028	 0.123184	 2.367738	 -1.135475	 0.158056	 -0.263915	 0.762335	 -0.471303	 0.356467	 2
1462074614.948	 17	 0.026134	 -0.887653	 -0.028421	 2.359870	 -1.134894	 0.158843	 -0.265985	 0.760973	 -0.469889	 0.359689	 2
1462074614.958	 17	 0.498711	 -0.859835	 -0.107946	 2.346784	 -1.138226	 0.154136	 -0.267746	 0.758368	 -0.470313	 0.363312	 2
1462074614.968	 17	 1.024221	 -0.522210	 -0.125367	 2.328314	 -1.145274	 0.140743	 -0.268063	 0.754959	 -0.473059	 0.366599	 2
1462074614.978	 17	 1.517639	 0.058784	 -0.182873	 2.306951	 -1.156003	 0.118287	 -0.266314	 0.751247	 -0.478523	 0.368401	 2
1462074614.988	 17	 1.842592	 0.629995	 -0.191045	 2.284073	 -1.169254	 0.088098	 -0.262619	 0.747594	 -0.486179	 0.368462	 2
1462074614.998	 17	 1.989864	 1.233280	 -0.101453	 2.261064	 -1.182867	 0.051316	 -0.256805	 0.744636	 -0.495141	 0.366612	 2
1462074615.008	 17	 2.017142	 1.748538	 -0.025489	 2.238599	 -1.195851	 0.009769	 -0.249243	 0.742477	 -0.504754	 0.363084	 2
1462074615.018	 17	 2.477278	 1.356828	 -0.320896	 2.211169	 -1.211248	 -0.037140	 -0.241696	 0.739390	 -0.515537	 0.359314	 2
1462074615.028	 17	 3.560481	 -1.228289	 -1.277333	 2.145562	 -1.238958	 -0.100615	 -0.241028	 0.728326	 -0.528998	 0.362778	 2
1462074615.038	 17	 3.434388	 -2.945506	 -1.697204	 2.051686	 -1.270862	 -0.172061	 -0.247396	 0.712131	 -0.541524	 0.372045	 2
1462074615.048	 17	 2.695554	 -3.483543	 -1.681923	 1.952194	 -1.298421	 -0.240236	 -0.257205	 0.695638	 -0.550635	 0.383059	 2
1462074615.058	 17	 1.894675	 -3.397922	 -1.638983	 1.864634	 -1.320877	 -0.295286	 -0.268343	 0.681035	 -0.556490	 0.393068	 2
1462074615.068	 17	 1.337690	 -3.160117	 -1.631921	 1.791659	 -1.340390	 -0.337197	 -0.279958	 0.668310	 -0.560238	 0.401395	 2
1462074615.078	 17	 0.972999	 -2.690688	 -1.580681	 1.730832	 -1.358102	 -0.370563	 -0.291067	 0.657343	 -0.562936	 0.407779	 2
1462074615.088	 17	 0.720856	 -1.966726	 -1.438529	 1.681783	 -1.373786	 -0.398666	 -0.300367	 0.648552	 -0.565319	 0.411794	 2
1462074615.098	 17	 0.611770	 -1.213556	 -1.317599	 1.641709	 -1.387750	 -0.425210	 -0.307383	 0.641845	 -0.567986	 0.413453	 2
1462074615.108	 17	 0.625363	 -0.652573	 -1.248552	 1.602902	 -1.400669	 -0.456800	 -0.312326	 0.636530	 -0.571383	 0.413285	 2
1462074615.118	 17	 0.576295	 -0.447990	 -1.217445	 1.563035	 -1.412988	 -0.492388	 -0.316343	 0.631916	 -0.575052	 0.412220	 2
1462074615.128	 17	 0.438324	 -0.554645	 -1.167146	 1.524824	 -1.424660	 -0.525852	 -0.320561	 0.627610	 -0.578160	 0.411189	 2
1462074615.138	 17	 0.280380	 -0.801824	 -1.142492	 1.489621	 -1.435882	 -0.553953	 -0.325617	 0.623314	 -0.580326	 0.410701	 2
1462074615.148	 17	 -0.023992	 -0.686581	 -1.067364	 1.469908	 -1.446740	 -0.566297	 -0.331070	 0.619807	 -0.581534	 0.409939	 2
1462074615.158	 17	 -0.216169	 -0.564026	 -0.965434	 1.470669	 -1.456748	 -0.559559	 -0.336218	 0.617470	 -0.582009	 0.408599	 2
1462074615.168	 17	 -0.228885	 -0.501610	 -1.016965	 1.478425	 -1.466842	 -0.546656	 -0.341233	 0.615447	 -0.582441	 0.406876	 2
1462074615.178	 17	 0.032504	 -0.745914	 -1.012988	 1.466768	 -1.477118	 -0.551762	 -0.346406	 0.612492	 -0.583243	 0.405813	 2
1462074615.188	 17	 0.408241	 -1.103090	 -0.834141	 1.408514	 -1.485463	 -0.599904	 -0.351469	 0.607934	 -0.584205	 0.406927	 2
1462074615.198	 17	 0.663519	 -1.204661	 -0.657195	 1.306639	 -1.490964	 -0.690198	 -0.355799	 0.602492	 -0.585371	 0.409574	 2
1462074615.208	 17	 0.781704	 -1.254006	 -0.667209	 1.175807	 -1.494667	 -0.809004	 -0.359821	 0.596570	 -0.586755	 0.412737	 2
1462074615.218	 17	 0.831379	 -1.397210	 -0.887455	 1.013090	 -1.498220	 -0.958620	 -0.364528	 0.589857	 -0.588460	 0.415817	 2
1462074615.228	 17	 0.831698	 -1.575554	 -1.133177	 0.811824	 -1.501643	 -1.144966	 -0.370474	 0.582214	 -0.590320	 0.418687	 2
1462074615.248	 18	 0.754196	 -1.496393	 -1.395009	 0.328180	 -1.502553	 -1.598391	 -0.383980	 0.565936	 -0.594559	 0.422819	 2
1462074615.258	 18	 0.657833	 -1.303888	 -1.435009	 0.095267	 -1.498840	 -1.818293	 -0.390574	 0.558272	 -0.596874	 0.423705	 2
1462074615.268	 18	 0.538235	 -1.066584	 -1.466930	 -0.110317	 -1.493028	 -2.013155	 -0.396789	 0.551317	 -0.599322	 0.423582	 2
1462074615.278	 18	 0.463286	 -0.880339	 -1.481596	 -0.285509	 -1.485401	 -2.179697	 -0.402591	 0.544978	 -0.601924	 0.422620	 2
1462074615.288	 18	 0.429426	 -0.825936	 -1.473335	 -0.430045	 -1.476100	 -2.316441	 -0.408181	 0.538902	 -0.604536	 0.421318	 2
1462074615.308	 19	 0.322266	 -0.810781	 -1.333712	 -0.642199	 -1.455564	 -2.513299	 -0.419167	 0.527506	 -0.608941	 0.418601	 2
1462074615.318	 19	 0.285765	 -0.757461	 -1.182626	 -0.713487	 -1.445622	 -2.577418	 -0.424091	 0.522446	 -0.610653	 0.417493	 2
1462074615.328	 19	 0.402139	 -0.934860	 -0.958282	 -0.761162	 -1.436074	 -2.616581	 -0.428675	 0.517314	 -0.611842	 0.417461	 2
1462074615.338	 19	 0.494649	 -1.141364	 -0.796882	 -0.790390	 -1.426852	 -2.635128	 -0.433134	 0.511793	 -0.612466	 0.418746	 2
1462074615.348	 19	 0.491283	 -1.492628	 -0.689282	 -0.813805	 -1.418252	 -2.644717	 -0.438181	 0.505788	 -0.612198	 0.421176	 2
1462074615.358	 19	 0.408605	 -1.927585	 -0.567915	 -0.837504	 -1.410892	 -2.650293	 -0.444328	 0.499286	 -0.610547	 0.424874	 2
1462074615.368	 19	 0.219699	 -2.340254	 -0.349498	 -0.864115	 -1.406009	 -2.654609	 -0.451581	 0.492765	 -0.607092	 0.429763	 2
1462074615.378	 19	 -0.024614	 -2.800058	 -0.053236	 -0.894010	 -1.404760	 -2.657720	 -0.459914	 0.486543	 -0.601356	 0.436034	 2
1462074615.388	 19	 -0.280253	 -3.164174	 0.233358	 -0.929119	 -1.407366	 -2.662075	 -0.469200	 0.480790	 -0.593320	 0.443468	 2
1462074615.398	 19	 -0.609436	 -3.334054	 0.581016	 -0.970920	 -1.414346	 -2.670923	 -0.478928	 0.476074	 -0.583149	 0.451573	 2
1462074615.408	 19	 -1.026365	 -3.173342	 1.013512	 -1.022004	 -1.426937	 -2.689853	 -0.488223	 0.473545	 -0.571077	 0.459635	 2
1462074615.418	 19	 -1.402564	 -2.697303	 1.384642	 -1.087323	 -1.444715	 -2.727183	 -0.496188	 0.473888	 -0.557986	 0.466774	 2
1462074615.428	 19	 -1.663213	 -1.854275	 1.661197	 -1.175239	 -1.465977	 -2.794647	 -0.501937	 0.477390	 -0.545212	 0.472125	 2
1462074615.438	 19	 -1.795792	 -0.770296	 1.922892	 -1.299917	 -1.489350	 -2.909402	 -0.504478	 0.484373	 -0.533937	 0.475180	 2
1462074615.448	 19	 -1.881487	 0.104798	 2.145999	 -1.516126	 -1.513172	 -3.125174	 -0.504026	 0.494353	 -0.524166	 0.476260	 2
1462074615.458	 19	 -1.979631	 0.701481	 2.252588	 -2.000081	 -1.532009	 2.667864	 -0.501630	 0.506397	 -0.515384	 0.475719	 2
1462074615.468	 19	 -1.983611	 1.142452	 2.338789	 -2.807535	 -1.532893	 1.849545	 -0.497788	 0.519718	 -0.507366	 0.474004	 2
1462074615.478	 19	 -1.845038	 1.800131	 2.592026	 2.926574	 -1.514754	 1.283695	 -0.491559	 0.534538	 -0.500439	 0.471380	 2
1462074615.488	 19	 -1.546368	 2.542623	 3.018376	 2.637936	 -1.489022	 0.970710	 -0.481612	 0.551198	 -0.494960	 0.468235	 2
1462074615.498	 19	 -1.281427	 3.082632	 3.523068	 2.455557	 -1.458728	 0.757730	 -0.467941	 0.569471	 -0.490319	 0.465103	 2
1462074615.508	 19	 -1.130284	 3.450913	 4.061258	 2.329002	 -1.423410	 0.596222	 -0.451045	 0.589108	 -0.485593	 0.462288	 2
1462074615.518	 19	 -1.269495	 3.874726	 4.512968	 2.249362	 -1.382161	 0.477308	 -0.431536	 0.610432	 -0.480100	 0.458970	 2
1462074615.528	 19	 -1.604834	 4.241706	 4.821980	 2.211384	 -1.335260	 0.395904	 -0.410297	 0.633556	 -0.473286	 0.454162	 2
1462074615.538	 19	 -1.922896	 4.367867	 4.930367	 2.201124	 -1.284677	 0.340310	 -0.388385	 0.657519	 -0.464902	 0.447986	 2
1462074615.548	 19	 -2.154224	 4.371275	 4.720326	 2.209368	 -1.233639	 0.303003	 -0.366962	 0.681122	 -0.455490	 0.440387	 2
1462074615.558	 19	 -2.198215	 4.153035	 4.381897	 2.226742	 -1.184723	 0.276443	 -0.346781	 0.703260	 -0.445662	 0.431918	 2
1462074615.568	 19	 -2.033799	 3.804162	 4.007400	 2.245135	 -1.139579	 0.254084	 -0.328044	 0.723101	 -0.436014	 0.423560	 2
1462074615.578	 19	 -1.697627	 3.404066	 3.678890	 2.260128	 -1.099119	 0.231718	 -0.310484	 0.740336	 -0.427178	 0.415957	 2
1462074615.588	 19	 -1.232149	 2.975443	 3.428920	 2.268547	 -1.063671	 0.206420	 -0.293733	 0.754811	 -0.419575	 0.409802	 2
1462074615.598	 19	 -0.816752	 2.750450	 3.224978	 2.272013	 -1.032761	 0.178217	 -0.277333	 0.767065	 -0.413424	 0.404694	 2
1462074615.609	 19	 -0.491948	 2.717679	 3.090756	 2.273586	 -1.005289	 0.148134	 -0.260856	 0.777898	 -0.408615	 0.399828	 2
1462074615.618	 19	 -0.215733	 2.760830	 2.992834	 2.274469	 -0.980449	 0.116383	 -0.244023	 0.787741	 -0.404983	 0.394850	 2
1462074615.628	 19	 0.021080	 2.832719	 2.881668	 2.275554	 -0.958040	 0.083577	 -0.226887	 0.796755	 -0.402447	 0.389537	 2
1462074615.639	 19	 0.174893	 2.952736	 2.773803	 2.277931	 -0.937671	 0.050588	 -0.209544	 0.805160	 -0.400795	 0.383631	 2
1462074615.648	 19	 0.157260	 3.136140	 2.684008	 2.283461	 -0.918275	 0.018953	 -0.192087	 0.813394	 -0.399451	 0.376739	 2
1462074615.658	 19	 0.032942	 3.355767	 2.559243	 2.293937	 -0.899163	 -0.009581	 -0.174791	 0.821789	 -0.397907	 0.368484	 2
1462074615.669	 19	 -0.054447	 3.508084	 2.407951	 2.309066	 -0.880700	 -0.034992	 -0.157854	 0.830244	 -0.396196	 0.358896	 2
1462074615.679	 19	 -0.013797	 3.420791	 2.267170	 2.325241	 -0.863563	 -0.058970	 -0.141466	 0.838143	 -0.394570	 0.349025	 2
1462074615.689	 19	 0.134667	 3.149927	 2.083243	 2.339831	 -0.848781	 -0.082400	 -0.125988	 0.844947	 -0.393445	 0.339695	 2
1462074615.699	 19	 0.382462	 2.702996	 1.860577	 2.350502	 -0.837328	 -0.105924	 -0.111794	 0.850198	 -0.393259	 0.331680	 2
1462074615.709	 19	 0.574874	 2.167848	 1.770793	 2.355539	 -0.828451	 -0.130278	 -0.098773	 0.853871	 -0.393826	 0.325652	 2
1462074615.719	 19	 0.746332	 1.724154	 1.670318	 2.355511	 -0.821402	 -0.155312	 -0.086749	 0.856241	 -0.394938	 0.321480	 2
1462074615.729	 19	 0.841974	 1.075142	 1.533423	 2.350110	 -0.816088	 -0.180033	 -0.076213	 0.857277	 -0.396471	 0.319496	 2
1462074615.739	 19	 0.970583	 -0.057844	 1.405593	 2.334869	 -0.812245	 -0.204322	 -0.068085	 0.856342	 -0.398225	 0.321650	 2
1462074615.749	 19	 1.161592	 -1.202582	 1.149218	 2.308113	 -0.810935	 -0.228376	 -0.062885	 0.852991	 -0.400721	 0.328442	 2
1462074615.759	 19	 1.198572	 -2.280028	 0.723222	 2.272673	 -0.812589	 -0.249527	 -0.061368	 0.847476	 -0.403821	 0.339038	 2
1462074615.769	 19	 1.014275	 -3.208991	 0.296272	 2.231284	 -0.816263	 -0.265314	 -0.063898	 0.840253	 -0.406726	 0.352797	 2
1462074615.779	 19	 0.695081	 -3.579979	 -0.096601	 2.189184	 -0.820889	 -0.274478	 -0.069704	 0.832287	 -0.408794	 0.367868	 2
1462074615.789	 19	 0.390038	 -3.820974	 -0.305077	 2.149476	 -0.825772	 -0.277743	 -0.077633	 0.824243	 -0.409841	 0.382920	 2
1462074615.799	 19	 0.195205	 -4.159829	 -0.323586	 2.108155	 -0.829740	 -0.278221	 -0.086873	 0.815614	 -0.409755	 0.399159	 2
1462074615.809	 19	 0.120833	 -3.813310	 -0.383660	 2.069221	 -0.833603	 -0.277295	 -0.096194	 0.807106	 -0.409243	 0.414544	 2
1462074615.819	 19	 0.021250	 -2.593553	 -0.305365	 2.041731	 -0.836933	 -0.275306	 -0.103473	 0.800769	 -0.408696	 0.425476	 2
1462074615.829	 19	 0.439265	 -1.910784	 0.147100	 2.018137	 -0.838011	 -0.279452	 -0.106923	 0.795770	 -0.408744	 0.433874	 2
1462074615.839	 19	 1.119108	 -1.520914	 0.502905	 1.990410	 -0.838116	 -0.295122	 -0.106417	 0.790522	 -0.410733	 0.441642	 2
1462074615.849	 19	 1.362025	 -1.261174	 0.631098	 1.960999	 -0.837780	 -0.317025	 -0.103761	 0.785169	 -0.413943	 0.448770	 2
1462074615.859	 19	 1.216130	 -1.194813	 0.629789	 1.933294	 -0.836520	 -0.338168	 -0.100887	 0.780144	 -0.416859	 0.455440	 2
1462074615.869	 19	 0.917256	 -1.374206	 0.558250	 1.907684	 -0.834513	 -0.355039	 -0.099101	 0.775350	 -0.418749	 0.462234	 2
1462074615.879	 19	 0.590713	 -1.794686	 0.524142	 1.881974	 -0.831654	 -0.367045	 -0.099013	 0.770277	 -0.419291	 0.470176	 2
1462074615.889	 19	 0.164436	 -2.144223	 0.552311	 1.856585	 -0.827245	 -0.373368	 -0.100591	 0.765047	 -0.418027	 0.479415	 2
1462074615.899	 19	 -0.337565	 -2.199427	 0.510340	 1.835189	 -0.821633	 -0.372481	 -0.103693	 0.760416	 -0.414831	 0.488806	 2
1462074615.909	 19	 -0.756441	 -2.074933	 0.494896	 1.819636	 -0.815202	 -0.364926	 -0.107809	 0.756847	 -0.409992	 0.497460	 2
1462074615.919	 19	 -1.012670	 -1.944849	 0.582533	 1.808273	 -0.807517	 -0.353360	 -0.112136	 0.754148	 -0.403898	 0.505522	 2
1462074615.929	 19	 -1.152250	 -1.797639	 0.732193	 1.799592	 -0.798189	 -0.339913	 -0.116069	 0.752119	 -0.396855	 0.513177	 2
1462074615.939	 19	 -1.192628	 -1.670836	 0.894655	 1.792439	 -0.787224	 -0.326119	 -0.119274	 0.750569	 -0.389188	 0.520531	 2
1462074615.949	 19	 -1.128912	 -1.657002	 1.067948	 1.784845	 -0.774730	 -0.313417	 -0.121634	 0.749068	 -0.381190	 0.528011	 2
1462074615.959	 19	 -1.000731	 -1.756281	 1.216180	 1.774999	 -0.761023	 -0.302757	 -0.123219	 0.747154	 -0.373121	 0.536059	 2
1462074615.969	 19	 -0.912666	 -1.902984	 1.262008	 1.762574	 -0.746840	 -0.293666	 -0.124470	 0.744610	 -0.365097	 0.544764	 2
1462074615.979	 19	 -0.938393	 -2.054794	 1.144651	 1.748695	 -0.733519	 -0.284313	 -0.126259	 0.741474	 -0.357152	 0.553820	 2
1462074615.989	 19	 -1.106855	 -2.194103	 1.079810	 1.734752	 -0.721051	 -0.272853	 -0.129006	 0.738008	 -0.348847	 0.563033	 2
1462074615.999	 19	 -1.364588	 -2.408400	 1.198360	 1.720754	 -0.707555	 -0.258300	 -0.132464	 0.734316	 -0.339238	 0.572844	 2
1462074616.009	 19	 -1.615357	 -2.540505	 1.360244	 1.707004	 -0.692276	 -0.240618	 -0.136324	 0.730534	 -0.328034	 0.583206	 2
1462074616.019	 19	 -1.751326	 -2.575872	 1.561462	 1.693644	 -0.675151	 -0.221051	 -0.140067	 0.726780	 -0.315551	 0.593802	 2
1462074616.029	 19	 -1.898453	 -2.560765	 2.118146	 1.680578	 -0.653358	 -0.200514	 -0.142437	 0.723333	 -0.301070	 0.604863	 2
1462074616.039	 19	 -1.902634	 -2.463923	 2.563506	 1.667960	 -0.626914	 -0.179956	 -0.143046	 0.720291	 -0.284879	 0.616086	 2
1462074616.049	 19	 -1.773299	 -2.253368	 2.903252	 1.655676	 -0.597165	 -0.161052	 -0.141730	 0.717611	 -0.267949	 0.627017	 2
1462074616.059	 19	 -1.579962	 -2.015636	 3.203260	 1.644005	 -0.564667	 -0.144546	 -0.138362	 0.715367	 -0.250754	 0.637360	 2
1462074616.069	 19	 -1.383640	 -1.754052	 3.420334	 1.633114	 -0.530041	 -0.130514	 -0.133104	 0.713547	 -0.233579	 0.646974	 2
1462074616.079	 19	 -1.266734	 -1.464571	 3.492356	 1.623553	 -0.493709	 -0.118174	 -0.126330	 0.712221	 -0.216381	 0.655714	 2
1462074616.089	 19	 -1.268719	 -1.143899	 3.417563	 1.616598	 -0.457855	 -0.106063	 -0.119199	 0.711566	 -0.199526	 0.663065	 2
1462074616.099	 19	 -1.340907	 -0.921556	 3.248680	 1.612040	 -0.423536	 -0.093256	 -0.112491	 0.711435	 -0.183046	 0.669104	 2
1462074616.109	 19	 -1.401460	 -0.946014	 3.078457	 1.608280	 -0.391839	 -0.079487	 -0.106871	 0.711264	 -0.167133	 0.674351	 2
1462074616.119	 19	 -1.418043	 -1.205189	 2.972811	 1.602122	 -0.361409	 -0.065364	 -0.101928	 0.710112	 -0.151360	 0.680031	 2
1462074616.129	 19	 -1.427241	 -1.515157	 2.906061	 1.592654	 -0.331843	 -0.051081	 -0.097462	 0.707696	 -0.135632	 0.686493	 2
1462074616.139	 19	 -1.428391	 -1.965231	 2.882699	 1.578749	 -0.302780	 -0.036475	 -0.093400	 0.703613	 -0.119742	 0.694166	 2
1462074616.149	 19	 -1.344287	 -2.480096	 2.905952	 1.559367	 -0.273825	 -0.022147	 -0.089341	 0.697507	 -0.103752	 0.703376	 2
1462074616.159	 19	 -1.172248	 -3.160880	 2.965262	 1.533011	 -0.244665	 -0.008801	 -0.084871	 0.688819	 -0.087786	 0.714576	 2
1462074616.169	 19	 -0.902442	 -3.971347	 3.074736	 1.498049	 -0.214777	 0.002928	 -0.079486	 0.676886	 -0.071917	 0.728241	 2
1462074616.179	 19	 -0.520821	 -4.798390	 3.143650	 1.453971	 -0.184178	 0.012257	 -0.072764	 0.661371	 -0.056557	 0.744376	 2
1462074616.189	 19	 -0.041030	 -5.544544	 3.113346	 1.401368	 -0.153432	 0.018447	 -0.064511	 0.642277	 -0.042382	 0.762576	 2
1462074616.199	 19	 0.474931	 -6.180286	 2.922824	 1.341461	 -0.123519	 0.020942	 -0.054843	 0.619833	 -0.030174	 0.782233	 2
1462074616.209	 19	 0.857476	 -6.730262	 2.625554	 1.275439	 -0.095434	 0.020419	 -0.044393	 0.594265	 -0.020203	 0.802789	 2
1462074616.219	 19	 0.962542	 -7.184718	 2.480795	 1.204603	 -0.068667	 0.019558	 -0.033822	 0.565903	 -0.011393	 0.823699	 2
1462074616.229	 19	 0.931522	 -7.380722	 2.427019	 1.131112	 -0.042523	 0.020459	 -0.023429	 0.535553	 -0.002758	 0.844172	 2
1462074616.239	 19	 0.828403	 -7.227854	 2.345144	 1.058371	 -0.017564	 0.023666	 -0.013554	 0.504686	 0.005781	 0.863177	 2
1462074616.249	 19	 0.662585	 -6.780290	 2.248439	 0.989320	 0.005516	 0.029469	 -0.004568	 0.474715	 0.014277	 0.880012	 2
1462074616.259	 19	 0.388706	 -5.907239	 2.114004	 0.927621	 0.025777	 0.038010	 0.003023	 0.447460	 0.022759	 0.894009	 2
1462074616.269	 19	 0.244014	 -4.989116	 1.940496	 0.875366	 0.042915	 0.048343	 0.009186	 0.424090	 0.030977	 0.905043	 2
1462074616.279	 19	 0.491872	 -4.552952	 1.759086	 0.828554	 0.059215	 0.057133	 0.015596	 0.402962	 0.038046	 0.914293	 2
1462074616.289	 19	 0.831876	 -4.293372	 1.611466	 0.784557	 0.076299	 0.063097	 0.023175	 0.382938	 0.043700	 0.922449	 2
1462074616.299	 20	 1.009780	 -3.841372	 1.532059	 0.744464	 0.094058	 0.067521	 0.031504	 0.364565	 0.048496	 0.929381	 2
1462074616.319	 20	 1.270619	 -2.504022	 1.398355	 0.684282	 0.130433	 0.074948	 0.048807	 0.336857	 0.057068	 0.938557	 2
1462074616.329	 20	 1.548175	 -2.122056	 1.235365	 0.662146	 0.149938	 0.075730	 0.058510	 0.326594	 0.060029	 0.941440	 2
1462074616.339	 20	 1.819705	 -1.917428	 1.109145	 0.642767	 0.170787	 0.074112	 0.069207	 0.317511	 0.061945	 0.943695	 2
1462074616.359	 21	 2.087157	 -1.409971	 0.939950	 0.612006	 0.215202	 0.066471	 0.092396	 0.302745	 0.063837	 0.946432	 2
1462074616.369	 21	 2.084014	 -1.165384	 0.932662	 0.600729	 0.237653	 0.062074	 0.104068	 0.297155	 0.064491	 0.946948	 2
1462074616.379	 21	 2.019177	 -0.899161	 0.950624	 0.592000	 0.259828	 0.058350	 0.115425	 0.292730	 0.065440	 0.946944	 2
1462074616.389	 21	 1.934334	 -0.843116	 1.017962	 0.584399	 0.281591	 0.055654	 0.126395	 0.288837	 0.066789	 0.946645	 2
1462074616.399	 21	 1.953243	 -0.979746	 1.104984	 0.575465	 0.303774	 0.054022	 0.137455	 0.284328	 0.068520	 0.946345	 2
1462074616.409	 21	 2.000752	 -1.189608	 1.225180	 0.564267	 0.326994	 0.053312	 0.148957	 0.278762	 0.070558	 0.946111	 2
1462074616.419	 21	 1.962998	 -1.295680	 1.249032	 0.551473	 0.350409	 0.053466	 0.160499	 0.272475	 0.072766	 0.945887	 2
1462074616.429	 22	 1.827681	 -1.361158	 1.112117	 0.537957	 0.372344	 0.053692	 0.171368	 0.265850	 0.074602	 0.945722	 2
1462074616.449	 22	 1.368767	 -1.410144	 0.625406	 0.510953	 0.407242	 0.051518	 0.189214	 0.252443	 0.075490	 0.945924	 2
1462074616.459	 22	 1.195260	 -1.508841	 0.585500	 0.496476	 0.420841	 0.050675	 0.196316	 0.245330	 0.075319	 0.946362	 2
1462074616.469	 22	 1.144946	 -1.555376	 0.601491	 0.481029	 0.433812	 0.050513	 0.203073	 0.237825	 0.075199	 0.946861	 2
1462074616.479	 22	 1.158110	 -1.491494	 0.615826	 0.465815	 0.446844	 0.050747	 0.209806	 0.230468	 0.075195	 0.947213	 2
1462074616.489	 22	 1.214795	 -1.493544	 0.649418	 0.450813	 0.460443	 0.051208	 0.216777	 0.223228	 0.075280	 0.947370	 2
1462074616.509	 23	 1.268896	 -1.407822	 0.465367	 0.421280	 0.488077	 0.051139	 0.231018	 0.208865	 0.074764	 0.947321	 2
1462074616.519	 23	 1.222302	 -1.424783	 0.307883	 0.408253	 0.500787	 0.048991	 0.237758	 0.202274	 0.073451	 0.947186	 2
1462074616.529	 23	 1.077684	 -1.651904	 0.170611	 0.393690	 0.511889	 0.046163	 0.243837	 0.194885	 0.071395	 0.947347	 2
1462074616.539	 23	 0.846011	 -1.807297	 0.062474	 0.377455	 0.520626	 0.043137	 0.248844	 0.186699	 0.068746	 0.947889	 2
1462074616.549	 23	 0.569079	 -1.913962	 0.055367	 0.359710	 0.526785	 0.040987	 0.252565	 0.177931	 0.066031	 0.948784	 2
1462074616.559	 23	 0.309617	 -1.975671	 0.094353	 0.340181	 0.530533	 0.040497	 0.255023	 0.168549	 0.063625	 0.950003	 2
1462074616.569	 23	 0.194779	 -1.887057	 0.094046	 0.320893	 0.532887	 0.040719	 0.256729	 0.159381	 0.061444	 0.951269	 2
1462074616.579	 23	 0.139577	 -1.601825	 0.097181	 0.303848	 0.534611	 0.041216	 0.258028	 0.151315	 0.059611	 0.952351	 2
1462074616.589	 23	 0.133484	 -1.339902	 0.132710	 0.289376	 0.536216	 0.042156	 0.259151	 0.144527	 0.058298	 0.953181	 2
1462074616.599	 23	 0.219646	 -1.187929	 0.150426	 0.276681	 0.538478	 0.043175	 0.260526	 0.138587	 0.057282	 0.953750	 2
1462074616.609	 23	 0.360584	 -1.153412	 0.127139	 0.264870	 0.541969	 0.043678	 0.262494	 0.132994	 0.056195	 0.954071	 2
1462074616.619	 23	 0.486029	 -1.227414	 0.093385	 0.253035	 0.546648	 0.043404	 0.265077	 0.127278	 0.054780	 0.954219	 2
1462074616.629	 23	 0.607427	 -1.231402	 0.032609	 0.241110	 0.552326	 0.042393	 0.268174	 0.121418	 0.053028	 0.954216	 2
1462074616.639	 23	 0.770490	 -1.203798	 -0.054881	 0.230305	 0.559345	 0.039975	 0.271951	 0.115893	 0.050793	 0.953956	 2
1462074616.649	 23	 0.908367	 -1.130001	 -0.089499	 0.220532	 0.567705	 0.036676	 0.276371	 0.110726	 0.048309	 0.953428	 2
1462074616.659	 23	 1.013218	 -1.062332	 -0.102572	 0.211707	 0.577143	 0.033068	 0.281277	 0.105952	 0.045825	 0.952658	 2
1462074616.669	 23	 1.090501	 -0.913064	 -0.167933	 0.204625	 0.587345	 0.028634	 0.286527	 0.101874	 0.043194	 0.951661	 2
1462074616.679	 23	 1.034266	 -0.812132	 -0.205937	 0.198935	 0.597319	 0.023682	 0.291641	 0.098368	 0.040477	 0.950595	 2
1462074616.689	 23	 0.797610	 -0.788831	 -0.168490	 0.193523	 0.605468	 0.019481	 0.295824	 0.095103	 0.038055	 0.949734	 2
1462074616.699	 23	 0.486823	 -0.857956	 -0.146177	 0.186762	 0.610714	 0.016428	 0.298583	 0.091387	 0.035831	 0.949322	 2
1462074616.709	 23	 0.216058	 -0.759611	 -0.187667	 0.180406	 0.613167	 0.013687	 0.299981	 0.087935	 0.033684	 0.949286	 2
1462074616.719	 23	 -0.011366	 -0.532614	 -0.217679	 0.175976	 0.613198	 0.011021	 0.300184	 0.085432	 0.031755	 0.949517	 2
1462074616.729	 23	 -0.172491	 -0.344583	 -0.167633	 0.173398	 0.611544	 0.009046	 0.299522	 0.083930	 0.030363	 0.949905	 2
1462074616.739	 23	 -0.283696	 -0.481740	 -0.059233	 0.169301	 0.608835	 0.008557	 0.298316	 0.081939	 0.029410	 0.950488	 2
1462074616.749	 23	 -0.340586	 -0.627692	 0.031560	 0.162901	 0.605589	 0.009349	 0.296834	 0.079048	 0.028708	 0.951219	 2
1462074616.759	 23	 -0.324865	 -0.742145	 0.095369	 0.154837	 0.602426	 0.010959	 0.295381	 0.075479	 0.028162	 0.951977	 2
1462074616.769	 23	 -0.264117	 -0.805738	 0.150734	 0.145672	 0.599855	 0.013100	 0.294206	 0.071451	 0.027741	 0.952664	 2
1462074616.779	 23	 -0.189653	 -0.719037	 0.256403	 0.136430	 0.598102	 0.016163	 0.293392	 0.067510	 0.027786	 0.953201	 2
1462074616.789	 23	 -0.103553	 -0.453463	 0.392411	 0.128615	 0.597327	 0.020667	 0.292985	 0.064449	 0.028764	 0.953509	 2
1462074616.799	 23	 0.025938	 -0.024344	 0.511444	 0.123905	 0.597841	 0.026489	 0.293115	 0.063055	 0.030863	 0.953496	 2
1462074616.809	 23	 0.205882	 0.492685	 0.599950	 0.123755	 0.600121	 0.033221	 0.293990	 0.063967	 0.034112	 0.953055	 2
1462074616.819	 23	 0.444894	 0.896509	 0.648520	 0.127782	 0.604705	 0.040340	 0.295870	 0.066932	 0.038223	 0.952114	 2
1462074616.829	 23	 0.717117	 1.140356	 0.650550	 0.134776	 0.611992	 0.047183	 0.298961	 0.071281	 0.042722	 0.950640	 2
1462074616.839	 23	 0.931780	 1.189582	 0.632087	 0.143067	 0.621636	 0.053415	 0.303129	 0.076170	 0.047211	 0.948726	 2
1462074616.849	 23	 0.986791	 1.112623	 0.602116	 0.151097	 0.632269	 0.059080	 0.307754	 0.080862	 0.051447	 0.946627	 2
1462074616.859	 23	 0.886496	 0.925421	 0.560749	 0.157774	 0.642225	 0.064347	 0.312073	 0.084860	 0.055289	 0.944644	 2
1462074616.869	 23	 0.694994	 0.622644	 0.531889	 0.161691	 0.650452	 0.069519	 0.315628	 0.087546	 0.058611	 0.943016	 2
1462074616.889	 24	 0.278654	 0.023054	 0.403109	 0.160432	 0.660389	 0.079216	 0.319929	 0.088539	 0.063298	 0.941169	 2
1462074616.899	 24	 0.128073	 -0.172669	 0.339719	 0.156622	 0.662541	 0.083318	 0.320886	 0.087417	 0.064684	 0.940854	 2
1462074616.909	 24	 0.042134	 -0.272568	 0.316091	 0.151680	 0.663618	 0.087212	 0.321386	 0.085726	 0.065754	 0.940765	 2
1462074616.919	 24	 0.003831	 -0.245884	 0.313475	 0.146664	 0.664196	 0.091130	 0.321658	 0.084001	 0.066807	 0.940753	 2
1462074616.929	 24	 0.012894	 -0.130017	 0.308080	 0.142651	 0.664715	 0.095012	 0.321877	 0.082744	 0.068001	 0.940704	 2
1462074616.939	 24	 0.071123	 0.010099	 0.292890	 0.140158	 0.665669	 0.098665	 0.322261	 0.082170	 0.069342	 0.940525	 2
1462074616.949	 24	 0.165419	 0.108592	 0.272736	 0.139029	 0.667438	 0.101914	 0.323001	 0.082185	 0.070731	 0.940166	 2
1462074616.959	 24	 0.284742	 0.097335	 0.235357	 0.138466	 0.670288	 0.104584	 0.324254	 0.082389	 0.071964	 0.939624	 2
1462074616.969	 24	 0.388431	 -0.038512	 0.171375	 0.137395	 0.674164	 0.106320	 0.326046	 0.082221	 0.072697	 0.938962	 2
1462074616.989	 25	 0.444085	 -0.327973	 0.026580	 0.125392	 0.706406	 0.111337	 0.341420	 0.077904	 0.073741	 0.933770	 2
1462074616.999	 25	 0.418100	 -0.366536	 -0.021512	 0.122312	 0.710615	 0.110488	 0.343535	 0.076385	 0.072899	 0.933185	 2
1462074617.009	 25	 0.369234	 -0.309043	 -0.033341	 0.119707	 0.714366	 0.109452	 0.345422	 0.075049	 0.072038	 0.932664	 2
1462074617.019	 25	 0.315521	 -0.178943	 -0.008216	 0.118033	 0.717604	 0.108717	 0.347023	 0.074190	 0.071465	 0.932182	 2
1462074617.039	 26	 0.266445	 0.172199	 0.135211	 0.123965	 0.753928	 0.105903	 0.363829	 0.076958	 0.071885	 0.925493	 2
1462074617.049	 26	 0.285543	 0.306745	 0.216229	 0.125219	 0.756925	 0.108127	 0.365088	 0.077983	 0.073200	 0.924809	 2
1462074617.059	 26	 0.346785	 0.354768	 0.263036	 0.126706	 0.760518	 0.111013	 0.366584	 0.079248	 0.074874	 0.923975	 2
1462074617.069	 26	 0.412909	 0.327084	 0.285650	 0.127911	 0.764811	 0.114172	 0.368401	 0.080446	 0.076636	 0.923004	 2
1462074617.079	 26	 0.448828	 0.247232	 0.288857	 0.128388	 0.769574	 0.117360	 0.370457	 0.081325	 0.078284	 0.921965	 2
1462074617.099	 27	 0.294734	 0.137248	 0.313688	 0.126827	 0.777834	 0.124361	 0.374049	 0.082040	 0.081367	 0.920183	 2
1462074617.109	 27	 0.122890	 0.123989	 0.322521	 0.125161	 0.779901	 0.128547	 0.374900	 0.082094	 0.083016	 0.919684	 2
1462074617.119	 27	 -0.067216	 0.103184	 0.310128	 0.123143	 0.780096	 0.132972	 0.374893	 0.081999	 0.084675	 0.919544	 2
1462074617.129	 27	 -0.226538	 0.063009	 0.279168	 0.120831	 0.778554	 0.137323	 0.374102	 0.081720	 0.086220	 0.919747	 2
1462074617.139	 27	 -0.288931	 0.010619	 0.216344	 0.118457	 0.776052	 0.141051	 0.372898	 0.081272	 0.087455	 0.920159	 2
1462074617.149	 27	 -0.240364	 -0.036870	 0.140876	 0.116355	 0.773657	 0.143690	 0.371778	 0.080744	 0.088246	 0.920584	 2
1462074617.159	 27	 -0.082842	 -0.071836	 0.076299	 0.114665	 0.772481	 0.145185	 0.371249	 0.080217	 0.088604	 0.920809	 2
1462074617.169	 27	 0.185654	 -0.105038	 0.006509	 0.113591	 0.773617	 0.145345	 0.371815	 0.079779	 0.088493	 0.920629	 2
1462074617.179	 27	 0.508653	 -0.135096	 -0.047740	 0.113140	 0.777818	 0.144156	 0.373822	 0.079445	 0.087914	 0.919900	 2
1462074617.189	 27	 0.774284	 -0.133935	 -0.073488	 0.113255	 0.784844	 0.142057	 0.377140	 0.079260	 0.087059	 0.918642	 2
1462074617.199	 27	 0.878007	 -0.085355	 -0.079268	 0.114039	 0.793343	 0.139556	 0.381119	 0.079329	 0.086167	 0.917077	 2
1462074617.209	 27	 0.797103	 -0.047845	 -0.072886	 0.115194	 0.801477	 0.137145	 0.384905	 0.079565	 0.085389	 0.915547	 2
1462074617.219	 27	 0.573169	 -0.017353	 -0.065324	 0.116394	 0.807718	 0.135134	 0.387798	 0.079849	 0.084783	 0.914357	 2
1462074617.229	 27	 0.254239	 0.007058	 -0.054859	 0.117441	 0.811010	 0.133715	 0.389320	 0.080116	 0.084383	 0.913723	 2
1462074617.239	 27	 -0.104490	 0.008871	 -0.096481	 0.118338	 0.810768	 0.132568	 0.389218	 0.080298	 0.084031	 0.913784	 2
1462074617.249	 27	 -0.445107	 0.028503	 -0.166870	 0.119708	 0.806971	 0.131030	 0.387481	 0.080555	 0.083539	 0.914544	 2
1462074617.259	 27	 -0.669610	 -0.000031	 -0.232324	 0.121252	 0.800533	 0.129033	 0.384541	 0.080760	 0.082827	 0.915831	 2
1462074617.269	 27	 -0.747015	 -0.053564	 -0.312080	 0.122896	 0.792877	 0.126172	 0.381069	 0.080832	 0.081710	 0.917375	 2
1462074617.279	 27	 -0.690988	 -0.104271	 -0.387646	 0.123446	 0.783676	 0.123173	 0.376929	 0.080360	 0.080286	 0.919250	 2
1462074617.289	 27	 -0.526177	 -0.185983	 -0.442064	 0.125330	 0.777463	 0.118165	 0.374189	 0.080187	 0.078229	 0.920561	 2
1462074617.299	 27	 -0.310168	 -0.288984	 -0.477942	 0.126838	 0.773240	 0.112272	 0.372416	 0.079719	 0.075720	 0.921530	 2
1462074617.309	 27	 -0.091900	 -0.385438	 -0.490332	 0.127754	 0.771183	 0.105743	 0.371690	 0.078899	 0.072841	 0.922126	 2
1462074617.319	 27	 0.059536	 -0.422974	 -0.471750	 0.128215	 0.770840	 0.099081	 0.371776	 0.077870	 0.069848	 0.922410	 2
1462074617.329	 27	 0.125877	 -0.411248	 -0.441311	 0.128536	 0.771396	 0.092659	 0.372270	 0.076829	 0.066957	 0.922512	 2
1462074617.339	 27	 0.127261	 -0.374824	 -0.404748	 0.128833	 0.772157	 0.086699	 0.372840	 0.075862	 0.064280	 0.922552	 2
1462074617.349	 27	 0.095617	 -0.312896	 -0.384713	 0.129416	 0.772700	 0.081136	 0.373283	 0.075098	 0.061835	 0.922603	 2
1462074617.359	 27	 0.063943	 -0.235207	 -0.391175	 0.130705	 0.772900	 0.075640	 0.373542	 0.074667	 0.059544	 0.922684	 2
1462074617.369	 27	 0.055677	 -0.152439	 -0.421240	 0.133026	 0.772903	 0.069822	 0.373693	 0.074651	 0.057294	 0.922767	 2
1462074617.379	 27	 0.075248	 -0.049553	 -0.452425	 0.136660	 0.772971	 0.063543	 0.373857	 0.075155	 0.055077	 0.922794	 2
1462074617.389	 27	 0.128875	 0.031973	 -0.481975	 0.141555	 0.773439	 0.056742	 0.374199	 0.076142	 0.052868	 0.922704	 2
1462074617.399	 27	 0.188739	 0.058347	 -0.487580	 0.147081	 0.774462	 0.049640	 0.374801	 0.077360	 0.050655	 0.922482	 2
1462074617.409	 27	 0.236826	 0.044615	 -0.455088	 0.152408	 0.775988	 0.042727	 0.375643	 0.078514	 0.048513	 0.922158	 2
1462074617.419	 27	 0.265839	 0.039620	 -0.398901	 0.157227	 0.777921	 0.036417	 0.376670	 0.079538	 0.046572	 0.921751	 2
1462074617.429	 27	 0.266186	 0.042357	 -0.314684	 0.161360	 0.780039	 0.031135	 0.377763	 0.080430	 0.044989	 0.921304	 2
1462074617.439	 27	 0.229202	 0.043103	 -0.226994	 0.164594	 0.782007	 0.027142	 0.378760	 0.081147	 0.043830	 0.920888	 2
1462074617.449	 27	 0.181463	 0.043757	 -0.156232	 0.167048	 0.783627	 0.024288	 0.379569	 0.081720	 0.043040	 0.920541	 2
1462074617.459	 27	 0.143207	 0.037837	 -0.107995	 0.168862	 0.784924	 0.022277	 0.380210	 0.082159	 0.042506	 0.920263	 2
1462074617.469	 27	 0.128283	 0.024201	 -0.087743	 0.170273	 0.786055	 0.020691	 0.380766	 0.082494	 0.042087	 0.920022	 2
1462074617.479	 27	 0.124891	 -0.019369	 -0.083855	 0.171258	 0.787148	 0.019214	 0.381310	 0.082653	 0.041636	 0.919803	 2
1462074617.489	 27	 0.136322	 -0.076904	 -0.093016	 0.171738	 0.788305	 0.017624	 0.381898	 0.082556	 0.041041	 0.919594	 2
1462074617.499	 27	 0.149033	 -0.083440	 -0.109174	 0.172196	 0.789562	 0.015804	 0.382542	 0.082403	 0.040339	 0.919371	 2
1462074617.509	 27	 0.195827	 -0.109178	 -0.119413	 0.172658	 0.791143	 0.013724	 0.383346	 0.082196	 0.039532	 0.919090	 2
1462074617.519	 27	 0.252603	 -0.067891	 -0.118378	 0.159226	 0.803508	 0.021628	 0.388981	 0.077408	 0.041018	 0.917071	 2
1462074617.529	 27	 0.293716	 0.045838	 -0.112348	 0.161035	 0.806134	 0.019341	 0.390237	 0.077762	 0.040413	 0.916534	 2
1462074617.539	 27	 0.309251	 0.162866	 -0.101803	 0.163972	 0.809003	 0.017118	 0.391580	 0.078639	 0.040071	 0.915901	 2
1462074617.549	 27	 0.282021	 0.258788	 -0.085753	 0.167783	 0.811732	 0.015119	 0.392833	 0.079958	 0.040003	 0.915253	 2
1462074617.559	 27	 0.215090	 0.302794	 -0.059157	 0.175217	 0.822071	 0.011140	 0.397574	 0.082424	 0.040046	 0.912983	 2
