% Gyrometer data recorded with 'snsrlog'
% 
% 
% Label description:
% 	 0: Default Label
% 	 1: still_drop
% 	 2: walk_drop
% 	 3: other
% 	 4: dtw_same
% 	 5: dtw_diff
% 	 6: delete
% 	 7: steal
% 
% Column description:
% 	 1: Seconds.milliseconds since 1970
% 	 2: Number of skipped measurements
% 	 3: Gyro X
% 	 4: Gyro Y
% 	 5: Gyro Z
% 	 6: Roll of the device
% 	 7: Pitch of the device
% 	 8: Yaw of the device
% 	 9: Quaternion X
% 	 10: Quaternion Y
% 	 11: Quaternion Z
% 	 12: Quaternion W
% 	 13: Label used for the current sample
% 
% 
1463624075.066	 0	 -0.772668	 0.796068	 -0.395370	 0.241497	 0.992238	 -0.130333	 0.478445	 0.074935	 0.000365	 0.874914	 1
1463624075.076	 0	 -0.797815	 0.795930	 -0.277918	 0.251078	 0.983811	 -0.132228	 0.474857	 0.079165	 0.001234	 0.876494	 1
1463624075.086	 0	 -0.868783	 0.844557	 -0.201179	 0.259318	 0.975089	 -0.132208	 0.471057	 0.083297	 0.002568	 0.878157	 1
1463624075.096	 0	 -0.939081	 0.833408	 -0.153777	 0.266550	 0.965731	 -0.130753	 0.466907	 0.087372	 0.004220	 0.879969	 1
1463624075.106	 0	 -1.031811	 0.777999	 -0.058632	 0.271819	 0.955800	 -0.127525	 0.462415	 0.091032	 0.006130	 0.881957	 1
1463624075.116	 0	 -1.129743	 0.756589	 0.029413	 0.275117	 0.945180	 -0.122238	 0.457510	 0.094326	 0.008430	 0.884147	 1
1463624075.126	 0	 -1.236314	 0.731859	 0.096189	 0.276911	 0.933772	 -0.115325	 0.452162	 0.097346	 0.011047	 0.886539	 1
1463624075.146	 1	 -1.460497	 0.679648	 0.139219	 0.277654	 0.908030	 -0.098642	 0.439961	 0.102797	 0.016737	 0.891957	 1
1463624075.156	 1	 -1.557904	 0.651982	 0.098245	 0.277568	 0.893579	 -0.090135	 0.433104	 0.105354	 0.019473	 0.894954	 1
1463624075.166	 1	 -1.627670	 0.649352	 0.000778	 0.278278	 0.878155	 -0.082695	 0.425825	 0.108025	 0.021854	 0.898068	 1
1463624075.176	 1	 -1.672911	 0.693010	 -0.157220	 0.280908	 0.861867	 -0.077279	 0.418211	 0.111122	 0.023681	 0.901216	 1
1463624075.186	 1	 -1.694738	 0.761793	 -0.361017	 0.286317	 0.844776	 -0.074572	 0.410315	 0.114915	 0.024792	 0.904335	 1
1463624075.196	 1	 -1.702831	 0.821847	 -0.589526	 0.294626	 0.826958	 -0.074903	 0.402200	 0.119436	 0.025019	 0.907383	 1
1463624075.206	 1	 -1.706629	 0.893535	 -0.825425	 0.305810	 0.808394	 -0.078247	 0.393872	 0.124726	 0.024313	 0.910339	 1
1463624075.216	 1	 -1.713418	 0.996195	 -1.045024	 0.319764	 0.789061	 -0.084212	 0.385323	 0.130868	 0.022775	 0.913171	 1
1463624075.226	 1	 -1.708281	 1.139231	 -1.265416	 0.336634	 0.768962	 -0.092560	 0.376566	 0.138019	 0.020487	 0.915821	 1
1463624075.236	 1	 -1.686859	 1.328065	 -1.470603	 0.356624	 0.748212	 -0.103071	 0.367674	 0.146355	 0.017542	 0.918199	 1
1463624075.246	 1	 -1.664832	 1.568612	 -1.584725	 0.379475	 0.727001	 -0.114660	 0.358694	 0.155981	 0.014353	 0.920219	 1
1463624075.256	 1	 -1.619019	 1.790668	 -1.599044	 0.404300	 0.705810	 -0.126010	 0.349778	 0.166710	 0.011376	 0.921810	 1
1463624075.266	 1	 -1.552807	 1.980199	 -1.543503	 0.430227	 0.685141	 -0.136312	 0.341098	 0.178239	 0.008868	 0.922933	 1
1463624075.276	 1	 -1.517246	 2.193556	 -1.441646	 0.457012	 0.665092	 -0.144938	 0.332633	 0.190528	 0.007095	 0.923582	 1
1463624075.286	 1	 -1.521364	 2.368716	 -1.342995	 0.484375	 0.645381	 -0.151597	 0.324204	 0.203482	 0.006114	 0.923823	 1
1463624075.296	 1	 -1.578581	 2.419190	 -1.299397	 0.511490	 0.625439	 -0.156591	 0.315556	 0.216680	 0.005584	 0.923820	 1
1463624075.306	 1	 -1.703836	 2.361894	 -1.330812	 0.537443	 0.604404	 -0.160321	 0.306317	 0.229677	 0.005063	 0.923793	 1
1463624075.316	 1	 -1.886131	 2.263823	 -1.434583	 0.561938	 0.581398	 -0.163182	 0.296117	 0.242325	 0.004193	 0.923891	 1
1463624075.326	 1	 -2.072868	 2.161232	 -1.576723	 0.585014	 0.556014	 -0.165459	 0.284797	 0.254619	 0.002778	 0.924149	 1
1463624075.336	 1	 -2.184683	 2.140019	 -1.760324	 0.607581	 0.528510	 -0.167815	 0.272554	 0.266852	 0.000662	 0.924394	 1
1463624075.346	 1	 -2.195499	 2.303235	 -1.991047	 0.631742	 0.499412	 -0.171196	 0.259768	 0.279826	 -0.002258	 0.924236	 1
1463624075.356	 1	 -2.099113	 2.606212	 -2.266166	 0.659449	 0.469201	 -0.176539	 0.246837	 0.294299	 -0.006150	 0.923267	 1
1463624075.366	 1	 -1.958743	 3.024418	 -2.620527	 0.692148	 0.437854	 -0.184597	 0.233954	 0.310871	 -0.011278	 0.921139	 1
1463624075.376	 1	 -1.811985	 3.371926	 -2.894603	 0.729283	 0.405350	 -0.194965	 0.221161	 0.329354	 -0.017626	 0.917771	 1
1463624075.386	 1	 -1.754420	 3.646698	 -2.968217	 0.769070	 0.372311	 -0.205456	 0.208465	 0.349110	 -0.024353	 0.913275	 1
1463624075.396	 1	 -1.847278	 3.828947	 -2.962717	 0.809951	 0.338498	 -0.213948	 0.195398	 0.369617	 -0.030745	 0.907886	 1
1463624075.406	 1	 -2.013992	 3.863805	 -3.063254	 0.850538	 0.302856	 -0.220148	 0.181384	 0.390281	 -0.037063	 0.901891	 1
1463624075.416	 1	 -2.169879	 3.825271	 -3.306315	 0.890217	 0.264339	 -0.224904	 0.166087	 0.410758	 -0.044016	 0.895408	 1
1463624075.426	 1	 -2.225411	 3.799170	 -3.554397	 0.929223	 0.223119	 -0.228935	 0.149736	 0.431009	 -0.051918	 0.888322	 1
1463624075.446	 2	 -1.752130	 4.447082	 -3.925505	 1.012345	 0.138002	 -0.238849	 0.117497	 0.473050	 -0.070764	 0.870293	 1
1463624075.456	 2	 -1.092774	 5.467047	 -4.104000	 1.065526	 0.096512	 -0.248554	 0.104118	 0.498261	 -0.082342	 0.856805	 1
1463624075.466	 2	 -0.244580	 6.188116	 -4.209120	 1.127066	 0.057151	 -0.263669	 0.094134	 0.526150	 -0.095952	 0.839701	 1
1463624075.476	 2	 0.413950	 6.512013	 -4.305627	 1.192337	 0.019009	 -0.283293	 0.087048	 0.554717	 -0.111532	 0.819922	 1
1463624075.486	 2	 0.628422	 6.351222	 -4.391055	 1.256559	 -0.020056	 -0.303794	 0.080911	 0.582184	 -0.128239	 0.798793	 1
1463624075.496	 2	 0.455299	 5.667437	 -4.444935	 1.314556	 -0.061132	 -0.321231	 0.073780	 0.606688	 -0.144979	 0.778118	 1
1463624075.506	 2	 0.025275	 4.570851	 -4.472711	 1.362232	 -0.104234	 -0.332916	 0.064277	 0.626820	 -0.160893	 0.759657	 1
1463624075.516	 2	 -0.488365	 3.377867	 -4.480405	 1.398333	 -0.148899	 -0.337849	 0.051781	 0.642233	 -0.175509	 0.744347	 1
1463624075.526	 2	 -0.850903	 2.289983	 -4.454333	 1.423961	 -0.194148	 -0.337287	 0.036808	 0.653350	 -0.188896	 0.732187	 1
1463624075.536	 2	 -1.064825	 1.514128	 -4.460756	 1.441658	 -0.239691	 -0.333188	 0.020084	 0.661096	 -0.201501	 0.722459	 1
1463624075.546	 2	 -1.081460	 1.135700	 -4.437489	 1.455202	 -0.285163	 -0.327605	 0.002660	 0.666823	 -0.213783	 0.713888	 1
1463624075.556	 2	 -0.931736	 1.122136	 -4.340868	 1.467777	 -0.329645	 -0.322411	 -0.014214	 0.671675	 -0.226042	 0.705376	 1
1463624075.566	 2	 -0.671452	 1.408716	 -4.171011	 1.482220	 -0.372358	 -0.318847	 -0.029504	 0.676705	 -0.238470	 0.695939	 1
1463624075.576	 2	 -0.322595	 1.836165	 -3.900433	 1.499854	 -0.412278	 -0.317826	 -0.042313	 0.682450	 -0.251093	 0.685146	 1
1463624075.586	 2	 0.056227	 2.286879	 -3.636294	 1.520720	 -0.449208	 -0.319879	 -0.052319	 0.688998	 -0.264034	 0.672927	 1
1463624075.596	 2	 0.435757	 2.746428	 -3.473327	 1.544606	 -0.484115	 -0.325206	 -0.059764	 0.696304	 -0.277634	 0.659172	 1
1463624075.606	 2	 0.830989	 3.230686	 -3.416842	 1.571438	 -0.518257	 -0.334057	 -0.064939	 0.704317	 -0.292321	 0.643638	 1
1463624075.616	 2	 1.228882	 3.669665	 -3.442866	 1.600692	 -0.552767	 -0.346594	 -0.068162	 0.712793	 -0.308417	 0.626226	 1
1463624075.626	 2	 1.599279	 3.950122	 -3.486112	 1.630938	 -0.588173	 -0.362663	 -0.069794	 0.721201	 -0.325896	 0.607281	 1
1463624075.636	 2	 1.868248	 4.046424	 -3.590936	 1.660505	 -0.625074	 -0.381358	 -0.070577	 0.728933	 -0.344510	 0.587357	 1
1463624075.646	 2	 2.080652	 3.938314	 -3.453111	 1.687962	 -0.662057	 -0.402058	 -0.070505	 0.735615	 -0.363472	 0.567263	 1
1463624075.656	 2	 2.264948	 3.551239	 -3.074643	 1.710023	 -0.696443	 -0.425147	 -0.069233	 0.740565	 -0.381822	 0.548618	 1
1463624075.666	 2	 2.396030	 3.079172	 -2.557954	 1.725207	 -0.726541	 -0.450862	 -0.066585	 0.743671	 -0.398967	 0.532301	 1
1463624075.676	 2	 2.475898	 2.571417	 -1.996388	 1.733170	 -0.751544	 -0.479122	 -0.062601	 0.745076	 -0.414606	 0.518695	 1
1463624075.686	 2	 2.522541	 2.042411	 -1.445389	 1.733711	 -0.771190	 -0.509851	 -0.057445	 0.744885	 -0.428672	 0.508023	 1
1463624075.696	 2	 2.482267	 1.561303	 -1.071170	 1.727893	 -0.786561	 -0.541949	 -0.051797	 0.743348	 -0.441337	 0.499972	 1
1463624075.706	 2	 2.308644	 1.168191	 -0.789823	 1.718203	 -0.798646	 -0.573314	 -0.046300	 0.741007	 -0.452542	 0.493934	 1
1463624075.716	 2	 2.012898	 0.706050	 -0.543226	 1.705874	 -0.807531	 -0.601949	 -0.041476	 0.738124	 -0.461941	 0.489963	 1
1463624075.726	 2	 1.572364	 0.168156	 -0.387729	 1.691839	 -0.813899	 -0.625582	 -0.038167	 0.734847	 -0.469285	 0.488175	 1
1463624075.746	 3	 0.503927	 -1.081135	 -0.024494	 1.661669	 -0.819433	 -0.649897	 -0.038277	 0.727673	 -0.476231	 0.492169	 1
1463624075.756	 3	 0.192815	 -1.466142	 0.292229	 1.644816	 -0.817584	 -0.653982	 -0.040177	 0.723655	 -0.476400	 0.497747	 1
1463624075.766	 3	 -0.006055	 -1.625644	 0.656967	 1.628072	 -0.811976	 -0.655046	 -0.041848	 0.719682	 -0.474788	 0.504859	 1
1463624075.776	 3	 -0.045114	 -1.617548	 1.024005	 1.611841	 -0.802626	 -0.655001	 -0.042471	 0.715857	 -0.471893	 0.512895	 1
1463624075.786	 3	 0.095328	 -1.527331	 1.347613	 1.595325	 -0.789920	 -0.656353	 -0.041446	 0.711979	 -0.468464	 0.521450	 1
1463624075.796	 3	 0.305111	 -1.331913	 1.539442	 1.578703	 -0.774964	 -0.660257	 -0.038694	 0.708045	 -0.465140	 0.529924	 1
1463624075.806	 3	 0.498001	 -1.014849	 1.632369	 1.563351	 -0.758838	 -0.666497	 -0.034357	 0.704357	 -0.462220	 0.537637	 1
1463624075.816	 3	 0.404787	 -0.863573	 1.628193	 1.550471	 -0.742392	 -0.672514	 -0.029370	 0.701177	 -0.459274	 0.544569	 1
1463624075.826	 3	 -0.077273	 -0.964785	 1.556845	 1.541011	 -0.726616	 -0.672787	 -0.025808	 0.698716	 -0.455035	 0.551428	 1
1463624075.836	 3	 -0.626715	 -1.055529	 1.435025	 1.535289	 -0.712101	 -0.665551	 -0.024433	 0.697113	 -0.449096	 0.558345	 1
1463624075.846	 3	 -0.925297	 -0.867601	 1.268851	 1.533825	 -0.699299	 -0.653463	 -0.024383	 0.696607	 -0.442256	 0.564405	 1
1463624075.856	 3	 -0.943235	 -0.482459	 1.130845	 1.536204	 -0.688033	 -0.640547	 -0.024324	 0.697173	 -0.435576	 0.568887	 1
1463624075.866	 3	 -0.820608	 0.050236	 1.010040	 1.542544	 -0.677902	 -0.629096	 -0.023325	 0.698895	 -0.429612	 0.571345	 1
1463624075.876	 3	 -0.667810	 0.625552	 0.911750	 1.553185	 -0.668734	 -0.619780	 -0.021045	 0.701889	 -0.424523	 0.571567	 1
1463624075.886	 3	 -0.433844	 1.162780	 0.874213	 1.567526	 -0.659997	 -0.613331	 -0.017185	 0.705984	 -0.420359	 0.569728	 1
1463624075.896	 3	 -0.136463	 1.493081	 0.927985	 1.583435	 -0.650919	 -0.610722	 -0.011575	 0.710558	 -0.417139	 0.566541	 1
1463624075.906	 3	 0.145553	 1.448482	 1.051940	 1.597509	 -0.640776	 -0.611976	 -0.004645	 0.714621	 -0.414614	 0.563374	 1
1463624075.916	 3	 0.359972	 1.248406	 1.268825	 1.607869	 -0.628786	 -0.616330	 0.003240	 0.717619	 -0.412336	 0.561241	 1
1463624075.926	 3	 0.445550	 1.156785	 1.429223	 1.616078	 -0.614998	 -0.622345	 0.011881	 0.719962	 -0.409925	 0.559889	 1
1463624075.936	 3	 0.428694	 1.159342	 1.481616	 1.624051	 -0.600481	 -0.628613	 0.020797	 0.722168	 -0.407300	 0.558702	 1
1463624075.946	 3	 0.257378	 1.147210	 1.352971	 1.632948	 -0.586741	 -0.633280	 0.029031	 0.724582	 -0.404378	 0.557330	 1
1463624075.956	 3	 0.055883	 1.115644	 1.172187	 1.642949	 -0.574729	 -0.635442	 0.035955	 0.727297	 -0.401189	 0.555692	 1
1463624075.966	 3	 0.106303	 1.157100	 1.189186	 1.653264	 -0.563072	 -0.637415	 0.042720	 0.730071	 -0.397982	 0.553879	 1
1463624075.976	 3	 0.336791	 1.285920	 1.299217	 1.663423	 -0.550667	 -0.641919	 0.050601	 0.732701	 -0.395177	 0.551747	 1
1463624075.986	 3	 0.638526	 1.391926	 1.372179	 1.672900	 -0.537691	 -0.650018	 0.059832	 0.734978	 -0.393127	 0.549253	 1
1463624075.996	 3	 0.868025	 1.439866	 1.329062	 1.681649	 -0.525169	 -0.661097	 0.069843	 0.736872	 -0.391978	 0.546346	 1
1463624076.006	 3	 0.961661	 1.290582	 1.168059	 1.688854	 -0.514192	 -0.673557	 0.079529	 0.738208	 -0.391670	 0.543432	 1
1463624076.016	 3	 0.882736	 0.989653	 0.999687	 1.693873	 -0.505021	 -0.685385	 0.087943	 0.738909	 -0.391792	 0.541091	 1
1463624076.026	 3	 0.661918	 0.550019	 1.007111	 1.695818	 -0.496024	 -0.694855	 0.094820	 0.738812	 -0.391438	 0.540317	 1
1463624076.036	 3	 0.518775	 0.249821	 1.059918	 1.695400	 -0.486299	 -0.702587	 0.100829	 0.738085	 -0.390493	 0.540905	 1
1463624076.046	 3	 0.335156	 0.053218	 1.008530	 1.693694	 -0.476586	 -0.708347	 0.105851	 0.737062	 -0.389089	 0.542352	 1
1463624076.056	 3	 0.047768	 -0.132994	 0.881408	 1.691669	 -0.467647	 -0.710973	 0.109397	 0.736103	 -0.387100	 0.544369	 1
1463624076.066	 3	 -0.236669	 -0.363959	 0.744253	 1.688947	 -0.459699	 -0.710133	 0.111207	 0.735155	 -0.384519	 0.547106	 1
1463624076.076	 3	 -0.391617	 -0.459671	 0.536887	 1.685906	 -0.453365	 -0.706889	 0.111542	 0.734292	 -0.381802	 0.550091	 1
1463624076.086	 3	 -0.407250	 -0.363870	 0.248028	 1.683690	 -0.449668	 -0.702753	 0.110834	 0.733787	 -0.379619	 0.552415	 1
1463624076.096	 3	 -0.296126	 -0.075013	 -0.061455	 1.683713	 -0.449168	 -0.699101	 0.109665	 0.733978	 -0.378450	 0.553195	 1
1463624076.106	 3	 -0.048909	 0.228177	 -0.246229	 1.685967	 -0.451120	 -0.697523	 0.108862	 0.734751	 -0.378509	 0.552287	 1
1463624076.116	 3	 0.248483	 0.416312	 -0.289698	 1.689065	 -0.454172	 -0.699087	 0.109007	 0.735617	 -0.379737	 0.550258	 1
1463624076.126	 3	 0.509517	 0.510570	 -0.239937	 1.691946	 -0.457257	 -0.703716	 0.110233	 0.736252	 -0.381826	 0.547713	 1
1463624076.136	 3	 0.697874	 0.552116	 -0.154864	 1.694258	 -0.459780	 -0.710723	 0.112418	 0.736574	 -0.384409	 0.545023	 1
1463624076.146	 3	 0.804873	 0.553369	 -0.085443	 1.696022	 -0.461757	 -0.719315	 0.115267	 0.736629	 -0.387268	 0.542323	 1
1463624076.156	 3	 0.768399	 0.467715	 -0.031569	 1.697146	 -0.463248	 -0.727938	 0.118167	 0.736480	 -0.390005	 0.539935	 1
1463624076.166	 3	 0.623439	 0.423115	 0.066263	 1.697995	 -0.463627	 -0.735389	 0.120951	 0.736277	 -0.392081	 0.538089	 1
1463624076.186	 3	 0.267507	 0.513646	 0.086191	 1.704810	 -0.462838	 -0.743847	 0.125666	 0.737554	 -0.393680	 0.534077	 1
1463624076.176	 3	 0.392570	 0.553722	 0.089738	 1.700933	 -0.463348	 -0.740507	 0.123504	 0.736743	 -0.393188	 0.536059	 1
1463624076.196	 3	 0.263105	 0.316398	 0.018316	 1.707231	 -0.462804	 -0.746762	 0.127230	 0.738014	 -0.394294	 0.532616	 1
1463624076.206	 3	 0.335507	 0.124138	 -0.064035	 1.707345	 -0.463665	 -0.750171	 0.128227	 0.737858	 -0.395464	 0.531726	 1
1463624076.216	 3	 0.454781	 0.171844	 -0.183995	 1.706777	 -0.465718	 -0.754628	 0.129082	 0.737496	 -0.397327	 0.530631	 1
1463624076.226	 3	 0.612334	 0.469984	 -0.368036	 1.707972	 -0.469664	 -0.760477	 0.130178	 0.737579	 -0.400031	 0.528210	 1
1463624076.236	 3	 0.806161	 0.779600	 -0.568271	 1.711562	 -0.475842	 -0.768065	 0.131666	 0.738256	 -0.403718	 0.524075	 1
1463624076.246	 3	 1.006574	 1.100073	 -0.735424	 1.717353	 -0.484112	 -0.777613	 0.133654	 0.739434	 -0.408392	 0.518257	 1
1463624076.256	 3	 1.195499	 1.419981	 -0.838537	 1.725353	 -0.493905	 -0.789090	 0.136341	 0.741069	 -0.413839	 0.510847	 1
1463624076.266	 3	 1.369390	 1.693364	 -0.909979	 1.735296	 -0.504818	 -0.802398	 0.139793	 0.743051	 -0.419894	 0.502019	 1
1463624076.276	 3	 1.539890	 1.925289	 -0.979646	 1.746579	 -0.516829	 -0.817448	 0.143880	 0.745196	 -0.426533	 0.491987	 1
1463624076.286	 3	 1.713849	 2.210396	 -1.047782	 1.759523	 -0.530000	 -0.834259	 0.148685	 0.747548	 -0.433713	 0.480581	 1
1463624076.296	 3	 1.860292	 2.545562	 -1.117344	 1.774710	 -0.544335	 -0.852617	 0.154279	 0.750211	 -0.441295	 0.467590	 1
1463624076.306	 3	 1.897871	 2.892624	 -1.203966	 1.792813	 -0.559876	 -0.871506	 0.160455	 0.753354	 -0.448948	 0.452942	 1
1463624076.316	 3	 1.688342	 3.109631	 -1.284318	 1.814523	 -0.576265	 -0.888312	 0.166532	 0.757259	 -0.455890	 0.437024	 1
1463624076.326	 3	 1.285418	 3.054884	 -1.369777	 1.838731	 -0.592771	 -0.900378	 0.171498	 0.761824	 -0.461445	 0.421048	 1
1463624076.336	 3	 0.924795	 2.735862	 -1.507089	 1.863220	 -0.609691	 -0.907150	 0.174517	 0.766623	 -0.465876	 0.405946	 1
1463624076.346	 3	 0.713263	 2.084895	 -1.597632	 1.884211	 -0.627051	 -0.910204	 0.175267	 0.770785	 -0.469950	 0.392834	 1
1463624076.356	 3	 0.644105	 0.956969	 -1.547843	 1.895855	 -0.644002	 -0.911819	 0.173460	 0.773052	 -0.474426	 0.383695	 1
1463624076.366	 3	 0.558892	 -0.212121	 -1.460995	 1.895823	 -0.659897	 -0.912870	 0.169005	 0.773035	 -0.479465	 0.379430	 1
1463624076.376	 3	 0.336663	 -0.913718	 -1.497562	 1.888820	 -0.675184	 -0.911731	 0.162191	 0.771839	 -0.484443	 0.378515	 1
1463624076.386	 3	 0.093826	 -1.109137	 -1.708381	 1.880880	 -0.691281	 -0.907011	 0.153476	 0.770707	 -0.488992	 0.378607	 1
1463624076.396	 3	 -0.045385	 -0.932443	 -2.039109	 1.876099	 -0.709920	 -0.899100	 0.143478	 0.770323	 -0.493384	 0.377610	 1
1463624076.406	 3	 -0.081385	 -0.643946	 -2.311078	 1.875391	 -0.731238	 -0.889092	 0.132816	 0.770699	 -0.497842	 0.374881	 1
1463624076.416	 3	 -0.025478	 -0.140706	 -2.267449	 1.879458	 -0.752999	 -0.879101	 0.123204	 0.771782	 -0.502118	 0.370204	 1
1463624076.426	 3	 0.109355	 0.149213	 -1.981367	 1.885850	 -0.772845	 -0.871269	 0.115614	 0.773017	 -0.506119	 0.364585	 1
1463624076.436	 3	 0.307671	 0.213345	 -1.564718	 1.890661	 -0.789539	 -0.867355	 0.110133	 0.773680	 -0.510025	 0.359396	 1
1463624076.446	 3	 0.507973	 0.218153	 -1.114534	 1.892245	 -0.802657	 -0.868072	 0.106739	 0.773540	 -0.513890	 0.355189	 1
1463624076.456	 3	 0.624940	 0.371541	 -0.596164	 1.892091	 -0.811430	 -0.872965	 0.105862	 0.772981	 -0.517305	 0.351694	 1
1463624076.466	 3	 0.662154	 0.380330	 -0.102959	 1.890098	 -0.815607	 -0.881072	 0.107176	 0.772070	 -0.520035	 0.349263	 1
1463624076.476	 3	 0.567067	 0.378132	 0.141908	 1.887455	 -0.816519	 -0.889811	 0.109574	 0.771109	 -0.521962	 0.347765	 1
1463624076.486	 3	 0.467081	 0.440179	 0.150817	 1.886222	 -0.816527	 -0.897293	 0.112133	 0.770480	 -0.523331	 0.346283	 1
1463624076.496	 3	 0.434080	 0.525853	 0.068787	 1.889976	 -0.815978	 -0.901267	 0.114819	 0.770917	 -0.523648	 0.343942	 1
1463624076.506	 3	 0.425909	 0.677334	 -0.019256	 1.892058	 -0.817284	 -0.907202	 0.117244	 0.770894	 -0.524914	 0.341235	 1
1463624076.516	 3	 0.410747	 0.721265	 -0.127423	 1.895308	 -0.819549	 -0.912529	 0.119446	 0.771069	 -0.526268	 0.337976	 1
1463624076.526	 3	 0.369627	 0.666575	 -0.205375	 1.898937	 -0.822555	 -0.916895	 0.121150	 0.771334	 -0.527634	 0.334618	 1
1463624076.536	 3	 0.374548	 0.636312	 -0.270771	 1.900420	 -0.830334	 -0.922329	 0.121217	 0.771032	 -0.530641	 0.330508	 1
1463624076.556	 4	 0.406503	 0.626619	 -0.274336	 1.906160	 -0.838466	 -0.931016	 0.123565	 0.771204	 -0.533991	 0.323775	 1
1463624076.566	 4	 0.350621	 0.742952	 -0.241860	 1.910335	 -0.842048	 -0.934968	 0.125092	 0.771523	 -0.535370	 0.320130	 1
1463624076.576	 4	 0.236522	 0.753994	 -0.232240	 1.916023	 -0.845276	 -0.937571	 0.126619	 0.772165	 -0.536328	 0.316355	 1
1463624076.596	 5	 0.043691	 0.211374	 -0.041641	 1.924493	 -0.848665	 -0.938929	 0.128369	 0.773300	 -0.536950	 0.311790	 1
1463624076.606	 5	 0.006956	 -0.290051	 0.172494	 1.922268	 -0.847615	 -0.939718	 0.128401	 0.772936	 -0.536922	 0.312726	 1
1463624076.626	 6	 -0.038851	 -0.737836	 0.453354	 1.902842	 -0.835119	 -0.946190	 0.129564	 0.769801	 -0.535718	 0.321910	 1
1463624076.636	 6	 -0.092406	 -0.690584	 0.347684	 1.895346	 -0.831305	 -0.946840	 0.128997	 0.768641	 -0.535250	 0.325665	 1
1463624076.646	 6	 -0.129964	 -0.662378	 0.261947	 1.888983	 -0.828246	 -0.946454	 0.128103	 0.767696	 -0.534750	 0.329051	 1
1463624076.656	 6	 -0.151899	 -0.731932	 0.195413	 1.882746	 -0.825784	 -0.945333	 0.126778	 0.766791	 -0.534283	 0.332417	 1
1463624076.676	 6	 -0.100451	 -1.658943	 0.279061	 1.859743	 -0.820612	 -0.943742	 0.121657	 0.763107	 -0.534023	 0.343055	 1
1463624076.686	 7	 -0.051473	 -2.094453	 0.230885	 1.839364	 -0.818006	 -0.943872	 0.117091	 0.759603	 -0.534554	 0.351490	 1
1463624076.696	 7	 -0.052052	 -1.790918	 -0.007151	 1.821000	 -0.817532	 -0.943157	 0.112061	 0.756389	 -0.535351	 0.358771	 1
1463624076.706	 7	 -0.166412	 -1.266985	 -0.405204	 1.809347	 -0.820095	 -0.940182	 0.106988	 0.754419	 -0.536136	 0.363269	 1
1463624076.716	 7	 -0.237400	 -1.002051	 -0.860399	 1.802949	 -0.826871	 -0.934459	 0.100918	 0.753469	 -0.537222	 0.365366	 1
1463624076.726	 7	 -0.282056	 -0.841166	 -1.279489	 1.800093	 -0.837692	 -0.926512	 0.093640	 0.753181	 -0.538765	 0.365626	 1
1463624076.736	 7	 -0.272459	 -0.754569	 -1.653915	 1.799439	 -0.852276	 -0.917047	 0.085154	 0.753226	 -0.540906	 0.364445	 1
1463624076.746	 7	 -0.194070	 -0.647240	 -1.928565	 1.800043	 -0.869971	 -0.907297	 0.075884	 0.753333	 -0.543753	 0.362027	 1
1463624076.756	 7	 -0.093286	 -0.476908	 -2.013119	 1.801732	 -0.889221	 -0.898344	 0.066703	 0.753427	 -0.547110	 0.358564	 1
1463624076.766	 7	 -0.042737	 -0.332933	 -2.085757	 1.804661	 -0.909095	 -0.889959	 0.057877	 0.753557	 -0.550696	 0.354312	 1
1463624076.776	 7	 0.000638	 -0.200880	 -2.338557	 1.809425	 -0.931117	 -0.881006	 0.048658	 0.753778	 -0.554702	 0.348936	 1
1463624076.796	 8	 0.155907	 -0.026039	 -2.952161	 1.823835	 -0.984278	 -0.861293	 0.028030	 0.753985	 -0.564744	 0.334344	 1
1463624076.806	 8	 0.239264	 0.022610	 -3.249782	 1.833305	 -1.015536	 -0.850220	 0.016465	 0.753744	 -0.570800	 0.325249	 1
1463624076.816	 8	 0.302356	 0.035489	 -3.501737	 1.844300	 -1.049852	 -0.837821	 0.003939	 0.753127	 -0.577480	 0.315120	 1
1463624076.826	 8	 0.302765	 0.082801	 -3.724046	 1.858001	 -1.086062	 -0.822910	 -0.009240	 0.752272	 -0.584348	 0.304202	 1
1463624076.836	 8	 0.276748	 0.199191	 -3.964665	 1.877129	 -1.124178	 -0.803419	 -0.022987	 0.751397	 -0.591221	 0.292117	 1
1463624076.846	 8	 0.313279	 0.252428	 -4.235191	 1.902015	 -1.164684	 -0.778781	 -0.037467	 0.750219	 -0.598337	 0.278855	 1
1463624076.856	 8	 0.353554	 0.216127	 -4.531096	 1.933778	 -1.207739	 -0.747010	 -0.052994	 0.748491	 -0.605728	 0.264662	 1
1463624076.866	 8	 0.405986	 0.063670	 -4.852700	 1.975085	 -1.253449	 -0.704381	 -0.069976	 0.745974	 -0.613361	 0.249829	 1
1463624076.876	 8	 0.419083	 -0.156942	 -5.055230	 2.030988	 -1.300852	 -0.644871	 -0.088495	 0.742554	 -0.620973	 0.234892	 1
1463624076.886	 8	 0.395385	 -0.319665	 -4.916923	 2.108346	 -1.346406	 -0.562218	 -0.107295	 0.738549	 -0.627979	 0.220627	 1
1463624076.896	 8	 0.301928	 -0.437725	 -4.661425	 2.218876	 -1.387558	 -0.445104	 -0.125684	 0.734303	 -0.634014	 0.207435	 1
1463624076.906	 8	 0.181219	 -0.417896	 -4.176333	 2.376070	 -1.421305	 -0.281378	 -0.142636	 0.730307	 -0.638840	 0.195426	 1
1463624076.916	 8	 0.032176	 -0.305542	 -3.410904	 2.574981	 -1.444350	 -0.077193	 -0.156837	 0.727051	 -0.642289	 0.185106	 1
1463624076.926	 8	 -0.077060	 -0.077955	 -2.432663	 2.773822	 -1.455998	 0.124632	 -0.167134	 0.724920	 -0.644389	 0.176973	 1
1463624076.936	 8	 -0.106153	 0.433078	 -1.496178	 2.924033	 -1.460041	 0.272800	 -0.172454	 0.724031	 -0.645785	 0.170293	 1
1463624076.946	 8	 -0.154440	 0.878987	 -0.747706	 3.016696	 -1.460195	 0.358150	 -0.173417	 0.724351	 -0.646715	 0.164321	 1
1463624076.956	 8	 -0.130999	 1.237749	 -0.107246	 3.052738	 -1.459075	 0.382788	 -0.170733	 0.725517	 -0.647410	 0.159171	 1
1463624076.966	 8	 -0.038336	 1.394981	 0.198218	 3.053651	 -1.458196	 0.369813	 -0.165766	 0.726970	 -0.648181	 0.154588	 1
1463624076.976	 8	 0.149076	 1.439914	 0.309975	 3.041799	 -1.458928	 0.343543	 -0.160025	 0.727964	 -0.649489	 0.150414	 1
1463624076.986	 8	 0.334464	 1.374506	 0.312016	 3.025239	 -1.461478	 0.312545	 -0.154037	 0.728323	 -0.651433	 0.146471	 1
1463624076.996	 8	 0.640600	 0.653646	 0.326089	 2.996712	 -1.466488	 0.275486	 -0.149735	 0.727388	 -0.653822	 0.144924	 1
1463624077.006	 8	 1.047455	 0.365400	 0.196236	 2.962239	 -1.475472	 0.236670	 -0.146828	 0.724754	 -0.657403	 0.144897	 1
1463624077.016	 8	 1.334559	 0.315236	 -0.004962	 2.933003	 -1.487879	 0.204126	 -0.144694	 0.720817	 -0.662203	 0.144825	 1
1463624077.026	 8	 1.432875	 0.467044	 -0.151481	 2.912182	 -1.501981	 0.179086	 -0.142726	 0.716316	 -0.667682	 0.143950	 1
1463624077.036	 8	 1.354084	 0.777450	 -0.206523	 2.897629	 -1.515908	 0.157538	 -0.140109	 0.712031	 -0.673260	 0.141786	 1
1463624077.046	 8	 1.122904	 1.103458	 -0.224924	 2.892324	 -1.527956	 0.141986	 -0.136605	 0.708584	 -0.678337	 0.138229	 1
1463624077.056	 8	 0.835953	 1.350036	 -0.219065	 2.904426	 -1.537304	 0.141118	 -0.132361	 0.706226	 -0.682572	 0.133498	 1
1463624077.066	 8	 0.556869	 1.448800	 -0.206124	 2.940835	 -1.543867	 0.163187	 -0.127774	 0.704888	 -0.685849	 0.128132	 1
1463624077.076	 8	 0.302300	 1.325111	 -0.205059	 3.011058	 -1.547792	 0.219723	 -0.123557	 0.704370	 -0.688120	 0.122832	 1
1463624077.086	 8	 0.112795	 0.975681	 -0.213055	 3.110829	 -1.549501	 0.308757	 -0.120499	 0.704359	 -0.689447	 0.118413	 1
1463624077.096	 8	 0.028194	 0.461143	 -0.212843	 -3.064398	 -1.549873	 0.410771	 -0.119172	 0.704434	 -0.690078	 0.115598	 1
1463624077.106	 8	 0.050384	 -0.068335	 -0.176399	 -2.972124	 -1.550020	 0.502479	 -0.119609	 0.704225	 -0.690355	 0.114766	 1
1463624077.116	 8	 0.166620	 -0.371299	 -0.106692	 -2.901017	 -1.551062	 0.576787	 -0.121077	 0.703508	 -0.690703	 0.115531	 1
1463624077.126	 8	 0.343126	 -0.394246	 0.026909	 -2.857222	 -1.553913	 0.624587	 -0.122321	 0.702239	 -0.691513	 0.117081	 1
1463624077.136	 8	 0.438902	 -0.319263	 0.138678	 -2.855258	 -1.558311	 0.629942	 -0.122837	 0.700642	 -0.692724	 0.118932	 1
1463624077.146	 8	 0.420246	 -0.269697	 0.219234	 -2.945512	 -1.562958	 0.542488	 -0.122861	 0.699106	 -0.693937	 0.120861	 1
1463624077.156	 8	 0.366501	 -0.194491	 0.301400	 2.810984	 -1.566681	 0.017960	 -0.122388	 0.697830	 -0.694956	 0.122841	 1
1463624077.166	 8	 0.325605	 -0.088662	 0.358160	 1.686537	 -1.566029	 -1.105335	 -0.121400	 0.696805	 -0.695839	 0.124630	 1
1463624077.176	 8	 0.254293	 0.037202	 0.525145	 1.341458	 -1.560996	 -1.450456	 -0.119540	 0.696129	 -0.696507	 0.126460	 1
1463624077.186	 8	 0.101846	 0.227574	 0.608176	 1.340220	 -1.554860	 -1.453440	 -0.116764	 0.696093	 -0.696730	 0.128015	 1
1463624077.196	 8	 -0.027487	 0.415107	 0.602521	 1.406306	 -1.548944	 -1.391088	 -0.113360	 0.696678	 -0.696561	 0.128811	 1
1463624077.206	 8	 -0.094100	 0.470204	 0.693138	 1.476338	 -1.542480	 -1.325659	 -0.109494	 0.697622	 -0.696114	 0.129460	 1
1463624077.216	 8	 -0.186866	 0.545315	 0.892876	 1.546594	 -1.534174	 -1.260626	 -0.104834	 0.698976	 -0.695286	 0.130464	 1
1463624077.226	 8	 -0.278143	 0.559141	 1.002508	 1.612450	 -1.524312	 -1.200365	 -0.099601	 0.700748	 -0.694023	 0.131772	 1
1463624077.236	 8	 -0.281846	 0.420104	 1.041745	 1.659280	 -1.513816	 -1.158099	 -0.094565	 0.702548	 -0.692558	 0.133593	 1
1463624077.246	 8	 -0.224180	 0.228260	 1.010682	 1.684165	 -1.503357	 -1.135945	 -0.090159	 0.704048	 -0.691142	 0.136057	 1
1463624077.256	 8	 -0.091553	 0.011529	 0.805016	 1.688725	 -1.494608	 -1.132039	 -0.086969	 0.704921	 -0.690122	 0.138756	 1
1463624077.266	 8	 0.062386	 -0.176848	 0.557863	 1.675417	 -1.488504	 -1.144037	 -0.085240	 0.705001	 -0.689726	 0.141371	 1
1463624077.276	 8	 0.148803	 -0.264495	 0.386839	 1.652658	 -1.484408	 -1.164381	 -0.084510	 0.704546	 -0.689785	 0.143766	 1
1463624077.286	 8	 0.155933	 -0.252480	 0.286707	 1.629558	 -1.481449	 -1.184937	 -0.084215	 0.703937	 -0.690012	 0.145818	 1
1463624077.296	 8	 0.096058	 -0.192405	 0.186540	 1.613640	 -1.479365	 -1.198840	 -0.084091	 0.703480	 -0.690172	 0.147335	 1
1463624077.306	 8	 0.026337	 -0.164375	 0.063779	 1.606980	 -1.478454	 -1.203863	 -0.084305	 0.703250	 -0.690183	 0.148257	 1
1463624077.316	 8	 -0.044656	 -0.248487	 0.023116	 1.607401	 -1.478186	 -1.201228	 -0.084993	 0.703184	 -0.689981	 0.149110	 1
1463624077.326	 8	 -0.163804	 -0.461350	 0.102104	 1.616815	 -1.477388	 -1.187746	 -0.086210	 0.703359	 -0.689302	 0.150722	 1
1463624077.336	 8	 -0.321934	 -0.616240	 0.239523	 1.639296	 -1.475172	 -1.159288	 -0.087714	 0.703970	 -0.687903	 0.153367	 1
1463624077.346	 8	 -0.481588	 -0.641371	 0.376031	 1.675180	 -1.471363	 -1.116818	 -0.089040	 0.705155	 -0.685788	 0.156600	 1
1463624077.356	 8	 -0.587926	 -0.628772	 0.457007	 1.718030	 -1.466279	 -1.067343	 -0.090109	 0.706776	 -0.683165	 0.160105	 1
1463624077.366	 8	 -0.640386	 -0.640525	 0.428578	 1.762465	 -1.460822	 -1.016297	 -0.091196	 0.708616	 -0.680287	 0.163574	 1
1463624077.376	 8	 -0.674057	 -0.662716	 0.282567	 1.807492	 -1.456249	 -0.964351	 -0.092837	 0.710480	 -0.677355	 0.166702	 1
1463624077.386	 8	 -0.702392	 -0.638395	 0.105058	 1.855236	 -1.453002	 -0.909747	 -0.095079	 0.712355	 -0.674451	 0.169194	 1
1463624077.396	 8	 -0.721997	 -0.577896	 -0.066862	 1.907183	 -1.451059	 -0.851455	 -0.097779	 0.714250	 -0.671630	 0.170878	 1
1463624077.406	 8	 -0.758485	 -0.516998	 -0.190672	 1.964547	 -1.449915	 -0.788307	 -0.100791	 0.716221	 -0.668828	 0.171862	 1
1463624077.416	 8	 -0.799953	 -0.414316	 -0.274616	 2.027682	 -1.448991	 -0.720227	 -0.103870	 0.718340	 -0.665993	 0.172199	 1
1463624077.426	 8	 -0.820696	 -0.245500	 -0.324021	 2.095402	 -1.447908	 -0.649053	 -0.106673	 0.720638	 -0.663170	 0.171777	 1
1463624077.436	 8	 -0.780263	 -0.038273	 -0.332037	 2.162952	 -1.446516	 -0.580074	 -0.108852	 0.723011	 -0.660538	 0.170575	 1
1463624077.446	 8	 -0.686377	 0.157373	 -0.302258	 2.224581	 -1.444893	 -0.519086	 -0.110218	 0.725285	 -0.658283	 0.168752	 1
1463624077.456	 8	 -0.548967	 0.270222	 -0.232064	 2.275234	 -1.443178	 -0.470526	 -0.110808	 0.727277	 -0.656507	 0.166698	 1
1463624077.466	 8	 -0.394805	 0.294913	 -0.138324	 2.311555	 -1.441528	 -0.436850	 -0.110797	 0.728849	 -0.655227	 0.164865	 1
1463624077.476	 8	 -0.267529	 0.292946	 -0.064847	 2.335333	 -1.440102	 -0.415828	 -0.110379	 0.730015	 -0.654376	 0.163362	 1
1463624077.486	 8	 -0.182976	 0.284709	 0.006812	 2.349722	 -1.438783	 -0.404201	 -0.109650	 0.730899	 -0.653808	 0.162168	 1
1463624077.496	 8	 -0.120940	 0.242603	 0.092207	 2.355872	 -1.437328	 -0.400592	 -0.108665	 0.731591	 -0.653394	 0.161380	 1
1463624077.506	 8	 -0.065420	 0.163403	 0.193300	 2.353044	 -1.435590	 -0.405281	 -0.107521	 0.732083	 -0.653071	 0.161219	 1
1463624077.516	 8	 -0.021632	 0.092686	 0.286047	 2.342412	 -1.433475	 -0.417151	 -0.106214	 0.732424	 -0.652796	 0.161650	 1
1463624077.526	 8	 0.032687	 -0.006790	 0.377370	 2.324170	 -1.431032	 -0.435773	 -0.104836	 0.732571	 -0.652583	 0.162741	 1
1463624077.536	 8	 0.135960	 -0.136180	 0.470120	 2.296406	 -1.428436	 -0.462784	 -0.103444	 0.732376	 -0.652550	 0.164631	 1
1463624077.546	 8	 0.265863	 -0.257303	 0.540334	 2.258088	 -1.425968	 -0.499185	 -0.102071	 0.731686	 -0.652860	 0.167307	 1
1463624077.556	 8	 0.276149	 -0.344501	 0.546893	 2.216668	 -1.423415	 -0.537774	 -0.100886	 0.730764	 -0.653270	 0.170426	 1
1463624077.566	 8	 0.184945	 -0.433709	 0.528739	 2.180284	 -1.420331	 -0.570400	 -0.100101	 0.729989	 -0.653373	 0.173780	 1
1463624077.576	 8	 0.092806	 -0.483658	 0.497103	 2.150875	 -1.416787	 -0.595342	 -0.099710	 0.729450	 -0.653110	 0.177223	 1
1463624077.586	 8	 0.017037	 -0.448639	 0.455459	 2.128437	 -1.413050	 -0.613380	 -0.099488	 0.729156	 -0.652590	 0.180445	 1
1463624077.596	 8	 -0.050004	 -0.367955	 0.407768	 2.112703	 -1.409297	 -0.625374	 -0.099258	 0.729120	 -0.651893	 0.183215	 1
1463624077.606	 8	 -0.114864	 -0.282975	 0.366493	 2.103177	 -1.405556	 -0.631957	 -0.098965	 0.729350	 -0.651034	 0.185496	 1
1463624077.616	 8	 -0.172228	 -0.201132	 0.335781	 2.098768	 -1.401797	 -0.634163	 -0.098589	 0.729827	 -0.650026	 0.187348	 1
1463624077.626	 8	 -0.217805	 -0.112911	 0.309289	 2.098595	 -1.398011	 -0.632972	 -0.098065	 0.730532	 -0.648901	 0.188767	 1
1463624077.636	 8	 -0.229408	 -0.052525	 0.271585	 2.101043	 -1.394423	 -0.629819	 -0.097463	 0.731348	 -0.647768	 0.189810	 1
1463624077.646	 8	 -0.225176	 -0.020968	 0.224948	 2.104967	 -1.391234	 -0.625565	 -0.096898	 0.732172	 -0.646701	 0.190561	 1
1463624077.656	 8	 -0.209154	 0.026463	 0.171962	 2.109996	 -1.388535	 -0.620588	 -0.096378	 0.732969	 -0.645742	 0.191010	 1
1463624077.666	 8	 -0.164624	 0.003660	 0.125534	 2.114392	 -1.386466	 -0.616231	 -0.096009	 0.733609	 -0.644977	 0.191325	 1
1463624077.676	 8	 -0.128679	 -0.048731	 0.102352	 2.117352	 -1.384842	 -0.612871	 -0.095859	 0.734069	 -0.644355	 0.191729	 1
1463624077.686	 8	 -0.109743	 -0.098843	 0.093195	 2.118991	 -1.383446	 -0.610300	 -0.095907	 0.734394	 -0.643806	 0.192304	 1
1463624077.696	 8	 -0.098074	 -0.106385	 0.084497	 2.120060	 -1.382177	 -0.608135	 -0.096025	 0.734658	 -0.643301	 0.192925	 1
1463624077.706	 8	 -0.073512	 -0.087444	 0.066342	 2.120756	 -1.381158	 -0.606472	 -0.096144	 0.734859	 -0.642894	 0.193458	 1
1463624077.716	 8	 -0.045667	 -0.056766	 0.054661	 2.120917	 -1.380396	 -0.605643	 -0.096196	 0.734994	 -0.642612	 0.193855	 1
1463624077.726	 8	 -0.028488	 -0.026048	 0.044140	 2.120754	 -1.379821	 -0.605474	 -0.096160	 0.735090	 -0.642430	 0.194112	 1
1463624077.736	 8	 -0.012440	 -0.002823	 0.024948	 2.126926	 -1.385597	 -0.599334	 -0.097943	 0.734174	 -0.643726	 0.192386	 1
1463624077.746	 8	 -0.000691	 0.010869	 0.011118	 2.126729	 -1.385460	 -0.599613	 -0.097868	 0.734198	 -0.643705	 0.192402	 1
1463624077.756	 8	 0.008920	 0.015071	 0.007876	 2.126359	 -1.385422	 -0.600143	 -0.097783	 0.734196	 -0.643728	 0.192377	 1
1463624077.766	 8	 0.011039	 0.011874	 0.007828	 2.125777	 -1.385406	 -0.600867	 -0.097700	 0.734179	 -0.643764	 0.192362	 1
1463624077.776	 8	 0.012048	 0.002278	 0.004518	 2.127425	 -1.386327	 -0.599323	 -0.097977	 0.734067	 -0.643950	 0.192026	 1
1463624077.786	 8	 0.008782	 -0.009428	 0.002306	 2.126833	 -1.386354	 -0.599862	 -0.097977	 0.734031	 -0.643981	 0.192063	 1
1463624077.796	 8	 0.004455	 -0.024284	 0.005403	 2.126252	 -1.386347	 -0.600244	 -0.098022	 0.733996	 -0.643987	 0.192155	 1
1463624077.806	 8	 0.001220	 -0.034880	 0.009596	 2.125564	 -1.386282	 -0.600611	 -0.098092	 0.733961	 -0.643970	 0.192305	 1
1463624077.816	 8	 -0.003073	 -0.042287	 0.012756	 2.127165	 -1.386398	 -0.598645	 -0.098328	 0.733994	 -0.643892	 0.192322	 1
1463624077.826	 8	 -0.008408	 -0.047543	 0.019148	 2.126534	 -1.386218	 -0.598820	 -0.098420	 0.733980	 -0.643828	 0.192542	 1
1463624077.836	 8	 -0.009523	 -0.059224	 0.021180	 2.125759	 -1.385986	 -0.599028	 -0.098532	 0.733965	 -0.643746	 0.192817	 1
1463624077.846	 8	 -0.005298	 -0.066698	 0.018943	 2.124862	 -1.385779	 -0.599284	 -0.098673	 0.733934	 -0.643670	 0.193115	 1
1463624077.856	 8	 0.001081	 -0.068862	 0.015641	 2.127899	 -1.387476	 -0.595636	 -0.099476	 0.733687	 -0.643936	 0.192755	 1
1463624077.866	 8	 0.007482	 -0.065721	 0.011351	 2.126629	 -1.387406	 -0.596255	 -0.099640	 0.733610	 -0.643913	 0.193039	 1
1463624077.876	 8	 0.018180	 -0.059379	 0.010251	 2.125008	 -1.387401	 -0.597273	 -0.099787	 0.733506	 -0.643929	 0.193307	 1
1463624077.886	 8	 0.015030	 -0.049773	 0.012474	 2.128416	 -1.388920	 -0.593451	 -0.100487	 0.733321	 -0.644149	 0.192913	 1
1463624077.896	 8	 0.015032	 -0.050815	 0.014573	 2.131464	 -1.390237	 -0.589983	 -0.101119	 0.733158	 -0.644332	 0.192588	 1
1463624077.906	 8	 0.012919	 -0.042313	 0.011453	 2.136765	 -1.391109	 -0.584363	 -0.101697	 0.733196	 -0.644302	 0.192241	 1
1463624077.916	 8	 0.005431	 -0.040193	 0.006194	 2.142556	 -1.391646	 -0.578288	 -0.102197	 0.733326	 -0.644163	 0.191944	 1
1463624077.926	 8	 -0.001005	 -0.041268	 0.000900	 2.148374	 -1.391948	 -0.572166	 -0.102645	 0.733505	 -0.643958	 0.191709	 1
1463624077.936	 8	 -0.015981	 -0.043383	 -0.004327	 2.153040	 -1.392124	 -0.567137	 -0.103033	 0.733655	 -0.643766	 0.191574	 1
1463624077.946	 8	 -0.026688	 -0.051841	 -0.002189	 2.157178	 -1.392350	 -0.562531	 -0.103448	 0.733763	 -0.643602	 0.191484	 1
1463624077.956	 8	 -0.029954	 -0.063546	 -0.004405	 2.158821	 -1.392461	 -0.560268	 -0.103778	 0.733779	 -0.643502	 0.191583	 1
1463624077.966	 8	 -0.038454	 -0.051849	 -0.008487	 2.161584	 -1.392273	 -0.556947	 -0.104060	 0.733913	 -0.643274	 0.191682	 1
1463624077.976	 8	 -0.042695	 -0.043350	 -0.011567	 2.163427	 -1.392055	 -0.554608	 -0.104271	 0.734016	 -0.643084	 0.191810	 1
1463624077.986	 8	 -0.042651	 -0.034833	 -0.010422	 2.165591	 -1.391870	 -0.552047	 -0.104469	 0.734131	 -0.642899	 0.191883	 1
1463624077.996	 8	 -0.044779	 -0.037979	 -0.005103	 2.167255	 -1.391574	 -0.549969	 -0.104623	 0.734249	 -0.642702	 0.192010	 1
1463624078.006	 8	 -0.043721	 -0.039055	 -0.006184	 2.167801	 -1.391208	 -0.548965	 -0.104724	 0.734331	 -0.642529	 0.192218	 1
1463624078.016	 8	 -0.044788	 -0.040109	 -0.005115	 2.168724	 -1.390846	 -0.547591	 -0.104842	 0.734428	 -0.642342	 0.192406	 1
1463624078.026	 8	 -0.042638	 -0.036926	 -0.005101	 2.169289	 -1.390469	 -0.546582	 -0.104937	 0.734514	 -0.642166	 0.192612	 1
1463624078.036	 8	 -0.022318	 -0.003169	 -0.034796	 2.169474	 -1.390100	 -0.546280	 -0.104897	 0.734599	 -0.642041	 0.192728	 1
1463624078.046	 8	 -0.018084	 -0.025399	 -0.017984	 2.168084	 -1.390226	 -0.547408	 -0.104960	 0.734496	 -0.642113	 0.192846	 1
1463624078.056	 8	 -0.043655	 -0.050567	 0.021440	 2.166440	 -1.390021	 -0.548544	 -0.105020	 0.734443	 -0.642078	 0.193134	 1
1463624078.066	 8	 -0.061772	 -0.063133	 0.041733	 2.164979	 -1.389410	 -0.549337	 -0.105045	 0.734480	 -0.641903	 0.193560	 1
1463624078.076	 8	 -0.058531	 -0.059916	 0.047065	 2.163608	 -1.388753	 -0.550037	 -0.105063	 0.734530	 -0.641711	 0.193994	 1
1463624078.086	 8	 -0.053145	 -0.049306	 0.046053	 2.161911	 -1.388152	 -0.551165	 -0.105042	 0.734559	 -0.641560	 0.194398	 1
1463624078.096	 8	 -0.049924	 -0.046128	 0.046055	 2.160103	 -1.387688	 -0.552455	 -0.105032	 0.734553	 -0.641458	 0.194758	 1
1463624078.106	 8	 -0.049906	 -0.043995	 0.047139	 2.159195	 -1.387265	 -0.552893	 -0.105056	 0.734582	 -0.641333	 0.195052	 1
1463624078.116	 8	 -0.050969	 -0.042937	 0.046090	 2.158118	 -1.386886	 -0.553497	 -0.105085	 0.734592	 -0.641227	 0.195344	 1
1463624078.126	 8	 -0.046676	 -0.037641	 0.045033	 2.157560	 -1.386573	 -0.553629	 -0.105136	 0.734614	 -0.641121	 0.195581	 1
1463624078.136	 8	 -0.046624	 -0.029117	 0.047238	 2.157577	 -1.386330	 -0.553276	 -0.105199	 0.734651	 -0.641018	 0.195746	 1
1463624078.146	 8	 -0.044453	 -0.023790	 0.049395	 2.157449	 -1.386105	 -0.553138	 -0.105234	 0.734681	 -0.640934	 0.195891	 1
1463624078.156	 8	 -0.045511	 -0.021668	 0.048352	 2.157250	 -1.385879	 -0.553107	 -0.105253	 0.734710	 -0.640856	 0.196027	 1
1463624078.166	 8	 -0.044446	 -0.022736	 0.048329	 2.156911	 -1.385626	 -0.553190	 -0.105267	 0.734737	 -0.640774	 0.196185	 1
1463624078.176	 8	 -0.041261	 -0.024889	 0.046145	 2.156910	 -1.385309	 -0.552935	 -0.105281	 0.734793	 -0.640659	 0.196343	 1
1463624078.186	 8	 -0.039161	 -0.031284	 0.044997	 2.157425	 -1.384957	 -0.552128	 -0.105324	 0.734879	 -0.640507	 0.196496	 1
1463624078.196	 8	 -0.038168	 -0.046186	 0.043779	 2.157914	 -1.384692	 -0.551221	 -0.105434	 0.734938	 -0.640367	 0.196669	 1
1463624078.206	 8	 -0.038278	 -0.068530	 0.042500	 2.158396	 -1.384488	 -0.550122	 -0.105632	 0.734973	 -0.640227	 0.196892	 1
1463624078.216	 8	 -0.034124	 -0.085622	 0.033772	 2.158821	 -1.384346	 -0.548868	 -0.105922	 0.734980	 -0.640085	 0.197171	 1
1463624078.226	 8	 -0.028839	 -0.089946	 0.026222	 2.159145	 -1.384084	 -0.547649	 -0.106200	 0.735005	 -0.639907	 0.197504	 1
1463624078.236	 8	 -0.024546	 -0.082528	 0.024122	 2.159392	 -1.383667	 -0.546561	 -0.106417	 0.735064	 -0.639693	 0.197861	 1
1463624078.246	 8	 -0.024485	 -0.071867	 0.027421	 2.159644	 -1.383060	 -0.545575	 -0.106546	 0.735171	 -0.639435	 0.198227	 1
1463624078.256	 8	 -0.029785	 -0.066510	 0.030719	 2.159371	 -1.382346	 -0.545171	 -0.106603	 0.735281	 -0.639176	 0.198625	 1
1463624078.266	 8	 -0.038306	 -0.067511	 0.036119	 2.158286	 -1.381534	 -0.545558	 -0.106604	 0.735374	 -0.638924	 0.199092	 1
1463624078.276	 8	 -0.045766	 -0.071690	 0.043611	 2.157375	 -1.380715	 -0.545728	 -0.106627	 0.735473	 -0.638657	 0.199566	 1
1463624078.286	 8	 -0.050021	 -0.072712	 0.047906	 2.156228	 -1.379916	 -0.546110	 -0.106652	 0.735556	 -0.638405	 0.200055	 1
1463624078.296	 8	 -0.045699	 -0.066305	 0.053257	 2.155368	 -1.379263	 -0.546269	 -0.106703	 0.735622	 -0.638188	 0.200475	 1
1463624078.306	 8	 -0.030674	 -0.050379	 0.055404	 2.154800	 -1.378703	 -0.546300	 -0.106733	 0.735690	 -0.638001	 0.200807	 1
1463624078.316	 8	 -0.010280	 -0.020695	 0.050171	 2.154705	 -1.378235	 -0.546143	 -0.106703	 0.735776	 -0.637845	 0.201003	 1
1463624078.326	 8	 0.008028	 0.020690	 0.043999	 2.155430	 -1.377841	 -0.545583	 -0.106578	 0.735905	 -0.637715	 0.201007	 1
1463624078.336	 8	 0.015638	 0.058902	 0.035759	 2.156928	 -1.377509	 -0.544662	 -0.106356	 0.736080	 -0.637607	 0.200829	 1
1463624078.346	 8	 0.014721	 0.093994	 0.033960	 2.159033	 -1.377078	 -0.543491	 -0.106008	 0.736324	 -0.637477	 0.200529	 1
1463624078.356	 8	 0.003082	 0.118482	 0.032156	 2.161855	 -1.376640	 -0.541882	 -0.105592	 0.736619	 -0.637339	 0.200105	 1
1463624078.366	 8	 -0.007556	 0.128082	 0.031271	 2.164974	 -1.376148	 -0.540084	 -0.105138	 0.736945	 -0.637182	 0.199645	 1
1463624078.376	 8	 -0.017061	 0.129199	 0.031343	 2.167705	 -1.375777	 -0.538681	 -0.104692	 0.737226	 -0.637078	 0.199172	 1
1463624078.386	 8	 -0.020316	 0.116461	 0.033381	 2.169812	 -1.375544	 -0.537792	 -0.104291	 0.737441	 -0.637032	 0.198733	 1
1463624078.396	 8	 -0.016107	 0.104741	 0.032165	 2.171499	 -1.375458	 -0.537208	 -0.103947	 0.737597	 -0.637037	 0.198317	 1
1463624078.406	 8	 -0.005479	 0.096192	 0.030921	 2.172371	 -1.375537	 -0.537338	 -0.103641	 0.737672	 -0.637118	 0.197935	 1
1463624078.416	 8	 0.007292	 0.093981	 0.024389	 2.172809	 -1.375750	 -0.537866	 -0.103360	 0.737696	 -0.637255	 0.197556	 1
1463624078.426	 8	 0.020081	 0.092856	 0.021064	 2.173062	 -1.376060	 -0.538580	 -0.103093	 0.737688	 -0.637428	 0.197163	 1
1463624078.436	 8	 0.028583	 0.089601	 0.015626	 2.173020	 -1.376407	 -0.539572	 -0.102827	 0.737658	 -0.637624	 0.196781	 1
1463624078.446	 8	 0.031735	 0.081068	 0.013383	 2.173015	 -1.376701	 -0.540463	 -0.102572	 0.737638	 -0.637797	 0.196430	 1
1463624078.456	 8	 0.030622	 0.073611	 0.011188	 2.173392	 -1.376897	 -0.540892	 -0.102343	 0.737653	 -0.637915	 0.196109	 1
1463624078.466	 8	 0.030599	 0.069357	 0.011146	 2.173846	 -1.377037	 -0.541194	 -0.102121	 0.737681	 -0.638008	 0.195812	 1
1463624078.476	 8	 0.025225	 0.061929	 0.011120	 2.174761	 -1.377147	 -0.540978	 -0.101936	 0.737736	 -0.638066	 0.195518	 1
1463624078.486	 8	 0.016629	 0.052368	 0.008971	 2.176190	 -1.377174	 -0.540157	 -0.101790	 0.737827	 -0.638066	 0.195246	 1
1463624078.496	 8	 0.005894	 0.040694	 0.007887	 2.178115	 -1.377153	 -0.538717	 -0.101702	 0.737946	 -0.638018	 0.195000	 1
1463624078.506	 8	 -0.004819	 0.031170	 0.010020	 2.180301	 -1.377085	 -0.536905	 -0.101656	 0.738083	 -0.637933	 0.194787	 1
1463624078.516	 8	 -0.016581	 0.026952	 0.010079	 2.182562	 -1.377022	 -0.534946	 -0.101643	 0.738217	 -0.637838	 0.194593	 1
1463624078.526	 8	 -0.023013	 0.022703	 0.007958	 2.184818	 -1.377059	 -0.532947	 -0.101670	 0.738327	 -0.637769	 0.194389	 1
1463624078.536	 8	 -0.028373	 0.018457	 0.006893	 2.186908	 -1.377164	 -0.531053	 -0.101729	 0.738410	 -0.637723	 0.194196	 1
1463624078.546	 8	 -0.028409	 0.013116	 0.003640	 2.188648	 -1.377391	 -0.529446	 -0.101823	 0.738446	 -0.637721	 0.194014	 1
1463624078.556	 8	 -0.027398	 0.003517	 0.000337	 2.190312	 -1.377741	 -0.527831	 -0.101974	 0.738445	 -0.637752	 0.193834	 1
1463624078.566	 8	 -0.025333	 -0.009276	 -0.003006	 2.191551	 -1.378195	 -0.526508	 -0.102178	 0.738395	 -0.637820	 0.193694	 1
1463624078.576	 8	 -0.022191	 -0.021002	 -0.005281	 2.192439	 -1.378630	 -0.525420	 -0.102403	 0.738327	 -0.637888	 0.193614	 1
1463624078.586	 8	 -0.015810	 -0.026339	 -0.005394	 2.193116	 -1.379096	 -0.524479	 -0.102648	 0.738238	 -0.637969	 0.193557	 1
1463624078.596	 8	 -0.008350	 -0.026384	 -0.008663	 2.193855	 -1.379568	 -0.523471	 -0.102899	 0.738150	 -0.638048	 0.193498	 1
1463624078.606	 8	 -0.003046	 -0.031734	 -0.010898	 2.194566	 -1.380041	 -0.522454	 -0.103163	 0.738058	 -0.638125	 0.193451	 1
1463624078.616	 8	 -0.002014	 -0.034966	 -0.016270	 2.195193	 -1.380418	 -0.521475	 -0.103416	 0.737982	 -0.638174	 0.193446	 1
1463624078.626	 8	 -0.003084	 -0.033914	 -0.018385	 2.195896	 -1.380719	 -0.520421	 -0.103653	 0.737927	 -0.638197	 0.193454	 1
1463624078.636	 8	 -0.003043	 -0.025405	 -0.018307	 2.196311	 -1.380884	 -0.519719	 -0.103820	 0.737893	 -0.638199	 0.193488	 1
1463624078.646	 8	 0.000219	 -0.012651	 -0.018216	 2.196549	 -1.381007	 -0.519309	 -0.103925	 0.737867	 -0.638208	 0.193502	 1
1463624078.656	 8	 0.002414	 -0.000950	 -0.017058	 2.196384	 -1.381086	 -0.519409	 -0.103960	 0.737838	 -0.638232	 0.193513	 1
1463624078.666	 8	 0.004589	 0.007552	 -0.016996	 2.196040	 -1.381154	 -0.519788	 -0.103946	 0.737809	 -0.638271	 0.193504	 1
1463624078.676	 8	 0.008874	 0.010730	 -0.017001	 2.195665	 -1.381248	 -0.520250	 -0.103918	 0.737775	 -0.638324	 0.193473	 1
1463624078.686	 8	 0.009960	 0.011813	 -0.013801	 2.195209	 -1.381360	 -0.520813	 -0.103883	 0.737734	 -0.638388	 0.193436	 1
1463624078.696	 8	 0.013163	 0.010755	 -0.011706	 2.195180	 -1.381428	 -0.520959	 -0.103855	 0.737724	 -0.638420	 0.193385	 1
1463624078.706	 8	 0.012116	 0.011853	 -0.007422	 2.195374	 -1.381440	 -0.520893	 -0.103821	 0.737736	 -0.638428	 0.193332	 1
1463624078.716	 8	 0.006781	 0.010821	 -0.005253	 2.195927	 -1.381403	 -0.520457	 -0.103796	 0.737775	 -0.638403	 0.193275	 1
1463624078.726	 8	 0.002504	 0.008715	 -0.004169	 2.196631	 -1.381349	 -0.519856	 -0.103780	 0.737825	 -0.638366	 0.193220	 1
1463624078.736	 8	 -0.001754	 0.009807	 -0.001990	 2.197696	 -1.381260	 -0.518896	 -0.103773	 0.737898	 -0.638302	 0.193153	 1
1463624078.746	 8	 -0.006035	 0.007694	 -0.001973	 2.199005	 -1.381165	 -0.517680	 -0.103780	 0.737983	 -0.638225	 0.193080	 1
1463624078.756	 8	 -0.012461	 0.002403	 -0.000902	 2.200279	 -1.381079	 -0.516451	 -0.103807	 0.738062	 -0.638147	 0.193022	 1
1463624078.766	 8	 -0.017833	 -0.003971	 -0.001982	 2.201618	 -1.381055	 -0.515086	 -0.103877	 0.738126	 -0.638077	 0.192968	 1
1463624078.776	 8	 -0.018942	 -0.010372	 -0.005232	 2.202744	 -1.381125	 -0.513856	 -0.103989	 0.738155	 -0.638038	 0.192930	 1
1463624078.786	 8	 -0.020034	 -0.015687	 -0.005274	 2.203783	 -1.381180	 -0.512662	 -0.104112	 0.738180	 -0.637993	 0.192915	 1
1463624078.796	 8	 -0.017904	 -0.016757	 -0.005306	 2.204792	 -1.381271	 -0.511474	 -0.104250	 0.738194	 -0.637958	 0.192901	 1
1463624078.806	 8	 -0.013645	 -0.018897	 -0.005365	 2.205542	 -1.381384	 -0.510523	 -0.104389	 0.738191	 -0.637939	 0.192901	 1
1463624078.816	 8	 -0.012612	 -0.026346	 -0.005446	 2.206127	 -1.381503	 -0.509685	 -0.104540	 0.738176	 -0.637924	 0.192926	 1
1463624078.826	 8	 -0.011588	 -0.033810	 -0.007658	 2.206673	 -1.381612	 -0.508817	 -0.104712	 0.738158	 -0.637901	 0.192977	 1
1463624078.836	 8	 -0.010519	 -0.031702	 -0.009782	 2.207398	 -1.381745	 -0.507761	 -0.104903	 0.738142	 -0.637877	 0.193016	 1
1463624078.846	 8	 -0.013712	 -0.027460	 -0.012912	 2.208026	 -1.381802	 -0.506827	 -0.105061	 0.738140	 -0.637836	 0.193069	 1
1463624078.856	 8	 -0.016873	 -0.017886	 -0.013862	 2.209032	 -1.381812	 -0.505609	 -0.105192	 0.738171	 -0.637775	 0.193084	 1
1463624078.866	 8	 -0.016852	 -0.012575	 -0.014878	 2.210005	 -1.381806	 -0.504477	 -0.105298	 0.738207	 -0.637715	 0.193087	 1
1463624078.876	 8	 -0.017879	 -0.005119	 -0.013732	 2.210685	 -1.381768	 -0.503702	 -0.105358	 0.738241	 -0.637664	 0.193092	 1
1463624078.886	 8	 -0.015716	 -0.002968	 -0.009466	 2.210879	 -1.381708	 -0.503436	 -0.105381	 0.738259	 -0.637631	 0.193119	 1
1463624078.896	 8	 -0.014644	 -0.005076	 -0.006296	 2.210978	 -1.381672	 -0.503269	 -0.105402	 0.738268	 -0.637609	 0.193143	 1
1463624078.906	 8	 -0.011433	 -0.006127	 -0.003135	 2.210759	 -1.381665	 -0.503406	 -0.105419	 0.738256	 -0.637609	 0.193182	 1
1463624078.916	 8	 -0.008122	 -0.006090	 -0.002076	 2.210412	 -1.381662	 -0.503672	 -0.105431	 0.738237	 -0.637616	 0.193226	 1
1463624078.926	 8	 -0.009185	 -0.007135	 0.000054	 2.210557	 -1.381721	 -0.503447	 -0.105482	 0.738226	 -0.637619	 0.193231	 1
1463624078.936	 8	 -0.009197	 -0.007158	 -0.003145	 2.210905	 -1.381814	 -0.503022	 -0.105550	 0.738215	 -0.637624	 0.193217	 1
1463624078.946	 8	 -0.009209	 -0.008237	 -0.005288	 2.211444	 -1.381901	 -0.502398	 -0.105629	 0.738214	 -0.637618	 0.193198	 1
1463624078.956	 8	 -0.010285	 -0.009306	 -0.006355	 2.212001	 -1.382001	 -0.501731	 -0.105722	 0.738209	 -0.637613	 0.193182	 1
1463624078.966	 8	 -0.007096	 -0.010394	 -0.008527	 2.212557	 -1.382153	 -0.501057	 -0.105829	 0.738192	 -0.637623	 0.193158	 1
1463624078.976	 8	 -0.002827	 -0.010407	 -0.008565	 2.212843	 -1.382299	 -0.500647	 -0.105924	 0.738164	 -0.637642	 0.193150	 1
1463624078.986	 8	 -0.001735	 -0.007204	 -0.006414	 2.212784	 -1.382420	 -0.500613	 -0.105984	 0.738128	 -0.637671	 0.193156	 1
1463624078.996	 8	 0.001481	 -0.006135	 -0.004300	 2.212572	 -1.382508	 -0.500753	 -0.106021	 0.738095	 -0.637700	 0.193170	 1
1463624079.006	 8	 0.003639	 -0.002935	 -0.002157	 2.212224	 -1.382521	 -0.501062	 -0.106021	 0.738074	 -0.637715	 0.193197	 1
1463624079.016	 8	 0.004731	 0.001324	 -0.001059	 2.211608	 -1.382474	 -0.501675	 -0.105980	 0.738058	 -0.637728	 0.193239	 1
1463624079.026	 8	 0.002633	 0.005616	 0.003264	 2.211305	 -1.382351	 -0.502024	 -0.105919	 0.738076	 -0.637709	 0.193267	 1
1463624079.036	 8	 -0.000552	 0.007768	 0.005445	 2.211542	 -1.382162	 -0.501867	 -0.105856	 0.738135	 -0.637650	 0.193272	 1
1463624079.046	 8	 -0.005894	 0.006720	 0.005482	 2.211790	 -1.381987	 -0.501694	 -0.105800	 0.738190	 -0.637594	 0.193275	 1
1463624079.056	 8	 -0.011225	 0.007800	 0.005539	 2.212353	 -1.381827	 -0.501208	 -0.105761	 0.738256	 -0.637529	 0.193258	 1
1463624079.066	 8	 -0.014286	 0.009966	 0.005655	 2.212922	 -1.381706	 -0.500729	 -0.105728	 0.738314	 -0.637477	 0.193228	 1
1463624079.076	 8	 -0.015332	 0.014224	 0.005704	 2.213187	 -1.381646	 -0.500580	 -0.105684	 0.738346	 -0.637459	 0.193191	 1
1463624079.086	 8	 -0.013184	 0.015288	 0.006759	 2.212700	 -1.381810	 -0.501201	 -0.105649	 0.738293	 -0.637542	 0.193136	 1
1463624079.096	 8	 -0.008902	 0.018458	 0.005683	 2.212665	 -1.381906	 -0.501397	 -0.105611	 0.738278	 -0.637587	 0.193065	 1
1463624079.106	 8	 -0.002493	 0.021614	 0.003525	 2.212876	 -1.381847	 -0.501392	 -0.105532	 0.738312	 -0.637581	 0.193002	 1
1463624079.116	 8	 0.002850	 0.023718	 0.002430	 2.213106	 -1.382013	 -0.501400	 -0.105495	 0.738296	 -0.637643	 0.192877	 1
1463624079.126	 8	 0.003883	 0.017325	 0.001294	 2.213485	 -1.382185	 -0.501226	 -0.105479	 0.738283	 -0.637698	 0.192754	 1
1463624079.136	 8	 -0.000420	 0.012004	 -0.000851	 2.213958	 -1.382264	 -0.500892	 -0.105470	 0.738292	 -0.637714	 0.192669	 1
1463624079.146	 8	 -0.002589	 0.005621	 -0.001959	 2.214408	 -1.382350	 -0.500510	 -0.105488	 0.738296	 -0.637727	 0.192605	 1
1463624079.156	 8	 -0.004718	 0.005635	 -0.000876	 2.214726	 -1.382419	 -0.500250	 -0.105499	 0.738296	 -0.637739	 0.192555	 1
1463624079.166	 8	 -0.001514	 0.003521	 0.002274	 2.214896	 -1.382437	 -0.500121	 -0.105497	 0.738302	 -0.637741	 0.192530	 1
1463624079.176	 8	 0.000620	 0.001403	 0.004367	 2.214435	 -1.382433	 -0.500595	 -0.105468	 0.738283	 -0.637761	 0.192549	 1
1463624079.186	 8	 0.000625	 0.000354	 0.006489	 2.213668	 -1.382446	 -0.501365	 -0.105431	 0.738247	 -0.637798	 0.192584	 1
1463624079.196	 8	 0.002755	 -0.000716	 0.006461	 2.212912	 -1.382404	 -0.502111	 -0.105387	 0.738223	 -0.637818	 0.192635	 1
1463624079.206	 8	 0.002783	 0.002498	 0.009689	 2.212300	 -1.382349	 -0.502739	 -0.105337	 0.738210	 -0.637830	 0.192672	 1
1463624079.216	 8	 0.001937	 0.014204	 0.010959	 2.211852	 -1.382278	 -0.503304	 -0.105255	 0.738213	 -0.637840	 0.192674	 1
1463624079.226	 8	 0.003045	 0.023766	 0.009972	 2.211644	 -1.382211	 -0.503731	 -0.105148	 0.738231	 -0.637850	 0.192629	 1
1463624079.236	 8	 0.004130	 0.025906	 0.012114	 2.211689	 -1.382152	 -0.503960	 -0.105034	 0.738262	 -0.637857	 0.192553	 1
1463624079.246	 8	 0.001981	 0.023777	 0.011046	 2.211776	 -1.382133	 -0.504129	 -0.104939	 0.738283	 -0.637872	 0.192471	 1
1463624079.256	 8	 0.000889	 0.018462	 0.011004	 2.212093	 -1.382161	 -0.504020	 -0.104886	 0.738301	 -0.637886	 0.192383	 1
1463624079.266	 8	 -0.001259	 0.017389	 0.008879	 2.212408	 -1.382201	 -0.503890	 -0.104843	 0.738316	 -0.637902	 0.192299	 1
1463624079.276	 8	 -0.002329	 0.018441	 0.006765	 2.212966	 -1.382281	 -0.503528	 -0.104817	 0.738332	 -0.637920	 0.192190	 1
1463624079.286	 8	 -0.004472	 0.018432	 0.004649	 2.213547	 -1.382374	 -0.503138	 -0.104798	 0.738345	 -0.637941	 0.192079	 1
1463624079.296	 8	 -0.002356	 0.016283	 0.002477	 2.214228	 -1.382486	 -0.502637	 -0.104792	 0.738358	 -0.637962	 0.191963	 1
1463624079.306	 8	 -0.002385	 0.009901	 0.002416	 2.214601	 -1.382639	 -0.502389	 -0.104802	 0.738345	 -0.638004	 0.191870	 1
1463624079.316	 8	 -0.002429	 0.002440	 0.000214	 2.215000	 -1.382716	 -0.502035	 -0.104823	 0.738347	 -0.638013	 0.191818	 1
1463624079.326	 8	 -0.007814	 -0.006069	 -0.001952	 2.215474	 -1.382773	 -0.501520	 -0.104875	 0.738352	 -0.638006	 0.191794	 1
1463624079.346	 9	 -0.015318	 -0.013492	 -0.001958	 2.216671	 -1.382868	 -0.500064	 -0.105054	 0.738369	 -0.637957	 0.191796	 1
1463624079.356	 9	 -0.014240	 -0.010312	 -0.003004	 2.217304	 -1.382868	 -0.499299	 -0.105134	 0.738389	 -0.637917	 0.191806	 1
1463624079.366	 9	 -0.013169	 -0.011363	 -0.000892	 2.217828	 -1.382855	 -0.498651	 -0.105204	 0.738408	 -0.637879	 0.191823	 1
1463624079.376	 9	 -0.015298	 -0.012405	 0.001248	 2.217991	 -1.382846	 -0.498357	 -0.105258	 0.738411	 -0.637857	 0.191858	 1
1463624079.386	 9	 -0.014103	 -0.010295	 0.002434	 2.218102	 -1.382822	 -0.498125	 -0.105303	 0.738415	 -0.637833	 0.191897	 1
1463624079.396	 9	 -0.009837	 -0.010316	 0.001330	 2.218220	 -1.382858	 -0.497890	 -0.105360	 0.738405	 -0.637827	 0.191920	 1
1463624079.406	 9	 -0.009825	 -0.007133	 0.000293	 2.218268	 -1.382917	 -0.497749	 -0.105411	 0.738388	 -0.637834	 0.191934	 1
1463624079.416	 9	 -0.009813	 -0.003949	 -0.000744	 2.218339	 -1.382982	 -0.497620	 -0.105451	 0.738373	 -0.637845	 0.191935	 1
1463624079.426	 9	 -0.009789	 0.002417	 -0.002817	 2.218437	 -1.383071	 -0.497519	 -0.105478	 0.738356	 -0.637867	 0.191911	 1
1463624079.436	 9	 -0.006573	 0.005598	 -0.002815	 2.218910	 -1.383052	 -0.497084	 -0.105483	 0.738383	 -0.637844	 0.191879	 1
1463624079.446	 9	 -0.003356	 0.007724	 -0.001759	 2.219094	 -1.383121	 -0.496965	 -0.105485	 0.738379	 -0.637863	 0.191834	 1
1463624079.456	 9	 -0.001227	 0.005597	 -0.000732	 2.219270	 -1.383209	 -0.496848	 -0.105493	 0.738369	 -0.637888	 0.191787	 1
1463624079.466	 9	 -0.002318	 0.002394	 -0.002884	 2.219725	 -1.383235	 -0.496426	 -0.105510	 0.738384	 -0.637879	 0.191747	 1
1463624079.476	 9	 -0.005555	 -0.003986	 -0.003982	 2.220545	 -1.383257	 -0.495576	 -0.105567	 0.738412	 -0.637848	 0.191711	 1
1463624079.486	 9	 -0.011972	 -0.003990	 -0.007125	 2.221631	 -1.383259	 -0.494446	 -0.105638	 0.738456	 -0.637797	 0.191670	 1
1463624079.496	 9	 -0.016236	 -0.002913	 -0.007078	 2.222817	 -1.383235	 -0.493212	 -0.105710	 0.738511	 -0.637734	 0.191631	 1
1463624079.506	 9	 -0.014096	 -0.001856	 -0.007087	 2.223665	 -1.383240	 -0.492326	 -0.105768	 0.738544	 -0.637696	 0.191599	 1
1463624079.516	 9	 -0.015160	 -0.001845	 -0.006013	 2.224910	 -1.383234	 -0.491050	 -0.105841	 0.738597	 -0.637638	 0.191547	 1
1463624079.526	 9	 -0.014099	 -0.003968	 -0.004977	 2.225927	 -1.383208	 -0.489996	 -0.105900	 0.738645	 -0.637583	 0.191514	 1
1463624079.536	 9	 -0.012868	 -0.010359	 -0.003868	 2.226853	 -1.383177	 -0.488981	 -0.105972	 0.738687	 -0.637525	 0.191502	 1
1463624079.546	 9	 -0.012892	 -0.014621	 -0.004974	 2.227381	 -1.383171	 -0.488300	 -0.106054	 0.738703	 -0.637486	 0.191525	 1
1463624079.556	 9	 -0.013980	 -0.018873	 -0.005004	 2.228303	 -1.383118	 -0.487187	 -0.106159	 0.738745	 -0.637413	 0.191551	 1
1463624079.566	 9	 -0.016114	 -0.016754	 -0.007098	 2.229417	 -1.383048	 -0.485892	 -0.106266	 0.738799	 -0.637327	 0.191568	 1
1463624079.576	 9	 -0.016115	 -0.018866	 -0.004986	 2.230268	 -1.383014	 -0.484850	 -0.106372	 0.738833	 -0.637262	 0.191593	 1
1463624079.586	 9	 -0.018245	 -0.018852	 -0.003901	 2.230928	 -1.382912	 -0.483975	 -0.106461	 0.738874	 -0.637182	 0.191650	 1
1463624079.596	 9	 -0.018247	 -0.020964	 -0.001789	 2.231304	 -1.382784	 -0.483376	 -0.106533	 0.738909	 -0.637106	 0.191730	 1
1463624079.606	 9	 -0.017171	 -0.020952	 0.000333	 2.231541	 -1.382685	 -0.482907	 -0.106607	 0.738930	 -0.637044	 0.191813	 1
1463624079.616	 9	 -0.015016	 -0.016704	 0.000354	 2.231706	 -1.382599	 -0.482547	 -0.106668	 0.738947	 -0.636992	 0.191886	 1
1463624079.626	 9	 -0.015011	 -0.016697	 0.001420	 2.231829	 -1.382519	 -0.482238	 -0.106724	 0.738961	 -0.636945	 0.191956	 1
1463624079.636	 9	 -0.016058	 -0.014551	 0.003581	 2.231910	 -1.382489	 -0.481986	 -0.106785	 0.738963	 -0.636916	 0.192013	 1
1463624079.646	 9	 -0.012854	 -0.011393	 0.000384	 2.232099	 -1.382480	 -0.481665	 -0.106841	 0.738966	 -0.636892	 0.192048	 1
1463624079.656	 9	 -0.013918	 -0.010334	 -0.000663	 2.232122	 -1.382534	 -0.481522	 -0.106899	 0.738948	 -0.636896	 0.192073	 1
1463624079.666	 9	 -0.012839	 -0.007154	 -0.001709	 2.232296	 -1.382564	 -0.481244	 -0.106953	 0.738942	 -0.636888	 0.192091	 1
1463624079.676	 9	 -0.011759	 -0.002918	 -0.003811	 2.232675	 -1.382621	 -0.480812	 -0.107005	 0.738942	 -0.636884	 0.192076	 1
1463624079.686	 9	 -0.009613	 0.001315	 -0.005923	 2.233391	 -1.382694	 -0.480089	 -0.107062	 0.738955	 -0.636875	 0.192025	 1
1463624079.696	 9	 -0.007285	 0.002354	 -0.006897	 2.233794	 -1.382806	 -0.479698	 -0.107104	 0.738946	 -0.636893	 0.191977	 1
1463624079.706	 9	 -0.006217	 0.002351	 -0.006907	 2.234336	 -1.382898	 -0.479172	 -0.107147	 0.738948	 -0.636899	 0.191924	 1
1463624079.716	 9	 -0.005140	 0.003419	 -0.005842	 2.235007	 -1.382993	 -0.478525	 -0.107194	 0.738955	 -0.636902	 0.191861	 1
1463624079.726	 9	 -0.008334	 0.003444	 -0.003682	 2.235629	 -1.382968	 -0.477939	 -0.107207	 0.738989	 -0.636872	 0.191824	 1
1463624079.736	 9	 -0.010475	 -0.001837	 0.000550	 2.235797	 -1.382980	 -0.477756	 -0.107224	 0.738992	 -0.636867	 0.191817	 1
1463624079.746	 9	 -0.008348	 -0.006075	 0.003689	 2.235917	 -1.382970	 -0.477569	 -0.107252	 0.738996	 -0.636852	 0.191834	 1
1463624079.756	 9	 -0.009420	 -0.008191	 0.004744	 2.235910	 -1.382947	 -0.477492	 -0.107278	 0.738997	 -0.636837	 0.191867	 1
1463624079.766	 9	 -0.008342	 -0.006067	 0.004754	 2.235874	 -1.382919	 -0.477456	 -0.107296	 0.738998	 -0.636824	 0.191897	 1
1463624079.776	 9	 -0.004057	 -0.001833	 0.003690	 2.235487	 -1.382965	 -0.477801	 -0.107302	 0.738969	 -0.636850	 0.191921	 1
1463624079.786	 9	 -0.000812	 0.008778	 0.001628	 2.235321	 -1.382985	 -0.478025	 -0.107277	 0.738960	 -0.636869	 0.191906	 1
1463624079.796	 9	 0.000301	 0.018348	 0.001708	 2.235228	 -1.383005	 -0.478273	 -0.107220	 0.738960	 -0.636893	 0.191857	 1
1463624079.806	 9	 0.002471	 0.026843	 0.000702	 2.235351	 -1.382991	 -0.478398	 -0.107131	 0.738982	 -0.636908	 0.191775	 1
1463624079.816	 9	 0.000372	 0.034295	 0.000790	 2.235478	 -1.382947	 -0.478597	 -0.107007	 0.739015	 -0.636920	 0.191674	 1
1463624079.826	 9	 0.000366	 0.032175	 0.001837	 2.235740	 -1.382861	 -0.478658	 -0.106881	 0.739064	 -0.636914	 0.191577	 1
1463624079.836	 9	 -0.007106	 0.030086	 0.004015	 2.235999	 -1.382745	 -0.478705	 -0.106754	 0.739119	 -0.636897	 0.191492	 1
1463624079.846	 9	 -0.011367	 0.029058	 0.007240	 2.236208	 -1.382645	 -0.478779	 -0.106637	 0.739166	 -0.636885	 0.191413	 1
1463624079.856	 9	 -0.015659	 0.023752	 0.007228	 2.236527	 -1.382560	 -0.478695	 -0.106547	 0.739213	 -0.636868	 0.191340	 1
1463624079.866	 9	 -0.015489	 0.017369	 0.009413	 2.236874	 -1.382555	 -0.478528	 -0.106497	 0.739238	 -0.636869	 0.191266	 1
1463624079.876	 9	 -0.012292	 0.016295	 0.009374	 2.236977	 -1.382568	 -0.478578	 -0.106449	 0.739248	 -0.636884	 0.191209	 1
1463624079.886	 9	 -0.009107	 0.014143	 0.007193	 2.237072	 -1.382690	 -0.478618	 -0.106432	 0.739230	 -0.636929	 0.191134	 1
1463624079.896	 9	 -0.004861	 0.010923	 0.004993	 2.236944	 -1.382818	 -0.478860	 -0.106413	 0.739200	 -0.636985	 0.191077	 1
1463624079.906	 9	 -0.004888	 0.006653	 0.002821	 2.236997	 -1.382962	 -0.478875	 -0.106424	 0.739171	 -0.637032	 0.191021	 1
1463624079.916	 9	 -0.004907	 0.002398	 0.002780	 2.237261	 -1.383090	 -0.478645	 -0.106454	 0.739154	 -0.637064	 0.190969	 1
1463624079.926	 9	 -0.007053	 -0.001835	 0.004889	 2.237494	 -1.383142	 -0.478410	 -0.106479	 0.739151	 -0.637069	 0.190947	 1
1463624079.936	 9	 -0.011342	 -0.007132	 0.005943	 2.237586	 -1.383104	 -0.478257	 -0.106498	 0.739161	 -0.637048	 0.190970	 1
1463624079.946	 9	 -0.012425	 -0.011376	 0.006978	 2.237907	 -1.382984	 -0.477832	 -0.106525	 0.739198	 -0.636988	 0.191013	 1
1463624079.956	 9	 -0.011386	 -0.020922	 0.011143	 2.237892	 -1.382880	 -0.477657	 -0.106570	 0.739212	 -0.636939	 0.191097	 1
1463624079.966	 9	 -0.010331	 -0.020948	 0.007935	 2.237943	 -1.382858	 -0.477389	 -0.106648	 0.739207	 -0.636909	 0.191168	 1
1463624079.976	 9	 -0.011377	 -0.015634	 0.006927	 2.238098	 -1.382804	 -0.477058	 -0.106708	 0.739218	 -0.636870	 0.191227	 1
1463624079.986	 9	 -0.009216	 -0.008210	 0.004845	 2.238320	 -1.382773	 -0.476730	 -0.106752	 0.739229	 -0.636841	 0.191256	 1
1463624079.996	 9	 -0.008135	 -0.001863	 0.000631	 2.238643	 -1.382818	 -0.476373	 -0.106791	 0.739230	 -0.636838	 0.191241	 1
1463624080.006	 9	 -0.007041	 0.004508	 -0.000385	 2.238807	 -1.382822	 -0.476231	 -0.106792	 0.739237	 -0.636834	 0.191225	 1
1463624080.016	 9	 -0.005959	 0.007696	 -0.000365	 2.239155	 -1.382783	 -0.475955	 -0.106775	 0.739265	 -0.636814	 0.191192	 1
1463624080.026	 9	 -0.003669	 0.004488	 0.000732	 2.239398	 -1.382750	 -0.475766	 -0.106760	 0.739286	 -0.636799	 0.191170	 1
1463624080.036	 9	 -0.004743	 0.001316	 0.002843	 2.239702	 -1.382663	 -0.475480	 -0.106748	 0.739320	 -0.636761	 0.191168	 1
1463624080.046	 9	 -0.007969	 -0.002937	 0.001766	 2.240153	 -1.382595	 -0.475005	 -0.106765	 0.739354	 -0.636719	 0.191167	 1
1463624080.056	 9	 -0.010105	 -0.003986	 0.002840	 2.240580	 -1.382515	 -0.474541	 -0.106782	 0.739390	 -0.636673	 0.191174	 1
1463624080.066	 9	 -0.013292	 -0.001842	 0.003953	 2.241084	 -1.382448	 -0.474014	 -0.106801	 0.739426	 -0.636630	 0.191170	 1
1463624080.076	 9	 -0.011148	 -0.000777	 0.005009	 2.241702	 -1.382398	 -0.473387	 -0.106824	 0.739463	 -0.636588	 0.191151	 1
1463624080.086	 9	 -0.006889	 -0.001861	 0.003895	 2.241999	 -1.382434	 -0.473065	 -0.106857	 0.739466	 -0.636584	 0.191136	 1
1463624080.096	 9	 -0.004780	 -0.008242	 0.004883	 2.242060	 -1.382437	 -0.472938	 -0.106885	 0.739464	 -0.636575	 0.191154	 1
1463624080.106	 9	 -0.002671	 -0.013566	 0.004814	 2.242237	 -1.382465	 -0.472642	 -0.106945	 0.739459	 -0.636565	 0.191177	 1
1463624080.116	 9	 -0.004844	 -0.019957	 0.002641	 2.242392	 -1.382481	 -0.472308	 -0.107023	 0.739451	 -0.636547	 0.191222	 1
1463624080.126	 9	 -0.003796	 -0.022103	 0.000479	 2.242648	 -1.382486	 -0.471840	 -0.107116	 0.739450	 -0.636517	 0.191276	 1
1463624080.136	 9	 -0.006988	 -0.018910	 -0.000530	 2.243343	 -1.382437	 -0.470952	 -0.107212	 0.739481	 -0.636454	 0.191312	 1
1463624080.146	 9	 -0.009093	 -0.012522	 -0.000452	 2.244149	 -1.382370	 -0.470003	 -0.107291	 0.739523	 -0.636386	 0.191330	 1
1463624080.156	 9	 -0.008010	 -0.008278	 -0.001488	 2.244690	 -1.382298	 -0.469362	 -0.107339	 0.739558	 -0.636332	 0.191349	 1
1463624080.166	 9	 -0.006934	 -0.007210	 -0.000422	 2.245225	 -1.382214	 -0.468755	 -0.107374	 0.739596	 -0.636277	 0.191363	 1
1463624080.176	 9	 -0.006921	 -0.006131	 0.001720	 2.245356	 -1.382114	 -0.468556	 -0.107383	 0.739622	 -0.636234	 0.191399	 1
1463624080.186	 9	 -0.007979	 -0.005056	 0.002805	 2.245627	 -1.381981	 -0.468226	 -0.107388	 0.739662	 -0.636177	 0.191432	 1
1463624080.196	 9	 -0.007784	 0.000257	 0.004009	 2.245682	 -1.381871	 -0.468157	 -0.107371	 0.739690	 -0.636140	 0.191457	 1
1463624080.206	 9	 -0.006697	 0.004508	 0.004040	 2.245753	 -1.381751	 -0.468117	 -0.107336	 0.739724	 -0.636103	 0.191470	 1
1463624080.216	 9	 -0.006665	 0.007730	 0.008333	 2.245613	 -1.381601	 -0.468324	 -0.107270	 0.739758	 -0.636069	 0.191488	 1
1463624080.226	 9	 -0.009881	 0.004548	 0.008331	 2.245834	 -1.381510	 -0.468153	 -0.107242	 0.739792	 -0.636037	 0.191480	 1
1463624080.236	 9	 -0.014179	 -0.000765	 0.007253	 2.245934	 -1.381434	 -0.468047	 -0.107232	 0.739814	 -0.636009	 0.191493	 1
1463624080.246	 9	 -0.013119	 -0.000784	 0.005111	 2.246072	 -1.381445	 -0.467881	 -0.107252	 0.739815	 -0.636004	 0.191492	 1
1463624080.256	 9	 -0.009914	 0.002374	 0.001915	 2.245985	 -1.381556	 -0.467968	 -0.107273	 0.739785	 -0.636041	 0.191473	 1
1463624080.266	 9	 -0.005638	 0.004481	 0.000830	 2.246001	 -1.381714	 -0.467976	 -0.107300	 0.739749	 -0.636091	 0.191431	 1
1463624080.286	 10	 -0.000360	 -0.007243	 -0.000394	 2.246110	 -1.382156	 -0.467827	 -0.107422	 0.739645	 -0.636218	 0.191343	 1
1463624080.296	 10	 -0.000409	 -0.016824	 -0.001549	 2.246216	 -1.382260	 -0.467581	 -0.107503	 0.739617	 -0.636232	 0.191360	 1
1463624080.306	 10	 -0.001493	 -0.022124	 0.000541	 2.246281	 -1.382321	 -0.467314	 -0.107595	 0.739594	 -0.636229	 0.191407	 1
1463624080.316	 10	 -0.000421	 -0.021063	 0.000542	 2.246163	 -1.382326	 -0.467220	 -0.107669	 0.739577	 -0.636215	 0.191480	 1
1463624080.326	 10	 -0.000403	 -0.018921	 0.002693	 2.245891	 -1.382277	 -0.467292	 -0.107718	 0.739566	 -0.636192	 0.191568	 1
1463624080.336	 10	 -0.001439	 -0.012536	 0.002762	 2.245409	 -1.382197	 -0.467621	 -0.107731	 0.739557	 -0.636173	 0.191659	 1
1463624080.346	 10	 -0.001257	 -0.008270	 0.006073	 2.244690	 -1.382091	 -0.468234	 -0.107708	 0.739547	 -0.636161	 0.191753	 1
1463624080.356	 10	 -0.000175	 -0.006139	 0.007150	 2.243761	 -1.381990	 -0.469095	 -0.107663	 0.739528	 -0.636163	 0.191844	 1
1463624080.366	 10	 -0.001202	 0.001318	 0.008295	 2.242997	 -1.381873	 -0.469847	 -0.107601	 0.739523	 -0.636158	 0.191913	 1
1463624080.376	 10	 -0.000121	 0.003450	 0.009372	 2.242707	 -1.381752	 -0.470165	 -0.107548	 0.739542	 -0.636136	 0.191945	 1
1463624080.386	 10	 -0.002242	 0.005591	 0.010476	 2.242707	 -1.381589	 -0.470229	 -0.107486	 0.739584	 -0.636092	 0.191959	 1
1463624080.396	 10	 -0.001184	 0.005572	 0.008335	 2.242992	 -1.381440	 -0.470013	 -0.107441	 0.739636	 -0.636041	 0.191955	 1
1463624080.406	 10	 -0.001176	 0.006644	 0.009411	 2.243085	 -1.381315	 -0.469991	 -0.107391	 0.739674	 -0.636006	 0.191954	 1
1463624080.416	 10	 -0.006513	 0.005604	 0.010513	 2.243351	 -1.381193	 -0.469796	 -0.107351	 0.739718	 -0.635964	 0.191944	 1
1463624080.426	 10	 -0.010767	 0.007752	 0.011636	 2.243542	 -1.381086	 -0.469684	 -0.107307	 0.739756	 -0.635931	 0.191932	 1
1463624080.436	 10	 -0.010767	 0.006696	 0.012691	 2.243594	 -1.381054	 -0.469698	 -0.107278	 0.739769	 -0.635925	 0.191916	 1
1463624080.446	 10	 -0.007564	 0.006686	 0.012662	 2.243358	 -1.381066	 -0.469999	 -0.107245	 0.739760	 -0.635945	 0.191905	 1
1463624080.456	 10	 -0.004392	 0.000294	 0.012573	 2.243152	 -1.381137	 -0.470231	 -0.107240	 0.739736	 -0.635978	 0.191892	 1
1463624080.466	 10	 -0.003373	 -0.008234	 0.010352	 2.242775	 -1.381215	 -0.470549	 -0.107260	 0.739698	 -0.636012	 0.191913	 1
1463624080.476	 10	 -0.005560	 -0.017816	 0.008149	 2.242524	 -1.381271	 -0.470639	 -0.107320	 0.739665	 -0.636025	 0.191965	 1
1463624080.486	 10	 -0.006652	 -0.023131	 0.008109	 2.242138	 -1.381258	 -0.470795	 -0.107382	 0.739640	 -0.636015	 0.192061	 1
1463624080.496	 10	 -0.008791	 -0.024189	 0.008117	 2.241855	 -1.381216	 -0.470827	 -0.107450	 0.739624	 -0.635990	 0.192165	 1
1463624080.506	 10	 -0.010916	 -0.023111	 0.009212	 2.241736	 -1.381111	 -0.470707	 -0.107509	 0.739632	 -0.635940	 0.192270	 1
1463624080.516	 10	 -0.011982	 -0.022052	 0.008164	 2.241778	 -1.381031	 -0.470443	 -0.107574	 0.739641	 -0.635892	 0.192355	 1
1463624080.526	 10	 -0.009663	 -0.019947	 0.008242	 2.241606	 -1.381017	 -0.470401	 -0.107641	 0.739625	 -0.635875	 0.192435	 1
1463624080.536	 10	 -0.005385	 -0.014672	 0.003990	 2.241529	 -1.381036	 -0.470312	 -0.107703	 0.739608	 -0.635868	 0.192488	 1
1463624080.546	 10	 -0.004309	 -0.009388	 -0.000234	 2.241245	 -1.381132	 -0.470478	 -0.107754	 0.739567	 -0.635898	 0.192519	 1
1463624080.556	 10	 -0.001071	 -0.001952	 -0.000193	 2.240719	 -1.381222	 -0.470952	 -0.107767	 0.739520	 -0.635943	 0.192544	 1
1463624080.566	 10	 0.003274	 0.012934	 0.000974	 2.239944	 -1.381274	 -0.471819	 -0.107704	 0.739480	 -0.636000	 0.192543	 1
1463624080.576	 10	 0.006510	 0.019314	 0.002071	 2.239189	 -1.381295	 -0.472750	 -0.107605	 0.739452	 -0.636056	 0.192522	 1
1463624080.586	 10	 0.008688	 0.024657	 0.006366	 2.238382	 -1.381295	 -0.473792	 -0.107477	 0.739431	 -0.636113	 0.192489	 1
1463624080.596	 10	 0.008668	 0.020402	 0.006326	 2.237619	 -1.381344	 -0.474777	 -0.107366	 0.739398	 -0.636181	 0.192447	 1
1463624080.606	 10	 0.006503	 0.012970	 0.007342	 2.237161	 -1.381372	 -0.475387	 -0.107293	 0.739380	 -0.636224	 0.192416	 1
1463624080.616	 10	 0.006486	 0.007667	 0.009424	 2.236778	 -1.381396	 -0.475874	 -0.107241	 0.739364	 -0.636257	 0.192398	 1
1463624080.626	 10	 0.002214	 0.007672	 0.008394	 2.236835	 -1.381419	 -0.475907	 -0.107215	 0.739366	 -0.636271	 0.192361	 1
1463624080.636	 10	 -0.003141	 0.005545	 0.006288	 2.237288	 -1.381482	 -0.475527	 -0.107227	 0.739374	 -0.636278	 0.192301	 1
1463624080.646	 10	 -0.004233	 0.001286	 0.005191	 2.237712	 -1.381515	 -0.475140	 -0.107242	 0.739386	 -0.636273	 0.192260	 1
1463624080.656	 10	 -0.002107	 0.001265	 0.003040	 2.238339	 -1.381517	 -0.474535	 -0.107267	 0.739413	 -0.636249	 0.192220	 1
1463624080.666	 10	 -0.003170	 0.001275	 0.004114	 2.238733	 -1.381516	 -0.474160	 -0.107280	 0.739431	 -0.636234	 0.192194	 1
1463624080.676	 10	 -0.004093	 0.001273	 0.005242	 2.239118	 -1.381467	 -0.473799	 -0.107280	 0.739461	 -0.636205	 0.192177	 1
1463624080.686	 10	 -0.003036	 -0.000858	 0.005213	 2.239377	 -1.381393	 -0.473536	 -0.107277	 0.739489	 -0.636171	 0.192181	 1
1463624080.696	 10	 -0.007311	 -0.002965	 0.006296	 2.239832	 -1.381255	 -0.473067	 -0.107274	 0.739541	 -0.636108	 0.192192	 1
1463624080.706	 10	 -0.008395	 -0.007208	 0.007332	 2.240135	 -1.381128	 -0.472703	 -0.107283	 0.739581	 -0.636051	 0.192223	 1
1463624080.716	 10	 -0.008415	 -0.011463	 0.007292	 2.240184	 -1.381031	 -0.472547	 -0.107303	 0.739600	 -0.636009	 0.192276	 1
1463624080.726	 10	 -0.010555	 -0.012520	 0.007301	 2.240187	 -1.380901	 -0.472420	 -0.107319	 0.739625	 -0.635957	 0.192343	 1
1463624080.736	 10	 -0.008420	 -0.011471	 0.006226	 2.240360	 -1.380833	 -0.472127	 -0.107357	 0.739642	 -0.635918	 0.192387	 1
1463624080.746	 10	 -0.009476	 -0.008284	 0.005199	 2.240636	 -1.380793	 -0.471758	 -0.107396	 0.739658	 -0.635885	 0.192411	 1
1463624080.756	 10	 -0.009470	 -0.007221	 0.005208	 2.240741	 -1.380740	 -0.471570	 -0.107420	 0.739671	 -0.635856	 0.192443	 1
1463624080.766	 10	 -0.010522	 -0.004027	 0.005247	 2.240603	 -1.380676	 -0.471646	 -0.107421	 0.739677	 -0.635837	 0.192484	 1
1463624080.776	 10	 -0.011554	 0.001310	 0.007437	 2.240422	 -1.380619	 -0.471817	 -0.107403	 0.739683	 -0.635826	 0.192509	 1
1463624080.786	 10	 -0.009395	 0.004510	 0.009580	 2.240169	 -1.380555	 -0.472095	 -0.107366	 0.739688	 -0.635820	 0.192528	 1
1463624080.796	 10	 -0.010487	 -0.000805	 0.009539	 2.240261	 -1.380595	 -0.472014	 -0.107375	 0.739683	 -0.635829	 0.192511	 1
1463624080.806	 10	 -0.011582	 -0.005072	 0.007376	 2.240388	 -1.380683	 -0.471843	 -0.107418	 0.739666	 -0.635846	 0.192499	 1
1463624080.816	 10	 -0.011627	 -0.010429	 0.001995	 2.240892	 -1.380852	 -0.471244	 -0.107519	 0.739641	 -0.635867	 0.192467	 1
1463624080.826	 10	 -0.008458	 -0.014717	 -0.001271	 2.241448	 -1.381038	 -0.470551	 -0.107641	 0.739613	 -0.635887	 0.192442	 1
1463624080.836	 10	 -0.006199	 -0.016886	 -0.005527	 2.242144	 -1.381261	 -0.469695	 -0.107787	 0.739580	 -0.635910	 0.192408	 1
1463624080.846	 10	 -0.005135	 -0.015841	 -0.007659	 2.242884	 -1.381394	 -0.468791	 -0.107917	 0.739571	 -0.635904	 0.192393	 1
1463624080.856	 10	 -0.000857	 -0.013727	 -0.007677	 2.243588	 -1.381472	 -0.467946	 -0.108024	 0.739574	 -0.635884	 0.192385	 1
1463624080.866	 10	 -0.000823	 -0.007337	 -0.006552	 2.243947	 -1.381460	 -0.467502	 -0.108071	 0.739587	 -0.635858	 0.192396	 1
1463624080.876	 10	 0.001322	 -0.009432	 -0.001261	 2.244069	 -1.381378	 -0.467294	 -0.108090	 0.739608	 -0.635819	 0.192435	 1
1463624080.886	 10	 0.001293	 -0.017918	 0.001859	 2.243996	 -1.381224	 -0.467207	 -0.108110	 0.739633	 -0.635760	 0.192522	 1
1463624080.896	 10	 -0.004071	 -0.025332	 0.003968	 2.243972	 -1.381048	 -0.466999	 -0.108155	 0.739662	 -0.635685	 0.192635	 1
1463624080.906	 10	 -0.008336	 -0.026368	 0.006128	 2.243802	 -1.380874	 -0.466898	 -0.108206	 0.739682	 -0.635612	 0.192768	 1
1463624080.916	 10	 -0.011522	 -0.022111	 0.005130	 2.243847	 -1.380729	 -0.466611	 -0.108265	 0.739706	 -0.635542	 0.192873	 1
1463624080.926	 10	 -0.010430	 -0.017852	 0.006226	 2.243866	 -1.380629	 -0.466391	 -0.108317	 0.739720	 -0.635492	 0.192957	 1
1463624080.936	 10	 -0.009330	 -0.008306	 0.003108	 2.243994	 -1.380555	 -0.466142	 -0.108352	 0.739736	 -0.635452	 0.193005	 1
1463624080.946	 10	 -0.003959	 -0.000876	 0.003130	 2.243985	 -1.380519	 -0.466116	 -0.108356	 0.739743	 -0.635438	 0.193024	 1
1463624080.956	 10	 -0.002897	 -0.001943	 0.003111	 2.243998	 -1.380474	 -0.466095	 -0.108349	 0.739753	 -0.635423	 0.193036	 1
1463624080.966	 10	 -0.001851	 -0.007257	 0.004118	 2.244275	 -1.380428	 -0.465771	 -0.108371	 0.739774	 -0.635393	 0.193046	 1
1463624080.976	 10	 -0.004953	 -0.011511	 0.003071	 2.244938	 -1.380331	 -0.465015	 -0.108417	 0.739820	 -0.635326	 0.193062	 1
1463624080.986	 10	 -0.010304	 -0.013630	 0.002032	 2.245609	 -1.380283	 -0.464207	 -0.108492	 0.739853	 -0.635270	 0.193081	 1
1463624080.996	 10	 -0.013499	 -0.011500	 0.001013	 2.246378	 -1.380265	 -0.463315	 -0.108573	 0.739883	 -0.635220	 0.193083	 1
1463624081.006	 10	 -0.012412	 -0.008305	 0.002098	 2.246827	 -1.380311	 -0.462766	 -0.108645	 0.739885	 -0.635205	 0.193082	 1
1463624081.016	 10	 -0.003883	 -0.009402	 0.000947	 2.246537	 -1.380431	 -0.462949	 -0.108696	 0.739838	 -0.635244	 0.193105	 1
1463624081.026	 10	 0.000378	 -0.009430	 -0.001222	 2.246092	 -1.380555	 -0.463292	 -0.108739	 0.739784	 -0.635291	 0.193134	 1
1463624081.036	 10	 0.004638	 -0.010515	 -0.002335	 2.245547	 -1.380695	 -0.463734	 -0.108781	 0.739722	 -0.635347	 0.193166	 1
1463624081.046	 10	 0.006787	 -0.008386	 -0.001268	 2.245000	 -1.380749	 -0.464187	 -0.108800	 0.739680	 -0.635377	 0.193213	 1
1463624081.056	 10	 0.002531	 -0.007295	 0.000911	 2.244604	 -1.380694	 -0.464504	 -0.108795	 0.739673	 -0.635370	 0.193270	 1
1463624081.066	 10	 -0.000649	 -0.006190	 0.005213	 2.244363	 -1.380533	 -0.464684	 -0.108768	 0.739698	 -0.635325	 0.193336	 1
1463624081.076	 10	 -0.004914	 -0.007226	 0.007373	 2.244243	 -1.380293	 -0.464744	 -0.108730	 0.739747	 -0.635250	 0.193413	 1
1463624081.086	 10	 -0.007059	 -0.009347	 0.007372	 2.244219	 -1.380110	 -0.464679	 -0.108719	 0.739785	 -0.635187	 0.193482	 1
1463624081.096	 10	 -0.007075	 -0.013594	 0.008399	 2.244098	 -1.379999	 -0.464668	 -0.108736	 0.739800	 -0.635145	 0.193554	 1
1463624081.106	 10	 -0.006016	 -0.012557	 0.005201	 2.243974	 -1.379964	 -0.464654	 -0.108773	 0.739796	 -0.635126	 0.193612	 1
1463624081.116	 10	 -0.006002	 -0.007262	 0.002053	 2.243742	 -1.380013	 -0.464790	 -0.108808	 0.739769	 -0.635142	 0.193644	 1
1463624081.126	 10	 -0.002764	 0.001230	 0.001037	 2.243770	 -1.380080	 -0.464745	 -0.108831	 0.739753	 -0.635159	 0.193634	 1
1463624081.136	 10	 -0.001532	 0.007603	 0.000045	 2.243705	 -1.380141	 -0.464865	 -0.108821	 0.739738	 -0.635186	 0.193606	 1
1463624081.146	 10	 0.000592	 0.004413	 0.001062	 2.243424	 -1.380208	 -0.465207	 -0.108799	 0.739714	 -0.635225	 0.193587	 1
1463624081.156	 10	 0.001654	 0.002290	 0.002099	 2.242946	 -1.380255	 -0.465708	 -0.108776	 0.739683	 -0.635262	 0.193595	 1
1463624081.166	 10	 0.003759	 -0.003042	 0.000965	 2.242521	 -1.380310	 -0.466111	 -0.108775	 0.739651	 -0.635294	 0.193612	 1
1463624081.176	 10	 0.003754	 -0.004106	 0.000955	 2.242301	 -1.380369	 -0.466294	 -0.108791	 0.739625	 -0.635318	 0.193623	 1
1463624081.186	 10	 0.002686	 -0.005159	 0.002020	 2.242321	 -1.380433	 -0.466229	 -0.108823	 0.739609	 -0.635332	 0.193622	 1
1463624081.196	 10	 0.001620	 -0.003044	 -0.000083	 2.242577	 -1.380468	 -0.465944	 -0.108855	 0.739609	 -0.635330	 0.193610	 1
1463624081.206	 10	 0.000568	 -0.000906	 0.001011	 2.242633	 -1.380505	 -0.465876	 -0.108871	 0.739602	 -0.635337	 0.193603	 1
1463624081.216	 10	 -0.001533	 0.004435	 0.003210	 2.242648	 -1.380504	 -0.465896	 -0.108858	 0.739605	 -0.635340	 0.193592	 1
1463624081.226	 10	 -0.000466	 0.003375	 0.004257	 2.242474	 -1.380502	 -0.466104	 -0.108836	 0.739600	 -0.635350	 0.193591	 1
1463624081.236	 10	 -0.001552	 0.000180	 0.003171	 2.242272	 -1.380511	 -0.466312	 -0.108826	 0.739590	 -0.635362	 0.193597	 1
1463624081.246	 10	 0.001644	 -0.001950	 0.004189	 2.241689	 -1.380552	 -0.466872	 -0.108813	 0.739554	 -0.635397	 0.193626	 1
1463624081.256	 10	 0.003793	 0.000179	 0.005256	 2.241171	 -1.380569	 -0.467387	 -0.108791	 0.739527	 -0.635424	 0.193650	 1
1463624081.266	 10	 0.007009	 0.002304	 0.006313	 2.240708	 -1.380580	 -0.467884	 -0.108757	 0.739507	 -0.635450	 0.193661	 1
1463624081.276	 10	 0.007008	 0.001248	 0.007369	 2.239995	 -1.380583	 -0.468620	 -0.108712	 0.739477	 -0.635483	 0.193691	 1
1463624081.286	 10	 0.008064	 -0.001938	 0.008396	 2.239413	 -1.380575	 -0.469203	 -0.108680	 0.739454	 -0.635506	 0.193722	 1
1463624081.296	 10	 0.006992	 -0.002999	 0.008396	 2.238897	 -1.380533	 -0.469701	 -0.108650	 0.739442	 -0.635513	 0.193764	 1
1463624081.306	 10	 0.004976	 -0.006179	 0.008396	 2.238800	 -1.380471	 -0.469757	 -0.108646	 0.739450	 -0.635494	 0.193795	 1
1463624081.316	 10	 -0.000359	 -0.005107	 0.007386	 2.238737	 -1.380444	 -0.469774	 -0.108653	 0.739451	 -0.635484	 0.193819	 1
1463624081.326	 10	 -0.004621	 -0.001919	 0.005321	 2.238916	 -1.380408	 -0.469572	 -0.108663	 0.739466	 -0.635464	 0.193825	 1
1463624081.336	 10	 -0.005659	 0.002354	 0.007501	 2.239082	 -1.380349	 -0.469427	 -0.108650	 0.739489	 -0.635441	 0.193822	 1
1463624081.346	 10	 -0.000284	 0.008736	 0.009645	 2.238716	 -1.380332	 -0.469870	 -0.108599	 0.739481	 -0.635458	 0.193821	 1
1463624081.356	 10	 0.001859	 0.008745	 0.011758	 2.238270	 -1.380279	 -0.470414	 -0.108527	 0.739480	 -0.635471	 0.193824	 1
1463624081.366	 10	 -0.001358	 0.005563	 0.011756	 2.237884	 -1.380261	 -0.470878	 -0.108474	 0.739472	 -0.635489	 0.193823	 1
1463624081.376	 10	 -0.005655	 0.000250	 0.010678	 2.237654	 -1.380251	 -0.471128	 -0.108452	 0.739466	 -0.635498	 0.193831	 1
1463624081.386	 10	 -0.008897	 -0.009306	 0.011682	 2.237608	 -1.380266	 -0.471109	 -0.108477	 0.739457	 -0.635498	 0.193850	 1
1463624081.396	 10	 -0.011080	 -0.017824	 0.009489	 2.237539	 -1.380297	 -0.471024	 -0.108538	 0.739438	 -0.635495	 0.193896	 1
1463624081.406	 10	 -0.011165	 -0.030635	 0.002975	 2.237666	 -1.380445	 -0.470612	 -0.108684	 0.739393	 -0.635508	 0.193948	 1
1463624081.416	 10	 -0.006930	 -0.037037	 0.001811	 2.237580	 -1.380689	 -0.470338	 -0.108869	 0.739311	 -0.635551	 0.194014	 1
1463624081.426	 10	 -0.001558	 -0.030664	 0.002888	 2.236904	 -1.380879	 -0.470689	 -0.108998	 0.739219	 -0.635606	 0.194112	 1
1463624081.436	 10	 0.003783	 -0.029616	 0.002850	 2.236546	 -1.381074	 -0.470757	 -0.109131	 0.739142	 -0.635652	 0.194180	 1
1463624081.446	 10	 0.003791	 -0.030657	 0.006037	 2.236167	 -1.381142	 -0.470845	 -0.109235	 0.739093	 -0.635661	 0.194278	 1
1463624081.456	 10	 0.006012	 -0.035988	 0.003838	 2.235505	 -1.381208	 -0.471166	 -0.109342	 0.739031	 -0.635676	 0.194406	 1
1463624081.466	 10	 0.003883	 -0.034918	 0.003866	 2.235174	 -1.381215	 -0.471153	 -0.109454	 0.738996	 -0.635659	 0.194531	 1
1463624081.476	 10	 -0.000356	 -0.028523	 0.003963	 2.234947	 -1.381050	 -0.471073	 -0.109517	 0.739009	 -0.635588	 0.194676	 1
1463624081.486	 10	 -0.002454	 -0.018959	 0.001940	 2.234689	 -1.380915	 -0.471115	 -0.109553	 0.739019	 -0.635537	 0.194788	 1
1463624081.496	 10	 -0.003466	 -0.007256	 0.002058	 2.234581	 -1.380793	 -0.471126	 -0.109555	 0.739038	 -0.635495	 0.194850	 1
1463624081.506	 10	 -0.002335	 0.004457	 0.004289	 2.234457	 -1.380669	 -0.471260	 -0.109516	 0.739063	 -0.635464	 0.194880	 1
1463624081.516	 10	 0.001968	 0.010834	 0.005377	 2.234098	 -1.380594	 -0.471716	 -0.109444	 0.739071	 -0.635466	 0.194884	 1
1463624081.526	 10	 0.003058	 0.012981	 0.008585	 2.233795	 -1.380559	 -0.472155	 -0.109370	 0.739073	 -0.635481	 0.194864	 1
1463624081.536	 10	 0.005187	 0.010855	 0.009612	 2.233666	 -1.380546	 -0.472411	 -0.109313	 0.739078	 -0.635495	 0.194833	 1
1463624081.546	 10	 0.003033	 0.007662	 0.008534	 2.233779	 -1.380607	 -0.472393	 -0.109298	 0.739073	 -0.635518	 0.194784	 1
1463624081.556	 10	 -0.001246	 0.006604	 0.007495	 2.234199	 -1.380605	 -0.472054	 -0.109290	 0.739096	 -0.635508	 0.194737	 1
1463624081.566	 10	 -0.003365	 0.009801	 0.007542	 2.234660	 -1.380650	 -0.471692	 -0.109287	 0.739111	 -0.635511	 0.194672	 1
1463624081.576	 10	 -0.003354	 0.012985	 0.006505	 2.235093	 -1.380694	 -0.471387	 -0.109272	 0.739126	 -0.635518	 0.194599	 1
1463624081.586	 10	 -0.001235	 0.009787	 0.006456	 2.235453	 -1.380751	 -0.471146	 -0.109260	 0.739134	 -0.635532	 0.194530	 1
1463624081.596	 10	 -0.003423	 -0.000851	 0.005309	 2.235656	 -1.380829	 -0.470972	 -0.109278	 0.739125	 -0.635550	 0.194494	 1
1463624081.606	 10	 -0.004536	 -0.010420	 0.005229	 2.235758	 -1.380878	 -0.470792	 -0.109324	 0.739114	 -0.635553	 0.194503	 1
1463624081.616	 10	 -0.004448	 -0.013633	 0.000929	 2.236308	 -1.380923	 -0.470114	 -0.109410	 0.739120	 -0.635531	 0.194506	 1
1463624081.626	 10	 -0.004457	 -0.013649	 -0.001203	 2.236704	 -1.380996	 -0.469584	 -0.109497	 0.739111	 -0.635523	 0.194512	 1
1463624081.636	 10	 -0.004441	 -0.009402	 -0.002230	 2.237046	 -1.381071	 -0.469136	 -0.109571	 0.739102	 -0.635521	 0.194511	 1
1463624081.646	 10	 -0.007652	 -0.011520	 -0.002222	 2.237269	 -1.381064	 -0.468797	 -0.109624	 0.739107	 -0.635499	 0.194538	 1
1463624081.656	 10	 -0.008709	 -0.010445	 -0.001137	 2.237246	 -1.381084	 -0.468703	 -0.109670	 0.739095	 -0.635494	 0.194572	 1
1463624081.666	 10	 -0.005493	 -0.008320	 -0.000080	 2.237063	 -1.381110	 -0.468780	 -0.109706	 0.739075	 -0.635499	 0.194610	 1
1463624081.676	 10	 -0.004397	 -0.004053	 0.002082	 2.236786	 -1.381128	 -0.468990	 -0.109720	 0.739055	 -0.635510	 0.194642	 1
1463624081.686	 10	 -0.003322	 -0.000881	 -0.000030	 2.236280	 -1.381188	 -0.469469	 -0.109718	 0.739018	 -0.635547	 0.194663	 1
1463624081.696	 10	 -0.001177	 0.001240	 -0.000029	 2.236081	 -1.381264	 -0.469680	 -0.109721	 0.738992	 -0.635580	 0.194654	 1
1463624081.706	 10	 -0.002258	 -0.000892	 -0.001105	 2.235896	 -1.381339	 -0.469854	 -0.109733	 0.738966	 -0.635610	 0.194651	 1
1463624081.716	 10	 -0.001200	 -0.003023	 -0.001135	 2.235970	 -1.381449	 -0.469758	 -0.109770	 0.738941	 -0.635638	 0.194629	 1
1463624081.726	 10	 -0.001210	 -0.005150	 -0.001155	 2.236023	 -1.381535	 -0.469657	 -0.109810	 0.738920	 -0.635657	 0.194623	 1
1463624081.736	 10	 -0.001220	 -0.006222	 -0.002231	 2.236295	 -1.381616	 -0.469324	 -0.109866	 0.738909	 -0.635664	 0.194611	 1
1463624081.746	 10	 -0.002301	 -0.007297	 -0.004364	 2.236833	 -1.381687	 -0.468722	 -0.109934	 0.738911	 -0.635657	 0.194589	 1
1463624081.756	 10	 -0.003369	 -0.008350	 -0.003299	 2.237417	 -1.381751	 -0.468063	 -0.110006	 0.738917	 -0.635645	 0.194569	 1
1463624081.766	 10	 -0.005521	 -0.009431	 -0.006488	 2.238074	 -1.381780	 -0.467310	 -0.110082	 0.738932	 -0.635616	 0.194559	 1
1463624081.776	 10	 -0.008713	 -0.008350	 -0.005384	 2.238457	 -1.381771	 -0.466830	 -0.110136	 0.738945	 -0.635588	 0.194572	 1
1463624081.786	 10	 -0.007529	 -0.009398	 -0.004350	 2.238999	 -1.381791	 -0.466187	 -0.110205	 0.738958	 -0.635561	 0.194571	 1
1463624081.796	 10	 -0.007539	 -0.011525	 -0.004370	 2.239326	 -1.381771	 -0.465748	 -0.110259	 0.738970	 -0.635531	 0.194594	 1
1463624081.806	 10	 -0.006468	 -0.011521	 -0.003314	 2.239653	 -1.381780	 -0.465294	 -0.110325	 0.738975	 -0.635507	 0.194616	 1
1463624081.816	 10	 -0.004330	 -0.011520	 -0.002266	 2.239612	 -1.381746	 -0.465216	 -0.110359	 0.738975	 -0.635487	 0.194663	 1
1463624081.826	 10	 -0.002181	 -0.009391	 -0.001199	 2.239663	 -1.381743	 -0.465062	 -0.110399	 0.738972	 -0.635474	 0.194694	 1
1463624081.836	 10	 -0.003233	 -0.006197	 -0.001160	 2.239727	 -1.381635	 -0.464931	 -0.110402	 0.738997	 -0.635432	 0.194735	 1
1463624081.846	 10	 -0.005355	 -0.006168	 0.002056	 2.239576	 -1.381536	 -0.465017	 -0.110396	 0.739011	 -0.635401	 0.194785	 1
1463624081.856	 10	 -0.008552	 -0.006150	 0.003151	 2.239503	 -1.381396	 -0.465021	 -0.110386	 0.739037	 -0.635355	 0.194841	 1
1463624081.866	 10	 -0.005337	 -0.005081	 0.005264	 2.239328	 -1.381311	 -0.465135	 -0.110379	 0.739047	 -0.635330	 0.194887	 1
1463624081.876	 10	 -0.006394	 -0.002950	 0.005293	 2.239279	 -1.381241	 -0.465147	 -0.110375	 0.739060	 -0.635308	 0.194917	 1
1463624081.886	 10	 -0.005321	 -0.000834	 0.004238	 2.239222	 -1.381202	 -0.465193	 -0.110367	 0.739066	 -0.635297	 0.194932	 1
1463624081.896	 10	 -0.004228	 0.004481	 0.004278	 2.239265	 -1.381189	 -0.465181	 -0.110355	 0.739073	 -0.635294	 0.194923	 1
1463624081.906	 10	 -0.004198	 0.010863	 0.004336	 2.239393	 -1.381193	 -0.465146	 -0.110328	 0.739082	 -0.635299	 0.194885	 1
1463624081.916	 10	 -0.005270	 0.009802	 0.004336	 2.239495	 -1.381176	 -0.465146	 -0.110292	 0.739096	 -0.635300	 0.194851	 1
1463624081.926	 10	 -0.007419	 0.006618	 0.004324	 2.239717	 -1.381221	 -0.464987	 -0.110290	 0.739098	 -0.635310	 0.194810	 1
1463624081.936	 10	 -0.007435	 0.006587	 0.000060	 2.240059	 -1.381335	 -0.464699	 -0.110314	 0.739088	 -0.635336	 0.194751	 1
1463624081.946	 10	 -0.006234	 0.010885	 0.001137	 2.240387	 -1.381457	 -0.464465	 -0.110324	 0.739078	 -0.635368	 0.194678	 1
1463624081.956	 10	 -0.000886	 0.015108	 -0.001002	 2.240612	 -1.381582	 -0.464384	 -0.110311	 0.739065	 -0.635411	 0.194594	 1
1463624081.966	 10	 -0.000890	 0.014044	 -0.001013	 2.240755	 -1.381677	 -0.464386	 -0.110287	 0.739056	 -0.635448	 0.194520	 1
1463624081.976	 10	 0.001214	 0.008712	 -0.002147	 2.241029	 -1.381770	 -0.464216	 -0.110284	 0.739051	 -0.635475	 0.194453	 1
1463624081.986	 10	 -0.000937	 0.003415	 -0.000046	 2.241056	 -1.381767	 -0.464237	 -0.110267	 0.739056	 -0.635478	 0.194436	 1
1463624081.996	 10	 -0.002017	 -0.001877	 0.003111	 2.241370	 -1.381736	 -0.463927	 -0.110275	 0.739077	 -0.635455	 0.194426	 1
1463624082.006	 10	 -0.004157	 -0.002934	 0.003120	 2.241811	 -1.381698	 -0.463457	 -0.110300	 0.739103	 -0.635423	 0.194420	 1
1463624082.016	 10	 -0.006307	 -0.006119	 0.003108	 2.242418	 -1.381635	 -0.462801	 -0.110334	 0.739141	 -0.635373	 0.194417	 1
1463624082.026	 10	 -0.004173	 -0.006125	 0.003090	 2.242768	 -1.381591	 -0.462389	 -0.110366	 0.739163	 -0.635339	 0.194429	 1
1463624082.036	 10	 -0.003086	 -0.002929	 0.004176	 2.242577	 -1.381534	 -0.462536	 -0.110359	 0.739166	 -0.635325	 0.194465	 1
1463624082.046	 10	 0.000146	 0.003443	 0.004207	 2.242165	 -1.381483	 -0.462956	 -0.110323	 0.739161	 -0.635328	 0.194494	 1
1463624082.056	 10	 -0.000887	 0.009836	 0.005342	 2.241752	 -1.381365	 -0.463453	 -0.110243	 0.739177	 -0.635317	 0.194514	 1
1463624082.066	 10	 -0.001919	 0.016228	 0.006477	 2.241549	 -1.381269	 -0.463805	 -0.110156	 0.739200	 -0.635311	 0.194498	 1
1463624082.076	 10	 -0.001885	 0.021562	 0.008658	 2.241484	 -1.381187	 -0.464084	 -0.110055	 0.739229	 -0.635309	 0.194451	 1
1463624082.086	 10	 -0.002957	 0.021558	 0.007601	 2.241584	 -1.381108	 -0.464192	 -0.109965	 0.739263	 -0.635301	 0.194397	 1
1463624082.096	 10	 -0.002875	 0.019443	 0.007558	 2.241939	 -1.381112	 -0.464039	 -0.109910	 0.739288	 -0.635307	 0.194314	 1
1463624082.106	 10	 -0.006084	 0.019437	 0.005454	 2.242306	 -1.381149	 -0.463870	 -0.109864	 0.739306	 -0.635322	 0.194224	 1
1463624082.116	 10	 -0.006084	 0.020493	 0.004397	 2.242990	 -1.381189	 -0.463391	 -0.109833	 0.739336	 -0.635325	 0.194114	 1
1463624082.126	 10	 -0.006078	 0.021557	 0.004406	 2.243601	 -1.381280	 -0.462994	 -0.109806	 0.739352	 -0.635348	 0.193995	 1
1463624082.136	 10	 -0.002881	 0.020484	 0.004367	 2.243936	 -1.381389	 -0.462872	 -0.109770	 0.739352	 -0.635388	 0.193887	 1
1463624082.146	 10	 -0.002926	 0.011967	 0.003222	 2.244175	 -1.381527	 -0.462776	 -0.109761	 0.739336	 -0.635434	 0.193799	 1
1463624082.156	 10	 -0.006172	 0.002403	 0.003160	 2.244470	 -1.381610	 -0.462527	 -0.109778	 0.739331	 -0.635452	 0.193751	 1
1463624082.166	 10	 -0.006202	 -0.003979	 0.003100	 2.244755	 -1.381676	 -0.462214	 -0.109819	 0.739326	 -0.635457	 0.193732	 1
1463624082.176	 10	 -0.005153	 -0.005069	 -0.000117	 2.244921	 -1.381753	 -0.461989	 -0.109867	 0.739311	 -0.635468	 0.193725	 1
1463624082.186	 10	 -0.004076	 -0.004001	 0.000949	 2.245120	 -1.381773	 -0.461748	 -0.109897	 0.739312	 -0.635462	 0.193724	 1
1463624082.196	 10	 -0.005143	 -0.003998	 0.000958	 2.245467	 -1.381770	 -0.461362	 -0.109929	 0.739325	 -0.635442	 0.193719	 1
1463624082.206	 10	 -0.005139	 -0.003990	 0.002024	 2.245645	 -1.381706	 -0.461146	 -0.109938	 0.739346	 -0.635412	 0.193735	 1
1463624082.216	 10	 -0.009394	 -0.002898	 0.004203	 2.245713	 -1.381595	 -0.461039	 -0.109930	 0.739373	 -0.635371	 0.193768	 1
1463624082.226	 10	 -0.009388	 -0.000779	 0.003157	 2.245777	 -1.381524	 -0.460942	 -0.109929	 0.739391	 -0.635344	 0.193790	 1
1463624082.236	 10	 -0.008286	 0.005608	 0.004272	 2.245941	 -1.381483	 -0.460802	 -0.109920	 0.739409	 -0.635326	 0.193783	 1
1463624082.246	 10	 -0.008260	 0.011982	 0.003265	 2.246216	 -1.381445	 -0.460630	 -0.109887	 0.739436	 -0.635313	 0.193744	 1
1463624082.256	 10	 -0.007187	 0.014098	 0.002210	 2.246461	 -1.381429	 -0.460514	 -0.109849	 0.739457	 -0.635310	 0.193694	 1
1463624082.266	 10	 -0.006031	 0.012005	 0.003216	 2.246754	 -1.381431	 -0.460338	 -0.109821	 0.739475	 -0.635310	 0.193641	 1
1463624082.276	 10	 -0.008186	 0.007757	 0.003194	 2.247217	 -1.381430	 -0.459963	 -0.109812	 0.739500	 -0.635299	 0.193589	 1
1463624082.286	 10	 -0.009279	 0.001386	 0.004210	 2.247626	 -1.381400	 -0.459582	 -0.109817	 0.739526	 -0.635275	 0.193565	 1
1463624082.296	 10	 -0.010346	 0.001389	 0.004219	 2.248119	 -1.381361	 -0.459097	 -0.109831	 0.739556	 -0.635243	 0.193545	 1
1463624082.306	 10	 -0.013557	 0.000327	 0.003171	 2.248720	 -1.381351	 -0.458500	 -0.109858	 0.739584	 -0.635216	 0.193515	 1
1463624082.316	 10	 -0.012508	 -0.000763	 -0.000047	 2.249659	 -1.381394	 -0.457553	 -0.109920	 0.739612	 -0.635189	 0.193459	 1
1463624082.326	 10	 -0.014657	 -0.003948	 -0.000059	 2.250451	 -1.381424	 -0.456727	 -0.109981	 0.739636	 -0.635162	 0.193422	 1
1463624082.336	 10	 -0.010408	 -0.008215	 -0.000136	 2.250680	 -1.381508	 -0.456413	 -0.110043	 0.739621	 -0.635170	 0.193419	 1
1463624082.346	 10	 -0.004015	 -0.005090	 -0.006558	 2.250934	 -1.381701	 -0.456089	 -0.110126	 0.739581	 -0.635212	 0.193387	 1
1463624082.356	 10	 0.004568	 0.008674	 -0.011835	 2.251289	 -1.382059	 -0.455780	 -0.110209	 0.739511	 -0.635312	 0.193278	 1
1463624082.366	 10	 0.010861	 -0.002090	 -0.026911	 2.251576	 -1.382536	 -0.455499	 -0.110329	 0.739408	 -0.635447	 0.193160	 1
1463624082.376	 10	 0.022714	 0.024443	 -0.029966	 2.252045	 -1.382988	 -0.455162	 -0.110407	 0.739325	 -0.635579	 0.192998	 1
1463624082.386	 10	 0.009096	 0.077676	 -0.028287	 2.255083	 -1.383165	 -0.452817	 -0.110349	 0.739445	 -0.635576	 0.192582	 1
1463624082.396	 10	 -0.019687	 0.079928	 -0.022687	 2.258780	 -1.383064	 -0.449944	 -0.110214	 0.739667	 -0.635472	 0.192150	 1
1463624082.406	 10	 -0.027257	 0.061845	 -0.025986	 2.262183	 -1.382980	 -0.447193	 -0.110131	 0.739862	 -0.635369	 0.191783	 1
1463624082.416	 10	 -0.022026	 0.037388	 -0.023062	 2.264454	 -1.382989	 -0.445330	 -0.110101	 0.739975	 -0.635319	 0.191533	 1
1463624082.426	 10	 -0.019895	 0.010900	 -0.014832	 2.264988	 -1.382991	 -0.444930	 -0.110080	 0.740004	 -0.635310	 0.191462	 1
1463624082.436	 10	 -0.017841	 -0.013509	 -0.006550	 2.264247	 -1.382938	 -0.445541	 -0.110077	 0.739979	 -0.635312	 0.191552	 1
1463624082.446	 10	 -0.012528	 -0.023060	 -0.001356	 2.263139	 -1.382966	 -0.446396	 -0.110119	 0.739913	 -0.635341	 0.191685	 1
1463624082.456	 10	 -0.007159	 -0.019854	 0.002891	 2.261719	 -1.382956	 -0.447560	 -0.110138	 0.739844	 -0.635372	 0.191843	 1
1463624082.466	 10	 -0.007101	 -0.004986	 -0.000168	 2.261529	 -1.382906	 -0.447646	 -0.110155	 0.739843	 -0.635354	 0.191896	 1
1463624082.476	 10	 -0.013458	 0.010934	 -0.007425	 2.262860	 -1.382856	 -0.446381	 -0.110189	 0.739913	 -0.635291	 0.191816	 1
1463624082.486	 10	 -0.017677	 0.033183	 -0.021037	 2.265668	 -1.382898	 -0.443841	 -0.110246	 0.740032	 -0.635215	 0.191575	 1
1463624082.496	 10	 -0.020763	 0.069258	 -0.034531	 2.269729	 -1.383029	 -0.440364	 -0.110272	 0.740196	 -0.635147	 0.191149	 1
1463624082.506	 10	 -0.017317	 0.125584	 -0.039367	 2.274929	 -1.383150	 -0.436281	 -0.110159	 0.740437	 -0.635082	 0.190496	 1
1463624082.516	 10	 -0.015044	 0.159577	 -0.044400	 2.280376	 -1.383284	 -0.432345	 -0.109916	 0.740705	 -0.635049	 0.189701	 1
1463624082.526	 10	 -0.022497	 0.167014	 -0.048529	 2.285582	 -1.383399	 -0.428778	 -0.109609	 0.740974	 -0.635033	 0.188882	 1
1463624082.536	 10	 -0.041719	 0.165993	 -0.050503	 2.290820	 -1.383483	 -0.425149	 -0.109309	 0.741248	 -0.635004	 0.188076	 1
1463624082.546	 10	 -0.046151	 0.141456	 -0.062416	 2.296129	 -1.383690	 -0.421249	 -0.109114	 0.741481	 -0.634993	 0.187305	 1
1463624082.556	 10	 -0.036604	 0.142375	 -0.078478	 2.301604	 -1.384236	 -0.417104	 -0.109030	 0.741629	 -0.635077	 0.186481	 1
1463624082.566	 10	 -0.015104	 0.162629	 -0.063558	 2.306285	 -1.385007	 -0.413908	 -0.108893	 0.741695	 -0.635280	 0.185607	 1
1463624082.576	 10	 0.034713	 0.136461	 -0.137806	 2.311689	 -1.386679	 -0.409924	 -0.109007	 0.741554	 -0.635737	 0.184537	 1
1463624082.586	 10	 0.044144	 0.180404	 -0.234467	 2.320311	 -1.389238	 -0.402850	 -0.109426	 0.741305	 -0.636374	 0.183087	 1
1463624082.596	 10	 0.051462	 0.215959	 -0.315198	 2.331555	 -1.391716	 -0.393628	 -0.109778	 0.741185	 -0.636944	 0.181374	 1
1463624082.606	 10	 0.058393	 0.162236	 -0.387164	 2.345367	 -1.394769	 -0.381380	 -0.110539	 0.740960	 -0.637583	 0.179576	 1
1463624082.616	 10	 0.071832	 0.105519	 -0.429374	 2.360710	 -1.398248	 -0.367028	 -0.111655	 0.740614	 -0.638282	 0.177819	 1
1463624082.626	 10	 0.072603	 0.027999	 -0.411985	 2.375171	 -1.402011	 -0.352829	 -0.113028	 0.740089	 -0.639067	 0.176312	 1
1463624082.636	 10	 0.072575	 -0.026887	 -0.353879	 2.387966	 -1.405091	 -0.339688	 -0.114389	 0.739632	 -0.639652	 0.175228	 1
1463624082.646	 10	 0.071781	 -0.035877	 -0.274023	 2.397665	 -1.407627	 -0.329502	 -0.115527	 0.739201	 -0.640156	 0.174456	 1
1463624082.656	 10	 0.068935	 -0.033115	 -0.187646	 2.403931	 -1.409556	 -0.322804	 -0.116352	 0.738828	 -0.640575	 0.173951	 1
1463624082.666	 10	 0.072450	 -0.035722	 -0.105630	 2.400413	 -1.410250	 -0.325848	 -0.116483	 0.738507	 -0.640866	 0.174155	 1
1463624082.676	 10	 0.067440	 -0.004535	 -0.060535	 2.400570	 -1.411233	 -0.325567	 -0.116719	 0.738233	 -0.641176	 0.174017	 1
1463624082.686	 10	 0.061028	 -0.005588	 -0.061554	 2.400581	 -1.412097	 -0.325516	 -0.116894	 0.737993	 -0.641458	 0.173879	 1
1463624082.696	 10	 0.035156	 -0.033398	 -0.093561	 2.404357	 -1.412795	 -0.321509	 -0.117290	 0.737893	 -0.641562	 0.173651	 1
1463624082.706	 10	 0.005837	 -0.112262	 -0.127078	 2.408448	 -1.413681	 -0.316441	 -0.118009	 0.737705	 -0.641657	 0.173616	 1
1463624082.716	 10	 -0.006116	 -0.136869	 -0.151716	 2.414148	 -1.414620	 -0.309285	 -0.118990	 0.737514	 -0.641686	 0.173650	 1
1463624082.726	 10	 0.002527	 -0.092414	 -0.178022	 2.421328	 -1.415744	 -0.300959	 -0.119957	 0.737325	 -0.641767	 0.173485	 1
1463624082.736	 10	 0.033490	 -0.061899	 -0.211052	 2.432907	 -1.418174	 -0.288631	 -0.121212	 0.736899	 -0.642213	 0.172774	 1
1463624082.746	 10	 0.082761	 -0.024884	 -0.229287	 2.440899	 -1.420148	 -0.280193	 -0.122094	 0.736514	 -0.642635	 0.172222	 1
1463624082.766	 11	 0.178152	 0.047292	 -0.211328	 2.451935	 -1.425332	 -0.269582	 -0.123329	 0.735325	 -0.644152	 0.170751	 1
1463624082.776	 11	 0.185831	 0.046591	 -0.158110	 2.448820	 -1.427741	 -0.273108	 -0.123443	 0.734584	 -0.645073	 0.170378	 1
1463624082.786	 11	 0.172285	 0.061987	 -0.093903	 2.447369	 -1.429801	 -0.275156	 -0.123508	 0.733994	 -0.645852	 0.169923	 1
1463624082.796	 11	 0.153240	 0.047578	 -0.035255	 2.443446	 -1.431327	 -0.279656	 -0.123385	 0.733500	 -0.646504	 0.169664	 1
1463624082.806	 11	 0.125569	 0.022488	 0.013778	 2.437503	 -1.432326	 -0.285937	 -0.123175	 0.733096	 -0.647005	 0.169651	 1
1463624082.816	 11	 0.090370	 -0.006896	 0.054316	 2.428287	 -1.431604	 -0.295209	 -0.122632	 0.733090	 -0.646986	 0.170148	 1
1463624082.826	 11	 0.057438	 -0.006526	 0.091907	 2.420649	 -1.431549	 -0.302828	 -0.122301	 0.732921	 -0.647149	 0.170491	 1
1463624082.836	 11	 0.025684	 0.026729	 0.118072	 2.413224	 -1.431062	 -0.310487	 -0.121810	 0.732893	 -0.647188	 0.170816	 1
1463624082.846	 11	 -0.000646	 0.088601	 0.132732	 2.406853	 -1.430233	 -0.317649	 -0.121096	 0.733017	 -0.647140	 0.170975	 1
1463624082.856	 11	 -0.012142	 0.148133	 0.123793	 2.405474	 -1.429027	 -0.320467	 -0.120289	 0.733407	 -0.646900	 0.170777	 1
1463624082.866	 11	 -0.019495	 0.190547	 0.102936	 2.402490	 -1.428160	 -0.325321	 -0.119315	 0.733686	 -0.646850	 0.170452	 1
1463624082.876	 11	 -0.030297	 0.180852	 0.081625	 2.401177	 -1.427370	 -0.328522	 -0.118419	 0.733985	 -0.646785	 0.170035	 1
1463624082.886	 11	 -0.038086	 0.130735	 0.060977	 2.400980	 -1.426653	 -0.330177	 -0.117743	 0.734265	 -0.646679	 0.169698	 1
1463624082.896	 11	 -0.034108	 0.083797	 0.043452	 2.401640	 -1.426324	 -0.330479	 -0.117358	 0.734431	 -0.646635	 0.169415	 1
1463624082.906	 11	 -0.031086	 0.048664	 0.039901	 2.401698	 -1.425820	 -0.330998	 -0.117055	 0.734606	 -0.646517	 0.169314	 1
1463624082.916	 11	 -0.026987	 0.004054	 0.050108	 2.400750	 -1.425301	 -0.332116	 -0.116855	 0.734736	 -0.646386	 0.169392	 1
1463624082.926	 11	 -0.030458	 -0.053367	 0.050670	 2.399160	 -1.424749	 -0.333328	 -0.116821	 0.734825	 -0.646215	 0.169681	 1
1463624082.936	 11	 -0.049805	 -0.078868	 0.046339	 2.397221	 -1.423895	 -0.334512	 -0.116853	 0.734966	 -0.645922	 0.170161	 1
1463624082.946	 11	 -0.058430	 -0.105365	 0.055760	 2.396365	 -1.423116	 -0.334398	 -0.117026	 0.735102	 -0.645607	 0.170650	 1
1463624082.956	 11	 -0.063921	 -0.135155	 0.052333	 2.395098	 -1.422316	 -0.334366	 -0.117297	 0.735214	 -0.645267	 0.171266	 1
1463624082.966	 11	 -0.084283	 -0.154232	 0.053398	 2.394560	 -1.421374	 -0.333394	 -0.117653	 0.735371	 -0.644843	 0.171944	 1
1463624082.976	 11	 -0.093906	 -0.157403	 0.052386	 2.394415	 -1.420562	 -0.331945	 -0.118080	 0.735498	 -0.644443	 0.172607	 1
1463624082.986	 11	 -0.087463	 -0.149968	 0.053465	 2.394340	 -1.419538	 -0.330478	 -0.118453	 0.735687	 -0.643975	 0.173287	 1
1463624082.996	 11	 -0.074541	 -0.130814	 0.059925	 2.393704	 -1.418571	 -0.329760	 -0.118742	 0.735857	 -0.643558	 0.173921	 1
1463624083.006	 11	 -0.064794	 -0.112661	 0.073865	 2.390830	 -1.417757	 -0.331451	 -0.118892	 0.735932	 -0.643267	 0.174577	 1
1463624083.016	 11	 -0.061492	 -0.099837	 0.083548	 2.387297	 -1.416857	 -0.333956	 -0.118937	 0.736019	 -0.642980	 0.175231	 1
1463624083.026	 11	 -0.062503	 -0.094462	 0.091067	 2.383867	 -1.415874	 -0.336436	 -0.118942	 0.736136	 -0.642671	 0.175870	 1
1463624083.036	 11	 -0.061401	 -0.093347	 0.098528	 2.380912	 -1.414929	 -0.338471	 -0.118963	 0.736255	 -0.642365	 0.176472	 1
1463624083.046	 11	 -0.059192	 -0.085839	 0.108169	 2.378323	 -1.413884	 -0.340220	 -0.118952	 0.736416	 -0.642024	 0.177051	 1
1463624083.056	 11	 -0.051636	 -0.073051	 0.114616	 2.375291	 -1.412785	 -0.342525	 -0.118866	 0.736584	 -0.641689	 0.177624	 1
1463624083.066	 11	 -0.039833	 -0.061370	 0.116753	 2.371903	 -1.411834	 -0.345323	 -0.118739	 0.736708	 -0.641425	 0.178146	 1
1463624083.076	 11	 -0.025940	 -0.056101	 0.115613	 2.368516	 -1.411017	 -0.348208	 -0.118605	 0.736798	 -0.641215	 0.178617	 1
1463624083.086	 11	 -0.017400	 -0.052959	 0.112370	 2.364474	 -1.410276	 -0.351779	 -0.118442	 0.736849	 -0.641053	 0.179096	 1
1463624083.096	 11	 -0.007815	 -0.056186	 0.111189	 2.359894	 -1.409642	 -0.355865	 -0.118280	 0.736851	 -0.640943	 0.179590	 1
1463624083.106	 11	 0.001803	 -0.050920	 0.107956	 2.355355	 -1.409114	 -0.359944	 -0.118128	 0.736826	 -0.640870	 0.180052	 1
1463624083.116	 11	 0.013563	 -0.039316	 0.099434	 2.350823	 -1.408735	 -0.364136	 -0.117961	 0.736766	 -0.640858	 0.180449	 1
1463624083.126	 11	 0.019983	 -0.028760	 0.090949	 2.346256	 -1.408361	 -0.368468	 -0.117755	 0.736709	 -0.640859	 0.180813	 1
1463624083.136	 11	 0.023193	 -0.022427	 0.085651	 2.341823	 -1.407964	 -0.372741	 -0.117522	 0.736665	 -0.640857	 0.181152	 1
1463624083.146	 11	 0.018953	 -0.018144	 0.087859	 2.337495	 -1.407473	 -0.376944	 -0.117261	 0.736649	 -0.640826	 0.181492	 1
1463624083.156	 11	 0.014679	 -0.023411	 0.093176	 2.332938	 -1.406785	 -0.381343	 -0.116961	 0.736674	 -0.640739	 0.181893	 1
1463624083.166	 11	 0.006118	 -0.031864	 0.097436	 2.328546	 -1.405947	 -0.385501	 -0.116665	 0.736738	 -0.640593	 0.182339	 1
1463624083.176	 11	 -0.005651	 -0.037155	 0.096424	 2.324380	 -1.405019	 -0.389360	 -0.116387	 0.736825	 -0.640406	 0.182817	 1
1463624083.186	 11	 -0.014183	 -0.035009	 0.095453	 2.321166	 -1.404068	 -0.392272	 -0.116147	 0.736949	 -0.640183	 0.183254	 1
1463624083.196	 11	 -0.019494	 -0.029675	 0.095549	 2.318216	 -1.403161	 -0.394952	 -0.115915	 0.737070	 -0.639969	 0.183660	 1
1463624083.206	 11	 -0.018411	 -0.025431	 0.094512	 2.315385	 -1.402365	 -0.397562	 -0.115693	 0.737168	 -0.639792	 0.184024	 1
1463624083.216	 11	 -0.016260	 -0.020135	 0.092411	 2.312481	 -1.401635	 -0.400292	 -0.115463	 0.737247	 -0.639644	 0.184365	 1
1463624083.226	 11	 -0.011973	 -0.011677	 0.087123	 2.309709	 -1.400936	 -0.402971	 -0.115215	 0.737326	 -0.639510	 0.184668	 1
1463624083.236	 11	 -0.009827	 -0.008500	 0.086068	 2.306439	 -1.400257	 -0.406183	 -0.114933	 0.737384	 -0.639404	 0.184981	 1
1463624083.246	 11	 -0.010895	 -0.009553	 0.087134	 2.302924	 -1.399553	 -0.409647	 -0.114630	 0.737438	 -0.639301	 0.185309	 1
1463624083.256	 11	 -0.016262	 -0.018031	 0.089234	 2.299376	 -1.398831	 -0.413079	 -0.114345	 0.737490	 -0.639189	 0.185665	 1
1463624083.266	 11	 -0.019507	 -0.030755	 0.093407	 2.295964	 -1.398067	 -0.416256	 -0.114101	 0.737549	 -0.639049	 0.186061	 1
1463624083.276	 11	 -0.020596	 -0.038174	 0.096544	 2.292444	 -1.397299	 -0.419445	 -0.113885	 0.737598	 -0.638904	 0.186496	 1
1463624083.286	 11	 -0.016319	 -0.035012	 0.094404	 2.288636	 -1.396716	 -0.422921	 -0.113693	 0.737588	 -0.638829	 0.186908	 1
1463624083.296	 11	 0.000759	 -0.031895	 0.091086	 2.284471	 -1.396366	 -0.426793	 -0.113520	 0.737507	 -0.638845	 0.187278	 1
1463624083.306	 11	 0.030690	 -0.018188	 0.086688	 2.279379	 -1.396254	 -0.431716	 -0.113307	 0.737337	 -0.638983	 0.187606	 1
1463624083.316	 11	 0.068126	 -0.001273	 0.087584	 2.273251	 -1.396389	 -0.437874	 -0.113025	 0.737076	 -0.639256	 0.187869	 1
1463624083.326	 11	 0.095908	 0.011361	 0.081064	 2.266318	 -1.396644	 -0.444990	 -0.112676	 0.736763	 -0.639613	 0.188096	 1
1463624083.336	 11	 0.107644	 0.018702	 0.071437	 2.259111	 -1.396934	 -0.452479	 -0.112288	 0.736434	 -0.640001	 0.188293	 1
1463624083.346	 11	 0.102283	 0.018672	 0.065088	 2.252260	 -1.397196	 -0.459624	 -0.111910	 0.736125	 -0.640371	 0.188473	 1
1463624083.356	 11	 0.090563	 0.020850	 0.067341	 2.246334	 -1.397338	 -0.465858	 -0.111546	 0.735880	 -0.640670	 0.188626	 1
1463624083.366	 11	 0.087396	 0.027249	 0.068495	 2.240705	 -1.397236	 -0.471837	 -0.111127	 0.735706	 -0.640890	 0.188804	 1
1463624083.376	 11	 0.082158	 0.040098	 0.078253	 2.234809	 -1.396814	 -0.478196	 -0.110580	 0.735604	 -0.641037	 0.189026	 1
1463624083.386	 11	 0.063208	 0.053166	 0.100868	 2.229182	 -1.396074	 -0.484418	 -0.109923	 0.735593	 -0.641093	 0.189264	 1
1463624083.396	 11	 0.036705	 0.073603	 0.121540	 2.224298	 -1.394945	 -0.490081	 -0.109142	 0.735710	 -0.641023	 0.189494	 1
1463624083.406	 11	 0.020983	 0.116352	 0.143392	 2.220608	 -1.393429	 -0.494941	 -0.108180	 0.735985	 -0.640831	 0.189630	 1
1463624083.416	 11	 0.016810	 0.116542	 0.167944	 2.216609	 -1.391832	 -0.500247	 -0.107131	 0.736268	 -0.640644	 0.189759	 1
1463624083.426	 11	 -0.006537	 0.116852	 0.201189	 2.212749	 -1.389997	 -0.505425	 -0.106024	 0.736609	 -0.640385	 0.189932	 1
1463624083.436	 11	 -0.022548	 0.089476	 0.233046	 2.207761	 -1.388102	 -0.511491	 -0.104934	 0.736897	 -0.640137	 0.190256	 1
1463624083.446	 11	 -0.024652	 0.082130	 0.243646	 2.201994	 -1.386109	 -0.518204	 -0.103826	 0.737159	 -0.639887	 0.190685	 1
1463624083.456	 11	 -0.028889	 0.073765	 0.261722	 2.195979	 -1.383880	 -0.525107	 -0.102666	 0.737454	 -0.639581	 0.191203	 1
1463624083.466	 11	 -0.027755	 0.061229	 0.293569	 2.189037	 -1.381381	 -0.532818	 -0.101432	 0.737751	 -0.639233	 0.191874	 1
1463624083.476	 11	 -0.017109	 0.055879	 0.293426	 2.181623	 -1.378850	 -0.540933	 -0.100184	 0.738018	 -0.638902	 0.192603	 1
1463624083.486	 11	 -0.012837	 0.047434	 0.303965	 2.174849	 -1.376879	 -0.548392	 -0.099106	 0.738176	 -0.638713	 0.193181	 1
1463624083.496	 11	 -0.041403	 0.064840	 0.345940	 2.167249	 -1.373925	 -0.556718	 -0.097720	 0.738503	 -0.638293	 0.194025	 1
1463624083.506	 11	 -0.061296	 0.114100	 0.383874	 2.160222	 -1.370511	 -0.564919	 -0.096073	 0.738963	 -0.637770	 0.194815	 1
1463624083.516	 11	 -0.067463	 0.138799	 0.413999	 2.153281	 -1.366756	 -0.573393	 -0.094199	 0.739499	 -0.637194	 0.195578	 1
1463624083.526	 11	 -0.078990	 0.144493	 0.461045	 2.147071	 -1.362552	 -0.581243	 -0.092197	 0.740153	 -0.636478	 0.196389	 1
1463624083.536	 11	 -0.107563	 0.152396	 0.512524	 2.139792	 -1.357812	 -0.590222	 -0.089965	 0.740844	 -0.635687	 0.197378	 1
1463624083.546	 11	 -0.136166	 0.153916	 0.563944	 2.132844	 -1.352465	 -0.598898	 -0.087567	 0.741652	 -0.634729	 0.198504	 1
1463624083.556	 11	 -0.156288	 0.142655	 0.616236	 2.125867	 -1.346545	 -0.607559	 -0.085015	 0.742542	 -0.633626	 0.199803	 1
1463624083.566	 11	 -0.161592	 0.122693	 0.648069	 2.118621	 -1.340341	 -0.616326	 -0.082414	 0.743433	 -0.632464	 0.201257	 1
1463624083.576	 11	 -0.155252	 0.079326	 0.683846	 2.110497	 -1.333736	 -0.625601	 -0.079774	 0.744297	 -0.631230	 0.202995	 1
1463624083.586	 11	 -0.138706	 -0.039786	 0.692186	 2.101096	 -1.327065	 -0.635238	 -0.077361	 0.745014	 -0.629992	 0.205133	 1
1463624083.596	 11	 -0.124190	 -0.154543	 0.713407	 2.090145	 -1.320310	 -0.645191	 -0.075269	 0.745551	 -0.628737	 0.207792	 1
1463624083.606	 11	 -0.114880	 -0.222593	 0.720152	 2.078265	 -1.313564	 -0.655308	 -0.073383	 0.745943	 -0.627504	 0.210767	 1
1463624083.616	 11	 -0.121320	 -0.226859	 0.715906	 2.066967	 -1.306702	 -0.664643	 -0.071547	 0.746335	 -0.626216	 0.213822	 1
1463624083.626	 11	 -0.127672	 -0.216204	 0.716060	 2.056557	 -1.299802	 -0.673168	 -0.069700	 0.746747	 -0.624896	 0.216830	 1
1463624083.636	 11	 -0.123271	 -0.192777	 0.721569	 2.046659	 -1.292845	 -0.681382	 -0.067769	 0.747166	 -0.623578	 0.219777	 1
1463624083.646	 11	 -0.112506	 -0.186311	 0.737521	 2.036866	 -1.285791	 -0.689637	 -0.065740	 0.747564	 -0.622273	 0.222717	 1
1463624083.656	 11	 -0.107216	 -0.213828	 0.758534	 2.026864	 -1.278608	 -0.697960	 -0.063690	 0.747914	 -0.620966	 0.225765	 1
1463624083.666	 11	 -0.107477	 -0.282843	 0.774947	 2.016346	 -1.271184	 -0.706194	 -0.061741	 0.748188	 -0.619603	 0.229117	 1
1463624083.676	 11	 -0.132482	 -0.380619	 0.775320	 2.005868	 -1.263643	 -0.713469	 -0.060080	 0.748402	 -0.618133	 0.232799	 1
1463624083.686	 11	 -0.187312	 -0.472933	 0.783465	 1.996089	 -1.255819	 -0.719008	 -0.058747	 0.748637	 -0.616437	 0.236847	 1
1463624083.696	 11	 -0.261157	 -0.535315	 0.804842	 1.987740	 -1.247577	 -0.722298	 -0.057670	 0.748991	 -0.614427	 0.241177	 1
1463624083.706	 11	 -0.321850	 -0.554925	 0.862739	 1.980470	 -1.238561	 -0.724154	 -0.056552	 0.749505	 -0.612084	 0.245760	 1
1463624083.716	 11	 -0.363340	 -0.549297	 0.888731	 1.974220	 -1.229047	 -0.724895	 -0.055373	 0.750144	 -0.609506	 0.250440	 1
1463624083.726	 11	 -0.380231	 -0.520442	 0.900870	 1.968897	 -1.219309	 -0.724953	 -0.054085	 0.750873	 -0.606809	 0.255042	 1
1463624083.736	 11	 -0.359728	 -0.495838	 0.928631	 1.963458	 -1.209402	 -0.725416	 -0.052615	 0.751585	 -0.604114	 0.259611	 1
1463624083.746	 11	 -0.333815	 -0.473222	 0.977640	 1.957300	 -1.199192	 -0.726898	 -0.050870	 0.752230	 -0.601454	 0.264226	 1
1463624083.756	 11	 -0.312329	 -0.480408	 1.022148	 1.950463	 -1.188618	 -0.729125	 -0.048921	 0.752805	 -0.598786	 0.268975	 1
1463624083.766	 11	 -0.275083	 -0.516561	 1.038540	 1.942591	 -1.177926	 -0.732176	 -0.046911	 0.753220	 -0.596184	 0.273904	 1
1463624083.776	 11	 -0.230409	 -0.579173	 1.075936	 1.933226	 -1.167140	 -0.736198	 -0.044926	 0.753400	 -0.593675	 0.279141	 1
1463624083.786	 11	 -0.220378	 -0.577374	 1.181376	 1.922849	 -1.155611	 -0.741151	 -0.042632	 0.753476	 -0.591105	 0.284694	 1
1463624083.796	 11	 -0.279204	 -0.530160	 1.361375	 1.913035	 -1.142355	 -0.745994	 -0.039652	 0.753751	 -0.588107	 0.290546	 1
1463624083.806	 11	 -0.303343	 -0.590512	 1.535809	 1.902849	 -1.127257	 -0.750956	 -0.036131	 0.754083	 -0.584668	 0.297014	 1
1463624083.816	 11	 -0.329380	 -0.793671	 1.670563	 1.890954	 -1.110708	 -0.756040	 -0.032566	 0.754195	 -0.580871	 0.304495	 1
1463624083.826	 11	 -0.386095	 -1.196432	 1.842094	 1.876244	 -1.092513	 -0.760421	 -0.029509	 0.753879	 -0.576534	 0.313696	 1
1463624083.836	 11	 -0.397521	 -1.850330	 2.161166	 1.855389	 -1.071533	 -0.765116	 -0.027140	 0.752646	 -0.571482	 0.325877	 1
1463624083.846	 11	 -0.350851	 -2.762779	 2.637191	 1.824513	 -1.046368	 -0.771559	 -0.025502	 0.749794	 -0.565585	 0.342451	 1
1463624083.856	 11	 -0.317878	 -3.443051	 3.150666	 1.784993	 -1.016213	 -0.779128	 -0.024048	 0.745244	 -0.558642	 0.363253	 1
1463624083.866	 11	 -0.403873	 -3.551830	 3.661968	 1.744343	 -0.980885	 -0.785024	 -0.021530	 0.739977	 -0.550260	 0.386245	 1
1463624083.876	 11	 -0.553395	 -3.199032	 4.290022	 1.710359	 -0.939307	 -0.786398	 -0.016422	 0.735386	 -0.539648	 0.409534	 1
1463624083.886	 11	 -0.450944	 -2.505273	 4.810349	 1.682317	 -0.892120	 -0.788021	 -0.007384	 0.731353	 -0.527807	 0.431842	 1
1463624083.896	 11	 -0.191444	 -2.203412	 5.033643	 1.657129	 -0.842151	 -0.791602	 0.004391	 0.727109	 -0.515780	 0.453061	 1
1463624083.906	 11	 0.130904	 -2.379115	 4.988702	 1.629727	 -0.792191	 -0.797571	 0.016771	 0.721388	 -0.504444	 0.474189	 1
1463624083.916	 11	 0.458506	 -2.807719	 4.685580	 1.597033	 -0.744634	 -0.805791	 0.028109	 0.713341	 -0.494555	 0.495752	 1
1463624083.926	 11	 0.631596	 -3.243721	 4.180173	 1.560062	 -0.701491	 -0.814269	 0.037242	 0.703216	 -0.486260	 0.517350	 1
1463624083.936	 11	 0.653018	 -3.566684	 3.507683	 1.520786	 -0.664472	 -0.821254	 0.043399	 0.691693	 -0.479522	 0.538271	 1
1463624083.946	 11	 0.662736	 -3.922068	 2.613314	 1.479053	 -0.635570	 -0.826995	 0.045850	 0.678996	 -0.474825	 0.558035	 1
1463624083.956	 11	 0.683449	 -4.052290	 1.532304	 1.435139	 -0.616862	 -0.832807	 0.044250	 0.665495	 -0.472907	 0.575775	 1
1463624083.966	 11	 0.578061	 -3.864345	 0.567259	 1.392485	 -0.607985	 -0.838830	 0.039436	 0.652421	 -0.473456	 0.590450	 1
1463624083.976	 11	 0.221208	 -3.147175	 -0.122101	 1.356580	 -0.607134	 -0.842645	 0.032476	 0.641600	 -0.475043	 0.601356	 1
1463624083.986	 11	 -0.112095	 -2.292149	 -0.419248	 1.331395	 -0.610807	 -0.843147	 0.025254	 0.634223	 -0.476378	 0.608430	 1
1463624083.996	 11	 -0.130808	 -1.907527	 -0.482649	 1.311874	 -0.615778	 -0.842840	 0.018606	 0.628608	 -0.477582	 0.613531	 1
1463624084.006	 11	 0.100433	 -1.716011	 -0.526576	 1.293010	 -0.620621	 -0.844909	 0.012884	 0.623129	 -0.479404	 0.617832	 1
1463624084.016	 11	 0.380181	 -1.606891	 -0.619652	 1.273441	 -0.625431	 -0.850681	 0.008116	 0.617388	 -0.482301	 0.621412	 1
1463624084.026	 11	 0.472068	 -1.518382	 -0.697429	 1.253124	 -0.630519	 -0.858756	 0.003709	 0.611423	 -0.485913	 0.624529	 1
1463624084.036	 11	 0.359158	 -1.252108	 -0.691837	 1.235604	 -0.635873	 -0.866137	 -0.000396	 0.606358	 -0.489301	 0.626829	 1
1463624084.046	 11	 0.256888	 -1.235668	 -0.666281	 1.219752	 -0.641273	 -0.872253	 -0.004545	 0.601829	 -0.492249	 0.628866	 1
1463624084.056	 11	 0.111978	 -1.277016	 -0.559894	 1.204405	 -0.646279	 -0.876669	 -0.008966	 0.597427	 -0.494538	 0.631215	 1
1463624084.066	 11	 -0.081593	 -1.333260	 -0.327461	 1.190394	 -0.650086	 -0.878061	 -0.013515	 0.593327	 -0.495607	 0.634156	 1
1463624084.076	 11	 -0.156726	 -1.446826	 -0.031582	 1.176978	 -0.651590	 -0.876829	 -0.017795	 0.589180	 -0.495386	 0.638078	 1
1463624084.086	 11	 -0.205499	 -1.597955	 0.228548	 1.163216	 -0.650856	 -0.873869	 -0.021778	 0.584679	 -0.494169	 0.643019	 1
1463624084.096	 11	 -0.444243	 -1.772809	 0.513558	 1.149894	 -0.648339	 -0.867377	 -0.025953	 0.580076	 -0.491464	 0.649078	 1
1463624084.106	 11	 -0.756460	 -1.984061	 0.883065	 1.137750	 -0.644001	 -0.855497	 -0.030628	 0.575560	 -0.486645	 0.656482	 1
1463624084.116	 11	 -0.907000	 -2.228389	 1.157069	 1.125569	 -0.637785	 -0.839738	 -0.035603	 0.570729	 -0.480134	 0.665186	 1
1463624084.126	 11	 -0.975586	 -2.621866	 1.284027	 1.110798	 -0.630676	 -0.822173	 -0.041251	 0.564824	 -0.472705	 0.675146	 1
1463624084.136	 11	 -1.004942	 -2.984284	 1.309686	 1.092543	 -0.623525	 -0.803847	 -0.047782	 0.557588	 -0.464798	 0.686131	 1
1463624084.146	 11	 -1.033901	 -3.250025	 1.320255	 1.071545	 -0.616756	 -0.785163	 -0.055036	 0.549264	 -0.456606	 0.697704	 1
1463624084.156	 11	 -1.041132	 -3.596327	 1.523853	 1.047925	 -0.609105	 -0.765321	 -0.062643	 0.539717	 -0.447596	 0.710239	 1
1463624084.166	 11	 -1.043110	 -3.833297	 1.845657	 1.022518	 -0.599276	 -0.743489	 -0.070040	 0.529054	 -0.437235	 0.723894	 1
1463624084.176	 11	 -1.035562	 -4.078876	 2.157706	 0.995802	 -0.587186	 -0.719541	 -0.077036	 0.517393	 -0.425440	 0.738492	 1
1463624084.186	 11	 -1.054007	 -4.390448	 2.452315	 0.967021	 -0.573208	 -0.693307	 -0.083897	 0.504438	 -0.412141	 0.754085	 1
1463624084.196	 11	 -1.138558	 -4.690122	 2.747610	 0.936523	 -0.557890	 -0.664159	 -0.090826	 0.490286	 -0.397153	 0.770480	 1
1463624084.206	 11	 -1.185564	 -4.910466	 2.997489	 0.904493	 -0.541633	 -0.632352	 -0.097775	 0.475007	 -0.380590	 0.787375	 1
1463624084.216	 11	 -1.249057	 -5.002100	 3.242314	 0.872139	 -0.524724	 -0.597954	 -0.104510	 0.459074	 -0.362533	 0.804300	 1
1463624084.226	 11	 -1.309254	 -5.047175	 3.455571	 0.840025	 -0.507506	 -0.561062	 -0.110976	 0.442747	 -0.343071	 0.820952	 1
1463624084.236	 11	 -1.359358	 -5.204051	 3.655977	 0.807195	 -0.490205	 -0.521915	 -0.117306	 0.425669	 -0.322256	 0.837375	 1
1463624084.246	 11	 -1.416679	 -5.246562	 3.783972	 0.773620	 -0.473362	 -0.480822	 -0.123592	 0.407877	 -0.300272	 0.853345	 1
1463624084.256	 11	 -1.431999	 -4.571790	 3.692334	 0.744184	 -0.458096	 -0.439466	 -0.129251	 0.391660	 -0.278313	 0.867432	 1
1463624084.266	 11	 -1.229686	 -3.249610	 3.350109	 0.724871	 -0.444659	 -0.401335	 -0.133109	 0.379982	 -0.258398	 0.878138	 1
1463624084.276	 11	 -0.756622	 -1.891877	 2.886491	 0.715930	 -0.431516	 -0.369946	 -0.134151	 0.373286	 -0.241998	 0.885493	 1
1463624084.286	 11	 -0.209301	 -0.730251	 2.544031	 0.715892	 -0.417015	 -0.345821	 -0.132016	 0.371009	 -0.229096	 0.890190	 1
1463624084.296	 11	 0.380797	 -0.092498	 2.578932	 0.721375	 -0.398553	 -0.326569	 -0.126523	 0.371442	 -0.218024	 0.893582	 1
1463624084.306	 11	 1.072283	 0.127563	 2.843531	 0.728278	 -0.373470	 -0.310567	 -0.117267	 0.372573	 -0.207330	 0.896912	 1
1463624084.316	 11	 1.770959	 0.331275	 3.056759	 0.735361	 -0.341443	 -0.298066	 -0.104185	 0.373840	 -0.196935	 0.900337	 1
1463624084.326	 11	 2.319766	 0.744255	 3.173057	 0.744488	 -0.304012	 -0.289164	 -0.087781	 0.376084	 -0.187162	 0.903231	 1
1463624084.336	 11	 2.579691	 1.253568	 3.256531	 0.757616	 -0.263384	 -0.282459	 -0.069183	 0.380134	 -0.177726	 0.905055	 1
1463624084.346	 11	 2.559836	 1.605366	 3.213084	 0.774346	 -0.222386	 -0.276904	 -0.049980	 0.385830	 -0.168502	 0.905673	 1
1463624084.356	 11	 2.363751	 1.532795	 3.100080	 0.791176	 -0.183173	 -0.271698	 -0.031648	 0.391630	 -0.159367	 0.905663	 1
1463624084.366	 11	 2.080748	 1.078054	 3.052484	 0.804263	 -0.146237	 -0.265696	 -0.014931	 0.395800	 -0.149905	 0.905896	 1
1463624084.376	 11	 1.800297	 0.458682	 3.037439	 0.811358	 -0.111346	 -0.258117	 0.000010	 0.397335	 -0.139848	 0.906955	 1
1463624084.386	 11	 1.599096	 -0.081413	 2.985194	 0.812630	 -0.078268	 -0.249364	 0.013453	 0.396328	 -0.129490	 0.908832	 1
1463624084.396	 11	 1.527605	 -0.485769	 2.930897	 0.809279	 -0.046361	 -0.240218	 0.026006	 0.393299	 -0.119174	 0.911283	 1
1463624084.406	 11	 1.593397	 -0.781724	 2.920110	 0.802395	 -0.014427	 -0.231321	 0.038470	 0.388668	 -0.109034	 0.914094	 1
1463624084.416	 11	 1.728137	 -0.949110	 2.919511	 0.793281	 0.018252	 -0.223073	 0.051363	 0.382968	 -0.099156	 0.916987	 1
1463624084.426	 11	 1.931874	 -1.061651	 3.029660	 0.782634	 0.052702	 -0.215259	 0.065173	 0.376451	 -0.089276	 0.919819	 1
1463624084.436	 11	 2.193915	 -1.130952	 3.259070	 0.770898	 0.090286	 -0.207346	 0.080461	 0.369248	 -0.078921	 0.922471	 1
1463624084.446	 11	 2.439303	 -1.093990	 3.468298	 0.758861	 0.131156	 -0.199093	 0.097300	 0.361716	 -0.067963	 0.924703	 1
1463624084.456	 11	 2.607865	 -0.934463	 3.534392	 0.747841	 0.174040	 -0.190848	 0.115208	 0.354522	 -0.056759	 0.926186	 1
1463624084.466	 11	 2.699915	 -0.817188	 3.463276	 0.737946	 0.217375	 -0.183161	 0.133538	 0.347775	 -0.045836	 0.926887	 1
1463624084.476	 11	 2.703817	 -0.789393	 3.337741	 0.728352	 0.260037	 -0.176042	 0.151727	 0.341156	 -0.035448	 0.927003	 1
1463624084.486	 11	 2.657122	 -0.874027	 3.235047	 0.717946	 0.301613	 -0.169011	 0.169473	 0.334214	 -0.025537	 0.926784	 1
1463624084.496	 11	 2.604789	 -1.042497	 3.156134	 0.705645	 0.342171	 -0.161697	 0.186742	 0.326488	 -0.016041	 0.926432	 1
1463624084.516	 11	 2.509505	 -1.380923	 2.943859	 0.674684	 0.419963	 -0.146196	 0.219810	 0.308480	 0.001403	 0.925484	 1
1463624084.506	 11	 2.549171	 -1.219544	 3.066512	 0.691163	 0.381654	 -0.154018	 0.203516	 0.317880	 -0.007011	 0.926004	 1
1463624084.526	 11	 2.500870	 -1.491624	 2.781974	 0.656846	 0.457061	 -0.138737	 0.235698	 0.298546	 0.008995	 0.924790	 1
1463624084.536	 11	 2.521259	 -1.549306	 2.609672	 0.638387	 0.493110	 -0.132003	 0.251303	 0.288365	 0.015693	 0.923822	 1
1463624084.546	 11	 2.550216	 -1.610119	 2.448990	 0.619558	 0.528306	 -0.126093	 0.266711	 0.278023	 0.021511	 0.922554	 1
1463624084.566	 12	 2.605628	 -1.599711	 2.146993	 0.582225	 0.596452	 -0.116764	 0.296991	 0.257459	 0.030763	 0.919002	 1
1463624084.576	 12	 2.618209	 -1.547431	 2.028005	 0.564447	 0.629578	 -0.112981	 0.311844	 0.247595	 0.034526	 0.916656	 1
1463624084.586	 12	 2.625448	 -1.504648	 1.917491	 0.547842	 0.659649	 -0.109977	 0.325397	 0.238404	 0.037420	 0.914265	 1
1463624084.596	 12	 2.628446	 -1.475501	 1.831408	 0.531236	 0.691208	 -0.106993	 0.339623	 0.229152	 0.040256	 0.911331	 1
