% Gyrometer data recorded with 'snsrlog'
% 
% 
% Label description:
% 	 0: Default Label
% 	 1: still_drop
% 	 2: walk_drop
% 	 3: other
% 	 4: dtw_same
% 	 5: dtw_diff
% 	 6: delete
% 	 7: steal
% 
% Column description:
% 	 1: Seconds.milliseconds since 1970
% 	 2: Number of skipped measurements
% 	 3: Gyro X
% 	 4: Gyro Y
% 	 5: Gyro Z
% 	 6: Roll of the device
% 	 7: Pitch of the device
% 	 8: Yaw of the device
% 	 9: Quaternion X
% 	 10: Quaternion Y
% 	 11: Quaternion Z
% 	 12: Quaternion W
% 	 13: Label used for the current sample
% 
% 
1463629536.337	 0	 -0.878507	 0.423530	 0.120637	 0.176816	 0.366499	 0.172375	 0.173367	 0.102117	 0.100339	 0.974396	 2
1463629536.347	 0	 -0.689638	 0.502028	 0.021673	 0.180971	 0.359367	 0.174234	 0.169577	 0.104056	 0.101344	 0.974754	 2
1463629536.357	 0	 -0.602505	 0.539054	 -0.117290	 0.186145	 0.353164	 0.174630	 0.166260	 0.106397	 0.101740	 0.975031	 2
1463629536.367	 0	 -0.592676	 0.517461	 -0.304085	 0.191966	 0.346853	 0.173107	 0.162961	 0.108893	 0.101232	 0.975366	 2
1463629536.377	 0	 -0.571373	 0.365650	 -0.402668	 0.197026	 0.340423	 0.170285	 0.159716	 0.110916	 0.100004	 0.975801	 2
1463629536.387	 0	 -0.485055	 0.140738	 -0.435354	 0.200122	 0.334575	 0.166904	 0.156888	 0.111967	 0.098356	 0.976307	 2
1463629536.397	 0	 -0.344988	 -0.025623	 -0.439187	 0.201456	 0.329961	 0.163107	 0.154777	 0.112174	 0.096410	 0.976814	 2
1463629536.407	 0	 -0.202184	 -0.138175	 -0.355151	 0.201461	 0.326865	 0.159677	 0.153452	 0.111815	 0.094602	 0.977241	 2
1463629536.417	 0	 -0.114722	 -0.256617	 -0.225926	 0.199947	 0.325066	 0.157268	 0.152776	 0.110835	 0.093231	 0.977590	 2
1463629536.427	 0	 -0.128035	 -0.270324	 -0.068205	 0.197504	 0.323691	 0.156377	 0.152265	 0.109531	 0.092551	 0.977882	 2
1463629536.437	 0	 -0.231650	 -0.221866	 0.118591	 0.194776	 0.321847	 0.157518	 0.151425	 0.108227	 0.092825	 0.978131	 2
1463629536.447	 0	 -0.389432	 -0.116894	 0.303187	 0.192274	 0.318933	 0.160893	 0.149931	 0.107166	 0.094167	 0.978350	 2
1463629536.457	 0	 -0.534531	 -0.015344	 0.460997	 0.190219	 0.314812	 0.166268	 0.147721	 0.106426	 0.096476	 0.978542	 2
1463629536.467	 0	 -0.593608	 0.049343	 0.556966	 0.188488	 0.310068	 0.172980	 0.145122	 0.105908	 0.099444	 0.978690	 2
1463629536.477	 0	 -0.567613	 0.117449	 0.572294	 0.187362	 0.305462	 0.180015	 0.142547	 0.105696	 0.102624	 0.978763	 2
1463629536.487	 0	 -0.465847	 0.243335	 0.519291	 0.187417	 0.301581	 0.186520	 0.140296	 0.106035	 0.105659	 0.978729	 2
1463629536.497	 0	 -0.305295	 0.448304	 0.395106	 0.189977	 0.299003	 0.191573	 0.138624	 0.107539	 0.108209	 0.978524	 2
1463629536.507	 0	 -0.202958	 0.531107	 0.268160	 0.194113	 0.297370	 0.195110	 0.137405	 0.109740	 0.110159	 0.978234	 2
1463629536.517	 1	 -0.151020	 0.545077	 0.162327	 0.198902	 0.296150	 0.197356	 0.136417	 0.112186	 0.111535	 0.977939	 2
1463629536.537	 1	 -0.197489	 0.494597	 0.075936	 0.208510	 0.293376	 0.199956	 0.134367	 0.116944	 0.113338	 0.977458	 2
1463629536.547	 1	 -0.291507	 0.472533	 0.075483	 0.212888	 0.290934	 0.201306	 0.132842	 0.119072	 0.114181	 0.977311	 2
1463629536.557	 1	 -0.382533	 0.410010	 0.070365	 0.216746	 0.287547	 0.202857	 0.130867	 0.120917	 0.115039	 0.977251	 2
1463629536.567	 1	 -0.432229	 0.293061	 0.056920	 0.219555	 0.283552	 0.204418	 0.128652	 0.122222	 0.115799	 0.977293	 2
1463629536.577	 1	 -0.433866	 0.174981	 0.053704	 0.221164	 0.279423	 0.205957	 0.126440	 0.122930	 0.116460	 0.977414	 2
1463629536.587	 1	 -0.392697	 0.093902	 0.036605	 0.221883	 0.275561	 0.207306	 0.124421	 0.123200	 0.116981	 0.977577	 2
1463629536.597	 1	 -0.312661	 0.116862	 0.008412	 0.222678	 0.272334	 0.208238	 0.122735	 0.123506	 0.117333	 0.977709	 2
1463629536.607	 1	 -0.200247	 0.223694	 -0.027809	 0.224518	 0.270047	 0.208573	 0.121484	 0.124325	 0.117499	 0.977742	 2
1463629536.617	 1	 -0.059598	 0.431507	 -0.061204	 0.228296	 0.268985	 0.208257	 0.120761	 0.126107	 0.117521	 0.977600	 2
1463629536.627	 1	 0.102125	 0.799935	 -0.084762	 0.235528	 0.269390	 0.207304	 0.120596	 0.129601	 0.117512	 0.977165	 2
1463629536.637	 1	 0.238971	 1.300527	 -0.080230	 0.247608	 0.271207	 0.205961	 0.120865	 0.135497	 0.117681	 0.976311	 2
1463629536.647	 1	 0.332290	 1.835403	 -0.059013	 0.265003	 0.274050	 0.204474	 0.121335	 0.144011	 0.118168	 0.974974	 2
1463629536.657	 1	 0.410632	 2.342838	 -0.014474	 0.287586	 0.277740	 0.203110	 0.121902	 0.155076	 0.119102	 0.973091	 2
1463629536.667	 1	 0.518791	 2.662543	 -0.031624	 0.314016	 0.282356	 0.201399	 0.122712	 0.167995	 0.120195	 0.970707	 2
1463629536.677	 1	 0.641170	 2.919738	 -0.156057	 0.343422	 0.287741	 0.198137	 0.123848	 0.182246	 0.120823	 0.967910	 2
1463629536.687	 1	 0.753807	 3.335769	 -0.235230	 0.377061	 0.293763	 0.193298	 0.125199	 0.198405	 0.121069	 0.964522	 2
1463629536.697	 1	 0.854294	 3.646693	 -0.292894	 0.414635	 0.300347	 0.187301	 0.126733	 0.216318	 0.121141	 0.960453	 2
1463629536.707	 1	 0.965626	 3.834697	 -0.429597	 0.454845	 0.307206	 0.179445	 0.128496	 0.235273	 0.120625	 0.955816	 2
1463629536.717	 1	 1.050204	 4.073257	 -0.645529	 0.498124	 0.313679	 0.169016	 0.130287	 0.255378	 0.119163	 0.950583	 2
1463629536.727	 1	 1.072573	 4.329360	 -0.960938	 0.545073	 0.318574	 0.155396	 0.131671	 0.276823	 0.116375	 0.944716	 2
1463629536.747	 2	 1.025113	 4.796779	 -1.644658	 0.649664	 0.320180	 0.118829	 0.132095	 0.323483	 0.106340	 0.930914	 2
1463629536.757	 2	 0.970069	 4.893886	 -1.916110	 0.705176	 0.316229	 0.097154	 0.131037	 0.347793	 0.099312	 0.923042	 2
1463629536.767	 2	 0.943357	 4.849786	 -2.141164	 0.760926	 0.309299	 0.074218	 0.129308	 0.371972	 0.091198	 0.914658	 2
1463629536.777	 2	 0.972787	 4.696153	 -2.341082	 0.815522	 0.299820	 0.050118	 0.127236	 0.395419	 0.081950	 0.905946	 2
1463629536.787	 2	 1.016557	 4.573903	 -2.460900	 0.868696	 0.288298	 0.025255	 0.125043	 0.418067	 0.071782	 0.896901	 2
1463629536.797	 2	 1.011095	 4.699005	 -2.372296	 0.921779	 0.275900	 0.001329	 0.122872	 0.440602	 0.061748	 0.887108	 2
1463629536.807	 2	 0.906228	 5.135896	 -2.156296	 0.977587	 0.263385	 -0.019949	 0.120573	 0.464316	 0.052926	 0.875827	 2
1463629536.817	 2	 0.781916	 5.546053	 -1.968086	 1.036802	 0.250715	 -0.038134	 0.117955	 0.489444	 0.045509	 0.862821	 2
1463629536.827	 2	 0.751431	 5.767200	 -1.845332	 1.097857	 0.237963	 -0.054233	 0.115272	 0.515149	 0.038946	 0.848421	 2
1463629536.837	 2	 0.788530	 5.890893	 -1.786953	 1.159999	 0.225045	 -0.069344	 0.112743	 0.540975	 0.032685	 0.832807	 2
1463629536.847	 2	 0.846755	 5.835036	 -1.839136	 1.221817	 0.211262	 -0.084149	 0.110281	 0.566277	 0.026163	 0.816385	 2
1463629536.857	 2	 0.921819	 5.600667	 -2.007164	 1.281526	 0.195440	 -0.099162	 0.107602	 0.590348	 0.018713	 0.799726	 2
1463629536.867	 2	 0.984830	 5.325688	 -2.206371	 1.338239	 0.177175	 -0.114336	 0.104584	 0.612889	 0.010148	 0.783152	 2
1463629536.877	 2	 1.009304	 5.111769	 -2.508054	 1.392301	 0.155469	 -0.129323	 0.100774	 0.634146	 0.000263	 0.766618	 2
1463629536.887	 2	 0.993531	 5.036662	 -2.897619	 1.444778	 0.129360	 -0.143560	 0.095686	 0.654620	 -0.011067	 0.749797	 2
1463629536.897	 2	 0.986742	 5.078332	 -3.313885	 1.496893	 0.098385	 -0.156641	 0.089099	 0.674775	 -0.023902	 0.732235	 2
1463629536.907	 2	 1.075809	 5.188804	 -3.590731	 1.549445	 0.063571	 -0.168804	 0.081570	 0.694761	 -0.038061	 0.713586	 2
1463629536.917	 2	 1.283443	 5.304232	 -3.576544	 1.602760	 0.027503	 -0.180871	 0.074394	 0.714450	 -0.052989	 0.693699	 2
1463629536.927	 2	 1.558364	 5.386700	 -3.240324	 1.656576	 -0.006741	 -0.193758	 0.068998	 0.733536	 -0.067872	 0.672723	 2
1463629536.937	 2	 1.843131	 5.340933	 -2.690098	 1.709900	 -0.036906	 -0.208202	 0.066349	 0.751584	 -0.082029	 0.651146	 2
1463629536.947	 2	 2.111722	 5.009308	 -2.111485	 1.760188	 -0.062486	 -0.224739	 0.066614	 0.767795	 -0.095329	 0.630052	 2
1463629536.957	 2	 2.344253	 4.389607	 -1.671656	 1.804392	 -0.084600	 -0.243451	 0.069176	 0.781370	 -0.108140	 0.610722	 2
1463629536.967	 2	 2.501256	 3.621170	 -1.532032	 1.840651	 -0.105714	 -0.263588	 0.072716	 0.792000	 -0.121146	 0.593946	 2
1463629536.977	 2	 2.489486	 2.893179	 -1.749725	 1.869081	 -0.128788	 -0.283071	 0.075373	 0.800027	 -0.134885	 0.579726	 2
1463629536.987	 2	 2.250633	 2.253952	 -2.285409	 1.890899	 -0.156192	 -0.298839	 0.075165	 0.806081	 -0.149424	 0.567676	 2
1463629536.997	 2	 1.829522	 1.806537	 -2.991441	 1.908332	 -0.189049	 -0.308303	 0.070771	 0.810939	 -0.164484	 0.557058	 2
1463629537.007	 2	 1.306905	 1.576246	 -3.718014	 1.924243	 -0.227213	 -0.309898	 0.061755	 0.815356	 -0.179563	 0.546936	 2
1463629537.017	 2	 0.783171	 1.444882	 -4.300867	 1.940592	 -0.269414	 -0.303466	 0.048563	 0.819655	 -0.194167	 0.536755	 2
1463629537.027	 2	 0.349948	 1.281022	 -4.631138	 1.957683	 -0.313481	 -0.290246	 0.032352	 0.823658	 -0.207881	 0.526617	 2
1463629537.037	 2	 0.021636	 0.989860	 -4.726907	 1.974427	 -0.357374	 -0.271965	 0.014294	 0.826903	 -0.220461	 0.517131	 2
1463629537.047	 2	 -0.253881	 0.623533	 -4.606420	 1.989636	 -0.399248	 -0.250130	 -0.004626	 0.829057	 -0.231599	 0.508925	 2
1463629537.057	 2	 -0.529564	 0.260951	 -4.263153	 2.003114	 -0.437072	 -0.225807	 -0.023469	 0.830207	 -0.240731	 0.502248	 2
1463629537.067	 2	 -0.759386	 -0.263150	 -3.734213	 2.013062	 -0.469179	 -0.200432	 -0.041462	 0.830151	 -0.247465	 0.497887	 2
1463629537.077	 2	 -0.923382	 -0.940963	 -3.108161	 2.016885	 -0.494865	 -0.175560	 -0.058173	 0.828527	 -0.251720	 0.496786	 2
1463629537.087	 2	 -1.104464	 -1.398528	 -2.477779	 2.015324	 -0.514068	 -0.151720	 -0.073339	 0.825740	 -0.253470	 0.498525	 2
1463629537.097	 2	 -1.326308	 -1.589736	 -1.947943	 2.011489	 -0.527340	 -0.128275	 -0.087007	 0.822641	 -0.252795	 0.501783	 2
1463629537.107	 2	 -1.556895	 -1.655810	 -1.619361	 2.007226	 -0.536246	 -0.104219	 -0.099778	 0.819592	 -0.250120	 0.505721	 2
1463629537.117	 2	 -1.777077	 -1.616947	 -1.482797	 2.004090	 -0.542666	 -0.078593	 -0.112346	 0.816792	 -0.246034	 0.509604	 2
1463629537.127	 2	 -1.769410	 -1.580758	 -1.476132	 2.001824	 -0.548524	 -0.052340	 -0.124868	 0.814041	 -0.241547	 0.513225	 2
1463629537.137	 2	 -1.578695	 -1.658855	 -1.461467	 1.998463	 -0.555064	 -0.027730	 -0.136982	 0.810849	 -0.237626	 0.517004	 2
1463629537.147	 2	 -1.287045	 -1.887793	 -1.379810	 1.991596	 -0.562252	 -0.006248	 -0.148360	 0.806717	 -0.234455	 0.521755	 2
1463629537.157	 2	 -0.993898	 -2.101194	 -1.208497	 1.980455	 -0.569443	 0.011289	 -0.158595	 0.801605	 -0.231892	 0.527734	 2
1463629537.167	 2	 -0.735587	 -2.284276	 -0.976917	 1.965441	 -0.575858	 0.024871	 -0.167442	 0.795739	 -0.229630	 0.534821	 2
1463629537.177	 2	 -0.543599	 -2.523340	 -0.718635	 1.946303	 -0.580908	 0.034841	 -0.174922	 0.789110	 -0.227319	 0.543170	 2
1463629537.187	 2	 -0.489536	 -2.768798	 -0.517829	 1.923563	 -0.584410	 0.042784	 -0.181553	 0.781739	 -0.224502	 0.552739	 2
1463629537.197	 2	 -0.557929	 -2.914290	 -0.368315	 1.898934	 -0.586424	 0.050438	 -0.187823	 0.773912	 -0.220884	 0.563021	 2
1463629537.207	 2	 -0.696399	 -2.951372	 -0.257681	 1.874237	 -0.587076	 0.059034	 -0.194013	 0.765993	 -0.216338	 0.573420	 2
1463629537.217	 2	 -0.817594	 -2.924869	 -0.172184	 1.850262	 -0.586639	 0.068781	 -0.200166	 0.758152	 -0.210987	 0.583629	 2
1463629537.227	 2	 -0.869032	 -2.767105	 -0.144690	 1.827864	 -0.585766	 0.079226	 -0.206187	 0.750611	 -0.205303	 0.593229	 2
1463629537.237	 2	 -0.780124	 -2.435820	 -0.186078	 1.808082	 -0.585447	 0.089188	 -0.211822	 0.743701	 -0.200138	 0.601652	 2
1463629537.247	 2	 -0.507023	 -1.982647	 -0.211948	 1.791166	 -0.586163	 0.096606	 -0.216455	 0.737698	 -0.196354	 0.608601	 2
1463629537.257	 2	 -0.104319	 -1.495244	 -0.158697	 1.776635	 -0.587440	 0.099519	 -0.219321	 0.732776	 -0.194361	 0.614135	 2
1463629537.267	 2	 0.329062	 -1.079076	 -0.089323	 1.763537	 -0.588878	 0.097136	 -0.220150	 0.728819	 -0.194195	 0.618584	 2
1463629537.277	 2	 0.644452	 -0.693181	 -0.135372	 1.751987	 -0.591124	 0.090576	 -0.219564	 0.725674	 -0.195796	 0.621974	 2
1463629537.287	 2	 0.823041	 -0.339943	 -0.193323	 1.742760	 -0.594281	 0.081652	 -0.218194	 0.723382	 -0.198736	 0.624191	 2
1463629537.307	 3	 0.480430	 -0.236745	 -0.327928	 1.729074	 -0.602432	 0.064726	 -0.215952	 0.719931	 -0.205541	 0.626751	 2
1463629537.317	 3	 -0.514946	 -0.653702	 -0.293300	 1.725880	 -0.605124	 0.068124	 -0.218326	 0.718228	 -0.205114	 0.628021	 2
1463629537.327	 3	 -1.776870	 -1.677362	 -0.281181	 1.722125	 -0.605557	 0.086243	 -0.225330	 0.714982	 -0.199152	 0.631162	 2
1463629537.337	 3	 -2.735921	 -2.344977	 -0.476209	 1.717953	 -0.605849	 0.117382	 -0.236918	 0.710024	 -0.188915	 0.635647	 2
1463629537.347	 3	 -3.013203	 -3.107487	 -0.867762	 1.710019	 -0.609206	 0.154707	 -0.251846	 0.702480	 -0.177257	 0.641620	 2
1463629537.357	 3	 -2.910157	 -3.673334	 -1.120115	 1.696178	 -0.615914	 0.192108	 -0.268107	 0.692211	 -0.165842	 0.649199	 2
1463629537.367	 3	 -2.609941	 -4.245670	 -1.161094	 1.675154	 -0.624393	 0.226706	 -0.284226	 0.679317	 -0.154713	 0.658640	 2
1463629537.377	 3	 -2.099776	 -4.396794	 -0.967644	 1.648080	 -0.632575	 0.255411	 -0.298389	 0.664904	 -0.144194	 0.669384	 2
1463629537.387	 3	 -1.446029	 -3.800162	 -0.710936	 1.620221	 -0.639281	 0.276050	 -0.309187	 0.651327	 -0.135398	 0.679590	 2
1463629537.397	 3	 -0.759658	 -2.636601	 -0.437513	 1.597932	 -0.643998	 0.287971	 -0.315977	 0.641099	 -0.129510	 0.687298	 2
1463629537.407	 3	 0.132797	 -1.403825	 -0.216396	 1.581707	 -0.646586	 0.289383	 -0.318278	 0.634865	 -0.127358	 0.692406	 2
1463629537.427	 4	 2.395598	 1.788276	 -0.153106	 1.568503	 -0.649784	 0.250762	 -0.307901	 0.635833	 -0.139789	 0.693810	 2
1463629537.437	 4	 3.093498	 2.665998	 -0.130766	 1.571054	 -0.651104	 0.213561	 -0.296251	 0.642136	 -0.153502	 0.690170	 2
1463629537.447	 4	 3.097547	 2.847845	 -0.133372	 1.575485	 -0.652484	 0.174121	 -0.283606	 0.649177	 -0.168184	 0.685457	 2
1463629537.457	 4	 2.575713	 2.480661	 -0.230296	 1.580438	 -0.654637	 0.139663	 -0.272632	 0.655359	 -0.181382	 0.680644	 2
1463629537.467	 4	 1.736749	 1.880326	 -0.632501	 1.585964	 -0.659902	 0.115210	 -0.265784	 0.659810	 -0.192227	 0.676060	 2
1463629537.477	 4	 1.187205	 1.305015	 -1.279987	 1.590350	 -0.671332	 0.098988	 -0.263701	 0.661904	 -0.202191	 0.671911	 2
1463629537.487	 4	 1.175953	 0.879549	 -1.727206	 1.591188	 -0.687900	 0.084759	 -0.264276	 0.661842	 -0.212731	 0.668483	 2
1463629537.497	 4	 1.639320	 0.615304	 -1.897826	 1.585536	 -0.706853	 0.065575	 -0.264706	 0.659950	 -0.224818	 0.666223	 2
1463629537.507	 4	 2.173576	 0.635167	 -2.022724	 1.573920	 -0.726895	 0.038625	 -0.263719	 0.656977	 -0.238977	 0.664622	 2
1463629537.517	 4	 2.378914	 0.890555	 -2.216105	 1.560626	 -0.748487	 0.006691	 -0.261996	 0.653936	 -0.254964	 0.662359	 2
1463629537.527	 4	 2.169293	 1.143248	 -2.362200	 1.549885	 -0.771431	 -0.024728	 -0.260761	 0.651543	 -0.271397	 0.658664	 2
1463629537.537	 4	 1.856493	 1.224089	 -2.487682	 1.542162	 -0.795505	 -0.052779	 -0.260739	 0.649612	 -0.287298	 0.653819	 2
1463629537.547	 4	 1.819513	 1.414680	 -2.620938	 1.535974	 -0.820781	 -0.080094	 -0.261248	 0.647984	 -0.303343	 0.647957	 2
1463629537.557	 4	 2.034956	 1.707854	 -2.733057	 1.529385	 -0.847091	 -0.110998	 -0.261106	 0.646620	 -0.320591	 0.641037	 2
1463629537.567	 4	 2.251812	 2.007979	 -2.766257	 1.521665	 -0.873678	 -0.146692	 -0.259812	 0.645549	 -0.339028	 0.633107	 2
1463629537.577	 4	 2.317910	 2.225774	 -2.773332	 1.513341	 -0.900125	 -0.185556	 -0.257687	 0.644789	 -0.358016	 0.624235	 2
1463629537.587	 4	 2.325216	 2.240218	 -2.831878	 1.503519	 -0.926721	 -0.226366	 -0.255410	 0.643881	 -0.377088	 0.614807	 2
1463629537.597	 4	 2.174793	 2.174484	 -3.010228	 1.492008	 -0.954602	 -0.267740	 -0.253892	 0.642491	 -0.396065	 0.604877	 2
1463629537.607	 4	 1.918282	 2.018632	 -3.191690	 1.480123	 -0.984329	 -0.307196	 -0.253900	 0.640686	 -0.414461	 0.594372	 2
1463629537.617	 4	 1.907577	 1.873253	 -3.296329	 1.464845	 -1.015084	 -0.347951	 -0.254780	 0.638116	 -0.432574	 0.583759	 2
1463629537.627	 4	 2.133333	 1.795790	 -3.326725	 1.442155	 -1.045661	 -0.395546	 -0.255347	 0.634540	 -0.451096	 0.573297	 2
1463629537.637	 4	 2.280715	 1.782910	 -3.283366	 1.411682	 -1.075101	 -0.450876	 -0.255280	 0.630199	 -0.469869	 0.562943	 2
1463629537.647	 4	 2.411533	 1.775223	 -3.117252	 1.374058	 -1.102106	 -0.513394	 -0.254347	 0.625427	 -0.488432	 0.552796	 2
1463629537.657	 4	 2.594010	 1.748139	 -2.818547	 1.328355	 -1.124887	 -0.583859	 -0.252057	 0.620240	 -0.506508	 0.543340	 2
1463629537.667	 4	 2.800888	 1.695414	 -2.525623	 1.273813	 -1.142539	 -0.662997	 -0.248203	 0.614517	 -0.524158	 0.534811	 2
1463629537.677	 4	 2.809652	 1.495447	 -2.230213	 1.213394	 -1.155424	 -0.746169	 -0.243693	 0.608299	 -0.540794	 0.527378	 2
1463629537.687	 4	 3.175599	 1.340082	 -1.800014	 1.145997	 -1.161365	 -0.834785	 -0.237644	 0.601242	 -0.556686	 0.521665	 2
1463629537.697	 4	 3.593327	 1.035125	 -1.590139	 1.068307	 -1.160253	 -0.931694	 -0.230235	 0.592356	 -0.572681	 0.517826	 2
1463629537.707	 4	 3.645094	 0.650358	 -1.533421	 0.986144	 -1.154567	 -1.029586	 -0.223152	 0.581920	 -0.588266	 0.515282	 2
1463629537.717	 4	 3.079926	 0.027994	 -1.489530	 0.909109	 -1.147623	 -1.116290	 -0.218409	 0.571081	 -0.601793	 0.513818	 2
1463629537.727	 4	 1.698969	 -0.872108	 -1.500802	 0.845903	 -1.145874	 -1.178452	 -0.219302	 0.561457	 -0.610814	 0.513399	 2
1463629537.737	 4	 0.380855	 -1.280680	 -1.320474	 0.801793	 -1.151541	 -1.213445	 -0.225203	 0.554741	 -0.614887	 0.513283	 2
1463629537.747	 4	 -0.021557	 -1.250481	 -0.839228	 0.773172	 -1.158260	 -1.230857	 -0.231733	 0.550296	 -0.616002	 0.513825	 2
1463629537.757	 4	 0.158313	 -1.005816	 -0.175613	 0.755023	 -1.160002	 -1.238810	 -0.235795	 0.546800	 -0.615893	 0.515835	 2
1463629537.767	 4	 0.308920	 -0.655550	 0.518015	 0.748979	 -1.155490	 -1.237363	 -0.236356	 0.544415	 -0.614907	 0.519266	 2
1463629537.777	 4	 0.116736	 -0.381503	 0.976253	 0.756237	 -1.148112	 -1.224481	 -0.234858	 0.543731	 -0.612554	 0.523427	 2
1463629537.787	 4	 -0.179032	 -0.061935	 1.363345	 0.776265	 -1.140217	 -1.200853	 -0.232189	 0.545137	 -0.608794	 0.527526	 2
1463629537.797	 4	 -0.286761	 0.271015	 2.057995	 0.810500	 -1.128873	 -1.165223	 -0.227238	 0.548633	 -0.603319	 0.532326	 2
1463629537.807	 4	 -0.122067	 0.550977	 2.889395	 0.855212	 -1.110228	 -1.120803	 -0.218907	 0.553430	 -0.596170	 0.538865	 2
1463629537.817	 4	 0.137767	 0.948005	 3.621940	 0.905335	 -1.083115	 -1.073978	 -0.206591	 0.559164	 -0.587921	 0.546813	 2
1463629537.827	 4	 0.165300	 1.243336	 4.024109	 0.957301	 -1.050353	 -1.028166	 -0.191537	 0.565835	 -0.578725	 0.555178	 2
1463629537.837	 4	 -0.144694	 1.277934	 4.123048	 1.009100	 -1.016406	 -0.982816	 -0.176288	 0.573349	 -0.568264	 0.563267	 2
1463629537.847	 4	 -0.559768	 1.067466	 4.119375	 1.059462	 -0.983344	 -0.936481	 -0.162508	 0.581364	 -0.556203	 0.571178	 2
1463629537.857	 4	 -0.756200	 0.661217	 4.046965	 1.104103	 -0.950755	 -0.891582	 -0.150554	 0.588738	 -0.542978	 0.579566	 2
1463629537.867	 4	 -0.873420	 0.201566	 3.829490	 1.140385	 -0.919326	 -0.850435	 -0.140641	 0.594744	 -0.529365	 0.588449	 2
1463629537.877	 4	 -1.173392	 -0.202144	 3.478775	 1.170300	 -0.890968	 -0.811065	 -0.133442	 0.599703	 -0.515467	 0.597364	 2
1463629537.887	 4	 -1.732282	 -0.498743	 2.833964	 1.197320	 -0.868862	 -0.770238	 -0.130192	 0.604365	 -0.501326	 0.605364	 2
1463629537.897	 4	 -2.341911	 -0.688689	 1.915620	 1.223934	 -0.856649	 -0.726951	 -0.131968	 0.609308	 -0.487734	 0.611101	 2
1463629537.907	 4	 -2.649314	 -0.966651	 1.155821	 1.247953	 -0.852388	 -0.682898	 -0.137995	 0.613635	 -0.475041	 0.615423	 2
1463629537.917	 4	 -2.662220	 -1.095983	 0.476905	 1.268761	 -0.854569	 -0.641242	 -0.146772	 0.617097	 -0.464108	 0.618266	 2
1463629537.927	 4	 -2.607419	 -1.278441	 -0.019779	 1.285468	 -0.860924	 -0.602738	 -0.157286	 0.619304	 -0.454769	 0.620410	 2
1463629537.937	 4	 -2.640693	 -1.276418	 -0.340259	 1.301249	 -0.870333	 -0.564932	 -0.169061	 0.620963	 -0.446327	 0.621784	 2
1463629537.947	 4	 -2.734847	 -0.822439	 -0.403424	 1.321782	 -0.881191	 -0.525616	 -0.180884	 0.623604	 -0.438298	 0.621526	 2
1463629537.957	 4	 -2.653846	 0.140085	 -0.229979	 1.351684	 -0.890250	 -0.485298	 -0.190423	 0.628772	 -0.430646	 0.618812	 2
1463629537.967	 4	 -2.378112	 1.533909	 0.096056	 1.393399	 -0.895002	 -0.446833	 -0.195453	 0.637657	 -0.423965	 0.612737	 2
1463629537.977	 4	 -1.819561	 2.726753	 0.392222	 1.446966	 -0.892319	 -0.411623	 -0.194545	 0.650687	 -0.417803	 0.603489	 2
1463629537.987	 4	 -1.116016	 3.638590	 0.720713	 1.498293	 -0.886853	 -0.389859	 -0.189068	 0.664355	 -0.414768	 0.592329	 2
1463629537.997	 4	 -0.438116	 4.296484	 1.074765	 1.547660	 -0.877200	 -0.379619	 -0.178909	 0.678673	 -0.413637	 0.579913	 2
1463629538.007	 4	 0.222885	 4.818006	 1.097310	 1.593967	 -0.866033	 -0.380479	 -0.165195	 0.692976	 -0.414667	 0.566168	 2
1463629538.017	 4	 0.961933	 5.044822	 0.701822	 1.634686	 -0.858176	 -0.392846	 -0.149732	 0.706011	 -0.419015	 0.550957	 2
1463629538.027	 4	 1.661439	 4.978837	 0.099356	 1.667375	 -0.856915	 -0.415974	 -0.134170	 0.716636	 -0.427236	 0.534696	 2
1463629538.037	 4	 2.017450	 4.557853	 -0.314782	 1.691958	 -0.861354	 -0.445268	 -0.119760	 0.724585	 -0.437847	 0.518578	 2
1463629538.047	 4	 2.045667	 4.065636	 -0.417659	 1.710579	 -0.868127	 -0.475986	 -0.106676	 0.730507	 -0.448787	 0.503556	 2
1463629538.057	 4	 0.483616	 2.771388	 -0.146463	 1.730194	 -0.871886	 -0.490672	 -0.098085	 0.735826	 -0.454579	 0.492238	 2
1463629538.067	 4	 -1.093420	 3.186123	 0.232420	 1.768751	 -0.869198	 -0.479461	 -0.092625	 0.744908	 -0.452868	 0.481085	 2
1463629538.077	 4	 -1.761345	 3.671627	 0.763911	 1.821963	 -0.859500	 -0.456839	 -0.086115	 0.757435	 -0.446821	 0.468218	 2
1463629538.087	 4	 -1.720171	 3.207603	 1.473296	 1.871141	 -0.842296	 -0.436460	 -0.077774	 0.769696	 -0.438499	 0.457425	 2
1463629538.097	 4	 -1.485688	 2.408300	 2.080893	 1.906161	 -0.818977	 -0.423990	 -0.068084	 0.779584	 -0.429089	 0.451105	 2
1463629538.107	 4	 -1.543930	 2.212273	 2.159508	 1.935468	 -0.793337	 -0.414227	 -0.058229	 0.788477	 -0.418971	 0.446516	 2
1463629538.117	 4	 -1.705494	 2.200554	 1.798446	 1.965878	 -0.769479	 -0.402388	 -0.049809	 0.797336	 -0.408739	 0.441256	 2
1463629538.127	 4	 -1.761241	 2.009734	 1.423073	 1.996144	 -0.748672	 -0.388440	 -0.043460	 0.805766	 -0.398877	 0.435602	 2
1463629538.137	 4	 -1.610186	 1.751290	 1.339421	 2.022883	 -0.729511	 -0.375763	 -0.038062	 0.813256	 -0.389626	 0.430532	 2
1463629538.147	 4	 -1.336023	 1.862968	 1.449978	 2.046209	 -0.710512	 -0.367512	 -0.031816	 0.820039	 -0.381159	 0.425723	 2
1463629538.157	 4	 -1.099025	 2.226942	 1.575996	 2.070233	 -0.691501	 -0.363587	 -0.023866	 0.826975	 -0.373448	 0.419617	 2
1463629538.167	 4	 -0.882399	 2.336838	 1.711546	 2.092654	 -0.672634	 -0.364147	 -0.014573	 0.833513	 -0.366525	 0.413163	 2
1463629538.177	 4	 -0.626480	 2.268235	 1.741718	 2.113291	 -0.654113	 -0.367807	 -0.004543	 0.839544	 -0.360172	 0.406721	 2
1463629538.187	 4	 -0.401972	 2.182012	 1.676081	 2.131557	 -0.637310	 -0.374095	 0.005619	 0.844798	 -0.354840	 0.400466	 2
1463629538.207	 5	 -0.321020	 1.907672	 1.425567	 2.163307	 -0.607992	 -0.388090	 0.024404	 0.853574	 -0.345725	 0.388959	 2
1463629538.217	 5	 -0.247661	 1.817496	 1.193884	 2.178451	 -0.596087	 -0.393952	 0.032419	 0.857431	 -0.341869	 0.383257	 2
1463629538.227	 5	 -0.054057	 1.649365	 0.967890	 2.192052	 -0.587232	 -0.399924	 0.039437	 0.860651	 -0.339192	 0.377722	 2
1463629538.237	 5	 0.111932	 1.370829	 0.906301	 2.202552	 -0.580216	 -0.407097	 0.045981	 0.863043	 -0.337475	 0.373034	 2
1463629538.247	 5	 0.223784	 1.001408	 0.756946	 2.209418	 -0.574939	 -0.414729	 0.051688	 0.864555	 -0.336583	 0.369575	 2
1463629538.257	 5	 0.292029	 0.532375	 0.494073	 2.212327	 -0.572073	 -0.421354	 0.055721	 0.865139	 -0.336562	 0.367634	 2
1463629538.267	 5	 0.369838	 0.088548	 0.190852	 2.211511	 -0.572017	 -0.426533	 0.057836	 0.864847	 -0.337513	 0.367123	 2
1463629538.277	 5	 0.572478	 -0.212454	 -0.020471	 2.207240	 -0.574879	 -0.431618	 0.058631	 0.863692	 -0.339732	 0.367669	 2
1463629538.287	 5	 0.847834	 -0.293182	 -0.187747	 2.200842	 -0.580644	 -0.438112	 0.058963	 0.861878	 -0.343441	 0.368426	 2
1463629538.297	 5	 1.112974	 -0.243349	 -0.395284	 2.193944	 -0.589562	 -0.445861	 0.058959	 0.859687	 -0.348655	 0.368650	 2
1463629538.307	 5	 1.379606	 -0.132643	 -0.568163	 2.187185	 -0.601507	 -0.455053	 0.058819	 0.857236	 -0.355315	 0.368018	 2
1463629538.317	 5	 1.621579	 -0.095887	 -0.681833	 2.179940	 -0.615840	 -0.466054	 0.058722	 0.854446	 -0.363231	 0.366793	 2
1463629538.327	 5	 1.854186	 -0.193476	 -0.844631	 2.170894	 -0.632627	 -0.478695	 0.058307	 0.851069	 -0.372407	 0.365506	 2
1463629538.337	 5	 2.044353	 -0.241985	 -1.003405	 2.160258	 -0.651916	 -0.492559	 0.057373	 0.847150	 -0.382747	 0.364075	 2
1463629538.347	 5	 2.104044	 -0.041050	 -0.991397	 2.149744	 -0.671845	 -0.507732	 0.056716	 0.843149	 -0.393463	 0.362035	 2
1463629538.357	 5	 1.989776	 0.512232	 -0.862691	 2.143506	 -0.690437	 -0.523365	 0.057312	 0.840008	 -0.403524	 0.358148	 2
1463629538.367	 5	 1.586393	 1.251941	 -0.663656	 2.145334	 -0.705762	 -0.536979	 0.059472	 0.838616	 -0.411661	 0.351741	 2
1463629538.377	 5	 0.859203	 1.986326	 -0.303052	 2.157852	 -0.714867	 -0.545747	 0.063415	 0.839720	 -0.416218	 0.342945	 2
1463629538.387	 5	 0.251665	 2.291759	 0.062110	 2.177422	 -0.717219	 -0.549803	 0.068604	 0.842684	 -0.417143	 0.333419	 2
1463629538.397	 5	 -0.013594	 2.645239	 0.297914	 2.201483	 -0.715367	 -0.552045	 0.075023	 0.846723	 -0.415945	 0.323143	 2
1463629538.407	 5	 -0.123694	 2.921167	 0.462370	 2.228734	 -0.711405	 -0.554287	 0.082594	 0.851329	 -0.413714	 0.311860	 2
1463629538.417	 5	 -0.094829	 2.653505	 0.524639	 2.254255	 -0.706633	 -0.557413	 0.090332	 0.855556	 -0.411251	 0.301224	 2
1463629538.427	 5	 0.015524	 1.766945	 0.343841	 2.272509	 -0.703450	 -0.560615	 0.096198	 0.858423	 -0.409641	 0.293343	 2
1463629538.437	 5	 0.151496	 0.503155	 0.075114	 2.279153	 -0.703113	 -0.563014	 0.098667	 0.859308	 -0.409536	 0.290062	 2
1463629538.447	 5	 0.192333	 -0.343403	 -0.191033	 2.276696	 -0.705394	 -0.563911	 0.098019	 0.858688	 -0.410675	 0.290505	 2
1463629538.457	 5	 0.009459	 -0.297175	 -0.343546	 2.274613	 -0.708117	 -0.561727	 0.096020	 0.858229	 -0.411518	 0.291336	 2
1463629538.467	 5	 -0.035763	 0.146883	 -0.434939	 2.277264	 -0.711034	 -0.557874	 0.094234	 0.858514	 -0.411966	 0.290444	 2
1463629538.477	 5	 -0.145763	 1.030037	 -0.430026	 2.288267	 -0.713744	 -0.553026	 0.093791	 0.860060	 -0.411806	 0.286209	 2
1463629538.487	 5	 -0.535718	 1.944826	 -0.282767	 2.310288	 -0.713292	 -0.545980	 0.095379	 0.863547	 -0.409593	 0.278250	 2
1463629538.497	 5	 -0.857838	 1.883854	 -0.167559	 2.336459	 -0.709185	 -0.536472	 0.097509	 0.868017	 -0.405403	 0.269604	 2
1463629538.507	 5	 -0.876873	 0.836915	 -0.222963	 2.354215	 -0.704394	 -0.526374	 0.097740	 0.871391	 -0.401272	 0.264774	 2
1463629538.517	 5	 -0.730423	 -0.104924	 -0.385406	 2.361863	 -0.701362	 -0.516025	 0.095404	 0.873228	 -0.398315	 0.264038	 2
1463629538.527	 5	 -0.573653	 -0.323680	 -0.420780	 2.364846	 -0.699943	 -0.506446	 0.092113	 0.874225	 -0.396335	 0.264884	 2
1463629538.537	 5	 -0.330661	 -0.003699	 -0.345314	 2.368434	 -0.699634	 -0.499298	 0.089763	 0.875059	 -0.395100	 0.264781	 2
1463629538.547	 5	 0.184641	 0.097707	 -0.233755	 2.370856	 -0.701712	 -0.497215	 0.088893	 0.875243	 -0.395560	 0.263780	 2
1463629538.557	 5	 0.738604	 -0.032205	 -0.323982	 2.368841	 -0.708084	 -0.500265	 0.088485	 0.874133	 -0.398634	 0.262971	 2
1463629538.567	 5	 0.684374	 -0.329599	 -0.728070	 2.365855	 -0.717650	 -0.501255	 0.086296	 0.872619	 -0.402759	 0.262438	 2
1463629538.577	 5	 0.361111	 -1.092142	 -1.142670	 2.360954	 -0.728151	 -0.495488	 0.080562	 0.871009	 -0.406435	 0.263938	 2
1463629538.587	 5	 -0.010174	 -2.063161	 -1.577975	 2.351509	 -0.739086	 -0.482351	 0.070587	 0.868963	 -0.409436	 0.268857	 2
1463629538.597	 5	 -0.317461	 -2.861662	 -1.957878	 2.338519	 -0.750731	 -0.462109	 0.056636	 0.866428	 -0.411756	 0.276680	 2
1463629538.607	 5	 -0.436855	 -3.540540	 -2.193360	 2.321503	 -0.763342	 -0.437678	 0.039829	 0.863048	 -0.413766	 0.286982	 2
1463629538.617	 5	 -0.333771	 -4.186461	 -2.340949	 2.299183	 -0.777914	 -0.412044	 0.020973	 0.858291	 -0.416152	 0.299524	 2
1463629538.627	 5	 -0.129253	 -4.411128	 -2.438607	 2.272452	 -0.794921	 -0.387674	 0.001185	 0.852073	 -0.419302	 0.313300	 2
1463629538.637	 5	 0.158228	 -4.062355	 -2.481561	 2.246399	 -0.814566	 -0.365897	 -0.017986	 0.845124	 -0.423434	 0.325799	 2
1463629538.647	 5	 0.568177	 -3.166582	 -2.433099	 2.224532	 -0.836620	 -0.349021	 -0.034806	 0.838161	 -0.428950	 0.335078	 2
1463629538.657	 5	 0.996196	 -1.967470	 -2.494942	 2.210638	 -0.861738	 -0.337179	 -0.048573	 0.831879	 -0.436363	 0.339420	 2
1463629538.667	 5	 1.452495	 -0.795770	 -2.658534	 2.205529	 -0.890658	 -0.329808	 -0.059476	 0.826390	 -0.446049	 0.338501	 2
1463629538.677	 5	 1.885038	 0.041561	 -3.032854	 2.208086	 -0.924754	 -0.324854	 -0.068836	 0.821201	 -0.458247	 0.333016	 2
1463629538.687	 5	 2.336427	 0.247051	 -3.553898	 2.214227	 -0.965437	 -0.320301	 -0.078618	 0.815181	 -0.473034	 0.324865	 2
1463629538.697	 5	 2.814747	 -0.088749	 -3.905429	 2.216636	 -1.012347	 -0.317483	 -0.089867	 0.807082	 -0.490131	 0.316725	 2
1463629538.707	 5	 3.166442	 -0.289933	 -3.785669	 2.211046	 -1.061610	 -0.320920	 -0.101069	 0.797114	 -0.508424	 0.309676	 2
1463629538.717	 5	 3.202737	 -0.441866	 -3.601956	 2.198837	 -1.109901	 -0.330241	 -0.111551	 0.786267	 -0.526496	 0.303552	 2
1463629538.727	 5	 3.085527	 -0.816256	 -3.649181	 2.182711	 -1.157544	 -0.340308	 -0.122903	 0.774751	 -0.543705	 0.298398	 2
1463629538.737	 5	 2.959606	 -1.223625	 -3.700901	 2.162198	 -1.204904	 -0.350193	 -0.135795	 0.762428	 -0.559934	 0.294512	 2
1463629538.747	 5	 2.885486	 -1.423588	 -3.584882	 2.135984	 -1.251159	 -0.363432	 -0.149167	 0.749596	 -0.575239	 0.291470	 2
1463629538.757	 5	 2.789794	 -1.697890	 -3.168823	 2.096837	 -1.293918	 -0.387259	 -0.162063	 0.736453	 -0.589220	 0.290160	 2
1463629538.767	 5	 2.576265	 -1.774760	 -2.562326	 2.040646	 -1.330371	 -0.427088	 -0.173410	 0.723763	 -0.601303	 0.290742	 2
1463629538.787	 6	 2.057281	 -1.465577	 -1.937854	 1.889124	 -1.386294	 -0.548923	 -0.191553	 0.701439	 -0.620528	 0.293660	 2
1463629538.797	 6	 1.841761	 -1.256242	 -1.905254	 1.801299	 -1.409853	 -0.624740	 -0.199537	 0.691730	 -0.628645	 0.294108	 2
1463629538.807	 6	 1.754683	 -1.086658	 -1.729198	 1.696653	 -1.430565	 -0.719420	 -0.206562	 0.682718	 -0.636211	 0.294046	 2
1463629538.817	 6	 1.690950	 -1.253597	 -1.455230	 1.562518	 -1.446824	 -0.842650	 -0.213037	 0.673872	 -0.643016	 0.295029	 2
1463629538.827	 6	 1.431572	 -1.468055	 -1.213039	 1.412902	 -1.458272	 -0.978969	 -0.219662	 0.665523	 -0.648404	 0.297323	 2
1463629538.837	 6	 1.102396	 -1.534584	 -0.986982	 1.270446	 -1.465755	 -1.106920	 -0.226307	 0.658236	 -0.652173	 0.300301	 2
1463629538.847	 6	 0.852609	 -1.486698	 -0.791459	 1.144266	 -1.470365	 -1.218665	 -0.232590	 0.652045	 -0.654685	 0.303526	 2
1463629538.857	 6	 0.719076	 -1.422404	 -0.633031	 1.032058	 -1.472847	 -1.316965	 -0.238346	 0.646610	 -0.656439	 0.306877	 2
1463629538.867	 6	 0.644199	 -1.354131	 -0.488931	 0.932532	 -1.473539	 -1.403188	 -0.243519	 0.641694	 -0.657723	 0.310368	 2
1463629538.877	 6	 0.591618	 -1.285078	 -0.374860	 0.845902	 -1.472843	 -1.477165	 -0.248136	 0.637186	 -0.658678	 0.313951	 2
1463629538.887	 6	 0.548263	 -1.255757	 -0.309198	 0.770038	 -1.471318	 -1.540735	 -0.252432	 0.632953	 -0.659383	 0.317589	 2
1463629538.897	 6	 0.511446	 -1.370501	 -0.306748	 0.699691	 -1.469502	 -1.598104	 -0.256938	 0.628730	 -0.659821	 0.321431	 2
1463629538.907	 6	 0.434028	 -1.714925	 -0.312476	 0.631768	 -1.467851	 -1.650194	 -0.262498	 0.624204	 -0.659674	 0.326028	 2
1463629538.917	 6	 0.316470	 -1.977287	 -0.311763	 0.569076	 -1.466726	 -1.693839	 -0.269241	 0.619479	 -0.658699	 0.331468	 2
1463629538.927	 6	 0.164514	 -2.040869	 -0.340873	 0.511392	 -1.466704	 -1.731374	 -0.276626	 0.614957	 -0.657103	 0.336929	 2
1463629538.937	 6	 0.066724	 -1.930209	 -0.374162	 0.456817	 -1.467643	 -1.766478	 -0.284049	 0.610827	 -0.655230	 0.341876	 2
1463629538.947	 6	 0.082232	 -1.769996	 -0.421831	 0.399667	 -1.468701	 -1.805783	 -0.291082	 0.606900	 -0.653556	 0.346132	 2
1463629538.957	 6	 0.159093	 -1.738540	 -0.453114	 0.336526	 -1.469008	 -1.851803	 -0.297860	 0.602762	 -0.652203	 0.350125	 2
1463629538.967	 6	 0.165775	 -1.913982	 -0.443082	 0.271140	 -1.468687	 -1.898866	 -0.304945	 0.598251	 -0.650715	 0.354505	 2
1463629538.977	 6	 -0.050862	 -2.162042	 -0.416860	 0.209388	 -1.469490	 -1.939780	 -0.313003	 0.593774	 -0.648280	 0.359438	 2
1463629538.987	 6	 -0.496400	 -2.290345	 -0.396057	 0.153500	 -1.473917	 -1.973185	 -0.322200	 0.590247	 -0.644304	 0.364236	 2
1463629538.997	 6	 -1.000983	 -2.352852	 -0.272879	 0.109003	 -1.483009	 -1.994393	 -0.332224	 0.588260	 -0.638472	 0.368688	 2
1463629539.007	 6	 -1.477218	 -2.355298	 -0.069458	 0.086247	 -1.496663	 -1.993528	 -0.342610	 0.587983	 -0.630723	 0.372939	 2
1463629539.017	 6	 -1.961654	 -2.179071	 0.275312	 0.119323	 -1.514777	 -1.937969	 -0.352545	 0.589844	 -0.621097	 0.376874	 2
1463629539.027	 6	 -2.361189	 -1.420269	 0.615162	 0.330496	 -1.535878	 -1.710153	 -0.360302	 0.594703	 -0.610416	 0.379346	 2
1463629539.037	 6	 -2.508240	 -0.407986	 0.811305	 1.158622	 -1.550221	 -0.875169	 -0.364723	 0.602375	 -0.600320	 0.379126	 2
1463629539.057	 7	 -2.482177	 0.616869	 1.050819	 2.395337	 -1.514663	 0.354490	 -0.365813	 0.621914	 -0.582987	 0.373537	 2
1463629539.067	 7	 -2.750970	 1.036188	 1.124204	 2.523657	 -1.486840	 0.474193	 -0.364766	 0.633341	 -0.574146	 0.369028	 2
1463629539.077	 7	 -2.682668	 2.228653	 1.320148	 2.589094	 -1.457062	 0.520958	 -0.360345	 0.646880	 -0.566511	 0.361612	 2
1463629539.087	 7	 -2.092859	 3.704402	 1.630356	 2.610410	 -1.429726	 0.508759	 -0.349897	 0.661956	 -0.562294	 0.351015	 2
1463629539.097	 7	 -1.376310	 4.818855	 2.037346	 2.600032	 -1.406573	 0.451964	 -0.333261	 0.677483	 -0.561606	 0.338456	 2
1463629539.107	 7	 -0.856887	 5.440215	 2.569355	 2.565590	 -1.385474	 0.363090	 -0.311628	 0.692931	 -0.562817	 0.325532	 2
1463629539.117	 7	 -0.613067	 5.778397	 3.101128	 2.517967	 -1.363244	 0.256331	 -0.286174	 0.708338	 -0.564303	 0.312927	 2
1463629539.127	 7	 -0.649919	 5.822474	 3.443969	 2.472571	 -1.337937	 0.150058	 -0.258578	 0.723633	 -0.564848	 0.300731	 2
1463629539.137	 7	 -1.059218	 5.456892	 3.466512	 2.444568	 -1.308678	 0.063667	 -0.231479	 0.738756	 -0.563131	 0.289033	 2
1463629539.147	 7	 -1.662552	 4.595016	 3.320933	 2.437224	 -1.275456	 0.005928	 -0.207607	 0.753524	 -0.558005	 0.278805	 2
1463629539.157	 7	 -2.118074	 3.705394	 3.075758	 2.442461	 -1.239761	 -0.029978	 -0.187481	 0.767618	 -0.549921	 0.270557	 2
1463629539.167	 7	 -2.439814	 2.580217	 2.669495	 2.454005	 -1.203788	 -0.048319	 -0.172043	 0.780415	 -0.539628	 0.264869	 2
1463629539.177	 7	 -2.635195	 1.174247	 2.167862	 2.465553	 -1.169169	 -0.052408	 -0.162329	 0.791276	 -0.527692	 0.262816	 2
1463629539.187	 7	 -2.648553	 -0.147850	 1.718713	 2.472584	 -1.137021	 -0.046568	 -0.158170	 0.799895	 -0.514840	 0.264746	 2
1463629539.197	 7	 -2.340844	 -1.241625	 1.496967	 2.469000	 -1.108360	 -0.039574	 -0.157741	 0.805978	 -0.502223	 0.270720	 2
1463629539.207	 7	 -1.924770	 -1.818304	 1.344100	 2.455665	 -1.083913	 -0.035272	 -0.159203	 0.809742	 -0.490778	 0.279480	 2
1463629539.217	 7	 -1.667558	 -1.695637	 1.203387	 2.440784	 -1.062790	 -0.032149	 -0.160913	 0.812406	 -0.480640	 0.288251	 2
1463629539.227	 7	 -1.593698	 -1.132687	 1.128050	 2.430857	 -1.043184	 -0.028700	 -0.161681	 0.815258	 -0.471410	 0.294935	 2
1463629539.237	 7	 -1.574520	 -0.444728	 1.108707	 2.427962	 -1.023953	 -0.024927	 -0.160924	 0.818937	 -0.462804	 0.298760	 2
1463629539.247	 7	 -1.406285	 0.128278	 1.138152	 2.429655	 -1.005523	 -0.022920	 -0.158500	 0.823193	 -0.455110	 0.300178	 2
1463629539.257	 7	 -1.006217	 0.418641	 1.299367	 2.429792	 -0.988864	 -0.027004	 -0.154188	 0.827234	 -0.448895	 0.300672	 2
1463629539.267	 7	 -0.621511	 0.714612	 1.347796	 2.427849	 -0.974698	 -0.037019	 -0.148242	 0.830793	 -0.444418	 0.300499	 2
1463629539.277	 7	 -0.356165	 0.927037	 1.267530	 2.426468	 -0.963109	 -0.049430	 -0.141535	 0.833974	 -0.441397	 0.299373	 2
1463629539.287	 7	 -0.175922	 0.961111	 1.199135	 2.425106	 -0.953503	 -0.062836	 -0.134685	 0.836728	 -0.439336	 0.297877	 2
1463629539.297	 7	 0.022085	 0.890052	 1.160514	 2.422167	 -0.945578	 -0.077654	 -0.127825	 0.838915	 -0.438070	 0.296610	 2
1463629539.307	 7	 0.238143	 0.829321	 1.086662	 2.417435	 -0.939636	 -0.093914	 -0.121047	 0.840446	 -0.437729	 0.295619	 2
1463629539.317	 7	 0.386904	 0.819283	 0.936066	 2.412466	 -0.935800	 -0.110224	 -0.114628	 0.841452	 -0.438261	 0.294525	 2
1463629539.327	 7	 0.508369	 0.902938	 0.787646	 2.408606	 -0.933857	 -0.125905	 -0.108541	 0.842150	 -0.439550	 0.292913	 2
1463629539.337	 7	 0.620567	 1.043120	 0.656885	 2.406410	 -0.933658	 -0.141172	 -0.102560	 0.842675	 -0.441579	 0.290496	 2
1463629539.347	 7	 0.731596	 1.151488	 0.538627	 2.405570	 -0.935054	 -0.156207	 -0.096655	 0.843027	 -0.444280	 0.287365	 2
1463629539.357	 7	 0.846531	 1.190643	 0.411165	 2.405523	 -0.938137	 -0.171001	 -0.090976	 0.843108	 -0.447649	 0.283731	 2
1463629539.367	 7	 0.945111	 1.214453	 0.214428	 2.406280	 -0.943121	 -0.184943	 -0.085818	 0.842852	 -0.451675	 0.279689	 2
1463629539.377	 7	 1.007241	 1.307662	 -0.107106	 2.410071	 -0.950635	 -0.196064	 -0.081618	 0.842365	 -0.456424	 0.274658	 2
1463629539.387	 7	 1.072080	 1.343029	 -0.483555	 2.417681	 -0.961089	 -0.203198	 -0.078735	 0.841613	 -0.461928	 0.268533	 2
1463629539.397	 7	 1.180911	 1.211205	 -0.870470	 2.427717	 -0.974823	 -0.206258	 -0.077547	 0.840307	 -0.468271	 0.261902	 2
1463629539.407	 7	 1.390067	 1.047472	 -1.216990	 2.438571	 -0.992297	 -0.206289	 -0.078028	 0.838137	 -0.475735	 0.255173	 2
1463629539.417	 7	 1.807930	 0.682998	 -1.440370	 2.446426	 -1.014135	 -0.206528	 -0.079811	 0.834568	 -0.484837	 0.249116	 2
1463629539.427	 7	 2.111781	 -0.257290	 -1.472014	 2.442846	 -1.039774	 -0.210686	 -0.083367	 0.828805	 -0.495420	 0.246354	 2
1463629539.437	 7	 1.029542	 -0.999543	 -1.156164	 2.435408	 -1.058385	 -0.209212	 -0.089047	 0.823762	 -0.502271	 0.247408	 2
1463629539.447	 7	 -0.585946	 0.339175	 -0.540275	 2.445944	 -1.061460	 -0.195566	 -0.092548	 0.823762	 -0.502278	 0.246104	 2
1463629539.457	 7	 -1.370993	 0.655904	 -0.009334	 2.468735	 -1.052596	 -0.177655	 -0.092771	 0.827692	 -0.497627	 0.242254	 2
1463629539.467	 7	 -1.082726	 0.219964	 0.272921	 2.481890	 -1.041790	 -0.166033	 -0.092591	 0.831155	 -0.492503	 0.240935	 2
1463629539.477	 7	 -0.379530	 0.034301	 0.475026	 2.482604	 -1.034785	 -0.166026	 -0.091301	 0.832797	 -0.489714	 0.241439	 2
1463629539.487	 7	 0.106909	 -0.070808	 0.550810	 2.474968	 -1.031494	 -0.174456	 -0.089130	 0.832979	 -0.489065	 0.242935	 2
1463629539.497	 7	 0.328044	 -0.180531	 0.470063	 2.463976	 -1.030640	 -0.185418	 -0.087115	 0.832308	 -0.489575	 0.244930	 2
1463629539.507	 7	 0.398267	 -0.173736	 0.408766	 2.452621	 -1.031000	 -0.196546	 -0.085330	 0.831314	 -0.490597	 0.246882	 2
1463629539.517	 7	 0.388193	 -0.244157	 0.374094	 2.441371	 -1.031580	 -0.207130	 -0.083795	 0.830242	 -0.491665	 0.248884	 2
1463629539.527	 7	 0.462594	 -0.339825	 0.411990	 2.428362	 -1.032298	 -0.218508	 -0.082402	 0.828934	 -0.492832	 0.251388	 2
1463629539.537	 7	 0.668540	 -0.163476	 0.466191	 2.413535	 -1.033895	 -0.233095	 -0.080308	 0.827315	 -0.494701	 0.253714	 2
1463629539.547	 7	 0.734975	 0.106601	 0.481981	 2.399785	 -1.036196	 -0.249755	 -0.077253	 0.825739	 -0.497179	 0.254950	 2
1463629539.557	 7	 0.348272	 -0.075399	 0.601954	 2.387470	 -1.035835	 -0.264097	 -0.074332	 0.824783	 -0.498406	 0.256513	 2
1463629539.567	 7	 -0.241709	 -0.683586	 0.830570	 2.373989	 -1.029824	 -0.273860	 -0.072514	 0.824634	 -0.496842	 0.260514	 2
1463629539.577	 7	 -0.807541	 -1.395731	 0.813950	 2.359581	 -1.019117	 -0.276240	 -0.073017	 0.824984	 -0.492488	 0.267442	 2
1463629539.587	 7	 -0.910357	 -1.458141	 0.526508	 2.348356	 -1.008267	 -0.271993	 -0.075384	 0.825466	 -0.487295	 0.274713	 2
1463629539.597	 7	 -0.407690	 -1.208587	 0.235632	 2.338669	 -1.002179	 -0.268234	 -0.078078	 0.825176	 -0.484043	 0.280519	 2
1463629539.607	 7	 0.607373	 -0.073225	 0.273595	 2.327852	 -1.002813	 -0.275969	 -0.077638	 0.823829	 -0.484957	 0.283011	 2
1463629539.617	 7	 0.897009	 1.119545	 0.307751	 2.322776	 -1.006633	 -0.292367	 -0.072899	 0.822989	 -0.488546	 0.280530	 2
1463629539.627	 7	 0.362129	 1.154612	 -0.059217	 2.328524	 -1.009837	 -0.300084	 -0.068970	 0.823442	 -0.491051	 0.275781	 2
1463629539.637	 7	 -0.226785	 0.168544	 -0.457597	 2.338192	 -1.011847	 -0.294018	 -0.069502	 0.824167	 -0.491325	 0.272979	 2
1463629539.647	 7	 -0.501492	 -1.087387	 -0.688571	 2.342896	 -1.013265	 -0.279425	 -0.074646	 0.824006	 -0.490043	 0.274407	 2
1463629539.657	 7	 -0.436944	 -2.276131	 -0.757746	 2.336785	 -1.015354	 -0.263142	 -0.083258	 0.822101	 -0.488349	 0.280595	 2
1463629539.667	 7	 -0.128882	 -3.053262	 -0.729292	 2.318635	 -1.019224	 -0.250480	 -0.093651	 0.818177	 -0.487229	 0.290558	 2
1463629539.677	 7	 0.391201	 -3.238473	 -0.685453	 2.290924	 -1.026036	 -0.245057	 -0.104002	 0.812440	 -0.487666	 0.302169	 2
1463629539.687	 8	 1.037054	 -2.791101	 -0.627231	 2.257316	 -1.036607	 -0.249967	 -0.112445	 0.805429	 -0.490608	 0.312959	 2
1463629539.707	 8	 1.796144	 -1.071045	 -0.439852	 2.189262	 -1.063886	 -0.288707	 -0.119889	 0.791431	 -0.502925	 0.326082	 2
1463629539.717	 8	 1.881468	 -0.393859	 -0.451345	 2.160256	 -1.078096	 -0.315506	 -0.119964	 0.785547	 -0.510665	 0.328247	 2
1463629539.737	 9	 1.874370	 -0.047287	 -0.769919	 2.109544	 -1.108935	 -0.370938	 -0.118964	 0.774701	 -0.527441	 0.327860	 2
1463629539.747	 9	 1.699373	 -0.269951	 -1.037974	 2.086501	 -1.126118	 -0.394342	 -0.120370	 0.769142	 -0.535663	 0.327104	 2
1463629539.757	 9	 1.436063	 -0.673083	 -1.294149	 2.065407	 -1.144177	 -0.411390	 -0.124154	 0.763412	 -0.543093	 0.326860	 2
1463629539.767	 9	 1.175923	 -1.133222	 -1.490135	 2.045736	 -1.162729	 -0.421758	 -0.130411	 0.757447	 -0.549511	 0.327573	 2
1463629539.777	 9	 1.002887	 -1.500672	 -1.629531	 2.026539	 -1.181673	 -0.427228	 -0.138639	 0.751177	 -0.555104	 0.329199	 2
1463629539.787	 9	 0.900250	 -1.709334	 -1.697722	 2.007238	 -1.200870	 -0.430051	 -0.148073	 0.744641	 -0.560144	 0.331395	 2
1463629539.807	 10	 0.853645	 -1.731760	 -1.582422	 1.966077	 -1.237713	 -0.436505	 -0.167264	 0.731419	 -0.569098	 0.336419	 2
1463629539.817	 10	 0.985876	 -1.614393	 -1.478037	 1.940195	 -1.255197	 -0.446435	 -0.175847	 0.724645	 -0.573668	 0.338928	 2
1463629539.827	 10	 1.180169	 -1.465270	 -1.369633	 1.906928	 -1.272199	 -0.465566	 -0.183288	 0.717580	 -0.578766	 0.341341	 2
1463629539.847	 11	 1.444810	 -1.392433	 -1.192212	 1.813268	 -1.303954	 -0.534236	 -0.195529	 0.702442	 -0.590166	 0.346479	 2
1463629539.857	 11	 1.434828	 -1.520683	 -1.134701	 1.754518	 -1.318237	 -0.579702	 -0.201419	 0.694446	 -0.595736	 0.349676	 2
1463629539.867	 11	 1.341149	 -1.745478	 -1.077360	 1.690443	 -1.331101	 -0.628395	 -0.207824	 0.686278	 -0.600651	 0.353624	 2
1463629539.877	 11	 1.225889	 -2.004385	 -1.039333	 1.622380	 -1.342604	 -0.678411	 -0.215011	 0.677940	 -0.604737	 0.358414	 2
1463629539.887	 11	 1.087338	 -2.197506	 -1.032463	 1.552106	 -1.353120	 -0.728407	 -0.222987	 0.669521	 -0.608028	 0.363759	 2
1463629539.897	 11	 0.947897	 -2.342851	 -1.037930	 1.481046	 -1.362940	 -0.777478	 -0.231672	 0.661120	 -0.610567	 0.369399	 2
1463629539.907	 11	 0.805594	 -2.415866	 -1.043765	 1.410035	 -1.372240	 -0.825481	 -0.240863	 0.652838	 -0.612450	 0.375089	 2
1463629539.917	 11	 0.575940	 -2.460924	 -1.043251	 1.343429	 -1.381239	 -0.868356	 -0.250560	 0.644967	 -0.613475	 0.380639	 2
1463629539.927	 11	 0.356435	 -2.380591	 -1.054447	 1.284084	 -1.390378	 -0.904235	 -0.260541	 0.637766	 -0.613714	 0.385653	 2
1463629539.937	 11	 0.250621	 -2.177235	 -1.068686	 1.228734	 -1.399643	 -0.937677	 -0.270267	 0.631182	 -0.613653	 0.389865	 2
1463629539.947	 11	 0.261379	 -1.872532	 -1.140547	 1.171059	 -1.409167	 -0.976418	 -0.279265	 0.625057	 -0.613964	 0.392890	 2
1463629539.957	 11	 0.339213	 -1.595724	 -1.218581	 1.104349	 -1.418742	 -1.027099	 -0.287492	 0.619103	 -0.614956	 0.394827	 2
1463629539.967	 11	 0.408753	 -1.306851	 -1.249538	 1.026733	 -1.427735	 -1.091605	 -0.294802	 0.613345	 -0.616623	 0.395822	 2
1463629539.977	 11	 0.413184	 -1.059990	 -1.233424	 0.941736	 -1.435747	 -1.166201	 -0.301192	 0.608008	 -0.618695	 0.396013	 2
1463629539.987	 11	 0.337745	 -1.014880	 -1.203572	 0.852931	 -1.442961	 -1.245510	 -0.307296	 0.603026	 -0.620643	 0.395893	 2
1463629539.997	 11	 0.218849	 -1.164016	 -1.136781	 0.763490	 -1.449594	 -1.324379	 -0.313745	 0.598240	 -0.621947	 0.396050	 2
1463629540.007	 11	 0.075809	 -1.508317	 -1.005520	 0.677131	 -1.455642	 -1.397133	 -0.321021	 0.593440	 -0.622108	 0.397185	 2
1463629540.017	 11	 -0.078868	 -1.830257	 -0.875019	 0.597004	 -1.461303	 -1.460009	 -0.329244	 0.588568	 -0.620933	 0.399536	 2
1463629540.027	 11	 -0.276643	 -1.991650	 -0.770354	 0.525452	 -1.467467	 -1.512313	 -0.338094	 0.584018	 -0.618610	 0.402414	 2
1463629540.037	 11	 -0.486046	 -2.146479	 -0.645278	 0.465676	 -1.474515	 -1.551245	 -0.347430	 0.579952	 -0.615104	 0.405704	 2
1463629540.047	 11	 -0.701109	 -2.358823	 -0.533476	 0.417632	 -1.482749	 -1.576346	 -0.357428	 0.576244	 -0.610319	 0.409510	 2
1463629540.057	 11	 -0.951484	 -2.588110	 -0.425788	 0.383772	 -1.492675	 -1.584916	 -0.368240	 0.572902	 -0.604111	 0.413802	 2
1463629540.067	 11	 -1.241931	 -2.739428	 -0.289315	 0.374284	 -1.504745	 -1.567253	 -0.379745	 0.570155	 -0.596387	 0.418378	 2
1463629540.077	 11	 -1.544295	 -2.915462	 0.100683	 0.440085	 -1.518353	 -1.472707	 -0.391362	 0.568440	 -0.586744	 0.423607	 2
1463629540.087	 11	 -1.804687	 -2.809598	 0.513188	 0.692617	 -1.530940	 -1.191352	 -0.402172	 0.568265	 -0.575220	 0.429481	 2
1463629540.097	 11	 -2.050280	 -2.334077	 0.719048	 1.222060	 -1.537081	 -0.636726	 -0.411603	 0.569933	 -0.563055	 0.434429	 2
1463629540.107	 11	 -2.260388	 -1.498764	 0.833095	 1.818103	 -1.529864	 -0.023101	 -0.418927	 0.574028	 -0.551402	 0.436974	 2
1463629540.117	 11	 -2.229870	 -0.547227	 0.937603	 2.152299	 -1.512181	 0.319355	 -0.423365	 0.580389	 -0.541250	 0.436989	 2
1463629540.127	 11	 -2.018520	 0.306756	 1.009786	 2.303960	 -1.491579	 0.470295	 -0.424708	 0.588305	 -0.533246	 0.434936	 2
1463629540.137	 11	 -1.871266	 0.930042	 1.070789	 2.380957	 -1.470819	 0.539670	 -0.423587	 0.597265	 -0.527030	 0.431378	 2
1463629540.147	 11	 -2.082444	 1.314373	 1.182781	 2.436941	 -1.448152	 0.583627	 -0.421206	 0.607607	 -0.521097	 0.426447	 2
1463629540.157	 11	 -2.289609	 1.715101	 1.210694	 2.488192	 -1.423018	 0.619228	 -0.418149	 0.619360	 -0.514976	 0.419933	 2
1463629540.167	 11	 -1.986348	 2.297171	 1.371203	 2.521445	 -1.398301	 0.631190	 -0.412907	 0.631940	 -0.510120	 0.412234	 2
1463629540.177	 11	 -1.200955	 2.884625	 1.735388	 2.521605	 -1.377313	 0.603380	 -0.403588	 0.644487	 -0.507891	 0.404722	 2
1463629540.187	 11	 -0.311669	 3.034134	 2.177722	 2.486180	 -1.360773	 0.536233	 -0.390221	 0.656026	 -0.508053	 0.399049	 2
1463629540.197	 11	 0.316926	 2.729713	 2.546696	 2.422829	 -1.346577	 0.442446	 -0.374539	 0.665876	 -0.509169	 0.396329	 2
1463629540.207	 11	 0.353543	 2.363418	 2.797686	 2.351652	 -1.330634	 0.344061	 -0.358327	 0.674771	 -0.509550	 0.395784	 2
1463629540.217	 11	 -0.159521	 2.016496	 3.004617	 2.294144	 -1.308963	 0.263038	 -0.342971	 0.684133	 -0.507343	 0.396152	 2
1463629540.227	 11	 -0.736564	 1.745779	 3.133948	 2.257174	 -1.281376	 0.205842	 -0.328887	 0.694454	 -0.502143	 0.396760	 2
1463629540.237	 11	 -1.093837	 1.577638	 3.123770	 2.236167	 -1.250537	 0.166939	 -0.315919	 0.705245	 -0.494952	 0.397301	 2
1463629540.257	 12	 -1.366634	 1.641545	 2.879483	 2.224038	 -1.187771	 0.120310	 -0.292038	 0.726831	 -0.478749	 0.396523	 2
1463629540.267	 12	 -1.442027	 1.803787	 2.781468	 2.227865	 -1.156836	 0.105409	 -0.280421	 0.737704	 -0.470490	 0.394709	 2
1463629540.277	 12	 -1.495762	 2.027696	 2.689167	 2.236804	 -1.126323	 0.093529	 -0.268659	 0.748769	 -0.462354	 0.391659	 2
1463629540.287	 12	 -1.525258	 2.191928	 2.590770	 2.249443	 -1.096393	 0.083583	 -0.256810	 0.759886	 -0.454359	 0.387530	 2
1463629540.307	 13	 -1.462316	 2.157079	 2.357561	 2.278952	 -1.039467	 0.066727	 -0.233820	 0.781095	 -0.438808	 0.377713	 2
1463629540.317	 13	 -1.319806	 2.004978	 2.414588	 2.290564	 -1.012492	 0.056383	 -0.222535	 0.790624	 -0.431306	 0.373319	 2
1463629540.327	 13	 -1.116659	 1.860788	 2.413609	 2.298195	 -0.986607	 0.042909	 -0.211020	 0.799270	 -0.424220	 0.369696	 2
1463629540.337	 13	 -0.914113	 1.693365	 2.288790	 2.303292	 -0.962841	 0.028076	 -0.199796	 0.806887	 -0.417850	 0.366628	 2
1463629540.347	 13	 -0.720471	 1.512648	 2.087191	 2.306734	 -0.941804	 0.013182	 -0.189297	 0.813409	 -0.412343	 0.364012	 2
1463629540.357	 13	 -0.496115	 1.305053	 1.858430	 2.308508	 -0.923883	 -0.001530	 -0.179699	 0.818782	 -0.407855	 0.361882	 2
1463629540.367	 13	 -0.246991	 1.158954	 1.612973	 2.308630	 -0.909402	 -0.016250	 -0.170992	 0.823013	 -0.404590	 0.360165	 2
1463629540.377	 13	 -0.005454	 1.203354	 1.380013	 2.308782	 -0.898353	 -0.031134	 -0.162787	 0.826464	 -0.402743	 0.358128	 2
1463629540.387	 13	 0.130879	 1.326905	 1.165758	 2.310540	 -0.890071	 -0.045465	 -0.154961	 0.829525	 -0.402037	 0.355305	 2
1463629540.397	 13	 0.143716	 1.487208	 0.982761	 2.315173	 -0.883493	 -0.058134	 -0.147536	 0.832562	 -0.401922	 0.351472	 2
1463629540.407	 13	 0.132297	 1.673414	 0.841781	 2.323024	 -0.877987	 -0.069038	 -0.140381	 0.835760	 -0.402123	 0.346547	 2
1463629540.417	 13	 0.144179	 1.818104	 0.705540	 2.333597	 -0.873553	 -0.078541	 -0.133449	 0.839061	 -0.402651	 0.340648	 2
1463629540.427	 13	 0.202315	 1.842228	 0.535802	 2.345671	 -0.870657	 -0.086868	 -0.126980	 0.842181	 -0.403644	 0.334183	 2
1463629540.437	 13	 0.319409	 1.735018	 0.319567	 2.357801	 -0.869993	 -0.094123	 -0.121346	 0.844763	 -0.405322	 0.327666	 2
1463629540.447	 13	 0.490340	 1.539060	 0.060472	 2.368929	 -0.872266	 -0.100389	 -0.116846	 0.846517	 -0.407945	 0.321459	 2
1463629540.457	 13	 0.697193	 1.322304	 -0.265206	 2.378871	 -0.878125	 -0.105350	 -0.113760	 0.847288	 -0.411742	 0.315642	 2
1463629540.467	 13	 0.927121	 1.107912	 -0.695508	 2.388396	 -0.888428	 -0.108096	 -0.112453	 0.846983	 -0.416987	 0.309994	 2
1463629540.487	 14	 1.403464	 0.657979	 -1.679014	 2.408439	 -0.924220	 -0.103615	 -0.116310	 0.842796	 -0.432272	 0.298844	 2
1463629540.497	 14	 1.613034	 0.329613	 -1.994032	 2.418221	 -0.948740	 -0.096772	 -0.121200	 0.838870	 -0.441950	 0.293747	 2
1463629540.507	 14	 1.704288	 -0.248069	 -1.976755	 2.422854	 -0.974711	 -0.090080	 -0.127282	 0.833707	 -0.451922	 0.290686	 2
1463629540.517	 14	 1.175059	 -0.886097	 -1.731893	 2.422493	 -0.996765	 -0.081698	 -0.134471	 0.828373	 -0.459687	 0.290522	 2
1463629540.527	 14	 0.191202	 -0.956019	 -1.358421	 2.424816	 -1.009733	 -0.066782	 -0.142204	 0.824836	 -0.462955	 0.291711	 2
1463629540.537	 14	 -0.854353	 0.691000	 -0.825623	 2.445571	 -1.011344	 -0.045197	 -0.146567	 0.825927	 -0.461982	 0.287983	 2
1463629540.547	 14	 -0.814277	 0.993027	 -0.228466	 2.469502	 -1.006722	 -0.029115	 -0.147010	 0.829198	 -0.459548	 0.282195	 2
1463629540.557	 14	 -0.022067	 0.396819	 0.303693	 2.475267	 -1.003768	 -0.028887	 -0.145347	 0.830657	 -0.458718	 0.280107	 2
1463629540.577	 15	 0.920182	 -0.302901	 0.849569	 2.441406	 -1.005798	 -0.066740	 -0.137756	 0.828097	 -0.462506	 0.285248	 2
1463629540.587	 15	 0.726534	 -0.676172	 0.632498	 2.419072	 -1.007210	 -0.086390	 -0.135034	 0.825916	 -0.464383	 0.289789	 2
1463629540.597	 15	 0.459333	 -0.961556	 0.331624	 2.399762	 -1.008412	 -0.098451	 -0.134748	 0.823645	 -0.465329	 0.294823	 2
1463629540.607	 15	 0.350413	 -0.832714	 0.161117	 2.384613	 -1.009750	 -0.105875	 -0.135451	 0.821607	 -0.465947	 0.299179	 2
1463629540.617	 15	 0.368322	 -0.579229	 0.069533	 2.373335	 -1.011735	 -0.111689	 -0.136043	 0.819878	 -0.466851	 0.302230	 2
1463629540.627	 15	 0.519289	 -0.489137	 0.087175	 2.362149	 -1.014578	 -0.118927	 -0.136199	 0.818063	 -0.468322	 0.304792	 2
1463629540.637	 15	 0.822974	 -0.411941	 0.148129	 2.347821	 -1.018856	 -0.130665	 -0.135543	 0.815752	 -0.470843	 0.307382	 2
1463629540.647	 15	 1.020801	 -0.256954	 0.333292	 2.329896	 -1.023684	 -0.148125	 -0.133564	 0.813134	 -0.474234	 0.309961	 2
1463629540.658	 15	 0.913399	 -0.085290	 0.494623	 2.312088	 -1.026856	 -0.167561	 -0.130515	 0.810980	 -0.477319	 0.312159	 2
1463629540.668	 15	 0.583808	 -0.175768	 0.644791	 2.295618	 -1.026901	 -0.185243	 -0.127298	 0.809530	 -0.479046	 0.314598	 2
1463629540.678	 15	 0.104332	 -0.570034	 0.497156	 2.282198	 -1.024155	 -0.195585	 -0.125777	 0.808625	 -0.478774	 0.317931	 2
1463629540.688	 15	 -0.205070	 -0.962855	 0.177532	 2.272522	 -1.021239	 -0.196693	 -0.127048	 0.807740	 -0.477221	 0.321987	 2
1463629540.698	 15	 -0.253787	 -1.116703	 -0.083521	 2.264855	 -1.019790	 -0.192682	 -0.130196	 0.806533	 -0.475522	 0.326241	 2
1463629540.708	 15	 -0.209173	 -0.037038	 -0.344567	 2.266312	 -1.020521	 -0.186113	 -0.132648	 0.806191	 -0.474825	 0.327111	 2
1463629540.718	 15	 -0.379136	 1.519406	 -0.653661	 2.288283	 -1.022804	 -0.174231	 -0.132688	 0.808494	 -0.475237	 0.320751	 2
1463629540.728	 15	 -0.446800	 1.871903	 -0.913035	 2.321834	 -1.026160	 -0.156816	 -0.132418	 0.811938	 -0.476015	 0.310857	 2
1463629540.738	 15	 -0.489156	 1.142550	 -1.037753	 2.352800	 -1.030215	 -0.136723	 -0.133970	 0.814484	 -0.476588	 0.302542	 2
1463629540.748	 15	 -0.591176	 -0.122849	 -1.037982	 2.374212	 -1.033473	 -0.114277	 -0.138601	 0.815465	 -0.475962	 0.298776	 2
1463629540.758	 15	 -0.332905	 -1.634692	 -0.849673	 2.377522	 -1.036646	 -0.095752	 -0.145913	 0.813944	 -0.474679	 0.301470	 2
1463629540.768	 15	 0.236178	 -2.853983	 -0.674136	 2.359470	 -1.042202	 -0.086811	 -0.154789	 0.809276	 -0.474162	 0.310295	 2
1463629540.778	 15	 0.877251	 -3.482423	 -0.540622	 2.323821	 -1.051308	 -0.089109	 -0.163952	 0.801788	 -0.475275	 0.323063	 2
1463629540.788	 15	 1.475333	 -3.443253	 -0.470862	 2.277054	 -1.063782	 -0.102715	 -0.172014	 0.792449	 -0.478442	 0.336940	 2
1463629540.798	 15	 1.981002	 -2.865583	 -0.395286	 2.224851	 -1.078689	 -0.127534	 -0.177754	 0.782391	 -0.483818	 0.349554	 2
1463629540.808	 15	 2.258614	 -1.992637	 -0.321371	 2.172455	 -1.094440	 -0.161686	 -0.180562	 0.772766	 -0.491035	 0.359324	 2
1463629540.818	 15	 2.098417	 -1.181114	 -0.241019	 2.125735	 -1.108425	 -0.198720	 -0.181001	 0.764692	 -0.498590	 0.365913	 2
1463629540.827	 15	 1.609650	 -0.888820	 -0.319304	 2.089030	 -1.119808	 -0.229394	 -0.181184	 0.758368	 -0.504929	 0.370266	 2
1463629540.838	 15	 1.000813	 -1.210371	 -0.612211	 2.062256	 -1.129987	 -0.246872	 -0.183818	 0.752919	 -0.509257	 0.374140	 2
1463629540.848	 15	 0.545062	 -1.785286	 -1.020714	 2.042767	 -1.141069	 -0.250303	 -0.190224	 0.747343	 -0.511854	 0.378547	 2
1463629540.858	 15	 0.407794	 -2.252729	 -1.440582	 2.026131	 -1.154902	 -0.244964	 -0.199901	 0.740860	 -0.513874	 0.383536	 2
1463629540.868	 15	 0.455679	 -2.480547	 -1.742598	 2.009437	 -1.171953	 -0.236627	 -0.211517	 0.733300	 -0.516231	 0.388634	 2
1463629540.878	 15	 0.610987	 -2.417582	 -1.943727	 1.991621	 -1.191535	 -0.229365	 -0.223672	 0.724978	 -0.519328	 0.393288	 2
1463629540.888	 15	 0.802175	 -2.096393	 -2.015941	 1.972656	 -1.212943	 -0.226297	 -0.235102	 0.716398	 -0.523507	 0.396788	 2
1463629540.898	 15	 1.005955	 -1.720966	 -1.937487	 1.950795	 -1.234756	 -0.230229	 -0.244979	 0.707913	 -0.528640	 0.399230	 2
1463629540.908	 15	 1.190552	 -1.407652	 -1.778446	 1.923573	 -1.255850	 -0.243347	 -0.253016	 0.699640	 -0.534475	 0.401029	 2
1463629540.918	 15	 1.297859	 -1.203549	 -1.603762	 1.890121	 -1.275612	 -0.265345	 -0.259536	 0.691595	 -0.540623	 0.402571	 2
1463629540.928	 15	 1.355503	 -1.100518	 -1.453032	 1.850210	 -1.293769	 -0.295262	 -0.264985	 0.683738	 -0.546765	 0.404146	 2
1463629540.938	 15	 1.393351	 -1.089182	 -1.341351	 1.803233	 -1.310504	 -0.332720	 -0.269811	 0.675902	 -0.552791	 0.405932	 2
1463629540.948	 15	 1.367664	 -1.194692	 -1.234468	 1.749307	 -1.325673	 -0.376398	 -0.274477	 0.667988	 -0.558407	 0.408211	 2
1463629540.958	 15	 1.291728	 -1.311821	 -1.136846	 1.690122	 -1.339086	 -0.424066	 -0.279245	 0.660069	 -0.563357	 0.411047	 2
1463629540.968	 15	 1.205351	 -1.349414	 -1.075695	 1.627594	 -1.351013	 -0.474441	 -0.284081	 0.652293	 -0.567740	 0.414105	 2
1463629540.978	 15	 1.136364	 -1.123034	 -0.980267	 1.563969	 -1.361380	 -0.527308	 -0.288369	 0.645084	 -0.571855	 0.416763	 2
1463629540.988	 15	 1.031172	 -1.275681	 -0.951996	 1.498932	 -1.370469	 -0.581423	 -0.292653	 0.638130	 -0.575507	 0.419447	 2
1463629540.998	 15	 0.794886	 -1.492846	 -1.073456	 1.435853	 -1.379880	 -0.630830	 -0.298346	 0.631051	 -0.578248	 0.422367	 2
1463629541.008	 15	 0.593917	 -1.451751	 -1.207742	 1.377467	 -1.390470	 -0.675361	 -0.304930	 0.624330	 -0.580541	 0.424501	 2
1463629541.018	 15	 0.426594	 -1.347519	 -1.275658	 1.322042	 -1.401746	 -0.717579	 -0.311877	 0.618079	 -0.582541	 0.425860	 2
1463629541.028	 15	 0.279093	 -1.133618	 -1.319277	 1.270300	 -1.413500	 -0.757992	 -0.318699	 0.612574	 -0.584423	 0.426184	 2
1463629541.038	 15	 0.208436	 -0.927307	 -1.351912	 1.218518	 -1.425535	 -0.800440	 -0.325207	 0.607675	 -0.586378	 0.425597	 2
1463629541.048	 15	 0.232244	 -0.642234	 -1.338809	 1.161361	 -1.437173	 -0.851247	 -0.330808	 0.603364	 -0.588783	 0.424090	 2
1463629541.058	 15	 0.272978	 -0.580864	 -1.366303	 1.091579	 -1.448300	 -0.915460	 -0.336128	 0.599039	 -0.591426	 0.422357	 2
1463629541.068	 15	 0.330832	 -0.725969	 -1.405459	 1.002548	 -1.458819	 -0.998519	 -0.341567	 0.594361	 -0.594201	 0.420705	 2
1463629541.078	 15	 0.305522	 -0.900221	 -1.390873	 0.893642	 -1.468330	 -1.099266	 -0.347635	 0.589156	 -0.596589	 0.419675	 2
1463629541.088	 15	 0.252871	 -1.040968	 -1.313924	 0.773084	 -1.476484	 -1.210397	 -0.353984	 0.583946	 -0.598406	 0.419061	 2
1463629541.098	 15	 0.261950	 -1.279210	 -1.162750	 0.642514	 -1.482366	 -1.329237	 -0.360605	 0.578456	 -0.599500	 0.419466	 2
1463629541.108	 15	 0.284527	 -1.390751	 -0.988134	 0.511902	 -1.485663	 -1.446578	 -0.367100	 0.572863	 -0.599975	 0.420827	 2
1463629541.118	 15	 0.283903	 -1.462705	 -0.790566	 0.393222	 -1.486753	 -1.551172	 -0.373229	 0.567390	 -0.599897	 0.422957	 2
1463629541.128	 15	 0.140556	 -1.495775	 -0.569013	 0.300918	 -1.487118	 -1.628874	 -0.379054	 0.562499	 -0.598952	 0.425639	 2
1463629541.138	 15	 -0.164286	 -1.590172	 -0.362611	 0.239946	 -1.489000	 -1.674407	 -0.385045	 0.558622	 -0.596629	 0.428622	 2
1463629541.148	 15	 -0.534477	 -1.729126	 -0.166712	 0.208831	 -1.493794	 -1.688614	 -0.391640	 0.555869	 -0.592570	 0.431843	 2
1463629541.158	 15	 -0.838796	 -1.741381	 0.073489	 0.214479	 -1.501298	 -1.665392	 -0.398448	 0.554359	 -0.586957	 0.435209	 2
1463629541.168	 15	 -1.035408	 -1.598197	 0.378144	 0.280161	 -1.510180	 -1.583176	 -0.404554	 0.554281	 -0.580268	 0.438631	 2
1463629541.178	 15	 -1.249268	 -1.481638	 0.670978	 0.439722	 -1.519232	 -1.408273	 -0.409853	 0.555609	 -0.572582	 0.442118	 2
1463629541.188	 15	 -1.592372	 -1.368077	 0.938265	 0.754406	 -1.526839	 -1.079202	 -0.414736	 0.558555	 -0.563581	 0.445407	 2
1463629541.208	 15	 -2.184412	 -0.786625	 1.384727	 1.702896	 -1.515748	 -0.108884	 -0.422510	 0.570183	 -0.542345	 0.449709	 2
1463629541.218	 16	 -2.224507	 -0.265100	 1.417639	 1.971411	 -1.496033	 0.164311	 -0.424532	 0.578219	 -0.531910	 0.450007	 2
1463629541.228	 16	 -2.245545	 0.252930	 1.416248	 2.127671	 -1.473137	 0.319793	 -0.425099	 0.587417	 -0.522504	 0.448578	 2
1463629541.238	 16	 -2.309747	 0.673207	 1.411126	 2.230019	 -1.448451	 0.416979	 -0.424527	 0.597622	 -0.513795	 0.445690	 2
1463629541.248	 16	 -2.483499	 0.951232	 1.399240	 2.309977	 -1.422024	 0.488686	 -0.423458	 0.608779	 -0.505219	 0.441391	 2
1463629541.258	 16	 -2.407131	 1.205003	 1.517104	 2.366526	 -1.394351	 0.534513	 -0.421473	 0.620531	 -0.496827	 0.436423	 2
1463629541.268	 16	 -1.875464	 1.705267	 1.782505	 2.391141	 -1.367866	 0.543613	 -0.416673	 0.632523	 -0.490041	 0.431461	 2
1463629541.278	 16	 -1.109408	 2.235603	 2.182562	 2.383999	 -1.344160	 0.514661	 -0.407699	 0.644518	 -0.485783	 0.427075	 2
1463629541.288	 16	 -0.421281	 2.447833	 2.685849	 2.349577	 -1.322146	 0.454349	 -0.394764	 0.656195	 -0.483319	 0.424232	 2
1463629541.298	 16	 -0.019391	 2.392803	 3.179548	 2.297753	 -1.299138	 0.375711	 -0.379011	 0.667470	 -0.481191	 0.423426	 2
1463629541.308	 16	 0.006992	 2.238061	 3.558356	 2.243553	 -1.272714	 0.295453	 -0.361798	 0.678681	 -0.478143	 0.424115	 2
1463629541.318	 16	 -0.262321	 1.978741	 3.770374	 2.198785	 -1.241937	 0.226896	 -0.344558	 0.690039	 -0.473219	 0.425664	 2
1463629541.328	 16	 -0.643209	 1.739768	 3.809834	 2.168350	 -1.207605	 0.175495	 -0.328260	 0.701558	 -0.466201	 0.427455	 2
1463629541.338	 16	 -0.931294	 1.614335	 3.703533	 2.150928	 -1.171712	 0.139098	 -0.313122	 0.713057	 -0.457759	 0.428907	 2
1463629541.348	 16	 -1.084443	 1.647540	 3.527194	 2.143213	 -1.136003	 0.112858	 -0.298855	 0.724408	 -0.448792	 0.429541	 2
1463629541.358	 16	 -1.165530	 1.797549	 3.353445	 2.142820	 -1.101253	 0.092892	 -0.285028	 0.735684	 -0.439880	 0.428992	 2
1463629541.368	 16	 -1.232711	 1.933866	 3.203960	 2.147855	 -1.067431	 0.077065	 -0.271476	 0.746916	 -0.431078	 0.427304	 2
1463629541.378	 16	 -1.250942	 2.062406	 3.028398	 2.156922	 -1.034880	 0.064095	 -0.258237	 0.757983	 -0.422520	 0.424562	 2
1463629541.388	 16	 -1.218629	 2.077789	 2.816173	 2.168306	 -1.004198	 0.053018	 -0.245528	 0.768573	 -0.414380	 0.421072	 2
1463629541.398	 16	 -1.133597	 1.963206	 2.596951	 2.179906	 -0.975808	 0.042964	 -0.233594	 0.778316	 -0.406747	 0.417391	 2
1463629541.408	 16	 -1.035426	 1.699621	 2.369834	 2.189992	 -0.949855	 0.033611	 -0.222709	 0.786914	 -0.399580	 0.414129	 2
1463629541.418	 16	 -0.961390	 1.348446	 2.081363	 2.198063	 -0.926639	 0.025788	 -0.213364	 0.794173	 -0.392827	 0.411646	 2
1463629541.428	 16	 -0.840750	 0.930066	 1.784400	 2.203413	 -0.906465	 0.019462	 -0.205746	 0.799958	 -0.386601	 0.410213	 2
1463629541.438	 16	 -0.602350	 0.545757	 1.540018	 2.204652	 -0.889637	 0.012925	 -0.199488	 0.804161	 -0.381292	 0.410056	 2
1463629541.448	 16	 -0.415784	 0.423772	 1.367802	 2.203379	 -0.875630	 0.005634	 -0.193944	 0.807299	 -0.377007	 0.410512	 2
1463629541.458	 16	 -0.302027	 0.579607	 1.342683	 2.202416	 -0.862885	 -0.002539	 -0.188206	 0.810277	 -0.373437	 0.410578	 2
1463629541.468	 16	 -0.196211	 0.786109	 1.407629	 2.202409	 -0.850322	 -0.012277	 -0.181661	 0.813493	 -0.370342	 0.409970	 2
1463629541.478	 16	 0.018571	 1.037844	 1.447535	 2.202904	 -0.838486	 -0.024530	 -0.174113	 0.816824	 -0.368090	 0.408647	 2
1463629541.488	 16	 0.298449	 1.440006	 1.576732	 2.204189	 -0.827357	 -0.040848	 -0.164865	 0.820439	 -0.367001	 0.406214	 2
1463629541.498	 16	 0.566320	 1.709023	 1.527878	 2.206452	 -0.817812	 -0.060321	 -0.154427	 0.824103	 -0.367239	 0.402669	 2
1463629541.508	 16	 0.799847	 1.855638	 1.306596	 2.209716	 -0.811250	 -0.080927	 -0.143923	 0.827406	 -0.368940	 0.398208	 2
1463629541.518	 16	 0.928932	 1.890151	 0.984999	 2.214289	 -0.808078	 -0.100717	 -0.134197	 0.830214	 -0.371884	 0.392986	 2
1463629541.528	 16	 0.973967	 1.795848	 0.612844	 2.220038	 -0.808249	 -0.118016	 -0.125968	 0.832433	 -0.375702	 0.387345	 2
1463629541.538	 16	 0.995253	 1.622032	 0.266800	 2.226233	 -0.811481	 -0.132492	 -0.119459	 0.833984	 -0.380176	 0.381663	 2
1463629541.548	 16	 1.017594	 1.398631	 -0.023229	 2.232046	 -0.817288	 -0.144576	 -0.114549	 0.834844	 -0.385158	 0.376255	 2
1463629541.558	 16	 1.029263	 1.202677	 -0.345949	 2.237568	 -0.825683	 -0.154049	 -0.111316	 0.835033	 -0.390635	 0.371122	 2
1463629541.568	 16	 1.056201	 1.070545	 -0.661813	 2.243529	 -0.836772	 -0.160838	 -0.109669	 0.834672	 -0.396691	 0.365967	 2
1463629541.578	 16	 1.109283	 1.023662	 -0.945138	 2.250417	 -0.850460	 -0.165442	 -0.109269	 0.833877	 -0.403417	 0.360506	 2
1463629541.598	 17	 1.075743	 1.014665	 -1.319013	 2.268498	 -0.883548	 -0.168507	 -0.111190	 0.831522	 -0.418239	 0.348260	 2
1463629541.608	 17	 0.819392	 0.934855	 -1.281287	 2.280214	 -0.899178	 -0.165850	 -0.113033	 0.830596	 -0.424695	 0.342007	 2
1463629541.618	 17	 0.381197	 1.046381	 -1.039835	 2.294497	 -0.910990	 -0.160164	 -0.114729	 0.830529	 -0.429276	 0.335829	 2
1463629541.628	 17	 -0.262316	 1.509427	 -0.515160	 2.315164	 -0.915169	 -0.151760	 -0.114605	 0.832700	 -0.430744	 0.328536	 2
1463629541.638	 17	 -0.548087	 1.237567	 -0.132593	 2.335614	 -0.913165	 -0.143268	 -0.113363	 0.835920	 -0.429719	 0.322068	 2
1463629541.648	 17	 -0.274469	 0.278629	 0.038347	 2.344331	 -0.910569	 -0.138928	 -0.112818	 0.837566	 -0.428461	 0.319650	 2
1463629541.658	 17	 0.248568	 -0.489833	 0.175849	 2.338823	 -0.910378	 -0.141863	 -0.112733	 0.836886	 -0.428543	 0.321349	 2
1463629541.668	 17	 0.593240	 -1.048369	 0.295542	 2.322291	 -0.912056	 -0.151196	 -0.112702	 0.834419	 -0.429801	 0.326058	 2
1463629541.678	 17	 0.563514	 -1.422004	 0.241167	 2.300829	 -0.914072	 -0.161273	 -0.113521	 0.831078	 -0.431058	 0.332582	 2
1463629541.688	 17	 0.364413	 -1.452050	 0.124322	 2.280858	 -0.915677	 -0.168020	 -0.115353	 0.827813	 -0.431690	 0.339209	 2
1463629541.698	 17	 0.223222	 -1.269969	 0.095272	 2.264276	 -0.916522	 -0.172227	 -0.117367	 0.825066	 -0.431781	 0.345046	 2
1463629541.708	 17	 0.228815	 -0.954398	 0.053398	 2.251143	 -0.917450	 -0.175592	 -0.119010	 0.822814	 -0.431957	 0.349609	 2
1463629541.718	 17	 0.418028	 -0.495999	 0.127422	 2.240537	 -0.918947	 -0.181261	 -0.119290	 0.821018	 -0.432909	 0.352545	 2
1463629541.728	 17	 0.558643	 -0.162053	 0.473547	 2.229662	 -0.919369	 -0.191980	 -0.117341	 0.819654	 -0.434327	 0.354625	 2
1463629541.738	 17	 0.536373	 0.015080	 0.836682	 2.217826	 -0.916661	 -0.206806	 -0.113252	 0.818886	 -0.435224	 0.356623	 2
1463629541.748	 17	 0.423001	 -0.266425	 0.839313	 2.204679	 -0.912464	 -0.221159	 -0.109312	 0.818064	 -0.435433	 0.359473	 2
1463629541.758	 17	 0.404277	 -0.567616	 0.512682	 2.190781	 -0.909859	 -0.232336	 -0.107185	 0.816605	 -0.435695	 0.363095	 2
1463629541.768	 17	 0.381281	 -0.535749	 0.058098	 2.179735	 -0.910766	 -0.239194	 -0.107004	 0.814805	 -0.436701	 0.365971	 2
1463629541.778	 17	 -0.009547	 -0.035390	 -0.329241	 2.178198	 -0.913368	 -0.238523	 -0.108210	 0.814048	 -0.437492	 0.366356	 2
1463629541.788	 17	 -0.450367	 1.145050	 -0.676778	 2.194638	 -0.916119	 -0.228150	 -0.109467	 0.816005	 -0.437555	 0.361521	 2
1463629541.798	 17	 -0.567367	 1.753315	 -1.033524	 2.224663	 -0.920437	 -0.211500	 -0.110663	 0.819693	 -0.437908	 0.352270	 2
1463629541.808	 17	 -0.510876	 1.363204	 -1.125038	 2.254441	 -0.925989	 -0.193046	 -0.112907	 0.822842	 -0.438534	 0.343324	 2
1463629541.818	 17	 -0.475872	 0.307854	 -0.998746	 2.274333	 -0.930811	 -0.175808	 -0.116644	 0.824354	 -0.438640	 0.338276	 2
1463629541.828	 17	 -0.262178	 -1.074768	 -0.902633	 2.278639	 -0.935647	 -0.161457	 -0.122597	 0.823316	 -0.438382	 0.339029	 2
1463629541.838	 17	 0.219484	 -2.401032	 -0.846696	 2.264370	 -0.942791	 -0.153267	 -0.130543	 0.818999	 -0.438904	 0.345778	 2
1463629541.848	 17	 0.617708	 -3.094178	 -0.787339	 2.235949	 -0.952384	 -0.151694	 -0.139418	 0.812075	 -0.440477	 0.356479	 2
1463629541.858	 17	 0.837842	 -3.174424	 -0.617349	 2.200962	 -0.962448	 -0.155585	 -0.147712	 0.804096	 -0.442579	 0.368420	 2
1463629541.868	 17	 1.146032	 -2.930459	 -0.434460	 2.153580	 -0.975903	 -0.173271	 -0.154168	 0.794006	 -0.447457	 0.381534	 2
1463629541.878	 17	 1.535713	 -2.523555	 -0.340279	 2.111919	 -0.986553	 -0.191733	 -0.158705	 0.785410	 -0.451755	 0.392252	 2
1463629541.888	 17	 1.866606	 -2.012254	 -0.393822	 2.069405	 -0.998703	 -0.216865	 -0.161477	 0.776771	 -0.457787	 0.401226	 2
1463629541.898	 17	 1.838041	 -1.405727	 -0.514755	 2.031118	 -1.011631	 -0.243750	 -0.163144	 0.768904	 -0.464742	 0.407659	 2
1463629541.908	 17	 1.455501	 -0.919724	 -0.678490	 2.002509	 -1.024098	 -0.265398	 -0.164755	 0.762640	 -0.471192	 0.411357	 2
1463629541.918	 17	 1.030178	 -0.853117	 -0.905437	 1.982647	 -1.036422	 -0.278758	 -0.167617	 0.757524	 -0.476533	 0.413495	 2
1463629541.928	 17	 0.749344	 -1.121156	 -1.166598	 1.966934	 -1.049733	 -0.284894	 -0.172598	 0.752496	 -0.480980	 0.415473	 2
1463629541.938	 17	 0.676472	 -1.428009	 -1.416076	 1.951227	 -1.064836	 -0.287335	 -0.179525	 0.746827	 -0.485161	 0.417898	 2
1463629541.948	 17	 0.779181	 -1.593048	 -1.692407	 1.933722	 -1.082663	 -0.289517	 -0.187799	 0.740255	 -0.489899	 0.420419	 2
1463629541.958	 17	 0.994724	 -1.671586	 -1.875128	 1.912429	 -1.103173	 -0.294821	 -0.196689	 0.732682	 -0.495636	 0.422890	 2
1463629541.968	 17	 1.194337	 -1.677348	 -1.855604	 1.885796	 -1.124572	 -0.305790	 -0.205251	 0.724379	 -0.502096	 0.425496	 2
1463629541.978	 17	 1.333781	 -1.612138	 -1.753898	 1.854001	 -1.145467	 -0.322877	 -0.213010	 0.715735	 -0.508898	 0.428221	 2
1463629541.988	 17	 1.407886	 -1.433464	 -1.579162	 1.818312	 -1.164738	 -0.345542	 -0.219619	 0.707215	 -0.515699	 0.430894	 2
1463629541.998	 17	 1.504545	 -1.174451	 -1.463557	 1.779684	 -1.182598	 -0.374074	 -0.224860	 0.699060	 -0.522748	 0.432998	 2
1463629542.008	 17	 1.605765	 -1.069763	 -1.360085	 1.736387	 -1.199151	 -0.408973	 -0.229111	 0.690969	 -0.530007	 0.434928	 2
1463629542.018	 17	 1.693472	 -1.062265	 -1.318149	 1.687222	 -1.214598	 -0.450284	 -0.232824	 0.682676	 -0.537415	 0.436956	 2
1463629542.028	 17	 1.711127	 -1.192903	 -1.285414	 1.631942	 -1.229089	 -0.496809	 -0.236614	 0.673982	 -0.544721	 0.439364	 2
1463629542.038	 17	 1.627253	 -1.338276	 -1.272182	 1.572560	 -1.242221	 -0.545846	 -0.240775	 0.665066	 -0.551476	 0.442255	 2
1463629542.048	 17	 1.473556	 -1.488491	 -1.368160	 1.511508	 -1.255231	 -0.594917	 -0.245876	 0.656011	 -0.557699	 0.445159	 2
1463629542.058	 17	 1.302823	 -1.673386	 -1.413156	 1.449413	 -1.268017	 -0.643035	 -0.252009	 0.646869	 -0.563187	 0.448188	 2
1463629542.068	 17	 1.173312	 -1.748573	 -1.420188	 1.385939	 -1.280208	 -0.691182	 -0.258786	 0.637729	 -0.568023	 0.451311	 2
1463629542.078	 17	 1.046143	 -1.583136	 -1.391963	 1.323221	 -1.291627	 -0.739428	 -0.265476	 0.629094	 -0.572472	 0.453915	 2
1463629542.088	 17	 0.900201	 -1.314566	 -1.376470	 1.263974	 -1.302306	 -0.786680	 -0.271601	 0.621427	 -0.576683	 0.455519	 2
1463629542.098	 17	 0.750527	 -1.089128	 -1.443409	 1.207543	 -1.313150	 -0.833256	 -0.277517	 0.614586	 -0.580784	 0.456024	 2
1463629542.108	 17	 0.636794	 -0.949832	 -1.494411	 1.151959	 -1.324360	 -0.880605	 -0.283381	 0.608349	 -0.584838	 0.455600	 2
1463629542.118	 17	 0.515482	 -0.859218	 -1.514892	 1.096428	 -1.335611	 -0.928643	 -0.289309	 0.602562	 -0.588659	 0.454643	 2
1463629542.128	 17	 0.380386	 -0.740985	 -1.545655	 1.041601	 -1.347105	 -0.977098	 -0.295238	 0.597361	 -0.592271	 0.453001	 2
1463629542.138	 17	 0.241878	 -0.705376	 -1.531328	 0.987041	 -1.358710	 -1.025695	 -0.301301	 0.592628	 -0.595521	 0.450959	 2
1463629542.148	 17	 0.089850	 -0.685956	 -1.408327	 0.935579	 -1.369877	 -1.071164	 -0.307373	 0.588484	 -0.598092	 0.448880	 2
1463629542.158	 17	 0.011165	 -0.605237	 -1.162831	 0.890795	 -1.379399	 -1.110492	 -0.312763	 0.585125	 -0.599939	 0.447081	 2
1463629542.168	 17	 0.046270	 -0.584625	 -0.946595	 0.849736	 -1.386842	 -1.146261	 -0.317388	 0.582138	 -0.601326	 0.445855	 2
1463629542.178	 17	 0.165645	 -0.555888	 -0.749135	 0.809385	 -1.391823	 -1.181620	 -0.321083	 0.579218	 -0.602605	 0.445285	 2
1463629542.188	 17	 0.218345	 -0.632279	 -0.555271	 0.771174	 -1.394614	 -1.214258	 -0.324188	 0.576245	 -0.603585	 0.445566	 2
1463629542.198	 17	 0.112901	 -0.769735	 -0.339282	 0.741855	 -1.396239	 -1.236613	 -0.327196	 0.573521	 -0.603706	 0.446717	 2
1463629542.208	 17	 -0.126133	 -0.967259	 -0.100308	 0.728159	 -1.397747	 -1.241217	 -0.330548	 0.571383	 -0.602391	 0.448760	 2
1463629542.218	 17	 -0.429233	 -1.154116	 0.116942	 0.733314	 -1.399943	 -1.224716	 -0.334494	 0.570047	 -0.599397	 0.451535	 2
1463629542.228	 17	 -0.735164	 -1.250660	 0.320137	 0.758784	 -1.402959	 -1.186374	 -0.338900	 0.569680	 -0.594830	 0.454740	 2
1463629542.238	 17	 -0.953237	 -1.261410	 0.509509	 0.803694	 -1.406148	 -1.127996	 -0.343402	 0.570259	 -0.589034	 0.458169	 2
1463629542.248	 17	 -1.039886	 -1.042543	 0.735045	 0.866093	 -1.408043	 -1.053468	 -0.347098	 0.571873	 -0.582627	 0.461551	 2
1463629542.258	 17	 -1.012288	 -0.588921	 0.964967	 0.942053	 -1.407215	 -0.969266	 -0.348921	 0.574774	 -0.576346	 0.464451	 2
1463629542.268	 17	 -1.048368	 -0.066986	 1.202474	 1.029140	 -1.403396	 -0.878988	 -0.348590	 0.579253	 -0.570385	 0.466489	 2
1463629542.278	 17	 -1.241482	 0.410830	 1.452662	 1.130941	 -1.396705	 -0.778663	 -0.346477	 0.585727	 -0.564183	 0.467520	 2
1463629542.288	 17	 -1.410666	 0.858988	 1.582999	 1.241382	 -1.387398	 -0.674048	 -0.342990	 0.594020	 -0.557776	 0.467316	 2
1463629542.298	 17	 -1.512114	 1.292217	 1.588979	 1.350817	 -1.376099	 -0.574692	 -0.338413	 0.603629	 -0.551617	 0.465647	 2
1463629542.308	 17	 -1.558223	 1.727115	 1.553995	 1.454788	 -1.363269	 -0.485093	 -0.332813	 0.614257	 -0.545986	 0.462411	 2
1463629542.318	 17	 -1.510522	 2.151010	 1.506367	 1.550053	 -1.349186	 -0.408536	 -0.326074	 0.625617	 -0.541128	 0.457668	 2
1463629542.328	 17	 -1.453809	 2.602104	 1.546307	 1.636024	 -1.333583	 -0.345798	 -0.317866	 0.637668	 -0.537047	 0.451578	 2
1463629542.338	 17	 -1.532015	 3.054701	 1.738773	 1.717993	 -1.315258	 -0.291645	 -0.307947	 0.650926	 -0.533031	 0.444231	 2
1463629542.348	 17	 -1.442363	 3.478903	 2.043551	 1.792248	 -1.293266	 -0.249614	 -0.295836	 0.665260	 -0.528901	 0.436090	 2
1463629542.358	 17	 -0.805062	 4.039817	 2.501499	 1.844061	 -1.267797	 -0.236109	 -0.279755	 0.679706	 -0.526008	 0.427846	 2
1463629542.368	 17	 0.057381	 4.726385	 3.070562	 1.868825	 -1.239340	 -0.257992	 -0.258055	 0.693675	 -0.525435	 0.419690	 2
1463629542.378	 17	 0.531372	 5.180158	 3.648300	 1.879152	 -1.207246	 -0.301156	 -0.231482	 0.707373	 -0.525948	 0.411605	 2
1463629542.388	 17	 0.553711	 5.201764	 4.142820	 1.886965	 -1.170633	 -0.349041	 -0.202178	 0.720894	 -0.525438	 0.404168	 2
1463629542.398	 17	 0.285643	 4.718328	 4.397505	 1.897092	 -1.130514	 -0.391272	 -0.172861	 0.733774	 -0.522615	 0.398206	 2
1463629542.408	 17	 -0.123174	 3.791036	 4.403093	 1.908818	 -1.088715	 -0.423331	 -0.146046	 0.745349	 -0.517032	 0.394721	 2
1463629542.418	 17	 -0.515804	 2.680881	 4.132938	 1.919774	 -1.047581	 -0.444587	 -0.123463	 0.755105	 -0.509126	 0.394161	 2
1463629542.428	 17	 -0.768019	 1.640149	 3.666106	 1.928061	 -1.009565	 -0.456987	 -0.105728	 0.762814	 -0.500014	 0.396134	 2
1463629542.438	 17	 -0.828383	 0.796493	 3.172794	 1.932039	 -0.975820	 -0.464083	 -0.092294	 0.768460	 -0.490793	 0.400091	 2
1463629542.448	 17	 -0.747291	 0.248582	 2.744947	 1.931682	 -0.946492	 -0.468960	 -0.082019	 0.772317	 -0.482245	 0.405265	 2
1463629542.458	 17	 -0.544029	 0.122698	 2.481960	 1.928505	 -0.920633	 -0.474508	 -0.073123	 0.774998	 -0.474798	 0.410606	 2
1463629542.468	 17	 -0.448738	 0.500325	 2.380200	 1.926952	 -0.896590	 -0.481177	 -0.063889	 0.777658	 -0.468212	 0.414660	 2
1463629542.478	 17	 -0.498574	 1.233413	 2.395981	 1.932811	 -0.872526	 -0.487131	 -0.053180	 0.781675	 -0.461645	 0.415982	 2
1463629542.488	 17	 -0.370245	 1.917378	 2.456648	 1.944659	 -0.848260	 -0.494661	 -0.040444	 0.786842	 -0.455362	 0.414596	 2
1463629542.498	 17	 -0.089480	 2.414116	 2.427919	 1.959320	 -0.824948	 -0.505904	 -0.025934	 0.792377	 -0.450035	 0.411017	 2
1463629542.508	 17	 0.243207	 2.729884	 2.252110	 1.974962	 -0.804356	 -0.521028	 -0.010488	 0.797662	 -0.446227	 0.405594	 2
1463629542.518	 17	 0.441545	 2.837635	 2.084061	 1.990770	 -0.786519	 -0.538420	 0.005088	 0.802477	 -0.443601	 0.399028	 2
1463629542.528	 17	 0.549699	 2.861362	 1.879779	 2.006762	 -0.771061	 -0.556399	 0.020251	 0.806855	 -0.441692	 0.391768	 2
1463629542.538	 17	 0.648763	 2.620657	 1.581461	 2.021463	 -0.758748	 -0.574118	 0.034131	 0.810481	 -0.440637	 0.384440	 2
1463629542.558	 18	 0.633972	 1.516008	 1.050153	 2.039648	 -0.742667	 -0.604980	 0.055177	 0.814488	 -0.440450	 0.373588	 2
1463629542.568	 18	 0.636817	 0.891607	 0.896177	 2.041202	 -0.737241	 -0.618289	 0.062455	 0.814785	 -0.440981	 0.371161	 2
1463629542.578	 18	 0.690548	 0.394919	 0.773853	 2.037644	 -0.733112	 -0.631231	 0.068093	 0.813994	 -0.442054	 0.370627	 2
1463629542.588	 18	 0.815593	 0.041979	 0.702337	 2.029647	 -0.730181	 -0.644964	 0.072729	 0.812225	 -0.443865	 0.371463	 2
1463629542.598	 18	 0.992852	 -0.092093	 0.619614	 2.018888	 -0.728557	 -0.660115	 0.076937	 0.809760	 -0.446527	 0.372805	 2
1463629542.608	 18	 1.169802	 -0.256248	 0.495049	 2.005616	 -0.728612	 -0.676886	 0.080724	 0.806616	 -0.450202	 0.374396	 2
1463629542.618	 18	 1.138859	 -0.619606	 0.390690	 1.989630	 -0.729589	 -0.693319	 0.083439	 0.802884	 -0.454274	 0.376895	 2
1463629542.628	 18	 0.954532	 -1.400283	 0.317887	 1.968365	 -0.730597	 -0.707542	 0.083987	 0.798202	 -0.458198	 0.381935	 2
1463629542.638	 18	 0.612858	 -2.267828	 0.229660	 1.940969	 -0.730859	 -0.717684	 0.081644	 0.792479	 -0.461377	 0.390438	 2
1463629542.648	 18	 0.155452	 -2.947319	 0.066389	 1.910529	 -0.730817	 -0.721546	 0.076144	 0.786302	 -0.463329	 0.401569	 2
1463629542.658	 18	 -0.254557	 -3.585019	 -0.035091	 1.877747	 -0.730462	 -0.719514	 0.067858	 0.779697	 -0.463981	 0.414957	 2
1463629542.668	 18	 -0.604680	 -4.454488	 -0.098750	 1.840062	 -0.729775	 -0.712477	 0.056604	 0.771967	 -0.463450	 0.431367	 2
1463629542.678	 18	 -0.913102	 -5.080514	 -0.162638	 1.798193	 -0.729159	 -0.701100	 0.042748	 0.763042	 -0.461792	 0.450209	 2
1463629542.688	 18	 -1.113616	 -5.264085	 -0.183916	 1.755471	 -0.728787	 -0.686519	 0.027504	 0.753482	 -0.459076	 0.469849	 2
1463629542.698	 18	 -1.146529	 -5.065608	 -0.108245	 1.714327	 -0.728157	 -0.671022	 0.012502	 0.743791	 -0.455585	 0.488938	 2
1463629542.708	 18	 -0.997204	 -4.429788	 -0.078050	 1.677558	 -0.727688	 -0.657018	 -0.000861	 0.734700	 -0.452072	 0.505813	 2
1463629542.718	 18	 -0.883852	 -3.811224	 0.051413	 1.646086	 -0.726791	 -0.645047	 -0.012016	 0.726610	 -0.448641	 0.520207	 2
1463629542.728	 18	 -0.864238	 -3.407017	 0.210605	 1.618707	 -0.724504	 -0.633587	 -0.021486	 0.719354	 -0.444741	 0.533174	 2
1463629542.738	 18	 -0.868729	 -3.174708	 0.416366	 1.594031	 -0.720729	 -0.622215	 -0.029703	 0.712633	 -0.440293	 0.545357	 2
1463629542.748	 18	 -0.889780	 -3.157587	 1.008207	 1.570058	 -0.711991	 -0.610690	 -0.035960	 0.705994	 -0.434274	 0.558288	 2
1463629542.768	 19	 -1.270738	 -3.591941	 1.531837	 1.520884	 -0.684451	 -0.581457	 -0.046824	 0.691723	 -0.417236	 0.587572	 2
1463629542.778	 19	 -1.678214	 -3.779000	 1.532579	 1.496891	 -0.670090	 -0.560127	 -0.053906	 0.684221	 -0.406320	 0.603191	 2
1463629542.788	 19	 -2.116548	 -3.909916	 1.489349	 1.474708	 -0.656851	 -0.533126	 -0.062700	 0.676816	 -0.393776	 0.618813	 2
1463629542.798	 19	 -2.518040	 -3.966114	 1.497651	 1.454656	 -0.644611	 -0.500895	 -0.072923	 0.669604	 -0.379622	 0.634192	 2
1463629542.808	 19	 -2.853833	 -3.948650	 1.570011	 1.436957	 -0.632684	 -0.464215	 -0.084012	 0.662673	 -0.363857	 0.649164	 2
1463629542.818	 19	 -3.088933	 -3.825345	 1.611573	 1.421722	 -0.621097	 -0.424300	 -0.095561	 0.656107	 -0.346849	 0.663391	 2
1463629542.828	 19	 -3.209237	 -3.583165	 1.664965	 1.409321	 -0.609740	 -0.382626	 -0.107013	 0.650113	 -0.329075	 0.676469	 2
1463629542.838	 19	 -3.219784	 -3.386944	 1.731894	 1.398898	 -0.598180	 -0.340564	 -0.117951	 0.644525	 -0.310865	 0.688505	 2
1463629542.848	 19	 -3.131258	 -3.206090	 1.773305	 1.389392	 -0.586358	 -0.299346	 -0.128156	 0.639092	 -0.292603	 0.699658	 2
1463629542.858	 19	 -2.947944	 -3.037459	 1.780739	 1.380120	 -0.574429	 -0.260190	 -0.137423	 0.633690	 -0.274758	 0.709972	 2
1463629542.868	 19	 -2.761303	 -2.886534	 1.841267	 1.370624	 -0.562031	 -0.223352	 -0.145611	 0.628229	 -0.257332	 0.719657	 2
1463629542.878	 19	 -2.581596	 -2.663966	 1.951547	 1.361923	 -0.548515	 -0.188454	 -0.152476	 0.623122	 -0.240114	 0.728570	 2
1463629542.888	 19	 -2.368625	 -2.860511	 2.068295	 1.350899	 -0.533767	 -0.155774	 -0.158268	 0.617299	 -0.222969	 0.737684	 2
1463629542.898	 19	 -2.177751	 -3.300894	 2.285279	 1.334463	 -0.517129	 -0.124946	 -0.163115	 0.609616	 -0.205330	 0.748065	 2
1463629542.908	 19	 -1.989336	 -3.631308	 2.558728	 1.313315	 -0.497937	 -0.095326	 -0.166751	 0.600277	 -0.186825	 0.759578	 2
1463629542.918	 19	 -1.671094	 -3.873137	 2.633639	 1.287845	 -0.477249	 -0.068185	 -0.169040	 0.589430	 -0.168305	 0.771797	 2
1463629542.928	 19	 -1.275239	 -3.990237	 2.486290	 1.258495	 -0.457069	 -0.045145	 -0.170174	 0.577222	 -0.151072	 0.784240	 2
1463629542.938	 19	 -0.876136	 -3.832208	 2.292449	 1.227643	 -0.438067	 -0.026561	 -0.170139	 0.564543	 -0.135741	 0.796190	 2
1463629542.948	 19	 -0.502987	 -3.376647	 2.196455	 1.198668	 -0.419428	 -0.011922	 -0.168605	 0.552749	 -0.122245	 0.806906	 2
1463629542.968	 20	 0.143160	 -2.060522	 2.371466	 1.155619	 -0.378079	 0.008898	 -0.159795	 0.535754	 -0.098976	 0.823187	 2
1463629542.978	 20	 0.394107	 -1.495213	 2.546129	 1.142085	 -0.353897	 0.016609	 -0.152511	 0.530821	 -0.088263	 0.828962	 2
1463629542.988	 20	 0.565569	 -1.056089	 2.741626	 1.132845	 -0.327259	 0.023521	 -0.143677	 0.527796	 -0.077618	 0.833525	 2
1463629542.998	 20	 0.684588	 -0.853124	 2.910868	 1.126047	 -0.298486	 0.030187	 -0.133691	 0.525855	 -0.066732	 0.837347	 2
1463629543.008	 20	 0.776509	 -0.882656	 2.982265	 1.119165	 -0.268439	 0.036520	 -0.122993	 0.523900	 -0.055688	 0.841012	 2
1463629543.018	 20	 0.875963	 -1.011039	 2.918390	 1.110792	 -0.238273	 0.042028	 -0.111968	 0.521305	 -0.044929	 0.844799	 2
1463629543.028	 20	 1.005607	 -1.185182	 2.717409	 1.100263	 -0.209136	 0.045879	 -0.100880	 0.517766	 -0.035108	 0.848828	 2
1463629543.038	 20	 1.142369	 -1.409549	 2.487123	 1.087130	 -0.181469	 0.047743	 -0.089823	 0.513065	 -0.026504	 0.853225	 2
1463629543.048	 20	 1.262969	 -1.702690	 2.300034	 1.070929	 -0.154988	 0.047920	 -0.078749	 0.506968	 -0.018947	 0.858151	 2
1463629543.058	 20	 1.334331	 -2.070825	 2.164898	 1.051052	 -0.129383	 0.047094	 -0.067694	 0.499163	 -0.012097	 0.863775	 2
1463629543.068	 20	 1.326766	 -2.463959	 2.070716	 1.027295	 -0.104598	 0.046181	 -0.056847	 0.489503	 -0.005597	 0.870128	 2
1463629543.078	 20	 1.240449	 -2.853302	 2.027345	 0.999728	 -0.080643	 0.046189	 -0.046428	 0.477972	 0.000935	 0.877147	 2
1463629543.088	 20	 1.095001	 -3.171731	 2.058687	 0.968862	 -0.057351	 0.048047	 -0.036547	 0.464770	 0.007900	 0.884642	 2
1463629543.098	 20	 0.935254	 -3.381421	 2.119940	 0.934100	 -0.035974	 0.052258	 -0.027816	 0.449608	 0.015229	 0.892663	 2
1463629543.108	 20	 0.782055	 -3.542354	 2.160275	 0.897905	 -0.015113	 0.058797	 -0.019562	 0.433622	 0.023202	 0.900584	 2
1463629543.118	 20	 0.655901	 -3.556117	 2.118612	 0.861764	 0.004872	 0.067173	 -0.011813	 0.417510	 0.031528	 0.908048	 2
1463629543.128	 20	 0.622979	 -3.374367	 1.941538	 0.827138	 0.022882	 0.075656	 -0.004729	 0.401963	 0.039223	 0.914803	 2
1463629543.138	 20	 0.634410	 -3.290609	 1.763167	 0.793396	 0.039419	 0.083603	 0.002018	 0.386722	 0.046144	 0.921039	 2
1463629543.148	 20	 0.707544	 -3.211600	 1.541583	 0.760470	 0.054673	 0.090232	 0.008623	 0.371767	 0.051998	 0.926829	 2
1463629543.158	 20	 0.837044	 -3.121497	 1.258867	 0.728843	 0.069589	 0.094609	 0.015624	 0.357332	 0.056539	 0.932134	 2
1463629543.168	 20	 1.038972	 -3.027643	 0.936122	 0.698195	 0.083696	 0.095866	 0.022892	 0.343241	 0.059279	 0.937095	 2
1463629543.178	 20	 1.260195	 -2.982196	 0.692691	 0.668485	 0.097749	 0.094017	 0.030703	 0.329468	 0.060347	 0.941736	 2
1463629543.198	 21	 1.587386	 -2.766881	 0.595927	 0.612191	 0.128574	 0.085948	 0.048281	 0.303070	 0.060220	 0.949838	 2
1463629543.208	 21	 1.706567	 -2.673116	 0.667168	 0.585824	 0.146088	 0.081801	 0.058037	 0.290588	 0.060098	 0.953194	 2
1463629543.218	 21	 1.798547	 -2.686724	 0.734449	 0.559659	 0.164919	 0.078185	 0.068344	 0.278137	 0.060166	 0.956216	 2
1463629543.228	 21	 1.875660	 -2.627397	 0.733264	 0.533691	 0.184628	 0.074779	 0.079043	 0.265707	 0.060195	 0.958920	 2
1463629543.238	 21	 1.897140	 -2.300489	 0.647661	 0.510394	 0.204423	 0.071100	 0.089741	 0.254469	 0.059953	 0.961040	 2
1463629543.248	 21	 1.841251	 -1.816320	 0.509840	 0.491912	 0.223362	 0.066869	 0.099946	 0.245445	 0.059341	 0.962417	 2
1463629543.258	 21	 1.772614	 -1.519537	 0.340546	 0.477356	 0.240957	 0.061812	 0.109472	 0.238201	 0.058209	 0.963269	 2
1463629543.268	 21	 1.753719	 -1.531393	 0.164750	 0.463785	 0.257550	 0.055510	 0.118609	 0.231298	 0.056287	 0.963984	 2
1463629543.278	 21	 1.746125	 -1.649528	 0.004918	 0.449506	 0.273445	 0.047924	 0.127541	 0.223906	 0.053506	 0.964747	 2
1463629543.288	 21	 1.660656	 -1.559819	 -0.125658	 0.435850	 0.288300	 0.039497	 0.136001	 0.216690	 0.050132	 0.965420	 2
1463629543.298	 21	 1.462147	 -1.270506	 -0.204367	 0.424827	 0.301300	 0.031101	 0.143449	 0.210688	 0.046664	 0.965844	 2
1463629543.308	 21	 1.231499	 -1.027720	 -0.258720	 0.416842	 0.311707	 0.023106	 0.149492	 0.206148	 0.043282	 0.966065	 2
1463629543.318	 21	 1.012996	 -0.922188	 -0.315535	 0.412032	 0.318479	 0.014965	 0.153699	 0.203129	 0.039668	 0.966200	 2
1463629543.328	 21	 0.833622	 -0.936569	 -0.319466	 0.408606	 0.322025	 0.006993	 0.156282	 0.200808	 0.035906	 0.966417	 2
1463629543.338	 21	 0.668366	 -0.933689	 -0.282836	 0.401836	 0.326747	 0.000956	 0.159282	 0.196988	 0.032922	 0.966820	 2
1463629543.348	 21	 0.535539	 -0.799397	 -0.298551	 0.395582	 0.330535	 -0.004337	 0.161729	 0.193476	 0.030231	 0.967211	 2
1463629543.358	 21	 0.465693	 -0.616752	 -0.367653	 0.391145	 0.333249	 -0.009841	 0.163634	 0.190834	 0.027470	 0.967498	 2
1463629543.368	 21	 0.440692	 -0.438408	 -0.425469	 0.389346	 0.334588	 -0.016036	 0.164894	 0.189429	 0.024454	 0.967641	 2
1463629543.378	 21	 0.399615	 -0.319199	 -0.430397	 0.387850	 0.336771	 -0.021942	 0.166524	 0.188171	 0.021682	 0.967673	 2
1463629543.388	 21	 0.283851	 -0.246143	 -0.376487	 0.386934	 0.338227	 -0.027062	 0.167718	 0.187267	 0.019268	 0.967693	 2
1463629543.398	 21	 0.105069	 -0.215183	 -0.286184	 0.385931	 0.338467	 -0.030708	 0.168183	 0.186470	 0.017442	 0.967801	 2
1463629543.408	 21	 -0.098161	 -0.169211	 -0.189133	 0.384713	 0.337224	 -0.032611	 0.167770	 0.185751	 0.016300	 0.968031	 2
1463629543.418	 21	 -0.253009	 -0.061567	 -0.074879	 0.383852	 0.334798	 -0.032763	 0.166618	 0.185379	 0.015923	 0.968308	 2
1463629543.438	 22	 -0.153220	 0.084473	 0.156882	 0.383748	 0.330974	 -0.029439	 0.164461	 0.185693	 0.017160	 0.968595	 2
1463629543.448	 22	 0.058201	 0.064040	 0.211336	 0.383843	 0.331753	 -0.027446	 0.164651	 0.185885	 0.018207	 0.968507	 2
1463629543.458	 22	 0.294493	 -0.040061	 0.178469	 0.383441	 0.334667	 -0.026506	 0.165978	 0.185703	 0.018906	 0.968302	 2
1463629543.468	 22	 0.477010	 -0.185888	 0.090262	 0.382142	 0.339139	 -0.027095	 0.168208	 0.184925	 0.018936	 0.968065	 2
1463629543.478	 22	 0.584808	 -0.302001	 -0.037517	 0.380148	 0.344336	 -0.029352	 0.170947	 0.183650	 0.018166	 0.967843	 2
1463629543.498	 23	 0.587263	 -0.355034	 -0.162726	 0.375498	 0.354674	 -0.037038	 0.176681	 0.180480	 0.015013	 0.967463	 2
1463629543.508	 23	 0.481236	 -0.256387	 -0.100172	 0.381616	 0.356903	 -0.042971	 0.178254	 0.182853	 0.012898	 0.966759	 2
1463629543.518	 23	 0.352070	 -0.133928	 0.013997	 0.380561	 0.360400	 -0.044668	 0.180103	 0.182095	 0.012315	 0.966567	 2
1463629543.528	 23	 0.219930	 0.000549	 0.170934	 0.380122	 0.363221	 -0.044385	 0.181441	 0.181830	 0.012680	 0.966362	 2
1463629543.538	 23	 0.113528	 0.146782	 0.345875	 0.380346	 0.365623	 -0.041937	 0.182376	 0.182095	 0.014111	 0.966117	 2
1463629543.548	 23	 0.049802	 0.297087	 0.513022	 0.381336	 0.367960	 -0.037493	 0.183090	 0.182916	 0.016569	 0.965787	 2
1463629543.558	 23	 0.027710	 0.473659	 0.652340	 0.383432	 0.370554	 -0.031455	 0.183767	 0.184416	 0.019923	 0.965310	 2
1463629543.568	 23	 0.056691	 0.644535	 0.760254	 0.386876	 0.373742	 -0.024319	 0.184604	 0.186656	 0.023987	 0.964627	 2
1463629543.578	 23	 0.113141	 0.788465	 0.830377	 0.391595	 0.377753	 -0.016610	 0.185749	 0.189553	 0.028525	 0.963719	 2
1463629543.588	 23	 0.129543	 0.871383	 0.831005	 0.397271	 0.382166	 -0.008837	 0.187042	 0.192915	 0.033224	 0.962650	 2
1463629543.598	 23	 0.053429	 0.850945	 0.768598	 0.403106	 0.385944	 -0.001350	 0.188027	 0.196349	 0.037743	 0.961597	 2
1463629543.618	 24	 -0.272605	 0.384106	 0.648793	 0.409529	 0.388772	 0.013453	 0.187782	 0.200775	 0.045738	 0.960383	 2
1463629543.628	 24	 -0.414129	 0.028135	 0.638187	 0.407687	 0.387806	 0.021431	 0.186561	 0.200652	 0.049302	 0.960470	 2
1463629543.638	 24	 -0.495611	 -0.287434	 0.649814	 0.402352	 0.385949	 0.029881	 0.184960	 0.198898	 0.052684	 0.960965	 2
1463629543.648	 24	 -0.511417	 -0.488260	 0.670464	 0.394609	 0.383813	 0.038635	 0.183279	 0.196005	 0.055975	 0.961695	 2
1463629543.658	 24	 -0.426319	 -0.567042	 0.694569	 0.385776	 0.382262	 0.047329	 0.181941	 0.192562	 0.059206	 0.962451	 2
1463629543.668	 24	 -0.350836	 -0.385526	 0.675351	 0.378164	 0.381371	 0.055706	 0.180942	 0.189663	 0.062467	 0.963009	 2
1463629543.678	 24	 -0.246627	 -0.189490	 0.616585	 0.373137	 0.381163	 0.063073	 0.180307	 0.187908	 0.065543	 0.963267	 2
1463629543.698	 25	 -0.233290	 -0.010356	 0.537138	 0.367172	 0.381096	 0.076158	 0.179255	 0.186211	 0.071303	 0.963384	 2
