% Gyrometer data recorded with 'snsrlog'
% 
% 
% Label description:
% 	 0: Default Label
% 	 1: still_drop
% 	 2: walk_drop
% 	 3: other
% 	 4: dtw_same
% 	 5: dtw_diff
% 	 6: delete
% 	 7: steal
% 
% Column description:
% 	 1: Seconds.milliseconds since 1970
% 	 2: Number of skipped measurements
% 	 3: Gyro X
% 	 4: Gyro Y
% 	 5: Gyro Z
% 	 6: Roll of the device
% 	 7: Pitch of the device
% 	 8: Yaw of the device
% 	 9: Quaternion X
% 	 10: Quaternion Y
% 	 11: Quaternion Z
% 	 12: Quaternion W
% 	 13: Label used for the current sample
% 
% 
1463623578.495	 0	 -0.987100	 -0.134863	 0.278657	 0.184815	 0.586051	 -0.054775	 0.289929	 0.080434	 0.000539	 0.953662	 1
1463623578.505	 0	 -0.895147	 -0.011608	 0.445263	 0.180672	 0.577731	 -0.048069	 0.285700	 0.079632	 0.002748	 0.955001	 1
1463623578.515	 0	 -0.793052	 0.160046	 0.690031	 0.176885	 0.570786	 -0.039028	 0.282034	 0.079267	 0.006212	 0.956104	 1
1463623578.525	 0	 -0.706430	 0.395986	 0.993083	 0.173696	 0.565230	 -0.026842	 0.278910	 0.079562	 0.011347	 0.956949	 1
1463623578.545	 1	 -0.597459	 0.829649	 1.583404	 0.168834	 0.557530	 0.007634	 0.273877	 0.082108	 0.026858	 0.957877	 1
1463623578.555	 1	 -0.595774	 1.043603	 1.753771	 0.167554	 0.554543	 0.028775	 0.271586	 0.084399	 0.036692	 0.958004	 1
1463623578.565	 1	 -0.612965	 1.230971	 1.770585	 0.168020	 0.551518	 0.050528	 0.269191	 0.087569	 0.047061	 0.957942	 1
1463623578.575	 1	 -0.643874	 1.331308	 1.660948	 0.170231	 0.548103	 0.071386	 0.266562	 0.091411	 0.057222	 0.957765	 1
1463623578.585	 1	 -0.684011	 1.373477	 1.446406	 0.174151	 0.544051	 0.090100	 0.263621	 0.095737	 0.066557	 0.957553	 1
1463623578.595	 1	 -0.736278	 1.410754	 1.139203	 0.180162	 0.539089	 0.105623	 0.260266	 0.100590	 0.074597	 0.957381	 1
1463623578.605	 1	 -0.811240	 1.429653	 0.781935	 0.188463	 0.532908	 0.117283	 0.256374	 0.105979	 0.081022	 0.957328	 1
1463623578.615	 1	 -0.897698	 1.456938	 0.423586	 0.199021	 0.525306	 0.125051	 0.251859	 0.111895	 0.085788	 0.957438	 1
1463623578.625	 1	 -0.984021	 1.526119	 0.102056	 0.211962	 0.516227	 0.129340	 0.246685	 0.118468	 0.089079	 0.957694	 1
1463623578.635	 1	 -1.038230	 1.558478	 -0.150823	 0.226760	 0.505994	 0.130872	 0.241005	 0.125564	 0.091160	 0.958040	 1
1463623578.645	 1	 -1.044568	 1.503952	 -0.338849	 0.242226	 0.495130	 0.130369	 0.235102	 0.132730	 0.092232	 0.958438	 1
1463623578.655	 1	 -1.006281	 1.373016	 -0.485344	 0.257291	 0.484140	 0.128275	 0.229260	 0.139532	 0.092401	 0.958871	 1
1463623578.665	 1	 -0.926236	 1.242210	 -0.597032	 0.271580	 0.473496	 0.124846	 0.223722	 0.145837	 0.091773	 0.959301	 1
1463623578.675	 1	 -0.875161	 1.250226	 -0.644296	 0.285808	 0.463237	 0.120701	 0.218439	 0.152067	 0.090738	 0.959649	 1
1463623578.685	 1	 -0.895336	 1.465413	 -0.605882	 0.301455	 0.452961	 0.116932	 0.213074	 0.159045	 0.089955	 0.959798	 1
1463623578.695	 1	 -0.966937	 1.822572	 -0.517740	 0.319810	 0.442297	 0.114424	 0.207315	 0.167475	 0.089945	 0.959626	 1
1463623578.705	 1	 -1.049179	 2.195633	 -0.441080	 0.341305	 0.431081	 0.113339	 0.201034	 0.177567	 0.090788	 0.959069	 1
1463623578.715	 1	 -1.094614	 2.505385	 -0.426079	 0.365751	 0.419402	 0.113088	 0.194317	 0.189158	 0.092150	 0.958107	 1
1463623578.725	 1	 -1.046839	 2.729230	 -0.486226	 0.392702	 0.407780	 0.112669	 0.187517	 0.201929	 0.093519	 0.956722	 1
1463623578.735	 1	 -0.912853	 2.948191	 -0.598326	 0.422213	 0.396786	 0.111078	 0.181018	 0.215813	 0.094449	 0.954849	 1
1463623578.745	 1	 -0.716444	 3.257555	 -0.685616	 0.455097	 0.386985	 0.108074	 0.175100	 0.231175	 0.094951	 0.952304	 1
1463623578.755	 1	 -0.471254	 3.672551	 -0.707336	 0.492271	 0.378996	 0.103939	 0.170011	 0.248463	 0.095314	 0.948830	 1
1463623578.765	 1	 -0.189293	 4.148429	 -0.678719	 0.534411	 0.373339	 0.098879	 0.165961	 0.267979	 0.095779	 0.944177	 1
1463623578.775	 1	 0.079576	 4.577429	 -0.666410	 0.581385	 0.369953	 0.092724	 0.162961	 0.289590	 0.096302	 0.938247	 1
1463623578.785	 1	 0.295290	 4.920657	 -0.769539	 0.632604	 0.367766	 0.084751	 0.160667	 0.312898	 0.096407	 0.931121	 1
1463623578.795	 1	 0.454376	 5.332468	 -0.971718	 0.688621	 0.365425	 0.074260	 0.158594	 0.338049	 0.095650	 0.922725	 1
1463623578.805	 1	 0.606583	 5.690712	 -1.229756	 0.749443	 0.362026	 0.060926	 0.156490	 0.364969	 0.093743	 0.912974	 1
1463623578.815	 1	 0.819908	 5.938750	 -1.553297	 0.814185	 0.357089	 0.044067	 0.154459	 0.393145	 0.090210	 0.901910	 1
1463623578.825	 1	 1.072361	 6.144901	 -1.917002	 0.882366	 0.350049	 0.023128	 0.152586	 0.422279	 0.084648	 0.889513	 1
1463623578.835	 1	 1.315348	 6.336569	 -2.228537	 0.953564	 0.340555	 -0.001352	 0.150863	 0.452183	 0.077175	 0.875679	 1
1463623578.845	 1	 1.555140	 6.519821	 -2.528399	 1.027290	 0.328237	 -0.028815	 0.149269	 0.482652	 0.067891	 0.860323	 1
1463623578.855	 1	 1.794949	 6.703104	 -2.823997	 1.103332	 0.312553	 -0.058831	 0.147721	 0.513597	 0.056794	 0.843309	 1
1463623578.865	 1	 2.037310	 6.724916	 -3.091279	 1.180285	 0.293263	 -0.090843	 0.146266	 0.544428	 0.043900	 0.824789	 1
1463623578.875	 1	 2.284134	 6.583795	 -3.384629	 1.255743	 0.269861	 -0.124400	 0.144837	 0.574191	 0.029020	 0.805285	 1
1463623578.885	 1	 2.535841	 6.355366	 -3.688425	 1.328816	 0.241936	 -0.159255	 0.143390	 0.602591	 0.012005	 0.784971	 1
1463623578.895	 1	 2.676842	 5.937079	 -3.964249	 1.397129	 0.209247	 -0.194085	 0.141566	 0.628845	 -0.006943	 0.764503	 1
1463623578.905	 1	 2.662698	 5.380372	 -4.177130	 1.458631	 0.172208	 -0.227013	 0.138904	 0.652356	 -0.027203	 0.744579	 1
1463623578.915	 1	 2.504927	 4.652118	 -4.343463	 1.511620	 0.131514	 -0.256444	 0.134940	 0.672663	 -0.048154	 0.725945	 1
1463623578.925	 1	 2.204150	 3.663984	 -4.470470	 1.553558	 0.088006	 -0.281109	 0.129170	 0.689006	 -0.069282	 0.709778	 1
1463623578.935	 1	 1.785133	 2.668151	 -4.533639	 1.583900	 0.042823	 -0.300161	 0.121262	 0.701314	 -0.089939	 0.696682	 1
1463623578.945	 1	 1.376817	 1.879905	 -4.567261	 1.604808	 -0.003087	 -0.313798	 0.111293	 0.710364	 -0.109691	 0.686269	 1
1463623578.955	 1	 1.096509	 1.318788	 -4.615869	 1.618977	 -0.049529	 -0.323448	 0.099672	 0.717019	 -0.128740	 0.677772	 1
1463623578.965	 1	 0.990338	 1.065246	 -4.714289	 1.629533	 -0.096848	 -0.330997	 0.086968	 0.722254	 -0.147625	 0.670069	 1
1463623578.975	 1	 1.057869	 1.008819	 -4.841162	 1.638819	 -0.145512	 -0.338303	 0.073777	 0.726762	 -0.166979	 0.662188	 1
1463623578.985	 1	 1.246777	 1.044156	 -4.878713	 1.647624	 -0.195001	 -0.346799	 0.060844	 0.730717	 -0.187022	 0.653738	 1
1463623578.995	 1	 1.490104	 1.255247	 -4.858618	 1.657284	 -0.244640	 -0.357325	 0.048844	 0.734519	 -0.207711	 0.644168	 1
1463623579.005	 1	 1.740033	 1.567913	 -4.909041	 1.668733	 -0.294864	 -0.370010	 0.037826	 0.738478	 -0.229186	 0.633004	 1
1463623579.015	 1	 1.934795	 1.903476	 -4.904417	 1.682425	 -0.345705	 -0.384411	 0.027745	 0.742720	 -0.251283	 0.620043	 1
1463623579.025	 1	 2.104562	 2.060087	 -4.799994	 1.697031	 -0.396119	 -0.400218	 0.018740	 0.746809	 -0.273530	 0.605893	 1
1463623579.035	 1	 2.261072	 2.018726	 -4.573668	 1.710400	 -0.445038	 -0.417627	 0.010952	 0.750119	 -0.295584	 0.591465	 1
1463623579.045	 1	 2.363193	 1.668794	 -4.239966	 1.719494	 -0.491245	 -0.436615	 0.004244	 0.751863	 -0.316967	 0.578115	 1
1463623579.055	 1	 2.372541	 1.235960	 -3.788995	 1.722991	 -0.533455	 -0.456847	 -0.001456	 0.751844	 -0.337078	 0.566663	 1
1463623579.065	 1	 2.238613	 0.895665	 -3.248523	 1.721939	 -0.570380	 -0.477373	 -0.006071	 0.750553	 -0.355195	 0.557198	 1
1463623579.075	 1	 1.973811	 0.658747	 -2.732593	 1.718486	 -0.601659	 -0.496491	 -0.009837	 0.748705	 -0.370774	 0.549427	 1
1463623579.085	 1	 1.776678	 0.591142	 -2.308398	 1.714291	 -0.628143	 -0.514154	 -0.012773	 0.746786	 -0.384165	 0.542738	 1
1463623579.095	 1	 1.694595	 0.311047	 -1.952193	 1.707774	 -0.650697	 -0.531714	 -0.014972	 0.744378	 -0.396068	 0.537407	 1
1463623579.105	 1	 1.702225	 0.084599	 -1.642098	 1.697754	 -0.669973	 -0.550141	 -0.016558	 0.741181	 -0.406982	 0.533613	 1
1463623579.115	 1	 1.661351	 -0.023596	 -1.325152	 1.685705	 -0.685959	 -0.569340	 -0.017295	 0.737606	 -0.416925	 0.530860	 1
1463623579.125	 1	 1.553428	 -0.105954	 -0.992461	 1.672785	 -0.698358	 -0.588252	 -0.017238	 0.733956	 -0.425585	 0.529045	 1
1463623579.135	 1	 1.417431	 -0.258423	 -0.659112	 1.658992	 -0.707126	 -0.606279	 -0.016574	 0.730210	 -0.432846	 0.528359	 1
1463623579.145	 1	 1.252233	 -0.462124	 -0.362222	 1.644075	 -0.712489	 -0.622858	 -0.015620	 0.726263	 -0.438679	 0.529017	 1
1463623579.155	 1	 1.030362	 -0.648992	 -0.113706	 1.628713	 -0.714937	 -0.637107	 -0.014688	 0.722246	 -0.443044	 0.530902	 1
1463623579.165	 1	 0.632343	 -0.823865	 0.104482	 1.614576	 -0.714790	 -0.646842	 -0.014271	 0.718556	 -0.445491	 0.533864	 1
1463623579.175	 1	 0.348915	 -1.037184	 0.200883	 1.601171	 -0.713106	 -0.652316	 -0.014712	 0.715030	 -0.446388	 0.537823	 1
1463623579.185	 1	 0.166691	 -1.238467	 0.237899	 1.587343	 -0.710843	 -0.655161	 -0.015991	 0.711346	 -0.446420	 0.542623	 1
1463623579.195	 1	 0.077867	 -1.312473	 0.263562	 1.573599	 -0.708344	 -0.656374	 -0.017747	 0.707636	 -0.445945	 0.547785	 1
1463623579.205	 1	 0.107027	 -1.325638	 0.366564	 1.559445	 -0.704952	 -0.657618	 -0.019260	 0.703780	 -0.445228	 0.553258	 1
1463623579.215	 1	 0.190712	 -1.104855	 0.485124	 1.546387	 -0.700379	 -0.659702	 -0.019806	 0.700198	 -0.444437	 0.558396	 1
1463623579.225	 1	 0.292208	 -0.754141	 0.634579	 1.535820	 -0.694325	 -0.662963	 -0.018848	 0.697286	 -0.443616	 0.562709	 1
1463623579.235	 1	 0.372342	 -0.422377	 0.802161	 1.528148	 -0.686578	 -0.667181	 -0.016300	 0.695159	 -0.442659	 0.566163	 1
1463623579.245	 1	 0.373934	 -0.163249	 0.895149	 1.523126	 -0.677620	 -0.671578	 -0.012662	 0.693742	 -0.441471	 0.568916	 1
1463623579.255	 1	 0.247298	 0.015979	 0.772159	 1.520862	 -0.669325	 -0.674723	 -0.009082	 0.693070	 -0.440135	 0.570836	 1
1463623579.265	 1	 0.099531	 0.266306	 0.618042	 1.522122	 -0.662735	 -0.675981	 -0.005995	 0.693387	 -0.438731	 0.571570	 1
1463623579.275	 1	 0.013017	 0.357113	 0.491749	 1.525519	 -0.657474	 -0.676117	 -0.003310	 0.694317	 -0.437362	 0.571513	 1
1463623579.285	 1	 -0.050093	 0.451935	 0.341842	 1.530127	 -0.653713	 -0.675408	 -0.001199	 0.695601	 -0.436148	 0.570888	 1
1463623579.295	 1	 -0.019698	 0.644699	 0.242124	 1.536435	 -0.651113	 -0.674866	 0.000920	 0.697378	 -0.435287	 0.569375	 1
1463623579.305	 1	 0.093714	 0.742964	 0.198355	 1.543310	 -0.649085	 -0.675529	 0.003372	 0.699315	 -0.434914	 0.567271	 1
1463623579.315	 1	 0.282763	 0.694196	 0.296437	 1.548695	 -0.646411	 -0.678396	 0.006502	 0.700812	 -0.434979	 0.565344	 1
1463623579.325	 1	 0.450775	 0.649208	 0.467209	 1.552177	 -0.642096	 -0.683402	 0.010552	 0.701736	 -0.435190	 0.563972	 1
1463623579.335	 1	 0.514328	 0.650093	 0.614805	 1.554944	 -0.636177	 -0.689602	 0.015437	 0.702415	 -0.435287	 0.562939	 1
1463623579.345	 1	 0.512086	 0.754127	 0.733026	 1.558549	 -0.629093	 -0.695838	 0.020930	 0.703286	 -0.435051	 0.561855	 1
1463623579.355	 1	 0.573928	 0.903414	 0.810612	 1.563275	 -0.621176	 -0.702578	 0.027137	 0.704418	 -0.434692	 0.560447	 1
1463623579.365	 1	 0.703919	 0.987907	 0.927500	 1.568241	 -0.612135	 -0.710702	 0.034280	 0.705535	 -0.434375	 0.558895	 1
1463623579.375	 1	 0.867091	 1.114662	 1.018914	 1.573332	 -0.602198	 -0.720761	 0.042444	 0.706572	 -0.434311	 0.557071	 1
1463623579.385	 1	 1.026072	 1.220480	 1.154932	 1.578565	 -0.591047	 -0.732739	 0.051741	 0.707494	 -0.434398	 0.555043	 1
1463623579.395	 1	 1.175264	 1.305955	 1.268465	 1.583754	 -0.578729	 -0.746573	 0.062090	 0.708215	 -0.434625	 0.552881	 1
1463623579.405	 1	 1.303661	 1.414805	 1.223598	 1.589292	 -0.566446	 -0.761929	 0.073032	 0.708851	 -0.435218	 0.550257	 1
1463623579.415	 1	 1.396078	 1.535026	 0.972392	 1.595530	 -0.556258	 -0.778490	 0.083815	 0.709561	 -0.436643	 0.546664	 1
1463623579.425	 1	 1.302933	 1.618230	 0.528489	 1.603177	 -0.550169	 -0.794455	 0.093272	 0.710703	 -0.438931	 0.541794	 1
1463623579.435	 1	 1.049119	 1.605920	 0.048859	 1.612452	 -0.548893	 -0.807589	 0.100428	 0.712515	 -0.441660	 0.535885	 1
1463623579.445	 1	 0.817841	 1.619079	 -0.429663	 1.623265	 -0.552377	 -0.817596	 0.105197	 0.715022	 -0.444754	 0.529029	 1
1463623579.455	 1	 0.650696	 1.765988	 -0.772148	 1.636503	 -0.559763	 -0.825244	 0.108365	 0.718384	 -0.448146	 0.520909	 1
1463623579.475	 2	 0.216029	 1.168224	 -0.949776	 1.662852	 -0.579268	 -0.832784	 0.110406	 0.725448	 -0.454183	 0.505226	 1
1463623579.485	 2	 0.046127	 0.592906	 -0.858798	 1.670117	 -0.588091	 -0.832759	 0.109072	 0.727566	 -0.456292	 0.500548	 1
1463623579.495	 2	 -0.051219	 0.337751	 -0.882706	 1.674689	 -0.596679	 -0.831343	 0.106708	 0.729045	 -0.458141	 0.497206	 1
1463623579.505	 2	 -0.079206	 0.355322	 -0.964362	 1.679278	 -0.606053	 -0.829231	 0.103835	 0.730556	 -0.460048	 0.493825	 1
1463623579.515	 2	 -0.074408	 0.503898	 -1.007783	 1.685202	 -0.615781	 -0.826928	 0.101089	 0.732376	 -0.461951	 0.489905	 1
1463623579.525	 2	 -0.016437	 0.651982	 -1.097500	 1.692556	 -0.626398	 -0.824984	 0.098517	 0.734503	 -0.464139	 0.485155	 1
1463623579.535	 2	 0.008466	 0.655895	 -1.280991	 1.700282	 -0.638565	 -0.823140	 0.095565	 0.736687	 -0.466792	 0.479859	 1
1463623579.545	 2	 0.019451	 0.533400	 -1.594495	 1.707361	 -0.653556	 -0.820843	 0.091370	 0.738711	 -0.470191	 0.474213	 1
1463623579.555	 2	 0.034646	 0.400239	 -1.910267	 1.713404	 -0.671769	 -0.817982	 0.085666	 0.740462	 -0.474436	 0.468282	 1
1463623579.565	 2	 0.077666	 0.428308	 -2.128861	 1.719414	 -0.692450	 -0.814935	 0.079083	 0.742112	 -0.479350	 0.461778	 1
1463623579.575	 2	 0.132109	 0.543119	 -2.261487	 1.726437	 -0.714701	 -0.812024	 0.072297	 0.743850	 -0.484708	 0.454443	 1
1463623579.585	 2	 0.176458	 0.730716	 -2.334731	 1.734973	 -0.737858	 -0.809334	 0.065692	 0.745755	 -0.490329	 0.446220	 1
1463623579.595	 2	 0.100897	 1.045382	 -2.387630	 1.747136	 -0.761480	 -0.805570	 0.059471	 0.748299	 -0.495751	 0.436740	 1
1463623579.605	 2	 -0.046087	 1.375161	 -2.438702	 1.764654	 -0.785307	 -0.799212	 0.053612	 0.751826	 -0.500580	 0.425797	 1
1463623579.615	 2	 -0.070323	 1.366302	 -2.350115	 1.784410	 -0.808515	 -0.791207	 0.047983	 0.755576	 -0.504941	 0.414531	 1
1463623579.625	 2	 0.051869	 0.759686	 -2.049950	 1.798586	 -0.829400	 -0.784561	 0.042288	 0.757934	 -0.509167	 0.405583	 1
1463623579.645	 2	 0.242561	 0.551329	 -1.078377	 1.809554	 -0.858831	 -0.780357	 0.034009	 0.759011	 -0.516428	 0.395030	 1
1463623579.655	 2	 0.210408	 1.223084	 -0.566675	 1.819620	 -0.866051	 -0.781028	 0.034548	 0.760642	 -0.518422	 0.389189	 1
1463623579.635	 2	 0.198602	 0.265833	 -1.597546	 1.804689	 -0.846490	 -0.781101	 0.037016	 0.758562	 -0.513181	 0.399824	 1
1463623579.665	 2	 0.278071	 1.657606	 -0.167823	 1.833198	 -0.869182	 -0.783817	 0.038132	 0.763060	 -0.519600	 0.382493	 1
1463623579.675	 2	 0.469302	 1.759538	 0.031824	 1.845962	 -0.870351	 -0.790022	 0.043451	 0.765295	 -0.520848	 0.375703	 1
1463623579.685	 2	 0.468585	 1.381956	 0.031514	 1.855396	 -0.871297	 -0.797678	 0.048545	 0.766831	 -0.522327	 0.369849	 1
1463623579.695	 2	 0.243713	 0.615119	 -0.055727	 1.860115	 -0.872474	 -0.801818	 0.050995	 0.767537	 -0.523308	 0.366653	 1
1463623579.705	 2	 0.249358	 0.294385	 -0.134430	 1.861354	 -0.874203	 -0.804864	 0.051943	 0.767599	 -0.524326	 0.364934	 1
1463623579.715	 2	 0.294975	 0.153683	 -0.304527	 1.860742	 -0.877475	 -0.807992	 0.051950	 0.767242	 -0.525842	 0.363500	 1
1463623579.725	 2	 0.368574	 0.121939	 -0.545260	 1.859561	 -0.883101	 -0.811070	 0.051043	 0.766664	 -0.528023	 0.361680	 1
1463623579.735	 2	 0.480556	 0.326055	 -0.806513	 1.859496	 -0.891458	 -0.814495	 0.049697	 0.766138	 -0.530996	 0.358617	 1
1463623579.745	 2	 0.829332	 0.756865	 -1.098626	 1.860824	 -0.903321	 -0.820936	 0.048765	 0.765593	 -0.535429	 0.353277	 1
1463623579.755	 2	 1.320138	 1.282339	 -1.479552	 1.862695	 -0.919951	 -0.833172	 0.048688	 0.764725	 -0.542125	 0.344857	 1
1463623579.765	 2	 1.793087	 1.683068	 -1.909443	 1.864078	 -0.942025	 -0.851396	 0.049034	 0.763290	 -0.551198	 0.333414	 1
1463623579.775	 2	 2.140114	 1.680644	 -2.396343	 1.862467	 -0.969718	 -0.874294	 0.048511	 0.760892	 -0.562353	 0.320076	 1
1463623579.785	 2	 2.067227	 1.314882	 -2.848864	 1.857704	 -1.002132	 -0.897085	 0.045464	 0.757713	 -0.574411	 0.306360	 1
1463623579.805	 3	 1.503574	 0.272216	 -3.268240	 1.846767	 -1.071272	 -0.925566	 0.030779	 0.751208	 -0.595835	 0.282348	 1
1463623579.815	 3	 1.159646	 -0.159150	 -3.636948	 1.841254	 -1.108680	 -0.931044	 0.019076	 0.747793	 -0.605436	 0.271825	 1
1463623579.825	 3	 0.718806	 -0.291618	 -4.041463	 1.843933	 -1.148950	 -0.925015	 0.004603	 0.745120	 -0.613818	 0.260774	 1
1463623579.835	 3	 0.326687	 -0.191142	 -4.277977	 1.859969	 -1.190736	 -0.905181	 -0.011296	 0.743482	 -0.620746	 0.248558	 1
1463623579.845	 3	 0.065846	 -0.031087	 -4.312584	 1.890718	 -1.232271	 -0.871616	 -0.027397	 0.742610	 -0.626404	 0.235365	 1
1463623579.855	 3	 0.011606	 0.103157	 -4.156327	 1.933653	 -1.271974	 -0.827121	 -0.042783	 0.741901	 -0.631282	 0.221890	 1
1463623579.865	 3	 0.069288	 0.289394	 -3.825776	 1.986972	 -1.308482	 -0.774197	 -0.056553	 0.741093	 -0.635687	 0.208531	 1
1463623579.875	 3	 0.167292	 0.626767	 -3.464328	 2.048305	 -1.341104	 -0.716440	 -0.067859	 0.740076	 -0.639956	 0.195293	 1
1463623579.885	 3	 0.143285	 1.018687	 -3.256912	 2.125626	 -1.370584	 -0.646844	 -0.076901	 0.739236	 -0.643999	 0.181330	 1
1463623579.895	 3	 0.128500	 1.250831	 -3.224781	 2.229959	 -1.397791	 -0.552897	 -0.084840	 0.738591	 -0.647730	 0.166524	 1
1463623579.905	 3	 0.174043	 1.262724	 -3.326314	 2.371266	 -1.423506	 -0.422727	 -0.092718	 0.737608	 -0.651524	 0.151174	 1
1463623579.915	 3	 0.121484	 0.952541	 -3.293573	 2.564718	 -1.445452	 -0.238047	 -0.101438	 0.736276	 -0.654954	 0.136538	 1
1463623579.925	 3	 -0.064562	 0.396715	 -2.721614	 2.788732	 -1.458409	 -0.017989	 -0.110335	 0.735151	 -0.657084	 0.124979	 1
1463623579.935	 3	 -0.235527	 -0.182440	 -1.547847	 2.954808	 -1.461484	 0.149632	 -0.117487	 0.734708	 -0.657464	 0.118922	 1
1463623579.945	 3	 -0.312264	 -0.390286	 -0.467364	 3.018771	 -1.459615	 0.217665	 -0.121477	 0.735052	 -0.656564	 0.117752	 1
1463623579.955	 3	 -0.145954	 -0.176648	 0.312248	 3.007130	 -1.457401	 0.208493	 -0.121949	 0.735659	 -0.655574	 0.118983	 1
1463623579.965	 3	 0.158743	 0.251076	 0.749472	 2.949540	 -1.457134	 0.149114	 -0.118980	 0.735873	 -0.655564	 0.120705	 1
1463623579.975	 3	 0.384897	 0.641134	 0.801223	 2.878957	 -1.458601	 0.072529	 -0.113996	 0.735571	 -0.656637	 0.121522	 1
1463623579.985	 3	 0.469692	 0.863216	 0.659739	 2.815159	 -1.460946	 0.000093	 -0.108453	 0.734955	 -0.658349	 0.121065	 1
1463623579.995	 3	 0.430786	 0.891971	 0.502613	 2.763631	 -1.463287	 -0.060757	 -0.103251	 0.734305	 -0.660142	 0.119785	 1
1463623580.005	 3	 0.298407	 0.745874	 0.395803	 2.735710	 -1.467459	 -0.096936	 -0.099565	 0.733126	 -0.662384	 0.117735	 1
1463623580.015	 3	 0.121978	 0.479149	 0.357547	 2.706536	 -1.468298	 -0.131860	 -0.096515	 0.732856	 -0.663302	 0.116777	 1
1463623580.025	 3	 -0.015314	 0.125262	 0.338285	 2.745740	 -1.477037	 -0.095331	 -0.097678	 0.730514	 -0.666229	 0.113791	 1
1463623580.035	 3	 -0.073114	 -0.285688	 0.251651	 2.867220	 -1.489859	 0.027286	 -0.102636	 0.726896	 -0.670117	 0.109687	 1
1463623580.045	 3	 -0.076769	 -0.693139	 0.086875	 2.937061	 -1.494306	 0.102755	 -0.106761	 0.725268	 -0.671264	 0.109511	 1
1463623580.055	 3	 -0.060694	 -0.981645	 -0.090737	 2.943044	 -1.493439	 0.117946	 -0.110246	 0.725070	 -0.670428	 0.112450	 1
1463623580.065	 3	 -0.044351	 -1.075815	 -0.163160	 2.953480	 -1.492987	 0.139080	 -0.114404	 0.724632	 -0.669643	 0.115752	 1
1463623580.075	 3	 -0.042826	 -0.987463	 -0.152758	 2.964337	 -1.492504	 0.160198	 -0.118415	 0.724204	 -0.668859	 0.118887	 1
1463623580.085	 3	 -0.067226	 -0.752145	 -0.126907	 2.973440	 -1.491782	 0.177538	 -0.121649	 0.723955	 -0.668099	 0.121386	 1
1463623580.095	 3	 -0.128648	 -0.453900	 -0.092671	 2.973661	 -1.488308	 0.183126	 -0.123598	 0.724804	 -0.666495	 0.123155	 1
1463623580.105	 3	 -0.221122	 -0.190547	 -0.042423	 2.923447	 -1.475611	 0.135704	 -0.122926	 0.728892	 -0.661668	 0.125698	 1
1463623580.115	 3	 -0.301186	 -0.010212	 0.005780	 2.929843	 -1.472868	 0.142603	 -0.123282	 0.729791	 -0.660615	 0.125675	 1
1463623580.125	 3	 -0.361686	 0.027469	 0.043959	 2.933864	 -1.469381	 0.146379	 -0.123284	 0.730981	 -0.659334	 0.125482	 1
1463623580.135	 3	 -0.392954	 -0.054217	 0.060524	 2.935771	 -1.465476	 0.148569	 -0.123403	 0.732274	 -0.657866	 0.125534	 1
1463623580.145	 3	 -0.396977	 -0.217034	 0.047320	 2.936792	 -1.461475	 0.151334	 -0.124029	 0.733504	 -0.656269	 0.126094	 1
1463623580.155	 3	 -0.357312	 -0.381153	 0.018803	 2.937956	 -1.457815	 0.155949	 -0.125295	 0.734511	 -0.654687	 0.127199	 1
1463623580.165	 3	 -0.294990	 -0.539620	 0.045562	 2.935401	 -1.454683	 0.158428	 -0.127004	 0.735234	 -0.653199	 0.128963	 1
1463623580.175	 3	 -0.187564	 -0.619671	 0.050276	 2.928862	 -1.452439	 0.157984	 -0.128945	 0.735583	 -0.651972	 0.131235	 1
1463623580.185	 3	 -0.082655	 -0.514990	 0.007706	 2.923576	 -1.451352	 0.158182	 -0.130725	 0.735582	 -0.651210	 0.133250	 1
1463623580.195	 3	 -0.021470	 -0.317333	 -0.138062	 2.927765	 -1.451230	 0.166128	 -0.132282	 0.735380	 -0.650909	 0.134297	 1
1463623580.205	 3	 -0.038768	 -0.062670	 -0.228263	 2.945058	 -1.451416	 0.184830	 -0.133531	 0.735236	 -0.650872	 0.134025	 1
1463623580.215	 3	 -0.134402	 0.120612	 -0.073321	 2.957672	 -1.450567	 0.196715	 -0.133794	 0.735566	 -0.650604	 0.133251	 1
1463623580.225	 3	 -0.178036	 0.214637	 0.114442	 2.956269	 -1.448743	 0.193331	 -0.133001	 0.736304	 -0.650053	 0.132656	 1
1463623580.235	 3	 -0.158346	 0.243924	 0.200870	 2.946466	 -1.446747	 0.181034	 -0.131647	 0.737130	 -0.649472	 0.132265	 1
1463623580.245	 3	 -0.101832	 0.224693	 0.211922	 2.934092	 -1.445174	 0.166228	 -0.130191	 0.737803	 -0.649051	 0.132022	 1
1463623580.255	 3	 -0.027305	 0.205177	 0.190842	 2.921792	 -1.444297	 0.151718	 -0.128815	 0.738221	 -0.648884	 0.131858	 1
1463623580.265	 3	 0.049446	 0.220616	 0.150884	 2.911031	 -1.444231	 0.138699	 -0.127500	 0.738368	 -0.649027	 0.131606	 1
1463623580.275	 3	 0.111278	 0.250898	 0.098406	 2.903077	 -1.444912	 0.128237	 -0.126235	 0.738284	 -0.649465	 0.131137	 1
1463623580.285	 3	 0.159325	 0.297200	 0.049393	 2.898519	 -1.446213	 0.120775	 -0.124994	 0.738025	 -0.650153	 0.130374	 1
1463623580.295	 3	 0.200008	 0.336334	 0.035548	 2.895315	 -1.447979	 0.114233	 -0.123669	 0.737640	 -0.651038	 0.129395	 1
1463623580.305	 3	 0.237319	 0.314009	 0.052068	 2.890245	 -1.450070	 0.105876	 -0.122299	 0.737135	 -0.652046	 0.128499	 1
1463623580.315	 3	 0.282990	 0.271301	 0.048075	 2.883183	 -1.452559	 0.095930	 -0.121015	 0.736463	 -0.653181	 0.127796	 1
1463623580.325	 3	 0.335924	 0.230305	 -0.010318	 2.877904	 -1.455658	 0.088204	 -0.120001	 0.735565	 -0.654508	 0.127132	 1
1463623580.335	 3	 0.354478	 0.152082	 -0.082614	 2.877049	 -1.459276	 0.085485	 -0.119408	 0.734473	 -0.655973	 0.126455	 1
1463623580.345	 3	 0.220010	 -0.273204	 -0.115242	 2.879207	 -1.461942	 0.089442	 -0.120244	 0.733486	 -0.656840	 0.126888	 1
1463623580.355	 3	 0.195742	 -0.442234	 -0.113406	 2.880483	 -1.464191	 0.094835	 -0.121876	 0.732492	 -0.657407	 0.128133	 1
1463623580.365	 3	 0.153811	 -0.512273	 -0.108364	 2.881490	 -1.466069	 0.100876	 -0.123816	 0.731560	 -0.657774	 0.129703	 1
1463623580.375	 3	 0.089871	 -0.502431	 -0.097058	 2.883194	 -1.467352	 0.107710	 -0.125793	 0.730816	 -0.657910	 0.131297	 1
1463623580.385	 3	 0.009090	 -0.455209	 -0.071403	 2.885071	 -1.467844	 0.114292	 -0.127595	 0.730358	 -0.657776	 0.132765	 1
1463623580.395	 3	 -0.075948	 -0.409007	 -0.041457	 2.886740	 -1.467426	 0.120183	 -0.129186	 0.730231	 -0.657336	 0.134101	 1
1463623580.405	 3	 -0.130034	 -0.356562	 -0.018117	 2.888098	 -1.466340	 0.125262	 -0.130565	 0.730356	 -0.656680	 0.135295	 1
1463623580.415	 3	 -0.148068	 -0.343659	 -0.006116	 2.888853	 -1.464959	 0.129482	 -0.131823	 0.730592	 -0.655931	 0.136430	 1
1463623580.425	 3	 -0.138666	 -0.380963	 -0.012940	 2.889398	 -1.463606	 0.133748	 -0.133169	 0.730798	 -0.655173	 0.137653	 1
1463623580.435	 3	 -0.103677	 -0.415222	 -0.029550	 2.890239	 -1.462569	 0.138694	 -0.134676	 0.730872	 -0.654502	 0.138983	 1
1463623580.445	 3	 -0.072946	 -0.442068	 -0.052448	 2.891890	 -1.461912	 0.144720	 -0.136323	 0.730798	 -0.653949	 0.140361	 1
1463623580.455	 3	 -0.073248	 -0.466882	 -0.100652	 2.902701	 -1.463126	 0.160173	 -0.138456	 0.730093	 -0.654054	 0.141451	 1
1463623580.465	 3	 -0.093827	 -0.463153	 -0.181436	 2.914308	 -1.462641	 0.176526	 -0.140624	 0.729938	 -0.653522	 0.142563	 1
1463623580.475	 3	 -0.246305	 -0.615206	 -0.236943	 2.932569	 -1.461203	 0.200586	 -0.143430	 0.730017	 -0.652562	 0.143756	 1
1463623580.485	 3	 -0.454824	 -0.826087	 -0.360718	 2.960406	 -1.457826	 0.236424	 -0.147446	 0.730549	 -0.650740	 0.145241	 1
1463623580.495	 3	 -0.419337	 -0.742395	 -0.392222	 2.992811	 -1.454086	 0.276944	 -0.151769	 0.731126	 -0.648816	 0.146487	 1
1463623580.505	 3	 -0.285932	 -0.574222	 -0.321478	 3.018731	 -1.451399	 0.309159	 -0.155211	 0.731449	 -0.647438	 0.147363	 1
1463623580.515	 3	 -0.199105	 -0.565339	 -0.234759	 3.036254	 -1.449511	 0.332451	 -0.158123	 0.731544	 -0.646386	 0.148411	 1
1463623580.525	 3	 -0.170488	 -0.668066	 -0.162437	 3.051728	 -1.448416	 0.354392	 -0.161191	 0.731306	 -0.645579	 0.149786	 1
1463623580.535	 3	 -0.122040	 -0.609438	 -0.125011	 3.056835	 -1.447153	 0.366010	 -0.163846	 0.731162	 -0.644651	 0.151599	 1
1463623580.545	 3	 -0.031963	 -0.285354	 -0.132372	 3.063683	 -1.446712	 0.376712	 -0.165572	 0.730946	 -0.644238	 0.152520	 1
1463623580.555	 3	 0.037958	 0.080134	 -0.158355	 3.075583	 -1.447036	 0.388817	 -0.166145	 0.730742	 -0.644423	 0.152091	 1
1463623580.565	 3	 0.098262	 0.438244	 -0.178995	 3.092885	 -1.447981	 0.402703	 -0.165589	 0.730590	 -0.645156	 0.150307	 1
1463623580.575	 3	 0.110299	 0.725402	 -0.176427	 3.113473	 -1.449148	 0.416819	 -0.164028	 0.730579	 -0.646232	 0.147426	 1
1463623580.585	 3	 0.073710	 0.914591	 -0.209518	 3.138554	 -1.450048	 0.433276	 -0.161868	 0.730771	 -0.647407	 0.143654	 1
1463623580.595	 3	 -0.001853	 0.979507	 -0.234898	 -3.117779	 -1.450296	 0.450588	 -0.159479	 0.731200	 -0.648430	 0.139469	 1
1463623580.605	 3	 -0.017627	 1.017940	 -0.221614	 -3.088981	 -1.450006	 0.469459	 -0.157061	 0.731777	 -0.649308	 0.135031	 1
1463623580.615	 3	 0.068283	 1.078768	 -0.158916	 -3.063608	 -1.450305	 0.484314	 -0.154227	 0.732210	 -0.650404	 0.130601	 1
1463623580.625	 3	 0.185157	 1.145864	 -0.099626	 -3.041801	 -1.451776	 0.494900	 -0.150861	 0.732335	 -0.651916	 0.126218	 1
1463623580.635	 3	 0.264471	 1.183986	 -0.078594	 -3.028715	 -1.453715	 0.496340	 -0.146922	 0.732427	 -0.653494	 0.122106	 1
1463623580.645	 3	 0.304058	 1.213580	 -0.088256	 -3.006320	 -1.456564	 0.506755	 -0.143109	 0.732114	 -0.655508	 0.117636	 1
1463623580.655	 3	 0.294574	 1.265497	 -0.119663	 -2.980179	 -1.459375	 0.520480	 -0.139238	 0.731769	 -0.657556	 0.112907	 1
1463623580.665	 3	 0.215761	 1.340883	 -0.169432	 -2.949331	 -1.461450	 0.538215	 -0.135323	 0.731605	 -0.659422	 0.107721	 1
1463623580.675	 3	 0.112324	 1.398278	 -0.217023	 -2.913825	 -1.461932	 0.560007	 -0.131516	 0.731864	 -0.660816	 0.101987	 1
1463623580.685	 3	 0.025933	 1.431309	 -0.243673	 -2.877395	 -1.461795	 0.582301	 -0.127647	 0.732265	 -0.662025	 0.096006	 1
1463623580.695	 3	 -0.022346	 1.377206	 -0.243756	 -2.842262	 -1.460985	 0.603580	 -0.123922	 0.732804	 -0.662970	 0.090063	 1
1463623580.705	 3	 -0.041878	 1.224829	 -0.143756	 -2.815316	 -1.460101	 0.617987	 -0.120402	 0.733365	 -0.663690	 0.084823	 1
1463623580.715	 3	 -0.074032	 1.062279	 0.014875	 -2.804420	 -1.459383	 0.617807	 -0.116833	 0.734038	 -0.664104	 0.080648	 1
1463623580.725	 3	 -0.056759	 0.803354	 0.103971	 -2.804834	 -1.459059	 0.608603	 -0.113643	 0.734647	 -0.664337	 0.077690	 1
1463623580.735	 3	 -0.004611	 0.499418	 0.160372	 -2.812079	 -1.459366	 0.595507	 -0.111190	 0.735014	 -0.664536	 0.076051	 1
1463623580.745	 3	 0.045282	 0.205816	 0.174257	 -2.822990	 -1.460241	 0.581752	 -0.109627	 0.735099	 -0.664749	 0.075628	 1
1463623580.755	 3	 0.066565	 -0.035665	 0.177154	 -2.836193	 -1.461383	 0.568249	 -0.108883	 0.734994	 -0.664926	 0.076168	 1
1463623580.765	 3	 0.054040	 -0.214210	 0.191588	 -2.852770	 -1.462496	 0.553328	 -0.108751	 0.734833	 -0.664976	 0.077465	 1
1463623580.775	 3	 0.021617	 -0.321359	 0.216451	 -2.873599	 -1.463363	 0.535379	 -0.108961	 0.734729	 -0.664843	 0.079275	 1
1463623580.785	 3	 -0.006293	 -0.370081	 0.233293	 -2.898070	 -1.463950	 0.514424	 -0.109319	 0.734709	 -0.664552	 0.081380	 1
1463623580.795	 3	 -0.021240	 -0.352124	 0.210144	 -2.921834	 -1.464264	 0.494135	 -0.109720	 0.734744	 -0.664195	 0.083411	 1
1463623580.805	 3	 -0.029717	 -0.300319	 0.163806	 -2.941756	 -1.464369	 0.477274	 -0.110127	 0.734798	 -0.663848	 0.085145	 1
1463623580.815	 3	 -0.037132	 -0.227436	 0.091011	 -2.954896	 -1.464235	 0.466537	 -0.110558	 0.734869	 -0.663536	 0.086394	 1
1463623580.825	 3	 -0.049794	 -0.155432	 0.041700	 -2.962096	 -1.463880	 0.461044	 -0.110967	 0.734973	 -0.663250	 0.087177	 1
1463623580.835	 3	 -0.067735	 -0.105454	 0.032730	 -2.967417	 -1.463315	 0.456855	 -0.111252	 0.735152	 -0.662938	 0.087680	 1
1463623580.845	 3	 -0.081437	 -0.076632	 0.041643	 -2.972993	 -1.462599	 0.452086	 -0.111423	 0.735400	 -0.662583	 0.088070	 1
1463623580.855	 3	 -0.076941	 -0.041477	 0.053684	 -3.007984	 -1.463934	 0.417735	 -0.110252	 0.735322	 -0.662647	 0.089694	 1
1463623580.865	 3	 -0.052206	 -0.007459	 0.061246	 -3.014395	 -1.463426	 0.411436	 -0.110107	 0.735545	 -0.662394	 0.089916	 1
1463623580.875	 3	 -0.010462	 0.006352	 0.075932	 -3.021255	 -1.463300	 0.404499	 -0.109839	 0.735658	 -0.662284	 0.090129	 1
1463623580.885	 3	 0.034488	 0.021217	 0.090599	 -3.028895	 -1.463637	 0.396650	 -0.109452	 0.735634	 -0.662341	 0.090372	 1
1463623580.895	 3	 0.064457	 0.029705	 0.101092	 -3.053579	 -1.465202	 0.371733	 -0.108337	 0.735363	 -0.662694	 0.091332	 1
1463623580.905	 3	 0.086950	 0.038224	 0.111633	 -3.062856	 -1.466111	 0.362037	 -0.107778	 0.735166	 -0.662966	 0.091603	 1
1463623580.915	 3	 0.092262	 0.026565	 0.120021	 -3.087779	 -1.466548	 0.336811	 -0.106735	 0.735229	 -0.662949	 0.092436	 1
1463623580.925	 3	 0.094306	 0.000042	 0.130432	 -3.113961	 -1.466317	 0.310563	 -0.105776	 0.735484	 -0.662693	 0.093348	 1
1463623580.935	 3	 0.094171	 -0.040262	 0.146056	 -3.135439	 -1.466114	 0.289350	 -0.105100	 0.735662	 -0.662480	 0.094208	 1
1463623580.945	 3	 0.098248	 -0.079618	 0.146719	 3.136767	 -1.465773	 0.278973	 -0.104935	 0.735801	 -0.662269	 0.094792	 1
1463623580.955	 3	 0.099052	 -0.119083	 0.130347	 3.136386	 -1.465236	 0.279536	 -0.105293	 0.735931	 -0.662024	 0.095091	 1
1463623580.965	 3	 0.094508	 -0.154329	 0.106599	 3.139866	 -1.464221	 0.284327	 -0.105952	 0.736180	 -0.661606	 0.095344	 1
1463623580.975	 3	 0.077150	 -0.188497	 0.079778	 -3.139637	 -1.463033	 0.289685	 -0.106763	 0.736464	 -0.661109	 0.095697	 1
1463623580.985	 3	 0.049121	 -0.224748	 0.055168	 -3.139870	 -1.461761	 0.291526	 -0.107580	 0.736774	 -0.660540	 0.096322	 1
1463623580.995	 3	 0.014718	 -0.269397	 0.044394	 3.136479	 -1.461994	 0.287240	 -0.108248	 0.736597	 -0.660464	 0.097437	 1
1463623581.005	 3	 -0.015449	 -0.327825	 0.041981	 3.129514	 -1.461911	 0.283376	 -0.109129	 0.736493	 -0.660244	 0.098722	 1
1463623581.015	 3	 -0.032956	 -0.401310	 0.021194	 3.129460	 -1.461364	 0.287087	 -0.110538	 0.736468	 -0.659855	 0.099938	 1
1463623581.025	 3	 -0.041765	 -0.450284	 0.011228	 3.120460	 -1.460673	 0.282495	 -0.111846	 0.736498	 -0.659331	 0.101704	 1
1463623581.035	 3	 -0.051428	 -0.466182	 0.015435	 3.108353	 -1.460075	 0.275070	 -0.113126	 0.736491	 -0.658811	 0.103687	 1
1463623581.045	 3	 -0.053560	 -0.467234	 0.016515	 3.097529	 -1.459885	 0.268955	 -0.114446	 0.736336	 -0.658445	 0.105650	 1
1463623581.055	 3	 -0.045944	 -0.448022	 0.029422	 3.085388	 -1.459801	 0.261356	 -0.115648	 0.736153	 -0.658121	 0.107615	 1
1463623581.065	 3	 -0.027576	 -0.410765	 0.041335	 3.074753	 -1.459825	 0.254928	 -0.116780	 0.735942	 -0.657860	 0.109415	 1
1463623581.075	 3	 -0.009180	 -0.354478	 0.037438	 3.065342	 -1.460091	 0.249203	 -0.117761	 0.735671	 -0.657723	 0.111004	 1
1463623581.085	 3	 0.004986	 -0.284397	 0.027312	 3.057037	 -1.460215	 0.243932	 -0.118550	 0.735477	 -0.657572	 0.112329	 1
1463623581.095	 3	 0.014908	 -0.206871	 0.015160	 3.051152	 -1.460237	 0.240306	 -0.119152	 0.735353	 -0.657435	 0.113302	 1
1463623581.105	 3	 0.020514	 -0.141018	 0.005069	 3.046954	 -1.460334	 0.237684	 -0.119565	 0.735239	 -0.657370	 0.113986	 1
1463623581.115	 3	 0.018553	 -0.096408	 -0.004087	 3.043700	 -1.460409	 0.235507	 -0.119833	 0.735158	 -0.657327	 0.114469	 1
1463623581.125	 3	 0.009024	 -0.075153	 -0.010197	 3.040983	 -1.460427	 0.233604	 -0.120026	 0.735111	 -0.657280	 0.114843	 1
1463623581.135	 3	 -0.009073	 -0.069751	 -0.005722	 3.037604	 -1.460519	 0.230953	 -0.120160	 0.735045	 -0.657264	 0.115216	 1
1463623581.145	 3	 -0.022949	 -0.071832	 -0.004550	 3.033523	 -1.460591	 0.227619	 -0.120275	 0.734986	 -0.657238	 0.115622	 1
1463623581.155	 3	 -0.021798	 -0.067474	 0.010403	 3.029986	 -1.460711	 0.224781	 -0.120392	 0.734912	 -0.657234	 0.115991	 1
1463623581.165	 3	 -0.013228	 -0.069560	 0.019903	 3.025428	 -1.461064	 0.220919	 -0.120465	 0.734762	 -0.657315	 0.116405	 1
1463623581.175	 3	 0.001730	 -0.068527	 0.021915	 3.021173	 -1.461462	 0.217351	 -0.120547	 0.734596	 -0.657414	 0.116804	 1
1463623581.185	 3	 0.017735	 -0.071752	 0.023877	 3.016806	 -1.462048	 0.213680	 -0.120627	 0.734367	 -0.657584	 0.117212	 1
1463623581.195	 3	 0.026222	 -0.081368	 0.021582	 3.012834	 -1.462701	 0.210492	 -0.120755	 0.734108	 -0.657774	 0.117634	 1
1463623581.205	 3	 0.027198	 -0.095254	 0.013983	 3.010322	 -1.463353	 0.208888	 -0.120986	 0.733839	 -0.657959	 0.118039	 1
1463623581.215	 3	 0.020701	 -0.104900	 0.001159	 3.009164	 -1.463866	 0.208750	 -0.121311	 0.733607	 -0.658087	 0.118428	 1
1463623581.225	 3	 0.006753	 -0.112383	 -0.009448	 3.008354	 -1.464260	 0.209052	 -0.121684	 0.733409	 -0.658167	 0.118830	 1
1463623581.235	 3	 -0.000723	 -0.106048	 -0.018916	 3.008356	 -1.464487	 0.210147	 -0.122082	 0.733267	 -0.658186	 0.119194	 1
1463623581.245	 3	 0.002520	 -0.091221	 -0.026266	 3.009648	 -1.464534	 0.212411	 -0.122487	 0.733190	 -0.658147	 0.119466	 1
1463623581.255	 3	 0.010111	 -0.064660	 -0.027149	 3.010404	 -1.464596	 0.213892	 -0.122780	 0.733124	 -0.658128	 0.119677	 1
1463623581.265	 3	 0.018803	 -0.038040	 -0.019515	 3.010880	 -1.464628	 0.214827	 -0.122966	 0.733084	 -0.658113	 0.119811	 1
1463623581.275	 3	 0.019938	 -0.023151	 -0.019385	 3.011804	 -1.464579	 0.216026	 -0.123102	 0.733082	 -0.658080	 0.119866	 1
1463623581.285	 3	 0.011433	 -0.015680	 -0.019240	 3.012823	 -1.464420	 0.217234	 -0.123212	 0.733122	 -0.658011	 0.119887	 1
1463623581.295	 3	 0.000720	 -0.020989	 -0.022392	 3.014111	 -1.464215	 0.218730	 -0.123339	 0.733175	 -0.657925	 0.119903	 1
1463623581.305	 3	 -0.007898	 -0.035870	 -0.024584	 3.015010	 -1.464007	 0.219970	 -0.123500	 0.733222	 -0.657829	 0.119977	 1
1463623581.315	 3	 -0.020782	 -0.052843	 -0.023563	 3.016181	 -1.463682	 0.221644	 -0.123734	 0.733297	 -0.657680	 0.120092	 1
1463623581.325	 3	 -0.028310	 -0.067689	 -0.020437	 3.016808	 -1.463413	 0.222939	 -0.124006	 0.733345	 -0.657541	 0.120283	 1
1463623581.335	 3	 -0.026204	 -0.073022	 -0.021568	 3.016949	 -1.463307	 0.223827	 -0.124286	 0.733334	 -0.657457	 0.120520	 1
1463623581.345	 3	 -0.016544	 -0.062408	 -0.020485	 3.016643	 -1.463205	 0.224205	 -0.124527	 0.733326	 -0.657377	 0.120755	 1
1463623581.355	 3	 -0.008986	 -0.050677	 -0.012980	 3.016275	 -1.463281	 0.224392	 -0.124716	 0.733266	 -0.657371	 0.120953	 1
1463623581.365	 3	 -0.004628	 -0.035768	 -0.008614	 3.015502	 -1.463386	 0.224027	 -0.124834	 0.733207	 -0.657384	 0.121119	 1
1463623581.375	 3	 0.001882	 -0.014507	 -0.007406	 3.014838	 -1.463467	 0.223577	 -0.124886	 0.733168	 -0.657400	 0.121216	 1
1463623581.385	 3	 0.007312	 0.002518	 -0.004096	 3.014058	 -1.463627	 0.222818	 -0.124862	 0.733115	 -0.657457	 0.121255	 1
1463623581.395	 3	 0.011635	 0.011037	 -0.000855	 3.013025	 -1.463767	 0.221697	 -0.124789	 0.733075	 -0.657512	 0.121268	 1
1463623581.405	 3	 0.008421	 0.006807	 0.001267	 3.011836	 -1.463830	 0.220433	 -0.124716	 0.733061	 -0.657538	 0.121290	 1
1463623581.415	 3	 0.001997	 0.002572	 0.001285	 3.011048	 -1.463741	 0.219612	 -0.124675	 0.733094	 -0.657506	 0.121307	 1
1463623581.425	 3	 -0.002262	 0.005768	 0.000287	 3.010675	 -1.463618	 0.219194	 -0.124646	 0.733139	 -0.657462	 0.121304	 1
1463623581.435	 3	 -0.005463	 0.007889	 -0.001795	 3.010356	 -1.463504	 0.218806	 -0.124610	 0.733182	 -0.657423	 0.121291	 1
1463623581.445	 3	 -0.006520	 0.010019	 -0.001765	 3.010123	 -1.463456	 0.218478	 -0.124567	 0.733204	 -0.657411	 0.121268	 1
1463623581.455	 3	 -0.005458	 0.007896	 -0.000728	 3.009733	 -1.463440	 0.218003	 -0.124521	 0.733215	 -0.657409	 0.121254	 1
1463623581.465	 3	 -0.002294	 0.001489	 -0.002945	 3.009334	 -1.463486	 0.217567	 -0.124492	 0.733203	 -0.657428	 0.121258	 1
1463623581.475	 3	 -0.003371	 -0.001692	 -0.001899	 3.009074	 -1.463534	 0.217329	 -0.124490	 0.733186	 -0.657444	 0.121276	 1
1463623581.485	 3	 -0.002303	 -0.002752	 -0.000852	 3.008647	 -1.463594	 0.216929	 -0.124483	 0.733165	 -0.657464	 0.121302	 1
1463623581.495	 3	 0.000924	 0.001501	 0.000226	 3.008139	 -1.463642	 0.216430	 -0.124466	 0.733149	 -0.657481	 0.121325	 1
1463623581.505	 3	 0.007367	 0.008935	 0.001306	 3.007647	 -1.463742	 0.215860	 -0.124418	 0.733121	 -0.657522	 0.121320	 1
1463623581.515	 3	 0.009516	 0.012119	 0.001318	 3.007144	 -1.463840	 0.215243	 -0.124356	 0.733096	 -0.657564	 0.121304	 1
1463623581.525	 3	 0.008418	 0.005740	 0.001268	 3.006710	 -1.463883	 0.214736	 -0.124313	 0.733087	 -0.657584	 0.121297	 1
1463623581.535	 3	 0.007294	 -0.005957	 0.001170	 3.006154	 -1.463898	 0.214214	 -0.124304	 0.733081	 -0.657587	 0.121329	 1
1463623581.545	 3	 0.004056	 -0.013393	 0.001130	 3.005577	 -1.463843	 0.213756	 -0.124326	 0.733093	 -0.657558	 0.121389	 1
1463623581.555	 3	 0.001895	 -0.018705	 0.001101	 3.004754	 -1.463770	 0.213106	 -0.124360	 0.733107	 -0.657520	 0.121476	 1
1463623581.565	 3	 -0.000237	 -0.019747	 0.003243	 3.003753	 -1.463708	 0.212310	 -0.124397	 0.733117	 -0.657483	 0.121580	 1
1463623581.575	 3	 -0.000218	 -0.016549	 0.004339	 3.002894	 -1.463644	 0.211616	 -0.124426	 0.733129	 -0.657447	 0.121665	 1
1463623581.585	 3	 -0.001262	 -0.013339	 0.006510	 3.001859	 -1.463593	 0.210713	 -0.124436	 0.733139	 -0.657419	 0.121747	 1
1463623581.595	 3	 0.000907	 -0.006956	 0.007617	 3.000730	 -1.463587	 0.209668	 -0.124424	 0.733138	 -0.657410	 0.121817	 1
1463623581.605	 3	 0.003082	 0.001547	 0.007678	 2.999556	 -1.463587	 0.208498	 -0.124381	 0.733139	 -0.657408	 0.121863	 1
1463623581.615	 3	 0.005232	 0.006843	 0.005578	 2.998812	 -1.463578	 0.207699	 -0.124332	 0.733146	 -0.657408	 0.121873	 1
1463623581.625	 3	 0.006309	 0.010023	 0.004532	 2.998513	 -1.463577	 0.207306	 -0.124287	 0.733153	 -0.657413	 0.121854	 1
1463623581.635	 3	 0.006299	 0.010008	 0.002400	 2.998516	 -1.463596	 0.207206	 -0.124249	 0.733153	 -0.657426	 0.121820	 1
1463623581.645	 3	 0.004148	 0.005767	 0.003445	 2.998295	 -1.463588	 0.206914	 -0.124215	 0.733160	 -0.657427	 0.121805	 1
1463623581.655	 3	 0.002057	 0.000387	 0.002310	 2.998048	 -1.463563	 0.206646	 -0.124198	 0.733170	 -0.657419	 0.121807	 1
1463623581.665	 3	 0.000958	 -0.007048	 0.003316	 2.997684	 -1.463493	 0.206335	 -0.124204	 0.733191	 -0.657389	 0.121837	 1
1463623581.675	 3	 -0.004411	 -0.012365	 0.001182	 2.997410	 -1.463478	 0.206179	 -0.124237	 0.733189	 -0.657376	 0.121886	 1
1463623581.685	 3	 -0.002278	 -0.014484	 0.003276	 2.996999	 -1.463472	 0.205913	 -0.124274	 0.733182	 -0.657365	 0.121949	 1
1463623581.695	 3	 -0.001200	 -0.012360	 0.003286	 2.996318	 -1.463526	 0.205365	 -0.124297	 0.733157	 -0.657376	 0.122020	 1
1463623581.705	 3	 0.002028	 -0.005995	 0.002251	 2.995940	 -1.463593	 0.205068	 -0.124312	 0.733130	 -0.657395	 0.122061	 1
1463623581.715	 3	 0.005255	 -0.000687	 0.002273	 2.995650	 -1.463638	 0.204804	 -0.124310	 0.733113	 -0.657410	 0.122082	 1
1463623581.725	 3	 0.004198	 0.001444	 0.002302	 2.995570	 -1.463646	 0.204707	 -0.124301	 0.733112	 -0.657414	 0.122079	 1
1463623581.735	 3	 0.000971	 -0.002809	 0.001224	 2.995511	 -1.463641	 0.204658	 -0.124303	 0.733113	 -0.657411	 0.122085	 1
1463623581.745	 3	 -0.003323	 -0.008115	 0.001212	 2.995616	 -1.463569	 0.204821	 -0.124328	 0.733133	 -0.657381	 0.122099	 1
1463623581.755	 3	 -0.007646	 -0.017690	 -0.000971	 2.995820	 -1.463484	 0.205180	 -0.124393	 0.733152	 -0.657340	 0.122141	 1
1463623581.765	 3	 -0.011949	 -0.023011	 -0.003115	 2.995956	 -1.463361	 0.205532	 -0.124479	 0.733179	 -0.657282	 0.122205	 1
1463623581.775	 3	 -0.011962	 -0.024090	 -0.005257	 2.996273	 -1.463289	 0.206099	 -0.124583	 0.733187	 -0.657240	 0.122274	 1
1463623581.785	 3	 -0.011961	 -0.024091	 -0.005256	 2.996511	 -1.463238	 0.206583	 -0.124682	 0.733189	 -0.657206	 0.122345	 1
1463623581.795	 3	 -0.007685	 -0.020928	 -0.007396	 2.996872	 -1.463243	 0.207163	 -0.124776	 0.733173	 -0.657195	 0.122404	 1
1463623581.805	 3	 -0.006603	 -0.018796	 -0.006320	 2.997355	 -1.463224	 0.207838	 -0.124865	 0.733167	 -0.657177	 0.122448	 1
1463623581.815	 3	 -0.005527	 -0.017728	 -0.005253	 2.997594	 -1.463171	 0.208259	 -0.124941	 0.733173	 -0.657146	 0.122498	 1
1463623581.825	 3	 -0.001244	 -0.016662	 -0.003149	 2.997674	 -1.463164	 0.208508	 -0.125007	 0.733164	 -0.657134	 0.122550	 1
1463623581.835	 3	 0.003023	 -0.017731	 -0.002130	 2.997548	 -1.463153	 0.208551	 -0.125064	 0.733158	 -0.657119	 0.122611	 1
1463623581.845	 3	 0.007287	 -0.023023	 0.003113	 2.997057	 -1.463163	 0.208268	 -0.125121	 0.733142	 -0.657109	 0.122698	 1
1463623581.855	 3	 0.008328	 -0.027289	 0.001999	 2.996356	 -1.463174	 0.207828	 -0.125190	 0.733123	 -0.657096	 0.122810	 1
1463623581.865	 3	 0.006179	 -0.032578	 0.005166	 2.995524	 -1.463112	 0.207297	 -0.125270	 0.733126	 -0.657054	 0.122940	 1
1463623581.875	 3	 -0.000235	 -0.032574	 0.003090	 2.995141	 -1.462963	 0.207237	 -0.125374	 0.733156	 -0.656978	 0.123058	 1
1463623581.885	 3	 -0.006643	 -0.031506	 0.001024	 2.994983	 -1.462781	 0.207402	 -0.125488	 0.733197	 -0.656890	 0.123168	 1
1463623581.895	 3	 -0.010915	 -0.027278	 -0.004228	 2.995155	 -1.462556	 0.207865	 -0.125603	 0.733253	 -0.656789	 0.123254	 1
1463623581.905	 3	 -0.008790	 -0.027299	 -0.006378	 2.995611	 -1.462414	 0.208597	 -0.125723	 0.733283	 -0.656720	 0.123325	 1
1463623581.915	 3	 -0.005588	 -0.026253	 -0.007461	 2.995987	 -1.462360	 0.209241	 -0.125836	 0.733284	 -0.656684	 0.123398	 1
1463623581.925	 3	 -0.008769	 -0.021989	 -0.007394	 2.996344	 -1.462286	 0.209834	 -0.125937	 0.733293	 -0.656642	 0.123460	 1
1463623581.935	 3	 -0.009822	 -0.019851	 -0.006298	 2.996492	 -1.462208	 0.210187	 -0.126018	 0.733306	 -0.656601	 0.123521	 1
1463623581.945	 3	 -0.015163	 -0.023011	 -0.004149	 2.996470	 -1.462140	 0.210395	 -0.126102	 0.733314	 -0.656561	 0.123596	 1
1463623581.955	 3	 -0.015171	 -0.024082	 -0.005225	 2.996608	 -1.462067	 0.210774	 -0.126196	 0.733323	 -0.656519	 0.123669	 1
1463623581.965	 3	 -0.014111	 -0.024101	 -0.007365	 2.997056	 -1.461990	 0.211464	 -0.126303	 0.733333	 -0.656476	 0.123730	 1
1463623581.975	 3	 -0.010907	 -0.021999	 -0.009505	 2.997599	 -1.461976	 0.212234	 -0.126407	 0.733323	 -0.656458	 0.123783	 1
1463623581.985	 3	 -0.004509	 -0.023082	 -0.009570	 2.998092	 -1.461953	 0.212964	 -0.126513	 0.733315	 -0.656435	 0.123842	 1
1463623581.995	 3	 0.000812	 -0.026289	 -0.009646	 2.998440	 -1.461983	 0.213570	 -0.126621	 0.733288	 -0.656431	 0.123914	 1
1463623582.005	 3	 0.001825	 -0.035881	 -0.011876	 2.998958	 -1.462038	 0.214422	 -0.126763	 0.733248	 -0.656431	 0.124004	 1
1463623582.015	 3	 -0.002495	 -0.047561	 -0.010881	 2.999357	 -1.462051	 0.215276	 -0.126945	 0.733214	 -0.656409	 0.124138	 1
1463623582.025	 3	 -0.000400	 -0.050805	 -0.017324	 3.000266	 -1.462114	 0.216704	 -0.127169	 0.733159	 -0.656401	 0.124275	 1
1463623582.035	 3	 0.001692	 -0.067760	 -0.007907	 3.000344	 -1.462157	 0.217387	 -0.127393	 0.733106	 -0.656380	 0.124471	 1
1463623582.045	 3	 -0.001444	 -0.047603	 -0.016219	 3.001079	 -1.462391	 0.218689	 -0.127627	 0.732990	 -0.656432	 0.124633	 1
1463623582.055	 3	 -0.008831	 -0.033722	 -0.011761	 3.001445	 -1.462335	 0.219431	 -0.127779	 0.732985	 -0.656388	 0.124742	 1
1463623582.065	 3	 -0.011976	 -0.028341	 -0.004223	 3.001502	 -1.462303	 0.219788	 -0.127892	 0.732976	 -0.656358	 0.124837	 1
1463623582.075	 3	 -0.007712	 -0.029417	 -0.004270	 3.001324	 -1.462275	 0.219898	 -0.127991	 0.732967	 -0.656329	 0.124938	 1
1463623582.085	 3	 -0.004529	 -0.033682	 -0.004337	 3.001082	 -1.462305	 0.219987	 -0.128103	 0.732936	 -0.656320	 0.125057	 1
1463623582.095	 3	 -0.002402	 -0.033704	 -0.006487	 3.001124	 -1.462354	 0.220381	 -0.128233	 0.732897	 -0.656316	 0.125171	 1
1463623582.105	 3	 -0.002386	 -0.029457	 -0.007513	 3.001290	 -1.462384	 0.220848	 -0.128349	 0.732868	 -0.656308	 0.125264	 1
1463623582.115	 3	 -0.004465	 -0.019862	 -0.005274	 3.001583	 -1.462413	 0.221370	 -0.128444	 0.732843	 -0.656305	 0.125329	 1
1463623582.125	 3	 -0.005491	 -0.010294	 -0.006241	 3.001917	 -1.462363	 0.221838	 -0.128507	 0.732850	 -0.656278	 0.125359	 1
1463623582.135	 3	 -0.006522	 -0.002845	 -0.006162	 3.002173	 -1.462352	 0.222144	 -0.128535	 0.732850	 -0.656272	 0.125366	 1
1463623582.145	 3	 -0.009708	 -0.000701	 -0.005048	 3.002530	 -1.462296	 0.222513	 -0.128554	 0.732868	 -0.656251	 0.125355	 1
1463623582.155	 3	 -0.008635	 0.000359	 -0.005048	 3.002820	 -1.462268	 0.222805	 -0.128565	 0.732876	 -0.656241	 0.125344	 1
1463623582.165	 3	 -0.009698	 -0.000686	 -0.002916	 3.003083	 -1.462219	 0.223072	 -0.128578	 0.732892	 -0.656223	 0.125334	 1
1463623582.175	 3	 -0.009723	 -0.006004	 -0.002965	 3.003211	 -1.462160	 0.223253	 -0.128603	 0.732908	 -0.656197	 0.125346	 1
1463623582.185	 3	 -0.010815	 -0.012375	 -0.001949	 3.003225	 -1.462080	 0.223384	 -0.128647	 0.732927	 -0.656161	 0.125382	 1
1463623582.195	 3	 -0.009787	 -0.018776	 -0.004149	 3.003722	 -1.462029	 0.224054	 -0.128730	 0.732933	 -0.656131	 0.125419	 1
1463623582.205	 3	 -0.008772	 -0.026256	 -0.008491	 3.004310	 -1.461953	 0.224889	 -0.128844	 0.732941	 -0.656089	 0.125475	 1
1463623582.215	 3	 -0.008800	 -0.031582	 -0.009606	 3.004879	 -1.461948	 0.225763	 -0.128978	 0.732922	 -0.656069	 0.125554	 1
1463623582.225	 3	 -0.010939	 -0.032640	 -0.009597	 3.005259	 -1.461900	 0.226472	 -0.129114	 0.732916	 -0.656031	 0.125646	 1
1463623582.235	 3	 -0.009862	 -0.031572	 -0.008530	 3.005539	 -1.461836	 0.227080	 -0.129245	 0.732916	 -0.655987	 0.125742	 1
1463623582.245	 3	 -0.007693	 -0.026244	 -0.006367	 3.005697	 -1.461818	 0.227528	 -0.129358	 0.732903	 -0.655962	 0.125830	 1
1463623582.255	 3	 -0.005508	 -0.016670	 -0.005231	 3.005799	 -1.461772	 0.227840	 -0.129439	 0.732905	 -0.655932	 0.125894	 1
1463623582.265	 3	 0.000929	 -0.010300	 -0.004161	 3.005831	 -1.461756	 0.227989	 -0.129483	 0.732902	 -0.655919	 0.125931	 1
1463623582.275	 3	 0.000948	 -0.006045	 -0.004121	 3.005955	 -1.461725	 0.228181	 -0.129514	 0.732908	 -0.655903	 0.125948	 1
1463623582.285	 3	 -0.000127	 -0.003946	 -0.008355	 3.006552	 -1.461680	 0.228828	 -0.129556	 0.732919	 -0.655885	 0.125941	 1
1463623582.295	 3	 -0.002280	 -0.010298	 -0.005198	 3.006800	 -1.461624	 0.229167	 -0.129599	 0.732931	 -0.655859	 0.125960	 1
1463623582.305	 3	 -0.007619	 -0.013450	 -0.001983	 3.006930	 -1.461515	 0.229429	 -0.129654	 0.732958	 -0.655810	 0.125996	 1
1463623582.315	 3	 -0.010859	 -0.019838	 -0.004145	 3.007042	 -1.461407	 0.229732	 -0.129730	 0.732982	 -0.655758	 0.126052	 1
1463623582.325	 3	 -0.016205	 -0.021949	 -0.004119	 3.007378	 -1.461268	 0.230286	 -0.129825	 0.733014	 -0.655693	 0.126108	 1
1463623582.335	 3	 -0.017261	 -0.019819	 -0.004089	 3.007396	 -1.461169	 0.230517	 -0.129905	 0.733033	 -0.655643	 0.126175	 1
1463623582.345	 3	 -0.011894	 -0.012397	 -0.005132	 3.007506	 -1.461075	 0.230778	 -0.129966	 0.733054	 -0.655599	 0.126218	 1
1463623582.355	 3	 -0.008627	 -0.000691	 -0.002920	 3.007684	 -1.461028	 0.230988	 -0.129985	 0.733067	 -0.655580	 0.126221	 1
1463623582.365	 3	 -0.001137	 0.002485	 -0.001889	 3.007794	 -1.461044	 0.231081	 -0.129983	 0.733063	 -0.655587	 0.126211	 1
1463623582.375	 3	 0.001027	 0.000294	 -0.002999	 3.007855	 -1.461027	 0.231137	 -0.129983	 0.733069	 -0.655581	 0.126207	 1
1463623582.385	 3	 -0.001139	 -0.006082	 -0.003039	 3.007743	 -1.460979	 0.231079	 -0.129999	 0.733081	 -0.655560	 0.126228	 1
1463623582.395	 3	 -0.004356	 -0.009263	 -0.003040	 3.007828	 -1.460898	 0.231259	 -0.130039	 0.733102	 -0.655524	 0.126254	 1
1463623582.405	 3	 -0.007568	 -0.010325	 -0.004087	 3.007951	 -1.460750	 0.231495	 -0.130087	 0.733144	 -0.655462	 0.126283	 1
1463623582.415	 3	 -0.010740	 -0.003934	 -0.004000	 3.008107	 -1.460630	 0.231706	 -0.130115	 0.733180	 -0.655414	 0.126293	 1
1463623582.425	 3	 -0.013915	 0.002450	 -0.004978	 3.008481	 -1.460507	 0.232075	 -0.130129	 0.733221	 -0.655369	 0.126274	 1
1463623582.435	 3	 -0.012844	 0.001399	 -0.002865	 3.008680	 -1.460388	 0.232254	 -0.130131	 0.733261	 -0.655327	 0.126257	 1
1463623582.445	 3	 -0.011811	 -0.004994	 -0.003999	 3.008985	 -1.460330	 0.232597	 -0.130158	 0.733277	 -0.655303	 0.126256	 1
1463623582.455	 3	 -0.011810	 -0.004995	 -0.003999	 3.009322	 -1.460319	 0.232983	 -0.130189	 0.733277	 -0.655297	 0.126259	 1
1463623582.465	 3	 -0.009668	 -0.001826	 -0.006120	 3.009687	 -1.460296	 0.233377	 -0.130214	 0.733282	 -0.655287	 0.126254	 1
1463623582.475	 3	 -0.006474	 -0.001851	 -0.008279	 3.010205	 -1.460324	 0.233919	 -0.130243	 0.733271	 -0.655297	 0.126242	 1
1463623582.485	 3	 -0.006459	 -0.000772	 -0.006137	 3.010580	 -1.460322	 0.234302	 -0.130260	 0.733270	 -0.655296	 0.126230	 1
1463623582.495	 3	 -0.006471	 -0.000795	 -0.009335	 3.011288	 -1.460357	 0.235029	 -0.130295	 0.733256	 -0.655310	 0.126210	 1
1463623582.505	 3	 -0.001125	 0.000260	 -0.008305	 3.011705	 -1.460377	 0.235456	 -0.130314	 0.733247	 -0.655317	 0.126197	 1
1463623582.515	 3	 0.008507	 0.002390	 -0.004106	 3.011843	 -1.460470	 0.235575	 -0.130311	 0.733217	 -0.655354	 0.126187	 1
1463623582.525	 3	 0.014933	 0.005577	 -0.002000	 3.011769	 -1.460583	 0.235453	 -0.130289	 0.733183	 -0.655398	 0.126177	 1
1463623582.535	 3	 0.016020	 0.006668	 0.002264	 3.011296	 -1.460625	 0.234912	 -0.130245	 0.733174	 -0.655417	 0.126174	 1
1463623582.545	 3	 0.010652	 0.003497	 0.005611	 3.010592	 -1.460567	 0.234159	 -0.130201	 0.733198	 -0.655397	 0.126184	 1
1463623582.555	 3	 0.002099	 0.000331	 0.005657	 3.009784	 -1.460511	 0.233335	 -0.130164	 0.733220	 -0.655376	 0.126209	 1
1463623582.565	 3	 -0.004305	 0.001407	 0.004657	 3.009224	 -1.460383	 0.232763	 -0.130140	 0.733264	 -0.655328	 0.126224	 1
1463623582.575	 3	 -0.009637	 0.005646	 0.000480	 3.009238	 -1.460295	 0.232731	 -0.130125	 0.733296	 -0.655298	 0.126207	 1
1463623582.585	 3	 -0.010671	 0.015199	 -0.002620	 3.009512	 -1.460253	 0.232883	 -0.130091	 0.733318	 -0.655291	 0.126155	 1
1463623582.595	 3	 -0.008494	 0.024758	 -0.003615	 3.009788	 -1.460198	 0.232942	 -0.130023	 0.733350	 -0.655285	 0.126072	 1
1463623582.605	 3	 -0.002053	 0.030080	 -0.000424	 3.009864	 -1.460226	 0.232732	 -0.129921	 0.733359	 -0.655313	 0.125976	 1
1463623582.615	 3	 0.000082	 0.029018	 0.000614	 3.009730	 -1.460276	 0.232305	 -0.129808	 0.733361	 -0.655350	 0.125886	 1
1463623582.625	 3	 0.001142	 0.024783	 0.003763	 3.009406	 -1.460305	 0.231717	 -0.129698	 0.733369	 -0.655377	 0.125813	 1
1463623582.635	 3	 -0.002081	 0.019482	 0.004808	 3.008994	 -1.460289	 0.231098	 -0.129606	 0.733389	 -0.655383	 0.125761	 1
1463623582.645	 3	 -0.002110	 0.013099	 0.004749	 3.008707	 -1.460313	 0.230657	 -0.129538	 0.733392	 -0.655401	 0.125722	 1
1463623582.655	 3	 -0.006403	 0.008850	 0.003680	 3.008846	 -1.460295	 0.230699	 -0.129508	 0.733404	 -0.655401	 0.125684	 1
1463623582.665	 3	 -0.007488	 0.005654	 0.002594	 3.008880	 -1.460277	 0.230668	 -0.129486	 0.733414	 -0.655398	 0.125662	 1
1463623582.675	 3	 -0.006406	 0.008842	 0.002614	 3.008765	 -1.460250	 0.230470	 -0.129451	 0.733428	 -0.655393	 0.125639	 1
1463623582.685	 3	 -0.003214	 0.006705	 0.002567	 3.008507	 -1.460268	 0.230139	 -0.129414	 0.733427	 -0.655404	 0.125625	 1
1463623582.695	 3	 -0.002215	 0.000350	 0.003750	 3.008226	 -1.460308	 0.229832	 -0.129393	 0.733417	 -0.655420	 0.125628	 1
1463623582.705	 3	 -0.000124	 -0.007118	 0.001531	 3.007872	 -1.460380	 0.229533	 -0.129398	 0.733390	 -0.655442	 0.125661	 1
1463623582.715	 3	 -0.001206	 -0.010306	 0.001511	 3.007558	 -1.460386	 0.229310	 -0.129420	 0.733382	 -0.655439	 0.125704	 1
1463623582.725	 3	 -0.003360	 -0.013498	 0.000434	 3.007540	 -1.460352	 0.229411	 -0.129463	 0.733386	 -0.655418	 0.125742	 1
1463623582.735	 3	 -0.004431	 -0.013503	 -0.000622	 3.007401	 -1.460382	 0.229403	 -0.129505	 0.733368	 -0.655421	 0.125791	 1
1463623582.745	 3	 -0.002297	 -0.014565	 0.000415	 3.007050	 -1.460369	 0.229192	 -0.129543	 0.733364	 -0.655407	 0.125851	 1
1463623582.755	 3	 -0.000157	 -0.013508	 0.000407	 3.006580	 -1.460426	 0.228865	 -0.129577	 0.733336	 -0.655418	 0.125917	 1
1463623582.765	 3	 -0.001209	 -0.012426	 0.002558	 3.006042	 -1.460488	 0.228453	 -0.129601	 0.733308	 -0.655432	 0.125981	 1
1463623582.775	 3	 0.000934	 -0.011361	 0.003615	 3.005411	 -1.460507	 0.227935	 -0.129617	 0.733296	 -0.655431	 0.126043	 1
1463623582.785	 3	 -0.000113	 -0.007103	 0.003664	 3.004858	 -1.460501	 0.227458	 -0.129624	 0.733294	 -0.655423	 0.126089	 1
1463623582.795	 3	 -0.002206	 0.001413	 0.003762	 3.004561	 -1.460484	 0.227160	 -0.129612	 0.733300	 -0.655416	 0.126100	 1
1463623582.805	 3	 -0.003253	 0.006726	 0.002754	 3.004442	 -1.460425	 0.226988	 -0.129589	 0.733323	 -0.655397	 0.126086	 1
1463623582.815	 3	 -0.002195	 0.005652	 0.001669	 3.004513	 -1.460377	 0.226989	 -0.129567	 0.733344	 -0.655384	 0.126060	 1
1463623582.825	 3	 -0.002229	 0.000318	 -0.000512	 3.004863	 -1.460343	 0.227318	 -0.129573	 0.733356	 -0.655373	 0.126038	 1
1463623582.835	 3	 -0.005467	 -0.007118	 -0.000553	 3.005090	 -1.460290	 0.227590	 -0.129599	 0.733370	 -0.655351	 0.126043	 1
1463623582.845	 3	 -0.005496	 -0.012444	 -0.001669	 3.005543	 -1.460273	 0.228156	 -0.129658	 0.733368	 -0.655339	 0.126062	 1
1463623582.855	 3	 -0.006637	 -0.017703	 -0.002554	 3.005718	 -1.460260	 0.228498	 -0.129727	 0.733361	 -0.655323	 0.126110	 1
1463623582.865	 3	 -0.007724	 -0.021954	 -0.002584	 3.005866	 -1.460255	 0.228862	 -0.129811	 0.733349	 -0.655308	 0.126175	 1
1463623582.875	 3	 -0.004527	 -0.023028	 -0.002622	 3.005976	 -1.460268	 0.229205	 -0.129901	 0.733329	 -0.655299	 0.126247	 1
1463623582.885	 3	 -0.003464	 -0.024094	 -0.002642	 3.006162	 -1.460275	 0.229627	 -0.129995	 0.733311	 -0.655287	 0.126317	 1
1463623582.895	 3	 -0.002407	 -0.027281	 -0.001615	 3.005890	 -1.460341	 0.229619	 -0.130080	 0.733272	 -0.655294	 0.126416	 1
1463623582.905	 3	 -0.003469	 -0.027270	 -0.000539	 3.005544	 -1.460383	 0.229548	 -0.130167	 0.733241	 -0.655292	 0.126520	 1
1463623582.915	 3	 -0.002377	 -0.023011	 0.000556	 3.005310	 -1.460406	 0.229565	 -0.130250	 0.733217	 -0.655284	 0.126612	 1
1463623582.925	 3	 -0.001269	 -0.015561	 0.001682	 3.004810	 -1.460424	 0.229248	 -0.130297	 0.733200	 -0.655278	 0.126692	 1
1463623582.935	 3	 -0.000172	 -0.009182	 0.001732	 3.004314	 -1.460449	 0.228859	 -0.130317	 0.733186	 -0.655280	 0.126747	 1
1463623582.945	 3	 -0.000157	 -0.007047	 0.002818	 3.003935	 -1.460458	 0.228561	 -0.130331	 0.733178	 -0.655277	 0.126788	 1
1463623582.955	 3	 0.002008	 -0.000672	 0.002858	 3.003584	 -1.460486	 0.228226	 -0.130323	 0.733169	 -0.655286	 0.126807	 1
1463623582.965	 3	 -0.000103	 0.002541	 0.005038	 3.003077	 -1.460453	 0.227696	 -0.130295	 0.733182	 -0.655274	 0.126819	 1
1463623582.975	 3	 -0.001190	 0.000401	 0.002896	 3.002883	 -1.460399	 0.227485	 -0.130282	 0.733201	 -0.655255	 0.126820	 1
1463623582.985	 3	 -0.002281	 -0.003858	 0.001800	 3.002825	 -1.460355	 0.227458	 -0.130292	 0.733214	 -0.655237	 0.126832	 1
1463623582.995	 3	 -0.001213	 -0.002805	 0.000735	 3.002527	 -1.460372	 0.227194	 -0.130292	 0.733207	 -0.655240	 0.126855	 1
1463623583.005	 3	 -0.001247	 -0.002716	 0.000949	 3.002301	 -1.460407	 0.226996	 -0.130294	 0.733193	 -0.655251	 0.126873	 1
1463623583.015	 3	 -0.001251	 -0.003779	 0.000939	 3.002022	 -1.460429	 0.226756	 -0.130297	 0.733184	 -0.655256	 0.126897	 1
1463623583.025	 3	 -0.002295	 -0.000570	 0.003110	 3.001517	 -1.460429	 0.226273	 -0.130285	 0.733183	 -0.655254	 0.126924	 1
1463623583.035	 3	 -0.000145	 0.002615	 0.003121	 3.000990	 -1.460468	 0.225742	 -0.130262	 0.733172	 -0.655268	 0.126944	 1
1463623583.045	 3	 0.003081	 0.005811	 0.005254	 3.000488	 -1.460529	 0.225190	 -0.130224	 0.733155	 -0.655293	 0.126948	 1
1463623583.055	 3	 0.004138	 0.003681	 0.005225	 2.999922	 -1.460569	 0.224579	 -0.130185	 0.733146	 -0.655310	 0.126956	 1
1463623583.065	 3	 0.003066	 0.002620	 0.005225	 2.999406	 -1.460603	 0.224034	 -0.130154	 0.733137	 -0.655323	 0.126968	 1
1463623583.075	 3	 -0.001203	 0.002633	 0.005262	 2.999029	 -1.460601	 0.223634	 -0.130131	 0.733140	 -0.655324	 0.126975	 1
1463623583.085	 3	 -0.001202	 0.002633	 0.005262	 2.998580	 -1.460603	 0.223156	 -0.130103	 0.733142	 -0.655325	 0.126983	 1
1463623583.095	 3	 -0.002242	 0.005850	 0.008499	 2.997910	 -1.460561	 0.222435	 -0.130058	 0.733160	 -0.655312	 0.126992	 1
1463623583.105	 3	 -0.003307	 0.007965	 0.006396	 2.997441	 -1.460560	 0.221882	 -0.130010	 0.733167	 -0.655316	 0.126982	 1
1463623583.115	 3	 -0.004353	 0.012223	 0.006445	 2.997037	 -1.460577	 0.221364	 -0.129951	 0.733169	 -0.655329	 0.126961	 1
1463623583.125	 3	 -0.002213	 0.013280	 0.006436	 2.996660	 -1.460601	 0.220856	 -0.129889	 0.733170	 -0.655346	 0.126933	 1
1463623583.135	 3	 0.000965	 0.010064	 0.004246	 2.996411	 -1.460652	 0.220487	 -0.129835	 0.733162	 -0.655372	 0.126904	 1
1463623583.145	 3	 0.000956	 0.008993	 0.003171	 2.996158	 -1.460715	 0.220142	 -0.129790	 0.733147	 -0.655401	 0.126885	 1
1463623583.155	 3	 0.002024	 0.008989	 0.003161	 2.995778	 -1.460786	 0.219681	 -0.129745	 0.733129	 -0.655432	 0.126874	 1
1463623583.165	 3	 0.000977	 0.012191	 0.004266	 2.995550	 -1.460818	 0.219339	 -0.129694	 0.733126	 -0.655451	 0.126846	 1
1463623583.175	 3	 0.001016	 0.017532	 0.007513	 2.994881	 -1.460884	 0.218513	 -0.129610	 0.733115	 -0.655484	 0.126822	 1
1463623583.185	 3	 0.004213	 0.020828	 0.009895	 2.994153	 -1.460953	 0.217578	 -0.129506	 0.733106	 -0.655522	 0.126784	 1
1463623583.195	 3	 0.009550	 0.017651	 0.014081	 2.993129	 -1.461038	 0.216359	 -0.129394	 0.733092	 -0.655565	 0.126761	 1
1463623583.205	 3	 0.014846	 0.009126	 0.013956	 2.991762	 -1.461187	 0.214872	 -0.129295	 0.733052	 -0.655626	 0.126776	 1
1463623583.215	 3	 0.015916	 0.008075	 0.016068	 2.990328	 -1.461302	 0.213347	 -0.129206	 0.733021	 -0.655673	 0.126804	 1
1463623583.225	 3	 0.010584	 0.008098	 0.017181	 2.988831	 -1.461370	 0.211759	 -0.129114	 0.733006	 -0.655702	 0.126833	 1
1463623583.235	 3	 0.003130	 0.012367	 0.016220	 2.987613	 -1.461339	 0.210424	 -0.129024	 0.733025	 -0.655697	 0.126841	 1
1463623583.245	 3	 -0.003252	 0.018753	 0.014203	 2.986766	 -1.461260	 0.209396	 -0.128925	 0.733064	 -0.655678	 0.126813	 1
1463623583.255	 3	 -0.005368	 0.025118	 0.011083	 2.986301	 -1.461187	 0.208683	 -0.128817	 0.733105	 -0.655666	 0.126749	 1
1463623583.265	 3	 -0.000035	 0.027206	 0.007858	 2.986000	 -1.461197	 0.208109	 -0.128705	 0.733120	 -0.655687	 0.126672	 1
1463623583.275	 3	 -0.000008	 0.033581	 0.006851	 2.985771	 -1.461267	 0.207546	 -0.128573	 0.733118	 -0.655734	 0.126572	 1
1463623583.285	 3	 0.004247	 0.031433	 0.005728	 2.985627	 -1.461386	 0.207071	 -0.128446	 0.733100	 -0.655799	 0.126471	 1
1463623583.295	 3	 0.005310	 0.030366	 0.005709	 2.985447	 -1.461509	 0.206584	 -0.128326	 0.733078	 -0.655864	 0.126378	 1
1463623583.305	 3	 0.001018	 0.027172	 0.003584	 2.985670	 -1.461555	 0.206520	 -0.128229	 0.733081	 -0.655899	 0.126276	 1
1463623583.315	 3	 -0.001141	 0.022916	 0.002497	 2.986014	 -1.461597	 0.206626	 -0.128155	 0.733082	 -0.655930	 0.126185	 1
1463623583.325	 3	 -0.005418	 0.020802	 0.002514	 2.986328	 -1.461647	 0.206726	 -0.128088	 0.733079	 -0.655963	 0.126103	 1
1463623583.335	 3	 -0.005436	 0.019715	 -0.000693	 2.987004	 -1.461627	 0.207201	 -0.128041	 0.733098	 -0.655968	 0.126012	 1
1463623583.345	 3	 -0.004388	 0.019804	 -0.001572	 2.987897	 -1.461609	 0.207894	 -0.128002	 0.733116	 -0.655975	 0.125911	 1
1463623583.355	 3	 -0.001216	 0.014469	 -0.002715	 2.988644	 -1.461625	 0.208476	 -0.127970	 0.733120	 -0.655992	 0.125828	 1
1463623583.365	 3	 -0.001266	 0.004888	 -0.003870	 2.989517	 -1.461631	 0.209261	 -0.127972	 0.733123	 -0.656001	 0.125766	 1
1463623583.375	 3	 -0.001318	 -0.007861	 -0.001857	 2.989894	 -1.461668	 0.209681	 -0.128002	 0.733107	 -0.656012	 0.125766	 1
1463623583.385	 3	 -0.002421	 -0.017415	 0.000195	 2.989915	 -1.461716	 0.209855	 -0.128058	 0.733081	 -0.656021	 0.125816	 1
1463623583.395	 3	 -0.002436	 -0.020606	 0.000165	 2.989850	 -1.461765	 0.209996	 -0.128131	 0.733052	 -0.656026	 0.125887	 1
1463623583.405	 3	 -0.000286	 -0.018478	 0.001232	 2.989632	 -1.461842	 0.209973	 -0.128193	 0.733014	 -0.656042	 0.125960	 1
1463623583.415	 3	 0.005070	 -0.014239	 0.001224	 2.989449	 -1.461984	 0.209935	 -0.128239	 0.732957	 -0.656085	 0.126017	 1
1463623583.425	 3	 0.007226	 -0.009991	 0.001245	 2.989108	 -1.462178	 0.209698	 -0.128262	 0.732886	 -0.656151	 0.126067	 1
1463623583.435	 3	 0.008295	 -0.008938	 0.000179	 2.988864	 -1.462391	 0.209548	 -0.128286	 0.732809	 -0.656224	 0.126110	 1
1463623583.445	 3	 0.009374	 -0.006814	 0.000190	 2.988506	 -1.462604	 0.209259	 -0.128296	 0.732734	 -0.656298	 0.126148	 1
1463623583.455	 3	 0.006175	 -0.004693	 -0.001894	 2.988474	 -1.462770	 0.209279	 -0.128313	 0.732675	 -0.656357	 0.126169	 1
1463623583.465	 3	 0.006222	 0.005936	 -0.002862	 2.988708	 -1.462871	 0.209486	 -0.128311	 0.732643	 -0.656396	 0.126153	 1
1463623583.475	 3	 0.004152	 0.022930	 -0.006949	 2.989409	 -1.462963	 0.210003	 -0.128270	 0.732623	 -0.656443	 0.126067	 1
1463623583.485	 3	 0.005268	 0.037780	 -0.012149	 2.990873	 -1.463012	 0.211129	 -0.128202	 0.732627	 -0.656484	 0.125901	 1
1463623583.495	 3	 0.008502	 0.046264	 -0.014231	 2.993377	 -1.463212	 0.213184	 -0.128131	 0.732586	 -0.656589	 0.125661	 1
1463623583.505	 3	 0.015974	 0.052686	 -0.019456	 2.995958	 -1.463480	 0.215269	 -0.128045	 0.732525	 -0.656723	 0.125405	 1
1463623583.515	 3	 0.024541	 0.062202	 -0.023706	 2.998628	 -1.463849	 0.217347	 -0.127926	 0.732436	 -0.656901	 0.125115	 1
1463623583.525	 3	 0.034179	 0.071723	 -0.026899	 3.001321	 -1.464348	 0.219361	 -0.127773	 0.732309	 -0.657133	 0.124799	 1
1463623583.535	 3	 0.038437	 0.072743	 -0.031190	 3.004571	 -1.464929	 0.221896	 -0.127627	 0.732155	 -0.657398	 0.124452	 1
1463623583.545	 3	 0.047930	 0.052474	 -0.035724	 3.007493	 -1.465635	 0.224251	 -0.127520	 0.731950	 -0.657700	 0.124170	 1
1463623583.555	 3	 0.061683	 0.026904	 -0.036082	 3.010134	 -1.466447	 0.226576	 -0.127491	 0.731694	 -0.658025	 0.123985	 1
1463623583.565	 3	 0.074427	 0.009878	 -0.032088	 3.011984	 -1.467354	 0.228294	 -0.127498	 0.731396	 -0.658373	 0.123892	 1
1463623583.575	 3	 0.090341	 -0.007212	 -0.035583	 3.014330	 -1.468419	 0.230696	 -0.127588	 0.731032	 -0.658768	 0.123848	 1
1463623583.585	 3	 0.108427	 -0.008423	 -0.048542	 3.018529	 -1.469614	 0.234995	 -0.127757	 0.730617	 -0.659213	 0.123756	 1
1463623583.595	 3	 0.118061	 0.003203	 -0.054913	 3.022888	 -1.470838	 0.239366	 -0.127895	 0.730197	 -0.659674	 0.123635	 1
1463623583.605	 3	 0.114893	 0.023306	 -0.070684	 3.027650	 -1.472101	 0.243969	 -0.127979	 0.729773	 -0.660161	 0.123447	 1
1463623583.615	 3	 0.111735	 0.042376	 -0.082203	 3.035206	 -1.473277	 0.251187	 -0.128093	 0.729383	 -0.660634	 0.123107	 1
1463623583.625	 3	 0.125597	 0.042312	 -0.085522	 3.042421	 -1.474827	 0.258003	 -0.128156	 0.728870	 -0.661249	 0.122775	 1
1463623583.635	 3	 0.154461	 0.068678	 -0.104712	 3.052742	 -1.476542	 0.267770	 -0.128254	 0.728301	 -0.661945	 0.122302	 1
1463623583.645	 3	 0.169532	 0.146904	 -0.164864	 3.067863	 -1.478280	 0.281702	 -0.128264	 0.727747	 -0.662704	 0.121476	 1
1463623583.655	 3	 0.176843	 0.149850	 -0.208436	 3.090742	 -1.480425	 0.303119	 -0.128386	 0.727037	 -0.663664	 0.120350	 1
1463623583.665	 3	 0.183232	 0.144536	 -0.205344	 3.114797	 -1.482230	 0.325823	 -0.128566	 0.726416	 -0.664509	 0.119240	 1
1463623583.675	 3	 0.177934	 0.139349	 -0.189360	 3.138157	 -1.483970	 0.347852	 -0.128703	 0.725806	 -0.665337	 0.118186	 1
1463623583.685	 3	 0.162024	 0.145903	 -0.172107	 -3.123764	 -1.485457	 0.367774	 -0.128761	 0.725280	 -0.666073	 0.117202	 1
1463623583.695	 3	 0.154691	 0.143012	 -0.133701	 -3.106319	 -1.486885	 0.383793	 -0.128659	 0.724794	 -0.666775	 0.116321	 1
1463623583.705	 3	 0.160000	 0.090222	 -0.077750	 -3.097933	 -1.488433	 0.391213	 -0.128438	 0.724293	 -0.667440	 0.115877	 1
1463623583.715	 3	 0.160825	 0.023346	 -0.059192	 -3.094000	 -1.490016	 0.394778	 -0.128297	 0.723768	 -0.668055	 0.115769	 1
1463623583.725	 3	 0.155309	 -0.027578	 -0.043628	 -3.092139	 -1.491495	 0.396852	 -0.128314	 0.723254	 -0.668584	 0.115908	 1
1463623583.735	 3	 0.143569	 -0.040200	 -0.028720	 -3.091496	 -1.492861	 0.397915	 -0.128380	 0.722771	 -0.669053	 0.116141	 1
1463623583.745	 3	 0.136235	 -0.015674	 -0.023097	 -3.089715	 -1.494073	 0.399956	 -0.128428	 0.722342	 -0.669482	 0.116279	 1
1463623583.755	 3	 0.118343	 0.039667	 -0.025624	 -3.085043	 -1.495164	 0.404385	 -0.128379	 0.721969	 -0.669915	 0.116165	 1
1463623583.765	 3	 0.064076	 0.074916	 -0.026955	 -3.080148	 -1.495724	 0.408592	 -0.128213	 0.721797	 -0.670185	 0.115855	 1
1463623583.775	 3	 0.031854	 0.030345	 -0.026024	 -3.076100	 -1.496059	 0.412204	 -0.128133	 0.721690	 -0.670355	 0.115633	 1
1463623583.785	 3	 0.071228	 0.025810	 -0.048790	 -3.069778	 -1.496613	 0.418348	 -0.128184	 0.721478	 -0.670602	 0.115460	 1
1463623583.795	 3	 0.136433	 0.071160	 -0.075579	 -3.058711	 -1.497766	 0.428848	 -0.128160	 0.721063	 -0.671115	 0.115094	 1
1463623583.805	 3	 0.161093	 0.120855	 -0.106241	 -3.038303	 -1.499326	 0.448206	 -0.128144	 0.720481	 -0.671864	 0.114387	 1
1463623583.815	 3	 0.141007	 0.180311	 -0.128960	 -3.016992	 -1.500666	 0.467913	 -0.127947	 0.719996	 -0.672577	 0.113472	 1
1463623583.825	 3	 0.093181	 0.230370	 -0.138735	 -2.993411	 -1.501530	 0.489365	 -0.127644	 0.719676	 -0.673174	 0.112297	 1
1463623583.835	 3	 0.047501	 0.272105	 -0.135657	 -2.969882	 -1.501874	 0.510329	 -0.127226	 0.719542	 -0.673622	 0.110930	 1
1463623583.845	 3	 0.010297	 0.299903	 -0.130811	 -2.950187	 -1.501434	 0.527127	 -0.126688	 0.719702	 -0.673796	 0.109447	 1
1463623583.855	 3	 -0.018524	 0.289430	 -0.119999	 -2.930262	 -1.501069	 0.544146	 -0.126145	 0.719825	 -0.674005	 0.107964	 1
1463623583.865	 3	 -0.031489	 0.241726	 -0.103278	 -2.913591	 -1.500548	 0.558298	 -0.125688	 0.719993	 -0.674119	 0.106662	 1
1463623583.875	 3	 -0.072291	 0.157033	 -0.065344	 -2.903115	 -1.499792	 0.566955	 -0.125377	 0.720242	 -0.674061	 0.105703	 1
1463623583.885	 3	 -0.094424	 -0.041531	 -0.028630	 -2.901501	 -1.499162	 0.568437	 -0.125453	 0.720432	 -0.673871	 0.105533	 1
1463623583.895	 3	 -0.049371	 -0.215062	 -0.032769	 -2.901339	 -1.498473	 0.570409	 -0.126203	 0.720531	 -0.673545	 0.106041	 1
1463623583.905	 3	 0.002428	 -0.306794	 -0.047929	 -2.898566	 -1.498277	 0.576066	 -0.127334	 0.720381	 -0.673353	 0.106920	 1
1463623583.915	 3	 0.014026	 -0.318684	 -0.069455	 -2.892969	 -1.498261	 0.584910	 -0.128637	 0.720121	 -0.673231	 0.107879	 1
1463623583.925	 3	 -0.008035	 -0.220968	 -0.097135	 -2.876284	 -1.497693	 0.604129	 -0.130022	 0.719955	 -0.673082	 0.108257	 1
1463623583.935	 3	 -0.029728	 -0.038228	 -0.133613	 -2.861859	 -1.497129	 0.619461	 -0.130771	 0.719909	 -0.673006	 0.108137	 1
1463623583.945	 3	 -0.038594	 0.139239	 -0.158529	 -2.842563	 -1.496332	 0.637829	 -0.131013	 0.719988	 -0.673016	 0.107246	 1
1463623583.955	 3	 -0.030607	 0.271967	 -0.186139	 -2.818839	 -1.495478	 0.659208	 -0.130862	 0.720108	 -0.673153	 0.105758	 1
1463623583.965	 3	 -0.029140	 0.377137	 -0.210655	 -2.789056	 -1.494326	 0.685525	 -0.130508	 0.720289	 -0.673349	 0.103692	 1
1463623583.975	 3	 -0.036366	 0.407127	 -0.184735	 -2.763086	 -1.493307	 0.707506	 -0.129861	 0.720488	 -0.673588	 0.101555	 1
1463623583.985	 3	 -0.023702	 0.339346	 -0.139648	 -2.743094	 -1.492482	 0.723927	 -0.129194	 0.720667	 -0.673797	 0.099729	 1
1463623583.995	 3	 0.015315	 0.183371	 -0.072165	 -2.729845	 -1.492164	 0.734942	 -0.128758	 0.720704	 -0.674006	 0.098605	 1
1463623584.005	 3	 0.047873	 -0.001166	 0.014302	 -2.736500	 -1.493309	 0.727881	 -0.128242	 0.720504	 -0.674283	 0.098844	 1
1463623584.015	 3	 0.044274	 -0.132634	 0.070661	 -2.741916	 -1.493974	 0.723519	 -0.128373	 0.720326	 -0.674359	 0.099451	 1
1463623584.025	 3	 0.026964	 -0.186791	 0.075636	 -2.751437	 -1.494555	 0.715737	 -0.128673	 0.720184	 -0.674318	 0.100366	 1
1463623584.035	 3	 -0.004024	 -0.184664	 0.063137	 -2.761032	 -1.494854	 0.708008	 -0.129070	 0.720112	 -0.674184	 0.101271	 1
1463623584.045	 3	 -0.048719	 -0.148442	 0.053199	 -2.765412	 -1.493878	 0.705171	 -0.129700	 0.720356	 -0.673736	 0.101712	 1
1463623584.055	 3	 -0.074126	 -0.097379	 0.044304	 -2.775365	 -1.493395	 0.696288	 -0.129939	 0.720565	 -0.673389	 0.102218	 1
1463623584.065	 3	 -0.087762	 -0.043129	 0.039598	 -2.784651	 -1.492742	 0.687529	 -0.130022	 0.720850	 -0.673026	 0.102498	 1
1463623584.075	 3	 -0.090873	 -0.025029	 0.040860	 -2.793669	 -1.492026	 0.678761	 -0.130019	 0.721167	 -0.672660	 0.102673	 1
1463623584.085	 3	 -0.088711	 -0.021822	 0.044066	 -2.800002	 -1.491312	 0.672609	 -0.130051	 0.721452	 -0.672334	 0.102763	 1
1463623584.095	 3	 -0.082469	 -0.049550	 0.036293	 -2.808574	 -1.490645	 0.664415	 -0.130088	 0.721741	 -0.671982	 0.102987	 1
1463623584.105	 3	 -0.069933	 -0.095419	 0.022968	 -2.815482	 -1.490029	 0.658335	 -0.130316	 0.721964	 -0.671646	 0.103333	 1
1463623584.115	 3	 -0.065540	 -0.077280	 0.032691	 -2.822162	 -1.489500	 0.652531	 -0.130550	 0.722154	 -0.671338	 0.103707	 1
1463623584.125	 3	 -0.035502	 -0.040180	 0.027444	 -2.825409	 -1.489384	 0.649729	 -0.130646	 0.722203	 -0.671234	 0.103920	 1
1463623584.135	 3	 -0.019379	 -0.010491	 0.021186	 -2.829066	 -1.489249	 0.646256	 -0.130641	 0.722280	 -0.671132	 0.104052	 1
1463623584.145	 3	 -0.019196	 0.028856	 0.020484	 -2.832008	 -1.489135	 0.643111	 -0.130511	 0.722367	 -0.671066	 0.104041	 1
1463623584.155	 3	 -0.028648	 0.067123	 0.013463	 -2.834154	 -1.488927	 0.640380	 -0.130277	 0.722495	 -0.671000	 0.103866	 1
1463623584.165	 3	 -0.045509	 0.112904	 0.012969	 -2.835613	 -1.488561	 0.637919	 -0.129936	 0.722690	 -0.670912	 0.103507	 1
1463623584.175	 3	 -0.053913	 0.137425	 0.017534	 -2.838167	 -1.488097	 0.633989	 -0.129445	 0.722952	 -0.670796	 0.103037	 1
1463623584.185	 3	 -0.056171	 0.114007	 0.014138	 -2.840647	 -1.487627	 0.630292	 -0.129014	 0.723205	 -0.670671	 0.102618	 1
1463623584.195	 3	 -0.065905	 0.082165	 0.019254	 -2.842495	 -1.487093	 0.627506	 -0.128709	 0.723451	 -0.670518	 0.102266	 1
1463623584.205	 3	 -0.075556	 0.071564	 0.020305	 -2.845633	 -1.486431	 0.623632	 -0.128462	 0.723739	 -0.670295	 0.101997	 1
1463623584.215	 3	 -0.081973	 0.075777	 0.011872	 -2.848179	 -1.485601	 0.620329	 -0.128248	 0.724072	 -0.670025	 0.101680	 1
1463623584.225	 3	 -0.092627	 0.082167	 0.008826	 -2.849382	 -1.484688	 0.618294	 -0.128053	 0.724417	 -0.669748	 0.101290	 1
1463623584.235	 3	 -0.093688	 0.079018	 0.014132	 -2.849909	 -1.483858	 0.616943	 -0.127867	 0.724728	 -0.669507	 0.100897	 1
1463623584.245	 3	 -0.089498	 0.082027	 -0.009326	 -2.847602	 -1.482887	 0.618423	 -0.127779	 0.725043	 -0.669257	 0.100403	 1
1463623584.255	 3	 -0.094854	 0.099932	 -0.035760	 -2.842258	 -1.481807	 0.622800	 -0.127745	 0.725356	 -0.669020	 0.099758	 1
1463623584.265	 3	 -0.098983	 0.120232	 -0.024881	 -2.836667	 -1.480742	 0.627224	 -0.127645	 0.725671	 -0.668804	 0.099039	 1
1463623584.275	 3	 -0.109363	 0.167189	 -0.007306	 -2.832769	 -1.479672	 0.629572	 -0.127362	 0.726034	 -0.668583	 0.098236	 1
1463623584.285	 3	 -0.117735	 0.222348	 -0.031234	 -2.829711	 -1.478405	 0.630534	 -0.126889	 0.726501	 -0.668311	 0.097241	 1
1463623584.295	 3	 -0.132393	 0.274574	 -0.022096	 -2.827176	 -1.477034	 0.630426	 -0.126219	 0.727040	 -0.668023	 0.096060	 1
1463623584.305	 3	 -0.132234	 0.299116	 -0.011210	 -2.828094	 -1.475792	 0.626541	 -0.125308	 0.727610	 -0.667740	 0.094895	 1
1463623584.315	 3	 -0.118433	 0.270471	 0.004393	 -2.832385	 -1.474801	 0.619420	 -0.124304	 0.728148	 -0.667479	 0.093919	 1
1463623584.325	 3	 -0.090987	 0.173879	 0.042695	 -2.843472	 -1.474627	 0.606355	 -0.123273	 0.728489	 -0.667347	 0.093569	 1
1463623584.335	 3	 -0.070894	 0.091230	 0.093981	 -2.860046	 -1.474690	 0.588659	 -0.122346	 0.728781	 -0.667179	 0.093713	 1
1463623584.345	 3	 -0.075224	 0.034183	 0.145715	 -2.880766	 -1.474788	 0.567458	 -0.121516	 0.729070	 -0.666945	 0.094208	 1
1463623584.355	 3	 -0.097655	 0.007851	 0.172316	 -2.907094	 -1.474394	 0.540928	 -0.120672	 0.729553	 -0.666470	 0.094910	 1
1463623584.365	 3	 -0.119105	 -0.032351	 0.193450	 -2.936220	 -1.473712	 0.511955	 -0.119886	 0.730120	 -0.665864	 0.095798	 1
1463623584.375	 3	 -0.129884	 -0.077856	 0.220836	 -2.967152	 -1.472898	 0.481610	 -0.119191	 0.730700	 -0.665193	 0.096898	 1
1463623584.385	 3	 -0.133165	 -0.114897	 0.245032	 -2.994185	 -1.471955	 0.455482	 -0.118729	 0.731238	 -0.664525	 0.097987	 1
1463623584.395	 3	 -0.127858	 -0.142383	 0.270308	 -3.023634	 -1.471033	 0.427276	 -0.118282	 0.731753	 -0.663843	 0.099296	 1
1463623584.405	 3	 -0.122511	 -0.143432	 0.274515	 -3.053593	 -1.470082	 0.398612	 -0.117813	 0.732255	 -0.663166	 0.100664	 1
1463623584.415	 3	 -0.105470	 -0.167801	 0.294389	 -3.083866	 -1.469409	 0.369749	 -0.117328	 0.732637	 -0.662606	 0.102128	 1
1463623584.425	 3	 -0.080996	 -0.192254	 0.305672	 -3.115743	 -1.468684	 0.339590	 -0.116883	 0.733000	 -0.662028	 0.103768	 1
1463623584.435	 3	 -0.072715	 -0.244415	 0.302983	 3.135452	 -1.467977	 0.309732	 -0.116562	 0.733302	 -0.661465	 0.105573	 1
1463623584.445	 3	 -0.058150	 -0.308418	 0.283075	 3.106697	 -1.467981	 0.283759	 -0.116547	 0.733282	 -0.661175	 0.107528	 1
1463623584.455	 3	 -0.030552	 -0.335139	 0.276188	 3.080489	 -1.468020	 0.260713	 -0.116758	 0.733191	 -0.660911	 0.109521	 1
1463623584.465	 3	 -0.003868	 -0.319395	 0.257980	 3.055359	 -1.468074	 0.238690	 -0.116987	 0.733072	 -0.660679	 0.111458	 1
1463623584.475	 3	 0.006974	 -0.250574	 0.219091	 3.033099	 -1.467853	 0.218987	 -0.117122	 0.733049	 -0.660400	 0.113104	 1
1463623584.485	 3	 -0.008878	 -0.176425	 0.170889	 3.019158	 -1.467284	 0.206863	 -0.117288	 0.733158	 -0.660062	 0.114200	 1
1463623584.495	 3	 -0.047289	 -0.141494	 0.132110	 3.010919	 -1.466411	 0.200009	 -0.117502	 0.733381	 -0.659647	 0.114945	 1
1463623584.505	 3	 -0.096367	 -0.119180	 0.109292	 3.006550	 -1.465178	 0.196778	 -0.117768	 0.733731	 -0.659118	 0.115464	 1
1463623584.515	 3	 -0.116888	 -0.123775	 0.054003	 3.006342	 -1.463696	 0.197722	 -0.118195	 0.734159	 -0.658501	 0.115831	 1
1463623584.525	 3	 -0.118255	 -0.146456	 0.005842	 3.008758	 -1.462303	 0.201495	 -0.118796	 0.734541	 -0.657908	 0.116165	 1
1463623584.535	 3	 -0.112001	 -0.175218	 0.002320	 3.010872	 -1.461215	 0.205268	 -0.119498	 0.734803	 -0.657409	 0.116612	 1
1463623584.545	 3	 -0.083202	 -0.178495	 0.002036	 3.012418	 -1.460613	 0.208609	 -0.120223	 0.734893	 -0.657083	 0.117131	 1
1463623584.555	 3	 -0.080927	 -0.143446	 -0.004054	 3.013844	 -1.459777	 0.211545	 -0.120843	 0.735079	 -0.656686	 0.117557	 1
1463623584.565	 3	 -0.093499	 -0.099751	 0.002856	 3.014035	 -1.458931	 0.212852	 -0.121270	 0.735293	 -0.656305	 0.117900	 1
1463623584.575	 3	 -0.116552	 -0.034589	 0.032439	 3.012702	 -1.457837	 0.212035	 -0.121420	 0.735629	 -0.655865	 0.118102	 1
1463623584.585	 3	 -0.116292	 0.005954	 0.049866	 3.009860	 -1.456646	 0.209201	 -0.121322	 0.736029	 -0.655417	 0.118198	 1
1463623584.594	 3	 -0.120291	 0.050741	 0.064171	 3.007707	 -1.455501	 0.206614	 -0.121086	 0.736440	 -0.655013	 0.118124	 1
1463623584.604	 3	 -0.125710	 0.023187	 0.075683	 3.005435	 -1.454478	 0.203941	 -0.120855	 0.736808	 -0.654651	 0.118069	 1
1463623584.615	 3	 -0.112136	 -0.016419	 0.046418	 3.003842	 -1.453687	 0.202405	 -0.120816	 0.737069	 -0.654351	 0.118141	 1
1463623584.625	 3	 -0.071856	 -0.038122	 0.003234	 3.003901	 -1.452869	 0.202780	 -0.120942	 0.737322	 -0.654027	 0.118230	 1
1463623584.635	 3	 -0.059316	 -0.085039	 -0.007969	 3.004493	 -1.452281	 0.204093	 -0.121237	 0.737472	 -0.653766	 0.118432	 1
1463623584.645	 3	 -0.068088	 -0.136054	 -0.006236	 3.004590	 -1.451649	 0.205443	 -0.121709	 0.737606	 -0.653455	 0.118828	 1
1463623584.655	 3	 -0.068091	 -0.151878	 0.011735	 3.003392	 -1.450951	 0.205755	 -0.122221	 0.737748	 -0.653103	 0.119361	 1
1463623584.665	 3	 -0.057200	 -0.138860	 0.051194	 2.999679	 -1.450427	 0.203452	 -0.122588	 0.737840	 -0.652818	 0.119971	 1
1463623584.675	 3	 -0.037709	 -0.119424	 0.099164	 2.991846	 -1.449879	 0.196824	 -0.122702	 0.737957	 -0.652532	 0.120691	 1
1463623584.685	 3	 -0.017209	 -0.109588	 0.143839	 2.980198	 -1.449433	 0.186200	 -0.122582	 0.738051	 -0.652294	 0.121519	 1
1463623584.695	 3	 0.023464	 -0.132685	 0.201887	 2.964055	 -1.449235	 0.171168	 -0.122299	 0.738052	 -0.652149	 0.122573	 1
1463623584.705	 3	 0.093132	 -0.137568	 0.280239	 2.939588	 -1.450476	 0.147970	 -0.121733	 0.737547	 -0.652550	 0.124030	 1
1463623584.715	 3	 0.127443	 -0.124721	 0.305638	 2.911927	 -1.451016	 0.121402	 -0.120974	 0.737254	 -0.652731	 0.125553	 1
1463623584.725	 3	 0.131696	 -0.145853	 0.326720	 2.881964	 -1.451522	 0.092608	 -0.120156	 0.736929	 -0.652933	 0.127187	 1
1463623584.735	 3	 0.141188	 -0.187210	 0.347568	 2.849513	 -1.451918	 0.061720	 -0.119388	 0.736569	 -0.653116	 0.129043	 1
1463623584.745	 3	 0.164501	 -0.240302	 0.369252	 2.814162	 -1.452321	 0.028394	 -0.118685	 0.736121	 -0.653329	 0.131157	 1
1463623584.755	 3	 0.187751	 -0.304053	 0.387640	 2.775845	 -1.452740	 -0.007303	 -0.118097	 0.735561	 -0.653577	 0.133568	 1
1463623584.765	 3	 0.199221	 -0.394206	 0.427200	 2.733369	 -1.452997	 -0.046342	 -0.117648	 0.734911	 -0.653803	 0.136406	 1
1463623584.774	 3	 0.193691	 -0.475738	 0.475514	 2.686429	 -1.452841	 -0.089011	 -0.117307	 0.734227	 -0.653935	 0.139709	 1
1463623584.784	 3	 0.186231	 -0.536860	 0.550680	 2.634279	 -1.452048	 -0.136235	 -0.116945	 0.733552	 -0.653940	 0.143485	 1
1463623584.795	 3	 0.151116	 -0.600896	 0.652702	 2.577450	 -1.450367	 -0.187664	 -0.116459	 0.732938	 -0.653776	 0.147703	 1
1463623584.805	 3	 0.076457	 -0.728195	 0.815229	 2.513382	 -1.446699	 -0.245084	 -0.115827	 0.732569	 -0.653103	 0.152913	 1
1463623584.815	 3	 0.085117	 -0.790212	 0.920087	 2.446510	 -1.441856	 -0.304700	 -0.115025	 0.732219	 -0.652257	 0.158698	 1
1463623584.825	 3	 0.100110	 -0.865015	 1.021636	 2.377071	 -1.435929	 -0.366240	 -0.114041	 0.731789	 -0.651325	 0.165093	 1
1463623584.834	 3	 0.112721	 -0.942384	 1.064502	 2.309209	 -1.429115	 -0.425431	 -0.113088	 0.731256	 -0.650308	 0.171973	 1
1463623584.844	 3	 0.145496	 -1.020015	 1.079481	 2.244424	 -1.421812	 -0.480808	 -0.112283	 0.730542	 -0.649300	 0.179196	 1
1463623584.855	 3	 0.188946	 -1.093454	 1.090143	 2.182185	 -1.414166	 -0.532903	 -0.111641	 0.729593	 -0.648349	 0.186746	 1
1463623584.864	 3	 0.237749	 -1.177423	 1.117712	 2.121376	 -1.406146	 -0.582804	 -0.111126	 0.728373	 -0.647477	 0.194672	 1
1463623584.874	 3	 0.231474	 -1.227787	 1.210019	 2.062634	 -1.397072	 -0.630022	 -0.110533	 0.727047	 -0.646490	 0.203068	 1
1463623584.885	 3	 0.163955	 -1.185050	 1.355949	 2.008929	 -1.386103	 -0.672355	 -0.109444	 0.725932	 -0.645123	 0.211803	 1
1463623584.894	 3	 0.084332	 -0.968064	 1.471632	 1.963540	 -1.373317	 -0.708056	 -0.107425	 0.725262	 -0.643383	 0.220259	 1
1463623584.904	 3	 0.001044	 -0.645577	 1.613907	 1.927446	 -1.358752	 -0.737470	 -0.104033	 0.725201	 -0.641318	 0.227972	 1
1463623584.915	 3	 -0.091526	 -0.279242	 1.785446	 1.900348	 -1.342058	 -0.761365	 -0.098983	 0.725874	 -0.638851	 0.234901	 1
1463623584.925	 3	 -0.198050	 0.166074	 1.842740	 1.883862	 -1.324052	 -0.778825	 -0.092362	 0.727379	 -0.636041	 0.240499	 1
1463623584.935	 3	 -0.267494	 0.524321	 1.935136	 1.875504	 -1.305140	 -0.792264	 -0.084253	 0.729578	 -0.633023	 0.244742	 1
1463623584.945	 3	 -0.309105	 0.454862	 2.020113	 1.869535	 -1.285102	 -0.803561	 -0.075754	 0.731938	 -0.629641	 0.249158	 1
1463623584.954	 3	 -0.242540	 0.140443	 1.956925	 1.861359	 -1.265382	 -0.814563	 -0.068096	 0.733781	 -0.626258	 0.254419	 1
1463623584.964	 3	 -0.145360	 -0.464483	 1.886504	 1.846995	 -1.246657	 -0.826516	 -0.062270	 0.734540	 -0.623091	 0.261403	 1
1463623584.974	 3	 -0.088791	 -0.925103	 1.898778	 1.827068	 -1.228209	 -0.838799	 -0.058061	 0.734305	 -0.619976	 0.270288	 1
1463623584.985	 3	 -0.126742	 -1.208687	 2.085109	 1.805346	 -1.208262	 -0.849861	 -0.054282	 0.733665	 -0.616446	 0.280685	 1
1463623584.995	 3	 -0.146750	 -0.931153	 2.360701	 1.785460	 -1.185583	 -0.859954	 -0.049304	 0.733206	 -0.612359	 0.291539	 1
1463623585.005	 3	 -0.176895	 -0.492335	 2.579265	 1.770912	 -1.160448	 -0.869270	 -0.042074	 0.733403	 -0.607864	 0.301416	 1
1463623585.015	 3	 -0.247187	 -0.018747	 2.589613	 1.763408	 -1.134481	 -0.876051	 -0.033285	 0.734398	 -0.603008	 0.309730	 1
1463623585.025	 3	 -0.213664	 0.217108	 2.419928	 1.760201	 -1.109794	 -0.881570	 -0.024045	 0.735730	 -0.598309	 0.316464	 1
1463623585.035	 3	 -0.054705	 0.110221	 2.265145	 1.755250	 -1.087085	 -0.888893	 -0.015288	 0.736488	 -0.594312	 0.322714	 1
1463623585.045	 3	 -0.039039	 -0.226657	 2.310899	 1.746781	 -1.064590	 -0.896977	 -0.007328	 0.736472	 -0.590487	 0.329970	 1
1463623585.055	 3	 -0.224392	 -0.623935	 2.599769	 1.736913	 -1.039524	 -0.902300	 0.000110	 0.736129	 -0.585657	 0.339293	 1
1463623585.064	 3	 -0.430892	 -1.095665	 3.026680	 1.725828	 -1.010091	 -0.903957	 0.007369	 0.735529	 -0.579215	 0.351359	 1
1463623585.075	 3	 -0.615328	 -1.641903	 3.454836	 1.711715	 -0.976271	 -0.902680	 0.014238	 0.734256	 -0.571226	 0.366560	 1
1463623585.085	 3	 -0.817300	 -1.692773	 3.984740	 1.698071	 -0.937085	 -0.898343	 0.022046	 0.732867	 -0.561329	 0.383835	 1
1463623585.095	 3	 -0.766021	 -1.555030	 4.372446	 1.685597	 -0.893763	 -0.894047	 0.031722	 0.731352	 -0.550293	 0.401617	 1
1463623585.105	 3	 -0.421019	 -1.622971	 4.529739	 1.669807	 -0.848363	 -0.893504	 0.042705	 0.728599	 -0.539435	 0.419916	 1
1463623585.115	 3	 -0.080786	 -1.409374	 4.494660	 1.652561	 -0.803380	 -0.897149	 0.054830	 0.724808	 -0.529560	 0.437280	 1
1463623585.125	 3	 0.193381	 -0.939332	 4.448688	 1.636962	 -0.758976	 -0.903671	 0.068365	 0.720633	 -0.520451	 0.452930	 1
1463623585.135	 3	 0.533703	 -0.730675	 4.172700	 1.623400	 -0.716795	 -0.913020	 0.082773	 0.716219	 -0.512535	 0.466355	 1
1463623585.145	 3	 0.923633	 -1.246026	 3.812808	 1.604162	 -0.678118	 -0.926047	 0.095899	 0.709784	 -0.506743	 0.479815	 1
1463623585.155	 3	 1.099212	 -1.815142	 3.285891	 1.578227	 -0.644039	 -0.940631	 0.106347	 0.701186	 -0.503065	 0.493918	 1
1463623585.165	 3	 0.868768	 -2.101542	 2.566909	 1.551166	 -0.616443	 -0.952183	 0.113237	 0.692221	 -0.500593	 0.507361	 1
1463623585.175	 3	 0.537829	 -2.674626	 1.874909	 1.522322	 -0.595912	 -0.958788	 0.115537	 0.683081	 -0.498906	 0.520715	 1
1463623585.185	 3	 0.464761	 -3.524385	 1.414689	 1.486838	 -0.580436	 -0.963197	 0.113687	 0.672319	 -0.498373	 0.535431	 1
1463623585.195	 3	 0.504275	 -4.311299	 1.012690	 1.443137	 -0.568846	 -0.967695	 0.108454	 0.659246	 -0.499298	 0.551664	 1
1463623585.205	 3	 0.429878	 -4.812837	 0.610076	 1.393870	 -0.561127	 -0.971800	 0.100283	 0.644543	 -0.501264	 0.568544	 1
1463623585.215	 3	 0.139660	 -4.973941	 0.277520	 1.343363	 -0.557268	 -0.973649	 0.089614	 0.629514	 -0.503351	 0.585081	 1
1463623585.225	 3	 -0.488958	 -4.656025	 0.155929	 1.297729	 -0.556372	 -0.969611	 0.077202	 0.616064	 -0.503869	 0.600518	 1
1463623585.235	 3	 -1.269961	 -3.731444	 0.175595	 1.264597	 -0.557888	 -0.956845	 0.064396	 0.606620	 -0.501476	 0.613504	 1
1463623585.244	 3	 -1.743958	 -2.908553	 0.230010	 1.244111	 -0.561025	 -0.937550	 0.052255	 0.601176	 -0.496732	 0.623790	 1
1463623585.255	 3	 -1.850060	 -2.710108	 0.418223	 1.228441	 -0.563658	 -0.915636	 0.040805	 0.597032	 -0.490732	 0.633300	 1
1463623585.265	 3	 -1.854663	 -2.586614	 0.725286	 1.214591	 -0.563925	 -0.892410	 0.030417	 0.593053	 -0.483620	 0.643020	 1
1463623585.275	 3	 -1.861910	 -2.306036	 0.985875	 1.203811	 -0.561844	 -0.867966	 0.021419	 0.589677	 -0.475430	 0.652525	 1
1463623585.285	 3	 -1.849125	 -2.009086	 1.165443	 1.196420	 -0.558095	 -0.842751	 0.013734	 0.587120	 -0.466464	 0.661448	 1
1463623585.295	 3	 -1.739008	 -2.072317	 1.290722	 1.189068	 -0.552925	 -0.817950	 0.006815	 0.584334	 -0.457203	 0.670428	 1
1463623585.304	 3	 -1.685225	 -2.110720	 1.443366	 1.180839	 -0.546310	 -0.793353	 0.000414	 0.581026	 -0.447571	 0.679771	 1
1463623585.315	 3	 -1.663767	 -2.022170	 1.635840	 1.173325	 -0.538063	 -0.768257	 -0.005229	 0.577733	 -0.437283	 0.689188	 1
1463623585.325	 3	 -1.605331	 -2.017707	 1.834670	 1.166174	 -0.527985	 -0.742808	 -0.010066	 0.574341	 -0.426338	 0.698761	 1
1463623585.334	 3	 -1.499058	 -2.083320	 2.069734	 1.158134	 -0.515603	 -0.717437	 -0.014034	 0.570392	 -0.414771	 0.708816	 1
1463623585.345	 3	 -1.406441	 -2.098938	 2.300052	 1.149477	 -0.500870	 -0.692102	 -0.017043	 0.565990	 -0.402545	 0.719252	 1
1463623585.355	 3	 -1.346779	 -2.077321	 2.518215	 1.140745	 -0.484058	 -0.666494	 -0.019159	 0.561358	 -0.389597	 0.729879	 1
1463623585.364	 3	 -1.301944	 -2.034363	 2.739903	 1.132216	 -0.465241	 -0.640403	 -0.020401	 0.556618	 -0.375858	 0.740601	 1
1463623585.375	 3	 -1.240053	 -1.999926	 2.966692	 1.123800	 -0.444334	 -0.613884	 -0.020725	 0.551750	 -0.361315	 0.751395	 1
1463623585.385	 3	 -1.154032	 -2.050672	 3.190347	 1.114751	 -0.421259	 -0.587157	 -0.020152	 0.546484	 -0.346014	 0.762380	 1
1463623585.394	 3	 -1.044049	 -2.214325	 3.401019	 1.103661	 -0.396056	 -0.560423	 -0.018848	 0.540287	 -0.330021	 0.773835	 1
1463623585.405	 3	 -0.888492	 -2.412423	 3.573672	 1.089892	 -0.368853	 -0.534133	 -0.016781	 0.532901	 -0.313542	 0.785765	 1
1463623585.415	 3	 -0.745283	 -2.686462	 3.682846	 1.072652	 -0.340213	 -0.508478	 -0.014179	 0.524017	 -0.296797	 0.798196	 1
1463623585.425	 3	 -0.655951	 -3.011899	 3.722736	 1.051473	 -0.311034	 -0.483160	 -0.011471	 0.513448	 -0.279907	 0.811105	 1
1463623585.435	 3	 -0.585261	 -3.391969	 3.701532	 1.025885	 -0.282123	 -0.458042	 -0.008998	 0.500993	 -0.263036	 0.824462	 1
1463623585.445	 3	 -0.472142	 -3.802157	 3.650902	 0.995400	 -0.253740	 -0.433440	 -0.006748	 0.486398	 -0.246416	 0.838243	 1
1463623585.454	 3	 -0.336436	 -4.167801	 3.591964	 0.960249	 -0.225902	 -0.409541	 -0.004556	 0.469686	 -0.230175	 0.852288	 1
1463623585.465	 3	 -0.193850	 -4.438752	 3.540242	 0.921410	 -0.198551	 -0.386252	 -0.002222	 0.451205	 -0.214315	 0.866301	 1
1463623585.475	 3	 -0.063330	 -4.557528	 3.494304	 0.880191	 -0.171669	 -0.363353	 0.000407	 0.431485	 -0.198782	 0.879946	 1
1463623585.484	 3	 0.084049	 -4.478673	 3.427677	 0.838651	 -0.145279	 -0.340900	 0.003553	 0.411430	 -0.183642	 0.892742	 1
1463623585.495	 3	 0.296945	 -4.264274	 3.305256	 0.798198	 -0.119268	 -0.319642	 0.007515	 0.391694	 -0.169238	 0.904366	 1
1463623585.505	 3	 0.573370	 -3.905619	 3.153783	 0.760190	 -0.093277	 -0.300333	 0.012636	 0.372912	 -0.155877	 0.914593	 1
1463623585.515	 3	 0.907147	 -3.380139	 3.003362	 0.726325	 -0.066665	 -0.283443	 0.019308	 0.355876	 -0.143682	 0.923220	 1
1463623585.525	 3	 1.300340	 -2.703786	 2.854895	 0.698245	 -0.038699	 -0.269345	 0.027904	 0.341354	 -0.132701	 0.930102	 1
1463623585.535	 3	 1.738060	 -2.057621	 2.668456	 0.676496	 -0.008831	 -0.258638	 0.038662	 0.329598	 -0.123103	 0.935263	 1
1463623585.545	 3	 2.132346	 -1.513918	 2.415365	 0.659802	 0.022495	 -0.251755	 0.051224	 0.320030	 -0.115153	 0.938987	 1
1463623585.555	 3	 2.516791	 -0.806286	 2.176675	 0.649955	 0.055291	 -0.248788	 0.065592	 0.313449	 -0.108777	 0.941071	 1
1463623585.565	 3	 2.888368	 -0.477120	 2.104030	 0.644653	 0.090311	 -0.248828	 0.081754	 0.308692	 -0.103394	 0.941985	 1
1463623585.575	 3	 3.156771	 -0.449502	 2.207461	 0.640318	 0.128153	 -0.250008	 0.099463	 0.304043	 -0.098106	 0.942359	 1
1463623585.584	 3	 3.216563	 -0.535035	 2.316984	 0.635336	 0.167634	 -0.250722	 0.117823	 0.298869	 -0.092416	 0.942472	 1
1463623585.594	 3	 3.124021	 -0.713310	 2.336380	 0.628629	 0.206875	 -0.250508	 0.135842	 0.292836	 -0.086499	 0.942503	 1
1463623585.605	 3	 2.911865	 -0.871364	 2.309047	 0.619965	 0.244520	 -0.249033	 0.152846	 0.285996	 -0.080479	 0.942532	 1
1463623585.614	 3	 2.632289	 -1.045381	 2.253376	 0.609171	 0.279690	 -0.245988	 0.168403	 0.278413	 -0.074408	 0.942651	 1
1463623585.624	 3	 2.359867	 -1.275879	 2.185395	 0.595733	 0.312151	 -0.241388	 0.182423	 0.269914	 -0.068413	 0.942968	 1
1463623585.635	 3	 2.145454	 -1.645932	 2.110280	 0.578323	 0.342237	 -0.235532	 0.195099	 0.259861	 -0.062751	 0.943648	 1
1463623585.644	 3	 1.908020	 -1.929673	 2.047893	 0.557156	 0.369810	 -0.228281	 0.206400	 0.248410	 -0.057407	 0.944667	 1
1463623585.654	 3	 1.665865	 -2.077310	 1.978286	 0.533371	 0.394754	 -0.219543	 0.216337	 0.236140	 -0.052259	 0.945889	 1
1463623585.665	 3	 1.458459	 -2.078441	 1.885227	 0.508613	 0.417059	 -0.209696	 0.225021	 0.223804	 -0.047301	 0.947122	 1
1463623585.675	 3	 1.302914	 -1.934104	 1.779211	 0.484778	 0.436422	 -0.199364	 0.232431	 0.212253	 -0.042614	 0.948213	 1
1463623585.685	 3	 1.210520	 -1.756920	 1.681477	 0.462567	 0.454332	 -0.188911	 0.239307	 0.201667	 -0.038049	 0.949007	 1
1463623585.704	 4	 1.099034	 -1.486670	 1.502713	 0.421783	 0.487872	 -0.168210	 0.252403	 0.182577	 -0.029333	 0.949789	 1
1463623585.714	 4	 1.027940	 -1.363403	 1.458651	 0.402825	 0.503330	 -0.157727	 0.258489	 0.173928	 -0.025096	 0.949896	 1
1463623585.725	 4	 0.910234	 -1.244649	 1.506609	 0.384484	 0.517722	 -0.146102	 0.264074	 0.165863	 -0.020478	 0.949913	 1
1463623585.734	 4	 0.840293	 -1.215095	 1.591796	 0.365727	 0.531317	 -0.132871	 0.269246	 0.157941	 -0.015353	 0.949908	 1
1463623585.744	 4	 0.820014	 -1.254058	 1.637437	 0.345984	 0.544579	 -0.118454	 0.274272	 0.149817	 -0.009949	 0.949858	 1
1463623585.755	 4	 0.816465	 -1.320057	 1.628327	 0.325188	 0.557566	 -0.103531	 0.279245	 0.141369	 -0.004602	 0.949745	 1
1463623585.765	 4	 0.799963	 -1.372577	 1.566168	 0.303621	 0.570127	 -0.088644	 0.284141	 0.132666	 0.000456	 0.949560	 1
1463623585.775	 4	 0.766249	 -1.409477	 1.451016	 0.281843	 0.581825	 -0.074384	 0.288790	 0.123902	 0.004991	 0.949328	 1
1463623585.785	 4	 0.722907	 -1.411595	 1.288312	 0.260476	 0.592473	 -0.061332	 0.293123	 0.115280	 0.008817	 0.949058	 1
1463623585.795	 4	 0.682603	 -1.399255	 1.067099	 0.240220	 0.601982	 -0.050219	 0.297111	 0.107009	 0.011706	 0.948756	 1
1463623585.805	 4	 0.640040	 -1.371317	 0.795960	 0.221594	 0.610306	 -0.041777	 0.300735	 0.099202	 0.013413	 0.948440	 1
1463623585.815	 4	 0.578763	 -1.229595	 0.514320	 0.205710	 0.617358	 -0.036338	 0.303922	 0.092315	 0.013969	 0.948111	 1
1463623585.825	 4	 0.518283	 -0.956724	 0.277589	 0.193857	 0.623234	 -0.033649	 0.306666	 0.086969	 0.013729	 0.947736	 1
1463623585.835	 4	 0.474309	 -0.660854	 0.138979	 0.185993	 0.628312	 -0.032734	 0.309083	 0.083270	 0.013194	 0.947291	 1
1463623585.845	 4	 0.450430	 -0.450785	 0.056946	 0.181116	 0.632917	 -0.032853	 0.311298	 0.080841	 0.012594	 0.946784	 1
1463623585.855	 4	 0.450674	 -0.359657	 0.009833	 0.177814	 0.637379	 -0.033615	 0.313458	 0.079062	 0.011919	 0.946230	 1
1463623585.865	 4	 0.448486	 -0.346040	 -0.019863	 0.175011	 0.641792	 -0.034760	 0.315604	 0.077460	 0.011133	 0.945659	 1
1463623585.875	 4	 0.417281	 -0.361178	 -0.066626	 0.172417	 0.645904	 -0.036345	 0.317620	 0.075891	 0.010153	 0.945122	 1
1463623585.885	 4	 0.352593	 -0.434943	 -0.144549	 0.169694	 0.649349	 -0.038659	 0.319346	 0.074159	 0.008776	 0.944691	 1
1463623585.895	 4	 0.272427	 -0.584508	 -0.267806	 0.166387	 0.651847	 -0.042168	 0.320665	 0.071979	 0.006697	 0.944430	 1
1463623585.905	 4	 0.164557	 -0.712825	 -0.405544	 0.162598	 0.653146	 -0.047199	 0.321465	 0.069351	 0.003769	 0.944371	 1
1463623585.915	 4	 0.030081	 -0.818787	 -0.551369	 0.158624	 0.652968	 -0.053706	 0.321606	 0.066432	 0.000049	 0.944540	 1
1463623585.925	 4	 -0.115099	 -0.917394	 -0.714084	 0.154669	 0.651132	 -0.061914	 0.321002	 0.063294	 -0.004540	 0.944950	 1
1463623585.935	 4	 -0.261075	 -0.973329	 -0.859343	 0.150987	 0.647640	 -0.071731	 0.319644	 0.060079	 -0.009914	 0.945579	 1
1463623585.945	 4	 -0.366113	 -1.011809	 -0.928061	 0.147393	 0.642881	 -0.082433	 0.317687	 0.056817	 -0.015746	 0.946361	 1
1463623585.955	 4	 -0.407793	 -1.042377	 -0.906667	 0.143372	 0.637586	 -0.093025	 0.315440	 0.053407	 -0.021615	 0.947195	 1
1463623585.965	 4	 -0.397855	 -1.046019	 -0.818329	 0.138629	 0.632403	 -0.102689	 0.313181	 0.049818	 -0.027152	 0.947997	 1
1463623585.974	 4	 -0.356481	 -1.003522	 -0.661627	 0.133190	 0.627811	 -0.110735	 0.311122	 0.046148	 -0.032002	 0.948709	 1
1463623585.984	 4	 -0.327386	 -0.912582	 -0.429764	 0.127018	 0.623872	 -0.116197	 0.309274	 0.042517	 -0.035707	 0.949351	 1
1463623585.995	 4	 -0.295166	 -0.810190	 -0.230860	 0.120328	 0.620518	 -0.119077	 0.307620	 0.039021	 -0.038235	 0.949940	 1
1463623586.005	 4	 -0.247287	 -0.678951	 -0.154386	 0.114152	 0.617743	 -0.120738	 0.306215	 0.035936	 -0.040075	 0.950439	 1
1463623586.015	 4	 -0.189872	 -0.502521	 -0.148981	 0.109550	 0.615537	 -0.122249	 0.305101	 0.033600	 -0.041575	 0.950819	 1
1463623586.025	 4	 -0.110216	 -0.340171	 -0.169479	 0.106816	 0.614046	 -0.124067	 0.304365	 0.032079	 -0.042908	 0.951048	 1
1463623586.034	 4	 -0.026550	 -0.221537	 -0.203208	 0.105640	 0.613368	 -0.126367	 0.304055	 0.031196	 -0.044204	 0.951117	 1
1463623586.044	 4	 0.038874	 -0.118850	 -0.243321	 0.105875	 0.613370	 -0.129236	 0.304105	 0.030871	 -0.045533	 0.951049	 1
1463623586.055	 4	 0.081725	 -0.068061	 -0.262406	 0.106967	 0.613816	 -0.132489	 0.304392	 0.030878	 -0.046898	 0.950890	 1
1463623586.064	 4	 0.103188	 -0.049980	 -0.253898	 0.108314	 0.614522	 -0.135759	 0.304810	 0.030992	 -0.048222	 0.950687	 1
1463623586.074	 4	 0.119357	 -0.038135	 -0.227285	 0.109646	 0.615410	 -0.138774	 0.305310	 0.031129	 -0.049420	 0.950460	 1
1463623586.085	 4	 0.128165	 -0.028178	 -0.170783	 0.110761	 0.616440	 -0.141222	 0.305864	 0.031242	 -0.050375	 0.950228	 1
1463623586.095	 4	 0.148771	 -0.024448	 -0.089956	 0.116759	 0.616479	 -0.145865	 0.306111	 0.033379	 -0.051661	 0.950007	 1
1463623586.105	 4	 0.181035	 -0.048344	 0.001196	 0.116664	 0.618161	 -0.146373	 0.306914	 0.033183	 -0.051852	 0.949744	 1
1463623586.115	 4	 0.218468	 -0.107357	 0.091977	 0.115408	 0.620312	 -0.145805	 0.307890	 0.032581	 -0.051692	 0.949458	 1
1463623586.125	 4	 0.261240	 -0.138963	 0.150993	 0.113297	 0.622958	 -0.144466	 0.309067	 0.031671	 -0.051281	 0.949128	 1
1463623586.135	 4	 0.297653	 -0.131431	 0.176313	 0.114435	 0.626457	 -0.144801	 0.310757	 0.032008	 -0.051130	 0.948573	 1
1463623586.145	 4	 0.342544	 -0.110346	 0.168658	 0.112305	 0.629932	 -0.143152	 0.312320	 0.031106	 -0.050548	 0.948121	 1
1463623586.155	 4	 0.378927	 -0.067038	 0.142100	 0.110724	 0.633784	 -0.141815	 0.314081	 0.030403	 -0.050018	 0.947590	 1
1463623586.165	 4	 0.384387	 -0.008830	 0.104226	 0.109960	 0.637746	 -0.140926	 0.315920	 0.030014	 -0.049570	 0.947015	 1
1463623586.174	 4	 0.345007	 0.043145	 0.068817	 0.110000	 0.641380	 -0.140466	 0.317630	 0.029954	 -0.049211	 0.946463	 1
1463623586.185	 4	 0.265995	 0.052792	 0.047214	 0.110383	 0.644293	 -0.140217	 0.319010	 0.030053	 -0.048924	 0.946010	 1
1463623586.195	 4	 0.165682	 0.059436	 0.041761	 0.112891	 0.650295	 -0.141232	 0.321917	 0.030823	 -0.048777	 0.945008	 1
1463623586.205	 4	 0.052831	 0.100325	 0.061242	 0.113425	 0.651162	 -0.140653	 0.322330	 0.031132	 -0.048384	 0.944877	 1
1463623586.215	 4	 -0.047132	 0.142379	 0.099805	 0.114053	 0.651037	 -0.139518	 0.322268	 0.031616	 -0.047752	 0.944915	 1
1463623586.225	 4	 -0.128010	 0.152519	 0.145365	 0.114474	 0.650099	 -0.137681	 0.321806	 0.032151	 -0.046852	 0.945099	 1
1463623586.234	 4	 -0.165348	 0.116813	 0.192250	 0.116261	 0.650546	 -0.136423	 0.322038	 0.033179	 -0.045953	 0.945029	 1
1463623586.245	 4	 -0.148320	 0.068173	 0.238543	 0.115219	 0.649261	 -0.133366	 0.321358	 0.033231	 -0.044724	 0.945317	 1
1463623586.255	 4	 -0.088703	 0.003411	 0.278986	 0.113309	 0.648523	 -0.129866	 0.320910	 0.032920	 -0.043404	 0.945542	 1
1463623586.265	 4	 -0.028839	 -0.010287	 0.320968	 0.110814	 0.648461	 -0.125933	 0.320763	 0.032373	 -0.041947	 0.945676	 1
1463623586.275	 4	 -0.012457	 0.046246	 0.349059	 0.110280	 0.650229	 -0.122701	 0.321534	 0.032573	 -0.040441	 0.945473	 1
1463623586.285	 4	 -0.039814	 0.120848	 0.358518	 0.108582	 0.650312	 -0.118198	 0.321466	 0.032490	 -0.038583	 0.945577	 1
1463623586.294	 4	 -0.092855	 0.189067	 0.357483	 0.107531	 0.649906	 -0.113630	 0.321180	 0.032742	 -0.036606	 0.945744	 1
1463623586.305	 4	 -0.153405	 0.268838	 0.333174	 0.107344	 0.648905	 -0.109184	 0.320631	 0.033402	 -0.034567	 0.945984	 1
1463623586.315	 4	 -0.202695	 0.250681	 0.303596	 0.105757	 0.646232	 -0.104017	 0.319256	 0.033567	 -0.032466	 0.946517	 1
1463623586.325	 4	 -0.226659	 0.174999	 0.271128	 0.105429	 0.644312	 -0.100235	 0.318280	 0.034077	 -0.030792	 0.946884	 1
1463623586.335	 4	 -0.198090	 0.150217	 0.238676	 0.104927	 0.642511	 -0.096903	 0.317364	 0.034426	 -0.029353	 0.947224	 1
1463623586.345	 4	 -0.153270	 0.179610	 0.203389	 0.104952	 0.641088	 -0.094049	 0.316641	 0.034934	 -0.028043	 0.947487	 1
1463623586.355	 4	 -0.108458	 0.204758	 0.170195	 0.103559	 0.637913	 -0.090508	 0.315058	 0.034929	 -0.026687	 0.948054	 1
1463623586.364	 4	 -0.064643	 0.242702	 0.140325	 0.104735	 0.637324	 -0.088576	 0.314761	 0.035808	 -0.025604	 0.948150	 1
1463623586.374	 4	 -0.050702	 0.270200	 0.124473	 0.106433	 0.636942	 -0.086942	 0.314572	 0.036881	 -0.024575	 0.948199	 1
1463623586.385	 4	 -0.065817	 0.230912	 0.127437	 0.107887	 0.636467	 -0.085291	 0.314333	 0.037844	 -0.023578	 0.948265	 1
1463623586.395	 4	 -0.110934	 0.181987	 0.110322	 0.107079	 0.633171	 -0.082649	 0.312713	 0.037968	 -0.022557	 0.948820	 1
