% Gyrometer data recorded with 'snsrlog'
% 
% 
% Label description:
% 	 0: Default Label
% 	 1: still_drop
% 	 2: walk_drop
% 	 3: other
% 	 4: dtw_same
% 	 5: dtw_diff
% 	 6: delete
% 	 7: steal
% 
% Column description:
% 	 1: Seconds.milliseconds since 1970
% 	 2: Number of skipped measurements
% 	 3: Gyro X
% 	 4: Gyro Y
% 	 5: Gyro Z
% 	 6: Roll of the device
% 	 7: Pitch of the device
% 	 8: Yaw of the device
% 	 9: Quaternion X
% 	 10: Quaternion Y
% 	 11: Quaternion Z
% 	 12: Quaternion W
% 	 13: Label used for the current sample
% 
% 
1463623541.370	 0	 -1.208192	 0.157489	 1.014582	 0.114473	 0.680225	 -0.002839	 0.333123	 0.053456	 0.017747	 0.941199	 1
1463623541.380	 0	 -1.168974	 0.383262	 1.216704	 0.107440	 0.669761	 0.013722	 0.327827	 0.052962	 0.024117	 0.942944	 1
1463623541.390	 0	 -1.069420	 0.556294	 1.357063	 0.101323	 0.660229	 0.031941	 0.322929	 0.053069	 0.031501	 0.944409	 1
1463623541.400	 0	 -0.922159	 0.742322	 1.402273	 0.096810	 0.652050	 0.050697	 0.318640	 0.053931	 0.039475	 0.945517	 1
1463623541.420	 1	 -0.544217	 1.172631	 1.199426	 0.096562	 0.640734	 0.084808	 0.312323	 0.059100	 0.055372	 0.946517	 1
1463623541.430	 1	 -0.344606	 1.361949	 0.986297	 0.101682	 0.637846	 0.098231	 0.310392	 0.063572	 0.062475	 0.946421	 1
1463623541.440	 1	 -0.168593	 1.546897	 0.747755	 0.110615	 0.636602	 0.108481	 0.309169	 0.069366	 0.068686	 0.945984	 1
1463623541.450	 1	 -0.040891	 1.631287	 0.556657	 0.122316	 0.636606	 0.115989	 0.308480	 0.076058	 0.074043	 0.945290	 1
1463623541.460	 1	 0.018695	 1.694064	 0.437357	 0.135684	 0.637275	 0.121692	 0.308059	 0.083264	 0.078812	 0.944434	 1
1463623541.480	 2	 -0.133308	 2.033040	 0.186052	 0.168810	 0.637214	 0.129263	 0.306306	 0.100054	 0.087470	 0.942611	 1
1463623541.490	 2	 -0.296654	 2.237965	 -0.074928	 0.190385	 0.634691	 0.129793	 0.304123	 0.110257	 0.090931	 0.941851	 1
1463623541.510	 3	 -0.495996	 2.319603	 -0.923977	 0.243835	 0.623447	 0.118235	 0.297052	 0.133539	 0.093053	 0.940887	 1
1463623541.520	 3	 -0.509621	 2.322544	 -1.403424	 0.274825	 0.615253	 0.104591	 0.292709	 0.146050	 0.090769	 0.940613	 1
1463623541.540	 4	 -0.652612	 2.796620	 -2.234391	 0.350445	 0.592232	 0.063836	 0.281872	 0.175825	 0.080900	 0.939728	 1
1463623541.550	 4	 -0.850556	 2.851093	 -2.429327	 0.391709	 0.576151	 0.040558	 0.274835	 0.192198	 0.074348	 0.939147	 1
1463623541.560	 4	 -1.142559	 3.198380	 -2.471512	 0.434234	 0.556505	 0.018869	 0.266261	 0.209651	 0.068025	 0.938362	 1
1463623541.580	 5	 -1.507413	 3.375591	 -2.382491	 0.518575	 0.509375	 -0.016013	 0.245500	 0.246164	 0.057105	 0.935880	 1
1463623541.600	 6	 -1.343530	 3.492205	 -2.368978	 0.601466	 0.459388	 -0.044348	 0.223803	 0.283548	 0.046806	 0.931301	 1
1463623541.610	 6	 -1.056891	 3.505179	 -2.224277	 0.642059	 0.436965	 -0.057451	 0.214438	 0.302008	 0.041759	 0.927935	 1
1463623541.620	 6	 -0.675955	 3.806282	 -2.056402	 0.684473	 0.417960	 -0.070370	 0.206859	 0.321215	 0.037164	 0.923390	 1
1463623541.630	 6	 -0.296994	 4.413314	 -1.943214	 0.732337	 0.402231	 -0.083941	 0.201075	 0.342689	 0.033073	 0.917082	 1
1463623541.640	 6	 -0.042459	 5.163851	 -1.891552	 0.787534	 0.388452	 -0.098137	 0.196487	 0.367261	 0.029519	 0.908648	 1
1463623541.650	 6	 0.098068	 5.786570	 -1.911494	 0.849449	 0.375025	 -0.112699	 0.192384	 0.394638	 0.026278	 0.898086	 1
1463623541.660	 6	 0.079199	 5.886365	 -1.944505	 0.913307	 0.360705	 -0.126670	 0.188129	 0.422735	 0.023051	 0.886211	 1
1463623541.670	 6	 0.008143	 6.048717	 -2.025505	 0.977601	 0.344610	 -0.139317	 0.183208	 0.450956	 0.019772	 0.873317	 1
1463623541.680	 6	 0.192735	 6.199974	 -2.213279	 1.043635	 0.327025	 -0.152613	 0.178202	 0.479619	 0.015700	 0.859048	 1
1463623541.690	 6	 0.511168	 6.288547	 -2.483800	 1.111351	 0.307771	 -0.168585	 0.173643	 0.508469	 0.009890	 0.843332	 1
1463623541.700	 6	 0.934086	 6.360820	 -2.759645	 1.180357	 0.286632	 -0.188019	 0.169846	 0.537233	 0.001940	 0.826154	 1
1463623541.710	 6	 1.392920	 6.576615	 -3.030204	 1.251817	 0.263276	 -0.211162	 0.166987	 0.566321	 -0.008201	 0.807049	 1
1463623541.720	 6	 1.792075	 6.781137	 -3.266244	 1.325574	 0.237150	 -0.237207	 0.164893	 0.595669	 -0.020340	 0.785859	 1
1463623541.730	 6	 2.116709	 6.955621	 -3.420916	 1.400805	 0.208216	 -0.264800	 0.163385	 0.624936	 -0.033996	 0.762630	 1
1463623541.740	 6	 2.423040	 7.085579	 -3.563055	 1.476801	 0.176362	 -0.293211	 0.162376	 0.653784	 -0.048971	 0.737429	 1
1463623541.750	 6	 2.716780	 7.080108	 -3.758566	 1.552321	 0.140843	 -0.322030	 0.161595	 0.681719	 -0.065467	 0.710535	 1
1463623541.760	 6	 2.976831	 6.754292	 -3.995133	 1.624379	 0.100977	 -0.350650	 0.160623	 0.707702	 -0.083771	 0.682891	 1
1463623541.770	 6	 3.181899	 6.072429	 -4.217481	 1.689186	 0.056791	 -0.378352	 0.159065	 0.730520	 -0.103972	 0.655918	 1
1463623541.780	 6	 3.316620	 5.144352	 -4.393549	 1.743943	 0.008940	 -0.404518	 0.156611	 0.749407	 -0.125878	 0.630886	 1
1463623541.790	 6	 3.348457	 4.089243	 -4.528339	 1.787118	 -0.041665	 -0.428628	 0.152950	 0.764089	 -0.149106	 0.608721	 1
1463623541.800	 6	 3.196965	 3.053006	 -4.628318	 1.818787	 -0.093937	 -0.449633	 0.147612	 0.774853	 -0.172895	 0.589848	 1
1463623541.820	 7	 2.687988	 1.221160	 -4.583381	 1.851787	 -0.198613	 -0.481106	 0.131572	 0.786522	 -0.219455	 0.562060	 1
1463623541.830	 7	 2.449296	 0.494359	 -4.435662	 1.855801	 -0.248572	 -0.492967	 0.121705	 0.788320	 -0.241370	 0.552703	 1
1463623541.840	 7	 2.220318	 -0.003617	 -4.263517	 1.854153	 -0.296292	 -0.503080	 0.111103	 0.788261	 -0.262094	 0.545535	 1
1463623541.850	 7	 2.058691	 -0.281357	 -4.054739	 1.849022	 -0.341578	 -0.512270	 0.100293	 0.786977	 -0.281607	 0.539728	 1
1463623541.860	 7	 1.984454	 -0.378363	 -3.821594	 1.842094	 -0.384344	 -0.521556	 0.089876	 0.784944	 -0.300046	 0.534562	 1
1463623541.880	 8	 2.085759	 -0.447682	 -3.219899	 1.824027	 -0.461784	 -0.544784	 0.072168	 0.779062	 -0.334607	 0.525255	 1
1463623541.890	 8	 2.160894	 -0.440960	 -2.849606	 1.812472	 -0.495559	 -0.560097	 0.065578	 0.775222	 -0.350793	 0.521224	 1
1463623541.900	 8	 2.161644	 -0.362796	 -2.484394	 1.800198	 -0.525655	 -0.577351	 0.060559	 0.771155	 -0.365975	 0.517411	 1
1463623541.910	 8	 2.089602	 -0.318567	 -2.134851	 1.787560	 -0.551975	 -0.595616	 0.056857	 0.767028	 -0.379913	 0.513907	 1
1463623541.920	 8	 1.955084	 -0.353242	 -1.837721	 1.774379	 -0.574784	 -0.613936	 0.054006	 0.762843	 -0.392508	 0.510971	 1
1463623541.930	 8	 1.769828	 -0.438385	 -1.626945	 1.760592	 -0.594767	 -0.631415	 0.051451	 0.758606	 -0.403810	 0.508731	 1
1463623541.940	 8	 1.535116	 -0.566229	 -1.457700	 1.746332	 -0.612400	 -0.647165	 0.048749	 0.754369	 -0.413784	 0.507281	 1
1463623541.950	 8	 1.248988	 -0.730123	 -1.293672	 1.731745	 -0.627768	 -0.660457	 0.045653	 0.750177	 -0.422307	 0.506761	 1
1463623541.960	 8	 0.942477	 -0.912077	 -1.134964	 1.716999	 -0.640928	 -0.670716	 0.041996	 0.746071	 -0.429281	 0.507280	 1
1463623541.970	 8	 0.679722	 -1.089939	 -0.980862	 1.702059	 -0.652055	 -0.678153	 0.037827	 0.742015	 -0.434840	 0.508820	 1
1463623541.980	 8	 0.451271	 -1.258129	 -0.799258	 1.686783	 -0.661112	 -0.683243	 0.033332	 0.737944	 -0.439115	 0.511376	 1
1463623541.990	 8	 0.148288	 -1.442666	 -0.555343	 1.671667	 -0.667497	 -0.685150	 0.028546	 0.733981	 -0.441722	 0.515110	 1
1463623542.000	 8	 -0.046800	 -1.609389	 -0.304742	 1.656263	 -0.671146	 -0.684685	 0.023728	 0.729973	 -0.442867	 0.520043	 1
1463623542.010	 8	 -0.186243	 -1.724194	 -0.051139	 1.640588	 -0.672174	 -0.682610	 0.019150	 0.725890	 -0.442790	 0.525980	 1
1463623542.020	 8	 -0.300880	 -1.784952	 0.177367	 1.624949	 -0.670773	 -0.679200	 0.014941	 0.721787	 -0.441619	 0.532703	 1
1463623542.030	 8	 -0.369511	 -1.732800	 0.301012	 1.610068	 -0.667760	 -0.674831	 0.011135	 0.717837	 -0.439687	 0.539686	 1
1463623542.040	 8	 -0.358241	 -1.554592	 0.239692	 1.596942	 -0.665151	 -0.670243	 0.007524	 0.714303	 -0.437765	 0.545964	 1
1463623542.050	 8	 -0.230121	 -1.397911	 0.337019	 1.584581	 -0.662069	 -0.666919	 0.004720	 0.710925	 -0.436023	 0.551768	 1
1463623542.060	 8	 -0.001845	 -1.148130	 0.552640	 1.572934	 -0.657108	 -0.666133	 0.003655	 0.707696	 -0.434440	 0.557149	 1
1463623542.070	 8	 0.309807	 -0.837184	 0.729736	 1.562012	 -0.650181	 -0.668968	 0.004739	 0.704614	 -0.433326	 0.561894	 1
1463623542.080	 8	 0.667084	 -0.501543	 0.810747	 1.551918	 -0.642147	 -0.676066	 0.007903	 0.701697	 -0.433134	 0.565644	 1
1463623542.090	 8	 0.962983	 -0.246859	 0.849974	 1.542385	 -0.633528	 -0.686944	 0.012721	 0.698850	 -0.433895	 0.568491	 1
1463623542.100	 8	 1.115258	 -0.121538	 0.886050	 1.533251	 -0.624394	 -0.700062	 0.018580	 0.696008	 -0.435208	 0.570808	 1
1463623542.110	 8	 0.944554	 -0.122013	 0.898189	 1.525115	 -0.614984	 -0.712064	 0.024354	 0.693367	 -0.436175	 0.573063	 1
1463623542.120	 8	 0.411589	 -0.148684	 0.818386	 1.520085	 -0.606317	 -0.718318	 0.028541	 0.691634	 -0.435696	 0.575323	 1
1463623542.130	 8	 0.009328	 -0.086235	 0.760656	 1.518642	 -0.598558	 -0.718924	 0.031230	 0.691007	 -0.433797	 0.577368	 1
1463623542.140	 8	 -0.066652	 0.086371	 0.771449	 1.519724	 -0.590979	 -0.717661	 0.033756	 0.691133	 -0.431362	 0.578898	 1
1463623542.150	 8	 0.068169	 0.311062	 0.862956	 1.522392	 -0.582602	 -0.717442	 0.037267	 0.691671	 -0.428971	 0.579815	 1
1463623542.160	 8	 0.280246	 0.459481	 0.881674	 1.525478	 -0.573634	 -0.719700	 0.041930	 0.692255	 -0.427112	 0.580173	 1
1463623542.170	 8	 0.439839	 0.666758	 0.782032	 1.529084	 -0.565357	 -0.724082	 0.047184	 0.692941	 -0.426029	 0.579745	 1
1463623542.180	 8	 0.506002	 0.971140	 0.688370	 1.535130	 -0.558070	 -0.729586	 0.052987	 0.694311	 -0.425462	 0.578019	 1
1463623542.190	 8	 0.638263	 1.234080	 0.626785	 1.543279	 -0.551461	 -0.736376	 0.059438	 0.696239	 -0.425358	 0.575142	 1
1463623542.200	 8	 0.801177	 1.447891	 0.549555	 1.552601	 -0.545620	 -0.745124	 0.066546	 0.698424	 -0.425945	 0.571268	 1
1463623542.210	 8	 0.997677	 1.698370	 0.555504	 1.563303	 -0.540001	 -0.756037	 0.074632	 0.700868	 -0.427098	 0.566393	 1
1463623542.220	 8	 1.214525	 1.926776	 0.605832	 1.575130	 -0.534065	 -0.769577	 0.084003	 0.703426	 -0.428775	 0.560613	 1
1463623542.230	 8	 1.317866	 1.941803	 0.812896	 1.587072	 -0.526789	 -0.784651	 0.094421	 0.705775	 -0.430390	 0.554734	 1
1463623542.240	 8	 1.555736	 1.618234	 1.170173	 1.595389	 -0.516173	 -0.802131	 0.106075	 0.706712	 -0.431793	 0.550328	 1
1463623542.250	 8	 1.521258	 1.542870	 1.177232	 1.602012	 -0.504623	 -0.820293	 0.117918	 0.706934	 -0.433123	 0.546575	 1
1463623542.260	 8	 1.211555	 1.434927	 0.980693	 1.609466	 -0.494711	 -0.835534	 0.128332	 0.707491	 -0.433995	 0.542804	 1
1463623542.270	 8	 0.761901	 1.150135	 0.687807	 1.616947	 -0.487439	 -0.845797	 0.136076	 0.708423	 -0.434202	 0.539526	 1
1463623542.280	 8	 0.500651	 0.796425	 0.354273	 1.622799	 -0.483336	 -0.852223	 0.141023	 0.709313	 -0.434352	 0.536960	 1
1463623542.290	 8	 0.448205	 0.585741	 0.027711	 1.626619	 -0.482482	 -0.857401	 0.143981	 0.709917	 -0.435222	 0.534667	 1
1463623542.300	 8	 0.399011	 0.667065	 -0.364370	 1.630792	 -0.485348	 -0.861928	 0.145527	 0.710872	 -0.436949	 0.531562	 1
1463623542.310	 8	 0.258310	 1.120154	 -0.861969	 1.639156	 -0.492756	 -0.864851	 0.145893	 0.713306	 -0.439236	 0.526290	 1
1463623542.320	 8	 0.045868	 1.792182	 -1.411259	 1.655605	 -0.505587	 -0.864854	 0.145194	 0.718313	 -0.441730	 0.517513	 1
1463623542.330	 8	 -0.145244	 1.684139	 -1.573662	 1.674666	 -0.521114	 -0.862028	 0.143197	 0.724193	 -0.444121	 0.507736	 1
1463623542.340	 8	 -0.263428	 1.111675	 -1.361610	 1.689546	 -0.534983	 -0.857428	 0.140218	 0.728902	 -0.445941	 0.500178	 1
1463623542.350	 8	 -0.279558	 0.703583	 -1.175562	 1.699956	 -0.546726	 -0.852437	 0.136823	 0.732320	 -0.447407	 0.494787	 1
1463623542.360	 8	 -0.283709	 0.695372	 -1.136169	 1.709343	 -0.557577	 -0.847371	 0.133478	 0.735375	 -0.448704	 0.489971	 1
1463623542.370	 8	 -0.256408	 0.933682	 -1.263146	 1.720818	 -0.569326	 -0.842153	 0.130259	 0.738901	 -0.450131	 0.484189	 1
1463623542.380	 8	 -0.155891	 1.088768	 -1.396864	 1.734047	 -0.582532	 -0.837425	 0.127155	 0.742760	 -0.452042	 0.477281	 1
1463623542.390	 8	 -0.033544	 1.102488	 -1.508641	 1.747097	 -0.596986	 -0.833670	 0.123989	 0.746427	 -0.454616	 0.469892	 1
1463623542.400	 8	 0.080627	 1.243427	 -1.680977	 1.760761	 -0.613151	 -0.830697	 0.120733	 0.750092	 -0.457891	 0.461652	 1
1463623542.410	 8	 0.146320	 1.538519	 -1.882364	 1.776995	 -0.631338	 -0.827873	 0.117514	 0.754207	 -0.461698	 0.451883	 1
1463623542.420	 8	 0.206428	 1.871140	 -2.190995	 1.796920	 -0.652312	 -0.824536	 0.114127	 0.758986	 -0.466070	 0.440107	 1
1463623542.430	 8	 0.353137	 2.053174	 -2.549740	 1.819223	 -0.676883	 -0.821016	 0.110171	 0.764001	 -0.471430	 0.426519	 1
1463623542.440	 8	 0.581755	 2.253475	 -2.996421	 1.843181	 -0.706097	 -0.817957	 0.105443	 0.768917	 -0.478292	 0.410956	 1
1463623542.450	 8	 0.707800	 2.377923	 -3.384298	 1.869136	 -0.739641	 -0.814386	 0.099810	 0.773695	 -0.486358	 0.393561	 1
1463623542.460	 8	 0.631764	 2.035294	 -3.581859	 1.895132	 -0.775447	 -0.808082	 0.092628	 0.777950	 -0.494708	 0.376136	 1
1463623542.470	 8	 0.471145	 1.110499	 -3.424939	 1.915502	 -0.810049	 -0.798624	 0.083379	 0.780730	 -0.502525	 0.361908	 1
1463623542.480	 8	 0.306170	 0.058851	 -2.869503	 1.926582	 -0.839981	 -0.787988	 0.072880	 0.781625	 -0.509227	 0.352758	 1
1463623542.490	 8	 0.085762	 -0.543828	 -2.025911	 1.929578	 -0.861393	 -0.778100	 0.063259	 0.781255	 -0.513834	 0.348731	 1
1463623542.500	 8	 -0.011111	 -0.611997	 -1.345745	 1.929624	 -0.875423	 -0.769997	 0.055834	 0.780626	 -0.516632	 0.347270	 1
1463623542.510	 8	 0.054249	 -0.415918	 -0.974670	 1.928955	 -0.885342	 -0.764650	 0.050554	 0.779998	 -0.518692	 0.346418	 1
1463623542.520	 8	 0.204397	 -0.134682	 -0.852929	 1.928814	 -0.894082	 -0.762220	 0.046909	 0.779437	 -0.520884	 0.344902	 1
1463623542.530	 8	 0.425719	 0.135210	 -0.800122	 1.928754	 -0.902988	 -0.763148	 0.044541	 0.778781	 -0.523694	 0.342434	 1
1463623542.540	 8	 0.667091	 0.532052	 -0.686626	 1.928852	 -0.911875	 -0.768306	 0.043866	 0.778050	 -0.527200	 0.338785	 1
1463623542.550	 8	 0.860125	 1.049561	 -0.526824	 1.930742	 -0.920027	 -0.777561	 0.045478	 0.777573	 -0.531110	 0.333518	 1
1463623542.560	 8	 1.055207	 1.380431	 -0.435920	 1.933564	 -0.927788	 -0.790494	 0.048889	 0.777174	 -0.535444	 0.326972	 1
1463623542.570	 8	 1.278300	 1.429439	 -0.481103	 1.934751	 -0.936448	 -0.806893	 0.052931	 0.776326	 -0.540570	 0.319844	 1
1463623542.580	 8	 1.477595	 1.262989	 -0.619739	 1.932297	 -0.946954	 -0.826149	 0.056511	 0.774667	 -0.546682	 0.312789	 1
1463623542.590	 8	 1.570702	 1.061075	 -0.851567	 1.926815	 -0.959783	 -0.846519	 0.058932	 0.772338	 -0.553591	 0.305872	 1
1463623542.600	 8	 1.554186	 0.829609	 -1.242580	 1.920056	 -0.975834	 -0.865526	 0.059407	 0.769655	 -0.561078	 0.298819	 1
1463623542.620	 9	 1.335364	 0.343125	 -2.560353	 1.909638	 -1.023487	 -0.890113	 0.051005	 0.764125	 -0.577625	 0.282597	 1
1463623542.630	 9	 1.154208	 0.297194	 -3.246619	 1.910801	 -1.056603	 -0.892196	 0.041754	 0.761753	 -0.586425	 0.272204	 1
1463623542.640	 9	 0.970730	 0.440397	 -3.666797	 1.919451	 -1.093714	 -0.886867	 0.030659	 0.759932	 -0.594972	 0.259943	 1
1463623542.650	 9	 0.805581	 0.660690	 -3.862607	 1.936531	 -1.132479	 -0.874585	 0.019037	 0.758637	 -0.602947	 0.246093	 1
1463623542.660	 9	 0.646129	 0.858425	 -3.940376	 1.962965	 -1.171507	 -0.854537	 0.007426	 0.757784	 -0.610180	 0.231060	 1
1463623542.670	 9	 0.543008	 1.126058	 -3.890095	 1.999687	 -1.209601	 -0.826301	 -0.003543	 0.757277	 -0.616651	 0.215083	 1
1463623542.680	 9	 0.598679	 1.525531	 -3.782421	 2.045913	 -1.246547	 -0.792344	 -0.012991	 0.756770	 -0.622877	 0.197876	 1
1463623542.690	 9	 0.683571	 1.741463	 -3.891990	 2.103168	 -1.283465	 -0.750229	 -0.021550	 0.755948	 -0.629190	 0.179438	 1
1463623542.700	 9	 0.660590	 1.589874	 -4.124471	 2.179135	 -1.321311	 -0.688582	 -0.031122	 0.754709	 -0.635380	 0.160432	 1
1463623542.710	 9	 0.579308	 1.179935	 -4.219233	 2.281358	 -1.358294	 -0.596876	 -0.042391	 0.752985	 -0.641080	 0.142246	 1
1463623542.720	 9	 0.394445	 0.499175	 -4.007608	 2.417099	 -1.390625	 -0.465571	 -0.055260	 0.751027	 -0.645665	 0.126575	 1
1463623542.730	 9	 0.187334	 -0.292292	 -3.084891	 2.564568	 -1.412915	 -0.314864	 -0.068084	 0.749166	 -0.648549	 0.116185	 1
1463623542.740	 9	 0.041267	 -0.620254	 -1.582880	 2.667755	 -1.423492	 -0.204649	 -0.077313	 0.747879	 -0.649745	 0.111943	 1
1463623542.750	 9	 -0.051169	 -0.407264	 -0.117868	 2.692059	 -1.425264	 -0.175167	 -0.080646	 0.747530	 -0.649689	 0.112241	 1
1463623542.760	 9	 -0.092113	 0.010805	 0.900985	 2.652797	 -1.421438	 -0.213878	 -0.078466	 0.748019	 -0.648950	 0.114779	 1
1463623542.770	 9	 -0.096911	 0.390898	 1.391617	 2.585970	 -1.414104	 -0.284575	 -0.072672	 0.749004	 -0.647943	 0.117815	 1
1463623542.780	 9	 -0.096820	 0.589137	 1.447814	 2.520246	 -1.405223	 -0.356756	 -0.065485	 0.750145	 -0.646909	 0.120424	 1
1463623542.790	 9	 -0.126517	 0.606600	 1.204176	 2.470858	 -1.396574	 -0.413067	 -0.058774	 0.751293	 -0.645882	 0.122233	 1
1463623542.800	 9	 -0.184228	 0.501511	 0.769935	 2.443913	 -1.389668	 -0.445863	 -0.053827	 0.752414	 -0.644855	 0.123037	 1
1463623542.810	 9	 -0.255264	 0.328030	 0.286149	 2.439140	 -1.385242	 -0.454508	 -0.051244	 0.753513	 -0.643812	 0.122879	 1
1463623542.820	 9	 -0.329077	 0.164819	 -0.102665	 2.452347	 -1.382940	 -0.443135	 -0.050836	 0.754637	 -0.642696	 0.121987	 1
1463623542.840	 10	 -0.297586	 -0.023582	 -0.549115	 2.508787	 -1.382670	 -0.386069	 -0.054239	 0.756612	 -0.640649	 0.119018	 1
1463623542.850	 10	 -0.177138	 0.025370	 -0.643495	 2.542055	 -1.384570	 -0.352308	 -0.056687	 0.757111	 -0.640232	 0.116931	 1
1463623542.870	 11	 0.060703	 0.241478	 -0.667002	 2.608491	 -1.391493	 -0.287926	 -0.060853	 0.757030	 -0.640933	 0.111384	 1
1463623542.880	 11	 0.097624	 0.308960	 -0.586763	 2.638473	 -1.395311	 -0.260457	 -0.062168	 0.756711	 -0.641706	 0.108341	 1
1463623542.890	 11	 0.097324	 0.328336	 -0.414023	 2.684310	 -1.402438	 -0.217905	 -0.064440	 0.755660	 -0.643464	 0.103824	 1
1463623542.900	 11	 0.104552	 0.350903	 -0.232696	 2.699891	 -1.404545	 -0.205582	 -0.064328	 0.755423	 -0.644097	 0.101671	 1
1463623542.910	 11	 0.120159	 0.388975	 -0.109915	 2.708046	 -1.406175	 -0.201164	 -0.063555	 0.755195	 -0.644728	 0.099839	 1
1463623542.920	 11	 0.126760	 0.409351	 -0.084205	 2.713633	 -1.407668	 -0.199617	 -0.062506	 0.754965	 -0.645370	 0.098070	 1
1463623542.930	 11	 0.134180	 0.428220	 -0.119264	 2.720604	 -1.409297	 -0.196833	 -0.061487	 0.754718	 -0.646044	 0.096168	 1
1463623542.940	 11	 0.164117	 0.479875	 -0.168134	 2.729484	 -1.416565	 -0.192530	 -0.061028	 0.752765	 -0.648756	 0.093466	 1
1463623542.950	 11	 0.235001	 0.595426	 -0.192188	 2.740858	 -1.419277	 -0.186712	 -0.059813	 0.752272	 -0.649818	 0.090802	 1
1463623542.960	 11	 0.319979	 0.728209	 -0.181035	 2.751413	 -1.422782	 -0.183094	 -0.058103	 0.751544	 -0.651245	 0.087667	 1
1463623542.970	 11	 0.325755	 0.792260	 -0.146385	 2.760686	 -1.426413	 -0.181608	 -0.056006	 0.750765	 -0.652767	 0.084319	 1
1463623542.980	 11	 0.280120	 0.809705	 -0.104285	 2.766382	 -1.431805	 -0.183970	 -0.053797	 0.749372	 -0.654983	 0.080898	 1
1463623542.990	 11	 0.212944	 0.807895	 -0.087731	 2.774491	 -1.434279	 -0.183954	 -0.051391	 0.748914	 -0.656095	 0.077632	 1
1463623543.000	 11	 0.146828	 0.807122	 -0.074373	 2.783585	 -1.436068	 -0.182914	 -0.048969	 0.748669	 -0.656934	 0.074403	 1
1463623543.010	 11	 0.108452	 0.832618	 -0.094051	 2.794881	 -1.437459	 -0.179831	 -0.046543	 0.748565	 -0.657598	 0.071061	 1
1463623543.020	 11	 0.100001	 0.889741	 -0.140341	 2.810050	 -1.438950	 -0.173335	 -0.044121	 0.748469	 -0.658260	 0.067390	 1
1463623543.030	 11	 0.094787	 0.955357	 -0.187644	 2.829842	 -1.440422	 -0.162851	 -0.041656	 0.748421	 -0.658880	 0.063312	 1
1463623543.040	 11	 0.072411	 0.999774	 -0.231798	 2.854123	 -1.441848	 -0.148349	 -0.039196	 0.748412	 -0.659450	 0.058894	 1
1463623543.050	 11	 0.009289	 1.010257	 -0.274832	 2.883537	 -1.442859	 -0.128873	 -0.036857	 0.748548	 -0.659831	 0.054238	 1
1463623543.060	 11	 -0.086034	 0.983548	 -0.329671	 2.918499	 -1.443089	 -0.103627	 -0.034788	 0.748927	 -0.659887	 0.049465	 1
1463623543.070	 11	 -0.201812	 0.942864	 -0.413237	 2.960651	 -1.442260	 -0.070744	 -0.033161	 0.749630	 -0.659522	 0.044561	 1
1463623543.080	 11	 -0.320881	 0.897811	 -0.513867	 3.010204	 -1.440123	 -0.029938	 -0.032056	 0.750707	 -0.658674	 0.039496	 1
1463623543.090	 11	 -0.416377	 0.849697	 -0.587021	 3.064602	 -1.436800	 0.016246	 -0.031440	 0.752071	 -0.657436	 0.034316	 1
1463623543.100	 11	 -0.471129	 0.787050	 -0.594588	 3.117905	 -1.432502	 0.061927	 -0.031122	 0.753617	 -0.655924	 0.029254	 1
1463623543.110	 11	 -0.479908	 0.681188	 -0.529420	 -3.118761	 -1.427735	 0.101704	 -0.030952	 0.755189	 -0.654311	 0.024662	 1
1463623543.120	 11	 -0.448263	 0.503269	 -0.410920	 -3.084260	 -1.422978	 0.131001	 -0.030878	 0.756681	 -0.652715	 0.021059	 1
1463623543.130	 11	 -0.371875	 0.280788	 -0.259120	 -3.062972	 -1.418855	 0.149107	 -0.030941	 0.757950	 -0.651309	 0.018746	 1
1463623543.140	 11	 -0.250701	 0.041240	 -0.096145	 -3.054650	 -1.415915	 0.156493	 -0.031153	 0.758861	 -0.650262	 0.017869	 1
1463623543.150	 11	 -0.108311	 -0.201764	 0.038903	 -3.057354	 -1.414488	 0.155196	 -0.031599	 0.759317	 -0.649693	 0.018412	 1
1463623543.160	 11	 0.005240	 -0.384624	 0.095896	 -3.066500	 -1.414363	 0.149431	 -0.032386	 0.759361	 -0.649554	 0.020007	 1
1463623543.170	 11	 0.060347	 -0.442429	 0.067168	 -3.075602	 -1.414920	 0.144624	 -0.033497	 0.759165	 -0.649665	 0.021923	 1
1463623543.180	 11	 0.051663	 -0.431131	 0.010791	 -3.059653	 -1.425068	 0.164665	 -0.035493	 0.755714	 -0.653541	 0.022831	 1
1463623543.190	 11	 -0.008219	 -0.418521	 -0.034398	 -3.062157	 -1.425148	 0.166401	 -0.036964	 0.755627	 -0.653505	 0.024348	 1
1463623543.200	 11	 -0.099963	 -0.390776	 -0.058919	 -3.062869	 -1.424348	 0.169717	 -0.038483	 0.755815	 -0.653150	 0.025664	 1
1463623543.210	 11	 -0.190530	 -0.354413	 -0.068502	 -3.038726	 -1.426781	 0.197276	 -0.040886	 0.754790	 -0.654188	 0.025674	 1
1463623543.220	 11	 -0.252197	 -0.313747	 -0.059061	 -3.039320	 -1.424335	 0.199949	 -0.042216	 0.755517	 -0.653225	 0.026639	 1
1463623543.230	 11	 -0.261427	 -0.268750	 -0.018063	 -3.041904	 -1.421687	 0.200167	 -0.043278	 0.756331	 -0.652174	 0.027544	 1
1463623543.240	 11	 -0.209785	 -0.231235	 0.042585	 -3.047497	 -1.419460	 0.196930	 -0.043988	 0.757041	 -0.651262	 0.028486	 1
1463623543.250	 11	 -0.110221	 -0.228914	 0.114212	 -3.069114	 -1.423387	 0.177624	 -0.043551	 0.755876	 -0.652550	 0.030562	 1
1463623543.260	 11	 0.021057	 -0.273556	 0.171271	 -3.082379	 -1.423371	 0.166849	 -0.043807	 0.755909	 -0.652422	 0.032059	 1
1463623543.270	 11	 0.146838	 -0.336404	 0.209024	 -3.098781	 -1.424637	 0.153501	 -0.044070	 0.755520	 -0.652759	 0.033951	 1
1463623543.280	 11	 0.236213	 -0.408855	 0.227821	 -3.117469	 -1.426870	 0.138557	 -0.044463	 0.754796	 -0.653449	 0.036201	 1
1463623543.290	 11	 0.284992	 -0.486592	 0.236216	 -3.123262	 -1.436042	 0.137132	 -0.045580	 0.751721	 -0.656795	 0.038186	 1
1463623543.300	 11	 0.290031	 -0.546196	 0.232420	 3.137245	 -1.438969	 0.119632	 -0.046393	 0.750713	 -0.657719	 0.041027	 1
1463623543.310	 11	 0.251425	 -0.571733	 0.215466	 3.114448	 -1.441566	 0.102362	 -0.047377	 0.749778	 -0.658527	 0.043943	 1
1463623543.320	 11	 0.181944	 -0.564358	 0.177773	 3.093567	 -1.443505	 0.087029	 -0.048493	 0.749032	 -0.659101	 0.046739	 1
1463623543.330	 11	 0.098690	 -0.529345	 0.131915	 3.083521	 -1.445735	 0.082225	 -0.049998	 0.748173	 -0.659805	 0.048931	 1
1463623543.340	 11	 0.018753	 -0.467768	 0.084159	 3.070839	 -1.446057	 0.074333	 -0.051230	 0.747949	 -0.659802	 0.051072	 1
1463623543.350	 11	 -0.076379	 -0.450898	 0.025461	 3.063490	 -1.445533	 0.071416	 -0.052562	 0.748007	 -0.659491	 0.052858	 1
1463623543.360	 11	 -0.165239	 -0.488062	 -0.001821	 3.059720	 -1.444111	 0.072390	 -0.054165	 0.748350	 -0.658831	 0.054589	 1
1463623543.370	 11	 -0.309044	 -0.726371	 0.078196	 3.057251	 -1.442582	 0.076574	 -0.056538	 0.748671	 -0.658072	 0.056890	 1
1463623543.380	 11	 -0.181796	 -0.721008	 0.135755	 3.041964	 -1.440210	 0.068550	 -0.058547	 0.749238	 -0.656976	 0.059980	 1
1463623543.390	 11	 0.023527	 -0.648074	 0.155961	 3.023985	 -1.439794	 0.057132	 -0.060170	 0.749161	 -0.656637	 0.062968	 1
1463623543.400	 11	 0.156042	 -0.610163	 0.157291	 3.004625	 -1.440866	 0.043833	 -0.061564	 0.748589	 -0.656879	 0.065838	 1
1463623543.410	 11	 0.214886	 -0.562587	 0.140162	 2.993654	 -1.441686	 0.038475	 -0.063180	 0.748119	 -0.657023	 0.068170	 1
1463623543.420	 11	 0.223821	 -0.441679	 0.096448	 2.977817	 -1.443747	 0.027265	 -0.064243	 0.747248	 -0.657679	 0.070366	 1
1463623543.430	 11	 0.117873	 -0.435584	 0.014297	 2.968711	 -1.445180	 0.022400	 -0.065461	 0.746608	 -0.658094	 0.072133	 1
1463623543.440	 11	 -0.165679	 -0.676372	 -0.157062	 2.971577	 -1.444639	 0.031150	 -0.067769	 0.746600	 -0.657667	 0.073954	 1
1463623543.450	 11	 -0.733235	 -1.071418	 -0.447815	 2.998039	 -1.439158	 0.068553	 -0.072945	 0.748086	 -0.655136	 0.076432	 1
1463623543.460	 11	 -0.512843	 -0.326043	 -0.388445	 3.029253	 -1.433737	 0.105465	 -0.076507	 0.749688	 -0.652848	 0.076839	 1
1463623543.470	 11	 -0.277157	 0.404113	 -0.221706	 3.052733	 -1.430827	 0.126731	 -0.076825	 0.750719	 -0.651844	 0.074953	 1
1463623543.480	 11	 -0.202258	 0.789854	 -0.093009	 3.069563	 -1.428734	 0.136556	 -0.075046	 0.751649	 -0.651333	 0.071808	 1
1463623543.490	 11	 -0.117763	 1.048130	 -0.083881	 3.085501	 -1.427394	 0.142687	 -0.072176	 0.752419	 -0.651200	 0.067790	 1
1463623543.500	 11	 -0.078731	 1.231558	 -0.147526	 3.106709	 -1.426617	 0.152071	 -0.068813	 0.753034	 -0.651348	 0.062848	 1
1463623543.510	 11	 -0.065875	 1.259028	 -0.167632	 3.130999	 -1.425923	 0.163891	 -0.065369	 0.753596	 -0.651545	 0.057531	 1
1463623543.520	 11	 0.060206	 1.233633	 -0.098625	 -3.131622	 -1.426109	 0.172145	 -0.061772	 0.753838	 -0.652042	 0.052477	 1
1463623543.530	 11	 0.282537	 1.235744	 -0.011017	 -3.116849	 -1.428357	 0.174620	 -0.057813	 0.753402	 -0.653267	 0.047798	 1
1463623543.540	 11	 0.460981	 1.251451	 0.027008	 -3.104988	 -1.432586	 0.173983	 -0.053548	 0.752311	 -0.655200	 0.043285	 1
1463623543.550	 11	 0.534132	 1.178654	 -0.008410	 -3.091619	 -1.437813	 0.175313	 -0.049468	 0.750844	 -0.657475	 0.038906	 1
1463623543.560	 11	 0.534218	 1.023971	 -0.071665	 -3.074303	 -1.443119	 0.182059	 -0.046082	 0.749265	 -0.659745	 0.034863	 1
1463623543.570	 11	 0.574068	 0.901312	 -0.102994	 -3.053715	 -1.448622	 0.193457	 -0.043294	 0.747546	 -0.662063	 0.031189	 1
1463623543.580	 11	 0.690244	 0.849037	 -0.077848	 -3.032373	 -1.455080	 0.206306	 -0.040678	 0.745473	 -0.664711	 0.027830	 1
1463623543.590	 11	 0.829065	 0.816103	 -0.016484	 -3.012777	 -1.462932	 0.217724	 -0.037949	 0.742928	 -0.667834	 0.024806	 1
1463623543.600	 11	 0.922902	 0.746099	 0.048125	 -2.996240	 -1.471932	 0.226638	 -0.035157	 0.739997	 -0.671323	 0.022234	 1
1463623543.610	 11	 0.926802	 0.635750	 0.086498	 -2.982802	 -1.481274	 0.233458	 -0.032532	 0.736940	 -0.674872	 0.020201	 1
1463623543.620	 11	 0.817281	 0.493553	 0.087194	 -2.971557	 -1.489815	 0.239402	 -0.030319	 0.734128	 -0.678077	 0.018681	 1
1463623543.630	 11	 0.611322	 0.305580	 0.043542	 -2.960332	 -1.496489	 0.247096	 -0.028839	 0.731901	 -0.680571	 0.017673	 1
1463623543.640	 11	 0.349569	 0.088754	 -0.041458	 -2.945411	 -1.500549	 0.260612	 -0.028384	 0.730490	 -0.682118	 0.017139	 1
1463623543.650	 11	 0.094371	 -0.096181	 -0.126218	 -2.926600	 -1.501849	 0.280023	 -0.028945	 0.729942	 -0.682684	 0.017003	 1
1463623543.660	 11	 -0.084595	 -0.189814	 -0.203332	 -2.903855	 -1.500991	 0.304533	 -0.030205	 0.730055	 -0.682509	 0.016988	 1
1463623543.670	 11	 -0.176681	 -0.214359	 -0.251783	 -2.878528	 -1.498857	 0.332066	 -0.031831	 0.730540	 -0.681917	 0.016919	 1
1463623543.680	 11	 -0.202078	 -0.162224	 -0.259603	 -2.853681	 -1.496238	 0.358756	 -0.033398	 0.731161	 -0.681184	 0.016651	 1
1463623543.690	 11	 -0.180522	 -0.110230	 -0.267833	 -2.829056	 -1.493667	 0.384669	 -0.034790	 0.731744	 -0.680499	 0.016165	 1
1463623543.700	 11	 -0.142150	 -0.096719	 -0.295751	 -2.801629	 -1.491312	 0.413154	 -0.036181	 0.732202	 -0.679949	 0.015519	 1
1463623543.710	 11	 -0.106123	 -0.107835	 -0.347325	 -2.769011	 -1.489077	 0.446927	 -0.037764	 0.732521	 -0.679536	 0.014750	 1
1463623543.720	 11	 -0.079650	 -0.109341	 -0.397660	 -2.730872	 -1.486818	 0.486308	 -0.039566	 0.732725	 -0.679233	 0.013824	 1
1463623543.730	 11	 -0.158373	 0.084140	 -0.296059	 -2.701401	 -1.484286	 0.515723	 -0.040738	 0.733092	 -0.678792	 0.012609	 1
1463623543.740	 11	 -0.237051	 0.257667	 -0.159473	 -2.690808	 -1.481410	 0.524009	 -0.040653	 0.733841	 -0.678014	 0.011061	 1
1463623543.750	 11	 -0.218566	 0.267726	 -0.084937	 -2.688723	 -1.478922	 0.523448	 -0.040151	 0.734600	 -0.677243	 0.009693	 1
1463623543.760	 11	 -0.172420	 0.284932	 -0.040416	 -2.689881	 -1.477030	 0.519456	 -0.039387	 0.735233	 -0.676616	 0.008453	 1
1463623543.770	 11	 -0.121060	 0.304009	 -0.028963	 -2.690109	 -1.475690	 0.516222	 -0.038495	 0.735691	 -0.676183	 0.007222	 1
1463623543.780	 11	 -0.055005	 0.240346	 0.018895	 -2.690550	 -1.475029	 0.513093	 -0.037601	 0.735945	 -0.675967	 0.006218	 1
1463623543.790	 11	 -0.001165	 0.115579	 0.289034	 -2.709722	 -1.475826	 0.492422	 -0.036346	 0.736029	 -0.675943	 0.006415	 1
1463623543.800	 11	 0.008281	 0.073967	 0.567795	 -2.757884	 -1.477920	 0.443229	 -0.034206	 0.736091	 -0.675973	 0.007829	 1
1463623543.810	 11	 -0.019314	 0.014216	 0.677252	 -2.825712	 -1.480079	 0.374769	 -0.031649	 0.736243	 -0.675904	 0.009943	 1
1463623543.820	 11	 -0.047028	 -0.118340	 0.573947	 -2.892721	 -1.481384	 0.308305	 -0.029679	 0.736472	 -0.675705	 0.012298	 1
1463623543.830	 11	 -0.057247	 -0.282700	 0.345499	 -2.940892	 -1.481743	 0.262364	 -0.028999	 0.736705	 -0.675436	 0.014554	 1
1463623543.840	 11	 -0.047092	 -0.423744	 0.113894	 -2.964153	 -1.481561	 0.242940	 -0.029711	 0.736869	 -0.675180	 0.016550	 1
1463623543.850	 11	 -0.027622	 -0.514896	 0.019089	 -2.973315	 -1.481300	 0.238716	 -0.031266	 0.736939	 -0.674982	 0.018481	 1
1463623543.860	 11	 -0.023435	 -0.543528	 0.032641	 -2.981951	 -1.481116	 0.235460	 -0.032993	 0.736968	 -0.674809	 0.020551	 1
1463623543.870	 11	 -0.027723	 -0.575185	 0.065422	 -2.994367	 -1.480935	 0.228656	 -0.034687	 0.737009	 -0.674607	 0.022819	 1
1463623543.880	 11	 -0.024757	 -0.638892	 0.081856	 -3.009807	 -1.480792	 0.219391	 -0.036489	 0.737035	 -0.674392	 0.025375	 1
1463623543.890	 11	 -0.011372	 -0.731557	 0.069154	 -3.025052	 -1.480733	 0.211171	 -0.038603	 0.737004	 -0.674194	 0.028218	 1
1463623543.900	 11	 0.012607	 -0.838105	 0.053033	 -3.039398	 -1.480859	 0.204939	 -0.041135	 0.736873	 -0.674047	 0.031411	 1
1463623543.910	 11	 0.027236	 -0.893546	 0.040666	 -3.052777	 -1.481145	 0.200379	 -0.043949	 0.736653	 -0.673943	 0.034818	 1
1463623543.920	 11	 0.017686	 -0.868113	 0.023934	 -3.064490	 -1.481371	 0.197440	 -0.046803	 0.736431	 -0.673813	 0.038153	 1
1463623543.930	 11	 0.007201	 -0.811853	 0.004299	 -3.073715	 -1.481476	 0.196461	 -0.049545	 0.736236	 -0.673649	 0.041224	 1
1463623543.940	 11	 -0.000086	 -0.755611	 -0.016429	 -3.080080	 -1.481494	 0.197799	 -0.052180	 0.736060	 -0.673465	 0.044018	 1
1463623543.950	 11	 -0.021210	 -0.698210	 -0.029566	 -3.084279	 -1.481319	 0.200720	 -0.054676	 0.735946	 -0.673222	 0.046539	 1
1463623543.960	 11	 -0.027493	 -0.673719	 -0.028218	 -3.087957	 -1.481039	 0.203828	 -0.057070	 0.735865	 -0.672943	 0.048925	 1
1463623543.970	 11	 -0.025338	 -0.681070	 -0.014450	 -3.092771	 -1.480760	 0.205810	 -0.059431	 0.735780	 -0.672651	 0.051350	 1
1463623543.980	 11	 -0.018787	 -0.680819	 0.022797	 -3.100972	 -1.480555	 0.204416	 -0.061685	 0.735675	 -0.672364	 0.053889	 1
1463623543.990	 11	 -0.011004	 -0.656022	 0.071985	 -3.114357	 -1.480449	 0.197638	 -0.063695	 0.735553	 -0.672093	 0.056529	 1
1463623544.000	 11	 -0.004258	 -0.606912	 0.100093	 -3.131022	 -1.480407	 0.187141	 -0.065436	 0.735424	 -0.671843	 0.059130	 1
1463623544.010	 11	 0.003568	 -0.548286	 0.120824	 3.131555	 -1.480168	 0.172116	 -0.066839	 0.735379	 -0.671527	 0.061653	 1
1463623544.020	 11	 0.012472	 -0.485432	 0.138383	 3.111769	 -1.480249	 0.157287	 -0.068028	 0.735231	 -0.671356	 0.063951	 1
1463623544.030	 11	 0.018163	 -0.425751	 0.157007	 3.090495	 -1.480357	 0.140339	 -0.068936	 0.735083	 -0.671218	 0.066085	 1
1463623544.040	 11	 0.014097	 -0.406392	 0.184932	 3.066774	 -1.480407	 0.120617	 -0.069648	 0.734953	 -0.671077	 0.068185	 1
1463623544.050	 11	 -0.010405	 -0.423152	 0.211639	 3.032494	 -1.481583	 0.090464	 -0.070075	 0.734420	 -0.671360	 0.070663	 1
1463623544.060	 11	 -0.031814	 -0.450648	 0.225429	 2.998289	 -1.481910	 0.060614	 -0.070601	 0.734129	 -0.671351	 0.073198	 1
1463623544.070	 11	 -0.033053	 -0.469823	 0.219968	 2.967957	 -1.481359	 0.034848	 -0.071311	 0.734100	 -0.671031	 0.075695	 1
1463623544.080	 11	 -0.021429	 -0.477440	 0.200603	 2.950152	 -1.480730	 0.021675	 -0.072430	 0.734101	 -0.670666	 0.077828	 1
1463623544.090	 11	 -0.006563	 -0.471280	 0.174931	 2.946709	 -1.480356	 0.022799	 -0.073985	 0.734050	 -0.670358	 0.079479	 1
1463623544.100	 11	 -0.008740	 -0.443918	 0.132547	 2.952504	 -1.480146	 0.032932	 -0.075756	 0.733974	 -0.670092	 0.080753	 1
1463623544.110	 11	 -0.022704	 -0.423996	 0.085928	 2.967789	 -1.480294	 0.052333	 -0.077758	 0.733800	 -0.669945	 0.081641	 1
1463623544.120	 11	 -0.036615	 -0.395552	 0.041522	 2.984576	 -1.480800	 0.073033	 -0.079738	 0.733503	 -0.669943	 0.082409	 1
1463623544.130	 11	 -0.038650	 -0.348971	 0.009979	 2.998685	 -1.481177	 0.090677	 -0.081487	 0.733248	 -0.669921	 0.083142	 1
1463623544.140	 11	 -0.034194	 -0.296977	 -0.005576	 3.007223	 -1.481461	 0.102267	 -0.082878	 0.733033	 -0.669893	 0.083892	 1
1463623544.150	 11	 -0.023334	 -0.258717	 -0.005318	 3.007426	 -1.481972	 0.105144	 -0.083869	 0.732749	 -0.669968	 0.084780	 1
1463623544.160	 11	 -0.008234	 -0.238454	 0.008591	 3.005399	 -1.482814	 0.105540	 -0.084699	 0.732362	 -0.670176	 0.085652	 1
1463623544.170	 11	 0.008912	 -0.234175	 0.019138	 2.998975	 -1.483898	 0.101458	 -0.085367	 0.731892	 -0.670478	 0.086631	 1
1463623544.180	 11	 0.025953	 -0.251179	 0.028424	 2.989768	 -1.485193	 0.094709	 -0.085999	 0.731342	 -0.670855	 0.087727	 1
1463623544.190	 11	 0.046140	 -0.278835	 0.036516	 2.981181	 -1.486560	 0.088828	 -0.086748	 0.730755	 -0.671247	 0.088879	 1
1463623544.200	 11	 0.063084	 -0.309718	 0.038209	 2.973517	 -1.487928	 0.084158	 -0.087637	 0.730153	 -0.671624	 0.090094	 1
1463623544.210	 11	 0.076805	 -0.343790	 0.038835	 2.964630	 -1.489317	 0.078612	 -0.088623	 0.729524	 -0.671995	 0.091454	 1
1463623544.220	 11	 0.077817	 -0.354446	 0.036591	 2.958120	 -1.490537	 0.075597	 -0.089736	 0.728945	 -0.672291	 0.092795	 1
1463623544.230	 11	 0.072502	 -0.348070	 0.033493	 2.953986	 -1.491582	 0.074928	 -0.090905	 0.728428	 -0.672519	 0.094058	 1
1463623544.240	 11	 0.067222	 -0.328976	 0.024118	 2.951516	 -1.492560	 0.075788	 -0.092070	 0.727941	 -0.672724	 0.095228	 1
1463623544.250	 11	 0.060948	 -0.288653	 0.008558	 2.948393	 -1.493299	 0.075639	 -0.093082	 0.727547	 -0.672857	 0.096301	 1
1463623544.260	 11	 0.060054	 -0.245101	 0.000444	 2.944443	 -1.493846	 0.074244	 -0.093917	 0.727236	 -0.672940	 0.097258	 1
1463623544.270	 11	 0.062334	 -0.213205	 -0.000344	 2.941145	 -1.494271	 0.073147	 -0.094638	 0.726982	 -0.672994	 0.098079	 1
1463623544.280	 11	 0.062472	 -0.186590	 0.003099	 2.938305	 -1.494771	 0.072224	 -0.095270	 0.726717	 -0.673087	 0.098790	 1
1463623544.290	 11	 0.052995	 -0.162073	 0.006606	 2.935774	 -1.495138	 0.071360	 -0.095818	 0.726508	 -0.673144	 0.099411	 1
1463623544.300	 11	 0.047771	 -0.135488	 0.003702	 2.932855	 -1.495434	 0.069859	 -0.096262	 0.726335	 -0.673186	 0.099959	 1
1463623544.310	 11	 0.043644	 -0.102525	 0.000847	 2.930932	 -1.495602	 0.069039	 -0.096617	 0.726221	 -0.673196	 0.100378	 1
1463623544.320	 11	 0.043832	 -0.067376	 0.007568	 2.929337	 -1.495587	 0.068200	 -0.096849	 0.726186	 -0.673155	 0.100675	 1
1463623544.330	 11	 0.042880	 -0.039741	 0.004636	 2.927545	 -1.495706	 0.066867	 -0.096971	 0.726120	 -0.673179	 0.100874	 1
1463623544.340	 11	 0.026909	 -0.028023	 0.000621	 2.926900	 -1.495799	 0.066518	 -0.097064	 0.726073	 -0.673200	 0.100989	 1
1463623544.350	 11	 0.008776	 -0.027953	 0.002910	 2.927119	 -1.495895	 0.067008	 -0.097171	 0.726028	 -0.673221	 0.101071	 1
1463623544.360	 11	 0.001300	 -0.025834	 -0.001270	 2.928163	 -1.496028	 0.068316	 -0.097298	 0.725972	 -0.673254	 0.101129	 1
1463623544.370	 11	 0.003448	 -0.020545	 -0.004437	 2.928635	 -1.496129	 0.069010	 -0.097393	 0.725928	 -0.673279	 0.101189	 1
1463623544.380	 11	 0.007767	 -0.010977	 -0.003321	 2.929189	 -1.496311	 0.069694	 -0.097460	 0.725861	 -0.673338	 0.101214	 1
1463623544.390	 11	 0.011032	 -0.000327	 -0.000055	 2.930162	 -1.496480	 0.070692	 -0.097500	 0.725804	 -0.673396	 0.101193	 1
1463623544.400	 11	 0.012146	 0.010299	 -0.001033	 2.931752	 -1.496689	 0.072200	 -0.097517	 0.725740	 -0.673474	 0.101120	 1
1463623544.410	 11	 0.013275	 0.024116	 -0.001983	 2.933958	 -1.496863	 0.074191	 -0.097501	 0.725695	 -0.673544	 0.100986	 1
1463623544.420	 11	 0.015458	 0.033691	 -0.000849	 2.935698	 -1.496964	 0.075605	 -0.097430	 0.725680	 -0.673595	 0.100828	 1
1463623544.430	 11	 0.013280	 0.025181	 -0.001977	 2.937891	 -1.497223	 0.077514	 -0.097391	 0.725609	 -0.673700	 0.100670	 1
1463623544.440	 11	 0.008945	 0.014526	 -0.006305	 2.941052	 -1.497467	 0.080498	 -0.097414	 0.725540	 -0.673793	 0.100524	 1
1463623544.450	 11	 0.007796	 -0.001441	 -0.008578	 2.943985	 -1.497744	 0.083394	 -0.097483	 0.725452	 -0.673892	 0.100431	 1
1463623544.460	 11	 0.005587	 -0.014229	 -0.012944	 2.947029	 -1.498121	 0.086554	 -0.097611	 0.725323	 -0.674019	 0.100384	 1
1463623544.470	 11	 0.003443	 -0.017414	 -0.012958	 2.950344	 -1.498607	 0.090042	 -0.097769	 0.725153	 -0.674184	 0.100350	 1
1463623544.480	 11	 0.009869	 -0.017402	 -0.008755	 2.953430	 -1.499165	 0.093305	 -0.097922	 0.724958	 -0.674375	 0.100322	 1
1463623544.490	 11	 0.018443	 -0.009990	 -0.009830	 2.956221	 -1.499827	 0.096209	 -0.098045	 0.724731	 -0.674608	 0.100281	 1
1463623544.500	 11	 0.028112	 0.001689	 -0.008744	 2.959299	 -1.500460	 0.099302	 -0.098138	 0.724518	 -0.674836	 0.100201	 1
1463623544.510	 11	 0.032462	 0.011312	 -0.000171	 2.962268	 -1.500980	 0.102171	 -0.098183	 0.724348	 -0.675028	 0.100087	 1
1463623544.520	 11	 0.032526	 0.015644	 0.010522	 2.964410	 -1.501452	 0.104147	 -0.098183	 0.724197	 -0.675206	 0.099973	 1
1463623544.530	 11	 0.031437	 0.008226	 0.013654	 2.966315	 -1.501799	 0.105925	 -0.098189	 0.724087	 -0.675338	 0.099880	 1
1463623544.540	 11	 0.030297	 -0.007718	 0.014579	 2.965812	 -1.502027	 0.105439	 -0.098186	 0.724008	 -0.675421	 0.099895	 1
1463623544.550	 11	 0.025991	 -0.017262	 0.016657	 2.964608	 -1.502276	 0.104374	 -0.098210	 0.723915	 -0.675505	 0.099969	 1
1463623544.560	 11	 0.019555	 -0.023633	 0.015585	 2.963363	 -1.502559	 0.103339	 -0.098260	 0.723807	 -0.675600	 0.100066	 1
1463623544.570	 11	 0.017408	 -0.025761	 0.014516	 2.962057	 -1.502852	 0.102276	 -0.098321	 0.723694	 -0.675695	 0.100176	 1
1463623544.580	 11	 0.020634	 -0.018348	 0.011357	 2.961240	 -1.503174	 0.101650	 -0.098376	 0.723574	 -0.675804	 0.100256	 1
1463623544.590	 11	 0.026038	 0.001792	 0.004034	 2.962277	 -1.503567	 0.102722	 -0.098419	 0.723439	 -0.675945	 0.100239	 1
1463623544.600	 11	 0.023979	 0.019857	 0.001020	 2.962961	 -1.503957	 0.103245	 -0.098383	 0.723315	 -0.676094	 0.100164	 1
1463623544.610	 11	 0.020882	 0.041148	 0.002310	 2.963674	 -1.504147	 0.103595	 -0.098271	 0.723268	 -0.676181	 0.100022	 1
1463623544.620	 11	 0.023077	 0.054962	 0.001351	 2.965442	 -1.504302	 0.104834	 -0.098124	 0.723243	 -0.676263	 0.099800	 1
1463623544.630	 11	 0.023100	 0.056065	 0.006687	 2.967325	 -1.504395	 0.106141	 -0.097961	 0.723241	 -0.676324	 0.099560	 1
1463623544.640	 11	 0.017727	 0.047580	 0.007717	 2.969503	 -1.504497	 0.107805	 -0.097828	 0.723233	 -0.676385	 0.099334	 1
1463623544.650	 11	 0.005922	 0.034844	 0.006633	 2.971111	 -1.504541	 0.109020	 -0.097724	 0.723238	 -0.676420	 0.099163	 1
1463623544.660	 11	 0.001592	 0.026309	 0.001259	 2.972963	 -1.504584	 0.110593	 -0.097667	 0.723239	 -0.676447	 0.099025	 1
1463623544.670	 11	 0.002644	 0.023115	 0.001218	 2.974455	 -1.504659	 0.111839	 -0.097613	 0.723226	 -0.676486	 0.098906	 1
1463623544.680	 11	 0.003692	 0.017801	 0.002224	 2.975465	 -1.504803	 0.112656	 -0.097569	 0.723187	 -0.676548	 0.098816	 1
1463623544.690	 11	 0.010032	 0.005011	 0.000981	 2.976574	 -1.505006	 0.113679	 -0.097566	 0.723122	 -0.676625	 0.098760	 1
1463623544.700	 11	 0.012135	 -0.004546	 0.004070	 2.976513	 -1.505229	 0.113649	 -0.097578	 0.723045	 -0.676705	 0.098770	 1
1463623544.710	 11	 0.013186	 -0.008796	 0.005085	 2.977290	 -1.505361	 0.114503	 -0.097625	 0.722996	 -0.676749	 0.098777	 1
1463623544.720	 11	 0.014267	 -0.004552	 0.004047	 2.978195	 -1.505415	 0.115458	 -0.097665	 0.722976	 -0.676766	 0.098773	 1
1463623544.730	 11	 0.013218	 -0.000293	 0.004093	 2.979532	 -1.505425	 0.116796	 -0.097696	 0.722973	 -0.676768	 0.098742	 1
1463623544.740	 11	 0.012144	 -0.000298	 0.003035	 2.980695	 -1.505427	 0.117952	 -0.097720	 0.722973	 -0.676769	 0.098713	 1
1463623544.750	 11	 0.011039	 -0.007740	 0.002972	 2.982550	 -1.505435	 0.119851	 -0.097779	 0.722969	 -0.676769	 0.098685	 1
1463623544.760	 11	 0.008863	 -0.016242	 0.002909	 2.984259	 -1.505482	 0.121700	 -0.097870	 0.722947	 -0.676778	 0.098692	 1
1463623544.770	 11	 0.006707	 -0.018386	 -0.000291	 2.985054	 -1.505617	 0.122669	 -0.097952	 0.722892	 -0.676819	 0.098733	 1
1463623544.780	 11	 0.003497	 -0.019448	 -0.001340	 2.985385	 -1.505735	 0.123188	 -0.098029	 0.722843	 -0.676852	 0.098788	 1
1463623544.790	 11	 0.004593	 -0.013077	 -0.002357	 2.986285	 -1.505896	 0.124234	 -0.098103	 0.722781	 -0.676904	 0.098816	 1
1463623544.800	 11	 0.007821	 -0.007768	 -0.002336	 2.985848	 -1.506095	 0.123897	 -0.098131	 0.722708	 -0.676971	 0.098859	 1
1463623544.810	 11	 0.012122	 -0.002455	 -0.001257	 2.985012	 -1.506330	 0.123109	 -0.098131	 0.722625	 -0.677055	 0.098893	 1
1463623544.820	 11	 0.016406	 -0.000333	 -0.000209	 2.984562	 -1.506534	 0.122668	 -0.098125	 0.722555	 -0.677129	 0.098906	 1
1463623544.830	 11	 0.017492	 0.002862	 0.000877	 2.984132	 -1.506698	 0.122214	 -0.098108	 0.722500	 -0.677190	 0.098907	 1
1463623544.840	 11	 0.016437	 0.003945	 0.003028	 2.983902	 -1.506814	 0.121942	 -0.098089	 0.722462	 -0.677234	 0.098897	 1
1463623544.850	 11	 0.014305	 0.002903	 0.005167	 2.983780	 -1.506882	 0.121781	 -0.098073	 0.722441	 -0.677261	 0.098887	 1
1463623544.860	 11	 0.008963	 0.003967	 0.003090	 2.984951	 -1.506872	 0.122913	 -0.098085	 0.722446	 -0.677259	 0.098847	 1
1463623544.870	 11	 0.006834	 0.006093	 0.002061	 2.985169	 -1.506923	 0.123078	 -0.098071	 0.722432	 -0.677280	 0.098824	 1
1463623544.880	 11	 0.006825	 0.003966	 0.002041	 2.984945	 -1.507002	 0.122813	 -0.098051	 0.722407	 -0.677311	 0.098814	 1
1463623544.890	 11	 0.008944	 0.000769	 0.001992	 2.984895	 -1.507126	 0.122738	 -0.098042	 0.722365	 -0.677358	 0.098806	 1
1463623544.900	 11	 0.011070	 -0.001365	 0.001954	 2.984279	 -1.507307	 0.122123	 -0.098030	 0.722303	 -0.677424	 0.098820	 1
1463623544.910	 11	 0.014261	 -0.006670	 0.005074	 2.982838	 -1.507553	 0.120737	 -0.098020	 0.722215	 -0.677511	 0.098870	 1
1463623544.920	 11	 0.015307	 -0.008824	 0.001848	 2.981658	 -1.507769	 0.119650	 -0.098029	 0.722136	 -0.677586	 0.098926	 1
1463623544.930	 11	 0.020667	 -0.001418	 -0.001327	 2.980863	 -1.508026	 0.118880	 -0.098023	 0.722047	 -0.677679	 0.098951	 1
1463623544.940	 11	 0.024940	 -0.001423	 -0.000298	 2.980319	 -1.508303	 0.118360	 -0.098022	 0.721951	 -0.677779	 0.098970	 1
1463623544.950	 11	 0.024945	 -0.000359	 -0.000288	 2.979582	 -1.508554	 0.117631	 -0.098011	 0.721864	 -0.677870	 0.098987	 1
1463623544.960	 11	 0.025990	 -0.001457	 -0.004571	 2.979377	 -1.508818	 0.117430	 -0.098010	 0.721773	 -0.677966	 0.098991	 1
1463623544.970	 11	 0.024921	 -0.002510	 -0.003506	 2.979712	 -1.509037	 0.117784	 -0.098026	 0.721698	 -0.678045	 0.098989	 1
1463623544.980	 11	 0.019587	 -0.005654	 0.000774	 2.979982	 -1.509212	 0.118098	 -0.098050	 0.721636	 -0.678106	 0.098997	 1
1463623544.990	 11	 0.014228	 -0.012005	 0.002892	 2.979446	 -1.509331	 0.117665	 -0.098076	 0.721589	 -0.678145	 0.099042	 1
1463623545.000	 11	 0.007807	 -0.015184	 0.001853	 2.978327	 -1.509451	 0.116686	 -0.098104	 0.721541	 -0.678182	 0.099114	 1
1463623545.010	 11	 0.005698	 -0.010916	 0.002977	 2.977547	 -1.509539	 0.116025	 -0.098130	 0.721505	 -0.678208	 0.099170	 1
1463623545.020	 11	 0.010057	 0.007162	 0.004173	 2.976583	 -1.509639	 0.115035	 -0.098101	 0.721471	 -0.678247	 0.099182	 1
1463623545.030	 11	 0.013357	 0.025258	 0.007510	 2.975545	 -1.509733	 0.113790	 -0.098005	 0.721449	 -0.678292	 0.099133	 1
1463623545.040	 11	 0.015575	 0.040166	 0.010825	 2.974726	 -1.509870	 0.112601	 -0.097856	 0.721419	 -0.678360	 0.099024	 1
1463623545.050	 11	 0.012443	 0.052955	 0.013102	 2.973482	 -1.509994	 0.110854	 -0.097649	 0.721400	 -0.678431	 0.098879	 1
1463623545.060	 11	 0.010282	 0.061452	 0.014333	 2.972051	 -1.510108	 0.108819	 -0.097402	 0.721390	 -0.678503	 0.098704	 1
1463623545.070	 11	 0.006048	 0.066799	 0.016551	 2.969537	 -1.510192	 0.105643	 -0.097110	 0.721392	 -0.678568	 0.098532	 1
1463623545.080	 11	 -0.002463	 0.071087	 0.017732	 2.966343	 -1.510261	 0.101751	 -0.096791	 0.721400	 -0.678630	 0.098363	 1
1463623545.090	 11	 -0.002426	 0.078532	 0.017800	 2.964171	 -1.510283	 0.098799	 -0.096463	 0.721428	 -0.678678	 0.098145	 1
1463623545.100	 11	 -0.002420	 0.079596	 0.017809	 2.963008	 -1.510285	 0.096828	 -0.096147	 0.721465	 -0.678719	 0.097895	 1
1463623545.110	 11	 0.000751	 0.073204	 0.017721	 2.962084	 -1.510255	 0.095144	 -0.095853	 0.721511	 -0.678747	 0.097657	 1
1463623545.120	 11	 0.001763	 0.062557	 0.016544	 2.962382	 -1.510261	 0.094775	 -0.095618	 0.721541	 -0.678781	 0.097425	 1
1463623545.130	 11	 0.002757	 0.050823	 0.012161	 2.962593	 -1.510268	 0.094438	 -0.095425	 0.721565	 -0.678810	 0.097234	 1
1463623545.140	 11	 0.001617	 0.039095	 0.007796	 2.964507	 -1.510282	 0.095921	 -0.095311	 0.721583	 -0.678834	 0.097047	 1
1463623545.150	 11	 0.003696	 0.029500	 0.005554	 2.967062	 -1.510277	 0.098158	 -0.095251	 0.721602	 -0.678846	 0.096884	 1
1463623545.160	 11	 0.005798	 0.022056	 0.006528	 2.969409	 -1.510275	 0.100260	 -0.095213	 0.721616	 -0.678855	 0.096751	 1
1463623545.170	 11	 0.003636	 0.018849	 0.003317	 2.971627	 -1.510349	 0.102278	 -0.095189	 0.721602	 -0.678890	 0.096635	 1
1463623545.180	 11	 0.003661	 0.024167	 0.003364	 2.973069	 -1.510398	 0.103495	 -0.095139	 0.721597	 -0.678918	 0.096527	 1
1463623545.190	 11	 0.003708	 0.029524	 0.008742	 2.972804	 -1.510443	 0.102942	 -0.095030	 0.721595	 -0.678948	 0.096435	 1
1463623545.200	 11	 0.012262	 0.028473	 0.013986	 2.970937	 -1.510565	 0.100770	 -0.094882	 0.721566	 -0.679009	 0.096370	 1
1463623545.210	 11	 0.019688	 0.014662	 0.019121	 2.967473	 -1.510784	 0.097116	 -0.094743	 0.721497	 -0.679100	 0.096376	 1
1463623545.220	 11	 0.021761	 -0.000221	 0.021096	 2.963758	 -1.511002	 0.093369	 -0.094656	 0.721421	 -0.679184	 0.096441	 1
1463623545.230	 11	 0.015315	 -0.006607	 0.017895	 2.960622	 -1.511161	 0.090291	 -0.094614	 0.721361	 -0.679242	 0.096525	 1
1463623545.240	 11	 0.005729	 0.000837	 0.013783	 2.959248	 -1.511195	 0.088935	 -0.094592	 0.721347	 -0.679255	 0.096559	 1
1463623545.250	 11	 0.000451	 0.015721	 0.010768	 2.959026	 -1.511178	 0.088591	 -0.094543	 0.721359	 -0.679255	 0.096523	 1
1463623545.260	 11	 0.000502	 0.028470	 0.008754	 2.958896	 -1.511115	 0.088199	 -0.094444	 0.721392	 -0.679245	 0.096437	 1
1463623545.270	 11	 0.004840	 0.042292	 0.009910	 2.958145	 -1.511096	 0.087054	 -0.094286	 0.721417	 -0.679257	 0.096320	 1
1463623545.280	 11	 0.008066	 0.048657	 0.008875	 2.957339	 -1.511111	 0.085763	 -0.094094	 0.721434	 -0.679287	 0.096172	 1
1463623545.290	 11	 0.009133	 0.049710	 0.007810	 2.956671	 -1.511111	 0.084588	 -0.093898	 0.721457	 -0.679312	 0.096014	 1
1463623545.300	 11	 0.003774	 0.043359	 0.009928	 2.956087	 -1.511078	 0.083540	 -0.093717	 0.721489	 -0.679323	 0.095869	 1
1463623545.310	 11	 -0.005880	 0.034863	 0.007801	 2.955879	 -1.511023	 0.082952	 -0.093575	 0.721526	 -0.679321	 0.095745	 1
1463623545.320	 11	 -0.010208	 0.023168	 0.006663	 2.956226	 -1.510968	 0.083038	 -0.093487	 0.721557	 -0.679314	 0.095650	 1
1463623545.330	 11	 -0.008117	 0.014645	 0.005498	 2.957054	 -1.510968	 0.083690	 -0.093441	 0.721566	 -0.679321	 0.095573	 1
1463623545.340	 11	 -0.000640	 0.014630	 0.006497	 2.956508	 -1.511069	 0.083000	 -0.093379	 0.721537	 -0.679365	 0.095534	 1
1463623545.350	 11	 0.006832	 0.014607	 0.006431	 2.955622	 -1.511215	 0.081971	 -0.093312	 0.721493	 -0.679426	 0.095501	 1
1463623545.360	 11	 0.010033	 0.014598	 0.006403	 2.954806	 -1.511307	 0.081005	 -0.093243	 0.721468	 -0.679467	 0.095466	 1
1463623545.370	 11	 0.004667	 0.008232	 0.006390	 2.953754	 -1.511329	 0.079858	 -0.093187	 0.721464	 -0.679481	 0.095455	 1
1463623545.380	 11	 -0.001732	 0.009314	 0.006456	 2.953018	 -1.511241	 0.079031	 -0.093137	 0.721497	 -0.679455	 0.095442	 1
1463623545.390	 11	 -0.003853	 0.013568	 0.005447	 2.953301	 -1.511124	 0.079181	 -0.093092	 0.721544	 -0.679418	 0.095392	 1
1463623545.400	 11	 -0.001714	 0.014625	 0.005437	 2.953635	 -1.511083	 0.079361	 -0.093042	 0.721565	 -0.679410	 0.095334	 1
1463623545.410	 11	 0.001462	 0.008241	 0.006416	 2.953067	 -1.511072	 0.078687	 -0.092992	 0.721573	 -0.679412	 0.095310	 1
1463623545.420	 11	 0.003535	 -0.005585	 0.007335	 2.951856	 -1.511122	 0.077491	 -0.092973	 0.721554	 -0.679431	 0.095340	 1
1463623545.430	 11	 0.003496	 -0.014095	 0.007256	 2.950358	 -1.511207	 0.076110	 -0.092986	 0.721518	 -0.679458	 0.095410	 1
1463623545.440	 11	 0.004571	 -0.011978	 0.006201	 2.948214	 -1.511335	 0.074102	 -0.092993	 0.721465	 -0.679500	 0.095498	 1
1463623545.450	 11	 0.003565	 0.000789	 0.006329	 2.946268	 -1.511425	 0.072190	 -0.092966	 0.721430	 -0.679534	 0.095549	 1
1463623545.460	 11	 0.002560	 0.014612	 0.005400	 2.945383	 -1.511465	 0.071189	 -0.092906	 0.721421	 -0.679555	 0.095527	 1
1463623545.470	 11	 0.003663	 0.022054	 0.005460	 2.944453	 -1.511521	 0.070058	 -0.092816	 0.721410	 -0.679586	 0.095477	 1
1463623545.480	 11	 0.000487	 0.026326	 0.006593	 2.943340	 -1.511534	 0.068685	 -0.092699	 0.721416	 -0.679605	 0.095412	 1
1463623545.490	 11	 0.001565	 0.029506	 0.005548	 2.942695	 -1.511551	 0.067748	 -0.092581	 0.721422	 -0.679626	 0.095326	 1
1463623545.500	 11	 0.004755	 0.026313	 0.006555	 2.942755	 -1.511563	 0.067532	 -0.092483	 0.721431	 -0.679643	 0.095230	 1
1463623545.510	 11	 0.004724	 0.019931	 0.006495	 2.942899	 -1.511604	 0.067456	 -0.092408	 0.721428	 -0.679668	 0.095152	 1
1463623545.520	 11	 0.003618	 0.013537	 0.004312	 2.943386	 -1.511639	 0.067789	 -0.092363	 0.721424	 -0.679688	 0.095088	 1
1463623545.530	 11	 -0.000686	 0.007160	 0.003222	 2.944480	 -1.511616	 0.068797	 -0.092354	 0.721437	 -0.679682	 0.095037	 1
1463623545.540	 11	 -0.001767	 0.006084	 0.001088	 2.945915	 -1.511578	 0.070177	 -0.092364	 0.721454	 -0.679669	 0.094989	 1
1463623545.550	 11	 -0.001778	 0.003957	 0.001068	 2.946578	 -1.511561	 0.070795	 -0.092360	 0.721463	 -0.679664	 0.094960	 1
1463623545.560	 11	 -0.002861	 -0.000287	 0.002103	 2.947098	 -1.511526	 0.071305	 -0.092367	 0.721476	 -0.679651	 0.094947	 1
1463623545.570	 11	 -0.002873	 -0.005582	 0.005250	 2.946665	 -1.511563	 0.070916	 -0.092375	 0.721461	 -0.679663	 0.094970	 1
1463623545.580	 11	 -0.000743	 -0.006652	 0.005221	 2.945948	 -1.511594	 0.070263	 -0.092384	 0.721446	 -0.679672	 0.095006	 1
1463623545.590	 11	 0.002473	 -0.004527	 0.006278	 2.945852	 -1.511595	 0.070204	 -0.092395	 0.721444	 -0.679671	 0.095021	 1
1463623545.600	 11	 0.004616	 -0.003462	 0.007333	 2.945851	 -1.511640	 0.070227	 -0.092405	 0.721428	 -0.679686	 0.095028	 1
1463623545.610	 11	 0.004596	 -0.007716	 0.007292	 2.945897	 -1.511673	 0.070325	 -0.092425	 0.721414	 -0.679696	 0.095044	 1
1463623545.620	 11	 0.001360	 -0.011984	 0.004081	 2.946950	 -1.511655	 0.071482	 -0.092484	 0.721417	 -0.679683	 0.095058	 1
1463623545.630	 11	 -0.000773	 -0.008810	 0.000930	 2.948415	 -1.511623	 0.073042	 -0.092548	 0.721425	 -0.679665	 0.095060	 1
1463623545.640	 11	 -0.001834	 -0.006687	 -0.000108	 2.949540	 -1.511643	 0.074237	 -0.092598	 0.721416	 -0.679667	 0.095060	 1
1463623545.650	 11	 0.001382	 -0.004562	 0.000949	 2.949885	 -1.511638	 0.074628	 -0.092621	 0.721417	 -0.679663	 0.095068	 1
1463623545.660	 11	 0.002479	 0.000761	 0.002054	 2.949331	 -1.511681	 0.074081	 -0.092613	 0.721401	 -0.679679	 0.095081	 1
1463623545.670	 11	 0.004643	 0.005024	 0.004207	 2.947955	 -1.511762	 0.072665	 -0.092572	 0.721373	 -0.679712	 0.095095	 1
1463623545.680	 11	 0.006816	 0.012471	 0.005324	 2.946682	 -1.511779	 0.071276	 -0.092504	 0.721371	 -0.679725	 0.095082	 1
1463623545.690	 11	 0.006823	 0.013543	 0.006400	 2.945449	 -1.511741	 0.069907	 -0.092428	 0.721389	 -0.679720	 0.095062	 1
1463623545.700	 11	 0.000404	 0.011427	 0.005371	 2.944762	 -1.511664	 0.069103	 -0.092370	 0.721419	 -0.679698	 0.095038	 1
1463623545.710	 11	 -0.003891	 0.006121	 0.005358	 2.944815	 -1.511556	 0.069081	 -0.092341	 0.721460	 -0.679662	 0.095014	 1
1463623545.720	 11	 -0.004979	 0.002926	 0.004271	 2.944823	 -1.511434	 0.069047	 -0.092323	 0.721504	 -0.679620	 0.095002	 1
1463623545.730	 11	 -0.003957	 -0.004539	 0.002060	 2.945705	 -1.511367	 0.069951	 -0.092348	 0.721527	 -0.679593	 0.094992	 1
1463623545.740	 11	 -0.008255	 -0.010908	 0.002038	 2.945551	 -1.511320	 0.069888	 -0.092377	 0.721538	 -0.679572	 0.095028	 1
1463623545.750	 11	 -0.008244	 -0.008781	 0.002058	 2.945152	 -1.511316	 0.069594	 -0.092406	 0.721534	 -0.679566	 0.095071	 1
1463623545.760	 11	 -0.007144	 -0.002402	 0.002107	 2.944864	 -1.511349	 0.069346	 -0.092415	 0.721521	 -0.679577	 0.095090	 1
1463623545.770	 11	 -0.000712	 0.005009	 -0.000012	 2.944958	 -1.511425	 0.069406	 -0.092407	 0.721497	 -0.679606	 0.095075	 1
1463623545.780	 11	 0.001419	 0.003939	 -0.000041	 2.944754	 -1.511553	 0.069152	 -0.092388	 0.721455	 -0.679655	 0.095060	 1
1463623545.790	 11	 0.005604	 0.000727	 -0.000065	 2.944255	 -1.511689	 0.068641	 -0.092376	 0.721408	 -0.679706	 0.095063	 1
1463623545.800	 11	 0.006668	 0.000716	 -0.001141	 2.944512	 -1.511866	 0.068890	 -0.092383	 0.721348	 -0.679770	 0.095051	 1
1463623545.810	 11	 0.006669	 0.001771	 -0.002198	 2.945421	 -1.511925	 0.069780	 -0.092396	 0.721330	 -0.679791	 0.095025	 1
1463623545.820	 11	 0.003437	 -0.004601	 -0.002229	 2.946005	 -1.511972	 0.070393	 -0.092420	 0.721314	 -0.679806	 0.095022	 1
1463623545.830	 11	 0.000240	 -0.004584	 -0.001136	 2.946241	 -1.511989	 0.070681	 -0.092444	 0.721306	 -0.679809	 0.095034	 1
1463623545.840	 11	 0.001334	 -0.002429	 0.003139	 2.945396	 -1.511987	 0.069867	 -0.092437	 0.721304	 -0.679808	 0.095062	 1
1463623545.850	 11	 0.008833	 0.001819	 0.005245	 2.943633	 -1.512083	 0.068095	 -0.092400	 0.721269	 -0.679846	 0.095094	 1
1463623545.860	 11	 0.018444	 -0.000307	 0.009405	 2.941099	 -1.512230	 0.065551	 -0.092348	 0.721216	 -0.679903	 0.095140	 1
1463623545.870	 11	 0.026963	 -0.006691	 0.012469	 2.938449	 -1.512430	 0.062936	 -0.092311	 0.721142	 -0.679978	 0.095201	 1
1463623545.880	 11	 0.030129	 -0.014146	 0.012371	 2.935991	 -1.512658	 0.060602	 -0.092311	 0.721055	 -0.680058	 0.095289	 1
1463623545.890	 11	 0.026900	 -0.013127	 0.004946	 2.935947	 -1.512810	 0.060698	 -0.092365	 0.720996	 -0.680107	 0.095333	 1
1463623545.900	 11	 0.018407	 0.004911	 -0.004406	 2.938733	 -1.512829	 0.063498	 -0.092427	 0.720993	 -0.680109	 0.095281	 1
1463623545.910	 11	 0.003717	 0.060251	 -0.005895	 2.940844	 -1.512679	 0.065102	 -0.092284	 0.721070	 -0.680076	 0.095069	 1
1463623545.920	 11	 -0.013382	 0.053928	 -0.004739	 2.941870	 -1.512670	 0.065550	 -0.092096	 0.721102	 -0.680098	 0.094851	 1
1463623545.930	 11	 -0.012404	 0.036891	 -0.007037	 2.943666	 -1.512528	 0.066958	 -0.091990	 0.721171	 -0.680063	 0.094686	 1
1463623545.940	 11	 0.005806	 0.050672	 -0.006002	 2.945523	 -1.512517	 0.068341	 -0.091857	 0.721198	 -0.680079	 0.094487	 1
1463623545.950	 11	 0.015412	 0.050643	 -0.006086	 2.946936	 -1.512745	 0.069238	 -0.091705	 0.721146	 -0.680184	 0.094277	 1
1463623545.960	 11	 0.016331	 0.040031	 -0.005107	 2.946842	 -1.513002	 0.068714	 -0.091554	 0.721078	 -0.680298	 0.094128	 1
1463623545.970	 11	 0.012012	 0.028351	 -0.004112	 2.946755	 -1.513220	 0.068314	 -0.091445	 0.721017	 -0.680392	 0.094018	 1
1463623545.980	 11	 0.006653	 0.018832	 0.001175	 2.945951	 -1.513370	 0.067307	 -0.091359	 0.720974	 -0.680457	 0.093962	 1
1463623545.990	 11	 0.003466	 0.018865	 0.004400	 2.944963	 -1.513509	 0.066140	 -0.091278	 0.720933	 -0.680517	 0.093919	 1
1463623546.000	 11	 0.002439	 0.029481	 0.001310	 2.945204	 -1.513665	 0.066117	 -0.091191	 0.720892	 -0.680585	 0.093820	 1
1463623546.010	 11	 0.001513	 0.063483	 -0.003697	 2.949342	 -1.513762	 0.069706	 -0.091079	 0.720889	 -0.680641	 0.093548	 1
1463623546.020	 11	 -0.000413	 0.112372	 -0.009622	 2.954267	 -1.513854	 0.073633	 -0.090820	 0.720909	 -0.680715	 0.093108	 1
1463623546.030	 11	 -0.004384	 0.180413	 -0.015351	 2.960066	 -1.513877	 0.077805	 -0.090351	 0.720981	 -0.680792	 0.092437	 1
1463623546.040	 11	 -0.008350	 0.247406	 -0.018956	 2.965739	 -1.513882	 0.081174	 -0.089635	 0.721089	 -0.680895	 0.091539	 1
1463623546.050	 11	 -0.007038	 0.299515	 -0.019548	 2.971892	 -1.513908	 0.084466	 -0.088727	 0.721213	 -0.681029	 0.090441	 1
1463623546.060	 11	 -0.005853	 0.330304	 -0.026733	 2.979740	 -1.513943	 0.089083	 -0.087720	 0.721350	 -0.681180	 0.089182	 1
1463623546.070	 11	 -0.004769	 0.340876	 -0.035171	 2.990035	 -1.514021	 0.095989	 -0.086705	 0.721477	 -0.681352	 0.087820	 1
1463623546.080	 11	 -0.001691	 0.327986	 -0.051307	 3.004286	 -1.514147	 0.106927	 -0.085796	 0.721583	 -0.681536	 0.086405	 1
1463623546.090	 11	 0.012002	 0.303365	 -0.067644	 3.021140	 -1.514388	 0.120685	 -0.085017	 0.721635	 -0.681754	 0.085012	 1
1463623546.100	 11	 0.026735	 0.266037	 -0.075580	 3.036984	 -1.514715	 0.133782	 -0.084340	 0.721636	 -0.681991	 0.083762	 1
1463623546.110	 11	 0.031915	 0.224615	 -0.065351	 3.048661	 -1.515069	 0.143129	 -0.083728	 0.721608	 -0.682221	 0.082740	 1
1463623546.120	 11	 0.019954	 0.192852	 -0.052744	 3.057260	 -1.515196	 0.149755	 -0.083185	 0.721642	 -0.682353	 0.081899	 1
1463623546.130	 11	 -0.001525	 0.148381	 -0.033784	 3.062666	 -1.515200	 0.153546	 -0.082708	 0.721704	 -0.682424	 0.081242	 1
1463623546.140	 11	 0.002577	 0.098507	 -0.016164	 3.065078	 -1.515139	 0.154880	 -0.082367	 0.721768	 -0.682447	 0.080826	 1
1463623546.150	 11	 0.023772	 0.067597	 -0.016637	 3.069402	 -1.515263	 0.158462	 -0.082182	 0.721752	 -0.682526	 0.080489	 1
1463623546.160	 11	 0.042932	 0.060070	 -0.020073	 3.074622	 -1.515683	 0.163078	 -0.082060	 0.721628	 -0.682707	 0.080188	 1
1463623546.170	 11	 0.055817	 0.080211	 -0.024261	 3.079407	 -1.516279	 0.167130	 -0.081878	 0.721449	 -0.682957	 0.079857	 1
1463623546.180	 11	 0.052849	 0.130205	 -0.024835	 3.084036	 -1.516818	 0.170597	 -0.081538	 0.721306	 -0.683204	 0.079382	 1
1463623546.190	 11	 0.043508	 0.180272	 -0.017893	 3.087822	 -1.517231	 0.172698	 -0.080994	 0.721229	 -0.683424	 0.078744	 1
1463623546.200	 11	 0.031987	 0.216557	 -0.005731	 3.090514	 -1.517482	 0.173302	 -0.080287	 0.721224	 -0.683600	 0.077985	 1
1463623546.210	 11	 0.021403	 0.226239	 0.005110	 3.091213	 -1.517709	 0.171746	 -0.079482	 0.721235	 -0.683770	 0.077206	 1
1463623546.220	 11	 0.030988	 0.199812	 0.031424	 3.089397	 -1.517999	 0.167807	 -0.078677	 0.721221	 -0.683955	 0.076521	 1
1463623546.230	 11	 0.071180	 0.094642	 0.065266	 3.077783	 -1.518710	 0.154981	 -0.078013	 0.721036	 -0.684247	 0.076335	 1
1463623546.240	 11	 0.070824	 0.041273	 0.039196	 3.065885	 -1.519336	 0.142563	 -0.077600	 0.720849	 -0.684486	 0.076384	 1
1463623546.250	 11	 0.048220	 0.023065	 0.012578	 3.063446	 -1.519727	 0.139860	 -0.077456	 0.720726	 -0.684636	 0.076342	 1
1463623546.260	 11	 0.034411	 0.034830	 0.016004	 3.063149	 -1.519821	 0.139249	 -0.077337	 0.720706	 -0.684681	 0.076241	 1
1463623546.270	 11	 0.030164	 0.052991	 0.023665	 3.061258	 -1.519886	 0.136872	 -0.077127	 0.720703	 -0.684723	 0.076110	 1
1463623546.280	 11	 0.022756	 0.068945	 0.020680	 3.059177	 -1.520015	 0.134131	 -0.076851	 0.720685	 -0.684794	 0.075923	 1
1463623546.290	 11	 0.012121	 0.078535	 0.018730	 3.056923	 -1.520118	 0.131107	 -0.076532	 0.720680	 -0.684859	 0.075700	 1
1463623546.300	 11	 0.002580	 0.094495	 0.015763	 3.055963	 -1.520175	 0.129244	 -0.076189	 0.720696	 -0.684914	 0.075409	 1
1463623546.310	 11	 -0.012301	 0.115736	 0.005431	 3.057887	 -1.520109	 0.130049	 -0.075821	 0.720760	 -0.684932	 0.074991	 1
1463623546.320	 11	 -0.002615	 0.126398	 0.012904	 3.061157	 -1.520172	 0.132100	 -0.075440	 0.720783	 -0.685002	 0.074515	 1
1463623546.330	 11	 0.019984	 0.163583	 0.016249	 3.060785	 -1.520257	 0.130172	 -0.074871	 0.720813	 -0.685090	 0.073990	 1
1463623546.340	 11	 0.028607	 0.182695	 0.015286	 3.060038	 -1.520534	 0.127630	 -0.074209	 0.720784	 -0.685257	 0.073391	 1
1463623546.350	 11	 0.026502	 0.193300	 0.010073	 3.061297	 -1.520813	 0.126977	 -0.073540	 0.720758	 -0.685428	 0.072716	 1
1463623546.360	 11	 0.005220	 0.214568	 0.000863	 3.064868	 -1.520767	 0.128457	 -0.072850	 0.720849	 -0.685489	 0.071935	 1
1463623546.370	 11	 -0.021499	 0.204026	 0.003127	 3.069458	 -1.520685	 0.130977	 -0.072186	 0.720950	 -0.685535	 0.071144	 1
1463623546.380	 11	 -0.020334	 0.216857	 0.012828	 3.070553	 -1.520354	 0.129922	 -0.071434	 0.721141	 -0.685492	 0.070384	 1
1463623546.390	 11	 -0.013954	 0.215743	 0.008498	 3.071429	 -1.520211	 0.128639	 -0.070672	 0.721266	 -0.685516	 0.069626	 1
1463623546.400	 11	 -0.023632	 0.208256	 -0.001080	 3.075303	 -1.520034	 0.130396	 -0.069980	 0.721400	 -0.685527	 0.068829	 1
1463623546.410	 11	 -0.031120	 0.205080	 -0.002114	 3.083233	 -1.519853	 0.136277	 -0.069385	 0.721528	 -0.685537	 0.067982	 1
1463623546.420	 11	 -0.020468	 0.207122	 -0.009651	 3.091761	 -1.519687	 0.142740	 -0.068796	 0.721650	 -0.685553	 0.067118	 1
1463623546.430	 11	 -0.005594	 0.209065	 -0.028949	 3.102679	 -1.519689	 0.151578	 -0.068242	 0.721711	 -0.685634	 0.066208	 1
1463623546.440	 11	 -0.023893	 0.237546	 -0.070099	 3.117048	 -1.519481	 0.163641	 -0.067674	 0.721844	 -0.685650	 0.065153	 1
1463623546.450	 11	 -0.045202	 0.248216	 -0.074078	 3.135438	 -1.519078	 0.179593	 -0.067139	 0.722038	 -0.685610	 0.063972	 1
1463623546.460	 11	 -0.062149	 0.261154	 -0.056758	 -3.132790	 -1.518315	 0.191972	 -0.066506	 0.722360	 -0.685442	 0.062788	 1
1463623546.470	 11	 -0.063125	 0.265543	 -0.038590	 -3.122952	 -1.517612	 0.199182	 -0.065765	 0.722668	 -0.685289	 0.061678	 1
1463623546.480	 11	 -0.052438	 0.258158	 -0.025961	 -3.118176	 -1.517038	 0.201362	 -0.064939	 0.722940	 -0.685171	 0.060676	 1
1463623546.490	 11	 -0.045048	 0.230573	 -0.013491	 -3.116732	 -1.516569	 0.200437	 -0.064128	 0.723173	 -0.685077	 0.059818	 1
1463623546.500	 11	 -0.040836	 0.207260	 0.000113	 -3.117279	 -1.516136	 0.197776	 -0.063370	 0.723390	 -0.684982	 0.059087	 1
1463623546.510	 11	 -0.045138	 0.191395	 0.010661	 -3.118534	 -1.515683	 0.194570	 -0.062657	 0.723609	 -0.684873	 0.058425	 1
1463623546.520	 11	 -0.059022	 0.193525	 0.005473	 -3.117301	 -1.515086	 0.193886	 -0.062009	 0.723870	 -0.684716	 0.057721	 1
1463623546.530	 11	 -0.054679	 0.226339	 -0.014512	 -3.109691	 -1.514451	 0.199350	 -0.061407	 0.724136	 -0.684565	 0.056811	 1
1463623546.540	 11	 -0.033085	 0.297386	 -0.035357	 -3.097939	 -1.513857	 0.208316	 -0.060657	 0.724395	 -0.684457	 0.055598	 1
1463623546.550	 11	 -0.016838	 0.357883	 -0.046662	 -3.082793	 -1.513517	 0.220016	 -0.059727	 0.724574	 -0.684469	 0.054100	 1
1463623546.560	 11	 -0.010318	 0.383384	 -0.047548	 -3.069611	 -1.513388	 0.229425	 -0.058631	 0.724690	 -0.684563	 0.052538	 1
1463623546.570	 11	 0.002428	 0.365309	 -0.041432	 -3.059125	 -1.513464	 0.236198	 -0.057492	 0.724740	 -0.684719	 0.051060	 1
1463623546.580	 11	 0.013919	 0.312098	 -0.040960	 -3.049396	 -1.513640	 0.242672	 -0.056496	 0.724741	 -0.684896	 0.049762	 1
1463623546.590	 11	 0.024173	 0.224838	 -0.042927	 -3.040070	 -1.513976	 0.249530	 -0.055767	 0.724664	 -0.685109	 0.048752	 1
1463623546.600	 11	 0.046165	 0.136487	 -0.043940	 -3.031026	 -1.514508	 0.257027	 -0.055351	 0.724495	 -0.685369	 0.048078	 1
1463623546.610	 11	 0.072587	 0.085327	 -0.047842	 -3.021991	 -1.515116	 0.265124	 -0.055148	 0.724283	 -0.685642	 0.047622	 1
1463623546.620	 11	 0.088473	 0.072407	 -0.063021	 -3.009571	 -1.515850	 0.276829	 -0.055076	 0.724007	 -0.685969	 0.047190	 1
1463623546.630	 11	 0.086410	 0.105233	 -0.084013	 -2.992324	 -1.516583	 0.293166	 -0.055018	 0.723716	 -0.686320	 0.046608	 1
1463623546.640	 11	 0.074948	 0.174313	 -0.096059	 -2.972565	 -1.517041	 0.311404	 -0.054798	 0.723518	 -0.686604	 0.045756	 1
1463623546.650	 11	 0.053954	 0.249882	 -0.097302	 -2.953494	 -1.517315	 0.328196	 -0.054300	 0.723400	 -0.686841	 0.044647	 1
1463623546.660	 11	 0.023330	 0.314889	 -0.092165	 -2.938035	 -1.517242	 0.340701	 -0.053521	 0.723428	 -0.686957	 0.043343	 1
1463623546.670	 11	 0.006564	 0.372447	 -0.081887	 -2.925499	 -1.516923	 0.349683	 -0.052495	 0.723562	 -0.686986	 0.041863	 1
1463623546.680	 11	 -0.004999	 0.393894	 -0.062400	 -2.914743	 -1.516623	 0.356538	 -0.051310	 0.723704	 -0.687020	 0.040295	 1
1463623546.690	 11	 -0.010405	 0.367419	 -0.048743	 -2.904291	 -1.516504	 0.363248	 -0.050160	 0.723779	 -0.687111	 0.038806	 1
1463623546.700	 11	 -0.004144	 0.330233	 -0.040616	 -2.895287	 -1.516456	 0.368868	 -0.049105	 0.723827	 -0.687211	 0.037473	 1
1463623546.710	 11	 0.005214	 0.272813	 -0.034837	 -2.886242	 -1.516489	 0.375041	 -0.048228	 0.723833	 -0.687328	 0.036325	 1
1463623546.720	 11	 0.011319	 0.208981	 -0.034419	 -2.875564	 -1.516682	 0.383482	 -0.047591	 0.723760	 -0.687499	 0.035383	 1
1463623546.730	 11	 0.016496	 0.177040	 -0.036894	 -2.864786	 -1.516852	 0.392446	 -0.047110	 0.723681	 -0.687656	 0.034584	 1
1463623546.740	 11	 0.010190	 0.191996	 -0.030306	 -2.855580	 -1.516912	 0.399804	 -0.046600	 0.723646	 -0.687767	 0.033790	 1
1463623546.750	 11	 -0.002398	 0.232500	 -0.023425	 -2.847936	 -1.516812	 0.405241	 -0.045950	 0.723680	 -0.687819	 0.032882	 1
1463623546.760	 11	 -0.006467	 0.278220	 -0.027228	 -2.840479	 -1.516604	 0.410033	 -0.045145	 0.723758	 -0.687840	 0.031806	 1
1463623546.770	 11	 -0.006363	 0.303717	 -0.031255	 -2.831858	 -1.516395	 0.415667	 -0.044245	 0.723834	 -0.687874	 0.030598	 1
1463623546.780	 11	 -0.007444	 0.303697	 -0.034445	 -2.820889	 -1.516113	 0.423587	 -0.043374	 0.723915	 -0.687899	 0.029316	 1
1463623546.790	 11	 -0.007593	 0.277067	 -0.040023	 -2.808682	 -1.515813	 0.432959	 -0.042607	 0.723985	 -0.687926	 0.028082	 1
1463623546.800	 11	 -0.012034	 0.240915	 -0.040322	 -2.798561	 -1.515469	 0.440589	 -0.041934	 0.724072	 -0.687919	 0.026996	 1
1463623546.810	 11	 -0.021726	 0.205989	 -0.020311	 -2.796000	 -1.515145	 0.441010	 -0.041249	 0.724200	 -0.687858	 0.026170	 1
1463623546.820	 11	 -0.037851	 0.158373	 0.007100	 -2.801856	 -1.514778	 0.433438	 -0.040570	 0.724395	 -0.687712	 0.025637	 1
1463623546.830	 11	 -0.049750	 0.104338	 0.031217	 -2.814036	 -1.514465	 0.420077	 -0.039958	 0.724608	 -0.687532	 0.025414	 1
1463623546.840	 11	 -0.053039	 0.073609	 0.045884	 -2.827969	 -1.514122	 0.405341	 -0.039450	 0.724834	 -0.687326	 0.025354	 1
1463623546.850	 11	 -0.053087	 0.056652	 0.054253	 -2.839661	 -1.513721	 0.393022	 -0.039052	 0.725057	 -0.687115	 0.025310	 1
1463623546.860	 11	 -0.047832	 0.040674	 0.052990	 -2.847141	 -1.513297	 0.385078	 -0.038791	 0.725253	 -0.686925	 0.025243	 1
1463623546.870	 11	 -0.042492	 0.053322	 0.039201	 -2.848512	 -1.512879	 0.383215	 -0.038635	 0.725407	 -0.686778	 0.025051	 1
1463623546.880	 11	 -0.028437	 0.088412	 0.043663	 -2.849868	 -1.512461	 0.381041	 -0.038361	 0.725567	 -0.686636	 0.024747	 1
1463623546.890	 11	 -0.044299	 0.087675	 0.082155	 -2.853951	 -1.511974	 0.376003	 -0.037991	 0.725771	 -0.686452	 0.024443	 1
1463623546.900	 11	 -0.096432	 0.071246	 0.142133	 -2.869457	 -1.511314	 0.359713	 -0.037473	 0.726103	 -0.686130	 0.024406	 1
1463623546.910	 11	 -0.127300	 0.074653	 0.159483	 -2.897522	 -1.510085	 0.330827	 -0.036733	 0.726697	 -0.685535	 0.024564	 1
1463623546.920	 11	 -0.119983	 0.056432	 0.143259	 -2.919292	 -1.508978	 0.308397	 -0.036146	 0.727202	 -0.685026	 0.024685	 1
1463623546.930	 11	 -0.109329	 0.054266	 0.142073	 -2.936454	 -1.507884	 0.290613	 -0.035652	 0.727671	 -0.684552	 0.024739	 1
1463623546.940	 11	 -0.108597	 0.018861	 0.100168	 -2.951524	 -1.506831	 0.275190	 -0.035283	 0.728107	 -0.684103	 0.024858	 1
1463623546.950	 11	 -0.121941	 -0.082257	 0.084421	 -2.966111	 -1.505986	 0.261126	 -0.035216	 0.728454	 -0.683722	 0.025293	 1
1463623546.960	 11	 -0.124242	 -0.105760	 0.069302	 -2.980278	 -1.505259	 0.247894	 -0.035291	 0.728749	 -0.683381	 0.025877	 1
1463623546.970	 11	 -0.117794	 -0.215381	 0.208910	 -3.014061	 -1.505035	 0.215892	 -0.035185	 0.728939	 -0.683131	 0.027241	 1
1463623546.980	 11	 -0.117877	 -0.364215	 0.365259	 -3.068631	 -1.504197	 0.164487	 -0.035118	 0.729351	 -0.682599	 0.029541	 1
1463623546.990	 11	 -0.109562	 -0.505946	 0.477904	 -3.140904	 -1.503242	 0.096777	 -0.035103	 0.729739	 -0.682037	 0.032777	 1
1463623547.000	 11	 -0.072503	 -0.654214	 0.580646	 3.055101	 -1.502162	 0.015573	 -0.035188	 0.730016	 -0.681524	 0.036908	 1
1463623547.010	 11	 0.007145	 -0.789076	 0.642644	 2.957601	 -1.501253	 -0.074560	 -0.035478	 0.729999	 -0.681245	 0.041816	 1
1463623547.020	 11	 0.116579	 -0.907325	 0.660840	 2.854413	 -1.500576	 -0.169196	 -0.036049	 0.729620	 -0.681264	 0.047279	 1
1463623547.030	 11	 0.241013	 -1.006528	 0.671622	 2.745236	 -1.500306	 -0.268775	 -0.036914	 0.728782	 -0.681679	 0.053183	 1
1463623547.040	 11	 0.332957	 -0.984350	 0.687015	 2.628757	 -1.500125	 -0.375486	 -0.037758	 0.727557	 -0.682443	 0.059226	 1
1463623547.050	 11	 0.336173	 -0.752515	 0.683815	 2.513588	 -1.499295	 -0.482711	 -0.037965	 0.726267	 -0.683315	 0.064617	 1
1463623547.060	 11	 0.254445	 -0.422638	 0.672676	 2.412258	 -1.497230	 -0.579228	 -0.037160	 0.725273	 -0.684006	 0.068811	 1
1463623547.070	 11	 0.144824	 -0.165707	 0.711191	 2.327860	 -1.493602	 -0.661626	 -0.035334	 0.724730	 -0.684345	 0.072038	 1
1463623547.080	 11	 0.013442	 -0.027573	 0.786092	 2.259565	 -1.488174	 -0.729593	 -0.032729	 0.724676	 -0.684228	 0.074863	 1
1463623547.090	 11	 -0.144114	 0.045291	 0.796668	 2.211861	 -1.481217	 -0.777772	 -0.029756	 0.725166	 -0.683554	 0.077485	 1
1463623547.100	 11	 -0.310995	 0.087537	 0.688718	 2.190610	 -1.473798	 -0.799888	 -0.026985	 0.726223	 -0.682299	 0.079628	 1
1463623547.110	 11	 -0.397772	 0.116706	 0.569314	 2.188320	 -1.466725	 -0.803320	 -0.024588	 0.727647	 -0.680684	 0.081201	 1
1463623547.120	 11	 -0.384403	 0.065137	 0.503706	 2.191067	 -1.460231	 -0.801433	 -0.022570	 0.729081	 -0.679051	 0.082596	 1
1463623547.130	 11	 -0.308681	 -0.111100	 0.432133	 2.190995	 -1.454639	 -0.800877	 -0.021273	 0.730224	 -0.677651	 0.084319	 1
1463623547.140	 11	 -0.210565	 -0.318011	 0.393117	 2.185283	 -1.450043	 -0.803964	 -0.020824	 0.730952	 -0.676591	 0.086601	 1
1463623547.150	 11	 -0.106672	 -0.520975	 0.460664	 2.169058	 -1.445686	 -0.815546	 -0.020877	 0.731234	 -0.675867	 0.089801	 1
1463623547.160	 11	 -0.010758	 -0.627998	 0.554752	 2.142280	 -1.441060	 -0.836420	 -0.020998	 0.731127	 -0.675434	 0.093815	 1
1463623547.170	 11	 0.084965	 -0.566820	 0.669590	 2.107105	 -1.435969	 -0.865983	 -0.020618	 0.730696	 -0.675300	 0.098121	 1
1463623547.180	 11	 0.135903	 -0.466429	 0.746816	 2.068223	 -1.430215	 -0.900276	 -0.019539	 0.730101	 -0.675340	 0.102403	 1
1463623547.190	 11	 0.118092	 -0.406725	 0.759250	 2.031932	 -1.424043	 -0.932679	 -0.018119	 0.729524	 -0.675366	 0.106526	 1
1463623547.200	 11	 0.054927	 -0.423779	 0.728734	 2.002400	 -1.417693	 -0.958418	 -0.016764	 0.729121	 -0.675195	 0.110515	 1
1463623547.210	 11	 -0.019613	 -0.566507	 0.670503	 1.979429	 -1.411434	 -0.976384	 -0.016028	 0.728883	 -0.674766	 0.114733	 1
1463623547.220	 11	 -0.064724	 -0.787119	 0.591043	 1.960857	 -1.405579	 -0.987791	 -0.016302	 0.728700	 -0.674138	 0.119454	 1
1463623547.230	 11	 -0.081186	 -1.066110	 0.539565	 1.943122	 -1.400210	 -0.995707	 -0.017700	 0.728399	 -0.673439	 0.124910	 1
1463623547.240	 11	 -0.065274	 -1.336108	 0.567821	 1.922994	 -1.394724	 -1.003206	 -0.020001	 0.727882	 -0.672693	 0.131422	 1
1463623547.250	 11	 -0.005860	 -1.461344	 0.629018	 1.898478	 -1.388901	 -1.013503	 -0.022631	 0.727048	 -0.672050	 0.138703	 1
1463623547.260	 11	 0.028621	 -1.482988	 0.738290	 1.870779	 -1.382214	 -1.026603	 -0.025012	 0.725998	 -0.671451	 0.146477	 1
1463623547.270	 11	 0.014212	 -1.433474	 0.813480	 1.843712	 -1.374620	 -1.039413	 -0.026967	 0.724943	 -0.670736	 0.154413	 1
1463623547.280	 11	 -0.034349	 -1.355394	 0.854062	 1.820124	 -1.366423	 -1.049430	 -0.028542	 0.724034	 -0.669808	 0.162225	 1
1463623547.290	 11	 -0.160848	 -1.292966	 0.904770	 1.802825	 -1.357461	 -1.053766	 -0.029788	 0.723502	 -0.668420	 0.169916	 1
1463623547.300	 11	 -0.334135	 -1.202680	 0.964670	 1.793569	 -1.347557	 -1.050676	 -0.030698	 0.723543	 -0.666366	 0.177481	 1
1463623547.310	 11	 -0.534011	 -1.106880	 1.040839	 1.792862	 -1.336546	 -1.039796	 -0.031204	 0.724284	 -0.663518	 0.184888	 1
1463623547.320	 11	 -0.734118	 -1.080041	 1.140881	 1.799092	 -1.324134	 -1.022270	 -0.031371	 0.725704	 -0.659816	 0.192387	 1
1463623547.330	 11	 -0.908130	 -1.155571	 1.215231	 1.809688	 -1.310464	 -0.999622	 -0.031595	 0.727637	 -0.655304	 0.200306	 1
1463623547.340	 11	 -1.001446	 -1.277421	 1.241554	 1.821226	 -1.296065	 -0.974774	 -0.032149	 0.729782	 -0.650248	 0.208717	 1
1463623547.350	 11	 -0.963436	 -1.599723	 1.253144	 1.828154	 -1.281514	 -0.951957	 -0.033486	 0.731562	 -0.645088	 0.218077	 1
1463623547.360	 11	 -0.769579	 -1.907645	 1.257117	 1.825402	 -1.267250	 -0.935524	 -0.035738	 0.732369	 -0.640342	 0.228737	 1
1463623547.370	 11	 -0.614056	 -2.166795	 1.224576	 1.814406	 -1.253715	 -0.925066	 -0.038665	 0.732194	 -0.636152	 0.240224	 1
1463623547.380	 11	 -0.610305	 -2.299557	 1.252084	 1.800358	 -1.240292	 -0.915732	 -0.042146	 0.731537	 -0.631960	 0.252397	 1
1463623547.390	 11	 -0.773349	 -2.130110	 1.378708	 1.790090	 -1.225509	 -0.903350	 -0.045061	 0.731290	 -0.627070	 0.264515	 1
1463623547.400	 11	 -0.858203	 -1.735934	 1.579215	 1.785202	 -1.208865	 -0.888984	 -0.046379	 0.731791	 -0.621512	 0.275779	 1
1463623547.410	 11	 -0.868426	 -1.471809	 1.916412	 1.781931	 -1.189158	 -0.876205	 -0.045602	 0.732766	 -0.615407	 0.286789	 1
1463623547.420	 11	 -0.925949	 -1.512749	 2.260772	 1.777454	 -1.166017	 -0.864896	 -0.043521	 0.733832	 -0.608579	 0.298711	 1
1463623547.430	 11	 -1.015737	 -1.604664	 2.602809	 1.772098	 -1.139351	 -0.853440	 -0.040583	 0.734956	 -0.600747	 0.311923	 1
1463623547.440	 11	 -1.043836	 -1.735096	 2.938621	 1.764820	 -1.109298	 -0.842725	 -0.036799	 0.735917	 -0.592023	 0.326468	 1
1463623547.450	 11	 -0.958590	 -1.872833	 3.339455	 1.753329	 -1.075721	 -0.834872	 -0.031975	 0.736273	 -0.582681	 0.342582	 1
1463623547.460	 11	 -0.839610	 -1.850257	 3.713776	 1.738827	 -1.038538	 -0.830268	 -0.025520	 0.736060	 -0.572849	 0.359734	 1
1463623547.470	 11	 -0.688043	 -1.996168	 3.894409	 1.721136	 -0.999336	 -0.828165	 -0.018226	 0.734964	 -0.562845	 0.377759	 1
1463623547.480	 11	 -0.563728	 -2.135658	 3.922936	 1.700900	 -0.959619	 -0.827334	 -0.010818	 0.732876	 -0.552889	 0.396345	 1
1463623547.490	 11	 -0.431433	 -2.370034	 3.923866	 1.677508	 -0.920268	 -0.827524	 -0.003814	 0.729546	 -0.543211	 0.415537	 1
1463623547.500	 11	 -0.442438	 -2.082017	 4.035349	 1.656088	 -0.879907	 -0.826733	 0.003934	 0.726035	 -0.533099	 0.434354	 1
1463623547.510	 11	 -0.275112	 -1.953202	 3.826202	 1.637530	 -0.840652	 -0.825975	 0.012274	 0.722556	 -0.523257	 0.451624	 1
1463623547.520	 11	 0.216072	 -2.206685	 3.391130	 1.613042	 -0.805674	 -0.830073	 0.019522	 0.717109	 -0.515674	 0.468460	 1
1463623547.530	 11	 0.711565	 -2.511604	 2.758376	 1.581884	 -0.776628	 -0.839656	 0.025114	 0.709453	 -0.511110	 0.484574	 1
1463623547.540	 11	 1.048158	 -2.731502	 2.052128	 1.545960	 -0.754228	 -0.853095	 0.028616	 0.700094	 -0.509442	 0.499518	 1
1463623547.550	 11	 1.003883	 -3.074514	 1.521769	 1.507071	 -0.737496	 -0.866181	 0.029254	 0.689621	 -0.509343	 0.513943	 1
1463623547.560	 11	 0.813455	 -3.273943	 1.371299	 1.468276	 -0.722957	 -0.876071	 0.028032	 0.678855	 -0.509113	 0.528370	 1
1463623547.570	 11	 0.556574	 -3.251544	 1.422769	 1.431316	 -0.708225	 -0.882228	 0.026110	 0.668222	 -0.507944	 0.542946	 1
1463623547.580	 11	 0.111270	 -2.606992	 1.390013	 1.403252	 -0.693963	 -0.882293	 0.024302	 0.659783	 -0.505168	 0.555789	 1
1463623547.590	 11	 -0.080076	 -1.831425	 1.193204	 1.385523	 -0.681783	 -0.878643	 0.023178	 0.654176	 -0.501696	 0.565525	 1
1463623547.600	 11	 0.161168	 -1.617953	 0.954359	 1.370098	 -0.671688	 -0.877219	 0.022634	 0.649202	 -0.499277	 0.573364	 1
1463623547.610	 11	 0.454559	 -1.743217	 0.813156	 1.351373	 -0.662638	 -0.879830	 0.022212	 0.643199	 -0.498296	 0.580949	 1
1463623547.620	 11	 0.628854	 -1.781942	 0.676992	 1.330358	 -0.654301	 -0.885074	 0.021807	 0.636436	 -0.498295	 0.588367	 1
1463623547.630	 11	 0.657126	 -1.691266	 0.432464	 1.309178	 -0.647829	 -0.891595	 0.021050	 0.629632	 -0.499105	 0.594991	 1
1463623547.640	 11	 0.487460	 -1.517807	 0.229863	 1.290207	 -0.643756	 -0.897199	 0.019621	 0.623592	 -0.500142	 0.600504	 1
1463623547.650	 11	 0.191330	 -1.382034	 0.205995	 1.274603	 -0.641084	 -0.899713	 0.017523	 0.618651	 -0.500509	 0.605355	 1
1463623547.660	 11	 -0.085870	 -1.485139	 0.396089	 1.261099	 -0.637919	 -0.898234	 0.014910	 0.614297	 -0.499541	 0.610635	 1
1463623547.670	 11	 -0.290874	 -1.783157	 0.724422	 1.247246	 -0.632652	 -0.892892	 0.011859	 0.609638	 -0.496959	 0.617441	 1
1463623547.680	 11	 -0.461912	 -2.232400	 1.186403	 1.231540	 -0.623986	 -0.883731	 0.008557	 0.604061	 -0.492497	 0.626485	 1
1463623547.690	 11	 -0.642491	 -2.799602	 1.805102	 1.212980	 -0.610585	 -0.869979	 0.005119	 0.597076	 -0.485602	 0.638486	 1
1463623547.700	 11	 -0.851707	 -3.298914	 2.387381	 1.191831	 -0.592447	 -0.851084	 0.001559	 0.588679	 -0.476007	 0.653355	 1
1463623547.710	 11	 -0.995006	 -3.660728	 2.743358	 1.168620	 -0.571459	 -0.828250	 -0.002254	 0.579120	 -0.464359	 0.670064	 1
1463623547.720	 11	 -1.098338	 -3.804558	 2.961401	 1.144253	 -0.549140	 -0.802833	 -0.006214	 0.568782	 -0.451324	 0.687572	 1
1463623547.730	 11	 -1.186635	 -3.662665	 3.131880	 1.121145	 -0.526037	 -0.775282	 -0.009803	 0.558534	 -0.437118	 0.704891	 1
1463623547.740	 11	 -1.329502	 -3.202588	 3.156589	 1.102251	 -0.503472	 -0.745911	 -0.012830	 0.549599	 -0.422102	 0.720837	 1
1463623547.750	 11	 -1.484417	 -2.561834	 3.157506	 1.089691	 -0.482046	 -0.714936	 -0.015123	 0.542916	 -0.406483	 0.734701	 1
1463623547.760	 11	 -1.587182	 -1.993195	 3.208454	 1.083033	 -0.461045	 -0.682718	 -0.016512	 0.538394	 -0.390258	 0.746698	 1
1463623547.770	 11	 -1.640308	 -1.534257	 3.259015	 1.080950	 -0.440087	 -0.649771	 -0.017087	 0.535610	 -0.373539	 0.757165	 1
1463623547.780	 11	 -1.618857	 -1.111614	 3.321378	 1.082468	 -0.418530	 -0.616872	 -0.016662	 0.534223	 -0.356481	 0.766322	 1
1463623547.790	 11	 -1.542959	 -0.664840	 3.360044	 1.087456	 -0.396270	 -0.584738	 -0.015117	 0.534237	 -0.339341	 0.774087	 1
1463623547.800	 11	 -1.388636	 -0.226837	 3.540759	 1.095688	 -0.371865	 -0.553730	 -0.011883	 0.535513	 -0.321935	 0.780668	 1
1463623547.810	 11	 -1.264113	 0.214562	 3.737751	 1.107346	 -0.344850	 -0.523602	 -0.006892	 0.538139	 -0.304029	 0.786082	 1
1463623547.820	 11	 -1.085613	 0.353575	 3.912275	 1.120137	 -0.315100	 -0.494791	 -0.000401	 0.541242	 -0.285711	 0.790839	 1
1463623547.830	 11	 -0.921267	 0.246595	 4.039872	 1.131028	 -0.283034	 -0.467657	 0.007072	 0.543649	 -0.267197	 0.795614	 1
1463623547.840	 11	 -0.773595	 -0.156635	 4.082793	 1.137403	 -0.249489	 -0.442169	 0.014892	 0.544337	 -0.248711	 0.801011	 1
1463623547.850	 11	 -0.594985	 -0.706378	 4.028163	 1.137110	 -0.215459	 -0.418727	 0.022627	 0.542436	 -0.230752	 0.807468	 1
1463623547.860	 11	 -0.395834	 -1.144975	 3.908311	 1.130836	 -0.181632	 -0.397629	 0.030314	 0.538175	 -0.213713	 0.814724	 1
1463623547.870	 11	 -0.229409	 -1.498473	 3.776747	 1.119854	 -0.148431	 -0.378533	 0.037947	 0.532024	 -0.197648	 0.822464	 1
1463623547.880	 11	 -0.064666	 -1.775218	 3.668293	 1.105028	 -0.115767	 -0.361104	 0.045644	 0.524276	 -0.182466	 0.830517	 1
1463623547.890	 11	 0.062010	 -1.957367	 3.535472	 1.087470	 -0.083850	 -0.345012	 0.053388	 0.515366	 -0.168129	 0.838618	 1
1463623547.900	 11	 0.141902	 -2.082123	 3.378014	 1.067977	 -0.053160	 -0.329906	 0.060980	 0.505641	 -0.154639	 0.846578	 1
1463623547.910	 11	 0.205060	 -2.140834	 3.227711	 1.047209	 -0.023791	 -0.315526	 0.068376	 0.495379	 -0.141925	 0.854273	 1
1463623547.920	 11	 0.277213	 -2.118601	 3.096201	 1.026007	 0.004440	 -0.301819	 0.075697	 0.484926	 -0.129908	 0.861534	 1
1463623547.930	 11	 0.376626	 -2.018414	 3.018468	 1.005172	 0.032034	 -0.288809	 0.083198	 0.474599	 -0.118457	 0.868218	 1
1463623547.940	 11	 0.489744	 -1.824892	 3.056586	 0.985722	 0.060045	 -0.276123	 0.091280	 0.464796	 -0.107121	 0.874161	 1
1463623547.950	 11	 0.611036	 -1.574231	 3.203873	 0.968330	 0.089486	 -0.263192	 0.100261	 0.455788	 -0.095379	 0.879265	 1
1463623547.960	 11	 0.814049	 -1.481745	 3.425711	 0.951989	 0.121395	 -0.249990	 0.110518	 0.447089	 -0.083028	 0.883744	 1
1463623547.970	 11	 1.138397	 -1.668416	 3.628973	 0.934193	 0.156574	 -0.237344	 0.122487	 0.437492	 -0.070419	 0.888054	 1
1463623547.980	 11	 1.492210	 -2.080363	 3.726504	 0.912549	 0.194632	 -0.226025	 0.136119	 0.425888	 -0.058219	 0.892581	 1
1463623547.990	 11	 1.753715	 -2.507767	 3.708527	 0.886300	 0.234323	 -0.215958	 0.150881	 0.411987	 -0.046861	 0.897388	 1
1463623548.000	 11	 1.808830	 -2.687706	 3.558231	 0.857261	 0.273552	 -0.206308	 0.165754	 0.396785	 -0.036412	 0.902087	 1
1463623548.010	 11	 1.689430	 -2.641618	 3.265549	 0.827868	 0.310018	 -0.196510	 0.179651	 0.381609	 -0.026937	 0.906297	 1
1463623548.020	 11	 1.498150	 -2.751904	 2.794056	 0.797774	 0.341865	 -0.187184	 0.191830	 0.366409	 -0.019087	 0.910265	 1
1463623548.040	 11	 1.436616	 -2.756880	 2.083682	 0.736726	 0.394381	 -0.172723	 0.212549	 0.336030	 -0.008625	 0.917514	 1
1463623548.030	 11	 1.411906	 -2.814222	 2.379646	 0.766903	 0.369380	 -0.179191	 0.202528	 0.351048	 -0.013137	 0.914098	 1
1463623548.050	 11	 1.509629	 -2.688629	 1.844950	 0.707710	 0.417992	 -0.167878	 0.222358	 0.321465	 -0.005293	 0.920429	 1
1463623548.060	 11	 1.585898	 -2.621344	 1.621101	 0.679930	 0.440557	 -0.164702	 0.232064	 0.307349	 -0.003063	 0.922862	 1
1463623548.070	 11	 1.634630	 -2.527237	 1.417991	 0.653575	 0.462015	 -0.162992	 0.241559	 0.293786	 -0.001797	 0.924844	 1
1463623548.080	 11	 1.630106	 -2.425409	 1.231401	 0.628731	 0.482167	 -0.162430	 0.250665	 0.280861	 -0.001336	 0.926435	 1
1463623548.090	 12	 1.560345	 -2.358205	 1.084464	 0.604976	 0.500671	 -0.162445	 0.259118	 0.268473	 -0.001481	 0.927781	 1
1463623548.110	 12	 1.350035	 -2.199581	 0.873538	 0.559767	 0.532336	 -0.162337	 0.273578	 0.245141	 -0.002757	 0.930082	 1
1463623548.120	 12	 1.328686	 -2.125717	 0.783819	 0.538493	 0.547545	 -0.162469	 0.280546	 0.234105	 -0.003627	 0.930846	 1
1463623548.130	 12	 1.373574	 -2.063512	 0.726455	 0.518060	 0.562798	 -0.163067	 0.287584	 0.223389	 -0.004735	 0.931327	 1
1463623548.140	 12	 1.426164	 -1.976656	 0.698028	 0.498609	 0.578447	 -0.163986	 0.294830	 0.213051	 -0.005940	 0.931477	 1
1463623548.150	 12	 1.425555	 -1.883028	 0.702102	 0.479927	 0.594351	 -0.164651	 0.302155	 0.203090	 -0.007017	 0.931347	 1
1463623548.160	 12	 1.348191	 -1.803790	 0.744012	 0.461513	 0.609909	 -0.164296	 0.309207	 0.193441	 -0.007755	 0.931081	 1
1463623548.170	 12	 1.186215	 -1.789183	 0.786057	 0.442503	 0.624385	 -0.162319	 0.315603	 0.183862	 -0.008089	 0.930873	 1
1463623548.180	 12	 0.949125	 -1.800413	 0.754978	 0.422515	 0.636803	 -0.158924	 0.320932	 0.174225	 -0.008277	 0.930903	 1
1463623548.190	 12	 0.672082	 -1.828191	 0.626043	 0.402016	 0.646257	 -0.155062	 0.324871	 0.164657	 -0.008758	 0.931274	 1
1463623548.200	 12	 0.399213	 -1.837175	 0.450353	 0.381510	 0.652457	 -0.151550	 0.327353	 0.155264	 -0.009822	 0.932007	 1
1463623548.210	 13	 0.202249	 -1.829259	 0.289080	 0.361549	 0.655916	 -0.148836	 0.328640	 0.146180	 -0.011487	 0.933004	 1
1463623548.230	 13	 0.168417	 -1.899063	 0.183215	 0.322225	 0.660080	 -0.145387	 0.330061	 0.128125	 -0.015969	 0.935087	 1
1463623548.240	 13	 0.243353	 -1.878823	 0.217921	 0.302339	 0.662842	 -0.143741	 0.331071	 0.118932	 -0.018251	 0.935903	 1
1463623548.250	 13	 0.348615	 -1.757685	 0.244776	 0.283330	 0.666609	 -0.141999	 0.332539	 0.110109	 -0.020287	 0.936420	 1
1463623548.260	 13	 0.464719	 -1.584598	 0.252836	 0.266056	 0.671489	 -0.140418	 0.334542	 0.102013	 -0.022057	 0.936583	 1
1463623548.270	 13	 0.558756	 -1.319083	 0.237435	 0.251357	 0.677303	 -0.139164	 0.337018	 0.095027	 -0.023518	 0.936395	 1
1463623548.290	 14	 0.584660	 -0.778018	 0.204943	 0.231417	 0.689845	 -0.137671	 0.342540	 0.085292	 -0.025353	 0.935280	 1
1463623548.300	 15	 0.524171	 -0.725554	 0.228339	 0.223309	 0.695614	 -0.136428	 0.345067	 0.081420	 -0.025792	 0.934684	 1
1463623548.320	 15	 0.341281	 -0.727861	 0.129728	 0.207349	 0.704473	 -0.134150	 0.348884	 0.073917	 -0.026948	 0.933857	 1
1463623548.330	 15	 0.212895	 -0.753384	 0.078386	 0.199534	 0.707065	 -0.133641	 0.349963	 0.070231	 -0.027923	 0.933710	 1
1463623548.340	 15	 0.084647	 -0.766004	 0.046347	 0.191646	 0.708309	 -0.133247	 0.350415	 0.066558	 -0.029050	 0.933775	 1
1463623548.350	 15	 -0.023171	 -0.747823	 0.016547	 0.183894	 0.708377	 -0.132947	 0.350322	 0.062987	 -0.030264	 0.934019	 1
1463623548.360	 15	 -0.091253	 -0.677633	 -0.012048	 0.176851	 0.707612	 -0.132829	 0.349854	 0.059754	 -0.031482	 0.934366	 1
1463623548.380	 16	 -0.026969	 -0.626745	 -0.008937	 0.164457	 0.706114	 -0.133050	 0.348961	 0.053992	 -0.033828	 0.934969	 1
1463623548.390	 16	 0.058316	 -0.677771	 0.029279	 0.157690	 0.706520	 -0.132884	 0.349029	 0.050839	 -0.034911	 0.935080	 1
1463623548.400	 16	 0.115046	 -0.675520	 0.069305	 0.150566	 0.707631	 -0.132322	 0.349407	 0.047557	 -0.035840	 0.935077	 1
1463623548.410	 16	 0.127988	 -0.702727	 0.136082	 0.142766	 0.709048	 -0.131019	 0.349896	 0.044076	 -0.036530	 0.935038	 1
1463623548.420	 16	 0.119693	 -0.703317	 0.197963	 0.134292	 0.710528	 -0.128849	 0.350384	 0.040432	 -0.036934	 0.935004	 1
1463623548.430	 16	 0.065729	 -0.658033	 0.260668	 0.125583	 0.711660	 -0.125785	 0.350691	 0.036851	 -0.036981	 0.935035	 1
1463623548.440	 16	 0.019148	 -0.592893	 0.277666	 0.117126	 0.712282	 -0.122173	 0.350762	 0.033506	 -0.036751	 0.935143	 1
1463623548.450	 16	 0.007701	 -0.482661	 0.220175	 0.109943	 0.712632	 -0.119061	 0.350744	 0.030679	 -0.036543	 0.935255	 1
1463623548.460	 16	 0.040094	 -0.330222	 0.133919	 0.104926	 0.713092	 -0.117046	 0.350837	 0.028670	 -0.036464	 0.935287	 1
1463623548.480	 17	 0.182941	 -0.037940	 0.016030	 0.101773	 0.715843	 -0.116326	 0.352052	 0.027222	 -0.036587	 0.934869	 1
1463623548.490	 17	 0.221033	 0.116195	 0.019264	 0.102531	 0.717975	 -0.116342	 0.353061	 0.027497	 -0.036388	 0.934488	 1
1463623548.500	 17	 0.226918	 0.217351	 0.037206	 0.104445	 0.720267	 -0.116256	 0.354162	 0.028323	 -0.035931	 0.934064	 1
1463623548.510	 17	 0.195227	 0.262321	 0.065610	 0.106655	 0.722375	 -0.115770	 0.355177	 0.029364	 -0.035238	 0.933673	 1
1463623548.520	 17	 0.136531	 0.251945	 0.077748	 0.108714	 0.723968	 -0.114979	 0.355943	 0.030408	 -0.034447	 0.933378	 1
1463623548.530	 17	 0.073271	 0.205193	 0.058680	 0.110412	 0.724922	 -0.114245	 0.356404	 0.031296	 -0.033768	 0.933197	 1
1463623548.540	 17	 0.018396	 0.131778	 0.032896	 0.111616	 0.725281	 -0.113777	 0.356584	 0.031928	 -0.033322	 0.933123	 1
1463623548.550	 17	 -0.028017	 0.016022	 0.038618	 0.111774	 0.725154	 -0.113293	 0.356520	 0.032093	 -0.033073	 0.933150	 1
1463623548.560	 17	 -0.064704	 -0.092163	 0.065640	 0.110526	 0.724656	 -0.112442	 0.356254	 0.031680	 -0.032916	 0.933272	 1
1463623548.570	 17	 -0.074439	 -0.134549	 0.083449	 0.108472	 0.724004	 -0.111268	 0.355898	 0.030954	 -0.032757	 0.933437	 1
1463623548.580	 17	 -0.058430	 -0.126158	 0.073796	 0.106412	 0.723464	 -0.110150	 0.355596	 0.030211	 -0.032620	 0.933582	 1
1463623548.590	 17	 -0.036892	 -0.076306	 0.063414	 0.104893	 0.723128	 -0.109232	 0.355401	 0.029676	 -0.032473	 0.933678	 1
1463623548.600	 17	 -0.034455	 -0.018821	 0.071388	 0.103933	 0.722856	 -0.108267	 0.355245	 0.029409	 -0.032202	 0.933755	 1
1463623548.610	 17	 -0.027957	 0.027729	 0.039792	 0.103606	 0.722611	 -0.107537	 0.355114	 0.029395	 -0.031928	 0.933815	 1
1463623548.620	 17	 -0.027852	 0.091182	 -0.009704	 0.103149	 0.722100	 -0.106721	 0.354857	 0.029343	 -0.031645	 0.933924	 1
1463623548.630	 17	 -0.019157	 0.136786	 -0.024276	 0.104628	 0.721860	 -0.106985	 0.354773	 0.029995	 -0.031514	 0.933940	 1
1463623548.640	 18	 -0.004323	 0.117563	 -0.028851	 0.105946	 0.720716	 -0.107227	 0.354264	 0.030607	 -0.031432	 0.934116	 1
1463623548.660	 18	 -0.026907	 0.073025	 -0.019480	 0.108348	 0.719893	 -0.108075	 0.353931	 0.031607	 -0.031431	 0.934209	 1
1463623548.670	 18	 -0.060997	 0.060580	 0.010541	 0.109188	 0.719376	 -0.108141	 0.353705	 0.032006	 -0.031332	 0.934284	 1
1463623548.680	 18	 -0.090862	 0.039605	 0.039381	 0.109355	 0.718403	 -0.107640	 0.353245	 0.032207	 -0.031102	 0.934459	 1
1463623548.690	 18	 -0.104669	 0.031330	 0.066069	 0.108912	 0.717405	 -0.106609	 0.352757	 0.032216	 -0.030734	 0.934655	 1
1463623548.700	 18	 -0.116241	 0.041152	 0.096105	 0.107770	 0.716311	 -0.104856	 0.352201	 0.032028	 -0.030153	 0.934890	 1
1463623548.710	 18	 -0.138749	 -0.051763	 0.181770	 0.104624	 0.714914	 -0.101670	 0.351452	 0.031165	 -0.029265	 0.935229	 1
1463623548.720	 18	 -0.141625	 -0.264004	 0.246955	 0.100757	 0.712206	 -0.098646	 0.350086	 0.029974	 -0.028617	 0.935800	 1
1463623548.730	 18	 -0.126730	 -0.308408	 0.289030	 0.097297	 0.710578	 -0.096183	 0.349240	 0.028836	 -0.028121	 0.936167	 1
1463623548.740	 18	 -0.032823	 -0.126424	 0.341067	 0.092963	 0.712615	 -0.092128	 0.350075	 0.027455	 -0.026919	 0.935932	 1
1463623548.750	 18	 -0.050549	 0.252776	 0.263752	 0.092185	 0.712387	 -0.088257	 0.349905	 0.027775	 -0.025250	 0.936033	 1
1463623548.760	 18	 0.017714	 0.337925	 0.153111	 0.093928	 0.712516	 -0.085922	 0.349953	 0.028996	 -0.023848	 0.936015	 1
1463623548.780	 19	 0.123953	 0.332518	 0.038096	 0.098737	 0.712396	 -0.083393	 0.349914	 0.031692	 -0.021827	 0.935991	 1
1463623548.790	 19	 0.126420	 0.216237	 -0.008835	 0.101357	 0.713673	 -0.083549	 0.350541	 0.032855	 -0.021402	 0.935726	 1
1463623548.800	 19	 0.095496	 0.023571	 -0.042332	 0.102483	 0.714671	 -0.084128	 0.351029	 0.033252	 -0.021444	 0.935528	 1
1463623548.810	 19	 0.051731	 -0.172286	 -0.081075	 0.101909	 0.715221	 -0.085157	 0.351296	 0.032787	 -0.022009	 0.935431	 1
