% Gyrometer data recorded with 'snsrlog'
% 
% 
% Label description:
% 	 0: Default Label
% 	 1: still_drop
% 	 2: walk_drop
% 	 3: other
% 	 4: dtw_same
% 	 5: dtw_diff
% 	 6: delete
% 	 7: steal
% 
% Column description:
% 	 1: Seconds.milliseconds since 1970
% 	 2: Number of skipped measurements
% 	 3: Gyro X
% 	 4: Gyro Y
% 	 5: Gyro Z
% 	 6: Roll of the device
% 	 7: Pitch of the device
% 	 8: Yaw of the device
% 	 9: Quaternion X
% 	 10: Quaternion Y
% 	 11: Quaternion Z
% 	 12: Quaternion W
% 	 13: Label used for the current sample
% 
% 
1463630224.039	 1	 -0.057220	 0.225100	 0.235257	 0.270618	 0.264702	 -0.065700	 0.135080	 0.129350	 -0.014467	 0.982249	 2
1463630224.049	 1	 -0.087351	 0.190990	 0.212820	 0.271974	 0.264556	 -0.063301	 0.134862	 0.130182	 -0.013208	 0.982187	 2
1463630224.059	 1	 -0.155897	 0.170706	 0.174861	 0.273134	 0.263736	 -0.061082	 0.134323	 0.130920	 -0.012097	 0.982177	 2
1463630224.069	 1	 -0.247867	 0.186562	 0.127836	 0.274411	 0.261975	 -0.059066	 0.133334	 0.131724	 -0.011144	 0.982215	 2
1463630224.079	 1	 -0.364273	 0.221548	 0.065230	 0.276084	 0.258986	 -0.057311	 0.131760	 0.132731	 -0.010380	 0.982300	 2
1463630224.089	 1	 -0.506291	 0.259770	 -0.001387	 0.278228	 0.254505	 -0.055841	 0.129474	 0.133982	 -0.009832	 0.982440	 2
1463630224.099	 1	 -0.645414	 0.225724	 -0.059109	 0.280327	 0.248503	 -0.054545	 0.126451	 0.135230	 -0.009486	 0.982666	 2
1463630224.109	 1	 -0.770046	 0.099078	 -0.119951	 0.281407	 0.241094	 -0.053466	 0.122746	 0.135990	 -0.009415	 0.983032	 2
1463630224.119	 1	 -0.851123	 -0.057582	 -0.195306	 0.281062	 0.232588	 -0.052815	 0.118522	 0.136041	 -0.009721	 0.983540	 2
1463630224.129	 1	 -0.866823	 -0.162256	 -0.262221	 0.279646	 0.223574	 -0.052784	 0.114082	 0.135535	 -0.010427	 0.984127	 2
1463630224.139	 1	 -0.805150	 -0.183931	 -0.292801	 0.277924	 0.214842	 -0.053295	 0.109813	 0.134839	 -0.011390	 0.984698	 2
1463630224.159	 2	 -0.554113	 0.031794	 -0.217310	 0.276688	 0.200989	 -0.054815	 0.103090	 0.134433	 -0.013175	 0.985458	 2
1463630224.169	 2	 -0.537713	 0.251621	 -0.110963	 0.278636	 0.195467	 -0.054698	 0.100376	 0.135511	 -0.013406	 0.985587	 2
1463630224.179	 2	 -0.625173	 0.382550	 0.014646	 0.281949	 0.189662	 -0.053178	 0.097435	 0.137335	 -0.012904	 0.985636	 2
1463630224.189	 2	 -0.760311	 0.360459	 0.140311	 0.285114	 0.183018	 -0.050050	 0.093966	 0.139173	 -0.011686	 0.985731	 2
1463630224.209	 3	 -0.997155	 -0.009736	 0.329700	 0.286376	 0.166741	 -0.039530	 0.085216	 0.140547	 -0.007613	 0.986371	 2
1463630224.219	 3	 -0.975736	 -0.256242	 0.373047	 0.283396	 0.158273	 -0.033166	 0.080586	 0.139465	 -0.005202	 0.986929	 2
1463630224.239	 4	 -0.627613	 -0.652997	 0.363127	 0.271179	 0.145374	 -0.021544	 0.073405	 0.134035	 -0.000829	 0.988254	 2
1463630224.249	 4	 -0.407284	 -0.749590	 0.332600	 0.263233	 0.141806	 -0.016993	 0.071341	 0.130306	 0.000895	 0.988904	 2
1463630224.259	 4	 -0.202465	 -0.747167	 0.309524	 0.255177	 0.140166	 -0.013265	 0.070297	 0.126467	 0.002348	 0.989474	 2
1463630224.269	 4	 -0.019627	 -0.648993	 0.281136	 0.247956	 0.140273	 -0.010293	 0.070175	 0.122997	 0.003571	 0.989916	 2
1463630224.279	 4	 0.097733	 -0.424954	 0.275804	 0.242713	 0.141650	 -0.007785	 0.070715	 0.120481	 0.004712	 0.990183	 2
1463630224.289	 4	 0.142997	 -0.130249	 0.305862	 0.240305	 0.143669	 -0.005212	 0.071566	 0.119368	 0.006023	 0.990249	 2
1463630224.299	 4	 0.139252	 0.149982	 0.373514	 0.240701	 0.145894	 -0.002067	 0.072479	 0.119666	 0.007727	 0.990135	 2
1463630224.309	 4	 0.078787	 0.384746	 0.455091	 0.243395	 0.147878	 0.001941	 0.073208	 0.121137	 0.009929	 0.989883	 2
1463630224.319	 4	 0.007234	 0.518609	 0.551813	 0.247575	 0.149388	 0.007056	 0.073619	 0.123388	 0.012705	 0.989542	 2
1463630224.329	 4	 -0.034924	 0.546054	 0.652617	 0.252078	 0.150687	 0.013264	 0.073842	 0.125841	 0.016022	 0.989169	 2
1463630224.339	 4	 -0.069795	 0.528857	 0.760402	 0.256334	 0.151934	 0.020586	 0.073956	 0.128216	 0.019879	 0.988785	 2
1463630224.359	 5	 -0.104206	 0.484023	 1.017133	 0.263545	 0.154785	 0.039048	 0.074073	 0.132469	 0.029452	 0.987977	 2
1463630224.369	 5	 -0.096234	 0.490183	 1.136487	 0.266672	 0.156741	 0.050126	 0.074250	 0.134436	 0.035167	 0.987511	 2
1463630224.389	 6	 -0.111804	 0.717568	 1.245314	 0.275020	 0.161444	 0.074764	 0.074711	 0.139520	 0.047945	 0.986232	 2
1463630224.399	 6	 -0.175436	 0.824981	 1.218092	 0.281046	 0.163279	 0.087052	 0.074594	 0.142976	 0.054351	 0.985413	 2
1463630224.409	 6	 -0.241926	 0.907718	 1.306834	 0.287758	 0.164667	 0.100148	 0.074136	 0.146792	 0.061145	 0.984488	 2
1463630224.419	 6	 -0.232647	 0.965980	 1.424529	 0.294975	 0.166388	 0.114406	 0.073689	 0.150905	 0.068547	 0.983412	 2
1463630224.429	 6	 -0.197521	 0.909825	 1.468462	 0.301780	 0.168726	 0.129201	 0.073463	 0.154849	 0.076235	 0.982249	 2
1463630224.449	 7	 -0.239579	 0.985959	 1.536680	 0.315305	 0.173710	 0.159652	 0.072925	 0.162742	 0.092031	 0.979657	 2
1463630224.459	 7	 -0.263271	 1.149969	 1.556531	 0.323570	 0.176128	 0.175446	 0.072411	 0.167444	 0.100244	 0.978095	 2
1463630224.469	 7	 -0.280177	 1.404285	 1.565439	 0.334128	 0.178556	 0.191386	 0.071691	 0.173268	 0.108600	 0.976240	 2
1463630224.479	 7	 -0.281701	 1.765864	 1.558159	 0.347942	 0.181117	 0.207304	 0.070756	 0.180676	 0.117057	 0.973985	 2
1463630224.489	 7	 -0.252846	 2.274833	 1.500830	 0.366609	 0.183973	 0.222685	 0.069591	 0.190420	 0.125429	 0.971167	 2
1463630224.499	 7	 -0.203862	 2.737078	 1.462074	 0.390134	 0.187360	 0.237390	 0.068271	 0.202492	 0.133665	 0.967714	 2
1463630224.509	 7	 -0.110426	 3.096237	 1.452879	 0.417616	 0.191817	 0.251550	 0.067057	 0.216463	 0.141849	 0.963601	 2
1463630224.519	 7	 0.062477	 3.322315	 1.457741	 0.447745	 0.198039	 0.264955	 0.066365	 0.231716	 0.149918	 0.958868	 2
1463630224.539	 8	 0.629383	 3.523375	 1.545267	 0.512393	 0.219348	 0.288406	 0.068586	 0.264482	 0.165626	 0.947583	 2
1463630224.549	 8	 0.959674	 3.616175	 1.568833	 0.546104	 0.234835	 0.297755	 0.071836	 0.281585	 0.173091	 0.941057	 2
1463630224.559	 8	 1.263740	 3.932377	 1.441236	 0.582954	 0.252826	 0.304113	 0.076185	 0.300077	 0.179737	 0.933726	 2
1463630224.569	 8	 1.484784	 4.420045	 1.164620	 0.625341	 0.271680	 0.306242	 0.080865	 0.320855	 0.184960	 0.925366	 2
1463630224.579	 8	 1.596193	 4.832795	 0.779553	 0.673491	 0.289557	 0.303657	 0.085152	 0.343794	 0.188379	 0.916007	 2
1463630224.599	 9	 1.681026	 5.149483	 -0.541916	 0.780968	 0.314184	 0.281291	 0.090540	 0.392517	 0.186995	 0.895972	 2
1463630224.609	 9	 1.842721	 5.367754	 -1.470637	 0.841118	 0.317585	 0.258689	 0.091143	 0.418385	 0.180282	 0.885520	 2
1463630224.619	 9	 2.107841	 5.667637	 -2.250293	 0.906476	 0.314709	 0.228223	 0.090725	 0.445698	 0.169275	 0.874339	 2
1463630224.629	 9	 2.390976	 5.883761	 -2.693038	 0.975821	 0.307361	 0.192465	 0.090077	 0.474105	 0.155300	 0.861970	 2
1463630224.639	 9	 2.658266	 5.746086	 -2.942838	 1.045534	 0.296646	 0.153388	 0.089832	 0.502157	 0.139223	 0.848756	 2
1463630224.649	 9	 2.897756	 5.269021	 -3.070859	 1.111260	 0.283215	 0.112273	 0.090416	 0.528104	 0.121518	 0.835563	 2
1463630224.659	 9	 3.104265	 4.749001	 -3.122258	 1.171536	 0.267604	 0.069962	 0.091933	 0.551451	 0.102588	 0.822755	 2
1463630224.669	 9	 3.277705	 4.200631	 -3.136331	 1.225952	 0.250148	 0.027009	 0.094319	 0.572136	 0.082721	 0.810507	 2
1463630224.679	 9	 3.412368	 3.568416	 -3.141255	 1.273555	 0.231008	 -0.016208	 0.097444	 0.589875	 0.062052	 0.799188	 2
1463630224.689	 9	 3.499986	 2.951996	 -3.187187	 1.314014	 0.209995	 -0.059400	 0.100987	 0.604654	 0.040597	 0.789017	 2
1463630224.699	 9	 3.517977	 2.569230	 -3.308140	 1.348861	 0.186558	 -0.102167	 0.104403	 0.617212	 0.018379	 0.779623	 2
1463630224.709	 9	 3.433652	 2.553797	 -3.563332	 1.381400	 0.159442	 -0.143805	 0.106848	 0.629003	 -0.004595	 0.770012	 2
1463630224.719	 9	 3.212648	 2.788361	 -3.867230	 1.414241	 0.127745	 -0.183006	 0.107563	 0.641177	 -0.028032	 0.759300	 2
1463630224.729	 9	 2.855467	 3.020922	 -4.062320	 1.447796	 0.092018	 -0.218047	 0.106243	 0.653932	 -0.051155	 0.747308	 2
1463630224.739	 9	 2.420558	 3.155962	 -4.096710	 1.481214	 0.053984	 -0.247637	 0.103068	 0.666866	 -0.073048	 0.734391	 2
1463630224.749	 9	 1.994624	 3.317076	 -4.052069	 1.514778	 0.014980	 -0.271534	 0.098379	 0.679949	 -0.093249	 0.720622	 2
1463630224.759	 9	 1.651173	 3.562876	 -4.029739	 1.549655	 -0.024609	 -0.290375	 0.092508	 0.693452	 -0.111888	 0.705725	 2
1463630224.769	 9	 1.458594	 3.778552	 -4.140092	 1.586287	 -0.065577	 -0.305466	 0.085618	 0.707388	 -0.129773	 0.689515	 2
1463630224.779	 9	 1.394930	 3.788010	 -4.328089	 1.623226	 -0.108840	 -0.318090	 0.077747	 0.721112	 -0.147811	 0.672387	 2
1463630224.789	 9	 1.371151	 3.582079	 -4.427849	 1.658223	 -0.153802	 -0.328817	 0.069123	 0.733733	 -0.166119	 0.655181	 2
1463630224.799	 9	 1.337104	 3.346330	 -4.390313	 1.690679	 -0.199018	 -0.337785	 0.060168	 0.744981	 -0.184245	 0.638307	 2
1463630224.809	 9	 1.262593	 3.061296	 -4.271885	 1.720520	 -0.243399	 -0.344900	 0.051103	 0.754833	 -0.201752	 0.622023	 2
1463630224.819	 9	 1.134095	 2.658232	 -4.171138	 1.746896	 -0.286632	 -0.349807	 0.041700	 0.763075	 -0.218416	 0.606855	 2
1463630224.829	 9	 0.996472	 2.271000	 -4.237489	 1.769795	 -0.329863	 -0.352179	 0.031343	 0.769761	 -0.234538	 0.592855	 2
1463630224.839	 9	 0.909798	 1.849547	 -4.601950	 1.789533	 -0.375725	 -0.351894	 0.019089	 0.774961	 -0.251031	 0.579701	 2
1463630224.849	 9	 0.905065	 1.296849	 -5.137801	 1.804982	 -0.426464	 -0.349211	 0.004122	 0.778214	 -0.268778	 0.567560	 2
1463630224.859	 9	 0.967299	 0.829772	 -5.573256	 1.816145	 -0.481909	 -0.344966	 -0.013253	 0.779385	 -0.287872	 0.556340	 2
1463630224.879	 10	 1.089281	 0.022064	 -5.875986	 1.827336	 -0.599784	 -0.334926	 -0.051850	 0.775909	 -0.327896	 0.536433	 2
1463630224.889	 10	 1.093357	 -0.085856	 -5.796027	 1.829759	 -0.658916	 -0.329618	 -0.071617	 0.772079	 -0.347599	 0.527200	 2
1463630224.899	 10	 1.095835	 -0.065375	 -5.464406	 1.832056	 -0.715508	 -0.324775	 -0.090321	 0.767671	 -0.366320	 0.518009	 2
1463630224.909	 10	 1.134905	 0.008111	 -4.849118	 1.833916	 -0.766880	 -0.321848	 -0.106662	 0.763064	 -0.383498	 0.509200	 2
1463630224.919	 10	 1.228880	 -0.002053	 -4.013407	 1.833418	 -0.810880	 -0.322695	 -0.119709	 0.758346	 -0.398770	 0.501561	 2
1463630224.929	 10	 1.370587	 -0.112006	 -3.132147	 1.827828	 -0.846617	 -0.329064	 -0.129198	 0.753338	 -0.412094	 0.495952	 2
1463630224.939	 10	 1.467734	 -0.233839	 -2.440315	 1.817089	 -0.875415	 -0.340661	 -0.135786	 0.748107	 -0.423830	 0.492206	 2
1463630224.949	 10	 1.585505	 -0.594126	 -1.915010	 1.799672	 -0.898830	 -0.356948	 -0.140579	 0.742198	 -0.434274	 0.490699	 2
1463630224.959	 10	 1.467782	 -1.084556	 -1.684080	 1.775656	 -0.918929	 -0.375023	 -0.145360	 0.735240	 -0.443415	 0.491606	 2
1463630224.969	 10	 1.114986	 -1.276587	 -1.613521	 1.751484	 -0.937222	 -0.389692	 -0.151104	 0.728260	 -0.450939	 0.493415	 2
1463630224.979	 10	 0.653592	 -1.346572	 -1.624010	 1.731468	 -0.954443	 -0.397971	 -0.158074	 0.721978	 -0.456693	 0.495168	 2
1463630224.989	 10	 0.247982	 -1.488781	 -1.744364	 1.715901	 -0.971863	 -0.399351	 -0.166682	 0.716223	 -0.460995	 0.496714	 2
1463630224.999	 10	 -0.068522	 -1.716582	 -1.898264	 1.703073	 -0.990302	 -0.394831	 -0.177141	 0.710484	 -0.464220	 0.498330	 2
1463630225.009	 10	 -0.338595	 -1.866557	 -2.008147	 1.692834	 -1.009642	 -0.385197	 -0.189107	 0.704720	 -0.466534	 0.499955	 2
1463630225.029	 11	 -0.928840	 -2.167483	 -1.942928	 1.682706	 -1.047847	 -0.349067	 -0.216252	 0.693630	 -0.467521	 0.503524	 2
1463630225.039	 11	 -1.203390	 -2.329593	 -1.821615	 1.683584	 -1.064958	 -0.321849	 -0.230843	 0.688461	 -0.465705	 0.505818	 2
1463630225.049	 11	 -1.389024	 -2.653565	 -1.690859	 1.686258	 -1.080556	 -0.289671	 -0.246119	 0.683042	 -0.462401	 0.508983	 2
1463630225.059	 11	 -1.532094	 -3.026392	 -1.533218	 1.688656	 -1.094428	 -0.253763	 -0.262049	 0.676972	 -0.457597	 0.513463	 2
1463630225.069	 11	 -1.702651	 -3.348050	 -1.368469	 1.691767	 -1.106455	 -0.213675	 -0.278499	 0.670417	 -0.451235	 0.519004	 2
1463630225.079	 11	 -1.900939	 -3.692801	 -1.174916	 1.695759	 -1.116357	 -0.168866	 -0.295509	 0.663348	 -0.443077	 0.525669	 2
1463630225.089	 11	 -2.060824	 -3.848053	 -0.941567	 1.701720	 -1.123678	 -0.119819	 -0.312531	 0.656161	 -0.433232	 0.532999	 2
1463630225.099	 11	 -2.107274	 -3.878633	 -0.777320	 1.709041	 -1.128895	 -0.068798	 -0.329113	 0.648962	 -0.422328	 0.540529	 2
1463630225.109	 11	 -2.035394	 -3.812777	 -0.760281	 1.716301	 -1.133449	 -0.018374	 -0.345148	 0.641543	 -0.411266	 0.547864	 2
1463630225.119	 11	 -1.837721	 -3.646297	 -0.896870	 1.722491	 -1.139094	 0.029126	 -0.360585	 0.633714	 -0.401072	 0.554551	 2
1463630225.129	 11	 -1.520917	 -3.496694	 -1.112455	 1.725551	 -1.147093	 0.071292	 -0.375396	 0.625111	 -0.392467	 0.560610	 2
1463630225.139	 11	 -1.130181	 -3.361531	 -1.236096	 1.723085	 -1.157223	 0.105780	 -0.389242	 0.615608	 -0.385580	 0.566432	 2
1463630225.149	 11	 -0.702958	 -3.141917	 -1.139722	 1.713634	 -1.167669	 0.130354	 -0.401273	 0.605725	 -0.380126	 0.572348	 2
1463630225.159	 11	 -0.294162	 -2.936648	 -0.829103	 1.695996	 -1.176244	 0.143566	 -0.410798	 0.596025	 -0.375533	 0.578770	 2
1463630225.169	 11	 0.043448	 -2.820233	 -0.333248	 1.669670	 -1.180845	 0.145840	 -0.417585	 0.586843	 -0.370902	 0.586233	 2
1463630225.179	 11	 0.228088	 -2.671514	 0.301722	 1.637595	 -1.179642	 0.140534	 -0.421623	 0.578756	 -0.365357	 0.594803	 2
1463630225.189	 11	 0.230906	 -2.412445	 0.973407	 1.606041	 -1.171697	 0.133197	 -0.423058	 0.572598	 -0.358398	 0.603908	 2
1463630225.199	 11	 0.063063	 -2.041997	 1.534644	 1.581225	 -1.157679	 0.129574	 -0.422516	 0.568835	 -0.349899	 0.612762	 2
1463630225.209	 11	 -0.158586	 -1.574138	 1.867050	 1.566550	 -1.139687	 0.131979	 -0.420638	 0.567606	 -0.340502	 0.620440	 2
1463630225.219	 11	 -0.325178	 -1.211453	 1.945413	 1.560091	 -1.120314	 0.139133	 -0.418208	 0.568130	 -0.330918	 0.626757	 2
1463630225.229	 11	 -0.414415	 -1.061772	 1.869783	 1.557705	 -1.101422	 0.148530	 -0.415826	 0.569322	 -0.321581	 0.632097	 2
1463630225.239	 11	 -0.516072	 -1.244231	 1.748539	 1.555741	 -1.083693	 0.159665	 -0.414181	 0.570027	 -0.312085	 0.637280	 2
1463630225.249	 11	 -0.703526	 -1.535822	 1.650473	 1.553672	 -1.067073	 0.173941	 -0.413745	 0.569809	 -0.301847	 0.642667	 2
1463630225.259	 11	 -0.907900	 -1.830245	 1.595159	 1.551883	 -1.051184	 0.192062	 -0.414554	 0.568726	 -0.290583	 0.648272	 2
1463630225.269	 11	 -1.008056	 -2.053047	 1.631260	 1.549480	 -1.035233	 0.212462	 -0.416055	 0.566974	 -0.278339	 0.654191	 2
1463630225.279	 11	 -0.904788	 -2.195101	 1.737746	 1.544083	 -1.018380	 0.231459	 -0.417264	 0.564697	 -0.265546	 0.660677	 2
1463630225.289	 11	 -0.655759	 -2.194087	 1.831506	 1.534440	 -1.000505	 0.246140	 -0.417429	 0.562086	 -0.252883	 0.667729	 2
1463630225.299	 11	 -0.332129	 -1.937405	 1.864115	 1.521831	 -0.982102	 0.255179	 -0.416102	 0.559705	 -0.241271	 0.674817	 2
1463630225.309	 11	 -0.017244	 -1.438712	 1.825515	 1.508930	 -0.963780	 0.258651	 -0.413140	 0.558284	 -0.231501	 0.681206	 2
1463630225.319	 11	 0.269420	 -0.759596	 1.721697	 1.498428	 -0.946177	 0.257263	 -0.408642	 0.558453	 -0.224143	 0.686222	 2
1463630225.329	 11	 0.588708	 0.096633	 1.560625	 1.491885	 -0.929787	 0.250834	 -0.402571	 0.560684	 -0.219754	 0.689404	 2
1463630225.339	 11	 1.028330	 1.162769	 1.353566	 1.490390	 -0.915076	 0.237693	 -0.394502	 0.565581	 -0.219260	 0.690226	 2
1463630225.349	 11	 1.551646	 2.065157	 1.186884	 1.492014	 -0.901732	 0.216270	 -0.384074	 0.572783	 -0.222678	 0.689073	 2
1463630225.359	 11	 1.987705	 2.768074	 1.052145	 1.495606	 -0.889464	 0.187448	 -0.371495	 0.581666	 -0.229334	 0.686340	 2
1463630225.369	 11	 2.165274	 3.205760	 0.905465	 1.501575	 -0.878513	 0.154901	 -0.357776	 0.591542	 -0.238053	 0.682206	 2
1463630225.379	 11	 2.106882	 3.394179	 0.757455	 1.510371	 -0.869209	 0.122562	 -0.344086	 0.601761	 -0.247609	 0.676889	 2
1463630225.389	 11	 2.022291	 3.452962	 0.615926	 1.521333	 -0.861580	 0.091750	 -0.330900	 0.611887	 -0.257400	 0.670705	 2
1463630225.399	 11	 2.033707	 3.504011	 0.473489	 1.532992	 -0.855605	 0.061109	 -0.317992	 0.621682	 -0.267604	 0.663913	 2
1463630225.409	 11	 2.079509	 3.600735	 0.336507	 1.545237	 -0.851249	 0.029902	 -0.305136	 0.631245	 -0.278419	 0.656433	 2
1463630225.419	 11	 2.184039	 3.694184	 0.211773	 1.557552	 -0.848401	 -0.002625	 -0.292120	 0.640537	 -0.289957	 0.648308	 2
1463630225.439	 12	 2.568947	 3.376431	 -0.035397	 1.573901	 -0.847053	 -0.075811	 -0.265478	 0.656162	 -0.315238	 0.632137	 2
1463630225.449	 12	 2.651070	 3.066369	 -0.220166	 1.570253	 -0.847937	 -0.119603	 -0.251940	 0.660565	 -0.328821	 0.626144	 2
1463630225.469	 13	 1.851900	 2.216896	 -0.787030	 1.570140	 -0.859144	 -0.188066	 -0.232951	 0.667473	 -0.353481	 0.612589	 2
1463630225.479	 13	 1.266514	 1.769740	 -0.937430	 1.572385	 -0.868015	 -0.209673	 -0.228290	 0.669625	 -0.363029	 0.606380	 2
1463630225.489	 13	 0.874412	 1.584472	 -0.830226	 1.577391	 -0.876341	 -0.224320	 -0.225242	 0.671845	 -0.370540	 0.600492	 2
1463630225.499	 13	 0.698839	 1.563597	 -0.406850	 1.584235	 -0.881747	 -0.235833	 -0.221892	 0.674564	 -0.376380	 0.595035	 2
1463630225.509	 13	 0.493907	 1.437250	 0.273715	 1.592360	 -0.880943	 -0.244393	 -0.217194	 0.678003	 -0.379566	 0.590820	 2
1463630225.519	 13	 0.351571	 1.378423	 1.050282	 1.601327	 -0.872453	 -0.250718	 -0.210520	 0.682272	 -0.379813	 0.588157	 2
1463630225.529	 13	 0.330866	 1.499513	 1.605786	 1.611472	 -0.857679	 -0.256578	 -0.201689	 0.687476	 -0.378063	 0.586316	 2
1463630225.539	 13	 0.446120	 1.604452	 1.749637	 1.621830	 -0.840513	 -0.263961	 -0.191501	 0.693067	 -0.375952	 0.584505	 2
1463630225.549	 13	 0.724939	 1.302917	 1.642090	 1.627878	 -0.824110	 -0.274870	 -0.181138	 0.697541	 -0.374610	 0.583346	 2
1463630225.569	 13	 1.165893	 0.660683	 1.113248	 1.621440	 -0.799266	 -0.307608	 -0.162617	 0.700859	 -0.375903	 0.583994	 2
1463630225.579	 13	 1.119423	 0.436382	 0.964490	 1.614142	 -0.789838	 -0.324697	 -0.154831	 0.700913	 -0.377411	 0.585072	 2
1463630225.589	 13	 0.809151	 0.279785	 0.951880	 1.607900	 -0.780784	 -0.337902	 -0.148319	 0.700840	 -0.378028	 0.586446	 2
1463630225.559	 13	 1.045393	 0.924481	 1.360812	 1.626681	 -0.810284	 -0.290261	 -0.171390	 0.699911	 -0.374694	 0.583399	 2
1463630225.599	 13	 0.658184	 0.429775	 1.186926	 1.604806	 -0.769949	 -0.347577	 -0.141828	 0.701492	 -0.377330	 0.587721	 2
1463630225.609	 13	 1.274854	 0.987998	 1.558702	 1.602158	 -0.755535	 -0.363434	 -0.131840	 0.702873	 -0.377410	 0.588345	 2
1463630225.619	 13	 1.771136	 1.577690	 1.674971	 1.600592	 -0.739473	 -0.386883	 -0.118377	 0.704977	 -0.379313	 0.587466	 2
1463630225.629	 13	 2.117663	 1.967000	 1.672379	 1.600829	 -0.723322	 -0.414749	 -0.102931	 0.707573	 -0.382592	 0.585123	 2
1463630225.649	 14	 2.409028	 2.421569	 1.406566	 1.604463	 -0.694248	 -0.478684	 -0.069468	 0.712817	 -0.392553	 0.577034	 2
1463630225.659	 14	 2.432936	 2.351801	 1.328973	 1.608267	 -0.681733	 -0.510488	 -0.053022	 0.715355	 -0.398053	 0.571848	 2
1463630225.669	 14	 2.617634	 1.103909	 1.218769	 1.602250	 -0.669953	 -0.544004	 -0.038152	 0.714752	 -0.403976	 0.569630	 2
1463630225.679	 14	 2.926564	 -0.104187	 0.633589	 1.581287	 -0.662506	 -0.580265	 -0.026909	 0.709515	 -0.411798	 0.571215	 2
1463630225.689	 14	 3.155670	 -0.213736	 0.140324	 1.554532	 -0.660056	 -0.619819	 -0.017658	 0.702328	 -0.422116	 0.572924	 2
1463630225.699	 14	 3.037597	 0.139334	 0.086021	 1.531172	 -0.658448	 -0.658746	 -0.008467	 0.695890	 -0.432672	 0.573115	 2
1463630225.709	 14	 2.798841	 0.357443	 0.438633	 1.512496	 -0.653758	 -0.694596	 0.001566	 0.690558	 -0.441648	 0.572777	 2
1463630225.719	 14	 2.561833	 0.368163	 0.940639	 1.496847	 -0.643842	 -0.726729	 0.012733	 0.685779	 -0.448301	 0.573212	 2
1463630225.729	 14	 2.290382	 0.265791	 1.234069	 1.483077	 -0.630230	 -0.754843	 0.024191	 0.681195	 -0.452978	 0.574630	 2
1463630225.739	 14	 1.970958	 0.132186	 1.308079	 1.470925	 -0.615321	 -0.778523	 0.034910	 0.676810	 -0.456175	 0.576726	 2
1463630225.749	 14	 1.532766	 0.027006	 1.000778	 1.460752	 -0.602531	 -0.797125	 0.043540	 0.672951	 -0.458526	 0.578788	 2
1463630225.759	 14	 0.969192	 -0.090357	 0.576157	 1.453178	 -0.594570	 -0.809696	 0.048939	 0.670075	 -0.460355	 0.580239	 2
1463630225.779	 15	 -0.725148	 -0.303288	 -0.429941	 1.448643	 -0.594565	 -0.808190	 0.047393	 0.668793	 -0.460026	 0.582105	 2
1463630225.789	 15	 -1.482764	 -0.351210	 -0.890594	 1.453532	 -0.603949	 -0.793668	 0.040204	 0.670995	 -0.458029	 0.581686	 2
1463630225.799	 15	 -2.061144	 -0.381987	 -1.114984	 1.462260	 -0.616793	 -0.771770	 0.030117	 0.674471	 -0.454733	 0.580861	 2
1463630225.809	 15	 -2.409035	 -0.356705	 -1.142627	 1.474659	 -0.630572	 -0.744517	 0.018655	 0.678887	 -0.450176	 0.579747	 2
1463630225.819	 15	 -2.472041	 -0.416706	 -1.081888	 1.488122	 -0.643739	 -0.715153	 0.006860	 0.683320	 -0.444983	 0.578806	 2
1463630225.829	 15	 -2.366878	 -0.621414	 -0.961080	 1.500161	 -0.655496	 -0.686052	 -0.004724	 0.687025	 -0.439640	 0.578525	 2
1463630225.839	 15	 -2.156768	 -1.018568	 -0.788623	 1.507797	 -0.665288	 -0.658771	 -0.015993	 0.689187	 -0.434384	 0.579721	 2
1463630225.849	 15	 -1.928716	 -1.488900	 -0.579701	 1.509401	 -0.672836	 -0.634044	 -0.026901	 0.689409	 -0.429242	 0.582875	 2
1463630225.859	 15	 -1.760132	 -1.905799	 -0.360172	 1.505513	 -0.678113	 -0.611377	 -0.037447	 0.687892	 -0.423971	 0.587920	 2
1463630225.869	 15	 -1.656371	 -2.300921	 -0.097246	 1.496938	 -0.680945	 -0.590012	 -0.047613	 0.684884	 -0.418239	 0.594763	 2
1463630225.879	 15	 -1.609767	 -2.515759	 0.069805	 1.485231	 -0.681794	 -0.569180	 -0.057464	 0.680823	 -0.411925	 0.602906	 2
1463630225.899	 16	 -1.280822	 -2.345425	 -0.068957	 1.459418	 -0.683988	 -0.532304	 -0.075981	 0.671680	 -0.400395	 0.618674	 2
1463630225.909	 16	 -1.058433	 -1.979407	 -0.400006	 1.447047	 -0.688055	 -0.518529	 -0.084557	 0.667214	 -0.396712	 0.624736	 2
1463630225.919	 16	 -0.980911	 -1.127584	 -0.972529	 1.440855	 -0.697621	 -0.507062	 -0.093140	 0.664585	 -0.395415	 0.627135	 2
1463630225.929	 16	 -0.892753	 -0.158977	 -1.423627	 1.443140	 -0.711840	 -0.497356	 -0.101170	 0.664505	 -0.396295	 0.625418	 2
1463630225.939	 16	 -0.743505	 0.635049	 -1.870486	 1.452635	 -0.730225	 -0.489861	 -0.108549	 0.666561	 -0.399391	 0.620001	 2
1463630225.949	 16	 -0.515679	 1.123556	 -2.321939	 1.465801	 -0.752857	 -0.485401	 -0.115681	 0.669611	 -0.404840	 0.611836	 2
1463630225.959	 16	 -0.169753	 1.473987	 -2.698970	 1.479766	 -0.779097	 -0.485316	 -0.122399	 0.672813	 -0.412706	 0.601677	 2
1463630225.969	 16	 0.262713	 1.745258	 -2.957060	 1.492587	 -0.807854	 -0.490974	 -0.128198	 0.675699	 -0.422913	 0.590034	 2
1463630225.979	 16	 0.723885	 1.714836	 -3.152130	 1.501087	 -0.838370	 -0.503247	 -0.133176	 0.677478	 -0.435175	 0.577850	 2
1463630225.989	 16	 1.201401	 1.293034	 -3.337108	 1.501789	 -0.868556	 -0.521971	 -0.137477	 0.677370	 -0.448488	 0.566681	 2
1463630225.999	 16	 1.644200	 0.719509	 -3.483770	 1.488831	 -0.900577	 -0.550037	 -0.142416	 0.674010	 -0.463624	 0.557208	 2
1463630226.009	 16	 1.912041	 0.307776	 -3.537889	 1.464132	 -0.933669	 -0.586020	 -0.148084	 0.668135	 -0.479850	 0.549009	 2
1463630226.019	 16	 1.836898	 0.331274	 -3.408057	 1.435427	 -0.965456	 -0.625082	 -0.153635	 0.661815	 -0.495655	 0.541039	 2
1463630226.029	 16	 1.411729	 0.389378	 -3.047846	 1.409771	 -0.994036	 -0.660973	 -0.158702	 0.656581	 -0.509491	 0.533043	 2
1463630226.039	 16	 0.406721	 0.012127	 -2.528909	 1.393099	 -1.019125	 -0.681516	 -0.165479	 0.652912	 -0.518748	 0.526519	 2
1463630226.049	 16	 -0.176000	 0.301109	 -2.075657	 1.389889	 -1.040751	 -0.687797	 -0.172217	 0.651812	 -0.524430	 0.520053	 2
1463630226.059	 16	 -0.277897	 0.231586	 -1.584101	 1.392162	 -1.058081	 -0.688530	 -0.177739	 0.651788	 -0.528218	 0.514361	 2
1463630226.069	 16	 -0.146529	 -0.117644	 -1.141940	 1.391150	 -1.070640	 -0.689283	 -0.182360	 0.651076	 -0.530759	 0.511018	 2
1463630226.079	 16	 -0.012965	 -0.322274	 -0.851943	 1.385955	 -1.079737	 -0.691967	 -0.186198	 0.649612	 -0.532711	 0.509463	 2
1463630226.089	 16	 -0.087322	 -0.254115	 -0.576760	 1.381770	 -1.086193	 -0.693432	 -0.189203	 0.648409	 -0.533917	 0.508627	 2
1463630226.099	 16	 -0.389462	 -0.095638	 -0.259321	 1.384910	 -1.090142	 -0.688355	 -0.191456	 0.648551	 -0.533673	 0.507858	 2
1463630226.109	 16	 -0.700100	 0.013374	 0.127007	 1.396783	 -1.090978	 -0.674882	 -0.192974	 0.650231	 -0.531554	 0.507357	 2
1463630226.119	 16	 -0.882420	 -0.007052	 0.463054	 1.413997	 -1.088567	 -0.655493	 -0.193856	 0.652848	 -0.527825	 0.507553	 2
1463630226.129	 16	 -0.992026	 0.084351	 0.702523	 1.434429	 -1.083558	 -0.632947	 -0.194058	 0.656138	 -0.523063	 0.508163	 2
1463630226.139	 16	 -1.080400	 0.479013	 0.822068	 1.459546	 -1.076939	 -0.608507	 -0.193197	 0.660577	 -0.517885	 0.508043	 2
1463630226.149	 16	 -1.169302	 0.765158	 0.937409	 1.489216	 -1.069092	 -0.582814	 -0.191294	 0.666192	 -0.512486	 0.506905	 2
1463630226.159	 16	 -1.283922	 0.904612	 1.200817	 1.521784	 -1.058683	 -0.555568	 -0.188470	 0.672663	 -0.506279	 0.505654	 2
1463630226.169	 16	 -1.491285	 0.999177	 1.543480	 1.557383	 -1.044553	 -0.525790	 -0.184709	 0.680084	 -0.498659	 0.504686	 2
1463630226.179	 16	 -1.714336	 1.245161	 1.786442	 1.596942	 -1.027115	 -0.493365	 -0.180091	 0.688715	 -0.489660	 0.503459	 2
1463630226.189	 16	 -1.746602	 1.656593	 2.041006	 1.639297	 -1.006658	 -0.461821	 -0.173920	 0.698606	 -0.480015	 0.501285	 2
1463630226.199	 16	 -1.642375	 1.991340	 2.629382	 1.680472	 -0.980703	 -0.435368	 -0.164933	 0.709401	 -0.469608	 0.499015	 2
1463630226.209	 16	 -1.563622	 2.510777	 3.301763	 1.721106	 -0.947453	 -0.414970	 -0.152086	 0.721510	 -0.458002	 0.496516	 2
1463630226.229	 17	 -1.040602	 3.279590	 3.488740	 1.796106	 -0.872415	 -0.395573	 -0.118850	 0.746792	 -0.434985	 0.488840	 2
1463630226.239	 17	 -0.695915	 3.392623	 3.081801	 1.829874	 -0.839659	 -0.395719	 -0.101466	 0.758443	 -0.426201	 0.482516	 2
1463630226.249	 17	 -0.639649	 3.150790	 2.757201	 1.860517	 -0.810693	 -0.398103	 -0.085318	 0.768855	 -0.418525	 0.475835	 2
1463630226.259	 17	 -0.871856	 2.601446	 2.445040	 1.888051	 -0.784204	 -0.397956	 -0.071764	 0.777995	 -0.410531	 0.470147	 2
1463630226.269	 17	 -1.208490	 2.050581	 2.174273	 1.913248	 -0.759417	 -0.393232	 -0.061204	 0.786143	 -0.401637	 0.465749	 2
1463630226.279	 17	 -1.441026	 1.342467	 1.968279	 1.934234	 -0.735636	 -0.384920	 -0.053422	 0.793049	 -0.391879	 0.463304	 2
1463630226.289	 17	 -1.455263	 0.556936	 1.735152	 1.947967	 -0.713615	 -0.375335	 -0.048258	 0.798051	 -0.382080	 0.463466	 2
1463630226.299	 17	 -1.290656	 0.037579	 1.611652	 1.954865	 -0.693507	 -0.367019	 -0.044551	 0.801304	 -0.372986	 0.465628	 2
1463630226.309	 17	 -1.086467	 -0.139348	 1.643398	 1.957277	 -0.674139	 -0.361304	 -0.040899	 0.803471	 -0.364589	 0.468868	 2
1463630226.319	 17	 -0.829469	 0.020722	 1.673557	 1.958521	 -0.655318	 -0.358708	 -0.036380	 0.805332	 -0.357045	 0.471843	 2
1463630226.329	 17	 -0.571904	 0.466361	 1.775643	 1.961317	 -0.636806	 -0.359685	 -0.030245	 0.807536	 -0.350443	 0.473456	 2
1463630226.339	 17	 -0.445717	 1.212363	 2.029808	 1.968815	 -0.616749	 -0.363713	 -0.021643	 0.810940	 -0.343995	 0.472838	 2
1463630226.349	 17	 -0.445719	 2.104830	 2.043442	 1.984969	 -0.596140	 -0.368702	 -0.011075	 0.816324	 -0.337534	 0.468575	 2
1463630226.359	 17	 -0.517389	 2.707561	 1.821601	 2.008557	 -0.576905	 -0.372567	 -0.000215	 0.823196	 -0.331169	 0.461167	 2
1463630226.369	 17	 -0.548785	 3.063087	 1.554479	 2.037227	 -0.560033	 -0.375148	 0.010152	 0.830902	 -0.325176	 0.451396	 2
1463630226.379	 17	 -0.513634	 3.029291	 1.308734	 2.066739	 -0.545454	 -0.377009	 0.019575	 0.838464	 -0.319673	 0.440913	 2
1463630226.389	 17	 -0.320494	 2.764359	 1.080777	 2.093853	 -0.533703	 -0.379700	 0.028080	 0.845128	 -0.315288	 0.430771	 2
1463630226.399	 17	 -0.139923	 1.955064	 1.022649	 2.113651	 -0.523916	 -0.383896	 0.035474	 0.849934	 -0.311962	 0.423124	 2
1463630226.409	 17	 0.160557	 0.814296	 0.917762	 2.121527	 -0.516206	 -0.390297	 0.041379	 0.851968	 -0.310066	 0.419879	 2
1463630226.419	 17	 0.641498	 -0.281460	 0.786144	 2.116624	 -0.512001	 -0.400238	 0.045918	 0.850982	 -0.310576	 0.421028	 2
1463630226.429	 17	 1.129682	 -1.070078	 0.770292	 2.100091	 -0.510511	 -0.414750	 0.049882	 0.847221	 -0.313450	 0.426001	 2
1463630226.439	 17	 1.439963	 -1.017687	 0.640186	 2.080772	 -0.511470	 -0.432332	 0.054009	 0.842571	 -0.318099	 0.431243	 2
1463630226.459	 18	 1.589943	 -0.168727	 0.581769	 2.052574	 -0.516233	 -0.469928	 0.063952	 0.835103	 -0.328944	 0.436245	 2
1463630226.469	 18	 1.658261	 0.290525	 0.577987	 2.044433	 -0.518582	 -0.489800	 0.070252	 0.832552	 -0.334456	 0.435961	 2
1463630226.479	 18	 1.672912	 0.766244	 0.476776	 2.041212	 -0.521678	 -0.509626	 0.077114	 0.830985	 -0.340069	 0.433440	 2
1463630226.489	 18	 1.605102	 0.942376	 0.390547	 2.041055	 -0.525407	 -0.528459	 0.083891	 0.830038	 -0.345557	 0.429639	 2
1463630226.499	 18	 1.545255	 0.732724	 0.349684	 2.040159	 -0.529260	 -0.546404	 0.090126	 0.828911	 -0.350895	 0.426212	 2
1463630226.509	 18	 1.496183	 0.323044	 0.303669	 2.035647	 -0.533285	 -0.563711	 0.095391	 0.826995	 -0.356298	 0.424301	 2
1463630226.519	 18	 1.334293	 -0.057285	 0.299407	 2.027858	 -0.536726	 -0.579634	 0.099620	 0.824442	 -0.361341	 0.424032	 2
1463630226.529	 18	 1.125767	 -0.104905	 0.248558	 2.019664	 -0.539522	 -0.593346	 0.102999	 0.821915	 -0.365701	 0.424394	 2
1463630226.539	 18	 0.925303	 0.018301	 0.143808	 2.013840	 -0.542156	 -0.604438	 0.105747	 0.820016	 -0.369329	 0.424250	 2
1463630226.549	 18	 0.758150	 0.152369	 0.083630	 2.010378	 -0.544751	 -0.613315	 0.108016	 0.818727	 -0.372346	 0.423528	 2
1463630226.559	 18	 0.674967	 0.345516	 0.137309	 2.009296	 -0.546620	 -0.621151	 0.110496	 0.818015	 -0.374745	 0.422148	 2
1463630226.579	 19	 0.779717	 0.708799	 0.554359	 2.010811	 -0.545609	 -0.640534	 0.118989	 0.817249	 -0.378362	 0.418076	 2
1463630226.589	 19	 0.810074	 0.760191	 0.613189	 2.012305	 -0.543549	 -0.652125	 0.124586	 0.816908	 -0.379939	 0.415675	 2
1463630226.599	 19	 0.731077	 0.851060	 0.498555	 2.015051	 -0.541951	 -0.662794	 0.129914	 0.816836	 -0.381396	 0.412841	 2
1463630226.609	 19	 0.620518	 0.882911	 0.299450	 2.019477	 -0.541575	 -0.671378	 0.134371	 0.817188	 -0.382732	 0.409469	 2
1463630226.619	 19	 0.443329	 0.606370	 0.081004	 2.023360	 -0.542540	 -0.677329	 0.137278	 0.817554	 -0.384031	 0.406546	 2
1463630226.629	 19	 -0.064773	 0.301107	 -0.125236	 2.026805	 -0.543577	 -0.677753	 0.137824	 0.818200	 -0.384256	 0.404846	 2
1463630226.639	 19	 -0.336882	 -0.329190	 -0.176691	 2.027601	 -0.543823	 -0.673725	 0.136261	 0.818632	 -0.383474	 0.405243	 2
1463630226.649	 19	 -0.313572	 -1.321157	 -0.114719	 2.019017	 -0.543607	 -0.669614	 0.132995	 0.817165	 -0.383136	 0.409585	 2
1463630226.659	 19	 -0.300512	 -2.004586	 -0.044457	 2.002127	 -0.542957	 -0.666145	 0.128527	 0.813915	 -0.383289	 0.417268	 2
1463630226.669	 19	 -0.382783	 -2.436697	 0.176048	 1.980421	 -0.540342	 -0.662863	 0.123779	 0.809593	 -0.383028	 0.427231	 2
1463630226.679	 19	 -0.548329	 -2.526088	 0.249130	 1.957543	 -0.536198	 -0.658614	 0.118883	 0.804977	 -0.382022	 0.438107	 2
1463630226.689	 19	 -0.688678	 -2.596274	 0.194279	 1.934880	 -0.531771	 -0.652319	 0.113330	 0.800385	 -0.380376	 0.449282	 2
1463630226.699	 19	 -0.689360	 -2.424744	 0.087173	 1.913619	 -0.528332	 -0.645269	 0.107498	 0.795990	 -0.378739	 0.459783	 2
1463630226.709	 19	 -0.723097	 -2.096120	 0.069210	 1.895598	 -0.525374	 -0.637715	 0.101979	 0.792239	 -0.376895	 0.468944	 2
1463630226.719	 19	 -0.778299	 -2.012125	 0.042762	 1.879756	 -0.522490	 -0.629573	 0.096654	 0.788928	 -0.374752	 0.477296	 2
1463630226.729	 19	 -0.830425	 -2.435237	 0.049937	 1.860985	 -0.519639	 -0.620678	 0.090516	 0.784849	 -0.372498	 0.486892	 2
1463630226.739	 19	 -0.894387	 -2.773076	 -0.068818	 1.838823	 -0.517400	 -0.611031	 0.083318	 0.779834	 -0.370316	 0.497779	 2
1463630226.749	 19	 -1.128030	 -2.956463	 -0.371167	 1.816173	 -0.517667	 -0.598339	 0.074120	 0.774631	 -0.368104	 0.508874	 2
1463630226.759	 19	 -1.355704	 -3.281960	 -0.614142	 1.792118	 -0.520023	 -0.582212	 0.062740	 0.768969	 -0.365577	 0.520676	 2
1463630226.769	 19	 -1.383957	 -3.404946	 -0.864428	 1.767092	 -0.525013	 -0.564618	 0.049844	 0.762824	 -0.363330	 0.532548	 2
1463630226.779	 19	 -1.279001	 -3.389641	 -1.058103	 1.741622	 -0.532538	 -0.547573	 0.036313	 0.756247	 -0.361804	 0.543940	 2
1463630226.789	 19	 -1.154204	 -3.071831	 -1.183058	 1.718020	 -0.542154	 -0.531823	 0.022960	 0.749867	 -0.361010	 0.553934	 2
1463630226.799	 19	 -1.020405	 -2.564624	 -1.147530	 1.698271	 -0.552216	 -0.517707	 0.010786	 0.744312	 -0.360534	 0.562049	 2
1463630226.809	 19	 -0.858406	 -1.777404	 -1.061683	 1.684779	 -0.561892	 -0.505670	 0.000650	 0.740354	 -0.360318	 0.567491	 2
1463630226.819	 19	 -0.732585	 -0.919235	 -1.033478	 1.678991	 -0.571314	 -0.495379	 -0.007363	 0.738487	 -0.360431	 0.569800	 2
1463630226.829	 19	 -0.734217	 -0.262765	 -1.149918	 1.680423	 -0.581576	 -0.485360	 -0.014253	 0.738584	 -0.360903	 0.569244	 2
1463630226.839	 19	 -0.742158	 -0.148656	 -1.404570	 1.684884	 -0.593965	 -0.474700	 -0.021542	 0.739396	 -0.361923	 0.567310	 2
1463630226.849	 19	 -0.682256	 -0.227320	 -1.814010	 1.688891	 -0.610106	 -0.463855	 -0.030225	 0.739844	 -0.364134	 0.564911	 2
1463630226.859	 19	 -0.598330	 -0.235466	 -2.169715	 1.692685	 -0.630135	 -0.453237	 -0.040140	 0.739937	 -0.367699	 0.561854	 2
1463630226.869	 19	 -0.542427	 -0.274785	 -2.288868	 1.696280	 -0.652024	 -0.442856	 -0.050595	 0.739716	 -0.371955	 0.558488	 2
1463630226.879	 19	 -0.513408	 -0.227045	 -2.294005	 1.700096	 -0.674090	 -0.432588	 -0.060991	 0.739357	 -0.376333	 0.554982	 2
1463630226.889	 19	 -0.410255	 -0.072110	 -2.300922	 1.704974	 -0.696306	 -0.423027	 -0.070935	 0.739111	 -0.381018	 0.550916	 2
1463630226.899	 19	 -0.215098	 0.146238	 -2.326167	 1.710906	 -0.718902	 -0.415380	 -0.080047	 0.739012	 -0.386425	 0.546013	 2
1463630226.919	 20	 0.337800	 0.041641	 -2.445991	 1.717224	 -0.766688	 -0.409259	 -0.096672	 0.737018	 -0.400359	 0.535884	 2
1463630226.929	 20	 0.520067	 0.001692	 -2.454345	 1.716150	 -0.791723	 -0.410959	 -0.104407	 0.734836	 -0.408705	 0.531108	 2
1463630226.939	 20	 0.611827	 -0.090376	 -2.350497	 1.709762	 -0.816992	 -0.416797	 -0.111809	 0.731369	 -0.417835	 0.527268	 2
1463630226.949	 20	 0.670793	 -0.295511	 -2.307092	 1.703774	 -0.840720	 -0.421762	 -0.118993	 0.728047	 -0.426145	 0.523630	 2
1463630226.959	 20	 0.886669	 -0.517740	 -2.503942	 1.693265	 -0.865958	 -0.429359	 -0.126744	 0.723541	 -0.435184	 0.520615	 2
1463630226.969	 20	 1.317066	 -0.383256	 -2.851745	 1.678320	 -0.894761	 -0.443094	 -0.134542	 0.717964	 -0.446383	 0.516883	 2
1463630226.979	 20	 1.696210	 -0.220408	 -2.973927	 1.657716	 -0.922311	 -0.465505	 -0.140306	 0.711709	 -0.458757	 0.513154	 2
1463630226.989	 20	 1.844993	 -0.056756	 -2.787191	 1.635029	 -0.951971	 -0.492366	 -0.145977	 0.705201	 -0.472338	 0.508212	 2
1463630226.999	 20	 2.127713	 -0.160015	 -2.685103	 1.606387	 -0.979961	 -0.525869	 -0.150541	 0.698032	 -0.486253	 0.503634	 2
1463630227.009	 20	 2.462555	 -0.478679	 -2.638761	 1.566655	 -1.006891	 -0.568794	 -0.154692	 0.689176	 -0.500901	 0.500204	 2
1463630227.019	 20	 2.583169	 -0.983748	 -2.569908	 1.515190	 -1.031989	 -0.619240	 -0.159287	 0.678505	 -0.515470	 0.498548	 2
1463630227.029	 20	 2.220243	 -1.285315	 -2.501345	 1.458707	 -1.055120	 -0.670173	 -0.165133	 0.667197	 -0.528675	 0.498078	 2
1463630227.039	 20	 1.085819	 -1.095565	 -2.460927	 1.415895	 -1.077701	 -0.705775	 -0.172921	 0.658470	 -0.538480	 0.496542	 2
1463630227.049	 20	 -0.000081	 -1.009268	 -2.440011	 1.393626	 -1.101485	 -0.719502	 -0.183114	 0.653157	 -0.544412	 0.493427	 2
1463630227.059	 20	 -0.539026	 -0.826534	 -2.393119	 1.384368	 -1.125916	 -0.719807	 -0.194456	 0.649849	 -0.548078	 0.489380	 2
1463630227.069	 20	 -0.648716	 -0.413834	 -2.288142	 1.383912	 -1.149916	 -0.714759	 -0.204955	 0.648103	 -0.551098	 0.483990	 2
1463630227.079	 20	 -0.400339	 -0.063174	 -2.233771	 1.383323	 -1.172788	 -0.713650	 -0.213775	 0.646670	 -0.554796	 0.477829	 2
1463630227.089	 20	 -0.131101	 0.269652	 -2.283109	 1.379726	 -1.195396	 -0.719726	 -0.220995	 0.645249	 -0.559737	 0.470648	 2
1463630227.099	 20	 0.224439	 0.183682	 -2.407436	 1.366463	 -1.218405	 -0.736416	 -0.227673	 0.642766	 -0.565960	 0.463365	 2
1463630227.109	 20	 0.498130	 0.021732	 -2.628742	 1.339318	 -1.242600	 -0.765951	 -0.234713	 0.638698	 -0.573369	 0.456314	 2
1463630227.119	 20	 0.609508	 -0.193709	 -2.811830	 1.299341	 -1.267929	 -0.806504	 -0.242588	 0.633376	 -0.581335	 0.449485	 2
1463630227.129	 20	 0.604772	 -0.310367	 -3.060131	 1.247410	 -1.294737	 -0.857724	 -0.251478	 0.627257	 -0.589583	 0.442380	 2
1463630227.139	 20	 0.565476	 -0.682685	 -3.376587	 1.178689	 -1.323631	 -0.923053	 -0.262170	 0.620098	 -0.597876	 0.435075	 2
1463630227.149	 20	 0.417276	 -1.089577	 -3.664708	 1.086437	 -1.354307	 -1.007740	 -0.275219	 0.611755	 -0.605745	 0.427882	 2
1463630227.159	 20	 0.206936	 -1.543302	 -3.689479	 0.967017	 -1.384691	 -1.114894	 -0.290299	 0.602660	 -0.612367	 0.421346	 2
1463630227.169	 20	 -0.039780	 -1.763333	 -3.477292	 0.821183	 -1.412157	 -1.245411	 -0.306120	 0.593694	 -0.617285	 0.415666	 2
1463630227.179	 20	 -0.542780	 -1.851269	 -3.193435	 0.656962	 -1.437170	 -1.393005	 -0.322201	 0.586035	 -0.620004	 0.410297	 2
1463630227.189	 20	 -1.401885	 -1.820688	 -2.697551	 0.494069	 -1.462491	 -1.538431	 -0.338614	 0.581169	 -0.619348	 0.404959	 2
1463630227.199	 20	 -2.247276	 -1.715912	 -1.791844	 0.372370	 -1.489828	 -1.643244	 -0.354053	 0.580498	 -0.614471	 0.400118	 2
1463630227.209	 20	 -2.697638	 -1.366615	 -0.595282	 0.373673	 -1.517491	 -1.627347	 -0.366351	 0.583939	 -0.606047	 0.396874	 2
1463630227.219	 20	 -2.530666	 -0.871625	 0.554631	 0.744185	 -1.538300	 -1.246463	 -0.373650	 0.590284	 -0.595994	 0.395907	 2
1463630227.229	 20	 -2.495892	 -0.044727	 1.073588	 1.599123	 -1.538980	 -0.388298	 -0.376488	 0.598922	 -0.586119	 0.394987	 2
1463630227.239	 20	 -2.591884	 1.429688	 1.216036	 2.125636	 -1.519592	 0.128435	 -0.374986	 0.610628	 -0.577932	 0.390530	 2
1463630227.249	 20	 -2.506121	 3.176070	 1.388206	 2.337932	 -1.493324	 0.313575	 -0.367852	 0.625734	 -0.572603	 0.381139	 2
1463630227.259	 20	 -2.182253	 4.635334	 1.664340	 2.426102	 -1.465877	 0.359049	 -0.354821	 0.643136	 -0.570156	 0.367967	 2
1463630227.269	 20	 -1.756780	 5.721757	 1.902016	 2.462631	 -1.439721	 0.340602	 -0.336521	 0.661522	 -0.570226	 0.352115	 2
1463630227.279	 20	 -1.363366	 6.173905	 2.076517	 2.476396	 -1.415685	 0.292848	 -0.314793	 0.679471	 -0.571794	 0.335075	 2
1463630227.289	 20	 -1.059605	 5.908699	 2.295215	 2.473362	 -1.392977	 0.228685	 -0.291686	 0.695944	 -0.573393	 0.319062	 2
1463630227.299	 20	 -0.944538	 4.844723	 2.437782	 2.457981	 -1.370497	 0.160508	 -0.269927	 0.710117	 -0.573530	 0.306489	 2
1463630227.309	 20	 -1.047421	 3.327846	 2.519415	 2.435938	 -1.346672	 0.099916	 -0.251850	 0.721914	 -0.570963	 0.299020	 2
1463630227.319	 20	 -1.184967	 1.760577	 2.531607	 2.409697	 -1.321335	 0.050850	 -0.238256	 0.731480	 -0.565644	 0.297016	 2
1463630227.329	 20	 -1.287898	 0.411278	 2.401648	 2.382046	 -1.295465	 0.014699	 -0.229116	 0.738970	 -0.558200	 0.299735	 2
1463630227.339	 20	 -1.285494	 -0.503739	 2.212999	 2.354829	 -1.270444	 -0.010446	 -0.223556	 0.744635	 -0.549639	 0.305678	 2
1463630227.349	 20	 -1.204315	 -0.854646	 2.110977	 2.328152	 -1.246645	 -0.030048	 -0.219696	 0.749093	 -0.540882	 0.313114	 2
1463630227.359	 20	 -1.132996	 -0.637075	 2.075078	 2.304442	 -1.223529	 -0.047512	 -0.215602	 0.753296	 -0.532488	 0.320184	 2
1463630227.369	 20	 -1.139582	 -0.115755	 1.946767	 2.289569	 -1.201123	 -0.060775	 -0.210592	 0.758028	 -0.524718	 0.325140	 2
1463630227.379	 20	 -1.063700	 0.243639	 1.816230	 2.281368	 -1.180042	 -0.071316	 -0.204922	 0.763038	 -0.517734	 0.328226	 2
1463630227.389	 20	 -0.992370	 0.576214	 1.651211	 2.291550	 -1.180596	 -0.067812	 -0.203723	 0.764206	 -0.518408	 0.325175	 2
1463630227.399	 20	 -0.968549	 0.771849	 1.504680	 2.292277	 -1.163042	 -0.075038	 -0.197595	 0.769361	 -0.513069	 0.325270	 2
1463630227.409	 20	 -0.951023	 0.768570	 1.353158	 2.295433	 -1.146261	 -0.080096	 -0.191786	 0.774425	 -0.507868	 0.324891	 2
1463630227.419	 20	 -0.910473	 0.668443	 1.202667	 2.299495	 -1.130877	 -0.083285	 -0.186715	 0.779057	 -0.502934	 0.324447	 2
1463630227.429	 20	 -0.830327	 0.568399	 1.079541	 2.303234	 -1.116929	 -0.085703	 -0.182286	 0.783174	 -0.498351	 0.324123	 2
1463630227.439	 20	 -0.716917	 0.486515	 0.980807	 2.305931	 -1.104482	 -0.088362	 -0.178296	 0.786753	 -0.494256	 0.323947	 2
1463630227.449	 20	 -0.595982	 0.392054	 0.910667	 2.307016	 -1.093410	 -0.091786	 -0.174648	 0.789785	 -0.490648	 0.324042	 2
1463630227.459	 20	 -0.436124	 0.359557	 0.894052	 2.305936	 -1.083567	 -0.097089	 -0.170999	 0.792314	 -0.487619	 0.324386	 2
1463630227.469	 20	 -0.251166	 0.433445	 0.890997	 2.302997	 -1.074953	 -0.105051	 -0.166953	 0.794453	 -0.485336	 0.324684	 2
1463630227.479	 20	 -0.075374	 0.600949	 0.886762	 2.299309	 -1.067555	 -0.115580	 -0.162269	 0.796371	 -0.483884	 0.324529	 2
1463630227.489	 20	 0.077922	 0.773638	 0.855062	 2.295707	 -1.061358	 -0.128065	 -0.156984	 0.798149	 -0.483228	 0.323737	 2
1463630227.499	 20	 0.227812	 0.934366	 0.785978	 2.292628	 -1.056588	 -0.141846	 -0.151304	 0.799752	 -0.483378	 0.322257	 2
1463630227.509	 20	 0.392500	 1.082138	 0.696395	 2.290072	 -1.053479	 -0.156798	 -0.145333	 0.801120	 -0.484393	 0.320076	 2
1463630227.519	 20	 0.571942	 1.218982	 0.572477	 2.287986	 -1.052372	 -0.172858	 -0.139184	 0.802166	 -0.486379	 0.317165	 2
1463630227.529	 20	 0.758431	 1.304423	 0.403258	 2.286270	 -1.053675	 -0.189634	 -0.133131	 0.802762	 -0.489405	 0.313579	 2
1463630227.539	 20	 0.928535	 1.329121	 0.211235	 2.284677	 -1.057523	 -0.206700	 -0.127446	 0.802816	 -0.493425	 0.309476	 2
1463630227.549	 20	 1.081214	 1.295237	 0.000701	 2.283001	 -1.063914	 -0.223600	 -0.122377	 0.802276	 -0.498337	 0.305020	 2
1463630227.559	 20	 1.243153	 1.193211	 -0.215876	 2.280652	 -1.072985	 -0.240263	 -0.118146	 0.801026	 -0.504131	 0.300419	 2
1463630227.569	 20	 1.494335	 1.046966	 -0.480536	 2.276452	 -1.085344	 -0.257381	 -0.114923	 0.798811	 -0.511051	 0.295839	 2
1463630227.579	 20	 2.022947	 0.683847	 -0.765616	 2.265097	 -1.102717	 -0.278952	 -0.112905	 0.794728	 -0.519987	 0.292015	 2
1463630227.589	 20	 2.665822	 0.280461	 -0.983856	 2.241321	 -1.125766	 -0.309643	 -0.111975	 0.788170	 -0.531465	 0.289471	 2
1463630227.599	 20	 2.882585	 0.251758	 -1.187440	 2.208915	 -1.152336	 -0.347736	 -0.111691	 0.780099	 -0.544526	 0.287161	 2
1463630227.609	 20	 2.183466	 0.762558	 -1.286373	 2.187035	 -1.176794	 -0.378239	 -0.111510	 0.773630	 -0.556048	 0.282619	 2
1463630227.619	 20	 0.746639	 1.656196	 -1.105683	 2.194546	 -1.193026	 -0.385145	 -0.110531	 0.771688	 -0.562911	 0.274613	 2
1463630227.629	 20	 -0.671649	 2.052949	 -0.502407	 2.233618	 -1.196069	 -0.365742	 -0.107728	 0.775247	 -0.563462	 0.264379	 2
1463630227.639	 20	 -0.951852	 0.978484	 0.086862	 2.265608	 -1.190504	 -0.345056	 -0.105553	 0.779541	 -0.560537	 0.258789	 2
1463630227.649	 20	 -0.545181	 0.055270	 0.397656	 2.275405	 -1.183591	 -0.337203	 -0.104391	 0.781918	 -0.557615	 0.258404	 2
1463630227.659	 20	 -0.111430	 -0.596290	 0.485866	 2.267486	 -1.178652	 -0.341093	 -0.104012	 0.782175	 -0.555972	 0.261303	 2
1463630227.669	 20	 0.064817	 -1.256107	 0.504836	 2.248211	 -1.175003	 -0.350026	 -0.105078	 0.780886	 -0.554867	 0.267017	 2
1463630227.679	 20	 0.105049	 -1.591964	 0.554649	 2.222994	 -1.171372	 -0.360834	 -0.107041	 0.778818	 -0.553733	 0.274528	 2
1463630227.689	 20	 0.019621	 -1.623449	 0.578546	 2.197763	 -1.167043	 -0.370493	 -0.109270	 0.776729	 -0.552225	 0.282489	 2
1463630227.699	 20	 -0.041630	 -1.298541	 0.623668	 2.176129	 -1.161878	 -0.378729	 -0.110830	 0.775142	 -0.550452	 0.289610	 2
1463630227.709	 20	 0.047094	 -0.611514	 0.650603	 2.159609	 -1.156588	 -0.388043	 -0.110503	 0.774305	 -0.549106	 0.294487	 2
1463630227.719	 20	 0.119213	 0.217718	 0.626785	 2.149447	 -1.151996	 -0.399285	 -0.107830	 0.774322	 -0.548666	 0.296250	 2
1463630227.729	 20	 -0.428862	 0.733334	 0.666196	 2.152558	 -1.145180	 -0.402842	 -0.103941	 0.776296	 -0.547065	 0.295433	 2
1463630227.739	 20	 -1.163976	 0.418554	 0.815677	 2.166759	 -1.133247	 -0.393512	 -0.100821	 0.780227	 -0.542372	 0.294812	 2
1463630227.749	 20	 -1.812750	 -0.494045	 0.843741	 2.182134	 -1.116817	 -0.373200	 -0.100718	 0.784672	 -0.534487	 0.297437	 2
1463630227.759	 20	 -2.162395	 -0.839789	 0.546220	 2.201477	 -1.099350	 -0.343003	 -0.103408	 0.789442	 -0.524831	 0.301066	 2
1463630227.769	 20	 -1.492968	 -0.955778	 0.222781	 2.215768	 -1.086592	 -0.316168	 -0.107397	 0.792711	 -0.516963	 0.304671	 2
1463630227.779	 20	 -0.010993	 -0.349609	 0.222978	 2.213293	 -1.082723	 -0.312736	 -0.108525	 0.792913	 -0.514910	 0.307211	 2
1463630227.789	 20	 0.384940	 0.660887	 0.098911	 2.210190	 -1.083766	 -0.320969	 -0.106297	 0.792674	 -0.516381	 0.306136	 2
1463630227.799	 20	 -0.168813	 1.107528	 -0.135105	 2.221739	 -1.084363	 -0.319798	 -0.103912	 0.794250	 -0.517025	 0.301752	 2
1463630227.809	 20	 -0.568031	 0.710264	 -0.223784	 2.240116	 -1.082963	 -0.308669	 -0.103283	 0.796706	 -0.515802	 0.297558	 2
1463630227.819	 20	 -0.490180	 -0.165658	 -0.270980	 2.251771	 -1.081656	 -0.296252	 -0.104947	 0.798053	 -0.514088	 0.296329	 2
1463630227.829	 20	 -0.089572	 -1.050104	 -0.189977	 2.248740	 -1.081950	 -0.290089	 -0.108247	 0.797214	 -0.513117	 0.299071	 2
1463630227.839	 20	 0.646938	 -1.621929	 -0.277380	 2.229978	 -1.086601	 -0.294283	 -0.112415	 0.793671	 -0.514413	 0.304677	 2
1463630227.849	 20	 1.434163	 -1.759664	 -0.472024	 2.197932	 -1.097490	 -0.310599	 -0.116683	 0.787485	 -0.519013	 0.311252	 2
1463630227.859	 20	 1.847856	 -1.520236	 -0.582106	 2.159628	 -1.112212	 -0.335695	 -0.120269	 0.780042	 -0.525881	 0.317048	 2
1463630227.869	 20	 2.083556	 -1.317841	 -0.590801	 2.117295	 -1.128069	 -0.367649	 -0.122911	 0.772149	 -0.533858	 0.321986	 2
1463630227.879	 20	 2.294964	 -1.260265	 -0.632605	 2.069286	 -1.144668	 -0.406595	 -0.125058	 0.763656	 -0.542712	 0.326578	 2
1463630227.889	 20	 2.252145	 -1.240345	 -0.689598	 2.017971	 -1.161088	 -0.449096	 -0.127283	 0.754933	 -0.551705	 0.330903	 2
1463630227.899	 20	 1.973525	 -1.184857	 -0.777245	 1.969391	 -1.176431	 -0.488983	 -0.130014	 0.746766	 -0.559909	 0.334572	 2
1463630227.909	 20	 1.651653	 -1.237827	 -0.878315	 1.925240	 -1.190643	 -0.523382	 -0.133704	 0.739267	 -0.566946	 0.337905	 2
1463630227.919	 20	 1.347502	 -1.289505	 -1.087168	 1.886862	 -1.205089	 -0.550924	 -0.138722	 0.732348	 -0.573068	 0.340610	 2
1463630227.929	 20	 1.059425	 -1.347435	 -1.271708	 1.854433	 -1.220187	 -0.571317	 -0.145119	 0.725948	 -0.578341	 0.342726	 2
1463630227.939	 20	 0.842524	 -1.326193	 -1.363408	 1.827046	 -1.235498	 -0.586162	 -0.152336	 0.720065	 -0.582866	 0.344337	 2
1463630227.949	 20	 0.742717	 -1.167862	 -1.423946	 1.803256	 -1.251021	 -0.598468	 -0.159635	 0.714651	 -0.587075	 0.345158	 2
1463630227.959	 20	 0.764241	 -0.895709	 -1.433324	 1.780549	 -1.266660	 -0.612118	 -0.166307	 0.709591	 -0.591434	 0.345005	 2
1463630227.969	 20	 0.898425	 -0.545804	 -1.382212	 1.755618	 -1.282048	 -0.631543	 -0.171657	 0.704768	 -0.596338	 0.343826	 2
1463630227.979	 20	 1.108144	 -0.254542	 -1.320579	 1.724232	 -1.296975	 -0.660897	 -0.175489	 0.699906	 -0.602052	 0.341862	 2
1463630227.989	 20	 1.317905	 -0.154952	 -1.289506	 1.682931	 -1.311497	 -0.702019	 -0.178343	 0.694651	 -0.608528	 0.339629	 2
1463630227.999	 20	 1.472220	 -0.258460	 -1.273695	 1.629324	 -1.325448	 -0.755092	 -0.180998	 0.688726	 -0.615468	 0.337780	 2
1463630228.009	 20	 1.545664	 -0.539345	 -1.256698	 1.563139	 -1.338447	 -0.818463	 -0.184163	 0.682058	 -0.622422	 0.336857	 2
1463630228.019	 20	 1.559897	 -0.899028	 -1.276156	 1.484878	 -1.350380	 -0.890485	 -0.188359	 0.674641	 -0.629092	 0.337083	 2
1463630228.029	 20	 1.530440	 -1.254248	 -1.284533	 1.395570	 -1.361182	 -0.969962	 -0.193771	 0.666570	 -0.635323	 0.338383	 2
1463630228.049	 21	 1.406680	 -1.812369	 -1.150100	 1.194407	 -1.376446	 -1.142128	 -0.207118	 0.649314	 -0.645728	 0.344281	 2
1463630228.059	 21	 1.350614	 -1.975636	 -1.099975	 1.087426	 -1.380868	 -1.231351	 -0.214623	 0.640364	 -0.650006	 0.348373	 2
1463630228.069	 21	 1.291920	 -2.012372	 -1.056109	 0.979907	 -1.383348	 -1.320347	 -0.222275	 0.631415	 -0.653836	 0.352715	 2
1463630228.079	 21	 1.223973	 -1.955647	 -1.034740	 0.874757	 -1.384202	 -1.407261	 -0.229800	 0.622670	 -0.657336	 0.356908	 2
1463630228.089	 21	 1.158941	 -1.941625	 -1.034021	 0.772554	 -1.383843	 -1.491606	 -0.237270	 0.614126	 -0.660569	 0.360834	 2
1463630228.109	 22	 1.023376	 -1.874856	 -1.121744	 0.576168	 -1.380220	 -1.651542	 -0.252780	 0.597227	 -0.666139	 0.368348	 2
1463630228.119	 22	 0.929689	 -1.791926	 -1.163852	 0.481630	 -1.377809	 -1.729458	 -0.260476	 0.589207	 -0.668808	 0.371057	 2
1463630228.139	 23	 0.594104	 -1.472671	 -1.129184	 0.314132	 -1.373315	 -1.867278	 -0.275270	 0.575262	 -0.672969	 0.374717	 2
1463630228.149	 23	 0.478616	 -1.327410	 -1.091657	 0.240928	 -1.371512	 -1.928121	 -0.282054	 0.569491	 -0.674587	 0.375577	 2
1463630228.159	 23	 0.401367	 -1.259563	 -1.007223	 0.174268	 -1.369513	 -1.983217	 -0.288461	 0.564217	 -0.675913	 0.376285	 2
1463630228.169	 23	 0.311889	 -1.315945	 -0.898261	 0.114316	 -1.367537	 -2.031195	 -0.294810	 0.559298	 -0.676706	 0.377281	 2
1463630228.179	 23	 0.206219	 -1.421123	 -0.777889	 0.060334	 -1.365916	 -2.072064	 -0.301351	 0.554660	 -0.676809	 0.378774	 2
1463630228.189	 23	 0.112462	 -1.480675	 -0.667853	 0.012194	 -1.364831	 -2.106249	 -0.307975	 0.550366	 -0.676259	 0.380687	 2
1463630228.199	 23	 0.067582	 -1.542865	 -0.608358	 -0.032615	 -1.364013	 -2.136437	 -0.314685	 0.546234	 -0.675272	 0.382896	 2
1463630228.209	 23	 0.051983	 -1.694808	 -0.593650	 -0.077382	 -1.363104	 -2.165377	 -0.321752	 0.541925	 -0.673965	 0.385440	 2
1463630228.219	 23	 -0.117803	 -2.004353	 -0.520449	 -0.122429	 -1.363184	 -2.191768	 -0.329798	 0.537534	 -0.671712	 0.388707	 2
1463630228.229	 23	 -0.483496	 -2.237636	 -0.423517	 -0.168390	 -1.366303	 -2.216385	 -0.339080	 0.533784	 -0.667919	 0.392408	 2
1463630228.239	 23	 -0.954612	 -2.318523	 -0.181437	 -0.211375	 -1.374044	 -2.236712	 -0.349070	 0.531585	 -0.662219	 0.396275	 2
1463630228.249	 23	 -1.362208	 -2.352187	 0.144725	 -0.247187	 -1.386481	 -2.249400	 -0.359150	 0.531187	 -0.654624	 0.400399	 2
1463630228.259	 23	 -1.673218	 -2.156498	 0.603268	 -0.266068	 -1.403282	 -2.245964	 -0.368338	 0.532818	 -0.645317	 0.404968	 2
1463630228.269	 23	 -1.991226	 -1.440407	 1.099754	 -0.253801	 -1.424235	 -2.216895	 -0.374868	 0.537396	 -0.635166	 0.408953	 2
1463630228.279	 23	 -2.208581	 -0.777605	 1.475502	 -0.198705	 -1.448449	 -2.152036	 -0.378438	 0.544944	 -0.624731	 0.411742	 2
1463630228.289	 23	 -2.380925	 -0.392631	 1.691606	 -0.085285	 -1.473968	 -2.033063	 -0.380236	 0.554309	 -0.613986	 0.413744	 2
1463630228.299	 23	 -2.558020	 0.068458	 1.695307	 0.122026	 -1.498928	 -1.824496	 -0.380823	 0.565099	 -0.603311	 0.414309	 2
1463630228.309	 23	 -2.664257	 0.511302	 1.558606	 0.506908	 -1.519511	 -1.443024	 -0.380515	 0.576888	 -0.593247	 0.412875	 2
1463630228.319	 23	 -2.646139	 0.855854	 1.411382	 1.144390	 -1.527312	 -0.812556	 -0.379516	 0.589048	 -0.583971	 0.409839	 2
1463630228.329	 23	 -2.410483	 1.330056	 1.337008	 1.709603	 -1.517165	 -0.258730	 -0.377098	 0.601253	 -0.576096	 0.405469	 2
1463630228.339	 23	 -1.891369	 1.821497	 1.407402	 1.979020	 -1.498226	 -0.005883	 -0.372129	 0.613116	 -0.570322	 0.400426	 2
1463630228.349	 23	 -1.188891	 2.183408	 1.583701	 2.067501	 -1.478448	 0.061861	 -0.364144	 0.623996	 -0.566903	 0.395789	 2
1463630228.359	 23	 -0.606073	 2.488479	 1.793552	 2.073405	 -1.459650	 0.043464	 -0.353271	 0.633968	 -0.565503	 0.391780	 2
1463630228.369	 23	 -0.357514	 2.513777	 2.009039	 2.051399	 -1.440583	 -0.004205	 -0.340653	 0.643405	 -0.564830	 0.388526	 2
1463630228.379	 23	 -0.517086	 2.166292	 2.281096	 2.031838	 -1.418816	 -0.046885	 -0.327964	 0.652776	 -0.562872	 0.386650	 2
1463630228.389	 23	 -0.924793	 1.752097	 2.493943	 2.029027	 -1.393254	 -0.068455	 -0.316315	 0.662576	 -0.558431	 0.386123	 2
1463630228.399	 23	 -1.292927	 1.484521	 2.554342	 2.041229	 -1.365049	 -0.071738	 -0.305851	 0.672872	 -0.551877	 0.386174	 2
1463630228.409	 23	 -1.498866	 1.306075	 2.504383	 2.060512	 -1.335959	 -0.065799	 -0.296429	 0.683268	 -0.544095	 0.386311	 2
1463630228.419	 23	 -1.536194	 1.133461	 2.446617	 2.079007	 -1.307028	 -0.058854	 -0.287759	 0.693275	 -0.535780	 0.386658	 2
1463630228.429	 23	 -1.464137	 0.991021	 2.487294	 2.091756	 -1.278141	 -0.056074	 -0.279317	 0.702692	 -0.527220	 0.387615	 2
1463630228.439	 23	 -1.332105	 1.015404	 2.382993	 2.100845	 -1.250354	 -0.057145	 -0.270767	 0.711555	 -0.519085	 0.388492	 2
1463630228.449	 23	 -1.197534	 1.002724	 2.155761	 2.108939	 -1.225024	 -0.059250	 -0.262633	 0.719639	 -0.511722	 0.388953	 2
1463630228.459	 23	 -1.074911	 0.920101	 1.958891	 2.116122	 -1.202179	 -0.061673	 -0.255144	 0.726878	 -0.505056	 0.389190	 2
1463630228.469	 23	 -0.951056	 0.786104	 1.864910	 2.120765	 -1.181000	 -0.065512	 -0.248124	 0.733308	 -0.498841	 0.389683	 2
1463630228.479	 23	 -0.838711	 0.650448	 1.830696	 2.122311	 -1.160822	 -0.071272	 -0.241351	 0.739036	 -0.492912	 0.390656	 2
1463630228.489	 23	 -0.743422	 0.515930	 1.799839	 2.121250	 -1.141408	 -0.078439	 -0.234809	 0.744141	 -0.487183	 0.392137	 2
1463630228.499	 23	 -0.635185	 0.412212	 1.768090	 2.117911	 -1.122795	 -0.086934	 -0.228430	 0.748660	 -0.481721	 0.394047	 2
1463630228.509	 23	 -0.506412	 0.360576	 1.739845	 2.112609	 -1.105064	 -0.096981	 -0.222051	 0.752652	 -0.476665	 0.396229	 2
1463630228.519	 23	 -0.370983	 0.362105	 1.712036	 2.105773	 -1.088224	 -0.108689	 -0.215517	 0.756205	 -0.472114	 0.398516	 2
1463630228.529	 23	 -0.220410	 0.436719	 1.648539	 2.098288	 -1.072534	 -0.121833	 -0.208759	 0.759407	 -0.468232	 0.400599	 2
1463630228.539	 23	 -0.007628	 0.619278	 1.535414	 2.090826	 -1.058645	 -0.136841	 -0.201609	 0.762305	 -0.465422	 0.402029	 2
1463630228.559	 24	 0.498650	 1.206833	 1.214613	 2.078092	 -1.038443	 -0.174203	 -0.185545	 0.767375	 -0.464363	 0.401343	 2
1463630228.569	 24	 0.693290	 1.461150	 1.015988	 2.073842	 -1.032208	 -0.195460	 -0.176873	 0.769646	 -0.465980	 0.399028	 2
1463630228.579	 24	 0.837843	 1.565121	 0.744993	 2.071058	 -1.028914	 -0.216788	 -0.168507	 0.771554	 -0.468793	 0.395654	 2
1463630228.589	 24	 0.931360	 1.510523	 0.440994	 2.069016	 -1.028741	 -0.237077	 -0.161112	 0.772856	 -0.472556	 0.391697	 2
1463630228.599	 24	 1.000971	 1.350824	 0.154344	 2.066793	 -1.031445	 -0.255928	 -0.155020	 0.773419	 -0.477015	 0.387619	 2
1463630228.609	 24	 1.082240	 1.181455	 -0.141025	 2.063847	 -1.037045	 -0.273565	 -0.150300	 0.773184	 -0.482168	 0.383550	 2
1463630228.619	 24	 1.203089	 1.080682	 -0.494716	 2.060455	 -1.046111	 -0.290240	 -0.146954	 0.772144	 -0.488272	 0.379194	 2
1463630228.629	 24	 1.347259	 0.995376	 -0.906018	 2.056939	 -1.059325	 -0.306036	 -0.145062	 0.770260	 -0.495578	 0.374245	 2
1463630228.639	 24	 1.517409	 0.773748	 -1.331604	 2.051852	 -1.077013	 -0.321343	 -0.144940	 0.767233	 -0.504126	 0.369057	 2
1463630228.649	 24	 1.633279	 0.555706	 -1.724710	 2.045068	 -1.098899	 -0.335905	 -0.146688	 0.763075	 -0.513709	 0.363734	 2
1463630228.659	 24	 1.705754	 0.287828	 -1.967631	 2.035755	 -1.123654	 -0.350312	 -0.149996	 0.757918	 -0.523867	 0.358643	 2
1463630228.669	 24	 1.639461	 -0.130503	 -2.040221	 2.022706	 -1.149289	 -0.364549	 -0.154727	 0.751925	 -0.533793	 0.354589	 2
1463630228.689	 25	 0.594059	 -1.194191	 -1.740472	 1.996295	 -1.192640	 -0.374167	 -0.169657	 0.739876	 -0.547161	 0.352725	 2
1463630228.699	 25	 -0.729259	 0.827982	 -0.921469	 2.019403	 -1.201721	 -0.351225	 -0.174190	 0.740195	 -0.547990	 0.348534	 2
1463630228.709	 25	 -1.270239	 1.332720	 0.113202	 2.062914	 -1.197268	 -0.319556	 -0.172942	 0.745854	 -0.544863	 0.341931	 2
1463630228.719	 25	 -0.771628	 0.325003	 0.834859	 2.081094	 -1.186855	 -0.306348	 -0.170386	 0.749965	 -0.540740	 0.340766	 2
1463630228.729	 25	 -0.189932	 -0.572344	 1.116660	 2.071315	 -1.175915	 -0.312806	 -0.167914	 0.751072	 -0.537392	 0.344827	 2
1463630228.739	 25	 0.014233	 -1.071648	 0.987674	 2.050493	 -1.166697	 -0.325076	 -0.166592	 0.750319	 -0.534741	 0.351171	 2
1463630228.749	 25	 -0.013715	 -1.751396	 0.669324	 2.026887	 -1.159955	 -0.333702	 -0.167942	 0.748163	 -0.532091	 0.359064	 2
1463630228.759	 25	 -0.081879	 -2.173288	 0.398485	 2.002886	 -1.155742	 -0.336899	 -0.172026	 0.744875	 -0.529265	 0.368030	 2
1463630228.769	 25	 -0.193073	 -1.999521	 0.408530	 1.981696	 -1.151391	 -0.337359	 -0.176301	 0.741786	 -0.526105	 0.376677	 2
1463630228.779	 25	 -0.254258	 -1.386789	 0.396647	 1.967621	 -1.146718	 -0.335643	 -0.179386	 0.739823	 -0.523030	 0.383304	 2
1463630228.789	 25	 -0.202988	 -0.686131	 0.381405	 1.960457	 -1.142371	 -0.334319	 -0.180581	 0.739120	 -0.520741	 0.387196	 2
1463630228.799	 25	 -0.368867	 -0.695103	 0.543696	 1.956099	 -1.136676	 -0.331934	 -0.181064	 0.739092	 -0.518063	 0.390601	 2
1463630228.809	 25	 -0.690401	 -0.622146	 0.647356	 1.956549	 -1.128670	 -0.324016	 -0.181724	 0.739912	 -0.513982	 0.394119	 2
1463630228.819	 25	 -0.747425	 -0.146877	 1.041278	 1.960935	 -1.117221	 -0.315981	 -0.180508	 0.742119	 -0.509090	 0.396867	 2
1463630228.829	 25	 -0.693641	 0.130900	 1.087091	 1.966500	 -1.104162	 -0.310884	 -0.177503	 0.745116	 -0.504316	 0.398698	 2
1463630228.839	 25	 -0.533615	 0.114868	 0.554799	 1.972869	 -1.095397	 -0.305146	 -0.175709	 0.747449	 -0.500851	 0.399493	 2
1463630228.859	 26	 -0.248988	 1.227736	 -0.310183	 1.992202	 -1.093196	 -0.295014	 -0.174087	 0.750801	 -0.499798	 0.395213	 2
1463630228.869	 26	 -0.531284	 2.483811	 -0.870483	 2.028564	 -1.097801	 -0.278834	 -0.172267	 0.755639	 -0.501342	 0.384695	 2
1463630228.879	 26	 -0.606142	 3.070928	 -1.339698	 2.079921	 -1.105907	 -0.254593	 -0.170568	 0.761686	 -0.503955	 0.369825	 2
1463630228.889	 26	 -0.501062	 2.802972	 -1.433696	 2.133608	 -1.115589	 -0.227251	 -0.169737	 0.767124	 -0.506968	 0.354531	 2
1463630228.899	 26	 0.026412	 2.017756	 -0.964936	 2.171083	 -1.124044	 -0.210776	 -0.168446	 0.770487	 -0.510282	 0.342911	 2
1463630228.919	 27	 1.145048	 -1.308721	 -0.445039	 2.148219	 -1.141808	 -0.232323	 -0.170034	 0.764601	 -0.518363	 0.343180	 2
1463630228.929	 27	 1.029352	 -1.519742	 -0.843525	 2.121974	 -1.153825	 -0.244456	 -0.174998	 0.758565	 -0.522398	 0.347930	 2
1463630228.939	 27	 1.069284	 -1.946657	 -1.030090	 2.095095	 -1.167794	 -0.254146	 -0.181664	 0.751773	 -0.526503	 0.353030	 2
1463630228.949	 27	 1.160047	 -2.599043	 -1.047609	 2.058927	 -1.182470	 -0.266851	 -0.190000	 0.743429	 -0.530359	 0.360462	 2
1463630228.959	 27	 1.151382	 -2.828958	 -1.075251	 2.016977	 -1.197211	 -0.281791	 -0.199293	 0.734184	 -0.533855	 0.369128	 2
1463630228.969	 27	 1.092147	 -2.642238	 -1.164653	 1.975903	 -1.212155	 -0.296851	 -0.208612	 0.725017	 -0.537267	 0.377063	 2
1463630228.979	 27	 1.116468	 -2.386644	 -1.256274	 1.936224	 -1.227753	 -0.313028	 -0.217573	 0.716073	 -0.540978	 0.383725	 2
1463630228.989	 28	 1.236696	 -2.173761	 -1.332075	 1.894145	 -1.244157	 -0.334047	 -0.225946	 0.707053	 -0.545331	 0.389408	 2
1463630229.009	 28	 1.366765	 -1.958371	 -1.351452	 1.796784	 -1.277790	 -0.394383	 -0.241186	 0.688614	 -0.555427	 0.398925	 2
1463630229.019	 28	 1.334605	 -1.419154	 -1.222526	 1.744408	 -1.292831	 -0.432335	 -0.247259	 0.680120	 -0.560613	 0.402509	 2
1463630229.029	 28	 1.276996	 -0.917527	 -1.007402	 1.693892	 -1.305240	 -0.474103	 -0.251137	 0.673084	 -0.565845	 0.404607	 2
1463630229.039	 28	 1.178149	 -0.536182	 -0.821813	 1.645751	 -1.315029	 -0.517409	 -0.253374	 0.667289	 -0.570846	 0.405786	 2
1463630229.049	 28	 1.106168	 -0.260910	 -0.732298	 1.600604	 -1.323077	 -0.560727	 -0.254501	 0.662482	 -0.575679	 0.406128	 2
1463630229.059	 28	 1.104041	 -0.251400	 -0.741783	 1.554297	 -1.330498	 -0.606065	 -0.255359	 0.657897	 -0.580508	 0.406170	 2
1463630229.069	 28	 1.129248	 -0.501951	 -0.814674	 1.502093	 -1.337936	 -0.655331	 -0.256931	 0.652737	 -0.585241	 0.406710	 2
1463630229.079	 28	 1.141212	 -0.826016	 -0.910500	 1.442250	 -1.345653	 -0.709151	 -0.259676	 0.646730	 -0.589793	 0.407987	 2
1463630229.089	 28	 1.134203	 -1.125346	 -0.976104	 1.374927	 -1.353315	 -0.767350	 -0.263566	 0.639950	 -0.594039	 0.410018	 2
1463630229.099	 28	 1.091615	 -1.337878	 -0.967053	 1.302211	 -1.360255	 -0.828563	 -0.268235	 0.632709	 -0.597845	 0.412688	 2
1463630229.109	 28	 0.999753	 -1.427397	 -0.881826	 1.228762	 -1.365833	 -0.889167	 -0.273208	 0.625480	 -0.601032	 0.415805	 2
1463630229.129	 29	 0.774803	 -1.146182	 -0.621467	 1.097968	 -1.372204	 -0.996405	 -0.281811	 0.612910	 -0.605794	 0.421826	 2
1463630229.139	 29	 0.670420	 -0.950605	 -0.534543	 1.044306	 -1.373731	 -1.040973	 -0.285052	 0.607908	 -0.607676	 0.424173	 2
1463630229.149	 29	 0.589978	 -0.854261	 -0.481790	 0.996670	 -1.374740	 -1.080693	 -0.287889	 0.603507	 -0.609321	 0.426178	 2
1463630229.159	 29	 0.505657	 -0.848768	 -0.491662	 0.952398	 -1.375787	 -1.117196	 -0.290801	 0.599388	 -0.610719	 0.428008	 2
1463630229.169	 29	 0.415377	 -0.931913	 -0.553464	 0.909213	 -1.377481	 -1.151957	 -0.294241	 0.595322	 -0.611846	 0.429719	 2
1463630229.179	 29	 0.358701	 -1.092070	 -0.661037	 0.863456	 -1.380029	 -1.187921	 -0.298515	 0.591001	 -0.612756	 0.431436	 2
1463630229.189	 29	 0.340499	 -1.255401	 -0.750857	 0.812261	 -1.383168	 -1.227625	 -0.303667	 0.586203	 -0.613519	 0.433298	 2
1463630229.199	 29	 0.303132	 -1.250048	 -0.761139	 0.759180	 -1.386336	 -1.268796	 -0.309082	 0.581329	 -0.614159	 0.435125	 2
1463630229.219	 30	 0.074681	 -0.936676	 -0.614488	 0.669247	 -1.392858	 -1.338592	 -0.318873	 0.573507	 -0.614780	 0.437556	 2
1463630229.229	 30	 0.006674	 -0.774781	 -0.464248	 0.637936	 -1.395746	 -1.362158	 -0.322759	 0.570854	 -0.614646	 0.438363	 2
1463630229.249	 31	 -0.114110	 -0.751924	 -0.001509	 0.612084	 -1.399316	 -1.373668	 -0.328646	 0.567593	 -0.612602	 0.441077	 2
1463630229.259	 31	 -0.041077	 -0.841979	 0.222959	 0.613687	 -1.398880	 -1.363715	 -0.330827	 0.566238	 -0.610711	 0.443802	 2
1463630229.269	 31	 0.046539	 -0.826394	 0.500505	 0.624383	 -1.396183	 -1.344335	 -0.332116	 0.565000	 -0.608437	 0.447525	 2
1463630229.279	 31	 0.126161	 -0.660060	 0.735827	 0.644507	 -1.391292	 -1.316682	 -0.332108	 0.564217	 -0.606022	 0.451775	 2
1463630229.289	 31	 0.171983	 -0.365399	 0.906561	 0.671722	 -1.384676	 -1.284537	 -0.330615	 0.564155	 -0.603795	 0.455911	 2
1463630229.299	 31	 0.044256	 -0.179000	 1.038365	 0.707073	 -1.377554	 -1.246377	 -0.328199	 0.565052	 -0.601397	 0.459700	 2
1463630229.309	 31	 -0.348509	 -0.265460	 1.130504	 0.754069	 -1.371888	 -1.196119	 -0.326289	 0.567027	 -0.597810	 0.463291	 2
1463630229.319	 31	 -0.965479	 -0.413657	 1.271980	 0.821113	 -1.368857	 -1.123848	 -0.325790	 0.570549	 -0.592044	 0.466711	 2
1463630229.329	 31	 -1.505986	 -0.592284	 1.354956	 0.909182	 -1.367638	 -1.028395	 -0.326793	 0.575522	 -0.584065	 0.469946	 2
1463630229.339	 31	 -1.916729	 -0.664684	 1.471895	 1.014655	 -1.366247	 -0.913925	 -0.328843	 0.581589	 -0.574320	 0.473047	 2
1463630229.349	 31	 -2.165534	 -0.398846	 1.655583	 1.134972	 -1.362212	 -0.785972	 -0.330570	 0.589079	 -0.563519	 0.475559	 2
1463630229.359	 31	 -2.262247	 0.187946	 1.865446	 1.262463	 -1.353469	 -0.655843	 -0.330450	 0.598402	 -0.552593	 0.476821	 2
1463630229.369	 31	 -2.178256	 0.895062	 2.020502	 1.385410	 -1.339611	 -0.537120	 -0.327777	 0.609462	 -0.542336	 0.476433	 2
1463630229.379	 31	 -1.701203	 1.492157	 2.123152	 1.485186	 -1.321319	 -0.448342	 -0.322077	 0.621056	 -0.533871	 0.474907	 2
1463630229.389	 31	 -1.039095	 1.992657	 2.180661	 1.553109	 -1.300284	 -0.397425	 -0.313158	 0.632114	 -0.527952	 0.472895	 2
1463630229.399	 31	 -0.581285	 2.341056	 2.301414	 1.599015	 -1.277621	 -0.373290	 -0.301583	 0.642748	 -0.523929	 0.470554	 2
1463630229.409	 31	 -0.318555	 2.434341	 2.511015	 1.631516	 -1.252924	 -0.364623	 -0.288169	 0.653025	 -0.520537	 0.468570	 2
1463630229.419	 31	 -0.295478	 2.388031	 2.734194	 1.658101	 -1.226013	 -0.361940	 -0.273793	 0.663154	 -0.516711	 0.467198	 2
1463630229.429	 31	 -0.414615	 2.268868	 2.973918	 1.683509	 -1.196655	 -0.359417	 -0.259027	 0.673393	 -0.511708	 0.466478	 2
1463630229.439	 31	 -0.564102	 2.066690	 3.193952	 1.707844	 -1.164810	 -0.356005	 -0.244203	 0.683624	 -0.505256	 0.466625	 2
1463630229.449	 31	 -0.667123	 1.844508	 3.314278	 1.730243	 -1.131317	 -0.352304	 -0.229611	 0.693581	 -0.497605	 0.467561	 2
1463630229.459	 31	 -0.729976	 1.628892	 3.329871	 1.749981	 -1.097259	 -0.349051	 -0.215501	 0.702993	 -0.489174	 0.469116	 2
1463630229.469	 31	 -0.775499	 1.352699	 3.212595	 1.767015	 -1.063936	 -0.345926	 -0.202361	 0.711597	 -0.480324	 0.471135	 2
1463630229.479	 31	 -0.774403	 0.994564	 3.108006	 1.780083	 -1.031746	 -0.343329	 -0.190435	 0.719068	 -0.471225	 0.473944	 2
1463630229.489	 31	 -0.713517	 0.810125	 3.072721	 1.789514	 -1.000094	 -0.342123	 -0.179098	 0.725625	 -0.462024	 0.477415	 2
1463630229.499	 31	 -0.527809	 0.845471	 3.035197	 1.796271	 -0.969124	 -0.343964	 -0.167511	 0.731582	 -0.453328	 0.480854	 2
1463630229.509	 31	 -0.279551	 0.995708	 3.025907	 1.800843	 -0.938882	 -0.350023	 -0.155088	 0.737084	 -0.445546	 0.483884	 2
1463630229.519	 31	 -0.079473	 1.321729	 3.036790	 1.805528	 -0.909077	 -0.359571	 -0.141455	 0.742596	 -0.438637	 0.485943	 2
1463630229.529	 31	 0.042010	 1.725641	 3.050149	 1.812607	 -0.879509	 -0.371299	 -0.126527	 0.748547	 -0.432375	 0.486539	 2
1463630229.539	 31	 0.103702	 2.091711	 3.100977	 1.822751	 -0.849806	 -0.384253	 -0.110416	 0.755045	 -0.426395	 0.485699	 2
1463630229.549	 31	 0.156554	 2.468858	 3.062462	 1.836367	 -0.820350	 -0.398060	 -0.093321	 0.762093	 -0.420676	 0.483257	 2
1463630229.559	 31	 0.225444	 2.763934	 2.859981	 1.852969	 -0.792810	 -0.412327	 -0.076028	 0.769371	 -0.415581	 0.479146	 2
1463630229.569	 31	 0.302812	 3.054659	 2.647795	 1.872493	 -0.767801	 -0.427023	 -0.058767	 0.776810	 -0.411252	 0.473270	 2
1463630229.589	 32	 0.812192	 3.250267	 1.960961	 1.914855	 -0.729440	 -0.460880	 -0.025406	 0.790629	 -0.406787	 0.456929	 2
1463630229.599	 32	 1.233607	 2.931761	 1.771016	 1.930244	 -0.716296	 -0.483288	 -0.009521	 0.795339	 -0.407405	 0.448738	 2
1463630229.609	 32	 1.665383	 2.581027	 1.541249	 1.939393	 -0.706843	 -0.510070	 0.005788	 0.798097	 -0.410067	 0.441422	 2
1463630229.619	 32	 2.027220	 2.206258	 1.195699	 1.943147	 -0.701947	 -0.539937	 0.019922	 0.799063	 -0.414878	 0.434716	 2
1463630229.629	 32	 2.124772	 1.800251	 0.982182	 1.942198	 -0.700079	 -0.570700	 0.032560	 0.798573	 -0.420886	 0.429040	 2
1463630229.639	 32	 1.931880	 1.521146	 0.843781	 1.939860	 -0.699145	 -0.599106	 0.043675	 0.797588	 -0.426669	 0.424145	 2
1463630229.649	 32	 1.678792	 1.152849	 0.701877	 1.936458	 -0.698493	 -0.623793	 0.052975	 0.796309	 -0.431741	 0.420339	 2
1463630229.659	 32	 1.599283	 0.565265	 0.458371	 1.929593	 -0.699206	 -0.645806	 0.060026	 0.794212	 -0.436790	 0.418137	 2
1463630229.669	 32	 1.722177	 -0.373313	 0.003078	 1.914578	 -0.703849	 -0.667149	 0.063784	 0.790195	 -0.443263	 0.418380	 2
1463630229.679	 32	 1.733430	 -1.450891	 -0.451470	 1.889691	 -0.712792	 -0.687383	 0.063464	 0.783943	 -0.451225	 0.421666	 2
1463630229.689	 32	 1.549098	 -2.409443	 -0.852051	 1.856407	 -0.724760	 -0.704752	 0.058958	 0.775879	 -0.459750	 0.427978	 2
1463630229.699	 32	 1.208681	 -2.780152	 -1.214895	 1.820219	 -0.739123	 -0.717663	 0.051021	 0.767211	 -0.467989	 0.435626	 2
1463630229.709	 32	 0.772212	 -2.505927	 -1.270358	 1.789522	 -0.753688	 -0.725226	 0.042006	 0.759832	 -0.474761	 0.442144	 2
1463630229.719	 32	 0.438962	 -2.629032	 -0.927558	 1.760866	 -0.764762	 -0.729392	 0.033145	 0.753035	 -0.479496	 0.449360	 2
1463630229.729	 32	 0.166056	 -2.658288	 -0.818878	 1.733358	 -0.773196	 -0.730439	 0.024144	 0.746547	 -0.482564	 0.457402	 2
1463630229.739	 32	 0.041570	 -2.307325	 -0.873145	 1.709744	 -0.781933	 -0.729449	 0.015154	 0.740883	 -0.485046	 0.464320	 2
1463630229.749	 32	 0.034487	 -1.839977	 -0.524493	 1.690933	 -0.788250	 -0.728813	 0.008226	 0.736332	 -0.486772	 0.469895	 2
1463630229.759	 32	 -0.065018	 -2.062824	 -0.054634	 1.671678	 -0.789903	 -0.728026	 0.002689	 0.731737	 -0.487094	 0.476753	 2
1463630229.769	 32	 -0.134010	 -2.219064	 0.225875	 1.650648	 -0.788042	 -0.726586	 -0.002318	 0.726720	 -0.486243	 0.485223	 2
1463630229.779	 32	 -0.191187	 -2.310701	 0.179692	 1.629543	 -0.785838	 -0.724277	 -0.007520	 0.721590	 -0.485032	 0.493958	 2
1463630229.789	 32	 -0.280729	 -2.647354	 0.067565	 1.606591	 -0.784857	 -0.720765	 -0.014001	 0.715865	 -0.483772	 0.503295	 2
1463630229.799	 32	 -0.414513	 -3.258930	 0.160024	 1.579258	 -0.783474	 -0.715486	 -0.021994	 0.708882	 -0.481820	 0.514638	 2
1463630229.809	 32	 -0.594754	 -3.766115	 0.254927	 1.549403	 -0.780798	 -0.706897	 -0.031242	 0.701018	 -0.478492	 0.527866	 2
1463630229.829	 33	 -0.948743	 -4.102828	 0.466967	 1.486869	 -0.774050	 -0.682670	 -0.052014	 0.683610	 -0.468914	 0.556859	 2
1463630229.839	 33	 -1.069420	 -4.313532	 0.696262	 1.454889	 -0.768750	 -0.667353	 -0.062720	 0.674169	 -0.462362	 0.572524	 2
1463630229.849	 33	 -1.199972	 -4.360369	 0.931430	 1.423482	 -0.761642	 -0.649735	 -0.073186	 0.664478	 -0.454446	 0.588721	 2
1463630229.859	 33	 -1.262535	 -4.268945	 1.192872	 1.394017	 -0.752564	 -0.630193	 -0.082868	 0.654942	 -0.445274	 0.604908	 2
1463630229.869	 33	 -1.123539	 -4.397521	 1.412144	 1.363611	 -0.741402	 -0.610970	 -0.091595	 0.644790	 -0.435386	 0.621527	 2
1463630229.879	 33	 -0.867716	 -4.592836	 1.569029	 1.329430	 -0.728561	 -0.594118	 -0.099436	 0.633197	 -0.425410	 0.638905	 2
1463630229.889	 33	 -0.577493	 -4.759327	 1.754658	 1.291710	 -0.713754	 -0.579843	 -0.106120	 0.620178	 -0.415405	 0.656930	 2
1463630229.899	 33	 -0.284428	 -4.805382	 1.975488	 1.251231	 -0.696472	 -0.568038	 -0.111284	 0.605905	 -0.405333	 0.675426	 2
1463630229.909	 33	 -0.180613	 -4.530262	 2.261703	 1.212530	 -0.676504	 -0.556245	 -0.114645	 0.591729	 -0.394653	 0.693514	 2
1463630229.919	 33	 -0.242432	 -4.138185	 2.621854	 1.179099	 -0.653788	 -0.541903	 -0.116232	 0.578769	 -0.382702	 0.710673	 2
1463630229.929	 33	 -0.504782	 -3.580842	 2.810504	 1.152769	 -0.629911	 -0.523382	 -0.116821	 0.567740	 -0.369324	 0.726377	 2
1463630229.939	 33	 -1.051142	 -2.671955	 2.814127	 1.137805	 -0.608000	 -0.498987	 -0.117468	 0.560361	 -0.354748	 0.739156	 2
1463630229.949	 33	 -1.550891	 -1.827098	 2.807156	 1.134533	 -0.588622	 -0.468891	 -0.118497	 0.556989	 -0.339099	 0.748821	 2
1463630229.959	 33	 -1.802623	 -1.345638	 2.803170	 1.138331	 -0.570577	 -0.435725	 -0.119685	 0.556162	 -0.322797	 0.756414	 2
1463630229.969	 33	 -1.763317	 -1.304953	 2.709420	 1.142812	 -0.553119	 -0.403010	 -0.120897	 0.555705	 -0.306633	 0.763251	 2
1463630229.979	 33	 -1.548717	 -1.538101	 2.473045	 1.143435	 -0.536685	 -0.373561	 -0.122212	 0.554044	 -0.291539	 0.770133	 2
1463630229.989	 33	 -1.254908	 -1.945922	 2.235422	 1.137652	 -0.521446	 -0.348544	 -0.123659	 0.550214	 -0.277899	 0.777654	 2
1463630229.999	 33	 -1.031446	 -2.557953	 2.262951	 1.124763	 -0.505814	 -0.326410	 -0.124990	 0.543775	 -0.264729	 0.786514	 2
1463630230.009	 33	 -0.969754	 -3.187695	 2.422813	 1.104759	 -0.488683	 -0.304482	 -0.126346	 0.534471	 -0.250734	 0.797189	 2
1463630230.019	 33	 -0.933404	 -3.400517	 2.423714	 1.081235	 -0.471384	 -0.282366	 -0.127804	 0.523630	 -0.236299	 0.808480	 2
1463630230.029	 33	 -0.820463	 -3.255653	 2.205597	 1.057324	 -0.455592	 -0.261817	 -0.129195	 0.512599	 -0.222733	 0.819110	 2
1463630230.039	 33	 -0.601953	 -2.925823	 2.015992	 1.034948	 -0.441101	 -0.243983	 -0.129971	 0.502252	 -0.210611	 0.828549	 2
1463630230.049	 33	 -0.282488	 -2.514984	 1.891274	 1.014782	 -0.426613	 -0.229537	 -0.129423	 0.492951	 -0.200005	 0.836808	 2
1463630230.059	 33	 0.107419	 -1.937896	 1.839961	 0.998201	 -0.410993	 -0.218803	 -0.126931	 0.485326	 -0.190931	 0.843738	 2
1463630230.069	 33	 0.537594	 -1.297289	 1.910385	 0.986542	 -0.392855	 -0.211469	 -0.121929	 0.479953	 -0.183066	 0.849274	 2
1463630230.079	 33	 0.939745	 -0.796303	 2.076749	 0.979166	 -0.371293	 -0.206914	 -0.114298	 0.476529	 -0.175912	 0.853763	 2
1463630230.089	 33	 1.263255	 -0.506264	 2.308967	 0.974537	 -0.346011	 -0.203955	 -0.104365	 0.474313	 -0.168791	 0.857697	 2
1463630230.099	 33	 1.524776	 -0.455414	 2.533105	 0.970684	 -0.317326	 -0.201997	 -0.092594	 0.472395	 -0.161395	 0.861523	 2
1463630230.109	 33	 1.748881	 -0.647989	 2.761698	 0.965258	 -0.285402	 -0.200508	 -0.079361	 0.469694	 -0.153426	 0.865766	 2
1463630230.119	 33	 1.963724	 -1.077888	 2.820838	 0.955845	 -0.251340	 -0.199995	 -0.065186	 0.465139	 -0.145306	 0.870794	 2
1463630230.129	 33	 2.136728	 -1.629157	 2.700166	 0.940660	 -0.216875	 -0.201115	 -0.050760	 0.457927	 -0.137760	 0.876783	 2
1463630230.139	 33	 2.243932	 -2.049868	 2.516269	 0.920580	 -0.183070	 -0.203686	 -0.036497	 0.448382	 -0.131098	 0.883422	 2
1463630230.149	 33	 2.265486	 -2.352901	 2.391765	 0.897316	 -0.150075	 -0.206769	 -0.022549	 0.437198	 -0.125069	 0.890341	 2
1463630230.159	 33	 2.193308	 -2.650063	 2.305433	 0.871237	 -0.118035	 -0.209180	 -0.009206	 0.424517	 -0.119238	 0.897487	 2
1463630230.169	 33	 2.078318	 -2.949444	 2.189612	 0.841553	 -0.087704	 -0.210661	 0.003111	 0.410022	 -0.113680	 0.904958	 2
1463630230.189	 34	 1.759024	 -3.246985	 1.951957	 0.777143	 -0.032880	 -0.209989	 0.024570	 0.378324	 -0.103170	 0.919578	 2
1463630230.199	 34	 1.601775	 -3.277786	 1.894422	 0.744456	 -0.007863	 -0.207509	 0.034024	 0.362112	 -0.097898	 0.926355	 2
1463630230.209	 34	 1.441902	 -3.236880	 1.897261	 0.711912	 0.015787	 -0.203244	 0.042712	 0.345927	 -0.092348	 0.932728	 2
1463630230.219	 34	 1.280248	 -3.156311	 1.942048	 0.679971	 0.038278	 -0.196894	 0.050725	 0.330024	 -0.086294	 0.938650	 2
1463630230.229	 34	 1.150619	 -3.084254	 1.999267	 0.648549	 0.059801	 -0.188534	 0.058190	 0.314397	 -0.079699	 0.944148	 2
1463630230.239	 34	 1.071024	 -3.009403	 2.021972	 0.617547	 0.080511	 -0.178644	 0.065274	 0.299014	 -0.072735	 0.949231	 2
1463630230.249	 34	 1.086985	 -2.968408	 1.961466	 0.586862	 0.100612	 -0.168377	 0.072256	 0.283802	 -0.065900	 0.953883	 2
1463630230.259	 34	 1.131199	 -2.757858	 1.826623	 0.557489	 0.120136	 -0.158718	 0.079306	 0.269213	 -0.059613	 0.957957	 2
1463630230.279	 35	 1.090500	 -1.876961	 1.548480	 0.512602	 0.155238	 -0.141787	 0.092723	 0.246793	 -0.048706	 0.963392	 2
1463630230.289	 35	 1.208297	 -1.981841	 1.507045	 0.491944	 0.172802	 -0.134033	 0.099754	 0.236441	 -0.043743	 0.965521	 2
1463630230.299	 35	 1.373679	 -2.192052	 1.480202	 0.469228	 0.191495	 -0.126902	 0.107468	 0.225041	 -0.039209	 0.967610	 2
1463630230.309	 35	 1.502302	 -2.284029	 1.462240	 0.445153	 0.211165	 -0.120084	 0.115774	 0.212951	 -0.034978	 0.969549	 2
1463630230.319	 35	 1.662336	 -2.235011	 1.393094	 0.421253	 0.231798	 -0.113884	 0.124720	 0.200897	 -0.031142	 0.971141	 2
1463630230.329	 35	 1.864144	 -2.094095	 1.253033	 0.398788	 0.253571	 -0.109136	 0.134473	 0.189433	 -0.028023	 0.972238	 2
1463630230.339	 35	 2.001041	 -1.915741	 1.116018	 0.378297	 0.276192	 -0.105879	 0.144867	 0.178818	 -0.025630	 0.972821	 2
1463630230.349	 35	 2.011468	 -1.654873	 1.012844	 0.360358	 0.298744	 -0.103395	 0.155370	 0.169408	 -0.023639	 0.972935	 2
1463630230.359	 35	 1.914358	 -1.337353	 0.904739	 0.345485	 0.320213	 -0.101252	 0.165436	 0.161521	 -0.021846	 0.972658	 2
1463630230.369	 35	 1.752045	 -1.015616	 0.765268	 0.333971	 0.339812	 -0.099594	 0.174685	 0.155315	 -0.020308	 0.972085	 2
1463630230.389	 36	 1.411251	 -0.306126	 0.636288	 0.321813	 0.372929	 -0.096681	 0.190385	 0.148410	 -0.017204	 0.970274	 2
1463630230.399	 36	 1.372364	 -0.185767	 0.644142	 0.319101	 0.388004	 -0.094781	 0.197510	 0.146702	 -0.015299	 0.969141	 2
1463630230.409	 36	 1.412537	 -0.246679	 0.620844	 0.316185	 0.403263	 -0.093031	 0.204729	 0.144882	 -0.013493	 0.967943	 2
1463630230.419	 36	 1.461713	 -0.382525	 0.534957	 0.312361	 0.418798	 -0.092120	 0.212130	 0.142533	 -0.012190	 0.966714	 2
1463630230.429	 36	 1.454019	 -0.558838	 0.419346	 0.307351	 0.434085	 -0.092326	 0.219476	 0.139501	 -0.011605	 0.965523	 2
1463630230.439	 36	 1.341390	 -0.824061	 0.320875	 0.300195	 0.448253	 -0.093267	 0.226313	 0.135392	 -0.011741	 0.964528	 2
1463630230.449	 36	 1.110934	 -1.022419	 0.301852	 0.290639	 0.460366	 -0.093882	 0.232118	 0.130241	 -0.012202	 0.963851	 2
1463630230.459	 36	 0.827262	 -1.020181	 0.349104	 0.279948	 0.469929	 -0.093117	 0.236597	 0.124808	 -0.012374	 0.963479	 2
1463630230.479	 37	 0.326196	 -0.538349	 0.442146	 0.262018	 0.481745	 -0.086838	 0.241789	 0.116478	 -0.010658	 0.963253	 2
1463630230.489	 37	 0.181005	 -0.243994	 0.347033	 0.257235	 0.484772	 -0.083348	 0.243018	 0.114489	 -0.009351	 0.963196	 2
1463630230.509	 38	 0.023763	 0.059321	 0.162585	 0.255331	 0.487424	 -0.079173	 0.244045	 0.113987	 -0.007395	 0.963013	 2
1463630230.519	 38	 -0.064863	 -0.111168	 0.083969	 0.254156	 0.487306	 -0.077867	 0.243910	 0.113585	 -0.006917	 0.963098	 2
1463630230.530	 38	 -0.176800	 -0.393946	 -0.088209	 0.250965	 0.485773	 -0.077890	 0.243164	 0.112097	 -0.007418	 0.963458	 2
1463630230.540	 38	 -0.288864	 -0.675900	 -0.293418	 0.245798	 0.482629	 -0.079851	 0.241739	 0.109476	 -0.009193	 0.964102	 2
1463630230.550	 38	 -0.372482	 -0.887071	 -0.406560	 0.238908	 0.478272	 -0.083120	 0.239783	 0.105908	 -0.011875	 0.964959	 2
1463630230.570	 39	 -0.490832	 -0.938202	 -0.318613	 0.222324	 0.467764	 -0.088785	 0.234887	 0.097585	 -0.017219	 0.966958	 2
1463630230.580	 39	 -0.533427	 -0.758819	 -0.239838	 0.214898	 0.462111	 -0.090356	 0.232167	 0.094003	 -0.019175	 0.967933	 2
1463630230.590	 39	 -0.597697	 -0.434626	 -0.147803	 0.209898	 0.456067	 -0.090875	 0.229221	 0.091728	 -0.020346	 0.968829	 2
1463630230.600	 39	 -0.648744	 -0.069642	 0.000981	 0.207867	 0.449750	 -0.089859	 0.226100	 0.091071	 -0.020437	 0.969622	 2
1463630230.610	 39	 -0.656245	 0.212585	 0.195510	 0.208013	 0.443617	 -0.086761	 0.222992	 0.091691	 -0.019258	 0.970307	 2
1463630230.620	 39	 -0.618610	 0.369940	 0.349050	 0.209342	 0.438113	 -0.081910	 0.220114	 0.093049	 -0.017061	 0.970876	 2
1463630230.630	 39	 -0.577740	 0.370398	 0.428631	 0.210704	 0.433226	 -0.076100	 0.217483	 0.094495	 -0.014361	 0.971373	 2
1463630230.640	 39	 -0.556017	 0.204584	 0.452477	 0.210689	 0.428692	 -0.069970	 0.214993	 0.095282	 -0.011635	 0.971887	 2
1463630230.650	 39	 -0.558356	 -0.059233	 0.445780	 0.208288	 0.424191	 -0.063900	 0.212508	 0.094886	 -0.009187	 0.972498	 2
1463630230.660	 39	 -0.575909	 -0.364628	 0.419644	 0.202999	 0.419475	 -0.058002	 0.209918	 0.093057	 -0.007128	 0.973254	 2
1463630230.670	 39	 -0.601092	 -0.678725	 0.363652	 0.194819	 0.414400	 -0.052682	 0.207181	 0.089750	 -0.005652	 0.974161	 2
1463630230.680	 39	 -0.627962	 -0.925574	 0.340274	 0.184150	 0.408932	 -0.047722	 0.204275	 0.085180	 -0.004599	 0.975190	 2
1463630230.690	 39	 -0.639149	 -1.067780	 0.379547	 0.171698	 0.403307	 -0.042568	 0.201295	 0.079740	 -0.003605	 0.976273	 2
1463630230.700	 39	 -0.623919	 -1.066243	 0.450835	 0.158719	 0.397805	 -0.036815	 0.198369	 0.074074	 -0.002325	 0.977322	 2
1463630230.710	 39	 -0.548393	 -0.952137	 0.522645	 0.146396	 0.392924	 -0.030461	 0.195748	 0.068752	 -0.000623	 0.978241	 2
1463630230.720	 39	 -0.406347	 -0.758493	 0.589288	 0.135720	 0.389316	 -0.023658	 0.193759	 0.064240	 0.001537	 0.978942	 2
1463630230.730	 39	 -0.224641	 -0.540395	 0.670733	 0.126973	 0.387487	 -0.016315	 0.192647	 0.060687	 0.004226	 0.979381	 2
1463630230.740	 39	 -0.043692	 -0.260569	 0.757022	 0.120632	 0.387522	 -0.008311	 0.192445	 0.058352	 0.007536	 0.979542	 2
1463630230.750	 39	 0.124243	 -0.008500	 0.823983	 0.116690	 0.389293	 0.000290	 0.193082	 0.057239	 0.011420	 0.979445	 2
1463630230.760	 39	 0.282045	 0.190968	 0.820202	 0.114874	 0.392662	 0.008841	 0.194499	 0.057163	 0.015526	 0.979112	 2
1463630230.770	 39	 0.407442	 0.362406	 0.751431	 0.115063	 0.397312	 0.016684	 0.196548	 0.058010	 0.019512	 0.978582	 2
1463630230.780	 39	 0.470704	 0.501958	 0.660523	 0.117126	 0.402669	 0.023461	 0.198948	 0.059685	 0.023177	 0.977916	 2
1463630230.790	 39	 0.454576	 0.510221	 0.620241	 0.119872	 0.407997	 0.029636	 0.201331	 0.061648	 0.026618	 0.977219	 2
1463630230.800	 39	 0.427328	 0.393275	 0.616193	 0.121720	 0.413014	 0.035737	 0.203567	 0.063177	 0.029925	 0.976562	 2
1463630230.810	 39	 0.467855	 0.378347	 0.627425	 0.122789	 0.418378	 0.041877	 0.205973	 0.064345	 0.033181	 0.975876	 2
1463630230.820	 39	 0.394811	 0.519880	 0.608063	 0.125306	 0.423252	 0.048008	 0.208108	 0.066229	 0.036568	 0.975176	 2
1463630230.830	 39	 0.345473	 0.281431	 0.560445	 0.126520	 0.427526	 0.053768	 0.209977	 0.067448	 0.039623	 0.974572	 2
1463630230.840	 39	 0.255100	 -0.063226	 0.517526	 0.124566	 0.430964	 0.059116	 0.211514	 0.067083	 0.042117	 0.974160	 2
