% Gyrometer data recorded with 'snsrlog'
% 
% 
% Label description:
% 	 0: Default Label
% 	 1: still_drop
% 	 2: walk_drop
% 	 3: other
% 	 4: dtw_same
% 	 5: dtw_diff
% 	 6: delete
% 	 7: steal
% 
% Column description:
% 	 1: Seconds.milliseconds since 1970
% 	 2: Number of skipped measurements
% 	 3: Gyro X
% 	 4: Gyro Y
% 	 5: Gyro Z
% 	 6: Roll of the device
% 	 7: Pitch of the device
% 	 8: Yaw of the device
% 	 9: Quaternion X
% 	 10: Quaternion Y
% 	 11: Quaternion Z
% 	 12: Quaternion W
% 	 13: Label used for the current sample
% 
% 
1463569273.875	 0	 -0.764442	 0.562194	 0.278473	 0.002960	 0.617928	 0.078497	 0.303782	 0.013340	 0.037830	 0.951897	 1
1463569273.885	 0	 -0.991547	 0.414883	 -0.033189	 0.007176	 0.608706	 0.079163	 0.299304	 0.015279	 0.038827	 0.953245	 1
1463569273.895	 0	 -1.195830	 0.178793	 -0.404492	 0.011600	 0.597217	 0.075513	 0.293767	 0.016644	 0.037781	 0.954985	 1
1463569273.905	 0	 -1.405225	 0.086365	 -0.620945	 0.016373	 0.583607	 0.068759	 0.287231	 0.017724	 0.035272	 0.957048	 1
1463569273.915	 0	 -1.579664	 0.042750	 -0.692304	 0.021161	 0.568090	 0.061015	 0.279785	 0.018699	 0.032243	 0.959339	 1
1463569273.925	 0	 -1.703980	 -0.014780	 -0.755702	 0.025492	 0.551175	 0.052769	 0.271672	 0.019439	 0.028851	 0.961761	 1
1463569273.935	 0	 -1.784103	 0.054897	 -0.859867	 0.030445	 0.533300	 0.043661	 0.263087	 0.020432	 0.025065	 0.964230	 1
1463569273.945	 0	 -1.852395	 0.440881	 -1.048583	 0.038957	 0.514636	 0.032900	 0.254095	 0.023019	 0.020861	 0.966680	 1
1463569273.955	 0	 -1.943607	 0.939723	 -1.230721	 0.053462	 0.494885	 0.020292	 0.244562	 0.028397	 0.016379	 0.969079	 1
1463569273.965	 0	 -1.971027	 1.016320	 -1.239362	 0.069594	 0.474464	 0.007581	 0.234741	 0.034706	 0.011858	 0.971366	 1
1463569273.975	 0	 -1.926708	 1.028816	 -1.111740	 0.084724	 0.454222	 -0.003569	 0.225035	 0.040861	 0.007799	 0.973462	 1
1463569273.985	 0	 -1.791669	 1.204341	 -0.906656	 0.100036	 0.435092	 -0.012311	 0.215860	 0.047491	 0.004788	 0.975257	 1
1463569273.995	 0	 -1.526067	 1.405459	 -0.639591	 0.116026	 0.418424	 -0.018165	 0.207846	 0.054831	 0.003172	 0.976618	 1
1463569274.005	 0	 -1.153830	 1.572375	 -0.352457	 0.132501	 0.405466	 -0.021059	 0.201577	 0.062727	 0.003038	 0.977457	 1
1463569274.015	 0	 -0.713312	 1.768584	 -0.105078	 0.149850	 0.397075	 -0.021555	 0.197462	 0.071261	 0.004227	 0.977708	 1
1463569274.025	 0	 -0.310167	 2.034457	 0.053750	 0.169174	 0.393109	 -0.020652	 0.195438	 0.080846	 0.006408	 0.977357	 1
1463569274.035	 0	 -0.045664	 2.172423	 0.118808	 0.190150	 0.392325	 -0.019291	 0.194915	 0.091236	 0.009085	 0.976525	 1
1463569274.045	 0	 0.029224	 2.275883	 0.042384	 0.212313	 0.392664	 -0.018600	 0.194933	 0.102113	 0.011598	 0.975418	 1
1463569274.055	 0	 -0.032530	 2.433442	 -0.109082	 0.236540	 0.392415	 -0.019299	 0.194697	 0.113857	 0.013604	 0.974138	 1
1463569274.065	 0	 -0.198072	 2.561282	 -0.294026	 0.262664	 0.390334	 -0.021482	 0.193629	 0.126396	 0.014949	 0.972784	 1
1463569274.075	 0	 -0.390163	 2.714745	 -0.476368	 0.290719	 0.385845	 -0.024957	 0.191465	 0.139783	 0.015652	 0.971369	 1
1463569274.085	 0	 -0.488079	 2.912701	 -0.645261	 0.321049	 0.379546	 -0.029611	 0.188514	 0.154192	 0.015795	 0.969762	 1
1463569274.095	 0	 -0.485465	 3.159262	 -0.817774	 0.354240	 0.372322	 -0.035728	 0.185256	 0.169869	 0.015326	 0.967776	 1
1463569274.105	 0	 -0.369297	 3.444240	 -0.926973	 0.390635	 0.365257	 -0.043193	 0.182241	 0.186959	 0.014407	 0.965208	 1
1463569274.115	 0	 -0.194262	 3.707215	 -0.966549	 0.430067	 0.359253	 -0.051596	 0.179905	 0.205375	 0.013315	 0.961914	 1
1463569274.125	 0	 -0.085694	 3.882312	 -0.977588	 0.471618	 0.354038	 -0.060481	 0.178098	 0.224697	 0.012183	 0.957937	 1
1463569274.135	 0	 -0.086562	 3.898494	 -0.946523	 0.513617	 0.348817	 -0.069076	 0.176372	 0.244197	 0.011157	 0.953486	 1
1463569274.145	 0	 -0.182924	 3.805415	 -0.914581	 0.554964	 0.342467	 -0.076801	 0.174122	 0.263438	 0.010261	 0.948776	 1
1463569274.155	 0	 -0.318233	 3.699928	 -0.997526	 0.596144	 0.333054	 -0.084286	 0.170510	 0.282682	 0.008921	 0.943895	 1
1463569274.165	 0	 -0.422901	 3.612750	 -1.181807	 0.635366	 0.322328	 -0.091772	 0.166420	 0.301001	 0.007062	 0.938964	 1
1463569274.175	 0	 -0.458149	 3.566581	 -1.402545	 0.673881	 0.310102	 -0.100155	 0.161914	 0.318930	 0.004316	 0.933835	 1
1463569274.185	 0	 -0.414090	 3.601976	 -1.637067	 0.712676	 0.296717	 -0.109988	 0.157284	 0.336877	 0.000539	 0.928319	 1
1463569274.195	 0	 -0.296967	 3.756161	 -1.888172	 0.753123	 0.282057	 -0.121821	 0.152633	 0.355442	 -0.004454	 0.922141	 1
1463569274.205	 0	 -0.125563	 4.121709	 -2.158032	 0.797148	 0.266201	 -0.136076	 0.148175	 0.375467	 -0.010717	 0.914852	 1
1463569274.215	 0	 0.090371	 4.653035	 -2.429935	 0.846558	 0.249129	 -0.152960	 0.144087	 0.397723	 -0.018239	 0.905937	 1
1463569274.225	 0	 0.352009	 5.347167	 -2.673010	 0.902801	 0.230888	 -0.172470	 0.140586	 0.422785	 -0.026924	 0.894854	 1
1463569274.235	 0	 0.646397	 6.164860	 -2.877920	 0.967200	 0.211516	 -0.194389	 0.137884	 0.451120	 -0.036582	 0.880988	 1
1463569274.245	 0	 0.950982	 6.857233	 -3.053177	 1.039003	 0.190846	 -0.218443	 0.136084	 0.482229	 -0.047174	 0.864125	 1
1463569274.255	 0	 1.253049	 7.244336	 -3.231253	 1.115285	 0.168374	 -0.244308	 0.135070	 0.514690	 -0.058858	 0.844622	 1
1463569274.265	 0	 1.566568	 7.362162	 -3.430053	 1.193017	 0.143482	 -0.271905	 0.134695	 0.547105	 -0.071944	 0.823017	 1
1463569274.275	 0	 1.903417	 7.242562	 -3.652580	 1.269703	 0.115613	 -0.301240	 0.134832	 0.578384	 -0.086738	 0.799856	 1
1463569274.285	 0	 2.227247	 6.868650	 -3.895478	 1.342530	 0.084215	 -0.332138	 0.135234	 0.607428	 -0.103504	 0.775906	 1
1463569274.295	 0	 2.467306	 6.367478	 -4.120713	 1.409607	 0.048970	 -0.363722	 0.135483	 0.633636	 -0.122127	 0.751821	 1
1463569274.305	 0	 2.597532	 5.857295	 -4.313102	 1.470355	 0.010015	 -0.394761	 0.135169	 0.656959	 -0.142156	 0.727960	 1
1463569274.315	 0	 2.671900	 5.466650	 -4.470855	 1.525563	 -0.032277	 -0.424436	 0.134107	 0.677804	 -0.163147	 0.704259	 1
1463569274.325	 0	 2.790944	 5.223071	 -4.571143	 1.576770	 -0.077231	 -0.452892	 0.132589	 0.696705	 -0.184844	 0.680334	 1
1463569274.335	 0	 3.006496	 5.005356	 -4.585702	 1.624560	 -0.123980	 -0.481103	 0.131210	 0.713755	 -0.207229	 0.656044	 1
1463569274.345	 0	 3.273252	 4.707314	 -4.509800	 1.668171	 -0.171614	 -0.509937	 0.130406	 0.728623	 -0.230254	 0.631733	 1
1463569274.355	 0	 3.540950	 4.333118	 -4.374933	 1.706662	 -0.219469	 -0.539860	 0.130320	 0.741024	 -0.253799	 0.607854	 1
1463569274.365	 0	 3.793466	 3.869950	 -4.194933	 1.739001	 -0.267073	 -0.571224	 0.130916	 0.750733	 -0.277765	 0.584900	 1
1463569274.375	 0	 4.002141	 3.345592	 -3.963964	 1.764320	 -0.313766	 -0.604232	 0.132123	 0.757633	 -0.301932	 0.563359	 1
1463569274.385	 0	 4.165932	 2.808596	 -3.733788	 1.782267	 -0.359210	 -0.638970	 0.133756	 0.761814	 -0.326145	 0.543488	 1
1463569274.395	 0	 4.289183	 2.284520	 -3.524164	 1.792823	 -0.403290	 -0.675488	 0.135584	 0.763471	 -0.350314	 0.525366	 1
1463569274.405	 0	 4.365386	 1.756071	 -3.324053	 1.795908	 -0.445838	 -0.713811	 0.137375	 0.762775	 -0.374347	 0.509084	 1
1463569274.415	 0	 4.325357	 1.240781	 -3.116413	 1.791818	 -0.486367	 -0.753354	 0.138843	 0.760016	 -0.397888	 0.494755	 1
1463569274.425	 0	 4.149092	 0.761341	 -2.860359	 1.781369	 -0.523970	 -0.793063	 0.139801	 0.755609	 -0.420346	 0.482515	 1
1463569274.435	 0	 3.877270	 0.350556	 -2.562336	 1.765834	 -0.557776	 -0.831966	 0.140260	 0.750028	 -0.441191	 0.472373	 1
1463569274.445	 0	 3.576863	 -0.047077	 -2.222376	 1.745960	 -0.587220	 -0.869597	 0.140296	 0.743543	 -0.460201	 0.464410	 1
1463569274.455	 0	 3.265147	 -0.433350	 -1.787360	 1.722136	 -0.611422	 -0.905813	 0.140184	 0.736256	 -0.477200	 0.458863	 1
1463569274.465	 0	 2.909202	 -0.742497	 -1.294755	 1.695577	 -0.629617	 -0.939932	 0.140216	 0.728448	 -0.491903	 0.455780	 1
1463569274.475	 0	 2.479805	 -1.021570	 -0.791639	 1.667838	 -0.641613	 -0.970726	 0.140448	 0.720476	 -0.504058	 0.455099	 1
1463569274.485	 0	 1.940209	 -1.328248	 -0.326188	 1.639958	 -0.647680	 -0.996047	 0.140377	 0.712636	 -0.513350	 0.457074	 1
1463569274.495	 0	 1.535757	 -1.592787	 -0.008597	 1.612451	 -0.649381	 -1.016455	 0.139920	 0.704986	 -0.520385	 0.461103	 1
1463569274.505	 0	 1.170524	 -1.854763	 0.238336	 1.584926	 -0.648003	 -1.032323	 0.138760	 0.697408	 -0.525652	 0.466966	 1
1463569274.515	 0	 0.786433	 -2.034849	 0.476604	 1.558279	 -0.643815	 -1.043379	 0.137021	 0.690087	 -0.529104	 0.474399	 1
1463569274.525	 0	 0.418983	 -2.057768	 0.687414	 1.534021	 -0.637354	 -1.049512	 0.134955	 0.683383	 -0.530730	 0.482804	 1
1463569274.535	 0	 0.062436	 -2.021247	 0.885892	 1.512879	 -0.628921	 -1.050932	 0.132792	 0.677467	 -0.530575	 0.491828	 1
1463569274.545	 0	 -0.326670	 -1.863469	 1.071928	 1.495847	 -0.618862	 -1.047243	 0.130590	 0.672644	 -0.528514	 0.501167	 1
1463569274.555	 0	 -0.528933	 -1.519604	 1.327343	 1.483934	 -0.606710	 -1.040002	 0.129336	 0.669057	 -0.524725	 0.510195	 1
1463569274.565	 0	 -0.558317	 -1.199448	 1.609808	 1.475916	 -0.591876	 -1.031583	 0.129710	 0.666231	 -0.519727	 0.518841	 1
1463569274.575	 0	 -0.517560	 -0.901117	 1.844565	 1.470795	 -0.574590	 -1.023176	 0.131752	 0.663883	 -0.513924	 0.527052	 1
1463569274.585	 0	 -0.461139	 -0.634035	 2.029870	 1.468097	 -0.555297	 -1.015210	 0.135302	 0.661918	 -0.507541	 0.534751	 1
1463569274.595	 0	 -0.458747	 -0.429173	 2.120214	 1.467403	 -0.534844	 -1.007388	 0.139833	 0.660340	 -0.500703	 0.541936	 1
1463569274.605	 0	 -0.522232	 -0.330985	 2.140864	 1.468079	 -0.514090	 -0.999065	 0.144648	 0.659117	 -0.493460	 0.548761	 1
1463569274.615	 0	 -0.632212	 -0.321284	 2.114202	 1.469382	 -0.493572	 -0.989754	 0.149199	 0.658150	 -0.485848	 0.555455	 1
1463569274.625	 0	 -0.782162	 -0.380888	 2.047810	 1.470714	 -0.473785	 -0.979086	 0.153042	 0.657361	 -0.477920	 0.562181	 1
1463569274.635	 0	 -0.985585	 -0.448981	 1.962621	 1.471998	 -0.454927	 -0.966521	 0.155913	 0.656802	 -0.469576	 0.569036	 1
1463569274.645	 0	 -1.275673	 -0.501409	 1.802663	 1.473672	 -0.437700	 -0.951314	 0.157421	 0.656737	 -0.460738	 0.575878	 1
1463569274.655	 0	 -1.613261	 -0.539924	 1.488713	 1.476015	 -0.423457	 -0.932877	 0.156951	 0.657439	 -0.451557	 0.582440	 1
1463569274.665	 0	 -1.828148	 -0.525063	 1.104916	 1.479095	 -0.413226	 -0.912231	 0.154476	 0.658942	 -0.442607	 0.588245	 1
1463569274.675	 0	 -1.827544	 -0.434164	 0.879815	 1.482763	 -0.405634	 -0.891236	 0.151048	 0.660902	 -0.434117	 0.593241	 1
1463569274.685	 0	 -1.538557	 -0.200420	 0.815528	 1.487363	 -0.398885	 -0.872886	 0.148362	 0.663017	 -0.426502	 0.597070	 1
1463569274.695	 0	 -1.090048	 -0.001010	 0.921121	 1.492173	 -0.390970	 -0.859086	 0.147610	 0.664758	 -0.419868	 0.600016	 1
1463569274.705	 0	 -0.698073	 0.281920	 0.934195	 1.497678	 -0.382179	 -0.849872	 0.148809	 0.666307	 -0.414279	 0.601884	 1
1463569274.715	 0	 -0.491987	 0.575571	 0.883977	 1.505131	 -0.373651	 -0.843475	 0.151226	 0.668271	 -0.409430	 0.602422	 1
1463569274.725	 0	 -0.441742	 0.784204	 0.927046	 1.514406	 -0.364862	 -0.838128	 0.154421	 0.670693	 -0.404649	 0.602150	 1
1463569274.735	 0	 -0.374187	 1.038554	 0.974652	 1.525841	 -0.355362	 -0.833263	 0.158419	 0.673674	 -0.399598	 0.601155	 1
1463569274.745	 0	 -0.111983	 1.212081	 0.955866	 1.538459	 -0.345849	 -0.830937	 0.163460	 0.676810	 -0.395156	 0.599216	 1
1463569274.755	 0	 0.118884	 1.286926	 0.956684	 1.550998	 -0.336248	 -0.831371	 0.169403	 0.679675	 -0.391458	 0.596745	 1
1463569274.765	 0	 0.208576	 1.328934	 0.918992	 1.563554	 -0.326965	 -0.833342	 0.175720	 0.682417	 -0.388241	 0.593884	 1
1463569274.775	 0	 0.157118	 1.343423	 0.842840	 1.576442	 -0.318239	 -0.835143	 0.181813	 0.685292	 -0.385040	 0.590815	 1
1463569274.795	 1	 0.070172	 1.145741	 0.681893	 1.600259	 -0.303912	 -0.837335	 0.191972	 0.690797	 -0.379162	 0.584964	 1
1463569274.805	 1	 0.049077	 1.051520	 0.587413	 1.610769	 -0.297756	 -0.838142	 0.196303	 0.693229	 -0.376508	 0.582357	 1
1463569274.815	 1	 0.039579	 0.951736	 0.464004	 1.620350	 -0.292871	 -0.838781	 0.199954	 0.695507	 -0.374250	 0.579849	 1
1463569274.825	 1	 0.041411	 0.749944	 0.358732	 1.628239	 -0.289036	 -0.839443	 0.202931	 0.697376	 -0.372468	 0.577713	 1
1463569274.835	 1	 0.052690	 0.487734	 0.285853	 1.633615	 -0.286054	 -0.840180	 0.205175	 0.698582	 -0.371211	 0.576272	 1
1463569274.845	 1	 0.035144	 0.185515	 0.257615	 1.636074	 -0.283487	 -0.840773	 0.206686	 0.698996	 -0.370333	 0.575795	 1
1463569274.855	 1	 0.009129	 -0.099682	 0.226413	 1.635643	 -0.281142	 -0.841092	 0.207491	 0.698624	 -0.369742	 0.576335	 1
1463569274.865	 1	 -0.011766	 -0.187213	 0.174623	 1.633832	 -0.279273	 -0.841145	 0.207792	 0.697925	 -0.369366	 0.577315	 1
1463569274.875	 1	 -0.009778	 -0.183266	 0.133078	 1.631978	 -0.277830	 -0.841093	 0.207908	 0.697262	 -0.369096	 0.578246	 1
1463569274.885	 1	 0.003664	 -0.217831	 0.065496	 1.629903	 -0.276990	 -0.841168	 0.207829	 0.696576	 -0.369074	 0.579115	 1
1463569274.895	 1	 -0.021100	 -0.216048	 0.008177	 1.627714	 -0.276776	 -0.841062	 0.207459	 0.695932	 -0.369204	 0.579938	 1
1463569274.905	 1	 -0.073230	 -0.146006	 -0.034413	 1.626243	 -0.276987	 -0.840425	 0.206895	 0.695591	 -0.369237	 0.580527	 1
1463569274.915	 1	 -0.121283	 -0.111779	 -0.045757	 1.621814	 -0.321947	 -0.840333	 0.191074	 0.698340	 -0.383437	 0.573401	 1
1463569274.925	 1	 -0.173696	 -0.150862	 -0.029678	 1.620963	 -0.322209	 -0.838621	 0.190226	 0.698281	 -0.383107	 0.573974	 1
1463569274.935	 1	 -0.221882	 -0.195307	 -0.017949	 1.619819	 -0.322300	 -0.836388	 0.189197	 0.698172	 -0.382601	 0.574784	 1
1463569274.945	 1	 -0.257261	 -0.242951	 -0.002098	 1.618363	 -0.322253	 -0.833749	 0.188013	 0.697998	 -0.381965	 0.575806	 1
1463569274.955	 1	 -0.243743	 -0.320530	 0.006585	 1.617776	 -0.330291	 -0.830612	 0.184111	 0.698795	 -0.383560	 0.575039	 1
1463569274.965	 1	 -0.194700	 -0.301778	 -0.027772	 1.615319	 -0.330350	 -0.828397	 0.182846	 0.698296	 -0.383166	 0.576310	 1
1463569274.975	 1	 -0.093561	 -0.088621	 -0.073563	 1.614173	 -0.330923	 -0.827073	 0.181972	 0.698134	 -0.383062	 0.576852	 1
1463569274.985	 1	 0.063106	 0.345708	 -0.104990	 1.616397	 -0.331925	 -0.827253	 0.182124	 0.698841	 -0.383216	 0.575845	 1
1463569274.995	 1	 0.206595	 0.848825	 -0.042940	 1.623011	 -0.332699	 -0.829078	 0.183770	 0.700638	 -0.383370	 0.573029	 1
1463569275.005	 1	 0.279002	 1.296139	 -0.077776	 1.634022	 -0.333409	 -0.831856	 0.186619	 0.703580	 -0.383360	 0.568492	 1
1463569275.015	 1	 0.246428	 1.578708	 -0.285884	 1.648366	 -0.335839	 -0.834457	 0.189480	 0.707587	 -0.383492	 0.562452	 1
1463569275.025	 1	 0.138229	 1.704810	 -0.540617	 1.664730	 -0.340760	 -0.835784	 0.191467	 0.712419	 -0.383825	 0.555408	 1
1463569275.035	 1	 0.051005	 1.728951	 -0.766640	 1.682041	 -0.347919	 -0.835722	 0.192426	 0.717742	 -0.384373	 0.547792	 1
1463569275.045	 1	 0.068019	 1.656203	 -0.964631	 1.699006	 -0.357074	 -0.835170	 0.192515	 0.723073	 -0.385455	 0.539932	 1
1463569275.055	 1	 0.149295	 1.500383	 -1.005157	 1.714509	 -0.367271	 -0.835043	 0.192169	 0.727946	 -0.387140	 0.532249	 1
1463569275.065	 1	 0.241731	 1.263164	 -0.825923	 1.727403	 -0.376335	 -0.835941	 0.192086	 0.731867	 -0.389003	 0.525500	 1
1463569275.075	 1	 0.320000	 1.013684	 -0.436726	 1.737356	 -0.382201	 -0.838233	 0.192991	 0.734622	 -0.390504	 0.520185	 1
1463569275.085	 1	 0.354140	 0.704600	 -0.071145	 1.743947	 -0.384336	 -0.841661	 0.194859	 0.736131	 -0.391432	 0.516645	 1
1463569275.095	 1	 0.277370	 0.278046	 0.184534	 1.746555	 -0.383611	 -0.845156	 0.196887	 0.736416	 -0.391847	 0.515153	 1
1463569275.105	 1	 0.036644	 -0.198823	 0.329268	 1.745114	 -0.380830	 -0.846829	 0.198104	 0.735704	 -0.391536	 0.515940	 1
1463569275.125	 2	 -0.632300	 -1.101680	 0.372519	 1.732344	 -0.372166	 -0.839965	 0.195854	 0.732502	 -0.388258	 0.523773	 1
1463569275.135	 2	 -0.867023	 -1.436934	 0.247814	 1.721642	 -0.368095	 -0.831792	 0.192097	 0.730207	 -0.385852	 0.530108	 1
1463569275.145	 2	 -0.971260	 -1.502265	 0.143669	 1.710107	 -0.365054	 -0.821936	 0.187266	 0.727864	 -0.383354	 0.536828	 1
1463569275.155	 2	 -0.891357	 -1.210819	 0.031649	 1.700537	 -0.363244	 -0.812226	 0.182494	 0.726060	 -0.381046	 0.542528	 1
1463569275.165	 2	 -0.688778	 -0.736510	 -0.041371	 1.694770	 -0.362545	 -0.804333	 0.178762	 0.725158	 -0.379198	 0.546260	 1
1463569275.175	 2	 -0.519399	 -0.318205	 -0.077320	 1.692753	 -0.362565	 -0.798356	 0.176207	 0.725137	 -0.377748	 0.548118	 1
1463569275.185	 2	 -0.461800	 -0.079227	 -0.100111	 1.693292	 -0.362937	 -0.793243	 0.174332	 0.725757	 -0.376416	 0.548813	 1
1463569275.195	 2	 -0.472321	 -0.037797	 -0.111357	 1.694751	 -0.363430	 -0.788134	 0.172590	 0.726632	 -0.375043	 0.549146	 1
1463569275.205	 2	 -0.464453	 -0.171954	 -0.121177	 1.690895	 -0.362381	 -0.784544	 0.170907	 0.725814	 -0.374054	 0.551425	 1
1463569275.215	 2	 -0.393813	 -0.365640	 -0.107608	 1.689345	 -0.363006	 -0.779989	 0.168760	 0.725811	 -0.373126	 0.552716	 1
1463569275.225	 2	 -0.271888	 -0.556203	 -0.082733	 1.685438	 -0.363512	 -0.776637	 0.166650	 0.725042	 -0.372687	 0.554659	 1
1463569275.235	 2	 -0.129571	 -0.716035	 -0.065210	 1.679338	 -0.364006	 -0.774800	 0.164685	 0.723529	 -0.372838	 0.557115	 1
1463569275.245	 2	 0.017352	 -0.819385	 -0.030146	 1.671052	 -0.364145	 -0.774694	 0.163055	 0.721232	 -0.373531	 0.560100	 1
1463569275.255	 2	 0.128709	 -0.777911	 0.014032	 1.662710	 -0.364226	 -0.775798	 0.161866	 0.718806	 -0.374544	 0.562881	 1
1463569275.265	 2	 0.199930	 -0.667021	 0.080521	 1.655041	 -0.363761	 -0.777814	 0.161305	 0.716450	 -0.375587	 0.565345	 1
1463569275.275	 2	 0.267010	 -0.533744	 0.152583	 1.648366	 -0.362619	 -0.780592	 0.161425	 0.714261	 -0.376557	 0.567432	 1
1463569275.285	 2	 0.330909	 -0.397254	 0.225775	 1.643375	 -0.360199	 -0.783927	 0.162483	 0.712411	 -0.377158	 0.569053	 1
1463569275.295	 2	 0.364741	 -0.283162	 0.278764	 1.638841	 -0.357757	 -0.787939	 0.163872	 0.710626	 -0.377916	 0.570382	 1
1463569275.305	 2	 0.406982	 -0.151400	 0.278557	 1.635451	 -0.355209	 -0.792344	 0.165648	 0.709118	 -0.378667	 0.571247	 1
1463569275.315	 2	 0.470491	 -0.023001	 0.263212	 1.633165	 -0.352834	 -0.797340	 0.167782	 0.707880	 -0.379554	 0.571572	 1
1463569275.325	 2	 0.570503	 0.144759	 0.257484	 1.635749	 -0.352323	 -0.802023	 0.170102	 0.708185	 -0.380515	 0.569867	 1
1463569275.335	 2	 0.708820	 0.293167	 0.244872	 1.635841	 -0.350258	 -0.809352	 0.173404	 0.707430	 -0.381960	 0.568842	 1
1463569275.355	 3	 0.910196	 0.336287	 0.112431	 1.636297	 -0.348023	 -0.827692	 0.180718	 0.705766	 -0.386437	 0.565599	 1
1463569275.365	 3	 0.898233	 0.338025	 0.053934	 1.636371	 -0.347946	 -0.837356	 0.184166	 0.704899	 -0.389135	 0.563714	 1
1463569275.375	 3	 0.840459	 0.344255	 0.009733	 1.636692	 -0.348301	 -0.846461	 0.187318	 0.704172	 -0.391775	 0.561752	 1
1463569275.385	 3	 0.772983	 0.332408	 -0.037749	 1.637219	 -0.349078	 -0.854819	 0.190105	 0.703595	 -0.394304	 0.559767	 1
1463569275.395	 3	 0.734245	 0.307688	 -0.088798	 1.637683	 -0.350331	 -0.862647	 0.192533	 0.703079	 -0.396825	 0.557800	 1
1463569275.405	 3	 0.737118	 0.273340	 -0.130707	 1.637861	 -0.352025	 -0.870371	 0.194720	 0.702521	 -0.399469	 0.555853	 1
1463569275.415	 3	 0.725981	 0.192245	 -0.163401	 1.637348	 -0.354072	 -0.878030	 0.196627	 0.701802	 -0.402259	 0.554075	 1
1463569275.425	 3	 0.703079	 0.120768	 -0.202234	 1.636143	 -0.356418	 -0.885442	 0.198205	 0.700937	 -0.405130	 0.552514	 1
1463569275.435	 3	 0.688664	 0.091357	 -0.303630	 1.634595	 -0.359610	 -0.892596	 0.199337	 0.700074	 -0.408208	 0.550933	 1
1463569275.445	 3	 0.697910	 0.072752	 -0.372092	 1.632839	 -0.363648	 -0.899782	 0.200151	 0.699224	 -0.411558	 0.549223	 1
1463569275.455	 3	 0.654123	 0.055949	 -0.360144	 1.630926	 -0.367727	 -0.906708	 0.200822	 0.698361	 -0.414852	 0.547595	 1
1463569275.465	 3	 0.570437	 0.162769	 -0.330712	 1.629983	 -0.371441	 -0.912790	 0.201515	 0.697819	 -0.417700	 0.545864	 1
1463569275.475	 3	 0.540171	 0.292744	 -0.313252	 1.630612	 -0.374922	 -0.918451	 0.202466	 0.697726	 -0.420197	 0.543710	 1
1463569275.485	 3	 0.479065	 0.210169	 -0.284713	 1.631151	 -0.378178	 -0.923609	 0.203297	 0.697637	 -0.422493	 0.541731	 1
1463569275.495	 3	 0.396346	 0.039644	 -0.219502	 1.630359	 -0.380793	 -0.927945	 0.203774	 0.697214	 -0.424507	 0.540520	 1
1463569275.505	 3	 0.288545	 -0.060248	 -0.104391	 1.628703	 -0.382319	 -0.931249	 0.204067	 0.696566	 -0.426011	 0.540061	 1
1463569275.515	 3	 0.179878	 -0.052214	 -0.067134	 1.627303	 -0.383110	 -0.933430	 0.204265	 0.696037	 -0.426972	 0.539911	 1
1463569275.525	 3	 0.069958	 0.024098	 -0.152985	 1.625774	 -0.398937	 -0.934840	 0.199162	 0.696887	 -0.432066	 0.536658	 1
1463569275.535	 3	 0.032637	 0.194917	 -0.079664	 1.627140	 -0.400144	 -0.935141	 0.199160	 0.697329	 -0.432357	 0.535849	 1
1463569275.545	 3	 0.113405	 0.415170	 0.111387	 1.630303	 -0.399452	 -0.936117	 0.200414	 0.698018	 -0.432104	 0.534688	 1
1463569275.555	 3	 0.236318	 0.646971	 0.151908	 1.635358	 -0.398110	 -0.938472	 0.202774	 0.699012	 -0.431836	 0.532712	 1
1463569275.565	 3	 0.256796	 0.692639	 0.148949	 1.642686	 -0.397656	 -0.940825	 0.205330	 0.700679	 -0.431582	 0.529741	 1
1463569275.575	 3	 0.141737	 0.585942	 0.056237	 1.648096	 -0.396929	 -0.942799	 0.207429	 0.701842	 -0.431335	 0.527580	 1
1463569275.585	 3	 -0.009880	 0.448276	 -0.068418	 1.652832	 -0.397340	 -0.943065	 0.208408	 0.703097	 -0.431032	 0.525767	 1
1463569275.595	 3	 -0.116500	 0.307633	 -0.145533	 1.656714	 -0.398539	 -0.941934	 0.208452	 0.704337	 -0.430680	 0.524377	 1
1463569275.605	 3	 -0.094925	 0.199532	 -0.226708	 1.654598	 -0.405658	 -0.942450	 0.205837	 0.704334	 -0.433105	 0.523417	 1
1463569275.615	 3	 0.101933	 0.245377	 -0.425162	 1.656724	 -0.409297	 -0.942540	 0.205132	 0.705186	 -0.433966	 0.521830	 1
1463569275.625	 3	 0.571022	 0.714347	 -0.833069	 1.660725	 -0.416860	 -0.946524	 0.204924	 0.706445	 -0.436784	 0.517843	 1
1463569275.635	 3	 1.050222	 1.172608	 -1.100483	 1.667855	 -0.428374	 -0.955945	 0.206043	 0.708252	 -0.441801	 0.510624	 1
1463569275.645	 3	 1.067720	 1.228164	 -1.059626	 1.675595	 -0.440892	 -0.966646	 0.207462	 0.710114	 -0.447314	 0.502602	 1
1463569275.655	 3	 0.830290	 1.273090	 -0.974012	 1.684537	 -0.451717	 -0.975265	 0.209004	 0.712301	 -0.451636	 0.494944	 1
1463569275.665	 3	 0.654924	 1.122173	 -0.882234	 1.693470	 -0.461566	 -0.981735	 0.210134	 0.714580	 -0.455107	 0.487952	 1
1463569275.675	 3	 0.492265	 0.719189	 -0.784386	 1.699562	 -0.470201	 -0.986544	 0.210443	 0.716206	 -0.458100	 0.482605	 1
1463569275.685	 3	 0.299377	 0.315660	 -0.773672	 1.702426	 -0.478318	 -0.989290	 0.209454	 0.717209	 -0.460771	 0.478988	 1
1463569275.695	 3	 0.126937	 -0.040165	 -0.776547	 1.702584	 -0.486240	 -0.990009	 0.207180	 0.717750	 -0.463177	 0.476843	 1
1463569275.705	 3	 0.007721	 -0.464932	 -0.731503	 1.699403	 -0.493685	 -0.989282	 0.203762	 0.717600	 -0.465436	 0.476340	 1
1463569275.715	 3	 -0.089377	 -0.998908	 -0.630116	 1.691596	 -0.500142	 -0.987627	 0.199242	 0.716363	 -0.467644	 0.477950	 1
1463569275.725	 3	 -0.205492	 -1.550406	 -0.459451	 1.678730	 -0.504973	 -0.984985	 0.193699	 0.713877	 -0.469623	 0.481990	 1
1463569275.735	 3	 -0.356224	 -2.031118	 -0.221750	 1.661476	 -0.507483	 -0.981047	 0.187410	 0.710246	 -0.471006	 0.488448	 1
1463569275.745	 3	 -0.579687	 -2.393980	 0.104008	 1.641219	 -0.506875	 -0.975156	 0.180756	 0.705752	 -0.471252	 0.497154	 1
1463569275.755	 3	 -0.819590	 -2.599577	 0.402597	 1.619731	 -0.503076	 -0.966684	 0.173997	 0.700823	 -0.469998	 0.507617	 1
1463569275.765	 3	 -0.970634	 -2.629875	 0.563495	 1.598438	 -0.497411	 -0.956207	 0.167268	 0.695820	 -0.467597	 0.518853	 1
1463569275.775	 3	 -1.021113	 -2.541921	 0.645803	 1.578895	 -0.485818	 -0.944450	 0.162610	 0.690752	 -0.463008	 0.531077	 1
1463569275.785	 3	 -0.978378	 -2.359704	 0.710007	 1.559999	 -0.478870	 -0.933237	 0.156786	 0.686023	 -0.459649	 0.541769	 1
1463569275.795	 3	 -0.892807	 -2.096144	 0.714911	 1.543126	 -0.471883	 -0.922793	 0.151776	 0.681647	 -0.456233	 0.551519	 1
1463569275.805	 3	 -0.805818	 -1.710682	 0.663387	 1.529248	 -0.465364	 -0.913266	 0.147661	 0.677965	 -0.452891	 0.559865	 1
1463569275.815	 3	 -0.728057	 -1.177937	 0.531250	 1.519953	 -0.460037	 -0.904650	 0.144518	 0.675534	 -0.449730	 0.566138	 1
1463569275.825	 3	 -0.680559	 -0.684814	 0.349982	 1.515452	 -0.456448	 -0.896734	 0.142101	 0.674523	 -0.446850	 0.570221	 1
1463569275.835	 3	 -0.638834	 -0.303189	 0.191174	 1.514785	 -0.454564	 -0.889360	 0.140129	 0.674696	 -0.444288	 0.572501	 1
1463569275.845	 3	 -0.571597	 -0.029378	 0.135585	 1.516794	 -0.453444	 -0.882705	 0.138723	 0.675644	 -0.441942	 0.573540	 1
1463569275.855	 3	 -0.477917	 0.135312	 0.150157	 1.520273	 -0.452243	 -0.876997	 0.137983	 0.676940	 -0.439741	 0.573882	 1
1463569275.865	 3	 -0.363197	 0.216087	 0.188277	 1.524208	 -0.450717	 -0.872576	 0.137887	 0.678253	 -0.437789	 0.573848	 1
1463569275.875	 3	 -0.212258	 0.273437	 0.237588	 1.528061	 -0.448581	 -0.869683	 0.138498	 0.679390	 -0.436113	 0.573632	 1
1463569275.885	 3	 -0.085697	 0.354362	 0.301184	 1.531959	 -0.445784	 -0.868296	 0.139858	 0.680385	 -0.434681	 0.573209	 1
1463569275.895	 3	 -0.015024	 0.560044	 0.385613	 1.537148	 -0.442170	 -0.867826	 0.142091	 0.681621	 -0.433191	 0.572319	 1
1463569275.905	 3	 0.045507	 0.859516	 0.492317	 1.544903	 -0.437504	 -0.867981	 0.145452	 0.683460	 -0.431393	 0.570637	 1
1463569275.915	 3	 0.113769	 1.239579	 0.568797	 1.555871	 -0.431966	 -0.868927	 0.150063	 0.686079	 -0.429315	 0.567861	 1
1463569275.925	 3	 0.190844	 1.736111	 0.575943	 1.571160	 -0.426153	 -0.870747	 0.155974	 0.689810	 -0.427030	 0.563453	 1
1463569275.935	 3	 0.277294	 2.273324	 0.476811	 1.591412	 -0.421115	 -0.873586	 0.162999	 0.694865	 -0.424781	 0.556915	 1
1463569275.945	 3	 0.338094	 2.630396	 0.313345	 1.615486	 -0.417660	 -0.877296	 0.170568	 0.700945	 -0.422805	 0.548470	 1
1463569275.955	 3	 0.287256	 2.667270	 0.097781	 1.640859	 -0.416282	 -0.880790	 0.177615	 0.707436	 -0.421144	 0.539096	 1
1463569275.965	 3	 0.061808	 2.384109	 -0.172534	 1.664542	 -0.417859	 -0.882292	 0.182604	 0.713746	 -0.419879	 0.530023	 1
1463569275.975	 3	 -0.234233	 1.895415	 -0.507022	 1.685726	 -0.421844	 -0.880071	 0.184938	 0.719799	 -0.418540	 0.522028	 1
1463569275.985	 3	 -0.477475	 1.315919	 -0.874787	 1.702713	 -0.429091	 -0.874398	 0.184073	 0.725205	 -0.417689	 0.515491	 1
1463569275.995	 3	 -0.604191	 0.741725	 -1.197690	 1.714914	 -0.439393	 -0.866346	 0.180344	 0.729702	 -0.417645	 0.510475	 1
1463569276.005	 3	 -0.653347	 0.239269	 -1.423616	 1.722532	 -0.452046	 -0.857042	 0.174431	 0.733185	 -0.418468	 0.506852	 1
1463569276.015	 3	 -0.686883	 -0.179749	 -1.577495	 1.726216	 -0.466223	 -0.846947	 0.166899	 0.735718	 -0.419940	 0.504494	 1
1463569276.025	 3	 -0.826939	 -0.500027	 -1.798803	 1.727322	 -0.482169	 -0.835181	 0.157619	 0.737708	 -0.421766	 0.503047	 1
1463569276.035	 3	 -0.853584	 -0.769496	 -2.007837	 1.726509	 -0.500183	 -0.822042	 0.146728	 0.739265	 -0.424033	 0.502149	 1
1463569276.045	 3	 -0.657084	 -1.111128	 -2.104382	 1.722049	 -0.519747	 -0.810259	 0.135025	 0.739701	 -0.427348	 0.501980	 1
1463569276.055	 3	 -0.392844	 -1.542722	 -1.965755	 1.712143	 -0.539025	 -0.801608	 0.123359	 0.738399	 -0.431645	 0.503221	 1
1463569276.065	 3	 -0.260617	 -2.108332	 -1.587429	 1.695602	 -0.555452	 -0.795742	 0.112163	 0.735053	 -0.436053	 0.506926	 1
1463569276.075	 3	 -0.384709	 -2.612563	 -1.062423	 1.673563	 -0.566958	 -0.790135	 0.101433	 0.730054	 -0.439194	 0.513654	 1
1463569276.085	 3	 -0.639757	 -2.793352	 -0.575897	 1.649970	 -0.573303	 -0.782613	 0.091361	 0.724483	 -0.440229	 0.522471	 1
1463569276.095	 3	 -0.969359	 -2.832352	 -0.220623	 1.627600	 -0.575710	 -0.771900	 0.081754	 0.719116	 -0.439064	 0.532364	 1
1463569276.105	 3	 -1.417724	 -2.850473	 0.032501	 1.607547	 -0.575399	 -0.756440	 0.071936	 0.714310	 -0.435590	 0.542999	 1
1463569276.115	 3	 -1.902029	 -2.814084	 0.307760	 1.590732	 -0.572573	 -0.735255	 0.061738	 0.710328	 -0.429537	 0.554184	 1
1463569276.125	 3	 -2.138577	 -2.778103	 0.626686	 1.576321	 -0.566771	 -0.710352	 0.051884	 0.706851	 -0.421323	 0.565824	 1
1463569276.145	 4	 -1.904826	 -2.418591	 1.015934	 1.549700	 -0.548860	 -0.662044	 0.035748	 0.699803	 -0.402838	 0.588829	 1
1463569276.155	 4	 -1.611396	 -2.107567	 0.903302	 1.538245	 -0.539821	 -0.642015	 0.029699	 0.696534	 -0.394481	 0.598618	 1
1463569276.165	 4	 -1.271208	 -1.682096	 0.604820	 1.528362	 -0.533509	 -0.625939	 0.024442	 0.693642	 -0.387954	 0.606428	 1
1463569276.175	 4	 -0.960967	 -0.809897	 0.295835	 1.524315	 -0.530275	 -0.613750	 0.020601	 0.692484	 -0.383357	 0.610802	 1
1463569276.185	 4	 -0.717984	 -0.001871	 0.057179	 1.526768	 -0.529551	 -0.604725	 0.018203	 0.693308	 -0.380365	 0.611813	 1
1463569276.195	 4	 -0.523855	 0.776143	 -0.086479	 1.535972	 -0.530305	 -0.598162	 0.017399	 0.696189	 -0.378498	 0.609719	 1
1463569276.205	 4	 -0.345966	 1.415645	 -0.123641	 1.550805	 -0.531560	 -0.593673	 0.018186	 0.700752	 -0.377372	 0.605150	 1
1463569276.215	 4	 -0.154448	 2.178041	 -0.368669	 1.571796	 -0.534462	 -0.591339	 0.020295	 0.707120	 -0.377331	 0.597655	 1
1463569276.225	 4	 0.047267	 2.814230	 -0.852624	 1.598568	 -0.541655	 -0.591157	 0.022767	 0.715107	 -0.379156	 0.586808	 1
1463569276.235	 4	 0.296828	 3.299337	 -1.470557	 1.629377	 -0.554860	 -0.593177	 0.024785	 0.724063	 -0.383405	 0.572816	 1
1463569276.245	 4	 0.581959	 3.664943	 -2.126147	 1.662850	 -0.574820	 -0.597425	 0.025979	 0.733417	 -0.390343	 0.555929	 1
1463569276.255	 4	 0.885885	 3.932726	 -2.770022	 1.698122	 -0.601636	 -0.603633	 0.026203	 0.742735	 -0.399942	 0.536381	 1
1463569276.265	 4	 1.234680	 3.908544	 -3.323217	 1.732714	 -0.634909	 -0.611858	 0.025260	 0.751172	 -0.412106	 0.515045	 1
1463569276.275	 4	 1.625933	 3.824768	 -3.863482	 1.764672	 -0.674262	 -0.622442	 0.023095	 0.758102	 -0.426771	 0.492559	 1
1463569276.285	 4	 2.045420	 3.618593	 -4.404065	 1.793198	 -0.720104	 -0.635622	 0.019535	 0.763233	 -0.444022	 0.468975	 1
1463569276.295	 4	 2.492182	 2.465941	 -4.475167	 1.809912	 -0.769232	 -0.653123	 0.014316	 0.764771	 -0.463146	 0.447679	 1
1463569276.305	 4	 2.875286	 0.434163	 -4.212850	 1.801916	 -0.817443	 -0.677447	 0.006296	 0.760468	 -0.483164	 0.433821	 1
1463569276.315	 4	 3.100768	 -1.068616	 -3.961290	 1.770853	 -0.863246	 -0.709226	 -0.004156	 0.751376	 -0.503350	 0.426680	 1
1463569276.325	 4	 2.900858	 -1.421922	 -3.628188	 1.728284	 -0.905408	 -0.745533	 -0.015414	 0.740389	 -0.522461	 0.422637	 1
1463569276.335	 4	 1.215453	 0.139040	 -2.607829	 1.709362	 -0.936382	 -0.765893	 -0.023247	 0.735114	 -0.534658	 0.416183	 1
1463569276.345	 4	 -0.019686	 1.090611	 -1.690849	 1.719113	 -0.955448	 -0.765189	 -0.027267	 0.736143	 -0.539526	 0.407752	 1
1463569276.355	 4	 -0.442724	 0.984377	 -1.404661	 1.738470	 -0.968984	 -0.754712	 -0.030402	 0.739132	 -0.541174	 0.399862	 1
1463569276.365	 4	 -0.445044	 0.175935	 -1.565633	 1.753023	 -0.983060	 -0.741992	 -0.035808	 0.740918	 -0.542548	 0.394209	 1
1463569276.375	 4	 -0.373585	 -0.847235	 -1.973306	 1.758255	 -1.000649	 -0.728711	 -0.045073	 0.740448	 -0.544638	 0.391247	 1
1463569276.395	 5	 -0.347469	 -1.939417	 -2.968461	 1.751474	 -1.050052	 -0.697309	 -0.074652	 0.734254	 -0.551119	 0.389315	 1
1463569276.405	 5	 -0.413091	 -1.856792	 -3.471200	 1.750397	 -1.082301	 -0.676875	 -0.092928	 0.730261	 -0.555381	 0.386827	 1
1463569276.415	 5	 -0.415186	 -1.541421	 -3.837001	 1.755650	 -1.118486	 -0.652674	 -0.111976	 0.726379	 -0.560226	 0.382075	 1
1463569276.425	 5	 -0.236571	 -1.098505	 -3.995365	 1.765848	 -1.156904	 -0.628074	 -0.130310	 0.722491	 -0.565957	 0.375125	 1
1463569276.435	 5	 0.058198	 -0.601570	 -3.991176	 1.778244	 -1.196024	 -0.606754	 -0.146821	 0.718429	 -0.572786	 0.366359	 1
1463569276.445	 5	 0.396829	 -0.101404	 -3.963892	 1.790351	 -1.235484	 -0.591424	 -0.161122	 0.714055	 -0.580908	 0.355966	 1
1463569276.455	 5	 0.635266	 0.545675	 -3.811806	 1.803370	 -1.274438	 -0.581664	 -0.172772	 0.709792	 -0.590037	 0.343805	 1
1463569276.465	 5	 0.911938	 1.242754	 -3.496526	 1.814542	 -1.311193	 -0.581082	 -0.180835	 0.705885	 -0.600014	 0.330164	 1
1463569276.475	 5	 1.004007	 1.770802	 -3.244091	 1.825475	 -1.345617	 -0.586995	 -0.185822	 0.702564	 -0.610342	 0.315209	 1
1463569276.485	 5	 1.092604	 2.262519	 -3.016477	 1.834900	 -1.378092	 -0.598922	 -0.188464	 0.699627	 -0.620799	 0.299352	 1
1463569276.495	 5	 1.249046	 3.042855	 -2.708967	 1.839510	 -1.408198	 -0.623251	 -0.187515	 0.697372	 -0.631755	 0.281773	 1
1463569276.505	 5	 1.216990	 3.332345	 -2.256242	 1.834807	 -1.434433	 -0.661369	 -0.183610	 0.695719	 -0.642377	 0.263846	 1
1463569276.515	 5	 1.072577	 3.097700	 -1.524989	 1.815780	 -1.453979	 -0.712611	 -0.177899	 0.694612	 -0.651350	 0.248211	 1
1463569276.525	 5	 0.720910	 2.474318	 -0.655935	 1.788314	 -1.464279	 -0.766893	 -0.171233	 0.694371	 -0.657573	 0.236910	 1
1463569276.535	 5	 0.213341	 1.642774	 -0.100794	 1.779749	 -1.467106	 -0.794238	 -0.165445	 0.695243	 -0.660574	 0.230014	 1
1463569276.545	 5	 -0.110314	 0.852643	 0.226124	 1.791685	 -1.465488	 -0.792640	 -0.161547	 0.696719	 -0.661067	 0.226882	 1
1463569276.555	 5	 -0.170910	 0.304193	 0.399530	 1.803115	 -1.461577	 -0.785457	 -0.159046	 0.698035	 -0.660430	 0.226459	 1
1463569276.565	 5	 -0.160380	 -0.015435	 0.475331	 1.808422	 -1.456713	 -0.780597	 -0.157469	 0.699001	 -0.659366	 0.227680	 1
1463569276.575	 5	 -0.136127	 -0.090905	 0.491470	 1.809411	 -1.451609	 -0.778740	 -0.156196	 0.699754	 -0.658243	 0.229485	 1
1463569276.585	 5	 -0.142286	 0.000242	 0.444412	 1.811230	 -1.446805	 -0.776601	 -0.154844	 0.700534	 -0.657202	 0.230998	 1
1463569276.595	 5	 -0.173916	 0.168800	 0.347058	 1.868095	 -1.449917	 -0.721320	 -0.156521	 0.702256	 -0.655916	 0.228282	 1
1463569276.605	 5	 -0.229077	 0.346720	 0.219171	 1.881542	 -1.446866	 -0.710816	 -0.154886	 0.703497	 -0.655112	 0.227882	 1
1463569276.615	 5	 -0.281129	 0.519189	 0.074153	 1.903979	 -1.444963	 -0.693019	 -0.153241	 0.705011	 -0.654402	 0.226352	 1
1463569276.625	 5	 -0.304509	 0.641756	 -0.047065	 1.932883	 -1.444132	 -0.670095	 -0.151634	 0.706669	 -0.653837	 0.223883	 1
1463569276.635	 5	 -0.283166	 0.681764	 -0.094838	 1.963462	 -1.443874	 -0.646093	 -0.150057	 0.708309	 -0.653413	 0.220981	 1
1463569276.645	 5	 -0.199224	 0.626023	 -0.120600	 1.989479	 -1.444013	 -0.626385	 -0.148583	 0.709666	 -0.653225	 0.218158	 1
1463569276.655	 5	 -0.086000	 0.433080	 -0.134039	 2.006921	 -1.444734	 -0.613753	 -0.147572	 0.710478	 -0.653323	 0.215900	 1
1463569276.665	 5	 0.042810	 0.126377	 -0.126344	 1.957608	 -1.452757	 -0.664704	 -0.147928	 0.707340	 -0.657093	 0.214514	 1
1463569276.675	 5	 0.165136	 -0.207754	 -0.098545	 1.949000	 -1.454249	 -0.672111	 -0.148569	 0.706680	 -0.657595	 0.214710	 1
1463569276.685	 5	 0.240829	 -0.488436	 -0.052791	 1.928835	 -1.455665	 -0.688154	 -0.149949	 0.705439	 -0.658140	 0.216155	 1
1463569276.695	 5	 0.267974	 -0.663600	 0.003960	 1.901309	 -1.456655	 -0.709546	 -0.151766	 0.703881	 -0.658608	 0.218530	 1
1463569276.705	 5	 0.247652	 -0.708970	 0.046349	 1.870273	 -1.456774	 -0.733659	 -0.153548	 0.702286	 -0.658917	 0.221463	 1
1463569276.715	 5	 0.193664	 -0.617331	 0.047671	 1.844986	 -1.456883	 -0.752582	 -0.155275	 0.700913	 -0.659095	 0.224067	 1
1463569276.725	 5	 0.141213	 -0.393032	 0.009716	 1.826856	 -1.457084	 -0.766228	 -0.156533	 0.699905	 -0.659256	 0.225859	 1
1463569276.735	 5	 0.092313	 -0.095348	 -0.027587	 1.816642	 -1.457526	 -0.774778	 -0.157047	 0.699350	 -0.659509	 0.226480	 1
1463569276.745	 5	 0.048791	 0.190796	 -0.040532	 1.813550	 -1.458051	 -0.779119	 -0.156713	 0.699259	 -0.659860	 0.225971	 1
1463569276.755	 5	 0.021068	 0.404811	 -0.020181	 1.815423	 -1.458388	 -0.780820	 -0.155605	 0.699550	 -0.660263	 0.224653	 1
1463569276.765	 5	 0.005729	 0.517847	 0.014043	 1.819505	 -1.458353	 -0.781708	 -0.153936	 0.700081	 -0.660672	 0.222942	 1
1463569276.775	 5	 0.003658	 0.522185	 0.024759	 1.823977	 -1.458131	 -0.782504	 -0.152110	 0.700673	 -0.661059	 0.221180	 1
1463569276.785	 5	 0.009708	 0.461421	 0.008155	 1.827701	 -1.458011	 -0.783586	 -0.150462	 0.701184	 -0.661436	 0.219553	 1
1463569276.795	 5	 0.009141	 0.369706	 -0.025732	 1.831208	 -1.458211	 -0.784019	 -0.149212	 0.701569	 -0.661785	 0.218120	 1
1463569276.805	 5	 -0.004269	 0.263158	 -0.054364	 1.810897	 -1.463177	 -0.807079	 -0.149413	 0.700319	 -0.663726	 0.216094	 1
1463569276.815	 5	 -0.041220	 0.138678	 -0.074384	 1.816942	 -1.463775	 -0.802720	 -0.149122	 0.700555	 -0.663820	 0.215242	 1
1463569276.825	 5	 -0.071781	 0.007772	 -0.094581	 1.790188	 -1.470320	 -0.829634	 -0.150667	 0.698724	 -0.665912	 0.213650	 1
1463569276.835	 5	 -0.085333	 -0.123244	 -0.126589	 1.799922	 -1.471290	 -0.818944	 -0.151468	 0.698813	 -0.665682	 0.213509	 1
1463569276.845	 5	 -0.092455	 -0.255318	 -0.153378	 1.789505	 -1.476609	 -0.826966	 -0.153823	 0.697525	 -0.666707	 0.212836	 1
1463569276.855	 5	 -0.087705	 -0.376608	 -0.156680	 1.799040	 -1.477952	 -0.813906	 -0.155624	 0.697331	 -0.666296	 0.213450	 1
1463569276.865	 5	 -0.089255	 -0.496637	 -0.135402	 1.807208	 -1.479125	 -0.801010	 -0.157768	 0.697015	 -0.665772	 0.214538	 1
1463569276.875	 5	 -0.090739	 -0.609166	 -0.106595	 1.813873	 -1.480023	 -0.788479	 -0.160198	 0.696596	 -0.665121	 0.216112	 1
1463569276.885	 5	 -0.092156	 -0.705770	 -0.080822	 1.811428	 -1.479376	 -0.784018	 -0.162361	 0.696073	 -0.664317	 0.218642	 1
1463569276.895	 5	 -0.103138	 -0.784333	 -0.065471	 1.816176	 -1.479806	 -0.771552	 -0.165256	 0.695505	 -0.663418	 0.220998	 1
1463569276.905	 5	 -0.121476	 -0.836306	 -0.053006	 1.821856	 -1.480064	 -0.757574	 -0.168312	 0.694929	 -0.662388	 0.223579	 1
1463569276.915	 5	 -0.132164	 -0.852121	 -0.038140	 1.828410	 -1.480146	 -0.742444	 -0.171424	 0.694367	 -0.661259	 0.226285	 1
1463569276.925	 5	 -0.135167	 -0.826444	 -0.018688	 1.835531	 -1.479783	 -0.726915	 -0.174350	 0.693897	 -0.660034	 0.229051	 1
1463569276.935	 5	 -0.118782	 -0.759373	 -0.003286	 1.841023	 -1.479514	 -0.713579	 -0.177083	 0.693404	 -0.658926	 0.231623	 1
1463569276.945	 5	 -0.090506	 -0.642499	 -0.008839	 1.844790	 -1.479317	 -0.703020	 -0.179442	 0.692935	 -0.657993	 0.233851	 1
1463569276.955	 5	 -0.051452	 -0.492777	 -0.026970	 1.846530	 -1.479357	 -0.695936	 -0.181336	 0.692494	 -0.657327	 0.235567	 1
1463569276.965	 5	 -0.027359	 -0.339851	 -0.051339	 1.865834	 -1.479682	 -0.672925	 -0.183061	 0.692616	 -0.656439	 0.236346	 1
1463569276.975	 5	 -0.032211	 -0.217691	 -0.074673	 1.868751	 -1.480255	 -0.667518	 -0.184146	 0.692360	 -0.656190	 0.236946	 1
1463569276.985	 5	 -0.052106	 -0.125199	 -0.088559	 1.875062	 -1.480938	 -0.659716	 -0.184978	 0.692261	 -0.655995	 0.237125	 1
1463569276.995	 5	 -0.066718	 -0.051800	 -0.093078	 1.884314	 -1.481627	 -0.649730	 -0.185603	 0.692303	 -0.655819	 0.237002	 1
1463569277.005	 5	 -0.065489	 0.018088	 -0.135017	 1.889703	 -1.478167	 -0.644277	 -0.184714	 0.693095	 -0.654907	 0.237900	 1
1463569277.015	 5	 -0.054783	 0.086661	 -0.208010	 1.902874	 -1.479790	 -0.631751	 -0.185214	 0.693188	 -0.655001	 0.236982	 1
1463569277.025	 5	 -0.059066	 0.124610	 -0.256644	 1.919113	 -1.481925	 -0.616618	 -0.185753	 0.693284	 -0.655203	 0.235717	 1
1463569277.035	 5	 -0.090001	 0.117342	 -0.244719	 1.938810	 -1.484009	 -0.598070	 -0.186321	 0.693452	 -0.655338	 0.234394	 1
1463569277.045	 5	 -0.127297	 0.075341	 -0.182927	 1.935140	 -1.482284	 -0.602431	 -0.185525	 0.693780	 -0.655105	 0.234708	 1
1463569277.055	 5	 -0.143254	 0.023810	 -0.108664	 1.955605	 -1.482946	 -0.582258	 -0.186009	 0.694167	 -0.654798	 0.234034	 1
1463569277.065	 5	 -0.118691	 -0.019465	 -0.052795	 1.971711	 -1.483063	 -0.565999	 -0.186413	 0.694512	 -0.654425	 0.233732	 1
1463569277.075	 5	 -0.060008	 -0.041800	 -0.029001	 1.980825	 -1.483070	 -0.556458	 -0.186748	 0.694686	 -0.654162	 0.233687	 1
1463569277.085	 5	 0.011446	 -0.050528	 -0.030830	 1.997560	 -1.488073	 -0.539288	 -0.188581	 0.693930	 -0.654970	 0.232191	 1
1463569277.095	 5	 0.080711	 -0.057241	 -0.048548	 1.992119	 -1.488727	 -0.544185	 -0.188841	 0.693615	 -0.655188	 0.232305	 1
1463569277.105	 5	 0.123178	 -0.080963	 -0.075783	 1.982002	 -1.489817	 -0.553594	 -0.189188	 0.693090	 -0.655594	 0.232444	 1
1463569277.115	 5	 0.147431	 -0.112145	 -0.112520	 1.969571	 -1.491329	 -0.565026	 -0.189717	 0.692401	 -0.656113	 0.232601	 1
1463569277.125	 5	 0.146988	 -0.174108	 -0.150394	 1.957475	 -1.493200	 -0.575585	 -0.190548	 0.691598	 -0.656641	 0.232822	 1
1463569277.135	 5	 0.140133	 -0.243451	 -0.181887	 1.946580	 -1.495348	 -0.584231	 -0.191735	 0.690702	 -0.657115	 0.233169	 1
1463569277.145	 5	 0.138758	 -0.295676	 -0.197282	 1.935733	 -1.497677	 -0.592261	 -0.193179	 0.689723	 -0.657553	 0.233641	 1
1463569277.155	 5	 0.132298	 -0.320013	 -0.182531	 1.924343	 -1.499918	 -0.600520	 -0.194710	 0.688729	 -0.657931	 0.234236	 1
1463569277.165	 5	 0.112126	 -0.329255	 -0.145140	 1.912666	 -1.501788	 -0.608930	 -0.196188	 0.687800	 -0.658202	 0.234971	 1
1463569277.175	 5	 0.079228	 -0.328824	 -0.099022	 1.902572	 -1.503125	 -0.615762	 -0.197544	 0.687015	 -0.658313	 0.235820	 1
1463569277.185	 5	 0.051646	 -0.327392	 -0.059335	 1.894534	 -1.503968	 -0.620526	 -0.198796	 0.686368	 -0.658267	 0.236776	 1
1463569277.195	 5	 0.034726	 -0.326007	 -0.021873	 1.887306	 -1.504377	 -0.624487	 -0.199933	 0.685825	 -0.658107	 0.237837	 1
1463569277.205	 5	 0.023009	 -0.336477	 -0.003751	 1.880531	 -1.504535	 -0.627953	 -0.201020	 0.685333	 -0.657875	 0.238975	 1
1463569277.215	 5	 0.016563	 -0.337591	 -0.013297	 1.875158	 -1.504655	 -0.629923	 -0.202147	 0.684865	 -0.657596	 0.240133	 1
1463569277.225	 5	 0.028298	 -0.291234	 -0.069453	 1.870665	 -1.505245	 -0.631376	 -0.203299	 0.684357	 -0.657443	 0.241026	 1
1463569277.235	 5	 0.013158	 -0.263081	 -0.153254	 1.871067	 -1.506554	 -0.628302	 -0.204599	 0.683837	 -0.657397	 0.241528	 1
1463569277.245	 5	 -0.052522	 -0.311400	 -0.242656	 1.883534	 -1.508561	 -0.612840	 -0.206367	 0.683359	 -0.657247	 0.241781	 1
1463569277.255	 5	 -0.123400	 -0.367910	 -0.289461	 1.895707	 -1.511432	 -0.597042	 -0.208584	 0.682614	 -0.657236	 0.242013	 1
1463569277.265	 5	 -0.197358	 -0.444204	 -0.279935	 1.937531	 -1.513539	 -0.550846	 -0.211202	 0.682388	 -0.656516	 0.242337	 1
1463569277.275	 5	 -0.190483	 -0.404350	 -0.208218	 1.980824	 -1.514885	 -0.503268	 -0.213595	 0.682287	 -0.655668	 0.242820	 1
1463569277.285	 5	 -0.146061	 -0.323125	 -0.136443	 2.014816	 -1.515631	 -0.465785	 -0.215439	 0.682224	 -0.654946	 0.243316	 1
1463569277.295	 5	 -0.090029	 -0.255845	 -0.077697	 2.065481	 -1.515936	 -0.412398	 -0.217150	 0.682541	 -0.654009	 0.243426	 1
1463569277.305	 5	 -0.033003	 -0.194005	 -0.033922	 2.074968	 -1.516097	 -0.400794	 -0.218047	 0.682393	 -0.653671	 0.243944	 1
1463569277.315	 5	 0.008962	 -0.134448	 -0.017747	 2.075319	 -1.516275	 -0.398952	 -0.218604	 0.682190	 -0.653533	 0.244385	 1
1463569277.325	 5	 0.016716	 -0.080177	 -0.010915	 2.072827	 -1.516466	 -0.400512	 -0.218932	 0.682008	 -0.653503	 0.244680	 1
1463569277.335	 5	 -0.000066	 -0.022652	 -0.004851	 2.045000	 -1.512828	 -0.427927	 -0.217781	 0.682495	 -0.652852	 0.246083	 1
1463569277.345	 5	 -0.036032	 0.030756	 0.011945	 2.048638	 -1.512640	 -0.424457	 -0.217731	 0.682611	 -0.652771	 0.246019	 1
1463569277.355	 5	 -0.077332	 0.085235	 0.027732	 2.057663	 -1.512118	 -0.416142	 -0.217497	 0.682945	 -0.652591	 0.245776	 1
1463569277.365	 5	 -0.120847	 0.129031	 0.035979	 2.072388	 -1.511292	 -0.402582	 -0.217125	 0.683487	 -0.652303	 0.245364	 1
1463569277.375	 5	 -0.151664	 0.157824	 0.034394	 2.083208	 -1.509742	 -0.393220	 -0.216427	 0.684191	 -0.651905	 0.245077	 1
1463569277.385	 5	 -0.160126	 0.172749	 0.035672	 2.104547	 -1.508638	 -0.373540	 -0.215950	 0.684958	 -0.651497	 0.244438	 1
1463569277.395	 5	 -0.136583	 0.181234	 0.041941	 2.122923	 -1.507544	 -0.356927	 -0.215406	 0.685694	 -0.651143	 0.243795	 1
1463569277.405	 5	 -0.084287	 0.178981	 0.045728	 2.134097	 -1.506637	 -0.347545	 -0.214781	 0.686285	 -0.650944	 0.243216	 1
1463569277.415	 5	 -0.023640	 0.152086	 0.035402	 2.153473	 -1.507852	 -0.329794	 -0.214836	 0.686405	 -0.651221	 0.242084	 1
1463569277.425	 5	 0.015604	 0.122007	 0.010268	 2.152192	 -1.507745	 -0.332370	 -0.214346	 0.686555	 -0.651364	 0.241707	 1
1463569277.435	 5	 0.038900	 0.107901	 -0.018841	 2.149609	 -1.508033	 -0.336065	 -0.213982	 0.686562	 -0.651617	 0.241328	 1
1463569277.445	 5	 0.032485	 0.120553	 -0.036786	 2.148951	 -1.508502	 -0.337875	 -0.213679	 0.686550	 -0.651900	 0.240864	 1
1463569277.455	 5	 0.011342	 0.166312	 -0.041495	 2.137984	 -1.508463	 -0.350358	 -0.212961	 0.686572	 -0.652222	 0.240568	 1
1463569277.465	 5	 -0.031000	 0.236657	 -0.038340	 2.146200	 -1.508692	 -0.344288	 -0.212416	 0.686852	 -0.652433	 0.239676	 1
1463569277.475	 5	 -0.080632	 0.337933	 -0.026308	 2.161071	 -1.508567	 -0.332513	 -0.211583	 0.687415	 -0.652565	 0.238436	 1
1463569277.485	 5	 -0.118482	 0.445579	 -0.011122	 2.181220	 -1.508068	 -0.316526	 -0.210398	 0.688258	 -0.652645	 0.236827	 1
1463569277.495	 5	 -0.141520	 0.522382	 0.010060	 2.199718	 -1.505464	 -0.303043	 -0.208457	 0.689745	 -0.652220	 0.235386	 1
1463569277.505	 5	 -0.148708	 0.562986	 0.032882	 2.220918	 -1.504361	 -0.287358	 -0.206729	 0.690909	 -0.652251	 0.233404	 1
1463569277.515	 5	 -0.140044	 0.579008	 0.045745	 2.239486	 -1.503142	 -0.274507	 -0.204870	 0.692087	 -0.652298	 0.231413	 1
1463569277.525	 5	 -0.131333	 0.611987	 0.050239	 2.255956	 -1.501925	 -0.264041	 -0.202882	 0.693262	 -0.652398	 0.229354	 1
1463569277.535	 5	 -0.122565	 0.658778	 0.052730	 2.270560	 -1.500731	 -0.255877	 -0.200718	 0.694447	 -0.652570	 0.227174	 1
1463569277.545	 5	 -0.097804	 0.698114	 0.060340	 2.283444	 -1.499605	 -0.249873	 -0.198385	 0.695628	 -0.652827	 0.224863	 1
1463569277.555	 5	 -0.062518	 0.706572	 0.067572	 2.291997	 -1.498630	 -0.248391	 -0.195923	 0.696720	 -0.653199	 0.222546	 1
1463569277.565	 5	 -0.027620	 0.636295	 0.070878	 2.295816	 -1.497873	 -0.251170	 -0.193565	 0.697632	 -0.653641	 0.220444	 1
1463569277.575	 5	 -0.009135	 0.480944	 0.070328	 2.287120	 -1.498774	 -0.265096	 -0.191722	 0.697759	 -0.654614	 0.218759	 1
1463569277.585	 5	 -0.000554	 0.258670	 0.076711	 2.283919	 -1.498195	 -0.271511	 -0.190420	 0.698189	 -0.654828	 0.217882	 1
1463569277.595	 5	 0.015380	 -0.004962	 0.102894	 2.274614	 -1.497535	 -0.281425	 -0.189877	 0.698305	 -0.654820	 0.218008	 1
1463569277.605	 5	 0.030573	 -0.186804	 0.113859	 2.260679	 -1.496842	 -0.293915	 -0.189941	 0.698165	 -0.654647	 0.218916	 1
1463569277.615	 5	 0.057860	 -0.287917	 0.115861	 2.240224	 -1.498196	 -0.311733	 -0.190697	 0.697238	 -0.655068	 0.219954	 1
1463569277.625	 5	 0.084291	 -0.328517	 0.101398	 2.219577	 -1.497829	 -0.329201	 -0.191295	 0.696729	 -0.654914	 0.221502	 1
1463569277.635	 5	 0.087520	 -0.296840	 0.070757	 2.200385	 -1.497719	 -0.345357	 -0.191930	 0.696174	 -0.654838	 0.222918	 1
1463569277.645	 5	 0.072747	 -0.227951	 0.031028	 2.186153	 -1.497839	 -0.357156	 -0.192510	 0.695686	 -0.654823	 0.223982	 1
1463569277.655	 5	 0.041022	 -0.135563	 -0.003029	 2.207559	 -1.499053	 -0.334236	 -0.193736	 0.695541	 -0.654682	 0.223787	 1
1463569277.665	 5	 -0.000166	 -0.017611	 -0.034612	 2.207981	 -1.499333	 -0.333323	 -0.193976	 0.695423	 -0.654704	 0.223881	 1
1463569277.675	 5	 -0.049912	 0.090840	 -0.059813	 2.217394	 -1.499550	 -0.324540	 -0.193994	 0.695565	 -0.654699	 0.223439	 1
1463569277.685	 5	 -0.101863	 0.167534	 -0.065042	 2.234377	 -1.499525	 -0.309027	 -0.193827	 0.695961	 -0.654608	 0.222613	 1
1463569277.695	 5	 -0.141160	 0.199654	 -0.052683	 2.275042	 -1.498694	 -0.270316	 -0.193838	 0.696956	 -0.653999	 0.221277	 1
1463569277.705	 5	 -0.161361	 0.196686	 -0.030154	 2.296623	 -1.497929	 -0.250671	 -0.193486	 0.697657	 -0.653681	 0.220315	 1
1463569277.715	 5	 -0.159252	 0.174490	 -0.010129	 2.316013	 -1.496960	 -0.233041	 -0.193124	 0.698367	 -0.653311	 0.219481	 1
1463569277.725	 5	 -0.135808	 0.147997	 0.012867	 2.330844	 -1.495936	 -0.219727	 -0.192747	 0.699008	 -0.652957	 0.218824	 1
1463569277.735	 5	 -0.103914	 0.105480	 0.030319	 2.322863	 -1.495251	 -0.228801	 -0.192058	 0.699209	 -0.652963	 0.218769	 1
1463569277.745	 5	 -0.069915	 0.070307	 0.033959	 2.327979	 -1.494465	 -0.224450	 -0.191768	 0.699582	 -0.652727	 0.218535	 1
1463569277.755	 5	 -0.044437	 0.052063	 0.021844	 2.330852	 -1.493937	 -0.222139	 -0.191545	 0.699829	 -0.652581	 0.218374	 1
1463569277.765	 5	 -0.035983	 0.043451	 0.011033	 2.333495	 -1.493586	 -0.219935	 -0.191391	 0.700010	 -0.652481	 0.218228	 1
1463569277.775	 5	 -0.041355	 0.046566	 -0.001694	 2.346101	 -1.494124	 -0.207793	 -0.191623	 0.700062	 -0.652538	 0.217687	 1
1463569277.785	 5	 -0.061642	 0.053988	 -0.013171	 2.352794	 -1.493812	 -0.201605	 -0.191552	 0.700290	 -0.652405	 0.217414	 1
1463569277.795	 5	 -0.086152	 0.064667	 -0.017122	 2.362272	 -1.493369	 -0.192726	 -0.191495	 0.700602	 -0.652204	 0.217062	 1
1463569277.805	 5	 -0.104211	 0.072252	 -0.005171	 2.372815	 -1.492713	 -0.182860	 -0.191405	 0.700998	 -0.651930	 0.216690	 1
1463569277.815	 5	 -0.111649	 0.071290	 0.005542	 2.389261	 -1.491568	 -0.167122	 -0.191377	 0.701617	 -0.651424	 0.216228	 1
1463569277.825	 5	 -0.106298	 0.070249	 0.010814	 2.398272	 -1.490711	 -0.158804	 -0.191226	 0.702055	 -0.651104	 0.215905	 1
1463569277.835	 5	 -0.095682	 0.058517	 0.010612	 2.406125	 -1.489912	 -0.151544	 -0.191094	 0.702452	 -0.650806	 0.215629	 1
1463569277.845	 5	 -0.076661	 0.019104	 0.010080	 2.412373	 -1.489238	 -0.145589	 -0.191048	 0.702763	 -0.650536	 0.215470	 1
1463569277.855	 5	 -0.050205	 -0.035181	 0.015734	 2.409329	 -1.489788	 -0.148385	 -0.191141	 0.702534	 -0.650730	 0.215550	 1
1463569277.865	 5	 -0.024799	 -0.082048	 0.017206	 2.403807	 -1.490222	 -0.153181	 -0.191321	 0.702264	 -0.650864	 0.215865	 1
1463569277.875	 5	 -0.006792	 -0.111878	 0.017834	 2.400719	 -1.490466	 -0.155207	 -0.191653	 0.702050	 -0.650868	 0.216253	 1
1463569277.885	 5	 -0.003665	 -0.120459	 0.009198	 2.401208	 -1.490515	 -0.153535	 -0.192089	 0.701928	 -0.650750	 0.216619	 1
1463569277.895	 5	 -0.012158	 -0.109803	 0.008303	 2.403433	 -1.490380	 -0.150185	 -0.192519	 0.701888	 -0.650557	 0.216947	 1
1463569277.905	 5	 -0.021628	 -0.079998	 0.007597	 2.406317	 -1.489913	 -0.146428	 -0.192828	 0.701982	 -0.650271	 0.217226	 1
1463569277.915	 5	 -0.024681	 -0.056518	 0.017436	 2.406315	 -1.489457	 -0.145823	 -0.192969	 0.702063	 -0.650053	 0.217490	 1
1463569277.925	 5	 -0.023609	 -0.062842	 0.025898	 2.401909	 -1.488969	 -0.149622	 -0.192992	 0.702099	 -0.649879	 0.217874	 1
1463569277.935	 5	 -0.016170	 -0.072416	 0.028947	 2.394564	 -1.488462	 -0.156254	 -0.192971	 0.702092	 -0.649725	 0.218373	 1
1463569277.945	 5	 -0.007711	 -0.093678	 0.034011	 2.385591	 -1.487914	 -0.164325	 -0.192964	 0.702056	 -0.649560	 0.218984	 1
1463569277.955	 5	 0.001833	 -0.104359	 0.031701	 2.379719	 -1.487464	 -0.169167	 -0.193099	 0.702015	 -0.649376	 0.219542	 1
1463569277.965	 5	 0.007176	 -0.098031	 0.026385	 2.376815	 -1.487147	 -0.171089	 -0.193315	 0.701977	 -0.649202	 0.219986	 1
1463569277.975	 5	 0.009275	 -0.099155	 0.018897	 2.373019	 -1.487004	 -0.173923	 -0.193529	 0.701876	 -0.649100	 0.220421	 1
1463569277.985	 5	 0.004928	 -0.108778	 0.010321	 2.368270	 -1.486951	 -0.177598	 -0.193772	 0.701724	 -0.649028	 0.220903	 1
1463569277.995	 5	 -0.002495	 -0.098127	 0.009422	 2.364313	 -1.486761	 -0.180526	 -0.193997	 0.701627	 -0.648906	 0.221371	 1
1463569278.005	 5	 -0.002367	 -0.081023	 0.021303	 2.362042	 -1.486625	 -0.181963	 -0.194207	 0.701556	 -0.648800	 0.221723	 1
1463569278.015	 5	 0.001958	 -0.080936	 0.035120	 2.358296	 -1.486548	 -0.184916	 -0.194373	 0.701450	 -0.648739	 0.222091	 1
1463569278.025	 5	 -0.001254	 -0.078838	 0.029836	 2.355568	 -1.486507	 -0.186862	 -0.194569	 0.701349	 -0.648676	 0.222423	 1
1463569278.035	 5	 -0.003401	 -0.072526	 0.019254	 2.355496	 -1.486410	 -0.186197	 -0.194809	 0.701305	 -0.648564	 0.222680	 1
1463569278.045	 5	 -0.013020	 -0.068304	 0.010849	 2.356353	 -1.486267	 -0.184653	 -0.195048	 0.701292	 -0.648428	 0.222903	 1
1463569278.055	 5	 -0.024731	 -0.070327	 0.020523	 2.356448	 -1.486031	 -0.183871	 -0.195252	 0.701297	 -0.648273	 0.223161	 1
1463569278.065	 5	 -0.026862	 -0.078753	 0.031123	 2.354159	 -1.485612	 -0.185394	 -0.195389	 0.701315	 -0.648083	 0.223537	 1
1463569278.075	 5	 -0.020460	 -0.086157	 0.039526	 2.350260	 -1.485151	 -0.188435	 -0.195507	 0.701313	 -0.647892	 0.223993	 1
1463569278.085	 5	 -0.014001	 -0.073420	 0.038522	 2.347874	 -1.484752	 -0.190059	 -0.195642	 0.701323	 -0.647710	 0.224369	 1
1463569278.095	 5	 -0.007568	 -0.068113	 0.039578	 2.345997	 -1.484602	 -0.191264	 -0.195802	 0.701275	 -0.647613	 0.224661	 1
1463569278.105	 5	 -0.009733	 -0.065000	 0.027899	 2.344910	 -1.484603	 -0.191707	 -0.195998	 0.701196	 -0.647557	 0.224899	 1
1463569278.115	 5	 -0.006572	 -0.065088	 0.017207	 2.345055	 -1.484871	 -0.190922	 -0.196273	 0.701056	 -0.647570	 0.225059	 1
1463569278.125	 5	 0.000886	 -0.060917	 0.008648	 2.345893	 -1.485214	 -0.189464	 -0.196572	 0.700905	 -0.647600	 0.225181	 1
1463569278.135	 5	 0.008400	 -0.047150	 0.003377	 2.347331	 -1.485486	 -0.187527	 -0.196831	 0.700796	 -0.647612	 0.225260	 1
1463569278.145	 5	 0.015904	 -0.040783	 0.004434	 2.347124	 -1.485676	 -0.187333	 -0.196999	 0.700697	 -0.647631	 0.225365	 1
1463569278.155	 5	 0.019040	 -0.055676	 0.005331	 2.345845	 -1.485962	 -0.188120	 -0.197186	 0.700545	 -0.647687	 0.225512	 1
1463569278.165	 5	 0.021041	 -0.081234	 0.001875	 2.344318	 -1.486351	 -0.188889	 -0.197478	 0.700333	 -0.647750	 0.225734	 1
1463569278.175	 5	 0.013593	 -0.078004	 0.004102	 2.342900	 -1.486323	 -0.189530	 -0.197708	 0.700245	 -0.647673	 0.226027	 1
1463569278.185	 5	 0.006311	 -0.056547	 0.026755	 2.336417	 -1.485619	 -0.195374	 -0.197640	 0.700297	 -0.647465	 0.226521	 1
1463569278.195	 5	 -0.009480	 -0.036065	 0.058003	 2.328587	 -1.484356	 -0.202815	 -0.197346	 0.700517	 -0.647127	 0.227064	 1
1463569278.205	 5	 -0.011791	 -0.069071	 0.052384	 2.324951	 -1.484120	 -0.205871	 -0.197410	 0.700474	 -0.647039	 0.227388	 1
1463569278.215	 5	 0.000809	 -0.095848	 0.031771	 2.322344	 -1.484138	 -0.207583	 -0.197658	 0.700341	 -0.646982	 0.227744	 1
1463569278.225	 5	 0.012521	 -0.085385	 0.012581	 2.320627	 -1.484188	 -0.208412	 -0.197932	 0.700213	 -0.646923	 0.228069	 1
1463569278.235	 5	 0.010470	 -0.063080	 0.007475	 2.320634	 -1.484216	 -0.207735	 -0.198171	 0.700139	 -0.646855	 0.228281	 1
1463569278.245	 5	 0.006324	 -0.039643	 0.010926	 2.319697	 -1.484179	 -0.208242	 -0.198291	 0.700093	 -0.646808	 0.228451	 1
1463569278.255	 5	 0.006378	 -0.030055	 0.013147	 2.317785	 -1.484058	 -0.209842	 -0.198327	 0.700069	 -0.646763	 0.228623	 1
1463569278.265	 5	 0.011673	 -0.038580	 0.013022	 2.315273	 -1.484031	 -0.212002	 -0.198379	 0.700003	 -0.646752	 0.228809	 1
1463569278.275	 5	 0.013741	 -0.048199	 0.007585	 2.313107	 -1.484120	 -0.213715	 -0.198496	 0.699899	 -0.646762	 0.228998	 1
1463569278.285	 5	 0.013711	 -0.049309	 0.001179	 2.311578	 -1.484278	 -0.214756	 -0.198654	 0.699782	 -0.646780	 0.229169	 1
1463569278.295	 5	 0.009477	 -0.035522	 -0.006117	 2.311741	 -1.484400	 -0.214202	 -0.198817	 0.699710	 -0.646771	 0.229270	 1
1463569278.305	 5	 0.003172	 -0.011069	 -0.010097	 2.312414	 -1.484370	 -0.213360	 -0.198889	 0.699712	 -0.646732	 0.229312	 1
1463569278.315	 5	 0.001121	 0.004908	 -0.007798	 2.313491	 -1.484368	 -0.212295	 -0.198913	 0.699730	 -0.646717	 0.229280	 1
1463569278.325	 5	 0.002220	 0.008126	 -0.003513	 2.312951	 -1.484304	 -0.212906	 -0.198862	 0.699747	 -0.646712	 0.229283	 1
1463569278.335	 5	 0.006493	 0.002849	 0.003863	 2.311472	 -1.484263	 -0.214428	 -0.198801	 0.699741	 -0.646727	 0.229315	 1
1463569278.345	 5	 0.010750	 -0.003515	 0.008032	 2.308195	 -1.484239	 -0.217678	 -0.198719	 0.699695	 -0.646766	 0.229414	 1
1463569278.355	 5	 0.016078	 -0.008819	 0.012200	 2.304884	 -1.484264	 -0.220915	 -0.198662	 0.699630	 -0.646817	 0.229522	 1
1463569278.365	 5	 0.017125	 -0.015189	 0.014263	 2.301399	 -1.484372	 -0.224265	 -0.198637	 0.699531	 -0.646889	 0.229639	 1
1463569278.375	 5	 0.016053	 -0.018362	 0.016374	 2.297595	 -1.484458	 -0.227887	 -0.198617	 0.699429	 -0.646955	 0.229782	 1
1463569278.385	 5	 0.013942	 -0.011990	 0.014319	 2.294397	 -1.484538	 -0.230955	 -0.198593	 0.699343	 -0.647016	 0.229894	 1
1463569278.395	 5	 0.007543	 -0.008803	 0.011207	 2.292144	 -1.484601	 -0.233120	 -0.198577	 0.699281	 -0.647060	 0.229970	 1
1463569278.405	 5	 0.005433	 -0.000318	 0.007040	 2.291116	 -1.484649	 -0.234129	 -0.198565	 0.699249	 -0.647090	 0.229995	 1
1463569278.415	 5	 0.003296	 0.011270	 -0.001293	 2.291146	 -1.484767	 -0.234172	 -0.198563	 0.699223	 -0.647135	 0.229949	 1
1463569278.425	 5	 0.001181	 0.020803	 -0.007582	 2.292713	 -1.484917	 -0.232804	 -0.198562	 0.699224	 -0.647181	 0.229817	 1
1463569278.435	 5	 0.003335	 0.023995	 -0.006506	 2.293622	 -1.485024	 -0.232125	 -0.198525	 0.699230	 -0.647227	 0.229700	 1
1463569278.445	 5	 0.007579	 0.019720	 -0.007648	 2.293581	 -1.485140	 -0.232374	 -0.198473	 0.699216	 -0.647288	 0.229614	 1
1463569278.455	 5	 0.007553	 0.013345	 -0.006642	 2.293510	 -1.485292	 -0.232588	 -0.198449	 0.699186	 -0.647354	 0.229542	 1
1463569278.465	 5	 0.008606	 0.010151	 -0.006681	 2.292769	 -1.485455	 -0.233446	 -0.198420	 0.699139	 -0.647431	 0.229495	 1
1463569278.475	 5	 0.012860	 0.006947	 -0.006748	 2.292329	 -1.485630	 -0.233968	 -0.198412	 0.699090	 -0.647503	 0.229448	 1
1463569278.485	 5	 0.009675	 0.012260	 -0.008803	 2.293020	 -1.485776	 -0.233394	 -0.198417	 0.699070	 -0.647552	 0.229367	 1
1463569278.495	 5	 0.005450	 0.021846	 -0.008678	 2.294248	 -1.485827	 -0.232366	 -0.198388	 0.699094	 -0.647572	 0.229262	 1
1463569278.505	 5	 0.004387	 0.023969	 -0.009713	 2.295688	 -1.485783	 -0.231162	 -0.198334	 0.699152	 -0.647563	 0.229156	 1
1463569278.515	 5	 0.002258	 0.020823	 -0.004394	 2.296028	 -1.485680	 -0.231039	 -0.198248	 0.699209	 -0.647550	 0.229095	 1
1463569278.525	 5	 0.001181	 0.015538	 -0.000168	 2.295215	 -1.485475	 -0.232026	 -0.198128	 0.699273	 -0.647517	 0.229096	 1
1463569278.535	 5	 -0.004143	 0.015578	 0.003078	 2.295949	 -1.485302	 -0.231449	 -0.198060	 0.699349	 -0.647469	 0.229057	 1
1463569278.545	 5	 -0.007340	 0.022979	 -0.004286	 2.297296	 -1.485242	 -0.230319	 -0.198008	 0.699409	 -0.647454	 0.228962	 1
1463569278.555	 5	 -0.006256	 0.028278	 -0.006378	 2.298665	 -1.485264	 -0.229218	 -0.197954	 0.699451	 -0.647470	 0.228836	 1
1463569278.565	 5	 0.000180	 0.025153	 0.005262	 2.297202	 -1.485220	 -0.230947	 -0.197814	 0.699467	 -0.647509	 0.228795	 1
1463569278.575	 5	 0.008720	 0.014583	 0.017882	 2.291955	 -1.485085	 -0.236361	 -0.197595	 0.699441	 -0.647567	 0.228902	 1
1463569278.585	 5	 0.008696	 0.009264	 0.017834	 2.287979	 -1.485000	 -0.240446	 -0.197438	 0.699413	 -0.647615	 0.228984	 1
1463569278.595	 5	 0.009733	 0.007095	 0.012475	 2.285855	 -1.485092	 -0.242642	 -0.197375	 0.699361	 -0.647686	 0.228999	 1
1463569278.605	 5	 0.013992	 0.011282	 0.005016	 2.284758	 -1.485134	 -0.243854	 -0.197314	 0.699343	 -0.647730	 0.228983	 1
1463569278.615	 5	 0.015092	 0.016613	 0.007188	 2.283090	 -1.485137	 -0.245689	 -0.197213	 0.699332	 -0.647776	 0.228971	 1
1463569278.625	 5	 0.014055	 0.016670	 0.014660	 2.280196	 -1.485030	 -0.248754	 -0.197059	 0.699333	 -0.647808	 0.229010	 1
1463569278.635	 5	 0.012986	 0.016673	 0.014670	 2.278216	 -1.484910	 -0.250910	 -0.196923	 0.699353	 -0.647823	 0.229026	 1
1463569278.645	 5	 0.006590	 0.019868	 0.012624	 2.277210	 -1.484827	 -0.252118	 -0.196811	 0.699380	 -0.647836	 0.229001	 1
1463569278.655	 5	 0.001249	 0.020932	 0.010548	 2.277351	 -1.484736	 -0.252187	 -0.196723	 0.699429	 -0.647829	 0.228946	 1
1463569278.665	 5	 -0.001995	 0.015593	 0.006264	 2.277737	 -1.484621	 -0.251988	 -0.196646	 0.699486	 -0.647808	 0.228897	 1
1463569278.675	 5	 -0.000948	 0.007119	 0.011505	 2.277263	 -1.484535	 -0.252556	 -0.196584	 0.699513	 -0.647799	 0.228894	 1
1463569278.685	 5	 0.003309	 -0.002405	 0.019904	 2.276086	 -1.484450	 -0.253743	 -0.196534	 0.699519	 -0.647793	 0.228937	 1
1463569278.695	 5	 0.005389	 -0.007784	 0.012374	 2.275254	 -1.484480	 -0.254527	 -0.196535	 0.699492	 -0.647810	 0.228968	 1
1463569278.705	 5	 0.004278	 -0.015242	 0.010181	 2.274506	 -1.484515	 -0.255156	 -0.196564	 0.699459	 -0.647820	 0.229020	 1
1463569278.715	 5	 0.003193	 -0.017382	 0.008037	 2.274219	 -1.484640	 -0.255281	 -0.196638	 0.699402	 -0.647845	 0.229057	 1
1463569278.725	 5	 0.008539	 -0.016326	 0.009063	 2.273474	 -1.484829	 -0.255870	 -0.196709	 0.699321	 -0.647898	 0.229092	 1
1463569278.735	 5	 0.011761	 -0.012081	 0.009073	 2.272111	 -1.484994	 -0.257109	 -0.196750	 0.699240	 -0.647958	 0.229137	 1
1463569278.745	 5	 0.008570	 -0.011001	 0.010175	 2.270317	 -1.485108	 -0.258799	 -0.196762	 0.699168	 -0.648011	 0.229196	 1
1463569278.755	 5	 0.010688	 -0.012094	 0.006948	 2.268876	 -1.485226	 -0.260125	 -0.196788	 0.699100	 -0.648058	 0.229248	 1
1463569278.765	 5	 0.016009	 -0.015301	 0.006871	 2.266415	 -1.485348	 -0.262444	 -0.196799	 0.699011	 -0.648120	 0.229334	 1
1463569278.775	 5	 0.020274	 -0.012190	 0.003754	 2.263539	 -1.485455	 -0.265193	 -0.196792	 0.698922	 -0.648185	 0.229428	 1
1463569278.785	 5	 0.019256	 -0.003662	 0.005975	 2.260988	 -1.485529	 -0.267687	 -0.196761	 0.698854	 -0.648244	 0.229497	 1
1463569278.795	 5	 0.019277	 0.001648	 0.004958	 2.259036	 -1.485584	 -0.269652	 -0.196718	 0.698808	 -0.648294	 0.229532	 1
1463569278.805	 5	 0.016130	 0.012302	 0.006151	 2.257307	 -1.485557	 -0.271486	 -0.196632	 0.698797	 -0.648326	 0.229547	 1
1463569278.815	 5	 0.017210	 0.014434	 0.007228	 2.255494	 -1.485522	 -0.273451	 -0.196527	 0.698792	 -0.648363	 0.229550	 1
1463569278.825	 5	 0.016103	 0.006984	 0.006103	 2.253843	 -1.485585	 -0.275201	 -0.196463	 0.698756	 -0.648421	 0.229548	 1
1463569278.835	 5	 0.013924	 -0.002583	 0.006032	 2.251509	 -1.485685	 -0.277545	 -0.196421	 0.698691	 -0.648492	 0.229584	 1
1463569278.845	 5	 0.011772	 -0.009991	 0.010244	 2.249544	 -1.485789	 -0.279427	 -0.196421	 0.698621	 -0.648547	 0.229640	 1
1463569278.855	 5	 0.014948	 -0.016375	 0.011223	 2.246794	 -1.485844	 -0.282035	 -0.196413	 0.698546	 -0.648593	 0.229744	 1
1463569278.865	 5	 0.019142	 -0.033399	 0.012092	 2.243749	 -1.486046	 -0.284808	 -0.196473	 0.698412	 -0.648675	 0.229870	 1
1463569278.875	 5	 0.023358	 -0.049329	 0.017235	 2.239277	 -1.486253	 -0.288827	 -0.196562	 0.698235	 -0.648761	 0.230088	 1
1463569278.885	 5	 0.029705	 -0.062104	 0.018125	 2.234150	 -1.486443	 -0.293377	 -0.196675	 0.698039	 -0.648839	 0.230364	 1
1463569278.895	 5	 0.031809	 -0.070605	 0.020159	 2.228179	 -1.486557	 -0.298677	 -0.196786	 0.697841	 -0.648897	 0.230707	 1
1463569278.905	 5	 0.031804	 -0.072725	 0.021205	 2.222000	 -1.486630	 -0.304135	 -0.196902	 0.697645	 -0.648942	 0.231077	 1
1463569278.915	 5	 0.027557	 -0.066345	 0.019170	 2.217731	 -1.486668	 -0.307730	 -0.197041	 0.697495	 -0.648948	 0.231392	 1
1463569278.925	 5	 0.026541	 -0.053594	 0.017165	 2.214511	 -1.486703	 -0.310400	 -0.197162	 0.697375	 -0.648951	 0.231641	 1
1463569278.935	 5	 0.023381	 -0.042963	 0.015159	 2.212080	 -1.486737	 -0.312398	 -0.197262	 0.697281	 -0.648953	 0.231834	 1
1463569278.945	 5	 0.019190	 -0.036556	 0.014335	 2.210274	 -1.486703	 -0.313844	 -0.197337	 0.697224	 -0.648932	 0.232001	 1
1463569278.955	 5	 0.011726	 -0.032302	 0.011242	 2.209058	 -1.486661	 -0.314743	 -0.197409	 0.697183	 -0.648903	 0.232142	 1
1463569278.965	 5	 0.011723	 -0.034414	 0.013354	 2.208114	 -1.486545	 -0.315366	 -0.197473	 0.697166	 -0.648848	 0.232292	 1
1463569278.975	 5	 0.009588	 -0.034408	 0.013373	 2.206652	 -1.486429	 -0.316493	 -0.197530	 0.697139	 -0.648800	 0.232459	 1
1463569278.985	 5	 0.007442	 -0.037585	 0.014428	 2.205049	 -1.486308	 -0.317734	 -0.197592	 0.697109	 -0.648749	 0.232640	 1
1463569278.995	 5	 0.008513	 -0.043908	 0.022886	 2.201830	 -1.486143	 -0.320531	 -0.197626	 0.697055	 -0.648707	 0.232889	 1
1463569279.005	 5	 0.011720	 -0.041798	 0.021813	 2.198418	 -1.485948	 -0.323522	 -0.197649	 0.697006	 -0.648660	 0.233147	 1
1463569279.015	 5	 0.013810	 -0.043994	 0.013249	 2.195506	 -1.485881	 -0.326008	 -0.197713	 0.696930	 -0.648642	 0.233369	 1
1463569279.025	 5	 0.016994	 -0.044034	 0.008957	 2.192952	 -1.485977	 -0.328131	 -0.197822	 0.696816	 -0.648666	 0.233551	 1
1463569279.035	 5	 0.013813	 -0.039770	 0.009024	 2.190759	 -1.486002	 -0.329919	 -0.197916	 0.696730	 -0.648665	 0.233730	 1
1463569279.045	 5	 0.007434	 -0.035489	 0.010186	 2.189269	 -1.485868	 -0.331050	 -0.197976	 0.696704	 -0.648610	 0.233910	 1
1463569279.055	 5	 0.001080	 -0.025889	 0.011398	 2.187838	 -1.485635	 -0.332198	 -0.197990	 0.696713	 -0.648534	 0.234085	 1
1463569279.065	 5	 0.000049	 -0.016328	 0.009366	 2.186237	 -1.485441	 -0.333614	 -0.197973	 0.696717	 -0.648483	 0.234223	 1
1463569279.075	 5	 -0.000956	 -0.014173	 0.007454	 2.186035	 -1.485264	 -0.333677	 -0.197978	 0.696748	 -0.648418	 0.234310	 1
1463569279.085	 5	 -0.003065	 -0.006736	 0.005410	 2.187027	 -1.485173	 -0.332602	 -0.198012	 0.696782	 -0.648364	 0.234332	 1
1463569279.095	 5	 -0.004132	 -0.006733	 0.005419	 2.187773	 -1.485148	 -0.331791	 -0.198047	 0.696795	 -0.648335	 0.234340	 1
1463569279.105	 5	 -0.004111	 -0.000366	 0.003346	 2.188722	 -1.485103	 -0.330836	 -0.198063	 0.696824	 -0.648304	 0.234328	 1
1463569279.115	 5	 -0.004126	 -0.003557	 0.003316	 2.188758	 -1.485069	 -0.330769	 -0.198067	 0.696831	 -0.648289	 0.234344	 1
1463569279.125	 5	 0.000113	 -0.008896	 0.002164	 2.188510	 -1.485060	 -0.330938	 -0.198086	 0.696821	 -0.648282	 0.234378	 1
1463569279.135	 5	 -0.002051	 -0.014216	 0.001067	 2.188227	 -1.485065	 -0.331094	 -0.198125	 0.696802	 -0.648274	 0.234425	 1
1463569279.145	 5	 0.000066	 -0.020581	 0.004186	 2.187682	 -1.485082	 -0.331444	 -0.198184	 0.696768	 -0.648266	 0.234498	 1
1463569279.155	 5	 0.004337	 -0.017426	 0.000981	 2.187420	 -1.485090	 -0.331535	 -0.198238	 0.696744	 -0.648253	 0.234558	 1
1463569279.165	 5	 0.002184	 -0.019563	 -0.001152	 2.187697	 -1.485155	 -0.331070	 -0.198324	 0.696713	 -0.648245	 0.234598	 1
1463569279.175	 5	 0.003256	 -0.017446	 -0.002208	 2.187658	 -1.485181	 -0.330922	 -0.198394	 0.696687	 -0.648231	 0.234655	 1
1463569279.185	 5	 0.005391	 -0.015341	 -0.004338	 2.188002	 -1.485180	 -0.330423	 -0.198456	 0.696678	 -0.648207	 0.234697	 1
1463569279.195	 5	 0.006454	 -0.014296	 -0.006469	 2.188100	 -1.485172	 -0.330185	 -0.198506	 0.696668	 -0.648186	 0.234742	 1
1463569279.205	 5	 0.005391	 -0.014285	 -0.005393	 2.187292	 -1.485180	 -0.330854	 -0.198536	 0.696637	 -0.648187	 0.234804	 1
1463569279.215	 5	 0.004324	 -0.012170	 -0.007494	 2.187345	 -1.485085	 -0.330669	 -0.198563	 0.696651	 -0.648142	 0.234866	 1
1463569279.225	 5	 0.002214	 -0.007901	 -0.006369	 2.187328	 -1.485055	 -0.330589	 -0.198590	 0.696649	 -0.648122	 0.234904	 1
1463569279.235	 5	 0.002248	 -0.001512	 -0.005242	 2.186467	 -1.484934	 -0.331420	 -0.198553	 0.696663	 -0.648098	 0.234959	 1
1463569279.245	 5	 0.003420	 -0.000364	 0.000341	 2.184427	 -1.484779	 -0.333456	 -0.198472	 0.696667	 -0.648089	 0.235042	 1
1463569279.255	 5	 0.000240	 -0.000316	 0.005701	 2.182278	 -1.484586	 -0.335597	 -0.198380	 0.696678	 -0.648070	 0.235138	 1
1463569279.265	 5	 -0.000827	 -0.000313	 0.005711	 2.180652	 -1.484440	 -0.337222	 -0.198309	 0.696687	 -0.648057	 0.235208	 1
1463569279.275	 5	 0.001321	 -0.000296	 0.008891	 2.179318	 -1.484335	 -0.338554	 -0.198255	 0.696690	 -0.648050	 0.235263	 1
1463569279.285	 5	 0.002402	 0.001836	 0.009968	 2.178502	 -1.484210	 -0.339380	 -0.198204	 0.696710	 -0.648030	 0.235306	 1
1463569279.295	 5	 0.001346	 0.005022	 0.008941	 2.177493	 -1.484132	 -0.340436	 -0.198146	 0.696716	 -0.648031	 0.235331	 1
1463569279.305	 5	 -0.001860	 0.005024	 0.007903	 2.177193	 -1.484034	 -0.340782	 -0.198101	 0.696741	 -0.648013	 0.235344	 1
1463569279.315	 5	 -0.001884	 0.002873	 0.004686	 2.177511	 -1.483969	 -0.340506	 -0.198080	 0.696769	 -0.647993	 0.235337	 1
1463569279.325	 5	 -0.004024	 0.000760	 0.005751	 2.177492	 -1.483932	 -0.340543	 -0.198066	 0.696780	 -0.647984	 0.235339	 1
1463569279.335	 5	 -0.001950	 -0.013067	 0.006669	 2.176677	 -1.483982	 -0.341257	 -0.198092	 0.696741	 -0.648002	 0.235381	 1
1463569279.345	 5	 -0.000920	 -0.018411	 0.003412	 2.176015	 -1.484044	 -0.341745	 -0.198150	 0.696695	 -0.648013	 0.235441	 1
1463569279.355	 5	 0.001184	 -0.019528	 -0.003012	 2.175861	 -1.484149	 -0.341699	 -0.198239	 0.696645	 -0.648023	 0.235487	 1
1463569279.365	 5	 0.001209	 -0.016322	 -0.000851	 2.175316	 -1.484245	 -0.342073	 -0.198306	 0.696592	 -0.648041	 0.235535	 1
1463569279.375	 5	 0.002295	 -0.013126	 0.000235	 2.174869	 -1.484241	 -0.342379	 -0.198343	 0.696571	 -0.648032	 0.235593	 1
1463569279.385	 5	 0.004405	 -0.016339	 -0.001944	 2.173988	 -1.484212	 -0.343107	 -0.198369	 0.696547	 -0.648021	 0.235670	 1
1463569279.395	 5	 0.001172	 -0.023768	 -0.000918	 2.173371	 -1.484145	 -0.343507	 -0.198415	 0.696532	 -0.647988	 0.235769	 1
1463569279.405	 5	 0.001242	 -0.023723	 -0.000680	 2.172236	 -1.484056	 -0.344397	 -0.198453	 0.696510	 -0.647954	 0.235895	 1
1463569279.415	 5	 0.000197	 -0.022625	 0.003604	 2.170757	 -1.483908	 -0.345647	 -0.198464	 0.696499	 -0.647911	 0.236036	 1
1463569279.425	 5	 -0.000835	 -0.015176	 0.003684	 2.169385	 -1.483750	 -0.346848	 -0.198455	 0.696498	 -0.647870	 0.236159	 1
1463569279.435	 5	 -0.002934	 -0.007725	 0.003773	 2.168015	 -1.483594	 -0.348115	 -0.198423	 0.696503	 -0.647838	 0.236258	 1
1463569279.445	 5	 0.000316	 -0.001321	 0.008069	 2.166666	 -1.483472	 -0.349437	 -0.198373	 0.696507	 -0.647825	 0.236326	 1
1463569279.455	 5	 0.001392	 0.005019	 0.002791	 2.165397	 -1.483337	 -0.350739	 -0.198301	 0.696521	 -0.647813	 0.236375	 1
1463569279.465	 5	 0.003536	 0.006083	 0.003849	 2.163798	 -1.483269	 -0.352397	 -0.198226	 0.696515	 -0.647831	 0.236409	 1
1463569279.475	 5	 0.004599	 0.006072	 0.002774	 2.162687	 -1.483217	 -0.353563	 -0.198168	 0.696513	 -0.647843	 0.236429	 1
1463569279.485	 5	 0.004612	 0.007151	 0.004916	 2.161867	 -1.483153	 -0.354456	 -0.198108	 0.696521	 -0.647849	 0.236439	 1
1463569279.495	 5	 0.004636	 0.012470	 0.004967	 2.161237	 -1.483009	 -0.355198	 -0.198022	 0.696558	 -0.647832	 0.236449	 1
1463569279.505	 5	 0.002518	 0.017779	 0.002903	 2.161539	 -1.482948	 -0.355061	 -0.197958	 0.696596	 -0.647828	 0.236401	 1
1463569279.515	 5	 -0.003877	 0.022029	 -0.000198	 2.161656	 -1.482860	 -0.355143	 -0.197872	 0.696641	 -0.647823	 0.236353	 1
1463569279.525	 5	 -0.004941	 0.022040	 0.000877	 2.162338	 -1.482801	 -0.354674	 -0.197801	 0.696691	 -0.647818	 0.236280	 1
1463569279.535	 5	 -0.003899	 0.016719	 0.000819	 2.162593	 -1.482692	 -0.354600	 -0.197720	 0.696742	 -0.647803	 0.236238	 1
1463569279.545	 5	 -0.002889	 0.002903	 0.002814	 2.161795	 -1.482616	 -0.355460	 -0.197662	 0.696753	 -0.647803	 0.236254	 1
1463569279.555	 5	 -0.000764	 -0.009798	 0.005000	 2.161255	 -1.482534	 -0.355928	 -0.197656	 0.696757	 -0.647781	 0.236308	 1
1463569279.565	 5	 0.002393	 -0.018325	 0.003827	 2.160905	 -1.482561	 -0.356114	 -0.197710	 0.696727	 -0.647777	 0.236364	 1
1463569279.575	 5	 0.004520	 -0.015179	 -0.001492	 2.161194	 -1.482653	 -0.355673	 -0.197791	 0.696693	 -0.647780	 0.236386	 1
1463569279.585	 5	 0.003464	 -0.011992	 -0.002520	 2.161769	 -1.482772	 -0.354976	 -0.197874	 0.696661	 -0.647789	 0.236386	 1
1463569279.595	 5	 0.004542	 -0.008812	 -0.003566	 2.162126	 -1.482819	 -0.354539	 -0.197921	 0.696647	 -0.647787	 0.236394	 1
1463569279.605	 5	 0.003479	 -0.008801	 -0.002490	 2.161323	 -1.482805	 -0.355247	 -0.197931	 0.696626	 -0.647787	 0.236447	 1
1463569279.615	 5	 0.007726	 -0.014125	 -0.001511	 2.160268	 -1.482823	 -0.356179	 -0.197953	 0.696589	 -0.647798	 0.236509	 1
1463569279.625	 5	 0.005577	 -0.016254	 -0.002577	 2.159509	 -1.482784	 -0.356776	 -0.197982	 0.696569	 -0.647782	 0.236588	 1
1463569279.635	 5	 0.006664	 -0.012002	 -0.002546	 2.158731	 -1.482715	 -0.357424	 -0.197992	 0.696559	 -0.647761	 0.236664	 1
1463569279.645	 5	 0.006682	 -0.009860	 -0.000393	 2.157071	 -1.482588	 -0.358980	 -0.197960	 0.696550	 -0.647744	 0.236766	 1
1463569279.655	 5	 0.006688	 -0.007740	 -0.001437	 2.155462	 -1.482457	 -0.360503	 -0.197921	 0.696544	 -0.647727	 0.236860	 1
1463569279.665	 5	 0.008836	 -0.005611	 -0.000369	 2.154469	 -1.482399	 -0.361437	 -0.197904	 0.696534	 -0.647723	 0.236916	 1
1463569279.675	 5	 0.007788	 -0.001354	 -0.000319	 2.154134	 -1.482319	 -0.361747	 -0.197887	 0.696546	 -0.647703	 0.236950	 1
1463569279.685	 5	 0.007791	 -0.001346	 0.000747	 2.153825	 -1.482257	 -0.362052	 -0.197867	 0.696556	 -0.647691	 0.236972	 1
1463569279.695	 5	 0.003538	 0.002914	 -0.000241	 2.153885	 -1.482149	 -0.362014	 -0.197836	 0.696587	 -0.647661	 0.236987	 1
1463569279.705	 5	 0.002477	 0.007148	 -0.003389	 2.154327	 -1.482066	 -0.361635	 -0.197806	 0.696624	 -0.647635	 0.236974	 1
1463569279.715	 5	 0.000341	 0.005043	 -0.001258	 2.154663	 -1.481970	 -0.361355	 -0.197773	 0.696661	 -0.647608	 0.236968	 1
1463569279.725	 5	 0.001407	 0.003984	 -0.000210	 2.154338	 -1.481886	 -0.361713	 -0.197735	 0.696680	 -0.647593	 0.236983	 1
1463569279.735	 5	 -0.001789	 -0.000163	 -0.000031	 2.154494	 -1.481825	 -0.361566	 -0.197722	 0.696700	 -0.647573	 0.236990	 1
1463569279.745	 5	 0.000339	 -0.003345	 0.002052	 2.154401	 -1.481757	 -0.361630	 -0.197714	 0.696713	 -0.647552	 0.237016	 1
1463569279.755	 5	 -0.000706	 0.005137	 -0.002123	 2.155194	 -1.481752	 -0.360869	 -0.197721	 0.696733	 -0.647539	 0.236987	 1
1463569279.765	 5	 -0.003906	 0.007258	 -0.004206	 2.156170	 -1.481712	 -0.359955	 -0.197715	 0.696768	 -0.647515	 0.236952	 1
1463569279.775	 5	 -0.006046	 0.006201	 -0.004197	 2.156731	 -1.481676	 -0.359442	 -0.197704	 0.696794	 -0.647500	 0.236930	 1
1463569279.785	 5	 -0.004982	 0.006190	 -0.005272	 2.157443	 -1.481706	 -0.358792	 -0.197707	 0.696806	 -0.647502	 0.236886	 1
1463569279.795	 5	 -0.003920	 0.005123	 -0.005291	 2.157423	 -1.481717	 -0.358863	 -0.197691	 0.696808	 -0.647512	 0.236868	 1
1463569279.805	 5	 -0.000713	 0.007233	 -0.006365	 2.157858	 -1.481722	 -0.358493	 -0.197680	 0.696821	 -0.647512	 0.236835	 1
1463569279.815	 5	 0.001430	 0.007242	 -0.004251	 2.157148	 -1.481739	 -0.359275	 -0.197641	 0.696810	 -0.647539	 0.236825	 1
1463569279.825	 5	 0.001406	 0.002979	 -0.005356	 2.156611	 -1.481773	 -0.359849	 -0.197623	 0.696794	 -0.647564	 0.236819	 1
1463569279.835	 5	 0.002491	 0.004063	 -0.002158	 2.156204	 -1.481809	 -0.360294	 -0.197608	 0.696781	 -0.647587	 0.236809	 1
1463569279.845	 5	 0.002497	 0.006182	 -0.003204	 2.155609	 -1.481841	 -0.360943	 -0.197581	 0.696766	 -0.647615	 0.236799	 1
1463569279.855	 5	 0.004650	 0.007262	 -0.000015	 2.154895	 -1.481856	 -0.361725	 -0.197543	 0.696755	 -0.647641	 0.236792	 1
1463569279.865	 5	 0.004625	 0.003000	 -0.001120	 2.154184	 -1.481884	 -0.362477	 -0.197518	 0.696738	 -0.647668	 0.236790	 1
1463569279.875	 5	 0.006739	 -0.002317	 -0.000122	 2.153424	 -1.481919	 -0.363231	 -0.197510	 0.696713	 -0.647692	 0.236803	 1
1463569279.885	 5	 0.005679	 -0.002211	 0.000019	 2.153159	 -1.481920	 -0.363483	 -0.197508	 0.696706	 -0.647696	 0.236814	 1
1463569279.895	 5	 0.002492	 0.000989	 0.000076	 2.153164	 -1.481919	 -0.363484	 -0.197506	 0.696707	 -0.647697	 0.236811	 1
1463569279.905	 5	 0.003567	 0.006273	 -0.004147	 2.153682	 -1.481949	 -0.363021	 -0.197506	 0.696715	 -0.647702	 0.236774	 1
1463569279.915	 5	 -0.000686	 0.010533	 -0.005137	 2.154698	 -1.481996	 -0.362101	 -0.197508	 0.696732	 -0.647707	 0.236708	 1
1463569279.925	 5	 0.000386	 0.011593	 -0.005136	 2.154815	 -1.482015	 -0.362098	 -0.197475	 0.696741	 -0.647723	 0.236665	 1
1463569279.935	 5	 0.004663	 0.011596	 -0.003041	 2.154347	 -1.482049	 -0.362686	 -0.197430	 0.696734	 -0.647757	 0.236630	 1
1463569279.945	 5	 0.006806	 0.011605	 -0.000928	 2.153329	 -1.482053	 -0.363825	 -0.197364	 0.696725	 -0.647792	 0.236615	 1
1463569279.955	 5	 0.008941	 0.011598	 -0.000946	 2.151920	 -1.482057	 -0.365349	 -0.197290	 0.696708	 -0.647835	 0.236611	 1
1463569279.965	 5	 0.007882	 0.011617	 0.001196	 2.150777	 -1.482036	 -0.366615	 -0.197214	 0.696703	 -0.647866	 0.236604	 1
1463569279.975	 5	 0.005750	 0.013735	 -0.000897	 2.149773	 -1.482024	 -0.367751	 -0.197141	 0.696699	 -0.647898	 0.236588	 1
1463569279.985	 5	 0.001484	 0.012699	 0.001263	 2.149137	 -1.481963	 -0.368518	 -0.197066	 0.696716	 -0.647908	 0.236574	 1
1463569279.995	 5	 0.002547	 0.012688	 0.000188	 2.148749	 -1.481962	 -0.369028	 -0.197014	 0.696720	 -0.647930	 0.236545	 1
1463569280.005	 5	 0.004687	 0.013746	 0.000179	 2.148139	 -1.482040	 -0.369777	 -0.196969	 0.696702	 -0.647981	 0.236498	 1
1463569280.015	 5	 0.004688	 0.014802	 -0.000878	 2.148157	 -1.482127	 -0.369909	 -0.196936	 0.696694	 -0.648023	 0.236429	 1
1463569280.025	 5	 0.003601	 0.011606	 -0.001964	 2.148451	 -1.482184	 -0.369745	 -0.196911	 0.696698	 -0.648049	 0.236368	 1
1463569280.035	 5	 -0.000699	 0.007415	 -0.003989	 2.149168	 -1.482223	 -0.369109	 -0.196910	 0.696710	 -0.648056	 0.236316	 1
1463569280.045	 5	 -0.000730	 -0.000023	 -0.002993	 2.150151	 -1.482262	 -0.368138	 -0.196938	 0.696720	 -0.648049	 0.236280	 1
1463569280.055	 5	 -0.001813	 -0.004266	 -0.001957	 2.150675	 -1.482294	 -0.367576	 -0.196971	 0.696719	 -0.648044	 0.236272	 1
1463569280.065	 5	 -0.000757	 -0.007453	 -0.000931	 2.150860	 -1.482347	 -0.367327	 -0.197010	 0.696702	 -0.648048	 0.236277	 1
1463569280.075	 5	 -0.000757	 -0.007453	 -0.000931	 2.150872	 -1.482398	 -0.367236	 -0.197049	 0.696681	 -0.648053	 0.236291	 1
1463569280.085	 5	 -0.001843	 -0.009593	 -0.003074	 2.151477	 -1.482449	 -0.366540	 -0.197107	 0.696671	 -0.648045	 0.236295	 1
1463569280.095	 5	 0.000300	 -0.009584	 -0.000961	 2.151245	 -1.482522	 -0.366681	 -0.197150	 0.696638	 -0.648060	 0.236314	 1
1463569280.105	 5	 0.002429	 -0.011710	 0.000066	 2.150568	 -1.482565	 -0.367250	 -0.197181	 0.696603	 -0.648073	 0.236356	 1
1463569280.115	 5	 0.000267	 -0.014918	 -0.003142	 2.150162	 -1.482635	 -0.367505	 -0.197239	 0.696562	 -0.648084	 0.236400	 1
1463569280.125	 5	 -0.000814	 -0.017050	 -0.004219	 2.150050	 -1.482739	 -0.367445	 -0.197320	 0.696516	 -0.648096	 0.236436	 1
1463569280.135	 5	 0.000269	 -0.012806	 -0.005254	 2.149566	 -1.482765	 -0.367781	 -0.197366	 0.696485	 -0.648095	 0.236490	 1
1463569280.145	 5	 0.000290	 -0.008552	 -0.005214	 2.149047	 -1.482785	 -0.368200	 -0.197393	 0.696460	 -0.648099	 0.236530	 1
1463569280.155	 5	 0.000314	 -0.005345	 -0.003053	 2.148872	 -1.482806	 -0.368314	 -0.197414	 0.696445	 -0.648102	 0.236549	 1
1463569280.165	 5	 0.000322	 -0.005330	 -0.000921	 2.148235	 -1.482782	 -0.368907	 -0.197409	 0.696435	 -0.648102	 0.236584	 1
1463569280.175	 5	 0.000311	 -0.009569	 0.001172	 2.147241	 -1.482752	 -0.369820	 -0.197406	 0.696415	 -0.648103	 0.236641	 1
1463569280.185	 5	 -0.000767	 -0.011693	 0.001162	 2.146958	 -1.482698	 -0.369986	 -0.197428	 0.696412	 -0.648079	 0.236698	 1
1463569280.195	 5	 -0.002906	 -0.012751	 0.001170	 2.147109	 -1.482690	 -0.369707	 -0.197474	 0.696404	 -0.648059	 0.236737	 1
1463569280.205	 5	 -0.000781	 -0.012619	 0.001250	 2.147120	 -1.482713	 -0.369566	 -0.197525	 0.696386	 -0.648050	 0.236774	 1
1463569280.215	 5	 -0.000771	 -0.010492	 0.001269	 2.147115	 -1.482759	 -0.369466	 -0.197572	 0.696363	 -0.648051	 0.236798	 1
1463569280.225	 5	 -0.003972	 -0.010482	 0.001296	 2.147496	 -1.482767	 -0.368981	 -0.197619	 0.696358	 -0.648033	 0.236821	 1
1463569280.235	 5	 -0.001853	 -0.012624	 0.000192	 2.147908	 -1.482785	 -0.368459	 -0.197672	 0.696351	 -0.648018	 0.236843	 1
1463569280.245	 5	 -0.001871	 -0.014767	 -0.001960	 2.147790	 -1.482844	 -0.368438	 -0.197731	 0.696320	 -0.648020	 0.236878	 1
1463569280.255	 5	 -0.002957	 -0.017962	 -0.003046	 2.147629	 -1.482889	 -0.368422	 -0.197799	 0.696287	 -0.648016	 0.236930	 1
1463569280.265	 5	 -0.002948	 -0.016891	 -0.001970	 2.147668	 -1.482893	 -0.368207	 -0.197862	 0.696270	 -0.647995	 0.236985	 1
1463569280.275	 5	 0.000253	 -0.017957	 -0.000942	 2.147144	 -1.482937	 -0.368549	 -0.197922	 0.696230	 -0.647997	 0.237047	 1
1463569280.285	 5	 0.002383	 -0.017971	 -0.002026	 2.146785	 -1.482950	 -0.368728	 -0.197979	 0.696202	 -0.647986	 0.237111	 1
1463569280.295	 5	 0.002374	 -0.017986	 -0.004158	 2.146758	 -1.482969	 -0.368576	 -0.198045	 0.696179	 -0.647971	 0.237165	 1
1463569280.305	 5	 0.004522	 -0.016914	 -0.002035	 2.146355	 -1.482946	 -0.368805	 -0.198091	 0.696159	 -0.647951	 0.237236	 1
1463569280.315	 5	 0.004550	 -0.012644	 0.000137	 2.145887	 -1.482864	 -0.369138	 -0.198108	 0.696158	 -0.647921	 0.237309	 1
1463569280.325	 5	 0.005627	 -0.010520	 0.000148	 2.145199	 -1.482824	 -0.369727	 -0.198117	 0.696145	 -0.647911	 0.237366	 1
1463569280.335	 5	 0.004570	 -0.007333	 -0.000878	 2.144604	 -1.482744	 -0.370240	 -0.198113	 0.696146	 -0.647890	 0.237425	 1
1463569280.345	 5	 0.003511	 -0.007315	 0.001263	 2.144077	 -1.482640	 -0.370695	 -0.198101	 0.696156	 -0.647862	 0.237484	 1
1463569280.355	 5	 0.001401	 -0.001990	 0.001332	 2.144033	 -1.482516	 -0.370711	 -0.198082	 0.696184	 -0.647823	 0.237521	 1
1463569280.365	 5	 -0.000748	 -0.000791	 0.000376	 2.143922	 -1.482452	 -0.370807	 -0.198070	 0.696197	 -0.647806	 0.237542	 1
1463569280.375	 5	 -0.000733	 0.001344	 0.001462	 2.143655	 -1.482421	 -0.371081	 -0.198054	 0.696200	 -0.647803	 0.237553	 1
1463569280.385	 5	 -0.000730	 0.000296	 0.003584	 2.143366	 -1.482397	 -0.371372	 -0.198040	 0.696201	 -0.647802	 0.237565	 1
1463569280.395	 5	 0.000308	 -0.005034	 0.002459	 2.142771	 -1.482375	 -0.371927	 -0.198035	 0.696191	 -0.647802	 0.237597	 1
1463569280.405	 5	 0.000284	 -0.008240	 0.000298	 2.142495	 -1.482409	 -0.372127	 -0.198063	 0.696169	 -0.647809	 0.237621	 1
1463569280.415	 5	 -0.000796	 -0.009316	 -0.001834	 2.142414	 -1.482465	 -0.372113	 -0.198107	 0.696144	 -0.647815	 0.237641	 1
1463569280.425	 5	 0.001340	 -0.006155	 -0.005021	 2.143147	 -1.482553	 -0.371315	 -0.198167	 0.696129	 -0.647818	 0.237626	 1
1463569280.435	 5	 -0.001834	 0.002341	 -0.008113	 2.144431	 -1.482662	 -0.370034	 -0.198222	 0.696126	 -0.647825	 0.237570	 1
1463569280.445	 5	 -0.002860	 0.011910	 -0.009081	 2.146045	 -1.482723	 -0.368518	 -0.198241	 0.696152	 -0.647822	 0.237486	 1
1463569280.455	 5	 -0.004979	 0.016163	 -0.010088	 2.147627	 -1.482753	 -0.367090	 -0.198232	 0.696190	 -0.647818	 0.237391	 1
1463569280.465	 5	 -0.004966	 0.016186	 -0.006891	 2.148784	 -1.482812	 -0.366090	 -0.198219	 0.696213	 -0.647831	 0.237299	 1
1463569280.475	 5	 -0.002834	 0.018284	 -0.010087	 2.149171	 -1.482818	 -0.365875	 -0.198170	 0.696236	 -0.647846	 0.237233	 1
1463569280.485	 5	 -0.001755	 0.017247	 -0.005842	 2.149165	 -1.482841	 -0.366042	 -0.198118	 0.696246	 -0.647872	 0.237176	 1
1463569280.495	 5	 -0.000708	 0.011934	 -0.004835	 2.149180	 -1.482907	 -0.366154	 -0.198090	 0.696242	 -0.647906	 0.237120	 1
1463569280.505	 5	 0.002477	 0.007677	 -0.003837	 2.149157	 -1.482999	 -0.366259	 -0.198082	 0.696226	 -0.647942	 0.237075	 1
1463569280.515	 5	 0.002450	 0.006722	 -0.004850	 2.149561	 -1.483084	 -0.365927	 -0.198086	 0.696218	 -0.647968	 0.237023	 1
1463569280.525	 5	 0.002459	 0.007794	 -0.003775	 2.150497	 -1.483151	 -0.365073	 -0.198095	 0.696228	 -0.647978	 0.236959	 1
1463569280.535	 5	 0.000322	 0.009904	 -0.006934	 2.151626	 -1.483196	 -0.364043	 -0.198097	 0.696247	 -0.647982	 0.236890	 1
1463569280.545	 5	 0.001379	 0.008829	 -0.008019	 2.152966	 -1.483245	 -0.362799	 -0.198108	 0.696270	 -0.647981	 0.236816	 1
1463569280.555	 5	 0.002437	 0.008811	 -0.010160	 2.154102	 -1.483214	 -0.361752	 -0.198097	 0.696309	 -0.647961	 0.236766	 1
1463569280.565	 5	 0.000309	 0.006721	 -0.005897	 2.154532	 -1.483141	 -0.361388	 -0.198068	 0.696343	 -0.647939	 0.236750	 1
1463569280.575	 5	 -0.002884	 0.006746	 -0.003736	 2.154349	 -1.483034	 -0.361635	 -0.198017	 0.696374	 -0.647919	 0.236757	 1
1463569280.585	 5	 -0.002875	 0.007817	 -0.002660	 2.154438	 -1.482971	 -0.361620	 -0.197979	 0.696399	 -0.647908	 0.236745	 1
1463569280.595	 5	 -0.001774	 0.013147	 -0.000488	 2.154220	 -1.482905	 -0.361950	 -0.197920	 0.696423	 -0.647906	 0.236728	 1
1463569280.605	 5	 -0.000681	 0.019518	 -0.001503	 2.153965	 -1.482888	 -0.362386	 -0.197847	 0.696441	 -0.647927	 0.236679	 1
1463569280.615	 5	 0.001473	 0.022711	 -0.000426	 2.153169	 -1.482853	 -0.363400	 -0.197744	 0.696456	 -0.647958	 0.236635	 1
1463569280.625	 5	 0.002545	 0.022715	 0.000631	 2.152427	 -1.482814	 -0.364372	 -0.197637	 0.696474	 -0.647989	 0.236587	 1
1463569280.635	 5	 0.005731	 0.019514	 0.000574	 2.151481	 -1.482786	 -0.365519	 -0.197538	 0.696483	 -0.648023	 0.236551	 1
1463569280.645	 5	 0.004658	 0.017398	 0.001630	 2.151193	 -1.482744	 -0.365988	 -0.197458	 0.696506	 -0.648038	 0.236508	 1
1463569280.655	 5	 0.002517	 0.015284	 0.002694	 2.151492	 -1.482737	 -0.365852	 -0.197407	 0.696530	 -0.648049	 0.236450	 1
1463569280.665	 5	 0.001449	 0.014232	 0.003759	 2.151902	 -1.482804	 -0.365583	 -0.197383	 0.696535	 -0.648077	 0.236379	 1
1463569280.675	 5	 0.005716	 0.012107	 0.005832	 2.152073	 -1.482922	 -0.365550	 -0.197366	 0.696521	 -0.648125	 0.236305	 1
1463569280.685	 5	 0.006747	 0.011139	 0.003741	 2.151955	 -1.483076	 -0.365791	 -0.197355	 0.696490	 -0.648186	 0.236235	 1
1463569280.695	 5	 0.007789	 0.006874	 0.002625	 2.152162	 -1.483192	 -0.365675	 -0.197355	 0.696473	 -0.648226	 0.236175	 1
1463569280.705	 5	 0.003491	 0.001560	 0.001547	 2.152489	 -1.483313	 -0.365385	 -0.197377	 0.696452	 -0.648259	 0.236129	 1
1463569280.715	 5	 0.000269	 -0.002685	 0.001535	 2.153235	 -1.483359	 -0.364621	 -0.197412	 0.696452	 -0.648256	 0.236107	 1
1463569280.725	 5	 -0.001872	 -0.005854	 0.003655	 2.153974	 -1.483383	 -0.363832	 -0.197452	 0.696456	 -0.648243	 0.236101	 1
1463569280.735	 5	 -0.001889	 -0.011157	 0.005737	 2.154287	 -1.483345	 -0.363431	 -0.197482	 0.696463	 -0.648215	 0.236130	 1
1463569280.745	 5	 0.001283	 -0.015437	 0.003537	 2.154552	 -1.483391	 -0.363031	 -0.197546	 0.696442	 -0.648208	 0.236157	 1
1463569280.755	 5	 0.002332	 -0.016527	 0.000320	 2.154837	 -1.483461	 -0.362579	 -0.197626	 0.696413	 -0.648203	 0.236189	 1
1463569280.765	 5	 0.000222	 -0.013314	 0.002500	 2.154868	 -1.483465	 -0.362423	 -0.197672	 0.696400	 -0.648189	 0.236228	 1
1463569280.775	 5	 -0.001938	 -0.018626	 0.002469	 2.154545	 -1.483488	 -0.362563	 -0.197733	 0.696370	 -0.648180	 0.236290	 1
1463569280.785	 5	 0.000183	 -0.019711	 0.000308	 2.154059	 -1.483516	 -0.362845	 -0.197798	 0.696333	 -0.648174	 0.236362	 1
1463569280.795	 5	 -0.000855	 -0.010166	 -0.003857	 2.154299	 -1.483553	 -0.362483	 -0.197855	 0.696316	 -0.648165	 0.236388	 1
1463569280.805	 5	 -0.000840	 -0.005919	 -0.004884	 2.154876	 -1.483614	 -0.361835	 -0.197907	 0.696304	 -0.648163	 0.236383	 1
1463569280.815	 5	 0.000277	 0.003658	 -0.003738	 2.154956	 -1.483630	 -0.361764	 -0.197910	 0.696303	 -0.648167	 0.236375	 1
1463569280.825	 5	 0.001368	 0.006861	 -0.001586	 2.154415	 -1.483592	 -0.362366	 -0.197867	 0.696308	 -0.648174	 0.236377	 1
1463569280.835	 5	 0.003502	 0.005799	 -0.000548	 2.153791	 -1.483592	 -0.363046	 -0.197832	 0.696302	 -0.648193	 0.236374	 1
1463569280.845	 5	 0.002425	 0.008026	 0.000601	 2.152863	 -1.483596	 -0.364042	 -0.197787	 0.696290	 -0.648220	 0.236373	 1
1463569280.855	 5	 0.001352	 0.006965	 0.000601	 2.152498	 -1.483595	 -0.364477	 -0.197754	 0.696289	 -0.648235	 0.236359	 1
1463569280.865	 5	 -0.000787	 0.005908	 0.000609	 2.152740	 -1.483626	 -0.364301	 -0.197744	 0.696293	 -0.648247	 0.236326	 1
1463569280.875	 5	 -0.001879	 0.001649	 -0.000487	 2.153402	 -1.483688	 -0.363672	 -0.197762	 0.696293	 -0.648256	 0.236285	 1
1463569280.885	 5	 -0.000816	 0.001638	 -0.001563	 2.153849	 -1.483785	 -0.363242	 -0.197789	 0.696277	 -0.648278	 0.236248	 1
1463569280.895	 5	 -0.001922	 -0.004757	 -0.003745	 2.154615	 -1.483900	 -0.362445	 -0.197844	 0.696259	 -0.648293	 0.236215	 1
1463569280.905	 5	 -0.000860	 -0.006879	 -0.002709	 2.155550	 -1.484010	 -0.361453	 -0.197911	 0.696243	 -0.648300	 0.236187	 1
1463569280.915	 5	 -0.005156	 -0.009025	 -0.006955	 2.156905	 -1.484054	 -0.360014	 -0.197983	 0.696249	 -0.648277	 0.236173	 1
1463569280.925	 5	 -0.003043	 -0.014342	 -0.005958	 2.158164	 -1.484106	 -0.358622	 -0.198071	 0.696246	 -0.648252	 0.236174	 1
1463569280.935	 5	 -0.004126	 -0.017530	 -0.005978	 2.158893	 -1.484156	 -0.357726	 -0.198158	 0.696230	 -0.648233	 0.236201	 1
1463569280.945	 5	 -0.004122	 -0.018578	 -0.003857	 2.159600	 -1.484217	 -0.356837	 -0.198252	 0.696210	 -0.648216	 0.236229	 1
1463569280.955	 5	 -0.003042	 -0.018558	 -0.000668	 2.159657	 -1.484200	 -0.356587	 -0.198317	 0.696196	 -0.648187	 0.236294	 1
1463569280.965	 5	 -0.003047	 -0.019622	 -0.000678	 2.159470	 -1.484198	 -0.356574	 -0.198381	 0.696173	 -0.648167	 0.236364	 1
1463569280.975	 5	 -0.001975	 -0.017506	 -0.001734	 2.159589	 -1.484183	 -0.356273	 -0.198444	 0.696161	 -0.648139	 0.236423	 1
1463569280.985	 5	 -0.000888	 -0.014310	 -0.000647	 2.159612	 -1.484149	 -0.356096	 -0.198491	 0.696155	 -0.648110	 0.236480	 1
1463569280.995	 5	 0.000160	 -0.014209	 0.000454	 2.158985	 -1.484091	 -0.356573	 -0.198514	 0.696144	 -0.648087	 0.236556	 1
1463569281.005	 5	 0.004423	 -0.016342	 0.001463	 2.158050	 -1.484028	 -0.357345	 -0.198535	 0.696126	 -0.648067	 0.236645	 1
1463569281.015	 5	 0.003356	 -0.015282	 0.000417	 2.157775	 -1.483969	 -0.357464	 -0.198570	 0.696121	 -0.648037	 0.236714	 1
1463569281.025	 5	 0.001238	 -0.011029	 -0.000591	 2.157915	 -1.483942	 -0.357205	 -0.198608	 0.696119	 -0.648012	 0.236756	 1
1463569281.035	 5	 -0.001952	 -0.006780	 -0.002655	 2.158300	 -1.483910	 -0.356742	 -0.198638	 0.696127	 -0.647986	 0.236779	 1
1463569281.045	 5	 -0.002994	 -0.000403	 -0.003653	 2.159294	 -1.483927	 -0.355727	 -0.198672	 0.696139	 -0.647970	 0.236757	 1
1463569281.055	 5	 -0.001921	 0.001713	 -0.004708	 2.159757	 -1.483916	 -0.355275	 -0.198678	 0.696152	 -0.647959	 0.236745	 1
1463569281.065	 5	 0.000209	 0.001699	 -0.005792	 2.160197	 -1.483991	 -0.354856	 -0.198697	 0.696143	 -0.647975	 0.236712	 1
1463569281.075	 5	 0.000197	 -0.002540	 -0.003700	 2.160203	 -1.484013	 -0.354828	 -0.198710	 0.696135	 -0.647979	 0.236714	 1
1463569281.085	 5	 -0.001947	 -0.004661	 -0.003701	 2.160491	 -1.484046	 -0.354502	 -0.198738	 0.696128	 -0.647979	 0.236712	 1
1463569281.095	 5	 -0.000865	 -0.001474	 -0.003681	 2.160112	 -1.484064	 -0.354852	 -0.198743	 0.696113	 -0.647988	 0.236727	 1
1463569281.105	 5	 0.000217	 0.000658	 -0.002604	 2.159621	 -1.484105	 -0.355337	 -0.198742	 0.696092	 -0.648008	 0.236732	 1
1463569281.115	 5	 -0.002968	 0.004915	 -0.003603	 2.159924	 -1.484083	 -0.355075	 -0.198730	 0.696108	 -0.648001	 0.236716	 1
1463569281.125	 5	 -0.004009	 0.011292	 -0.004600	 2.161083	 -1.484110	 -0.354017	 -0.198729	 0.696133	 -0.647999	 0.236650	 1
1463569281.135	 5	 -0.001867	 0.011301	 -0.002487	 2.161759	 -1.484130	 -0.353452	 -0.198711	 0.696152	 -0.648005	 0.236593	 1
1463569281.145	 5	 -0.001874	 0.008125	 -0.000385	 2.162076	 -1.484125	 -0.353221	 -0.198688	 0.696167	 -0.648008	 0.236559	 1
1463569281.155	 5	 -0.001894	 0.003871	 -0.000425	 2.162087	 -1.484177	 -0.353257	 -0.198683	 0.696159	 -0.648028	 0.236532	 1
1463569281.165	 5	 -0.000880	 -0.005721	 -0.002655	 2.162360	 -1.484269	 -0.352937	 -0.198727	 0.696135	 -0.648044	 0.236521	 1
1463569281.175	 5	 -0.000915	 -0.005686	 -0.004738	 2.162581	 -1.484431	 -0.352653	 -0.198790	 0.696090	 -0.648080	 0.236502	 1
1463569281.185	 5	 0.001240	 -0.001438	 -0.004718	 2.162888	 -1.484593	 -0.352315	 -0.198844	 0.696050	 -0.648118	 0.236470	 1
1463569281.195	 5	 0.005509	 -0.000395	 -0.005811	 2.162860	 -1.484724	 -0.352340	 -0.198874	 0.696015	 -0.648156	 0.236444	 1
1463569281.205	 5	 0.008706	 -0.000412	 -0.006905	 2.162872	 -1.484841	 -0.352321	 -0.198903	 0.695984	 -0.648190	 0.236421	 1
1463569281.215	 5	 0.007628	 -0.003592	 -0.005860	 2.163078	 -1.484924	 -0.352087	 -0.198936	 0.695963	 -0.648207	 0.236407	 1
1463569281.225	 5	 0.006557	 -0.006757	 -0.002682	 2.163199	 -1.484876	 -0.351909	 -0.198948	 0.695972	 -0.648184	 0.236433	 1
1463569281.235	 5	 0.005493	 -0.007802	 -0.000551	 2.162945	 -1.484760	 -0.352084	 -0.198944	 0.695990	 -0.648145	 0.236489	 1
1463569281.245	 5	 0.004445	 -0.003544	 -0.000501	 2.162546	 -1.484667	 -0.352438	 -0.198929	 0.696003	 -0.648120	 0.236533	 1
1463569281.255	 5	 0.001264	 0.001776	 -0.001489	 2.163167	 -1.484545	 -0.351822	 -0.198915	 0.696047	 -0.648073	 0.236543	 1
1463569281.265	 5	 -0.001884	 0.011374	 0.000760	 2.163497	 -1.484389	 -0.351585	 -0.198856	 0.696104	 -0.648032	 0.236538	 1
1463569281.275	 5	 -0.000788	 0.016697	 0.001866	 2.163382	 -1.484260	 -0.351850	 -0.198772	 0.696150	 -0.648015	 0.236520	 1
1463569281.285	 5	 -0.001835	 0.019898	 0.002972	 2.163170	 -1.484117	 -0.352249	 -0.198670	 0.696203	 -0.647999	 0.236495	 1
1463569281.295	 5	 0.000303	 0.019900	 0.004019	 2.162885	 -1.484003	 -0.352737	 -0.198567	 0.696247	 -0.647995	 0.236460	 1
1463569281.305	 5	 0.001374	 0.019904	 0.005076	 2.162205	 -1.483954	 -0.353615	 -0.198470	 0.696267	 -0.648017	 0.236423	 1
1463569281.315	 5	 0.003510	 0.016738	 0.009291	 2.161092	 -1.483858	 -0.354902	 -0.198362	 0.696288	 -0.648031	 0.236414	 1
1463569281.325	 5	 0.004534	 0.009393	 0.012449	 2.159735	 -1.483771	 -0.356371	 -0.198270	 0.696296	 -0.648044	 0.236429	 1
1463569281.335	 5	 0.004506	 0.006179	 0.009222	 2.158688	 -1.483761	 -0.357495	 -0.198216	 0.696287	 -0.648071	 0.236431	 1
1463569281.345	 5	 0.006633	 0.007213	 0.006015	 2.157951	 -1.483848	 -0.358303	 -0.198193	 0.696257	 -0.648118	 0.236407	 1
1463569281.355	 5	 0.006640	 0.011444	 0.002856	 2.158101	 -1.483948	 -0.358259	 -0.198182	 0.696244	 -0.648157	 0.236348	 1
1463569281.365	 5	 0.003445	 0.014629	 0.000781	 2.159402	 -1.484048	 -0.357107	 -0.198184	 0.696257	 -0.648179	 0.236247	 1
1463569281.375	 5	 0.000213	 0.009313	 -0.000307	 2.160722	 -1.484131	 -0.355901	 -0.198195	 0.696272	 -0.648192	 0.236160	 1
1463569281.385	 5	 -0.001961	 0.001866	 -0.001423	 2.161310	 -1.484175	 -0.355349	 -0.198206	 0.696275	 -0.648198	 0.236125	 1
1463569281.395	 5	 -0.000902	 0.001847	 -0.003565	 2.162091	 -1.484261	 -0.354581	 -0.198240	 0.696269	 -0.648210	 0.236084	 1
1463569281.405	 5	 -0.001956	 0.002929	 -0.001415	 2.162819	 -1.484318	 -0.353872	 -0.198263	 0.696269	 -0.648215	 0.236048	 1
1463569281.415	 5	 0.000201	 0.005073	 0.001784	 2.162665	 -1.484368	 -0.354076	 -0.198253	 0.696258	 -0.648238	 0.236025	 1
1463569281.425	 5	 0.004446	 0.000798	 0.000641	 2.161870	 -1.484426	 -0.354896	 -0.198239	 0.696230	 -0.648273	 0.236023	 1
1463569281.435	 5	 0.005489	 -0.003468	 -0.000474	 2.160619	 -1.484545	 -0.356116	 -0.198246	 0.696172	 -0.648328	 0.236038	 1
1463569281.445	 5	 0.005486	 -0.002420	 -0.002596	 2.160300	 -1.484674	 -0.356408	 -0.198276	 0.696130	 -0.648368	 0.236027	 1
1463569281.455	 5	 0.003366	 -0.000278	 -0.001492	 2.160235	 -1.484735	 -0.356462	 -0.198293	 0.696111	 -0.648386	 0.236019	 1
1463569281.465	 5	 0.004428	 -0.001345	 -0.001511	 2.160083	 -1.484759	 -0.356612	 -0.198295	 0.696102	 -0.648395	 0.236018	 1
1463569281.475	 5	 0.003326	 -0.002348	 -0.003608	 2.159734	 -1.484811	 -0.356927	 -0.198310	 0.696078	 -0.648413	 0.236026	 1
1463569281.485	 5	 0.002314	 0.008299	 -0.002434	 2.159528	 -1.484829	 -0.357189	 -0.198290	 0.696075	 -0.648429	 0.236009	 1
1463569281.495	 5	 0.003406	 0.013614	 -0.002394	 2.159453	 -1.484875	 -0.357390	 -0.198254	 0.696075	 -0.648459	 0.235960	 1
1463569281.505	 5	 0.003426	 0.016813	 -0.001299	 2.159112	 -1.484917	 -0.357893	 -0.198199	 0.696073	 -0.648497	 0.235906	 1
1463569281.515	 5	 0.003403	 0.014662	 -0.004517	 2.159019	 -1.485076	 -0.358134	 -0.198181	 0.696044	 -0.648562	 0.235827	 1
1463569281.525	 5	 0.001273	 0.014676	 -0.003432	 2.159581	 -1.485152	 -0.357714	 -0.198162	 0.696049	 -0.648590	 0.235751	 1
1463569281.535	 5	 0.000201	 0.013616	 -0.003433	 2.160856	 -1.485224	 -0.356583	 -0.198158	 0.696068	 -0.648604	 0.235658	 1
1463569281.545	 5	 0.000176	 0.009353	 -0.004539	 2.161706	 -1.485321	 -0.355843	 -0.198162	 0.696070	 -0.648629	 0.235582	 1
1463569281.555	 5	 -0.000922	 0.001918	 -0.003533	 2.161994	 -1.485397	 -0.355594	 -0.198172	 0.696059	 -0.648651	 0.235546	 1
1463569281.565	 5	 -0.002024	 -0.005524	 -0.003593	 2.162009	 -1.485469	 -0.355538	 -0.198203	 0.696036	 -0.648667	 0.235543	 1
1463569281.575	 5	 0.000105	 -0.006594	 -0.003622	 2.161844	 -1.485547	 -0.355641	 -0.198238	 0.696006	 -0.648686	 0.235551	 1
1463569281.585	 5	 0.001163	 -0.007669	 -0.004707	 2.161578	 -1.485636	 -0.355829	 -0.198279	 0.695970	 -0.648707	 0.235564	 1
1463569281.595	 5	 0.002226	 -0.007680	 -0.005783	 2.162074	 -1.485742	 -0.355256	 -0.198341	 0.695944	 -0.648720	 0.235554	 1
1463569281.605	 5	 0.000110	 -0.005531	 -0.003612	 2.162210	 -1.485730	 -0.355064	 -0.198361	 0.695944	 -0.648707	 0.235572	 1
1463569281.615	 5	 0.000129	 -0.003388	 -0.001461	 2.162173	 -1.485722	 -0.355061	 -0.198372	 0.695942	 -0.648701	 0.235587	 1
1463569281.625	 5	 0.002262	 -0.004451	 -0.000423	 2.162209	 -1.485710	 -0.354986	 -0.198384	 0.695942	 -0.648692	 0.235601	 1
1463569281.635	 5	 0.001200	 -0.002328	 -0.001460	 2.163200	 -1.485699	 -0.353970	 -0.198414	 0.695960	 -0.648668	 0.235588	 1
1463569281.645	 5	 0.001194	 0.001944	 -0.002450	 2.163768	 -1.485678	 -0.353412	 -0.198419	 0.695977	 -0.648652	 0.235576	 1
1463569281.655	 5	 -0.000932	 0.001966	 -0.000300	 2.163970	 -1.485614	 -0.353230	 -0.198402	 0.696000	 -0.648632	 0.235579	 1
1463569281.665	 5	 0.002244	 -0.003362	 -0.000377	 2.163443	 -1.485617	 -0.353739	 -0.198397	 0.695988	 -0.648640	 0.235596	 1
1463569281.675	 5	 0.002234	 -0.005490	 -0.000396	 2.163042	 -1.485599	 -0.354091	 -0.198401	 0.695980	 -0.648637	 0.235626	 1
1463569281.685	 5	 -0.000941	 0.001950	 -0.002431	 2.163387	 -1.485585	 -0.353744	 -0.198406	 0.695990	 -0.648626	 0.235621	 1
1463569281.695	 5	 -0.000921	 0.006205	 -0.002391	 2.163631	 -1.485589	 -0.353546	 -0.198397	 0.695998	 -0.648628	 0.235600	 1
1463569281.705	 5	 -0.000902	 0.008347	 -0.000240	 2.163375	 -1.485578	 -0.353889	 -0.198358	 0.696005	 -0.648640	 0.235580	 1
1463569281.715	 5	 -0.000913	 0.005164	 0.000797	 2.162961	 -1.485508	 -0.354363	 -0.198312	 0.696021	 -0.648634	 0.235585	 1
1463569281.725	 5	 -0.000925	 0.000925	 0.002889	 2.162426	 -1.485458	 -0.354911	 -0.198283	 0.696026	 -0.648631	 0.235604	 1
1463569281.735	 5	 0.001218	 0.000934	 0.005002	 2.162134	 -1.485406	 -0.355214	 -0.198261	 0.696035	 -0.648623	 0.235619	 1
1463569281.745	 5	 0.000146	 0.000929	 0.003946	 2.161707	 -1.485356	 -0.355651	 -0.198236	 0.696041	 -0.648617	 0.235637	 1
1463569281.755	 5	 -0.004125	 0.003046	 0.000805	 2.162207	 -1.485352	 -0.355186	 -0.198235	 0.696055	 -0.648611	 0.235614	 1
1463569281.765	 5	 -0.000908	 0.006227	 0.000807	 2.162214	 -1.485359	 -0.355239	 -0.198216	 0.696060	 -0.648620	 0.235593	 1
1463569281.775	 5	 -0.004084	 0.011555	 0.000884	 2.161584	 -1.485344	 -0.355969	 -0.198163	 0.696062	 -0.648639	 0.235578	 1
1463569281.785	 5	 -0.003011	 0.012615	 0.000885	 2.160854	 -1.485323	 -0.356809	 -0.198102	 0.696064	 -0.648660	 0.235564	 1
1463569281.795	 5	 -0.000877	 0.011553	 0.001923	 2.160165	 -1.485333	 -0.357621	 -0.198045	 0.696061	 -0.648690	 0.235539	 1
1463569281.805	 5	 0.000160	 0.009498	 0.001928	 2.159989	 -1.485341	 -0.357907	 -0.198005	 0.696066	 -0.648708	 0.235506	 1
1463569281.815	 5	 0.000155	 0.007378	 0.002975	 2.159254	 -1.485341	 -0.358725	 -0.197959	 0.696061	 -0.648732	 0.235496	 1
1463569281.825	 5	 0.002288	 0.006315	 0.004012	 2.159174	 -1.485329	 -0.358872	 -0.197931	 0.696069	 -0.648738	 0.235479	 1
1463569281.835	 5	 0.003357	 0.009480	 0.000834	 2.159387	 -1.485376	 -0.358752	 -0.197914	 0.696070	 -0.648759	 0.235434	 1
1463569281.845	 5	 0.000165	 0.010561	 0.001938	 2.159088	 -1.485410	 -0.359151	 -0.197879	 0.696066	 -0.648786	 0.235401	 1
1463569281.855	 5	 0.000145	 0.006306	 0.001898	 2.158964	 -1.485457	 -0.359355	 -0.197859	 0.696059	 -0.648811	 0.235368	 1
1463569281.865	 5	 0.000129	 0.001003	 0.003980	 2.158607	 -1.485496	 -0.359739	 -0.197850	 0.696044	 -0.648832	 0.235359	 1
1463569281.875	 5	 0.001185	 -0.002183	 0.005007	 2.157556	 -1.485504	 -0.360772	 -0.197833	 0.696021	 -0.648852	 0.235388	 1
1463569281.885	 5	 0.004377	 -0.003264	 0.003903	 2.157233	 -1.485513	 -0.361061	 -0.197840	 0.696009	 -0.648857	 0.235404	 1
1463569281.895	 5	 0.005449	 -0.002204	 0.003903	 2.156944	 -1.485503	 -0.361333	 -0.197837	 0.696004	 -0.648858	 0.235419	 1
1463569281.905	 5	 0.003339	 0.002065	 0.005028	 2.156260	 -1.485373	 -0.362029	 -0.197787	 0.696027	 -0.648834	 0.235460	 1
1463569281.915	 5	 -0.000935	 0.001014	 0.005056	 2.156185	 -1.485173	 -0.362122	 -0.197734	 0.696080	 -0.648779	 0.235498	 1
1463569281.925	 5	 -0.003066	 0.001028	 0.006141	 2.156399	 -1.485001	 -0.361920	 -0.197696	 0.696130	 -0.648727	 0.235527	 1
1463569281.935	 5	 -0.004124	 0.002102	 0.007226	 2.156711	 -1.484852	 -0.361620	 -0.197666	 0.696176	 -0.648679	 0.235548	 1
1463569281.945	 5	 -0.006239	 0.006363	 0.007284	 2.157376	 -1.484698	 -0.361014	 -0.197626	 0.696235	 -0.648629	 0.235546	 1
1463569281.955	 5	 -0.004091	 0.012779	 0.007355	 2.157428	 -1.484612	 -0.361079	 -0.197568	 0.696270	 -0.648616	 0.235525	 1
1463569281.965	 5	 -0.001947	 0.014899	 0.007356	 2.157024	 -1.484564	 -0.361621	 -0.197499	 0.696288	 -0.648626	 0.235501	 1
1463569281.975	 5	 0.000186	 0.012781	 0.009449	 2.156263	 -1.484492	 -0.362510	 -0.197421	 0.696305	 -0.648635	 0.235492	 1
1463569281.985	 5	 0.001238	 0.009587	 0.009410	 2.155575	 -1.484455	 -0.363307	 -0.197358	 0.696313	 -0.648650	 0.235482	 1
1463569281.995	 5	 0.003354	 0.007438	 0.007240	 2.155080	 -1.484470	 -0.363880	 -0.197322	 0.696307	 -0.648673	 0.235465	 1
1463569282.005	 5	 0.002286	 0.007441	 0.007249	 2.155558	 -1.484478	 -0.363483	 -0.197307	 0.696322	 -0.648676	 0.235425	 1
1463569282.015	 5	 -0.000928	 0.007427	 0.004078	 2.156726	 -1.484500	 -0.362390	 -0.197314	 0.696346	 -0.648669	 0.235368	 1
1463569282.025	 5	 0.002264	 0.007402	 0.001918	 2.157479	 -1.484519	 -0.361716	 -0.197309	 0.696363	 -0.648670	 0.235321	 1
1463569282.035	 5	 -0.000948	 0.005284	 0.001926	 2.158741	 -1.484529	 -0.360517	 -0.197319	 0.696390	 -0.648656	 0.235268	 1
1463569282.045	 5	 -0.004155	 0.003174	 0.003000	 2.160106	 -1.484538	 -0.359193	 -0.197340	 0.696418	 -0.648637	 0.235221	 1
1463569282.055	 5	 -0.006296	 0.001061	 0.004064	 2.161274	 -1.484522	 -0.358042	 -0.197358	 0.696446	 -0.648613	 0.235190	 1
1463569282.065	 5	 -0.010594	 -0.004252	 0.002986	 2.161926	 -1.484477	 -0.357362	 -0.197373	 0.696467	 -0.648584	 0.235194	 1
1463569282.075	 5	 -0.007389	 -0.005310	 0.005080	 2.161942	 -1.484432	 -0.357283	 -0.197385	 0.696473	 -0.648563	 0.235223	 1
1463569282.085	 5	 -0.006330	 -0.006385	 0.003994	 2.161682	 -1.484481	 -0.357482	 -0.197411	 0.696449	 -0.648575	 0.235239	 1
1463569282.095	 5	 -0.005278	 -0.009579	 0.003955	 2.161487	 -1.484485	 -0.357594	 -0.197436	 0.696437	 -0.648570	 0.235269	 1
1463569282.105	 5	 -0.003140	 -0.010634	 0.006058	 2.161141	 -1.484512	 -0.357834	 -0.197472	 0.696412	 -0.648572	 0.235306	 1
1463569282.115	 5	 -0.001005	 -0.009584	 0.004983	 2.161116	 -1.484539	 -0.357759	 -0.197512	 0.696395	 -0.648569	 0.235334	 1
1463569282.125	 5	 -0.001019	 -0.008498	 0.005023	 2.161329	 -1.484505	 -0.357453	 -0.197541	 0.696399	 -0.648544	 0.235366	 1
1463569282.135	 5	 -0.003163	 -0.009563	 0.003966	 2.161881	 -1.484497	 -0.356808	 -0.197585	 0.696402	 -0.648520	 0.235384	 1
1463569282.145	 5	 -0.003151	 -0.005324	 0.001874	 2.162228	 -1.484445	 -0.356403	 -0.197602	 0.696417	 -0.648492	 0.235406	 1
1463569282.155	 5	 -0.003131	 -0.001070	 0.001913	 2.162596	 -1.484410	 -0.356013	 -0.197611	 0.696431	 -0.648472	 0.235412	 1
1463569282.165	 5	 -0.004192	 0.002109	 -0.000180	 2.162500	 -1.484380	 -0.356126	 -0.197596	 0.696438	 -0.648467	 0.235415	 1
1463569282.175	 5	 -0.004162	 0.007435	 0.000936	 2.162339	 -1.484328	 -0.356348	 -0.197559	 0.696455	 -0.648462	 0.235411	 1
1463569282.185	 5	 -0.003086	 0.007447	 0.003058	 2.161917	 -1.484270	 -0.356846	 -0.197509	 0.696470	 -0.648462	 0.235408	 1
1463569282.195	 5	 0.000109	 0.004262	 0.005133	 2.160813	 -1.484215	 -0.358001	 -0.197453	 0.696468	 -0.648473	 0.235430	 1
1463569282.205	 5	 -0.003108	 0.001080	 0.005131	 2.160432	 -1.484201	 -0.358402	 -0.197434	 0.696467	 -0.648478	 0.235435	 1
1463569282.215	 5	 -0.003106	 0.003192	 0.003019	 2.160596	 -1.484134	 -0.358266	 -0.197413	 0.696490	 -0.648459	 0.235437	 1
1463569282.225	 5	 -0.006306	 0.005314	 0.000935	 2.161769	 -1.484095	 -0.357142	 -0.197415	 0.696528	 -0.648431	 0.235401	 1
1463569282.235	 5	 -0.006312	 0.003194	 0.001981	 2.162282	 -1.484064	 -0.356669	 -0.197407	 0.696549	 -0.648417	 0.235383	 1
1463569282.245	 5	 -0.007405	 -0.002121	 0.001941	 2.162885	 -1.484021	 -0.356059	 -0.197414	 0.696571	 -0.648392	 0.235379	 1
1463569282.255	 5	 -0.006369	 -0.009562	 0.002928	 2.163004	 -1.483984	 -0.355863	 -0.197435	 0.696576	 -0.648370	 0.235409	 1
1463569282.265	 5	 -0.004254	 -0.013824	 0.002870	 2.163117	 -1.483985	 -0.355621	 -0.197483	 0.696565	 -0.648353	 0.235448	 1
1463569282.275	 5	 -0.003187	 -0.013827	 0.002861	 2.162712	 -1.483977	 -0.355887	 -0.197520	 0.696546	 -0.648342	 0.235505	 1
1463569282.285	 5	 -0.002126	 -0.012732	 0.005023	 2.162460	 -1.483891	 -0.356010	 -0.197540	 0.696551	 -0.648307	 0.235571	 1
1463569282.295	 5	 -0.005328	 -0.013778	 0.006107	 2.162217	 -1.483808	 -0.356110	 -0.197565	 0.696554	 -0.648270	 0.235641	 1
1463569282.305	 5	 -0.005328	 -0.013778	 0.006107	 2.161715	 -1.483639	 -0.356467	 -0.197566	 0.696574	 -0.648213	 0.235737	 1
1463569282.315	 5	 -0.006385	 -0.011648	 0.006137	 2.161557	 -1.483479	 -0.356497	 -0.197571	 0.696601	 -0.648154	 0.235816	 1
1463569282.325	 5	 -0.007427	 -0.006326	 0.006196	 2.161438	 -1.483329	 -0.356539	 -0.197561	 0.696630	 -0.648104	 0.235876	 1
1463569282.335	 5	 -0.008480	 -0.004188	 0.007291	 2.161414	 -1.483178	 -0.356514	 -0.197544	 0.696665	 -0.648054	 0.235925	 1
1463569282.345	 5	 -0.008462	 -0.002046	 0.009442	 2.161082	 -1.483026	 -0.356823	 -0.197510	 0.696696	 -0.648014	 0.235973	 1
1463569282.355	 5	 -0.005254	 0.000064	 0.008368	 2.160579	 -1.482903	 -0.357325	 -0.197471	 0.696718	 -0.647987	 0.236012	 1
1463569282.365	 5	 -0.004173	 0.001140	 0.010501	 2.159233	 -1.482798	 -0.358677	 -0.197412	 0.696720	 -0.647983	 0.236065	 1
1463569282.375	 5	 -0.005231	 0.002215	 0.011586	 2.158186	 -1.482651	 -0.359745	 -0.197346	 0.696740	 -0.647963	 0.236116	 1
1463569282.385	 5	 -0.004150	 0.003290	 0.013718	 2.157091	 -1.482517	 -0.360867	 -0.197280	 0.696757	 -0.647949	 0.236163	 1
1463569282.395	 5	 -0.006275	 0.003312	 0.015869	 2.155925	 -1.482328	 -0.362059	 -0.197200	 0.696786	 -0.647920	 0.236223	 1
1463569282.405	 5	 -0.007343	 0.002259	 0.016935	 2.154916	 -1.482117	 -0.363090	 -0.197120	 0.696824	 -0.647880	 0.236286	 1
1463569282.415	 5	 -0.003081	 -0.000929	 0.019000	 2.153248	 -1.481956	 -0.364753	 -0.197044	 0.696833	 -0.647866	 0.236363	 1
1463569282.425	 5	 -0.003113	 -0.005207	 0.015763	 2.152034	 -1.481881	 -0.365932	 -0.197010	 0.696825	 -0.647864	 0.236421	 1
1463569282.435	 5	 -0.005298	 -0.009463	 0.012569	 2.151519	 -1.481795	 -0.366375	 -0.197003	 0.696830	 -0.647841	 0.236475	 1
1463569282.445	 5	 -0.004252	 -0.010561	 0.008286	 2.150863	 -1.481778	 -0.366930	 -0.197019	 0.696811	 -0.647837	 0.236528	 1
1463569282.455	 5	 -0.004270	 -0.011648	 0.005079	 2.150604	 -1.481811	 -0.367081	 -0.197057	 0.696787	 -0.647839	 0.236562	 1
1463569282.465	 5	 -0.005335	 -0.009533	 0.002976	 2.150856	 -1.481826	 -0.366723	 -0.197104	 0.696778	 -0.647825	 0.236587	 1
1463569282.475	 5	 -0.005336	 -0.010589	 0.004032	 2.151143	 -1.481729	 -0.366335	 -0.197124	 0.696798	 -0.647780	 0.236634	 1
1463569282.485	 5	 -0.005347	 -0.013772	 0.005068	 2.150735	 -1.481638	 -0.366614	 -0.197139	 0.696801	 -0.647746	 0.236705	 1
1463569282.495	 5	 -0.009671	 -0.025460	 0.004998	 2.150799	 -1.481513	 -0.366329	 -0.197189	 0.696814	 -0.647682	 0.236802	 1
1463569282.505	 5	 -0.005446	 -0.037150	 0.008050	 2.150894	 -1.481334	 -0.365889	 -0.197271	 0.696828	 -0.647588	 0.236950	 1
1463569282.515	 5	 -0.005452	 -0.033998	 0.002750	 2.150291	 -1.481243	 -0.366134	 -0.197360	 0.696804	 -0.647531	 0.237101	 1
1463569282.525	 5	 -0.004397	 -0.037184	 0.003778	 2.150645	 -1.481110	 -0.365436	 -0.197458	 0.696812	 -0.647444	 0.237232	 1
1463569282.535	 5	 -0.003347	 -0.042491	 0.005851	 2.149898	 -1.480956	 -0.365756	 -0.197553	 0.696795	 -0.647364	 0.237422	 1
1463569282.545	 5	 -0.003332	 -0.040355	 0.006936	 2.149821	 -1.480870	 -0.365428	 -0.197673	 0.696776	 -0.647292	 0.237574	 1
1463569282.555	 5	 -0.003318	 -0.037165	 0.006966	 2.149734	 -1.480733	 -0.365130	 -0.197774	 0.696771	 -0.647209	 0.237731	 1
1463569282.565	 5	 -0.001146	 -0.031829	 0.010194	 2.149479	 -1.480600	 -0.365054	 -0.197853	 0.696768	 -0.647136	 0.237873	 1
1463569282.575	 5	 0.000994	 -0.028660	 0.008074	 2.149353	 -1.480451	 -0.364904	 -0.197912	 0.696777	 -0.647062	 0.237997	 1
1463569282.585	 5	 0.003122	 -0.030786	 0.009102	 2.148698	 -1.480285	 -0.365262	 -0.197962	 0.696778	 -0.646992	 0.238146	 1
1463569282.595	 5	 0.000997	 -0.029709	 0.010197	 2.147659	 -1.480059	 -0.366007	 -0.197987	 0.696786	 -0.646912	 0.238316	 1
1463569282.605	 5	 0.000991	 -0.030772	 0.010187	 2.147404	 -1.479827	 -0.365966	 -0.198031	 0.696812	 -0.646815	 0.238468	 1
1463569282.615	 5	 -0.000094	 -0.032860	 0.013400	 2.147367	 -1.479524	 -0.365681	 -0.198074	 0.696858	 -0.646689	 0.238639	 1
1463569282.625	 5	 -0.005354	 -0.021105	 0.018885	 2.147200	 -1.479180	 -0.365611	 -0.198074	 0.696920	 -0.646565	 0.238794	 1
1463569282.635	 5	 -0.007512	 -0.023249	 0.015687	 2.147666	 -1.478854	 -0.364930	 -0.198087	 0.696993	 -0.646435	 0.238923	 1
1463569282.645	 5	 -0.007485	 -0.020035	 0.018914	 2.147412	 -1.478501	 -0.364975	 -0.198073	 0.697058	 -0.646313	 0.239074	 1
1463569282.655	 5	 -0.007466	 -0.016836	 0.020011	 2.146300	 -1.478155	 -0.365914	 -0.198027	 0.697108	 -0.646214	 0.239233	 1
1463569282.665	 5	 -0.007436	 -0.011510	 0.021126	 2.144843	 -1.477877	 -0.367239	 -0.197972	 0.697137	 -0.646148	 0.239373	 1
1463569282.675	 5	 -0.005289	 -0.011494	 0.024305	 2.143393	 -1.477568	 -0.368569	 -0.197906	 0.697175	 -0.646075	 0.239516	 1
1463569282.685	 5	 0.000039	 -0.010469	 0.021071	 2.141977	 -1.477378	 -0.369891	 -0.197860	 0.697185	 -0.646038	 0.239624	 1
1463569282.695	 5	 0.000035	 -0.009421	 0.018950	 2.141497	 -1.477154	 -0.370290	 -0.197825	 0.697225	 -0.645973	 0.239712	 1
1463569282.705	 5	 -0.003166	 -0.008355	 0.017922	 2.140963	 -1.476965	 -0.370745	 -0.197795	 0.697254	 -0.645921	 0.239792	 1
1463569282.715	 5	 -0.003153	 -0.007276	 0.020063	 2.140534	 -1.476762	 -0.371101	 -0.197763	 0.697291	 -0.645862	 0.239871	 1
1463569282.725	 5	 -0.002095	 -0.008351	 0.018978	 2.140356	 -1.476620	 -0.371218	 -0.197747	 0.697317	 -0.645817	 0.239926	 1
1463569282.735	 5	 -0.003193	 -0.014730	 0.018928	 2.140011	 -1.476465	 -0.371439	 -0.197746	 0.697338	 -0.645765	 0.240009	 1
1463569282.745	 5	 -0.007511	 -0.023242	 0.016754	 2.140627	 -1.476364	 -0.370620	 -0.197810	 0.697357	 -0.645698	 0.240081	 1
1463569282.755	 5	 -0.010731	 -0.025375	 0.014630	 2.141253	 -1.476247	 -0.369750	 -0.197884	 0.697376	 -0.645622	 0.240169	 1
1463569282.765	 5	 -0.013901	 -0.022144	 0.018950	 2.141999	 -1.476109	 -0.368770	 -0.197953	 0.697404	 -0.645538	 0.240255	 1
1463569282.775	 5	 -0.019170	 -0.011460	 0.023358	 2.143561	 -1.475791	 -0.367077	 -0.197967	 0.697506	 -0.645397	 0.240326	 1
1463569282.785	 5	 -0.017100	 -0.014692	 0.014801	 2.144242	 -1.475574	 -0.366264	 -0.197981	 0.697564	 -0.645304	 0.240398	 1
1463569282.795	 5	 -0.017141	 -0.023201	 0.014722	 2.145127	 -1.475374	 -0.365173	 -0.198031	 0.697614	 -0.645202	 0.240485	 1
1463569282.805	 5	 -0.010783	 -0.032794	 0.014577	 2.144782	 -1.475172	 -0.365219	 -0.198080	 0.697629	 -0.645115	 0.240634	 1
1463569282.815	 5	 -0.010791	 -0.037025	 0.017735	 2.144007	 -1.474978	 -0.365633	 -0.198141	 0.697627	 -0.645032	 0.240813	 1
1463569282.825	 5	 -0.010759	 -0.028532	 0.015683	 2.143261	 -1.474743	 -0.366066	 -0.198178	 0.697640	 -0.644942	 0.240985	 1
1463569282.835	 5	 -0.013866	 -0.010424	 0.018010	 2.143463	 -1.474484	 -0.365702	 -0.198181	 0.697695	 -0.644843	 0.241088	 1
1463569282.845	 5	 -0.015927	 0.007641	 0.014999	 2.144377	 -1.474231	 -0.364817	 -0.198137	 0.697783	 -0.644753	 0.241110	 1
1463569282.855	 5	 -0.028520	 0.048138	 0.020815	 2.146332	 -1.473645	 -0.363243	 -0.197923	 0.698014	 -0.644587	 0.241062	 1
1463569282.865	 5	 -0.040228	 0.050338	 0.026268	 2.147565	 -1.472957	 -0.362504	 -0.197627	 0.698268	 -0.644419	 0.241018	 1
1463569282.875	 5	 -0.032814	 0.038616	 0.026096	 2.148191	 -1.472350	 -0.362283	 -0.197365	 0.698478	 -0.644277	 0.241002	 1
1463569282.885	 5	 -0.025343	 0.034377	 0.031321	 2.148223	 -1.471819	 -0.362592	 -0.197126	 0.698650	 -0.644163	 0.241006	 1
1463569282.895	 5	 -0.021044	 0.039690	 0.032400	 2.147189	 -1.471310	 -0.364006	 -0.196850	 0.698796	 -0.644083	 0.241022	 1
1463569282.905	 5	 -0.019967	 0.041814	 0.032410	 2.147367	 -1.470929	 -0.364245	 -0.196622	 0.698939	 -0.644018	 0.240965	 1
1463569282.915	 5	 -0.026373	 0.042882	 0.030343	 2.148876	 -1.470645	 -0.363155	 -0.196453	 0.699087	 -0.643952	 0.240850	 1
1463569282.925	 5	 -0.034916	 0.046059	 0.025118	 2.151394	 -1.470373	 -0.361089	 -0.196303	 0.699258	 -0.643872	 0.240694	 1
1463569282.935	 5	 -0.035947	 0.057768	 0.023113	 2.154827	 -1.470100	 -0.358190	 -0.196150	 0.699457	 -0.643780	 0.240485	 1
1463569282.945	 5	 -0.042246	 0.083284	 0.019142	 2.158869	 -1.469688	 -0.354900	 -0.195907	 0.699727	 -0.643659	 0.240218	 1
1463569282.955	 5	 -0.047468	 0.104596	 0.022583	 2.163770	 -1.469188	 -0.350994	 -0.195585	 0.700063	 -0.643523	 0.239867	 1
1463569282.965	 5	 -0.051635	 0.104795	 0.048199	 2.169200	 -1.468686	 -0.346626	 -0.195255	 0.700418	 -0.643382	 0.239477	 1
1463569282.975	 5	 -0.054855	 0.092117	 0.058765	 2.172804	 -1.467960	 -0.343982	 -0.194862	 0.700782	 -0.643202	 0.239218	 1
1463569282.985	 5	 -0.048430	 0.077377	 0.082018	 2.175865	 -1.467208	 -0.341743	 -0.194496	 0.701128	 -0.643008	 0.239022	 1
1463569282.995	 5	 -0.058114	 0.056171	 0.087233	 2.176332	 -1.466241	 -0.341904	 -0.194076	 0.701453	 -0.642785	 0.239009	 1
1463569283.005	 5	 -0.059306	 0.038022	 0.077482	 2.177055	 -1.465332	 -0.341598	 -0.193751	 0.701749	 -0.642547	 0.239044	 1
1463569283.015	 5	 -0.057303	 0.020904	 0.064516	 2.177952	 -1.464628	 -0.340953	 -0.193534	 0.701979	 -0.642347	 0.239083	 1
1463569283.025	 5	 -0.074538	 -0.024682	 0.078095	 2.178485	 -1.463973	 -0.340304	 -0.193447	 0.702152	 -0.642126	 0.239241	 1
1463569283.035	 5	 -0.100265	 -0.077541	 0.111931	 2.178912	 -1.462864	 -0.339193	 -0.193456	 0.702386	 -0.641703	 0.239678	 1
1463569283.045	 5	 -0.070597	 -0.199289	 0.202194	 2.170741	 -1.461528	 -0.345630	 -0.193521	 0.702378	 -0.641287	 0.240762	 1
1463569283.055	 5	 -0.060752	 -0.187277	 0.249113	 2.163103	 -1.458926	 -0.351389	 -0.193366	 0.702689	 -0.640470	 0.242149	 1
1463569283.065	 5	 -0.066000	 -0.128051	 0.200685	 2.155973	 -1.456785	 -0.357090	 -0.193163	 0.702927	 -0.639839	 0.243285	 1
1463569283.075	 5	 -0.067972	 -0.082408	 0.187272	 2.151006	 -1.454854	 -0.361197	 -0.192871	 0.703214	 -0.639290	 0.244131	 1
1463569283.085	 5	 -0.063826	 -0.141674	 0.228252	 2.144487	 -1.452706	 -0.366542	 -0.192584	 0.703479	 -0.638683	 0.245177	 1
1463569283.095	 5	 -0.060946	 -0.282518	 0.314307	 2.132485	 -1.450500	 -0.376173	 -0.192519	 0.703488	 -0.638066	 0.246804	 1
1463569283.105	 5	 -0.055150	 -0.465009	 0.378635	 2.116519	 -1.447087	 -0.388046	 -0.192634	 0.703502	 -0.637011	 0.249388	 1
1463569283.115	 5	 -0.034283	 -0.587202	 0.403961	 2.097421	 -1.443430	 -0.401582	 -0.193079	 0.703308	 -0.635816	 0.252618	 1
1463569283.125	 5	 -0.005511	 -0.590526	 0.397285	 2.077110	 -1.439910	 -0.416088	 -0.193575	 0.702976	 -0.634697	 0.255955	 1
1463569283.135	 5	 0.008521	 -0.549154	 0.387955	 2.056889	 -1.436557	 -0.430785	 -0.193992	 0.702588	 -0.633690	 0.259181	 1
1463569283.145	 5	 0.025057	 -0.417485	 0.364524	 2.038598	 -1.433398	 -0.444641	 -0.194120	 0.702281	 -0.632845	 0.261966	 1
1463569283.155	 5	 0.062401	 -0.195279	 0.367332	 2.021175	 -1.430360	 -0.459709	 -0.193561	 0.702140	 -0.632307	 0.264048	 1
1463569283.165	 5	 0.106814	 -0.059238	 0.371409	 2.003089	 -1.427381	 -0.477081	 -0.192403	 0.702083	 -0.632059	 0.265635	 1
1463569283.175	 5	 0.152965	 0.013863	 0.350372	 1.984132	 -1.424743	 -0.496244	 -0.190967	 0.701969	 -0.632093	 0.266890	 1
1463569283.185	 5	 0.141171	 0.003254	 0.349310	 1.965904	 -1.422124	 -0.514764	 -0.189521	 0.701847	 -0.632153	 0.268096	 1
1463569283.195	 5	 0.110060	 -0.039131	 0.358779	 1.949650	 -1.419259	 -0.530947	 -0.188194	 0.701783	 -0.632057	 0.269422	 1
1463569283.205	 5	 0.110697	 -0.152746	 0.385426	 1.933089	 -1.416134	 -0.546481	 -0.187107	 0.701633	 -0.631811	 0.271139	 1
1463569283.215	 5	 0.096419	 -0.254669	 0.404851	 1.915851	 -1.412757	 -0.561644	 -0.186281	 0.701368	 -0.631424	 0.273288	 1
1463569283.225	 5	 0.043990	 -0.343343	 0.475889	 1.899823	 -1.408645	 -0.574561	 -0.185635	 0.701158	 -0.630698	 0.275929	 1
1463569283.235	 5	 -0.005991	 -0.355533	 0.534827	 1.885988	 -1.403708	 -0.584981	 -0.184916	 0.701131	 -0.629664	 0.278827	 1
1463569283.245	 5	 -0.042953	 -0.320974	 0.591956	 1.874334	 -1.398111	 -0.593451	 -0.183981	 0.701306	 -0.628432	 0.281769	 1
1463569283.255	 5	 -0.068202	 -0.292825	 0.649989	 1.864228	 -1.391848	 -0.600703	 -0.182771	 0.701667	 -0.627039	 0.284748	 1
1463569283.265	 5	 -0.073515	 -0.334947	 0.706129	 1.854176	 -1.384997	 -0.607685	 -0.181442	 0.702072	 -0.625499	 0.287968	 1
1463569283.275	 5	 -0.069328	 -0.415250	 0.781014	 1.842901	 -1.377503	 -0.615142	 -0.180112	 0.702405	 -0.623794	 0.291663	 1
1463569283.285	 5	 -0.124990	 -0.668471	 1.040254	 1.829775	 -1.368086	 -0.622655	 -0.178731	 0.702733	 -0.621517	 0.296542	 1
1463569283.295	 5	 -0.105414	 -0.773313	 1.257589	 1.813121	 -1.355883	 -0.631834	 -0.176967	 0.703043	 -0.618577	 0.302945	 1
1463569283.305	 5	 -0.001387	 -0.777960	 1.391992	 1.792613	 -1.342650	 -0.644843	 -0.174661	 0.703116	 -0.615724	 0.309847	 1
1463569283.315	 5	 -0.008684	 -0.657584	 1.561566	 1.772324	 -1.327802	 -0.658527	 -0.171465	 0.703335	 -0.612741	 0.316967	 1
1463569283.325	 5	 -0.042372	 -0.473338	 1.727702	 1.755914	 -1.311161	 -0.670129	 -0.167163	 0.704048	 -0.609469	 0.323915	 1
1463569283.335	 5	 -0.027835	 -0.399415	 1.807129	 1.741481	 -1.293435	 -0.680868	 -0.162134	 0.704959	 -0.606078	 0.330779	 1
1463569283.345	 5	 0.031586	 -0.441332	 1.771052	 1.726889	 -1.275889	 -0.691624	 -0.157122	 0.705624	 -0.602811	 0.337678	 1
1463569283.355	 5	 0.072806	 -0.500175	 1.740304	 1.711697	 -1.258719	 -0.702471	 -0.152302	 0.705949	 -0.599693	 0.344687	 1
1463569283.365	 5	 0.047641	 -0.611949	 1.717102	 1.697238	 -1.241739	 -0.711611	 -0.147853	 0.706056	 -0.596470	 0.351920	 1
1463569283.375	 5	 -0.028188	 -0.840491	 1.704978	 1.683913	 -1.224770	 -0.717541	 -0.144134	 0.705951	 -0.592839	 0.359722	 1
