% Gyrometer data recorded with 'snsrlog'
% 
% 
% Label description:
% 	 0: Default Label
% 	 1: still_drop
% 	 2: walk_drop
% 	 3: other
% 	 4: dtw_same
% 	 5: dtw_diff
% 	 6: delete
% 
% Column description:
% 	 1: Seconds.milliseconds since 1970
% 	 2: Number of skipped measurements
% 	 3: Gyro X
% 	 4: Gyro Y
% 	 5: Gyro Z
% 	 6: Roll of the device
% 	 7: Pitch of the device
% 	 8: Yaw of the device
% 	 9: Quaternion X
% 	 10: Quaternion Y
% 	 11: Quaternion Z
% 	 12: Quaternion W
% 	 13: Label used for the current sample
% 
% 
1462091883.801	 1	 -0.755913	 2.153036	 -2.586295	 0.614889	 0.290232	 -0.350127	 0.187874	 0.270861	 -0.121166	 0.936299	 2
1462091883.811	 1	 -0.901671	 2.490482	 -2.606399	 0.643724	 0.267867	 -0.366971	 0.181750	 0.285125	 -0.130006	 0.932078	 2
1462091883.831	 2	 -1.476550	 2.866585	 -2.163062	 0.703064	 0.219380	 -0.388433	 0.166900	 0.315997	 -0.143120	 0.922934	 2
1462091883.841	 2	 -1.728639	 3.186061	 -2.064108	 0.735002	 0.193118	 -0.393163	 0.158087	 0.333150	 -0.147456	 0.917756	 2
1462091883.851	 2	 -1.793763	 3.719435	 -2.167285	 0.771337	 0.165494	 -0.396476	 0.148913	 0.352467	 -0.151369	 0.911416	 2
1462091883.861	 2	 -1.570393	 4.233805	 -2.427687	 0.813202	 0.137148	 -0.401386	 0.140326	 0.374095	 -0.156110	 0.903322	 2
1462091883.871	 2	 -1.059805	 4.562187	 -2.698715	 0.859178	 0.109542	 -0.410165	 0.133418	 0.397022	 -0.162543	 0.893394	 2
1462091883.881	 2	 -0.321885	 4.760247	 -2.808807	 0.907679	 0.084691	 -0.423953	 0.129354	 0.420217	 -0.170781	 0.881770	 2
1462091883.891	 2	 0.495062	 4.872763	 -2.803150	 0.957562	 0.063842	 -0.443095	 0.128817	 0.442984	 -0.180588	 0.868654	 2
1462091883.901	 2	 1.056646	 4.907432	 -2.782138	 1.007791	 0.045975	 -0.466458	 0.131148	 0.464992	 -0.191543	 0.854339	 2
1462091883.911	 2	 1.080068	 4.813584	 -2.953738	 1.057239	 0.026752	 -0.490812	 0.133723	 0.486381	 -0.203226	 0.839196	 2
1462091883.921	 2	 0.674034	 4.455662	 -3.193330	 1.103087	 0.002869	 -0.512595	 0.134017	 0.506576	 -0.215183	 0.824085	 2
1462091883.931	 2	 0.021529	 4.048981	 -3.363020	 1.144390	 -0.026309	 -0.528692	 0.130789	 0.525514	 -0.226516	 0.809580	 2
1462091883.941	 2	 -0.605652	 3.651023	 -3.346342	 1.181504	 -0.058958	 -0.537805	 0.124312	 0.543240	 -0.236379	 0.795966	 2
1462091883.951	 2	 -1.023179	 3.278646	 -3.237464	 1.214967	 -0.092780	 -0.541010	 0.115673	 0.559630	 -0.244681	 0.783305	 2
1462091883.961	 2	 -1.221785	 3.153537	 -3.116468	 1.246563	 -0.126314	 -0.540292	 0.106075	 0.575088	 -0.251764	 0.771127	 2
1462091883.971	 2	 -1.160907	 3.456972	 -3.196238	 1.280467	 -0.160102	 -0.538479	 0.096576	 0.591075	 -0.258685	 0.757882	 2
1462091883.981	 2	 -0.617813	 3.962079	 -3.284725	 1.318685	 -0.193740	 -0.539582	 0.088830	 0.608044	 -0.266783	 0.742441	 2
1462091883.991	 2	 0.193081	 4.003715	 -3.375593	 1.357054	 -0.226344	 -0.547494	 0.083950	 0.624178	 -0.277355	 0.725554	 2
1462091884.001	 2	 0.690467	 4.083610	 -3.450586	 1.394671	 -0.258935	 -0.560300	 0.080967	 0.639341	 -0.289856	 0.707581	 2
1462091884.011	 2	 0.819693	 3.867412	 -3.437737	 1.430368	 -0.291658	 -0.574263	 0.078525	 0.653304	 -0.302929	 0.689392	 2
1462091884.021	 2	 0.565969	 3.277573	 -3.476186	 1.461347	 -0.325133	 -0.585555	 0.074667	 0.665335	 -0.315522	 0.672458	 2
1462091884.041	 3	 -0.740942	 1.548088	 -4.011650	 1.505139	 -0.400568	 -0.588111	 0.055162	 0.683190	 -0.337479	 0.645226	 2
1462091884.051	 3	 -1.446185	 0.731950	 -4.344556	 1.519034	 -0.443881	 -0.576841	 0.038020	 0.689342	 -0.346516	 0.635050	 2
1462091884.061	 3	 -1.937736	 0.119001	 -4.585776	 1.529793	 -0.489999	 -0.558697	 0.017021	 0.693993	 -0.354435	 0.626466	 2
1462091884.071	 3	 -2.136688	 -0.145756	 -4.654717	 1.539626	 -0.537228	 -0.536466	 -0.005906	 0.697551	 -0.361587	 0.618581	 2
1462091884.081	 3	 -2.018798	 0.048665	 -4.490873	 1.551633	 -0.583186	 -0.513411	 -0.028195	 0.700862	 -0.368316	 0.610197	 2
1462091884.091	 3	 -1.557696	 0.695298	 -4.163813	 1.568077	 -0.625905	 -0.493401	 -0.047323	 0.704740	 -0.375333	 0.600189	 2
1462091884.101	 3	 -0.717296	 1.636731	 -3.805339	 1.589234	 -0.664676	 -0.481187	 -0.061246	 0.709581	 -0.383902	 0.587676	 2
1462091884.111	 3	 0.415434	 2.431653	 -3.291975	 1.611662	 -0.699108	 -0.481469	 -0.068738	 0.714780	 -0.395063	 0.572966	 2
1462091884.121	 3	 1.510446	 2.969776	 -2.565389	 1.630419	 -0.727257	 -0.496196	 -0.069371	 0.719336	 -0.408328	 0.557685	 2
1462091884.131	 3	 2.231839	 3.530938	 -1.892887	 1.646641	 -0.749090	 -0.522393	 -0.064002	 0.723635	 -0.422592	 0.541915	 2
1462091884.141	 3	 2.578830	 3.808088	 -1.375369	 1.661859	 -0.766116	 -0.555133	 -0.054630	 0.727860	 -0.436827	 0.525754	 2
1462091884.151	 3	 2.638832	 3.587959	 -1.052882	 1.673968	 -0.779829	 -0.590303	 -0.043749	 0.731232	 -0.450258	 0.510542	 2
1462091884.161	 3	 2.448135	 3.056932	 -0.876049	 1.681987	 -0.791565	 -0.624244	 -0.033448	 0.733396	 -0.462364	 0.497223	 2
1462091884.171	 3	 2.044846	 2.388152	 -0.860643	 1.686704	 -0.802514	 -0.653468	 -0.025307	 0.734535	 -0.472748	 0.486135	 2
1462091884.191	 4	 1.138550	 0.839299	 -0.966280	 1.686540	 -0.824295	 -0.692736	 -0.018270	 0.734083	 -0.488254	 0.471590	 2
1462091884.201	 4	 0.817317	 0.166904	 -0.976135	 1.681387	 -0.835043	 -0.704179	 -0.018970	 0.732582	 -0.493848	 0.468058	 2
1462091884.211	 4	 0.618949	 -0.348647	 -0.868366	 1.672788	 -0.844717	 -0.712593	 -0.021304	 0.730305	 -0.498351	 0.466741	 2
1462091884.221	 4	 0.518171	 -0.641291	 -0.636810	 1.661670	 -0.852221	 -0.719664	 -0.024060	 0.727524	 -0.501883	 0.467165	 2
1462091884.231	 4	 0.502910	 -0.751667	 -0.316909	 1.648970	 -0.856639	 -0.726756	 -0.026192	 0.724492	 -0.504549	 0.468888	 2
1462091884.241	 4	 0.539718	 -0.687724	 0.008423	 1.635805	 -0.857720	 -0.734714	 -0.027014	 0.721470	 -0.506525	 0.471364	 2
1462091884.251	 4	 0.584469	 -0.556515	 0.372679	 1.623109	 -0.855264	 -0.743729	 -0.026140	 0.718657	 -0.507857	 0.474268	 2
1462091884.261	 4	 0.601517	 -0.395618	 0.712940	 1.611549	 -0.849223	 -0.753243	 -0.023567	 0.716171	 -0.508440	 0.477528	 2
1462091884.271	 4	 0.617446	 -0.197906	 0.996002	 1.601791	 -0.840177	 -0.762977	 -0.019411	 0.714117	 -0.508385	 0.480837	 2
1462091884.281	 4	 0.586236	 -0.019369	 1.255850	 1.594211	 -0.828415	 -0.772364	 -0.013872	 0.712546	 -0.507637	 0.484140	 2
1462091884.291	 4	 0.532352	 0.130284	 1.483653	 1.588987	 -0.814240	 -0.780792	 -0.007222	 0.711471	 -0.506109	 0.487454	 2
1462091884.301	 4	 0.473928	 0.259424	 1.667609	 1.585875	 -0.798086	 -0.788236	 0.000316	 0.710818	 -0.503878	 0.490758	 2
1462091884.311	 4	 0.402786	 0.435156	 1.818005	 1.585222	 -0.780331	 -0.794613	 0.008663	 0.710669	 -0.500986	 0.493849	 2
1462091884.321	 4	 0.191544	 0.567519	 1.944704	 1.587889	 -0.761215	 -0.798666	 0.017489	 0.711253	 -0.497132	 0.496661	 2
1462091884.331	 4	 -0.431157	 0.308070	 1.849661	 1.593816	 -0.742229	 -0.795789	 0.024593	 0.712655	 -0.491488	 0.499958	 2
1462091884.341	 4	 -1.163555	 0.022098	 1.573082	 1.603003	 -0.725533	 -0.783025	 0.028118	 0.715021	 -0.483811	 0.503867	 2
1462091884.351	 4	 -1.578077	 0.197350	 1.518639	 1.616781	 -0.709856	 -0.763927	 0.030034	 0.718701	 -0.474603	 0.507267	 2
1462091884.371	 5	 -1.216136	 1.268875	 2.169179	 1.656781	 -0.670332	 -0.729176	 0.040355	 0.729397	 -0.454083	 0.510060	 2
1462091884.381	 5	 -0.785666	 1.541114	 2.483430	 1.676665	 -0.645507	 -0.720954	 0.050250	 0.734629	 -0.444362	 0.510233	 2
1462091884.391	 5	 -0.501530	 1.746227	 2.575586	 1.695611	 -0.619312	 -0.717613	 0.062006	 0.739487	 -0.435231	 0.509793	 2
1462091884.401	 5	 -0.210367	 1.872652	 2.380258	 1.713704	 -0.594713	 -0.718134	 0.074306	 0.743951	 -0.427324	 0.508340	 2
1462091884.411	 5	 0.142596	 2.050394	 2.099609	 1.731268	 -0.573380	 -0.722652	 0.086766	 0.748055	 -0.421215	 0.505434	 2
1462091884.421	 5	 0.485515	 2.134570	 1.819243	 1.747971	 -0.555469	 -0.731098	 0.099296	 0.751675	 -0.416991	 0.501242	 2
1462091884.431	 5	 0.738511	 2.030802	 1.692446	 1.762757	 -0.539922	 -0.742646	 0.111760	 0.754541	 -0.414205	 0.496601	 2
1462091884.441	 5	 0.867476	 1.767732	 1.695270	 1.774208	 -0.524940	 -0.756092	 0.124026	 0.756322	 -0.412111	 0.492706	 2
1462091884.461	 6	 1.028248	 1.309109	 1.878242	 1.789623	 -0.493990	 -0.786292	 0.148481	 0.757310	 -0.408591	 0.487327	 2
1462091884.481	 7	 0.686260	 0.756118	 1.605371	 1.795556	 -0.463967	 -0.815396	 0.170166	 0.755446	 -0.405576	 0.485647	 2
1462091884.491	 7	 -0.089156	 0.519231	 1.186810	 1.799430	 -0.451565	 -0.819918	 0.176545	 0.755511	 -0.402350	 0.485953	 2
1462091884.501	 7	 -0.836048	 0.020393	 0.737854	 1.803127	 -0.441801	 -0.814916	 0.178444	 0.756457	 -0.397647	 0.487655	 2
1462091884.511	 7	 -1.378326	 -0.442820	 0.444115	 1.804889	 -0.433974	 -0.802757	 0.176629	 0.757649	 -0.391968	 0.491052	 2
1462091884.521	 7	 -1.824962	 -0.629004	 0.256565	 1.806148	 -0.427034	 -0.785162	 0.172363	 0.759219	 -0.385242	 0.495446	 2
1462091884.531	 7	 -2.262415	 -0.377651	 -0.019714	 1.811197	 -0.421452	 -0.762247	 0.166346	 0.762206	 -0.377268	 0.499039	 2
1462091884.541	 7	 -2.398591	 -0.549080	 -0.247131	 1.816983	 -0.417594	 -0.736368	 0.158738	 0.765627	 -0.369026	 0.502431	 2
1462091884.551	 7	 -2.034749	 -0.915825	 -0.365617	 1.818160	 -0.415612	 -0.712509	 0.150422	 0.767708	 -0.362245	 0.506731	 2
1462091884.561	 7	 -1.132103	 -0.723882	 -0.372755	 1.816330	 -0.415957	 -0.696855	 0.143973	 0.768404	 -0.358517	 0.510188	 2
1462091884.571	 7	 -0.131678	 0.075861	 -0.127833	 1.816447	 -0.416982	 -0.692399	 0.141963	 0.768779	 -0.357721	 0.510745	 2
1462091884.581	 7	 0.699638	 1.181712	 0.166172	 1.823344	 -0.417348	 -0.697948	 0.145220	 0.770145	 -0.358763	 0.507028	 2
1462091884.591	 7	 1.461777	 1.945741	 0.376601	 1.835364	 -0.417257	 -0.712285	 0.152940	 0.772100	 -0.361445	 0.499829	 2
1462091884.601	 7	 2.513047	 2.036711	 0.292625	 1.845780	 -0.420159	 -0.737007	 0.163499	 0.772803	 -0.367734	 0.490728	 2
1462091884.611	 7	 3.324198	 1.847166	 0.003503	 1.850996	 -0.427988	 -0.770458	 0.175000	 0.771477	 -0.378076	 0.480892	 2
1462091884.631	 8	 2.201840	 1.707224	 -0.826782	 1.858572	 -0.453586	 -0.831450	 0.192185	 0.768521	 -0.400287	 0.460663	 2
1462091884.641	 8	 0.066590	 1.744830	 -1.633807	 1.875532	 -0.468979	 -0.833233	 0.191634	 0.772722	 -0.404150	 0.450378	 2
1462091884.651	 8	 -1.104035	 0.516859	 -2.037899	 1.892356	 -0.485012	 -0.816450	 0.183714	 0.778491	 -0.404145	 0.443699	 2
1462091884.661	 8	 -0.442676	 -1.356122	 -1.765870	 1.890003	 -0.500458	 -0.802195	 0.173053	 0.779562	 -0.406339	 0.444099	 2
1462091884.671	 9	 0.875859	 -2.041895	 -1.344637	 1.869710	 -0.515879	 -0.803199	 0.164622	 0.775228	 -0.413377	 0.448375	 2
1462091884.691	 9	 1.941559	 -0.386629	 -0.727832	 1.830531	 -0.543673	 -0.836053	 0.160416	 0.764306	 -0.432896	 0.450227	 2
1462091884.701	 9	 1.794148	 0.785286	 -0.812628	 1.825597	 -0.555680	 -0.854694	 0.162704	 0.761966	 -0.441233	 0.445251	 2
1462091884.721	 10	 1.456333	 1.949907	 -1.539554	 1.844150	 -0.588095	 -0.882465	 0.167360	 0.764392	 -0.455771	 0.424227	 2
1462091884.731	 10	 1.452076	 1.972257	 -1.832394	 1.857768	 -0.609030	 -0.893418	 0.168190	 0.766675	 -0.463336	 0.411389	 2
1462091884.741	 10	 1.429257	 1.882121	 -2.097343	 1.871158	 -0.632659	 -0.903136	 0.167752	 0.768870	 -0.471381	 0.398118	 2
1462091884.751	 10	 1.283699	 1.739594	 -2.303094	 1.884634	 -0.658150	 -0.910438	 0.165919	 0.771094	 -0.479409	 0.384776	 2
1462091884.761	 10	 1.056712	 1.283703	 -2.486539	 1.896531	 -0.684836	 -0.914159	 0.162039	 0.773091	 -0.487173	 0.372474	 2
1462091884.781	 11	 0.657385	 -0.934552	 -2.587899	 1.898623	 -0.738786	 -0.911479	 0.144930	 0.773315	 -0.502554	 0.358357	 2
1462091884.791	 11	 0.659184	 -2.305152	 -2.386450	 1.880381	 -0.764084	 -0.909385	 0.131654	 0.769840	 -0.510808	 0.359290	 2
1462091884.801	 11	 0.792271	 -3.266233	 -2.127980	 1.848918	 -0.787221	 -0.910555	 0.116721	 0.763719	 -0.519553	 0.364931	 2
1462091884.811	 11	 0.932594	 -3.560779	 -1.914527	 1.809837	 -0.808523	 -0.915845	 0.101671	 0.755921	 -0.528530	 0.372697	 2
1462091884.821	 11	 0.963420	 -3.284101	 -1.736370	 1.770128	 -0.827968	 -0.923937	 0.087794	 0.747835	 -0.537096	 0.380213	 2
1462091884.831	 11	 0.911010	 -2.738450	 -1.608274	 1.734488	 -0.845728	 -0.933124	 0.075687	 0.740478	 -0.544853	 0.386132	 2
1462091884.841	 11	 0.920744	 -2.310462	 -1.546825	 1.702710	 -0.862478	 -0.943361	 0.065118	 0.733856	 -0.552085	 0.390407	 2
1462091884.851	 11	 1.042148	 -1.939384	 -1.514588	 1.672646	 -0.878760	 -0.956106	 0.055884	 0.727541	 -0.559354	 0.393298	 2
1462091884.861	 11	 1.232959	 -1.566324	 -1.474410	 1.643189	 -0.894587	 -0.972732	 0.048172	 0.721327	 -0.567002	 0.394810	 2
1462091884.871	 11	 1.394676	 -1.262232	 -1.422898	 1.613778	 -0.909696	 -0.993275	 0.041908	 0.715147	 -0.575014	 0.395181	 2
1462091884.881	 11	 1.458028	 -1.038329	 -1.322250	 1.584407	 -0.923643	 -1.016474	 0.036778	 0.709049	 -0.583069	 0.394877	 2
1462091884.891	 11	 1.387375	 -0.805821	 -1.115911	 1.556815	 -0.935375	 -1.040121	 0.032889	 0.703399	 -0.590529	 0.394239	 2
1462091884.901	 11	 1.219476	 -0.625997	 -0.880439	 1.532595	 -0.944411	 -1.061942	 0.030134	 0.698497	 -0.596905	 0.393572	 2
1462091884.911	 11	 1.039281	 -0.657875	 -0.802432	 1.510647	 -0.951900	 -1.081183	 0.027576	 0.694120	 -0.602349	 0.393208	 2
1462091884.921	 11	 0.877605	 -0.890016	 -1.198582	 1.488372	 -0.961829	 -1.098350	 0.023212	 0.689865	 -0.607707	 0.392734	 2
1462091884.931	 11	 0.761546	 -1.244760	 -2.055614	 1.462860	 -0.979253	 -1.115357	 0.014978	 0.685375	 -0.614112	 0.391027	 2
1462091884.941	 11	 0.630063	 -1.677316	 -2.942011	 1.432005	 -1.005513	 -1.133559	 0.002133	 0.680399	 -0.621761	 0.387899	 2
1462091884.961	 12	 0.410748	 -2.628330	 -4.369612	 1.345825	 -1.079987	 -1.179915	 -0.036691	 0.667893	 -0.639424	 0.379091	 2
1462091884.971	 12	 0.335377	 -2.872569	 -4.785810	 1.287480	 -1.124566	 -1.213703	 -0.060699	 0.660299	 -0.648759	 0.373407	 2
1462091884.981	 12	 0.171251	 -3.102285	 -4.995404	 1.218943	 -1.170549	 -1.255613	 -0.086323	 0.652231	 -0.657385	 0.367408	 2
1462091884.991	 12	 -0.068419	 -3.230308	 -4.999830	 1.141273	 -1.216547	 -1.304982	 -0.112972	 0.644212	 -0.664586	 0.361322	 2
1462091885.001	 12	 -0.190181	 -3.124152	 -4.344470	 1.054273	 -1.257821	 -1.363529	 -0.138403	 0.636252	 -0.670198	 0.356178	 2
1462091885.011	 12	 -0.141953	 -2.576442	 -3.599088	 0.965609	 -1.290672	 -1.427514	 -0.159864	 0.629125	 -0.674318	 0.352053	 2
1462091885.021	 12	 0.055567	 -1.735337	 -2.962050	 0.877458	 -1.315460	 -1.498680	 -0.176199	 0.623092	 -0.678126	 0.347643	 2
1462091885.031	 12	 0.300510	 -0.864880	 -2.511660	 0.789839	 -1.333184	 -1.577909	 -0.187550	 0.618041	 -0.682394	 0.342327	 2
1462091885.041	 12	 0.525467	 -0.244464	 -2.228616	 0.701129	 -1.345259	 -1.665175	 -0.195090	 0.613596	 -0.687370	 0.336099	 2
1462091885.051	 12	 0.702640	 0.090046	 -2.083168	 0.609090	 -1.352875	 -1.759719	 -0.200376	 0.609253	 -0.692929	 0.329408	 2
1462091885.061	 12	 0.795799	 0.146234	 -2.070667	 0.511838	 -1.357272	 -1.860826	 -0.204850	 0.604700	 -0.698811	 0.322549	 2
1462091885.071	 12	 0.789197	 -0.115450	 -2.078373	 0.408682	 -1.359379	 -1.966024	 -0.209954	 0.599698	 -0.704497	 0.316173	 2
1462091885.081	 12	 0.685798	 -0.577517	 -2.037010	 0.302847	 -1.359801	 -2.069605	 -0.216556	 0.594266	 -0.709364	 0.311052	 2
1462091885.091	 12	 0.514152	 -1.052999	 -1.966403	 0.197311	 -1.359303	 -2.167921	 -0.224904	 0.588638	 -0.713045	 0.307392	 2
1462091885.101	 12	 0.319883	 -1.360250	 -1.880178	 0.094323	 -1.358424	 -2.259992	 -0.234548	 0.583151	 -0.715546	 0.304820	 2
1462091885.111	 12	 0.096601	 -1.518214	 -1.752878	 -0.003544	 -1.357670	 -2.344975	 -0.244803	 0.578199	 -0.716945	 0.302899	 2
1462091885.121	 12	 -0.251125	 -1.675061	 -1.522171	 -0.093704	 -1.358431	 -2.420478	 -0.255475	 0.574290	 -0.716858	 0.301726	 2
1462091885.131	 12	 -0.818025	 -1.814245	 -1.144448	 -0.173906	 -1.363333	 -2.484275	 -0.266434	 0.572344	 -0.714522	 0.301485	 2
1462091885.141	 12	 -1.577041	 -1.957302	 -0.498647	 -0.239501	 -1.375389	 -2.531603	 -0.277297	 0.573406	 -0.709000	 0.302706	 2
1462091885.151	 12	 -2.529103	 -2.071294	 0.410216	 -0.282661	 -1.397873	 -2.554734	 -0.287464	 0.578573	 -0.699286	 0.305967	 2
1462091885.161	 12	 -3.512163	 -2.246445	 1.379529	 -0.294392	 -1.432504	 -2.544388	 -0.296792	 0.588178	 -0.684770	 0.311529	 2
1462091885.181	 13	 -4.419618	 -2.614206	 2.805735	 0.050767	 -1.524605	 -2.148032	 -0.312889	 0.615665	 -0.643972	 0.329178	 2
1462091885.191	 13	 -3.872082	 -2.138322	 2.795804	 1.371657	 -1.540022	 -0.803274	 -0.318132	 0.629085	 -0.622984	 0.339019	 2
1462091885.201	 13	 -3.149987	 -0.580272	 2.189070	 2.030634	 -1.510656	 -0.133440	 -0.319468	 0.641309	 -0.606758	 0.344249	 2
1462091885.211	 13	 -2.619522	 1.452471	 1.402979	 2.237528	 -1.482368	 0.064581	 -0.316177	 0.653712	 -0.596630	 0.341651	 2
1462091885.221	 13	 -2.245644	 3.204813	 0.754192	 2.377943	 -1.460012	 0.177567	 -0.308822	 0.666752	 -0.591793	 0.331439	 2
1462091885.241	 14	 -1.590707	 5.310132	 0.052954	 2.612824	 -1.427249	 0.320567	 -0.285322	 0.693073	 -0.592206	 0.295860	 2
1462091885.251	 14	 -1.199630	 5.558745	 -0.119726	 2.713199	 -1.416103	 0.365987	 -0.271007	 0.704721	 -0.595499	 0.274416	 2
1462091885.271	 15	 -0.713672	 2.835285	 -0.008619	 2.844857	 -1.401569	 0.414766	 -0.248925	 0.720116	 -0.600805	 0.241876	 2
1462091885.281	 15	 -0.883588	 0.865705	 0.393377	 2.856507	 -1.392800	 0.413005	 -0.244891	 0.724558	 -0.599119	 0.236857	 2
1462091885.301	 16	 -1.334066	 -1.588991	 1.399721	 2.776294	 -1.363944	 0.348303	 -0.245037	 0.732032	 -0.586032	 0.246278	 2
1462091885.311	 16	 -1.459891	 -2.240829	 1.663323	 2.713018	 -1.344515	 0.304975	 -0.247021	 0.735536	 -0.576176	 0.256882	 2
1462091885.331	 17	 -1.489791	 -2.204923	 1.615958	 2.602362	 -1.302291	 0.239732	 -0.251958	 0.741849	 -0.554676	 0.280199	 2
1462091885.341	 17	 -1.448225	 -1.590715	 1.409225	 2.568283	 -1.282147	 0.222663	 -0.253460	 0.745205	 -0.544925	 0.288938	 2
1462091885.361	 18	 -1.162019	 0.254039	 1.147867	 2.540236	 -1.247245	 0.202764	 -0.250540	 0.753863	 -0.530583	 0.295638	 2
1462091885.381	 19	 -0.885355	 1.423345	 1.168062	 2.540065	 -1.218269	 0.179571	 -0.239056	 0.764974	 -0.522487	 0.290988	 2
1462091885.391	 19	 -0.824857	 1.534174	 1.221855	 2.541345	 -1.204528	 0.164667	 -0.231656	 0.770779	 -0.519318	 0.287305	 2
1462091885.401	 19	 -0.752477	 1.497769	 1.217689	 2.541757	 -1.191232	 0.148908	 -0.224117	 0.776330	 -0.516298	 0.283759	 2
1462091885.421	 20	 -0.517590	 1.481636	 0.994881	 2.544633	 -1.168864	 0.119855	 -0.209696	 0.786001	 -0.511695	 0.276402	 2
1462091885.431	 20	 -0.396948	 1.377154	 0.862835	 2.547077	 -1.160315	 0.107152	 -0.203148	 0.789950	 -0.510245	 0.272689	 2
1462091885.451	 21	 -0.105620	 1.127766	 0.618181	 2.549836	 -1.148584	 0.083634	 -0.191833	 0.795771	 -0.508947	 0.266313	 2
1462091885.461	 21	 0.024125	 0.985440	 0.404706	 2.551645	 -1.145972	 0.074419	 -0.187410	 0.797574	 -0.509282	 0.263412	 2
1462091885.471	 21	 0.119578	 0.827137	 0.174329	 2.554872	 -1.145504	 0.068435	 -0.184146	 0.798676	 -0.510176	 0.260629	 2
1462091885.481	 21	 0.202198	 0.655115	 -0.046472	 2.559516	 -1.146974	 0.065860	 -0.182096	 0.799127	 -0.511530	 0.258021	 2
1462091885.491	 21	 0.268811	 0.460996	 -0.240696	 2.565150	 -1.150169	 0.066425	 -0.181234	 0.798955	 -0.513262	 0.255710	 2
1462091885.501	 21	 0.303461	 0.254411	 -0.407047	 2.571547	 -1.154642	 0.070086	 -0.181541	 0.798251	 -0.515186	 0.253814	 2
1462091885.511	 21	 0.340507	 0.096801	 -0.565504	 2.578903	 -1.160258	 0.076686	 -0.182877	 0.797083	 -0.517292	 0.252238	 2
1462091885.521	 21	 0.355648	 0.077258	 -0.760852	 2.589177	 -1.167005	 0.087133	 -0.185075	 0.795600	 -0.519652	 0.250456	 2
1462091885.531	 21	 0.349511	 0.338218	 -1.004561	 2.606439	 -1.174878	 0.103126	 -0.187715	 0.794123	 -0.522456	 0.247329	 2
1462091885.541	 21	 0.343108	 0.960046	 -1.206543	 2.634495	 -1.183662	 0.125040	 -0.189861	 0.793074	 -0.525983	 0.241513	 2
1462091885.551	 21	 0.320801	 1.940294	 -1.270765	 2.675169	 -1.192469	 0.150798	 -0.190046	 0.792993	 -0.530372	 0.231839	 2
1462091885.561	 21	 0.237045	 2.917314	 -1.218313	 2.727717	 -1.200166	 0.178304	 -0.187478	 0.794143	 -0.535371	 0.218099	 2
1462091885.571	 21	 -0.142134	 2.844885	 -0.946048	 2.782514	 -1.203872	 0.205145	 -0.183625	 0.796376	 -0.539138	 0.203463	 2
1462091885.581	 21	 -0.463995	 1.556582	 -0.380788	 2.818286	 -1.201770	 0.223048	 -0.181033	 0.798897	 -0.539760	 0.194034	 2
1462091885.591	 21	 -0.219181	 0.209692	 0.254662	 2.823639	 -1.198453	 0.223110	 -0.179500	 0.800351	 -0.538877	 0.191909	 2
1462091885.601	 21	 0.458238	 -0.671820	 0.705234	 2.801850	 -1.199088	 0.204922	 -0.178120	 0.799685	 -0.538952	 0.195722	 2
1462091885.611	 21	 1.152397	 -1.213557	 0.936077	 2.760212	 -1.205217	 0.171937	 -0.176488	 0.796715	 -0.541057	 0.203359	 2
1462091885.621	 21	 1.562115	 -1.657438	 0.905998	 2.706532	 -1.215092	 0.131157	 -0.175473	 0.791905	 -0.544591	 0.213345	 2
1462091885.631	 21	 1.766275	 -1.798394	 0.618350	 2.650112	 -1.227346	 0.090237	 -0.175719	 0.785852	 -0.549035	 0.223877	 2
1462091885.641	 21	 1.800600	 -1.424893	 0.217599	 2.601291	 -1.241512	 0.054838	 -0.176663	 0.779386	 -0.554392	 0.232374	 2
1462091885.661	 22	 1.386738	 -0.373386	 -0.444706	 2.545148	 -1.269616	 0.012436	 -0.179025	 0.768547	 -0.565365	 0.240101	 2
1462091885.681	 23	 -0.050303	 0.788931	 -0.907366	 2.573328	 -1.289902	 0.031401	 -0.180542	 0.764348	 -0.573468	 0.233048	 2
1462091885.691	 23	 -1.177194	 -0.123370	 -0.884728	 2.618095	 -1.286652	 0.076129	 -0.184525	 0.766386	 -0.571129	 0.228944	 2
1462091885.701	 23	 -1.684564	 -1.630681	 -0.820799	 2.656016	 -1.276648	 0.128863	 -0.193144	 0.768701	 -0.564743	 0.229912	 2
1462091885.711	 23	 -1.619834	 -2.189022	 -0.787125	 2.681895	 -1.265467	 0.178439	 -0.204154	 0.770079	 -0.557139	 0.234299	 2
1462091885.721	 23	 -1.135917	 -0.979846	 -0.758772	 2.707000	 -1.257179	 0.219467	 -0.212503	 0.771203	 -0.551626	 0.236213	 2
1462091885.731	 23	 -0.378723	 1.618526	 -0.749712	 2.743997	 -1.255083	 0.248594	 -0.213443	 0.773033	 -0.551332	 0.229991	 2
1462091885.741	 23	 -0.166768	 3.571874	 -1.026465	 2.804799	 -1.256817	 0.279035	 -0.208476	 0.776070	 -0.555056	 0.214861	 2
1462091885.751	 23	 -0.402490	 3.841854	 -1.585689	 2.888806	 -1.257764	 0.326765	 -0.203653	 0.779490	 -0.559196	 0.195501	 2
1462091885.761	 23	 -0.458880	 3.319056	 -2.270040	 2.993048	 -1.262105	 0.399489	 -0.202673	 0.780485	 -0.564782	 0.175465	 2
1462091885.771	 23	 -0.266043	 2.488881	 -2.708946	 3.103110	 -1.261341	 0.486549	 -0.205520	 0.780973	 -0.568474	 0.157100	 2
1462091885.781	 23	 -0.021248	 1.505928	 -2.780973	 -3.076068	 -1.260097	 0.577409	 -0.211422	 0.779638	 -0.572032	 0.142285	 2
1462091885.791	 23	 0.367349	 0.795900	 -2.706768	 -2.981033	 -1.259518	 0.667301	 -0.219193	 0.776610	 -0.575904	 0.131021	 2
1462091885.801	 23	 1.185986	 0.625000	 -2.475690	 -2.890976	 -1.263636	 0.755212	 -0.226574	 0.771439	 -0.581884	 0.122301	 2
1462091885.811	 23	 2.283550	 0.685820	 -2.152162	 -2.796213	 -1.276287	 0.847380	 -0.231996	 0.763376	 -0.591697	 0.115455	 2
1462091885.821	 23	 3.154146	 0.482358	 -1.696963	 -2.693926	 -1.296579	 0.948129	 -0.235562	 0.752705	 -0.604604	 0.111350	 2
1462091885.831	 23	 3.627601	 -0.111267	 -1.084204	 -2.589260	 -1.321654	 1.055869	 -0.238062	 0.740459	 -0.618556	 0.111512	 2
1462091885.841	 23	 3.701744	 -0.997049	 -0.439780	 -2.488618	 -1.348849	 1.167188	 -0.240529	 0.727714	 -0.631600	 0.116870	 2
1462091885.851	 23	 3.348919	 -2.017622	 0.071756	 -2.399724	 -1.375121	 1.276081	 -0.244197	 0.715567	 -0.641974	 0.127288	 2
1462091885.861	 23	 2.736817	 -2.772679	 0.278945	 -2.323008	 -1.397610	 1.380603	 -0.249854	 0.704587	 -0.649064	 0.140874	 2
1462091885.871	 23	 2.089778	 -2.939940	 0.126355	 -2.258187	 -1.413827	 1.476089	 -0.257111	 0.695335	 -0.653072	 0.154601	 2
1462091885.881	 23	 1.579124	 -2.518868	 -0.242560	 -2.191403	 -1.423023	 1.570527	 -0.264937	 0.687473	 -0.655583	 0.165531	 2
1462091885.891	 23	 1.256850	 -1.733702	 -0.635306	 -2.115503	 -1.425791	 1.666856	 -0.272043	 0.680757	 -0.657968	 0.172165	 2
1462091885.901	 23	 1.124137	 -0.913075	 -0.901481	 -2.030466	 -1.423902	 1.764015	 -0.277570	 0.674850	 -0.661065	 0.174713	 2
1462091885.911	 23	 1.138489	 -0.287275	 -0.987438	 -1.939935	 -1.419517	 1.859898	 -0.281283	 0.669379	 -0.665103	 0.174499	 2
1462091885.921	 23	 1.255926	 0.156068	 -0.965151	 -1.844671	 -1.414135	 1.955760	 -0.283289	 0.663962	 -0.670106	 0.172797	 2
1462091885.931	 23	 1.324891	 0.476416	 -0.909483	 -1.748287	 -1.408073	 2.049304	 -0.283859	 0.658579	 -0.675812	 0.170222	 2
1462091885.941	 23	 1.273866	 0.690818	 -0.845229	 -1.658570	 -1.401233	 2.133761	 -0.283417	 0.653507	 -0.681694	 0.167025	 2
1462091885.951	 23	 1.152206	 0.849172	 -0.764896	 -1.580608	 -1.393961	 2.204673	 -0.282220	 0.649011	 -0.687348	 0.163372	 2
1462091885.961	 23	 1.043111	 0.959599	 -0.688315	 -1.513611	 -1.386646	 2.263278	 -0.280419	 0.645083	 -0.692690	 0.159417	 2
1462091885.971	 23	 0.956109	 1.038804	 -0.654848	 -1.455220	 -1.379234	 2.312311	 -0.278218	 0.641573	 -0.697775	 0.155201	 2
1462091885.981	 23	 0.864409	 1.057138	 -0.657076	 -1.404919	 -1.371498	 2.352814	 -0.275937	 0.638368	 -0.702580	 0.150753	 2
1462091885.991	 23	 0.791589	 1.012604	 -0.667514	 -1.362194	 -1.363469	 2.385958	 -0.273836	 0.635373	 -0.707053	 0.146254	 2
1462091886.001	 23	 0.767808	 0.947798	 -0.666844	 -1.324589	 -1.355227	 2.414548	 -0.271975	 0.632426	 -0.711293	 0.141879	 2
1462091886.011	 23	 0.795156	 0.867909	 -0.672089	 -1.289531	 -1.346716	 2.441372	 -0.270369	 0.629334	 -0.715446	 0.137757	 2
1462091886.021	 23	 0.844762	 0.783459	 -0.710608	 -1.256146	 -1.337593	 2.467381	 -0.269109	 0.625955	 -0.719615	 0.133844	 2
1462091886.031	 23	 0.904881	 0.663891	 -0.747414	 -1.224427	 -1.327706	 2.492861	 -0.268321	 0.622211	 -0.723814	 0.130197	 2
1462091886.041	 23	 0.992803	 0.529581	 -0.752627	 -1.193643	 -1.317227	 2.518821	 -0.267997	 0.618049	 -0.728052	 0.127015	 2
1462091886.051	 23	 1.135554	 0.431697	 -0.699361	 -1.161270	 -1.306414	 2.547633	 -0.267861	 0.613373	 -0.732482	 0.124477	 2
1462091886.061	 23	 1.344871	 0.377580	 -0.597243	 -1.124424	 -1.295380	 2.581832	 -0.267547	 0.608045	 -0.737320	 0.122716	 2
1462091886.071	 23	 1.635439	 0.346691	 -0.486023	 -1.080787	 -1.283786	 2.623590	 -0.266841	 0.601815	 -0.742812	 0.121840	 2
1462091886.081	 23	 1.971656	 0.378503	 -0.509970	 -1.030843	 -1.270198	 2.671938	 -0.265799	 0.594341	 -0.749244	 0.121419	 2
1462091886.091	 23	 2.269635	 0.322350	 -0.652702	 -0.979463	 -1.253221	 2.722191	 -0.264956	 0.585457	 -0.756570	 0.120995	 2
1462091886.101	 23	 2.425135	 -0.051611	 -0.823794	 -0.934338	 -1.233025	 2.769152	 -0.265517	 0.575344	 -0.764090	 0.121019	 2
1462091886.111	 23	 2.272334	 -0.857521	 -0.989828	 -0.905280	 -1.211272	 2.806678	 -0.269196	 0.564723	 -0.770502	 0.122258	 2
1462091886.121	 23	 1.574483	 -2.170320	 -1.020480	 -0.903817	 -1.192215	 2.827848	 -0.278023	 0.555321	 -0.773617	 0.125849	 2
1462091886.131	 23	 0.773656	 -3.006602	 -0.943489	 -0.928166	 -1.178710	 2.832419	 -0.291125	 0.548401	 -0.772817	 0.131364	 2
1462091886.141	 23	 0.234123	 -2.993653	 -0.842752	 -0.963744	 -1.169564	 2.826750	 -0.304966	 0.543692	 -0.769853	 0.136827	 2
1462091886.151	 23	 -0.195638	 -2.603070	 -0.690432	 -1.002173	 -1.163992	 2.814450	 -0.317427	 0.541026	 -0.765889	 0.141226	 2
1462091886.161	 23	 -0.464926	 -2.135257	 -0.530264	 -1.039673	 -1.161278	 2.798125	 -0.327859	 0.540067	 -0.761554	 0.144473	 2
1462091886.171	 23	 -0.555154	 -1.697903	 -0.391123	 -1.073338	 -1.160241	 2.781090	 -0.336250	 0.540100	 -0.757408	 0.146836	 2
1462091886.181	 23	 -0.643604	 -1.341339	 -0.245288	 -1.103097	 -1.160554	 2.764151	 -0.342849	 0.540880	 -0.753547	 0.148560	 2
1462091886.191	 23	 -0.945678	 -1.128963	 0.024693	 -1.133039	 -1.163801	 2.744271	 -0.348026	 0.543116	 -0.749257	 0.150057	 2
1462091886.201	 23	 -1.532007	 -1.116814	 0.435966	 -1.170354	 -1.172355	 2.715750	 -0.352302	 0.547961	 -0.743337	 0.151899	 2
1462091886.211	 23	 -2.299247	 -1.216928	 0.840310	 -1.223093	 -1.186996	 2.671574	 -0.356245	 0.556143	 -0.734854	 0.154220	 2
1462091886.221	 23	 -3.052346	 -1.294283	 1.015604	 -1.297648	 -1.205177	 2.605206	 -0.360357	 0.567379	 -0.723741	 0.156277	 2
1462091886.231	 23	 -3.680733	 -1.237291	 0.993895	 -1.396838	 -1.222825	 2.512862	 -0.364779	 0.580884	 -0.710513	 0.157101	 2
1462091886.241	 23	 -4.092301	 -0.906603	 0.961123	 -1.516080	 -1.236996	 2.397092	 -0.368636	 0.595944	 -0.696120	 0.156126	 2
1462091886.251	 23	 -4.263183	 -0.073983	 1.012989	 -1.643592	 -1.246544	 2.265742	 -0.370008	 0.612111	 -0.681983	 0.152687	 2
1462091886.261	 23	 -4.360251	 1.187583	 1.137478	 -1.768349	 -1.251607	 2.125152	 -0.366911	 0.629421	 -0.669304	 0.145734	 2
1462091886.271	 23	 -4.533329	 2.201299	 1.227285	 -1.889253	 -1.251863	 1.976976	 -0.359624	 0.647887	 -0.657734	 0.135274	 2
1462091886.281	 23	 -4.743697	 2.616795	 1.237246	 -2.008360	 -1.246012	 1.824577	 -0.350278	 0.667018	 -0.646036	 0.122594	 2
1462091886.291	 23	 -4.908037	 2.625720	 1.228102	 -2.123828	 -1.233686	 1.674636	 -0.340498	 0.686244	 -0.633406	 0.109210	 2
1462091886.301	 23	 -5.060453	 2.515959	 1.137818	 -2.231099	 -1.214616	 1.533517	 -0.331021	 0.705240	 -0.619619	 0.095577	 2
1462091886.311	 23	 -5.053823	 2.507031	 0.936248	 -2.323112	 -1.189106	 1.408355	 -0.322153	 0.723522	 -0.605059	 0.081466	 2
1462091886.321	 23	 -4.053314	 3.436803	 0.778456	 -2.379718	 -1.163902	 1.312755	 -0.311362	 0.739073	 -0.593766	 0.065330	 2
1462091886.331	 23	 -2.497542	 4.058869	 0.800540	 -2.397797	 -1.148253	 1.249585	 -0.297499	 0.749923	 -0.588863	 0.048480	 2
1462091886.341	 23	 -1.247127	 3.339166	 0.769100	 -2.397292	 -1.142284	 1.210528	 -0.284257	 0.756318	 -0.588182	 0.034968	 2
1462091886.351	 23	 -0.355135	 1.378554	 0.637579	 -2.397188	 -1.142710	 1.189410	 -0.276111	 0.759227	 -0.588647	 0.028845	 2
1462091886.361	 23	 0.306950	 -1.120733	 0.492390	 -2.408350	 -1.147411	 1.182512	 -0.275522	 0.759421	 -0.588484	 0.032463	 2
1462091886.371	 23	 0.752554	 -3.382016	 0.372615	 -2.433892	 -1.154983	 1.185729	 -0.282242	 0.757500	 -0.586921	 0.045356	 2
1462091886.381	 23	 0.952966	 -4.908702	 0.251154	 -2.471314	 -1.163940	 1.195024	 -0.294364	 0.753926	 -0.583726	 0.064881	 2
1462091886.391	 23	 0.276414	 -4.532488	 0.082563	 -2.514074	 -1.168776	 1.200382	 -0.307561	 0.750849	 -0.578433	 0.083953	 2
1462091886.401	 23	 -0.769795	 -2.814777	 0.096998	 -2.555254	 -1.164824	 1.191221	 -0.316950	 0.751011	 -0.571297	 0.095627	 2
1462091886.411	 23	 -1.340829	 -0.940991	 0.265416	 -2.588681	 -1.155648	 1.169967	 -0.320681	 0.754174	 -0.564339	 0.099534	 2
1462091886.421	 23	 -1.485607	 0.348698	 0.435344	 -2.612389	 -1.145089	 1.143168	 -0.319705	 0.758964	 -0.558711	 0.098003	 2
1462091886.431	 23	 -1.477985	 1.024368	 0.476735	 -2.628607	 -1.134627	 1.115597	 -0.316136	 0.764267	 -0.554247	 0.093616	 2
1462091886.441	 23	 -1.522415	 1.385673	 0.414407	 -2.638963	 -1.123558	 1.089670	 -0.311555	 0.769693	 -0.550330	 0.087423	 2
1462091886.451	 23	 -1.614446	 1.556138	 0.416795	 -2.646756	 -1.111545	 1.064058	 -0.306460	 0.775329	 -0.546365	 0.080206	 2
1462091886.461	 23	 -1.671840	 1.579927	 0.447357	 -2.654303	 -1.098982	 1.037931	 -0.301076	 0.781124	 -0.542133	 0.072737	 2
1462091886.471	 23	 -1.630358	 1.541596	 0.458363	 -2.661356	 -1.086512	 1.012496	 -0.295665	 0.786790	 -0.537833	 0.065422	 2
1462091886.481	 23	 -1.448316	 1.429534	 0.479182	 -2.667543	 -1.075326	 0.988906	 -0.290348	 0.791964	 -0.533896	 0.058711	 2
1462091886.491	 23	 -1.146017	 1.226885	 0.523689	 -2.673268	 -1.066725	 0.967774	 -0.285245	 0.796322	 -0.530730	 0.053217	 2
1462091886.501	 23	 -0.811809	 1.009187	 0.559252	 -2.678778	 -1.061232	 0.949344	 -0.280460	 0.799739	 -0.528527	 0.049188	 2
1462091886.511	 23	 -0.535022	 0.870064	 0.553416	 -2.683407	 -1.058349	 0.933725	 -0.276001	 0.802305	 -0.527251	 0.046222	 2
1462091886.521	 23	 -0.351724	 0.845866	 0.517491	 -2.686439	 -1.057147	 0.920566	 -0.271752	 0.804250	 -0.526710	 0.043685	 2
1462091886.531	 23	 -0.242652	 0.939797	 0.460930	 -2.687010	 -1.056862	 0.909474	 -0.267494	 0.805784	 -0.526768	 0.040926	 2
1462091886.541	 23	 -0.191892	 1.143207	 0.370725	 -2.683995	 -1.056796	 0.900455	 -0.263075	 0.807051	 -0.527321	 0.037318	 2
1462091886.551	 23	 -0.157080	 1.374188	 0.262798	 -2.676728	 -1.056601	 0.893673	 -0.258457	 0.808097	 -0.528318	 0.032548	 2
1462091886.561	 23	 -0.103086	 1.575538	 0.183203	 -2.665538	 -1.056452	 0.888987	 -0.253632	 0.808889	 -0.529767	 0.026751	 2
1462091886.571	 23	 -0.018204	 1.743999	 0.127546	 -2.651095	 -1.056740	 0.886017	 -0.248541	 0.809381	 -0.531717	 0.020187	 2
1462091886.581	 23	 0.122166	 1.954470	 0.020641	 -2.632216	 -1.057707	 0.885931	 -0.243279	 0.809378	 -0.534379	 0.012752	 2
1462091886.591	 23	 0.351806	 2.310406	 -0.084623	 -2.606600	 -1.059877	 0.889947	 -0.237590	 0.808628	 -0.538197	 0.003983	 2
1462091886.601	 23	 0.733689	 2.807425	 -0.180307	 -2.571478	 -1.064406	 0.899406	 -0.230951	 0.806733	 -0.543876	 -0.006547	 2
1462091886.611	 23	 1.065656	 2.467391	 -0.295070	 -2.530733	 -1.071212	 0.915601	 -0.224826	 0.803533	 -0.550912	 -0.016836	 2
1462091886.621	 23	 1.028352	 0.697405	 -0.329333	 -2.502449	 -1.077900	 0.934182	 -0.222928	 0.800120	 -0.556467	 -0.021341	 2
1462091886.631	 23	 0.768504	 -1.114265	 -0.188328	 -2.496678	 -1.083213	 0.948886	 -0.225963	 0.797583	 -0.558991	 -0.018181	 2
1462091886.641	 23	 0.572073	 -1.308903	 0.025790	 -2.503118	 -1.087918	 0.957128	 -0.229954	 0.795959	 -0.559843	 -0.012093	 2
1462091886.651	 23	 0.540693	 -0.447877	 0.237636	 -2.506660	 -1.093400	 0.960921	 -0.231182	 0.794680	 -0.561223	 -0.008199	 2
1462091886.661	 23	 0.470125	 0.493947	 0.429263	 -2.504226	 -1.099641	 0.960575	 -0.228907	 0.793725	 -0.563510	 -0.007644	 2
1462091886.671	 23	 0.361124	 1.013346	 0.581055	 -2.499135	 -1.106000	 0.955968	 -0.224157	 0.793215	 -0.566107	 -0.009314	 2
1462091886.681	 23	 0.285270	 0.953307	 0.631247	 -2.495524	 -1.112185	 0.948834	 -0.218856	 0.792995	 -0.568450	 -0.011168	 2
1462091886.691	 23	 0.141600	 0.586775	 0.630153	 -2.496670	 -1.117463	 0.939918	 -0.214412	 0.793112	 -0.569965	 -0.011891	 2
1462091886.701	 23	 -0.013137	 0.348033	 0.646331	 -2.503148	 -1.121413	 0.928447	 -0.210789	 0.793718	 -0.570478	 -0.011581	 2
1462091886.711	 23	 0.015516	 0.456099	 0.746203	 -2.511175	 -1.125615	 0.914982	 -0.206764	 0.794464	 -0.570921	 -0.011172	 2
1462091886.721	 23	 0.314043	 0.806576	 0.795890	 -2.514858	 -1.132060	 0.903064	 -0.201606	 0.794598	 -0.572570	 -0.011500	 2
1462091886.731	 23	 0.812739	 1.206249	 0.670573	 -2.507552	 -1.141781	 0.898892	 -0.195625	 0.793281	 -0.576423	 -0.013173	 2
1462091886.741	 23	 1.210146	 1.230273	 0.477631	 -2.489108	 -1.153987	 0.905213	 -0.189957	 0.790416	 -0.582166	 -0.015583	 2
1462091886.751	 23	 0.975253	 0.171840	 0.363251	 -2.475592	 -1.164927	 0.914287	 -0.187010	 0.787559	 -0.586973	 -0.015489	 2
1462091886.761	 23	 0.224924	 -1.399323	 0.324256	 -2.486170	 -1.170257	 0.914078	 -0.188774	 0.786718	 -0.587655	 -0.010031	 2
1462091886.771	 23	 -0.426294	 -2.041642	 0.221636	 -2.514200	 -1.169616	 0.904728	 -0.193458	 0.787809	 -0.584746	 -0.001899	 2
1462091886.781	 23	 -0.933839	 -1.893861	 0.154959	 -2.548284	 -1.163770	 0.889251	 -0.198599	 0.790361	 -0.579532	 0.005598	 2
1462091886.791	 23	 -0.792361	 -0.462190	 0.219271	 -2.572258	 -1.157494	 0.873015	 -0.200476	 0.793064	 -0.575135	 0.008884	 2
1462091886.801	 23	 -0.219280	 1.346403	 0.220454	 -2.571727	 -1.155664	 0.863351	 -0.196885	 0.794371	 -0.574614	 0.005458	 2
1462091886.811	 23	 0.231047	 2.172316	 0.038775	 -2.551685	 -1.157299	 0.863067	 -0.190645	 0.794108	 -0.577099	 -0.002192	 2
1462091886.821	 23	 0.505811	 2.046226	 -0.223770	 -2.521573	 -1.160059	 0.872737	 -0.185148	 0.792593	 -0.580864	 -0.010670	 2
1462091886.831	 23	 0.650293	 1.357603	 -0.376380	 -2.491151	 -1.162997	 0.888977	 -0.182037	 0.790360	 -0.584719	 -0.017252	 2
1462091886.841	 23	 0.682893	 0.507395	 -0.562558	 -2.465050	 -1.165295	 0.909586	 -0.181974	 0.787833	 -0.588019	 -0.020928	 2
1462091886.851	 23	 0.695348	 -0.282408	 -0.787431	 -2.442497	 -1.165955	 0.935190	 -0.185239	 0.785128	 -0.590569	 -0.022082	 2
1462091886.861	 23	 0.788674	 -0.716798	 -0.956413	 -2.421173	 -1.165708	 0.965299	 -0.190788	 0.782105	 -0.592828	 -0.021595	 2
1462091886.871	 23	 1.142557	 -0.683792	 -1.101999	 -2.393766	 -1.166250	 1.002971	 -0.197199	 0.778075	 -0.596048	 -0.020941	 2
1462091886.881	 23	 1.748985	 -0.291911	 -1.231524	 -2.351605	 -1.169312	 1.053157	 -0.203223	 0.772158	 -0.601676	 -0.021397	 2
1462091886.891	 23	 2.328803	 0.066430	 -1.303578	 -2.292726	 -1.174863	 1.117146	 -0.208451	 0.764186	 -0.609950	 -0.023010	 2
1462091886.901	 23	 2.676195	 0.118106	 -1.224059	 -2.223556	 -1.181668	 1.190641	 -0.213150	 0.754839	 -0.619822	 -0.024612	 2
1462091886.911	 23	 2.819194	 -0.113250	 -0.949292	 -2.153113	 -1.189442	 1.267114	 -0.217491	 0.745009	 -0.630119	 -0.024663	 2
1462091886.921	 23	 2.856225	 -0.478795	 -0.594920	 -2.086445	 -1.198491	 1.342928	 -0.221574	 0.735249	 -0.640170	 -0.022288	 2
1462091886.931	 23	 2.851930	 -0.877257	 -0.396096	 -2.023458	 -1.208053	 1.418744	 -0.225906	 0.725647	 -0.649687	 -0.017616	 2
1462091886.941	 23	 2.783092	 -1.271019	 -0.601655	 -1.961304	 -1.214662	 1.497678	 -0.231875	 0.715956	 -0.658406	 -0.011921	 2
1462091886.951	 23	 2.621757	 -1.535231	 -0.873413	 -1.901091	 -1.216479	 1.577698	 -0.239786	 0.706233	 -0.666108	 -0.006194	 2
1462091886.961	 23	 2.383982	 -1.597264	 -1.016864	 -1.846183	 -1.214326	 1.653248	 -0.248629	 0.696871	 -0.672721	 -0.000935	 2
1462091886.971	 23	 2.152810	 -1.473533	 -1.061659	 -1.797327	 -1.209594	 1.721613	 -0.257385	 0.688069	 -0.678455	 0.003545	 2
1462091886.981	 23	 1.965299	 -1.184714	 -1.057339	 -1.752714	 -1.203282	 1.782906	 -0.265271	 0.679803	 -0.683704	 0.006889	 2
1462091886.991	 23	 1.783979	 -0.756223	 -1.003813	 -1.710732	 -1.196150	 1.837266	 -0.271623	 0.672117	 -0.688769	 0.008782	 2
1462091887.001	 23	 1.575276	 -0.286920	 -0.907039	 -1.671269	 -1.188838	 1.884085	 -0.276069	 0.665191	 -0.693702	 0.009141	 2
1462091887.011	 23	 1.374021	 0.147521	 -0.774419	 -1.634262	 -1.181924	 1.923547	 -0.278537	 0.659121	 -0.698506	 0.008146	 2
1462091887.021	 23	 1.222404	 0.433247	 -0.595655	 -1.599420	 -1.176099	 1.957179	 -0.279279	 0.653839	 -0.703176	 0.006418	 2
1462091887.031	 23	 1.145448	 0.505843	 -0.442971	 -1.566610	 -1.171464	 1.987357	 -0.279046	 0.649091	 -0.707666	 0.004732	 2
1462091887.041	 23	 1.118704	 0.414063	 -0.349805	 -1.535868	 -1.167542	 2.015898	 -0.278635	 0.644601	 -0.711926	 0.003538	 2
1462091887.051	 23	 1.144630	 0.201721	 -0.286995	 -1.507197	 -1.163967	 2.044276	 -0.278661	 0.640135	 -0.715936	 0.003209	 2
1462091887.061	 23	 1.225850	 -0.040670	 -0.238801	 -1.479761	 -1.160552	 2.073966	 -0.279368	 0.635472	 -0.719801	 0.003931	 2
1462091887.071	 23	 1.345523	 -0.251475	 -0.219424	 -1.452396	 -1.156975	 2.106034	 -0.280766	 0.630413	 -0.723684	 0.005612	 2
1462091887.081	 23	 1.474705	 -0.441391	 -0.248960	 -1.424713	 -1.152702	 2.140619	 -0.282902	 0.624832	 -0.727658	 0.008016	 2
1462091887.091	 23	 1.597327	 -0.632629	 -0.316819	 -1.397044	 -1.147268	 2.177329	 -0.285883	 0.618665	 -0.731713	 0.010973	 2
1462091887.101	 23	 1.714419	 -0.860055	 -0.390295	 -1.370175	 -1.140468	 2.215612	 -0.289851	 0.611899	 -0.735769	 0.014483	 2
1462091887.111	 23	 1.846168	 -1.152362	 -0.458108	 -1.344776	 -1.132311	 2.255483	 -0.295016	 0.604477	 -0.739743	 0.018779	 2
1462091887.121	 23	 1.986427	 -1.457398	 -0.517587	 -1.321199	 -1.122823	 2.296861	 -0.301440	 0.596354	 -0.743587	 0.023959	 2
1462091887.131	 23	 2.162210	 -1.698711	 -0.575717	 -1.298706	 -1.111955	 2.340232	 -0.308961	 0.587391	 -0.747406	 0.029982	 2
1462091887.141	 23	 2.473131	 -1.867487	 -0.550153	 -1.274479	 -1.099862	 2.387758	 -0.317043	 0.577270	 -0.751585	 0.036919	 2
1462091887.151	 23	 2.845242	 -1.989389	 -0.489516	 -1.246411	 -1.086645	 2.441444	 -0.325316	 0.565679	 -0.756405	 0.045042	 2
1462091887.161	 23	 3.157199	 -2.177207	 -0.449218	 -1.216084	 -1.072064	 2.499877	 -0.333868	 0.552692	 -0.761652	 0.054322	 2
1462091887.171	 23	 3.305725	 -2.558682	 -0.486034	 -1.188531	 -1.055818	 2.559429	 -0.343550	 0.538622	 -0.766594	 0.064758	 2
1462091887.181	 23	 3.215632	 -3.042906	 -0.561161	 -1.169252	 -1.038364	 2.615407	 -0.355067	 0.524143	 -0.770330	 0.076110	 2
1462091887.191	 23	 2.854089	 -3.420710	 -0.591370	 -1.161236	 -1.021265	 2.663774	 -0.368272	 0.510281	 -0.772186	 0.087851	 2
1462091887.201	 23	 2.205589	 -3.363364	 -0.572401	 -1.163930	 -1.006471	 2.700769	 -0.381792	 0.498404	 -0.772070	 0.098672	 2
1462091887.211	 23	 1.402786	 -2.801069	 -0.505825	 -1.173751	 -0.995351	 2.724363	 -0.393712	 0.489662	 -0.770553	 0.107094	 2
1462091887.221	 23	 0.639081	 -1.884568	 -0.420307	 -1.186023	 -0.988126	 2.735166	 -0.402541	 0.484450	 -0.768555	 0.112217	 2
1462091887.231	 23	 0.081137	 -0.788891	 -0.330650	 -1.195789	 -0.984092	 2.736221	 -0.407366	 0.482351	 -0.767091	 0.113847	 2
1462091887.241	 23	 -0.237455	 0.133876	 -0.227634	 -1.200298	 -0.982327	 2.731671	 -0.408358	 0.482442	 -0.766677	 0.112691	 2
1462091887.251	 23	 -0.389250	 0.615243	 -0.057705	 -1.200623	 -0.982660	 2.724990	 -0.406800	 0.483895	 -0.766937	 0.110302	 2
1462091887.261	 23	 -0.480844	 0.700031	 0.157033	 -1.199480	 -0.985254	 2.717918	 -0.404112	 0.486242	 -0.767195	 0.108049	 2
1462091887.271	 23	 -0.548330	 0.427706	 0.417265	 -1.199934	 -0.990457	 2.711207	 -0.401568	 0.489269	 -0.766743	 0.107066	 2
1462091887.281	 23	 -0.585030	 -0.116889	 0.691746	 -1.204407	 -0.998360	 2.705463	 -0.400214	 0.492748	 -0.765060	 0.108217	 2
1462091887.291	 23	 -0.629990	 -0.778891	 0.906590	 -1.214843	 -1.008574	 2.700385	 -0.400777	 0.496482	 -0.761832	 0.111784	 2
1462091887.301	 23	 -0.735859	 -1.391297	 1.042494	 -1.232324	 -1.020474	 2.694407	 -0.403368	 0.500470	 -0.757010	 0.117306	 2
1462091887.311	 23	 -1.032660	 -1.970289	 1.162253	 -1.259418	 -1.034208	 2.684142	 -0.407989	 0.505208	 -0.750245	 0.124265	 2
1462091887.321	 23	 -1.636950	 -2.357953	 1.287536	 -1.300105	 -1.050450	 2.663448	 -0.414238	 0.511795	 -0.741025	 0.131737	 2
1462091887.331	 23	 -2.506780	 -2.463124	 1.393246	 -1.358322	 -1.069185	 2.624863	 -0.421271	 0.521374	 -0.729082	 0.138343	 2
1462091887.341	 23	 -3.376813	 -2.091321	 1.418136	 -1.434184	 -1.088622	 2.563942	 -0.427766	 0.534267	 -0.715018	 0.142564	 2
1462091887.351	 23	 -3.932014	 -1.268372	 1.447680	 -1.520829	 -1.106472	 2.483442	 -0.431911	 0.549791	 -0.700424	 0.143492	 2
1462091887.361	 23	 -4.126855	 -0.131096	 1.553747	 -1.608307	 -1.121918	 2.390752	 -0.432068	 0.566969	 -0.686989	 0.141102	 2
1462091887.371	 23	 -4.195793	 0.897157	 1.783462	 -1.692580	 -1.135711	 2.290135	 -0.427743	 0.585353	 -0.675198	 0.136034	 2
1462091887.381	 23	 -4.306231	 1.247168	 2.043464	 -1.779882	 -1.148238	 2.180848	 -0.420636	 0.604670	 -0.663731	 0.130000	 2
1462091887.391	 23	 -4.442719	 0.926318	 2.184479	 -1.878081	 -1.157883	 2.062085	 -0.413397	 0.624332	 -0.650966	 0.124719	 2
1462091887.401	 23	 -4.441149	 0.547952	 2.223575	 -1.985827	 -1.162851	 1.937939	 -0.407148	 0.643594	 -0.636736	 0.120765	 2
1462091887.411	 23	 -3.958066	 1.359297	 2.246102	 -2.084133	 -1.164440	 1.819403	 -0.398944	 0.661739	 -0.624077	 0.116076	 2
1462091887.421	 23	 -2.888710	 2.910613	 2.024220	 -2.147342	 -1.165845	 1.722876	 -0.385806	 0.677154	 -0.617249	 0.107795	 2
1462091887.431	 23	 -1.718881	 3.593881	 1.530141	 -2.173108	 -1.168613	 1.656980	 -0.370391	 0.688253	 -0.616163	 0.097272	 2
1462091887.441	 23	 -0.728066	 2.475293	 1.096524	 -2.179271	 -1.172870	 1.619190	 -0.357903	 0.694736	 -0.617477	 0.089268	 2
1462091887.451	 23	 -0.012881	 0.437961	 0.874173	 -2.185537	 -1.179474	 1.601957	 -0.351791	 0.697303	 -0.618211	 0.088468	 2
1462091887.461	 23	 0.262883	 -1.628206	 0.751298	 -2.203601	 -1.187079	 1.594661	 -0.352467	 0.697474	 -0.616631	 0.095203	 2
1462091887.471	 23	 0.189904	 -2.965863	 0.625450	 -2.236051	 -1.193726	 1.588795	 -0.358344	 0.696582	 -0.612293	 0.107051	 2
1462091887.481	 23	 -0.081313	 -3.396299	 0.560926	 -2.278726	 -1.198066	 1.578879	 -0.366564	 0.695723	 -0.605890	 0.120407	 2
1462091887.491	 23	 -0.576287	 -2.719085	 0.612036	 -2.326719	 -1.199634	 1.559059	 -0.373645	 0.696267	 -0.598549	 0.131685	 2
1462091887.501	 23	 -1.393008	 -1.342219	 0.505134	 -2.375001	 -1.195211	 1.525640	 -0.377646	 0.699635	 -0.590851	 0.137078	 2
1462091887.511	 23	 -1.964348	 0.229769	 0.417094	 -2.415863	 -1.184362	 1.483172	 -0.377854	 0.705823	 -0.583725	 0.135297	 2
1462091887.521	 23	 -1.898372	 1.126978	 0.377975	 -2.444054	 -1.172265	 1.442342	 -0.374971	 0.712817	 -0.578395	 0.129413	 2
1462091887.531	 23	 -1.747139	 1.359908	 0.292499	 -2.462695	 -1.160473	 1.407559	 -0.371144	 0.719361	 -0.574316	 0.122206	 2
1462091887.541	 23	 -1.628418	 1.176731	 0.307879	 -2.478971	 -1.149329	 1.376201	 -0.367496	 0.725403	 -0.570432	 0.115516	 2
1462091887.551	 23	 -1.368999	 0.707242	 0.352408	 -2.495861	 -1.139891	 1.348388	 -0.364688	 0.730617	 -0.566512	 0.110755	 2
1462091887.561	 23	 -0.888854	 0.118678	 0.493023	 -2.514199	 -1.134400	 1.325322	 -0.362856	 0.734457	 -0.563007	 0.109233	 2
1462091887.571	 23	 -0.369005	 -0.358882	 0.556525	 -2.532412	 -1.133508	 1.307938	 -0.361807	 0.736715	 -0.560425	 0.110772	 2
1462091887.581	 23	 0.049184	 -0.602723	 0.541023	 -2.548272	 -1.136243	 1.296656	 -0.361390	 0.737511	 -0.558936	 0.114302	 2
1462091887.591	 23	 0.288670	 -0.521429	 0.554615	 -2.560883	 -1.141268	 1.288912	 -0.360788	 0.737509	 -0.558491	 0.118321	 2
1462091887.601	 23	 0.360460	 -0.259769	 0.585200	 -2.570650	 -1.147381	 1.281843	 -0.359375	 0.737363	 -0.558847	 0.121801	 2
1462091887.611	 23	 0.283258	 0.104303	 0.597786	 -2.578094	 -1.153188	 1.273591	 -0.356962	 0.737573	 -0.559636	 0.123988	 2
1462091887.621	 23	 0.146284	 0.509659	 0.559054	 -2.582814	 -1.157773	 1.263985	 -0.353598	 0.738332	 -0.560674	 0.124412	 2
1462091887.631	 23	 0.046653	 0.905399	 0.529500	 -2.584168	 -1.161106	 1.253689	 -0.349347	 0.739574	 -0.562009	 0.123015	 2
1462091887.641	 23	 -0.027160	 1.200380	 0.402864	 -2.581725	 -1.163426	 1.243931	 -0.344473	 0.741075	 -0.563679	 0.120051	 2
1462091887.651	 23	 -0.088223	 1.345651	 0.171348	 -2.573917	 -1.164012	 1.238120	 -0.339968	 0.742443	 -0.565523	 0.115689	 2
1462091887.661	 23	 -0.123561	 1.446764	 0.020193	 -2.562258	 -1.163330	 1.235352	 -0.335807	 0.743669	 -0.567457	 0.110371	 2
1462091887.671	 23	 -0.143741	 1.595682	 -0.132781	 -2.546686	 -1.161654	 1.235396	 -0.331817	 0.744739	 -0.569584	 0.104093	 2
1462091887.681	 23	 -0.162602	 1.757708	 -0.237686	 -2.527430	 -1.159108	 1.237671	 -0.327814	 0.745690	 -0.571938	 0.096808	 2
1462091887.691	 23	 -0.227601	 2.017309	 -0.252822	 -2.506121	 -1.155974	 1.239746	 -0.323283	 0.746770	 -0.574446	 0.088513	 2
1462091887.701	 23	 -0.359021	 2.396683	 -0.205517	 -2.483505	 -1.152052	 1.239335	 -0.317633	 0.748304	 -0.577016	 0.078759	 2
1462091887.711	 23	 -0.504962	 2.715698	 0.019335	 -2.462629	 -1.148041	 1.233211	 -0.310350	 0.750550	 -0.579430	 0.067953	 2
1462091887.721	 23	 -0.631266	 2.719256	 0.458496	 -2.449410	 -1.145543	 1.217591	 -0.301295	 0.753673	 -0.581265	 0.057695	 2
1462091887.731	 23	 -0.715812	 2.258254	 0.947325	 -2.449375	 -1.145409	 1.191316	 -0.291393	 0.757585	 -0.581941	 0.050001	 2
1462091887.741	 23	 -0.498030	 1.693777	 1.369678	 -2.461001	 -1.149025	 1.158477	 -0.281367	 0.761523	 -0.582071	 0.045927	 2
1462091887.751	 23	 0.039664	 1.166948	 1.686217	 -2.477930	 -1.158197	 1.125769	 -0.271478	 0.764355	 -0.583086	 0.045513	 2
1462091887.761	 23	 0.626508	 0.644304	 2.013025	 -2.499092	 -1.173835	 1.094342	 -0.261711	 0.765683	 -0.585534	 0.048858	 2
1462091887.771	 23	 0.878564	 0.247790	 1.997549	 -2.523768	 -1.192568	 1.064007	 -0.252720	 0.765923	 -0.588655	 0.054590	 2
1462091887.781	 23	 0.899395	 -0.094515	 1.737334	 -2.548846	 -1.210251	 1.037234	 -0.245596	 0.765496	 -0.591582	 0.061072	 2
1462091887.791	 23	 0.785008	 -0.373813	 1.750651	 -2.578984	 -1.226548	 1.008449	 -0.239665	 0.765046	 -0.593793	 0.068367	 2
1462091887.801	 23	 0.552836	 -0.398642	 1.899517	 -2.619845	 -1.241469	 0.969535	 -0.233512	 0.765285	 -0.594979	 0.076236	 2
1462091887.811	 23	 0.394905	 -0.129437	 1.851175	 -2.665189	 -1.254117	 0.924072	 -0.226840	 0.766102	 -0.595583	 0.083145	 2
1462091887.821	 23	 0.449382	 0.523941	 1.624444	 -2.703138	 -1.265429	 0.880595	 -0.219143	 0.766863	 -0.596882	 0.087349	 2
1462091887.831	 23	 0.648783	 1.135387	 1.393930	 -2.727538	 -1.276715	 0.844587	 -0.210391	 0.767085	 -0.599580	 0.088435	 2
1462091887.841	 23	 0.949450	 1.486921	 1.443608	 -2.746231	 -1.290378	 0.810400	 -0.200289	 0.766543	 -0.603749	 0.088226	 2
1462091887.851	 23	 1.021443	 1.553156	 1.219788	 -2.759723	 -1.304891	 0.780139	 -0.190094	 0.765370	 -0.608662	 0.087199	 2
1462091887.861	 23	 0.578258	 0.986203	 0.740909	 -2.768013	 -1.314645	 0.759406	 -0.182926	 0.764513	 -0.612098	 0.085985	 2
1462091887.871	 23	 0.032748	 -0.302213	 0.614304	 -2.787362	 -1.318418	 0.738883	 -0.180338	 0.764579	 -0.612522	 0.087830	 2
1462091887.881	 23	 -0.455117	 -1.319047	 0.707140	 -2.828074	 -1.317438	 0.708534	 -0.181333	 0.765727	 -0.609881	 0.093949	 2
1462091887.891	 23	 -0.714780	 -1.070389	 0.864119	 -2.876923	 -1.313239	 0.670416	 -0.182218	 0.767933	 -0.605807	 0.100364	 2
1462091887.901	 23	 -0.353777	 0.106996	 1.152227	 -2.923720	 -1.311111	 0.624634	 -0.179058	 0.770254	 -0.603152	 0.104183	 2
1462091887.911	 23	 0.323461	 1.774264	 1.214068	 -2.953949	 -1.315201	 0.579149	 -0.170126	 0.771524	 -0.604368	 0.102702	 2
1462091887.921	 23	 0.359264	 2.420403	 0.861672	 -2.964759	 -1.320908	 0.543714	 -0.159045	 0.772285	 -0.607361	 0.096916	 2
1462091887.931	 23	 0.148927	 2.123976	 0.381152	 -2.959980	 -1.323582	 0.525681	 -0.150317	 0.773139	 -0.609568	 0.089931	 2
1462091887.941	 23	 0.199593	 1.483251	 0.195701	 -2.951244	 -1.325746	 0.517530	 -0.144251	 0.773501	 -0.611371	 0.084344	 2
1462091887.951	 23	 0.387984	 0.596706	 0.048328	 -2.943591	 -1.329181	 0.516908	 -0.141272	 0.772878	 -0.613219	 0.081639	 2
1462091887.961	 23	 0.582941	 -0.069344	 -0.051223	 -2.937231	 -1.334394	 0.522715	 -0.140949	 0.771233	 -0.615359	 0.081647	 2
1462091887.971	 23	 0.739381	 -0.437382	 0.007936	 -2.934324	 -1.341235	 0.529477	 -0.141841	 0.768909	 -0.617807	 0.083517	 2
1462091887.981	 23	 0.915712	 -0.488062	 0.130623	 -2.935626	 -1.349955	 0.533204	 -0.142626	 0.766073	 -0.620755	 0.086331	 2
1462091887.991	 23	 1.100947	 -0.248291	 0.268725	 -2.939643	 -1.360751	 0.532396	 -0.142268	 0.762819	 -0.624449	 0.089049	 2
1462091888.001	 23	 1.363691	 0.081054	 0.469865	 -2.946773	 -1.374173	 0.525031	 -0.140101	 0.759081	 -0.629165	 0.091212	 2
1462091888.011	 23	 1.869020	 0.240872	 0.418993	 -2.950736	 -1.391981	 0.518817	 -0.136907	 0.754038	 -0.635632	 0.093035	 2
1462091888.021	 23	 2.482549	 0.070532	 0.058233	 -2.931067	 -1.415207	 0.537306	 -0.134746	 0.746736	 -0.644422	 0.094601	 2
1462091888.031	 23	 2.704584	 -0.689435	 -0.367485	 -2.873434	 -1.440695	 0.600252	 -0.135964	 0.737606	 -0.654206	 0.097290	 2
1462091888.041	 23	 2.386541	 -1.570306	 -0.670260	 -2.773847	 -1.462468	 0.714271	 -0.141439	 0.728313	 -0.662684	 0.102009	 2
1462091888.051	 23	 1.910494	 -2.208640	 -0.739198	 -2.644671	 -1.477844	 0.865030	 -0.149955	 0.719937	 -0.668889	 0.108591	 2
1462091888.061	 23	 1.591879	 -2.305808	 -0.773564	 -2.493027	 -1.487652	 1.040375	 -0.159493	 0.712499	 -0.673465	 0.115552	 2
1462091888.071	 23	 1.512075	 -2.226064	 -0.809429	 -2.314450	 -1.493553	 1.242122	 -0.169030	 0.705372	 -0.677477	 0.122087	 2
1462091888.081	 23	 1.599060	 -2.063991	 -0.865164	 -2.102778	 -1.496078	 1.475500	 -0.178183	 0.697985	 -0.681689	 0.127939	 2
1462091888.091	 23	 1.796072	 -1.906263	 -0.888858	 -1.862804	 -1.494934	 1.735676	 -0.186779	 0.689944	 -0.686537	 0.133257	 2
1462091888.101	 23	 2.004289	 -1.695929	 -0.840755	 -1.616324	 -1.489719	 2.000467	 -0.194425	 0.681206	 -0.692147	 0.138164	 2
1462091888.111	 23	 2.109318	 -1.473099	 -0.724493	 -1.393314	 -1.480722	 2.239600	 -0.200819	 0.672109	 -0.698254	 0.142765	 2
1462091888.121	 23	 1.972655	 -1.392848	 -0.566955	 -1.220465	 -1.469553	 2.427364	 -0.206310	 0.663394	 -0.704003	 0.147389	 2
1462091888.131	 23	 1.681355	 -1.267668	 -0.436429	 -1.100540	 -1.458222	 2.561143	 -0.211161	 0.655713	 -0.708788	 0.151891	 2
1462091888.141	 23	 1.398787	 -1.060966	 -0.354244	 -1.018903	 -1.447810	 2.654520	 -0.215186	 0.649257	 -0.712671	 0.155755	 2
1462091888.151	 23	 1.142218	 -1.014804	 -0.252465	 -0.962825	 -1.438804	 2.721230	 -0.218775	 0.643855	 -0.715691	 0.159294	 2
1462091888.161	 23	 0.999774	 -1.055555	 -0.062964	 -0.917146	 -1.431830	 2.777944	 -0.222070	 0.639194	 -0.717924	 0.163403	 2
1462091888.171	 23	 0.894751	 -1.041456	 0.078762	 -0.875063	 -1.426483	 2.830926	 -0.224877	 0.635092	 -0.719649	 0.167910	 2
1462091888.181	 23	 0.840799	 -1.232184	 0.156324	 -0.837033	 -1.421947	 2.881226	 -0.227936	 0.631181	 -0.720900	 0.173089	 2
1462091888.191	 23	 0.790657	 -1.490192	 0.198056	 -0.803973	 -1.417878	 2.929092	 -0.231764	 0.627248	 -0.721619	 0.179196	 2
1462091888.201	 23	 0.716631	 -1.800534	 0.200075	 -0.778867	 -1.414027	 2.971954	 -0.236714	 0.623224	 -0.721741	 0.186142	 2
1462091888.211	 23	 0.635398	 -2.005984	 0.143451	 -0.762132	 -1.410613	 3.008869	 -0.242649	 0.619220	 -0.721228	 0.193697	 2
1462091888.221	 23	 0.659174	 -2.070719	 0.026474	 -0.753459	 -1.406266	 3.038500	 -0.249275	 0.614926	 -0.720640	 0.201013	 2
1462091888.231	 23	 0.798860	 -2.033371	 -0.046867	 -0.744693	 -1.400476	 3.068054	 -0.255942	 0.610064	 -0.720426	 0.208091	 2
1462091888.241	 23	 0.958094	 -1.985975	 -0.046746	 -0.731514	 -1.393344	 3.101761	 -0.262328	 0.604569	 -0.720677	 0.215188	 2
1462091888.251	 23	 1.053566	 -1.913652	 -0.008537	 -0.714205	 -1.385439	 3.138999	 -0.268216	 0.598691	 -0.721255	 0.222306	 2
1462091888.261	 23	 0.991617	 -1.764002	 0.069064	 -0.696133	 -1.377976	 -3.107334	 -0.273475	 0.593035	 -0.721782	 0.229241	 2
1462091888.271	 23	 0.812875	 -1.349474	 0.251394	 -0.675390	 -1.372543	 -3.071239	 -0.277177	 0.588485	 -0.722086	 0.235480	 2
1462091888.281	 23	 0.509383	 -0.782709	 0.549198	 -0.648276	 -1.370750	 -3.034077	 -0.278454	 0.585887	 -0.721975	 0.240734	 2
1462091888.291	 23	 0.130965	 -0.318418	 0.912778	 -0.612953	 -1.373784	 -2.993811	 -0.277278	 0.585717	 -0.721055	 0.245220	 2
1462091888.301	 23	 -0.182947	 -0.182112	 1.248231	 -0.568536	 -1.381195	 -2.946513	 -0.274710	 0.587473	 -0.719014	 0.249858	 2
1462091888.311	 23	 -0.421904	 -0.334153	 1.452458	 -0.516790	 -1.391639	 -2.891028	 -0.272028	 0.590370	 -0.715765	 0.255237	 2
1462091888.321	 23	 -0.591895	 -0.573591	 1.659533	 -0.455420	 -1.404011	 -2.823567	 -0.269805	 0.593851	 -0.711371	 0.261719	 2
1462091888.331	 23	 -0.689423	 -1.035757	 1.836196	 -0.379685	 -1.417481	 -2.737573	 -0.268593	 0.597443	 -0.705739	 0.269911	 2
1462091888.341	 23	 -0.587736	 -1.288406	 1.944864	 -0.283465	 -1.429618	 -2.627831	 -0.268043	 0.600504	 -0.699589	 0.279503	 2
1462091888.351	 23	 -0.490480	 -1.453985	 2.178010	 -0.155542	 -1.439210	 -2.484329	 -0.267380	 0.603073	 -0.693141	 0.290460	 2
1462091888.361	 23	 -0.489517	 -1.206715	 2.395587	 0.010723	 -1.445771	 -2.303658	 -0.265454	 0.605960	 -0.686474	 0.301828	 2
1462091888.371	 23	 -0.585119	 -0.997011	 2.527328	 0.205499	 -1.448599	 -2.097078	 -0.262212	 0.609574	 -0.679602	 0.312738	 2
1462091888.381	 23	 -0.901467	 -1.379542	 2.596863	 0.413106	 -1.448371	 -1.875353	 -0.259814	 0.613656	 -0.671421	 0.324217	 2
1462091888.391	 23	 -1.474898	 -1.786438	 2.722764	 0.637255	 -1.446341	 -1.632180	 -0.259452	 0.618708	 -0.660676	 0.336739	 2
1462091888.401	 23	 -1.894250	 -1.535557	 2.974940	 0.882460	 -1.439449	 -1.368473	 -0.258892	 0.625600	 -0.647932	 0.348975	 2
1462091888.411	 23	 -2.118726	 -0.764539	 3.310193	 1.120733	 -1.423315	 -1.118022	 -0.255536	 0.634617	 -0.634476	 0.359727	 2
1462091888.421	 23	 -2.526838	 0.111087	 3.769514	 1.335982	 -1.396924	 -0.898956	 -0.248579	 0.646594	 -0.619975	 0.368450	 2
1462091888.431	 23	 -2.704153	 0.919246	 4.112162	 1.511282	 -1.360829	 -0.727817	 -0.238178	 0.661115	 -0.604535	 0.375148	 2
1462091888.441	 23	 -2.118945	 1.415467	 4.428216	 1.623337	 -1.317412	 -0.626311	 -0.224084	 0.675551	 -0.590115	 0.381027	 2
1462091888.451	 23	 -0.964033	 1.486157	 4.669272	 1.670485	 -1.270402	 -0.592833	 -0.206433	 0.687102	 -0.578518	 0.388063	 2
1462091888.461	 23	 0.068515	 1.455745	 4.852901	 1.675213	 -1.222518	 -0.603192	 -0.185991	 0.695121	 -0.569983	 0.396654	 2
1462091888.471	 23	 0.568886	 1.579185	 5.209921	 1.665742	 -1.172108	 -0.630090	 -0.162774	 0.701360	 -0.562737	 0.406110	 2
1462091888.481	 23	 0.543390	 1.544500	 5.549798	 1.657646	 -1.118170	 -0.656108	 -0.137964	 0.707059	 -0.554709	 0.416330	 2
1462091888.491	 23	 0.291876	 1.411929	 5.793749	 1.655883	 -1.061253	 -0.674366	 -0.112867	 0.712733	 -0.544755	 0.427218	 2
1462091888.501	 23	 0.215049	 1.055923	 5.950970	 1.655505	 -1.002557	 -0.688450	 -0.088094	 0.717639	 -0.533340	 0.439070	 2
1462091888.511	 23	 0.206109	 0.670498	 6.039116	 1.652433	 -0.942704	 -0.701188	 -0.063975	 0.721017	 -0.520980	 0.452351	 2
1462091888.521	 23	 -0.024861	 0.629211	 5.972534	 1.651728	 -0.882965	 -0.709899	 -0.040612	 0.723887	 -0.507545	 0.465549	 2
1462091888.531	 23	 -0.302140	 0.742134	 5.885409	 1.655921	 -0.823907	 -0.713732	 -0.017979	 0.727019	 -0.492854	 0.477719	 2
1462091888.541	 23	 -0.562078	 0.972540	 5.725689	 1.664726	 -0.766013	 -0.714034	 0.004030	 0.730603	 -0.477143	 0.488404	 2
1462091888.551	 23	 -0.741730	 1.416169	 5.374352	 1.679050	 -0.710804	 -0.711962	 0.025385	 0.735047	 -0.460959	 0.496566	 2
1462091888.561	 23	 -0.681233	 2.059515	 4.793642	 1.699231	 -0.660649	 -0.710496	 0.046314	 0.740555	 -0.445627	 0.500849	 2
1462091888.571	 23	 -0.459603	 2.084070	 3.870056	 1.719606	 -0.619325	 -0.711000	 0.064753	 0.745768	 -0.432801	 0.502316	 2
1462091888.581	 23	 -0.139498	 2.126800	 2.999070	 1.739002	 -0.587274	 -0.714494	 0.080779	 0.750438	 -0.423139	 0.501270	 2
1462091888.591	 23	 0.208604	 1.660925	 2.258460	 1.753537	 -0.563533	 -0.720988	 0.094026	 0.753639	 -0.416721	 0.499531	 2
1462091888.601	 23	 0.467749	 1.001644	 1.652176	 1.760586	 -0.546673	 -0.729681	 0.104236	 0.754794	 -0.413229	 0.498661	 2
1462091888.611	 23	 0.593218	 0.273532	 1.326711	 1.760358	 -0.534088	 -0.739278	 0.111879	 0.754040	 -0.411657	 0.499445	 2
1462091888.621	 23	 0.657819	 -0.559922	 1.116964	 1.751846	 -0.523791	 -0.749078	 0.117149	 0.751157	 -0.411350	 0.502823	 2
1462091888.631	 23	 0.734947	 -1.212720	 0.890671	 1.736227	 -0.515663	 -0.759091	 0.120325	 0.746427	 -0.412260	 0.508340	 2
1462091888.641	 23	 0.706737	 -1.632825	 0.735669	 1.716133	 -0.509263	 -0.768711	 0.121848	 0.740525	 -0.413952	 0.515189	 2
1462091888.651	 23	 0.450589	 -1.888196	 0.764299	 1.694299	 -0.502530	 -0.775788	 0.122158	 0.734205	 -0.415056	 0.523210	 2
1462091888.661	 23	 0.019181	 -2.013966	 0.846818	 1.673187	 -0.494482	 -0.778404	 0.121420	 0.728177	 -0.414591	 0.532100	 2
1462091888.671	 23	 -0.530713	 -2.096211	 0.870024	 1.654074	 -0.485495	 -0.774942	 0.119236	 0.722888	 -0.412107	 0.541649	 2
1462091888.681	 23	 -1.180874	 -2.428875	 0.934404	 1.635719	 -0.475629	 -0.764269	 0.114976	 0.718066	 -0.407307	 0.552506	 2
1462091888.691	 23	 -1.808754	 -2.957803	 0.930686	 1.615745	 -0.465336	 -0.746361	 0.108055	 0.713023	 -0.400342	 0.565375	 2
1462091888.701	 23	 -2.376153	 -3.741503	 0.872914	 1.591441	 -0.455735	 -0.721634	 0.097781	 0.706900	 -0.391645	 0.580815	 2
1462091888.711	 23	 -2.744976	 -4.740577	 0.823132	 1.559505	 -0.447260	 -0.692096	 0.084192	 0.698442	 -0.381867	 0.599389	 2
1462091888.721	 23	 -2.985152	 -5.652497	 0.816738	 1.519159	 -0.440013	 -0.659370	 0.067837	 0.687058	 -0.371285	 0.620884	 2
1462091888.731	 23	 -3.108701	 -6.277549	 0.815194	 1.472406	 -0.434174	 -0.624753	 0.049634	 0.673036	 -0.360015	 0.644164	 2
1462091888.741	 23	 -3.190041	 -6.607623	 0.879974	 1.422002	 -0.429633	 -0.588996	 0.030502	 0.657026	 -0.348000	 0.668044	 2
1462091888.751	 23	 -3.106334	 -6.806147	 0.964790	 1.369223	 -0.425763	 -0.553254	 0.011363	 0.639298	 -0.335321	 0.691902	 2
1462091888.761	 23	 -2.973603	 -6.880674	 1.154778	 1.314879	 -0.421917	 -0.518361	 -0.007070	 0.620067	 -0.322057	 0.715365	 2
1462091888.771	 23	 -2.743526	 -6.807605	 1.496631	 1.260336	 -0.416278	 -0.484537	 -0.023754	 0.599776	 -0.307856	 0.738193	 2
1462091888.781	 23	 -2.440048	 -6.640440	 1.936769	 1.206524	 -0.407431	 -0.451998	 -0.037864	 0.578803	 -0.292570	 0.760234	 2
1462091888.791	 23	 -2.109675	 -6.480347	 2.439488	 1.153682	 -0.394405	 -0.420387	 -0.049022	 0.557303	 -0.276000	 0.781559	 2
1462091888.801	 23	 -1.956800	 -6.159197	 2.932462	 1.103087	 -0.377414	 -0.388192	 -0.057498	 0.535852	 -0.257814	 0.801928	 2
1462091888.811	 23	 -2.577496	 -4.549930	 3.271504	 1.066789	 -0.360341	 -0.349488	 -0.064986	 0.519438	 -0.237009	 0.818406	 2
1462091888.821	 23	 -2.555428	 -3.494870	 3.274735	 1.044605	 -0.344624	 -0.307715	 -0.071524	 0.508457	 -0.215379	 0.830643	 2
1462091888.831	 23	 -1.853148	 -3.475514	 3.001294	 1.021670	 -0.328602	 -0.272506	 -0.075845	 0.497232	 -0.196121	 0.841751	 2
1462091888.841	 23	 -1.385525	 -3.430998	 2.729065	 0.996215	 -0.312852	 -0.243675	 -0.078487	 0.485065	 -0.179343	 0.852284	 2
1462091888.851	 23	 -1.081487	 -3.313976	 2.562313	 0.970439	 -0.297651	 -0.218424	 -0.080106	 0.472795	 -0.164093	 0.862045	 2
1462091888.861	 23	 -0.624199	 -3.320489	 2.435708	 0.943371	 -0.281795	 -0.197211	 -0.080200	 0.460016	 -0.150327	 0.871410	 2
1462091888.871	 23	 -0.085869	 -3.354770	 2.326257	 0.914332	 -0.264259	 -0.180740	 -0.078245	 0.446443	 -0.138189	 0.880608	 2
1462091888.881	 23	 0.477243	 -3.322260	 2.196963	 0.883969	 -0.244708	 -0.169103	 -0.074074	 0.432336	 -0.127783	 0.889534	 2
1462091888.891	 23	 1.008586	 -3.254414	 2.087457	 0.852830	 -0.222886	 -0.161987	 -0.067666	 0.417888	 -0.119051	 0.898119	 2
1462091888.901	 23	 1.418309	 -3.001777	 2.037216	 0.822910	 -0.198823	 -0.158053	 -0.059263	 0.403908	 -0.111568	 0.906035	 2
1462091888.911	 23	 1.698408	 -2.670748	 2.037857	 0.795790	 -0.172796	 -0.155813	 -0.049264	 0.391054	 -0.104814	 0.913052	 2
1462091888.921	 23	 1.822568	 -2.404882	 2.082947	 0.771493	 -0.145440	 -0.153845	 -0.038281	 0.379320	 -0.098267	 0.919236	 2
1462091888.931	 23	 1.779590	 -2.297898	 2.151459	 0.748724	 -0.117700	 -0.150743	 -0.027099	 0.368131	 -0.091410	 0.924873	 2
1462091888.941	 23	 1.645346	 -2.284453	 2.191121	 0.726398	 -0.090577	 -0.145849	 -0.016349	 0.357042	 -0.084078	 0.930153	 2
1462091888.951	 23	 1.565809	 -2.378043	 2.160035	 0.703406	 -0.064422	 -0.139769	 -0.006117	 0.345589	 -0.076587	 0.935235	 2
1462091888.961	 23	 1.632751	 -2.565239	 2.040477	 0.678560	 -0.038823	 -0.134015	 0.004017	 0.333224	 -0.069574	 0.940269	 2
1462091888.971	 23	 1.839108	 -2.797829	 1.877717	 0.651329	 -0.012975	 -0.129888	 0.014629	 0.319656	 -0.063557	 0.945286	 2
1462091888.991	 24	 2.487577	 -3.476698	 1.514052	 0.587015	 0.042781	 -0.128911	 0.039062	 0.287326	 -0.055467	 0.955427	 2
1462091889.001	 24	 2.767347	 -3.688814	 1.270912	 0.550751	 0.072733	 -0.132245	 0.052866	 0.268823	 -0.053678	 0.960238	 2
1462091889.021	 25	 3.059443	 -3.654204	 0.881819	 0.477754	 0.134304	 -0.144032	 0.082014	 0.230775	 -0.053917	 0.968044	 2
1462091889.031	 25	 3.146389	 -3.511185	 0.838696	 0.443241	 0.166060	 -0.150447	 0.097140	 0.212354	 -0.054883	 0.970803	 2
1462091889.051	 26	 3.188602	 -2.637623	 0.755868	 0.384427	 0.230907	 -0.161288	 0.127995	 0.180035	 -0.056612	 0.973653	 2
1462091889.061	 26	 3.134594	 -1.967446	 0.601644	 0.364508	 0.262595	 -0.167005	 0.143290	 0.168322	 -0.057672	 0.973555	 2
1462091889.071	 26	 2.985847	 -1.507285	 0.488922	 0.350071	 0.292747	 -0.173013	 0.157971	 0.159228	 -0.058865	 0.972742	 2
1462091889.081	 26	 2.824656	 -1.225523	 0.410883	 0.339000	 0.321150	 -0.178914	 0.171841	 0.151775	 -0.060061	 0.971508	 2
1462091889.091	 26	 2.683760	 -1.187203	 0.358113	 0.329074	 0.348044	 -0.184655	 0.184952	 0.144887	 -0.061338	 0.970071	 2
1462091889.101	 26	 2.531659	 -1.279520	 0.326605	 0.318436	 0.373481	 -0.190023	 0.197262	 0.137697	 -0.062738	 0.968603	 2
1462091889.111	 26	 2.408063	 -1.436807	 0.294245	 0.306471	 0.397531	 -0.194963	 0.208782	 0.129928	 -0.064297	 0.967158	 2
1462091889.121	 26	 2.452331	 -1.730918	 0.235703	 0.291822	 0.421575	 -0.200190	 0.220178	 0.120778	 -0.066410	 0.965673	 2
1462091889.131	 26	 2.384628	 -1.576736	 0.202557	 0.277568	 0.445309	 -0.205458	 0.231379	 0.111786	 -0.068668	 0.963977	 2
1462091889.141	 26	 2.215738	 -1.194307	 0.216112	 0.266747	 0.467597	 -0.209934	 0.241907	 0.104590	 -0.070381	 0.962075	 2
1462091889.151	 26	 2.154217	 -1.140722	 0.246988	 0.257145	 0.489078	 -0.213648	 0.252006	 0.098094	 -0.071729	 0.960065	 2
1462091889.161	 26	 2.164324	 -1.312605	 0.309246	 0.245869	 0.510741	 -0.216564	 0.262052	 0.090860	 -0.072982	 0.957991	 2
1462091889.171	 26	 2.108671	 -1.420292	 0.397187	 0.232686	 0.532298	 -0.218176	 0.271880	 0.082886	 -0.073978	 0.955897	 2
1462091889.181	 26	 1.973174	 -1.460960	 0.454474	 0.218271	 0.552886	 -0.218379	 0.281115	 0.074594	 -0.074661	 0.953853	 2
1462091889.191	 26	 1.821499	 -1.491344	 0.456577	 0.203052	 0.572016	 -0.217663	 0.289572	 0.066174	 -0.075243	 0.951897	 2
1462091889.201	 26	 1.687859	 -1.516705	 0.425532	 0.187337	 0.589735	 -0.216574	 0.297317	 0.057700	 -0.075935	 0.950004	 2
1462091889.211	 26	 1.543818	 -1.487763	 0.398280	 0.171564	 0.606002	 -0.215169	 0.304350	 0.049379	 -0.076692	 0.948183	 2
1462091889.221	 26	 1.420261	 -1.413159	 0.369143	 0.156292	 0.620909	 -0.213516	 0.310746	 0.041459	 -0.077439	 0.946426	 2
1462091889.231	 26	 1.328692	 -1.351354	 0.348134	 0.141570	 0.634775	 -0.211682	 0.316660	 0.033930	 -0.078167	 0.944704	 2
1462091889.241	 26	 1.257393	 -1.302273	 0.340685	 0.127168	 0.647875	 -0.209586	 0.322217	 0.026678	 -0.078846	 0.942999	 2
1462091889.251	 26	 1.153067	 -1.231905	 0.321999	 0.113245	 0.659999	 -0.207271	 0.327326	 0.019783	 -0.079471	 0.941356	 2
1462091889.261	 26	 1.004790	 -1.177584	 0.272639	 0.099982	 0.670680	 -0.205055	 0.331783	 0.013299	 -0.080168	 0.939849	 2
1462091889.271	 26	 0.839261	 -1.155169	 0.216738	 0.087230	 0.679659	 -0.203175	 0.335462	 0.007124	 -0.081064	 0.938533	 2
1462091889.281	 26	 0.674683	 -1.179366	 0.187038	 0.074435	 0.686952	 -0.201468	 0.338346	 0.001015	 -0.082157	 0.937428	 2
1462091889.291	 26	 0.494276	 -1.227445	 0.230792	 0.060776	 0.692458	 -0.199083	 0.340357	 -0.005270	 -0.083177	 0.936595	 2
1462091889.301	 26	 0.341505	 -1.256825	 0.224389	 0.046516	 0.696354	 -0.196346	 0.341593	 -0.011677	 -0.084213	 0.935995	 2
1462091889.311	 26	 0.233545	 -1.230467	 0.148839	 0.032759	 0.699006	 -0.194253	 0.342264	 -0.017887	 -0.085517	 0.935533	 2
1462091889.321	 26	 0.175921	 -1.155423	 0.060515	 0.020382	 0.700904	 -0.193260	 0.342626	 -0.023595	 -0.087128	 0.935125	 2
1462091889.331	 26	 0.174955	 -1.078258	 -0.005902	 0.009358	 0.702612	 -0.193177	 0.342940	 -0.028814	 -0.088945	 0.934693	 2
1462091889.341	 26	 0.235067	 -0.977621	 -0.037461	 -0.000431	 0.704773	 -0.193604	 0.343503	 -0.033559	 -0.090786	 0.934151	 2
1462091889.351	 26	 0.366079	 -0.790929	 -0.053917	 -0.008466	 0.708070	 -0.194217	 0.344664	 -0.037565	 -0.092403	 0.933412	 2
1462091889.361	 27	 0.529528	 -0.489681	 -0.100496	 -0.013483	 0.712965	 -0.195300	 0.346694	 -0.040311	 -0.093705	 0.932415	 2
1462091889.381	 27	 0.657060	 0.298117	 -0.095342	 -0.011387	 0.725829	 -0.198349	 0.352723	 -0.040445	 -0.094573	 0.930057	 2
1462091889.391	 27	 0.605136	 0.527591	 -0.006428	 -0.006349	 0.732033	 -0.198668	 0.355839	 -0.038442	 -0.093732	 0.929040	 2
1462091889.401	 27	 0.531043	 0.597455	 0.064142	 -0.000934	 0.737532	 -0.197988	 0.358657	 -0.036059	 -0.092356	 0.928189	 2
1462091889.411	 27	 0.453070	 0.546941	 0.106982	 0.003846	 0.742256	 -0.196678	 0.361090	 -0.033823	 -0.090802	 0.927483	 2
1462091889.421	 27	 0.401191	 0.398274	 0.118839	 0.007198	 0.746377	 -0.195105	 0.363177	 -0.032174	 -0.089387	 0.926864	 2
1462091889.431	 27	 0.412667	 0.154347	 0.073839	 0.008611	 0.750439	 -0.193958	 0.365139	 -0.031498	 -0.088519	 0.926200	 2
1462091889.441	 27	 0.467849	 -0.088740	 0.015677	 0.008082	 0.754994	 -0.193656	 0.367228	 -0.031895	 -0.088387	 0.925372	 2
1462091889.451	 27	 0.512578	 -0.260613	 -0.062195	 0.036948	 0.740217	 -0.215137	 0.361414	 -0.021705	 -0.093431	 0.927459	 2
1462091889.461	 27	 0.507463	 -0.315913	 -0.209740	 0.035568	 0.745302	 -0.217723	 0.363673	 -0.023086	 -0.094737	 0.926409	 2
1462091889.471	 27	 0.381653	 -0.208832	 -0.307830	 0.035964	 0.749411	 -0.221877	 0.365542	 -0.023883	 -0.096472	 0.925474	 2
1462091889.481	 27	 0.160443	 -0.022182	 -0.324288	 0.037114	 0.774338	 -0.225552	 0.377039	 -0.025410	 -0.097228	 0.920729	 2
1462091889.491	 27	 -0.067873	 0.217792	 -0.325396	 0.041831	 0.774088	 -0.230107	 0.377099	 -0.024083	 -0.098443	 0.920612	 2
1462091889.501	 27	 -0.254440	 0.477912	 -0.318153	 0.049006	 0.771825	 -0.234439	 0.376364	 -0.021465	 -0.099159	 0.920900	 2
1462091889.511	 27	 -0.374921	 0.711335	 -0.298946	 0.058334	 0.768166	 -0.238435	 0.375107	 -0.017701	 -0.099373	 0.921470	 2
1462091889.521	 27	 -0.387584	 0.924475	 -0.246766	 0.070494	 0.763970	 -0.242554	 0.373751	 -0.012609	 -0.099151	 0.922128	 2
1462091889.531	 27	 -0.339481	 1.138371	 -0.212156	 0.083249	 0.760234	 -0.245198	 0.372651	 -0.006983	 -0.098141	 0.922741	 2
1462091889.541	 27	 -0.193995	 1.181817	 -0.175717	 0.096613	 0.757731	 -0.247462	 0.372148	 -0.001074	 -0.096806	 0.923111	 2
1462091889.551	 27	 -0.010724	 1.087974	 -0.135555	 0.109123	 0.757010	 -0.249374	 0.372419	 0.004393	 -0.095394	 0.923139	 2
1462091889.561	 27	 0.191061	 0.847294	 -0.095856	 0.119424	 0.758285	 -0.251053	 0.373498	 0.008746	 -0.094185	 0.922796	 2
1462091889.571	 27	 0.358326	 0.541718	 -0.072446	 0.126721	 0.761378	 -0.252656	 0.375266	 0.011597	 -0.093399	 0.922127	 2
