% Gyrometer data recorded with 'snsrlog'
% 
% 
% Label description:
% 	 0: Default Label
% 	 1: still_drop
% 	 2: walk_drop
% 	 3: other
% 	 4: dtw_same
% 	 5: dtw_diff
% 	 6: delete
% 	 7: steal
% 
% Column description:
% 	 1: Seconds.milliseconds since 1970
% 	 2: Number of skipped measurements
% 	 3: Gyro X
% 	 4: Gyro Y
% 	 5: Gyro Z
% 	 6: Roll of the device
% 	 7: Pitch of the device
% 	 8: Yaw of the device
% 	 9: Quaternion X
% 	 10: Quaternion Y
% 	 11: Quaternion Z
% 	 12: Quaternion W
% 	 13: Label used for the current sample
% 
% 
1463624225.467	 0	 -1.181969	 0.908976	 0.836880	 0.088474	 0.749157	 0.060538	 0.364109	 0.052200	 0.044311	 0.928836	 1
1463624225.477	 0	 -1.007620	 0.862967	 0.723029	 0.089440	 0.739379	 0.072010	 0.359230	 0.054652	 0.049674	 0.930322	 1
1463624225.487	 0	 -0.870647	 0.838111	 0.577727	 0.091579	 0.730955	 0.081383	 0.354986	 0.057239	 0.054299	 0.931537	 1
1463624225.497	 0	 -0.779572	 0.843954	 0.393677	 0.095397	 0.723412	 0.088281	 0.351156	 0.060149	 0.058080	 0.932576	 1
1463624225.507	 0	 -0.746988	 0.934694	 0.159770	 0.101854	 0.716155	 0.092200	 0.347451	 0.063756	 0.060927	 0.933542	 1
1463624225.517	 0	 -0.773066	 1.093153	 -0.146534	 0.112267	 0.708490	 0.092418	 0.343536	 0.068563	 0.062697	 0.934533	 1
1463624225.527	 0	 -0.860838	 1.258487	 -0.409606	 0.126510	 0.699789	 0.089078	 0.339130	 0.074556	 0.063390	 0.935636	 1
1463624225.547	 1	 -1.138384	 1.483585	 -0.428542	 0.160748	 0.677860	 0.081800	 0.328032	 0.089207	 0.065109	 0.938189	 1
1463624225.557	 1	 -1.181291	 1.270474	 -0.499426	 0.176153	 0.665485	 0.078330	 0.321866	 0.095814	 0.065574	 0.939640	 1
1463624225.577	 2	 -1.150310	 1.020872	 -0.732223	 0.204320	 0.640111	 0.067919	 0.309512	 0.107374	 0.064128	 0.942635	 1
1463624225.587	 2	 -1.139099	 0.987192	 -0.825355	 0.218252	 0.627271	 0.061142	 0.303374	 0.112923	 0.062487	 0.944091	 1
1463624225.597	 2	 -1.136071	 1.000577	 -0.884939	 0.232445	 0.614245	 0.053841	 0.297194	 0.118578	 0.060529	 0.945490	 1
1463624225.607	 2	 -1.120075	 1.064834	 -0.964413	 0.247400	 0.601077	 0.045952	 0.290988	 0.124572	 0.058293	 0.946789	 1
1463624225.617	 2	 -1.089197	 1.171121	 -1.108636	 0.263961	 0.587736	 0.036809	 0.284771	 0.131219	 0.055573	 0.947944	 1
1463624225.627	 2	 -1.019662	 1.330453	 -1.255900	 0.282673	 0.574424	 0.026104	 0.278668	 0.138745	 0.052293	 0.948873	 1
1463624225.637	 2	 -0.895138	 1.572897	 -1.360239	 0.304208	 0.561668	 0.014112	 0.272923	 0.147512	 0.048695	 0.949411	 1
1463624225.647	 2	 -0.717946	 1.865432	 -1.429400	 0.328968	 0.549988	 0.001084	 0.267791	 0.157736	 0.044978	 0.949413	 1
1463624225.657	 2	 -0.505230	 2.170984	 -1.445662	 0.357036	 0.539858	 -0.012646	 0.263502	 0.169479	 0.041354	 0.948754	 1
1463624225.667	 2	 -0.280549	 2.468567	 -1.386232	 0.388025	 0.531622	 -0.026454	 0.260201	 0.182601	 0.038119	 0.947364	 1
1463624225.677	 2	 -0.101696	 2.753740	 -1.296677	 0.421610	 0.525125	 -0.039844	 0.257785	 0.196980	 0.035488	 0.945244	 1
1463624225.687	 2	 -0.026801	 2.983580	 -1.252560	 0.457385	 0.519432	 -0.052796	 0.255816	 0.212423	 0.033353	 0.942508	 1
1463624225.697	 2	 -0.065875	 3.115199	 -1.305349	 0.494630	 0.513102	 -0.065675	 0.253667	 0.228584	 0.031293	 0.939374	 1
1463624225.707	 2	 -0.137740	 3.157981	 -1.448203	 0.532668	 0.505138	 -0.079050	 0.250964	 0.245121	 0.028807	 0.936004	 1
1463624225.727	 3	 -0.233814	 3.224816	 -1.803775	 0.610159	 0.483623	 -0.108278	 0.243850	 0.278843	 0.021709	 0.928608	 1
1463624225.737	 3	 -0.242736	 3.357010	 -2.058251	 0.650984	 0.469956	 -0.124771	 0.239557	 0.296629	 0.016858	 0.924305	 1
1463624225.747	 3	 -0.227084	 3.791653	 -2.396452	 0.695680	 0.453767	 -0.143253	 0.234698	 0.316147	 0.010924	 0.919157	 1
1463624225.757	 3	 -0.152154	 4.354778	 -2.740369	 0.746900	 0.434899	 -0.164084	 0.229388	 0.338579	 0.003939	 0.912540	 1
1463624225.767	 3	 -0.037783	 4.854435	 -3.020208	 0.803549	 0.413732	 -0.186707	 0.223891	 0.363427	 -0.003996	 0.904311	 1
1463624225.777	 3	 0.059765	 5.137547	 -3.247562	 0.863594	 0.390376	 -0.210334	 0.218273	 0.389797	 -0.012807	 0.894567	 1
1463624225.797	 4	 0.069110	 5.144600	 -3.590753	 0.983686	 0.335756	 -0.256582	 0.205644	 0.442942	 -0.032928	 0.872025	 1
1463624225.807	 4	 0.015944	 4.964959	 -3.597290	 1.040260	 0.305361	 -0.276962	 0.198518	 0.468291	 -0.043527	 0.859883	 1
1463624225.817	 4	 -0.004120	 4.688241	 -3.483522	 1.092927	 0.274564	 -0.294652	 0.191221	 0.492040	 -0.053889	 0.847601	 1
1463624225.827	 4	 0.058188	 4.422192	 -3.332005	 1.141774	 0.244428	 -0.310263	 0.184217	 0.514058	 -0.063952	 0.835296	 1
1463624225.837	 4	 0.237524	 4.324748	 -3.203385	 1.188459	 0.215451	 -0.325081	 0.177989	 0.534872	 -0.073906	 0.822660	 1
1463624225.847	 4	 0.591947	 4.525171	 -3.142791	 1.236269	 0.187648	 -0.341076	 0.173162	 0.555640	 -0.084196	 0.808821	 1
1463624225.857	 4	 1.091197	 4.730939	 -3.166539	 1.286437	 0.160527	 -0.360126	 0.170187	 0.576688	 -0.095531	 0.793310	 1
1463624225.867	 4	 1.562810	 4.809562	 -3.280753	 1.337703	 0.132833	 -0.382731	 0.168797	 0.597520	 -0.108487	 0.776342	 1
1463624225.877	 4	 1.823631	 4.774955	 -3.400579	 1.388490	 0.103484	 -0.407213	 0.168124	 0.617714	 -0.122786	 0.758346	 1
1463624225.887	 4	 1.834606	 4.672306	 -3.470905	 1.437549	 0.072260	 -0.430937	 0.167248	 0.637005	 -0.137573	 0.739815	 1
1463624225.897	 4	 1.707147	 4.612781	 -3.517242	 1.484991	 0.039329	 -0.452112	 0.165634	 0.655552	 -0.152151	 0.720879	 1
1463624225.907	 4	 1.592188	 4.482014	 -3.555826	 1.530632	 0.004955	 -0.470466	 0.163199	 0.673268	 -0.166412	 0.701701	 1
1463624225.917	 4	 1.588894	 4.254257	 -3.577100	 1.573530	 -0.030454	 -0.486939	 0.160241	 0.689702	 -0.180674	 0.682635	 1
1463624225.927	 4	 1.719296	 4.101520	 -3.612695	 1.614041	 -0.066836	 -0.502911	 0.157218	 0.704876	 -0.195369	 0.663524	 1
1463624225.937	 4	 2.001336	 4.022338	 -3.710741	 1.653113	 -0.104774	 -0.519841	 0.154513	 0.719036	 -0.211083	 0.643861	 1
1463624225.947	 4	 2.298964	 3.693659	 -3.886913	 1.688664	 -0.145205	 -0.538291	 0.151802	 0.731529	 -0.228432	 0.624212	 1
1463624225.957	 4	 2.570688	 3.298091	 -4.057087	 1.719386	 -0.188329	 -0.558045	 0.148748	 0.742015	 -0.247442	 0.605028	 1
1463624225.967	 4	 2.669264	 2.841388	 -4.220994	 1.744784	 -0.233880	 -0.578041	 0.144883	 0.750472	 -0.267662	 0.586650	 1
1463624225.977	 4	 2.570280	 2.298549	 -4.315773	 1.764513	 -0.280890	 -0.596344	 0.139588	 0.756965	 -0.288151	 0.569638	 1
1463624225.987	 4	 2.414974	 1.742600	 -4.334515	 1.778471	 -0.328256	 -0.612489	 0.132831	 0.761541	 -0.308367	 0.554366	 1
1463624225.997	 4	 2.231416	 1.206733	 -4.235590	 1.786985	 -0.374761	 -0.626633	 0.124917	 0.764334	 -0.327875	 0.541006	 1
1463624226.007	 4	 2.052643	 0.679172	 -4.016198	 1.790235	 -0.419108	 -0.639245	 0.116293	 0.765439	 -0.346312	 0.529761	 1
1463624226.017	 4	 1.898625	 0.154027	 -3.746908	 1.788083	 -0.460538	 -0.650975	 0.107282	 0.764886	 -0.363571	 0.520823	 1
1463624226.027	 4	 1.764023	 -0.314909	 -3.492185	 1.780829	 -0.499068	 -0.662261	 0.097977	 0.762844	 -0.379726	 0.514079	 1
1463624226.037	 4	 1.624453	 -0.658733	 -3.293806	 1.769632	 -0.535130	 -0.673148	 0.088385	 0.759701	 -0.394852	 0.509053	 1
1463624226.047	 4	 1.483174	 -0.867859	 -3.148513	 1.755979	 -0.569257	 -0.683510	 0.078526	 0.755896	 -0.409011	 0.505139	 1
1463624226.057	 4	 1.368932	 -1.001545	 -3.002753	 1.740720	 -0.601680	 -0.693533	 0.068546	 0.751669	 -0.422289	 0.501963	 1
1463624226.067	 4	 1.310881	 -1.065587	 -2.764112	 1.724174	 -0.631727	 -0.703918	 0.058992	 0.747105	 -0.434653	 0.499430	 1
1463624226.077	 4	 1.313105	 -1.083529	 -2.450964	 1.706333	 -0.658696	 -0.715625	 0.050453	 0.742214	 -0.446157	 0.497511	 1
1463624226.087	 4	 1.268959	 -1.060201	 -2.038979	 1.687748	 -0.681586	 -0.728343	 0.043280	 0.737180	 -0.456461	 0.496323	 1
1463624226.097	 4	 1.296286	 -1.058221	 -1.608630	 1.668161	 -0.700001	 -0.742502	 0.037729	 0.731951	 -0.465636	 0.495992	 1
1463624226.107	 4	 1.330399	 -1.179827	 -1.204003	 1.646430	 -0.714147	 -0.758343	 0.033565	 0.726239	 -0.473899	 0.496861	 1
1463624226.117	 4	 1.253289	 -1.332116	 -0.822141	 1.622732	 -0.724107	 -0.774625	 0.030359	 0.720085	 -0.481037	 0.499159	 1
1463624226.127	 4	 1.075967	 -1.411168	 -0.501604	 1.599089	 -0.730299	 -0.789241	 0.027723	 0.713981	 -0.486680	 0.502599	 1
1463624226.137	 4	 0.871243	 -1.564212	 -0.275304	 1.575631	 -0.733714	 -0.801591	 0.025181	 0.707927	 -0.490989	 0.507084	 1
1463624226.147	 4	 0.689562	 -1.744475	 -0.126192	 1.552001	 -0.735273	 -0.811469	 0.022290	 0.701808	 -0.494182	 0.512595	 1
1463624226.157	 4	 0.536930	 -1.871671	 0.018897	 1.528371	 -0.735300	 -0.819205	 0.019131	 0.695634	 -0.496428	 0.518928	 1
1463624226.167	 4	 0.405094	 -1.934714	 0.218755	 1.505268	 -0.733416	 -0.824973	 0.016065	 0.689506	 -0.497682	 0.525961	 1
1463624226.177	 4	 0.268513	 -1.909148	 0.462110	 1.483628	 -0.729206	 -0.828602	 0.013451	 0.683637	 -0.497801	 0.533529	 1
1463624226.187	 4	 0.144080	 -1.814332	 0.726254	 1.464266	 -0.722492	 -0.830042	 0.011577	 0.678221	 -0.496735	 0.541421	 1
1463624226.197	 4	 0.066816	 -1.683415	 1.000980	 1.447312	 -0.713129	 -0.829695	 0.010693	 0.673281	 -0.494561	 0.549534	 1
1463624226.207	 4	 0.032426	 -1.510102	 1.272530	 1.432743	 -0.701134	 -0.828151	 0.011008	 0.668807	 -0.491445	 0.557726	 1
1463624226.217	 4	 -0.011519	 -1.312420	 1.527338	 1.420865	 -0.686622	 -0.825434	 0.012568	 0.664892	 -0.487412	 0.565854	 1
1463624226.227	 4	 -0.136086	 -1.140868	 1.666436	 1.411804	 -0.670584	 -0.820977	 0.014852	 0.661634	 -0.482507	 0.573765	 1
1463624226.237	 4	 -0.405017	 -0.964161	 1.724776	 1.406454	 -0.654183	 -0.813336	 0.017154	 0.659388	 -0.476541	 0.581224	 1
1463624226.247	 4	 -0.763455	 -0.836335	 1.606524	 1.404799	 -0.638995	 -0.801668	 0.018583	 0.658284	 -0.469589	 0.588051	 1
1463624226.257	 4	 -1.114217	 -0.542602	 1.342673	 1.407599	 -0.626762	 -0.786185	 0.018703	 0.658676	 -0.462084	 0.593527	 1
1463624226.267	 4	 -1.366059	 0.131633	 1.081502	 1.417539	 -0.617543	 -0.768038	 0.018429	 0.661384	 -0.454364	 0.596477	 1
1463624226.277	 4	 -1.442685	 1.020663	 0.883684	 1.436516	 -0.610422	 -0.748967	 0.019015	 0.666925	 -0.446738	 0.596050	 1
1463624226.287	 4	 -1.210824	 1.843548	 0.782746	 1.462494	 -0.604089	 -0.732237	 0.021499	 0.674579	 -0.439893	 0.592431	 1
1463624226.297	 4	 -0.803964	 2.511935	 0.861092	 1.492744	 -0.596626	 -0.720349	 0.026800	 0.683397	 -0.434070	 0.586374	 1
1463624226.307	 4	 -0.351961	 2.945793	 1.030650	 1.524893	 -0.587145	 -0.713970	 0.034969	 0.692586	 -0.429161	 0.578725	 1
1463624226.317	 4	 0.143709	 2.997810	 1.363599	 1.555146	 -0.574464	 -0.713701	 0.045864	 0.700948	 -0.424965	 0.570941	 1
1463624226.327	 4	 0.658139	 2.833839	 1.840385	 1.580496	 -0.557317	 -0.719928	 0.059472	 0.707516	 -0.421216	 0.564324	 1
1463624226.337	 4	 1.200102	 2.318427	 2.412776	 1.598373	 -0.534748	 -0.732891	 0.075707	 0.711429	 -0.417763	 0.560010	 1
1463624226.347	 4	 1.650737	 1.695826	 2.687618	 1.607486	 -0.508867	 -0.751779	 0.093302	 0.712258	 -0.415131	 0.558255	 1
1463624226.357	 4	 1.630239	 1.381586	 2.467456	 1.612282	 -0.484003	 -0.771843	 0.110010	 0.711514	 -0.413208	 0.557588	 1
1463624226.367	 4	 1.316420	 1.342648	 1.958260	 1.617997	 -0.463698	 -0.788670	 0.124137	 0.711119	 -0.411590	 0.556321	 1
1463624226.377	 4	 0.915822	 1.469787	 1.435379	 1.627001	 -0.448641	 -0.800831	 0.135447	 0.712013	 -0.409931	 0.553759	 1
1463624226.387	 4	 0.585436	 1.409675	 1.079600	 1.638013	 -0.437491	 -0.808857	 0.144337	 0.713853	 -0.408059	 0.550516	 1
1463624226.397	 4	 0.617535	 1.186523	 0.827856	 1.647474	 -0.429069	 -0.815962	 0.151639	 0.715426	 -0.406787	 0.547444	 1
1463624226.407	 4	 0.873343	 1.090474	 0.593464	 1.654524	 -0.423211	 -0.825419	 0.158420	 0.716260	 -0.407060	 0.544221	 1
1463624226.417	 4	 0.937077	 1.174109	 0.418903	 1.661727	 -0.419511	 -0.836061	 0.164936	 0.717121	 -0.408248	 0.540248	 1
1463624226.427	 4	 0.794677	 1.113572	 0.373751	 1.669242	 -0.416566	 -0.845677	 0.170899	 0.718147	 -0.409316	 0.536209	 1
1463624226.437	 4	 0.430255	 0.908074	 0.489049	 1.676421	 -0.412581	 -0.851934	 0.175932	 0.719263	 -0.409161	 0.533195	 1
1463624226.447	 4	 0.041989	 0.660853	 0.561535	 1.682772	 -0.407228	 -0.854060	 0.179755	 0.720410	 -0.407536	 0.531613	 1
1463624226.457	 4	 -0.248375	 0.451860	 0.518422	 1.688318	 -0.401684	 -0.852700	 0.182208	 0.721637	 -0.404981	 0.531066	 1
1463624226.467	 4	 -0.360190	 0.267199	 0.529401	 1.692602	 -0.396192	 -0.849774	 0.183811	 0.722676	 -0.402127	 0.531270	 1
1463624226.477	 4	 -0.433823	 0.164076	 0.652711	 1.695799	 -0.389539	 -0.846105	 0.185293	 0.723419	 -0.398805	 0.532246	 1
1463624226.487	 4	 -0.432773	 0.314663	 0.738298	 1.699813	 -0.381755	 -0.842396	 0.187280	 0.724310	 -0.395030	 0.533154	 1
1463624226.497	 4	 -0.361003	 0.740788	 0.567919	 1.707212	 -0.375124	 -0.839192	 0.189722	 0.726136	 -0.391409	 0.532476	 1
1463624226.507	 4	 -0.240126	 1.271195	 0.277652	 1.719414	 -0.371186	 -0.836822	 0.192508	 0.729338	 -0.388376	 0.529311	 1
1463624226.517	 4	 -0.046998	 1.841941	 -0.140761	 1.736769	 -0.371315	 -0.835714	 0.195423	 0.734020	 -0.386442	 0.523150	 1
1463624226.527	 4	 0.169387	 2.341568	 -0.530196	 1.759250	 -0.375911	 -0.836039	 0.198426	 0.740106	 -0.385784	 0.513849	 1
1463624226.537	 4	 0.475660	 2.552617	 -0.783485	 1.783171	 -0.383728	 -0.838665	 0.201570	 0.746389	 -0.386585	 0.502818	 1
1463624226.547	 4	 0.787367	 2.819716	 -1.078929	 1.808779	 -0.395097	 -0.843712	 0.204902	 0.752865	 -0.388937	 0.489834	 1
1463624226.557	 4	 1.077760	 3.109076	 -1.393165	 1.836380	 -0.410323	 -0.850747	 0.208296	 0.759576	 -0.392773	 0.474749	 1
1463624226.567	 4	 1.376355	 3.309226	 -1.685921	 1.865509	 -0.429434	 -0.859508	 0.211622	 0.766330	 -0.398055	 0.457719	 1
1463624226.577	 4	 1.712911	 3.385058	 -1.946060	 1.894636	 -0.452334	 -0.870314	 0.214798	 0.772635	 -0.404947	 0.439220	 1
1463624226.587	 4	 2.050726	 3.232582	 -2.155047	 1.921717	 -0.478731	 -0.883263	 0.217579	 0.777957	 -0.413540	 0.420031	 1
1463624226.597	 4	 2.407676	 2.792208	 -2.309328	 1.943614	 -0.508150	 -0.898687	 0.219589	 0.781594	 -0.424026	 0.401364	 1
1463624226.607	 4	 2.687611	 2.119920	 -2.501332	 1.957745	 -0.540692	 -0.916526	 0.220155	 0.783134	 -0.436632	 0.384168	 1
1463624226.627	 5	 1.079093	 -0.891300	 -3.023716	 1.956294	 -0.607082	 -0.929395	 0.205482	 0.782428	 -0.460513	 0.365392	 1
1463624226.637	 5	 0.791619	 -2.332752	 -3.027234	 1.938863	 -0.638310	 -0.925100	 0.190502	 0.779867	 -0.471247	 0.365299	 1
1463624226.647	 5	 0.922054	 -3.156626	 -3.062680	 1.910713	 -0.669877	 -0.922121	 0.173126	 0.775053	 -0.482948	 0.368893	 1
1463624226.657	 5	 1.105662	 -3.594163	 -3.335856	 1.875820	 -0.704070	 -0.921876	 0.153988	 0.768596	 -0.495958	 0.373595	 1
1463624226.667	 5	 1.061134	 -2.900869	 -3.818202	 1.843848	 -0.742514	 -0.922018	 0.133954	 0.762496	 -0.509385	 0.375745	 1
1463624226.677	 5	 0.482569	 -1.552508	 -4.385722	 1.829733	 -0.785245	 -0.915407	 0.114208	 0.759933	 -0.521003	 0.371502	 1
1463624226.687	 5	 -0.366945	 -0.701583	 -4.870249	 1.835317	 -0.830770	 -0.895483	 0.093534	 0.761183	 -0.529606	 0.362450	 1
1463624226.697	 5	 -1.001853	 -0.121929	 -5.274975	 1.858561	 -0.878223	 -0.861321	 0.071566	 0.765171	 -0.535631	 0.349986	 1
1463624226.707	 5	 -1.180010	 0.173960	 -5.611714	 1.895013	 -0.927447	 -0.816459	 0.048668	 0.770183	 -0.540584	 0.334990	 1
1463624226.717	 5	 -0.887839	 0.140165	 -5.900197	 1.937513	 -0.978993	 -0.766320	 0.024973	 0.774201	 -0.546275	 0.318704	 1
1463624226.727	 5	 -0.279201	 -0.072588	 -6.098248	 1.980005	 -1.033351	 -0.715867	 0.000792	 0.775787	 -0.553952	 0.302143	 1
1463624226.737	 5	 0.307686	 -0.202885	 -6.228198	 2.021656	 -1.090442	 -0.666062	 -0.023506	 0.774677	 -0.563724	 0.285551	 1
1463624226.747	 5	 0.641095	 -0.067009	 -6.276731	 2.069035	 -1.148850	 -0.612121	 -0.047282	 0.771763	 -0.574609	 0.268272	 1
1463624226.757	 5	 0.764490	 0.055115	 -6.253221	 2.130135	 -1.206697	 -0.546417	 -0.070310	 0.767813	 -0.585601	 0.250182	 1
1463624226.767	 5	 0.723730	 -0.047429	 -6.183480	 2.212759	 -1.262088	 -0.458678	 -0.093227	 0.763066	 -0.595900	 0.232254	 1
1463624226.777	 5	 0.624049	 0.198483	 -6.047104	 2.331684	 -1.312898	 -0.336031	 -0.115305	 0.758051	 -0.605238	 0.213894	 1
1463624226.787	 5	 0.569950	 0.574291	 -5.873680	 2.505191	 -1.356550	 -0.162560	 -0.135609	 0.753064	 -0.613764	 0.194419	 1
1463624226.797	 5	 0.567653	 1.192304	 -5.573758	 2.747563	 -1.389593	 0.074229	 -0.153187	 0.748155	 -0.621832	 0.173560	 1
1463624226.817	 6	 0.360821	 2.660638	 -4.848496	 -2.900272	 -1.407213	 0.675871	 -0.177496	 0.739975	 -0.636372	 0.126346	 1
1463624226.827	 6	 0.102270	 3.398145	 -4.454642	 -2.619189	 -1.391829	 0.928372	 -0.183900	 0.737100	 -0.642537	 0.100056	 1
1463624226.837	 6	 -0.102930	 3.955166	 -3.847648	 -2.414079	 -1.367757	 1.098234	 -0.186353	 0.735235	 -0.647596	 0.072946	 1
1463624226.847	 6	 -0.096112	 4.028145	 -3.022129	 -2.273348	 -1.343761	 1.200696	 -0.185096	 0.733800	 -0.651944	 0.047395	 1
1463624226.857	 6	 0.034230	 3.731375	 -2.093483	 -2.176695	 -1.325267	 1.260904	 -0.181158	 0.732391	 -0.655835	 0.025818	 1
1463624226.867	 6	 0.199818	 3.235427	 -1.189379	 -2.107915	 -1.314245	 1.297314	 -0.175304	 0.730879	 -0.659547	 0.009049	 1
1463624226.877	 6	 0.330813	 2.795545	 -0.194928	 -2.060675	 -1.311877	 1.316017	 -0.167267	 0.729559	 -0.663142	 -0.002796	 1
1463624226.887	 6	 0.456009	 2.033562	 0.528005	 -2.030142	 -1.317095	 1.324378	 -0.158480	 0.728371	 -0.666537	 -0.009409	 1
1463624226.907	 7	 0.488952	 0.255138	 1.264663	 -2.011845	 -1.340255	 1.324886	 -0.145003	 0.726462	 -0.671685	 -0.008153	 1
1463624226.917	 7	 0.375543	 -0.411153	 1.447025	 -2.024984	 -1.354699	 1.314036	 -0.140768	 0.726100	 -0.673022	 -0.002204	 1
1463624226.927	 7	 0.200885	 -0.859917	 1.533893	 -2.054569	 -1.369378	 1.291594	 -0.137816	 0.726314	 -0.673379	 0.005854	 1
1463624226.937	 7	 -0.005329	 -1.082096	 1.466478	 -2.099610	 -1.382676	 1.256275	 -0.135880	 0.727125	 -0.672762	 0.014689	 1
1463624226.947	 7	 -0.214830	 -1.157845	 1.203289	 -2.155050	 -1.392749	 1.211497	 -0.135050	 0.728427	 -0.671285	 0.023053	 1
1463624226.967	 8	 -0.581680	 -0.887949	 0.140035	 -2.255508	 -1.395712	 1.131349	 -0.138477	 0.732057	 -0.666161	 0.033854	 1
1463624226.977	 8	 -0.438883	 -0.208931	 -0.182079	 -2.276387	 -1.391699	 1.114167	 -0.140298	 0.733538	 -0.664111	 0.034586	 1
1463624226.987	 8	 -0.169942	 0.623899	 -0.363180	 -2.270765	 -1.387700	 1.115709	 -0.140161	 0.734167	 -0.663581	 0.031841	 1
1463624226.997	 8	 0.048126	 1.478605	 -0.481819	 -2.242649	 -1.384180	 1.131413	 -0.137621	 0.734032	 -0.664529	 0.025676	 1
1463624227.007	 8	 0.145185	 2.219019	 -0.569562	 -2.199231	 -1.380599	 1.154752	 -0.132805	 0.733439	 -0.666454	 0.016418	 1
1463624227.017	 8	 0.110309	 2.571771	 -0.634184	 -2.150771	 -1.376206	 1.178522	 -0.126683	 0.732757	 -0.668574	 0.005220	 1
1463624227.027	 8	 0.038738	 2.559198	 -0.636875	 -2.105680	 -1.371065	 1.198212	 -0.120398	 0.732170	 -0.670367	 -0.006332	 1
1463624227.037	 8	 0.022348	 2.401432	 -0.545479	 -2.066496	 -1.366176	 1.213259	 -0.114298	 0.731615	 -0.671848	 -0.017192	 1
1463624227.047	 8	 0.048702	 2.197245	 -0.384547	 -2.032776	 -1.362582	 1.224703	 -0.108293	 0.730986	 -0.673210	 -0.026838	 1
1463624227.057	 8	 0.021121	 1.865633	 -0.216871	 -2.006480	 -1.360408	 1.231548	 -0.102636	 0.730434	 -0.674327	 -0.034849	 1
1463624227.067	 8	 -0.083296	 1.344607	 -0.092919	 -1.991561	 -1.359084	 1.231608	 -0.098055	 0.730274	 -0.674853	 -0.040711	 1
1463624227.077	 8	 -0.195946	 0.710444	 -0.026433	 -1.989313	 -1.358026	 1.225006	 -0.095229	 0.730645	 -0.674644	 -0.044106	 1
1463624227.087	 8	 -0.237992	 0.130164	 0.018624	 -1.996618	 -1.357139	 1.214787	 -0.094244	 0.731376	 -0.673919	 -0.045172	 1
1463624227.097	 8	 -0.186588	 -0.318531	 0.059829	 -2.008350	 -1.356730	 1.204996	 -0.094745	 0.732141	 -0.673075	 -0.044309	 1
1463624227.107	 8	 -0.061868	 -0.596309	 0.086000	 -2.019300	 -1.357063	 1.199286	 -0.096230	 0.732616	 -0.672487	 -0.042112	 1
1463624227.117	 8	 0.073108	 -0.692615	 0.060482	 -2.025821	 -1.357877	 1.199583	 -0.098271	 0.732651	 -0.672322	 -0.039360	 1
1463624227.127	 8	 0.124687	 -0.552929	 -0.016468	 -2.026866	 -1.358448	 1.204745	 -0.100329	 0.732356	 -0.672470	 -0.037057	 1
1463624227.137	 8	 -0.062542	 -0.021065	 -0.230502	 -2.025671	 -1.356966	 1.207620	 -0.101456	 0.732341	 -0.672320	 -0.037008	 1
1463624227.147	 8	 -0.195283	 0.437992	 -0.342308	 -2.022370	 -1.353265	 1.207703	 -0.101565	 0.732649	 -0.671832	 -0.039389	 1
1463624227.157	 8	 -0.369818	 0.911447	 -0.245793	 -2.022094	 -1.349334	 1.199792	 -0.099833	 0.733439	 -0.670981	 -0.043421	 1
1463624227.167	 8	 -0.499859	 1.240766	 -0.060417	 -2.027084	 -1.346310	 1.182694	 -0.096198	 0.734703	 -0.669795	 -0.048296	 1
1463624227.177	 8	 -0.531556	 1.387838	 0.113881	 -2.035552	 -1.344557	 1.160003	 -0.091245	 0.736168	 -0.668495	 -0.053336	 1
1463624227.187	 8	 -0.446425	 1.283636	 0.445754	 -2.047543	 -1.345509	 1.134111	 -0.085410	 0.737537	 -0.667432	 -0.057263	 1
1463624227.197	 8	 -0.296857	 0.986131	 0.841344	 -2.065381	 -1.350573	 1.104849	 -0.078976	 0.738653	 -0.666852	 -0.058850	 1
1463624227.207	 8	 -0.139037	 0.570149	 1.036463	 -2.087745	 -1.358465	 1.074984	 -0.072957	 0.739428	 -0.666744	 -0.058096	 1
1463624227.217	 8	 -0.040907	 0.056577	 1.096907	 -2.114189	 -1.367520	 1.046027	 -0.068305	 0.739949	 -0.666905	 -0.055203	 1
1463624227.227	 8	 -0.072914	 -0.450185	 1.163876	 -2.150242	 -1.376946	 1.012620	 -0.065139	 0.740606	 -0.666890	 -0.050170	 1
1463624227.237	 8	 -0.176047	 -0.841118	 1.187780	 -2.199318	 -1.385842	 0.970257	 -0.063202	 0.741666	 -0.666367	 -0.043501	 1
1463624227.247	 8	 -0.272088	 -1.152787	 1.291227	 -2.262789	 -1.394213	 0.916700	 -0.062099	 0.743093	 -0.665359	 -0.035408	 1
1463624227.267	 9	 -0.564347	 -1.663810	 1.398789	 -2.445257	 -1.407785	 0.761712	 -0.061383	 0.747320	 -0.661446	 -0.015316	 1
1463624227.277	 9	 -0.619721	 -1.683467	 1.452377	 -2.555561	 -1.411451	 0.667145	 -0.061579	 0.749871	 -0.658698	 -0.004421	 1
1463624227.287	 9	 -0.563692	 -1.396008	 1.514247	 -2.670480	 -1.414001	 0.565815	 -0.060810	 0.752246	 -0.656044	 0.005924	 1
1463624227.297	 9	 -0.430591	 -0.887955	 1.372872	 -2.775391	 -1.415498	 0.469976	 -0.058833	 0.754154	 -0.653901	 0.014292	 1
1463624227.307	 9	 -0.240191	 -0.254296	 1.268402	 -2.863311	 -1.416804	 0.385259	 -0.055408	 0.755428	 -0.652579	 0.019976	 1
1463624227.317	 9	 -0.048007	 0.408073	 1.310194	 -2.944373	 -1.418945	 0.300736	 -0.049693	 0.756107	 -0.652143	 0.023260	 1
1463624227.327	 9	 0.109891	 0.924947	 1.221974	 -3.017069	 -1.421677	 0.219040	 -0.042315	 0.756253	 -0.652457	 0.024308	 1
1463624227.337	 9	 0.185329	 1.170707	 1.114896	 -3.080876	 -1.424468	 0.143071	 -0.034288	 0.756038	 -0.653197	 0.023773	 1
1463624227.347	 9	 0.127404	 1.022877	 0.946700	 -3.137880	 -1.426293	 0.074514	 -0.026958	 0.755826	 -0.653814	 0.022965	 1
1463624227.357	 9	 -0.017605	 0.601192	 0.673335	 3.101406	 -1.426375	 0.022936	 -0.021816	 0.755927	 -0.653898	 0.022696	 1
1463624227.367	 9	 -0.180460	 0.153735	 0.505396	 3.067936	 -1.424670	 -0.013545	 -0.018943	 0.756470	 -0.653333	 0.023443	 1
1463624227.377	 9	 -0.328699	 -0.222821	 0.440303	 3.037853	 -1.421333	 -0.042599	 -0.017693	 0.757457	 -0.652151	 0.025412	 1
1463624227.387	 9	 -0.394310	 -0.498614	 0.370099	 3.011241	 -1.417054	 -0.065112	 -0.017695	 0.758687	 -0.650600	 0.028292	 1
1463624227.397	 9	 -0.376882	 -0.659189	 0.381242	 2.984819	 -1.412709	 -0.085515	 -0.018362	 0.759877	 -0.649027	 0.031857	 1
1463624227.407	 9	 -0.298459	 -0.720518	 0.316043	 2.960068	 -1.408965	 -0.103378	 -0.019417	 0.760830	 -0.647681	 0.035646	 1
1463624227.417	 9	 -0.190215	 -0.719829	 0.161637	 2.943740	 -1.406437	 -0.112684	 -0.021025	 0.761428	 -0.646735	 0.038977	 1
1463624227.427	 9	 -0.092126	 -0.699189	 0.114082	 2.930984	 -1.405088	 -0.118412	 -0.022889	 0.761662	 -0.646203	 0.042057	 1
1463624227.437	 9	 -0.054381	 -0.621607	 0.120869	 2.918530	 -1.404251	 -0.124576	 -0.024514	 0.761731	 -0.645874	 0.044857	 1
1463624227.447	 9	 -0.043525	 -0.595995	 0.137000	 2.905464	 -1.403466	 -0.131740	 -0.025953	 0.761768	 -0.645579	 0.047569	 1
1463624227.457	 9	 0.000019	 -0.630249	 0.124578	 2.891974	 -1.403040	 -0.139145	 -0.027458	 0.761672	 -0.645420	 0.050344	 1
1463624227.467	 9	 0.042381	 -0.640452	 0.054840	 2.880686	 -1.403171	 -0.144069	 -0.029235	 0.761409	 -0.645437	 0.053044	 1
1463624227.477	 9	 0.070717	 -0.702563	 0.008188	 2.871977	 -1.403751	 -0.146005	 -0.031352	 0.761018	 -0.645575	 0.055694	 1
1463624227.487	 9	 0.107281	 -0.880199	 0.021137	 2.861280	 -1.404647	 -0.148457	 -0.033941	 0.760469	 -0.645806	 0.058907	 1
1463624227.497	 9	 0.147685	 -1.168291	 0.057537	 2.845231	 -1.405825	 -0.153661	 -0.037239	 0.759701	 -0.646118	 0.063237	 1
1463624227.507	 9	 0.196119	 -1.553288	 0.081243	 2.822986	 -1.407345	 -0.161520	 -0.041572	 0.758643	 -0.646505	 0.069021	 1
1463624227.517	 9	 0.229168	 -2.021299	 0.091521	 2.794385	 -1.409158	 -0.171241	 -0.047298	 0.757251	 -0.646894	 0.076563	 1
1463624227.527	 9	 0.208816	 -2.485011	 0.086317	 2.760800	 -1.410880	 -0.181237	 -0.054548	 0.755605	 -0.647079	 0.085875	 1
1463624227.537	 9	 0.096572	 -2.752699	 0.088001	 2.725622	 -1.411745	 -0.189459	 -0.062914	 0.753976	 -0.646737	 0.096406	 1
1463624227.547	 9	 -0.062164	 -2.693745	 0.086734	 2.694043	 -1.411169	 -0.193815	 -0.071413	 0.752694	 -0.645688	 0.106954	 1
1463624227.557	 9	 -0.152407	 -2.374347	 0.093690	 2.668176	 -1.409544	 -0.195049	 -0.079100	 0.751792	 -0.644196	 0.116464	 1
1463624227.567	 9	 -0.141715	 -1.944450	 0.125307	 2.645628	 -1.407679	 -0.197071	 -0.085367	 0.751084	 -0.642718	 0.124497	 1
1463624227.577	 9	 -0.074131	 -1.456121	 0.170827	 2.624158	 -1.406113	 -0.202826	 -0.089903	 0.750438	 -0.641582	 0.130892	 1
1463624227.587	 9	 -0.019383	 -0.979408	 0.222746	 2.603374	 -1.404781	 -0.212805	 -0.092648	 0.749908	 -0.640822	 0.135652	 1
1463624227.597	 9	 0.015691	 -0.617366	 0.294018	 2.582197	 -1.403411	 -0.227194	 -0.093849	 0.749532	 -0.640336	 0.139156	 1
1463624227.607	 9	 0.008410	 -0.396783	 0.348356	 2.560513	 -1.401707	 -0.244662	 -0.094000	 0.749331	 -0.639943	 0.141917	 1
1463624227.617	 9	 -0.056976	 -0.259148	 0.381113	 2.540931	 -1.399314	 -0.261631	 -0.093548	 0.749424	 -0.639399	 0.144160	 1
1463624227.627	 9	 -0.118394	 -0.209594	 0.442858	 2.522263	 -1.396022	 -0.278373	 -0.092726	 0.749798	 -0.638597	 0.146285	 1
1463624227.637	 9	 -0.151094	 -0.201424	 0.529545	 2.502089	 -1.391875	 -0.296819	 -0.091576	 0.750343	 -0.637590	 0.148590	 1
1463624227.647	 9	 -0.151806	 -0.210268	 0.629651	 2.478845	 -1.386986	 -0.318344	 -0.090080	 0.750951	 -0.636466	 0.151226	 1
1463624227.657	 9	 -0.118425	 -0.214078	 0.707067	 2.452420	 -1.381670	 -0.343056	 -0.088267	 0.751502	 -0.635363	 0.154166	 1
1463624227.667	 9	 -0.079887	 -0.205537	 0.727061	 2.424717	 -1.376303	 -0.369145	 -0.086269	 0.751936	 -0.634376	 0.157220	 1
1463624227.677	 9	 -0.064993	 -0.176139	 0.680311	 2.399161	 -1.371161	 -0.393324	 -0.084292	 0.752300	 -0.633491	 0.160090	 1
1463624227.687	 9	 -0.077972	 -0.135289	 0.588083	 2.378297	 -1.366434	 -0.413145	 -0.082501	 0.752671	 -0.632661	 0.162545	 1
1463624227.707	 10	 -0.170077	 -0.050201	 0.404234	 2.353655	 -1.358002	 -0.436664	 -0.079698	 0.753741	 -0.630841	 0.166017	 1
1463624227.717	 10	 -0.229817	 0.008008	 0.340284	 2.349172	 -1.353969	 -0.441182	 -0.078563	 0.754555	 -0.629731	 0.167074	 1
1463624227.727	 10	 -0.279921	 0.036723	 0.319672	 2.347918	 -1.349788	 -0.442811	 -0.077464	 0.755552	 -0.628462	 0.167858	 1
1463624227.737	 10	 -0.311086	 -0.007801	 0.317196	 2.412917	 -1.363515	 -0.379414	 -0.083708	 0.754826	 -0.630405	 0.160685	 1
1463624227.747	 10	 -0.316967	 -0.121605	 0.315122	 2.410898	 -1.359044	 -0.380567	 -0.083052	 0.755885	 -0.628915	 0.161884	 1
1463624227.757	 10	 -0.295276	 -0.262169	 0.300836	 2.407521	 -1.354756	 -0.381722	 -0.082851	 0.756778	 -0.627430	 0.163567	 1
1463624227.767	 10	 -0.254414	 -0.406020	 0.281024	 2.402339	 -1.350867	 -0.383248	 -0.083145	 0.757426	 -0.626035	 0.165749	 1
1463624227.777	 10	 -0.191022	 -0.533950	 0.265341	 2.396432	 -1.360043	 -0.384175	 -0.086431	 0.754591	 -0.628932	 0.166032	 1
1463624227.787	 10	 -0.130332	 -0.545979	 0.244451	 2.387068	 -1.357289	 -0.388138	 -0.087339	 0.754694	 -0.627939	 0.168823	 1
1463624227.797	 10	 -0.084321	 -0.504765	 0.226316	 2.377175	 -1.355009	 -0.392968	 -0.088168	 0.754652	 -0.627159	 0.171460	 1
1463624227.807	 10	 -0.052187	 -0.452973	 0.194546	 2.367740	 -1.353161	 -0.397857	 -0.088911	 0.754527	 -0.626551	 0.173832	 1
1463624227.817	 10	 -0.028753	 -0.416215	 0.135959	 2.382594	 -1.363516	 -0.379345	 -0.093282	 0.752300	 -0.629058	 0.172132	 1
1463624227.827	 10	 -0.008442	 -0.346614	 0.061826	 2.376595	 -1.362862	 -0.381740	 -0.094139	 0.752063	 -0.628767	 0.173755	 1
1463624227.837	 10	 -0.004027	 -0.271493	 0.009198	 2.373213	 -1.362715	 -0.382233	 -0.094988	 0.751830	 -0.628601	 0.174899	 1
1463624227.847	 10	 -0.013399	 -0.211992	 -0.002955	 2.371204	 -1.362614	 -0.381985	 -0.095693	 0.751668	 -0.628451	 0.175751	 1
1463624227.857	 10	 -0.023944	 -0.169575	 -0.023787	 2.363076	 -1.364528	 -0.388121	 -0.096325	 0.750752	 -0.629233	 0.176519	 1
1463624227.867	 10	 -0.029088	 -0.136524	 -0.014909	 2.363192	 -1.364456	 -0.386526	 -0.096873	 0.750704	 -0.629074	 0.176990	 1
1463624227.877	 10	 -0.033135	 -0.112909	 0.013056	 2.362916	 -1.364185	 -0.385600	 -0.097253	 0.750705	 -0.628889	 0.177436	 1
1463624227.887	 10	 -0.029738	 -0.095692	 0.041962	 2.361768	 -1.363727	 -0.385757	 -0.097463	 0.750728	 -0.628696	 0.177903	 1
1463624227.897	 10	 -0.021025	 -0.082745	 0.070782	 2.359534	 -1.363105	 -0.387166	 -0.097511	 0.750758	 -0.628508	 0.178414	 1
1463624227.907	 10	 -0.012391	 -0.078377	 0.089931	 2.356322	 -1.362405	 -0.389643	 -0.097450	 0.750772	 -0.628342	 0.178973	 1
1463624227.917	 10	 0.009928	 -0.096534	 0.088502	 2.352301	 -1.361784	 -0.392838	 -0.097388	 0.750726	 -0.628229	 0.179596	 1
1463624227.927	 10	 0.023932	 -0.053104	 0.069601	 2.348540	 -1.361401	 -0.396026	 -0.097294	 0.750641	 -0.628207	 0.180078	 1
1463624227.937	 10	 0.014501	 -0.026399	 0.081655	 2.345082	 -1.360984	 -0.399253	 -0.097084	 0.750592	 -0.628193	 0.180442	 1
1463624227.947	 10	 -0.000514	 -0.052853	 0.094328	 2.341547	 -1.360346	 -0.402414	 -0.096877	 0.750588	 -0.628099	 0.180898	 1
1463624227.957	 10	 -0.008122	 -0.077334	 0.088838	 2.338088	 -1.359640	 -0.405215	 -0.096766	 0.750589	 -0.627955	 0.181452	 1
1463624227.967	 10	 -0.014629	 -0.091212	 0.079174	 2.335060	 -1.358964	 -0.407417	 -0.096750	 0.750591	 -0.627788	 0.182027	 1
1463624227.977	 10	 -0.017867	 -0.100760	 0.081245	 2.332101	 -1.358268	 -0.409436	 -0.096776	 0.750594	 -0.627603	 0.182639	 1
1463624227.987	 10	 -0.018947	 -0.106052	 0.084402	 2.328968	 -1.357526	 -0.411573	 -0.096802	 0.750598	 -0.627406	 0.183288	 1
1463624227.997	 10	 -0.004192	 -0.133863	 0.067989	 2.329997	 -1.361516	 -0.409457	 -0.098107	 0.749586	 -0.628557	 0.182791	 1
1463624228.007	 10	 0.017996	 -0.173348	 0.058902	 2.325823	 -1.361133	 -0.411969	 -0.098397	 0.749423	 -0.628458	 0.183640	 1
1463624228.017	 10	 0.021515	 -0.074714	 0.021422	 2.323083	 -1.361074	 -0.413752	 -0.098577	 0.749274	 -0.628468	 0.184118	 1
1463624228.027	 10	 -0.005009	 -0.043789	 0.021924	 2.321074	 -1.363275	 -0.415299	 -0.099094	 0.748613	 -0.629222	 0.183952	 1
1463624228.037	 10	 -0.025336	 -0.072292	 0.043151	 2.319941	 -1.362851	 -0.415783	 -0.099180	 0.748639	 -0.629073	 0.184308	 1
1463624228.047	 10	 -0.028558	 -0.077594	 0.044196	 2.318708	 -1.362325	 -0.416261	 -0.099277	 0.748681	 -0.628887	 0.184722	 1
1463624228.057	 10	 -0.022221	 -0.085112	 0.036610	 2.317499	 -1.361880	 -0.416655	 -0.099416	 0.748700	 -0.628719	 0.185139	 1
1463624228.067	 10	 -0.021231	 -0.098987	 0.031135	 2.311256	 -1.363442	 -0.421856	 -0.099766	 0.747991	 -0.629393	 0.185530	 1
1463624228.077	 10	 -0.021302	 -0.114954	 0.029918	 2.304282	 -1.364485	 -0.427608	 -0.100034	 0.747371	 -0.629913	 0.186118	 1
1463624228.087	 10	 -0.023463	 -0.121342	 0.028809	 2.298586	 -1.365225	 -0.432006	 -0.100346	 0.746877	 -0.630273	 0.186711	 1
1463624228.097	 10	 -0.018105	 -0.116059	 0.026680	 2.293212	 -1.365646	 -0.436128	 -0.100592	 0.746478	 -0.630522	 0.187333	 1
1463624228.107	 10	 -0.014844	 -0.106484	 0.028872	 2.287809	 -1.366032	 -0.440364	 -0.100800	 0.746089	 -0.630770	 0.187935	 1
1463624228.117	 10	 -0.011566	 -0.095821	 0.034271	 2.282665	 -1.366260	 -0.444461	 -0.100944	 0.745756	 -0.630968	 0.188514	 1
1463624228.127	 10	 -0.009366	 -0.089395	 0.041773	 2.277366	 -1.366425	 -0.448799	 -0.101036	 0.745435	 -0.631162	 0.189087	 1
1463624228.137	 10	 -0.006139	 -0.090425	 0.048130	 2.271662	 -1.366560	 -0.453559	 -0.101092	 0.745102	 -0.631367	 0.189682	 1
1463624228.147	 10	 -0.000780	 -0.089358	 0.051291	 2.265451	 -1.366729	 -0.458823	 -0.101131	 0.744737	 -0.631606	 0.190298	 1
1463624228.157	 10	 0.004624	 -0.077660	 0.053483	 2.260605	 -1.366811	 -0.462847	 -0.101182	 0.744459	 -0.631769	 0.190814	 1
1463624228.167	 10	 0.012155	 -0.060703	 0.048245	 2.257092	 -1.366874	 -0.465736	 -0.101231	 0.744255	 -0.631887	 0.191195	 1
1463624228.177	 10	 0.016479	 -0.045856	 0.044080	 2.254397	 -1.366983	 -0.467965	 -0.101277	 0.744084	 -0.631997	 0.191470	 1
1463624228.187	 10	 0.014371	 -0.035259	 0.037797	 2.252578	 -1.367271	 -0.469455	 -0.101364	 0.743917	 -0.632137	 0.191615	 1
1463624228.197	 10	 0.006870	 -0.035298	 0.029331	 2.250771	 -1.367665	 -0.470938	 -0.101474	 0.743725	 -0.632309	 0.191734	 1
1463624228.207	 10	 -0.000604	 -0.032123	 0.024093	 2.249577	 -1.367933	 -0.471821	 -0.101584	 0.743591	 -0.632416	 0.191841	 1
1463624228.217	 10	 -0.000585	 -0.024708	 0.019894	 2.249348	 -1.368186	 -0.471803	 -0.101721	 0.743508	 -0.632480	 0.191878	 1
1463624228.227	 10	 -0.001551	 -0.004487	 0.021151	 2.249328	 -1.368469	 -0.471749	 -0.101813	 0.743436	 -0.632561	 0.191842	 1
1463624228.237	 10	 0.005956	 0.009265	 0.013748	 2.249544	 -1.368849	 -0.471623	 -0.101878	 0.743360	 -0.632677	 0.191720	 1
1463624228.247	 10	 0.007005	 0.011336	 0.006292	 2.249853	 -1.369411	 -0.471455	 -0.101972	 0.743247	 -0.632850	 0.191538	 1
1463624228.257	 10	 0.008011	 0.005945	 -0.003364	 2.249922	 -1.369962	 -0.471471	 -0.102070	 0.743123	 -0.633025	 0.191389	 1
1463624228.267	 10	 0.007982	 0.004835	 -0.009771	 2.249557	 -1.370433	 -0.471871	 -0.102145	 0.742996	 -0.633189	 0.191297	 1
1463624228.277	 10	 0.007998	 0.008026	 -0.009743	 2.249413	 -1.370693	 -0.472075	 -0.102174	 0.742931	 -0.633281	 0.191230	 1
1463624228.287	 10	 0.010162	 0.012289	 -0.007591	 2.249312	 -1.370882	 -0.472287	 -0.102171	 0.742887	 -0.633355	 0.191160	 1
1463624228.297	 10	 0.010189	 0.013391	 -0.002253	 2.248842	 -1.371114	 -0.472896	 -0.102147	 0.742818	 -0.633460	 0.191092	 1
1463624228.307	 10	 0.004872	 0.013438	 0.002057	 2.248188	 -1.371236	 -0.473679	 -0.102091	 0.742766	 -0.633539	 0.191061	 1
1463624228.317	 10	 0.008088	 0.014507	 0.004170	 2.247329	 -1.371341	 -0.474673	 -0.102018	 0.742710	 -0.633622	 0.191042	 1
1463624228.327	 10	 0.009136	 0.010248	 0.004120	 2.246723	 -1.371511	 -0.475408	 -0.101977	 0.742649	 -0.633714	 0.190998	 1
1463624228.337	 10	 0.004867	 0.008149	 0.006268	 2.246005	 -1.371681	 -0.476207	 -0.101946	 0.742581	 -0.633806	 0.190975	 1
1463624228.347	 10	 -0.000467	 0.008164	 0.006315	 2.245009	 -1.371799	 -0.477263	 -0.101897	 0.742511	 -0.633892	 0.190985	 1
1463624228.357	 10	 -0.001503	 0.012437	 0.008495	 2.243962	 -1.371876	 -0.478407	 -0.101822	 0.742451	 -0.633971	 0.190994	 1
1463624228.367	 10	 0.000663	 0.016699	 0.010647	 2.242706	 -1.372018	 -0.479806	 -0.101734	 0.742369	 -0.634084	 0.190986	 1
1463624228.377	 10	 0.007091	 0.018830	 0.013806	 2.241340	 -1.372222	 -0.481354	 -0.101640	 0.742269	 -0.634225	 0.190958	 1
1463624228.387	 10	 0.014549	 0.015615	 0.013711	 2.239540	 -1.372429	 -0.483312	 -0.101531	 0.742147	 -0.634384	 0.190959	 1
1463624228.397	 10	 0.022005	 0.010289	 0.015727	 2.237425	 -1.372631	 -0.485554	 -0.101417	 0.742011	 -0.634552	 0.190989	 1
1463624228.407	 10	 0.026259	 0.004973	 0.017772	 2.235132	 -1.372829	 -0.487916	 -0.101315	 0.741865	 -0.634722	 0.191047	 1
1463624228.417	 10	 0.026270	 0.006044	 0.018847	 2.233190	 -1.372966	 -0.489936	 -0.101214	 0.741750	 -0.634858	 0.191096	 1
1463624228.427	 10	 0.030565	 0.012405	 0.017801	 2.231597	 -1.373158	 -0.491671	 -0.101121	 0.741641	 -0.635001	 0.191094	 1
1463624228.437	 10	 0.030583	 0.018765	 0.014660	 2.230576	 -1.373338	 -0.492908	 -0.101029	 0.741563	 -0.635123	 0.191041	 1
1463624228.447	 10	 0.026307	 0.022986	 0.008340	 2.230356	 -1.373488	 -0.493398	 -0.100953	 0.741532	 -0.635204	 0.190934	 1
1463624228.457	 10	 0.019920	 0.027253	 0.007368	 2.229974	 -1.373623	 -0.494075	 -0.100854	 0.741498	 -0.635290	 0.190830	 1
1463624228.467	 10	 0.013525	 0.026232	 0.010610	 2.229609	 -1.373736	 -0.494725	 -0.100756	 0.741469	 -0.635368	 0.190734	 1
1463624228.477	 10	 0.008208	 0.027335	 0.013862	 2.229421	 -1.373817	 -0.495202	 -0.100658	 0.741456	 -0.635428	 0.190635	 1
1463624228.487	 10	 0.008203	 0.024159	 0.015962	 2.228824	 -1.373949	 -0.496065	 -0.100559	 0.741412	 -0.635520	 0.190553	 1
1463624228.497	 10	 0.010334	 0.024145	 0.014874	 2.228398	 -1.374148	 -0.496758	 -0.100484	 0.741360	 -0.635625	 0.190446	 1
1463624228.507	 10	 0.015677	 0.025193	 0.014833	 2.227764	 -1.374435	 -0.497662	 -0.100418	 0.741278	 -0.635766	 0.190331	 1
1463624228.517	 10	 0.023140	 0.025156	 0.012632	 2.227073	 -1.374739	 -0.498641	 -0.100346	 0.741190	 -0.635916	 0.190208	 1
1463624228.527	 10	 0.025264	 0.023022	 0.012589	 2.226523	 -1.375014	 -0.499469	 -0.100279	 0.741115	 -0.636050	 0.190087	 1
1463624228.537	 10	 0.019886	 0.016634	 0.009375	 2.226315	 -1.375306	 -0.499903	 -0.100254	 0.741049	 -0.636169	 0.189962	 1
1463624228.547	 10	 0.014481	 0.003871	 0.007168	 2.226250	 -1.375552	 -0.500069	 -0.100270	 0.740993	 -0.636255	 0.189879	 1
1463624228.557	 10	 0.008010	 -0.007833	 0.003913	 2.226437	 -1.375851	 -0.499864	 -0.100357	 0.740931	 -0.636335	 0.189808	 1
1463624228.567	 10	 0.001564	 -0.015274	 0.001764	 2.226649	 -1.376065	 -0.499533	 -0.100463	 0.740884	 -0.636379	 0.189788	 1
1463624228.577	 10	 -0.001639	 -0.017376	 0.003902	 2.226939	 -1.376134	 -0.499087	 -0.100553	 0.740873	 -0.636372	 0.189807	 1
1463624228.587	 10	 -0.000581	 -0.019507	 0.003871	 2.226672	 -1.376207	 -0.499166	 -0.100625	 0.740835	 -0.636388	 0.189865	 1
1463624228.597	 10	 0.001563	 -0.019498	 0.005983	 2.226076	 -1.376284	 -0.499561	 -0.100687	 0.740780	 -0.636419	 0.189943	 1
1463624228.607	 10	 0.004770	 -0.018444	 0.005965	 2.225496	 -1.376302	 -0.499952	 -0.100730	 0.740741	 -0.636432	 0.190029	 1
1463624228.617	 10	 0.006918	 -0.016315	 0.007030	 2.225159	 -1.376358	 -0.500135	 -0.100783	 0.740705	 -0.636449	 0.190083	 1
1463624228.627	 10	 0.011192	 -0.014208	 0.005945	 2.224737	 -1.376415	 -0.500423	 -0.100824	 0.740666	 -0.636473	 0.190135	 1
1463624228.637	 10	 0.011188	 -0.014215	 0.004877	 2.224295	 -1.376538	 -0.500740	 -0.100876	 0.740611	 -0.636517	 0.190171	 1
1463624228.647	 10	 0.005806	 -0.014248	 0.002875	 2.224414	 -1.376674	 -0.500503	 -0.100959	 0.740579	 -0.636542	 0.190172	 1
1463624228.657	 10	 0.001511	 -0.020609	 0.003917	 2.224401	 -1.376761	 -0.500339	 -0.101044	 0.740549	 -0.636552	 0.190210	 1
1463624228.667	 10	 -0.004940	 -0.028059	 0.000705	 2.224573	 -1.376831	 -0.499907	 -0.101166	 0.740527	 -0.636540	 0.190268	 1
1463624228.677	 10	 -0.004974	 -0.034448	 -0.000423	 2.224742	 -1.377003	 -0.499417	 -0.101334	 0.740478	 -0.636554	 0.190323	 1
1463624228.687	 10	 -0.006064	 -0.039763	 -0.000465	 2.224613	 -1.377213	 -0.499160	 -0.101520	 0.740404	 -0.636586	 0.190406	 1
1463624228.697	 10	 -0.001803	 -0.039791	 -0.002637	 2.224386	 -1.377432	 -0.498981	 -0.101710	 0.740322	 -0.636623	 0.190499	 1
1463624228.707	 10	 0.001391	 -0.040872	 -0.003742	 2.224096	 -1.377636	 -0.498866	 -0.101893	 0.740240	 -0.636659	 0.190597	 1
1463624228.717	 10	 0.002459	 -0.040876	 -0.003753	 2.223689	 -1.377806	 -0.498864	 -0.102063	 0.740162	 -0.636689	 0.190711	 1
1463624228.727	 10	 0.003546	 -0.037680	 -0.002669	 2.223179	 -1.378013	 -0.498986	 -0.102229	 0.740071	 -0.636737	 0.190815	 1
1463624228.737	 10	 0.001423	 -0.035546	 -0.002632	 2.222920	 -1.378149	 -0.498887	 -0.102381	 0.740009	 -0.636755	 0.190912	 1
1463624228.747	 10	 0.001447	 -0.031284	 -0.001527	 2.222810	 -1.378202	 -0.498673	 -0.102508	 0.739975	 -0.636745	 0.191009	 1
1463624228.757	 10	 -0.000663	 -0.027015	 -0.000404	 2.222729	 -1.378221	 -0.498482	 -0.102609	 0.739953	 -0.636728	 0.191096	 1
1463624228.767	 10	 -0.000643	 -0.022760	 -0.000365	 2.222811	 -1.378235	 -0.498166	 -0.102702	 0.739942	 -0.636707	 0.191162	 1
1463624228.777	 10	 0.001502	 -0.018527	 -0.002477	 2.222988	 -1.378307	 -0.497801	 -0.102798	 0.739923	 -0.636702	 0.191198	 1
1463624228.787	 10	 0.004737	 -0.013203	 -0.000326	 2.223001	 -1.378386	 -0.497651	 -0.102868	 0.739898	 -0.636712	 0.191223	 1
1463624228.797	 10	 0.003697	 -0.005770	 -0.002379	 2.222919	 -1.378452	 -0.497662	 -0.102906	 0.739876	 -0.636729	 0.191235	 1
1463624228.807	 10	 0.003707	 -0.003642	 -0.002360	 2.222873	 -1.378499	 -0.497665	 -0.102931	 0.739860	 -0.636741	 0.191241	 1
1463624228.817	 10	 0.003721	 -0.002563	 -0.000219	 2.222493	 -1.378584	 -0.498013	 -0.102943	 0.739822	 -0.636780	 0.191252	 1
1463624228.827	 10	 0.004789	 -0.003623	 0.000829	 2.221770	 -1.378629	 -0.498694	 -0.102932	 0.739777	 -0.636822	 0.191292	 1
1463624228.837	 10	 0.008013	 -0.001482	 0.004019	 2.221056	 -1.378605	 -0.499391	 -0.102896	 0.739750	 -0.636845	 0.191339	 1
1463624228.847	 10	 0.009094	 -0.000407	 0.006151	 2.220427	 -1.378613	 -0.500029	 -0.102862	 0.739721	 -0.636876	 0.191367	 1
1463624228.857	 10	 0.005889	 -0.001461	 0.006169	 2.219629	 -1.378636	 -0.500820	 -0.102829	 0.739680	 -0.636917	 0.191405	 1
1463624228.867	 10	 0.005870	 -0.003604	 0.004018	 2.218994	 -1.378647	 -0.501434	 -0.102807	 0.739648	 -0.636947	 0.191442	 1
1463624228.877	 10	 0.003750	 -0.002518	 0.006178	 2.218744	 -1.378669	 -0.501661	 -0.102807	 0.739631	 -0.636962	 0.191458	 1
1463624228.887	 10	 0.004800	 -0.003608	 0.002960	 2.218357	 -1.378762	 -0.502016	 -0.102822	 0.739590	 -0.637004	 0.191467	 1
1463624228.897	 10	 0.008014	 -0.000435	 0.001894	 2.217996	 -1.378915	 -0.502373	 -0.102841	 0.739539	 -0.637065	 0.191453	 1
1463624228.907	 10	 0.009088	 0.002738	 -0.000219	 2.217757	 -1.379061	 -0.502643	 -0.102852	 0.739496	 -0.637123	 0.191422	 1
1463624228.917	 10	 0.009095	 0.005913	 -0.002322	 2.217614	 -1.379227	 -0.502844	 -0.102862	 0.739454	 -0.637184	 0.191374	 1
1463624228.927	 10	 0.005872	 0.003772	 -0.005513	 2.217482	 -1.379417	 -0.503016	 -0.102886	 0.739405	 -0.637251	 0.191326	 1
1463624228.937	 10	 -0.000516	 0.006982	 -0.005429	 2.217819	 -1.379562	 -0.502739	 -0.102915	 0.739390	 -0.637285	 0.191257	 1
1463624228.947	 10	 0.002717	 0.013355	 -0.005399	 2.218038	 -1.379683	 -0.502633	 -0.102914	 0.739377	 -0.637322	 0.191183	 1
1463624228.957	 10	 0.003814	 0.018678	 -0.004294	 2.218173	 -1.379782	 -0.502662	 -0.102883	 0.739368	 -0.637362	 0.191102	 1
1463624228.967	 10	 0.007025	 0.019739	 -0.003246	 2.218179	 -1.379875	 -0.502850	 -0.102834	 0.739357	 -0.637408	 0.191019	 1
1463624228.977	 10	 0.009172	 0.018700	 0.000989	 2.217870	 -1.379958	 -0.503348	 -0.102768	 0.739334	 -0.637464	 0.190956	 1
1463624228.987	 10	 0.012386	 0.017657	 0.005214	 2.217204	 -1.380043	 -0.504195	 -0.102687	 0.739294	 -0.637536	 0.190913	 1
1463624228.997	 10	 0.018790	 0.017638	 0.005158	 2.216338	 -1.380132	 -0.505245	 -0.102596	 0.739244	 -0.637619	 0.190878	 1
1463624229.007	 10	 0.020928	 0.017639	 0.006205	 2.215547	 -1.380184	 -0.506234	 -0.102495	 0.739207	 -0.637688	 0.190844	 1
1463624229.017	 10	 0.020925	 0.015528	 0.008316	 2.214974	 -1.380271	 -0.506990	 -0.102419	 0.739171	 -0.637757	 0.190795	 1
1463624229.027	 10	 0.015588	 0.014488	 0.009418	 2.214403	 -1.380265	 -0.507730	 -0.102327	 0.739156	 -0.637796	 0.190771	 1
1463624229.037	 10	 0.009199	 0.017698	 0.009503	 2.214053	 -1.380225	 -0.508265	 -0.102231	 0.739159	 -0.637818	 0.190739	 1
1463624229.047	 10	 0.004970	 0.026220	 0.009620	 2.213956	 -1.380140	 -0.508611	 -0.102114	 0.739187	 -0.637820	 0.190684	 1
1463624229.057	 10	 0.007156	 0.037906	 0.008643	 2.213692	 -1.380138	 -0.509240	 -0.101965	 0.739195	 -0.637866	 0.190581	 1
1463624229.067	 10	 0.009331	 0.045353	 0.009758	 2.213575	 -1.380199	 -0.509808	 -0.101807	 0.739198	 -0.637932	 0.190429	 1
1463624229.077	 10	 0.016812	 0.047458	 0.009712	 2.213051	 -1.380276	 -0.510821	 -0.101618	 0.739182	 -0.638025	 0.190282	 1
1463624229.087	 10	 0.024277	 0.046372	 0.009636	 2.212406	 -1.380402	 -0.511961	 -0.101433	 0.739150	 -0.638138	 0.190129	 1
1463624229.097	 10	 0.026381	 0.039984	 0.009556	 2.211741	 -1.380593	 -0.513072	 -0.101280	 0.739098	 -0.638267	 0.189977	 1
1463624229.107	 10	 0.021014	 0.033618	 0.009541	 2.211391	 -1.380731	 -0.513807	 -0.101153	 0.739070	 -0.638360	 0.189841	 1
1463624229.117	 10	 0.011379	 0.028321	 0.008506	 2.211749	 -1.380854	 -0.513773	 -0.101081	 0.739074	 -0.638411	 0.189691	 1
1463624229.127	 10	 0.002809	 0.024070	 0.005341	 2.212376	 -1.380961	 -0.513419	 -0.101037	 0.739091	 -0.638441	 0.189549	 1
1463624229.137	 10	 -0.001493	 0.018749	 0.003193	 2.213094	 -1.381112	 -0.512910	 -0.101032	 0.739098	 -0.638474	 0.189412	 1
1463624229.147	 10	 -0.002578	 0.016610	 0.001047	 2.213775	 -1.381306	 -0.512412	 -0.101045	 0.739093	 -0.638519	 0.189275	 1
1463624229.157	 10	 -0.003660	 0.012366	 0.002080	 2.214231	 -1.381455	 -0.512098	 -0.101051	 0.739085	 -0.638557	 0.189174	 1
1463624229.167	 10	 -0.000501	 0.003839	 0.000904	 2.214205	 -1.381675	 -0.512189	 -0.101079	 0.739037	 -0.638629	 0.189105	 1
1463624229.177	 10	 0.002675	 -0.000440	 -0.001298	 2.214024	 -1.381911	 -0.512375	 -0.101124	 0.738974	 -0.638708	 0.189059	 1
1463624229.187	 10	 0.005865	 -0.001529	 -0.003473	 2.214059	 -1.382285	 -0.512330	 -0.101219	 0.738888	 -0.638817	 0.188976	 1
1463624229.197	 10	 0.006948	 0.003771	 -0.005566	 2.214422	 -1.382433	 -0.512001	 -0.101260	 0.738872	 -0.638848	 0.188914	 1
1463624229.207	 10	 0.004827	 0.004856	 -0.003407	 2.214637	 -1.382506	 -0.511836	 -0.101270	 0.738867	 -0.638865	 0.188871	 1
1463624229.217	 10	 0.003734	 -0.000459	 -0.003448	 2.214749	 -1.382582	 -0.511744	 -0.101286	 0.738855	 -0.638885	 0.188841	 1
1463624229.227	 10	 0.000522	 -0.002576	 -0.003440	 2.214928	 -1.382632	 -0.511543	 -0.101315	 0.738850	 -0.638889	 0.188828	 1
1463624229.237	 10	 -0.002690	 -0.005750	 -0.002377	 2.215160	 -1.382668	 -0.511264	 -0.101352	 0.738849	 -0.638886	 0.188824	 1
1463624229.247	 10	 -0.005880	 -0.002557	 -0.003386	 2.215353	 -1.382729	 -0.511034	 -0.101390	 0.738842	 -0.638892	 0.188813	 1
1463624229.257	 10	 -0.006949	 -0.001506	 -0.005499	 2.215690	 -1.382821	 -0.510667	 -0.101440	 0.738833	 -0.638902	 0.188784	 1
1463624229.267	 10	 -0.008008	 0.000617	 -0.006536	 2.215689	 -1.382903	 -0.510651	 -0.101466	 0.738814	 -0.638924	 0.188771	 1
1463624229.277	 10	 -0.003734	 0.000611	 -0.005508	 2.215726	 -1.382971	 -0.510613	 -0.101485	 0.738799	 -0.638943	 0.188755	 1
1463624229.287	 10	 -0.000517	 0.001680	 -0.003395	 2.215601	 -1.383071	 -0.510739	 -0.101502	 0.738771	 -0.638978	 0.188738	 1
1463624229.297	 10	 0.004828	 0.002736	 -0.002366	 2.215634	 -1.383138	 -0.510731	 -0.101510	 0.738758	 -0.638999	 0.188713	 1
1463624229.307	 10	 0.005895	 0.003789	 -0.003432	 2.215751	 -1.383225	 -0.510658	 -0.101520	 0.738745	 -0.639024	 0.188674	 1
1463624229.317	 10	 0.005899	 0.004853	 -0.003424	 2.216265	 -1.383307	 -0.510206	 -0.101543	 0.738751	 -0.639032	 0.188610	 1
1463624229.327	 10	 -0.000524	 0.003785	 -0.006576	 2.217118	 -1.383341	 -0.509399	 -0.101576	 0.738783	 -0.639009	 0.188545	 1
1463624229.337	 10	 -0.005881	 0.000603	 -0.007626	 2.218238	 -1.383339	 -0.508295	 -0.101626	 0.738833	 -0.638961	 0.188484	 1
1463624229.347	 10	 -0.013365	 -0.003614	 -0.005469	 2.219325	 -1.383296	 -0.507173	 -0.101683	 0.738888	 -0.638898	 0.188451	 1
1463624229.357	 10	 -0.014463	 -0.009992	 -0.005521	 2.220387	 -1.383322	 -0.506016	 -0.101777	 0.738923	 -0.638851	 0.188423	 1
1463624229.367	 10	 -0.014481	 -0.014247	 -0.005561	 2.220884	 -1.383372	 -0.505370	 -0.101869	 0.738926	 -0.638830	 0.188434	 1
1463624229.377	 10	 -0.013413	 -0.014250	 -0.005572	 2.221328	 -1.383435	 -0.504767	 -0.101965	 0.738922	 -0.638815	 0.188449	 1
1463624229.387	 10	 -0.008060	 -0.011076	 -0.005590	 2.221538	 -1.383517	 -0.504422	 -0.102045	 0.738905	 -0.638818	 0.188463	 1
1463624229.397	 10	 -0.002707	 -0.006845	 -0.006663	 2.221583	 -1.383590	 -0.504288	 -0.102097	 0.738885	 -0.638829	 0.188472	 1
1463624229.407	 10	 0.000500	 -0.005791	 -0.006681	 2.221439	 -1.383655	 -0.504362	 -0.102131	 0.738860	 -0.638848	 0.188488	 1
1463624229.417	 10	 0.001566	 -0.006850	 -0.005634	 2.221425	 -1.383700	 -0.504309	 -0.102166	 0.738846	 -0.638856	 0.188500	 1
1463624229.427	 10	 -0.000559	 -0.004717	 -0.005595	 2.221652	 -1.383665	 -0.504023	 -0.102191	 0.738861	 -0.638830	 0.188515	 1
1463624229.437	 10	 -0.003767	 -0.005771	 -0.005576	 2.222041	 -1.383621	 -0.503569	 -0.102224	 0.738885	 -0.638794	 0.188526	 1
1463624229.447	 10	 -0.005878	 -0.002558	 -0.003396	 2.222470	 -1.383600	 -0.503110	 -0.102252	 0.738906	 -0.638766	 0.188519	 1
1463624229.457	 10	 -0.006926	 0.001700	 -0.003347	 2.223074	 -1.383545	 -0.502504	 -0.102270	 0.738945	 -0.638724	 0.188502	 1
1463624229.467	 10	 -0.005829	 0.007023	 -0.002241	 2.223306	 -1.383527	 -0.502322	 -0.102258	 0.738962	 -0.638713	 0.188478	 1
1463624229.477	 10	 -0.005825	 0.007030	 -0.001175	 2.223585	 -1.383523	 -0.502113	 -0.102245	 0.738979	 -0.638706	 0.188443	 1
1463624229.487	 10	 -0.005833	 0.005959	 -0.002252	 2.223914	 -1.383549	 -0.501848	 -0.102244	 0.738990	 -0.638706	 0.188400	 1
1463624229.497	 10	 -0.007972	 0.004902	 -0.002244	 2.224179	 -1.383586	 -0.501617	 -0.102254	 0.738994	 -0.638709	 0.188367	 1
1463624229.507	 10	 -0.007960	 0.007029	 -0.002225	 2.224572	 -1.383625	 -0.501281	 -0.102262	 0.739005	 -0.638709	 0.188321	 1
1463624229.517	 10	 -0.003657	 0.012350	 -0.000083	 2.224909	 -1.383691	 -0.501059	 -0.102252	 0.739010	 -0.638725	 0.188253	 1
1463624229.527	 10	 0.001695	 0.016581	 -0.001158	 2.225214	 -1.383818	 -0.500911	 -0.102239	 0.739001	 -0.638765	 0.188159	 1
1463624229.537	 10	 0.001675	 0.016542	 -0.006488	 2.225522	 -1.383962	 -0.500775	 -0.102225	 0.738990	 -0.638811	 0.188057	 1
1463624229.547	 10	 -0.000484	 0.013342	 -0.008633	 2.226292	 -1.384093	 -0.500147	 -0.102242	 0.738999	 -0.638831	 0.187944	 1
1463624229.557	 10	 -0.005839	 0.010160	 -0.009683	 2.227083	 -1.384183	 -0.499458	 -0.102265	 0.739017	 -0.638833	 0.187852	 1
1463624229.567	 10	 -0.010123	 0.005925	 -0.008620	 2.227893	 -1.384255	 -0.498706	 -0.102301	 0.739037	 -0.638826	 0.187776	 1
1463624229.577	 10	 -0.012271	 0.002741	 -0.008631	 2.228453	 -1.384286	 -0.498161	 -0.102331	 0.739055	 -0.638812	 0.187737	 1
1463624229.587	 10	 -0.011207	 0.000617	 -0.007595	 2.228800	 -1.384355	 -0.497804	 -0.102368	 0.739053	 -0.638817	 0.187707	 1
1463624229.597	 10	 -0.006928	 0.001676	 -0.006557	 2.229003	 -1.384431	 -0.497608	 -0.102394	 0.739044	 -0.638832	 0.187678	 1
1463624229.607	 10	 -0.000511	 0.002735	 -0.004472	 2.229172	 -1.384506	 -0.497456	 -0.102413	 0.739034	 -0.638849	 0.187648	 1
1463624229.617	 10	 0.008040	 0.003789	 -0.002404	 2.228835	 -1.384534	 -0.497824	 -0.102391	 0.739015	 -0.638875	 0.187648	 1
1463624229.627	 10	 0.010157	 -0.000464	 -0.001395	 2.228623	 -1.384528	 -0.498050	 -0.102374	 0.739008	 -0.638884	 0.187655	 1
1463624229.637	 10	 0.005866	 -0.005762	 -0.000340	 2.228419	 -1.384485	 -0.498225	 -0.102365	 0.739008	 -0.638876	 0.187685	 1
1463624229.647	 10	 0.000493	 -0.007893	 -0.000257	 2.228303	 -1.384379	 -0.498271	 -0.102360	 0.739024	 -0.638843	 0.187736	 1
1463624229.657	 10	 -0.005874	 -0.002532	 0.003047	 2.228583	 -1.384213	 -0.497952	 -0.102349	 0.739073	 -0.638778	 0.187771	 1
1463624229.667	 10	 -0.007953	 0.010231	 0.002119	 2.229097	 -1.384061	 -0.497518	 -0.102310	 0.739135	 -0.638718	 0.187754	 1
1463624229.677	 10	 -0.007884	 0.024066	 0.003313	 2.229595	 -1.383948	 -0.497220	 -0.102234	 0.739194	 -0.638681	 0.187690	 1
1463624229.687	 10	 -0.001439	 0.034668	 0.001224	 2.230055	 -1.383928	 -0.497084	 -0.102133	 0.739234	 -0.638686	 0.187568	 1
1463624229.697	 10	 0.006046	 0.035725	 0.003299	 2.230037	 -1.383999	 -0.497462	 -0.102016	 0.739235	 -0.638741	 0.187438	 1
1463624229.707	 10	 0.011362	 0.032510	 0.002157	 2.229875	 -1.384068	 -0.497964	 -0.101898	 0.739230	 -0.638801	 0.187322	 1
1463624229.717	 10	 0.011345	 0.028263	 0.003183	 2.229832	 -1.384115	 -0.498316	 -0.101793	 0.739232	 -0.638846	 0.187216	 1
1463624229.727	 10	 0.003845	 0.022960	 0.002132	 2.230162	 -1.384171	 -0.498244	 -0.101727	 0.739246	 -0.638873	 0.187104	 1
1463624229.737	 10	 -0.003655	 0.017656	 0.001080	 2.230844	 -1.384246	 -0.497758	 -0.101707	 0.739268	 -0.638885	 0.186991	 1
1463624229.747	 10	 -0.010072	 0.015540	 0.000049	 2.231793	 -1.384268	 -0.496975	 -0.101698	 0.739311	 -0.638866	 0.186885	 1
1463624229.757	 10	 -0.011155	 0.012353	 0.000026	 2.232831	 -1.384298	 -0.496060	 -0.101712	 0.739355	 -0.638843	 0.186787	 1
1463624229.767	 10	 -0.006890	 0.012332	 -0.001079	 2.233632	 -1.384393	 -0.495381	 -0.101729	 0.739372	 -0.638849	 0.186687	 1
1463624229.777	 10	 -0.002626	 0.011256	 -0.001128	 2.234097	 -1.384487	 -0.495041	 -0.101729	 0.739376	 -0.638869	 0.186603	 1
1463624229.787	 10	 -0.004814	 0.001674	 -0.003332	 2.234715	 -1.384569	 -0.494476	 -0.101759	 0.739386	 -0.638872	 0.186536	 1
1463624229.797	 10	 -0.009132	 -0.007894	 -0.004451	 2.235389	 -1.384661	 -0.493746	 -0.101835	 0.739390	 -0.638866	 0.186500	 1
1463624229.807	 10	 -0.009156	 -0.012156	 -0.005557	 2.235876	 -1.384720	 -0.493134	 -0.101919	 0.739390	 -0.638852	 0.186503	 1
1463624229.817	 10	 -0.009167	 -0.008899	 -0.004472	 2.236405	 -1.384703	 -0.492495	 -0.101983	 0.739411	 -0.638814	 0.186515	 1
1463624229.827	 10	 -0.008080	 -0.005704	 -0.003386	 2.236748	 -1.384684	 -0.492076	 -0.102024	 0.739426	 -0.638787	 0.186526	 1
1463624229.837	 10	 -0.008077	 -0.006752	 -0.001264	 2.237101	 -1.384629	 -0.491648	 -0.102056	 0.739450	 -0.638748	 0.186544	 1
1463624229.847	 10	 -0.010213	 -0.008858	 0.000866	 2.237298	 -1.384593	 -0.491359	 -0.102092	 0.739462	 -0.638720	 0.186572	 1
1463624229.857	 10	 -0.011293	 -0.009934	 -0.001266	 2.237556	 -1.384564	 -0.490984	 -0.102142	 0.739474	 -0.638690	 0.186603	 1
1463624229.867	 10	 -0.011260	 -0.001440	 -0.003319	 2.237963	 -1.384534	 -0.490529	 -0.102173	 0.739496	 -0.638659	 0.186604	 1
1463624229.877	 10	 -0.009090	 0.007055	 -0.004324	 2.238541	 -1.384524	 -0.489989	 -0.102185	 0.739525	 -0.638635	 0.186565	 1
1463624229.887	 10	 -0.006929	 0.012367	 -0.004294	 2.238936	 -1.384570	 -0.489691	 -0.102180	 0.739535	 -0.638642	 0.186504	 1
1463624229.897	 10	 -0.002665	 0.011290	 -0.004342	 2.239067	 -1.384640	 -0.489674	 -0.102161	 0.739530	 -0.638668	 0.186446	 1
1463624229.907	 10	 0.001588	 0.007030	 -0.003353	 2.239069	 -1.384704	 -0.489742	 -0.102150	 0.739518	 -0.638694	 0.186409	 1
1463624229.917	 10	 0.001576	 0.002791	 -0.001260	 2.239246	 -1.384693	 -0.489606	 -0.102141	 0.739531	 -0.638686	 0.186390	 1
1463624229.927	 10	 -0.000577	 0.001711	 -0.004450	 2.239775	 -1.384720	 -0.489094	 -0.102168	 0.739547	 -0.638674	 0.186352	 1
1463624229.937	 10	 -0.005939	 -0.003591	 -0.004454	 2.240819	 -1.384748	 -0.488041	 -0.102230	 0.739584	 -0.638638	 0.186296	 1
1463624229.957	 11	 -0.015574	 -0.007832	 -0.006543	 2.243168	 -1.384713	 -0.485559	 -0.102390	 0.739684	 -0.638516	 0.186227	 1
1463624229.967	 11	 -0.016643	 -0.008885	 -0.005478	 2.244197	 -1.384644	 -0.484425	 -0.102465	 0.739739	 -0.638442	 0.186224	 1
1463624229.977	 11	 -0.015610	 -0.008804	 -0.005512	 2.244988	 -1.384614	 -0.483526	 -0.102538	 0.739773	 -0.638390	 0.186225	 1
1463624229.987	 11	 -0.012419	 -0.010941	 -0.005560	 2.245522	 -1.384612	 -0.482869	 -0.102611	 0.739790	 -0.638356	 0.186237	 1
1463624229.997	 11	 -0.010281	 -0.011996	 -0.003456	 2.245809	 -1.384557	 -0.482448	 -0.102662	 0.739808	 -0.638314	 0.186277	 1
1463624230.007	 11	 -0.009209	 -0.011992	 -0.002400	 2.245791	 -1.384552	 -0.482326	 -0.102711	 0.739801	 -0.638301	 0.186324	 1
1463624230.017	 11	 -0.009198	 -0.009864	 -0.002379	 2.245866	 -1.384515	 -0.482134	 -0.102750	 0.739807	 -0.638276	 0.186365	 1
1463624230.027	 11	 -0.010250	 -0.007726	 -0.001284	 2.246046	 -1.384467	 -0.481866	 -0.102781	 0.739822	 -0.638245	 0.186395	 1
1463624230.037	 11	 -0.009169	 -0.005594	 -0.000208	 2.246450	 -1.384424	 -0.481390	 -0.102818	 0.739845	 -0.638208	 0.186407	 1
1463624230.047	 11	 -0.008096	 -0.003478	 -0.001264	 2.246785	 -1.384429	 -0.481008	 -0.102853	 0.739856	 -0.638192	 0.186403	 1
1463624230.057	 11	 -0.005946	 -0.000294	 -0.001254	 2.247147	 -1.384418	 -0.480624	 -0.102878	 0.739872	 -0.638171	 0.186394	 1
1463624230.077	 12	 -0.009138	 0.000787	 -0.000150	 2.247572	 -1.384333	 -0.480190	 -0.102883	 0.739910	 -0.638126	 0.186394	 1
1463624230.087	 12	 -0.008071	 0.000784	 -0.000159	 2.247744	 -1.384284	 -0.480021	 -0.102879	 0.739929	 -0.638105	 0.186395	 1
1463624230.097	 12	 -0.003773	 0.005041	 0.001975	 2.247857	 -1.384238	 -0.479943	 -0.102861	 0.739947	 -0.638089	 0.186388	 1
1463624230.107	 12	 -0.000556	 0.008222	 0.001977	 2.247777	 -1.384228	 -0.480098	 -0.102827	 0.739949	 -0.638097	 0.186370	 1
1463624230.117	 12	 -0.000555	 0.010334	 -0.000135	 2.247796	 -1.384232	 -0.480177	 -0.102793	 0.739954	 -0.638106	 0.186337	 1
1463624230.127	 12	 -0.002705	 0.006094	 0.000910	 2.247905	 -1.384216	 -0.480137	 -0.102769	 0.739966	 -0.638103	 0.186313	 1
1463624230.137	 12	 -0.005943	 0.005084	 -0.000162	 2.248098	 -1.384217	 -0.479983	 -0.102765	 0.739976	 -0.638099	 0.186290	 1
1463624230.147	 12	 -0.009134	 0.007221	 -0.000114	 2.248365	 -1.384168	 -0.479769	 -0.102748	 0.740002	 -0.638078	 0.186271	 1
1463624230.167	 13	 -0.008044	 0.013584	 -0.002197	 2.249039	 -1.384177	 -0.479294	 -0.102711	 0.740038	 -0.638071	 0.186171	 1
1463624230.177	 13	 -0.004850	 0.013559	 -0.004357	 2.249506	 -1.384276	 -0.478961	 -0.102708	 0.740041	 -0.638094	 0.186083	 1
1463624230.187	 13	 -0.001647	 0.014605	 -0.005442	 2.249976	 -1.384398	 -0.478632	 -0.102707	 0.740038	 -0.638125	 0.185988	 1
1463624230.197	 13	 0.000487	 0.014599	 -0.005462	 2.250430	 -1.384489	 -0.478322	 -0.102698	 0.740042	 -0.638147	 0.185899	 1
1463624230.207	 13	 0.000481	 0.012479	 -0.004416	 2.251075	 -1.384511	 -0.477815	 -0.102685	 0.740071	 -0.638140	 0.185817	 1
1463624230.217	 13	 -0.002756	 0.006099	 -0.005513	 2.251846	 -1.384544	 -0.477130	 -0.102700	 0.740100	 -0.638126	 0.185744	 1
1463624230.227	 13	 -0.008114	 0.000805	 -0.004450	 2.252727	 -1.384479	 -0.476261	 -0.102726	 0.740152	 -0.638071	 0.185709	 1
1463624230.237	 13	 -0.009218	 -0.007694	 -0.003454	 2.253450	 -1.384394	 -0.475472	 -0.102767	 0.740200	 -0.638008	 0.185711	 1
1463624230.247	 13	 -0.009220	 -0.008750	 -0.002398	 2.253996	 -1.384325	 -0.474842	 -0.102811	 0.740234	 -0.637957	 0.185725	 1
1463624230.257	 13	 -0.009198	 -0.007655	 0.001876	 2.254283	 -1.384243	 -0.474467	 -0.102839	 0.740262	 -0.637912	 0.185756	 1
1463624230.267	 13	 -0.007064	 -0.008718	 0.002913	 2.254205	 -1.384157	 -0.474454	 -0.102849	 0.740274	 -0.637880	 0.185808	 1
1463624230.277	 13	 -0.002785	 -0.006603	 0.002896	 2.253991	 -1.384121	 -0.474590	 -0.102859	 0.740270	 -0.637871	 0.185851	 1
1463624230.287	 13	 0.000462	 0.002960	 0.002957	 2.253727	 -1.384100	 -0.474867	 -0.102836	 0.740265	 -0.637877	 0.185865	 1
1463624230.297	 13	 0.003688	 0.013634	 0.001941	 2.253826	 -1.384096	 -0.474884	 -0.102797	 0.740276	 -0.637882	 0.185824	 1
1463624230.307	 13	 0.003735	 0.025319	 -0.000083	 2.254377	 -1.384132	 -0.474574	 -0.102744	 0.740303	 -0.637893	 0.185711	 1
1463624230.317	 13	 0.004832	 0.032753	 -0.001090	 2.254880	 -1.384156	 -0.474386	 -0.102659	 0.740334	 -0.637908	 0.185579	 1
1463624230.327	 13	 0.002678	 0.030617	 -0.003222	 2.255474	 -1.384167	 -0.474115	 -0.102572	 0.740372	 -0.637917	 0.185444	 1
1463624230.337	 13	 0.001604	 0.027445	 -0.001112	 2.255885	 -1.384230	 -0.473988	 -0.102502	 0.740389	 -0.637946	 0.185318	 1
1463624230.357	 14	 -0.002657	 0.026417	 0.002111	 2.257335	 -1.384274	 -0.473074	 -0.102388	 0.740466	 -0.637949	 0.185064	 1
1463624230.367	 14	 -0.005838	 0.031737	 0.001122	 2.258166	 -1.384293	 -0.472548	 -0.102323	 0.740511	 -0.637949	 0.184920	 1
1463624230.377	 14	 -0.004765	 0.033854	 0.000065	 2.259183	 -1.384334	 -0.471864	 -0.102261	 0.740560	 -0.637950	 0.184753	 1
1463624230.387	 14	 -0.004772	 0.030678	 0.002166	 2.259820	 -1.384343	 -0.471545	 -0.102177	 0.740600	 -0.637956	 0.184616	 1
1463624230.397	 14	 -0.002673	 0.023226	 0.002078	 2.260439	 -1.384356	 -0.471179	 -0.102119	 0.740636	 -0.637958	 0.184501	 1
1463624230.417	 15	 -0.010275	 -0.004406	 0.001885	 2.261313	 -1.384391	 -0.470447	 -0.102119	 0.740670	 -0.637945	 0.184404	 1
1463624230.427	 15	 -0.014618	 -0.019293	 0.000717	 2.262082	 -1.384389	 -0.469511	 -0.102220	 0.740694	 -0.637898	 0.184418	 1
1463624230.437	 15	 -0.017842	 -0.021434	 -0.002473	 2.262733	 -1.384376	 -0.468632	 -0.102335	 0.740712	 -0.637846	 0.184460	 1
1463624230.447	 15	 -0.010331	 -0.012947	 -0.002460	 2.263200	 -1.384389	 -0.468005	 -0.102421	 0.740720	 -0.637816	 0.184484	 1
1463624230.457	 15	 -0.006039	 -0.003327	 -0.004557	 2.263634	 -1.384399	 -0.467505	 -0.102470	 0.740732	 -0.637795	 0.184481	 1
1463624230.467	 15	 -0.000703	 -0.002288	 -0.005660	 2.263778	 -1.384419	 -0.467332	 -0.102493	 0.740731	 -0.637793	 0.184478	 1
1463624230.477	 15	 -0.002834	 -0.004386	 -0.002463	 2.263701	 -1.384415	 -0.467362	 -0.102505	 0.740727	 -0.637790	 0.184498	 1
1463624230.487	 15	 -0.006060	 -0.008638	 -0.003540	 2.263861	 -1.384396	 -0.467119	 -0.102540	 0.740734	 -0.637770	 0.184521	 1
1463624230.497	 15	 -0.008185	 -0.008617	 -0.001389	 2.263866	 -1.384334	 -0.467011	 -0.102564	 0.740744	 -0.637742	 0.184566	 1
1463624230.507	 15	 -0.007094	 -0.005414	 0.000763	 2.263781	 -1.384325	 -0.467026	 -0.102584	 0.740739	 -0.637736	 0.184595	 1
1463624230.517	 15	 -0.006016	 -0.003290	 0.000774	 2.263782	 -1.384284	 -0.466978	 -0.102592	 0.740747	 -0.637719	 0.184618	 1
1463624230.527	 15	 -0.002795	 -0.000101	 0.001841	 2.263642	 -1.384268	 -0.467106	 -0.102586	 0.740744	 -0.637719	 0.184633	 1
1463624230.537	 15	 -0.001739	 -0.003287	 0.002868	 2.263502	 -1.384262	 -0.467212	 -0.102590	 0.740738	 -0.637719	 0.184652	 1
1463624230.547	 15	 -0.000683	 -0.006474	 0.003895	 2.263458	 -1.384205	 -0.467201	 -0.102595	 0.740747	 -0.637699	 0.184684	 1
1463624230.557	 15	 -0.002833	 -0.009658	 0.003883	 2.263703	 -1.384209	 -0.466871	 -0.102640	 0.740752	 -0.637682	 0.184698	 1
1463624230.567	 15	 -0.004970	 -0.007548	 0.000723	 2.264129	 -1.384233	 -0.466364	 -0.102697	 0.740760	 -0.637664	 0.184697	 1
1463624230.577	 15	 -0.008169	 -0.004370	 -0.002418	 2.264724	 -1.384237	 -0.465713	 -0.102750	 0.740780	 -0.637636	 0.184683	 1
1463624230.587	 15	 -0.009256	 -0.007566	 -0.003504	 2.265232	 -1.384242	 -0.465128	 -0.102805	 0.740796	 -0.637610	 0.184680	 1
1463624230.597	 15	 -0.009279	 -0.010772	 -0.005666	 2.265682	 -1.384254	 -0.464567	 -0.102872	 0.740805	 -0.637585	 0.184690	 1
1463624230.607	 15	 -0.009295	 -0.015019	 -0.004640	 2.266111	 -1.384264	 -0.463990	 -0.102952	 0.740813	 -0.637557	 0.184713	 1
1463624230.617	 15	 -0.008230	 -0.017078	 -0.002547	 2.266189	 -1.384256	 -0.463736	 -0.103019	 0.740809	 -0.637535	 0.184766	 1
1463624230.627	 15	 -0.006085	 -0.014957	 -0.002545	 2.266054	 -1.384256	 -0.463703	 -0.103074	 0.740795	 -0.637525	 0.184827	 1
1463624230.637	 15	 -0.007136	 -0.010707	 -0.003562	 2.266124	 -1.384219	 -0.463507	 -0.103117	 0.740800	 -0.637499	 0.184872	 1
1463624230.647	 15	 -0.007103	 -0.005374	 -0.001380	 2.266184	 -1.384132	 -0.463360	 -0.103132	 0.740819	 -0.637461	 0.184914	 1
1463624230.657	 15	 -0.009223	 -0.003232	 -0.000276	 2.266325	 -1.384039	 -0.463172	 -0.103136	 0.740845	 -0.637422	 0.184942	 1
1463624230.667	 15	 -0.007061	 -0.001081	 0.003989	 2.266072	 -1.383981	 -0.463392	 -0.103122	 0.740848	 -0.637412	 0.184978	 1
1463624230.677	 15	 -0.004911	 0.001048	 0.005057	 2.265576	 -1.383864	 -0.463886	 -0.103070	 0.740856	 -0.637396	 0.185029	 1
1463624230.687	 15	 -0.002763	 0.003176	 0.006124	 2.265467	 -1.383785	 -0.464022	 -0.103037	 0.740872	 -0.637379	 0.185043	 1
1463624230.697	 15	 -0.001685	 0.006356	 0.005078	 2.265431	 -1.383747	 -0.464112	 -0.103006	 0.740882	 -0.637373	 0.185035	 1
1463624230.707	 15	 -0.001675	 0.008483	 0.005098	 2.265444	 -1.383714	 -0.464182	 -0.102969	 0.740895	 -0.637370	 0.185015	 1
1463624230.717	 15	 -0.001684	 0.007412	 0.004021	 2.265795	 -1.383725	 -0.463918	 -0.102958	 0.740911	 -0.637368	 0.184967	 1
1463624230.727	 15	 -0.003809	 0.009546	 0.004059	 2.266132	 -1.383695	 -0.463676	 -0.102933	 0.740938	 -0.637353	 0.184926	 1
1463624230.737	 15	 -0.005962	 0.006353	 0.002982	 2.266182	 -1.383704	 -0.463689	 -0.102914	 0.740940	 -0.637360	 0.184901	 1
1463624230.747	 15	 -0.008094	 0.007416	 0.001945	 2.266171	 -1.383694	 -0.463753	 -0.102892	 0.740945	 -0.637362	 0.184887	 1
1463624230.757	 15	 -0.003822	 0.006354	 0.004029	 2.266294	 -1.383685	 -0.463692	 -0.102873	 0.740956	 -0.637360	 0.184863	 1
1463624230.767	 15	 -0.002753	 0.007407	 0.002963	 2.266065	 -1.383712	 -0.463990	 -0.102842	 0.740943	 -0.637384	 0.184846	 1
1463624230.777	 15	 -0.000627	 0.007385	 0.000813	 2.265938	 -1.383780	 -0.464193	 -0.102822	 0.740925	 -0.637417	 0.184815	 1
1463624230.787	 15	 -0.000608	 0.010619	 -0.000229	 2.265833	 -1.383848	 -0.464387	 -0.102799	 0.740909	 -0.637451	 0.184777	 1
1463624230.797	 15	 -0.001669	 0.012742	 -0.001266	 2.265748	 -1.383875	 -0.464587	 -0.102759	 0.740905	 -0.637473	 0.184739	 1
1463624230.807	 15	 -0.002730	 0.013808	 -0.001247	 2.265706	 -1.383882	 -0.464753	 -0.102712	 0.740908	 -0.637488	 0.184700	 1
1463624230.817	 15	 -0.004874	 0.011687	 -0.001247	 2.265830	 -1.383842	 -0.464743	 -0.102667	 0.740929	 -0.637481	 0.184666	 1
1463624230.827	 15	 -0.007024	 0.007447	 -0.000203	 2.266168	 -1.383861	 -0.464490	 -0.102657	 0.740942	 -0.637481	 0.184618	 1
1463624230.837	 15	 -0.007012	 0.011686	 -0.002295	 2.266414	 -1.383875	 -0.464341	 -0.102638	 0.740954	 -0.637485	 0.184571	 1
1463624230.847	 15	 -0.003782	 0.015946	 -0.000152	 2.267013	 -1.383856	 -0.463890	 -0.102609	 0.740991	 -0.637468	 0.184497	 1
1463624230.857	 15	 -0.003779	 0.014898	 0.001969	 2.267342	 -1.383848	 -0.463710	 -0.102569	 0.741014	 -0.637466	 0.184434	 1
1463624230.867	 15	 -0.005968	 0.004260	 0.000824	 2.267384	 -1.383845	 -0.463737	 -0.102546	 0.741019	 -0.637469	 0.184411	 1
1463624230.877	 15	 -0.005998	 -0.003178	 0.001820	 2.267504	 -1.383841	 -0.463601	 -0.102556	 0.741025	 -0.637462	 0.184410	 1
1463624230.897	 16	 0.000445	 0.005312	 0.001843	 2.267484	 -1.383795	 -0.463622	 -0.102545	 0.741035	 -0.637449	 0.184420	 1
1463624230.907	 16	 0.009004	 0.011653	 -0.000304	 2.267157	 -1.383796	 -0.464059	 -0.102487	 0.741027	 -0.637472	 0.184402	 1
1463624230.917	 16	 0.011127	 0.008463	 0.000714	 2.266839	 -1.383825	 -0.464474	 -0.102441	 0.741012	 -0.637503	 0.184381	 1
1463624230.927	 16	 0.011170	 0.010652	 0.009261	 2.266266	 -1.383731	 -0.465150	 -0.102352	 0.741017	 -0.637507	 0.184398	 1
1463624230.937	 16	 0.004969	 0.047947	 0.012859	 2.266019	 -1.383514	 -0.465756	 -0.102158	 0.741078	 -0.637484	 0.184342	 1
1463624230.947	 16	 0.011579	 0.092594	 0.012153	 2.266093	 -1.383295	 -0.466576	 -0.101781	 0.741180	 -0.637495	 0.184101	 1
1463624230.957	 16	 0.028377	 0.048809	 -0.005453	 2.265579	 -1.383410	 -0.467732	 -0.101543	 0.741163	 -0.637611	 0.183898	 1
1463624230.967	 16	 0.011129	 0.011640	 -0.004584	 2.266066	 -1.383589	 -0.467448	 -0.101533	 0.741150	 -0.637665	 0.183770	 1
1463624230.977	 16	 -0.013328	 0.034020	 -0.008427	 2.268494	 -1.383566	 -0.465293	 -0.101552	 0.741269	 -0.637583	 0.183562	 1
1463624230.987	 16	 -0.017445	 0.073327	 -0.016552	 2.271220	 -1.383536	 -0.463204	 -0.101451	 0.741420	 -0.637521	 0.183224	 1
1463624230.997	 16	 -0.008887	 0.078612	 -0.017644	 2.272972	 -1.383660	 -0.462228	 -0.101282	 0.741501	 -0.637559	 0.182859	 1
1463624231.007	 16	 0.001698	 0.057329	 -0.014737	 2.273336	 -1.383946	 -0.462472	 -0.101139	 0.741477	 -0.637688	 0.182587	 1
1463624231.017	 16	 0.009085	 0.040280	 -0.016027	 2.273364	 -1.384324	 -0.462859	 -0.101072	 0.741406	 -0.637841	 0.182373	 1
1463624231.027	 16	 0.015478	 0.041294	 -0.020337	 2.273484	 -1.384777	 -0.463135	 -0.101033	 0.741320	 -0.638012	 0.182145	 1
1463624231.037	 16	 0.015539	 0.054058	 -0.020220	 2.274043	 -1.385180	 -0.463077	 -0.100966	 0.741270	 -0.638160	 0.181871	 1
1463624231.047	 16	 0.014508	 0.061506	 -0.020142	 2.274704	 -1.385490	 -0.463013	 -0.100848	 0.741251	 -0.638283	 0.181582	 1
1463624231.067	 17	 0.007971	 0.025430	 -0.010829	 2.275701	 -1.385805	 -0.462908	 -0.100639	 0.741259	 -0.638421	 0.181179	 1
1463624231.077	 17	 -0.000701	 -0.006423	 -0.006787	 2.275888	 -1.385897	 -0.462727	 -0.100667	 0.741244	 -0.638443	 0.181148	 1
1463624231.097	 18	 -0.013585	 -0.025508	 -0.003655	 2.276956	 -1.385839	 -0.461179	 -0.100887	 0.741277	 -0.638338	 0.181259	 1
1463624231.107	 18	 -0.011369	 -0.013808	 -0.004630	 2.277983	 -1.385793	 -0.459979	 -0.100994	 0.741320	 -0.638267	 0.181270	 1
1463624231.117	 18	 -0.007062	 -0.002151	 -0.008823	 2.278882	 -1.385875	 -0.459027	 -0.101078	 0.741334	 -0.638252	 0.181224	 1
1463624231.127	 18	 -0.001716	 0.006288	 -0.016252	 2.279868	 -1.386044	 -0.458079	 -0.101153	 0.741333	 -0.638268	 0.181126	 1
1463624231.137	 18	 0.001477	 0.011535	 -0.024758	 2.281050	 -1.386282	 -0.456995	 -0.101230	 0.741327	 -0.638304	 0.180984	 1
1463624231.147	 18	 -0.002785	 0.014724	 -0.026823	 2.282456	 -1.386488	 -0.455714	 -0.101302	 0.741339	 -0.638323	 0.180828	 1
1463624231.157	 18	 -0.009176	 0.013710	 -0.022514	 2.283725	 -1.386585	 -0.454561	 -0.101345	 0.741371	 -0.638313	 0.180706	 1
1463624231.167	 18	 -0.015558	 0.013768	 -0.017128	 2.284770	 -1.386547	 -0.453633	 -0.101348	 0.741428	 -0.638270	 0.180623	 1
1463624231.177	 18	 -0.013425	 0.007433	 -0.009744	 2.285420	 -1.386414	 -0.453043	 -0.101329	 0.741489	 -0.638209	 0.180598	 1
1463624231.187	 18	 -0.010227	 0.001088	 -0.003435	 2.285485	 -1.386327	 -0.452982	 -0.101312	 0.741514	 -0.638179	 0.180611	 1
1463624231.197	 18	 -0.002747	 -0.003136	 0.003921	 2.285194	 -1.386284	 -0.453238	 -0.101301	 0.741511	 -0.638174	 0.180646	 1
1463624231.217	 19	 0.028333	 0.042355	 -0.017244	 2.285119	 -1.386938	 -0.453738	 -0.101284	 0.741368	 -0.638419	 0.180378	 1
1463624231.227	 19	 0.035853	 0.064570	 -0.030961	 2.286486	 -1.387622	 -0.452992	 -0.101275	 0.741284	 -0.638634	 0.179968	 1
1463624231.237	 19	 0.032743	 0.090053	 -0.038160	 2.288519	 -1.388317	 -0.451817	 -0.101214	 0.741235	 -0.638848	 0.179445	 1
1463624231.247	 19	 0.028646	 0.127287	 -0.038845	 2.291328	 -1.388864	 -0.450205	 -0.101034	 0.741269	 -0.639016	 0.178806	 1
1463624231.257	 19	 0.020252	 0.147548	 -0.035383	 2.294332	 -1.389182	 -0.448667	 -0.100715	 0.741380	 -0.639129	 0.178118	 1
1463624231.267	 19	 0.018136	 0.139153	 -0.020522	 2.296143	 -1.389429	 -0.448269	 -0.100337	 0.741460	 -0.639262	 0.177523	 1
1463624231.277	 19	 0.038062	 0.031956	 0.018806	 2.295301	 -1.389606	 -0.449854	 -0.100058	 0.741420	 -0.639415	 0.177292	 1
1463624231.287	 19	 0.029862	 0.116951	 0.002619	 2.293732	 -1.389552	 -0.452334	 -0.099628	 0.741418	 -0.639540	 0.177092	 1
1463624231.297	 19	 0.010664	 0.108600	 0.016564	 2.295277	 -1.389228	 -0.452022	 -0.099179	 0.741620	 -0.639488	 0.176686	 1
1463624231.307	 19	 -0.016042	 0.080153	 0.043176	 2.294491	 -1.389035	 -0.453629	 -0.098792	 0.741678	 -0.639531	 0.176503	 1
1463624231.317	 19	 -0.033884	 0.115548	 0.076698	 2.294406	 -1.388415	 -0.454770	 -0.098260	 0.741881	 -0.639434	 0.176299	 1
1463624231.327	 19	 -0.034660	 0.168804	 0.086791	 2.294735	 -1.387677	 -0.456045	 -0.097519	 0.742156	 -0.639333	 0.175921	 1
1463624231.337	 19	 -0.013319	 0.199316	 0.049585	 2.295893	 -1.387327	 -0.456847	 -0.096774	 0.742383	 -0.639350	 0.175308	 1
1463624231.347	 19	 -0.009182	 0.199064	 0.016506	 2.298047	 -1.387360	 -0.456727	 -0.096138	 0.742558	 -0.639454	 0.174540	 1
1463624231.367	 20	 0.009483	 0.137915	 -0.048177	 2.304679	 -1.388260	 -0.453293	 -0.095489	 0.742745	 -0.639755	 0.172990	 1
1463624231.377	 20	 0.009565	 0.129630	 -0.017350	 2.308537	 -1.388721	 -0.450771	 -0.095291	 0.742843	 -0.639865	 0.172269	 1
1463624231.387	 20	 -0.005422	 0.107446	 -0.002503	 2.309021	 -1.388477	 -0.451347	 -0.094869	 0.742973	 -0.639861	 0.171955	 1
1463624231.397	 20	 -0.022057	 0.210579	 -0.014186	 2.311542	 -1.388238	 -0.450619	 -0.094282	 0.743215	 -0.639843	 0.171300	 1
1463624231.407	 20	 -0.002490	 0.268114	 0.007495	 2.314324	 -1.388188	 -0.450401	 -0.093462	 0.743455	 -0.639939	 0.170346	 1
1463624231.417	 20	 -0.002080	 0.316311	 0.053767	 2.316000	 -1.387892	 -0.451777	 -0.092350	 0.743735	 -0.640041	 0.169343	 1
1463624231.427	 20	 -0.023640	 0.414931	 0.150791	 2.315870	 -1.386855	 -0.455840	 -0.090656	 0.744170	 -0.640052	 0.168303	 1
1463624231.437	 20	 -0.057938	 0.514686	 0.252212	 2.312741	 -1.383995	 -0.464003	 -0.087997	 0.744985	 -0.639700	 0.167443	 1
1463624231.457	 21	 -0.087683	 0.450694	 0.362715	 2.306160	 -1.378099	 -0.480807	 -0.082539	 0.746609	 -0.638976	 0.165750	 1
1463624231.467	 21	 -0.073852	 0.373600	 0.443941	 2.298761	 -1.374443	 -0.492359	 -0.079774	 0.747355	 -0.638495	 0.165593	 1
1463624231.477	 21	 -0.081206	 0.318999	 0.538350	 2.287975	 -1.370068	 -0.506754	 -0.076847	 0.748076	 -0.637912	 0.165967	 1
1463624231.487	 21	 -0.123879	 0.272750	 0.596908	 2.276428	 -1.364908	 -0.521452	 -0.073845	 0.748891	 -0.637114	 0.166722	 1
1463624231.497	 21	 -0.190162	 0.209460	 0.642724	 2.265714	 -1.358968	 -0.534717	 -0.070903	 0.749857	 -0.636021	 0.167821	 1
1463624231.507	 21	 -0.242816	 0.115105	 0.663619	 2.256034	 -1.352402	 -0.546052	 -0.068177	 0.750939	 -0.634645	 0.169316	 1
1463624231.517	 21	 -0.263393	 0.020770	 0.700222	 2.246224	 -1.345402	 -0.556561	 -0.065668	 0.752034	 -0.633093	 0.171249	 1
1463624231.527	 21	 -0.252912	 -0.068186	 0.757920	 2.234655	 -1.337981	 -0.567964	 -0.063243	 0.753047	 -0.631469	 0.173688	 1
1463624231.537	 21	 -0.178280	 -0.123365	 0.805782	 2.220017	 -1.330447	 -0.581839	 -0.060786	 0.753831	 -0.629975	 0.176566	 1
1463624231.547	 21	 -0.070242	 -0.103185	 0.845528	 2.202019	 -1.323179	 -0.599270	 -0.058067	 0.754286	 -0.628836	 0.179571	 1
1463624231.557	 21	 0.017406	 -0.109512	 0.888403	 2.181155	 -1.316022	 -0.619717	 -0.055091	 0.754448	 -0.628000	 0.182728	 1
1463624231.567	 21	 0.073090	 -0.091403	 0.914730	 2.158864	 -1.308875	 -0.641752	 -0.051921	 0.754405	 -0.627370	 0.185965	 1
1463624231.577	 21	 0.116980	 -0.077575	 0.932595	 2.136142	 -1.301667	 -0.664473	 -0.048566	 0.754229	 -0.626882	 0.189207	 1
1463624231.587	 21	 0.143704	 -0.078715	 0.934487	 2.113575	 -1.294437	 -0.687095	 -0.045152	 0.753942	 -0.626490	 0.192465	 1
1463624231.597	 21	 0.179681	 -0.122611	 0.909252	 2.091269	 -1.287386	 -0.709206	 -0.041861	 0.753510	 -0.626214	 0.195772	 1
1463624231.607	 21	 0.218266	 -0.280423	 0.870146	 2.068094	 -1.280732	 -0.730901	 -0.039079	 0.752791	 -0.626094	 0.199461	 1
1463624231.617	 21	 0.188014	 -0.323189	 0.827381	 2.046040	 -1.274252	 -0.750585	 -0.036726	 0.752000	 -0.625942	 0.203332	 1
1463624231.627	 21	 0.128900	 -0.352250	 0.756219	 2.027196	 -1.267980	 -0.766745	 -0.034732	 0.751337	 -0.625630	 0.207061	 1
1463624231.637	 21	 0.058982	 -0.425806	 0.704987	 2.011112	 -1.261879	 -0.779359	 -0.033235	 0.750791	 -0.625107	 0.210831	 1
1463624231.647	 21	 0.005129	 -0.530941	 0.705544	 1.996520	 -1.255582	 -0.789392	 -0.032165	 0.750321	 -0.624336	 0.214915	 1
1463624231.657	 21	 -0.027012	 -0.629188	 0.785909	 1.981647	 -1.248554	 -0.798684	 -0.031220	 0.749845	 -0.623341	 0.219553	 1
1463624231.667	 21	 -0.021667	 -0.729364	 0.907493	 1.965213	 -1.240387	 -0.808620	 -0.030153	 0.749283	 -0.622159	 0.224909	 1
1463624231.677	 21	 0.015960	 -0.784862	 1.043067	 1.946418	 -1.231082	 -0.820272	 -0.028800	 0.748526	 -0.620918	 0.230954	 1
1463624231.687	 21	 0.045893	 -0.703830	 1.229003	 1.926312	 -1.220194	 -0.833857	 -0.026606	 0.747708	 -0.619584	 0.237361	 1
1463624231.697	 21	 0.067163	 -0.621947	 1.381983	 1.906200	 -1.207738	 -0.848556	 -0.023464	 0.746924	 -0.618114	 0.243902	 1
1463624231.707	 21	 0.100247	 -0.690582	 1.464186	 1.885368	 -1.194295	 -0.863754	 -0.019998	 0.745976	 -0.616590	 0.250872	 1
1463624231.717	 21	 0.081883	 -0.776345	 1.510442	 1.864480	 -1.180290	 -0.878095	 -0.016637	 0.744862	 -0.614960	 0.258317	 1
1463624231.727	 21	 -0.027491	 -0.743403	 1.608685	 1.846254	 -1.165132	 -0.889661	 -0.013069	 0.743973	 -0.612850	 0.265985	 1
1463624231.737	 21	 -0.081567	 -0.766863	 1.725105	 1.830222	 -1.148559	 -0.898958	 -0.009163	 0.743289	 -0.610230	 0.273966	 1
1463624231.747	 21	 -0.032055	 -0.925299	 1.750910	 1.813059	 -1.131510	 -0.908210	 -0.005406	 0.742283	 -0.607585	 0.282536	 1
1463624231.757	 21	 0.034000	 -1.138527	 1.707851	 1.793554	 -1.114816	 -0.917770	 -0.002305	 0.740699	 -0.605161	 0.291787	 1
1463624231.767	 21	 0.121056	 -1.225015	 1.696697	 1.772436	 -1.098452	 -0.927840	 0.000446	 0.738620	 -0.602998	 0.301386	 1
1463624231.777	 21	 0.241246	 -1.198849	 1.833377	 1.749874	 -1.081324	 -0.939605	 0.003697	 0.736111	 -0.601052	 0.311228	 1
1463624231.787	 21	 0.307556	 -0.976622	 2.143939	 1.727779	 -1.061501	 -0.952922	 0.008619	 0.733511	 -0.598918	 0.321224	 1
1463624231.797	 21	 0.287730	 -0.465887	 2.456869	 1.710366	 -1.038393	 -0.965835	 0.015960	 0.731473	 -0.596154	 0.330593	 1
1463624231.807	 21	 0.325583	 0.134407	 2.676344	 1.699537	 -1.012761	 -0.978494	 0.026077	 0.730282	 -0.592884	 0.338374	 1
1463624231.817	 21	 0.441255	 0.320247	 2.829470	 1.690845	 -0.985536	 -0.992421	 0.037869	 0.729140	 -0.589553	 0.345468	 1
1463624231.827	 21	 0.498283	 0.171362	 2.855298	 1.681177	 -0.957698	 -1.006885	 0.049806	 0.727469	 -0.586297	 0.352936	 1
1463624231.837	 21	 0.409731	 -0.182304	 2.744070	 1.670182	 -0.930539	 -1.019363	 0.060426	 0.725249	 -0.582972	 0.361255	 1
1463624231.847	 21	 0.253902	 -0.692803	 2.539247	 1.657689	 -0.904962	 -1.028112	 0.068745	 0.722550	 -0.579456	 0.370712	 1
1463624231.857	 21	 0.146487	 -1.340701	 2.327396	 1.641624	 -0.881434	 -1.033781	 0.074252	 0.719022	 -0.576016	 0.381706	 1
1463624231.867	 21	 0.119775	 -2.196246	 2.261050	 1.618896	 -0.858879	 -1.037779	 0.076963	 0.713990	 -0.572798	 0.395218	 1
1463624231.877	 21	 0.207710	 -2.860599	 2.352153	 1.588570	 -0.835712	 -1.041633	 0.077742	 0.707047	 -0.569807	 0.411534	 1
1463624231.887	 21	 0.373085	 -3.371182	 2.412039	 1.552749	 -0.811668	 -1.046447	 0.077702	 0.698392	 -0.567156	 0.429586	 1
1463624231.897	 21	 0.629355	 -3.704538	 2.307590	 1.511537	 -0.787976	 -1.053281	 0.076809	 0.687906	 -0.565368	 0.448602	 1
1463624231.907	 21	 0.866657	 -3.996106	 1.944714	 1.465839	 -0.766979	 -1.062417	 0.074540	 0.675816	 -0.564984	 0.467450	 1
1463624231.917	 21	 0.900243	 -4.208838	 1.517203	 1.417371	 -0.749749	 -1.072070	 0.070318	 0.662671	 -0.565711	 0.485690	 1
1463624231.927	 21	 0.612960	 -3.881494	 1.074064	 1.372936	 -0.736846	 -1.078696	 0.064643	 0.650409	 -0.566449	 0.501922	 1
1463624231.937	 21	 0.065691	 -3.243862	 0.632879	 1.338382	 -0.729189	 -1.079365	 0.057905	 0.640912	 -0.566304	 0.514956	 1
1463624231.947	 21	 -0.369738	 -2.595515	 0.394381	 1.314309	 -0.725665	 -1.074326	 0.050801	 0.634456	 -0.565031	 0.525000	 1
1463624231.957	 21	 -0.446923	 -2.503297	 0.466251	 1.294294	 -0.722666	 -1.067054	 0.043982	 0.629037	 -0.563063	 0.534171	 1
1463624231.967	 21	 -0.394255	 -2.767275	 0.606148	 1.272159	 -0.718281	 -1.059682	 0.037107	 0.622783	 -0.560779	 0.544326	 1
1463624231.977	 21	 -0.387512	 -2.901481	 0.582460	 1.248160	 -0.713757	 -1.052383	 0.029845	 0.615851	 -0.558419	 0.554982	 1
1463624231.987	 21	 -0.414756	 -2.905589	 0.445176	 1.223736	 -0.710532	 -1.045225	 0.022078	 0.608768	 -0.556203	 0.565289	 1
1463624231.997	 21	 -0.533277	 -2.856854	 0.370992	 1.200165	 -0.708725	 -1.037381	 0.013855	 0.601928	 -0.553888	 0.575064	 1
1463624232.007	 21	 -0.799413	 -2.801105	 0.470812	 1.179145	 -0.707386	 -1.026355	 0.005266	 0.595742	 -0.550580	 0.584744	 1
1463624232.017	 21	 -1.060711	 -2.723246	 0.688030	 1.161716	 -0.705496	 -1.011023	 -0.003325	 0.590408	 -0.545773	 0.594591	 1
1463624232.027	 21	 -1.263242	 -2.887789	 0.942980	 1.145911	 -0.702374	 -0.991819	 -0.012039	 0.585261	 -0.539468	 0.605226	 1
1463624232.037	 21	 -1.404355	 -3.209445	 1.264141	 1.129261	 -0.697496	 -0.969000	 -0.021227	 0.579471	 -0.531597	 0.617388	 1
1463624232.047	 21	 -1.413884	 -3.515084	 1.647186	 1.110962	 -0.689669	 -0.943659	 -0.030254	 0.572624	 -0.522234	 0.631235	 1
1463624232.057	 21	 -1.391810	 -3.560219	 1.885304	 1.092369	 -0.679620	 -0.916813	 -0.038696	 0.565205	 -0.511772	 0.645860	 1
1463624232.067	 21	 -1.323152	 -3.588239	 2.009140	 1.073488	 -0.668401	 -0.889754	 -0.046571	 0.557341	 -0.500770	 0.660630	 1
1463624232.077	 21	 -1.273768	 -3.551998	 2.039954	 1.054296	 -0.656814	 -0.862991	 -0.054045	 0.549120	 -0.489522	 0.675215	 1
1463624232.087	 21	 -1.274205	 -3.382133	 1.996777	 1.036032	 -0.645807	 -0.836479	 -0.061211	 0.541065	 -0.478210	 0.689070	 1
1463624232.097	 21	 -1.285885	 -3.087961	 1.930341	 1.020070	 -0.635780	 -0.810229	 -0.067929	 0.533720	 -0.466973	 0.701758	 1
1463624232.107	 21	 -1.267293	 -2.784728	 1.952185	 1.006891	 -0.626085	 -0.784137	 -0.073893	 0.527241	 -0.455724	 0.713353	 1
1463624232.117	 21	 -1.198377	 -2.568864	 2.119853	 0.996034	 -0.615222	 -0.757818	 -0.078732	 0.521366	 -0.444096	 0.724401	 1
1463624232.127	 21	 -1.089627	 -2.356701	 2.379860	 0.987268	 -0.601993	 -0.730987	 -0.082096	 0.515948	 -0.431789	 0.735266	 1
1463624232.137	 21	 -0.980735	 -2.120027	 2.646489	 0.980778	 -0.586076	 -0.703618	 -0.083836	 0.511085	 -0.418740	 0.745936	 1
1463624232.147	 21	 -0.889094	 -1.898386	 2.886484	 0.976486	 -0.567705	 -0.675771	 -0.084076	 0.506833	 -0.404985	 0.756333	 1
1463624232.157	 21	 -0.861997	 -1.795592	 3.138725	 0.973515	 -0.547118	 -0.647013	 -0.083226	 0.502914	 -0.390339	 0.766672	 1
1463624232.167	 21	 -0.872075	 -1.666010	 3.403262	 0.971942	 -0.524447	 -0.616814	 -0.081473	 0.499394	 -0.374587	 0.776951	 1
1463624232.177	 21	 -0.888966	 -1.683725	 3.740025	 0.970981	 -0.499329	 -0.584832	 -0.078905	 0.495974	 -0.357455	 0.787407	 1
1463624232.187	 21	 -0.823485	 -2.011167	 4.226658	 0.967893	 -0.470408	 -0.550719	 -0.075487	 0.491506	 -0.338387	 0.798885	 1
1463624232.197	 21	 -0.490178	 -2.695703	 4.860041	 0.958071	 -0.435164	 -0.515534	 -0.070513	 0.484022	 -0.317106	 0.812523	 1
1463624232.207	 21	 -0.112521	 -2.939732	 5.388429	 0.942917	 -0.393444	 -0.480280	 -0.063196	 0.474060	 -0.294031	 0.827538	 1
1463624232.217	 21	 0.137755	 -2.311486	 5.588196	 0.930500	 -0.348165	 -0.445606	 -0.053332	 0.465147	 -0.270280	 0.841274	 1
1463624232.227	 21	 0.374717	 -1.735622	 5.452943	 0.922362	 -0.302332	 -0.413349	 -0.041712	 0.458243	 -0.247260	 0.852723	 1
1463624232.237	 21	 0.749220	 -1.751442	 5.183094	 0.912900	 -0.256656	 -0.385485	 -0.029012	 0.451050	 -0.225890	 0.862952	 1
1463624232.247	 21	 1.155593	 -1.950930	 4.825998	 0.899096	 -0.211404	 -0.362848	 -0.015493	 0.442186	 -0.206692	 0.872645	 1
1463624232.257	 21	 1.481083	 -2.091780	 4.455231	 0.881947	 -0.167238	 -0.344864	 -0.001434	 0.431981	 -0.189743	 0.881696	 1
1463624232.267	 21	 1.782864	 -2.308906	 4.116999	 0.861507	 -0.124112	 -0.330752	 0.013025	 0.420343	 -0.174839	 0.890266	 1
1463624232.277	 21	 2.144731	 -2.448639	 3.768307	 0.838268	 -0.081604	 -0.320644	 0.028131	 0.407364	 -0.162085	 0.898327	 1
1463624232.287	 21	 2.564619	 -2.268487	 3.407166	 0.815283	 -0.039242	 -0.315033	 0.044388	 0.394287	 -0.151666	 0.905298	 1
1463624232.297	 21	 2.992168	 -1.915244	 3.157342	 0.795266	 0.003891	 -0.313611	 0.062244	 0.382205	 -0.143235	 0.910784	 1
1463624232.307	 21	 3.355234	 -1.596550	 3.103858	 0.778567	 0.048979	 -0.314824	 0.081853	 0.371169	 -0.135812	 0.914926	 1
1463624232.317	 21	 3.560964	 -1.252046	 3.172415	 0.765287	 0.096169	 -0.316807	 0.102860	 0.361240	 -0.128443	 0.917839	 1
1463624232.327	 21	 3.548621	 -0.788588	 3.275952	 0.756284	 0.144416	 -0.317827	 0.124475	 0.352982	 -0.120383	 0.919466	 1
1463624232.337	 21	 3.339363	 -0.412033	 3.343092	 0.751175	 0.191973	 -0.316809	 0.145639	 0.346495	 -0.111356	 0.919962	 1
1463624232.347	 21	 3.052972	 -0.300298	 3.381795	 0.747279	 0.237840	 -0.313313	 0.165647	 0.340757	 -0.101452	 0.919866	 1
1463624232.357	 21	 2.772024	 -0.332678	 3.349836	 0.742655	 0.281524	 -0.307664	 0.184241	 0.334989	 -0.091064	 0.919535	 1
1463624232.367	 21	 2.500881	 -0.486874	 3.244185	 0.736087	 0.322555	 -0.300461	 0.201288	 0.328698	 -0.080707	 0.919199	 1
1463624232.377	 21	 2.232460	 -0.723143	 3.115367	 0.726645	 0.360685	 -0.291919	 0.216724	 0.321516	 -0.070677	 0.919055	 1
1463624232.387	 21	 1.992607	 -0.989467	 2.960441	 0.713840	 0.395875	 -0.282199	 0.230599	 0.313252	 -0.061172	 0.919215	 1
1463624232.397	 21	 1.781190	 -1.327212	 2.795012	 0.697249	 0.428208	 -0.271640	 0.243050	 0.303693	 -0.052439	 0.919754	 1
1463624232.407	 21	 1.566621	 -1.689111	 2.670950	 0.676226	 0.457844	 -0.259919	 0.254140	 0.292586	 -0.044428	 0.920778	 1
1463624232.417	 21	 1.375674	 -2.049762	 2.581864	 0.650632	 0.485063	 -0.246730	 0.264012	 0.279894	 -0.037012	 0.922273	 1
1463624232.427	 21	 1.243698	 -2.357359	 2.499153	 0.620880	 0.510257	 -0.232270	 0.272939	 0.265753	 -0.030190	 0.924104	 1
1463624232.447	 22	 1.200700	 -2.683293	 2.270553	 0.553519	 0.556436	 -0.201912	 0.289326	 0.234769	 -0.018560	 0.927809	 1
1463624232.457	 22	 1.271585	 -2.661419	 2.088959	 0.519157	 0.578103	 -0.187710	 0.297338	 0.219123	 -0.013979	 0.929182	 1
1463624232.467	 22	 1.408963	 -2.551623	 1.885222	 0.486427	 0.598977	 -0.175255	 0.305388	 0.204161	 -0.010381	 0.930026	 1
1463624232.477	 22	 1.609715	 -2.374833	 1.705003	 0.456309	 0.620328	 -0.164913	 0.314035	 0.190169	 -0.007601	 0.930140	 1
1463624232.487	 22	 1.813112	 -2.127524	 1.570182	 0.429304	 0.643128	 -0.156346	 0.323637	 0.177357	 -0.005275	 0.929396	 1
1463624232.497	 22	 1.959449	 -1.791494	 1.472918	 0.406010	 0.666803	 -0.148962	 0.333827	 0.166132	 -0.003074	 0.927874	 1
1463624232.507	 22	 2.041984	 -1.433776	 1.407320	 0.386509	 0.690959	 -0.142138	 0.344336	 0.156651	 -0.000695	 0.925685	 1
1463624232.517	 22	 2.101763	 -1.154648	 1.348648	 0.370127	 0.715393	 -0.135623	 0.355027	 0.148648	 0.001890	 0.922960	 1
1463624232.537	 23	 2.186521	 -0.913651	 1.175368	 0.343125	 0.764562	 -0.124399	 0.376696	 0.135245	 0.006737	 0.916386	 1
1463624232.547	 23	 2.185893	 -0.950642	 1.060992	 0.330758	 0.788828	 -0.120107	 0.387463	 0.128965	 0.008493	 0.912781	 1
1463624232.557	 23	 2.128249	 -1.064218	 0.922954	 0.318137	 0.812230	 -0.116898	 0.397890	 0.122481	 0.009481	 0.909171	 1
1463624232.567	 23	 1.992512	 -1.207435	 0.772531	 0.304810	 0.834042	 -0.114704	 0.407642	 0.115629	 0.009589	 0.905741	 1
1463624232.577	 23	 1.788576	 -1.317583	 0.608088	 0.290973	 0.853569	 -0.113493	 0.416398	 0.108528	 0.008831	 0.902638	 1
1463624232.597	 24	 1.303970	 -1.317250	 0.311766	 0.264412	 0.884380	 -0.113720	 0.430271	 0.094843	 0.005403	 0.897687	 1
1463624232.607	 24	 1.103268	 -1.228220	 0.187516	 0.252899	 0.896067	 -0.115047	 0.435559	 0.088771	 0.003137	 0.895767	 1
1463624232.627	 25	 0.834863	 -0.955481	 -0.004775	 0.236072	 0.914251	 -0.120340	 0.443860	 0.079123	 -0.001701	 0.892594	 1
1463624232.637	 25	 0.760255	 -0.883520	 -0.081255	 0.230233	 0.921662	 -0.124301	 0.447286	 0.075244	 -0.004283	 0.891210	 1
1463624232.647	 25	 0.698296	 -0.845491	 -0.142176	 0.225510	 0.928319	 -0.129058	 0.450391	 0.071718	 -0.007030	 0.889919	 1
1463624232.657	 25	 0.629927	 -0.841202	 -0.164988	 0.221142	 0.934285	 -0.134102	 0.453182	 0.068313	 -0.009876	 0.888742	 1
1463624232.667	 25	 0.548908	 -0.827100	 -0.159888	 0.216647	 0.939489	 -0.138854	 0.455609	 0.064952	 -0.012675	 0.887717	 1
1463624232.677	 25	 0.499993	 -0.800277	 -0.147489	 0.212105	 0.944141	 -0.143199	 0.457762	 0.061687	 -0.015344	 0.886799	 1
1463624232.687	 25	 0.512013	 -0.771330	 -0.111089	 0.207416	 0.948815	 -0.147030	 0.459894	 0.058469	 -0.017824	 0.885868	 1
1463624232.697	 25	 0.591463	 -0.701095	 -0.073825	 0.202948	 0.954195	 -0.150406	 0.462310	 0.055410	 -0.020013	 0.884759	 1
1463624232.707	 25	 0.710596	 -0.588438	 -0.037578	 0.199343	 0.960768	 -0.153569	 0.465240	 0.052712	 -0.021841	 0.883344	 1
1463624232.727	 26	 0.854416	 -0.292284	 0.085422	 0.195220	 0.976852	 -0.158093	 0.472340	 0.048915	 -0.023813	 0.879736	 1
1463624232.737	 26	 0.850524	 -0.277880	 0.163391	 0.192735	 0.985525	 -0.158467	 0.476099	 0.047236	 -0.024036	 0.877793	 1
1463624232.757	 27	 0.699040	 -0.320573	 0.228258	 0.184852	 1.001353	 -0.156079	 0.482828	 0.043457	 -0.023931	 0.874309	 1
1463624232.767	 27	 0.590913	 -0.379931	 0.212661	 0.179592	 1.007837	 -0.154178	 0.485535	 0.041259	 -0.023996	 0.872914	 1
1463624232.777	 27	 0.458311	 -0.409565	 0.179435	 0.173968	 1.013015	 -0.152322	 0.487671	 0.038974	 -0.024260	 0.871819	 1
1463624232.787	 27	 0.324778	 -0.405204	 0.140139	 0.168502	 1.016796	 -0.150689	 0.489209	 0.036788	 -0.024673	 0.871041	 1
1463624232.797	 27	 0.205308	 -0.374178	 0.116956	 0.163356	 1.019316	 -0.149139	 0.490207	 0.034794	 -0.025121	 0.870549	 1
1463624232.817	 28	 0.008026	 -0.300580	 0.066070	 0.154341	 1.021091	 -0.146264	 0.490812	 0.031485	 -0.025988	 0.870309	 1
1463624232.827	 28	 -0.046333	 -0.259173	 0.033890	 0.150872	 1.020814	 -0.145365	 0.490632	 0.030210	 -0.026462	 0.870441	 1
1463624232.837	 28	 -0.062240	 -0.216764	 0.008845	 0.148238	 1.020224	 -0.144923	 0.490335	 0.029201	 -0.026945	 0.870628	 1
1463624232.847	 28	 -0.036362	 -0.167850	 0.017601	 0.146112	 1.019790	 -0.144585	 0.490114	 0.028380	 -0.027341	 0.870767	 1
1463624232.857	 28	 0.031370	 -0.104925	 0.068753	 0.144058	 1.019984	 -0.143568	 0.490155	 0.027725	 -0.027392	 0.870763	 1
1463624232.867	 28	 0.120298	 -0.072909	 0.119434	 0.141753	 1.021115	 -0.141807	 0.490589	 0.027099	 -0.027135	 0.870547	 1
1463624232.877	 28	 0.165501	 -0.033333	 0.168433	 0.139143	 1.022898	 -0.139257	 0.491292	 0.026504	 -0.026581	 0.870186	 1
1463624232.887	 28	 0.149717	 -0.019172	 0.208136	 0.136053	 1.024733	 -0.135884	 0.492001	 0.025903	 -0.025788	 0.869827	 1
1463624232.897	 28	 0.084637	 -0.032658	 0.228826	 0.132315	 1.026063	 -0.131845	 0.492478	 0.025212	 -0.024891	 0.869604	 1
1463624232.907	 28	 -0.028550	 -0.031394	 0.210640	 0.128411	 1.026371	 -0.127673	 0.492511	 0.024528	 -0.024025	 0.869629	 1
1463624232.917	 28	 -0.158891	 -0.012299	 0.151204	 0.125242	 1.025325	 -0.124160	 0.491978	 0.024059	 -0.023322	 0.869963	 1
1463624232.927	 28	 -0.265886	 -0.024089	 0.095540	 0.122788	 1.023054	 -0.121519	 0.490934	 0.023735	 -0.022871	 0.870573	 1
1463624232.937	 28	 -0.287418	 -0.044405	 0.072092	 0.120596	 1.020251	 -0.119408	 0.489669	 0.023413	 -0.022604	 0.871301	 1
1463624232.947	 28	 -0.184435	 0.054333	 0.089166	 0.118910	 1.018276	 -0.117327	 0.488768	 0.023267	 -0.022190	 0.871821	 1
1463624232.957	 28	 -0.105517	 0.319568	 0.029133	 0.120472	 1.017067	 -0.116111	 0.488246	 0.024293	 -0.021327	 0.872107	 1
1463624232.967	 28	 0.017435	 0.429289	 -0.044454	 0.124983	 1.016898	 -0.116616	 0.488226	 0.026144	 -0.020453	 0.872086	 1
1463624232.977	 28	 0.111491	 0.500980	 -0.093634	 0.130989	 1.016566	 -0.118092	 0.488162	 0.028416	 -0.019645	 0.872069	 1
1463624232.987	 28	 0.169122	 0.541943	 -0.141714	 0.138760	 1.017950	 -0.120944	 0.488880	 0.031048	 -0.018929	 0.871593	 1
1463624232.997	 28	 0.179511	 0.511873	 -0.177254	 0.147128	 1.019486	 -0.124624	 0.489684	 0.033726	 -0.018414	 0.871053	 1
1463624233.007	 28	 0.153414	 0.426710	 -0.198069	 0.155135	 1.020786	 -0.128745	 0.490392	 0.036143	 -0.018184	 0.870562	 1
1463624233.017	 28	 0.111259	 0.334114	 -0.223081	 0.162017	 1.019800	 -0.132782	 0.490103	 0.038196	 -0.018304	 0.870635	 1
