% Gyrometer data recorded with 'snsrlog'
% 
% 
% Label description:
% 	 0: Default Label
% 	 1: still_drop
% 	 2: walk_drop
% 	 3: other
% 	 4: dtw_same
% 	 5: dtw_diff
% 	 6: delete
% 	 7: steal
% 
% Column description:
% 	 1: Seconds.milliseconds since 1970
% 	 2: Number of skipped measurements
% 	 3: Gyro X
% 	 4: Gyro Y
% 	 5: Gyro Z
% 	 6: Roll of the device
% 	 7: Pitch of the device
% 	 8: Yaw of the device
% 	 9: Quaternion X
% 	 10: Quaternion Y
% 	 11: Quaternion Z
% 	 12: Quaternion W
% 	 13: Label used for the current sample
% 
% 
1463624008.036	 1	 -1.449011	 -0.150824	 0.912415	 0.202057	 0.509352	 0.048246	 0.248220	 0.103621	 0.048625	 0.961917	 1
1463624008.046	 1	 -1.401787	 0.155159	 0.885010	 0.196271	 0.497184	 0.061465	 0.241822	 0.102445	 0.053735	 0.963400	 1
1463624008.056	 1	 -1.259408	 0.541324	 0.806365	 0.195070	 0.486066	 0.073543	 0.235867	 0.103260	 0.058932	 0.964485	 1
1463624008.066	 1	 -1.087664	 0.870578	 0.665122	 0.198201	 0.476345	 0.083835	 0.230534	 0.105899	 0.063844	 0.965175	 1
1463624008.076	 1	 -0.897264	 1.152379	 0.441210	 0.205571	 0.468100	 0.091488	 0.225890	 0.110252	 0.068018	 0.965501	 1
1463624008.086	 1	 -0.716102	 1.355955	 0.133522	 0.216830	 0.461110	 0.095621	 0.221882	 0.116077	 0.070953	 0.965536	 1
1463624008.096	 2	 -0.565374	 1.478473	 -0.217286	 0.231294	 0.454981	 0.095692	 0.218394	 0.123002	 0.072279	 0.965376	 1
1463624008.116	 2	 -0.658277	 1.840329	 -0.662862	 0.268587	 0.441277	 0.087448	 0.210964	 0.140000	 0.071541	 0.964767	 1
1463624008.126	 2	 -0.867101	 2.000789	 -0.767192	 0.290558	 0.431415	 0.082041	 0.205807	 0.149980	 0.070597	 0.964451	 1
1463624008.146	 3	 -1.248292	 2.036490	 -1.131229	 0.336255	 0.404243	 0.069373	 0.192113	 0.170695	 0.067067	 0.964084	 1
1463624008.156	 3	 -1.409787	 2.148100	 -1.352595	 0.360517	 0.386932	 0.061215	 0.183673	 0.181645	 0.063998	 0.963936	 1
1463624008.176	 4	 -1.682428	 2.557993	 -1.700240	 0.414660	 0.345692	 0.042905	 0.163915	 0.206344	 0.056073	 0.963021	 1
1463624008.186	 4	 -1.801132	 2.893048	 -1.892189	 0.446016	 0.321868	 0.032931	 0.152656	 0.220849	 0.051284	 0.961921	 1
1463624008.206	 5	 -1.912643	 3.566781	 -2.019235	 0.517893	 0.269952	 0.014524	 0.128234	 0.254671	 0.041413	 0.957593	 1
1463624008.216	 5	 -1.855219	 3.772755	 -2.046593	 0.557239	 0.243397	 0.006307	 0.115855	 0.273361	 0.036397	 0.954215	 1
1463624008.236	 6	 -1.474050	 4.056355	 -1.798951	 0.639445	 0.194347	 -0.007540	 0.093282	 0.312471	 0.026932	 0.944952	 1
1463624008.246	 6	 -1.124435	 4.132265	 -1.457047	 0.681473	 0.175218	 -0.012393	 0.084528	 0.332382	 0.023422	 0.939057	 1
1463624008.266	 7	 -0.374729	 4.607020	 -0.807976	 0.770000	 0.152355	 -0.019401	 0.074162	 0.373768	 0.019616	 0.924344	 1
1463624008.276	 7	 -0.226895	 4.863973	 -0.752158	 0.818832	 0.145233	 -0.022948	 0.071108	 0.396235	 0.018382	 0.915207	 1
1463624008.296	 8	 -0.779217	 4.643407	 -1.176772	 0.913654	 0.123869	 -0.027925	 0.061689	 0.439439	 0.014793	 0.896030	 1
1463624008.306	 8	 -1.170234	 4.370995	 -1.498828	 0.958055	 0.106066	 -0.027627	 0.053395	 0.459575	 0.012189	 0.886449	 1
1463624008.316	 8	 -1.449926	 4.156868	 -1.805325	 0.999885	 0.083973	 -0.025764	 0.043003	 0.478438	 0.008825	 0.877023	 1
1463624008.326	 8	 -1.521293	 4.174364	 -2.061389	 1.041194	 0.058952	 -0.023228	 0.031340	 0.496852	 0.004588	 0.867257	 1
1463624008.336	 8	 -1.333782	 4.463065	 -2.214871	 1.084842	 0.033083	 -0.021677	 0.019760	 0.515957	 -0.000743	 0.856386	 1
1463624008.356	 8	 -0.316399	 5.697881	 -2.248475	 1.188529	 -0.014083	 -0.027157	 0.001769	 0.559913	 -0.015192	 0.828410	 1
1463624008.366	 9	 0.359795	 6.311557	 -2.272099	 1.250020	 -0.034717	 -0.036730	 -0.003331	 0.585177	 -0.025044	 0.810512	 1
1463624008.376	 9	 1.023197	 6.501733	 -2.326196	 1.314187	 -0.054416	 -0.051598	 -0.005781	 0.610944	 -0.037029	 0.790786	 1
1463624008.386	 9	 1.527656	 6.311108	 -2.448530	 1.376682	 -0.074763	 -0.070821	 -0.006371	 0.635437	 -0.051049	 0.770437	 1
1463624008.396	 9	 1.773623	 5.914299	 -2.653662	 1.435029	 -0.097538	 -0.092218	 -0.006420	 0.657727	 -0.066706	 0.750269	 1
1463624008.406	 9	 1.686935	 5.395807	 -2.906054	 1.488155	 -0.123914	 -0.112576	 -0.007451	 0.677486	 -0.083180	 0.730779	 1
1463624008.416	 9	 1.393716	 4.719769	 -3.113353	 1.534841	 -0.153633	 -0.129217	 -0.010423	 0.694355	 -0.099498	 0.712645	 1
1463624008.426	 9	 1.199445	 3.962758	 -3.299885	 1.574115	 -0.185921	 -0.142277	 -0.015237	 0.708095	 -0.115541	 0.696433	 1
1463624008.436	 9	 1.140208	 3.408850	 -3.584819	 1.607171	 -0.221196	 -0.153276	 -0.021611	 0.719217	 -0.132038	 0.681781	 1
1463624008.446	 9	 1.162310	 3.123856	 -3.861565	 1.636610	 -0.259730	 -0.163123	 -0.029242	 0.728646	 -0.149433	 0.667750	 1
1463624008.456	 9	 1.240624	 3.108726	 -4.009462	 1.665003	 -0.300358	 -0.172445	 -0.037345	 0.737247	 -0.167553	 0.653451	 1
1463624008.466	 9	 1.367083	 3.251681	 -4.045469	 1.694182	 -0.342001	 -0.181759	 -0.045199	 0.745607	 -0.186208	 0.638243	 1
1463624008.476	 9	 1.569594	 3.366455	 -3.976890	 1.723996	 -0.383691	 -0.191907	 -0.052144	 0.753680	 -0.205299	 0.622173	 1
1463624008.486	 9	 1.801669	 3.323449	 -3.800263	 1.752882	 -0.424579	 -0.203609	 -0.057781	 0.761028	 -0.224648	 0.605831	 1
1463624008.496	 9	 2.008359	 3.017476	 -3.522482	 1.778133	 -0.463659	 -0.217188	 -0.062022	 0.766951	 -0.243821	 0.590331	 1
1463624008.506	 9	 2.128054	 2.531487	 -3.169951	 1.797639	 -0.500058	 -0.232454	 -0.065064	 0.771005	 -0.262280	 0.576652	 1
1463624008.516	 9	 2.118553	 2.000409	 -2.780478	 1.810970	 -0.532954	 -0.248629	 -0.067196	 0.773256	 -0.279414	 0.565232	 1
1463624008.526	 9	 2.028744	 1.490165	 -2.483899	 1.818723	 -0.562675	 -0.264713	 -0.069004	 0.773964	 -0.295049	 0.556026	 1
1463624008.536	 9	 1.966659	 1.052559	 -2.279607	 1.821553	 -0.590078	 -0.280733	 -0.070784	 0.773355	 -0.309523	 0.548732	 1
1463624008.546	 9	 1.972156	 0.733496	 -2.128088	 1.820167	 -0.615937	 -0.297373	 -0.072507	 0.771663	 -0.323325	 0.542900	 1
1463624008.556	 9	 2.009373	 0.585513	 -1.985911	 1.815762	 -0.640412	 -0.315211	 -0.073886	 0.769269	 -0.336704	 0.537956	 1
1463624008.566	 9	 2.090057	 0.657103	 -1.908147	 1.810302	 -0.664063	 -0.334596	 -0.074677	 0.766700	 -0.350017	 0.532994	 1
1463624008.576	 9	 2.221344	 0.795785	 -1.798226	 1.804265	 -0.686958	 -0.356398	 -0.074507	 0.764125	 -0.363528	 0.527644	 1
1463624008.586	 9	 2.290788	 0.902058	 -1.635846	 1.797687	 -0.708515	 -0.380331	 -0.073310	 0.761598	 -0.376950	 0.522019	 1
1463624008.596	 9	 2.272591	 0.916601	 -1.397887	 1.790232	 -0.727835	 -0.405615	 -0.071180	 0.759075	 -0.389764	 0.516549	 1
1463624008.606	 9	 2.115596	 0.860781	 -1.092232	 1.782117	 -0.743891	 -0.430756	 -0.068319	 0.756640	 -0.401275	 0.511670	 1
1463624008.616	 9	 1.856882	 0.690760	 -0.735597	 1.773594	 -0.755953	 -0.454156	 -0.065037	 0.754351	 -0.410901	 0.507824	 1
1463624008.626	 9	 1.562415	 0.394383	 -0.363840	 1.763921	 -0.763636	 -0.475073	 -0.061620	 0.752010	 -0.418372	 0.505617	 1
1463624008.636	 9	 1.127741	 0.064988	 -0.055115	 1.753813	 -0.767203	 -0.491804	 -0.058613	 0.749713	 -0.423432	 0.505173	 1
1463624008.646	 9	 0.608023	 -0.327714	 0.142922	 1.744483	 -0.767522	 -0.502006	 -0.056878	 0.747627	 -0.425844	 0.506434	 1
1463624008.656	 9	 0.259476	 -0.785353	 0.255735	 1.734228	 -0.765792	 -0.507165	 -0.056574	 0.745279	 -0.426321	 0.509518	 1
1463624008.666	 9	 -0.004776	 -1.208460	 0.324439	 1.722097	 -0.762834	 -0.508667	 -0.057631	 0.742399	 -0.425439	 0.514319	 1
1463624008.676	 9	 -0.348696	 -1.524160	 0.358600	 1.709500	 -0.758986	 -0.505886	 -0.060067	 0.739289	 -0.423158	 0.520366	 1
1463624008.696	 10	 -1.147647	 -1.710809	 0.404318	 1.690658	 -0.749091	 -0.483748	 -0.068886	 0.734192	 -0.413659	 0.533951	 1
1463624008.706	 10	 -1.371414	 -1.450306	 0.449190	 1.687212	 -0.743295	 -0.466450	 -0.074010	 0.732995	 -0.407096	 0.539921	 1
1463624008.716	 10	 -1.346007	 -1.243359	 0.689625	 1.686045	 -0.735548	 -0.449061	 -0.078040	 0.732490	 -0.399918	 0.545375	 1
1463624008.726	 10	 -1.196302	 -1.154845	 0.928942	 1.684477	 -0.725423	 -0.433892	 -0.080538	 0.732087	 -0.392518	 0.550901	 1
1463624008.736	 10	 -1.026103	 -1.118547	 1.016256	 1.681422	 -0.714228	 -0.421323	 -0.082008	 0.731426	 -0.385375	 0.556576	 1
1463624008.746	 10	 -0.948307	 -0.886097	 0.981505	 1.679145	 -0.703340	 -0.410110	 -0.082918	 0.731001	 -0.378687	 0.561569	 1
1463624008.756	 10	 -0.900081	 -0.571802	 0.927525	 1.679386	 -0.692965	 -0.399586	 -0.083266	 0.731271	 -0.372415	 0.565347	 1
1463624008.766	 10	 -0.694762	 -0.191135	 0.849347	 1.681812	 -0.683417	 -0.391115	 -0.082741	 0.732194	 -0.367045	 0.567736	 1
1463624008.776	 10	 -0.501823	 0.309502	 0.736158	 1.687325	 -0.675266	 -0.385232	 -0.081185	 0.734019	 -0.362961	 0.568229	 1
1463624008.786	 10	 -0.364059	 1.005785	 0.739306	 1.698032	 -0.667545	 -0.381315	 -0.078139	 0.737375	 -0.359758	 0.566345	 1
1463624008.796	 10	 -0.157262	 1.523051	 0.871276	 1.712952	 -0.658926	 -0.380030	 -0.073108	 0.742067	 -0.357121	 0.562545	 1
1463624008.806	 10	 0.118175	 1.760413	 1.153513	 1.728653	 -0.648508	 -0.382598	 -0.065958	 0.747190	 -0.354921	 0.558021	 1
1463624008.816	 10	 0.432266	 1.637625	 1.654807	 1.740979	 -0.634045	 -0.390065	 -0.056290	 0.751701	 -0.352520	 0.554533	 1
1463624008.826	 10	 0.617706	 1.498323	 2.027045	 1.749610	 -0.615836	 -0.401411	 -0.044618	 0.755383	 -0.349724	 0.552358	 1
1463624008.836	 10	 0.471743	 1.491802	 2.095398	 1.758165	 -0.596182	 -0.412346	 -0.032660	 0.758948	 -0.346222	 0.550510	 1
1463624008.846	 10	 0.155395	 1.564642	 1.892072	 1.769653	 -0.577400	 -0.419609	 -0.021895	 0.763074	 -0.341939	 0.548011	 1
1463624008.856	 10	 -0.019934	 1.358248	 1.520793	 1.781791	 -0.561561	 -0.423654	 -0.013234	 0.767111	 -0.337679	 0.545287	 1
1463624008.866	 10	 -0.007138	 1.040250	 1.089286	 1.791475	 -0.549830	 -0.426430	 -0.006820	 0.770239	 -0.334400	 0.543012	 1
1463624008.876	 10	 0.117536	 0.843757	 0.737868	 1.798769	 -0.542028	 -0.429493	 -0.001959	 0.772529	 -0.332516	 0.540952	 1
1463624008.886	 10	 0.252714	 0.801768	 0.429360	 1.804768	 -0.537592	 -0.433360	 0.001929	 0.774317	 -0.332001	 0.538707	 1
1463624008.896	 10	 0.311872	 0.963947	 0.083982	 1.811874	 -0.536623	 -0.437263	 0.004927	 0.776254	 -0.332696	 0.535461	 1
1463624008.906	 10	 0.250207	 1.305148	 -0.264008	 1.822698	 -0.539031	 -0.439833	 0.006979	 0.779040	 -0.334199	 0.530433	 1
1463624008.916	 10	 0.080105	 1.693816	 -0.563718	 1.838569	 -0.544123	 -0.439821	 0.008057	 0.783021	 -0.335944	 0.523407	 1
1463624008.936	 11	 -0.362073	 2.620826	 -0.951969	 1.889315	 -0.558761	 -0.429539	 0.008108	 0.795425	 -0.338365	 0.502735	 1
1463624008.946	 11	 -0.355766	 3.109575	 -1.019948	 1.923964	 -0.567058	 -0.421317	 0.008236	 0.803617	 -0.339220	 0.488938	 1
1463624008.956	 11	 0.283614	 2.508304	 -0.807300	 1.952782	 -0.575573	 -0.418444	 0.009515	 0.810100	 -0.341552	 0.476435	 1
1463624008.966	 12	 1.320119	 1.546711	 -0.401099	 1.965133	 -0.584257	 -0.427879	 0.012984	 0.812444	 -0.346943	 0.468399	 1
1463624008.986	 12	 1.829702	 2.010895	 -0.279719	 1.977947	 -0.603744	 -0.468528	 0.026242	 0.813822	 -0.363402	 0.452708	 1
1463624008.996	 12	 0.253667	 1.696654	 -0.395747	 1.992131	 -0.609735	 -0.473860	 0.029309	 0.816567	 -0.366615	 0.444919	 1
1463624009.006	 12	 -0.340822	 1.842549	 -0.317807	 2.013359	 -0.611831	 -0.469191	 0.030700	 0.821184	 -0.366046	 0.436721	 1
1463624009.026	 13	 -0.103458	 -0.040333	 -0.115716	 2.031653	 -0.612189	 -0.462579	 0.031221	 0.825228	 -0.364464	 0.430337	 1
1463624009.036	 13	 0.023113	 -1.024455	 -0.396679	 2.024855	 -0.615008	 -0.460707	 0.028435	 0.823599	 -0.365220	 0.433001	 1
1463624009.046	 13	 0.158898	 -1.241102	 -0.882668	 2.013820	 -0.622260	 -0.458303	 0.023423	 0.820740	 -0.367554	 0.436740	 1
1463624009.056	 13	 0.150916	 -1.027774	 -1.534992	 2.006126	 -0.635339	 -0.452868	 0.016142	 0.818199	 -0.371310	 0.438655	 1
1463624009.066	 13	 0.021421	 -0.798010	 -2.170118	 2.003543	 -0.653883	 -0.442990	 0.006457	 0.816327	 -0.376035	 0.438368	 1
1463624009.076	 13	 -0.196928	 -0.526485	 -2.655941	 2.006935	 -0.676415	 -0.427732	 -0.005389	 0.815283	 -0.381035	 0.436002	 1
1463624009.086	 13	 -0.373398	 -0.237911	 -2.827569	 2.016304	 -0.700386	 -0.408266	 -0.018145	 0.815113	 -0.385739	 0.431819	 1
1463624009.106	 14	 -0.221226	 -0.032094	 -2.105458	 2.036020	 -0.741719	 -0.373111	 -0.039869	 0.814737	 -0.393853	 0.423666	 1
1463624009.116	 14	 -0.150680	 0.291120	 -1.654379	 2.047505	 -0.756637	 -0.359744	 -0.047037	 0.815240	 -0.396846	 0.419148	 1
1463624009.126	 14	 0.208409	 0.212809	 -1.161589	 2.054634	 -0.768580	 -0.352952	 -0.051551	 0.815200	 -0.400064	 0.415621	 1
1463624009.146	 15	 0.541360	 0.200765	 -0.341832	 2.055114	 -0.783716	 -0.356726	 -0.053915	 0.813625	 -0.406498	 0.412149	 1
1463624009.156	 15	 0.495694	 0.339270	 -0.181347	 2.054584	 -0.787966	 -0.361747	 -0.053104	 0.813147	 -0.409095	 0.410626	 1
1463624009.166	 15	 0.396298	 0.552126	 -0.203013	 2.056667	 -0.791598	 -0.365824	 -0.051979	 0.813249	 -0.411331	 0.408328	 1
1463624009.176	 15	 0.295166	 0.730029	 -0.351815	 2.062229	 -0.795810	 -0.367749	 -0.051160	 0.813926	 -0.413426	 0.404953	 1
1463624009.186	 15	 0.262443	 0.743602	 -0.546439	 2.069712	 -0.801428	 -0.367755	 -0.051081	 0.814753	 -0.415702	 0.400949	 1
1463624009.196	 15	 0.247283	 0.673824	 -0.787818	 2.078032	 -0.808982	 -0.365876	 -0.052083	 0.815434	 -0.418345	 0.396664	 1
1463624009.206	 15	 0.229702	 0.558197	 -1.046662	 2.087319	 -0.819072	 -0.361479	 -0.054540	 0.815876	 -0.421476	 0.392084	 1
1463624009.216	 15	 0.202929	 0.490789	 -1.259143	 2.096890	 -0.830597	 -0.355285	 -0.058000	 0.816072	 -0.424828	 0.387537	 1
1463624009.226	 15	 0.175793	 0.499530	 -1.384585	 2.107753	 -0.843219	 -0.347342	 -0.062133	 0.816233	 -0.428330	 0.382669	 1
1463624009.236	 15	 0.161577	 0.512658	 -1.486652	 2.119857	 -0.856568	 -0.338035	 -0.066683	 0.816382	 -0.431938	 0.377495	 1
1463624009.246	 15	 0.207947	 0.447144	 -1.555883	 2.132545	 -0.871241	 -0.327717	 -0.071780	 0.816293	 -0.435939	 0.372117	 1
1463624009.256	 15	 0.317192	 0.299027	 -1.549686	 2.142931	 -0.885875	 -0.318496	 -0.076851	 0.815690	 -0.440109	 0.367488	 1
1463624009.266	 15	 0.419821	 0.319167	 -1.545297	 2.152345	 -0.900975	 -0.310312	 -0.081760	 0.814762	 -0.444656	 0.362988	 1
1463624009.276	 15	 0.520725	 0.467571	 -1.573570	 2.162447	 -0.916730	 -0.302914	 -0.086284	 0.813770	 -0.449662	 0.357962	 1
1463624009.286	 15	 0.664496	 0.654159	 -1.600805	 2.175673	 -0.934250	 -0.294874	 -0.090698	 0.812887	 -0.455402	 0.351564	 1
1463624009.296	 15	 0.807924	 0.808470	 -1.677353	 2.187739	 -0.952223	 -0.289536	 -0.094284	 0.811697	 -0.461781	 0.344988	 1
1463624009.306	 15	 0.907888	 0.858159	 -1.824836	 2.200898	 -0.971892	 -0.283868	 -0.098035	 0.810231	 -0.468829	 0.337808	 1
1463624009.316	 15	 0.944678	 0.882340	 -1.995454	 2.215703	 -0.993128	 -0.276599	 -0.102274	 0.808498	 -0.476321	 0.330136	 1
1463624009.326	 15	 0.885322	 0.827808	 -2.361069	 2.248109	 -1.022613	 -0.252780	 -0.110570	 0.806891	 -0.485269	 0.318143	 1
1463624009.336	 15	 0.803403	 0.761362	 -2.756372	 2.273792	 -1.048357	 -0.231987	 -0.118093	 0.804584	 -0.493194	 0.308963	 1
1463624009.346	 15	 0.770483	 0.628176	 -3.095171	 2.305567	 -1.076129	 -0.203251	 -0.127348	 0.801822	 -0.501297	 0.299273	 1
1463624009.356	 15	 0.745981	 0.415660	 -3.369771	 2.343278	 -1.105419	 -0.166080	 -0.138287	 0.798420	 -0.509494	 0.289513	 1
1463624009.366	 15	 0.704276	 0.167993	 -3.365317	 2.385052	 -1.134249	 -0.122210	 -0.150162	 0.794474	 -0.517321	 0.280429	 1
1463624009.386	 16	 0.579464	 -0.059671	 -2.543581	 2.466218	 -1.182269	 -0.033510	 -0.171486	 0.786400	 -0.530364	 0.266238	 1
1463624009.396	 16	 0.429754	 -0.002306	 -1.880971	 2.499439	 -1.198571	 0.002569	 -0.179015	 0.783311	 -0.534892	 0.261281	 1
1463624009.406	 16	 0.262880	 0.164441	 -1.102091	 2.523288	 -1.208680	 0.026844	 -0.183387	 0.781475	 -0.537872	 0.257604	 1
1463624009.416	 16	 0.181685	 0.424289	 -0.357196	 2.535512	 -1.213370	 0.036085	 -0.184264	 0.780910	 -0.539656	 0.254945	 1
1463624009.426	 16	 0.140944	 0.592271	 0.203182	 2.537072	 -1.214158	 0.031827	 -0.182273	 0.781283	 -0.540650	 0.253124	 1
1463624009.436	 16	 0.088169	 0.566951	 0.649960	 2.529442	 -1.211890	 0.017297	 -0.178385	 0.782249	 -0.540906	 0.252361	 1
1463624009.446	 16	 0.087094	 0.242326	 0.765248	 2.515261	 -1.208180	 -0.001414	 -0.174435	 0.783114	 -0.540566	 0.253167	 1
1463624009.466	 17	 0.195963	 -0.231969	 0.526485	 2.481771	 -1.202969	 -0.035314	 -0.169516	 0.783148	 -0.539983	 0.257609	 1
1463624009.476	 17	 0.237968	 -0.248092	 0.373565	 2.467172	 -1.202242	 -0.048233	 -0.168300	 0.782542	 -0.540140	 0.259908	 1
1463624009.486	 17	 0.225323	 -0.125441	 0.268240	 2.455966	 -1.202218	 -0.058538	 -0.167293	 0.781952	 -0.540534	 0.261509	 1
1463624009.496	 17	 0.139633	 0.047001	 0.252473	 2.448238	 -1.201901	 -0.066847	 -0.166088	 0.781716	 -0.540856	 0.262318	 1
1463624009.506	 17	 0.008028	 0.177349	 0.280410	 2.443662	 -1.200462	 -0.073363	 -0.164562	 0.782029	 -0.540779	 0.262503	 1
1463624009.516	 17	 -0.083706	 0.190350	 0.276001	 2.441129	 -1.198160	 -0.078169	 -0.163018	 0.782687	 -0.540319	 0.262451	 1
1463624009.526	 17	 -0.124896	 0.103897	 0.218004	 2.439790	 -1.195746	 -0.080999	 -0.161904	 0.783366	 -0.539655	 0.262482	 1
1463624009.536	 17	 -0.124762	 -0.053861	 0.170707	 2.438379	 -1.193613	 -0.082435	 -0.161396	 0.783847	 -0.538911	 0.262888	 1
1463624009.546	 17	 -0.114768	 -0.178497	 0.148145	 2.435790	 -1.191725	 -0.083570	 -0.161358	 0.784084	 -0.538127	 0.263810	 1
1463624009.556	 17	 -0.103615	 -0.266061	 0.104602	 2.432831	 -1.190158	 -0.084111	 -0.161700	 0.784139	 -0.537357	 0.265003	 1
1463624009.566	 17	 -0.107353	 -0.340841	 0.058111	 2.430025	 -1.188915	 -0.083663	 -0.162437	 0.784048	 -0.536594	 0.266364	 1
1463624009.576	 17	 -0.123683	 -0.384612	 0.029070	 2.427518	 -1.187785	 -0.082301	 -0.163467	 0.783892	 -0.535773	 0.267840	 1
1463624009.586	 17	 -0.129115	 -0.394261	 0.016239	 2.425308	 -1.186694	 -0.080439	 -0.164618	 0.783722	 -0.534924	 0.269328	 1
1463624009.596	 17	 -0.125875	 -0.381546	 0.011000	 2.423294	 -1.185659	 -0.078457	 -0.165772	 0.783551	 -0.534092	 0.270765	 1
1463624009.606	 17	 -0.118309	 -0.361358	 0.011122	 2.421377	 -1.184679	 -0.076569	 -0.166870	 0.783384	 -0.533300	 0.272131	 1
1463624009.626	 18	 -0.092274	 -0.267871	 0.006436	 2.418143	 -1.183021	 -0.073377	 -0.168723	 0.783098	 -0.531955	 0.274435	 1
1463624009.636	 18	 -0.080250	 -0.194629	 -0.008973	 2.417453	 -1.182427	 -0.071820	 -0.169423	 0.783023	 -0.531455	 0.275186	 1
1463624009.646	 18	 -0.062911	 -0.125658	 -0.024469	 2.417520	 -1.182061	 -0.070212	 -0.169978	 0.782989	 -0.531098	 0.275628	 1
1463624009.656	 18	 -0.043500	 -0.076841	 -0.031644	 2.418006	 -1.181902	 -0.068742	 -0.170399	 0.782972	 -0.530876	 0.275846	 1
1463624009.666	 18	 -0.018745	 -0.031103	 -0.028262	 2.433206	 -1.181085	 -0.054143	 -0.171962	 0.784020	 -0.529855	 0.273852	 1
1463624009.676	 18	 0.001727	 -0.002336	 -0.013252	 2.433482	 -1.181172	 -0.053750	 -0.172056	 0.784002	 -0.529859	 0.273838	 1
1463624009.686	 18	 0.014605	 -0.002244	 0.004755	 2.433279	 -1.181263	 -0.053974	 -0.172036	 0.783970	 -0.529907	 0.273849	 1
1463624009.696	 18	 0.019934	 -0.021211	 0.027958	 2.439782	 -1.181722	 -0.047915	 -0.172757	 0.784218	 -0.529817	 0.272856	 1
1463624009.706	 18	 0.020965	 -0.045532	 0.047972	 2.438255	 -1.181606	 -0.049131	 -0.172668	 0.784144	 -0.529807	 0.273145	 1
1463624009.716	 18	 0.022015	 -0.061320	 0.065896	 2.448009	 -1.182701	 -0.039796	 -0.173907	 0.784381	 -0.529805	 0.271679	 1
1463624009.726	 18	 0.024191	 -0.068634	 0.084992	 2.445462	 -1.182369	 -0.041823	 -0.173738	 0.784297	 -0.529730	 0.272175	 1
1463624009.736	 18	 0.030590	 -0.079145	 0.099717	 2.453838	 -1.183761	 -0.033714	 -0.174901	 0.784366	 -0.529900	 0.270896	 1
1463624009.746	 18	 0.039126	 -0.091826	 0.114446	 2.450293	 -1.183334	 -0.036602	 -0.174646	 0.784249	 -0.529816	 0.271564	 1
1463624009.756	 18	 0.041293	 -0.092827	 0.124009	 2.446439	 -1.182880	 -0.039758	 -0.174364	 0.784118	 -0.529732	 0.272286	 1
1463624009.766	 18	 0.045516	 -0.107685	 0.130229	 2.442303	 -1.182387	 -0.043120	 -0.174068	 0.783975	 -0.529639	 0.273068	 1
1463624009.776	 18	 0.041209	 -0.115072	 0.132300	 2.447328	 -1.182654	 -0.037911	 -0.174819	 0.784136	 -0.529471	 0.272450	 1
1463624009.786	 18	 0.036833	 -0.138452	 0.133186	 2.442862	 -1.182088	 -0.041281	 -0.174597	 0.783968	 -0.529321	 0.273367	 1
1463624009.796	 18	 0.023931	 -0.158623	 0.133111	 2.438449	 -1.181436	 -0.044405	 -0.174444	 0.783805	 -0.529111	 0.274338	 1
1463624009.806	 18	 0.016382	 -0.166084	 0.124555	 2.441483	 -1.181557	 -0.040466	 -0.175203	 0.783845	 -0.528883	 0.274178	 1
1463624009.816	 18	 0.010984	 -0.170363	 0.116012	 2.443892	 -1.181734	 -0.037056	 -0.175928	 0.783830	 -0.528696	 0.274117	 1
1463624009.826	 18	 0.015280	 -0.147096	 0.096987	 2.445817	 -1.181824	 -0.034185	 -0.176558	 0.783818	 -0.528507	 0.274112	 1
1463624009.836	 18	 0.015340	 -0.131139	 0.094987	 2.447532	 -1.181674	 -0.031624	 -0.177087	 0.783865	 -0.528249	 0.274132	 1
1463624009.846	 18	 0.012235	 -0.102457	 0.086738	 2.449120	 -1.181687	 -0.029444	 -0.177524	 0.783886	 -0.528096	 0.274084	 1
1463624009.856	 18	 0.010108	 -0.089757	 0.075137	 2.450756	 -1.181609	 -0.027319	 -0.177913	 0.783942	 -0.527920	 0.274011	 1
1463624009.866	 18	 0.006898	 -0.077088	 0.059286	 2.452053	 -1.181384	 -0.025586	 -0.178218	 0.784024	 -0.527710	 0.273983	 1
1463624009.876	 18	 0.005834	 -0.065459	 0.047672	 2.453322	 -1.181003	 -0.023933	 -0.178477	 0.784150	 -0.527449	 0.273959	 1
1463624009.886	 18	 0.005867	 -0.048508	 0.037167	 2.454563	 -1.180514	 -0.022434	 -0.178667	 0.784313	 -0.527164	 0.273915	 1
1463624009.896	 18	 0.002693	 -0.034726	 0.028794	 2.455275	 -1.180116	 -0.021521	 -0.178781	 0.784433	 -0.526946	 0.273916	 1
1463624009.906	 18	 -0.000469	 -0.021978	 0.024676	 2.456061	 -1.179617	 -0.020632	 -0.178851	 0.784591	 -0.526700	 0.273891	 1
1463624009.916	 18	 -0.003632	 -0.011342	 0.022669	 2.456853	 -1.179154	 -0.019833	 -0.178891	 0.784748	 -0.526481	 0.273835	 1
1463624009.926	 18	 -0.005688	 0.001471	 0.028134	 2.457521	 -1.178752	 -0.019270	 -0.178879	 0.784894	 -0.526307	 0.273760	 1
1463624009.936	 18	 -0.006690	 0.012146	 0.032503	 2.458240	 -1.178301	 -0.018775	 -0.178820	 0.785066	 -0.526127	 0.273652	 1
1463624009.946	 18	 -0.006634	 0.021745	 0.035787	 2.458635	 -1.178037	 -0.018691	 -0.178711	 0.785181	 -0.526047	 0.273545	 1
1463624009.956	 18	 -0.001247	 0.029209	 0.040067	 2.459301	 -1.177944	 -0.018445	 -0.178619	 0.785274	 -0.526037	 0.273357	 1
1463624009.966	 18	 0.001963	 0.030275	 0.041107	 2.460083	 -1.178065	 -0.018125	 -0.178557	 0.785321	 -0.526111	 0.273122	 1
1463624009.976	 18	 0.008346	 0.027061	 0.039946	 2.460712	 -1.178437	 -0.017944	 -0.178515	 0.785294	 -0.526287	 0.272887	 1
1463624009.986	 18	 0.014738	 0.028079	 0.035625	 2.461413	 -1.179024	 -0.017687	 -0.178514	 0.785214	 -0.526544	 0.272623	 1
1463624009.996	 18	 0.017931	 0.027001	 0.034512	 2.461849	 -1.179517	 -0.017689	 -0.178468	 0.785145	 -0.526777	 0.272404	 1
1463624010.006	 18	 0.024333	 0.023816	 0.037615	 2.461796	 -1.180031	 -0.018127	 -0.178383	 0.785042	 -0.527032	 0.272260	 1
1463624010.016	 18	 0.027542	 0.024873	 0.037587	 2.461739	 -1.180653	 -0.018595	 -0.178302	 0.784914	 -0.527334	 0.272099	 1
1463624010.026	 18	 0.028640	 0.032311	 0.036571	 2.462115	 -1.181170	 -0.018703	 -0.178233	 0.784840	 -0.527584	 0.271873	 1
1463624010.036	 18	 0.027575	 0.035486	 0.033404	 2.462573	 -1.181595	 -0.018775	 -0.178143	 0.784797	 -0.527801	 0.271633	 1
1463624010.046	 18	 0.025436	 0.035489	 0.032349	 2.463078	 -1.181915	 -0.018795	 -0.178047	 0.784784	 -0.527973	 0.271399	 1
1463624010.056	 18	 0.023282	 0.034413	 0.029152	 2.463795	 -1.182197	 -0.018594	 -0.177976	 0.784790	 -0.528120	 0.271144	 1
1463624010.066	 18	 0.014696	 0.028030	 0.024896	 2.464698	 -1.182452	 -0.018152	 -0.177947	 0.784806	 -0.528240	 0.270881	 1
1463624010.076	 18	 0.009317	 0.022700	 0.020623	 2.465315	 -1.182676	 -0.017897	 -0.177916	 0.784808	 -0.528348	 0.270685	 1
1463624010.086	 18	 0.003947	 0.016330	 0.019537	 2.465925	 -1.182918	 -0.017573	 -0.177915	 0.784798	 -0.528453	 0.270508	 1
1463624010.096	 18	 -0.002474	 0.013153	 0.018490	 2.466550	 -1.183212	 -0.017176	 -0.177947	 0.784771	 -0.528570	 0.270340	 1
1463624010.106	 18	 -0.004622	 0.009971	 0.018470	 2.467200	 -1.183487	 -0.016716	 -0.177994	 0.784746	 -0.528673	 0.270180	 1
1463624010.116	 18	 -0.003563	 0.007842	 0.018433	 2.467609	 -1.183813	 -0.016462	 -0.178031	 0.784693	 -0.528803	 0.270056	 1
1463624010.126	 18	 -0.000378	 0.006749	 0.015188	 2.468325	 -1.184191	 -0.015906	 -0.178113	 0.784641	 -0.528939	 0.269886	 1
1463624010.136	 18	 0.003883	 0.006725	 0.013008	 2.469190	 -1.184624	 -0.015210	 -0.178217	 0.784582	 -0.529091	 0.269689	 1
1463624010.146	 18	 0.009210	 0.005641	 0.011875	 2.469989	 -1.185053	 -0.014583	 -0.178311	 0.784521	 -0.529246	 0.269501	 1
1463624010.156	 18	 0.011292	 -0.000782	 0.006459	 2.470856	 -1.185427	 -0.013841	 -0.178425	 0.784473	 -0.529369	 0.269322	 1
1463624010.166	 18	 0.011260	 -0.006103	 0.005336	 2.471782	 -1.185663	 -0.012973	 -0.178553	 0.784458	 -0.529428	 0.269166	 1
1463624010.176	 18	 0.010154	 -0.014597	 0.006326	 2.472422	 -1.185837	 -0.012307	 -0.178668	 0.784439	 -0.529463	 0.269075	 1
1463624010.186	 18	 0.008002	 -0.018834	 0.007365	 2.472939	 -1.185997	 -0.011704	 -0.178790	 0.784413	 -0.529491	 0.269017	 1
1463624010.196	 18	 0.006918	 -0.022019	 0.007338	 2.473338	 -1.186150	 -0.011176	 -0.178913	 0.784379	 -0.529515	 0.268986	 1
1463624010.206	 18	 0.006929	 -0.018836	 0.006302	 2.472900	 -1.186162	 -0.011433	 -0.178929	 0.784340	 -0.529515	 0.269088	 1
1463624010.216	 18	 0.005886	 -0.013511	 0.006354	 2.473369	 -1.186344	 -0.010894	 -0.179042	 0.784307	 -0.529556	 0.269030	 1
1463624010.226	 18	 0.003766	 -0.008199	 0.004285	 2.473981	 -1.186435	 -0.010267	 -0.179138	 0.784309	 -0.529562	 0.268948	 1
1463624010.236	 18	 -0.000513	 -0.007142	 0.001131	 2.474637	 -1.186467	 -0.009600	 -0.179230	 0.784329	 -0.529543	 0.268864	 1
1463624010.246	 18	 -0.003736	 -0.009273	 -0.000995	 2.475230	 -1.186418	 -0.008969	 -0.179314	 0.784365	 -0.529493	 0.268803	 1
1463624010.256	 18	 -0.009091	 -0.013502	 0.000077	 2.475662	 -1.186227	 -0.008436	 -0.179382	 0.784426	 -0.529385	 0.268792	 1
1463624010.266	 18	 -0.010048	 -0.018756	 0.004290	 2.475982	 -1.185990	 -0.007963	 -0.179451	 0.784489	 -0.529257	 0.268814	 1
1463624010.276	 18	 -0.014315	 -0.019790	 0.006448	 2.476425	 -1.185773	 -0.007353	 -0.179544	 0.784551	 -0.529130	 0.268822	 1
1463624010.286	 18	 -0.015390	 -0.021905	 0.007502	 2.476795	 -1.185540	 -0.006795	 -0.179633	 0.784612	 -0.528997	 0.268846	 1
1463624010.296	 18	 -0.015397	 -0.022967	 0.007490	 2.477314	 -1.185352	 -0.006088	 -0.179747	 0.784668	 -0.528875	 0.268847	 1
1463624010.306	 18	 -0.016460	 -0.021899	 0.007507	 2.477669	 -1.185213	 -0.005535	 -0.179851	 0.784702	 -0.528778	 0.268866	 1
1463624010.316	 18	 -0.015394	 -0.020845	 0.006439	 2.478123	 -1.185083	 -0.004901	 -0.179963	 0.784741	 -0.528683	 0.268868	 1
1463624010.326	 18	 -0.013240	 -0.017652	 0.007514	 2.478281	 -1.185042	 -0.004568	 -0.180046	 0.784743	 -0.528636	 0.268897	 1
1463624010.336	 18	 -0.006836	 -0.017670	 0.007455	 2.478280	 -1.185095	 -0.004405	 -0.180117	 0.784714	 -0.528635	 0.268936	 1
1463624010.346	 18	 -0.003625	 -0.017664	 0.009556	 2.478180	 -1.185173	 -0.004340	 -0.180180	 0.784674	 -0.528648	 0.268985	 1
1463624010.356	 18	 -0.002586	 -0.021937	 0.007374	 2.478037	 -1.185266	 -0.004290	 -0.180250	 0.784626	 -0.528665	 0.269046	 1
1463624010.366	 18	 -0.002596	 -0.024064	 0.007353	 2.477888	 -1.185271	 -0.004224	 -0.180316	 0.784599	 -0.528645	 0.269122	 1
1463624010.376	 18	 -0.005821	 -0.027260	 0.005218	 2.477826	 -1.185199	 -0.004039	 -0.180395	 0.784593	 -0.528586	 0.269201	 1
1463624010.386	 18	 -0.010095	 -0.028311	 0.005244	 2.477763	 -1.185133	 -0.003824	 -0.180487	 0.784582	 -0.528525	 0.269289	 1
1463624010.396	 18	 -0.012250	 -0.031502	 0.004167	 2.477737	 -1.184998	 -0.003541	 -0.180587	 0.784589	 -0.528432	 0.269387	 1
1463624010.406	 18	 -0.013307	 -0.029372	 0.004195	 2.477700	 -1.184931	 -0.003280	 -0.180690	 0.784578	 -0.528367	 0.269476	 1
1463624010.416	 18	 -0.010084	 -0.024070	 0.003149	 2.477722	 -1.184863	 -0.003006	 -0.180782	 0.784574	 -0.528305	 0.269546	 1
1463624010.426	 18	 -0.008976	 -0.015564	 0.003217	 2.477720	 -1.184824	 -0.002827	 -0.180848	 0.784568	 -0.528266	 0.269598	 1
1463624010.436	 18	 -0.006797	 -0.007053	 0.004343	 2.477582	 -1.184767	 -0.002861	 -0.180863	 0.784567	 -0.528236	 0.269648	 1
1463624010.446	 18	 -0.005710	 -0.002802	 0.004373	 2.477617	 -1.184672	 -0.002802	 -0.180864	 0.784592	 -0.528194	 0.269659	 1
1463624010.456	 18	 -0.005686	 0.001461	 0.005479	 2.477695	 -1.184564	 -0.002731	 -0.180857	 0.784624	 -0.528149	 0.269657	 1
1463624010.466	 18	 -0.003548	 0.001463	 0.006525	 2.477782	 -1.184489	 -0.002672	 -0.180846	 0.784650	 -0.528119	 0.269645	 1
1463624010.476	 18	 -0.002488	 -0.000660	 0.007561	 2.477880	 -1.184430	 -0.002600	 -0.180841	 0.784673	 -0.528095	 0.269631	 1
1463624010.486	 18	 0.000704	 -0.001740	 0.006456	 2.477975	 -1.184389	 -0.002523	 -0.180840	 0.784689	 -0.528078	 0.269618	 1
1463624010.496	 18	 0.002846	 -0.001730	 0.008567	 2.478021	 -1.184425	 -0.002489	 -0.180847	 0.784683	 -0.528091	 0.269605	 1
1463624010.506	 18	 0.004995	 0.000399	 0.009631	 2.478071	 -1.184525	 -0.002476	 -0.180852	 0.784662	 -0.528133	 0.269580	 1
1463624010.516	 18	 0.005007	 0.003583	 0.008591	 2.478093	 -1.184677	 -0.002517	 -0.180851	 0.784629	 -0.528200	 0.269547	 1
1463624010.526	 18	 0.006090	 0.006772	 0.008608	 2.478248	 -1.184798	 -0.002475	 -0.180842	 0.784614	 -0.528256	 0.269486	 1
1463624010.536	 18	 0.005023	 0.006777	 0.008614	 2.478506	 -1.184911	 -0.002339	 -0.180843	 0.784607	 -0.528305	 0.269410	 1
1463624010.546	 18	 0.005017	 0.005714	 0.008602	 2.478565	 -1.184964	 -0.002374	 -0.180821	 0.784603	 -0.528336	 0.269373	 1
1463624010.556	 18	 -0.002460	 0.003618	 0.009711	 2.478811	 -1.184927	 -0.002205	 -0.180817	 0.784631	 -0.528321	 0.269324	 1
1463624010.566	 18	 -0.003549	 -0.000633	 0.009679	 2.479086	 -1.184849	 -0.001978	 -0.180823	 0.784668	 -0.528285	 0.269284	 1
1463624010.576	 18	 -0.005695	 -0.003808	 0.010731	 2.479404	 -1.184788	 -0.001676	 -0.180849	 0.784700	 -0.528249	 0.269244	 1
1463624010.586	 18	 -0.006784	 -0.007002	 0.009641	 2.479865	 -1.184708	 -0.001202	 -0.180903	 0.784740	 -0.528195	 0.269196	 1
1463624010.596	 18	 -0.005708	 -0.004876	 0.009649	 2.480190	 -1.184648	 -0.000864	 -0.180942	 0.784769	 -0.528156	 0.269163	 1
1463624010.606	 18	 -0.004636	 -0.002758	 0.008590	 2.480630	 -1.184596	 -0.000441	 -0.180984	 0.784804	 -0.528118	 0.269107	 1
1463624010.616	 18	 -0.002474	 0.001507	 0.010738	 2.480971	 -1.184577	 -0.000164	 -0.181000	 0.784830	 -0.528105	 0.269048	 1
1463624010.626	 18	 -0.000329	 0.005741	 0.008625	 2.481257	 -1.184588	 0.000034	 -0.181004	 0.784847	 -0.528108	 0.268987	 1
1463624010.636	 18	 0.000738	 0.005739	 0.008612	 2.481451	 -1.184643	 0.000135	 -0.181000	 0.784850	 -0.528134	 0.268932	 1
1463624010.646	 18	 0.000748	 0.006811	 0.009686	 2.481423	 -1.184680	 0.000018	 -0.180966	 0.784847	 -0.528161	 0.268909	 1
1463624010.656	 18	 -0.001372	 0.007897	 0.011844	 2.481442	 -1.184711	 -0.000070	 -0.180931	 0.784849	 -0.528187	 0.268876	 1
1463624010.666	 18	 -0.003519	 0.006824	 0.009720	 2.481456	 -1.184692	 -0.000148	 -0.180894	 0.784863	 -0.528192	 0.268851	 1
1463624010.676	 18	 -0.002471	 0.002567	 0.009669	 2.481515	 -1.184703	 -0.000144	 -0.180882	 0.784868	 -0.528201	 0.268828	 1
1463624010.686	 18	 -0.004638	 -0.002760	 0.007503	 2.481644	 -1.184771	 -0.000027	 -0.180903	 0.784857	 -0.528223	 0.268802	 1
1463624010.696	 18	 -0.003585	 -0.005953	 0.007460	 2.481911	 -1.184880	 0.000253	 -0.180957	 0.784838	 -0.528252	 0.268762	 1
1463624010.706	 18	 -0.004651	 -0.003836	 0.005353	 2.482330	 -1.184909	 0.000682	 -0.181018	 0.784848	 -0.528244	 0.268708	 1
1463624010.716	 18	 -0.003573	 -0.000654	 0.004303	 2.482792	 -1.184988	 0.001111	 -0.181075	 0.784851	 -0.528259	 0.268633	 1
1463624010.726	 18	 -0.001433	 0.001460	 0.003234	 2.483231	 -1.185071	 0.001505	 -0.181125	 0.784852	 -0.528279	 0.268557	 1
1463624010.736	 18	 -0.001428	 0.002525	 0.003239	 2.483624	 -1.185192	 0.001845	 -0.181171	 0.784842	 -0.528316	 0.268482	 1
1463624010.746	 18	 -0.002500	 0.001466	 0.003235	 2.484001	 -1.185256	 0.002176	 -0.181210	 0.784845	 -0.528331	 0.268416	 1
1463624010.756	 18	 -0.002499	 -0.001693	 0.007466	 2.484266	 -1.185235	 0.002419	 -0.181232	 0.784865	 -0.528314	 0.268378	 1
1463624010.766	 18	 -0.000389	 -0.008064	 0.009516	 2.484568	 -1.185214	 0.002746	 -0.181278	 0.784881	 -0.528289	 0.268347	 1
1463624010.776	 18	 -0.001474	 -0.013363	 0.011606	 2.484616	 -1.185155	 0.002879	 -0.181309	 0.784891	 -0.528253	 0.268369	 1
1463624010.786	 18	 -0.002553	 -0.015485	 0.011592	 2.484694	 -1.185081	 0.003058	 -0.181349	 0.784905	 -0.528206	 0.268393	 1
1463624010.796	 18	 -0.001487	 -0.013375	 0.009467	 2.484916	 -1.185044	 0.003369	 -0.181408	 0.784916	 -0.528171	 0.268391	 1
1463624010.806	 18	 -0.000394	 -0.007002	 0.008447	 2.485162	 -1.185061	 0.003659	 -0.181459	 0.784918	 -0.528161	 0.268369	 1
1463624010.816	 18	 -0.001460	 -0.003830	 0.005286	 2.485439	 -1.185050	 0.003938	 -0.181494	 0.784933	 -0.528144	 0.268335	 1
1463624010.826	 18	 -0.003596	 -0.003823	 0.005303	 2.485591	 -1.184986	 0.004103	 -0.181510	 0.784956	 -0.528110	 0.268325	 1
1463624010.836	 18	 -0.008947	 -0.005941	 0.004263	 2.485752	 -1.184894	 0.004311	 -0.181537	 0.784983	 -0.528061	 0.268325	 1
1463624010.846	 18	 -0.010012	 -0.008042	 0.007450	 2.485698	 -1.184760	 0.004337	 -0.181543	 0.785009	 -0.528000	 0.268365	 1
1463624010.856	 18	 -0.011091	 -0.011222	 0.008495	 2.485729	 -1.184600	 0.004460	 -0.181562	 0.785044	 -0.527923	 0.268399	 1
1463624010.866	 18	 -0.008940	 -0.010141	 0.011683	 2.485639	 -1.184426	 0.004465	 -0.181565	 0.785077	 -0.527847	 0.268451	 1
1463624010.876	 18	 -0.012127	 -0.007996	 0.012795	 2.485641	 -1.184314	 0.004541	 -0.181579	 0.785100	 -0.527792	 0.268481	 1
1463624010.886	 18	 -0.011060	 -0.007998	 0.012783	 2.485742	 -1.184234	 0.004701	 -0.181604	 0.785121	 -0.527749	 0.268490	 1
1463624010.896	 18	 -0.008910	 -0.003757	 0.011734	 2.485935	 -1.184188	 0.004911	 -0.181630	 0.785140	 -0.527720	 0.268474	 1
1463624010.906	 18	 -0.007827	 0.000489	 0.010694	 2.486296	 -1.184142	 0.005237	 -0.181657	 0.785171	 -0.527691	 0.268423	 1
1463624010.916	 18	 -0.007842	 -0.001645	 0.009606	 2.486564	 -1.184101	 0.005484	 -0.181677	 0.785195	 -0.527666	 0.268386	 1
1463624010.926	 18	 -0.010021	 -0.010155	 0.008477	 2.486760	 -1.184050	 0.005731	 -0.181716	 0.785212	 -0.527631	 0.268378	 1
1463624010.936	 18	 -0.013271	 -0.018669	 0.006291	 2.486936	 -1.184011	 0.006065	 -0.181796	 0.785216	 -0.527586	 0.268401	 1
1463624010.946	 18	 -0.011180	 -0.026136	 0.004068	 2.487005	 -1.184021	 0.006371	 -0.181899	 0.785195	 -0.527555	 0.268454	 1
1463624010.956	 18	 -0.012250	 -0.026140	 0.003009	 2.487009	 -1.183994	 0.006633	 -0.181997	 0.785179	 -0.527510	 0.268524	 1
1463624010.966	 18	 -0.006888	 -0.020837	 0.003011	 2.486892	 -1.183985	 0.006739	 -0.182068	 0.785155	 -0.527482	 0.268599	 1
1463624010.976	 18	 -0.005800	 -0.016586	 0.003040	 2.486771	 -1.183967	 0.006789	 -0.182117	 0.785139	 -0.527457	 0.268661	 1
1463624010.986	 18	 -0.004703	 -0.012319	 0.005200	 2.486692	 -1.183994	 0.006833	 -0.182159	 0.785118	 -0.527454	 0.268701	 1
1463624010.996	 18	 -0.005775	 -0.013379	 0.005197	 2.486708	 -1.183971	 0.006959	 -0.182201	 0.785114	 -0.527430	 0.268730	 1
1463624011.006	 18	 -0.003633	 -0.014426	 0.008366	 2.486525	 -1.183900	 0.006908	 -0.182220	 0.785113	 -0.527392	 0.268795	 1
1463624011.016	 18	 -0.004708	 -0.014437	 0.006242	 2.486414	 -1.183866	 0.006932	 -0.182254	 0.785105	 -0.527365	 0.268848	 1
1463624011.026	 18	 -0.006843	 -0.013374	 0.005204	 2.486483	 -1.183776	 0.007112	 -0.182295	 0.785122	 -0.527312	 0.268876	 1
1463624011.036	 18	 -0.006846	 -0.012326	 0.003081	 2.486448	 -1.183720	 0.007198	 -0.182330	 0.785124	 -0.527275	 0.268917	 1
1463624011.046	 18	 -0.011121	 -0.014432	 0.004163	 2.486504	 -1.183632	 0.007388	 -0.182378	 0.785138	 -0.527220	 0.268953	 1
1463624011.056	 18	 -0.011120	 -0.014433	 0.004163	 2.486384	 -1.183581	 0.007422	 -0.182417	 0.785132	 -0.527184	 0.269014	 1
1463624011.066	 18	 -0.006851	 -0.015501	 0.005180	 2.486240	 -1.183559	 0.007434	 -0.182456	 0.785117	 -0.527161	 0.269075	 1
1463624011.076	 18	 -0.002562	 -0.013371	 0.007293	 2.486025	 -1.183591	 0.007350	 -0.182485	 0.785088	 -0.527165	 0.269135	 1
1463624011.086	 18	 -0.000421	 -0.012314	 0.007282	 2.485829	 -1.183640	 0.007268	 -0.182511	 0.785056	 -0.527178	 0.269186	 1
1463624011.096	 18	 0.000653	 -0.010198	 0.006226	 2.485593	 -1.183661	 0.007129	 -0.182521	 0.785031	 -0.527183	 0.269240	 1
1463624011.106	 18	 0.000667	 -0.009119	 0.008367	 2.485317	 -1.183649	 0.006931	 -0.182514	 0.785015	 -0.527180	 0.269297	 1
1463624011.116	 18	 -0.002527	 -0.009093	 0.010525	 2.485214	 -1.183575	 0.006898	 -0.182519	 0.785024	 -0.527146	 0.269335	 1
1463624011.126	 18	 -0.002527	 -0.009093	 0.010524	 2.485091	 -1.183519	 0.006845	 -0.182523	 0.785027	 -0.527120	 0.269375	 1
1463624011.136	 18	 -0.002542	 -0.010170	 0.008379	 2.485260	 -1.183469	 0.007080	 -0.182564	 0.785042	 -0.527084	 0.269375	 1
1463624011.146	 18	 -0.001473	 -0.010164	 0.009433	 2.485375	 -1.183405	 0.007268	 -0.182599	 0.785057	 -0.527044	 0.269385	 1
1463624011.156	 18	 -0.001470	 -0.009099	 0.009440	 2.485521	 -1.183337	 0.007468	 -0.182630	 0.785076	 -0.527004	 0.269386	 1
1463624011.166	 18	 -0.002532	 -0.008032	 0.009457	 2.485491	 -1.183320	 0.007494	 -0.182646	 0.785074	 -0.526991	 0.269407	 1
1463624011.176	 18	 -0.001466	 -0.006978	 0.008390	 2.485594	 -1.183217	 0.007633	 -0.182660	 0.785102	 -0.526941	 0.269412	 1
1463624011.186	 18	 -0.000391	 -0.006965	 0.010510	 2.485554	 -1.183180	 0.007634	 -0.182666	 0.785107	 -0.526923	 0.269431	 1
1463624011.196	 18	 0.000696	 -0.002713	 0.010539	 2.485421	 -1.183154	 0.007506	 -0.182647	 0.785108	 -0.526917	 0.269452	 1
1463624011.206	 18	 0.004989	 0.001537	 0.011606	 2.485199	 -1.183127	 0.007259	 -0.182605	 0.785107	 -0.526920	 0.269476	 1
1463624011.216	 18	 0.007143	 0.004729	 0.012682	 2.484949	 -1.183125	 0.006937	 -0.182544	 0.785104	 -0.526940	 0.269489	 1
1463624011.226	 18	 0.009291	 0.005802	 0.014804	 2.484719	 -1.183141	 0.006609	 -0.182478	 0.785098	 -0.526969	 0.269492	 1
1463624011.236	 18	 0.009286	 0.006851	 0.012680	 2.484627	 -1.183155	 0.006401	 -0.182423	 0.785101	 -0.526994	 0.269472	 1
1463624011.246	 18	 0.005013	 0.005801	 0.012705	 2.484504	 -1.183183	 0.006175	 -0.182370	 0.785098	 -0.527025	 0.269458	 1
1463624011.256	 18	 0.002864	 0.002617	 0.012693	 2.484385	 -1.183190	 0.005986	 -0.182328	 0.785097	 -0.527042	 0.269454	 1
1463624011.266	 18	 0.001792	 0.001557	 0.012688	 2.484442	 -1.183234	 0.005977	 -0.182315	 0.785094	 -0.527066	 0.269426	 1
1463624011.276	 18	 -0.001433	 -0.002694	 0.011606	 2.484576	 -1.183289	 0.006082	 -0.182329	 0.785088	 -0.527085	 0.269396	 1
1463624011.286	 18	 -0.004570	 -0.006889	 0.009422	 2.484873	 -1.183312	 0.006396	 -0.182376	 0.785093	 -0.527079	 0.269360	 1
1463624011.296	 18	 -0.003531	 -0.010105	 0.006182	 2.485170	 -1.183343	 0.006745	 -0.182439	 0.785093	 -0.527071	 0.269333	 1
1463624011.306	 18	 -0.006732	 -0.009038	 0.005150	 2.485521	 -1.183388	 0.007161	 -0.182516	 0.785091	 -0.527065	 0.269301	 1
1463624011.316	 18	 -0.006731	 -0.007981	 0.004091	 2.485871	 -1.183394	 0.007561	 -0.182582	 0.785100	 -0.527046	 0.269268	 1
1463624011.326	 18	 -0.007792	 -0.006914	 0.004108	 2.485985	 -1.183427	 0.007735	 -0.182624	 0.785090	 -0.527046	 0.269266	 1
1463624011.336	 18	 -0.005663	 -0.006927	 0.003022	 2.486169	 -1.183403	 0.007975	 -0.182667	 0.785100	 -0.527021	 0.269259	 1
1463624011.346	 18	 -0.002458	 -0.007984	 0.005113	 2.486372	 -1.183401	 0.008232	 -0.182714	 0.785104	 -0.527004	 0.269248	 1
1463624011.356	 18	 0.000740	 -0.011161	 0.008251	 2.486415	 -1.183393	 0.008347	 -0.182747	 0.785101	 -0.526989	 0.269262	 1
1463624011.366	 18	 0.001787	 -0.014362	 0.007143	 2.486459	 -1.183426	 0.008497	 -0.182798	 0.785085	 -0.526986	 0.269281	 1
1463624011.376	 18	 0.003946	 -0.014349	 0.009264	 2.486484	 -1.183436	 0.008617	 -0.182840	 0.785075	 -0.526976	 0.269302	 1
1463624011.386	 18	 0.003946	 -0.013292	 0.008205	 2.486511	 -1.183510	 0.008736	 -0.182890	 0.785048	 -0.526992	 0.269316	 1
1463624011.396	 18	 0.002887	 -0.009056	 0.005054	 2.486541	 -1.183603	 0.008834	 -0.182933	 0.785018	 -0.527018	 0.269322	 1
1463624011.406	 18	 -0.000310	 -0.007983	 0.005090	 2.486574	 -1.183597	 0.008924	 -0.182959	 0.785016	 -0.527006	 0.269334	 1
1463624011.416	 18	 -0.006713	 -0.006907	 0.004089	 2.486705	 -1.183526	 0.009116	 -0.182990	 0.785035	 -0.526964	 0.269339	 1
1463624011.426	 18	 -0.010987	 -0.007958	 0.004116	 2.486872	 -1.183401	 0.009352	 -0.183022	 0.785069	 -0.526899	 0.269347	 1
1463624011.436	 18	 -0.014185	 -0.007940	 0.005209	 2.486904	 -1.183267	 0.009471	 -0.183043	 0.785098	 -0.526833	 0.269377	 1
1463624011.446	 18	 -0.014186	 -0.008996	 0.006265	 2.486938	 -1.183111	 0.009600	 -0.183063	 0.785132	 -0.526757	 0.269411	 1
1463624011.456	 18	 -0.014192	 -0.011116	 0.007311	 2.487009	 -1.182979	 0.009774	 -0.183096	 0.785160	 -0.526688	 0.269441	 1
1463624011.466	 18	 -0.013114	 -0.008991	 0.007319	 2.487175	 -1.182900	 0.010024	 -0.183140	 0.785181	 -0.526639	 0.269449	 1
1463624011.476	 18	 -0.013109	 -0.007927	 0.007327	 2.487353	 -1.182840	 0.010274	 -0.183183	 0.785198	 -0.526598	 0.269450	 1
1463624011.486	 18	 -0.007756	 -0.002639	 0.005195	 2.487632	 -1.182837	 0.010570	 -0.183226	 0.785209	 -0.526582	 0.269419	 1
1463624011.496	 18	 -0.005612	 -0.001574	 0.006250	 2.487766	 -1.182845	 0.010706	 -0.183245	 0.785213	 -0.526579	 0.269401	 1
1463624011.506	 18	 -0.002428	 -0.004782	 0.005125	 2.487729	 -1.182941	 0.010693	 -0.183262	 0.785183	 -0.526616	 0.269404	 1
1463624011.516	 18	 -0.001389	 -0.010111	 0.003998	 2.487680	 -1.183031	 0.010716	 -0.183296	 0.785151	 -0.526643	 0.269421	 1
1463624011.526	 18	 -0.002520	 -0.014499	 0.004173	 2.487500	 -1.183087	 0.010672	 -0.183333	 0.785116	 -0.526655	 0.269475	 1
1463624011.536	 18	 -0.004653	 -0.015549	 0.005248	 2.487090	 -1.183110	 0.010435	 -0.183351	 0.785076	 -0.526658	 0.269572	 1
1463624011.546	 18	 -0.003556	 -0.010226	 0.006354	 2.486759	 -1.183064	 0.010227	 -0.183351	 0.785063	 -0.526638	 0.269651	 1
1463624011.556	 18	 -0.002468	 -0.005975	 0.006385	 2.486504	 -1.183007	 0.010048	 -0.183340	 0.785060	 -0.526616	 0.269709	 1
1463624011.566	 18	 -0.002434	 -0.000641	 0.008565	 2.486346	 -1.182962	 0.009894	 -0.183315	 0.785065	 -0.526605	 0.269735	 1
1463624011.576	 18	 -0.002408	 0.005733	 0.007558	 2.486308	 -1.182943	 0.009804	 -0.183287	 0.785073	 -0.526606	 0.269727	 1
1463624011.586	 18	 -0.003483	 0.006777	 0.004379	 2.486482	 -1.182909	 0.009893	 -0.183272	 0.785097	 -0.526596	 0.269685	 1
1463624011.596	 18	 -0.004555	 0.006773	 0.003321	 2.486739	 -1.182873	 0.010064	 -0.183267	 0.785125	 -0.526583	 0.269633	 1
1463624011.606	 18	 -0.004543	 0.011012	 0.001228	 2.487074	 -1.182847	 0.010280	 -0.183260	 0.785158	 -0.526574	 0.269560	 1
1463624011.616	 18	 -0.008795	 0.015272	 0.000237	 2.487402	 -1.182845	 0.010473	 -0.183249	 0.785185	 -0.526577	 0.269482	 1
1463624011.626	 18	 -0.005588	 0.017383	 -0.000838	 2.487744	 -1.182867	 0.010655	 -0.183233	 0.785208	 -0.526593	 0.269394	 1
1463624011.636	 18	 -0.006655	 0.016330	 0.000226	 2.488063	 -1.182899	 0.010822	 -0.183219	 0.785227	 -0.526612	 0.269310	 1
1463624011.646	 18	 -0.004516	 0.016331	 0.001273	 2.488248	 -1.182864	 0.010851	 -0.183177	 0.785259	 -0.526612	 0.269248	 1
1463624011.656	 18	 -0.007733	 0.013150	 0.001270	 2.488657	 -1.182885	 0.011105	 -0.183172	 0.785285	 -0.526623	 0.269153	 1
1463624011.666	 18	 -0.010964	 0.006778	 0.001238	 2.489005	 -1.182847	 0.011356	 -0.183174	 0.785319	 -0.526606	 0.269085	 1
1463624011.676	 18	 -0.013131	 0.003563	 -0.003039	 2.489644	 -1.182859	 0.011943	 -0.183238	 0.785348	 -0.526590	 0.268988	 1
1463624011.686	 18	 -0.016344	 0.004607	 -0.007268	 2.490419	 -1.182891	 0.012673	 -0.183324	 0.785377	 -0.526576	 0.268873	 1
1463624011.696	 18	 -0.019538	 0.012008	 -0.014634	 2.491311	 -1.183001	 0.013486	 -0.183423	 0.785393	 -0.526592	 0.268727	 1
1463624011.706	 18	 -0.027089	 0.018150	 -0.021651	 2.492850	 -1.183154	 0.014866	 -0.183580	 0.785433	 -0.526608	 0.268473	 1
1463624011.716	 18	 -0.027178	 -0.006267	 -0.015488	 2.494276	 -1.183336	 0.016270	 -0.183780	 0.785447	 -0.526622	 0.268268	 1
1463624011.726	 18	 -0.028442	 -0.034042	 -0.032793	 2.495376	 -1.183637	 0.017693	 -0.184088	 0.785384	 -0.526651	 0.268184	 1
1463624011.736	 18	 -0.030699	 -0.044803	 -0.050994	 2.496665	 -1.183862	 0.019486	 -0.184482	 0.785331	 -0.526618	 0.268131	 1
1463624011.746	 18	 -0.026521	 -0.058689	 -0.057556	 2.497744	 -1.184033	 0.021241	 -0.184909	 0.785268	 -0.526550	 0.268155	 1
1463624011.756	 18	 -0.033051	 -0.074718	 -0.070439	 2.498995	 -1.184292	 0.023292	 -0.185418	 0.785177	 -0.526493	 0.268183	 1
1463624011.766	 18	 -0.039603	 -0.089736	 -0.090774	 2.500587	 -1.184747	 0.025924	 -0.186090	 0.785025	 -0.526468	 0.268213	 1
1463624011.776	 18	 -0.064115	 -0.053752	 -0.125400	 2.503617	 -1.185169	 0.029860	 -0.186891	 0.784952	 -0.526389	 0.268024	 1
1463624011.786	 18	 -0.104499	 0.053202	 -0.207189	 2.511476	 -1.185176	 0.037350	 -0.187764	 0.785299	 -0.526126	 0.266910	 1
1463624011.796	 18	 -0.109014	 0.008457	 -0.219303	 2.517992	 -1.186803	 0.044639	 -0.189110	 0.785044	 -0.526413	 0.266142	 1
1463624011.806	 18	 -0.117676	 0.173640	 -0.178257	 2.524890	 -1.186983	 0.050252	 -0.189520	 0.785380	 -0.526392	 0.264898	 1
1463624011.816	 18	 -0.154662	 -0.186938	 -0.195145	 2.529969	 -1.186797	 0.056719	 -0.190701	 0.785488	 -0.525945	 0.264618	 1
1463624011.826	 18	 -0.082735	 -0.265289	 -0.263643	 2.533723	 -1.187356	 0.063705	 -0.192523	 0.785165	 -0.525602	 0.264941	 1
1463624011.836	 18	 -0.000959	 -0.115632	 -0.273624	 2.538361	 -1.189101	 0.070329	 -0.194103	 0.784665	 -0.525868	 0.264739	 1
1463624011.846	 18	 0.057429	 0.009974	 -0.214229	 2.542284	 -1.190771	 0.074762	 -0.194998	 0.784299	 -0.526329	 0.264252	 1
1463624011.856	 18	 0.095225	 0.065504	 -0.168214	 2.545315	 -1.192489	 0.077395	 -0.195424	 0.783974	 -0.526961	 0.263641	 1
1463624011.866	 18	 0.114511	 0.056098	 -0.137562	 2.547359	 -1.194211	 0.078962	 -0.195690	 0.783619	 -0.527641	 0.263138	 1
1463624011.876	 18	 0.112418	 0.042468	 -0.111020	 2.547582	 -1.195624	 0.078859	 -0.195747	 0.783272	 -0.528239	 0.262929	 1
1463624011.886	 18	 0.092070	 0.002325	 -0.081375	 2.548222	 -1.196939	 0.079397	 -0.195933	 0.782944	 -0.528754	 0.262733	 1
1463624011.896	 18	 0.077239	 0.005731	 -0.057768	 2.548418	 -1.197962	 0.079592	 -0.196070	 0.782670	 -0.529155	 0.262640	 1
1463624011.906	 18	 0.061522	 0.046376	 -0.032740	 2.548683	 -1.198718	 0.079494	 -0.196044	 0.782507	 -0.529495	 0.262460	 1
1463624011.916	 18	 0.051116	 0.083807	 -0.008853	 2.549355	 -1.198838	 0.079343	 -0.195820	 0.782577	 -0.529628	 0.262149	 1
1463624011.926	 18	 0.039470	 0.093500	 0.003062	 2.549633	 -1.199184	 0.078656	 -0.195516	 0.782586	 -0.529883	 0.261835	 1
1463624011.936	 18	 0.030850	 0.084939	 -0.007600	 2.550107	 -1.199473	 0.078212	 -0.195248	 0.782612	 -0.530102	 0.261513	 1
1463624011.946	 18	 0.029603	 0.066689	 -0.031206	 2.550943	 -1.199863	 0.078348	 -0.195123	 0.782601	 -0.530321	 0.261196	 1
1463624011.956	 18	 0.042375	 0.065535	 -0.038794	 2.552617	 -1.200713	 0.079343	 -0.195161	 0.782488	 -0.530693	 0.260748	 1
1463624011.966	 18	 0.054240	 0.085763	 -0.031249	 2.553379	 -1.201327	 0.079321	 -0.195016	 0.782421	 -0.531014	 0.260403	 1
1463624011.976	 18	 0.052354	 0.122073	 -0.011711	 2.554074	 -1.201860	 0.078872	 -0.194714	 0.782409	 -0.531352	 0.259977	 1
1463624011.986	 18	 0.042930	 0.155123	 -0.004928	 2.555618	 -1.202191	 0.078852	 -0.194332	 0.782520	 -0.531637	 0.259346	 1
1463624011.996	 18	 0.032266	 0.159386	 -0.007993	 2.556873	 -1.202523	 0.078489	 -0.193892	 0.782626	 -0.531938	 0.258736	 1
1463624012.006	 18	 0.023660	 0.152960	 -0.017570	 2.558363	 -1.202814	 0.078435	 -0.193506	 0.782744	 -0.532204	 0.258120	 1
1463624012.016	 18	 0.025839	 0.165687	 -0.021734	 2.560099	 -1.203224	 0.078577	 -0.193144	 0.782841	 -0.532517	 0.257451	 1
1463624012.026	 18	 0.028045	 0.177449	 0.004139	 2.561149	 -1.203309	 0.077868	 -0.192596	 0.783021	 -0.532743	 0.256846	 1
1463624012.036	 18	 0.029222	 0.177645	 0.031844	 2.561343	 -1.203255	 0.076275	 -0.191914	 0.783214	 -0.532945	 0.256349	 1
1463624012.046	 18	 0.031399	 0.182988	 0.036139	 2.561787	 -1.203276	 0.074820	 -0.191229	 0.783404	 -0.533182	 0.255786	 1
1463624012.056	 18	 0.032468	 0.178769	 0.041417	 2.562521	 -1.203452	 0.073632	 -0.190586	 0.783563	 -0.533474	 0.255170	 1
1463624012.066	 18	 0.033428	 0.160646	 0.035908	 2.563482	 -1.203663	 0.072809	 -0.190030	 0.783706	 -0.533754	 0.254560	 1
1463624012.076	 18	 0.032205	 0.140332	 0.020804	 2.564645	 -1.204029	 0.072398	 -0.189598	 0.783792	 -0.534062	 0.253970	 1
1463624012.086	 18	 0.028817	 0.116803	 0.001426	 2.566119	 -1.204522	 0.072553	 -0.189318	 0.783828	 -0.534378	 0.253401	 1
1463624012.096	 18	 0.024404	 0.098627	 -0.013629	 2.567471	 -1.205029	 0.072829	 -0.189119	 0.783833	 -0.534673	 0.252912	 1
1463624012.106	 18	 0.018931	 0.078356	 -0.024429	 2.568616	 -1.205438	 0.073148	 -0.188981	 0.783835	 -0.534904	 0.252521	 1
1463624012.116	 18	 0.011434	 0.065675	 -0.015954	 2.569247	 -1.205603	 0.073124	 -0.188821	 0.783871	 -0.535032	 0.252257	 1
1463624012.126	 18	 0.009312	 0.050936	 0.004180	 2.568813	 -1.205743	 0.072191	 -0.188586	 0.783866	 -0.535164	 0.252168	 1
1463624012.136	 18	 0.012527	 0.036180	 0.024266	 2.567761	 -1.205817	 0.070764	 -0.188316	 0.783848	 -0.535274	 0.252194	 1
1463624012.146	 18	 0.025322	 0.026630	 0.032592	 2.566837	 -1.205919	 0.069505	 -0.188081	 0.783821	 -0.535387	 0.252212	 1
1463624012.156	 18	 0.037041	 0.022340	 0.032450	 2.565950	 -1.206064	 0.068290	 -0.187858	 0.783784	 -0.535514	 0.252225	 1
1463624012.166	 18	 0.042329	 0.005367	 0.040772	 2.564588	 -1.206205	 0.066717	 -0.187621	 0.783721	 -0.535641	 0.252327	 1
1463624012.176	 18	 0.036881	 -0.018053	 0.055771	 2.562887	 -1.206155	 0.065014	 -0.187404	 0.783679	 -0.535676	 0.252541	 1
1463624012.186	 18	 0.026189	 -0.032819	 0.068516	 2.560766	 -1.205961	 0.063059	 -0.187185	 0.783648	 -0.535648	 0.252862	 1
1463624012.196	 18	 0.018707	 -0.041252	 0.075963	 2.558567	 -1.205686	 0.061114	 -0.186982	 0.783627	 -0.535579	 0.253222	 1
1463624012.206	 18	 0.012376	 -0.035830	 0.087792	 2.556209	 -1.205239	 0.058989	 -0.186731	 0.783650	 -0.535451	 0.253608	 1
1463624012.216	 18	 0.007138	 -0.022980	 0.097551	 2.553632	 -1.204641	 0.056522	 -0.186388	 0.783717	 -0.535286	 0.254000	 1
1463624012.226	 18	 0.001841	 -0.021839	 0.106134	 2.551063	 -1.204017	 0.054006	 -0.186019	 0.783796	 -0.535119	 0.254377	 1
1463624012.236	 18	 -0.002422	 -0.024979	 0.111471	 2.548470	 -1.203358	 0.051482	 -0.185649	 0.783881	 -0.534939	 0.254766	 1
1463624012.246	 18	 -0.008853	 -0.034502	 0.115701	 2.545856	 -1.202655	 0.049009	 -0.185299	 0.783969	 -0.534733	 0.255180	 1
1463624012.256	 18	 -0.015321	 -0.047254	 0.114572	 2.543400	 -1.201945	 0.046815	 -0.185014	 0.784053	 -0.534505	 0.255609	 1
1463624012.266	 18	 -0.020710	 -0.055770	 0.111340	 2.541162	 -1.201273	 0.044936	 -0.184798	 0.784123	 -0.534272	 0.256035	 1
1463624012.276	 18	 -0.019697	 -0.061144	 0.103817	 2.539186	 -1.200725	 0.043374	 -0.184649	 0.784164	 -0.534073	 0.256433	 1
1463624012.286	 18	 -0.019733	 -0.058045	 0.091052	 2.537761	 -1.200284	 0.042371	 -0.184585	 0.784194	 -0.533895	 0.256757	 1
1463624012.296	 18	 -0.013328	 -0.044350	 0.075131	 2.537001	 -1.199965	 0.041906	 -0.184568	 0.784226	 -0.533759	 0.256956	 1
1463624012.306	 18	 -0.011172	 -0.026388	 0.059288	 2.536542	 -1.199735	 0.041611	 -0.184548	 0.784256	 -0.533663	 0.257074	 1
1463624012.316	 18	 -0.012237	 -0.017944	 0.049779	 2.536342	 -1.199575	 0.041477	 -0.184530	 0.784287	 -0.533599	 0.257129	 1
1463624012.326	 18	 -0.013360	 -0.012813	 0.040465	 2.536093	 -1.199442	 0.041267	 -0.184499	 0.784310	 -0.533550	 0.257180	 1
1463624012.336	 18	 -0.010193	 -0.014996	 0.034020	 2.535698	 -1.199426	 0.040948	 -0.184477	 0.784293	 -0.533549	 0.257252	 1
1463624012.346	 18	 -0.007002	 -0.013973	 0.029737	 2.535099	 -1.199337	 0.040457	 -0.184434	 0.784286	 -0.533521	 0.257362	 1
1463624012.356	 18	 -0.005918	 -0.015001	 0.035046	 2.534342	 -1.199208	 0.039801	 -0.184363	 0.784284	 -0.533485	 0.257494	 1
1463624012.366	 18	 -0.003779	 -0.016056	 0.037148	 2.533475	 -1.199125	 0.039041	 -0.184286	 0.784265	 -0.533470	 0.257638	 1
1463624012.376	 18	 -0.001626	 -0.013919	 0.039279	 2.532721	 -1.198985	 0.038366	 -0.184206	 0.784268	 -0.533432	 0.257764	 1
1463624012.386	 18	 -0.001619	 -0.010743	 0.037176	 2.532014	 -1.198865	 0.037702	 -0.184120	 0.784270	 -0.533405	 0.257873	 1
1463624012.396	 18	 -0.001610	 -0.005455	 0.032960	 2.531581	 -1.198747	 0.037265	 -0.184050	 0.784287	 -0.533375	 0.257936	 1
1463624012.406	 18	 0.000503	 -0.004444	 0.026555	 2.531394	 -1.198683	 0.037049	 -0.184008	 0.784300	 -0.533360	 0.257956	 1
1463624012.416	 18	 -0.000590	 -0.005543	 0.021224	 2.531157	 -1.198588	 0.036818	 -0.183969	 0.784316	 -0.533331	 0.257995	 1
1463624012.426	 18	 -0.001691	 -0.009817	 0.017996	 2.530920	 -1.198478	 0.036623	 -0.183943	 0.784333	 -0.533291	 0.258045	 1
1463624012.436	 18	 -0.003843	 -0.010897	 0.014806	 2.530597	 -1.198387	 0.036377	 -0.183922	 0.784339	 -0.533257	 0.258113	 1
1463624012.446	 18	 -0.006017	 -0.019401	 0.014746	 2.530008	 -1.198317	 0.035957	 -0.183906	 0.784321	 -0.533229	 0.258237	 1
1463624012.456	 18	 -0.007110	 -0.025772	 0.015763	 2.529375	 -1.198186	 0.035574	 -0.183908	 0.784310	 -0.533169	 0.258393	 1
1463624012.466	 18	 -0.006004	 -0.019378	 0.017944	 2.528891	 -1.198042	 0.035277	 -0.183904	 0.784313	 -0.533106	 0.258515	 1
1463624012.476	 18	 -0.007045	 -0.014056	 0.018002	 2.528485	 -1.197944	 0.035002	 -0.183892	 0.784313	 -0.533065	 0.258609	 1
1463624012.486	 18	 -0.003837	 -0.011946	 0.016928	 2.528136	 -1.197885	 0.034755	 -0.183881	 0.784306	 -0.533042	 0.258684	 1
1463624012.496	 18	 -0.003811	 -0.005572	 0.015920	 2.527969	 -1.197851	 0.034619	 -0.183869	 0.784306	 -0.533030	 0.258717	 1
1463624012.506	 18	 -0.002753	 -0.003554	 0.014139	 2.527957	 -1.197823	 0.034602	 -0.183862	 0.784314	 -0.533020	 0.258719	 1
1463624012.516	 18	 -0.001688	 -0.001453	 0.010950	 2.528213	 -1.197830	 0.034823	 -0.183881	 0.784325	 -0.533018	 0.258677	 1
1463624012.526	 18	 -0.001706	 -0.001483	 0.006685	 2.528514	 -1.197855	 0.035087	 -0.183907	 0.784333	 -0.533022	 0.258627	 1
1463624012.536	 18	 -0.001716	 -0.003610	 0.006663	 2.528710	 -1.197862	 0.035288	 -0.183935	 0.784338	 -0.533016	 0.258603	 1
1463624012.546	 18	 0.000412	 -0.005736	 0.007690	 2.528748	 -1.197850	 0.035356	 -0.183950	 0.784340	 -0.533006	 0.258608	 1
1463624012.556	 18	 -0.000655	 -0.005732	 0.007699	 2.528678	 -1.197845	 0.035323	 -0.183955	 0.784335	 -0.533002	 0.258626	 1
1463624012.566	 18	 0.001477	 -0.007850	 0.009791	 2.528563	 -1.197823	 0.035249	 -0.183954	 0.784333	 -0.532993	 0.258654	 1
1463624012.576	 18	 0.004677	 -0.009972	 0.011875	 2.528149	 -1.197840	 0.034903	 -0.183930	 0.784307	 -0.533006	 0.258722	 1
1463624012.586	 18	 0.006837	 -0.009932	 0.018251	 2.527639	 -1.197845	 0.034461	 -0.183894	 0.784280	 -0.533018	 0.258804	 1
1463624012.596	 18	 0.010057	 -0.007799	 0.020373	 2.527188	 -1.197817	 0.034044	 -0.183847	 0.784268	 -0.533020	 0.258872	 1
1463624012.606	 18	 0.006875	 -0.003534	 0.020440	 2.526906	 -1.197756	 0.033740	 -0.183796	 0.784275	 -0.533009	 0.258907	 1
1463624012.616	 18	 0.004748	 0.001760	 0.016243	 2.526891	 -1.197705	 0.033661	 -0.183763	 0.784294	 -0.532998	 0.258895	 1
1463624012.626	 18	 0.000486	 0.006005	 0.013122	 2.526911	 -1.197576	 0.033584	 -0.183711	 0.784339	 -0.532959	 0.258877	 1
1463624012.636	 18	 -0.000566	 0.010256	 0.012104	 2.527031	 -1.197462	 0.033579	 -0.183664	 0.784386	 -0.532925	 0.258838	 1
1463624012.646	 18	 -0.001649	 0.007068	 0.012083	 2.527214	 -1.197361	 0.033646	 -0.183629	 0.784431	 -0.532893	 0.258792	 1
1463624012.656	 18	 -0.002715	 0.004968	 0.015269	 2.527333	 -1.197242	 0.033667	 -0.183591	 0.784477	 -0.532854	 0.258760	 1
1463624012.666	 18	 -0.004844	 0.006038	 0.015298	 2.527098	 -1.197116	 0.033361	 -0.183519	 0.784508	 -0.532823	 0.258780	 1
1463624012.676	 18	 -0.003782	 0.004971	 0.015276	 2.527351	 -1.197118	 0.033509	 -0.183510	 0.784527	 -0.532828	 0.258721	 1
1463624012.686	 18	 -0.004881	 0.004831	 0.012493	 2.527643	 -1.197184	 0.033700	 -0.183515	 0.784529	 -0.532856	 0.258652	 1
1463624012.696	 18	 0.000446	 0.003744	 0.011368	 2.527890	 -1.197318	 0.033857	 -0.183527	 0.784511	 -0.532911	 0.258586	 1
1463624012.706	 18	 0.002562	 0.000539	 0.010252	 2.528028	 -1.197506	 0.033941	 -0.183545	 0.784470	 -0.532987	 0.258540	 1
1463624012.716	 18	 0.004668	 -0.003737	 0.008060	 2.528176	 -1.197681	 0.034062	 -0.183575	 0.784430	 -0.533054	 0.258500	 1
1463624012.726	 18	 0.005706	 -0.009066	 0.006934	 2.528284	 -1.197819	 0.034207	 -0.183619	 0.784394	 -0.533100	 0.258486	 1
1463624012.746	 19	 -0.000732	 -0.016492	 0.006919	 2.528102	 -1.197965	 0.034246	 -0.183701	 0.784327	 -0.533136	 0.258556	 1
1463624012.756	 19	 -0.006080	 -0.016499	 0.003767	 2.528133	 -1.197930	 0.034427	 -0.183759	 0.784324	 -0.533102	 0.258595	 1
1463624012.766	 19	 -0.007139	 -0.016480	 0.005907	 2.528162	 -1.197870	 0.034606	 -0.183814	 0.784328	 -0.533057	 0.258636	 1
1463624012.776	 19	 -0.007123	 -0.012233	 0.004880	 2.528263	 -1.197834	 0.034831	 -0.183871	 0.784330	 -0.533024	 0.258659	 1
1463624012.786	 19	 -0.010314	 -0.010096	 0.004926	 2.528390	 -1.197818	 0.035057	 -0.183924	 0.784329	 -0.533000	 0.258671	 1
1463624012.796	 19	 -0.010294	 -0.005841	 0.004965	 2.528569	 -1.197813	 0.035290	 -0.183968	 0.784333	 -0.532984	 0.258663	 1
1463624012.806	 19	 -0.007116	 -0.002814	 0.003110	 2.528754	 -1.197838	 0.035498	 -0.184003	 0.784330	 -0.532984	 0.258644	 1
1463624012.816	 19	 -0.003905	 -0.001752	 0.004157	 2.528860	 -1.197889	 0.035626	 -0.184031	 0.784319	 -0.532997	 0.258632	 1
1463624012.826	 19	 0.001436	 -0.001760	 0.005175	 2.528868	 -1.197964	 0.035635	 -0.184041	 0.784298	 -0.533026	 0.258626	 1
1463624012.836	 19	 0.003585	 0.000369	 0.006242	 2.528642	 -1.198060	 0.035405	 -0.184023	 0.784265	 -0.533073	 0.258646	 1
1463624012.846	 19	 0.003598	 -0.000664	 0.010495	 2.528292	 -1.198092	 0.035049	 -0.183980	 0.784243	 -0.533100	 0.258686	 1
1463624012.856	 19	 0.003607	 0.001463	 0.010515	 2.528039	 -1.198040	 0.034770	 -0.183932	 0.784250	 -0.533092	 0.258714	 1
1463624012.866	 19	 0.000416	 0.003600	 0.010562	 2.527830	 -1.197982	 0.034506	 -0.183877	 0.784263	 -0.533084	 0.258731	 1
1463624012.876	 19	 -0.001695	 0.005757	 0.013798	 2.527651	 -1.197910	 0.034250	 -0.183816	 0.784283	 -0.533072	 0.258738	 1
1463624012.886	 19	 -0.004877	 0.010021	 0.013864	 2.527851	 -1.197831	 0.034317	 -0.183779	 0.784324	 -0.533051	 0.258684	 1
1463624012.896	 19	 -0.008072	 0.013207	 0.011788	 2.528241	 -1.197816	 0.034548	 -0.183764	 0.784358	 -0.533051	 0.258593	 1
1463624012.906	 19	 -0.007002	 0.016372	 0.008609	 2.528772	 -1.197855	 0.034881	 -0.183758	 0.784385	 -0.533072	 0.258471	 1
1463624012.916	 19	 -0.004855	 0.021662	 0.005440	 2.529440	 -1.197919	 0.035305	 -0.183754	 0.784415	 -0.533104	 0.258317	 1
1463624012.926	 19	 -0.000577	 0.022721	 0.006476	 2.530005	 -1.198026	 0.035605	 -0.183734	 0.784432	 -0.533159	 0.258167	 1
1463624012.936	 19	 -0.000561	 0.025912	 0.006504	 2.530496	 -1.198149	 0.035807	 -0.183697	 0.784443	 -0.533227	 0.258019	 1
1463624012.946	 19	 -0.001608	 0.029114	 0.007607	 2.530844	 -1.198223	 0.035851	 -0.183630	 0.784464	 -0.533283	 0.257888	 1
1463624012.956	 19	 -0.001598	 0.030186	 0.008682	 2.531135	 -1.198269	 0.035820	 -0.183546	 0.784492	 -0.533331	 0.257762	 1
1463624012.966	 19	 0.001542	 0.026853	 0.011005	 2.531341	 -1.198347	 0.035724	 -0.183463	 0.784506	 -0.533393	 0.257650	 1
1463624012.976	 19	 0.006898	 0.030035	 0.012053	 2.531476	 -1.198434	 0.035538	 -0.183364	 0.784517	 -0.533464	 0.257541	 1
1463624012.986	 19	 0.006929	 0.037473	 0.011056	 2.531559	 -1.198477	 0.035231	 -0.183227	 0.784544	 -0.533528	 0.257423	 1
1463624012.996	 19	 0.009091	 0.040681	 0.014263	 2.531706	 -1.198475	 0.034939	 -0.183072	 0.784590	 -0.533578	 0.257288	 1
1463624013.006	 19	 0.010149	 0.039607	 0.013178	 2.531625	 -1.198498	 0.034436	 -0.182899	 0.784619	 -0.533645	 0.257183	 1
1463624013.016	 19	 0.012316	 0.044934	 0.015340	 2.531734	 -1.198481	 0.034074	 -0.182726	 0.784671	 -0.533695	 0.257045	 1
1463624013.026	 19	 0.009130	 0.049191	 0.014342	 2.531920	 -1.198425	 0.033735	 -0.182537	 0.784741	 -0.533733	 0.256886	 1
1463624013.036	 19	 0.011285	 0.054495	 0.013306	 2.532381	 -1.198432	 0.033623	 -0.182371	 0.784809	 -0.533792	 0.256675	 1
1463624013.046	 19	 0.010305	 0.074693	 0.011370	 2.532899	 -1.198510	 0.033418	 -0.182162	 0.784873	 -0.533897	 0.256411	 1
1463624013.056	 19	 0.012501	 0.089563	 0.009356	 2.533852	 -1.198561	 0.033428	 -0.181917	 0.784980	 -0.534002	 0.256035	 1
1463624013.066	 19	 0.014551	 0.072530	 0.008113	 2.534500	 -1.198792	 0.033246	 -0.181700	 0.785017	 -0.534176	 0.255714	 1
1463624013.076	 19	 0.011312	 0.060871	 0.012294	 2.534880	 -1.199009	 0.032955	 -0.181510	 0.785033	 -0.534333	 0.255471	 1
1463624013.086	 19	 0.005031	 0.081146	 0.018930	 2.535539	 -1.199153	 0.032821	 -0.181298	 0.785090	 -0.534467	 0.255165	 1
1463624013.096	 19	 0.011574	 0.109855	 0.020203	 2.536736	 -1.199207	 0.032878	 -0.181007	 0.785223	 -0.534590	 0.254706	 1
1463624013.106	 19	 0.021171	 0.105595	 0.023275	 2.537829	 -1.199410	 0.032784	 -0.180702	 0.785316	 -0.534781	 0.254236	 1
1463624013.116	 19	 0.031645	 0.068297	 0.017504	 2.538545	 -1.199904	 0.032603	 -0.180498	 0.785289	 -0.535064	 0.253868	 1
1463624013.126	 19	 0.037847	 0.031004	 0.010705	 2.538675	 -1.200484	 0.032240	 -0.180390	 0.785180	 -0.535351	 0.253675	 1
1463624013.136	 19	 0.037671	 -0.000008	 0.017058	 2.538582	 -1.201002	 0.031960	 -0.180365	 0.785053	 -0.535583	 0.253596	 1
1463624013.146	 19	 0.040869	 -0.022169	 0.042400	 2.537476	 -1.201339	 0.030924	 -0.180295	 0.784915	 -0.535747	 0.253727	 1
1463624013.156	 19	 0.052715	 -0.037827	 0.087979	 2.534843	 -1.201419	 0.028450	 -0.180039	 0.784781	 -0.535856	 0.254091	 1
1463624013.166	 19	 0.077422	 -0.050264	 0.143070	 2.529528	 -1.201344	 0.023426	 -0.179483	 0.784577	 -0.535988	 0.254836	 1
1463624013.176	 19	 0.109730	 -0.041397	 0.205754	 2.522071	 -1.201101	 0.016168	 -0.178605	 0.784341	 -0.536151	 0.255835	 1
1463624013.186	 19	 0.113510	 0.026076	 0.271360	 2.515097	 -1.200533	 0.008608	 -0.177440	 0.784273	 -0.536275	 0.256591	 1
1463624013.196	 19	 0.110899	 0.097807	 0.334931	 2.507627	 -1.199549	 -0.000300	 -0.175824	 0.784365	 -0.536374	 0.257217	 1
1463624013.206	 19	 0.112249	 0.120457	 0.378825	 2.499242	 -1.198454	 -0.010513	 -0.173925	 0.784471	 -0.536527	 0.257865	 1
1463624013.216	 19	 0.091126	 0.152554	 0.396360	 2.491153	 -1.196862	 -0.020740	 -0.171871	 0.784735	 -0.536525	 0.258442	 1
1463624013.226	 19	 0.059289	 0.178279	 0.410731	 2.483676	 -1.194911	 -0.030656	 -0.169719	 0.785131	 -0.536408	 0.258903	 1
1463624013.236	 19	 0.043374	 0.181657	 0.430085	 2.476217	 -1.192695	 -0.040585	 -0.167512	 0.785586	 -0.536203	 0.259387	 1
1463624013.246	 19	 0.012669	 0.214877	 0.451977	 2.469197	 -1.190083	 -0.050357	 -0.165183	 0.786171	 -0.535872	 0.259790	 1
1463624013.256	 19	 -0.002131	 0.229937	 0.469298	 2.462421	 -1.187169	 -0.060126	 -0.162735	 0.786850	 -0.535455	 0.260140	 1
1463624013.266	 19	 -0.017147	 0.220355	 0.461879	 2.455949	 -1.184140	 -0.069504	 -0.160330	 0.787548	 -0.534979	 0.260499	 1
1463624013.276	 19	 -0.031001	 0.233083	 0.451461	 2.450084	 -1.181048	 -0.078295	 -0.157972	 0.788278	 -0.534462	 0.260795	 1
1463624013.286	 19	 -0.133900	 0.423172	 0.393541	 2.447797	 -1.177654	 -0.084759	 -0.155518	 0.789354	 -0.533812	 0.260344	 1
1463624013.296	 19	 -0.181096	 0.546078	 0.455844	 2.447659	 -1.173534	 -0.090563	 -0.152633	 0.790831	 -0.532962	 0.259310	 1
1463624013.306	 19	 -0.191374	 0.548932	 0.551879	 2.446536	 -1.168701	 -0.097836	 -0.149309	 0.792457	 -0.531948	 0.258361	 1
1463624013.316	 19	 -0.170142	 0.447436	 0.644537	 2.442848	 -1.163355	 -0.107032	 -0.145810	 0.794001	 -0.530794	 0.257990	 1
1463624013.326	 19	 -0.145957	 0.315954	 0.710246	 2.436354	 -1.157715	 -0.117929	 -0.142311	 0.795352	 -0.529552	 0.258337	 1
1463624013.336	 19	 -0.144359	 0.174727	 0.743022	 2.427981	 -1.151840	 -0.129428	 -0.139003	 0.796525	 -0.528182	 0.259327	 1
1463624013.346	 19	 -0.151699	 -0.033632	 0.755002	 2.417713	 -1.145743	 -0.140891	 -0.136139	 0.797464	 -0.526616	 0.261139	 1
1463624013.356	 19	 -0.167345	 -0.151917	 0.717802	 2.406858	 -1.139679	 -0.151388	 -0.133787	 0.798210	 -0.524926	 0.263467	 1
1463624013.366	 19	 -0.192173	 -0.168176	 0.665643	 2.397273	 -1.133838	 -0.160160	 -0.131795	 0.798916	 -0.523207	 0.265740	 1
1463624013.376	 19	 -0.206652	 -0.249375	 0.609594	 2.388300	 -1.128097	 -0.167623	 -0.130155	 0.799561	 -0.521413	 0.268122	 1
1463624013.386	 19	 -0.195700	 -0.372103	 0.557200	 2.379043	 -1.122727	 -0.174048	 -0.129045	 0.799985	 -0.519622	 0.270860	 1
1463624013.396	 19	 -0.182341	 -0.442671	 0.511665	 2.369684	 -1.117774	 -0.179712	 -0.128316	 0.800221	 -0.517897	 0.273797	 1
1463624013.406	 19	 -0.173340	 -0.549244	 0.486081	 2.359923	 -1.113241	 -0.184837	 -0.127963	 0.800244	 -0.516246	 0.276992	 1
1463624013.416	 19	 -0.163529	 -0.707955	 0.457875	 2.348961	 -1.108775	 -0.189604	 -0.128054	 0.800036	 -0.514507	 0.280762	 1
1463624013.426	 19	 -0.141981	 -0.867757	 0.430622	 2.336797	 -1.104605	 -0.193976	 -0.128647	 0.799534	 -0.512758	 0.285085	 1
1463624013.436	 19	 -0.111804	 -1.035856	 0.436255	 2.322658	 -1.100671	 -0.198673	 -0.129638	 0.798682	 -0.511029	 0.290088	 1
1463624013.446	 19	 -0.132022	 -1.077870	 0.501052	 2.307232	 -1.096290	 -0.203862	 -0.130649	 0.797728	 -0.509129	 0.295550	 1
1463624013.456	 19	 -0.154646	 -0.957096	 0.572713	 2.292297	 -1.091174	 -0.209428	 -0.131211	 0.796981	 -0.507053	 0.300836	 1
1463624013.466	 19	 -0.150890	 -0.697921	 0.673142	 2.278766	 -1.085278	 -0.216055	 -0.130806	 0.796633	 -0.504957	 0.305424	 1
1463624013.476	 19	 -0.124713	 -0.463046	 0.805123	 2.266151	 -1.078537	 -0.224502	 -0.129238	 0.796675	 -0.502910	 0.309335	 1
1463624013.486	 19	 -0.108632	 -0.299685	 0.898158	 2.254029	 -1.071062	 -0.234434	 -0.126764	 0.796987	 -0.500888	 0.312815	 1
1463624013.496	 19	 -0.136386	 -0.137397	 0.972382	 2.243203	 -1.062839	 -0.244722	 -0.123625	 0.797620	 -0.498765	 0.315838	 1
1463624013.506	 19	 -0.195758	 0.053122	 1.113221	 2.233899	 -1.053304	 -0.255467	 -0.119599	 0.798722	 -0.496359	 0.318382	 1
1463624013.516	 19	 -0.314331	 0.127954	 1.264156	 2.226067	 -1.041871	 -0.265938	 -0.114857	 0.800347	 -0.493330	 0.320748	 1
1463624013.526	 19	 -0.362452	 0.000321	 1.391279	 2.217276	 -1.028871	 -0.276630	 -0.109860	 0.802048	 -0.489737	 0.323741	 1
1463624013.536	 19	 -0.393128	 -0.197169	 1.425944	 2.207005	 -1.015162	 -0.286974	 -0.105139	 0.803522	 -0.485788	 0.327579	 1
1463624013.546	 19	 -0.375112	 -0.456684	 1.434030	 2.194704	 -1.001366	 -0.296985	 -0.100950	 0.804549	 -0.481699	 0.332380	 1
1463624013.556	 19	 -0.299411	 -0.789023	 1.543249	 2.178304	 -0.987205	 -0.308157	 -0.097107	 0.804884	 -0.477531	 0.338667	 1
1463624013.566	 19	 -0.240788	 -1.205678	 1.752014	 2.156258	 -0.971761	 -0.321495	 -0.093327	 0.804410	 -0.473087	 0.346990	 1
1463624013.576	 19	 -0.273216	 -1.504754	 2.004231	 2.129737	 -0.954099	 -0.336134	 -0.089398	 0.803338	 -0.467995	 0.357262	 1
1463624013.586	 19	 -0.359365	 -1.517852	 2.362955	 2.102257	 -0.932968	 -0.351176	 -0.084482	 0.802339	 -0.461852	 0.368521	 1
1463624013.596	 19	 -0.396547	 -1.378588	 2.778090	 2.075160	 -0.907781	 -0.367439	 -0.077727	 0.801672	 -0.454700	 0.380168	 1
1463624013.606	 19	 -0.400167	 -1.264740	 3.075463	 2.049012	 -0.879334	 -0.384472	 -0.069333	 0.801198	 -0.446807	 0.391967	 1
1463624013.616	 19	 -0.426472	 -1.489473	 3.168453	 2.022870	 -0.849306	 -0.400536	 -0.060621	 0.800369	 -0.438420	 0.404380	 1
1463624013.626	 19	 -0.532928	 -2.102945	 3.157277	 1.993541	 -0.818674	 -0.413620	 -0.053334	 0.798311	 -0.429379	 0.418914	 1
1463624013.636	 19	 -0.560379	 -2.525891	 3.197276	 1.961542	 -0.787152	 -0.424340	 -0.046985	 0.795120	 -0.419716	 0.435218	 1
1463624013.646	 19	 -0.411549	 -2.960423	 3.031006	 1.926415	 -0.756745	 -0.434072	 -0.041653	 0.790467	 -0.410417	 0.452753	 1
1463624013.656	 19	 -0.120340	 -3.716722	 2.552497	 1.884766	 -0.730717	 -0.443605	 -0.038673	 0.783262	 -0.402735	 0.472027	 1
1463624013.666	 19	 0.129446	 -4.311205	 1.930912	 1.837211	 -0.710906	 -0.452476	 -0.038708	 0.773468	 -0.397171	 0.492448	 1
1463624013.676	 19	 0.373070	 -4.879926	 1.339460	 1.784261	 -0.697267	 -0.461101	 -0.041599	 0.761230	 -0.393701	 0.513613	 1
1463624013.686	 19	 0.660782	 -5.282786	 0.903704	 1.725742	 -0.688455	 -0.470996	 -0.046523	 0.746608	 -0.392126	 0.535397	 1
1463624013.696	 19	 0.819715	 -5.221000	 0.541602	 1.665946	 -0.683230	 -0.482324	 -0.052325	 0.730823	 -0.392085	 0.556264	 1
1463624013.706	 19	 0.529728	 -4.771648	 0.347945	 1.611656	 -0.679843	 -0.490603	 -0.058813	 0.715838	 -0.391878	 0.574933	 1
1463624013.716	 19	 0.307139	 -3.910228	 0.243862	 1.567356	 -0.677141	 -0.495137	 -0.064932	 0.703167	 -0.391024	 0.590289	 1
1463624013.726	 19	 0.241453	 -2.941655	 0.018979	 1.533562	 -0.676310	 -0.498357	 -0.070116	 0.693230	 -0.390601	 0.601620	 1
1463624013.736	 19	 0.226321	 -2.170583	 -0.139973	 1.508189	 -0.677294	 -0.501395	 -0.074380	 0.685631	 -0.390885	 0.609579	 1
1463624013.746	 19	 0.124582	 -1.829622	 -0.097547	 1.488082	 -0.678414	 -0.503571	 -0.077974	 0.679527	 -0.391100	 0.615795	 1
1463624013.756	 19	 -0.250056	 -2.040591	 0.139285	 1.469635	 -0.677764	 -0.501741	 -0.081957	 0.673757	 -0.389616	 0.622522	 1
1463624013.766	 19	 -0.752219	 -2.498733	 0.267286	 1.451123	 -0.676009	 -0.493353	 -0.087712	 0.667638	 -0.385721	 0.630702	 1
1463624013.776	 19	 -1.151563	 -3.006948	 0.278823	 1.431036	 -0.674624	 -0.479447	 -0.095662	 0.660647	 -0.380004	 0.640306	 1
1463624013.786	 19	 -1.488599	 -3.555548	 0.173274	 1.408273	 -0.674667	 -0.461231	 -0.105944	 0.652378	 -0.372987	 0.651199	 1
1463624013.796	 19	 -1.734132	 -4.118623	 0.015636	 1.381794	 -0.677073	 -0.439926	 -0.118632	 0.642424	 -0.365141	 0.663242	 1
1463624013.806	 19	 -1.912151	 -4.499127	 -0.019393	 1.352292	 -0.681084	 -0.416469	 -0.132945	 0.630969	 -0.356488	 0.676106	 1
1463624013.816	 19	 -2.082167	 -4.496247	 0.162228	 1.323484	 -0.684766	 -0.390534	 -0.147525	 0.619217	 -0.346573	 0.688980	 1
1463624013.826	 19	 -2.137509	 -4.429549	 0.390338	 1.296814	 -0.687027	 -0.362765	 -0.161463	 0.607731	 -0.335440	 0.701479	 1
1463624013.836	 19	 -2.100435	 -4.447205	 0.610463	 1.270336	 -0.687681	 -0.334518	 -0.174580	 0.595965	 -0.323386	 0.713981	 1
1463624013.846	 19	 -2.052351	 -4.375700	 0.810008	 1.244352	 -0.686798	 -0.306088	 -0.186740	 0.584073	 -0.310578	 0.726311	 1
1463624013.856	 19	 -2.013491	 -4.179046	 0.956443	 1.220147	 -0.684797	 -0.277474	 -0.197904	 0.572540	 -0.297276	 0.738010	 1
1463624013.866	 19	 -1.956404	 -3.913750	 1.042610	 1.198300	 -0.682208	 -0.249003	 -0.208124	 0.561642	 -0.283835	 0.748786	 1
1463624013.876	 19	 -1.857440	 -3.588002	 1.121514	 1.179026	 -0.679034	 -0.221257	 -0.217252	 0.551577	 -0.270549	 0.758530	 1
1463624013.886	 19	 -1.697423	 -3.237772	 1.227825	 1.162429	 -0.674765	 -0.194666	 -0.225007	 0.542521	 -0.257525	 0.767283	 1
1463624013.896	 19	 -1.474215	 -2.854626	 1.352009	 1.148320	 -0.668885	 -0.169928	 -0.231077	 0.534575	 -0.244941	 0.775137	 1
1463624013.906	 19	 -1.214446	 -2.422575	 1.488054	 1.136854	 -0.660986	 -0.147460	 -0.235230	 0.527937	 -0.232931	 0.782108	 1
1463624013.916	 19	 -0.945831	 -1.941481	 1.643661	 1.128547	 -0.650776	 -0.127269	 -0.237348	 0.522891	 -0.221531	 0.788146	 1
1463624013.926	 19	 -0.652520	 -1.458078	 1.834246	 1.123455	 -0.637802	 -0.109470	 -0.237278	 0.519552	 -0.210715	 0.793325	 1
1463624013.936	 19	 -0.378369	 -0.999838	 2.067393	 1.121655	 -0.621655	 -0.093733	 -0.234987	 0.517977	 -0.200269	 0.797730	 1
1463624013.946	 19	 -0.121731	 -0.665717	 2.337905	 1.122319	 -0.602017	 -0.079675	 -0.230573	 0.517835	 -0.189857	 0.801647	 1
1463624013.956	 19	 0.096826	 -0.461460	 2.578765	 1.124330	 -0.579098	 -0.067024	 -0.224328	 0.518639	 -0.179272	 0.805328	 1
1463624013.966	 19	 0.267425	 -0.407564	 2.746172	 1.126345	 -0.553673	 -0.055629	 -0.216734	 0.519773	 -0.168479	 0.808998	 1
1463624013.976	 19	 0.379434	 -0.489169	 2.831830	 1.127042	 -0.526738	 -0.045263	 -0.208354	 0.520595	 -0.157497	 0.812874	 1
1463624013.986	 19	 0.441764	 -0.647620	 2.860720	 1.125728	 -0.499122	 -0.035615	 -0.199637	 0.520717	 -0.146363	 0.817054	 1
1463624013.996	 19	 0.493237	 -0.826411	 2.867134	 1.122167	 -0.471198	 -0.026517	 -0.190759	 0.519979	 -0.135111	 0.821570	 1
1463624014.006	 19	 0.551035	 -1.012744	 2.862766	 1.116266	 -0.443106	 -0.017972	 -0.181747	 0.518313	 -0.123809	 0.826433	 1
1463624014.016	 19	 0.618611	 -1.177701	 2.876629	 1.108245	 -0.414700	 -0.009922	 -0.172505	 0.515788	 -0.112454	 0.831600	 1
1463624014.026	 19	 0.693654	 -1.352176	 2.900995	 1.098130	 -0.385816	 -0.002306	 -0.162944	 0.512397	 -0.101018	 0.837074	 1
1463624014.036	 19	 0.763178	 -1.554383	 2.912364	 1.085739	 -0.356544	 0.004968	 -0.153097	 0.508029	 -0.089514	 0.842885	 1
1463624014.046	 19	 0.806055	 -1.738529	 2.910277	 1.071174	 -0.327133	 0.012103	 -0.143080	 0.502677	 -0.077968	 0.848978	 1
1463624014.056	 19	 0.830114	 -1.839658	 2.908060	 1.055225	 -0.297708	 0.019383	 -0.132957	 0.496639	 -0.066383	 0.855141	 1
1463624014.066	 19	 0.856520	 -1.896120	 2.906239	 1.038486	 -0.268291	 0.026872	 -0.122712	 0.490161	 -0.054801	 0.861209	 1
1463624014.076	 19	 0.908415	 -1.961315	 2.883866	 1.020930	 -0.238914	 0.034352	 -0.112297	 0.483244	 -0.043338	 0.867172	 1
1463624014.086	 19	 0.999563	 -2.044973	 2.824742	 1.002260	 -0.209655	 0.041340	 -0.101625	 0.475781	 -0.032230	 0.873079	 1
1463624014.096	 19	 1.128825	 -2.164094	 2.730853	 0.982113	 -0.180600	 0.047359	 -0.090619	 0.467622	 -0.021718	 0.879003	 1
1463624014.106	 19	 1.294315	 -2.291856	 2.633370	 0.960294	 -0.151607	 0.052083	 -0.079138	 0.458678	 -0.011941	 0.884991	 1
1463624014.116	 19	 1.466287	 -2.412115	 2.546559	 0.936927	 -0.122437	 0.055508	 -0.067074	 0.448981	 -0.002899	 0.891015	 1
1463624014.126	 19	 1.617110	 -2.483450	 2.450794	 0.912486	 -0.093152	 0.057798	 -0.054496	 0.438709	 0.005407	 0.896959	 1
1463624014.136	 19	 1.717142	 -2.446293	 2.335167	 0.887962	 -0.064088	 0.059214	 -0.041629	 0.428273	 0.012963	 0.902597	 1
1463624014.146	 19	 1.755776	 -2.299439	 2.214700	 0.864628	 -0.035645	 0.060145	 -0.028770	 0.418230	 0.019834	 0.907669	 1
1463624014.156	 19	 1.792062	 -2.194092	 2.089604	 0.842536	 -0.007963	 0.060669	 -0.016034	 0.408616	 0.026050	 0.912194	 1
1463624014.166	 19	 1.919231	 -2.297314	 1.987355	 0.819919	 0.019578	 0.060311	 -0.003043	 0.398643	 0.031551	 0.916558	 1
1463624014.176	 19	 2.062400	 -2.442775	 1.933598	 0.795885	 0.047641	 0.059079	 0.010505	 0.387892	 0.036446	 0.920924	 1
1463624014.186	 19	 2.167490	 -2.547438	 1.916789	 0.770724	 0.076371	 0.057546	 0.024556	 0.376483	 0.040984	 0.925191	 1
1463624014.196	 19	 2.212372	 -2.527425	 1.908058	 0.745423	 0.105524	 0.056255	 0.038870	 0.364873	 0.045353	 0.929139	 1
1463624014.206	 19	 2.165105	 -2.329779	 1.863415	 0.721613	 0.134311	 0.055586	 0.052972	 0.353842	 0.049622	 0.932485	 1
1463624014.216	 19	 2.039795	 -2.112123	 1.759955	 0.700013	 0.161679	 0.055613	 0.066324	 0.343761	 0.053711	 0.935171	 1
1463624014.226	 20	 1.894627	 -2.015798	 1.637421	 0.679600	 0.187179	 0.056186	 0.078754	 0.334184	 0.057503	 0.937450	 1
1463624014.246	 20	 1.657035	 -2.300880	 1.536656	 0.635609	 0.233634	 0.059609	 0.101417	 0.313513	 0.064519	 0.941945	 1
1463624014.256	 20	 1.516736	 -2.411044	 1.542181	 0.610859	 0.255245	 0.063156	 0.111908	 0.301941	 0.068120	 0.944282	 1
1463624014.266	 20	 1.338133	 -2.461837	 1.505961	 0.585053	 0.275227	 0.068082	 0.121554	 0.289951	 0.071816	 0.946570	 1
1463624014.276	 20	 1.150846	 -2.493891	 1.410309	 0.558586	 0.292966	 0.073918	 0.130131	 0.277722	 0.075348	 0.948820	 1
1463624014.286	 20	 0.990078	 -2.500057	 1.258347	 0.531848	 0.308329	 0.079953	 0.137660	 0.265398	 0.078426	 0.951033	 1
1463624014.296	 20	 0.868976	 -2.446854	 1.065925	 0.505682	 0.321134	 0.085404	 0.144112	 0.253321	 0.080758	 0.953173	 1
1463624014.306	 20	 0.794026	 -2.323710	 0.856698	 0.480881	 0.332037	 0.089740	 0.149807	 0.241819	 0.082279	 0.955150	 1
1463624014.316	 20	 0.754683	 -2.132473	 0.664850	 0.458156	 0.341805	 0.092767	 0.155075	 0.231211	 0.083076	 0.956866	 1
1463624014.326	 20	 0.743204	 -1.964304	 0.530096	 0.437563	 0.350723	 0.094662	 0.160003	 0.221530	 0.083300	 0.958324	 1
1463624014.336	 20	 0.750379	 -1.753077	 0.473379	 0.419280	 0.359132	 0.095952	 0.164671	 0.212904	 0.083279	 0.959489	 1
1463624014.346	 20	 0.807399	 -1.660668	 0.479068	 0.402439	 0.367846	 0.097133	 0.169447	 0.204961	 0.083275	 0.960387	 1
1463624014.356	 20	 0.919314	 -1.724514	 0.520128	 0.385035	 0.377825	 0.098452	 0.174851	 0.196769	 0.083324	 0.961128	 1
1463624014.366	 20	 1.023915	 -1.769076	 0.577418	 0.367047	 0.388929	 0.100073	 0.180803	 0.188334	 0.083470	 0.961703	 1
1463624014.376	 20	 1.103798	 -1.806496	 0.582761	 0.349113	 0.400292	 0.101613	 0.186895	 0.179928	 0.083498	 0.962146	 1
1463624014.396	 21	 1.085055	 -1.808586	 0.433698	 0.311642	 0.424663	 0.103984	 0.200021	 0.162320	 0.082847	 0.962694	 1
1463624014.406	 21	 0.975244	 -1.683640	 0.312188	 0.294325	 0.435272	 0.104306	 0.205834	 0.154113	 0.081968	 0.962893	 1
1463624014.416	 21	 0.858089	 -1.498337	 0.150805	 0.279162	 0.444313	 0.103580	 0.210873	 0.146822	 0.080617	 0.963056	 1
1463624014.436	 21	 0.738419	 -1.040773	 -0.161492	 0.257471	 0.458791	 0.097882	 0.219121	 0.135900	 0.076403	 0.963161	 1
1463624014.446	 22	 0.760196	 -0.888202	 -0.233800	 0.250281	 0.465520	 0.093404	 0.222941	 0.132000	 0.073830	 0.963028	 1
1463624014.456	 22	 0.826438	 -0.861894	 -0.245855	 0.243891	 0.472749	 0.088514	 0.226981	 0.128429	 0.071152	 0.962769	 1
1463624014.466	 22	 0.919993	 -0.951392	 -0.229384	 0.236931	 0.480882	 0.083556	 0.231461	 0.124564	 0.068400	 0.962409	 1
1463624014.476	 22	 1.000653	 -1.073701	 -0.196055	 0.228727	 0.489978	 0.078733	 0.236417	 0.120105	 0.065588	 0.961967	 1
1463624014.486	 22	 1.009122	 -1.129738	 -0.146559	 0.219565	 0.499492	 0.074418	 0.241551	 0.115228	 0.062890	 0.961468	 1
1463624014.496	 22	 0.948481	 -1.120784	 -0.109712	 0.210072	 0.508695	 0.070759	 0.246481	 0.110258	 0.060409	 0.960958	 1
1463624014.516	 23	 0.766457	 -0.963348	 -0.180200	 0.192795	 0.524442	 0.063776	 0.254928	 0.101138	 0.055587	 0.960048	 1
1463624014.526	 23	 0.697555	 -0.803075	 -0.253777	 0.186466	 0.531005	 0.059548	 0.258464	 0.097573	 0.053019	 0.959617	 1
1463624014.536	 23	 0.662116	 -0.571558	 -0.316326	 0.182606	 0.537025	 0.054675	 0.261691	 0.095097	 0.050424	 0.959131	 1
1463624014.546	 23	 0.668415	 -0.337838	 -0.351508	 0.181452	 0.542918	 0.049316	 0.264801	 0.093841	 0.047941	 0.958528	 1
1463624014.556	 23	 0.710751	 -0.199578	 -0.335669	 0.181985	 0.549169	 0.043882	 0.268041	 0.093366	 0.045663	 0.957785	 1
1463624014.566	 23	 0.755972	 -0.186330	 -0.250679	 0.182701	 0.555990	 0.039107	 0.271517	 0.093048	 0.043753	 0.956926	 1
1463624014.576	 23	 0.784696	 -0.307843	 -0.128431	 0.181867	 0.563362	 0.035576	 0.275227	 0.092140	 0.042254	 0.956020	 1
1463624014.586	 23	 0.774708	 -0.495156	 -0.002196	 0.178494	 0.570982	 0.033536	 0.279034	 0.090212	 0.041122	 0.955150	 1
1463624014.596	 23	 0.712373	 -0.657109	 0.079969	 0.172724	 0.578279	 0.032755	 0.282673	 0.087315	 0.040229	 0.954387	 1
1463624014.606	 23	 0.623409	 -0.758786	 0.103245	 0.165410	 0.584825	 0.032644	 0.285949	 0.083782	 0.039386	 0.953762	 1
1463624014.616	 23	 0.514274	 -0.795889	 0.076140	 0.157533	 0.590306	 0.032606	 0.288718	 0.080000	 0.038434	 0.953291	 1
1463624014.626	 23	 0.414999	 -0.765070	 0.032529	 0.149928	 0.594701	 0.032288	 0.290971	 0.076314	 0.037331	 0.952952	 1
1463624014.636	 23	 0.352409	 -0.668250	 0.011594	 0.143193	 0.598343	 0.031892	 0.292846	 0.073037	 0.036279	 0.952676	 1
1463624014.646	 23	 0.349749	 -0.480613	 -0.075095	 0.138524	 0.601705	 0.030684	 0.294575	 0.070626	 0.035123	 0.952367	 1
1463624014.656	 23	 0.390178	 -0.232266	 -0.132819	 0.136779	 0.605276	 0.028574	 0.296381	 0.069472	 0.033970	 0.951934	 1
1463624014.666	 23	 0.452960	 -0.043142	 -0.134803	 0.137286	 0.609417	 0.026213	 0.298425	 0.069347	 0.033049	 0.951336	 1
1463624014.676	 23	 0.508949	 0.053555	 -0.124799	 0.138997	 0.614160	 0.023842	 0.300736	 0.069784	 0.032325	 0.950601	 1
1463624014.686	 23	 0.516578	 0.078074	 -0.113980	 0.141096	 0.619121	 0.021534	 0.303142	 0.070407	 0.031702	 0.949812	 1
1463624014.696	 23	 0.468404	 0.022052	 -0.085306	 0.142664	 0.623784	 0.019556	 0.305402	 0.070822	 0.031152	 0.949075	 1
1463624014.706	 23	 0.355933	 -0.108080	 -0.035447	 0.142688	 0.627549	 0.018274	 0.307234	 0.070613	 0.030670	 0.948515	 1
1463624014.716	 23	 0.208128	 -0.260467	 0.011316	 0.140703	 0.629992	 0.017851	 0.308437	 0.069590	 0.030242	 0.948214	 1
1463624014.726	 23	 0.058208	 -0.388561	 0.033810	 0.137013	 0.630975	 0.018050	 0.308952	 0.067865	 0.029798	 0.948185	 1
1463624014.736	 23	 -0.063905	 -0.490263	 0.040321	 0.132008	 0.630682	 0.018602	 0.308869	 0.065580	 0.029278	 0.948389	 1
1463624014.746	 23	 -0.154791	 -0.519843	 0.031246	 0.126449	 0.629393	 0.019243	 0.308317	 0.063049	 0.028686	 0.948758	 1
1463624014.756	 23	 -0.194007	 -0.434879	 -0.001727	 0.121607	 0.627535	 0.019623	 0.307492	 0.060819	 0.028069	 0.949190	 1
1463624014.766	 23	 -0.183911	 -0.291660	 -0.048441	 0.118427	 0.625617	 0.019449	 0.306631	 0.059292	 0.027446	 0.949584	 1
1463624014.776	 23	 -0.136413	 -0.150565	 -0.079515	 0.116969	 0.624047	 0.018760	 0.305925	 0.058501	 0.026855	 0.949877	 1
1463624014.786	 23	 -0.066384	 -0.008265	 -0.081998	 0.117053	 0.623104	 0.017865	 0.305502	 0.058408	 0.026417	 0.950031	 1
1463624014.796	 23	 0.020756	 0.121398	 -0.060235	 0.118433	 0.623002	 0.017052	 0.305459	 0.058940	 0.026239	 0.950017	 1
1463624014.806	 23	 0.124816	 0.200116	 -0.016712	 0.120569	 0.623940	 0.016555	 0.305892	 0.059874	 0.026355	 0.949816	 1
1463624014.816	 23	 0.273438	 0.217100	 0.036506	 0.126356	 0.628717	 0.014363	 0.308151	 0.062257	 0.026337	 0.948933	 1
1463624014.826	 23	 0.375539	 0.347812	 0.062411	 0.129359	 0.632336	 0.014537	 0.309822	 0.063685	 0.026990	 0.948275	 1
1463624014.836	 23	 0.403243	 0.365580	 0.030362	 0.133203	 0.636339	 0.014383	 0.311672	 0.065455	 0.027634	 0.947530	 1
1463624014.846	 23	 0.344039	 0.297341	 -0.016651	 0.136758	 0.639953	 0.013709	 0.313357	 0.067007	 0.027982	 0.946855	 1
1463624014.856	 23	 0.223607	 0.158961	 -0.080852	 0.140103	 0.639286	 0.012120	 0.313049	 0.068347	 0.027733	 0.946869	 1
1463624014.866	 23	 0.085750	 -0.049603	 -0.149801	 0.141236	 0.640300	 0.010265	 0.313577	 0.068585	 0.027065	 0.946696	 1
1463624014.876	 23	 -0.048678	 -0.228240	 -0.197186	 0.140721	 0.639880	 0.007992	 0.313462	 0.067988	 0.025895	 0.946810	 1
1463624014.886	 23	 -0.180456	 -0.319476	 -0.218203	 0.139125	 0.638134	 0.005606	 0.312736	 0.066875	 0.024458	 0.947167	 1
1463624014.896	 23	 -0.285060	 -0.317094	 -0.225795	 0.138181	 0.636236	 0.002740	 0.311943	 0.065999	 0.022891	 0.947529	 1
