% Gyrometer data recorded with 'snsrlog'
% 
% 
% Label description:
% 	 0: Default Label
% 	 1: still_drop
% 	 2: walk_drop
% 	 3: other
% 	 4: dtw_same
% 	 5: dtw_diff
% 	 6: delete
% 
% Column description:
% 	 1: Seconds.milliseconds since 1970
% 	 2: Number of skipped measurements
% 	 3: Gyro X
% 	 4: Gyro Y
% 	 5: Gyro Z
% 	 6: Roll of the device
% 	 7: Pitch of the device
% 	 8: Yaw of the device
% 	 9: Quaternion X
% 	 10: Quaternion Y
% 	 11: Quaternion Z
% 	 12: Quaternion W
% 	 13: Label used for the current sample
% 
% 
1462091846.187	 0	 -0.670520	 2.654207	 -0.509398	 0.223782	 0.235296	 0.102426	 0.110814	 0.116711	 0.063608	 0.984913	 2
1462091846.197	 0	 -0.700997	 2.937585	 -0.458537	 0.253186	 0.227464	 0.099398	 0.106208	 0.130877	 0.063273	 0.983660	 2
1462091846.207	 0	 -0.683727	 2.931561	 -0.402258	 0.283269	 0.219644	 0.097181	 0.101561	 0.145415	 0.063249	 0.982110	 2
1462091846.217	 0	 -0.549121	 2.694336	 -0.353415	 0.311142	 0.212972	 0.095349	 0.097540	 0.158896	 0.063264	 0.980426	 2
1462091846.237	 1	 -0.512776	 2.972386	 -0.130531	 0.367759	 0.202038	 0.094297	 0.090463	 0.186384	 0.064519	 0.976174	 2
1462091846.247	 1	 -0.527916	 3.038329	 0.009829	 0.397737	 0.197071	 0.096111	 0.086882	 0.201008	 0.066275	 0.973476	 2
1462091846.257	 1	 -0.446660	 2.826583	 0.030598	 0.426260	 0.192851	 0.098387	 0.083631	 0.214910	 0.068178	 0.970655	 2
1462091846.267	 1	 -0.182221	 2.439810	 -0.103195	 0.451506	 0.190229	 0.098961	 0.081427	 0.227134	 0.069220	 0.967982	 2
1462091846.277	 1	 0.224401	 2.203867	 -0.354056	 0.474576	 0.189973	 0.095828	 0.080872	 0.238154	 0.068613	 0.965419	 2
1462091846.297	 2	 1.168247	 2.459596	 -1.081416	 0.524508	 0.196763	 0.073505	 0.085320	 0.261316	 0.060764	 0.959553	 2
1462091846.307	 2	 1.457529	 2.959607	 -1.388353	 0.556379	 0.201978	 0.054563	 0.089452	 0.275759	 0.053771	 0.955544	 2
1462091846.317	 2	 1.458279	 3.700879	 -1.543457	 0.595723	 0.206127	 0.033481	 0.093450	 0.293525	 0.046107	 0.950255	 2
1462091846.327	 2	 1.344004	 4.308100	 -1.749964	 0.642089	 0.207469	 0.011317	 0.096480	 0.314413	 0.038016	 0.943605	 2
1462091846.337	 2	 1.351429	 4.597983	 -2.106493	 0.692487	 0.205575	 -0.013273	 0.098756	 0.336928	 0.028611	 0.935900	 2
1462091846.347	 2	 1.418337	 4.892457	 -2.539167	 0.746259	 0.200089	 -0.041352	 0.100484	 0.360708	 0.017245	 0.927089	 2
1462091846.357	 2	 1.516140	 5.338423	 -2.896096	 0.804489	 0.191011	 -0.072464	 0.101808	 0.386266	 0.004127	 0.916742	 2
1462091846.367	 2	 1.666771	 5.808406	 -3.146686	 0.867555	 0.179016	 -0.105761	 0.103123	 0.413747	 -0.010251	 0.904475	 2
1462091846.377	 2	 1.893694	 5.997908	 -3.469824	 0.933391	 0.163913	 -0.141656	 0.104662	 0.442129	 -0.026247	 0.890437	 2
1462091846.387	 2	 2.169444	 6.118249	 -3.776979	 1.000203	 0.145320	 -0.180438	 0.106535	 0.470565	 -0.044185	 0.874795	 2
1462091846.397	 2	 2.393021	 6.160924	 -3.961840	 1.067253	 0.123615	 -0.220972	 0.108835	 0.498728	 -0.063523	 0.857549	 2
1462091846.417	 3	 2.483568	 5.842422	 -4.431330	 1.194722	 0.068481	 -0.302452	 0.112668	 0.551453	 -0.105452	 0.819808	 2
1462091846.427	 3	 2.173694	 5.377039	 -4.783598	 1.251855	 0.032058	 -0.339818	 0.111852	 0.575142	 -0.127764	 0.800235	 2
1462091846.437	 3	 1.612766	 4.684132	 -4.932237	 1.300818	 -0.009868	 -0.370903	 0.107790	 0.595846	 -0.149679	 0.781630	 2
1462091846.447	 3	 1.020875	 3.941555	 -4.756011	 1.341398	 -0.053660	 -0.394077	 0.101022	 0.613402	 -0.169657	 0.764689	 2
1462091846.457	 3	 0.529552	 3.323403	 -4.395126	 1.374832	 -0.096184	 -0.409866	 0.092603	 0.628107	 -0.186969	 0.749632	 2
1462091846.477	 4	 0.268360	 2.996528	 -3.669044	 1.433362	 -0.172718	 -0.428633	 0.075640	 0.653297	 -0.215122	 0.721945	 2
1462091846.487	 4	 0.422031	 3.045465	 -3.458906	 1.462132	 -0.207065	 -0.436802	 0.068777	 0.664983	 -0.227801	 0.707936	 2
1462091846.497	 4	 0.735154	 3.193865	 -3.255625	 1.491440	 -0.239383	 -0.446611	 0.063644	 0.676345	 -0.240522	 0.693293	 2
1462091846.507	 4	 1.133279	 3.277016	 -3.068612	 1.520960	 -0.269767	 -0.459336	 0.060620	 0.687254	 -0.253694	 0.677972	 2
1462091846.517	 4	 1.436485	 2.673709	 -3.125891	 1.545246	 -0.300115	 -0.474723	 0.058237	 0.695993	 -0.267911	 0.663646	 2
1462091846.527	 4	 1.724550	 2.136514	 -3.312446	 1.562339	 -0.332494	 -0.492851	 0.055434	 0.702090	 -0.283828	 0.650722	 2
1462091846.537	 4	 1.676441	 1.557041	 -3.451705	 1.573057	 -0.366674	 -0.511109	 0.051361	 0.705987	 -0.300418	 0.639292	 2
1462091846.547	 4	 1.338480	 1.212047	 -3.494603	 1.580102	 -0.401650	 -0.526409	 0.045552	 0.708666	 -0.316261	 0.629044	 2
1462091846.557	 4	 0.801888	 1.022222	 -3.487435	 1.586827	 -0.436650	 -0.536247	 0.037847	 0.711218	 -0.330272	 0.619401	 2
1462091846.567	 4	 0.263169	 0.842963	 -3.490807	 1.594061	 -0.471595	 -0.539858	 0.028113	 0.713843	 -0.342249	 0.610331	 2
1462091846.577	 4	 -0.146704	 0.847180	 -3.514909	 1.603206	 -0.506631	 -0.538144	 0.016857	 0.716856	 -0.352584	 0.601263	 2
1462091846.587	 4	 -0.364609	 1.045523	 -3.532481	 1.615713	 -0.541747	 -0.532827	 0.004974	 0.720563	 -0.361882	 0.591444	 2
1462091846.597	 4	 -0.305588	 1.310450	 -3.496425	 1.631451	 -0.576620	 -0.526663	 -0.006416	 0.724822	 -0.370950	 0.580507	 2
1462091846.607	 4	 0.042155	 1.397559	 -3.370751	 1.647327	 -0.610547	 -0.523135	 -0.016347	 0.728735	 -0.380599	 0.569055	 2
1462091846.617	 4	 0.526172	 1.188595	 -3.243689	 1.658951	 -0.643493	 -0.524759	 -0.024731	 0.731167	 -0.391418	 0.558189	 2
1462091846.627	 4	 0.977943	 0.747489	 -3.167532	 1.663089	 -0.675978	 -0.532116	 -0.032238	 0.731374	 -0.403538	 0.548826	 2
1462091846.637	 4	 1.224108	 0.207627	 -3.152318	 1.659198	 -0.708444	 -0.543661	 -0.039829	 0.729339	 -0.416496	 0.541304	 2
1462091846.647	 4	 1.185122	 -0.362374	 -3.155151	 1.648595	 -0.740865	 -0.556300	 -0.048501	 0.725481	 -0.429344	 0.535714	 2
1462091846.657	 4	 0.855976	 -0.868056	 -3.206016	 1.634277	 -0.773360	 -0.566282	 -0.059114	 0.720557	 -0.441102	 0.531725	 2
1462091846.677	 5	 -0.208408	 -1.476792	 -3.391053	 1.607952	 -0.839827	 -0.567074	 -0.087620	 0.710438	 -0.459101	 0.526143	 2
1462091846.687	 5	 -0.607082	 -1.475695	 -3.547436	 1.600377	 -0.874651	 -0.557356	 -0.104834	 0.706040	 -0.465728	 0.523081	 2
1462091846.697	 5	 -0.735886	 -1.301793	 -3.672588	 1.597100	 -0.910926	 -0.544233	 -0.122724	 0.702140	 -0.471926	 0.518868	 2
1462091846.707	 5	 -0.571212	 -1.028735	 -3.645902	 1.595746	 -0.947377	 -0.532151	 -0.139795	 0.698384	 -0.478451	 0.513617	 2
1462091846.717	 5	 -0.150059	 -0.819043	 -3.453649	 1.592153	 -0.982418	 -0.526036	 -0.154780	 0.694240	 -0.485854	 0.507956	 2
1462091846.727	 5	 0.424537	 -0.805300	 -3.086573	 1.580728	 -1.014360	 -0.530219	 -0.167051	 0.688997	 -0.494239	 0.503096	 2
1462091846.737	 5	 0.985374	 -0.928394	 -2.527748	 1.557592	 -1.041115	 -0.546768	 -0.176329	 0.682328	 -0.503100	 0.500226	 2
1462091846.747	 5	 1.381363	 -1.034165	 -1.846895	 1.523767	 -1.060930	 -0.574089	 -0.182510	 0.674698	 -0.511645	 0.499691	 2
1462091846.757	 5	 1.365943	 -1.065031	 -1.123395	 1.486211	 -1.073011	 -0.604694	 -0.186159	 0.667214	 -0.518593	 0.501229	 2
1462091846.767	 5	 1.053315	 -0.929560	 -0.462903	 1.454277	 -1.078092	 -0.630187	 -0.187816	 0.661234	 -0.523114	 0.503832	 2
1462091846.777	 5	 0.790094	 -1.151844	 0.165055	 1.427948	 -1.076923	 -0.647856	 -0.188474	 0.656304	 -0.524864	 0.508193	 2
1462091846.787	 5	 0.484179	 -1.396158	 0.817691	 1.405769	 -1.069578	 -0.657703	 -0.188406	 0.651948	 -0.523805	 0.514874	 2
1462091846.797	 5	 0.216762	 -1.517066	 1.343250	 1.389910	 -1.057040	 -0.658936	 -0.187568	 0.648546	 -0.520131	 0.523135	 2
1462091846.807	 5	 -0.166649	 -1.883449	 1.705538	 1.378280	 -1.041210	 -0.651847	 -0.187060	 0.645508	 -0.514013	 0.533027	 2
1462091846.817	 5	 -0.724907	 -2.376435	 1.992501	 1.371596	 -1.023417	 -0.633475	 -0.188126	 0.642739	 -0.504850	 0.544630	 2
1462091846.827	 5	 -1.326294	 -2.842681	 2.136211	 1.369582	 -1.005160	 -0.603612	 -0.191467	 0.640143	 -0.492664	 0.557530	 2
1462091846.837	 5	 -1.490347	 -2.988247	 2.383542	 1.369551	 -0.985561	 -0.568036	 -0.195599	 0.637599	 -0.478453	 0.571219	 2
1462091846.847	 5	 -0.843960	 -2.616885	 2.666993	 1.364714	 -0.962051	 -0.541038	 -0.196630	 0.634689	 -0.465031	 0.585024	 2
1462091846.857	 5	 -0.547810	 -2.016215	 2.895946	 1.359201	 -0.935562	 -0.520945	 -0.194426	 0.632368	 -0.452626	 0.597862	 2
1462091846.867	 5	 -0.569411	 -1.294978	 3.048855	 1.359906	 -0.907187	 -0.501530	 -0.189841	 0.632052	 -0.440349	 0.608739	 2
1462091846.877	 5	 -0.771057	 -0.595683	 3.036868	 1.368666	 -0.878819	 -0.480442	 -0.184043	 0.634098	 -0.428036	 0.617116	 2
1462091846.887	 5	 -1.056693	 0.011808	 2.944826	 1.385357	 -0.851584	 -0.456729	 -0.177938	 0.638439	 -0.415578	 0.622919	 2
1462091846.897	 5	 -1.247339	 0.593733	 2.885824	 1.408673	 -0.825156	 -0.431381	 -0.171521	 0.644845	 -0.403033	 0.626354	 2
1462091846.907	 5	 -1.193306	 1.193410	 2.880276	 1.436343	 -0.798498	 -0.407616	 -0.163950	 0.652956	 -0.390914	 0.627658	 2
1462091846.917	 5	 -0.869006	 1.812828	 2.919452	 1.465995	 -0.770798	 -0.389122	 -0.154236	 0.662337	 -0.379931	 0.627036	 2
1462091846.927	 5	 -0.304078	 2.331416	 2.938543	 1.494915	 -0.741972	 -0.379254	 -0.141708	 0.672293	 -0.370864	 0.624820	 2
1462091846.937	 5	 0.252331	 2.666748	 2.911241	 1.521112	 -0.712774	 -0.378614	 -0.126674	 0.682031	 -0.363962	 0.621545	 2
1462091846.947	 5	 0.578410	 2.864061	 2.824976	 1.545930	 -0.684079	 -0.383928	 -0.110188	 0.691537	 -0.358564	 0.617306	 2
1462091846.957	 5	 0.674501	 2.890396	 2.535563	 1.570024	 -0.657884	 -0.391877	 -0.093908	 0.700625	 -0.354302	 0.612189	 2
1462091846.967	 5	 0.740223	 2.715581	 2.362842	 1.592008	 -0.634007	 -0.401228	 -0.078399	 0.708800	 -0.350736	 0.606993	 2
1462091846.977	 5	 0.813547	 2.477712	 2.298176	 1.611136	 -0.611165	 -0.411908	 -0.063336	 0.715893	 -0.347489	 0.602277	 2
1462091846.987	 5	 0.905466	 2.340790	 2.227893	 1.628031	 -0.589130	 -0.423873	 -0.048522	 0.722098	 -0.344562	 0.597911	 2
1462091846.997	 5	 1.090523	 2.291651	 2.126709	 1.643392	 -0.568354	 -0.437906	 -0.033685	 0.727619	 -0.342394	 0.593466	 2
1462091847.007	 5	 1.413189	 2.249390	 2.003075	 1.656711	 -0.549108	 -0.455395	 -0.018472	 0.732295	 -0.341510	 0.588875	 2
1462091847.017	 5	 1.712357	 2.207162	 1.874317	 1.668048	 -0.531644	 -0.476508	 -0.002867	 0.736098	 -0.342075	 0.584069	 2
1462091847.027	 5	 1.927040	 2.133221	 1.738540	 1.677756	 -0.515925	 -0.500172	 0.012826	 0.739098	 -0.343794	 0.579116	 2
1462091847.037	 5	 2.092618	 2.070997	 1.585181	 1.686245	 -0.502062	 -0.525586	 0.028354	 0.741407	 -0.346492	 0.573982	 2
1462091847.047	 5	 2.214375	 1.997169	 1.428895	 1.693706	 -0.490110	 -0.552256	 0.043550	 0.743093	 -0.350059	 0.568660	 2
1462091847.057	 5	 2.281601	 1.875866	 1.302487	 1.700050	 -0.479761	 -0.579586	 0.058278	 0.744161	 -0.354243	 0.563330	 2
1462091847.067	 5	 2.294313	 1.736637	 1.175321	 1.705218	 -0.470793	 -0.606943	 0.072361	 0.744636	 -0.358813	 0.558153	 2
1462091847.077	 5	 2.253361	 1.540067	 1.039562	 1.709134	 -0.463271	 -0.633728	 0.085531	 0.744557	 -0.363649	 0.553244	 2
1462091847.087	 5	 2.203651	 1.281962	 0.921425	 1.711101	 -0.456890	 -0.659658	 0.097646	 0.743785	 -0.368633	 0.548962	 2
1462091847.097	 5	 2.173113	 1.104929	 0.697299	 1.711415	 -0.452421	 -0.684867	 0.108544	 0.742459	 -0.374069	 0.545019	 2
1462091847.107	 5	 2.133482	 1.080699	 0.420321	 1.711581	 -0.450588	 -0.709231	 0.118215	 0.741069	 -0.380084	 0.540720	 2
1462091847.117	 5	 1.998087	 1.114202	 0.145779	 1.712757	 -0.451346	 -0.731998	 0.126621	 0.740017	 -0.386381	 0.535772	 2
1462091847.127	 5	 1.733268	 1.125400	 -0.176869	 1.715353	 -0.454827	 -0.751753	 0.133292	 0.739552	 -0.392580	 0.530261	 2
1462091847.137	 5	 1.306799	 1.004340	 -0.469497	 1.719505	 -0.460814	 -0.766670	 0.137670	 0.739865	 -0.398117	 0.524547	 2
1462091847.147	 5	 0.745106	 0.781945	 -0.563660	 1.723879	 -0.467611	 -0.775525	 0.139602	 0.740654	 -0.402258	 0.519741	 2
1462091847.157	 5	 0.433409	 0.775324	 -0.575929	 1.729438	 -0.474050	 -0.779886	 0.140242	 0.742031	 -0.405015	 0.515446	 2
1462091847.167	 5	 0.433985	 1.247384	 -0.454307	 1.738663	 -0.479621	 -0.783687	 0.141716	 0.744332	 -0.407085	 0.510067	 2
1462091847.187	 5	 -0.303456	 2.824418	 0.085815	 1.780941	 -0.481760	 -0.786708	 0.150751	 0.754787	 -0.405429	 0.493151	 2
1462091847.177	 5	 0.378646	 1.920961	 -0.140618	 1.754142	 -0.482629	 -0.787952	 0.145490	 0.748051	 -0.408000	 0.502781	 2
1462091847.197	 5	 -0.778299	 3.295855	 0.076218	 1.816401	 -0.479527	 -0.779527	 0.155869	 0.763914	 -0.400239	 0.481611	 2
1462091847.217	 5	 -1.608953	 2.852741	 0.237060	 1.891807	 -0.467989	 -0.751844	 0.163466	 0.783632	 -0.383839	 0.460291	 2
1462091847.227	 5	 -1.527071	 1.954231	 0.156580	 1.921092	 -0.461024	 -0.735839	 0.164788	 0.791529	 -0.375375	 0.453233	 2
1462091847.207	 5	 -1.269913	 3.264187	 0.203832	 1.854839	 -0.474867	 -0.767612	 0.160348	 0.773889	 -0.392826	 0.470184	 2
1462091847.237	 5	 -0.911629	 0.530547	 -0.113546	 1.935401	 -0.457522	 -0.724205	 0.163864	 0.795677	 -0.370343	 0.450436	 2
1462091847.247	 5	 0.164706	 -0.895937	 -0.143652	 1.929683	 -0.459075	 -0.723210	 0.161955	 0.794483	 -0.371131	 0.452580	 2
1462091847.257	 5	 0.813888	 -0.879288	 -0.078809	 1.916884	 -0.462130	 -0.729807	 0.161287	 0.791079	 -0.374733	 0.455803	 2
1462091847.267	 5	 0.953833	 0.231148	 -0.018538	 1.911670	 -0.465645	 -0.739683	 0.163168	 0.789135	 -0.378626	 0.455284	 2
1462091847.287	 6	 1.392117	 2.028471	 0.720155	 1.929591	 -0.467151	 -0.767600	 0.177169	 0.790805	 -0.383890	 0.442569	 2
1462091847.297	 6	 1.394910	 2.132827	 1.031238	 1.942597	 -0.462929	 -0.786138	 0.188235	 0.791894	 -0.385306	 0.434754	 2
1462091847.307	 6	 1.476316	 1.935233	 0.803815	 1.954295	 -0.460045	 -0.804860	 0.198743	 0.792549	 -0.387209	 0.427125	 2
1462091847.317	 6	 1.450150	 1.851342	 0.225619	 1.964960	 -0.462122	 -0.821956	 0.206998	 0.793113	 -0.390463	 0.419120	 2
1462091847.327	 6	 0.518175	 2.476666	 -0.601334	 1.985266	 -0.468739	 -0.828302	 0.211613	 0.796777	 -0.391944	 0.408345	 2
1462091847.347	 7	 0.987291	 0.397975	 -1.199207	 2.017641	 -0.493233	 -0.826148	 0.210268	 0.803800	 -0.396636	 0.390349	 2
1462091847.357	 7	 2.065544	 -0.827672	 -1.254105	 2.005562	 -0.512008	 -0.838995	 0.207744	 0.800272	 -0.406918	 0.388363	 2
1462091847.367	 7	 2.588906	 -0.942983	 -1.543228	 1.986155	 -0.535721	 -0.858246	 0.204686	 0.794731	 -0.420734	 0.386639	 2
1462091847.377	 7	 2.696920	 -0.451832	 -1.532137	 1.969077	 -0.560612	 -0.879921	 0.202458	 0.789459	 -0.434941	 0.382873	 2
1462091847.387	 7	 2.648121	 0.090336	 -1.296463	 1.956091	 -0.583391	 -0.903075	 0.202071	 0.784858	 -0.448080	 0.377345	 2
1462091847.407	 8	 2.370694	 0.756969	 -1.003286	 1.940479	 -0.621080	 -0.949719	 0.205594	 0.777594	 -0.470224	 0.363273	 2
1462091847.417	 8	 2.136420	 0.955759	 -1.112367	 1.937467	 -0.639030	 -0.970361	 0.207551	 0.775117	 -0.479756	 0.354895	 2
1462091847.427	 8	 1.801283	 0.747155	 -1.413001	 1.936115	 -0.658247	 -0.986557	 0.207753	 0.773396	 -0.488546	 0.346440	 2
1462091847.437	 8	 1.310952	 -0.050940	 -1.664481	 1.931546	 -0.678351	 -0.996441	 0.204412	 0.771771	 -0.496698	 0.340405	 2
1462091847.447	 8	 0.745643	 -0.975857	 -1.834424	 1.922546	 -0.698330	 -0.999100	 0.197149	 0.770115	 -0.503914	 0.337826	 2
1462091847.467	 9	 -0.516656	 -3.019207	 -1.779567	 1.888280	 -0.732768	 -0.981492	 0.171107	 0.765994	 -0.513964	 0.346146	 2
1462091847.477	 9	 -0.885226	 -3.655594	 -1.390080	 1.864500	 -0.744578	 -0.964952	 0.154977	 0.763169	 -0.516334	 0.356306	 2
1462091847.487	 9	 -1.009473	 -4.300181	 -1.005995	 1.834372	 -0.752593	 -0.948032	 0.138217	 0.758934	 -0.517708	 0.369992	 2
1462091847.497	 9	 -0.960815	 -4.558335	 -0.803194	 1.800089	 -0.765457	 -0.932122	 0.119177	 0.753487	 -0.520453	 0.383644	 2
1462091847.507	 9	 -0.916307	 -4.267271	 -0.690039	 1.767208	 -0.771236	 -0.916999	 0.103058	 0.747894	 -0.520886	 0.398385	 2
1462091847.517	 9	 -0.832996	 -3.606721	 -0.650518	 1.739302	 -0.776687	 -0.903173	 0.088839	 0.742911	 -0.520881	 0.410944	 2
1462091847.527	 9	 -0.572929	 -3.004350	 -0.641854	 1.715387	 -0.782578	 -0.892631	 0.076740	 0.738375	 -0.521228	 0.420993	 2
1462091847.537	 9	 -0.151698	 -2.592056	 -0.671526	 1.691993	 -0.788776	 -0.887708	 0.066737	 0.733584	 -0.522629	 0.429254	 2
1462091847.547	 9	 0.289667	 -2.191677	 -0.722800	 1.667990	 -0.796005	 -0.889213	 0.058541	 0.728366	 -0.525548	 0.435724	 2
1462091847.557	 9	 0.638190	 -1.736189	 -0.838830	 1.644454	 -0.804469	 -0.896197	 0.051964	 0.723061	 -0.529837	 0.440177	 2
1462091847.567	 9	 0.879805	 -1.420814	 -1.105505	 1.621646	 -0.815252	 -0.907242	 0.046139	 0.717842	 -0.535451	 0.442568	 2
1462091847.577	 9	 1.020322	 -1.469139	 -1.405592	 1.597214	 -0.828979	 -0.921022	 0.039696	 0.712283	 -0.542258	 0.443883	 2
1462091847.587	 9	 1.110838	 -1.785761	 -1.616084	 1.568374	 -0.844779	 -0.937010	 0.031931	 0.705816	 -0.549910	 0.445425	 2
1462091847.597	 9	 1.181360	 -2.206033	 -1.900904	 1.533646	 -0.862704	 -0.955278	 0.022351	 0.698156	 -0.558337	 0.447592	 2
1462091847.607	 9	 1.049559	 -2.466743	 -2.264542	 1.494688	 -0.883886	 -0.974396	 0.010415	 0.689770	 -0.567275	 0.449787	 2
1462091847.617	 9	 0.469902	 -2.216694	 -2.338166	 1.461030	 -0.906610	 -0.988054	 -0.002747	 0.682810	 -0.574787	 0.450980	 2
1462091847.627	 9	 -0.140176	 -1.995122	 -2.244466	 1.437119	 -0.929138	 -0.992537	 -0.016349	 0.678120	 -0.579798	 0.451353	 2
1462091847.647	 10	 -0.787367	 -2.239637	 -2.343419	 1.401266	 -0.975611	 -0.984773	 -0.046498	 0.671223	 -0.585491	 0.452213	 2
1462091847.657	 10	 -1.145519	 -2.473696	 -2.497014	 1.386279	 -1.001666	 -0.973830	 -0.064181	 0.668165	 -0.586867	 0.452795	 2
1462091847.667	 10	 -1.482318	 -2.705692	 -2.650776	 1.374088	 -1.029976	 -0.957013	 -0.083848	 0.665326	 -0.587116	 0.453438	 2
1462091847.677	 10	 -1.631064	 -2.904074	 -2.786679	 1.363070	 -1.060218	 -0.936690	 -0.105038	 0.662250	 -0.586690	 0.454078	 2
1462091847.687	 10	 -1.612217	 -3.021836	 -2.737848	 1.351717	 -1.090689	 -0.915578	 -0.126639	 0.658614	 -0.585871	 0.454912	 2
1462091847.697	 10	 -1.491625	 -3.059263	 -2.423781	 1.339535	 -1.118664	 -0.894941	 -0.147353	 0.654385	 -0.584497	 0.456542	 2
1462091847.707	 10	 -1.265164	 -2.843867	 -1.817329	 1.327886	 -1.141074	 -0.875626	 -0.165359	 0.650040	 -0.582435	 0.459209	 2
1462091847.717	 10	 -0.983313	 -2.533033	 -1.081515	 1.317682	 -1.155930	 -0.858211	 -0.179473	 0.646004	 -0.579679	 0.463077	 2
1462091847.727	 10	 -0.744518	 -2.234343	 -0.424305	 1.308910	 -1.163575	 -0.842545	 -0.189889	 0.642395	 -0.576316	 0.468113	 2
1462091847.737	 10	 -0.587720	 -1.735795	 0.039378	 1.303688	 -1.165778	 -0.827794	 -0.196935	 0.639699	 -0.572655	 0.473358	 2
1462091847.747	 10	 -0.496680	 -1.005210	 0.060304	 1.304012	 -1.166244	 -0.814451	 -0.201278	 0.638438	 -0.569585	 0.476924	 2
1462091847.757	 10	 -0.417950	 -0.454548	 -0.387140	 1.306533	 -1.169923	 -0.805537	 -0.204769	 0.638049	 -0.568253	 0.477547	 2
1462091847.767	 10	 -0.408962	 -0.257450	 -0.777585	 1.308641	 -1.177691	 -0.800091	 -0.208781	 0.637788	 -0.568316	 0.476082	 2
1462091847.787	 11	 -0.284272	 0.283548	 -0.926040	 1.315339	 -1.197292	 -0.793239	 -0.216291	 0.638058	 -0.570289	 0.469969	 2
1462091847.797	 11	 -0.117609	 0.745975	 -0.892281	 1.319512	 -1.206388	 -0.795553	 -0.217704	 0.638981	 -0.572613	 0.465213	 2
1462091847.807	 11	 -0.281289	 1.248202	 -0.783870	 1.330946	 -1.214819	 -0.795309	 -0.217593	 0.641294	 -0.575035	 0.459053	 2
1462091847.817	 11	 -0.811357	 1.787602	 -0.537636	 1.361256	 -1.222290	 -0.780488	 -0.216365	 0.646273	 -0.576072	 0.451285	 2
1462091847.827	 11	 -1.427928	 2.223802	 -0.183967	 1.416108	 -1.227165	 -0.745033	 -0.213868	 0.654451	 -0.574835	 0.442175	 2
1462091847.837	 11	 -1.901551	 2.352974	 -0.016646	 1.489539	 -1.229703	 -0.691937	 -0.211232	 0.664684	 -0.571480	 0.432419	 2
1462091847.847	 11	 -2.152976	 2.109131	 -0.156341	 1.570603	 -1.231579	 -0.629131	 -0.209846	 0.675228	 -0.566961	 0.422597	 2
1462091847.857	 11	 -2.222477	 1.884825	 -0.461565	 1.653293	 -1.234476	 -0.561895	 -0.210330	 0.685097	 -0.562249	 0.412649	 2
1462091847.867	 11	 -2.231958	 1.930591	 -0.754141	 1.738494	 -1.238511	 -0.491869	 -0.211903	 0.694493	 -0.557970	 0.401803	 2
1462091847.877	 11	 -2.202556	 2.203633	 -0.930905	 1.828472	 -1.242578	 -0.419215	 -0.213508	 0.703909	 -0.554249	 0.389530	 2
1462091847.887	 11	 -1.969840	 2.557224	 -1.064992	 1.919828	 -1.246303	 -0.348783	 -0.214254	 0.713171	 -0.551615	 0.375770	 2
1462091847.897	 11	 -1.534224	 2.956869	 -1.219602	 2.007649	 -1.250912	 -0.286337	 -0.213654	 0.721716	 -0.550931	 0.360490	 2
1462091847.907	 11	 -1.041215	 3.235709	 -1.289508	 2.088895	 -1.256930	 -0.234234	 -0.211599	 0.729160	 -0.552333	 0.344209	 2
1462091847.917	 11	 -0.576681	 3.487830	 -1.242182	 2.162019	 -1.264049	 -0.193364	 -0.207899	 0.735480	 -0.555529	 0.327468	 2
1462091847.927	 11	 -0.318115	 3.823678	 -1.026024	 2.229117	 -1.270831	 -0.162114	 -0.202128	 0.741304	 -0.559766	 0.310281	 2
1462091847.947	 12	 -0.342198	 4.075042	 -0.401070	 2.351758	 -1.275869	 -0.119310	 -0.184507	 0.753835	 -0.567147	 0.275743	 2
1462091847.957	 12	 -0.464610	 3.791424	 -0.253436	 2.406412	 -1.274680	 -0.102655	 -0.175085	 0.759976	 -0.569394	 0.259947	 2
1462091847.967	 12	 -0.691167	 3.285644	 -0.272133	 2.450001	 -1.271452	 -0.091937	 -0.166254	 0.765459	 -0.570557	 0.246772	 2
1462091847.977	 12	 -0.924918	 2.683596	 -0.372685	 2.504317	 -1.266687	 -0.064706	 -0.160551	 0.771076	 -0.569925	 0.234202	 2
1462091847.987	 12	 -0.966592	 2.141069	 -0.547892	 2.557564	 -1.261580	 -0.032632	 -0.157148	 0.776042	 -0.568533	 0.223236	 2
1462091847.997	 12	 -0.752702	 1.828429	 -0.599557	 2.605832	 -1.257888	 -0.001787	 -0.155017	 0.779947	 -0.567500	 0.213533	 2
1462091848.007	 12	 -0.565653	 1.877978	 -0.584739	 2.649039	 -1.255517	 0.024247	 -0.152694	 0.783132	 -0.567177	 0.204205	 2
1462091848.017	 12	 -0.532457	 1.957175	 -0.650368	 2.692931	 -1.253576	 0.049921	 -0.150146	 0.786119	 -0.567175	 0.194385	 2
1462091848.027	 12	 -0.586632	 1.983268	 -0.887318	 2.742510	 -1.251794	 0.081318	 -0.148315	 0.788980	 -0.567196	 0.183852	 2
1462091848.037	 12	 -0.716955	 1.741213	 -1.170846	 2.799101	 -1.249418	 0.121753	 -0.148108	 0.791725	 -0.566829	 0.173031	 2
1462091848.057	 13	 -0.978175	 0.514065	 -1.533823	 2.916006	 -1.240010	 0.223549	 -0.155195	 0.796363	 -0.563526	 0.155432	 2
1462091848.067	 13	 -0.982178	 -0.049252	 -1.334404	 2.962427	 -1.233199	 0.271839	 -0.161362	 0.798074	 -0.560744	 0.150357	 2
1462091848.077	 13	 -0.930697	 -0.561420	 -0.659662	 2.986166	 -1.225290	 0.301652	 -0.166693	 0.799693	 -0.557246	 0.148935	 2
1462091848.087	 13	 -0.923528	 -0.899770	 0.205724	 2.982044	 -1.216223	 0.306127	 -0.169731	 0.801612	 -0.552871	 0.151469	 2
1462091848.097	 13	 -0.846675	 -0.787648	 0.883923	 2.958172	 -1.206285	 0.289765	 -0.169806	 0.804004	 -0.548042	 0.156183	 2
1462091848.117	 14	 -0.456160	 0.016915	 1.253566	 2.899158	 -1.189480	 0.231713	 -0.162343	 0.808872	 -0.540876	 0.163780	 2
1462091848.127	 14	 -0.316413	 0.157715	 1.072480	 2.875686	 -1.183269	 0.204961	 -0.157708	 0.810825	 -0.538640	 0.166005	 2
1462091848.137	 14	 -0.196891	 0.179679	 0.776427	 2.858917	 -1.178772	 0.184906	 -0.153947	 0.812249	 -0.537147	 0.167406	 2
1462091848.147	 14	 -0.066574	 0.231362	 0.476294	 2.849078	 -1.176261	 0.171955	 -0.151238	 0.813113	 -0.536444	 0.167936	 2
1462091848.157	 14	 0.037434	 0.324918	 0.219410	 2.845518	 -1.175583	 0.164839	 -0.149273	 0.813538	 -0.536493	 0.167478	 2
1462091848.167	 14	 0.076386	 0.420850	 -0.029424	 2.848218	 -1.176156	 0.163483	 -0.148019	 0.813704	 -0.537044	 0.166012	 2
1462091848.177	 14	 0.127432	 0.598587	 -0.286129	 2.858079	 -1.177841	 0.168227	 -0.147361	 0.813696	 -0.538078	 0.163266	 2
1462091848.187	 14	 0.241829	 0.831678	 -0.510898	 2.875114	 -1.181114	 0.178293	 -0.146972	 0.813414	 -0.539873	 0.159041	 2
1462091848.197	 14	 0.413100	 1.070443	 -0.663637	 2.897933	 -1.186249	 0.192041	 -0.146525	 0.812748	 -0.542595	 0.153499	 2
1462091848.207	 14	 0.640462	 1.343874	 -0.706769	 2.924440	 -1.193526	 0.206876	 -0.145475	 0.811605	 -0.546418	 0.146838	 2
1462091848.217	 14	 0.854224	 1.600970	 -0.661476	 2.952637	 -1.202763	 0.220622	 -0.143418	 0.810012	 -0.551272	 0.139321	 2
1462091848.227	 14	 0.998381	 1.792457	 -0.598069	 2.981564	 -1.213344	 0.232877	 -0.140401	 0.808082	 -0.556835	 0.131245	 2
1462091848.237	 14	 1.078664	 2.051902	 -0.576104	 3.012746	 -1.224700	 0.245068	 -0.136538	 0.805956	 -0.562860	 0.122396	 2
1462091848.247	 14	 1.071797	 2.637919	 -0.583381	 3.050373	 -1.236063	 0.258837	 -0.131273	 0.803955	 -0.569193	 0.111552	 2
1462091848.257	 14	 1.056306	 3.446131	 -0.607698	 3.098273	 -1.247023	 0.275147	 -0.123835	 0.802240	 -0.575826	 0.097472	 2
1462091848.267	 14	 0.995860	 3.823284	 -0.691055	 -3.127498	 -1.257377	 0.295848	 -0.115103	 0.800558	 -0.582488	 0.081035	 2
1462091848.277	 14	 0.550134	 3.503948	 -0.759420	 -3.066894	 -1.263931	 0.321517	 -0.107289	 0.799440	 -0.587531	 0.064750	 2
1462091848.287	 14	 0.041136	 2.621305	 -0.504221	 -3.018967	 -1.264824	 0.341584	 -0.101144	 0.799531	 -0.589797	 0.051570	 2
1462091848.297	 14	 -0.033316	 1.305599	 0.049038	 -2.999632	 -1.264291	 0.344592	 -0.096682	 0.800000	 -0.590472	 0.044679	 2
1462091848.307	 14	 0.174798	 0.030821	 0.493642	 -3.008503	 -1.265990	 0.331782	 -0.094048	 0.799926	 -0.591003	 0.044593	 2
1462091848.317	 14	 0.369789	 -1.010396	 0.580305	 -3.033220	 -1.269946	 0.313907	 -0.093928	 0.799046	 -0.591821	 0.049513	 2
1462091848.327	 14	 0.437323	 -1.721141	 0.426028	 -3.062916	 -1.274658	 0.299251	 -0.096571	 0.797582	 -0.592659	 0.057380	 2
1462091848.337	 14	 0.398073	 -1.961737	 0.233360	 -3.090576	 -1.278959	 0.290580	 -0.101073	 0.795898	 -0.593261	 0.066123	 2
1462091848.347	 14	 0.234603	 -1.657031	 0.091609	 -3.112012	 -1.281857	 0.286651	 -0.105723	 0.794499	 -0.593437	 0.073664	 2
1462091848.357	 14	 0.042309	 -0.736950	 0.021913	 -3.123142	 -1.282707	 0.285550	 -0.108548	 0.793885	 -0.593220	 0.077809	 2
1462091848.367	 14	 0.000506	 0.552512	 0.055591	 -3.122294	 -1.282721	 0.284018	 -0.107687	 0.793997	 -0.593330	 0.077019	 2
1462091848.377	 14	 0.022965	 1.226896	 0.072328	 -3.113509	 -1.282953	 0.281390	 -0.104025	 0.794396	 -0.593985	 0.072764	 2
1462091848.387	 14	 -0.215574	 0.507927	 -0.019678	 -3.106242	 -1.281631	 0.280851	 -0.101717	 0.795073	 -0.593855	 0.069636	 2
1462091848.397	 14	 -0.535954	 -0.724110	 -0.494091	 -3.099471	 -1.276829	 0.292518	 -0.104592	 0.796120	 -0.591894	 0.070099	 2
1462091848.407	 14	 -0.788267	 -1.671343	 -0.827897	 -3.090119	 -1.269194	 0.317503	 -0.112201	 0.797333	 -0.588480	 0.073227	 2
1462091848.417	 14	 -0.811851	 -1.895902	 -0.856425	 -3.083313	 -1.260427	 0.344652	 -0.121560	 0.798542	 -0.584378	 0.077820	 2
1462091848.427	 14	 -0.310009	 -0.803167	 -0.744050	 -3.071983	 -1.255200	 0.368880	 -0.128271	 0.798976	 -0.582060	 0.079937	 2
1462091848.437	 14	 0.470993	 1.117155	 -0.651983	 -3.044375	 -1.257551	 0.390995	 -0.128884	 0.797957	 -0.583903	 0.075569	 2
1462091848.447	 14	 0.751176	 1.866799	 -0.859534	 -2.999605	 -1.263718	 0.419356	 -0.126556	 0.795990	 -0.588168	 0.066645	 2
1462091848.457	 14	 0.696056	 1.462344	 -1.360529	 -2.941300	 -1.268720	 0.463568	 -0.126427	 0.793596	 -0.592422	 0.057086	 2
1462091848.467	 14	 0.604766	 0.607219	 -1.834495	 -2.874151	 -1.270762	 0.525199	 -0.130654	 0.790856	 -0.595877	 0.049063	 2
1462091848.477	 14	 0.572417	 -0.190859	 -2.045200	 -2.806688	 -1.270317	 0.595844	 -0.138453	 0.787780	 -0.598618	 0.043463	 2
1462091848.487	 14	 0.600895	 -0.697365	 -2.065082	 -2.743683	 -1.268369	 0.668060	 -0.148258	 0.784413	 -0.600928	 0.040014	 2
1462091848.497	 14	 0.905652	 -0.716124	 -1.888862	 -2.683927	 -1.267614	 0.738472	 -0.157942	 0.780366	 -0.603873	 0.037696	 2
1462091848.507	 14	 1.624389	 -0.358021	 -1.644531	 -2.618388	 -1.272151	 0.811851	 -0.165687	 0.774584	 -0.609353	 0.035445	 2
1462091848.517	 14	 2.475829	 -0.143921	 -1.403761	 -2.539058	 -1.283506	 0.896579	 -0.171485	 0.766369	 -0.618179	 0.033554	 2
1462091848.527	 14	 3.153556	 -0.329252	 -1.166261	 -2.444056	 -1.299995	 0.998048	 -0.176450	 0.755895	 -0.629587	 0.033308	 2
1462091848.537	 14	 3.480247	 -0.976026	 -0.901224	 -2.337144	 -1.318805	 1.116752	 -0.181917	 0.743884	 -0.642049	 0.036275	 2
1462091848.547	 14	 3.458758	 -1.857271	 -0.696084	 -2.227824	 -1.335936	 1.246273	 -0.189278	 0.731600	 -0.653509	 0.043145	 2
1462091848.557	 14	 3.280028	 -2.477389	 -0.625694	 -2.116118	 -1.350220	 1.385018	 -0.198351	 0.719305	 -0.663664	 0.052981	 2
1462091848.567	 14	 3.058617	 -2.597880	 -0.609963	 -2.003602	 -1.359883	 1.526796	 -0.208166	 0.707510	 -0.672356	 0.063514	 2
1462091848.577	 14	 2.778356	 -2.336037	 -0.549667	 -1.892267	 -1.365112	 1.665301	 -0.217365	 0.696432	 -0.679992	 0.073114	 2
1462091848.587	 14	 2.400837	 -1.918279	 -0.442311	 -1.790281	 -1.367272	 1.790122	 -0.224937	 0.686591	 -0.686579	 0.081272	 2
1462091848.597	 14	 1.970727	 -1.556802	 -0.343547	 -1.704335	 -1.367325	 1.894625	 -0.230958	 0.678314	 -0.691959	 0.087980	 2
1462091848.607	 14	 1.472506	 -1.099706	 -0.580081	 -1.637592	 -1.364162	 1.975362	 -0.236121	 0.671635	 -0.696151	 0.092344	 2
1462091848.617	 14	 1.036472	 -0.473373	 -1.214177	 -1.589110	 -1.354030	 2.031407	 -0.241353	 0.666121	 -0.699677	 0.092102	 2
1462091848.627	 14	 0.811952	 0.213718	 -1.598029	 -1.551281	 -1.338854	 2.069830	 -0.245873	 0.661289	 -0.703243	 0.087702	 2
1462091848.637	 14	 0.746169	 0.915500	 -1.798749	 -1.515661	 -1.321021	 2.098851	 -0.248720	 0.656755	 -0.707398	 0.079997	 2
1462091848.647	 14	 0.730265	 1.476382	 -1.902099	 -1.479800	 -1.301785	 2.122008	 -0.249799	 0.652323	 -0.712178	 0.069845	 2
1462091848.657	 14	 0.745411	 1.787617	 -1.951557	 -1.444275	 -1.281566	 2.140973	 -0.249730	 0.647796	 -0.717364	 0.058167	 2
1462091848.667	 14	 0.815807	 1.723902	 -1.615982	 -1.409067	 -1.263346	 2.159340	 -0.248736	 0.643246	 -0.722588	 0.047250	 2
1462091848.677	 14	 0.943834	 1.275306	 -1.090522	 -1.374211	 -1.249709	 2.181205	 -0.247356	 0.638744	 -0.727507	 0.039442	 2
1462091848.687	 14	 1.181376	 0.597003	 -0.663005	 -1.339051	 -1.239897	 2.210114	 -0.246735	 0.633886	 -0.732151	 0.035563	 2
1462091848.697	 14	 1.440839	 -0.079259	 -0.091782	 -1.301533	 -1.234108	 2.249017	 -0.246981	 0.628537	 -0.736639	 0.036125	 2
1462091848.707	 14	 1.620989	 -0.512496	 0.372619	 -1.260300	 -1.232202	 2.297166	 -0.247374	 0.622947	 -0.741020	 0.040404	 2
1462091848.717	 14	 1.639923	 -0.711295	 0.540060	 -1.218119	 -1.231711	 2.349055	 -0.247931	 0.617320	 -0.745177	 0.046452	 2
1462091848.727	 14	 1.493520	 -0.691196	 0.465853	 -1.179506	 -1.230740	 2.397507	 -0.248668	 0.612014	 -0.748905	 0.052390	 2
1462091848.737	 14	 1.237490	 -0.482547	 0.240885	 -1.147839	 -1.228332	 2.436905	 -0.249442	 0.607339	 -0.752124	 0.056810	 2
1462091848.747	 14	 0.963047	 -0.205965	 0.136075	 -1.122734	 -1.225332	 2.466483	 -0.249725	 0.603561	 -0.754859	 0.059487	 2
1462091848.757	 14	 0.743317	 0.012980	 0.171998	 -1.101414	 -1.223255	 2.489541	 -0.249141	 0.600749	 -0.757156	 0.061194	 2
1462091848.767	 14	 0.575723	 0.176658	 0.234663	 -1.082255	 -1.222371	 2.508441	 -0.247769	 0.598741	 -0.759099	 0.062367	 2
1462091848.777	 14	 0.503744	 0.298149	 0.238552	 -1.063873	 -1.222072	 2.525116	 -0.245843	 0.597173	 -0.760895	 0.063125	 2
1462091848.787	 14	 0.568698	 0.365187	 0.122442	 -1.045239	 -1.220767	 2.541194	 -0.243856	 0.595409	 -0.762896	 0.063341	 2
1462091848.797	 14	 0.792020	 0.325150	 -0.028016	 -1.024681	 -1.217121	 2.559426	 -0.242289	 0.592752	 -0.765470	 0.063229	 2
1462091848.807	 14	 1.139654	 0.106599	 -0.104483	 -1.000416	 -1.210784	 2.583523	 -0.241580	 0.588668	 -0.768803	 0.063650	 2
1462091848.817	 14	 1.391974	 -0.042855	 -0.078229	 -0.972594	 -1.202618	 2.613510	 -0.241495	 0.583383	 -0.772738	 0.064973	 2
1462091848.827	 14	 1.447110	 0.065831	 -0.028673	 -0.942697	 -1.194013	 2.645353	 -0.241036	 0.577756	 -0.776967	 0.066502	 2
1462091848.837	 14	 1.378797	 0.347385	 -0.097930	 -0.913079	 -1.185025	 2.674348	 -0.239722	 0.572296	 -0.781348	 0.067128	 2
1462091848.847	 14	 1.240986	 0.680572	 -0.262020	 -0.886070	 -1.175367	 2.697079	 -0.237571	 0.567227	 -0.785777	 0.066093	 2
1462091848.857	 14	 1.074268	 0.950403	 -0.374226	 -0.862271	 -1.165496	 2.713260	 -0.234700	 0.562698	 -0.790097	 0.063510	 2
1462091848.867	 14	 0.897822	 1.108263	 -0.384009	 -0.841022	 -1.156379	 2.724644	 -0.231213	 0.558851	 -0.794116	 0.060043	 2
1462091848.877	 14	 0.625046	 0.718949	 -0.352219	 -0.825988	 -1.148971	 2.731527	 -0.228533	 0.555888	 -0.797191	 0.056983	 2
1462091848.887	 14	 0.143976	 -0.638508	 -0.293518	 -0.828780	 -1.144822	 2.731266	 -0.230342	 0.554369	 -0.797745	 0.056758	 2
1462091848.897	 14	 -0.307743	 -1.963439	 -0.137787	 -0.851620	 -1.144832	 2.724560	 -0.237577	 0.554488	 -0.795267	 0.060421	 2
1462091848.907	 14	 -0.565844	 -2.563124	 0.077361	 -0.884465	 -1.148338	 2.715443	 -0.247400	 0.555772	 -0.790861	 0.066708	 2
1462091848.917	 14	 -0.713807	 -2.632664	 0.254919	 -0.919862	 -1.154208	 2.705603	 -0.257457	 0.557784	 -0.785564	 0.074040	 2
1462091848.927	 14	 -0.901940	 -2.391542	 0.428257	 -0.954960	 -1.162329	 2.694197	 -0.266360	 0.560653	 -0.779812	 0.081323	 2
1462091848.937	 14	 -1.229156	 -2.003193	 0.607373	 -0.990628	 -1.173373	 2.678312	 -0.273435	 0.564935	 -0.773535	 0.087897	 2
1462091848.947	 14	 -1.789880	 -1.550524	 0.761411	 -1.031553	 -1.188176	 2.652048	 -0.278520	 0.571464	 -0.766275	 0.093158	 2
1462091848.957	 14	 -2.543216	 -1.127766	 0.819864	 -1.086085	 -1.206792	 2.606748	 -0.281996	 0.580977	 -0.757383	 0.096517	 2
1462091848.967	 14	 -3.194414	 -0.664742	 0.752042	 -1.159053	 -1.226979	 2.537307	 -0.284137	 0.593140	 -0.746967	 0.097423	 2
1462091848.977	 14	 -3.678151	 -0.348765	 0.568422	 -1.252753	 -1.245510	 2.442549	 -0.285553	 0.607035	 -0.735372	 0.095894	 2
1462091848.987	 14	 -4.025661	 0.105160	 0.395558	 -1.365625	 -1.259883	 2.324090	 -0.286215	 0.622027	 -0.722991	 0.091917	 2
1462091848.997	 14	 -4.194671	 1.113228	 0.441580	 -1.486103	 -1.270030	 2.189124	 -0.283792	 0.637912	 -0.710863	 0.084875	 2
1462091849.007	 14	 -4.120857	 2.593702	 0.608183	 -1.599201	 -1.276803	 2.047797	 -0.275860	 0.654230	 -0.700301	 0.073912	 2
1462091849.017	 14	 -3.830806	 4.002169	 0.759445	 -1.694142	 -1.281044	 1.910262	 -0.261963	 0.670039	 -0.692058	 0.058983	 2
1462091849.027	 14	 -3.467191	 4.771779	 0.845511	 -1.770806	 -1.283443	 1.782077	 -0.244146	 0.684505	 -0.685646	 0.041658	 2
1462091849.037	 14	 -3.144247	 4.842682	 0.926488	 -1.835529	 -1.284841	 1.663881	 -0.224935	 0.697357	 -0.680084	 0.024164	 2
1462091849.047	 14	 -2.939402	 4.275014	 1.050511	 -1.898307	 -1.285883	 1.552043	 -0.206518	 0.708914	 -0.674325	 0.008737	 2
1462091849.057	 14	 -2.828772	 3.179110	 1.188557	 -1.968681	 -1.286569	 1.442422	 -0.190745	 0.719682	 -0.667583	 -0.002664	 2
1462091849.067	 14	 -2.727935	 1.595005	 1.322145	 -2.052663	 -1.286559	 1.333917	 -0.179286	 0.729956	 -0.659510	 -0.008228	 2
1462091849.077	 14	 -2.592411	 -0.213543	 1.320122	 -2.150692	 -1.284768	 1.229279	 -0.173496	 0.739728	 -0.650117	 -0.007053	 2
1462091849.087	 14	 -2.393516	 -1.818020	 1.177701	 -2.255971	 -1.280147	 1.134524	 -0.173567	 0.748697	 -0.639786	 0.000130	 2
1462091849.097	 14	 -2.156467	 -2.810940	 1.048098	 -2.360088	 -1.273196	 1.053002	 -0.177865	 0.756596	 -0.629123	 0.011409	 2
1462091849.107	 14	 -1.897908	 -3.009219	 1.090895	 -2.458106	 -1.265770	 0.981867	 -0.183349	 0.763422	 -0.618849	 0.024416	 2
1462091849.117	 14	 -1.624428	 -2.549031	 1.152479	 -2.545524	 -1.258972	 0.918401	 -0.187516	 0.769274	 -0.609681	 0.036669	 2
1462091849.127	 14	 -1.311926	 -1.716848	 1.192672	 -2.618421	 -1.253442	 0.862144	 -0.189123	 0.774202	 -0.602236	 0.046423	 2
1462091849.137	 14	 -1.033139	 -0.797313	 1.238234	 -2.677012	 -1.249611	 0.811174	 -0.187690	 0.778388	 -0.596718	 0.053027	 2
1462091849.147	 14	 -0.975973	 -0.243112	 1.269537	 -2.727004	 -1.246158	 0.762138	 -0.184075	 0.782361	 -0.592244	 0.057231	 2
1462091849.157	 14	 -1.107600	 -0.153930	 1.340788	 -2.776500	 -1.241287	 0.711507	 -0.179671	 0.786667	 -0.587522	 0.060758	 2
1462091849.167	 14	 -1.244218	 -0.204183	 1.395864	 -2.827931	 -1.234447	 0.659128	 -0.175145	 0.791388	 -0.582126	 0.064494	 2
1462091849.177	 14	 -1.278309	 -0.190269	 1.394158	 -2.878011	 -1.226190	 0.608130	 -0.170604	 0.796225	 -0.576424	 0.068236	 2
1462091849.187	 14	 -1.210564	 -0.048232	 1.354391	 -2.923470	 -1.217465	 0.560739	 -0.165847	 0.800880	 -0.570944	 0.071484	 2
1462091849.197	 14	 -1.062237	 0.209497	 1.313933	 -2.962590	 -1.209261	 0.517485	 -0.160542	 0.805143	 -0.566151	 0.073779	 2
1462091849.207	 14	 -0.877219	 0.551162	 1.276068	 -2.995145	 -1.202226	 0.477705	 -0.154392	 0.808935	 -0.562307	 0.074825	 2
1462091849.217	 14	 -0.681621	 0.918993	 1.184001	 -3.020159	 -1.196590	 0.441960	 -0.147433	 0.812210	 -0.559515	 0.074305	 2
1462091849.227	 14	 -0.462178	 1.189524	 1.031138	 -3.037304	 -1.192644	 0.411385	 -0.140110	 0.814842	 -0.557825	 0.072333	 2
1462091849.237	 14	 -0.250659	 1.382276	 0.856305	 -3.047165	 -1.190546	 0.386397	 -0.132825	 0.816766	 -0.557192	 0.069189	 2
1462091849.247	 14	 -0.099149	 1.520974	 0.683623	 -3.050610	 -1.189879	 0.366600	 -0.125741	 0.818112	 -0.557364	 0.065021	 2
1462091849.257	 14	 0.011266	 1.531215	 0.527156	 -3.049337	 -1.190253	 0.351437	 -0.119155	 0.818978	 -0.558069	 0.060304	 2
1462091849.267	 14	 0.102136	 1.468143	 0.373373	 -3.044583	 -1.191427	 0.340552	 -0.113289	 0.819428	 -0.559135	 0.055415	 2
1462091849.277	 14	 0.226136	 1.452512	 0.174982	 -3.035260	 -1.193566	 0.334986	 -0.108253	 0.819399	 -0.560665	 0.050216	 2
1462091849.287	 14	 0.377184	 1.509178	 -0.016577	 -3.020042	 -1.196946	 0.335280	 -0.103862	 0.818820	 -0.562831	 0.044352	 2
1462091849.297	 14	 0.555011	 1.519549	 -0.127802	 -3.000397	 -1.201855	 0.340003	 -0.099889	 0.817644	 -0.565712	 0.038077	 2
1462091849.307	 14	 0.750656	 1.383759	 -0.146756	 -2.979604	 -1.208565	 0.346991	 -0.096312	 0.815834	 -0.569301	 0.032181	 2
1462091849.317	 14	 0.936394	 1.185234	 -0.167272	 -2.958982	 -1.217071	 0.355827	 -0.093301	 0.813396	 -0.573539	 0.027120	 2
1462091849.327	 14	 1.079546	 1.021815	 -0.204144	 -2.937563	 -1.226974	 0.367350	 -0.090917	 0.810421	 -0.578303	 0.022739	 2
1462091849.337	 14	 1.173280	 0.984313	 -0.204243	 -2.915161	 -1.237781	 0.380726	 -0.088778	 0.807089	 -0.583417	 0.018710	 2
1462091849.347	 14	 1.326882	 1.229262	 -0.244866	 -2.888083	 -1.249653	 0.397192	 -0.086240	 0.803333	 -0.589087	 0.013966	 2
1462091849.357	 14	 1.697277	 1.786875	 -0.349479	 -2.849132	 -1.264098	 0.420993	 -0.082597	 0.798576	 -0.596156	 0.007161	 2
1462091849.367	 14	 1.801584	 1.849339	 -0.493683	 -2.796923	 -1.280045	 0.455446	 -0.078628	 0.792921	 -0.604229	 -0.001163	 2
1462091849.377	 14	 0.806098	 0.471170	 -0.418974	 -2.760414	 -1.288965	 0.484667	 -0.077874	 0.789311	 -0.609010	 -0.005454	 2
1462091849.387	 14	 -0.749331	 0.091917	 -0.105218	 -2.758817	 -1.284420	 0.485465	 -0.078360	 0.790492	 -0.607404	 -0.006523	 2
1462091849.397	 14	 -0.975784	 0.476569	 0.191286	 -2.771168	 -1.275646	 0.468729	 -0.076720	 0.793531	 -0.603622	 -0.007992	 2
1462091849.407	 14	 -0.581342	 0.692607	 0.367845	 -2.782583	 -1.270387	 0.449771	 -0.073349	 0.795703	 -0.601148	 -0.009916	 2
1462091849.417	 14	 -0.209032	 0.340302	 0.483887	 -2.795027	 -1.269165	 0.431969	 -0.070162	 0.796734	 -0.600152	 -0.010476	 2
1462091849.427	 14	 0.075305	 -0.103277	 0.591321	 -2.812150	 -1.271168	 0.413986	 -0.067880	 0.796893	 -0.600231	 -0.008786	 2
1462091849.437	 14	 0.280772	 -0.433610	 0.589655	 -2.831883	 -1.275234	 0.397166	 -0.066611	 0.796412	 -0.601049	 -0.005464	 2
1462091849.447	 14	 0.462037	 -0.671509	 0.564548	 -2.851794	 -1.280955	 0.382709	 -0.066186	 0.795337	 -0.602542	 -0.001201	 2
1462091849.457	 14	 0.503399	 -0.812344	 0.667322	 -2.875836	 -1.287486	 0.366043	 -0.066101	 0.794035	 -0.604254	 0.004072	 2
1462091849.467	 14	 0.596235	 -0.260591	 0.815526	 -2.901763	 -1.294906	 0.343650	 -0.064307	 0.792571	 -0.606322	 0.008375	 2
1462091849.477	 14	 0.663454	 0.419879	 0.809549	 -2.922257	 -1.303210	 0.319462	 -0.060174	 0.790831	 -0.608988	 0.009965	 2
1462091849.487	 14	 0.379718	 0.266108	 0.757301	 -2.942713	 -1.309472	 0.294559	 -0.056027	 0.789617	 -0.610938	 0.011026	 2
1462091849.497	 14	 -0.235313	 -0.503034	 0.781077	 -2.974671	 -1.310122	 0.264522	 -0.053872	 0.790046	 -0.610503	 0.014529	 2
1462091849.507	 14	 -0.700538	 -1.093674	 0.693305	 -3.014468	 -1.305319	 0.233494	 -0.054042	 0.791963	 -0.607827	 0.020476	 2
1462091849.517	 14	 -1.031098	 -0.818061	 0.432307	 -3.045915	 -1.296326	 0.210687	 -0.055018	 0.794904	 -0.603698	 0.025497	 2
1462091849.527	 14	 -1.025495	 -0.095606	 0.177869	 -3.060045	 -1.286050	 0.198786	 -0.055024	 0.798099	 -0.599401	 0.026989	 2
1462091849.537	 14	 -0.755151	 0.456451	 0.146548	 -3.063645	 -1.277801	 0.191837	 -0.053694	 0.800680	 -0.596117	 0.025932	 2
1462091849.547	 14	 0.195091	 1.985489	 0.324090	 -3.057441	 -1.277262	 0.181861	 -0.047874	 0.801165	 -0.596176	 0.020447	 2
1462091849.557	 14	 0.936517	 2.735249	 0.172207	 -3.036374	 -1.285411	 0.176335	 -0.038992	 0.799040	 -0.599916	 0.010773	 2
1462091849.567	 14	 0.960913	 2.267225	 -0.115853	 -3.006293	 -1.295142	 0.182295	 -0.031819	 0.796136	 -0.604280	 0.001094	 2
1462091849.577	 14	 0.862520	 1.434762	 -0.254897	 -2.976797	 -1.303476	 0.195807	 -0.027764	 0.793419	 -0.608012	 -0.006032	 2
1462091849.587	 14	 0.888807	 0.456088	 -0.265299	 -2.954328	 -1.311630	 0.211722	 -0.026682	 0.790687	 -0.611565	 -0.009533	 2
1462091849.597	 14	 0.972200	 -0.607004	 -0.306824	 -2.939716	 -1.320395	 0.230359	 -0.028926	 0.787746	 -0.615256	 -0.008944	 2
1462091849.607	 14	 1.024388	 -1.467126	 -0.385623	 -2.929783	 -1.329573	 0.253709	 -0.034330	 0.784600	 -0.619031	 -0.004919	 2
1462091849.617	 14	 1.023978	 -1.950485	 -0.451931	 -2.921694	 -1.338636	 0.281187	 -0.041824	 0.781358	 -0.622678	 0.001215	 2
1462091849.627	 14	 1.243294	 -1.736073	 -0.570145	 -2.906131	 -1.348730	 0.316033	 -0.049636	 0.777574	 -0.626791	 0.006971	 2
1462091849.637	 14	 1.854893	 -0.905123	 -0.725471	 -2.867441	 -1.363345	 0.367194	 -0.055784	 0.772027	 -0.633064	 0.009630	 2
1462091849.647	 14	 2.407722	 -0.189080	 -0.763054	 -2.799856	 -1.382883	 0.439590	 -0.059692	 0.764487	 -0.641804	 0.009168	 2
1462091849.657	 14	 2.363308	 -0.142869	 -0.715344	 -2.712863	 -1.402629	 0.528969	 -0.062662	 0.756431	 -0.651017	 0.007937	 2
1462091849.667	 14	 1.905477	 -0.525050	 -0.801241	 -2.618049	 -1.416995	 0.629468	 -0.066933	 0.749572	 -0.658485	 0.007710	 2
1462091849.677	 14	 1.776396	 -0.687863	 -0.864512	 -2.511669	 -1.427293	 0.743661	 -0.072229	 0.743347	 -0.664948	 0.007945	 2
1462091849.687	 14	 1.819383	 -0.845447	 -0.870616	 -2.389507	 -1.435733	 0.875103	 -0.078045	 0.736936	 -0.671385	 0.008688	 2
1462091849.697	 14	 1.761883	 -1.032576	 -0.884646	 -2.256148	 -1.441481	 1.019605	 -0.084529	 0.730524	 -0.677560	 0.010068	 2
1462091849.707	 14	 1.679505	 -1.089652	 -0.868473	 -2.119928	 -1.444180	 1.167908	 -0.091317	 0.724304	 -0.683305	 0.011793	 2
1462091849.717	 14	 1.640894	 -0.954031	 -0.809324	 -1.984864	 -1.444503	 1.314127	 -0.097616	 0.718199	 -0.688827	 0.013345	 2
1462091849.727	 14	 1.633929	 -0.675933	 -0.743795	 -1.851790	 -1.442922	 1.455856	 -0.102818	 0.712117	 -0.694345	 0.014224	 2
1462091849.737	 14	 1.619503	 -0.396741	 -0.677126	 -1.723079	 -1.439645	 1.590301	 -0.106765	 0.706060	 -0.699912	 0.014297	 2
1462091849.747	 14	 1.575737	 -0.218596	 -0.622865	 -1.603500	 -1.434788	 1.713544	 -0.109785	 0.700117	 -0.705402	 0.013832	 2
1462091849.757	 14	 1.522929	 -0.129921	 -0.589607	 -1.496243	 -1.428492	 1.823325	 -0.112281	 0.694342	 -0.710711	 0.013083	 2
1462091849.767	 14	 1.501675	 -0.129695	 -0.567039	 -1.400645	 -1.420972	 1.921207	 -0.114605	 0.688642	 -0.715881	 0.012328	 2
1462091849.777	 14	 1.515154	 -0.228518	 -0.548892	 -1.315042	 -1.412361	 2.009830	 -0.117119	 0.682881	 -0.720982	 0.011891	 2
1462091849.787	 14	 1.520815	 -0.399657	 -0.532416	 -1.239630	 -1.402817	 2.089848	 -0.120136	 0.677043	 -0.725972	 0.012056	 2
1462091849.797	 14	 1.497679	 -0.566462	 -0.516715	 -1.175025	 -1.392598	 2.160798	 -0.123721	 0.671212	 -0.730755	 0.012861	 2
1462091849.807	 14	 1.465184	 -0.667414	 -0.517371	 -1.120515	 -1.381849	 2.222802	 -0.127709	 0.665446	 -0.735306	 0.014056	 2
1462091849.817	 14	 1.436952	 -0.764171	 -0.524420	 -1.074819	 -1.370615	 2.276898	 -0.132056	 0.659732	 -0.739645	 0.015508	 2
1462091849.827	 14	 1.443624	 -0.936469	 -0.520753	 -1.036118	 -1.358966	 2.325488	 -0.136944	 0.653971	 -0.743817	 0.017445	 2
1462091849.837	 14	 1.502305	 -1.146337	 -0.543466	 -1.002575	 -1.346628	 2.371058	 -0.142628	 0.647954	 -0.747937	 0.020055	 2
1462091849.847	 14	 1.559028	 -1.309482	 -0.577451	 -0.973715	 -1.333354	 2.413802	 -0.149080	 0.641601	 -0.752055	 0.023156	 2
1462091849.857	 14	 1.573805	 -1.350948	 -0.569439	 -0.948661	 -1.319647	 2.453526	 -0.155803	 0.635068	 -0.756117	 0.026497	 2
1462091849.867	 14	 1.568949	 -1.273084	 -0.540963	 -0.925964	 -1.305931	 2.490427	 -0.162234	 0.628496	 -0.760123	 0.029771	 2
1462091849.877	 14	 1.555710	 -1.155900	 -0.520573	 -0.904920	 -1.292258	 2.524568	 -0.168147	 0.621934	 -0.764102	 0.032759	 2
1462091849.887	 14	 1.512620	 -1.044901	 -0.485061	 -0.885549	 -1.278853	 2.555919	 -0.173519	 0.615482	 -0.767994	 0.035484	 2
1462091849.897	 14	 1.391333	 -0.982712	 -0.465308	 -0.869499	 -1.266125	 2.583102	 -0.178514	 0.609391	 -0.771578	 0.037980	 2
1462091849.907	 14	 1.157415	 -1.031966	 -0.458401	 -0.859940	 -1.254685	 2.603759	 -0.183582	 0.604052	 -0.774461	 0.040372	 2
1462091849.917	 14	 0.851822	 -1.153034	 -0.409973	 -0.858368	 -1.245399	 2.617247	 -0.189022	 0.599822	 -0.776298	 0.042966	 2
1462091849.927	 14	 0.591445	 -1.233446	 -0.310404	 -0.862541	 -1.238588	 2.625715	 -0.194621	 0.596696	 -0.777153	 0.045924	 2
1462091849.937	 14	 0.425750	 -1.138743	 -0.224951	 -0.868692	 -1.233747	 2.631630	 -0.199796	 0.594384	 -0.777428	 0.048931	 2
1462091849.947	 14	 0.336195	 -0.967667	 -0.137318	 -0.874030	 -1.230243	 2.636675	 -0.204108	 0.592593	 -0.777499	 0.051662	 2
1462091849.957	 14	 0.340073	 -0.877873	 -0.073636	 -0.877326	 -1.227454	 2.642647	 -0.207742	 0.590976	 -0.777587	 0.054310	 2
1462091849.967	 14	 0.427504	 -0.867722	 -0.105210	 -0.879020	 -1.224167	 2.650024	 -0.211266	 0.589075	 -0.777894	 0.056914	 2
1462091849.977	 14	 0.515587	 -0.934251	 -0.150293	 -0.880106	 -1.219899	 2.658625	 -0.215104	 0.586717	 -0.778423	 0.059591	 2
1462091849.987	 14	 0.496150	 -1.023187	 -0.101926	 -0.881543	 -1.215711	 2.667731	 -0.219193	 0.584296	 -0.778868	 0.062589	 2
1462091849.997	 14	 0.352802	 -1.230079	 0.057261	 -0.884785	 -1.213321	 2.676714	 -0.223565	 0.582402	 -0.778721	 0.066481	 2
1462091850.007	 14	 0.129291	 -1.700415	 0.229616	 -0.893378	 -1.213570	 2.684264	 -0.229054	 0.581333	 -0.777435	 0.071976	 2
1462091850.017	 14	 -0.177783	 -2.266001	 0.433784	 -0.910405	 -1.217121	 2.688817	 -0.236258	 0.581337	 -0.774536	 0.079516	 2
1462091850.027	 14	 -0.542879	 -2.753221	 0.713794	 -0.936005	 -1.224942	 2.689599	 -0.244753	 0.582736	 -0.769789	 0.089109	 2
1462091850.037	 14	 -0.907039	 -3.263878	 0.989311	 -0.971037	 -1.237189	 2.685675	 -0.254451	 0.585525	 -0.763058	 0.100780	 2
1462091850.047	 14	 -1.303547	 -3.788752	 1.197835	 -1.018907	 -1.253377	 2.673766	 -0.265594	 0.589609	 -0.754155	 0.114331	 2
1462091850.057	 14	 -1.791605	 -4.191679	 1.318766	 -1.085202	 -1.272833	 2.647298	 -0.278148	 0.595083	 -0.742867	 0.129072	 2
1462091850.067	 14	 -2.449740	 -4.175486	 1.379001	 -1.177448	 -1.294847	 2.595086	 -0.291133	 0.602517	 -0.729129	 0.143476	 2
1462091850.077	 14	 -3.194376	 -3.498495	 1.445072	 -1.302718	 -1.318114	 2.503769	 -0.302440	 0.612715	 -0.713411	 0.155420	 2
1462091850.087	 14	 -3.743725	 -2.175138	 1.547430	 -1.461282	 -1.339853	 2.366667	 -0.309607	 0.625807	 -0.697075	 0.163081	 2
1462091850.097	 14	 -3.876167	 -0.306882	 1.717306	 -1.639365	 -1.357357	 2.192334	 -0.310274	 0.641082	 -0.682203	 0.165357	 2
1462091850.107	 14	 -3.676654	 1.754380	 1.942574	 -1.817090	 -1.370123	 1.998055	 -0.303026	 0.657628	 -0.670428	 0.161946	 2
1462091850.117	 14	 -3.453762	 3.613102	 2.114596	 -1.986107	 -1.378404	 1.793457	 -0.288327	 0.674864	 -0.661800	 0.153124	 2
1462091850.127	 14	 -3.338066	 5.038212	 2.143902	 -2.144959	 -1.381292	 1.583633	 -0.267933	 0.692363	 -0.655302	 0.139369	 2
1462091850.137	 14	 -3.265474	 5.729280	 2.134780	 -2.291295	 -1.378483	 1.377505	 -0.244319	 0.709478	 -0.649578	 0.122469	 2
1462091850.147	 14	 -3.144879	 5.701518	 2.168642	 -2.424194	 -1.371174	 1.183445	 -0.219803	 0.725533	 -0.643610	 0.105142	 2
1462091850.157	 14	 -2.923536	 5.109556	 2.176126	 -2.542446	 -1.360867	 1.008674	 -0.196335	 0.739932	 -0.637117	 0.089642	 2
1462091850.167	 14	 -2.607706	 4.066500	 2.058160	 -2.644514	 -1.348806	 0.859640	 -0.175849	 0.752223	 -0.630256	 0.077550	 2
1462091850.177	 14	 -2.273452	 2.735313	 1.815856	 -2.731070	 -1.335902	 0.739156	 -0.159920	 0.762317	 -0.623237	 0.069821	 2
1462091850.187	 14	 -2.047140	 1.220846	 1.483261	 -2.805264	 -1.322106	 0.646236	 -0.149661	 0.770567	 -0.615914	 0.066916	 2
1462091850.197	 14	 -1.938342	 -0.130232	 1.193709	 -2.871733	 -1.307175	 0.575613	 -0.144872	 0.777551	 -0.608044	 0.068618	 2
1462091850.207	 14	 -1.881892	 -1.126235	 1.005967	 -2.933372	 -1.291237	 0.520944	 -0.144168	 0.783710	 -0.599626	 0.073913	 2
1462091850.217	 14	 -1.800087	 -1.800448	 0.908391	 -2.991767	 -1.274959	 0.477284	 -0.146142	 0.789164	 -0.590900	 0.081855	 2
1462091850.227	 14	 -1.653567	 -2.147941	 0.863383	 -3.046810	 -1.259205	 0.441409	 -0.149525	 0.793877	 -0.582278	 0.091397	 2
1462091850.237	 14	 -1.439062	 -2.138017	 0.852016	 -3.097302	 -1.244866	 0.411010	 -0.153113	 0.797806	 -0.574277	 0.101329	 2
1462091850.247	 14	 -1.183224	 -1.770548	 0.880918	 3.140968	 -1.232564	 0.383408	 -0.155658	 0.801050	 -0.567368	 0.110379	 2
1462091850.257	 14	 -0.930719	 -1.217888	 0.925427	 3.102360	 -1.222469	 0.356839	 -0.156391	 0.803787	 -0.561809	 0.117638	 2
1462091850.267	 14	 -0.755009	 -0.643841	 0.954817	 3.069928	 -1.214038	 0.330663	 -0.155247	 0.806269	 -0.557439	 0.122843	 2
1462091850.277	 14	 -0.724951	 -0.146228	 0.945331	 3.043832	 -1.206025	 0.305574	 -0.152589	 0.808847	 -0.553725	 0.125984	 2
1462091850.287	 14	 -0.794928	 0.211053	 0.904502	 3.023774	 -1.197335	 0.282671	 -0.149013	 0.811758	 -0.550104	 0.127397	 2
1462091850.297	 14	 -0.872944	 0.450275	 0.860514	 3.008662	 -1.187772	 0.262139	 -0.144924	 0.814992	 -0.546367	 0.127545	 2
1462091850.307	 14	 -0.913164	 0.652406	 0.703947	 2.999315	 -1.177737	 0.245543	 -0.140761	 0.818388	 -0.542607	 0.126509	 2
1462091850.317	 14	 -0.857516	 0.848661	 0.509188	 2.997456	 -1.168297	 0.234846	 -0.136910	 0.821635	 -0.539233	 0.124093	 2
1462091850.327	 14	 -0.734860	 1.054686	 0.515366	 2.998522	 -1.159962	 0.225080	 -0.132619	 0.824657	 -0.536434	 0.120793	 2
1462091850.337	 14	 -0.569622	 1.147567	 0.629894	 2.998521	 -1.153038	 0.212644	 -0.127483	 0.827364	 -0.534285	 0.117284	 2
1462091850.347	 14	 -0.373109	 1.012297	 0.829419	 2.993217	 -1.147703	 0.195207	 -0.121660	 0.829599	 -0.532735	 0.114707	 2
1462091850.357	 14	 -0.192223	 0.845244	 0.893433	 2.983323	 -1.144029	 0.174737	 -0.115767	 0.831250	 -0.531775	 0.113301	 2
1462091850.367	 14	 -0.055203	 0.781458	 0.806385	 2.973655	 -1.141800	 0.155321	 -0.110235	 0.832407	 -0.531388	 0.112134	 2
1462091850.377	 14	 0.120765	 0.582661	 0.744386	 2.963349	 -1.141189	 0.136950	 -0.105315	 0.832986	 -0.531603	 0.111538	 2
1462091850.387	 14	 0.382019	 0.384509	 0.659270	 2.951761	 -1.142999	 0.119479	 -0.101162	 0.832751	 -0.532740	 0.111719	 2
1462091850.397	 14	 0.711039	 0.301017	 0.572499	 2.939288	 -1.147988	 0.102389	 -0.097511	 0.831546	 -0.535168	 0.112330	 2
1462091850.407	 14	 1.077013	 0.377860	 0.463451	 2.927332	 -1.156607	 0.085517	 -0.093982	 0.829331	 -0.539146	 0.112688	 2
1462091850.417	 14	 1.396942	 0.677935	 0.318514	 2.918556	 -1.168717	 0.069514	 -0.090160	 0.826251	 -0.544681	 0.111816	 2
1462091850.427	 14	 1.654733	 1.183208	 0.137660	 2.916063	 -1.183829	 0.055518	 -0.085647	 0.822543	 -0.551602	 0.108734	 2
1462091850.437	 14	 1.900881	 1.774103	 -0.121162	 2.923523	 -1.201865	 0.045977	 -0.080358	 0.818280	 -0.559843	 0.102650	 2
1462091850.447	 14	 2.223651	 2.104095	 -0.392671	 2.940640	 -1.223418	 0.042392	 -0.074854	 0.813135	 -0.569502	 0.094210	 2
1462091850.457	 14	 2.661877	 2.011608	 -0.648867	 2.964162	 -1.249530	 0.045382	 -0.070139	 0.806527	 -0.580826	 0.085063	 2
1462091850.467	 14	 2.940756	 1.369922	 -0.874682	 2.990512	 -1.279456	 0.056590	 -0.067667	 0.798376	 -0.593323	 0.077362	 2
1462091850.477	 14	 2.511094	 -0.100010	 -0.904869	 3.012697	 -1.307219	 0.076297	 -0.069348	 0.790176	 -0.604402	 0.074235	 2
1462091850.487	 14	 0.988171	 -1.868316	 -0.428470	 3.013342	 -1.322352	 0.092087	 -0.075561	 0.785002	 -0.609806	 0.078729	 2
1462091850.497	 14	 -0.288222	 -2.506876	 0.320603	 2.983659	 -1.321496	 0.086404	 -0.082359	 0.784248	 -0.608534	 0.088646	 2
1462091850.507	 14	 -0.322165	 -2.496030	 0.629005	 2.939247	 -1.316819	 0.066365	 -0.087871	 0.784438	 -0.605745	 0.100039	 2
1462091850.517	 14	 0.123532	 -2.196780	 0.714235	 2.889920	 -1.315341	 0.039304	 -0.092132	 0.783501	 -0.604373	 0.111225	 2
1462091850.527	 14	 0.375658	 -1.270805	 0.756893	 2.843441	 -1.316467	 0.006968	 -0.093580	 0.781979	 -0.604523	 0.119600	 2
1462091850.537	 14	 0.364038	 -0.375804	 0.528723	 2.810745	 -1.318253	 -0.020767	 -0.092747	 0.780741	 -0.605385	 0.123897	 2
1462091850.547	 14	 0.162279	 0.074768	 0.245851	 2.796948	 -1.319306	 -0.035075	 -0.091416	 0.780224	 -0.606049	 0.124888	 2
1462091850.557	 14	 -0.087577	 -0.236711	 0.313336	 2.785942	 -1.318107	 -0.045166	 -0.090724	 0.780353	 -0.605716	 0.126198	 2
1462091850.567	 14	 -0.226256	 -0.638855	 0.536743	 2.766057	 -1.314469	 -0.059993	 -0.090662	 0.780840	 -0.604354	 0.129714	 2
1462091850.577	 14	 -0.071663	 -0.768220	 0.653559	 2.738051	 -1.310877	 -0.081220	 -0.090514	 0.781017	 -0.603100	 0.134503	 2
1462091850.587	 14	 0.075830	 -1.155958	 0.632680	 2.704917	 -1.308841	 -0.104901	 -0.091060	 0.780412	 -0.602441	 0.140465	 2
1462091850.597	 14	 -0.208827	 -1.748841	 0.601932	 2.670578	 -1.305145	 -0.123903	 -0.093585	 0.779882	 -0.600816	 0.148479	 2
1462091850.607	 14	 -0.650964	 -2.108612	 0.679169	 2.638452	 -1.297278	 -0.135989	 -0.097590	 0.780256	 -0.597213	 0.158160	 2
1462091850.617	 14	 -0.960656	 -2.000705	 0.767065	 2.610610	 -1.285768	 -0.143469	 -0.101541	 0.781616	 -0.592066	 0.168001	 2
1462091850.627	 14	 -0.854495	 -1.378278	 0.693066	 2.590139	 -1.274171	 -0.148672	 -0.104056	 0.783361	 -0.587058	 0.175727	 2
1462091850.637	 14	 -0.194283	 -0.652732	 0.542731	 2.572605	 -1.267829	 -0.158195	 -0.104618	 0.784046	 -0.584586	 0.180515	 2
1462091850.647	 14	 0.496053	 0.360873	 0.379893	 2.556129	 -1.268507	 -0.176420	 -0.102391	 0.783313	 -0.585639	 0.181560	 2
1462091850.657	 14	 0.593871	 0.985785	 0.351818	 2.544606	 -1.271449	 -0.197608	 -0.097899	 0.782535	 -0.588079	 0.179495	 2
1462091850.667	 14	 0.457212	 0.910321	 0.157271	 2.539209	 -1.274295	 -0.213463	 -0.093706	 0.782045	 -0.590294	 0.176574	 2
1462091850.677	 14	 0.250870	 0.243430	 -0.220155	 2.541434	 -1.277494	 -0.215661	 -0.092666	 0.781478	 -0.591780	 0.174643	 2
1462091850.687	 14	 0.272606	 -0.586005	 -0.479582	 2.544610	 -1.281891	 -0.208332	 -0.095236	 0.780219	 -0.592924	 0.175011	 2
1462091850.697	 14	 0.537014	 -1.120293	 -0.714930	 2.543942	 -1.289430	 -0.198466	 -0.100380	 0.777620	 -0.594823	 0.177247	 2
1462091850.707	 14	 0.764977	 -1.336652	 -0.830833	 2.540670	 -1.299931	 -0.188464	 -0.106757	 0.773918	 -0.597653	 0.180181	 2
1462091850.717	 14	 0.945047	 -1.435758	 -0.784298	 2.531780	 -1.311894	 -0.182950	 -0.113281	 0.769483	 -0.601077	 0.183764	 2
1462091850.727	 14	 1.098427	 -1.343058	 -0.699510	 2.516815	 -1.324686	 -0.184085	 -0.119229	 0.764584	 -0.605001	 0.187535	 2
1462091850.737	 14	 1.279314	 -1.016949	 -0.684195	 2.498466	 -1.338675	 -0.191664	 -0.124006	 0.759385	 -0.609678	 0.190393	 2
1462091850.747	 14	 1.483348	 -0.743177	 -0.689819	 2.476179	 -1.354221	 -0.206259	 -0.127708	 0.753798	 -0.615244	 0.192234	 2
1462091850.757	 14	 1.644121	 -0.567335	 -0.723687	 2.448355	 -1.371222	 -0.228498	 -0.130698	 0.747773	 -0.621585	 0.193354	 2
1462091850.767	 14	 1.638638	 -0.569693	 -0.757765	 2.416729	 -1.388642	 -0.255015	 -0.133647	 0.741580	 -0.628087	 0.194174	 2
1462091850.777	 14	 1.474372	 -0.715475	 -0.833361	 2.385680	 -1.405391	 -0.279860	 -0.137238	 0.735575	 -0.634068	 0.195072	 2
1462091850.787	 14	 1.263484	 -1.016407	 -0.908928	 2.359055	 -1.421014	 -0.297284	 -0.142211	 0.729853	 -0.639091	 0.196606	 2
1462091850.797	 14	 1.076045	 -1.338551	 -0.966779	 2.337422	 -1.435693	 -0.306457	 -0.148597	 0.724319	 -0.643203	 0.198924	 2
1462091850.807	 14	 0.991908	 -1.465419	 -1.041830	 2.320927	 -1.449996	 -0.308441	 -0.155962	 0.718855	 -0.646735	 0.201636	 2
1462091850.817	 14	 1.072196	 -1.373459	 -1.088567	 2.303364	 -1.465003	 -0.312008	 -0.163315	 0.713189	 -0.650446	 0.203986	 2
1462091850.827	 14	 1.216955	 -1.234489	 -1.080009	 2.272623	 -1.480946	 -0.330078	 -0.170122	 0.707124	 -0.654688	 0.205959	 2
1462091850.837	 14	 1.286473	 -1.042670	 -1.001028	 2.218198	 -1.496945	 -0.373762	 -0.175988	 0.700913	 -0.659305	 0.207525	 2
1462091850.847	 14	 1.245344	 -0.814060	 -0.880243	 2.131430	 -1.511589	 -0.451915	 -0.180758	 0.695024	 -0.663860	 0.208706	 2
1462091850.857	 14	 1.200293	 -0.531028	 -0.736537	 1.993275	 -1.524156	 -0.584280	 -0.184168	 0.689667	 -0.668310	 0.209294	 2
1462091850.867	 14	 1.179250	 -0.372419	 -0.580342	 1.763930	 -1.533683	 -0.809788	 -0.186397	 0.684702	 -0.672652	 0.209709	 2
1462091850.877	 14	 1.147663	 -0.370495	 -0.474538	 1.427285	 -1.538994	 -1.143020	 -0.188090	 0.679962	 -0.676777	 0.210350	 2
1462091850.887	 14	 1.093990	 -0.474250	 -0.430275	 1.043189	 -1.539489	 -1.522862	 -0.189912	 0.675317	 -0.680576	 0.211415	 2
1462091850.897	 14	 1.020751	 -0.700916	 -0.329433	 0.724749	 -1.535652	 -1.835166	 -0.192177	 0.670757	 -0.683856	 0.213294	 2
1462091850.907	 14	 1.002460	 -0.769676	 -0.285152	 0.504123	 -1.529041	 -2.048347	 -0.194667	 0.666205	 -0.686803	 0.215818	 2
1462091850.917	 14	 0.970935	 -0.909825	 -0.263800	 0.352556	 -1.521305	 -2.191294	 -0.197530	 0.661640	 -0.689467	 0.218746	 2
1462091850.927	 14	 1.002735	 -1.017866	 -0.189413	 0.250381	 -1.512435	 -2.283731	 -0.200543	 0.656908	 -0.691995	 0.222255	 2
1462091850.937	 14	 1.041960	 -1.186119	 -0.054903	 0.189575	 -1.502556	 -2.333172	 -0.203651	 0.651953	 -0.694315	 0.226738	 2
1462091850.947	 14	 1.061053	 -1.309761	 0.063146	 0.156839	 -1.492065	 -2.353168	 -0.206768	 0.646842	 -0.696398	 0.232105	 2
1462091850.957	 14	 1.042330	 -1.526932	 0.175324	 0.140494	 -1.481506	 -2.354951	 -0.210159	 0.641628	 -0.698084	 0.238382	 2
1462091850.967	 14	 1.104449	 -1.555180	 0.265111	 0.135359	 -1.470375	 -2.344255	 -0.213548	 0.636184	 -0.699583	 0.245462	 2
1462091850.977	 14	 1.079399	 -1.449692	 0.281231	 0.132896	 -1.459155	 -2.331936	 -0.216454	 0.630820	 -0.701121	 0.252277	 2
1462091850.987	 14	 0.941965	 -1.352911	 0.224711	 0.128817	 -1.449124	 -2.322157	 -0.219276	 0.625887	 -0.702385	 0.258532	 2
1462091850.997	 14	 0.759479	 -1.282780	 0.141692	 0.120626	 -1.440911	 -2.317367	 -0.222265	 0.621537	 -0.703263	 0.264028	 2
1462091851.007	 14	 0.545880	 -1.258202	 0.071308	 0.109295	 -1.434838	 -2.316043	 -0.225641	 0.617835	 -0.703594	 0.268926	 2
1462091851.017	 14	 0.309098	 -1.194005	 0.028140	 0.097028	 -1.431127	 -2.316182	 -0.229295	 0.614934	 -0.703303	 0.273212	 2
1462091851.027	 14	 0.130208	 -1.108406	 0.026231	 0.086427	 -1.429448	 -2.315486	 -0.232957	 0.612825	 -0.702475	 0.276958	 2
1462091851.037	 14	 0.124207	 -1.037006	 0.041870	 0.077782	 -1.428277	 -2.313578	 -0.236383	 0.610998	 -0.701538	 0.280443	 2
1462091851.047	 14	 0.231821	 -0.902825	 0.108259	 0.073670	 -1.426229	 -2.308231	 -0.239120	 0.609085	 -0.700896	 0.283869	 2
1462091851.057	 14	 0.392639	 -0.779626	 0.148504	 0.073268	 -1.422597	 -2.300468	 -0.241022	 0.606859	 -0.700803	 0.287239	 2
1462091851.067	 14	 0.471288	 -0.650908	 0.183121	 0.075431	 -1.417879	 -2.291365	 -0.242236	 0.604465	 -0.701123	 0.290466	 2
1462091851.077	 14	 0.438166	 -0.515025	 0.280593	 0.083952	 -1.413190	 -2.277235	 -0.242716	 0.602402	 -0.701449	 0.293548	 2
1462091851.087	 14	 0.364174	 -0.447088	 0.378853	 0.098913	 -1.409021	 -2.257389	 -0.242711	 0.600791	 -0.701529	 0.296646	 2
1462091851.097	 14	 0.224807	 -0.327964	 0.615643	 0.126459	 -1.405786	 -2.225817	 -0.241941	 0.599991	 -0.701068	 0.299964	 2
1462091851.107	 14	 -0.008207	 -0.173287	 0.877026	 0.172087	 -1.404025	 -2.177429	 -0.240142	 0.600465	 -0.699750	 0.303519	 2
1462091851.117	 14	 -0.276702	 -0.055896	 1.115989	 0.235180	 -1.403940	 -2.112598	 -0.237580	 0.602329	 -0.697409	 0.307208	 2
1462091851.127	 14	 -0.660262	 0.115956	 1.338343	 0.318615	 -1.405777	 -2.028770	 -0.234304	 0.605888	 -0.693842	 0.310782	 2
1462091851.137	 14	 -1.159303	 0.218137	 1.586633	 0.429724	 -1.409846	 -1.918107	 -0.230627	 0.611529	 -0.688538	 0.314259	 2
1462091851.147	 14	 -1.491217	 0.387440	 1.918288	 0.576636	 -1.413419	 -1.772740	 -0.226043	 0.619041	 -0.681632	 0.317916	 2
1462091851.157	 14	 -1.541114	 0.397549	 1.972104	 0.739231	 -1.413664	 -1.612433	 -0.220946	 0.627186	 -0.674121	 0.321529	 2
1462091851.167	 14	 -1.472188	 0.319570	 1.953726	 0.893012	 -1.409474	 -1.459846	 -0.216103	 0.634774	 -0.666639	 0.325506	 2
1462091851.177	 14	 -1.686816	 0.712951	 1.992294	 1.046489	 -1.402350	 -1.310247	 -0.210494	 0.643217	 -0.658861	 0.328430	 2
1462091851.187	 14	 -1.886524	 1.218910	 2.160737	 1.204412	 -1.391222	 -1.161118	 -0.203079	 0.653273	 -0.650528	 0.329857	 2
1462091851.197	 14	 -1.829692	 1.562661	 2.358475	 1.348550	 -1.374542	 -1.029627	 -0.193738	 0.664059	 -0.642059	 0.330531	 2
1462091851.207	 14	 -1.573598	 1.807218	 2.598318	 1.462913	 -1.352232	 -0.930641	 -0.182402	 0.674579	 -0.634012	 0.331213	 2
1462091851.217	 14	 -1.176322	 1.841207	 2.898917	 1.543463	 -1.324873	 -0.866873	 -0.169095	 0.684164	 -0.626597	 0.332720	 2
1462091851.227	 14	 -0.777774	 1.765014	 3.113219	 1.594347	 -1.294274	 -0.832773	 -0.154432	 0.692362	 -0.619924	 0.335379	 2
1462091851.237	 14	 -0.425635	 1.555145	 3.355458	 1.623178	 -1.261250	 -0.819536	 -0.138877	 0.699062	 -0.613800	 0.339522	 2
1462091851.247	 14	 -0.206508	 1.407523	 3.620748	 1.638470	 -1.225516	 -0.818565	 -0.122397	 0.704601	 -0.607774	 0.345206	 2
1462091851.257	 14	 -0.143126	 1.217406	 3.683439	 1.648137	 -1.188707	 -0.821765	 -0.105830	 0.709369	 -0.601543	 0.351769	 2
1462091851.267	 14	 -0.072178	 0.891583	 3.662736	 1.653071	 -1.152082	 -0.827014	 -0.090022	 0.713164	 -0.595190	 0.359224	 2
1462091851.277	 14	 -0.061783	 0.668724	 3.589166	 1.655309	 -1.115997	 -0.832599	 -0.075060	 0.716175	 -0.588691	 0.367290	 2
1462091851.287	 14	 -0.040117	 0.456580	 3.384509	 1.655413	 -1.081661	 -0.838072	 -0.061334	 0.718397	 -0.582317	 0.375568	 2
1462091851.297	 14	 -0.037392	 0.413700	 3.046239	 1.655322	 -1.050329	 -0.842837	 -0.048921	 0.720138	 -0.576344	 0.383191	 2
1462091851.307	 14	 -0.079149	 0.563483	 2.564140	 1.657625	 -1.023480	 -0.846097	 -0.037885	 0.721893	 -0.571031	 0.389050	 2
1462091851.317	 14	 -0.143879	 0.827079	 2.073709	 1.664300	 -1.001580	 -0.847283	 -0.028059	 0.724137	 -0.566398	 0.392469	 2
1462091851.327	 14	 -0.027390	 0.825105	 1.848866	 1.670896	 -0.982670	 -0.849456	 -0.018944	 0.726197	 -0.562537	 0.394755	 2
1462091851.337	 14	 0.050493	 0.775451	 1.633508	 1.675630	 -0.965880	 -0.853245	 -0.010508	 0.727767	 -0.559393	 0.396643	 2
1462091851.347	 14	 0.031645	 0.618331	 1.373230	 1.679655	 -0.951634	 -0.856563	 -0.003319	 0.729051	 -0.556698	 0.398199	 2
1462091851.357	 14	 -0.045373	 0.326474	 1.136717	 1.682032	 -0.939754	 -0.858524	 0.002103	 0.729892	 -0.554257	 0.400066	 2
1462091851.367	 14	 -0.191162	 -0.137922	 0.986590	 1.682647	 -0.929473	 -0.857778	 0.005500	 0.730313	 -0.551638	 0.402874	 2
1462091851.377	 14	 -0.326978	 -0.568987	 0.889974	 1.680188	 -0.920093	 -0.854725	 0.006903	 0.730081	 -0.548761	 0.407180	 2
1462091851.387	 14	 -0.570119	 -0.737563	 0.866010	 1.678514	 -0.910914	 -0.848027	 0.007128	 0.730001	 -0.545163	 0.412122	 2
1462091851.397	 14	 -0.746773	 -1.061642	 0.838954	 1.676766	 -0.901702	 -0.838013	 0.006138	 0.729908	 -0.540831	 0.417969	 2
1462091851.407	 14	 -0.842239	 -1.522720	 0.726787	 1.671724	 -0.893313	 -0.826200	 0.003332	 0.729087	 -0.536278	 0.425238	 2
1462091851.417	 14	 -0.651283	 -1.897402	 0.617193	 1.661863	 -0.886181	 -0.815843	 -0.000635	 0.727155	 -0.532288	 0.433492	 2
1462091851.427	 14	 -0.316710	 -2.294415	 0.419814	 1.644150	 -0.881148	 -0.810136	 -0.005680	 0.723383	 -0.529761	 0.442761	 2
1462091851.437	 14	 -0.149266	 -2.732360	 0.376979	 1.619918	 -0.877368	 -0.807965	 -0.011563	 0.718024	 -0.528242	 0.453065	 2
1462091851.447	 14	 -0.446800	 -3.326562	 0.598916	 1.592049	 -0.871929	 -0.802642	 -0.018909	 0.711673	 -0.525490	 0.465859	 2
1462091851.457	 14	 -0.811989	 -3.827652	 0.873477	 1.563709	 -0.862278	 -0.791354	 -0.026914	 0.704961	 -0.520182	 0.481369	 2
1462091851.467	 14	 -1.032551	 -4.162582	 1.092928	 1.535402	 -0.847207	 -0.775188	 -0.034527	 0.697921	 -0.512201	 0.499364	 2
1462091851.477	 14	 -1.077209	 -4.307657	 1.310489	 1.506389	 -0.829429	 -0.757307	 -0.041707	 0.690310	 -0.502887	 0.518495	 2
1462091851.487	 14	 -1.026651	 -4.157508	 1.502217	 1.476679	 -0.815756	 -0.740300	 -0.049988	 0.682128	 -0.494497	 0.536353	 2
1462091851.497	 14	 -0.985549	 -3.746776	 1.690058	 1.450194	 -0.800480	 -0.723439	 -0.056599	 0.674468	 -0.485616	 0.553233	 2
1462091851.507	 14	 -0.970935	 -3.109075	 1.925004	 1.429665	 -0.783296	 -0.706242	 -0.060961	 0.668167	 -0.476165	 0.568422	 2
1462091851.517	 14	 -0.960162	 -2.399933	 2.183028	 1.416274	 -0.763775	 -0.688549	 -0.062751	 0.663690	 -0.466069	 0.581685	 2
1462091851.527	 14	 -0.911231	 -1.763081	 2.461364	 1.409233	 -0.741634	 -0.670829	 -0.061977	 0.660948	 -0.455376	 0.593245	 2
1462091851.537	 14	 -0.787108	 -1.226619	 2.713598	 1.406834	 -0.716769	 -0.654156	 -0.058715	 0.659561	 -0.444305	 0.603428	 2
1462091851.547	 14	 -0.550054	 -1.124941	 2.896857	 1.404838	 -0.689635	 -0.640030	 -0.053633	 0.658331	 -0.433279	 0.613182	 2
1462091851.557	 14	 -0.243544	 -1.436318	 3.056484	 1.397975	 -0.660427	 -0.629486	 -0.047584	 0.655617	 -0.422557	 0.623977	 2
1462091851.567	 14	 -0.007105	 -1.857386	 3.168806	 1.385169	 -0.629585	 -0.621761	 -0.041134	 0.650937	 -0.412073	 0.636226	 2
1462091851.577	 14	 0.050605	 -2.379037	 3.272157	 1.366802	 -0.597673	 -0.614682	 -0.035037	 0.644236	 -0.401379	 0.650098	 2
1462091851.587	 14	 0.003937	 -2.887357	 3.411712	 1.343800	 -0.564647	 -0.606234	 -0.029644	 0.635658	 -0.389875	 0.665626	 2
1462091851.597	 14	 0.041904	 -3.294095	 3.513107	 1.316581	 -0.530701	 -0.596794	 -0.024723	 0.625253	 -0.377761	 0.682454	 2
1462091851.607	 14	 0.184714	 -3.347583	 3.528418	 1.287568	 -0.496326	 -0.587629	 -0.019535	 0.613800	 -0.365651	 0.699405	 2
1462091851.617	 14	 0.394603	 -3.202417	 3.537533	 1.258845	 -0.461546	 -0.579599	 -0.013427	 0.602012	 -0.353909	 0.715646	 2
1462091851.627	 14	 0.597850	 -3.136753	 3.581136	 1.230434	 -0.425994	 -0.572708	 -0.006270	 0.589884	 -0.342488	 0.731231	 2
1462091851.637	 14	 0.874779	 -3.011113	 3.564974	 1.202151	 -0.389671	 -0.567431	 0.002022	 0.577345	 -0.331606	 0.746128	 2
1462091851.647	 14	 1.020904	 -2.960010	 3.484245	 1.173955	 -0.353455	 -0.563278	 0.010919	 0.564423	 -0.321341	 0.760294	 2
1462091851.657	 14	 1.097113	 -3.020424	 3.397758	 1.145372	 -0.317787	 -0.559298	 0.019873	 0.550984	 -0.311467	 0.773957	 2
1462091851.667	 14	 1.165518	 -3.246976	 3.424896	 1.114783	 -0.282214	 -0.555060	 0.028704	 0.536377	 -0.301748	 0.787670	 2
1462091851.677	 14	 1.197785	 -3.501629	 3.522427	 1.081902	 -0.245558	 -0.549476	 0.037605	 0.520389	 -0.291510	 0.801750	 2
1462091851.687	 14	 1.279925	 -3.702110	 3.483610	 1.046688	 -0.208868	 -0.543307	 0.046392	 0.503056	 -0.281332	 0.815864	 2
1462091851.697	 14	 1.422138	 -3.739808	 3.329617	 1.010351	 -0.172830	 -0.537667	 0.055250	 0.484897	 -0.271832	 0.829415	 2
1462091851.707	 14	 1.563471	 -3.711786	 3.144270	 0.973857	 -0.137793	 -0.532957	 0.064233	 0.466349	 -0.263252	 0.842075	 2
1462091851.717	 14	 1.729076	 -3.509455	 2.951808	 0.938615	 -0.103515	 -0.529401	 0.073630	 0.448003	 -0.255605	 0.853544	 2
1462091851.727	 14	 1.831684	 -3.214206	 2.640328	 0.905888	 -0.070845	 -0.527378	 0.083247	 0.430523	 -0.249176	 0.863499	 2
1462091851.737	 14	 1.850140	 -2.894179	 2.338337	 0.876208	 -0.040514	 -0.526617	 0.092682	 0.414292	 -0.243943	 0.871931	 2
1462091851.747	 14	 1.884166	 -2.712074	 2.090347	 0.848770	 -0.011998	 -0.526823	 0.101932	 0.398974	 -0.239659	 0.879200	 2
1462091851.757	 14	 2.029197	 -2.729388	 1.815022	 0.821633	 0.015303	 -0.528870	 0.111146	 0.383632	 -0.236661	 0.885700	 2
1462091851.777	 15	 2.675830	 -3.315797	 1.147426	 0.761629	 0.069075	 -0.543354	 0.130560	 0.349228	 -0.236611	 0.897223	 2
1462091851.787	 15	 2.999864	 -3.598650	 0.847822	 0.727281	 0.096846	 -0.556498	 0.141080	 0.329172	 -0.239856	 0.902337	 2
1462091851.797	 15	 3.091650	 -3.419639	 0.636602	 0.693923	 0.124687	 -0.571527	 0.151883	 0.309102	 -0.244251	 0.906493	 2
1462091851.807	 15	 3.000745	 -2.925513	 0.537547	 0.665435	 0.151747	 -0.586312	 0.162699	 0.291075	 -0.248640	 0.909386	 2
1462091851.817	 15	 3.011636	 -2.552027	 0.417299	 0.641556	 0.178312	 -0.601170	 0.173692	 0.274954	 -0.253045	 0.911153	 2
1462091851.827	 15	 3.080039	 -2.382263	 0.241367	 0.620509	 0.204742	 -0.617203	 0.184958	 0.259799	 -0.257985	 0.911997	 2
1462091851.837	 15	 3.085094	 -2.286830	 0.056768	 0.601116	 0.230649	 -0.634504	 0.196168	 0.245123	 -0.263627	 0.912104	 2
1462091851.847	 15	 2.986118	 -2.129982	 -0.061342	 0.583635	 0.255440	 -0.652183	 0.206970	 0.231234	 -0.269588	 0.911601	 2
1462091851.857	 15	 2.842986	 -1.945436	 -0.044523	 0.568174	 0.279291	 -0.668930	 0.217320	 0.218312	 -0.275188	 0.910705	 2
1462091851.867	 15	 2.679575	 -1.800906	 0.018979	 0.554657	 0.300594	 -0.684179	 0.226474	 0.206706	 -0.280382	 0.909598	 2
1462091851.877	 15	 2.419876	 -1.694498	 0.066989	 0.541577	 0.321730	 -0.697345	 0.235257	 0.195421	 -0.284684	 0.908526	 2
1462091851.887	 15	 2.089593	 -1.627174	 0.123779	 0.528663	 0.340973	 -0.708064	 0.242875	 0.184732	 -0.288212	 0.907645	 2
1462091851.897	 15	 1.793799	 -1.681483	 0.141835	 0.515035	 0.357828	 -0.716642	 0.249054	 0.174345	 -0.291280	 0.907046	 2
1462091851.907	 15	 1.549545	 -1.843812	 0.098755	 0.499640	 0.372438	 -0.723964	 0.253809	 0.163681	 -0.294396	 0.906709	 2
1462091851.917	 15	 1.284172	 -1.967708	 0.066874	 0.482484	 0.384707	 -0.730160	 0.257123	 0.152772	 -0.297629	 0.906623	 2
1462091851.927	 15	 0.977086	 -1.961068	 0.125030	 0.464373	 0.394569	 -0.734376	 0.259036	 0.142124	 -0.300486	 0.906868	 2
1462091851.937	 15	 0.660332	 -1.837638	 0.297327	 0.446060	 0.402293	 -0.735482	 0.259732	 0.132188	 -0.302299	 0.907569	 2
1462091851.947	 15	 0.388712	 -1.681082	 0.508972	 0.427913	 0.408315	 -0.733047	 0.259472	 0.123108	 -0.302739	 0.908773	 2
1462091851.957	 15	 0.226498	 -1.577446	 0.654161	 0.409903	 0.413219	 -0.727983	 0.258604	 0.114637	 -0.302128	 0.910330	 2
1462091851.967	 15	 0.158536	 -1.585071	 0.748469	 0.391494	 0.417635	 -0.721418	 0.257413	 0.106262	 -0.300951	 0.912072	 2
1462091851.977	 15	 0.127997	 -1.563149	 0.825673	 0.372718	 0.421909	 -0.713804	 0.256099	 0.097868	 -0.299361	 0.913903	 2
1462091851.997	 16	 0.125770	 -1.601273	 0.847719	 0.334393	 0.430032	 -0.696889	 0.253257	 0.080982	 -0.295549	 0.917580	 2
1462091852.007	 16	 0.157720	 -1.723634	 0.707753	 0.314427	 0.433840	 -0.689591	 0.251738	 0.072050	 -0.294299	 0.919144	 2
1462091852.017	 16	 0.193725	 -1.824250	 0.488022	 0.294251	 0.437240	 -0.684472	 0.250123	 0.062809	 -0.294117	 0.920320	 2
1462091852.027	 16	 0.232189	 -1.848368	 0.257249	 0.274646	 0.440259	 -0.681823	 0.248517	 0.053581	 -0.295036	 0.921044	 2
1462091852.047	 17	 0.384204	 -1.687492	 -0.083621	 0.239931	 0.446504	 -0.683063	 0.246204	 0.036346	 -0.299305	 0.921129	 2
1462091852.057	 17	 0.508436	 -1.521500	 -0.170551	 0.225491	 0.450784	 -0.685915	 0.246013	 0.028599	 -0.302008	 0.920571	 2
1462091852.077	 18	 0.791655	 -0.961974	 -0.193389	 0.205099	 0.463289	 -0.693617	 0.248642	 0.016080	 -0.306979	 0.918522	 2
1462091852.087	 18	 0.924926	 -0.623387	 -0.090151	 0.199512	 0.471791	 -0.696951	 0.251639	 0.011604	 -0.308482	 0.917269	 2
1462091852.097	 18	 1.048640	 -0.311047	 0.056622	 0.196600	 0.481806	 -0.698988	 0.255710	 0.008245	 -0.308930	 0.916028	 2
1462091852.107	 18	 1.155846	 -0.089202	 0.184579	 0.195574	 0.493187	 -0.699762	 0.260671	 0.005667	 -0.308441	 0.914813	 2
1462091852.117	 18	 1.248395	 0.019488	 0.249796	 0.195611	 0.505671	 -0.699821	 0.266280	 0.003471	 -0.307382	 0.913564	 2
1462091852.127	 18	 1.307147	 0.025749	 0.256803	 0.195890	 0.518860	 -0.699811	 0.272231	 0.001270	 -0.306184	 0.912217	 2
1462091852.137	 18	 1.301451	 -0.050812	 0.257206	 0.195627	 0.532195	 -0.699855	 0.278153	 -0.001212	 -0.305058	 0.910807	 2
1462091852.147	 18	 1.210554	 -0.106775	 0.276660	 0.194496	 0.544860	 -0.699557	 0.283632	 -0.003921	 -0.303948	 0.909479	 2
1462091852.157	 18	 1.059295	 -0.069972	 0.303898	 0.193164	 0.556230	 -0.698638	 0.288497	 -0.006401	 -0.302697	 0.908352	 2
1462091852.167	 18	 0.880687	 0.049881	 0.332147	 0.192421	 0.565937	 -0.696938	 0.292709	 -0.008199	 -0.301154	 0.907502	 2
1462091852.177	 18	 0.722435	 0.220436	 0.320191	 0.193060	 0.574014	 -0.694867	 0.296403	 -0.009023	 -0.299385	 0.906881	 2
1462091852.187	 18	 0.572637	 0.361290	 0.322806	 0.195144	 0.580632	 -0.692578	 0.299663	 -0.008896	 -0.297429	 0.906454	 2
1462091852.197	 18	 0.461837	 0.381987	 0.345278	 0.197347	 0.586077	 -0.689674	 0.302417	 -0.008412	 -0.295277	 0.906248	 2
1462091852.207	 18	 0.400606	 0.359291	 0.270997	 0.199604	 0.590720	 -0.687161	 0.304818	 -0.007816	 -0.293362	 0.906070	 2
1462091852.217	 18	 0.348873	 0.353246	 0.149894	 0.202450	 0.594623	 -0.685910	 0.306969	 -0.007015	 -0.291993	 0.905793	 2
1462091852.227	 18	 0.253352	 0.294542	 0.083037	 0.205352	 0.597566	 -0.685464	 0.308696	 -0.006144	 -0.291065	 0.905511	 2
1462091852.237	 18	 0.121256	 0.136294	 0.061399	 0.206957	 0.599230	 -0.685065	 0.309667	 -0.005645	 -0.290478	 0.905371	 2
1462091852.247	 18	 -0.043146	 -0.075111	 0.029956	 0.206469	 0.599322	 -0.684618	 0.309638	 -0.005813	 -0.290342	 0.905424	 2
1462091852.257	 18	 -0.258418	 -0.216129	 0.003874	 0.204245	 0.597367	 -0.684008	 0.308452	 -0.006386	 -0.290596	 0.905743	 2
1462091852.267	 18	 -0.503931	 -0.238725	 0.015393	 0.201181	 0.593058	 -0.682815	 0.306101	 -0.006843	 -0.290933	 0.906429	 2
1462091852.277	 18	 -0.735004	 -0.159000	 0.058629	 0.209602	 0.587101	 -0.687000	 0.304678	 -0.002630	 -0.292109	 0.906552	 2
1462091852.287	 18	 -0.900674	 -0.036834	 0.117694	 0.207096	 0.578850	 -0.683661	 0.300656	 -0.001825	 -0.291756	 0.908009	 2
1462091852.297	 18	 -0.962849	 0.051247	 0.211776	 0.204982	 0.569895	 -0.679163	 0.296368	 -0.000564	 -0.290865	 0.909705	 2
1462091852.307	 18	 -0.926217	 0.034899	 0.318947	 0.202486	 0.561289	 -0.673538	 0.292169	 0.000606	 -0.289464	 0.911508	 2
1462091852.317	 18	 -0.847013	 -0.012360	 0.433986	 0.198894	 0.553599	 -0.666852	 0.288209	 0.001247	 -0.287631	 0.913347	 2
1462091852.327	 18	 -0.696422	 -0.019962	 0.473101	 0.195149	 0.547067	 -0.659811	 0.284738	 0.001644	 -0.285529	 0.915093	 2
1462091852.337	 18	 -0.501270	 0.045645	 0.359042	 0.192293	 0.542406	 -0.654006	 0.282232	 0.001938	 -0.283683	 0.916442	 2
1462091852.347	 18	 -0.261673	 0.334875	 0.152889	 0.193237	 0.539608	 -0.650948	 0.281102	 0.003265	 -0.282390	 0.917184	 2
1462091852.357	 18	 0.047808	 0.665968	 0.027515	 0.198781	 0.539341	 -0.650282	 0.281761	 0.005946	 -0.281328	 0.917295	 2
1462091852.367	 18	 0.301512	 1.090387	 -0.011243	 0.208765	 0.541804	 -0.650892	 0.284273	 0.010029	 -0.279975	 0.916898	 2
1462091852.377	 18	 0.420893	 1.552360	 -0.059140	 0.224031	 0.545556	 -0.652432	 0.288097	 0.016178	 -0.278151	 0.916171	 2
1462091852.387	 18	 0.454294	 1.844764	 -0.057776	 0.242844	 0.549818	 -0.654365	 0.292631	 0.023793	 -0.275896	 0.915250	 2
1462091852.397	 18	 0.395405	 2.000478	 -0.022776	 0.263373	 0.553756	 -0.655945	 0.297229	 0.032281	 -0.273193	 0.914319	 2
1462091852.417	 19	 0.093752	 1.777571	 0.064103	 0.302349	 0.558030	 -0.656760	 0.304411	 0.049230	 -0.267242	 0.912958	 2
1462091852.427	 19	 -0.046532	 1.406089	 0.115156	 0.316737	 0.558222	 -0.655550	 0.306377	 0.055949	 -0.264470	 0.912720	 2
