% Gyrometer data recorded with 'snsrlog'
% 
% 
% Label description:
% 	 0: Default Label
% 	 1: still_drop
% 	 2: walk_drop
% 	 3: other
% 	 4: dtw_same
% 	 5: dtw_diff
% 	 6: delete
% 	 7: steal
% 
% Column description:
% 	 1: Seconds.milliseconds since 1970
% 	 2: Number of skipped measurements
% 	 3: Gyro X
% 	 4: Gyro Y
% 	 5: Gyro Z
% 	 6: Roll of the device
% 	 7: Pitch of the device
% 	 8: Yaw of the device
% 	 9: Quaternion X
% 	 10: Quaternion Y
% 	 11: Quaternion Z
% 	 12: Quaternion W
% 	 13: Label used for the current sample
% 
% 
1463629241.758	 0	 -0.102407	 1.407768	 -0.796727	 -0.011846	 0.347737	 -0.158411	 0.171987	 -0.019503	 -0.078950	 0.981737	 2
1463629241.768	 0	 0.083669	 1.408101	 -0.968866	 0.005406	 0.348112	 -0.168237	 0.172789	 -0.011898	 -0.082283	 0.981444	 2
1463629241.778	 0	 0.271225	 1.504083	 -1.150786	 0.024294	 0.350227	 -0.180056	 0.174577	 -0.003750	 -0.086417	 0.980837	 2
1463629241.788	 0	 0.336662	 1.636321	 -1.222597	 0.044715	 0.353112	 -0.193109	 0.176900	 0.004977	 -0.090974	 0.980003	 2
1463629241.798	 0	 0.238847	 1.909156	 -1.186168	 0.067568	 0.355175	 -0.206024	 0.179037	 0.014915	 -0.095219	 0.979110	 2
1463629241.808	 0	 0.007596	 2.158057	 -1.130682	 0.092805	 0.354981	 -0.218253	 0.180294	 0.026177	 -0.098942	 0.978274	 2
1463629241.818	 0	 -0.296149	 2.387268	 -1.033183	 0.119921	 0.351682	 -0.229226	 0.180223	 0.038643	 -0.101982	 0.977561	 2
1463629241.838	 1	 -0.752904	 2.547650	 -0.955242	 0.175842	 0.336480	 -0.247705	 0.176217	 0.065299	 -0.106731	 0.976367	 2
1463629241.848	 1	 -0.747091	 2.844640	 -0.919490	 0.205984	 0.327286	 -0.255780	 0.173664	 0.079940	 -0.108558	 0.975533	 2
1463629241.858	 1	 -0.589904	 3.353727	 -0.908661	 0.240728	 0.319046	 -0.263685	 0.171914	 0.096789	 -0.109945	 0.974161	 2
1463629241.868	 1	 -0.344342	 3.748306	 -0.812275	 0.279666	 0.312955	 -0.271167	 0.171511	 0.115552	 -0.110693	 0.972100	 2
1463629241.878	 1	 -0.249508	 4.021593	 -0.635772	 0.321099	 0.308520	 -0.277200	 0.172042	 0.135493	 -0.110434	 0.969457	 2
1463629241.898	 2	 -0.926181	 3.907483	 -0.513718	 0.404288	 0.292873	 -0.283090	 0.169533	 0.176470	 -0.107719	 0.963594	 2
1463629241.908	 2	 -1.410081	 3.504551	 -0.685912	 0.440651	 0.278041	 -0.283605	 0.164455	 0.195155	 -0.106600	 0.960992	 2
1463629241.928	 3	 -1.997264	 3.001453	 -1.218365	 0.503757	 0.235375	 -0.284945	 0.147702	 0.228846	 -0.107593	 0.956158	 2
1463629241.938	 3	 -1.876564	 3.019398	 -1.481426	 0.534454	 0.211682	 -0.287756	 0.138490	 0.245258	 -0.109912	 0.953199	 2
1463629241.948	 3	 -1.535073	 3.155478	 -1.645129	 0.566656	 0.189278	 -0.293115	 0.130399	 0.262069	 -0.113450	 0.949445	 2
1463629241.958	 3	 -1.046021	 3.175689	 -1.594850	 0.599970	 0.170299	 -0.300302	 0.124378	 0.278969	 -0.117540	 0.944929	 2
1463629241.968	 3	 -0.657136	 2.966724	 -1.506393	 0.631557	 0.155460	 -0.308608	 0.120521	 0.294596	 -0.121823	 0.940131	 2
1463629241.978	 3	 -0.636777	 2.711797	 -1.451391	 0.660569	 0.141738	 -0.316695	 0.117156	 0.308888	 -0.126112	 0.935392	 2
1463629241.988	 3	 -1.020688	 2.569117	 -1.481349	 0.687136	 0.125587	 -0.322490	 0.112292	 0.322338	 -0.130003	 0.930907	 2
1463629241.998	 3	 -1.622477	 2.497406	 -1.639839	 0.712664	 0.104093	 -0.325292	 0.104523	 0.335874	 -0.133644	 0.926500	 2
1463629242.008	 3	 -2.202668	 2.466165	 -1.782153	 0.737230	 0.077046	 -0.324654	 0.093644	 0.349517	 -0.136952	 0.922124	 2
1463629242.018	 3	 -2.591618	 2.684503	 -1.898232	 0.763145	 0.045932	 -0.321225	 0.080575	 0.364082	 -0.139941	 0.917261	 2
1463629242.028	 3	 -2.699697	 3.131047	 -1.965607	 0.793083	 0.013081	 -0.316256	 0.066776	 0.380454	 -0.142753	 0.911273	 2
1463629242.038	 3	 -2.545274	 3.756930	 -1.983509	 0.828977	 -0.019208	 -0.311068	 0.053697	 0.399204	 -0.145605	 0.903633	 2
1463629242.058	 4	 -1.373033	 5.824756	 -1.633430	 0.928607	 -0.071614	 -0.305472	 0.036449	 0.447173	 -0.151793	 0.880719	 2
1463629242.068	 4	 -0.486969	 7.143868	 -1.243064	 0.996629	 -0.086726	 -0.307348	 0.035461	 0.477698	 -0.154803	 0.864051	 2
1463629242.078	 4	 0.408506	 8.198094	 -0.855245	 1.075585	 -0.093965	 -0.313878	 0.040132	 0.511692	 -0.157847	 0.843591	 2
1463629242.088	 4	 1.188573	 8.916339	 -0.644332	 1.161987	 -0.095688	 -0.325953	 0.049505	 0.547448	 -0.161379	 0.819638	 2
1463629242.098	 4	 1.749560	 9.375601	 -0.740861	 1.253030	 -0.096493	 -0.343696	 0.061654	 0.583698	 -0.166225	 0.792379	 2
1463629242.108	 4	 2.166107	 9.695584	 -1.034595	 1.346971	 -0.100180	 -0.366186	 0.074936	 0.619645	 -0.172845	 0.761938	 2
1463629242.118	 4	 2.637016	 9.695072	 -1.501241	 1.441395	 -0.109278	 -0.393545	 0.088582	 0.654231	 -0.182016	 0.728701	 2
1463629242.128	 4	 3.035827	 9.403872	 -2.041370	 1.532599	 -0.125863	 -0.424626	 0.101547	 0.686109	 -0.194154	 0.693720	 2
1463629242.138	 4	 3.267173	 8.867780	 -2.538624	 1.618343	 -0.150194	 -0.457007	 0.113044	 0.714645	 -0.208767	 0.657966	 2
1463629242.148	 4	 3.237081	 8.047945	 -2.961638	 1.696050	 -0.181506	 -0.487400	 0.122044	 0.739285	 -0.224912	 0.622878	 2
1463629242.158	 4	 2.951085	 6.980564	 -3.303729	 1.763630	 -0.218126	 -0.512743	 0.127630	 0.759777	 -0.241523	 0.590014	 2
1463629242.168	 4	 2.495576	 5.649475	 -3.558341	 1.819346	 -0.257993	 -0.531069	 0.129195	 0.776039	 -0.257768	 0.560917	 2
1463629242.178	 4	 1.950644	 4.064027	 -3.723950	 1.861143	 -0.299099	 -0.541771	 0.126438	 0.787909	 -0.273194	 0.537195	 2
1463629242.188	 4	 1.360981	 2.410333	 -3.785361	 1.888324	 -0.339626	 -0.544988	 0.119417	 0.795570	 -0.287395	 0.519819	 2
1463629242.208	 5	 0.265817	 -0.323549	 -3.550811	 1.905447	 -0.413381	 -0.532765	 0.095251	 0.800821	 -0.310650	 0.503100	 2
1463629242.218	 5	 -0.155209	 -1.287824	 -3.369587	 1.900175	 -0.445450	 -0.519910	 0.079771	 0.799739	 -0.319451	 0.502002	 2
1463629242.228	 5	 -0.470554	 -1.988759	 -3.206039	 1.888891	 -0.474964	 -0.504150	 0.062850	 0.796944	 -0.326675	 0.504196	 2
1463629242.238	 5	 -0.693830	 -2.424927	 -3.015251	 1.873814	 -0.502174	 -0.486597	 0.045195	 0.792930	 -0.332504	 0.508587	 2
1463629242.248	 5	 -0.838964	 -2.615363	 -2.787686	 1.857056	 -0.527075	 -0.468217	 0.027554	 0.788202	 -0.337060	 0.514168	 2
1463629242.258	 5	 -0.926736	 -2.666374	 -2.524153	 1.839966	 -0.549511	 -0.449764	 0.010524	 0.783122	 -0.340446	 0.520294	 2
1463629242.268	 5	 -1.017244	 -2.815482	 -2.295614	 1.821972	 -0.569614	 -0.431278	 -0.005988	 0.777570	 -0.342731	 0.527148	 2
1463629242.278	 5	 -1.039745	 -2.761972	 -2.112675	 1.804066	 -0.588070	 -0.413041	 -0.021893	 0.771806	 -0.344236	 0.534170	 2
1463629242.288	 5	 -0.934443	 -2.555519	 -1.908110	 1.787334	 -0.605024	 -0.396324	 -0.036544	 0.766172	 -0.345394	 0.540691	 2
1463629242.298	 5	 -0.669476	 -2.272418	 -1.629619	 1.771477	 -0.620159	 -0.383077	 -0.049145	 0.760719	 -0.346675	 0.546542	 2
1463629242.308	 5	 -0.255975	 -2.002046	 -1.286462	 1.755353	 -0.632937	 -0.375402	 -0.058938	 0.755320	 -0.348503	 0.551873	 2
1463629242.318	 5	 0.215913	 -1.825198	 -0.909513	 1.737270	 -0.642992	 -0.374409	 -0.065713	 0.749659	 -0.351070	 0.557174	 2
1463629242.328	 5	 0.651408	 -1.643170	 -0.566304	 1.717019	 -0.650229	 -0.379931	 -0.069576	 0.743737	 -0.354353	 0.562538	 2
1463629242.338	 5	 0.887212	 -1.440760	 -0.279784	 1.696128	 -0.654875	 -0.389902	 -0.071130	 0.737911	 -0.357969	 0.567703	 2
1463629242.348	 5	 0.804617	 -1.263419	 -0.058933	 1.676680	 -0.656886	 -0.400321	 -0.071463	 0.732625	 -0.360901	 0.572629	 2
1463629242.358	 5	 0.523763	 -1.133408	 0.008667	 1.660487	 -0.657466	 -0.407882	 -0.071826	 0.728210	 -0.362681	 0.577073	 2
1463629242.368	 5	 0.220669	 -1.080883	 -0.057479	 1.647368	 -0.658060	 -0.411491	 -0.073097	 0.724512	 -0.363440	 0.581077	 2
1463629242.378	 5	 0.043925	 -1.148000	 -0.143957	 1.635585	 -0.659354	 -0.412415	 -0.075345	 0.721047	 -0.363681	 0.584936	 2
1463629242.388	 5	 -0.505861	 -1.578742	 -0.216716	 1.623794	 -0.661158	 -0.408257	 -0.079597	 0.717335	 -0.362570	 0.589608	 2
1463629242.398	 5	 -1.796383	 -2.601930	 -0.151055	 1.611925	 -0.662321	 -0.389876	 -0.088704	 0.712982	 -0.356983	 0.596952	 2
1463629242.408	 5	 -2.777981	 -3.647235	 0.069443	 1.598102	 -0.661246	 -0.357086	 -0.102407	 0.707310	 -0.346109	 0.607811	 2
1463629242.418	 5	 -2.894213	 -4.468552	 -0.006462	 1.577937	 -0.660359	 -0.320240	 -0.118482	 0.699129	 -0.333395	 0.621312	 2
1463629242.428	 5	 -2.505002	 -5.069738	 -0.176375	 1.548988	 -0.662013	 -0.287120	 -0.135285	 0.687821	 -0.321658	 0.636503	 2
1463629242.438	 5	 -2.068392	 -5.333165	 -0.098433	 1.512864	 -0.664128	 -0.259623	 -0.151108	 0.674069	 -0.310860	 0.652811	 2
1463629242.448	 5	 -1.679561	 -4.924808	 0.049057	 1.476142	 -0.665386	 -0.237171	 -0.164664	 0.660083	 -0.300928	 0.668295	 2
1463629242.458	 5	 -1.230937	 -4.059262	 0.198148	 1.443855	 -0.665271	 -0.219899	 -0.175059	 0.647729	 -0.292323	 0.681432	 2
1463629242.468	 5	 -0.764157	 -3.007271	 0.397842	 1.418251	 -0.663089	 -0.208254	 -0.181701	 0.638050	 -0.285397	 0.691683	 2
1463629242.478	 5	 -0.375167	 -1.931646	 0.598433	 1.400617	 -0.658364	 -0.201284	 -0.184662	 0.631600	 -0.279978	 0.698994	 2
1463629242.488	 5	 -0.112717	 -1.087528	 0.650896	 1.389974	 -0.652275	 -0.197786	 -0.184982	 0.627951	 -0.276000	 0.703763	 2
1463629242.498	 5	 -0.076457	 -0.730375	 0.488711	 1.383437	 -0.647067	 -0.195667	 -0.184602	 0.625792	 -0.273142	 0.706895	 2
1463629242.508	 5	 -0.194624	 -0.903154	 0.229152	 1.376740	 -0.644505	 -0.192971	 -0.185398	 0.623337	 -0.270828	 0.709740	 2
1463629242.518	 5	 -0.238168	 -1.394580	 0.059765	 1.365986	 -0.644028	 -0.189851	 -0.187638	 0.619251	 -0.268578	 0.713573	 2
1463629242.528	 5	 -0.154404	 -1.811992	 -0.118568	 1.349986	 -0.645083	 -0.187788	 -0.190812	 0.613259	 -0.266626	 0.718620	 2
1463629242.538	 5	 0.065302	 -1.849608	 -0.376614	 1.330765	 -0.648113	 -0.188715	 -0.194238	 0.606225	 -0.265964	 0.723897	 2
1463629242.548	 5	 0.280431	 -1.571765	 -0.549621	 1.311525	 -0.652522	 -0.193209	 -0.197129	 0.599406	 -0.266936	 0.728422	 2
1463629242.558	 5	 0.265302	 -1.260103	 -0.698993	 1.294767	 -0.658077	 -0.198845	 -0.199827	 0.593513	 -0.268847	 0.731801	 2
1463629242.568	 5	 0.150739	 -0.920020	 -0.929299	 1.281414	 -0.665942	 -0.204036	 -0.203133	 0.588679	 -0.271523	 0.733805	 2
1463629242.588	 6	 0.616996	 0.599048	 -1.148362	 1.270723	 -0.684866	 -0.221578	 -0.206792	 0.585465	 -0.281874	 0.731447	 2
1463629242.598	 6	 0.923795	 1.153418	 -1.139480	 1.271510	 -0.693252	 -0.236480	 -0.205564	 0.586816	 -0.289588	 0.727688	 2
1463629242.608	 6	 1.120866	 1.596851	 -1.219133	 1.274849	 -0.701477	 -0.254514	 -0.202956	 0.589420	 -0.298610	 0.722651	 2
1463629242.618	 6	 1.155456	 1.809503	 -1.361333	 1.279896	 -0.710796	 -0.274089	 -0.200011	 0.592718	 -0.308575	 0.716562	 2
1463629242.628	 6	 1.162395	 1.866515	 -1.563358	 1.285089	 -0.721975	 -0.294446	 -0.197465	 0.596027	 -0.319228	 0.709826	 2
1463629242.638	 6	 1.308765	 1.861292	 -1.784228	 1.288627	 -0.735092	 -0.317218	 -0.195147	 0.598873	 -0.330965	 0.702660	 2
1463629242.648	 6	 1.492056	 1.659042	 -1.879362	 1.288320	 -0.748890	 -0.343101	 -0.192754	 0.600639	 -0.343465	 0.695781	 2
1463629242.658	 6	 1.563022	 1.453465	 -2.038559	 1.283946	 -0.763638	 -0.371333	 -0.190724	 0.601199	 -0.356479	 0.689280	 2
1463629242.668	 6	 1.503571	 1.233101	 -2.236193	 1.276608	 -0.780258	 -0.400389	 -0.189743	 0.600795	 -0.369780	 0.682866	 2
1463629242.698	 7	 1.398014	 0.339170	 -2.494046	 1.231339	 -0.837561	 -0.490903	 -0.193827	 0.592456	 -0.409037	 0.666420	 2
1463629242.708	 7	 1.442672	 0.216423	 -2.389001	 1.209071	 -0.855317	 -0.523824	 -0.195683	 0.587909	 -0.421542	 0.662098	 2
1463629242.688	 7	 1.340264	 0.561444	 -2.520251	 1.250531	 -0.818287	 -0.459625	 -0.191752	 0.596361	 -0.396183	 0.671285	 2
1463629242.718	 7	 1.365653	 0.083449	 -2.276597	 1.185342	 -0.871725	 -0.556608	 -0.197605	 0.583077	 -0.433320	 0.658184	 2
1463629242.728	 7	 1.415249	 -0.122288	 -2.173433	 1.158987	 -0.886603	 -0.590012	 -0.199571	 0.577648	 -0.444496	 0.654918	 2
1463629242.738	 7	 1.628165	 -0.463226	 -2.167801	 1.126279	 -0.899713	 -0.627161	 -0.201471	 0.570709	 -0.455698	 0.652718	 2
1463629242.748	 7	 1.692777	 -0.762546	 -2.203122	 1.087566	 -0.911860	 -0.667530	 -0.203814	 0.562330	 -0.466940	 0.651315	 2
1463629242.758	 7	 1.635353	 -0.950592	 -2.196912	 1.045648	 -0.923152	 -0.708815	 -0.206734	 0.553199	 -0.477771	 0.650359	 2
1463629242.768	 7	 1.745576	 -0.931381	 -2.143339	 1.001721	 -0.932801	 -0.751768	 -0.209457	 0.543747	 -0.488462	 0.649517	 2
1463629242.778	 7	 2.066317	 -0.537209	 -1.926114	 0.957725	 -0.938201	 -0.798260	 -0.209977	 0.534617	 -0.499581	 0.648470	 2
1463629242.788	 7	 2.104064	 0.122826	 -1.535560	 0.920551	 -0.939071	 -0.843619	 -0.207674	 0.527372	 -0.510478	 0.646655	 2
1463629242.798	 7	 2.013337	 0.860349	 -1.071761	 0.895684	 -0.935747	 -0.882916	 -0.202413	 0.523119	 -0.520300	 0.643944	 2
1463629242.808	 7	 1.961496	 1.460811	 -0.865359	 0.880577	 -0.930417	 -0.918142	 -0.195022	 0.521297	 -0.529657	 0.640062	 2
1463629242.818	 7	 2.141538	 2.033735	 -0.549327	 0.872649	 -0.921956	 -0.951655	 -0.184985	 0.521124	 -0.538927	 0.635427	 2
1463629242.828	 7	 2.182629	 2.541290	 -0.210313	 0.872589	 -0.910084	 -0.982321	 -0.172211	 0.522583	 -0.547740	 0.630263	 2
1463629242.838	 7	 1.847934	 2.659866	 0.018581	 0.879875	 -0.897722	 -1.006964	 -0.158773	 0.525512	 -0.555168	 0.624833	 2
1463629242.848	 7	 1.375359	 2.517112	 0.235585	 0.892565	 -0.887057	 -1.023447	 -0.146609	 0.529469	 -0.560473	 0.619708	 2
1463629242.858	 7	 1.207469	 2.199574	 0.527177	 0.907226	 -0.875746	 -1.034286	 -0.135081	 0.533408	 -0.563986	 0.615751	 2
1463629242.868	 7	 0.802575	 1.488525	 0.726580	 0.920291	 -0.864620	 -1.039299	 -0.125606	 0.536406	 -0.565488	 0.613772	 2
1463629242.878	 7	 0.030441	 0.577069	 0.862305	 0.931983	 -0.856611	 -1.034515	 -0.120392	 0.538735	 -0.564067	 0.614084	 2
1463629242.888	 7	 -0.508972	 -0.226484	 1.157938	 0.942610	 -0.850397	 -1.019920	 -0.118861	 0.540399	 -0.559662	 0.616944	 2
1463629242.898	 7	 -0.613965	 -0.762605	 1.693139	 0.951851	 -0.841418	 -0.998876	 -0.118384	 0.540988	 -0.552847	 0.622637	 2
1463629242.908	 7	 -0.492521	 -0.916592	 2.361013	 0.961565	 -0.826534	 -0.973657	 -0.116564	 0.540914	 -0.544023	 0.630765	 2
1463629242.918	 7	 -0.504575	 -0.976524	 2.891310	 0.972983	 -0.806399	 -0.944851	 -0.113163	 0.540762	 -0.533344	 0.640558	 2
1463629242.928	 7	 -0.866086	 -1.083608	 3.085299	 0.986230	 -0.785263	 -0.911509	 -0.110139	 0.541053	 -0.520835	 0.651046	 2
1463629242.938	 7	 -1.305044	 -1.113543	 3.033422	 1.001281	 -0.766162	 -0.874110	 -0.108646	 0.542144	 -0.506958	 0.661264	 2
1463629242.948	 7	 -1.659215	 -0.969914	 2.896096	 1.018490	 -0.749775	 -0.834229	 -0.108507	 0.544284	 -0.492361	 0.670494	 2
1463629242.958	 7	 -1.814515	 -0.584876	 2.834954	 1.039023	 -0.734657	 -0.793587	 -0.108458	 0.547815	 -0.477531	 0.678307	 2
1463629242.968	 7	 -1.881493	 -0.103713	 2.864527	 1.063810	 -0.719167	 -0.752953	 -0.107494	 0.552987	 -0.462557	 0.684611	 2
1463629242.978	 7	 -1.878161	 0.269463	 2.991599	 1.091966	 -0.702118	 -0.712677	 -0.105341	 0.559483	 -0.447297	 0.689788	 2
1463629242.988	 7	 -1.807889	 0.434177	 3.293065	 1.121547	 -0.681626	 -0.672770	 -0.101744	 0.566590	 -0.431253	 0.694726	 2
1463629242.998	 7	 -1.644388	 0.145109	 3.673838	 1.158560	 -0.645628	 -0.627726	 -0.092234	 0.575748	 -0.410200	 0.701244	 2
1463629243.008	 7	 -1.464272	 -0.370271	 3.957370	 1.177787	 -0.615016	 -0.591367	 -0.086516	 0.579756	 -0.391771	 0.709164	 2
1463629243.018	 7	 -1.425841	 -0.475811	 4.086077	 1.192494	 -0.582689	 -0.556825	 -0.080700	 0.582485	 -0.372910	 0.717730	 2
1463629243.028	 7	 -1.409398	 -0.157664	 3.817124	 1.207376	 -0.551359	 -0.524345	 -0.074855	 0.585661	 -0.354556	 0.725044	 2
1463629243.038	 7	 -1.296124	 0.349496	 3.251740	 1.224079	 -0.524114	 -0.496008	 -0.069337	 0.589994	 -0.338342	 0.729811	 2
1463629243.048	 7	 -1.006476	 0.721865	 2.650528	 1.241470	 -0.501362	 -0.473577	 -0.063981	 0.595067	 -0.325113	 0.732191	 2
1463629243.068	 8	 -0.091108	 1.895354	 1.453429	 1.278421	 -0.466855	 -0.450419	 -0.051351	 0.607183	 -0.308869	 0.730268	 2
1463629243.088	 9	 0.505382	 4.628718	 0.066864	 1.349522	 -0.454513	 -0.453447	 -0.034613	 0.632619	 -0.308161	 0.709670	 2
1463629243.098	 9	 0.936541	 5.302204	 -0.461372	 1.397179	 -0.456250	 -0.463079	 -0.024793	 0.649498	 -0.312734	 0.692629	 2
1463629243.108	 9	 1.432825	 4.968137	 -0.859937	 1.441358	 -0.461884	 -0.478849	 -0.014740	 0.664836	 -0.320187	 0.674727	 2
1463629243.118	 9	 1.778263	 4.100600	 -1.255757	 1.475342	 -0.471418	 -0.499230	 -0.005916	 0.676394	 -0.329955	 0.658473	 2
1463629243.128	 9	 1.712397	 3.613790	 -1.677493	 1.502467	 -0.485693	 -0.520571	 0.000678	 0.685427	 -0.341169	 0.643268	 2
1463629243.138	 9	 0.688119	 3.818566	 -1.867032	 1.533739	 -0.503523	 -0.533021	 0.003937	 0.695528	 -0.350420	 0.627241	 2
1463629243.158	 10	 -1.374023	 5.697986	 -1.231565	 1.643524	 -0.534043	 -0.514835	 0.006086	 0.728859	 -0.354081	 0.585964	 2
1463629243.168	 10	 -1.269522	 5.369413	 -0.591812	 1.707406	 -0.540315	 -0.498324	 0.009141	 0.747201	 -0.351125	 0.564197	 2
1463629243.178	 10	 -0.880598	 4.167526	 0.150309	 1.757614	 -0.538937	 -0.487362	 0.014225	 0.761249	 -0.347323	 0.547416	 2
1463629243.188	 10	 -1.068454	 3.823366	 0.283028	 1.801516	 -0.534029	 -0.476732	 0.019285	 0.773335	 -0.342395	 0.533242	 2
1463629243.198	 10	 -1.322263	 3.860454	 0.014880	 1.847171	 -0.529949	 -0.462748	 0.022856	 0.785620	 -0.336799	 0.518504	 2
1463629243.208	 10	 -1.300998	 3.574824	 -0.203247	 1.891878	 -0.527551	 -0.447321	 0.024947	 0.797321	 -0.331456	 0.503779	 2
1463629243.228	 11	 -0.999195	 2.640855	 0.048677	 1.962524	 -0.522393	 -0.423700	 0.028484	 0.815243	 -0.322786	 0.479975	 2
1463629243.238	 11	 -0.726096	 2.049535	 0.458576	 1.987796	 -0.516039	 -0.416846	 0.031526	 0.821672	 -0.318364	 0.471705	 2
1463629243.248	 11	 -0.534502	 1.821185	 0.874685	 2.007073	 -0.507163	 -0.414713	 0.036165	 0.826669	 -0.314131	 0.465439	 2
1463629243.258	 11	 -0.398059	 1.748650	 1.196750	 2.024320	 -0.495189	 -0.415741	 0.042567	 0.831229	 -0.309392	 0.459916	 2
1463629243.268	 11	 -0.235956	 1.715120	 1.478519	 2.039420	 -0.481327	 -0.420036	 0.050435	 0.835241	 -0.304615	 0.455015	 2
1463629243.278	 11	 -0.014455	 1.895705	 1.682898	 2.054313	 -0.466414	 -0.427713	 0.059903	 0.839066	 -0.300082	 0.449813	 2
1463629243.288	 11	 0.255793	 2.175699	 1.682084	 2.070523	 -0.452304	 -0.438479	 0.070590	 0.842922	 -0.296378	 0.443464	 2
1463629243.298	 11	 0.550575	 2.404104	 1.470622	 2.088574	 -0.441265	 -0.451346	 0.081582	 0.846826	 -0.294129	 0.435566	 2
1463629243.308	 11	 0.770280	 2.381248	 1.194596	 2.106718	 -0.434011	 -0.465283	 0.092035	 0.850397	 -0.293447	 0.426900	 2
1463629243.318	 11	 0.812850	 2.114469	 0.944486	 2.123015	 -0.429602	 -0.478649	 0.101245	 0.853349	 -0.293716	 0.418660	 2
1463629243.328	 11	 0.763312	 1.786194	 0.683948	 2.136875	 -0.427346	 -0.490271	 0.108817	 0.855690	 -0.294491	 0.411373	 2
1463629243.338	 11	 0.741275	 1.421541	 0.404714	 2.148056	 -0.427408	 -0.499961	 0.114602	 0.857429	 -0.295869	 0.405145	 2
1463629243.348	 11	 0.744397	 0.927345	 0.165620	 2.155238	 -0.429612	 -0.508111	 0.118618	 0.858329	 -0.297982	 0.400510	 2
1463629243.358	 11	 0.818162	 0.432269	 -0.019742	 2.157637	 -0.433789	 -0.515553	 0.121138	 0.858224	 -0.301009	 0.397707	 2
1463629243.378	 12	 1.180791	 0.064379	 -0.443036	 2.153582	 -0.449800	 -0.531081	 0.123201	 0.855936	 -0.310764	 0.394488	 2
1463629243.388	 12	 1.485271	 0.131759	 -0.708304	 2.150662	 -0.462829	 -0.540210	 0.123397	 0.854346	 -0.317940	 0.392149	 2
1463629243.398	 12	 1.910374	 0.225208	 -0.996760	 2.147537	 -0.480412	 -0.551431	 0.123274	 0.852402	 -0.327298	 0.388704	 2
1463629243.408	 12	 2.336421	 0.492250	 -1.253767	 2.145144	 -0.502547	 -0.565326	 0.123212	 0.850221	 -0.338842	 0.383574	 2
1463629243.418	 12	 2.715142	 0.818695	 -1.405365	 2.144223	 -0.528400	 -0.582079	 0.123615	 0.847927	 -0.352166	 0.376454	 2
1463629243.438	 13	 2.571342	 1.258983	 -1.323281	 2.147707	 -0.580900	 -0.619118	 0.126533	 0.843785	 -0.378928	 0.358370	 2
1463629243.448	 13	 1.936380	 1.316563	 -1.120051	 2.153322	 -0.602427	 -0.632589	 0.127784	 0.842803	 -0.389113	 0.349208	 2
1463629243.458	 13	 1.064443	 1.401968	 -0.696017	 2.162561	 -0.616306	 -0.640187	 0.129254	 0.843144	 -0.395065	 0.341065	 2
1463629243.468	 13	 0.386576	 2.009209	 -0.394577	 2.179549	 -0.623086	 -0.642398	 0.131834	 0.845466	 -0.396886	 0.332098	 2
1463629243.478	 13	 0.098261	 2.620649	 -0.090095	 2.204576	 -0.625379	 -0.642556	 0.136290	 0.849402	 -0.396105	 0.321003	 2
1463629243.488	 13	 0.085469	 2.569925	 0.243128	 2.229507	 -0.624395	 -0.644690	 0.142366	 0.853249	 -0.394328	 0.310165	 2
1463629243.498	 13	 0.053793	 2.070263	 0.116191	 2.250522	 -0.623533	 -0.646738	 0.147584	 0.856368	 -0.392786	 0.300952	 2
1463629243.508	 13	 -0.119482	 1.053326	 -0.117704	 2.264634	 -0.623540	 -0.645555	 0.149843	 0.858558	 -0.391563	 0.295133	 2
1463629243.528	 14	 -0.265985	 -0.785341	 -0.426623	 2.265581	 -0.625768	 -0.635919	 0.145365	 0.859257	 -0.390934	 0.296171	 2
1463629243.538	 14	 -0.365509	 -0.847769	 -0.422074	 2.260720	 -0.626942	 -0.629352	 0.141318	 0.858922	 -0.390761	 0.299312	 2
1463629243.548	 14	 -0.635495	 -0.542558	 -0.244230	 2.258962	 -0.625782	 -0.621682	 0.137954	 0.859275	 -0.389280	 0.301789	 2
1463629243.558	 14	 -1.035160	 -0.334102	 0.178968	 2.260218	 -0.619332	 -0.613219	 0.136078	 0.860498	 -0.385395	 0.304133	 2
1463629243.568	 14	 -1.218260	 -0.481599	 0.738715	 2.259910	 -0.607166	 -0.606614	 0.136034	 0.861741	 -0.379638	 0.307851	 2
1463629243.578	 14	 -1.285088	 -0.945531	 1.123983	 2.253722	 -0.591016	 -0.602824	 0.137031	 0.862110	 -0.373118	 0.314281	 2
1463629243.588	 14	 -1.328177	 -1.179006	 1.031596	 2.244672	 -0.574216	 -0.598634	 0.137512	 0.862009	 -0.366447	 0.322098	 2
1463629243.598	 14	 -1.092381	 -1.179442	 0.480672	 2.236011	 -0.561954	 -0.592428	 0.136166	 0.861750	 -0.361184	 0.329229	 2
1463629243.608	 14	 -0.668762	 -0.675663	 -0.132208	 2.231467	 -0.557103	 -0.585269	 0.133417	 0.861759	 -0.358385	 0.333365	 2
1463629243.618	 14	 -0.227714	 -0.058633	 -0.521441	 2.232798	 -0.558474	 -0.578968	 0.130613	 0.862318	 -0.357789	 0.333670	 2
1463629243.628	 14	 0.104248	 0.276910	 -0.903818	 2.237776	 -0.564994	 -0.573498	 0.127601	 0.863109	 -0.359147	 0.331323	 2
1463629243.638	 14	 0.210207	 0.416527	 -1.261538	 2.245580	 -0.575462	 -0.566520	 0.123525	 0.864174	 -0.361668	 0.327324	 2
1463629243.648	 14	 0.315205	 0.169512	 -1.401168	 2.252344	 -0.587918	 -0.558857	 0.118519	 0.864906	 -0.364968	 0.323558	 2
1463629243.658	 14	 0.605081	 -0.385148	 -1.648650	 2.253981	 -0.603390	 -0.551731	 0.112121	 0.864480	 -0.369879	 0.321391	 2
1463629243.668	 14	 1.057454	 -0.938534	 -2.094700	 2.249522	 -0.624642	 -0.545440	 0.103590	 0.862495	 -0.377537	 0.320684	 2
1463629243.678	 14	 1.392969	 -1.314686	 -2.348378	 2.240260	 -0.651024	 -0.540469	 0.093449	 0.859119	 -0.387589	 0.320868	 2
1463629243.688	 14	 1.356865	 -1.734655	 -2.341315	 2.226846	 -0.678069	 -0.535932	 0.082412	 0.854830	 -0.398009	 0.322587	 2
1463629243.698	 14	 1.164971	 -2.149918	 -2.334982	 2.209889	 -0.703973	 -0.530291	 0.070321	 0.849936	 -0.407752	 0.326192	 2
1463629243.708	 14	 0.959322	 -2.444715	 -2.442511	 2.191407	 -0.729391	 -0.522260	 0.056866	 0.844722	 -0.416739	 0.330967	 2
1463629243.718	 14	 0.812661	 -2.641084	 -2.593333	 2.172575	 -0.755152	 -0.511729	 0.042052	 0.839251	 -0.425191	 0.336305	 2
1463629243.728	 14	 0.736955	 -2.778715	 -2.682413	 2.153421	 -0.781471	 -0.499743	 0.026288	 0.833428	 -0.433332	 0.341949	 2
1463629243.738	 14	 0.739157	 -2.762782	 -2.684416	 2.134233	 -0.808029	 -0.487708	 0.010312	 0.827287	 -0.441258	 0.347536	 2
1463629243.748	 14	 0.853487	 -2.563729	 -2.616416	 2.115426	 -0.834745	 -0.477566	 -0.004956	 0.820910	 -0.449277	 0.352466	 2
1463629243.758	 14	 1.038836	 -2.239389	 -2.550000	 2.097378	 -0.861863	 -0.470638	 -0.018963	 0.814394	 -0.457731	 0.356210	 2
1463629243.768	 14	 1.215080	 -1.846629	 -2.439172	 2.080332	 -0.889127	 -0.467457	 -0.031387	 0.807889	 -0.466657	 0.358554	 2
1463629243.778	 14	 1.355354	 -1.405741	 -2.306268	 2.064747	 -0.915990	 -0.467997	 -0.041999	 0.801625	 -0.475894	 0.359385	 2
1463629243.788	 14	 1.486633	 -1.064782	 -2.169952	 2.049919	 -0.942264	 -0.472283	 -0.050920	 0.795570	 -0.485396	 0.358979	 2
1463629243.798	 14	 1.574668	 -0.871281	 -1.998396	 2.034366	 -0.967539	 -0.480193	 -0.058463	 0.789570	 -0.494974	 0.357998	 2
1463629243.808	 14	 1.621556	 -0.824260	 -1.802267	 2.016636	 -0.991246	 -0.491565	 -0.064935	 0.783493	 -0.504363	 0.357129	 2
1463629243.818	 14	 1.675677	 -0.843069	 -1.587629	 1.995531	 -1.013147	 -0.506662	 -0.070515	 0.777214	 -0.513491	 0.356781	 2
1463629243.828	 14	 1.736210	 -0.849227	 -1.385718	 1.970634	 -1.033220	 -0.525882	 -0.075207	 0.770719	 -0.522408	 0.356968	 2
1463629243.838	 14	 1.793550	 -0.880728	 -1.155226	 1.935730	 -1.050040	 -0.554532	 -0.078276	 0.763318	 -0.531398	 0.358935	 2
1463629243.848	 14	 1.842285	 -0.966046	 -0.874017	 1.901558	 -1.065176	 -0.582987	 -0.081093	 0.756356	 -0.539677	 0.360693	 2
1463629243.858	 14	 1.881192	 -1.109737	 -0.579411	 1.861806	 -1.077108	 -0.616036	 -0.083073	 0.749054	 -0.547463	 0.363734	 2
1463629243.868	 14	 1.925309	 -1.218875	 -0.358066	 1.817246	 -1.086100	 -0.652956	 -0.084389	 0.741427	 -0.554827	 0.367874	 2
1463629243.878	 14	 2.008607	 -1.278064	 -0.273015	 1.768719	 -1.093263	 -0.693466	 -0.085287	 0.733424	 -0.562144	 0.372571	 2
1463629243.888	 14	 2.026860	 -1.415883	 -0.350126	 1.717102	 -1.099914	 -0.736048	 -0.086542	 0.724969	 -0.569558	 0.377538	 2
1463629243.898	 14	 1.920645	 -1.620998	 -0.517368	 1.664349	 -1.106871	 -0.777633	 -0.089007	 0.716225	 -0.576760	 0.382685	 2
1463629243.908	 14	 1.700979	 -1.880161	 -0.703309	 1.611661	 -1.114618	 -0.816224	 -0.093206	 0.707327	 -0.583472	 0.388023	 2
1463629243.918	 14	 1.392792	 -2.146349	 -0.867231	 1.560718	 -1.123130	 -0.849698	 -0.099343	 0.698534	 -0.589271	 0.393625	 2
1463629243.928	 14	 1.020052	 -2.320675	 -1.003091	 1.513700	 -1.132454	 -0.876485	 -0.107248	 0.690208	 -0.593892	 0.399253	 2
1463629243.938	 14	 0.625333	 -2.430882	 -1.106190	 1.472238	 -1.142715	 -0.895629	 -0.116695	 0.682611	 -0.597201	 0.404690	 2
1463629243.948	 14	 0.313939	 -2.352595	 -1.143249	 1.436931	 -1.153554	 -0.908186	 -0.126905	 0.675908	 -0.599373	 0.409628	 2
1463629243.958	 14	 0.097308	 -2.105373	 -1.166772	 1.407929	 -1.164807	 -0.916114	 -0.137027	 0.670228	 -0.600822	 0.413560	 2
1463629243.968	 14	 0.027828	 -1.849305	 -1.230927	 1.383202	 -1.176673	 -0.922305	 -0.146726	 0.665330	 -0.602085	 0.416294	 2
1463629243.978	 14	 0.077403	 -1.593381	 -1.413355	 1.358311	 -1.189862	 -0.931178	 -0.156121	 0.660623	 -0.603877	 0.417774	 2
1463629243.988	 14	 0.128371	 -1.485382	 -1.606762	 1.331657	 -1.204831	 -0.943817	 -0.165527	 0.655911	 -0.606321	 0.418039	 2
1463629243.998	 14	 0.171800	 -1.675737	 -1.731474	 1.299822	 -1.220918	 -0.960533	 -0.175674	 0.650586	 -0.609029	 0.418282	 2
1463629244.008	 14	 0.181366	 -1.887617	 -1.758042	 1.262274	 -1.237228	 -0.980889	 -0.186578	 0.644576	 -0.611654	 0.419034	 2
1463629244.018	 14	 0.069556	 -2.104958	 -1.706868	 1.222459	 -1.253213	 -1.001287	 -0.198167	 0.638306	 -0.613627	 0.420424	 2
1463629244.028	 14	 -0.113561	 -2.352320	 -1.571158	 1.183352	 -1.268481	 -1.018321	 -0.210446	 0.632034	 -0.614482	 0.422678	 2
1463629244.038	 14	 -0.425362	 -2.580574	 -1.345691	 1.150081	 -1.282746	 -1.026659	 -0.223355	 0.626179	 -0.613661	 0.425948	 2
1463629244.048	 14	 -0.895689	 -2.546144	 -1.041797	 1.132278	 -1.296151	 -1.018361	 -0.236390	 0.621726	 -0.610705	 0.429670	 2
1463629244.058	 14	 -1.402477	 -2.154801	 -0.669252	 1.140161	 -1.308511	 -0.986667	 -0.248433	 0.619808	 -0.605629	 0.432821	 2
1463629244.068	 14	 -1.680139	 -1.658367	 -0.232713	 1.173717	 -1.318238	 -0.933532	 -0.258412	 0.620407	 -0.599069	 0.435241	 2
1463629244.088	 15	 -1.728690	 -0.278457	 0.683251	 1.293495	 -1.323237	 -0.792262	 -0.268895	 0.627817	 -0.584515	 0.438045	 2
1463629244.098	 15	 -1.706447	 0.513297	 1.044258	 1.370827	 -1.317961	 -0.715816	 -0.268670	 0.634801	 -0.577443	 0.437498	 2
1463629244.108	 15	 -1.680531	 1.041559	 1.299402	 1.450719	 -1.308381	 -0.642770	 -0.265724	 0.643314	 -0.570586	 0.435855	 2
1463629244.118	 15	 -1.786939	 1.453341	 1.425657	 1.531571	 -1.295780	 -0.572882	 -0.261158	 0.653048	 -0.563643	 0.433164	 2
1463629244.128	 15	 -2.036191	 2.020836	 1.406464	 1.617993	 -1.281496	 -0.502345	 -0.255496	 0.664418	 -0.556510	 0.428447	 2
1463629244.148	 16	 -2.049731	 3.433647	 1.154354	 1.800317	 -1.250919	 -0.372022	 -0.240125	 0.691455	 -0.543939	 0.410317	 2
1463629244.158	 16	 -1.702149	 4.047368	 1.150644	 1.881262	 -1.235124	 -0.327759	 -0.229184	 0.705543	 -0.539944	 0.397672	 2
1463629244.168	 16	 -1.345565	 4.479651	 1.211244	 1.951365	 -1.219034	 -0.299839	 -0.215920	 0.719285	 -0.537390	 0.383692	 2
1463629244.188	 17	 -0.896477	 5.146028	 1.176234	 2.071817	 -1.188469	 -0.276016	 -0.184613	 0.745330	 -0.535199	 0.352083	 2
1463629244.198	 17	 -0.786978	 5.275531	 1.185011	 2.126955	 -1.174235	 -0.273230	 -0.167524	 0.757556	 -0.534766	 0.334767	 2
1463629244.208	 17	 -0.748338	 5.183025	 1.351139	 2.177357	 -1.159283	 -0.275250	 -0.149856	 0.769124	 -0.533923	 0.317677	 2
1463629244.218	 17	 -0.772522	 4.687256	 1.763449	 2.217713	 -1.141404	 -0.283997	 -0.131735	 0.779814	 -0.531813	 0.302839	 2
1463629244.228	 17	 -0.900420	 3.914439	 1.917236	 2.248565	 -1.121158	 -0.295516	 -0.114625	 0.789388	 -0.528168	 0.291147	 2
1463629244.238	 17	 -1.428894	 2.469840	 1.967011	 2.271938	 -1.098121	 -0.301695	 -0.101091	 0.797888	 -0.521945	 0.284126	 2
1463629244.248	 17	 -2.140512	 0.817922	 2.100619	 2.286960	 -1.069472	 -0.298064	 -0.092592	 0.805716	 -0.511594	 0.283760	 2
1463629244.258	 17	 -2.078610	 -0.043084	 2.050503	 2.292353	 -1.039710	 -0.293423	 -0.086845	 0.812240	 -0.500046	 0.287538	 2
1463629244.268	 17	 -1.692556	 -0.500768	 1.721023	 2.290781	 -1.014247	 -0.290478	 -0.083081	 0.816858	 -0.489932	 0.292928	 2
1463629244.278	 17	 -1.266876	 -0.447227	 1.356521	 2.287150	 -0.994367	 -0.288933	 -0.080402	 0.820049	 -0.481990	 0.297892	 2
1463629244.298	 18	 -0.846412	 0.702363	 1.063013	 2.291339	 -0.965078	 -0.289599	 -0.072939	 0.826140	 -0.471018	 0.300524	 2
1463629244.308	 18	 -0.768767	 1.272690	 1.126261	 2.300675	 -0.951557	 -0.292110	 -0.066864	 0.830081	 -0.466492	 0.298128	 2
1463629244.318	 18	 -0.684896	 1.570787	 1.199710	 2.312187	 -0.938046	 -0.296681	 -0.059463	 0.834352	 -0.462276	 0.294316	 2
1463629244.328	 18	 -0.556586	 1.569811	 1.263595	 2.322373	 -0.924888	 -0.303647	 -0.051473	 0.838358	 -0.458429	 0.290429	 2
1463629244.338	 18	 -0.435039	 1.513366	 1.302511	 2.330459	 -0.912279	 -0.312700	 -0.043216	 0.841931	 -0.454970	 0.286856	 2
1463629244.358	 19	 -0.211470	 1.438978	 1.255110	 2.342559	 -0.889825	 -0.334695	 -0.026556	 0.847831	 -0.449430	 0.280160	 2
1463629244.368	 19	 -0.110828	 1.350874	 1.173482	 2.347278	 -0.880291	 -0.346348	 -0.018586	 0.850191	 -0.447328	 0.276997	 2
1463629244.378	 19	 0.012634	 1.354132	 1.086110	 2.351516	 -0.872306	 -0.358276	 -0.010916	 0.852157	 -0.445832	 0.273758	 2
1463629244.388	 19	 0.134491	 1.482786	 0.982868	 2.356627	 -0.865865	 -0.370492	 -0.003238	 0.853923	 -0.444951	 0.269858	 2
1463629244.398	 19	 0.218666	 1.835386	 0.798907	 2.365105	 -0.861301	 -0.381996	 0.004505	 0.855772	 -0.444670	 0.264391	 2
1463629244.408	 19	 0.220872	 2.255027	 0.586443	 2.379712	 -0.858512	 -0.391382	 0.012344	 0.858072	 -0.444720	 0.256485	 2
1463629244.418	 19	 0.193139	 2.384837	 0.435489	 2.397783	 -0.856723	 -0.398694	 0.019866	 0.860570	 -0.444781	 0.247377	 2
1463629244.428	 19	 0.253666	 2.437890	 0.295841	 2.417509	 -0.856221	 -0.404774	 0.026974	 0.862969	 -0.445085	 0.237604	 2
1463629244.438	 19	 0.390280	 2.349113	 0.136092	 2.437069	 -0.857716	 -0.410383	 0.033463	 0.864923	 -0.446044	 0.227669	 2
1463629244.448	 19	 0.555455	 2.243980	 -0.067753	 2.455961	 -0.861752	 -0.415257	 0.039021	 0.866293	 -0.447874	 0.217770	 2
1463629244.458	 19	 0.775042	 2.150259	 -0.289019	 2.474649	 -0.868779	 -0.419334	 0.043663	 0.867055	 -0.450764	 0.207654	 2
1463629244.478	 19	 1.973889	 1.155202	 -0.617787	 2.497361	 -0.897404	 -0.433498	 0.049686	 0.864205	 -0.463199	 0.190070	 2
1463629244.488	 20	 2.752814	 -0.017788	 -0.865689	 2.488477	 -0.922686	 -0.448473	 0.049370	 0.858652	 -0.474943	 0.186304	 2
1463629244.498	 20	 2.902308	 -1.087344	 -1.184948	 2.467163	 -0.952577	 -0.464214	 0.045288	 0.851055	 -0.488696	 0.186627	 2
1463629244.508	 20	 1.953974	 -1.085819	 -1.357857	 2.449853	 -0.978473	 -0.471018	 0.038846	 0.844672	 -0.499743	 0.187822	 2
1463629244.518	 20	 0.050649	 0.858338	 -1.117502	 2.460521	 -0.990671	 -0.460801	 0.034822	 0.843628	 -0.503298	 0.183769	 2
1463629244.528	 20	 -0.987022	 1.713791	 -0.614519	 2.494615	 -0.988578	 -0.440801	 0.035316	 0.847425	 -0.500095	 0.174724	 2
1463629244.538	 20	 -0.546100	 0.902266	 -0.142053	 2.515140	 -0.984318	 -0.429281	 0.036324	 0.850207	 -0.497064	 0.169578	 2
1463629244.548	 20	 0.242648	 0.188718	 0.195075	 2.516775	 -0.984086	 -0.431755	 0.037824	 0.850343	 -0.497151	 0.168305	 2
1463629244.558	 20	 0.614659	 -0.440235	 0.295757	 2.505473	 -0.986848	 -0.441796	 0.038770	 0.848670	 -0.499303	 0.170156	 2
1463629244.568	 20	 0.639780	 -0.928033	 0.214264	 2.488508	 -0.990586	 -0.452381	 0.038315	 0.846301	 -0.502000	 0.174075	 2
1463629244.578	 20	 0.474561	 -1.342328	 0.218242	 2.468660	 -0.993457	 -0.461224	 0.036512	 0.843844	 -0.504266	 0.179750	 2
1463629244.588	 20	 0.318357	 -1.537674	 0.351005	 2.446415	 -0.994144	 -0.469729	 0.034344	 0.841528	 -0.505704	 0.186857	 2
1463629244.598	 20	 0.371409	 -1.222380	 0.436606	 2.424653	 -0.994058	 -0.479740	 0.033059	 0.839305	 -0.506989	 0.193482	 2
1463629244.608	 20	 0.493580	 -0.463084	 0.469252	 2.407968	 -0.994477	 -0.491747	 0.033770	 0.837399	 -0.508600	 0.197351	 2
1463629244.618	 20	 0.111969	 -0.031285	 0.604484	 2.398070	 -0.992687	 -0.502463	 0.036109	 0.836547	 -0.509162	 0.199097	 2
1463629244.628	 20	 -0.855275	 -0.590152	 1.174691	 2.388677	 -0.981406	 -0.508589	 0.038669	 0.837441	 -0.505721	 0.203575	 2
1463629244.638	 20	 -1.562262	 -0.689379	 1.432509	 2.380849	 -0.961321	 -0.509440	 0.041333	 0.840004	 -0.498415	 0.210398	 2
1463629244.648	 20	 -1.507058	 -0.505527	 1.140654	 2.378196	 -0.941534	 -0.506127	 0.043505	 0.843041	 -0.490639	 0.216015	 2
1463629244.658	 20	 -0.868385	 -0.430383	 0.907720	 2.374286	 -0.927288	 -0.505329	 0.045259	 0.844919	 -0.485226	 0.220496	 2
1463629244.668	 20	 0.027781	 -0.198488	 0.833866	 2.365309	 -0.919985	 -0.513276	 0.048012	 0.844886	 -0.483542	 0.223719	 2
1463629244.678	 20	 0.487769	 -0.019446	 0.629032	 2.354595	 -0.918033	 -0.526085	 0.051251	 0.843666	 -0.484507	 0.225509	 2
1463629244.688	 20	 0.544541	 -0.212912	 0.374152	 2.344182	 -0.918803	 -0.537546	 0.053384	 0.842071	 -0.486365	 0.226968	 2
1463629244.698	 20	 0.440488	 -0.873182	 0.217575	 2.330552	 -0.920207	 -0.545990	 0.053300	 0.840077	 -0.488220	 0.230371	 2
1463629244.708	 20	 0.519697	 -1.617822	 0.087394	 2.310523	 -0.922615	 -0.553171	 0.050863	 0.837197	 -0.490473	 0.236539	 2
1463629244.718	 20	 0.864309	 -2.198441	 -0.051032	 2.282359	 -0.927792	 -0.562505	 0.046624	 0.832828	 -0.494184	 0.244963	 2
1463629244.728	 20	 1.517860	 -2.416430	 -0.219681	 2.246145	 -0.937659	 -0.577847	 0.041622	 0.826569	 -0.500461	 0.254145	 2
1463629244.738	 20	 2.134375	 -2.160614	 -0.334574	 2.204162	 -0.952348	 -0.601791	 0.037230	 0.818649	 -0.509563	 0.262247	 2
1463629244.748	 20	 2.096940	 -1.462042	 -0.379970	 2.165553	 -0.967765	 -0.628751	 0.034329	 0.810992	 -0.519115	 0.267644	 2
1463629244.758	 20	 1.622807	 -0.783691	 -0.456922	 2.138162	 -0.980965	 -0.650549	 0.032489	 0.805236	 -0.526913	 0.270004	 2
1463629244.768	 20	 1.216753	 -0.508413	 -0.647991	 2.120659	 -0.992923	 -0.664937	 0.030413	 0.801125	 -0.533048	 0.270434	 2
1463629244.778	 20	 1.056238	 -0.562350	 -0.963626	 2.107973	 -1.006034	 -0.673622	 0.026916	 0.797630	 -0.538630	 0.270074	 2
1463629244.788	 20	 1.119695	 -0.645655	 -1.278288	 2.096369	 -1.021942	 -0.679889	 0.021897	 0.793973	 -0.544673	 0.269181	 2
1463629244.798	 20	 1.335232	 -0.682025	 -1.512840	 2.083195	 -1.040949	 -0.687376	 0.015982	 0.789706	 -0.551750	 0.267731	 2
1463629244.808	 20	 1.580165	 -0.676295	 -1.650271	 2.066794	 -1.062490	 -0.698430	 0.009739	 0.784677	 -0.559942	 0.265805	 2
1463629244.818	 20	 1.767076	 -0.623833	 -1.673791	 2.046666	 -1.085349	 -0.714042	 0.003673	 0.779015	 -0.568925	 0.263527	 2
1463629244.828	 20	 1.865820	 -0.559828	 -1.607978	 2.022907	 -1.108173	 -0.734271	 -0.001872	 0.772970	 -0.578229	 0.261085	 2
1463629244.838	 20	 1.871785	 -0.520741	 -1.495761	 1.996051	 -1.129934	 -0.758275	 -0.006840	 0.766796	 -0.587409	 0.258706	 2
1463629244.848	 20	 1.805080	 -0.524862	 -1.357735	 1.966464	 -1.149997	 -0.785079	 -0.011353	 0.760652	 -0.596156	 0.256665	 2
1463629244.858	 20	 1.657110	 -0.570161	 -1.210859	 1.935441	 -1.167873	 -0.812863	 -0.015576	 0.754767	 -0.604140	 0.255144	 2
1463629244.868	 20	 1.515247	 -0.663468	 -1.081535	 1.903281	 -1.183612	 -0.840797	 -0.019723	 0.749154	 -0.611320	 0.254299	 2
1463629244.878	 20	 1.414800	 -0.770974	 -0.986808	 1.869491	 -1.197665	 -0.869167	 -0.023950	 0.743682	 -0.617884	 0.254133	 2
1463629244.888	 20	 1.347297	 -0.891483	 -0.911672	 1.833541	 -1.210370	 -0.898463	 -0.028333	 0.738239	 -0.623997	 0.254612	 2
1463629244.898	 20	 1.316237	 -0.967519	 -0.849229	 1.795036	 -1.221944	 -0.929359	 -0.032816	 0.732753	 -0.629809	 0.255609	 2
1463629244.908	 20	 1.326222	 -0.920460	 -0.809445	 1.753960	 -1.232617	 -0.962931	 -0.037094	 0.727213	 -0.635519	 0.256712	 2
1463629244.918	 20	 1.375887	 -0.793021	 -0.816152	 1.710757	 -1.242828	 -0.999992	 -0.040901	 0.721662	 -0.641330	 0.257345	 2
1463629244.928	 20	 1.468725	 -0.796467	 -0.813795	 1.662834	 -1.252591	 -1.042214	 -0.044507	 0.715819	 -0.647402	 0.257863	 2
1463629244.938	 20	 1.531153	 -0.892525	 -0.834416	 1.609104	 -1.261831	 -1.089619	 -0.048300	 0.709570	 -0.653683	 0.258604	 2
1463629244.948	 20	 1.509814	 -1.071546	 -0.889185	 1.550776	 -1.270701	 -1.140044	 -0.052770	 0.703034	 -0.659923	 0.259732	 2
1463629244.958	 20	 1.401622	 -1.316442	 -0.969388	 1.489692	 -1.279451	 -1.190824	 -0.058365	 0.696389	 -0.665827	 0.261362	 2
1463629244.968	 20	 1.236902	 -1.550570	 -1.054327	 1.427710	 -1.288299	 -1.239829	 -0.065277	 0.689829	 -0.671153	 0.263492	 2
1463629244.978	 20	 1.106014	 -1.645294	 -1.115883	 1.365564	 -1.297189	 -1.287505	 -0.073049	 0.683469	 -0.675944	 0.265769	 2
1463629244.998	 21	 1.073882	 -1.582143	 -1.220527	 1.233287	 -1.314226	 -1.390865	 -0.089240	 0.670836	 -0.685076	 0.269604	 2
1463629245.008	 21	 0.993424	 -1.428887	 -1.239715	 1.164240	 -1.322047	 -1.446959	 -0.097056	 0.664757	 -0.689475	 0.270745	 2
1463629245.028	 22	 0.534421	 -0.914736	 -1.073202	 1.047747	 -1.336240	 -1.544100	 -0.110404	 0.655563	 -0.696210	 0.270811	 2
1463629245.038	 22	 0.371108	 -0.785847	 -0.966136	 1.003155	 -1.342605	 -1.581625	 -0.115907	 0.652498	 -0.698420	 0.270225	 2
1463629245.048	 22	 0.292298	 -0.808525	 -0.898517	 0.961895	 -1.348482	 -1.615791	 -0.121243	 0.649803	 -0.700185	 0.269809	 2
1463629245.058	 22	 0.227900	 -0.914453	 -0.864838	 0.921215	 -1.354086	 -1.648407	 -0.126837	 0.647213	 -0.701604	 0.269777	 2
1463629245.068	 22	 0.131734	 -0.932317	 -0.873759	 0.881597	 -1.359994	 -1.679584	 -0.132667	 0.644878	 -0.702680	 0.269764	 2
1463629245.078	 22	 0.131557	 -1.232998	 -0.829662	 0.839573	 -1.365556	 -1.710840	 -0.139228	 0.642314	 -0.703448	 0.270570	 2
1463629245.088	 22	 0.088278	 -1.616556	 -0.791289	 0.793875	 -1.370659	 -1.741986	 -0.146993	 0.639299	 -0.703794	 0.272696	 2
1463629245.098	 22	 -0.085996	 -1.986594	 -0.701560	 0.749893	 -1.376012	 -1.767475	 -0.156053	 0.636262	 -0.703249	 0.276151	 2
1463629245.108	 22	 -0.397524	 -2.371302	 -0.490340	 0.717004	 -1.381958	 -1.777873	 -0.166179	 0.633747	 -0.701200	 0.281188	 2
1463629245.118	 22	 -0.866282	 -2.616119	 -0.265793	 0.704065	 -1.389699	 -1.764870	 -0.177251	 0.632409	 -0.697101	 0.287561	 2
1463629245.128	 22	 -1.366307	 -2.543308	 0.038718	 0.721981	 -1.399405	 -1.720454	 -0.188162	 0.632926	 -0.690876	 0.294432	 2
1463629245.138	 22	 -1.797353	 -2.195470	 0.456026	 0.783166	 -1.409433	 -1.635151	 -0.197469	 0.635670	 -0.682768	 0.301261	 2
1463629245.148	 22	 -2.151111	 -1.775332	 0.901044	 0.894627	 -1.417378	 -1.503278	 -0.204462	 0.640608	 -0.673083	 0.307859	 2
1463629245.158	 22	 -2.445019	 -1.301427	 1.304476	 1.053488	 -1.420764	 -1.328148	 -0.209033	 0.647569	 -0.662079	 0.314024	 2
1463629245.168	 22	 -2.763986	 -0.627145	 1.608744	 1.247054	 -1.417634	 -1.124179	 -0.210903	 0.656699	 -0.650056	 0.318896	 2
1463629245.178	 22	 -3.050385	 0.088286	 1.734063	 1.452910	 -1.407406	 -0.914895	 -0.210284	 0.667993	 -0.637321	 0.321539	 2
1463629245.188	 22	 -3.152845	 0.784016	 1.710522	 1.642527	 -1.390899	 -0.728560	 -0.207652	 0.680656	 -0.624602	 0.321652	 2
1463629245.198	 22	 -2.987614	 1.651424	 1.708629	 1.799841	 -1.369355	 -0.582853	 -0.202253	 0.694124	 -0.612838	 0.318929	 2
1463629245.208	 22	 -2.569182	 2.616670	 1.660679	 1.920294	 -1.345656	 -0.483943	 -0.193404	 0.707684	 -0.603151	 0.313028	 2
1463629245.218	 22	 -2.101789	 3.451835	 1.734722	 2.010668	 -1.321451	 -0.424506	 -0.181002	 0.720957	 -0.595655	 0.304393	 2
1463629245.228	 22	 -1.635503	 4.067598	 2.060384	 2.074685	 -1.295969	 -0.398884	 -0.164828	 0.733722	 -0.589741	 0.294432	 2
1463629245.238	 22	 -1.224021	 4.338185	 2.432335	 2.116613	 -1.269118	 -0.399982	 -0.145462	 0.745628	 -0.584812	 0.284383	 2
1463629245.248	 22	 -0.935341	 4.191770	 2.743910	 2.141717	 -1.241189	 -0.418320	 -0.124441	 0.756288	 -0.580201	 0.275517	 2
1463629245.258	 22	 -0.802674	 3.646110	 2.940172	 2.154683	 -1.212406	 -0.444890	 -0.103549	 0.765481	 -0.575296	 0.268980	 2
1463629245.268	 22	 -0.869136	 2.904970	 2.940249	 2.161632	 -1.183165	 -0.470647	 -0.084450	 0.773402	 -0.569578	 0.265139	 2
1463629245.278	 22	 -1.041195	 2.067393	 2.799667	 2.166471	 -1.154083	 -0.490157	 -0.068285	 0.780311	 -0.562838	 0.263942	 2
1463629245.288	 22	 -1.256456	 1.186825	 2.580195	 2.169821	 -1.125504	 -0.501956	 -0.055600	 0.786344	 -0.555080	 0.265438	 2
1463629245.298	 22	 -1.446009	 0.361191	 2.319445	 2.171562	 -1.097892	 -0.506235	 -0.046526	 0.791561	 -0.546500	 0.269452	 2
1463629245.308	 22	 -1.523423	 -0.250724	 2.094878	 2.171070	 -1.071633	 -0.505491	 -0.040378	 0.795970	 -0.537548	 0.275398	 2
1463629245.318	 22	 -1.439979	 -0.564494	 1.981458	 2.167564	 -1.046814	 -0.503708	 -0.035795	 0.799565	 -0.528794	 0.282472	 2
1463629245.328	 22	 -1.222314	 -0.564144	 1.971040	 2.161101	 -1.023318	 -0.504429	 -0.031281	 0.802428	 -0.520740	 0.289761	 2
1463629245.338	 22	 -0.948538	 -0.274076	 2.040630	 2.153215	 -1.000902	 -0.509498	 -0.025598	 0.804818	 -0.513651	 0.296271	 2
1463629245.348	 22	 -0.752798	 0.157111	 2.178290	 2.145940	 -0.978610	 -0.518734	 -0.018034	 0.807147	 -0.507249	 0.301475	 2
1463629245.358	 22	 -0.663812	 0.623341	 2.264983	 2.141628	 -0.956029	 -0.530126	 -0.008702	 0.809782	 -0.501121	 0.305048	 2
1463629245.368	 22	 -0.698206	 1.148674	 2.385273	 2.142159	 -0.932606	 -0.541968	 0.002293	 0.813067	 -0.494783	 0.306770	 2
1463629245.378	 22	 -0.699181	 1.572409	 2.442513	 2.147285	 -0.908309	 -0.554039	 0.014763	 0.816956	 -0.488106	 0.306785	 2
1463629245.388	 22	 -0.623351	 1.891639	 2.346773	 2.155904	 -0.884843	 -0.566302	 0.027939	 0.821056	 -0.481617	 0.305176	 2
1463629245.398	 22	 -0.484905	 2.054161	 2.080639	 2.166993	 -0.864043	 -0.578226	 0.040851	 0.825010	 -0.475846	 0.302093	 2
1463629245.418	 23	 -0.082666	 2.072156	 1.498596	 2.191052	 -0.833290	 -0.601467	 0.063989	 0.831464	 -0.467641	 0.293062	 2
1463629245.428	 23	 0.128040	 2.102097	 1.312663	 2.202642	 -0.822774	 -0.614129	 0.074617	 0.833849	 -0.465275	 0.287484	 2
1463629245.438	 23	 0.288760	 2.141986	 1.158165	 2.214181	 -0.814656	 -0.627508	 0.084918	 0.835818	 -0.463772	 0.281268	 2
1463629245.448	 23	 0.405481	 2.136213	 0.996165	 2.225836	 -0.808690	 -0.640985	 0.094743	 0.837455	 -0.462952	 0.274533	 2
1463629245.458	 23	 0.494080	 2.039156	 0.848481	 2.236962	 -0.804616	 -0.654224	 0.103875	 0.838724	 -0.462711	 0.267676	 2
1463629245.468	 23	 0.560142	 1.902920	 0.715549	 2.247078	 -0.802138	 -0.667059	 0.112211	 0.839620	 -0.462957	 0.260993	 2
1463629245.478	 23	 0.633744	 1.791039	 0.571055	 2.256377	 -0.801278	 -0.679443	 0.119778	 0.840187	 -0.463700	 0.254405	 2
1463629245.488	 23	 0.681216	 1.606590	 0.382417	 2.264756	 -0.802217	 -0.690861	 0.126291	 0.840442	 -0.464961	 0.248029	 2
1463629245.498	 23	 0.703768	 1.369863	 0.161537	 2.272054	 -0.805039	 -0.700576	 0.131386	 0.840428	 -0.466708	 0.242078	 2
1463629245.508	 23	 0.735874	 1.128798	 -0.066928	 2.278228	 -0.809801	 -0.708483	 0.134997	 0.840161	 -0.468973	 0.236581	 2
1463629245.518	 23	 0.800014	 0.914037	 -0.322070	 2.283389	 -0.816837	 -0.714669	 0.137105	 0.839628	 -0.471896	 0.231391	 2
1463629245.528	 23	 0.912382	 0.753285	 -0.589919	 2.287807	 -0.826555	 -0.719401	 0.137786	 0.838803	 -0.475647	 0.226240	 2
1463629245.538	 23	 1.081583	 0.647698	 -0.854553	 2.291674	 -0.839313	 -0.723252	 0.137240	 0.837623	 -0.480406	 0.220826	 2
1463629245.548	 23	 1.352221	 0.534532	 -1.096693	 2.294279	 -0.855526	 -0.727341	 0.135658	 0.835867	 -0.486483	 0.215076	 2
1463629245.558	 23	 1.587597	 0.227533	 -1.388289	 2.293952	 -0.875630	 -0.731907	 0.132607	 0.833275	 -0.494142	 0.209506	 2
1463629245.568	 23	 1.370024	 -0.203423	 -1.649385	 2.292623	 -0.897158	 -0.732454	 0.127261	 0.830606	 -0.501880	 0.204977	 2
1463629245.578	 23	 0.708597	 -0.563496	 -1.702396	 2.293199	 -0.916009	 -0.725240	 0.119813	 0.828839	 -0.507719	 0.202219	 2
1463629245.588	 23	 -0.391970	 0.338661	 -1.237865	 2.306981	 -0.925532	 -0.708409	 0.114026	 0.830007	 -0.508570	 0.198604	 2
1463629245.598	 23	 -0.650642	 1.072614	 -0.601049	 2.329904	 -0.926619	 -0.691872	 0.112706	 0.833046	 -0.506037	 0.193024	 2
1463629245.608	 23	 -0.080190	 0.511185	 -0.055978	 2.341144	 -0.926220	 -0.686760	 0.113509	 0.834464	 -0.504769	 0.189718	 2
1463629245.618	 23	 0.500461	 -0.425136	 0.277692	 2.333541	 -0.927290	 -0.693710	 0.114234	 0.833201	 -0.506246	 0.190895	 2
1463629245.628	 23	 0.688439	 -0.960742	 0.416015	 2.314965	 -0.929006	 -0.706270	 0.114335	 0.830465	 -0.509129	 0.195048	 2
1463629245.638	 23	 0.562861	 -1.124073	 0.429444	 2.294036	 -0.929888	 -0.718640	 0.113908	 0.827577	 -0.511855	 0.200365	 2
1463629245.648	 23	 0.291404	 -1.019773	 0.475408	 2.275725	 -0.928789	 -0.728212	 0.113439	 0.825311	 -0.513486	 0.205731	 2
1463629245.658	 23	 0.109815	 -0.676128	 0.562251	 2.261858	 -0.925577	 -0.735876	 0.113837	 0.823824	 -0.513964	 0.210229	 2
1463629245.668	 23	 0.046589	 -0.286601	 0.570689	 2.252673	 -0.921478	 -0.742639	 0.115292	 0.822950	 -0.513801	 0.213237	 2
1463629245.678	 23	 0.131739	 -0.051221	 0.502863	 2.246396	 -0.918033	 -0.749322	 0.117299	 0.822289	 -0.513705	 0.214916	 2
1463629245.688	 23	 0.320748	 0.054948	 0.406287	 2.240430	 -0.916361	 -0.757245	 0.119447	 0.821368	 -0.514342	 0.215729	 2
1463629245.698	 23	 0.324346	 0.006267	 0.294964	 2.234718	 -0.915953	 -0.764935	 0.121237	 0.820334	 -0.515378	 0.216192	 2
1463629245.708	 23	 0.208496	 -0.345449	 0.294831	 2.227566	 -0.915125	 -0.770819	 0.122017	 0.819292	 -0.516172	 0.217806	 2
1463629245.718	 23	 0.006098	 -0.800451	 0.390409	 2.217108	 -0.912674	 -0.775457	 0.121851	 0.818125	 -0.516496	 0.221483	 2
1463629245.728	 23	 -0.576613	 -1.021139	 0.376377	 2.208378	 -0.907093	 -0.773852	 0.120397	 0.817835	 -0.514978	 0.226822	 2
1463629245.738	 23	 -0.968135	 -1.181979	 0.332462	 2.203937	 -0.898952	 -0.765289	 0.117879	 0.818684	 -0.511529	 0.232806	 2
1463629245.748	 23	 -0.499309	 -1.548303	 0.314313	 2.193650	 -0.892398	 -0.759571	 0.114629	 0.818475	 -0.509248	 0.240053	 2
1463629245.758	 23	 0.113374	 -1.002922	 0.234122	 2.179654	 -0.890264	 -0.761981	 0.112612	 0.816854	 -0.509620	 0.245675	 2
1463629245.768	 23	 0.017079	 0.269878	 0.001678	 2.177661	 -0.890141	 -0.763766	 0.112866	 0.816520	 -0.509910	 0.246064	 2
1463629245.778	 23	 -0.480053	 0.833512	 -0.356436	 2.190842	 -0.890288	 -0.756780	 0.113327	 0.818510	 -0.508361	 0.242419	 2
1463629245.788	 23	 -0.806634	 0.381501	 -0.631700	 2.207864	 -0.890526	 -0.741802	 0.111439	 0.821377	 -0.505682	 0.239180	 2
1463629245.798	 23	 -0.721929	 -0.510323	 -0.815521	 2.218340	 -0.892037	 -0.724754	 0.106683	 0.823396	 -0.503590	 0.238820	 2
1463629245.808	 23	 -0.137257	 -1.388934	 -0.882076	 2.216483	 -0.897188	 -0.712086	 0.099681	 0.823257	 -0.503936	 0.241579	 2
1463629245.818	 23	 0.921729	 -1.908804	 -0.714954	 2.197454	 -0.907107	 -0.713173	 0.092753	 0.819773	 -0.508379	 0.246818	 2
1463629245.828	 23	 1.709915	 -1.828796	 -0.657126	 2.167010	 -0.921417	 -0.727854	 0.087189	 0.813738	 -0.516397	 0.252117	 2
1463629245.838	 23	 1.908802	 -1.441837	 -0.750110	 2.135821	 -0.937802	 -0.747539	 0.082631	 0.807183	 -0.525602	 0.255677	 2
1463629245.848	 23	 1.959612	 -1.256263	 -0.806377	 2.105783	 -0.954778	 -0.768809	 0.078538	 0.800699	 -0.534969	 0.257917	 2
1463629245.858	 23	 1.896941	 -1.411442	 -0.816867	 2.073951	 -0.971395	 -0.791021	 0.074121	 0.794053	 -0.544219	 0.260408	 2
1463629245.868	 23	 1.609737	 -1.608922	 -0.884413	 2.042084	 -0.986951	 -0.810584	 0.068638	 0.787673	 -0.552600	 0.263615	 2
1463629245.878	 23	 1.253497	 -1.705424	 -0.988785	 2.013267	 -1.001504	 -0.824805	 0.061932	 0.782026	 -0.559681	 0.267127	 2
1463629245.888	 23	 1.022771	 -1.682999	 -1.069697	 1.987852	 -1.015520	 -0.834826	 0.054505	 0.777046	 -0.565756	 0.270459	 2
1463629245.898	 23	 0.979348	 -1.573658	 -1.116261	 1.964208	 -1.029543	 -0.843715	 0.046986	 0.772362	 -0.571458	 0.273285	 2
1463629245.908	 23	 1.075065	 -1.374352	 -1.167462	 1.940759	 -1.044132	 -0.854346	 0.039877	 0.767649	 -0.577374	 0.275253	 2
1463629245.918	 23	 1.229918	 -1.082674	 -1.217253	 1.917060	 -1.059601	 -0.868260	 0.033525	 0.762819	 -0.583798	 0.275976	 2
1463629245.928	 23	 1.363776	 -0.754452	 -1.222824	 1.893082	 -1.075528	 -0.886097	 0.028266	 0.757937	 -0.590688	 0.275356	 2
1463629245.938	 23	 1.423813	 -0.484348	 -1.205913	 1.869232	 -1.091372	 -0.906928	 0.024014	 0.753150	 -0.597757	 0.273631	 2
1463629245.948	 23	 1.451151	 -0.370399	 -1.175250	 1.844735	 -1.106799	 -0.930072	 0.020374	 0.748411	 -0.604834	 0.271370	 2
1463629245.958	 23	 1.457210	 -0.454348	 -1.162229	 1.818008	 -1.121798	 -0.955183	 0.016728	 0.743524	 -0.611877	 0.269256	 2
1463629245.968	 23	 1.421629	 -0.749991	 -1.171064	 1.787506	 -1.136467	 -0.981557	 0.012277	 0.738302	 -0.618808	 0.268024	 2
1463629245.978	 23	 1.295380	 -1.052678	 -1.161058	 1.754060	 -1.150545	 -1.007494	 0.006714	 0.732892	 -0.625320	 0.267953	 2
1463629245.988	 23	 1.160589	 -1.356402	 -1.150988	 1.718814	 -1.163875	 -1.031993	 0.000081	 0.727451	 -0.631237	 0.268990	 2
1463629245.998	 23	 1.063400	 -1.595455	 -1.154497	 1.681477	 -1.176711	 -1.055793	 -0.007519	 0.721906	 -0.636699	 0.270942	 2
1463629246.008	 23	 0.990250	 -1.716511	 -1.157118	 1.642547	 -1.189139	 -1.079513	 -0.015730	 0.716312	 -0.641792	 0.273408	 2
1463629246.018	 23	 0.978640	 -1.681444	 -1.166283	 1.602337	 -1.201259	 -1.104500	 -0.024001	 0.710717	 -0.646710	 0.275811	 2
1463629246.028	 23	 0.992433	 -1.617305	 -1.262791	 1.560433	 -1.213707	 -1.131907	 -0.032290	 0.705086	 -0.651682	 0.277707	 2
1463629246.038	 23	 1.025636	 -1.602420	 -1.250152	 1.515432	 -1.225945	 -1.162716	 -0.040544	 0.699287	 -0.656717	 0.279420	 2
1463629246.048	 23	 1.040850	 -1.560843	 -1.230714	 1.467603	 -1.237433	 -1.196777	 -0.048565	 0.693389	 -0.661713	 0.281050	 2
1463629246.058	 23	 1.036604	 -1.541808	 -1.247552	 1.417216	 -1.248403	 -1.233676	 -0.056514	 0.687439	 -0.666638	 0.282539	 2
1463629246.068	 23	 1.009844	 -1.526059	 -1.286606	 1.364440	 -1.259146	 -1.273112	 -0.064563	 0.681482	 -0.671464	 0.283814	 2
1463629246.078	 23	 0.967305	 -1.485597	 -1.297582	 1.309904	 -1.269508	 -1.314599	 -0.072622	 0.675613	 -0.676112	 0.284860	 2
1463629246.088	 23	 0.891085	 -1.376695	 -1.271393	 1.255183	 -1.279178	 -1.357077	 -0.080403	 0.670011	 -0.680475	 0.285612	 2
1463629246.098	 23	 0.712969	 -1.163154	 -1.230553	 1.204478	 -1.288312	 -1.397192	 -0.087624	 0.665133	 -0.684287	 0.285783	 2
1463629246.108	 23	 0.477688	 -0.864248	 -1.174567	 1.161900	 -1.297302	 -1.431686	 -0.094030	 0.661410	 -0.687337	 0.285066	 2
1463629246.118	 23	 0.316938	 -0.617538	 -1.099465	 1.126897	 -1.306039	 -1.461037	 -0.099533	 0.658713	 -0.689755	 0.283600	 2
1463629246.128	 23	 0.272740	 -0.544572	 -1.029127	 1.094653	 -1.314172	 -1.488727	 -0.104473	 0.656442	 -0.691868	 0.281935	 2
1463629246.138	 23	 0.251074	 -0.656871	 -0.976695	 1.061542	 -1.321655	 -1.516510	 -0.109498	 0.654144	 -0.693773	 0.280686	 2
1463629246.148	 23	 0.184019	 -0.874462	 -0.941900	 1.027496	 -1.328850	 -1.543302	 -0.115113	 0.651781	 -0.695310	 0.280133	 2
1463629246.158	 23	 0.128775	 -1.299522	 -0.911270	 0.990524	 -1.335870	 -1.569155	 -0.122025	 0.649077	 -0.696361	 0.280873	 2
1463629246.168	 23	 0.017086	 -1.698899	 -0.882041	 0.951386	 -1.342924	 -1.592847	 -0.130432	 0.646074	 -0.696763	 0.283015	 2
1463629246.178	 23	 -0.184579	 -1.937454	 -0.859058	 0.914442	 -1.350641	 -1.611371	 -0.139980	 0.643253	 -0.696301	 0.286001	 2
1463629246.188	 23	 -0.489477	 -1.922287	 -0.797645	 0.886317	 -1.359572	 -1.620225	 -0.149963	 0.641273	 -0.694759	 0.289118	 2
1463629246.198	 23	 -0.863742	 -1.552951	 -0.619362	 0.877579	 -1.369673	 -1.612133	 -0.159018	 0.641003	 -0.691984	 0.291525	 2
1463629246.208	 23	 -1.114969	 -0.989550	 -0.324176	 0.895139	 -1.379523	 -1.582702	 -0.165763	 0.642709	 -0.688225	 0.292906	 2
1463629246.218	 23	 -1.130802	 -0.487762	 -0.069981	 0.932519	 -1.387501	 -1.538490	 -0.169927	 0.645620	 -0.684238	 0.293459	 2
1463629246.228	 23	 -1.091581	 -0.040711	 0.138464	 0.982973	 -1.393105	 -1.485691	 -0.171763	 0.649220	 -0.680430	 0.293301	 2
1463629246.238	 23	 -1.151262	 0.253479	 0.347404	 1.047566	 -1.396556	 -1.422068	 -0.171795	 0.653586	 -0.676493	 0.292695	 2
1463629246.248	 23	 -1.398935	 0.296049	 0.543925	 1.130485	 -1.398279	 -1.340930	 -0.171088	 0.658897	 -0.671694	 0.292251	 2
1463629246.258	 23	 -1.916755	 0.304334	 0.743545	 1.242730	 -1.398503	 -1.229951	 -0.170412	 0.665837	 -0.665060	 0.292089	 2
1463629246.268	 23	 -2.533594	 0.578882	 0.952900	 1.391994	 -1.395749	 -1.083419	 -0.169239	 0.675183	 -0.656185	 0.291389	 2
1463629246.278	 23	 -3.021109	 1.134787	 1.145629	 1.567685	 -1.387434	 -0.914797	 -0.166556	 0.687005	 -0.645485	 0.289193	 2
1463629246.288	 23	 -3.163097	 2.033729	 1.407816	 1.742242	 -1.371530	 -0.755257	 -0.160753	 0.700745	 -0.634110	 0.284638	 2
1463629246.298	 23	 -2.972157	 3.101248	 1.730487	 1.889449	 -1.348090	 -0.633720	 -0.150256	 0.715556	 -0.623243	 0.277436	 2
1463629246.308	 23	 -2.588886	 4.001147	 2.043529	 2.001548	 -1.320000	 -0.557432	 -0.135121	 0.730449	 -0.613547	 0.267857	 2
1463629246.318	 23	 -2.134838	 4.663320	 2.457121	 2.081100	 -1.288905	 -0.521730	 -0.115680	 0.744684	 -0.605009	 0.256960	 2
1463629246.328	 23	 -1.751052	 5.088919	 2.926675	 2.135826	 -1.255396	 -0.516843	 -0.092411	 0.757962	 -0.597177	 0.245629	 2
1463629246.338	 23	 -1.444295	 5.060248	 3.350043	 2.171506	 -1.219931	 -0.533002	 -0.066689	 0.769864	 -0.589522	 0.235216	 2
1463629246.348	 23	 -1.306285	 4.513532	 3.549446	 2.194195	 -1.183544	 -0.558903	 -0.040883	 0.780104	 -0.581582	 0.226998	 2
1463629246.358	 23	 -1.343378	 3.469962	 3.511282	 2.208124	 -1.147176	 -0.584612	 -0.017665	 0.788663	 -0.572966	 0.222281	 2
1463629246.368	 23	 -1.413703	 2.111267	 3.272244	 2.214186	 -1.112032	 -0.605174	 0.001032	 0.795507	 -0.563828	 0.221958	 2
1463629246.378	 23	 -1.392603	 0.563083	 2.900624	 2.210667	 -1.079591	 -0.619908	 0.014119	 0.800388	 -0.554833	 0.226583	 2
1463629246.388	 23	 -1.273975	 -1.037185	 2.426422	 2.196009	 -1.051318	 -0.629295	 0.021052	 0.803012	 -0.546709	 0.236300	 2
1463629246.398	 23	 -1.140471	 -2.246740	 2.009015	 2.171818	 -1.027404	 -0.634334	 0.022688	 0.803539	 -0.539680	 0.250110	 2
1463629246.408	 23	 -1.170985	 -2.643947	 1.783906	 2.144861	 -1.005833	 -0.635411	 0.021562	 0.803060	 -0.533000	 0.265596	 2
1463629246.418	 23	 -1.363894	 -2.112863	 1.753226	 2.124569	 -0.984037	 -0.632218	 0.020719	 0.803217	 -0.525590	 0.279587	 2
1463629246.428	 23	 -1.479325	 -1.092953	 1.840456	 2.115443	 -0.960932	 -0.626838	 0.022383	 0.804907	 -0.517267	 0.289927	 2
1463629246.438	 23	 -1.366448	 -0.138156	 1.987973	 2.114573	 -0.936979	 -0.623438	 0.027232	 0.807749	 -0.508775	 0.296561	 2
1463629246.448	 23	 -1.075236	 0.566592	 2.193424	 2.117049	 -0.912723	 -0.625445	 0.035186	 0.810938	 -0.500851	 0.300483	 2
1463629246.458	 23	 -0.741639	 1.032522	 2.337667	 2.120069	 -0.888701	 -0.633475	 0.045643	 0.813927	 -0.493827	 0.302612	 2
1463629246.468	 23	 -0.566675	 1.402754	 2.421653	 2.124037	 -0.865202	 -0.645235	 0.057708	 0.816727	 -0.487456	 0.303338	 2
1463629246.478	 23	 -0.454594	 1.596334	 2.467240	 2.129510	 -0.841702	 -0.658719	 0.070834	 0.819485	 -0.481224	 0.303067	 2
1463629246.488	 23	 -0.288506	 1.605684	 2.357174	 2.134798	 -0.819681	 -0.673444	 0.084016	 0.821798	 -0.475617	 0.302288	 2
1463629246.498	 23	 -0.107869	 1.402498	 2.132031	 2.138456	 -0.800347	 -0.688623	 0.096273	 0.823384	 -0.471016	 0.301521	 2
1463629246.508	 23	 0.074948	 1.043497	 1.835080	 2.139177	 -0.784398	 -0.703635	 0.106869	 0.824060	 -0.467682	 0.301292	 2
1463629246.518	 23	 0.241612	 0.648426	 1.544329	 2.136400	 -0.771879	 -0.718163	 0.115543	 0.823816	 -0.465665	 0.301884	 2
1463629246.528	 23	 0.406417	 0.463533	 1.341876	 2.131177	 -0.762101	 -0.732737	 0.122943	 0.822878	 -0.464781	 0.302878	 2
1463629246.548	 24	 0.768178	 0.972661	 1.001354	 2.124343	 -0.749672	 -0.764035	 0.137556	 0.820649	 -0.465660	 0.301288	 2
1463629246.558	 24	 0.860897	 1.299939	 0.849056	 2.125588	 -0.746563	 -0.780145	 0.145293	 0.819890	 -0.466918	 0.297754	 2
1463629246.568	 24	 0.926687	 1.572010	 0.699677	 2.129925	 -0.745109	 -0.795974	 0.153187	 0.819437	 -0.468433	 0.292621	 2
1463629246.578	 24	 0.978066	 1.756677	 0.518703	 2.136766	 -0.745467	 -0.811196	 0.160932	 0.819211	 -0.470221	 0.286160	 2
1463629246.588	 24	 1.013738	 1.816624	 0.293008	 2.145266	 -0.747946	 -0.825321	 0.168055	 0.819105	 -0.472359	 0.278748	 2
1463629246.598	 24	 1.034886	 1.762599	 0.038670	 2.154521	 -0.752722	 -0.837875	 0.174109	 0.819026	 -0.474912	 0.270815	 2
1463629246.618	 25	 1.076406	 1.446464	 -0.417582	 2.172213	 -0.768878	 -0.858115	 0.182325	 0.818584	 -0.481450	 0.254724	 2
1463629246.628	 25	 1.112196	 1.280078	 -0.613411	 2.179671	 -0.779763	 -0.866298	 0.184590	 0.818093	 -0.485449	 0.246962	 2
1463629246.638	 25	 1.172625	 1.154917	 -0.834649	 2.186524	 -0.792780	 -0.873352	 0.185699	 0.817434	 -0.490025	 0.239149	 2
1463629246.648	 25	 1.247207	 1.092439	 -1.059690	 2.193338	 -0.808067	 -0.879293	 0.185761	 0.816654	 -0.495179	 0.231012	 2
1463629246.658	 25	 1.389074	 0.989788	 -1.223876	 2.199185	 -0.825627	 -0.885180	 0.184977	 0.815531	 -0.501114	 0.222661	 2
1463629246.668	 25	 1.335561	 1.013918	 -1.291394	 2.205330	 -0.844037	 -0.890346	 0.183763	 0.814356	 -0.507163	 0.214108	 2
1463629246.678	 25	 1.075568	 1.075504	 -1.264045	 2.214150	 -0.861125	 -0.892785	 0.182489	 0.813717	 -0.512198	 0.205468	 2
1463629246.688	 25	 0.677652	 1.204342	 -1.112306	 2.226499	 -0.875162	 -0.891679	 0.181517	 0.813896	 -0.515542	 0.197082	 2
1463629246.708	 26	 0.058449	 0.777412	 -0.394695	 2.256502	 -0.888215	 -0.882832	 0.182255	 0.816394	 -0.516252	 0.183760	 2
1463629246.718	 26	 0.287722	 -0.297581	 0.034531	 2.254757	 -0.890112	 -0.884799	 0.182118	 0.815879	 -0.517215	 0.183475	 2
1463629246.728	 26	 0.567495	 -1.151709	 0.287390	 2.238345	 -0.891379	 -0.893468	 0.181064	 0.813454	 -0.519924	 0.187584	 2
1463629246.738	 26	 0.628992	 -1.455081	 0.278703	 2.215794	 -0.892912	 -0.904270	 0.179163	 0.810197	 -0.523480	 0.193519	 2
1463629246.748	 26	 0.460278	 -1.238772	 0.265133	 2.195501	 -0.893859	 -0.913345	 0.177252	 0.807317	 -0.526481	 0.199093	 2
1463629246.758	 26	 0.194562	 -0.617394	 0.336108	 2.182637	 -0.892809	 -0.919723	 0.176717	 0.805545	 -0.527929	 0.202878	 2
1463629246.768	 26	 -0.137350	 0.003065	 0.400191	 2.179088	 -0.889355	 -0.922529	 0.177849	 0.805206	 -0.527444	 0.204489	 2
1463629246.778	 26	 -0.296591	 0.298023	 0.529017	 2.180856	 -0.883741	 -0.923388	 0.180186	 0.805744	 -0.525608	 0.205051	 2
1463629246.788	 26	 -0.397692	 0.549626	 0.569540	 2.185085	 -0.877016	 -0.924097	 0.183403	 0.806626	 -0.523175	 0.204954	 2
1463629246.798	 26	 -1.064938	 0.538442	 0.517694	 2.195680	 -0.867749	 -0.917885	 0.186149	 0.808990	 -0.518613	 0.204755	 2
1463629246.808	 26	 -1.793121	 -0.066097	 0.606867	 2.207980	 -0.853392	 -0.902866	 0.187054	 0.812758	 -0.511289	 0.207411	 2
1463629246.818	 26	 -1.992332	 -0.358741	 0.505697	 2.218930	 -0.837080	 -0.884182	 0.186513	 0.816910	 -0.502956	 0.211911	 2
1463629246.828	 26	 -1.647134	 -0.601911	 0.113557	 2.227681	 -0.824614	 -0.865108	 0.184135	 0.820587	 -0.495944	 0.216267	 2
1463629246.838	 26	 -0.383877	 -0.976938	 -0.050138	 2.225520	 -0.820167	 -0.855927	 0.180982	 0.821538	 -0.493641	 0.220545	 2
1463629246.848	 26	 0.967183	 -0.668889	 -0.145362	 2.211913	 -0.825243	 -0.863299	 0.179314	 0.818970	 -0.497389	 0.223020	 2
1463629246.858	 26	 0.707145	 0.369618	 -0.485136	 2.208013	 -0.833605	 -0.869993	 0.178887	 0.817294	 -0.501266	 0.220822	 2
1463629246.868	 26	 -0.008057	 0.824439	 -0.536491	 2.218197	 -0.838857	 -0.866821	 0.178768	 0.818277	 -0.501755	 0.216118	 2
1463629246.878	 26	 -0.059540	 0.240272	 -0.444494	 2.226467	 -0.841954	 -0.861527	 0.177868	 0.819385	 -0.501483	 0.213275	 2
1463629246.888	 26	 0.305069	 -0.661305	 -0.540253	 2.223582	 -0.847234	 -0.859443	 0.174916	 0.818824	 -0.503278	 0.213644	 2
1463629246.898	 26	 0.501276	 -1.225795	 -0.714539	 2.212837	 -0.855439	 -0.858946	 0.169855	 0.817026	 -0.506877	 0.216084	 2
1463629246.908	 26	 0.521217	 -1.447735	 -0.804170	 2.199382	 -0.864855	 -0.858192	 0.163639	 0.814834	 -0.511022	 0.219371	 2
1463629246.918	 26	 0.580880	 -1.663033	 -0.841864	 2.183709	 -0.874878	 -0.857737	 0.156761	 0.812293	 -0.515501	 0.223303	 2
1463629246.928	 26	 0.731737	 -1.965071	 -0.923788	 2.164083	 -0.886214	 -0.858692	 0.149005	 0.809053	 -0.520769	 0.228101	 2
1463629246.938	 26	 0.823096	 -2.201076	 -1.017370	 2.141045	 -0.898973	 -0.860716	 0.140295	 0.805183	 -0.526729	 0.233569	 2
1463629246.948	 26	 0.881459	 -2.461083	 -1.060796	 2.114864	 -0.912485	 -0.863610	 0.130762	 0.800773	 -0.533071	 0.239791	 2
1463629246.958	 26	 0.946281	 -2.725225	 -1.085134	 2.084839	 -0.926503	 -0.867865	 0.120438	 0.795714	 -0.539771	 0.246943	 2
1463629246.968	 26	 1.049280	 -2.828750	 -1.092323	 2.051618	 -0.940935	 -0.874168	 0.109748	 0.790045	 -0.546794	 0.254559	 2
1463629246.978	 26	 1.218251	 -2.741071	 -1.106833	 2.016087	 -0.956043	 -0.883743	 0.099287	 0.783806	 -0.554288	 0.261830	 2
1463629246.988	 26	 1.329923	 -2.380740	 -1.093795	 1.980611	 -0.971462	 -0.896614	 0.089780	 0.777379	 -0.562023	 0.267866	 2
1463629246.998	 26	 1.400163	 -1.770204	 -1.062081	 1.948399	 -0.986633	 -0.912131	 0.082035	 0.771322	 -0.569644	 0.271733	 2
1463629247.008	 26	 1.481249	 -1.102439	 -1.054442	 1.920491	 -1.001678	 -0.930320	 0.076349	 0.765823	 -0.577197	 0.272999	 2
1463629247.018	 26	 1.538150	 -0.556101	 -1.080760	 1.896414	 -1.016842	 -0.950682	 0.072350	 0.760859	 -0.584733	 0.271930	 2
1463629247.038	 27	 1.563325	 0.089977	 -1.152768	 1.855841	 -1.047703	 -0.995551	 0.067420	 0.752126	 -0.599636	 0.264949	 2
1463629247.048	 27	 1.549736	 0.183328	 -1.192280	 1.836782	 -1.063313	 -1.019383	 0.065532	 0.748049	 -0.606964	 0.260235	 2
1463629247.058	 27	 1.518509	 0.156550	 -1.230625	 1.817108	 -1.078991	 -1.043745	 0.063468	 0.744004	 -0.614176	 0.255378	 2
1463629247.068	 27	 1.484589	 0.014881	 -1.273213	 1.795681	 -1.094755	 -1.068612	 0.060854	 0.739859	 -0.621294	 0.250797	 2
1463629247.078	 27	 1.439517	 -0.238350	 -1.303952	 1.771363	 -1.110507	 -1.093960	 0.057341	 0.735500	 -0.628309	 0.246938	 2
1463629247.088	 27	 1.392249	 -0.523321	 -1.312587	 1.743479	 -1.125993	 -1.119921	 0.052825	 0.730874	 -0.635186	 0.244074	 2
1463629247.098	 27	 1.371822	 -0.778551	 -1.315850	 1.711677	 -1.141125	 -1.147119	 0.047420	 0.725946	 -0.641967	 0.242140	 2
1463629247.108	 27	 1.396306	 -1.013714	 -1.320383	 1.675082	 -1.155914	 -1.176760	 0.041240	 0.720610	 -0.648787	 0.241032	 2
1463629247.118	 27	 1.449716	 -1.228722	 -1.320717	 1.632723	 -1.170273	 -1.210091	 0.034395	 0.714760	 -0.655753	 0.240671	 2
1463629247.128	 27	 1.498912	 -1.433073	 -1.319850	 1.584269	 -1.184019	 -1.247577	 0.026933	 0.708389	 -0.662850	 0.241016	 2
1463629247.138	 27	 1.527823	 -1.634219	 -1.325170	 1.529903	 -1.197046	 -1.289077	 0.018832	 0.701557	 -0.669995	 0.242011	 2
1463629247.148	 27	 1.541716	 -1.847059	 -1.335798	 1.469663	 -1.209255	 -1.334403	 0.010006	 0.694294	 -0.677112	 0.243671	 2
1463629247.158	 27	 1.534361	 -2.042793	 -1.342884	 1.403861	 -1.220490	 -1.383302	 0.000465	 0.686650	 -0.684116	 0.245961	 2
1463629247.168	 27	 1.458008	 -2.154352	 -1.357112	 1.334582	 -1.230773	 -1.434246	 -0.009652	 0.678883	 -0.690802	 0.248631	 2
1463629247.178	 27	 1.260939	 -2.074039	 -1.362110	 1.266538	 -1.240388	 -1.483958	 -0.019924	 0.671570	 -0.696803	 0.251123	 2
1463629247.188	 27	 0.979702	 -1.748759	 -1.354502	 1.205608	 -1.249739	 -1.528837	 -0.029567	 0.665415	 -0.701789	 0.252670	 2
1463629247.198	 27	 0.781038	 -1.328087	 -1.359516	 1.152168	 -1.259142	 -1.569987	 -0.038071	 0.660474	 -0.705993	 0.252780	 2
1463629247.208	 27	 0.681394	 -0.965058	 -1.353139	 1.103353	 -1.268385	 -1.610203	 -0.045358	 0.656386	 -0.709795	 0.251577	 2
1463629247.218	 27	 0.628040	 -0.765765	 -1.319913	 1.056527	 -1.277096	 -1.650772	 -0.051770	 0.652777	 -0.713361	 0.249635	 2
1463629247.228	 27	 0.600822	 -0.699349	 -1.265769	 1.009947	 -1.284985	 -1.691963	 -0.057723	 0.649374	 -0.716733	 0.247538	 2
1463629247.238	 27	 0.566844	 -0.715810	 -1.202747	 0.963124	 -1.291969	 -1.733361	 -0.063495	 0.646062	 -0.719890	 0.245623	 2
1463629247.248	 27	 0.493941	 -0.837467	 -1.142502	 0.916274	 -1.298277	 -1.773738	 -0.069478	 0.642840	 -0.722702	 0.244196	 2
1463629247.258	 27	 0.368235	 -1.085389	 -1.060585	 0.870195	 -1.304194	 -1.811006	 -0.076136	 0.639751	 -0.724943	 0.243680	 2
1463629247.268	 27	 0.181337	 -1.440296	 -0.942895	 0.826422	 -1.309960	 -1.842419	 -0.083839	 0.636875	 -0.726338	 0.244530	 2
1463629247.278	 27	 -0.150894	 -1.855244	 -0.803183	 0.788470	 -1.316416	 -1.863569	 -0.092931	 0.634561	 -0.726414	 0.247021	 2
1463629247.288	 27	 -0.666476	 -2.241870	 -0.645624	 0.762248	 -1.324986	 -1.868466	 -0.103554	 0.633461	 -0.724543	 0.251080	 2
1463629247.298	 27	 -1.327386	 -2.476748	 -0.448087	 0.755483	 -1.336813	 -1.850365	 -0.115403	 0.634267	 -0.720188	 0.256353	 2
1463629247.308	 27	 -2.085186	 -2.294755	 -0.152039	 0.781576	 -1.352080	 -1.799227	 -0.127115	 0.637837	 -0.713028	 0.261910	 2
1463629247.318	 27	 -2.686562	 -1.633699	 0.267535	 0.855840	 -1.368452	 -1.704703	 -0.136438	 0.644600	 -0.703420	 0.266599	 2
1463629247.328	 27	 -2.921379	 -0.866271	 0.690236	 0.978632	 -1.381332	 -1.568807	 -0.142066	 0.653649	 -0.692553	 0.270055	 2
1463629247.338	 27	 -3.074119	 -0.263584	 1.015837	 1.139414	 -1.388001	 -1.401053	 -0.144484	 0.664169	 -0.681007	 0.272457	 2
1463629247.348	 27	 -3.298944	 0.518400	 1.249947	 1.329470	 -1.387425	 -1.210849	 -0.143888	 0.676392	 -0.668717	 0.273142	 2
1463629247.358	 27	 -3.262259	 1.606402	 1.401499	 1.525038	 -1.378611	 -1.025291	 -0.139325	 0.690087	 -0.656534	 0.270798	 2
1463629247.368	 27	 -2.915909	 2.708600	 1.582458	 1.694825	 -1.362020	 -0.876947	 -0.130061	 0.704205	 -0.645609	 0.265270	 2
1463629247.378	 27	 -2.477965	 3.584706	 1.716821	 1.828321	 -1.340649	 -0.774853	 -0.116640	 0.717945	 -0.636314	 0.257010	 2
1463629247.388	 27	 -2.079129	 3.971616	 1.990849	 1.927893	 -1.315799	 -0.712628	 -0.100068	 0.730803	 -0.628138	 0.247702	 2
1463629247.398	 27	 -1.753481	 3.777982	 2.261179	 1.997206	 -1.288530	 -0.680713	 -0.082170	 0.742192	 -0.620500	 0.239537	 2
1463629247.408	 27	 -1.613056	 3.365689	 2.371222	 2.046446	 -1.260177	 -0.665514	 -0.064592	 0.752202	 -0.612875	 0.233245	 2
1463629247.418	 27	 -1.612498	 2.774589	 2.408348	 2.084077	 -1.231456	 -0.656807	 -0.048440	 0.761169	 -0.604854	 0.228970	 2
1463629247.428	 27	 -1.605962	 2.026635	 2.524959	 2.109806	 -1.201868	 -0.652901	 -0.034117	 0.769016	 -0.596333	 0.227678	 2
1463629247.438	 27	 -1.676461	 1.375386	 2.745454	 2.125548	 -1.170337	 -0.652454	 -0.021103	 0.776032	 -0.587087	 0.229472	 2
1463629247.448	 27	 -1.705638	 0.906788	 2.942777	 2.133474	 -1.136720	 -0.654829	 -0.008829	 0.782368	 -0.577177	 0.233857	 2
1463629247.458	 27	 -1.691714	 0.649714	 2.992486	 2.137116	 -1.102382	 -0.658568	 0.002897	 0.788103	 -0.566978	 0.239629	 2
1463629247.468	 27	 -1.556602	 0.564199	 2.988382	 2.138009	 -1.068597	 -0.664102	 0.014402	 0.793161	 -0.557016	 0.245808	 2
1463629247.478	 27	 -1.382800	 0.541280	 2.978130	 2.136505	 -1.035786	 -0.672088	 0.025981	 0.797476	 -0.547577	 0.252024	 2
1463629247.488	 27	 -1.233050	 0.623721	 2.966935	 2.134022	 -1.003942	 -0.681975	 0.037840	 0.801199	 -0.538638	 0.257910	 2
1463629247.498	 27	 -1.118949	 0.863485	 2.928740	 2.132873	 -0.972936	 -0.692877	 0.050285	 0.804650	 -0.530028	 0.262829	 2
1463629247.508	 27	 -1.013241	 1.192113	 2.821104	 2.134822	 -0.943280	 -0.704028	 0.063311	 0.808041	 -0.521749	 0.266155	 2
1463629247.518	 27	 -0.878715	 1.516446	 2.719571	 2.139846	 -0.915245	 -0.715691	 0.076903	 0.811370	 -0.513880	 0.267753	 2
1463629247.528	 27	 -0.730344	 1.792180	 2.668623	 2.146894	 -0.888567	 -0.728712	 0.091173	 0.814511	 -0.506450	 0.267894	 2
1463629247.538	 27	 -0.580239	 1.983878	 2.616878	 2.155249	 -0.863185	 -0.743159	 0.105968	 0.817370	 -0.499454	 0.266877	 2
1463629247.548	 27	 -0.441769	 1.998815	 2.532681	 2.163602	 -0.839280	 -0.758701	 0.120773	 0.819766	 -0.492971	 0.265287	 2
1463629247.558	 27	 -0.334008	 1.906888	 2.366760	 2.171408	 -0.817307	 -0.774373	 0.134943	 0.821659	 -0.487074	 0.263487	 2
1463629247.568	 27	 -0.246232	 1.722925	 2.114896	 2.178496	 -0.797842	 -0.789124	 0.147861	 0.823093	 -0.481860	 0.261662	 2
1463629247.578	 27	 -0.165934	 1.549513	 1.848274	 2.184801	 -0.781112	 -0.802537	 0.159290	 0.824134	 -0.477386	 0.259872	 2
1463629247.588	 27	 -0.073016	 1.530568	 1.620282	 2.191384	 -0.766889	 -0.814981	 0.169702	 0.824965	 -0.473560	 0.257634	 2
1463629247.598	 27	 0.060947	 1.589373	 1.423562	 2.198742	 -0.755103	 -0.827123	 0.179513	 0.825638	 -0.470405	 0.254590	 2
1463629247.608	 27	 0.182316	 1.669691	 1.254862	 2.206901	 -0.745567	 -0.839311	 0.188925	 0.826159	 -0.467895	 0.250686	 2
1463629247.618	 27	 0.273842	 1.764928	 1.078035	 2.216278	 -0.738058	 -0.851156	 0.197939	 0.826643	 -0.465856	 0.245886	 2
1463629247.628	 27	 0.332337	 1.875116	 0.896306	 2.227287	 -0.732508	 -0.862287	 0.206517	 0.827191	 -0.464168	 0.240113	 2
1463629247.638	 27	 0.352278	 1.951429	 0.720991	 2.239966	 -0.728625	 -0.872299	 0.214581	 0.827869	 -0.462668	 0.233507	 2
1463629247.648	 27	 0.364324	 1.932088	 0.552316	 2.253594	 -0.726252	 -0.881035	 0.221943	 0.828624	 -0.461357	 0.226435	 2
1463629247.658	 27	 0.386678	 1.830859	 0.389184	 2.267158	 -0.725344	 -0.888608	 0.228434	 0.829337	 -0.460357	 0.219294	 2
1463629247.668	 27	 0.416135	 1.667783	 0.207296	 2.280050	 -0.726034	 -0.894971	 0.233869	 0.829951	 -0.459795	 0.212310	 2
1463629247.678	 27	 0.445402	 1.483273	 0.002829	 2.292076	 -0.728496	 -0.899876	 0.238066	 0.830477	 -0.459753	 0.205573	 2
1463629247.688	 27	 0.491988	 1.346607	 -0.197080	 2.303502	 -0.732777	 -0.903365	 0.241103	 0.830943	 -0.460242	 0.198947	 2
1463629247.698	 27	 0.571981	 1.282140	 -0.400871	 2.314894	 -0.739056	 -0.905679	 0.243173	 0.831365	 -0.461300	 0.192098	 2
1463629247.708	 27	 0.703290	 1.239834	 -0.608100	 2.326398	 -0.747687	 -0.907132	 0.244363	 0.831682	 -0.463075	 0.184804	 2
1463629247.718	 27	 0.915794	 1.173199	 -0.764040	 2.337202	 -0.758878	 -0.908754	 0.244876	 0.831660	 -0.465843	 0.177108	 2
1463629247.728	 27	 1.209164	 1.026808	 -0.885191	 2.345850	 -0.772889	 -0.911724	 0.244800	 0.830993	 -0.469969	 0.169272	 2
1463629247.738	 27	 1.692182	 0.594760	 -1.013848	 2.348975	 -0.790778	 -0.917665	 0.243748	 0.829118	 -0.476340	 0.162019	 2
1463629247.748	 27	 2.118754	 -0.209864	 -1.208360	 2.342387	 -0.813253	 -0.926895	 0.240592	 0.825638	 -0.485658	 0.156759	 2
1463629247.758	 27	 2.138828	 -0.782367	 -1.385450	 2.328786	 -0.837979	 -0.936129	 0.235038	 0.821403	 -0.496426	 0.153675	 2
1463629247.768	 27	 1.685843	 -0.684060	 -1.359276	 2.316918	 -0.860547	 -0.942059	 0.228915	 0.817859	 -0.505829	 0.151135	 2
1463629247.778	 27	 0.939539	 -0.043125	 -1.132596	 2.314722	 -0.876981	 -0.942252	 0.224332	 0.816208	 -0.511546	 0.147648	 2
1463629247.788	 27	 0.531208	 0.197813	 -0.780426	 2.318388	 -0.887482	 -0.939855	 0.221667	 0.815775	 -0.514432	 0.143994	 2
1463629247.798	 27	 0.561671	 -0.250263	 -0.369213	 2.316540	 -0.894589	 -0.940965	 0.219862	 0.814851	 -0.517057	 0.142584	 2
1463629247.808	 27	 0.763915	 -1.176244	 0.063767	 2.301014	 -0.899704	 -0.948956	 0.217792	 0.812380	 -0.521004	 0.145467	 2
1463629247.818	 27	 0.815939	 -2.130685	 0.325136	 2.271820	 -0.902986	 -0.961910	 0.214555	 0.808505	 -0.526184	 0.153025	 2
1463629247.828	 27	 0.481225	 -2.690552	 0.280210	 2.237731	 -0.904384	 -0.972398	 0.209408	 0.804576	 -0.531069	 0.163620	 2
1463629247.838	 27	 -0.153089	 -2.650434	 0.129439	 2.209322	 -0.903143	 -0.974229	 0.202913	 0.802082	 -0.533767	 0.174884	 2
1463629247.848	 27	 -0.738663	 -2.526906	 0.060018	 2.189582	 -0.899029	 -0.967049	 0.195882	 0.801331	 -0.533817	 0.185842	 2
1463629247.858	 27	 -0.970815	 -2.368387	 0.264943	 2.173378	 -0.892148	 -0.956486	 0.189212	 0.801306	 -0.532246	 0.197032	 2
1463629247.868	 27	 -1.579295	 0.222761	 0.632199	 2.177399	 -0.880121	 -0.943809	 0.188478	 0.803780	 -0.526871	 0.202041	 2
1463629247.878	 27	 -2.185264	 1.004506	 0.825929	 2.202377	 -0.861214	 -0.924465	 0.192293	 0.809542	 -0.516557	 0.202074	 2
1463629247.888	 27	 -2.148772	 -0.227780	 0.461378	 2.219978	 -0.843637	 -0.903285	 0.192851	 0.814703	 -0.507008	 0.204965	 2
1463629247.898	 27	 -1.473051	 -2.365847	 -0.174017	 2.217032	 -0.833414	 -0.882934	 0.186486	 0.817107	 -0.501786	 0.213941	 2
1463629247.908	 27	 0.052319	 -3.373514	 -0.496154	 2.190592	 -0.834674	 -0.873789	 0.175777	 0.814927	 -0.503589	 0.226705	 2
1463629247.918	 27	 1.582529	 -1.245782	 -0.100675	 2.160429	 -0.844165	 -0.889078	 0.171783	 0.809444	 -0.511054	 0.232626	 2
1463629247.928	 27	 0.641883	 0.139469	 0.018455	 2.150579	 -0.849185	 -0.900960	 0.172689	 0.806926	 -0.514889	 0.232246	 2
1463629247.938	 27	 0.168270	 0.472176	 -0.054257	 2.153093	 -0.850672	 -0.903388	 0.173909	 0.806904	 -0.515425	 0.230215	 2
1463629247.948	 27	 0.275922	 0.125035	 -0.212960	 2.154147	 -0.853415	 -0.905188	 0.174156	 0.806678	 -0.516411	 0.228604	 2
1463629247.958	 27	 0.228888	 -0.348979	 -0.475942	 2.152089	 -0.858142	 -0.904827	 0.172184	 0.806144	 -0.518048	 0.228281	 2
1463629247.968	 27	 0.449757	 -0.813150	 -0.740099	 2.145807	 -0.865827	 -0.903907	 0.168069	 0.804960	 -0.520904	 0.229021	 2
1463629247.978	 27	 0.933687	 -1.186432	 -0.977990	 2.132621	 -0.877912	 -0.906756	 0.162417	 0.802349	 -0.526104	 0.230371	 2
1463629247.988	 27	 1.414744	 -1.327288	 -1.140157	 2.113022	 -0.894174	 -0.915110	 0.156012	 0.798263	 -0.533642	 0.231652	 2
1463629247.998	 27	 1.629256	 -1.269900	 -1.206502	 2.090340	 -0.912569	 -0.927620	 0.149656	 0.793383	 -0.542372	 0.232333	 2
1463629248.008	 27	 1.601184	 -1.357931	 -1.183630	 2.066220	 -0.930848	 -0.941320	 0.143196	 0.788314	 -0.551104	 0.233108	 2
1463629248.018	 27	 1.611990	 -1.628553	 -1.096718	 2.038324	 -0.948206	 -0.956610	 0.136353	 0.782824	 -0.559801	 0.234983	 2
1463629248.028	 27	 1.600065	 -1.947142	 -1.033502	 2.005571	 -0.964616	 -0.973842	 0.128921	 0.776767	 -0.568550	 0.238252	 2
1463629248.038	 27	 1.500567	 -2.192833	 -1.073289	 1.969949	 -0.980481	 -0.991064	 0.120541	 0.770475	 -0.577071	 0.242543	 2
1463629248.048	 27	 1.357157	 -2.188938	 -1.180712	 1.934682	 -0.996363	 -1.006796	 0.111398	 0.764384	 -0.585114	 0.246878	 2
1463629248.058	 27	 1.209892	 -1.893412	 -1.261941	 1.903168	 -1.012320	 -1.020715	 0.102385	 0.758924	 -0.592465	 0.250074	 2
1463629248.068	 27	 1.123191	 -1.462687	 -1.301940	 1.876376	 -1.028151	 -1.033658	 0.094236	 0.754187	 -0.599169	 0.251631	 2
1463629248.078	 27	 1.104227	 -1.105937	 -1.395439	 1.853367	 -1.044424	 -1.046673	 0.086936	 0.749989	 -0.605581	 0.251458	 2
1463629248.088	 27	 1.139365	 -0.989134	 -1.554523	 1.831391	 -1.062013	 -1.060444	 0.079652	 0.745929	 -0.612112	 0.250129	 2
1463629248.098	 27	 1.152956	 -1.123434	 -1.734939	 1.807791	 -1.081222	 -1.075055	 0.071488	 0.741682	 -0.618906	 0.248500	 2
1463629248.108	 27	 1.171070	 -1.444817	 -1.897951	 1.780342	 -1.101918	 -1.090743	 0.061852	 0.737003	 -0.625962	 0.247331	 2
1463629248.118	 27	 1.235762	 -1.872468	 -2.029320	 1.746199	 -1.123852	 -1.109159	 0.050478	 0.731549	 -0.633400	 0.247171	 2
1463629248.128	 27	 1.221068	 -2.349151	 -2.207347	 1.704901	 -1.147085	 -1.130078	 0.037022	 0.725338	 -0.641041	 0.248154	 2
1463629248.138	 27	 1.126481	 -2.793699	 -2.386511	 1.657711	 -1.171639	 -1.152252	 0.021340	 0.718619	 -0.648511	 0.250131	 2
1463629248.148	 27	 1.025859	 -3.180621	 -2.541639	 1.605110	 -1.197307	 -1.176046	 0.003732	 0.711509	 -0.655611	 0.252814	 2
1463629248.158	 27	 0.924996	 -3.655502	 -2.652822	 1.544635	 -1.223595	 -1.202625	 -0.016077	 0.703769	 -0.662200	 0.256791	 2
1463629248.168	 27	 0.846430	 -3.753490	 -2.703137	 1.477881	 -1.249607	 -1.233680	 -0.036701	 0.695707	 -0.668163	 0.261157	 2
1463629248.178	 27	 0.869288	 -3.683147	 -2.673905	 1.403802	 -1.274899	 -1.272575	 -0.057209	 0.687381	 -0.673712	 0.265229	 2
1463629248.188	 27	 0.888910	 -3.872092	 -2.614018	 1.317489	 -1.298606	 -1.322814	 -0.077824	 0.678422	 -0.678933	 0.269698	 2
1463629248.198	 27	 0.725561	 -4.057164	 -2.680394	 1.220079	 -1.321433	 -1.382050	 -0.099315	 0.669135	 -0.683363	 0.274609	 2
1463629248.208	 27	 0.460791	 -4.194561	 -2.813653	 1.113475	 -1.344907	 -1.448983	 -0.122044	 0.660044	 -0.686657	 0.279195	 2
1463629248.218	 27	 0.252182	 -4.428805	 -2.932316	 0.991608	 -1.368717	 -1.528968	 -0.146184	 0.650924	 -0.688792	 0.283715	 2
1463629248.228	 27	 0.200037	 -4.416786	 -2.909369	 0.847073	 -1.390776	 -1.630882	 -0.170675	 0.641552	 -0.690106	 0.288159	 2
1463629248.238	 27	 0.267194	 -3.906199	 -2.729357	 0.680273	 -1.408266	 -1.758920	 -0.193207	 0.632276	 -0.691232	 0.291712	 2
1463629248.248	 27	 0.352352	 -3.118935	 -2.375335	 0.505572	 -1.419365	 -1.902155	 -0.211982	 0.623757	 -0.692533	 0.293919	 2
1463629248.258	 27	 0.329035	 -2.350706	 -1.903311	 0.347554	 -1.424599	 -2.036315	 -0.226534	 0.616603	 -0.693815	 0.295135	 2
1463629248.268	 27	 0.189478	 -1.850713	 -1.360299	 0.225405	 -1.426690	 -2.140017	 -0.237579	 0.611202	 -0.694447	 0.296194	 2
1463629248.278	 27	 0.120091	 -1.565295	 -0.897695	 0.139034	 -1.427257	 -2.210811	 -0.246121	 0.607117	 -0.694362	 0.297816	 2
1463629248.288	 27	 0.184720	 -1.352788	 -0.461450	 0.084884	 -1.426288	 -2.251364	 -0.252463	 0.603754	 -0.693952	 0.300291	 2
1463629248.298	 27	 0.297351	 -1.102494	 -0.075361	 0.060455	 -1.423730	 -2.264225	 -0.256623	 0.600842	 -0.693525	 0.303575	 2
1463629248.308	 27	 0.374740	 -0.814182	 0.259166	 0.061971	 -1.420024	 -2.253723	 -0.258613	 0.598467	 -0.693191	 0.307317	 2
1463629248.318	 27	 0.350460	 -0.530316	 0.526328	 0.084340	 -1.416037	 -2.225086	 -0.258718	 0.596882	 -0.692799	 0.311170	 2
1463629248.328	 27	 0.187460	 -0.426167	 0.741869	 0.121838	 -1.413006	 -2.182665	 -0.257826	 0.596272	 -0.691849	 0.315167	 2
1463629248.338	 27	 -0.048483	 -0.427936	 0.989032	 0.174637	 -1.411495	 -2.124861	 -0.256523	 0.596731	 -0.689875	 0.319657	 2
1463629248.348	 27	 -0.312983	 -0.435483	 1.307796	 0.247812	 -1.411363	 -2.046355	 -0.254768	 0.598447	 -0.686612	 0.324836	 2
1463629248.358	 27	 -0.542676	 -0.427175	 1.773480	 0.350249	 -1.411169	 -1.938233	 -0.252105	 0.601492	 -0.681904	 0.331146	 2
1463629248.368	 27	 -0.748007	 -0.327700	 2.353836	 0.488403	 -1.408570	 -1.794627	 -0.247841	 0.606019	 -0.675648	 0.338844	 2
1463629248.378	 27	 -0.862161	 -0.108487	 2.908935	 0.653255	 -1.400633	 -1.625723	 -0.241418	 0.611947	 -0.668106	 0.347668	 2
1463629248.388	 27	 -0.843623	 0.306080	 3.322950	 0.820399	 -1.385203	 -1.457856	 -0.232349	 0.618947	 -0.660012	 0.356794	 2
1463629248.398	 27	 -0.875449	 0.871211	 3.505402	 0.970399	 -1.363389	 -1.312324	 -0.220696	 0.626995	 -0.651902	 0.364959	 2
1463629248.408	 27	 -1.145053	 1.377468	 3.540170	 1.104711	 -1.338343	 -1.187566	 -0.207440	 0.636558	 -0.643350	 0.371299	 2
1463629248.418	 27	 -1.168968	 1.734929	 3.542639	 1.220740	 -1.310523	 -1.085040	 -0.193001	 0.647010	 -0.634568	 0.376101	 2
1463629248.428	 27	 -0.933807	 2.004717	 3.586798	 1.311587	 -1.279470	 -1.010779	 -0.177149	 0.657121	 -0.626364	 0.380103	 2
1463629248.438	 27	 -0.686996	 2.145660	 3.761811	 1.381510	 -1.244933	 -0.959738	 -0.159664	 0.666626	 -0.618606	 0.383984	 2
1463629248.448	 27	 -0.547043	 2.030592	 3.937504	 1.435531	 -1.207422	 -0.924329	 -0.141350	 0.675318	 -0.610712	 0.388582	 2
1463629248.458	 27	 -0.441301	 1.898638	 4.117601	 1.477889	 -1.167511	 -0.899438	 -0.122602	 0.683202	 -0.602420	 0.394074	 2
1463629248.468	 27	 -0.327393	 1.732242	 4.245084	 1.510603	 -1.125700	 -0.883079	 -0.103486	 0.690174	 -0.593836	 0.400386	 2
1463629248.478	 27	 -0.282000	 1.641577	 4.227859	 1.536662	 -1.083521	 -0.872263	 -0.084549	 0.696320	 -0.585061	 0.407054	 2
1463629248.488	 27	 -0.291023	 1.590106	 4.166710	 1.559601	 -1.041692	 -0.864428	 -0.065816	 0.702028	 -0.576068	 0.413486	 2
1463629248.498	 27	 -0.397183	 1.424107	 3.966792	 1.580374	 -1.001467	 -0.857325	 -0.048204	 0.707289	 -0.566813	 0.419693	 2
1463629248.508	 27	 -0.553992	 1.385839	 3.759978	 1.600462	 -0.963303	 -0.849583	 -0.031923	 0.712353	 -0.557251	 0.425448	 2
1463629248.518	 27	 -0.872494	 1.783090	 3.703567	 1.626533	 -0.925872	 -0.838453	 -0.015672	 0.718678	 -0.546617	 0.429495	 2
1463629248.528	 27	 -0.905465	 2.034187	 3.701928	 1.654491	 -0.888320	 -0.827947	 0.001059	 0.725508	 -0.535438	 0.432369	 2
1463629248.538	 27	 -0.916275	 2.154009	 3.793727	 1.682296	 -0.850013	 -0.819553	 0.018450	 0.732378	 -0.523859	 0.434574	 2
1463629248.548	 27	 -0.839067	 1.914205	 3.903794	 1.706411	 -0.810412	 -0.813942	 0.036018	 0.738439	 -0.511945	 0.437405	 2
1463629248.558	 27	 -0.679158	 1.444527	 3.882045	 1.723662	 -0.770818	 -0.811745	 0.052830	 0.742849	 -0.500360	 0.441616	 2
1463629248.568	 27	 -0.560632	 0.866960	 3.779720	 1.733662	 -0.732327	 -0.812054	 0.068218	 0.745409	 -0.489426	 0.447409	 2
1463629248.578	 27	 -0.488415	 0.225494	 3.647362	 1.736504	 -0.695181	 -0.813453	 0.081722	 0.746095	 -0.479101	 0.455112	 2
1463629248.588	 27	 -0.411838	 -0.173457	 3.518288	 1.734292	 -0.659442	 -0.815453	 0.093742	 0.745341	 -0.469372	 0.464079	 2
1463629248.608	 28	 0.113874	 -0.004897	 3.214735	 1.726704	 -0.593512	 -0.825014	 0.117281	 0.742028	 -0.452762	 0.480255	 2
1463629248.618	 28	 0.472324	 -0.171545	 3.113079	 1.719925	 -0.563104	 -0.835396	 0.129610	 0.738931	 -0.446711	 0.487474	 2
1463629248.628	 28	 0.645222	 -0.241446	 2.930809	 1.711148	 -0.534494	 -0.847465	 0.141527	 0.734956	 -0.441797	 0.494596	 2
1463629248.638	 28	 0.859619	 -0.233826	 2.894909	 1.702132	 -0.506986	 -0.861036	 0.153575	 0.730519	 -0.437691	 0.501182	 2
1463629248.648	 28	 1.210039	 0.001889	 2.980378	 1.693282	 -0.479015	 -0.877935	 0.167005	 0.725481	 -0.434378	 0.507052	 2
1463629248.658	 28	 1.533203	 0.329262	 3.080792	 1.686831	 -0.450608	 -0.898215	 0.182274	 0.720337	 -0.431701	 0.511395	 2
1463629248.668	 28	 1.499550	 0.564015	 3.464813	 1.683103	 -0.418964	 -0.919228	 0.199372	 0.715150	 -0.428087	 0.515318	 2
1463629248.678	 28	 1.109416	 0.750167	 3.896246	 1.683283	 -0.382743	 -0.936995	 0.217520	 0.710457	 -0.421906	 0.519550	 2
1463629248.688	 28	 0.675834	 0.559836	 4.314963	 1.684871	 -0.341839	 -0.950384	 0.235774	 0.705713	 -0.412970	 0.525200	 2
1463629248.698	 28	 0.480694	 0.213042	 4.228175	 1.684616	 -0.299731	 -0.960774	 0.252814	 0.700243	 -0.403005	 0.532289	 2
1463629248.708	 28	 0.714150	 -0.118699	 3.750922	 1.681082	 -0.261898	 -0.971871	 0.267946	 0.693801	 -0.394891	 0.539357	 2
1463629248.718	 28	 1.065978	 -0.482402	 3.020822	 1.674005	 -0.230843	 -0.985438	 0.280997	 0.686431	 -0.390025	 0.545650	 2
1463629248.728	 28	 1.301923	 -0.942693	 1.978563	 1.662380	 -0.209599	 -1.000524	 0.290528	 0.678469	 -0.389320	 0.551092	 2
1463629248.738	 28	 1.422277	 -1.252295	 0.402635	 1.647520	 -0.202640	 -1.015501	 0.294852	 0.671269	 -0.393521	 0.554618	 2
1463629248.748	 28	 1.176700	 -1.975045	 -0.652794	 1.627628	 -0.208168	 -1.028186	 0.293395	 0.664610	 -0.401630	 0.557589	 2
1463629248.758	 28	 0.405797	 -3.364604	 -0.444794	 1.596134	 -0.213633	 -1.034072	 0.287212	 0.655659	 -0.409462	 0.565651	 2
1463629248.768	 28	 -0.215492	 -4.408687	 -0.056899	 1.554452	 -0.215249	 -1.033307	 0.277842	 0.644065	 -0.415596	 0.579019	 2
1463629248.778	 28	 -0.859631	 -4.953130	 0.432828	 1.507608	 -0.212236	 -1.026017	 0.266739	 0.630861	 -0.418986	 0.596083	 2
1463629248.788	 28	 -1.353100	 -5.205560	 0.624481	 1.458751	 -0.207444	 -1.012872	 0.254005	 0.617069	 -0.420052	 0.615031	 2
1463629248.798	 28	 -1.846114	 -5.254699	 0.689065	 1.410018	 -0.203121	 -0.994539	 0.239676	 0.603455	 -0.419180	 0.634575	 2
1463629248.808	 28	 -2.339506	 -5.108561	 0.694721	 1.363107	 -0.200310	 -0.970955	 0.223827	 0.590647	 -0.416280	 0.654025	 2
1463629248.818	 28	 -2.784989	 -4.805648	 0.485069	 1.319855	 -0.201047	 -0.943079	 0.206450	 0.579414	 -0.411878	 0.672320	 2
1463629248.828	 28	 -3.111615	 -4.585489	 0.205403	 1.279733	 -0.206585	 -0.912437	 0.187397	 0.569603	 -0.406789	 0.689172	 2
1463629248.838	 28	 -3.271600	 -4.433008	 0.047284	 1.241709	 -0.215750	 -0.880644	 0.167290	 0.560509	 -0.401331	 0.704824	 2
1463629248.848	 28	 -3.257277	 -4.327839	 0.035349	 1.205172	 -0.226604	 -0.848999	 0.147058	 0.551523	 -0.395540	 0.719544	 2
1463629248.858	 28	 -3.054599	 -4.193780	 0.123290	 1.169808	 -0.237355	 -0.818934	 0.127707	 0.542216	 -0.389571	 0.733435	 2
1463629248.868	 28	 -2.691653	 -4.107294	 0.315969	 1.135113	 -0.246310	 -0.791586	 0.110110	 0.532193	 -0.383564	 0.746676	 2
1463629248.878	 28	 -2.288833	 -4.034982	 0.623272	 1.100639	 -0.251878	 -0.767013	 0.094844	 0.521190	 -0.377320	 0.759602	 2
1463629248.888	 28	 -2.102860	 -3.791763	 0.943644	 1.067800	 -0.254157	 -0.743412	 0.081695	 0.509944	 -0.370228	 0.772149	 2
1463629248.898	 28	 -2.167392	 -3.197382	 1.186336	 1.040547	 -0.254978	 -0.718323	 0.070032	 0.500397	 -0.361679	 0.783509	 2
1463629248.908	 28	 -1.967651	 -2.716248	 1.466172	 1.018845	 -0.253617	 -0.692800	 0.060390	 0.492509	 -0.352037	 0.793636	 2
1463629248.918	 28	 -1.372969	 -2.543852	 1.865457	 0.998779	 -0.246918	 -0.669701	 0.054076	 0.484376	 -0.341996	 0.803427	 2
1463629248.928	 28	 -0.770909	 -2.195715	 2.301483	 0.980549	 -0.233579	 -0.649472	 0.051786	 0.476017	 -0.331557	 0.812894	 2
1463629248.938	 28	 -0.398330	 -1.580364	 2.679113	 0.967373	 -0.214857	 -0.630455	 0.053104	 0.469011	 -0.320292	 0.821354	 2
1463629248.948	 28	 -0.106748	 -1.044550	 2.909634	 0.959427	 -0.192378	 -0.612258	 0.057208	 0.463710	 -0.308382	 0.828614	 2
1463629248.958	 28	 0.157384	 -0.772451	 2.990864	 0.954157	 -0.167490	 -0.595613	 0.063228	 0.459239	 -0.296466	 0.834991	 2
1463629248.968	 28	 0.334734	 -0.731483	 2.991832	 0.949220	 -0.141407	 -0.580466	 0.070245	 0.454767	 -0.284843	 0.840903	 2
1463629248.978	 28	 0.511202	 -0.898793	 3.018580	 0.942560	 -0.114314	 -0.566507	 0.077815	 0.449448	 -0.273511	 0.846837	 2
1463629248.988	 28	 0.803413	 -1.240429	 3.106644	 0.932330	 -0.085192	 -0.554041	 0.086224	 0.442339	 -0.262497	 0.853227	 2
1463629248.998	 28	 1.174277	 -1.659849	 3.207154	 0.917556	 -0.053276	 -0.543489	 0.095821	 0.432861	 -0.251934	 0.860220	 2
1463629249.008	 28	 1.555520	 -2.090378	 3.246722	 0.898026	 -0.018733	 -0.535052	 0.106604	 0.420848	 -0.242054	 0.867717	 2
1463629249.018	 28	 1.868457	 -2.447958	 3.198040	 0.874360	 0.017546	 -0.528659	 0.118282	 0.406589	 -0.233096	 0.875420	 2
1463629249.028	 28	 2.032507	 -2.663916	 3.111472	 0.848004	 0.054347	 -0.523431	 0.130329	 0.390848	 -0.224942	 0.882980	 2
1463629249.038	 28	 2.031703	 -2.753952	 3.015789	 0.820206	 0.090575	 -0.518116	 0.142164	 0.374369	 -0.217240	 0.890193	 2
1463629249.048	 28	 1.877841	 -2.775991	 2.994542	 0.791880	 0.125427	 -0.511320	 0.153284	 0.357784	 -0.209476	 0.897003	 2
1463629249.058	 28	 1.637136	 -2.715371	 3.043030	 0.762938	 0.158828	 -0.501461	 0.163403	 0.341239	 -0.200941	 0.903592	 2
1463629249.068	 28	 1.413455	 -2.346099	 2.980205	 0.736324	 0.190000	 -0.489338	 0.172653	 0.326170	 -0.191862	 0.909392	 2
1463629249.078	 28	 1.233744	 -1.919620	 2.903674	 0.713327	 0.218908	 -0.475621	 0.181239	 0.313179	 -0.182363	 0.914229	 2
1463629249.088	 28	 1.130892	 -1.733578	 2.849815	 0.692358	 0.246184	 -0.460847	 0.189352	 0.301460	 -0.172656	 0.918399	 2
1463629249.098	 28	 1.102337	 -1.903681	 2.848481	 0.669901	 0.272683	 -0.445186	 0.197094	 0.289299	 -0.162979	 0.922441	 2
1463629249.108	 28	 1.165175	 -2.239250	 2.947124	 0.643702	 0.299477	 -0.428416	 0.204775	 0.275551	 -0.153291	 0.926629	 2
1463629249.118	 28	 1.336626	 -2.475565	 3.136336	 0.613642	 0.328130	 -0.410124	 0.213116	 0.260026	 -0.143214	 0.930837	 2
1463629249.128	 28	 1.488699	 -2.419150	 3.203745	 0.582738	 0.358119	 -0.390742	 0.222227	 0.244175	 -0.132786	 0.934538	 2
1463629249.138	 28	 1.691931	 -2.428210	 3.063343	 0.551743	 0.388640	 -0.371996	 0.232017	 0.228290	 -0.122896	 0.937522	 2
1463629249.148	 28	 1.955681	 -2.550670	 2.710336	 0.520404	 0.419216	 -0.356212	 0.242475	 0.212041	 -0.114769	 0.939720	 2
1463629249.158	 28	 2.235860	 -2.705986	 2.233253	 0.489024	 0.449586	 -0.345030	 0.253574	 0.195363	 -0.109204	 0.941067	 2
1463629249.168	 28	 2.452307	 -2.813123	 1.774226	 0.458252	 0.479574	 -0.338591	 0.265156	 0.178504	 -0.106220	 0.941566	 2
1463629249.178	 28	 2.506658	 -2.841838	 1.505838	 0.432002	 0.485012	 -0.336657	 0.266097	 0.165817	 -0.108114	 0.943403	 2
1463629249.188	 28	 2.428677	 -2.728920	 1.351966	 0.402864	 0.513060	 -0.333546	 0.277272	 0.149573	 -0.107263	 0.942997	 2
1463629249.198	 28	 2.278692	 -2.520917	 1.227316	 0.375459	 0.539289	 -0.330265	 0.287719	 0.134418	 -0.106620	 0.942222	 2
1463629249.208	 28	 2.090510	 -2.281822	 1.121406	 0.350112	 0.563348	 -0.326599	 0.297273	 0.120575	 -0.106014	 0.941197	 2
1463629249.218	 28	 1.897194	 -2.051836	 1.077270	 0.326618	 0.585288	 -0.322126	 0.305927	 0.108009	 -0.105211	 0.940039	 2
1463629249.228	 28	 1.710680	 -1.783184	 1.087788	 0.304765	 0.605336	 -0.316284	 0.313756	 0.096688	 -0.103903	 0.938836	 2
1463629249.238	 29	 1.547165	 -1.427040	 1.143696	 0.285212	 0.623781	 -0.308713	 0.320929	 0.086960	 -0.101748	 0.937598	 2
1463629249.258	 29	 1.406501	 -1.005861	 1.231969	 0.251264	 0.657895	 -0.289032	 0.334238	 0.071191	 -0.095161	 0.934966	 2
1463629249.268	 29	 1.420041	 -1.034977	 1.182556	 0.234605	 0.674503	 -0.278541	 0.340770	 0.063752	 -0.091750	 0.933484	 2
1463629249.278	 29	 1.456156	 -1.175464	 1.038122	 0.217327	 0.691016	 -0.269160	 0.347324	 0.055945	 -0.089103	 0.931824	 2
1463629249.288	 29	 1.501402	 -1.352693	 0.817597	 0.199648	 0.707412	 -0.262002	 0.353911	 0.047667	 -0.087707	 0.929937	 2
1463629249.298	 29	 1.547700	 -1.503589	 0.562139	 0.182121	 0.723685	 -0.257710	 0.360537	 0.039041	 -0.087756	 0.927786	 2
1463629249.308	 29	 1.573194	 -1.550103	 0.318490	 0.165795	 0.739793	 -0.256398	 0.367191	 0.030508	 -0.089103	 0.925365	 2
1463629249.318	 29	 1.548507	 -1.457493	 0.172492	 0.151328	 0.755500	 -0.257034	 0.373747	 0.022548	 -0.091136	 0.922767	 2
1463629249.328	 29	 1.491656	 -1.255564	 0.127972	 0.139055	 0.770601	 -0.258224	 0.380098	 0.015569	 -0.093133	 0.920114	 2
1463629249.338	 29	 1.437448	 -1.022138	 0.174312	 0.128591	 0.785167	 -0.258734	 0.386254	 0.009614	 -0.094570	 0.917481	 2
1463629249.348	 29	 1.395490	 -0.720333	 0.268076	 0.119882	 0.799408	 -0.257773	 0.392318	 0.004799	 -0.095067	 0.914891	 2
1463629249.358	 29	 1.349619	 -0.347219	 0.366800	 0.113566	 0.813329	 -0.255147	 0.398333	 0.001457	 -0.094398	 0.912369	 2
1463629249.368	 29	 1.282972	 -0.067747	 0.450979	 0.109285	 0.826738	 -0.250986	 0.404203	 -0.000581	 -0.092684	 0.909961	 2
1463629249.378	 29	 1.167962	 -0.054313	 0.496867	 0.104948	 0.839205	 -0.245674	 0.409640	 -0.002310	 -0.090538	 0.907740	 2
1463629249.388	 29	 0.955879	 -0.216452	 0.492942	 0.098836	 0.849810	 -0.239786	 0.414158	 -0.004563	 -0.088620	 0.905869	 2
1463629249.398	 29	 0.661234	 -0.426512	 0.447725	 0.090663	 0.857575	 -0.233868	 0.417313	 -0.007525	 -0.087285	 0.904530	 2
1463629249.408	 29	 0.390779	 -0.686845	 0.373054	 0.080371	 0.862430	 -0.228467	 0.419075	 -0.011345	 -0.086784	 0.903723	 2
1463629249.418	 29	 0.209049	 -0.892334	 0.270411	 0.068630	 0.865139	 -0.224177	 0.419813	 -0.015909	 -0.087200	 0.903272	 2
1463629249.428	 29	 0.125816	 -0.999467	 0.130524	 0.057016	 0.866646	 -0.221745	 0.420004	 -0.020729	 -0.088483	 0.902961	 2
1463629249.438	 29	 0.119876	 -1.021635	 0.004609	 0.046489	 0.867861	 -0.221367	 0.420084	 -0.025469	 -0.090481	 0.902604	 2
1463629249.448	 29	 0.152194	 -0.890424	 -0.075449	 0.037859	 0.869225	 -0.222257	 0.420291	 -0.029624	 -0.092651	 0.902161	 2
1463629249.458	 29	 0.211546	 -0.664795	 -0.178311	 0.032459	 0.871135	 -0.224713	 0.420859	 -0.032679	 -0.094834	 0.901563	 2
1463629249.468	 29	 0.262951	 -0.300988	 -0.296870	 0.031779	 0.873562	 -0.229007	 0.421847	 -0.034023	 -0.096837	 0.900839	 2
1463629249.478	 29	 0.279348	 0.028503	 -0.321657	 0.035221	 0.876238	 -0.234160	 0.423130	 -0.033711	 -0.098344	 0.900085	 2
1463629249.498	 30	 0.186887	 0.499429	 -0.247195	 0.049584	 0.880589	 -0.243330	 0.425647	 -0.029451	 -0.099269	 0.898945	 2
1463629249.508	 30	 0.139055	 0.505297	 -0.200011	 0.095967	 0.862892	 -0.276326	 0.419723	 -0.014373	 -0.105092	 0.901433	 2
1463629249.518	 30	 0.110649	 0.347063	 -0.177789	 0.102178	 0.863863	 -0.279283	 0.420465	 -0.012266	 -0.105070	 0.901121	 2
1463629249.528	 30	 0.110328	 0.058776	 -0.184732	 0.105769	 0.864744	 -0.282216	 0.421031	 -0.011331	 -0.105590	 0.900808	 2
1463629249.538	 30	 0.159834	 -0.257673	 -0.241396	 0.106743	 0.865941	 -0.285880	 0.421597	 -0.011754	 -0.106970	 0.900375	 2
1463629249.548	 30	 0.247092	 -0.448020	 -0.347306	 0.106641	 0.867838	 -0.291151	 0.422406	 -0.013057	 -0.109261	 0.899703	 2
1463629249.558	 30	 0.318300	 -0.431888	 -0.440497	 0.107487	 0.870404	 -0.298133	 0.423551	 -0.014352	 -0.112081	 0.898797	 2
1463629249.568	 30	 0.335124	 -0.234318	 -0.469712	 0.110504	 0.873220	 -0.305911	 0.424920	 -0.014871	 -0.114777	 0.897802	 2
1463629249.578	 30	 0.290852	 0.077713	 -0.433384	 0.116165	 0.875760	 -0.313367	 0.426324	 -0.014125	 -0.116770	 0.896891	 2
1463629249.588	 30	 0.155268	 0.442525	 -0.342482	 0.124338	 0.877263	 -0.319445	 0.427431	 -0.011884	 -0.117660	 0.896280	 2
1463629249.598	 30	 -0.089201	 0.763306	 -0.207346	 0.134106	 0.876722	 -0.323177	 0.427746	 -0.008258	 -0.117278	 0.896221	 2
1463629249.618	 31	 -0.643257	 0.881277	 0.142817	 0.150465	 0.868020	 -0.321063	 0.424832	 0.000290	 -0.113413	 0.898140	 2
1463629249.628	 31	 -0.846177	 0.685448	 0.336730	 0.153135	 0.860549	 -0.314807	 0.421654	 0.003467	 -0.110537	 0.899987	 2
1463629249.638	 31	 -0.967504	 0.392371	 0.500253	 0.150915	 0.851941	 -0.305637	 0.417677	 0.005128	 -0.107440	 0.902206	 2
1463629249.648	 31	 -1.001896	 0.031564	 0.599508	 0.144005	 0.842909	 -0.294765	 0.413245	 0.005015	 -0.104541	 0.904585	 2
1463629249.658	 31	 -0.952279	 -0.345843	 0.643523	 0.133000	 0.834192	 -0.283364	 0.408740	 0.003067	 -0.102167	 0.906909	 2
1463629249.668	 31	 -0.831035	 -0.671561	 0.657555	 0.118744	 0.826432	 -0.272116	 0.404516	 -0.000530	 -0.100397	 0.909003	 2
1463629249.678	 31	 -0.640020	 -0.897626	 0.654854	 0.102421	 0.820279	 -0.261412	 0.400936	 -0.005359	 -0.099132	 0.910711	 2
1463629249.698	 32	 -0.148137	 -0.913976	 0.652550	 0.068608	 0.814717	 -0.241372	 0.396864	 -0.016408	 -0.096987	 0.912592	 2
1463629249.708	 32	 0.076870	 -0.708427	 0.634386	 0.054233	 0.815339	 -0.232123	 0.396541	 -0.021171	 -0.095595	 0.912781	 2
1463629249.718	 32	 0.256217	 -0.471747	 0.637158	 0.042262	 0.817780	 -0.222998	 0.397191	 -0.024962	 -0.093724	 0.912596	 2
1463629249.728	 32	 0.375777	 -0.232831	 0.630880	 0.032703	 0.821518	 -0.213904	 0.398571	 -0.027714	 -0.091364	 0.912155	 2
1463629249.738	 32	 0.439665	 -0.041529	 0.636367	 0.025201	 0.825958	 -0.204831	 0.400385	 -0.029548	 -0.088604	 0.911575	 2
1463629249.748	 32	 0.457561	 0.111758	 0.661084	 0.018887	 0.830663	 -0.195250	 0.402396	 -0.030728	 -0.085387	 0.910957	 2
1463629249.758	 32	 0.412919	 0.176536	 0.629037	 0.013588	 0.835045	 -0.185804	 0.404315	 -0.031433	 -0.082054	 0.910389	 2
