% Gyrometer data recorded with 'snsrlog'
% 
% 
% Label description:
% 	 0: Default Label
% 	 1: still_drop
% 	 2: walk_drop
% 	 3: other
% 	 4: dtw_same
% 	 5: dtw_diff
% 	 6: delete
% 
% Column description:
% 	 1: Seconds.milliseconds since 1970
% 	 2: Number of skipped measurements
% 	 3: Gyro X
% 	 4: Gyro Y
% 	 5: Gyro Z
% 	 6: Roll of the device
% 	 7: Pitch of the device
% 	 8: Yaw of the device
% 	 9: Quaternion X
% 	 10: Quaternion Y
% 	 11: Quaternion Z
% 	 12: Quaternion W
% 	 13: Label used for the current sample
% 
% 
1462171896.689	 0	 2.716269	 0.416909	 2.920238	 0.169353	 -0.133216	 0.024123	 -0.067333	 0.083582	 0.006363	 0.994203	 0
1462171896.699	 0	 2.647030	 0.690288	 2.624003	 0.177892	 -0.103525	 0.045438	 -0.053537	 0.087516	 0.018002	 0.994561	 0
1462171896.708	 0	 2.640712	 0.908170	 2.248592	 0.187687	 -0.074459	 0.063097	 -0.039992	 0.092425	 0.027897	 0.994525	 0
1462171896.718	 0	 2.616038	 1.044250	 1.791652	 0.198231	 -0.046208	 0.076274	 -0.026744	 0.097979	 0.035646	 0.994190	 0
1462171896.727	 0	 2.510392	 1.112751	 1.319501	 0.209138	 -0.019480	 0.084894	 -0.014107	 0.103869	 0.041185	 0.993638	 0
1462171896.737	 0	 2.348346	 1.073708	 0.822899	 0.219643	 0.004938	 0.088916	 -0.002419	 0.109601	 0.044446	 0.992978	 0
1462171896.746	 0	 2.115798	 1.033166	 0.329121	 0.229594	 0.026276	 0.088485	 0.007973	 0.115000	 0.045436	 0.992294	 0
1462171896.756	 0	 1.878827	 1.091703	 -0.128808	 0.240106	 0.044338	 0.083966	 0.016963	 0.120554	 0.044311	 0.991572	 0
1462171896.766	 0	 1.640491	 1.167936	 -0.579089	 0.251607	 0.059087	 0.075603	 0.024545	 0.126435	 0.041181	 0.990816	 0
1462171896.775	 0	 1.392510	 1.177188	 -1.001445	 0.263731	 0.070372	 0.063713	 0.030670	 0.132446	 0.036178	 0.990055	 0
1462171896.785	 0	 1.114750	 1.119000	 -1.456664	 0.275825	 0.077909	 0.048196	 0.035253	 0.138261	 0.029201	 0.989337	 0
1462171896.795	 0	 0.818350	 1.035191	 -1.849931	 0.287489	 0.081485	 0.029515	 0.038195	 0.143710	 0.020427	 0.988671	 0
1462171896.804	 0	 0.563161	 0.978305	 -2.103962	 0.298694	 0.081556	 0.008891	 0.039651	 0.148846	 0.010458	 0.988010	 0
1462171896.814	 0	 0.339695	 0.959872	 -2.252135	 0.309667	 0.078756	 -0.012722	 0.039876	 0.153846	 -0.000209	 0.987290	 0
1462171896.823	 0	 0.119886	 0.993913	 -2.289193	 0.320797	 0.073546	 -0.034132	 0.039011	 0.158961	 -0.010964	 0.986453	 0
1462171896.833	 0	 -0.119789	 1.007367	 -2.407131	 0.331954	 0.065730	 -0.055546	 0.036981	 0.164163	 -0.021946	 0.985495	 0
1462171896.843	 0	 -0.430458	 0.983952	 -2.728871	 0.342891	 0.054190	 -0.078420	 0.033359	 0.169367	 -0.033993	 0.984402	 0
1462171896.852	 0	 -0.787687	 0.922192	 -3.126572	 0.353054	 0.037971	 -0.103491	 0.027746	 0.174378	 -0.047580	 0.983137	 0
1462171896.862	 0	 -1.092899	 0.872579	 -3.503285	 0.362279	 0.017252	 -0.130808	 0.020240	 0.179204	 -0.062735	 0.981601	 0
1462171896.872	 0	 -1.275203	 0.935749	 -3.819792	 0.371208	 -0.006737	 -0.160089	 0.011456	 0.184213	 -0.079205	 0.979623	 0
1462171896.881	 0	 -1.401507	 1.069522	 -4.186784	 0.380478	 -0.033412	 -0.191828	 0.001778	 0.189769	 -0.097171	 0.977007	 0
1462171896.891	 0	 -1.506633	 1.228854	 -4.628166	 0.390270	 -0.062913	 -0.226731	 -0.008733	 0.196049	 -0.116980	 0.973552	 0
1462171896.900	 0	 -1.626040	 1.243919	 -5.166660	 0.399202	 -0.095655	 -0.265578	 -0.020225	 0.202512	 -0.139018	 0.969151	 0
1462171896.910	 0	 -1.733175	 1.119328	 -5.642070	 0.405461	 -0.131578	 -0.308313	 -0.032783	 0.208414	 -0.163156	 0.963778	 0
1462171896.919	 0	 -1.824050	 0.888559	 -5.970812	 0.407739	 -0.169930	 -0.354026	 -0.046284	 0.213212	 -0.188734	 0.957485	 0
1462171896.929	 0	 -1.881459	 0.637215	 -6.222902	 0.405312	 -0.209821	 -0.402162	 -0.060530	 0.216619	 -0.215218	 0.950312	 0
1462171896.939	 0	 -1.971030	 0.469417	 -6.455318	 0.398587	 -0.251088	 -0.452778	 -0.075516	 0.218956	 -0.242443	 0.942113	 0
1462171896.948	 0	 -2.064494	 0.443414	 -6.595526	 0.388672	 -0.293440	 -0.505453	 -0.091117	 0.220839	 -0.270037	 0.932742	 0
1462171896.958	 0	 -2.158266	 0.536133	 -6.765552	 0.376514	 -0.336582	 -0.560370	 -0.107101	 0.222809	 -0.297934	 0.922020	 0
1462171896.967	 0	 -2.207963	 0.712148	 -7.019416	 0.362438	 -0.380421	 -0.618720	 -0.123260	 0.225195	 -0.326520	 0.909659	 0
1462171896.977	 0	 -2.237624	 0.918359	 -7.358799	 0.346072	 -0.424789	 -0.681810	 -0.139432	 0.228046	 -0.356152	 0.895382	 0
1462171896.987	 0	 -2.256099	 0.998062	 -7.798965	 0.325536	 -0.469542	 -0.751262	 -0.155722	 0.230827	 -0.387148	 0.878969	 0
1462171896.996	 0	 -2.260593	 0.955379	 -8.242969	 0.298542	 -0.514194	 -0.828115	 -0.172332	 0.232839	 -0.419396	 0.860346	 0
1462171897.006	 0	 -2.311567	 0.817637	 -8.599516	 0.263670	 -0.558151	 -0.912493	 -0.189469	 0.233754	 -0.452368	 0.839538	 0
1462171897.016	 0	 -2.436479	 0.599282	 -8.792523	 0.220130	 -0.600734	 -1.003521	 -0.207366	 0.233436	 -0.485149	 0.816785	 0
1462171897.025	 0	 -2.640319	 0.205336	 -8.754623	 0.167352	 -0.641468	 -1.099390	 -0.226442	 0.231757	 -0.516519	 0.792604	 0
1462171897.035	 0	 -2.796890	 -0.411237	 -8.578888	 0.103970	 -0.679068	 -1.198858	 -0.246970	 0.228095	 -0.545532	 0.767706	 0
1462171897.045	 0	 -2.809167	 -1.143061	 -8.301955	 0.029195	 -0.711484	 -1.301100	 -0.268833	 0.221796	 -0.571690	 0.742769	 0
1462171897.054	 0	 -2.755319	 -1.874076	 -7.942098	 -0.055740	 -0.737124	 -1.404687	 -0.291695	 0.212807	 -0.594729	 0.718279	 0
1462171897.064	 0	 -2.822048	 -2.566764	 -7.572536	 -0.149179	 -0.756364	 -1.508261	 -0.315788	 0.201616	 -0.614452	 0.694318	 0
1462171897.073	 0	 -3.076349	 -3.079360	 -7.253573	 -0.249290	 -0.770742	 -1.611726	 -0.341401	 0.189305	 -0.630969	 0.670438	 0
1462171897.083	 0	 -3.432097	 -3.274057	 -7.042599	 -0.353618	 -0.781188	 -1.716151	 -0.368133	 0.177219	 -0.644905	 0.645886	 0
1462171897.092	 0	 -3.801672	 -3.197118	 -7.069758	 -0.460840	 -0.787157	 -1.824002	 -0.395342	 0.166106	 -0.657356	 0.619675	 0
1462171897.102	 0	 -3.988588	 -2.969367	 -7.222992	 -0.569167	 -0.786264	 -1.935680	 -0.422110	 0.155774	 -0.669236	 0.591339	 0
1462171897.112	 0	 -3.913193	 -2.530532	 -7.329358	 -0.673260	 -0.776161	 -2.047214	 -0.446937	 0.145946	 -0.681085	 0.561311	 0
1462171897.122	 0	 -3.644158	 -1.861744	 -7.327430	 -0.766627	 -0.756522	 -2.153472	 -0.468412	 0.136733	 -0.693305	 0.530304	 0
1462171897.131	 0	 -3.286572	 -1.114138	 -7.208326	 -0.844941	 -0.728770	 -2.250731	 -0.485758	 0.128271	 -0.706087	 0.499027	 0
1462171897.140	 0	 -2.891168	 -0.475575	 -7.045823	 -0.907618	 -0.694768	 -2.337404	 -0.499074	 0.120262	 -0.719288	 0.468068	 0
1462171897.150	 0	 -2.527556	 -0.039688	 -6.890253	 -0.956902	 -0.656219	 -2.414100	 -0.509103	 0.112287	 -0.732583	 0.437638	 0
1462171897.160	 0	 -2.238270	 0.166330	 -6.726777	 -0.996057	 -0.614748	 -2.482152	 -0.516841	 0.104068	 -0.745449	 0.407861	 0
1462171897.169	 0	 -2.052983	 0.037756	 -6.721599	 -1.029651	 -0.570676	 -2.543920	 -0.523663	 0.095037	 -0.757366	 0.378340	 0
1462171897.179	 0	 -1.970252	 -0.532339	 -6.842298	 -1.063171	 -0.523562	 -2.601563	 -0.531398	 0.084398	 -0.767474	 0.348536	 0
1462171897.189	 0	 -2.019641	 -1.347367	 -6.867982	 -1.100292	 -0.474306	 -2.656263	 -0.541413	 0.072293	 -0.774798	 0.318331	 0
1462171897.198	 0	 -2.113500	 -2.093217	 -6.706341	 -1.141093	 -0.424545	 -2.707737	 -0.553758	 0.059520	 -0.778943	 0.288194	 0
1462171897.208	 0	 -2.218657	 -2.616602	 -6.342268	 -1.183708	 -0.376112	 -2.755501	 -0.567649	 0.047123	 -0.780122	 0.258772	 0
1462171897.217	 0	 -2.270465	 -2.988618	 -5.906054	 -1.226732	 -0.329897	 -2.799127	 -0.582385	 0.035553	 -0.778714	 0.230581	 0
1462171897.227	 0	 -2.274289	 -3.141722	 -5.517488	 -1.268726	 -0.285733	 -2.838929	 -0.597211	 0.024933	 -0.775411	 0.203608	 0
1462171897.237	 0	 -2.153147	 -3.089920	 -5.218107	 -1.308007	 -0.242724	 -2.874552	 -0.611310	 0.014835	 -0.771000	 0.177873	 0
1462171897.246	 0	 -1.883569	 -2.816093	 -4.919631	 -1.342612	 -0.200715	 -2.905228	 -0.623812	 0.004931	 -0.766288	 0.153742	 0
1462171897.256	 0	 -1.548427	 -2.346293	 -4.580912	 -1.370932	 -0.160263	 -2.930495	 -0.634019	 -0.004858	 -0.762008	 0.131684	 0
1462171897.265	 0	 -1.191474	 -1.814154	 -4.268986	 -1.392451	 -0.121540	 -2.950631	 -0.641669	 -0.014642	 -0.758650	 0.111785	 0
1462171897.275	 0	 -0.886712	 -1.331593	 -3.937437	 -1.408005	 -0.084995	 -2.966364	 -0.647043	 -0.024327	 -0.756242	 0.094033	 0
1462171897.285	 0	 -0.613805	 -0.976905	 -3.505182	 -1.418972	 -0.051655	 -2.978267	 -0.650655	 -0.033594	 -0.754544	 0.078635	 0
1462171897.294	 0	 -0.435552	 -0.740102	 -3.023985	 -1.426880	 -0.022418	 -2.987241	 -0.653103	 -0.042004	 -0.753251	 0.065606	 0
1462171897.304	 0	 -0.323826	 -0.625864	 -2.511432	 -1.433228	 0.002286	 -2.994091	 -0.654986	 -0.049258	 -0.752039	 0.054812	 0
1462171897.314	 0	 -0.240000	 -0.502743	 -1.868182	 -1.438331	 0.021333	 -2.999244	 -0.656481	 -0.054849	 -0.750908	 0.046491	 0
1462171897.323	 0	 -0.078833	 -0.346097	 -1.192664	 -1.441941	 0.034164	 -3.002139	 -0.657520	 -0.058783	 -0.750017	 0.041078	 0
1462171897.333	 0	 0.101275	 -0.243826	 -0.569996	 -1.444488	 0.041135	 -3.002440	 -0.658258	 -0.061342	 -0.749296	 0.038589	 0
1462171897.343	 0	 0.302546	 -0.144148	 -0.004618	 -1.446226	 0.042812	 -3.000224	 -0.658785	 -0.062731	 -0.748706	 0.038811	 0
1462171897.352	 0	 0.514611	 -0.007945	 0.557362	 -1.446844	 0.039399	 -2.995321	 -0.658977	 -0.063085	 -0.748349	 0.041755	 0
1462171897.362	 0	 0.720802	 0.112837	 1.104299	 -1.446302	 0.030958	 -2.987770	 -0.658823	 -0.062410	 -0.748205	 0.047386	 0
1462171897.371	 0	 0.870674	 0.204638	 1.574180	 -1.444803	 0.018035	 -2.978055	 -0.658400	 -0.060744	 -0.748170	 0.055332	 0
1462171897.381	 0	 1.014799	 0.283277	 2.012888	 -1.442404	 0.001073	 -2.966386	 -0.657721	 -0.058171	 -0.748163	 0.065354	 0
1462171897.391	 0	 1.179858	 0.415802	 2.389930	 -1.438618	 -0.019377	 -2.952663	 -0.656584	 -0.054889	 -0.748270	 0.077308	 0
1462171897.400	 0	 1.325522	 0.542334	 2.764522	 -1.433180	 -0.043176	 -2.936863	 -0.654890	 -0.050910	 -0.748479	 0.091140	 0
1462171897.410	 0	 1.411307	 0.617513	 3.064325	 -1.426386	 -0.069791	 -2.919553	 -0.652752	 -0.046219	 -0.748634	 0.106424	 0
1462171897.419	 0	 1.472822	 0.586111	 3.277400	 -1.419089	 -0.098409	 -2.901040	 -0.650476	 -0.041030	 -0.748422	 0.122730	 0
1462171897.429	 0	 1.476063	 0.506280	 3.510141	 -1.411847	 -0.128986	 -2.881753	 -0.648286	 -0.035240	 -0.747614	 0.139845	 0
1462171897.438	 0	 1.452891	 0.421408	 3.708171	 -1.404753	 -0.161431	 -2.862014	 -0.646224	 -0.028778	 -0.746145	 0.157589	 0
1462171897.448	 0	 1.399045	 0.418725	 3.894791	 -1.397226	 -0.195533	 -2.842039	 -0.644072	 -0.021605	 -0.744179	 0.175791	 0
1462171897.458	 0	 1.325546	 0.472415	 4.074644	 -1.388625	 -0.231380	 -2.822048	 -0.641598	 -0.013537	 -0.741884	 0.194364	 0
1462171897.467	 0	 1.263973	 0.608455	 4.235420	 -1.378186	 -0.268728	 -2.801838	 -0.638516	 -0.004622	 -0.739457	 0.213260	 0
1462171897.477	 0	 1.284564	 0.874286	 4.379748	 -1.364522	 -0.307243	 -2.780722	 -0.634321	 0.005012	 -0.737242	 0.232565	 0
1462171897.487	 0	 1.457881	 1.237339	 4.516872	 -1.345953	 -0.346446	 -2.757099	 -0.628428	 0.014984	 -0.735550	 0.252625	 0
1462171897.496	 0	 1.775100	 1.666111	 4.701179	 -1.320861	 -0.386123	 -2.728950	 -0.620331	 0.024969	 -0.734506	 0.273983	 0
1462171897.506	 0	 2.138871	 1.991591	 4.899079	 -1.288940	 -0.425883	 -2.694945	 -0.610040	 0.034700	 -0.733839	 0.296862	 0
1462171897.516	 0	 2.451082	 2.141511	 5.112795	 -1.251291	 -0.465544	 -2.654795	 -0.598094	 0.044141	 -0.732920	 0.321191	 0
1462171897.525	 0	 2.672651	 2.115818	 5.364887	 -1.209261	 -0.505124	 -2.608680	 -0.585133	 0.053394	 -0.731096	 0.346796	 0
1462171897.535	 0	 2.738854	 1.956659	 5.668546	 -1.164213	 -0.545098	 -2.557243	 -0.571817	 0.062812	 -0.727752	 0.373440	 0
1462171897.544	 0	 2.662286	 1.694298	 5.955689	 -1.117394	 -0.585754	 -2.501495	 -0.558758	 0.072709	 -0.722465	 0.400682	 0
1462171897.554	 0	 2.527565	 1.453830	 6.209805	 -1.068922	 -0.626937	 -2.441832	 -0.546158	 0.083182	 -0.715171	 0.428162	 0
1462171897.563	 0	 2.461785	 1.339469	 6.432591	 -1.017033	 -0.667920	 -2.377419	 -0.533566	 0.094157	 -0.706197	 0.455771	 0
1462171897.573	 0	 2.492088	 1.419960	 6.680543	 -0.958513	 -0.707942	 -2.306340	 -0.520107	 0.105708	 -0.695963	 0.483683	 0
1462171897.583	 0	 2.707676	 1.641419	 6.926556	 -0.889921	 -0.745358	 -2.226010	 -0.504854	 0.117642	 -0.684838	 0.512132	 0
1462171897.592	 0	 2.999385	 1.835721	 7.097352	 -0.809800	 -0.777794	 -2.134956	 -0.487405	 0.129473	 -0.672990	 0.541071	 0
1462171897.602	 0	 3.252041	 1.909428	 7.212409	 -0.719745	 -0.803474	 -2.033944	 -0.468147	 0.140797	 -0.660237	 0.570176	 0
1462171897.611	 0	 3.479097	 1.882155	 7.392391	 -0.621369	 -0.821594	 -1.923696	 -0.447385	 0.151557	 -0.646173	 0.599447	 0
1462171897.621	 0	 3.675391	 1.602220	 7.472965	 -0.519082	 -0.830899	 -1.806774	 -0.425867	 0.161049	 -0.630437	 0.628689	 0
1462171897.631	 0	 3.759719	 1.202511	 7.496933	 -0.418289	 -0.831242	 -1.687302	 -0.404450	 0.168799	 -0.612855	 0.657522	 0
1462171897.640	 0	 3.690812	 0.894841	 7.482873	 -0.321862	 -0.823991	 -1.569044	 -0.383472	 0.175334	 -0.593594	 0.685458	 0
1462171897.650	 0	 3.495797	 0.642697	 7.405417	 -0.231893	 -0.810640	 -1.454941	 -0.363215	 0.181049	 -0.572931	 0.712072	 0
1462171897.660	 0	 3.285890	 0.533846	 7.284807	 -0.149022	 -0.792453	 -1.347054	 -0.343659	 0.186383	 -0.551368	 0.736989	 0
1462171897.669	 0	 3.169986	 0.536286	 7.194711	 -0.072240	 -0.769581	 -1.245188	 -0.324255	 0.191558	 -0.529139	 0.760379	 0
1462171897.679	 0	 3.161227	 0.610677	 7.041462	 -0.001380	 -0.741749	 -1.150172	 -0.304482	 0.196589	 -0.506717	 0.782228	 0
1462171897.688	 0	 3.249457	 0.718546	 6.896775	 0.063439	 -0.708709	 -1.062485	 -0.283944	 0.201340	 -0.484379	 0.802630	 0
1462171897.698	 0	 3.329402	 0.915063	 6.818911	 0.123252	 -0.670940	 -0.981536	 -0.262397	 0.206154	 -0.462068	 0.821670	 0
1462171897.708	 0	 3.386878	 1.185806	 6.769272	 0.179288	 -0.629017	 -0.906765	 -0.239690	 0.211485	 -0.439748	 0.839312	 0
1462171897.717	 0	 3.379786	 1.482163	 6.723954	 0.232194	 -0.583925	 -0.837710	 -0.216062	 0.217622	 -0.417340	 0.855444	 0
1462171897.727	 0	 3.243354	 1.655727	 6.523927	 0.281326	 -0.537253	 -0.774835	 -0.192243	 0.224434	 -0.395104	 0.869807	 0
1462171897.736	 0	 3.043606	 1.529694	 6.078788	 0.323558	 -0.491088	 -0.719773	 -0.169517	 0.230722	 -0.373790	 0.882220	 0
1462171897.746	 0	 2.854065	 1.243797	 5.665472	 0.357974	 -0.446306	 -0.671670	 -0.148387	 0.235687	 -0.353450	 0.893032	 0
1462171897.756	 0	 2.696318	 0.981383	 5.216209	 0.385282	 -0.403185	 -0.629751	 -0.128772	 0.239216	 -0.334263	 0.902475	 0
1462171897.765	 0	 2.535084	 0.816233	 4.694674	 0.406844	 -0.362489	 -0.593941	 -0.110661	 0.241674	 -0.316718	 0.910515	 0
1462171897.775	 0	 2.416312	 0.763645	 4.261082	 0.424576	 -0.324091	 -0.563320	 -0.093704	 0.243580	 -0.300805	 0.917281	 0
1462171897.785	 0	 2.276389	 0.806003	 3.973964	 0.440395	 -0.287666	 -0.536073	 -0.077633	 0.245493	 -0.285965	 0.923001	 0
1462171897.794	 0	 2.116601	 0.895492	 3.709805	 0.455320	 -0.253263	 -0.511455	 -0.062400	 0.247732	 -0.272027	 0.927759	 0
1462171897.804	 0	 1.961323	 1.013404	 3.470772	 0.470017	 -0.220910	 -0.489069	 -0.047980	 0.250501	 -0.258919	 0.931616	 0
1462171897.813	 0	 1.820146	 1.171610	 3.265637	 0.485058	 -0.190435	 -0.468531	 -0.034275	 0.253964	 -0.246523	 0.934641	 0
1462171897.823	 0	 1.703055	 1.375847	 3.060863	 0.501068	 -0.161617	 -0.449803	 -0.021122	 0.258328	 -0.234851	 0.936838	 0
1462171897.833	 0	 1.602838	 1.577912	 2.873379	 0.518249	 -0.134296	 -0.432737	 -0.008460	 0.263620	 -0.223841	 0.938258	 0
1462171897.842	 0	 1.532512	 1.703352	 2.643937	 0.536222	 -0.108363	 -0.417629	 0.003750	 0.269601	 -0.213635	 0.938968	 0
1462171897.852	 0	 1.473094	 1.704823	 2.344805	 0.553893	 -0.084040	 -0.405023	 0.015363	 0.275723	 -0.204546	 0.939096	 0
1462171897.861	 0	 1.458649	 1.563686	 1.981826	 0.570011	 -0.061512	 -0.395595	 0.026290	 0.281349	 -0.196971	 0.938804	 0
1462171897.871	 0	 1.443972	 1.296319	 1.574039	 0.583520	 -0.041050	 -0.389622	 0.036385	 0.285943	 -0.191153	 0.938282	 0
1462171897.881	 0	 1.418121	 0.954302	 1.093460	 0.593573	 -0.023150	 -0.387514	 0.045445	 0.289089	 -0.187438	 0.937672	 0
1462171897.890	 0	 1.329330	 0.596554	 0.591909	 0.600152	 -0.008547	 -0.389153	 0.053147	 0.290801	 -0.185949	 0.937034	 0
1462171897.900	 0	 1.183126	 0.237561	 0.125425	 0.603251	 0.002424	 -0.393908	 0.059267	 0.291103	 -0.186496	 0.936465	 0
1462171897.910	 0	 1.000930	 -0.068286	 -0.283167	 0.603373	 0.009729	 -0.401081	 0.063739	 0.290248	 -0.188784	 0.935978	 0
1462171897.919	 0	 0.795783	 -0.411886	 -0.687069	 0.600433	 0.013334	 -0.410296	 0.066477	 0.288222	 -0.192666	 0.935622	 0
1462171897.929	 0	 0.541398	 -0.630577	 -1.228577	 0.594804	 0.012201	 -0.422184	 0.067102	 0.285305	 -0.198578	 0.935235	 0
1462171897.939	 0	 0.411526	 -0.525872	 -1.730048	 0.589471	 0.006997	 -0.437418	 0.066294	 0.282839	 -0.206620	 0.934299	 0
1462171897.948	 0	 0.307529	 -0.205221	 -1.967216	 0.586660	 -0.000572	 -0.454632	 0.064895	 0.281765	 -0.215818	 0.932641	 0
1462171897.958	 0	 0.159150	 0.305069	 -1.952428	 0.588141	 -0.009451	 -0.471482	 0.063300	 0.282887	 -0.224866	 0.930271	 0
1462171897.967	 0	 -0.027750	 0.840401	 -1.852693	 0.594866	 -0.019387	 -0.486489	 0.061588	 0.286658	 -0.233024	 0.927218	 0
1462171897.977	 0	 -0.046434	 0.954443	 -1.862588	 0.603747	 -0.029794	 -0.500901	 0.059898	 0.291527	 -0.240898	 0.923792	 0
1462171897.986	 0	 -0.056702	 0.608457	 -2.032658	 0.610101	 -0.041068	 -0.516247	 0.057715	 0.295329	 -0.249393	 0.920463	 0
1462171897.996	 0	 -0.084178	 0.033212	 -2.336749	 0.611027	 -0.054089	 -0.533568	 0.054390	 0.296835	 -0.259177	 0.917474	 0
1462171898.006	 0	 -0.144161	 -0.510717	 -2.693778	 0.606131	 -0.069429	 -0.553458	 0.049624	 0.295970	 -0.270566	 0.914731	 0
1462171898.015	 0	 -0.306502	 -0.899224	 -2.962930	 0.596613	 -0.087262	 -0.575161	 0.043302	 0.293389	 -0.283141	 0.912074	 0
1462171898.025	 0	 -0.551739	 -1.213189	 -3.101665	 0.583598	 -0.107602	 -0.597146	 0.035276	 0.289700	 -0.296100	 0.909480	 0
1462171898.034	 0	 -0.758678	 -1.631832	 -3.255355	 0.566321	 -0.130189	 -0.619507	 0.025499	 0.284570	 -0.309374	 0.907004	 0
1462171898.044	 0	 -0.902185	 -2.055028	 -3.434262	 0.544228	 -0.154483	 -0.642994	 0.014157	 0.277723	 -0.323130	 0.904575	 0
1462171898.054	 0	 -1.013944	 -2.442976	 -3.650235	 0.517446	 -0.180118	 -0.668328	 0.001437	 0.269231	 -0.337516	 0.901995	 0
1462171898.063	 0	 -1.149210	 -2.680556	 -3.900548	 0.486705	 -0.207250	 -0.696015	 -0.012642	 0.259534	 -0.352632	 0.898962	 0
1462171898.073	 0	 -1.315539	 -2.503950	 -4.158792	 0.455293	 -0.236057	 -0.726239	 -0.027632	 0.250248	 -0.368463	 0.894901	 0
1462171898.083	 0	 -1.368496	 -2.120865	 -4.430352	 0.425649	 -0.265699	 -0.759623	 -0.042624	 0.242441	 -0.385172	 0.889409	 0
1462171898.092	 0	 -1.362485	 -1.627972	 -4.694846	 0.398471	 -0.295475	 -0.796623	 -0.057064	 0.236403	 -0.402902	 0.882342	 0
1462171898.102	 0	 -1.376217	 -0.989806	 -4.863287	 0.375176	 -0.325203	 -0.836522	 -0.070588	 0.232766	 -0.421370	 0.873662	 0
1462171898.111	 0	 -1.341380	 -0.388927	 -5.006270	 0.355944	 -0.354396	 -0.878902	 -0.082866	 0.231514	 -0.440407	 0.863467	 0
1462171898.121	 0	 -1.259714	 -0.031997	 -5.231564	 0.338503	 -0.382915	 -0.924499	 -0.094138	 0.231661	 -0.460247	 0.851847	 0
1462171898.131	 0	 -1.171159	 0.063916	 -5.407442	 0.320077	 -0.410484	 -0.973463	 -0.104861	 0.232003	 -0.480777	 0.839067	 0
1462171898.140	 0	 -1.080589	 -0.052256	 -5.417811	 0.299037	 -0.436446	 -1.024330	 -0.115341	 0.231682	 -0.501217	 0.825713	 0
1462171898.150	 0	 -1.049163	 -0.334436	 -5.383649	 0.273987	 -0.460796	 -1.076342	 -0.126099	 0.230118	 -0.521125	 0.812141	 0
1462171898.159	 0	 -1.102430	 -0.761606	 -5.313304	 0.243820	 -0.484075	 -1.128987	 -0.137831	 0.227022	 -0.540164	 0.798553	 0
1462171898.169	 0	 -1.239999	 -1.348113	 -5.244207	 0.207165	 -0.506615	 -1.182042	 -0.151206	 0.222011	 -0.558053	 0.785127	 0
1462171898.179	 0	 -1.498102	 -2.018019	 -5.244958	 0.162572	 -0.529364	 -1.236128	 -0.167091	 0.214958	 -0.574744	 0.771714	 0
1462171898.188	 0	 -1.864444	 -2.621505	 -5.273047	 0.109996	 -0.553130	 -1.291928	 -0.185875	 0.206348	 -0.590203	 0.757978	 0
1462171898.198	 0	 -2.199844	 -3.102360	 -5.292552	 0.050149	 -0.577474	 -1.350010	 -0.207210	 0.196643	 -0.604418	 0.743689	 0
1462171898.207	 0	 -2.528293	 -3.419848	 -5.362568	 -0.016185	 -0.601834	 -1.411239	 -0.230624	 0.186325	 -0.617519	 0.728537	 0
1462171898.217	 0	 -2.904586	 -3.446259	 -5.541121	 -0.087584	 -0.626099	 -1.477419	 -0.255514	 0.176368	 -0.630028	 0.711809	 0
1462171898.227	 0	 -3.128881	 -3.164914	 -5.758216	 -0.161919	 -0.648722	 -1.549734	 -0.280601	 0.167471	 -0.642551	 0.693069	 0
1462171898.236	 0	 -3.130195	 -2.670024	 -5.878520	 -0.236105	 -0.667170	 -1.626984	 -0.304240	 0.159836	 -0.655360	 0.672603	 0
1462171898.246	 0	 -2.994670	 -2.079434	 -5.853133	 -0.307225	 -0.680108	 -1.706521	 -0.325409	 0.153491	 -0.668364	 0.651029	 0
1462171898.255	 0	 -2.807523	 -1.513975	 -5.740051	 -0.373079	 -0.687481	 -1.785751	 -0.343698	 0.148426	 -0.681393	 0.628923	 0
1462171898.265	 0	 -2.636810	 -1.240829	 -5.674679	 -0.435131	 -0.689607	 -1.863871	 -0.359881	 0.143817	 -0.694210	 0.606527	 0
1462171898.275	 0	 -2.618818	 -1.213591	 -5.662059	 -0.496070	 -0.687608	 -1.941461	 -0.375271	 0.139151	 -0.706493	 0.583674	 0
1462171898.284	 0	 -2.750592	 -1.317955	 -5.684855	 -0.557661	 -0.682720	 -2.019292	 -0.390848	 0.134467	 -0.717948	 0.560096	 0
1462171898.294	 0	 -2.919892	 -1.612351	 -5.761641	 -0.621781	 -0.675039	 -2.097962	 -0.407382	 0.129437	 -0.728296	 0.535603	 0
1462171898.304	 0	 -3.066730	 -2.010303	 -5.849562	 -0.689406	 -0.664033	 -2.177265	 -0.425293	 0.123668	 -0.737262	 0.510174	 0
1462171898.313	 0	 -3.164082	 -2.337380	 -5.936991	 -0.759451	 -0.648959	 -2.256320	 -0.444293	 0.117089	 -0.744845	 0.483838	 0
1462171898.323	 0	 -3.187818	 -2.537024	 -6.034636	 -0.829757	 -0.629188	 -2.333995	 -0.463736	 0.109802	 -0.751255	 0.456628	 0
1462171898.332	 0	 -3.135448	 -2.672628	 -6.114599	 -0.898536	 -0.604294	 -2.408893	 -0.483133	 0.101729	 -0.756601	 0.428707	 0
1462171898.342	 0	 -3.032173	 -2.673290	 -6.111397	 -0.963566	 -0.574649	 -2.479482	 -0.501863	 0.093056	 -0.761014	 0.400414	 0
1462171898.352	 0	 -2.932393	 -2.586407	 -6.032709	 -1.023374	 -0.541347	 -2.545007	 -0.519501	 0.084176	 -0.764595	 0.372059	 0
1462171898.361	 0	 -2.830842	 -2.528394	 -5.861144	 -1.077826	 -0.505692	 -2.605094	 -0.536021	 0.075329	 -0.767232	 0.344037	 0
1462171898.371	 0	 -2.751837	 -2.521656	 -5.583146	 -1.127654	 -0.469187	 -2.659761	 -0.551651	 0.066777	 -0.768684	 0.316776	 0
1462171898.380	 0	 -2.702308	 -2.497244	 -5.278722	 -1.173422	 -0.432807	 -2.709553	 -0.566472	 0.058756	 -0.768959	 0.290445	 0
1462171898.390	 0	 -2.663866	 -2.515023	 -4.933682	 -1.215886	 -0.397372	 -2.755083	 -0.580635	 0.051460	 -0.768045	 0.265183	 0
1462171898.400	 0	 -2.579405	 -2.582927	 -4.542182	 -1.255855	 -0.363492	 -2.796327	 -0.594330	 0.044843	 -0.765848	 0.241325	 0
1462171898.409	 0	 -2.417663	 -2.609050	 -4.115841	 -1.293389	 -0.331557	 -2.832976	 -0.607471	 0.038794	 -0.762503	 0.219232	 0
1462171898.419	 0	 -2.160760	 -2.551999	 -3.636922	 -1.327980	 -0.302115	 -2.864564	 -0.619774	 0.033257	 -0.758310	 0.199348	 0
1462171898.428	 0	 -1.846902	 -2.328278	 -3.089447	 -1.358439	 -0.276044	 -2.890707	 -0.630716	 0.028361	 -0.753795	 0.182170	 0
1462171898.438	 0	 -1.433659	 -1.947001	 -2.456330	 -1.383478	 -0.254260	 -2.910950	 -0.639763	 0.024190	 -0.749543	 0.168239	 0
1462171898.448	 0	 -1.015559	 -1.489764	 -1.723040	 -1.402388	 -0.238058	 -2.925228	 -0.646617	 0.021039	 -0.745960	 0.158074	 0
1462171898.458	 0	 -0.668639	 -1.021829	 -0.914729	 -1.415414	 -0.228587	 -2.934292	 -0.651352	 0.019369	 -0.743175	 0.151847	 0
1462171898.467	 0	 -0.428492	 -0.579162	 -0.112360	 -1.423160	 -0.226347	 -2.939463	 -0.654172	 0.019626	 -0.741206	 0.149292	 0
1462171898.477	 0	 -0.240198	 -0.289227	 0.585541	 -1.426988	 -0.230747	 -2.941629	 -0.655570	 0.021710	 -0.739782	 0.149932	 0
1462171898.486	 0	 -0.136908	 -0.198546	 1.102859	 -1.429026	 -0.240351	 -2.941766	 -0.656313	 0.025224	 -0.738388	 0.152971	 0
1462171898.496	 0	 -0.071247	 -0.276370	 1.424768	 -1.431155	 -0.253336	 -2.940729	 -0.657077	 0.029611	 -0.736586	 0.157525	 0
1462171898.505	 0	 0.038637	 -0.493606	 1.626957	 -1.434749	 -0.268383	 -2.938495	 -0.658362	 0.034250	 -0.733997	 0.163203	 0
1462171898.515	 0	 0.192898	 -0.712235	 1.756841	 -1.440083	 -0.284630	 -2.934718	 -0.660270	 0.038660	 -0.730543	 0.169867	 0
1462171898.525	 0	 0.358534	 -0.771868	 1.889577	 -1.445898	 -0.301917	 -2.929185	 -0.662343	 0.042798	 -0.726606	 0.177519	 0
1462171898.534	 0	 0.527778	 -0.602984	 2.042084	 -1.449961	 -0.320485	 -2.921857	 -0.663773	 0.046933	 -0.722866	 0.186189	 0
1462171898.544	 0	 0.680029	 -0.354406	 2.148294	 -1.451033	 -0.340019	 -2.912755	 -0.664132	 0.051092	 -0.719732	 0.195714	 0
1462171898.554	 0	 0.781643	 -0.126297	 2.218512	 -1.449236	 -0.360159	 -2.902324	 -0.663475	 0.055318	 -0.717210	 0.205791	 0
1462171898.563	 0	 0.891793	 0.135860	 2.266678	 -1.444340	 -0.380671	 -2.890595	 -0.661742	 0.059601	 -0.715374	 0.216301	 0
1462171898.573	 0	 1.008413	 0.420071	 2.256644	 -1.435942	 -0.400970	 -2.877426	 -0.658819	 0.063774	 -0.714374	 0.227070	 0
1462171898.582	 0	 1.129020	 0.693506	 2.212930	 -1.424077	 -0.420671	 -2.862751	 -0.654744	 0.067727	 -0.714205	 0.237980	 0
1462171898.592	 0	 1.242352	 0.980975	 2.159459	 -1.408544	 -0.439508	 -2.846538	 -0.649463	 0.071436	 -0.714930	 0.248937	 0
1462171898.601	 0	 1.326473	 1.197933	 2.150126	 -1.389831	 -0.457751	 -2.828896	 -0.643152	 0.075039	 -0.716331	 0.259990	 0
1462171898.611	 0	 1.362226	 1.311234	 2.169771	 -1.369031	 -0.475662	 -2.810158	 -0.636189	 0.078654	 -0.718030	 0.271127	 0
1462171898.621	 0	 1.383197	 1.385880	 2.233816	 -1.346632	 -0.493645	 -2.790412	 -0.628751	 0.082434	 -0.719795	 0.282440	 0
1462171898.630	 0	 1.396724	 1.394887	 2.351882	 -1.323165	 -0.512192	 -2.769557	 -0.621041	 0.086496	 -0.721338	 0.294106	 0
1462171898.640	 0	 1.415333	 1.345097	 2.476761	 -1.299057	 -0.531369	 -2.747414	 -0.613238	 0.090778	 -0.722454	 0.306201	 0
1462171898.650	 0	 1.399873	 1.268185	 2.621407	 -1.274737	 -0.551415	 -2.724218	 -0.605510	 0.095402	 -0.722972	 0.318695	 0
1462171898.659	 0	 1.418371	 1.175056	 2.783109	 -1.250078	 -0.572400	 -2.699531	 -0.597863	 0.100303	 -0.722813	 0.331723	 0
1462171898.670	 0	 1.528701	 1.141399	 2.973550	 -1.224023	 -0.594190	 -2.672251	 -0.590004	 0.105306	 -0.722078	 0.345557	 0
1462171898.688	 0	 1.753951	 1.189789	 3.605367	 -1.163275	 -0.641959	 -2.606240	 -0.572493	 0.116341	 -0.718808	 0.376871	 0
1462171898.698	 0	 1.812113	 1.183311	 4.053556	 -1.127724	 -0.669270	 -2.566671	 -0.562794	 0.123071	 -0.715792	 0.394662	 0
1462171898.707	 0	 1.843837	 1.150353	 4.623366	 -1.088019	 -0.699886	 -2.521498	 -0.552522	 0.131022	 -0.711317	 0.414222	 0
1462171898.717	 0	 1.838552	 1.054570	 5.150459	 -1.043723	 -0.733594	 -2.469941	 -0.541795	 0.140174	 -0.705108	 0.435467	 0
1462171898.726	 0	 1.888069	 0.893596	 5.558555	 -0.994685	 -0.768902	 -2.411317	 -0.530807	 0.149961	 -0.697099	 0.458049	 0
1462171898.736	 0	 2.055170	 0.713779	 5.870189	 -0.939765	 -0.803829	 -2.344051	 -0.519435	 0.159620	 -0.687416	 0.481839	 0
1462171898.746	 0	 2.268292	 0.604694	 6.161211	 -0.877153	 -0.836918	 -2.266697	 -0.507325	 0.168879	 -0.676242	 0.506752	 0
1462171898.755	 0	 2.503985	 0.622360	 6.371519	 -0.804966	 -0.866567	 -2.178587	 -0.493988	 0.177741	 -0.663958	 0.532489	 0
1462171898.765	 0	 2.789900	 0.764811	 6.538073	 -0.721769	 -0.890874	 -2.079541	 -0.478902	 0.186219	 -0.650980	 0.558749	 0
1462171898.774	 0	 3.044367	 1.043958	 6.753432	 -0.626436	 -0.908685	 -1.969847	 -0.461548	 0.194805	 -0.637502	 0.585334	 0
1462171898.784	 0	 3.217631	 1.254509	 6.980906	 -0.520754	 -0.919128	 -1.851116	 -0.442106	 0.203677	 -0.623252	 0.612059	 0
1462171898.794	 0	 3.250850	 1.340547	 7.169260	 -0.409077	 -0.921902	 -1.726862	 -0.421291	 0.212819	 -0.607848	 0.638548	 0
1462171898.803	 0	 3.166727	 1.344688	 7.339951	 -0.295705	 -0.917347	 -1.600709	 -0.399783	 0.222266	 -0.590986	 0.664460	 0
1462171898.813	 0	 3.095881	 1.193231	 7.465457	 -0.184971	 -0.905296	 -1.475719	 -0.378086	 0.231498	 -0.572488	 0.689723	 0
1462171898.823	 0	 3.037059	 1.048962	 7.602160	 -0.079674	 -0.885761	 -1.354199	 -0.356284	 0.240239	 -0.552336	 0.714333	 0
1462171898.832	 0	 2.985793	 0.931534	 7.693134	 0.018521	 -0.859216	 -1.238126	 -0.334319	 0.248538	 -0.530661	 0.738145	 0
1462171898.842	 0	 2.927743	 0.814896	 7.724509	 0.107767	 -0.826280	 -1.129490	 -0.312255	 0.256231	 -0.507725	 0.760958	 0
1462171898.851	 0	 2.869813	 0.708737	 7.736113	 0.187415	 -0.787879	 -1.029096	 -0.290140	 0.263285	 -0.483716	 0.782635	 0
1462171898.861	 0	 2.804855	 0.543694	 7.749620	 0.257207	 -0.744929	 -0.936634	 -0.268127	 0.269502	 -0.458610	 0.803215	 0
1462171898.871	 0	 2.659431	 0.431246	 7.764083	 0.318126	 -0.698877	 -0.851117	 -0.246460	 0.275103	 -0.432376	 0.822573	 0
1462171898.880	 0	 2.456391	 0.390441	 7.796980	 0.371831	 -0.650821	 -0.771347	 -0.225223	 0.280473	 -0.405053	 0.840560	 0
1462171898.890	 0	 2.220220	 0.377859	 7.851462	 0.419656	 -0.601619	 -0.696023	 -0.204578	 0.285842	 -0.376588	 0.857102	 0
1462171898.899	 0	 1.994735	 0.401875	 7.914972	 0.462594	 -0.551389	 -0.624202	 -0.184434	 0.291287	 -0.346983	 0.872203	 0
1462171898.909	 0	 1.803158	 0.512966	 7.944432	 0.501720	 -0.500220	 -0.555563	 -0.164618	 0.297042	 -0.316460	 0.885731	 0
1462171898.919	 0	 1.713119	 0.563401	 7.787613	 0.536390	 -0.448407	 -0.491310	 -0.145115	 0.302739	 -0.285775	 0.897565	 0
1462171898.928	 0	 1.696598	 0.609415	 7.421635	 0.566019	 -0.396675	 -0.433128	 -0.125955	 0.308032	 -0.256020	 0.907582	 0
1462171898.938	 0	 1.771265	 0.583422	 6.948833	 0.590325	 -0.345450	 -0.381945	 -0.107051	 0.312569	 -0.227990	 0.915894	 0
1462171898.947	 0	 1.904973	 0.464527	 6.444939	 0.609025	 -0.294913	 -0.337741	 -0.088325	 0.315913	 -0.202022	 0.922814	 0
1462171898.957	 0	 1.942218	 0.414713	 5.955922	 0.623322	 -0.245950	 -0.299446	 -0.070055	 0.318335	 -0.178099	 0.928459	 0
1462171898.967	 0	 1.924202	 0.408447	 5.509883	 0.634694	 -0.199182	 -0.265924	 -0.052465	 0.320283	 -0.156079	 0.932902	 0
1462171898.976	 0	 1.818183	 0.355171	 5.148285	 0.643567	 -0.154893	 -0.235706	 -0.035815	 0.321754	 -0.135510	 0.936391	 0
1462171898.986	 0	 1.669590	 0.329544	 4.917654	 0.650572	 -0.113006	 -0.207218	 -0.020225	 0.322893	 -0.115795	 0.939107	 0
1462171898.996	 0	 1.509475	 0.292531	 4.761514	 0.656088	 -0.073175	 -0.179535	 -0.005625	 0.323784	 -0.096548	 0.941175	 0
1462171899.005	 0	 1.379840	 0.206313	 4.620857	 0.659752	 -0.035060	 -0.152376	 0.008116	 0.324198	 -0.077661	 0.942761	 0
1462171899.015	 0	 1.240596	 0.103546	 4.476347	 0.661449	 0.001242	 -0.125648	 0.020974	 0.324051	 -0.059179	 0.943954	 0
1462171899.024	 0	 1.091741	 0.039377	 4.297500	 0.661449	 0.035457	 -0.099367	 0.032871	 0.323444	 -0.041215	 0.944778	 0
1462171899.034	 0	 0.945541	 -0.002640	 4.080353	 0.660217	 0.067337	 -0.073747	 0.043766	 0.322568	 -0.023951	 0.945231	 0
1462171899.044	 0	 0.835790	 -0.053527	 3.727497	 0.657863	 0.096371	 -0.049652	 0.053580	 0.321426	 -0.007911	 0.945384	 0
1462171899.053	 0	 0.777345	 -0.149778	 3.227290	 0.654390	 0.122053	 -0.028573	 0.062330	 0.319932	 0.006096	 0.945368	 0
1462171899.063	 0	 0.766946	 -0.252114	 2.654713	 0.649884	 0.144296	 -0.011526	 0.070147	 0.318024	 0.017566	 0.945321	 0
1462171899.072	 0	 0.661431	 -0.197449	 2.033314	 0.645746	 0.162309	 0.001403	 0.076655	 0.316302	 0.026385	 0.945188	 0
1462171899.082	 0	 0.545268	 -0.072968	 1.481039	 0.643193	 0.176014	 0.010579	 0.081721	 0.315295	 0.032780	 0.944900	 0
1462171899.092	 0	 0.449322	 0.134890	 1.076152	 0.642772	 0.186382	 0.016941	 0.085624	 0.315248	 0.037396	 0.944399	 0
1462171899.101	 0	 0.393900	 0.352877	 0.758144	 0.644881	 0.194302	 0.021147	 0.088660	 0.316343	 0.040716	 0.943615	 0
1462171899.111	 0	 0.335318	 0.498937	 0.423246	 0.648973	 0.199934	 0.023032	 0.090933	 0.318299	 0.042677	 0.942654	 0
1462171899.120	 0	 0.276867	 0.585067	 0.106358	 0.654503	 0.203260	 0.022732	 0.092430	 0.320854	 0.043317	 0.941612	 0
1462171899.130	 0	 0.203026	 0.584010	 -0.210124	 0.660647	 0.204168	 0.020413	 0.093099	 0.323628	 0.042656	 0.940626	 0
1462171899.140	 0	 0.124775	 0.500486	 -0.533660	 0.666607	 0.202595	 0.016038	 0.092946	 0.326245	 0.040622	 0.939827	 0
1462171899.149	 0	 0.020059	 0.384966	 -0.871067	 0.671874	 0.198251	 0.009673	 0.091844	 0.328484	 0.037167	 0.939298	 0
1462171899.159	 0	 -0.086979	 0.209519	 -1.187966	 0.675907	 0.191146	 0.001519	 0.089779	 0.330112	 0.032353	 0.939105	 0
1462171899.169	 0	 -0.191458	 0.014049	 -1.508816	 0.678310	 0.181350	 -0.008341	 0.086773	 0.330965	 0.026208	 0.939279	 0
1462171899.178	 0	 -0.320475	 -0.157912	 -1.815628	 0.679183	 0.168737	 -0.019751	 0.082730	 0.331116	 0.018790	 0.939768	 0
1462171899.188	 0	 -0.468854	 -0.295994	 -2.150567	 0.678751	 0.153089	 -0.032780	 0.077539	 0.330697	 0.010044	 0.940493	 0
1462171899.197	 0	 -0.657236	 -0.402656	 -2.514795	 0.677218	 0.133927	 -0.047355	 0.070943	 0.329844	 -0.000060	 0.941366	 0
1462171899.207	 0	 -0.846683	 -0.511774	 -2.895198	 0.674537	 0.111056	 -0.063659	 0.062861	 0.328567	 -0.011629	 0.942315	 0
1462171899.217	 0	 -1.014392	 -0.585492	 -3.279065	 0.670803	 0.084685	 -0.081846	 0.053392	 0.326943	 -0.024676	 0.943212	 0
1462171899.226	 0	 -1.173586	 -0.515184	 -3.601827	 0.666991	 0.055097	 -0.101698	 0.042626	 0.325478	 -0.039004	 0.943783	 0
1462171899.236	 0	 -1.297851	 -0.432760	 -3.894815	 0.663508	 0.022830	 -0.123121	 0.030808	 0.324400	 -0.054452	 0.943849	 0
1462171899.245	 0	 -1.410957	 -0.411451	 -4.179803	 0.659638	 -0.011971	 -0.146125	 0.017994	 0.323416	 -0.070995	 0.943418	 0
1462171899.255	 0	 -1.525780	 -0.337001	 -4.435648	 0.655419	 -0.049047	 -0.170653	 0.004292	 0.322586	 -0.088527	 0.942381	 0
1462171899.265	 0	 -1.603777	 -0.177308	 -4.639841	 0.651504	 -0.088006	 -0.196457	 -0.010120	 0.322257	 -0.106832	 0.940550	 0
1462171899.274	 0	 -1.647561	 0.010581	 -4.881187	 0.648183	 -0.128519	 -0.223960	 -0.024979	 0.322603	 -0.126031	 0.937774	 0
1462171899.284	 0	 -1.701698	 0.172204	 -5.176184	 0.645080	 -0.170966	 -0.253602	 -0.040387	 0.323524	 -0.146348	 0.933961	 0
1462171899.294	 0	 -1.774610	 0.274607	 -5.516437	 0.641299	 -0.215768	 -0.285850	 -0.056511	 0.324711	 -0.167984	 0.929059	 0
1462171899.303	 0	 -1.830744	 0.320092	 -5.939377	 0.635890	 -0.263150	 -0.321394	 -0.073427	 0.325860	 -0.191158	 0.922975	 0
1462171899.313	 0	 -1.855760	 0.339405	 -6.433571	 0.627689	 -0.313337	 -0.361433	 -0.091183	 0.326645	 -0.216245	 0.915547	 0
1462171899.322	 0	 -1.790225	 0.422923	 -6.893998	 0.616354	 -0.365506	 -0.406877	 -0.109342	 0.327108	 -0.243302	 0.906559	 0
1462171899.332	 0	 -1.669495	 0.593688	 -7.178595	 0.602298	 -0.418095	 -0.457451	 -0.127237	 0.327540	 -0.271772	 0.895918	 0
1462171899.342	 0	 -1.508434	 0.726605	 -7.327113	 0.585326	 -0.469683	 -0.512595	 -0.144389	 0.327897	 -0.300998	 0.883762	 0
1462171899.351	 0	 -1.319227	 0.728943	 -7.284550	 0.564498	 -0.518908	 -0.571431	 -0.160541	 0.327728	 -0.330189	 0.870515	 0
1462171899.361	 0	 -1.194886	 0.635068	 -7.135813	 0.539111	 -0.565045	 -0.632780	 -0.175802	 0.326658	 -0.358568	 0.856631	 0
1462171899.370	 0	 -1.200301	 0.528982	 -7.154293	 0.508754	 -0.609282	 -0.697230	 -0.190834	 0.324780	 -0.386321	 0.841936	 0
1462171899.380	 0	 -1.243592	 0.361002	 -7.256478	 0.471921	 -0.652460	 -0.766289	 -0.206216	 0.321877	 -0.413796	 0.826222	 0
1462171899.390	 0	 -1.309870	 0.259387	 -7.265908	 0.428714	 -0.694080	 -0.839795	 -0.221914	 0.318141	 -0.440654	 0.809546	 0
1462171899.399	 0	 -1.386737	 0.270963	 -7.236823	 0.380221	 -0.733611	 -0.917676	 -0.237620	 0.314132	 -0.466755	 0.791831	 0
1462171899.409	 0	 -1.374200	 0.239914	 -7.122899	 0.326602	 -0.769941	 -0.999713	 -0.252982	 0.309840	 -0.491892	 0.773331	 0
1462171899.418	 0	 -1.382369	 0.055087	 -6.918537	 0.267277	 -0.802214	 -1.085011	 -0.268066	 0.304832	 -0.515620	 0.754555	 0
1462171899.428	 0	 -1.482867	 -0.214687	 -6.671112	 0.202369	 -0.830901	 -1.172143	 -0.283413	 0.299084	 -0.537420	 0.735803	 0
1462171899.438	 0	 -1.635148	 -0.554265	 -6.440312	 0.131611	 -0.856430	 -1.260850	 -0.299438	 0.292576	 -0.557159	 0.717154	 0
1462171899.447	 0	 -1.816794	 -0.897032	 -6.326193	 0.053919	 -0.879036	 -1.352318	 -0.316499	 0.285211	 -0.575064	 0.698416	 0
1462171899.457	 0	 -2.012208	 -1.114874	 -6.375952	 -0.031324	 -0.898578	 -1.448856	 -0.334566	 0.277231	 -0.591770	 0.678982	 0
1462171899.467	 0	 -2.134881	 -1.187923	 -6.485443	 -0.123818	 -0.914010	 -1.551898	 -0.353237	 0.268837	 -0.607828	 0.658404	 0
1462171899.476	 0	 -2.223493	 -1.046776	 -6.433819	 -0.219262	 -0.924275	 -1.658674	 -0.371537	 0.260701	 -0.623214	 0.636867	 0
1462171899.486	 0	 -2.235002	 -0.822658	 -6.349408	 -0.313909	 -0.928899	 -1.766451	 -0.388790	 0.253206	 -0.637997	 0.614564	 0
1462171899.495	 0	 -2.119721	 -0.662745	 -6.276246	 -0.406026	 -0.926940	 -1.873100	 -0.404748	 0.245845	 -0.652332	 0.591779	 0
1462171899.505	 0	 -1.990769	 -0.530299	 -6.081672	 -0.492837	 -0.918835	 -1.975156	 -0.419321	 0.238537	 -0.665978	 0.568985	 0
1462171899.515	 0	 -1.885284	 -0.430560	 -5.825199	 -0.572230	 -0.905892	 -2.070065	 -0.432530	 0.231452	 -0.678689	 0.546561	 0
1462171899.524	 0	 -1.828222	 -0.469305	 -5.655667	 -0.645559	 -0.889117	 -2.158302	 -0.444990	 0.224354	 -0.690371	 0.524441	 0
1462171899.534	 0	 -1.790856	 -0.606199	 -5.544220	 -0.714473	 -0.868853	 -2.240625	 -0.457246	 0.216868	 -0.700977	 0.502519	 0
1462171899.543	 0	 -1.799923	 -0.706767	 -5.423460	 -0.779020	 -0.845875	 -2.317277	 -0.469380	 0.209187	 -0.710505	 0.480735	 0
1462171899.553	 0	 -1.838096	 -0.778182	 -5.325858	 -0.839412	 -0.820803	 -2.388973	 -0.481404	 0.201540	 -0.719036	 0.458932	 0
1462171899.563	 0	 -1.875211	 -0.838921	 -5.215724	 -0.895777	 -0.793932	 -2.455968	 -0.493288	 0.193961	 -0.726623	 0.437111	 0
1462171899.572	 0	 -1.859148	 -0.862830	 -5.091803	 -0.947582	 -0.765529	 -2.517908	 -0.504800	 0.186459	 -0.733357	 0.415448	 0
1462171899.582	 0	 -1.797265	 -0.873364	 -4.933182	 -0.994560	 -0.735892	 -2.574515	 -0.515775	 0.178990	 -0.739311	 0.394154	 0
1462171899.591	 0	 -1.716519	 -0.834125	 -4.734375	 -1.036458	 -0.705563	 -2.625675	 -0.526026	 0.171629	 -0.744566	 0.373446	 0
1462171899.601	 0	 -1.645675	 -0.784249	 -4.520494	 -1.073515	 -0.675226	 -2.671832	 -0.535484	 0.164551	 -0.749175	 0.353436	 0
1462171899.611	 0	 -1.594923	 -0.730502	 -4.233165	 -1.106185	 -0.645603	 -2.713374	 -0.544167	 0.157910	 -0.753121	 0.334299	 0
1462171899.620	 0	 -1.586063	 -0.664827	 -3.885859	 -1.134936	 -0.617874	 -2.750978	 -0.552074	 0.152144	 -0.756354	 0.316220	 0
1462171899.630	 0	 -1.583156	 -0.655588	 -3.521719	 -1.160656	 -0.592432	 -2.785166	 -0.559387	 0.147283	 -0.758820	 0.299307	 0
1462171899.640	 0	 -1.554230	 -0.720490	 -3.174640	 -1.184513	 -0.569383	 -2.816279	 -0.566429	 0.143188	 -0.760386	 0.283668	 0
1462171899.649	 0	 -1.501092	 -0.794599	 -2.811626	 -1.206825	 -0.548719	 -2.844322	 -0.573246	 0.139735	 -0.761101	 0.269422	 0
1462171899.659	 0	 -1.418204	 -0.845836	 -2.387638	 -1.227609	 -0.531026	 -2.869140	 -0.579780	 0.137038	 -0.760983	 0.256866	 0
1462171899.668	 0	 -1.299433	 -0.863650	 -1.915022	 -1.246546	 -0.516741	 -2.890514	 -0.585857	 0.135172	 -0.760170	 0.246256	 0
1462171899.678	 0	 -1.112626	 -0.830671	 -1.468308	 -1.263223	 -0.505779	 -2.908116	 -0.591295	 0.133975	 -0.758882	 0.237739	 0
1462171899.688	 0	 -0.878567	 -0.796193	 -1.005664	 -1.277465	 -0.498147	 -2.921584	 -0.596015	 0.133281	 -0.757240	 0.231493	 0
1462171899.697	 0	 -0.621365	 -0.697104	 -0.584704	 -1.288860	 -0.493663	 -2.930889	 -0.599846	 0.132989	 -0.755479	 0.227486	 0
1462171899.707	 0	 -0.377559	 -0.559339	 -0.181909	 -1.297146	 -0.492250	 -2.936330	 -0.602657	 0.133131	 -0.753784	 0.225589	 0
1462171899.716	 0	 -0.133357	 -0.424192	 0.176125	 -1.302422	 -0.493589	 -2.938144	 -0.604477	 0.133608	 -0.752227	 0.225635	 0
1462171899.726	 0	 0.078478	 -0.295374	 0.485797	 -1.304898	 -0.497348	 -2.936738	 -0.605371	 0.134372	 -0.750842	 0.227391	 0
1462171899.736	 0	 0.253281	 -0.207070	 0.743046	 -1.305064	 -0.503148	 -2.932548	 -0.605513	 0.135350	 -0.749568	 0.230612	 0
1462171899.745	 0	 0.434739	 -0.136734	 0.942917	 -1.303295	 -0.510467	 -2.925801	 -0.605053	 0.136373	 -0.748366	 0.235079	 0
1462171899.755	 0	 0.566456	 -0.033839	 1.114801	 -1.299521	 -0.519050	 -2.916976	 -0.603952	 0.137509	 -0.747316	 0.240524	 0
1462171899.764	 0	 0.710471	 0.085440	 1.260701	 -1.293577	 -0.528612	 -2.906094	 -0.602163	 0.138695	 -0.746483	 0.246834	 0
1462171899.774	 0	 0.833789	 0.245716	 1.388498	 -1.285105	 -0.539033	 -2.893290	 -0.599559	 0.139996	 -0.745970	 0.253887	 0
1462171899.784	 0	 0.955865	 0.397789	 1.523670	 -1.273933	 -0.550179	 -2.878530	 -0.596092	 0.141409	 -0.745806	 0.261630	 0
1462171899.793	 0	 1.063541	 0.512120	 1.658518	 -1.260458	 -0.562073	 -2.861852	 -0.591919	 0.142944	 -0.745830	 0.270069	 0
1462171899.805	 0	 1.134954	 0.651621	 1.898184	 -1.244657	 -0.575321	 -2.843340	 -0.587022	 0.144913	 -0.745918	 0.279306	 0
1462171899.817	 0	 1.164272	 0.748376	 2.110278	 -1.226456	 -0.590307	 -2.822949	 -0.581390	 0.147517	 -0.745963	 0.289420	 0
1462171899.827	 0	 1.151118	 0.812030	 2.333422	 -1.206466	 -0.606975	 -2.801147	 -0.575248	 0.150837	 -0.745793	 0.300218	 0
1462171899.837	 0	 1.142993	 0.829831	 2.562272	 -1.185038	 -0.625370	 -2.777794	 -0.568768	 0.154843	 -0.745215	 0.311739	 0
1462171899.846	 0	 1.185940	 0.822041	 2.801780	 -1.161912	 -0.645292	 -2.752217	 -0.561949	 0.159353	 -0.744160	 0.324108	 0
1462171899.856	 0	 1.263508	 0.814845	 3.113187	 -1.136482	 -0.666955	 -2.723352	 -0.554700	 0.164315	 -0.742496	 0.337651	 0
1462171899.865	 0	 1.273978	 0.794599	 3.462070	 -1.108516	 -0.690899	 -2.691088	 -0.547018	 0.170043	 -0.740042	 0.352413	 0
1462171899.875	 0	 1.254573	 0.682337	 3.802683	 -1.078519	 -0.717033	 -2.655427	 -0.539186	 0.176500	 -0.736538	 0.368289	 0
1462171899.885	 0	 1.185341	 0.492395	 4.186222	 -1.047019	 -0.745681	 -2.616096	 -0.531538	 0.183722	 -0.731588	 0.385348	 0
1462171899.894	 0	 1.063966	 0.238762	 4.591720	 -1.014327	 -0.777283	 -2.572969	 -0.524344	 0.191859	 -0.724838	 0.403563	 0
1462171899.904	 0	 0.874887	 -0.070585	 4.987034	 -0.980731	 -0.811964	 -2.525975	 -0.517882	 0.200924	 -0.716014	 0.422790	 0
1462171899.913	 0	 0.737241	 -0.401078	 5.348320	 -0.945524	 -0.849196	 -2.474111	 -0.512167	 0.210615	 -0.705048	 0.442984	 0
1462171899.923	 0	 0.665275	 -0.673798	 5.671365	 -0.907038	 -0.888249	 -2.416046	 -0.506940	 0.220700	 -0.692072	 0.464047	 0
1462171899.933	 0	 0.685591	 -0.849806	 5.950228	 -0.862493	 -0.927919	 -2.349646	 -0.501688	 0.230884	 -0.677401	 0.485932	 0
1462171899.942	 0	 0.779832	 -0.936141	 6.203566	 -0.808747	 -0.966884	 -2.272558	 -0.495882	 0.240982	 -0.661361	 0.508557	 0
1462171899.952	 0	 0.903070	 -0.891976	 6.404698	 -0.742904	 -1.003800	 -2.183088	 -0.489065	 0.251050	 -0.644332	 0.531626	 0
1462171899.962	 0	 1.086965	 -0.752403	 6.565521	 -0.661898	 -1.036743	 -2.079194	 -0.480725	 0.261029	 -0.626733	 0.554952	 0
1462171899.971	 0	 1.301094	 -0.522233	 6.693594	 -0.564001	 -1.063826	 -1.959931	 -0.470541	 0.270969	 -0.608846	 0.578337	 0
1462171899.981	 0	 1.530978	 -0.216863	 6.785100	 -0.449366	 -1.083059	 -1.826354	 -0.458243	 0.281000	 -0.590969	 0.601505	 0
1462171899.990	 0	 1.757266	 0.122484	 6.852129	 -0.321080	 -1.092660	 -1.681973	 -0.443743	 0.291182	 -0.573251	 0.624250	 0
1462171900.000	 0	 2.012912	 0.411384	 6.924695	 -0.184807	 -1.091160	 -1.532197	 -0.427033	 0.301403	 -0.555643	 0.646576	 0
1462171900.010	 0	 2.232332	 0.634242	 7.006692	 -0.048254	 -1.078097	 -1.384198	 -0.408306	 0.311542	 -0.537969	 0.668444	 0
1462171900.019	 0	 2.375363	 0.827281	 7.085032	 0.081578	 -1.054431	 -1.244468	 -0.387952	 0.321642	 -0.519960	 0.689697	 0
1462171900.029	 0	 2.444291	 0.984744	 7.179524	 0.200735	 -1.021557	 -1.116859	 -0.366192	 0.331851	 -0.501442	 0.710165	 0
1462171900.038	 0	 2.444715	 1.040440	 7.240988	 0.306604	 -0.981307	 -1.003001	 -0.343584	 0.341972	 -0.482147	 0.729753	 0
1462171900.048	 0	 2.390166	 0.962641	 7.267782	 0.398067	 -0.935425	 -0.902923	 -0.320669	 0.351617	 -0.461948	 0.748426	 0
1462171900.058	 0	 2.292843	 0.746680	 7.257311	 0.475148	 -0.885690	 -0.815190	 -0.298064	 0.360315	 -0.440690	 0.766240	 0
1462171900.067	 0	 2.170437	 0.432905	 7.249669	 0.538899	 -0.833306	 -0.737625	 -0.276110	 0.367692	 -0.418259	 0.783342	 0
1462171900.077	 0	 2.013165	 0.054170	 7.234066	 0.590647	 -0.779420	 -0.667986	 -0.255130	 0.373502	 -0.394575	 0.799822	 0
1462171900.086	 0	 1.903417	 -0.319734	 7.200881	 0.631582	 -0.724424	 -0.604880	 -0.235033	 0.377558	 -0.369805	 0.815753	 0
1462171900.096	 0	 1.802613	 -0.649308	 7.092320	 0.662961	 -0.669071	 -0.547450	 -0.215802	 0.379880	 -0.344309	 0.831007	 0
1462171900.106	 0	 1.702459	 -0.917138	 6.873820	 0.685860	 -0.614471	 -0.495482	 -0.197528	 0.380558	 -0.318708	 0.845330	 0
1462171900.115	 0	 1.664067	 -1.055452	 6.609150	 0.701980	 -0.561130	 -0.448556	 -0.180027	 0.379938	 -0.293498	 0.858543	 0
1462171900.125	 0	 1.711741	 -0.999931	 6.404478	 0.713743	 -0.508415	 -0.406166	 -0.162596	 0.378694	 -0.268956	 0.870526	 0
1462171900.135	 0	 1.763699	 -0.833695	 6.205913	 0.723179	 -0.456128	 -0.367571	 -0.144934	 0.377445	 -0.245144	 0.881155	 0
1462171900.144	 0	 1.791983	 -0.612859	 5.903667	 0.731273	 -0.405033	 -0.332840	 -0.127227	 0.376514	 -0.222462	 0.890259	 0
1462171900.154	 0	 1.880100	 -0.375506	 5.559049	 0.738378	 -0.355433	 -0.302365	 -0.109499	 0.375955	 -0.201313	 0.897854	 0
1462171900.163	 0	 1.929206	 -0.101879	 5.208794	 0.745301	 -0.307440	 -0.275906	 -0.091774	 0.375985	 -0.181785	 0.903973	 0
1462171900.173	 0	 1.925891	 0.193902	 4.865246	 0.752970	 -0.261491	 -0.252721	 -0.074338	 0.376889	 -0.163748	 0.908634	 0
1462171900.183	 0	 1.925365	 0.453076	 4.500179	 0.761550	 -0.217748	 -0.232770	 -0.057294	 0.378654	 -0.147276	 0.911947	 0
1462171900.192	 0	 1.954984	 0.589689	 4.088946	 0.770121	 -0.176308	 -0.216407	 -0.040710	 0.380780	 -0.132572	 0.914207	 0
1462171900.202	 0	 1.924149	 0.683557	 3.665143	 0.778520	 -0.137630	 -0.203333	 -0.024863	 0.383107	 -0.119637	 0.915586	 0
1462171900.211	 0	 1.803230	 0.801741	 3.245775	 0.787193	 -0.102412	 -0.192877	 -0.010171	 0.385781	 -0.108348	 0.916149	 0
1462171900.221	 0	 1.636313	 0.877337	 2.828677	 0.796195	 -0.071013	 -0.184565	 0.003118	 0.388788	 -0.098595	 0.916031	 0
1462171900.231	 0	 1.397832	 0.937243	 2.404318	 0.805456	 -0.043928	 -0.177842	 0.014671	 0.392081	 -0.090253	 0.915375	 0
1462171900.240	 0	 1.144400	 1.026664	 2.006437	 0.815273	 -0.021245	 -0.172328	 0.024399	 0.395787	 -0.083197	 0.914241	 0
1462171900.250	 0	 0.887242	 1.117298	 1.617284	 0.825859	 -0.002992	 -0.167755	 0.032255	 0.399998	 -0.077336	 0.912678	 0
1462171900.259	 0	 0.659415	 1.158676	 1.236166	 0.836926	 0.011116	 -0.164250	 0.038395	 0.404564	 -0.072703	 0.910806	 0
1462171900.269	 0	 0.456252	 1.145949	 0.843175	 0.847947	 0.021092	 -0.161854	 0.042835	 0.409239	 -0.069353	 0.908779	 0
1462171900.279	 0	 0.248282	 1.093268	 0.465942	 0.858558	 0.027043	 -0.160464	 0.045609	 0.413853	 -0.067258	 0.906709	 0
1462171900.288	 0	 0.046488	 1.011214	 0.093341	 0.868468	 0.028975	 -0.160001	 0.046718	 0.418276	 -0.066415	 0.904683	 0
1462171900.298	 0	 -0.152895	 0.902196	 -0.262160	 0.877442	 0.027038	 -0.160280	 0.046202	 0.422400	 -0.066742	 0.902767	 0
1462171900.308	 0	 -0.334988	 0.727361	 -0.613466	 0.884911	 0.021360	 -0.161351	 0.044122	 0.425965	 -0.068266	 0.901081	 0
1462171900.317	 0	 -0.519292	 0.513643	 -0.968897	 0.890410	 0.011934	 -0.163114	 0.040450	 0.428765	 -0.070963	 0.899716	 0
1462171900.327	 0	 -0.685344	 0.275356	 -1.313494	 0.893637	 -0.001122	 -0.165693	 0.035253	 0.430658	 -0.074869	 0.898713	 0
1462171900.336	 0	 -0.815913	 0.065234	 -1.701461	 0.894687	 -0.017862	 -0.169439	 0.028579	 0.431685	 -0.080138	 0.898003	 0
1462171900.346	 0	 -0.890973	 -0.093895	 -2.071779	 0.894008	 -0.037969	 -0.174799	 0.020672	 0.432032	 -0.086872	 0.897426	 0
1462171900.356	 0	 -0.956661	 -0.206977	 -2.426751	 0.891933	 -0.061163	 -0.181860	 0.011676	 0.431852	 -0.095019	 0.896849	 0
1462171900.365	 0	 -1.003254	 -0.256364	 -2.776182	 0.888891	 -0.087257	 -0.190702	 0.001697	 0.431346	 -0.104543	 0.896107	 0
1462171900.375	 0	 -1.083866	 -0.263678	 -3.149851	 0.885265	 -0.116497	 -0.201386	 -0.009356	 0.430715	 -0.115490	 0.895019	 0
1462171900.384	 0	 -1.135705	 -0.202528	 -3.515492	 0.881444	 -0.148788	 -0.214048	 -0.021396	 0.430159	 -0.127871	 0.893395	 0
1462171900.394	 0	 -1.163473	 -0.158701	 -3.844161	 0.877433	 -0.183748	 -0.228745	 -0.034241	 0.429701	 -0.141596	 0.891142	 0
1462171900.404	 0	 -1.163203	 -0.157041	 -4.159744	 0.872545	 -0.220993	 -0.245644	 -0.047736	 0.429068	 -0.156607	 0.888311	 0
1462171900.413	 0	 -1.174007	 -0.202276	 -4.433517	 0.866206	 -0.260344	 -0.264659	 -0.061882	 0.428046	 -0.172749	 0.884932	 0
1462171900.423	 0	 -1.157226	 -0.328089	 -4.620055	 0.857584	 -0.301010	 -0.285622	 -0.076469	 0.426296	 -0.189683	 0.881161	 0
1462171900.433	 0	 -1.148329	 -0.444144	 -4.743081	 0.846348	 -0.342345	 -0.308319	 -0.091336	 0.423704	 -0.207079	 0.877069	 0
1462171900.442	 0	 -1.224399	 -0.509047	 -4.906149	 0.832999	 -0.384870	 -0.332500	 -0.106775	 0.420562	 -0.224850	 0.872450	 0
1462171900.452	 0	 -1.311922	 -0.608516	 -5.131647	 0.817075	 -0.429090	 -0.358601	 -0.123024	 0.416781	 -0.243136	 0.867204	 0
1462171900.461	 0	 -1.411480	 -0.672922	 -5.390265	 0.798192	 -0.475252	 -0.387227	 -0.140179	 0.412342	 -0.262066	 0.861188	 0
1462171900.471	 0	 -1.523141	 -0.650591	 -5.702585	 0.776633	 -0.523680	 -0.419018	 -0.158283	 0.407557	 -0.281803	 0.854067	 0
1462171900.481	 0	 -1.579488	 -0.565400	 -5.980976	 0.752208	 -0.573953	 -0.454913	 -0.177049	 0.402572	 -0.302449	 0.845644	 0
1462171900.490	 0	 -1.532694	 -0.447089	 -6.117891	 0.724832	 -0.624407	 -0.495200	 -0.195757	 0.397494	 -0.323657	 0.836017	 0
1462171900.500	 0	 -1.429587	 -0.271966	 -6.050721	 0.695099	 -0.673144	 -0.539343	 -0.213637	 0.392590	 -0.344849	 0.825416	 0
1462171900.509	 0	 -1.355384	 -0.151473	 -5.842331	 0.663485	 -0.719007	 -0.586025	 -0.230392	 0.387951	 -0.365329	 0.814216	 0
1462171900.519	 0	 -1.373683	 -0.165928	 -5.684591	 0.629104	 -0.762492	 -0.634755	 -0.246530	 0.383253	 -0.384825	 0.802652	 0
1462171900.529	 0	 -1.495792	 -0.278420	 -5.696339	 0.590094	 -0.805251	 -0.686602	 -0.262977	 0.378113	 -0.403591	 0.790562	 0
1462171900.538	 0	 -1.652453	 -0.399432	 -5.925443	 0.543949	 -0.848606	 -0.744452	 -0.280361	 0.372271	 -0.422276	 0.777493	 0
1462171900.548	 0	 -1.707295	 -0.522121	 -6.122770	 0.488510	 -0.891706	 -0.810697	 -0.298479	 0.365514	 -0.441064	 0.763396	 0
1462171900.557	 0	 -1.694490	 -0.540110	 -6.188877	 0.423677	 -0.932588	 -0.886061	 -0.316585	 0.358096	 -0.459755	 0.748442	 0
1462171900.567	 0	 -1.611405	 -0.481687	 -6.131526	 0.350466	 -0.969528	 -0.970056	 -0.334022	 0.350397	 -0.478070	 0.732871	 0
1462171900.577	 0	 -1.476710	 -0.421397	 -5.999864	 0.269602	 -1.001087	 -1.062050	 -0.350351	 0.342495	 -0.495874	 0.716980	 0
1462171900.586	 0	 -1.372759	 -0.407941	 -5.800199	 0.182294	 -1.026784	 -1.160248	 -0.365618	 0.334402	 -0.512873	 0.701042	 0
1462171900.596	 0	 -1.306301	 -0.447589	 -5.592206	 0.090183	 -1.046768	 -1.262390	 -0.380062	 0.326165	 -0.528783	 0.685243	 0
1462171900.606	 0	 -1.311537	 -0.615149	 -5.456016	 -0.006978	 -1.061530	 -1.367856	 -0.394247	 0.317500	 -0.543542	 0.669571	 0
1462171900.615	 0	 -1.407883	 -0.861450	 -5.422078	 -0.110440	 -1.071722	 -1.477220	 -0.408901	 0.308142	 -0.557171	 0.653765	 0
1462171900.625	 0	 -1.585173	 -1.048625	 -5.476577	 -0.220294	 -1.077721	 -1.591095	 -0.424367	 0.298267	 -0.569839	 0.637364	 0
1462171900.634	 0	 -1.734717	 -1.135790	 -5.562473	 -0.334957	 -1.078846	 -1.708958	 -0.440418	 0.288069	 -0.581857	 0.620072	 0
1462171900.644	 0	 -1.812356	 -1.083456	 -5.607508	 -0.450176	 -1.074183	 -1.827726	 -0.456426	 0.277821	 -0.593474	 0.601897	 0
1462171900.654	 0	 -1.803831	 -0.864342	 -5.589103	 -0.560244	 -1.063365	 -1.943118	 -0.471586	 0.267924	 -0.604973	 0.582950	 0
1462171900.663	 0	 -1.717039	 -0.602111	 -5.509756	 -0.660439	 -1.046587	 -2.050915	 -0.485332	 0.258482	 -0.616479	 0.563555	 0
1462171900.673	 0	 -1.548410	 -0.400790	 -5.445125	 -0.748880	 -1.024214	 -2.148750	 -0.497560	 0.249160	 -0.628023	 0.544005	 0
1462171900.682	 0	 -1.378222	 -0.277141	 -5.377589	 -0.825594	 -0.997069	 -2.235806	 -0.508467	 0.239647	 -0.639471	 0.524507	 0
1462171900.692	 0	 -1.295632	 -0.189044	 -5.278922	 -0.891748	 -0.966702	 -2.312940	 -0.518339	 0.230113	 -0.650598	 0.505069	 0
1462171900.702	 0	 -1.273685	 -0.157644	 -5.163149	 -0.949255	 -0.934396	 -2.381668	 -0.527508	 0.220698	 -0.661164	 0.485686	 0
1462171900.711	 0	 -1.331840	 -0.161900	 -5.039893	 -1.000241	 -0.901144	 -2.443952	 -0.536289	 0.211590	 -0.670998	 0.466245	 0
1462171900.721	 0	 -1.417717	 -0.242717	 -4.901146	 -1.046419	 -0.867592	 -2.500975	 -0.544959	 0.202818	 -0.679885	 0.446811	 0
1462171900.730	 0	 -1.500005	 -0.386840	 -4.720835	 -1.089155	 -0.834257	 -2.553364	 -0.553755	 0.194348	 -0.687582	 0.427569	 0
1462171900.740	 0	 -1.552147	 -0.545910	 -4.504799	 -1.129105	 -0.801624	 -2.601388	 -0.562725	 0.186223	 -0.693966	 0.408744	 0
1462171900.750	 0	 -1.512964	 -0.628732	 -4.210144	 -1.165400	 -0.770102	 -2.644304	 -0.571484	 0.178476	 -0.699180	 0.390767	 0
1462171900.759	 0	 -1.392312	 -0.601235	 -3.840192	 -1.196707	 -0.740334	 -2.681417	 -0.579463	 0.171278	 -0.703524	 0.374086	 0
1462171900.769	 0	 -1.236882	 -0.514582	 -3.448672	 -1.222801	 -0.712836	 -2.712885	 -0.586403	 0.164744	 -0.707217	 0.358936	 0
1462171900.779	 0	 -1.025682	 -0.408796	 -3.052261	 -1.243731	 -0.687701	 -2.738819	 -0.592176	 0.158761	 -0.710467	 0.345483	 0
1462171900.788	 0	 -0.808428	 -0.283019	 -2.664370	 -1.259773	 -0.665118	 -2.759595	 -0.596736	 0.153317	 -0.713422	 0.333810	 0
1462171900.798	 0	 -0.596301	 -0.104281	 -2.274655	 -1.271023	 -0.645256	 -2.775748	 -0.599986	 0.148498	 -0.716278	 0.323901	 0
1462171900.807	 0	 -0.363636	 0.033571	 -1.848196	 -1.277916	 -0.628490	 -2.787397	 -0.601997	 0.144320	 -0.718993	 0.315943	 0
1462171900.817	 0	 -0.186382	 0.150872	 -1.467647	 -1.281322	 -0.614749	 -2.795274	 -0.602983	 0.140775	 -0.721540	 0.309797	 0
1462171900.827	 0	 -0.073114	 0.237066	 -1.119408	 -1.282157	 -0.603942	 -2.800455	 -0.603172	 0.137972	 -0.723892	 0.305169	 0
1462171900.836	 0	 -0.005381	 0.255715	 -0.808923	 -1.281438	 -0.595841	 -2.803586	 -0.602878	 0.135847	 -0.725920	 0.301866	 0
1462171900.846	 0	 0.031514	 0.196251	 -0.543832	 -1.280305	 -0.590195	 -2.805341	 -0.602471	 0.134329	 -0.727448	 0.299673	 0
1462171900.855	 0	 0.023696	 0.132879	 -0.305894	 -1.279410	 -0.586777	 -2.806236	 -0.602158	 0.133390	 -0.728407	 0.298390	 0
1462171900.865	 0	 0.004985	 0.099931	 -0.089948	 -1.278576	 -0.585455	 -2.806553	 -0.601860	 0.133090	 -0.728919	 0.297873	 0
1462171900.875	 0	 -0.001377	 0.088028	 0.091367	 -1.277641	 -0.585898	 -2.806449	 -0.601517	 0.133372	 -0.729113	 0.297964	 0
1462171900.884	 0	 0.025308	 0.067908	 0.250064	 -1.276420	 -0.587764	 -2.805498	 -0.601097	 0.134002	 -0.729036	 0.298718	 0
1462171900.894	 0	 0.037445	 0.071162	 0.391684	 -1.274842	 -0.590989	 -2.803877	 -0.600564	 0.135020	 -0.728742	 0.300045	 0
1462171900.903	 0	 0.048407	 0.101369	 0.513712	 -1.272777	 -0.595293	 -2.801750	 -0.599866	 0.136386	 -0.728337	 0.301801	 0
1462171900.913	 0	 0.056190	 0.092519	 0.603042	 -1.270370	 -0.600505	 -2.799141	 -0.599060	 0.138021	 -0.727804	 0.303938	 0
1462171900.923	 0	 0.081298	 0.056548	 0.670877	 -1.267981	 -0.606299	 -2.796076	 -0.598282	 0.139750	 -0.727088	 0.306384	 0
1462171900.932	 0	 0.076071	 0.026268	 0.730227	 -1.265778	 -0.612616	 -2.792746	 -0.597583	 0.141582	 -0.726174	 0.309064	 0
1462171900.942	 0	 0.070824	 0.028856	 0.773769	 -1.263420	 -0.619390	 -2.789164	 -0.596839	 0.143548	 -0.725174	 0.311929	 0
1462171900.952	 0	 0.087225	 0.080986	 0.816478	 -1.260592	 -0.626522	 -2.785368	 -0.595937	 0.145671	 -0.724200	 0.314916	 0
1462171900.961	 0	 0.162837	 0.189953	 0.866940	 -1.256291	 -0.633887	 -2.780675	 -0.594569	 0.147860	 -0.723462	 0.318162	 0
1462171900.971	 0	 0.290067	 0.332462	 0.973408	 -1.249554	 -0.641716	 -2.774209	 -0.592452	 0.150111	 -0.723054	 0.321962	 0
1462171900.980	 0	 0.407323	 0.438723	 1.129247	 -1.240463	 -0.650453	 -2.765703	 -0.589637	 0.152528	 -0.722809	 0.326514	 0
1462171900.990	 0	 0.494102	 0.537864	 1.300075	 -1.229133	 -0.660328	 -2.755244	 -0.586166	 0.155236	 -0.722633	 0.331834	 0
1462171901.000	 0	 0.563781	 0.619381	 1.490684	 -1.215845	 -0.671580	 -2.742972	 -0.582141	 0.158353	 -0.722387	 0.337925	 0
1462171901.009	 0	 0.652496	 0.705964	 1.725981	 -1.200110	 -0.684414	 -2.728426	 -0.577441	 0.161945	 -0.722052	 0.344930	 0
1462171901.019	 0	 0.748362	 0.764517	 1.993254	 -1.181897	 -0.699014	 -2.711170	 -0.572116	 0.166014	 -0.721466	 0.353002	 0
1462171901.028	 0	 0.819321	 0.828060	 2.327801	 -1.160813	 -0.715859	 -2.690799	 -0.566095	 0.170766	 -0.720495	 0.362301	 0
1462171901.038	 0	 0.892976	 0.805776	 2.678830	 -1.137146	 -0.735130	 -2.666955	 -0.559572	 0.176193	 -0.718856	 0.372936	 0
1462171901.048	 0	 0.976598	 0.712968	 3.040252	 -1.111076	 -0.756691	 -2.639003	 -0.552745	 0.182110	 -0.716289	 0.385017	 0
1462171901.057	 0	 1.017707	 0.635196	 3.390864	 -1.082420	 -0.780540	 -2.606898	 -0.545649	 0.188623	 -0.712704	 0.398424	 0
1462171901.067	 0	 1.046965	 0.530171	 3.721369	 -1.050942	 -0.806349	 -2.570318	 -0.538341	 0.195648	 -0.708030	 0.413043	 0
1462171901.077	 0	 1.097677	 0.344913	 4.003710	 -1.016807	 -0.833546	 -2.528835	 -0.531039	 0.202895	 -0.702120	 0.428788	 0
1462171901.086	 0	 1.137781	 0.146468	 4.254903	 -0.979877	 -0.861555	 -2.482056	 -0.523856	 0.210140	 -0.694919	 0.445538	 0
1462171901.096	 0	 1.197458	 -0.014422	 4.470359	 -0.939279	 -0.889814	 -2.429505	 -0.516661	 0.217316	 -0.686548	 0.463127	 0
1462171901.105	 0	 1.292415	 -0.136449	 4.659952	 -0.893798	 -0.917610	 -2.370285	 -0.509252	 0.224294	 -0.677149	 0.481482	 0
1462171901.115	 0	 1.416291	 -0.153736	 4.820676	 -0.841720	 -0.944063	 -2.303488	 -0.501255	 0.231052	 -0.667002	 0.500467	 0
1462171901.125	 0	 1.538567	 -0.135564	 5.006630	 -0.781700	 -0.968672	 -2.228356	 -0.492431	 0.237743	 -0.656200	 0.519992	 0
1462171901.134	 0	 1.634995	 -0.060968	 5.199517	 -0.712690	 -0.990969	 -2.144290	 -0.482625	 0.244558	 -0.644751	 0.539963	 0
1462171901.144	 0	 1.682512	 0.068749	 5.396955	 -0.634005	 -1.010490	 -2.051254	 -0.471721	 0.251787	 -0.632687	 0.560170	 0
1462171901.153	 0	 1.733841	 0.194850	 5.576941	 -0.545765	 -1.026356	 -1.949530	 -0.459710	 0.259457	 -0.620015	 0.580457	 0
1462171901.163	 0	 1.829423	 0.250413	 5.737328	 -0.449014	 -1.037233	 -1.839503	 -0.446654	 0.267219	 -0.606642	 0.600900	 0
1462171901.173	 0	 1.927472	 0.349378	 5.869578	 -0.345765	 -1.042097	 -1.723396	 -0.432535	 0.275017	 -0.592664	 0.621312	 0
1462171901.182	 0	 2.050965	 0.473158	 5.996992	 -0.238193	 -1.039973	 -1.603649	 -0.417171	 0.282831	 -0.578172	 0.641633	 0
1462171901.192	 0	 2.181551	 0.578335	 6.157722	 -0.129047	 -1.030381	 -1.482968	 -0.400489	 0.290690	 -0.563066	 0.661864	 0
1462171901.201	 0	 2.257840	 0.611408	 6.313001	 -0.022212	 -1.013488	 -1.364642	 -0.382772	 0.298494	 -0.547131	 0.681934	 0
1462171901.211	 0	 2.281845	 0.583234	 6.505175	 0.079600	 -0.989759	 -1.250637	 -0.364257	 0.306170	 -0.530042	 0.701878	 0
1462171901.221	 0	 2.252105	 0.434468	 6.654111	 0.173351	 -0.960119	 -1.142944	 -0.345462	 0.313436	 -0.511561	 0.721609	 0
1462171901.230	 0	 2.181876	 0.276722	 6.711209	 0.256845	 -0.925656	 -1.043544	 -0.326766	 0.320048	 -0.491880	 0.740842	 0
1462171901.240	 0	 2.126324	 0.113116	 6.760717	 0.330028	 -0.887152	 -0.952475	 -0.308218	 0.325936	 -0.471101	 0.759494	 0
1462171901.250	 0	 2.085679	 0.054625	 6.855983	 0.394457	 -0.844999	 -0.868778	 -0.289533	 0.331346	 -0.449294	 0.777506	 0
1462171901.259	 0	 1.997950	 -0.008998	 6.917882	 0.451211	 -0.800019	 -0.791482	 -0.270797	 0.336430	 -0.426443	 0.794752	 0
1462171901.269	 0	 1.900350	 -0.194263	 6.922644	 0.499692	 -0.753092	 -0.720415	 -0.252384	 0.340758	 -0.402681	 0.811193	 0
1462171901.278	 0	 1.795377	 -0.455440	 6.837187	 0.539378	 -0.705168	 -0.655274	 -0.234671	 0.343851	 -0.378205	 0.826835	 0
1462171901.288	 0	 1.736769	 -0.738817	 6.742567	 0.570570	 -0.656589	 -0.595521	 -0.217626	 0.345449	 -0.353235	 0.841742	 0
1462171901.298	 0	 1.713174	 -0.967893	 6.644612	 0.594289	 -0.607524	 -0.540457	 -0.201042	 0.345597	 -0.327966	 0.855911	 0
1462171901.307	 0	 1.673791	 -1.099661	 6.491843	 0.612048	 -0.558565	 -0.489501	 -0.184851	 0.344660	 -0.302678	 0.869152	 0
1462171901.317	 0	 1.654279	 -1.189386	 6.266105	 0.624661	 -0.510343	 -0.442667	 -0.169067	 0.342806	 -0.277814	 0.881317	 0
1462171901.326	 0	 1.685419	 -1.187079	 6.034865	 0.633215	 -0.462850	 -0.399822	 -0.153445	 0.340293	 -0.253670	 0.892360	 0
1462171901.336	 0	 1.714761	 -1.088159	 5.818313	 0.639238	 -0.416091	 -0.360404	 -0.137812	 0.337596	 -0.230330	 0.902211	 0
1462171901.346	 0	 1.723087	 -0.889358	 5.588003	 0.644086	 -0.370366	 -0.324094	 -0.122181	 0.335198	 -0.207941	 0.910755	 0
1462171901.355	 0	 1.738578	 -0.697477	 5.376222	 0.648387	 -0.325596	 -0.290487	 -0.106525	 0.333259	 -0.186466	 0.918053	 0
1462171901.365	 0	 1.745866	 -0.537525	 5.146754	 0.652214	 -0.281941	 -0.259370	 -0.090963	 0.331729	 -0.165925	 0.924203	 0
1462171901.374	 0	 1.688787	 -0.479659	 4.827076	 0.654922	 -0.240208	 -0.230838	 -0.075920	 0.330263	 -0.146539	 0.929349	 0
1462171901.384	 0	 1.640250	 -0.528217	 4.420509	 0.655577	 -0.201118	 -0.205421	 -0.061701	 0.328380	 -0.128731	 0.933696	 0
1462171901.394	 0	 1.636643	 -0.600004	 4.030868	 0.654001	 -0.164468	 -0.183223	 -0.048177	 0.325893	 -0.112617	 0.937438	 0
1462171901.403	 0	 1.610447	 -0.570496	 3.668493	 0.651226	 -0.130183	 -0.163757	 -0.035314	 0.323183	 -0.098063	 0.940579	 0
1462171901.413	 0	 1.568043	 -0.438700	 3.297332	 0.648542	 -0.098424	 -0.146878	 -0.023153	 0.320795	 -0.085096	 0.943034	 0
1462171901.423	 0	 1.504388	 -0.259662	 2.969018	 0.646824	 -0.069046	 -0.132315	 -0.011658	 0.319083	 -0.073590	 0.944793	 0
1462171901.432	 0	 1.397017	 -0.110192	 2.653038	 0.646150	 -0.042275	 -0.119612	 -0.001035	 0.318044	 -0.063364	 0.945956	 0
1462171901.442	 0	 1.252641	 -0.020029	 2.291892	 0.646102	 -0.018496	 -0.108792	 0.008503	 0.317455	 -0.054486	 0.946669	 0
1462171901.451	 0	 1.032433	 0.017640	 1.874664	 0.646306	 0.001310	 -0.099905	 0.016477	 0.317131	 -0.047140	 0.947066	 0
1462171901.461	 0	 0.782142	 0.019757	 1.442304	 0.646453	 0.016803	 -0.092873	 0.022701	 0.316904	 -0.041349	 0.947284	 0
1462171901.471	 0	 0.514000	 -0.032447	 0.995798	 0.646177	 0.027701	 -0.087717	 0.027040	 0.316585	 -0.037179	 0.947449	 0
1462171901.480	 0	 0.224388	 -0.135488	 0.530228	 0.645068	 0.033760	 -0.084452	 0.029373	 0.315967	 -0.034686	 0.947681	 0
1462171901.490	 0	 -0.061405	 -0.245670	 0.048413	 0.642923	 0.034815	 -0.083222	 0.029642	 0.314945	 -0.033967	 0.948038	 0
1462171901.499	 0	 -0.298978	 -0.329538	 -0.402306	 0.639957	 0.031265	 -0.084057	 0.028040	 0.313606	 -0.034966	 0.948495	 0
1462171901.509	 0	 -0.502695	 -0.373230	 -0.855260	 0.636548	 0.023490	 -0.087180	 0.024780	 0.312123	 -0.037713	 0.948969	 0
1462171901.519	 0	 -0.662117	 -0.355234	 -1.264301	 0.633165	 0.012022	 -0.092649	 0.020123	 0.310717	 -0.042137	 0.949355	 0
1462171901.528	 0	 -0.825284	 -0.320759	 -1.670667	 0.630057	 -0.003001	 -0.100364	 0.014117	 0.309525	 -0.048157	 0.949566	 0
1462171901.538	 0	 -0.963215	 -0.284794	 -2.044837	 0.627115	 -0.021257	 -0.110270	 0.006902	 0.308516	 -0.055690	 0.949563	 0
1462171901.547	 0	 -1.112895	 -0.277325	 -2.450311	 0.624044	 -0.042815	 -0.122480	 -0.001551	 0.307585	 -0.064792	 0.949311	 0
1462171901.557	 0	 -1.242808	 -0.272330	 -2.891942	 0.620631	 -0.067833	 -0.137400	 -0.011265	 0.306680	 -0.075660	 0.948734	 0
1462171901.567	 0	 -1.321379	 -0.287244	 -3.357648	 0.616439	 -0.096093	 -0.155562	 -0.022081	 0.305652	 -0.088481	 0.947766	 0
1462171901.576	 0	 -1.327454	 -0.285095	 -3.783777	 0.611226	 -0.126930	 -0.177238	 -0.033671	 0.304447	 -0.103240	 0.946319	 0
1462171901.586	 0	 -1.259869	 -0.270533	 -4.161689	 0.604967	 -0.159337	 -0.202569	 -0.045557	 0.303107	 -0.119801	 0.944298	 0
1462171901.596	 0	 -1.176577	 -0.257007	 -4.528509	 0.597342	 -0.192940	 -0.231687	 -0.057586	 0.301560	 -0.138106	 0.941633	 0
1462171901.605	 0	 -1.117149	 -0.255633	 -4.940065	 0.587932	 -0.227935	 -0.264886	 -0.069874	 0.299723	 -0.158234	 0.938214	 0
1462171901.615	 0	 -1.057526	 -0.276687	 -5.361798	 0.576130	 -0.264325	 -0.302519	 -0.082470	 0.297443	 -0.180225	 0.933941	 0
1462171901.624	 0	 -1.028577	 -0.242202	 -5.921957	 0.561632	 -0.302608	 -0.345604	 -0.095558	 0.294795	 -0.204471	 0.928524	 0
1462171901.634	 0	 -1.026793	 -0.202522	 -6.576357	 0.543748	 -0.343382	 -0.395489	 -0.109386	 0.291765	 -0.231445	 0.921597	 0
1462171901.644	 0	 -0.960435	 -0.174716	 -7.101983	 0.521789	 -0.385601	 -0.452226	 -0.123654	 0.288224	 -0.260758	 0.913040	 0
1462171901.653	 0	 -0.833219	 -0.106287	 -7.377743	 0.495856	 -0.427210	 -0.514724	 -0.137693	 0.284227	 -0.291446	 0.902948	 0
1462171901.663	 0	 -0.632836	 0.014451	 -7.428427	 0.466809	 -0.466112	 -0.581576	 -0.150736	 0.280011	 -0.322567	 0.891528	 0
1462171901.672	 0	 -0.433592	 0.114847	 -7.335188	 0.435344	 -0.501103	 -0.651188	 -0.162447	 0.275659	 -0.353302	 0.879091	 0
1462171901.682	 0	 -0.299997	 0.164491	 -7.211087	 0.401350	 -0.532285	 -0.722913	 -0.173071	 0.271031	 -0.383378	 0.865800	 0
1462171901.692	 0	 -0.300915	 0.197975	 -7.122513	 0.365178	 -0.560527	 -0.796117	 -0.183106	 0.266288	 -0.412612	 0.851654	 0
1462171901.701	 0	 -0.446199	 0.171423	 -7.313408	 0.325407	 -0.587751	 -0.872609	 -0.193541	 0.261311	 -0.441660	 0.836179	 0
1462171901.711	 0	 -0.655166	 0.084558	 -7.697207	 0.279747	 -0.615099	 -0.955020	 -0.205170	 0.255777	 -0.471212	 0.818806	 0
1462171901.720	 0	 -0.752116	 0.089271	 -8.014755	 0.228134	 -0.641153	 -1.044192	 -0.217488	 0.249755	 -0.501303	 0.799385	 0
1462171901.730	 0	 -0.699151	 0.219281	 -8.168974	 0.172204	 -0.663455	 -1.139012	 -0.229416	 0.243434	 -0.531517	 0.778202	 0
1462171901.740	 0	 -0.596986	 0.543230	 -8.215795	 0.115076	 -0.680703	 -1.237684	 -0.240016	 0.237480	 -0.561548	 0.755420	 0
1462171901.749	 0	 -0.293859	 0.852245	 -8.164379	 0.058675	 -0.691206	 -1.338558	 -0.248445	 0.231731	 -0.591278	 0.731414	 0
1462171901.759	 0	 0.157232	 0.950968	 -7.961837	 0.003714	 -0.693202	 -1.438697	 -0.254385	 0.225142	 -0.620185	 0.707085	 0
1462171901.769	 0	 0.540758	 0.850394	 -7.564724	 -0.048599	 -0.687143	 -1.534225	 -0.258312	 0.217257	 -0.647412	 0.683324	 0
1462171901.778	 0	 0.685315	 0.557112	 -7.112519	 -0.098288	 -0.675632	 -1.622818	 -0.261519	 0.208171	 -0.672232	 0.660589	 0
1462171901.788	 0	 0.534293	 0.124478	 -6.693837	 -0.146640	 -0.662047	 -1.704519	 -0.265525	 0.198397	 -0.694316	 0.638796	 0
1462171901.797	 0	 0.246577	 -0.455583	 -6.408962	 -0.196239	 -0.648479	 -1.781141	 -0.271609	 0.188084	 -0.713747	 0.617591	 0
1462171901.807	 0	 -0.025928	 -1.094671	 -6.164542	 -0.248811	 -0.634879	 -1.853892	 -0.280204	 0.176949	 -0.730709	 0.596858	 0
1462171901.817	 0	 -0.327599	 -1.688140	 -5.945591	 -0.304402	 -0.621471	 -1.923242	 -0.291317	 0.165263	 -0.745292	 0.576509	 0
1462171901.826	 0	 -0.616878	 -2.158509	 -5.822329	 -0.362809	 -0.608063	 -1.990351	 -0.304687	 0.153303	 -0.757849	 0.556174	 0
1462171901.836	 0	 -0.808727	 -2.507697	 -5.790233	 -0.423305	 -0.593498	 -2.056085	 -0.319683	 0.141042	 -0.768862	 0.535500	 0
1462171901.845	 0	 -0.925751	 -2.690721	 -5.789078	 -0.484528	 -0.576823	 -2.120625	 -0.335584	 0.128546	 -0.778704	 0.514275	 0
1462171901.855	 0	 -0.963038	 -2.636352	 -5.722468	 -0.543612	 -0.557719	 -2.182899	 -0.351301	 0.116234	 -0.787621	 0.492676	 0
1462171901.865	 0	 -0.927919	 -2.442828	 -5.673401	 -0.598544	 -0.535789	 -2.242454	 -0.365978	 0.104249	 -0.795990	 0.470735	 0
1462171901.874	 0	 -0.816673	 -2.175889	 -5.614008	 -0.648265	 -0.510804	 -2.298663	 -0.379159	 0.092457	 -0.804000	 0.448635	 0
1462171901.884	 0	 -0.682949	 -1.846232	 -5.518037	 -0.691738	 -0.483124	 -2.351005	 -0.390450	 0.080941	 -0.811793	 0.426602	 0
1462171901.894	 0	 -0.600573	 -1.565890	 -5.358957	 -0.729303	 -0.453749	 -2.399443	 -0.400036	 0.069837	 -0.819262	 0.404850	 0
1462171901.903	 0	 -0.578859	 -1.389167	 -5.154685	 -0.762054	 -0.423879	 -2.444205	 -0.408393	 0.059304	 -0.826171	 0.383589	 0
1462171901.913	 0	 -0.619798	 -1.329280	 -4.948837	 -0.791560	 -0.394378	 -2.486047	 -0.416126	 0.049435	 -0.832329	 0.362801	 0
1462171901.922	 0	 -0.710293	 -1.358994	 -4.725041	 -0.819132	 -0.365786	 -2.525444	 -0.423722	 0.040245	 -0.837567	 0.342522	 0
1462171901.932	 0	 -0.801827	 -1.445157	 -4.490648	 -0.845682	 -0.338522	 -2.562716	 -0.431508	 0.031781	 -0.841775	 0.322807	 0
1462171901.942	 0	 -0.928038	 -1.584676	 -4.292674	 -0.871942	 -0.312534	 -2.598373	 -0.439701	 0.023990	 -0.844958	 0.303537	 0
1462171901.951	 0	 -1.070449	 -1.709917	 -4.055950	 -0.898237	 -0.288219	 -2.632678	 -0.448401	 0.017047	 -0.847091	 0.284751	 0
1462171901.961	 0	 -1.186830	 -1.792305	 -3.760510	 -0.924217	 -0.265899	 -2.665343	 -0.457421	 0.011070	 -0.848239	 0.266709	 0
1462171901.970	 0	 -1.273295	 -1.850760	 -3.423966	 -0.949648	 -0.245838	 -2.696030	 -0.466612	 0.006102	 -0.848464	 0.249688	 0
1462171901.980	 0	 -1.278835	 -1.885018	 -3.042845	 -0.974317	 -0.228118	 -2.724190	 -0.475821	 0.002031	 -0.847836	 0.234018	 0
1462171901.990	 0	 -1.199043	 -1.851327	 -2.588131	 -0.997618	 -0.212931	 -2.748979	 -0.484737	 -0.001255	 -0.846495	 0.220171	 0
1462171901.999	 0	 -1.044464	 -1.785213	 -2.086238	 -1.019183	 -0.200539	 -2.769617	 -0.493159	 -0.003878	 -0.844550	 0.208601	 0
1462171902.009	 0	 -0.865789	 -1.690677	 -1.575470	 -1.038818	 -0.191017	 -2.785850	 -0.500957	 -0.005944	 -0.842147	 0.199488	 0
1462171902.018	 0	 -0.661682	 -1.586571	 -1.059760	 -1.056524	 -0.184544	 -2.797703	 -0.508104	 -0.007465	 -0.839382	 0.192904	 0
1462171902.028	 0	 -0.489185	 -1.473220	 -0.547522	 -1.072348	 -0.181354	 -2.805415	 -0.514605	 -0.008365	 -0.836332	 0.188838	 0
1462171902.038	 0	 -0.365944	 -1.359325	 -0.102127	 -1.086440	 -0.181379	 -2.809739	 -0.520506	 -0.008560	 -0.833090	 0.186979	 0
1462171902.047	 0	 -0.291813	 -1.286054	 0.282206	 -1.099284	 -0.184344	 -2.811596	 -0.525991	 -0.008019	 -0.829663	 0.186892	 0
1462171902.057	 0	 -0.235355	 -1.228504	 0.610549	 -1.111151	 -0.189991	 -2.811413	 -0.531159	 -0.006797	 -0.826045	 0.188342	 0
1462171902.067	 0	 -0.195497	 -1.161932	 0.885643	 -1.122189	 -0.197916	 -2.809675	 -0.536053	 -0.004975	 -0.822270	 0.191033	 0
1462171902.076	 0	 -0.186054	 -1.037988	 1.132912	 -1.131915	 -0.207991	 -2.806822	 -0.540472	 -0.002458	 -0.818508	 0.194754	 0
1462171902.086	 0	 -0.152249	 -0.848257	 1.337260	 -1.139720	 -0.219877	 -2.802961	 -0.544155	 0.000695	 -0.814951	 0.199371	 0
1462171902.095	 0	 -0.074489	 -0.605510	 1.500818	 -1.145023	 -0.233081	 -2.797854	 -0.546858	 0.004273	 -0.811769	 0.204843	 0
1462171902.105	 0	 0.040617	 -0.319089	 1.666010	 -1.147195	 -0.247250	 -2.791182	 -0.548326	 0.008121	 -0.809119	 0.211186	 0
1462171902.115	 0	 0.167942	 -0.037348	 1.826121	 -1.146098	 -0.262355	 -2.782657	 -0.548524	 0.012187	 -0.806994	 0.218483	 0
1462171902.124	 0	 0.269708	 0.241937	 1.990067	 -1.141659	 -0.278453	 -2.772405	 -0.547444	 0.016574	 -0.805390	 0.226663	 0
1462171902.134	 0	 0.373153	 0.435266	 2.149373	 -1.134477	 -0.295484	 -2.760403	 -0.545347	 0.021223	 -0.804110	 0.235695	 0
1462171902.143	 0	 0.434427	 0.533100	 2.319072	 -1.125439	 -0.313549	 -2.746775	 -0.542612	 0.026144	 -0.802872	 0.245531	 0
1462171902.153	 0	 0.500927	 0.608413	 2.458689	 -1.115006	 -0.332504	 -2.731661	 -0.539434	 0.031291	 -0.801541	 0.256054	 0
1462171902.163	 0	 0.509448	 0.673818	 2.562460	 -1.103268	 -0.352178	 -2.715511	 -0.535855	 0.036729	 -0.800132	 0.267020	 0
1462171902.172	 0	 0.554318	 0.753552	 2.671169	 -1.090046	 -0.372413	 -2.698141	 -0.531818	 0.042393	 -0.798654	 0.278431	 0
1462171902.182	 0	 0.630592	 0.835917	 2.800871	 -1.075073	 -0.393164	 -2.679088	 -0.527245	 0.048214	 -0.797082	 0.290427	 0
1462171902.191	 0	 0.730860	 0.940904	 2.954296	 -1.058021	 -0.414378	 -2.657949	 -0.522043	 0.054152	 -0.795400	 0.303113	 0
1462171902.201	 0	 0.826900	 1.084996	 3.154126	 -1.038231	 -0.436367	 -2.634324	 -0.516014	 0.060392	 -0.793608	 0.316653	 0
1462171902.211	 0	 0.976020	 1.270679	 3.376491	 -1.014847	 -0.459032	 -2.607440	 -0.508885	 0.066912	 -0.791731	 0.331243	 0
1462171902.220	 0	 1.158746	 1.477934	 3.636187	 -0.987152	 -0.482160	 -2.576586	 -0.500451	 0.073669	 -0.789746	 0.347021	 0
1462171902.230	 0	 1.313913	 1.619079	 3.886633	 -0.955237	 -0.505561	 -2.541486	 -0.490822	 0.080639	 -0.787472	 0.363977	 0
1462171902.240	 0	 1.425981	 1.706765	 4.090762	 -0.919788	 -0.528937	 -2.502562	 -0.480313	 0.087812	 -0.784724	 0.381834	 0
1462171902.249	 0	 1.514549	 1.709302	 4.248143	 -0.881469	 -0.551795	 -2.460124	 -0.469207	 0.095044	 -0.781368	 0.400344	 0
1462171902.259	 0	 1.596601	 1.615055	 4.368510	 -0.841282	 -0.573555	 -2.414373	 -0.457892	 0.102026	 -0.777224	 0.419343	 0
1462171902.268	 0	 1.623288	 1.470892	 4.453843	 -0.800078	 -0.594129	 -2.365913	 -0.446699	 0.108744	 -0.772179	 0.438605	 0
1462171902.278	 0	 1.661056	 1.312602	 4.530273	 -0.758102	 -0.613292	 -2.314892	 -0.435712	 0.115114	 -0.766219	 0.458053	 0
1462171902.288	 0	 1.710666	 1.174530	 4.631708	 -0.715162	 -0.630981	 -2.261075	 -0.424875	 0.121137	 -0.759311	 0.477758	 0
1462171902.297	 0	 1.808729	 1.087254	 4.723490	 -0.670520	 -0.646692	 -2.204124	 -0.413866	 0.126755	 -0.751584	 0.497764	 0
1462171902.307	 0	 1.942197	 1.032889	 4.778164	 -0.624064	 -0.659708	 -2.144200	 -0.402506	 0.131806	 -0.743183	 0.517972	 0
1462171902.316	 0	 2.114329	 1.005854	 4.844112	 -0.575541	 -0.669521	 -2.081292	 -0.390565	 0.136241	 -0.734182	 0.538400	 0
1462171902.326	 0	 2.330282	 1.008312	 4.885299	 -0.524925	 -0.675437	 -2.015588	 -0.377806	 0.139942	 -0.724680	 0.559033	 0
1462171902.336	 0	 2.551220	 1.049431	 4.890833	 -0.472600	 -0.676834	 -1.947888	 -0.364059	 0.142850	 -0.714832	 0.579715	 0
1462171902.345	 0	 2.722965	 1.060544	 4.839144	 -0.419779	 -0.673761	 -1.879707	 -0.349493	 0.145048	 -0.704733	 0.600140	 0
1462171902.355	 0	 2.859864	 1.084123	 4.734333	 -0.367682	 -0.666225	 -1.812517	 -0.334248	 0.146527	 -0.694529	 0.620030	 0
1462171902.364	 0	 2.993502	 1.102727	 4.587240	 -0.317203	 -0.654337	 -1.747413	 -0.318392	 0.147285	 -0.684347	 0.639220	 0
1462171902.374	 0	 3.096654	 1.131817	 4.446622	 -0.268851	 -0.638540	 -1.685094	 -0.301989	 0.147451	 -0.674234	 0.657624	 0
1462171902.384	 0	 3.238481	 1.165935	 4.328229	 -0.222740	 -0.618858	 -1.625633	 -0.284923	 0.147001	 -0.664185	 0.675328	 0
1462171902.393	 0	 3.373784	 1.208543	 4.257173	 -0.178859	 -0.595649	 -1.568864	 -0.267178	 0.146035	 -0.654076	 0.692440	 0
1462171902.403	 0	 3.545044	 1.249321	 4.245557	 -0.136889	 -0.568825	 -1.514302	 -0.248544	 0.144566	 -0.643770	 0.709145	 0
1462171902.413	 0	 3.667883	 1.221682	 4.249621	 -0.097402	 -0.538864	 -1.461788	 -0.229284	 0.142537	 -0.633041	 0.725514	 0
1462171902.422	 0	 3.745378	 1.146313	 4.182589	 -0.061374	 -0.506309	 -1.412054	 -0.209768	 0.139822	 -0.621993	 0.741331	 0
1462171902.432	 0	 3.768845	 1.062018	 4.043669	 -0.029220	 -0.471928	 -1.365817	 -0.190298	 0.136493	 -0.610850	 0.756319	 0
1462171902.441	 0	 3.799453	 1.002503	 3.908700	 -0.000693	 -0.436076	 -1.323088	 -0.170890	 0.132623	 -0.599732	 0.770409	 0
1462171902.451	 0	 3.816084	 0.969153	 3.829989	 0.024867	 -0.398979	 -1.283130	 -0.151460	 0.128349	 -0.588510	 0.783736	 0
1462171902.461	 0	 3.852661	 1.026742	 3.784435	 0.048569	 -0.360690	 -1.245319	 -0.131732	 0.123982	 -0.577108	 0.796380	 0
1462171902.470	 0	 3.856975	 1.142130	 3.784380	 0.071348	 -0.321476	 -1.209203	 -0.111578	 0.119884	 -0.565446	 0.808362	 0
1462171902.480	 0	 3.788157	 1.224463	 3.827833	 0.093427	 -0.281955	 -1.174130	 -0.091248	 0.116239	 -0.553289	 0.819777	 0
1462171902.489	 0	 3.639775	 1.104151	 3.908082	 0.113497	 -0.242955	 -1.139439	 -0.071507	 0.112666	 -0.540346	 0.830794	 0
1462171902.499	 0	 3.505892	 0.809469	 3.952883	 0.129622	 -0.204605	 -1.105076	 -0.052931	 0.108327	 -0.526639	 0.841496	 0
1462171902.509	 0	 3.428860	 0.550443	 4.008955	 0.141772	 -0.166666	 -1.070944	 -0.035392	 0.103066	 -0.512269	 0.851883	 0
1462171902.518	 0	 3.425415	 0.429430	 4.052435	 0.151116	 -0.128455	 -1.036997	 -0.018256	 0.097147	 -0.497352	 0.861899	 0
1462171902.528	 0	 3.460093	 0.442893	 4.110800	 0.158974	 -0.089629	 -1.003020	 -0.001024	 0.091025	 -0.481870	 0.871501	 0
1462171902.537	 0	 3.471645	 0.505551	 4.146189	 0.166076	 -0.050251	 -0.969067	 0.016468	 0.085034	 -0.465888	 0.880594	 0
1462171902.547	 0	 3.448162	 0.509229	 4.189833	 0.172070	 -0.010783	 -0.935046	 0.033930	 0.079127	 -0.449417	 0.889164	 0
1462171902.557	 0	 3.421449	 0.374148	 4.261861	 0.175750	 0.028730	 -0.900647	 0.051077	 0.072776	 -0.432397	 0.897289	 0
1462171902.566	 0	 3.242410	 0.147101	 4.433092	 0.176026	 0.067313	 -0.864650	 0.067244	 0.065723	 -0.414439	 0.905207	 0
1462171902.576	 0	 2.889899	 -0.177208	 4.621569	 0.171915	 0.103241	 -0.826170	 0.081501	 0.057889	 -0.395365	 0.913068	 0
1462171902.586	 0	 2.384750	 -0.601146	 4.808527	 0.162277	 0.134686	 -0.784813	 0.092897	 0.049071	 -0.375252	 0.920950	 0
1462171902.595	 0	 1.944923	 -1.145085	 4.955383	 0.146073	 0.161394	 -0.740602	 0.101267	 0.038710	 -0.354273	 0.928836	 0
1462171902.605	 0	 1.736713	 -1.627393	 4.984923	 0.123612	 0.184712	 -0.694752	 0.107488	 0.026493	 -0.332977	 0.936414	 0
1462171902.614	 0	 1.746636	 -1.867692	 4.952537	 0.097021	 0.206526	 -0.648335	 0.112959	 0.012927	 -0.311712	 0.943350	 0
1462171902.624	 0	 1.872014	 -1.787443	 4.884409	 0.069400	 0.228001	 -0.601700	 0.118793	 -0.000769	 -0.290462	 0.949484	 0
1462171902.634	 0	 2.118326	 -1.439851	 4.737711	 0.043674	 0.250271	 -0.555623	 0.125937	 -0.013387	 -0.269422	 0.954658	 0
1462171902.643	 0	 2.395403	 -0.831047	 4.543895	 0.022454	 0.274056	 -0.510766	 0.134970	 -0.023744	 -0.248748	 0.958824	 0
1462171902.653	 0	 2.605069	 -0.164679	 4.384567	 0.006964	 0.299280	 -0.466789	 0.145835	 -0.031130	 -0.228190	 0.962129	 0
1462171902.662	 0	 2.672672	 0.236068	 4.213241	 -0.002278	 0.324359	 -0.424677	 0.157606	 -0.035128	 -0.208161	 0.964674	 0
1462171902.672	 0	 2.541158	 0.479651	 4.100928	 -0.004412	 0.347313	 -0.385113	 0.169175	 -0.035198	 -0.188864	 0.966680	 0
1462171902.682	 0	 2.243464	 0.661239	 3.994983	 -0.013011	 0.369357	 -0.343629	 0.179830	 -0.037695	 -0.169237	 0.968297	 0
1462171902.691	 0	 1.885532	 0.743522	 3.865971	 -0.011023	 0.386830	 -0.306765	 0.189126	 -0.034711	 -0.150978	 0.969656	 0
1462171902.701	 0	 1.528407	 0.715048	 3.720849	 -0.019157	 0.401811	 -0.267355	 0.196516	 -0.035897	 -0.132487	 0.970845	 0
1462171902.711	 0	 1.198672	 0.644011	 3.522957	 -0.027719	 0.413306	 -0.229610	 0.202261	 -0.036977	 -0.114930	 0.971861	 0
1462171902.720	 0	 0.913319	 0.539897	 3.269826	 -0.036634	 0.421685	 -0.194236	 0.206526	 -0.038116	 -0.098617	 0.972712	 0
1462171902.730	 0	 0.698974	 0.442803	 2.951801	 -0.045489	 0.427641	 -0.161910	 0.209648	 -0.039307	 -0.083815	 0.973385	 0
1462171902.739	 0	 0.513746	 0.411591	 2.603256	 -0.053459	 0.431727	 -0.133177	 0.211903	 -0.040295	 -0.070683	 0.973898	 0
1462171902.749	 0	 0.388357	 0.398065	 2.211109	 -0.060004	 0.434481	 -0.108477	 0.213534	 -0.040929	 -0.059370	 0.974271	 0
1462171902.759	 0	 0.290827	 0.428152	 1.805611	 -0.064613	 0.436339	 -0.088062	 0.214732	 -0.041027	 -0.049935	 0.974532	 0
1462171902.768	 0	 0.182920	 0.520830	 1.441823	 -0.066779	 0.437382	 -0.071714	 0.215523	 -0.040340	 -0.042214	 0.974751	 0
1462171902.778	 0	 0.068959	 0.631064	 1.065825	 -0.066187	 0.437544	 -0.059369	 0.215858	 -0.038723	 -0.036135	 0.974987	 0
1462171902.787	 0	 -0.081225	 0.765586	 0.646770	 -0.062573	 0.436691	 -0.051405	 0.215652	 -0.036093	 -0.031851	 0.975283	 0
1462171902.797	 0	 -0.273673	 0.911470	 0.192018	 -0.055455	 0.434407	 -0.048314	 0.214700	 -0.032268	 -0.029551	 0.975699	 0
1462171902.807	 0	 -0.456376	 1.074986	 -0.275023	 -0.044787	 0.430562	 -0.050151	 0.212953	 -0.027223	 -0.029270	 0.976244	 0
1462171902.816	 0	 -0.645076	 1.297087	 -0.783666	 -0.029930	 0.425088	 -0.057301	 0.210418	 -0.020664	 -0.031154	 0.976896	 0
1462171902.826	 0	 -0.829154	 1.568656	 -1.291814	 -0.010424	 0.417742	 -0.069772	 0.207049	 -0.012328	 -0.035200	 0.977619	 0
1462171902.835	 0	 -1.004140	 1.836010	 -1.724258	 0.013443	 0.408452	 -0.086748	 0.202899	 -0.002218	 -0.041097	 0.978334	 0
1462171902.845	 0	 -1.164548	 2.034209	 -2.117740	 0.040685	 0.397127	 -0.107552	 0.198007	 0.009312	 -0.048676	 0.978947	 0
1462171902.855	 0	 -1.354235	 2.168982	 -2.463281	 0.070343	 0.383333	 -0.131503	 0.192234	 0.021937	 -0.057777	 0.979401	 0
1462171902.864	 0	 -1.565892	 2.301369	 -2.796311	 0.101858	 0.366589	 -0.158019	 0.185416	 0.035531	 -0.068255	 0.979643	 0
1462171902.874	 0	 -1.727593	 2.394011	 -3.122553	 0.134803	 0.347025	 -0.186948	 0.177691	 0.049972	 -0.080151	 0.979543	 0
1462171902.884	 0	 -1.878239	 2.431477	 -3.432034	 0.168293	 0.324653	 -0.217894	 0.169106	 0.064940	 -0.093420	 0.979009	 0
1462171902.893	 0	 -2.072878	 2.492366	 -3.726138	 0.202041	 0.299100	 -0.250390	 0.159526	 0.080433	 -0.107937	 0.977973	 0
1462171902.903	 0	 -2.294725	 2.593346	 -3.987380	 0.236117	 0.269933	 -0.283859	 0.148786	 0.096639	 -0.123502	 0.976356	 0
1462171902.912	 0	 -2.518409	 2.642280	 -4.288918	 0.270069	 0.236879	 -0.318169	 0.136786	 0.113445	 -0.140166	 0.974050	 0
1462171902.922	 0	 -2.735556	 2.631084	 -4.610999	 0.303047	 0.199828	 -0.353434	 0.123473	 0.130518	 -0.158096	 0.970940	 0
1462171902.932	 0	 -2.935464	 2.579921	 -4.937314	 0.334424	 0.158784	 -0.389663	 0.108843	 0.147630	 -0.177350	 0.966905	 0
1462171902.941	 0	 -3.116815	 2.529459	 -5.160585	 0.363808	 0.114211	 -0.426071	 0.093049	 0.164657	 -0.197509	 0.961884	 0
1462171902.951	 0	 -3.270059	 2.484556	 -5.263415	 0.391004	 0.066743	 -0.461593	 0.076274	 0.181516	 -0.217961	 0.955891	 0
1462171902.960	 0	 -3.387846	 2.463980	 -5.263039	 0.416170	 0.017196	 -0.495509	 0.058814	 0.198208	 -0.238207	 0.948953	 0
1462171902.970	 0	 -3.506747	 2.404607	 -5.253125	 0.439205	 -0.034153	 -0.527610	 0.040706	 0.214621	 -0.258048	 0.941112	 0
1462171902.980	 0	 -3.706178	 2.263269	 -5.302062	 0.459517	 -0.087819	 -0.558144	 0.021586	 0.230494	 -0.277576	 0.932394	 0
1462171902.989	 0	 -3.936723	 2.021713	 -5.351892	 0.476179	 -0.144226	 -0.587347	 0.001073	 0.245431	 -0.296839	 0.922849	 0
1462171902.999	 0	 -4.237748	 1.791550	 -5.408705	 0.489162	 -0.203662	 -0.615112	 -0.021075	 0.259450	 -0.315660	 0.912469	 0
1462171903.008	 0	 -4.570725	 1.663563	 -5.480441	 0.499242	 -0.266563	 -0.641556	 -0.044999	 0.272958	 -0.333976	 0.901071	 0
1462171903.018	 0	 -4.836400	 1.718289	 -5.565510	 0.507936	 -0.332526	 -0.667227	 -0.070219	 0.286576	 -0.351873	 0.888329	 0
1462171903.028	 0	 -4.947326	 1.967919	 -5.664225	 0.516913	 -0.400396	 -0.692944	 -0.095774	 0.300886	 -0.369552	 0.873914	 0
1462171903.037	 0	 -4.953360	 2.365300	 -5.747008	 0.527477	 -0.469176	 -0.719343	 -0.120804	 0.316310	 -0.387208	 0.857569	 0
1462171903.047	 0	 -4.789424	 2.845411	 -5.714224	 0.540571	 -0.537246	 -0.746479	 -0.144291	 0.332969	 -0.404780	 0.839324	 0
1462171903.057	 0	 -4.525166	 3.223122	 -5.561250	 0.556021	 -0.602933	 -0.773756	 -0.165541	 0.350424	 -0.421915	 0.819626	 0
1462171903.066	 0	 -4.265124	 3.436094	 -5.392585	 0.572550	 -0.665985	 -0.800911	 -0.184725	 0.367997	 -0.438429	 0.798896	 0
1462171903.076	 0	 -4.051039	 3.401446	 -5.254861	 0.587948	 -0.726777	 -0.828160	 -0.202474	 0.384823	 -0.454228	 0.777555	 0
1462171903.085	 0	 -3.863798	 3.216887	 -5.163302	 0.600209	 -0.785815	 -0.856025	 -0.219418	 0.400274	 -0.469274	 0.755923	 0
1462171903.095	 0	 -3.650072	 2.921157	 -4.981095	 0.608346	 -0.842618	 -0.884494	 -0.235673	 0.414006	 -0.483319	 0.734479	 0
1462171903.105	 0	 -3.467327	 2.588145	 -4.708420	 0.612368	 -0.896548	 -0.912863	 -0.251224	 0.425974	 -0.495993	 0.713740	 0
1462171903.114	 0	 -3.330675	 2.223170	 -4.428392	 0.612541	 -0.947850	 -0.940589	 -0.266335	 0.436334	 -0.507104	 0.693919	 0
1462171903.124	 0	 -3.184389	 1.794940	 -4.103103	 0.608526	 -0.996350	 -0.967664	 -0.281126	 0.445031	 -0.516586	 0.675318	 0
1462171903.133	 0	 -3.117128	 1.326123	 -3.610102	 0.602156	 -1.041485	 -0.991437	 -0.295589	 0.452286	 -0.523835	 0.658529	 0
1462171903.143	 0	 -3.230098	 0.813285	 -3.049562	 0.596906	 -1.084100	 -1.007900	 -0.310152	 0.458683	 -0.528216	 0.643742	 0
1462171903.153	 0	 -3.475840	 0.161900	 -2.518384	 0.594889	 -1.125460	 -1.013726	 -0.325607	 0.464327	 -0.529252	 0.631089	 0
1462171903.162	 0	 -3.797580	 -0.430395	 -2.085607	 0.597921	 -1.166800	 -1.007357	 -0.342414	 0.469366	 -0.527046	 0.620219	 0
1462171903.172	 0	 -4.147007	 -0.996018	 -1.698384	 0.609569	 -1.208756	 -0.986020	 -0.360642	 0.474069	 -0.521709	 0.610750	 0
1462171903.181	 0	 -4.482345	 -1.626940	 -1.217486	 0.635393	 -1.250653	 -0.943661	 -0.380197	 0.478339	 -0.512945	 0.602935	 0
1462171903.191	 0	 -4.778725	 -2.157150	 -0.658691	 0.686042	 -1.291081	 -0.870252	 -0.400541	 0.482449	 -0.500581	 0.596849	 0
1462171903.201	 0	 -4.979122	 -2.595361	 -0.147873	 0.773180	 -1.328228	 -0.755309	 -0.421167	 0.486482	 -0.484953	 0.592262	 0
1462171903.210	 0	 -5.037085	 -2.953271	 0.289761	 0.907024	 -1.359341	 -0.589729	 -0.441586	 0.490253	 -0.466675	 0.588955	 0
1462171903.220	 0	 -4.911735	 -3.330955	 0.619413	 1.086963	 -1.380901	 -0.374475	 -0.461379	 0.493181	 -0.446421	 0.587035	 0
1462171903.230	 0	 -4.603647	 -3.823903	 0.818961	 1.290523	 -1.390795	 -0.131289	 -0.480482	 0.494343	 -0.424725	 0.586830	 0
1462171903.239	 0	 -4.263467	 -4.253340	 0.784178	 1.484764	 -1.390711	 0.106773	 -0.499102	 0.493155	 -0.402306	 0.588086	 0
1462171903.249	 0	 -3.856899	 -4.369693	 0.487684	 1.649490	 -1.385317	 0.316899	 -0.517178	 0.489669	 -0.380670	 0.589781	 0
1462171903.258	 0	 -3.324023	 -4.117283	 0.138505	 1.779832	 -1.378398	 0.490710	 -0.533968	 0.484477	 -0.361321	 0.591276	 0
1462171903.268	 0	 -2.752723	 -3.580747	 -0.171856	 1.880932	 -1.372147	 0.630313	 -0.548749	 0.478528	 -0.345200	 0.592219	 0
1462171903.278	 0	 -2.270950	 -2.925569	 -0.453191	 1.963172	 -1.367678	 0.744568	 -0.561444	 0.472598	 -0.332579	 0.592303	 0
1462171903.287	 0	 -1.878054	 -2.310263	 -0.835141	 2.036885	 -1.366142	 0.843923	 -0.572550	 0.466745	 -0.323512	 0.591333	 0
1462171903.297	 0	 -1.551805	 -1.781904	 -1.333221	 2.112442	 -1.368726	 0.939849	 -0.582830	 0.460483	 -0.317982	 0.589197	 0
1462171903.306	 0	 -1.104272	 -1.215248	 -1.824054	 2.193124	 -1.375912	 1.035461	 -0.592104	 0.453713	 -0.316257	 0.586121	 0
1462171903.316	 0	 -0.462317	 -0.558471	 -2.362134	 2.280178	 -1.389012	 1.131267	 -0.599791	 0.446239	 -0.319041	 0.582524	 0
1462171903.326	 0	 0.158604	 0.264246	 -3.089719	 2.391131	 -1.409171	 1.243420	 -0.605827	 0.437973	 -0.327262	 0.577973	 0
1462171903.335	 0	 0.715039	 1.097601	 -3.956030	 2.566869	 -1.435740	 1.412339	 -0.610579	 0.428603	 -0.341423	 0.571772	 0
1462171903.345	 0	 1.318669	 1.626580	 -4.772338	 2.875483	 -1.464194	 1.708477	 -0.614143	 0.417320	 -0.360735	 0.564395	 0
1462171903.355	 0	 1.955861	 1.934272	 -5.412210	 -2.866526	 -1.481892	 2.234173	 -0.616359	 0.403518	 -0.383977	 0.556630	 0
1462171903.364	 0	 2.736250	 2.230049	 -5.596921	 -2.221394	 -1.471210	 2.861140	 -0.616156	 0.387891	 -0.410024	 0.549338	 0
1462171903.374	 0	 3.677840	 2.130462	 -5.088289	 -1.761050	 -1.437756	 -2.979938	 -0.612229	 0.371104	 -0.436618	 0.544814	 0
1462171903.383	 0	 4.208653	 1.382890	 -3.937031	 -1.475279	 -1.398327	 -2.706455	 -0.605426	 0.353944	 -0.459643	 0.544897	 0
1462171903.393	 0	 3.938487	 0.192387	 -2.386302	 -1.296167	 -1.364704	 -2.529186	 -0.598254	 0.338148	 -0.475200	 0.549484	 0
1462171903.403	 0	 3.193407	 -1.367162	 -0.945152	 -1.183870	 -1.342389	 -2.404683	 -0.593498	 0.324099	 -0.481249	 0.557781	 0
1462171903.412	 0	 2.459960	 -2.979769	 -0.122148	 -1.116864	 -1.329589	 -2.310275	 -0.592769	 0.310244	 -0.478659	 0.568559	 0
1462171903.422	 0	 2.124953	 -4.374282	 0.033909	 -1.081293	 -1.320306	 -2.233373	 -0.595988	 0.294149	 -0.470149	 0.580719	 0
1462171903.431	 0	 2.445070	 -4.876641	 -0.171762	 -1.055000	 -1.308666	 -2.158239	 -0.600371	 0.275040	 -0.459746	 0.593752	 0
1462171903.441	 0	 3.446761	 -4.138196	 -0.331826	 -1.008958	 -1.290617	 -2.066589	 -0.601279	 0.254568	 -0.451929	 0.607799	 0
1462171903.451	 0	 4.947240	 -2.387452	 -0.120975	 -0.921011	 -1.264094	 -1.945867	 -0.594262	 0.235628	 -0.449616	 0.623841	 0
1462171903.460	 0	 6.423507	 -0.292419	 0.596822	 -0.790244	 -1.228598	 -1.799699	 -0.577109	 0.221097	 -0.452787	 0.642686	 0
1462171903.470	 0	 7.291027	 1.373357	 1.680965	 -0.635977	 -1.185465	 -1.644979	 -0.551078	 0.212420	 -0.458521	 0.664040	 0
1462171903.479	 0	 7.300487	 2.122026	 2.855482	 -0.481985	 -1.138509	 -1.498111	 -0.520214	 0.209206	 -0.462780	 0.686619	 0
1462171903.489	 0	 6.729334	 1.920973	 3.954628	 -0.342134	 -1.091845	 -1.364001	 -0.488893	 0.209558	 -0.462247	 0.709505	 0
1462171903.499	 0	 5.931118	 1.125978	 4.934381	 -0.220177	 -1.047581	 -1.239737	 -0.459916	 0.211365	 -0.455270	 0.732484	 0
1462171903.508	 0	 5.147099	 0.139555	 5.781594	 -0.114848	 -1.005852	 -1.120981	 -0.434303	 0.213213	 -0.441579	 0.755599	 0
1462171903.518	 0	 4.626910	 -0.856747	 6.337872	 -0.026036	 -0.964517	 -1.007410	 -0.411712	 0.213736	 -0.422301	 0.778763	 0
1462171903.528	 0	 4.521730	 -1.644964	 6.709112	 0.046857	 -0.920324	 -0.899933	 -0.390650	 0.211999	 -0.398955	 0.802050	 0
1462171903.537	 0	 4.731410	 -1.999106	 6.970247	 0.106700	 -0.870463	 -0.799436	 -0.369015	 0.208386	 -0.373087	 0.825354	 0
1462171903.547	 0	 5.034770	 -1.866256	 7.091883	 0.156741	 -0.814191	 -0.707595	 -0.345373	 0.204198	 -0.346250	 0.848017	 0
1462171903.556	 0	 5.316640	 -1.356282	 7.102023	 0.200278	 -0.752417	 -0.625463	 -0.319220	 0.200937	 -0.319657	 0.869220	 0
1462171903.566	 0	 5.586594	 -0.449425	 7.148684	 0.241883	 -0.685624	 -0.552037	 -0.290085	 0.200263	 -0.293813	 0.888493	 0
1462171903.576	 0	 5.701643	 0.722765	 7.397705	 0.286821	 -0.614489	 -0.484632	 -0.257896	 0.204071	 -0.268328	 0.905453	 0
1462171903.585	 0	 5.535296	 1.799026	 7.777598	 0.336696	 -0.540633	 -0.420380	 -0.223777	 0.212844	 -0.241985	 0.919818	 0
1462171903.595	 0	 5.065516	 2.675605	 8.081129	 0.390427	 -0.466565	 -0.358435	 -0.189508	 0.226125	 -0.214261	 0.931153	 0
1462171903.604	 0	 4.498434	 2.897198	 8.189425	 0.442929	 -0.393851	 -0.299230	 -0.156636	 0.241458	 -0.185104	 0.939627	 0
1462171903.614	 0	 3.769691	 2.403955	 7.987873	 0.487173	 -0.325064	 -0.243530	 -0.126969	 0.255319	 -0.155064	 0.945858	 0
1462171903.624	 0	 3.059241	 1.381398	 7.646492	 0.518293	 -0.262060	 -0.191212	 -0.101464	 0.264955	 -0.124810	 0.950751	 0
1462171903.633	 0	 2.524088	 0.133012	 7.395054	 0.534186	 -0.204088	 -0.140747	 -0.079550	 0.268815	 -0.094288	 0.955259	 0
1462171903.643	 0	 2.159198	 -0.802025	 7.239232	 0.537202	 -0.149791	 -0.090887	 -0.060046	 0.267643	 -0.063513	 0.959546	 0
1462171903.652	 0	 1.932274	 -1.263471	 7.030522	 0.532012	 -0.098644	 -0.041655	 -0.042090	 0.263494	 -0.033027	 0.963176	 0
1462171903.662	 0	 1.862676	 -1.385776	 6.711506	 0.522298	 -0.050234	 0.005837	 -0.025016	 0.258038	 -0.003665	 0.965804	 0
1462171903.672	 0	 1.879442	 -1.237008	 6.375016	 0.511134	 -0.003926	 0.050936	 -0.008336	 0.252663	 0.024142	 0.967217	 0
1462171903.681	 0	 1.936491	 -0.864392	 6.035698	 0.501049	 0.040763	 0.093454	 0.008145	 0.248513	 0.050289	 0.967288	 0
1462171903.691	 0	 2.075476	 -0.347748	 5.698720	 0.493876	 0.084466	 0.133063	 0.024613	 0.246400	 0.074706	 0.965971	 0
1462171903.701	 0	 2.269227	 0.217213	 5.325940	 0.490872	 0.127909	 0.169109	 0.041295	 0.246852	 0.097229	 0.963278	 0
1462171903.710	 0	 2.381695	 0.670553	 4.856725	 0.491589	 0.170471	 0.200927	 0.057841	 0.249503	 0.117537	 0.959473	 0
1462171903.720	 0	 2.472867	 1.048296	 4.361975	 0.495639	 0.211594	 0.228237	 0.073932	 0.253990	 0.135509	 0.954809	 0
1462171903.729	 0	 2.570293	 1.397784	 3.861928	 0.503078	 0.251435	 0.250757	 0.089609	 0.260179	 0.151122	 0.949442	 0
1462171903.739	 0	 2.596353	 1.697420	 3.350533	 0.513966	 0.289468	 0.268453	 0.104580	 0.267912	 0.164404	 0.943535	 0
1462171903.749	 0	 2.543074	 1.964058	 2.897590	 0.528166	 0.325177	 0.281894	 0.118527	 0.276979	 0.175656	 0.937219	 0
1462171903.758	 0	 2.415660	 2.127089	 2.502332	 0.545007	 0.358184	 0.291916	 0.131220	 0.286975	 0.185268	 0.930646	 0
1462171903.768	 0	 2.171688	 2.065707	 2.076731	 0.562559	 0.387554	 0.298932	 0.142375	 0.296901	 0.193238	 0.924250	 0
1462171903.777	 0	 1.825266	 1.851884	 1.636379	 0.579172	 0.412140	 0.303501	 0.151588	 0.305945	 0.199567	 0.918473	 0
1462171903.787	 0	 1.434093	 1.542656	 1.223831	 0.593703	 0.431462	 0.306209	 0.158728	 0.313606	 0.204339	 0.913620	 0
1462171903.797	 0	 0.974417	 1.089419	 0.801421	 0.604781	 0.445106	 0.307575	 0.163726	 0.319307	 0.207581	 0.910026	 0
1462171903.806	 0	 0.441161	 0.532193	 0.372078	 0.610930	 0.452289	 0.308271	 0.166312	 0.322435	 0.209323	 0.908053	 0
1462171903.816	 0	 -0.071646	 0.043267	 -0.070320	 0.612419	 0.452960	 0.308264	 0.166468	 0.323136	 0.209530	 0.907727	 0
1462171903.825	 0	 -0.515707	 -0.274830	 -0.546064	 0.610950	 0.447352	 0.307063	 0.164211	 0.322157	 0.208141	 0.908805	 0
1462171903.835	 0	 -0.824582	 -0.375742	 -1.033879	 0.608887	 0.436416	 0.303733	 0.159875	 0.320529	 0.205050	 0.910854	 0
1462171903.845	 0	 -1.006749	 -0.312331	 -1.508184	 0.608208	 0.421133	 0.297563	 0.153814	 0.319151	 0.200203	 0.913456	 0
1462171903.854	 0	 -1.092122	 -0.128477	 -1.999109	 0.610318	 0.402365	 0.287893	 0.146395	 0.318681	 0.193479	 0.916284	 0
1462171903.864	 0	 -1.069669	 0.167594	 -2.513008	 0.616427	 0.380642	 0.274109	 0.137871	 0.319714	 0.184686	 0.919057	 0
1462171903.874	 0	 -0.991206	 0.459165	 -3.037174	 0.626728	 0.356452	 0.255903	 0.128560	 0.322418	 0.173669	 0.921606	 0
1462171903.883	 0	 -0.931926	 0.703530	 -3.565467	 0.640501	 0.329610	 0.233306	 0.118517	 0.326552	 0.160270	 0.923922	 0
1462171903.893	 0	 -0.968467	 0.959041	 -4.121739	 0.657211	 0.299243	 0.207096	 0.107347	 0.331992	 0.144588	 0.925933	 0
1462171903.902	 0	 -1.023950	 1.158966	 -4.705835	 0.676174	 0.264521	 0.177498	 0.094779	 0.338519	 0.126454	 0.927594	 0
1462171903.912	 0	 -1.110624	 1.248165	 -5.276022	 0.695859	 0.225146	 0.144984	 0.080789	 0.345553	 0.105858	 0.928903	 0
1462171903.922	 0	 -1.226526	 1.323186	 -5.831302	 0.715506	 0.180865	 0.110057	 0.065283	 0.352864	 0.082884	 0.929707	 0
1462171903.931	 0	 -1.345658	 1.281711	 -6.375373	 0.733752	 0.131697	 0.073096	 0.048303	 0.359929	 0.057621	 0.929945	 0
1462171903.941	 0	 -1.518671	 1.140889	 -6.953750	 0.749182	 0.077076	 0.034215	 0.029597	 0.366180	 0.030004	 0.929589	 0
1462171903.950	 0	 -1.667644	 0.913869	 -7.595276	 0.760476	 0.016698	 -0.007087	 0.009068	 0.371099	 -0.000192	 0.928549	 0
1462171903.960	 0	 -1.736843	 0.695745	 -8.191136	 0.767017	 -0.048828	 -0.051481	 -0.013003	 0.374524	 -0.032992	 0.926539	 0
1462171903.970	 0	 -1.774878	 0.368945	 -8.676464	 0.767472	 -0.118191	 -0.099084	 -0.036191	 0.375987	 -0.067925	 0.923423	 0
1462171903.979	 0	 -1.972755	 0.029752	 -8.938710	 0.760825	 -0.190609	 -0.148691	 -0.060659	 0.375160	 -0.103890	 0.919120	 0
1462171903.989	 0	 -2.348516	 0.138082	 -8.828833	 0.750724	 -0.264871	 -0.197195	 -0.086486	 0.373728	 -0.138957	 0.912983	 0
1462171903.999	 0	 -2.695599	 0.411662	 -8.470108	 0.740501	 -0.339137	 -0.242677	 -0.112994	 0.373079	 -0.171836	 0.904719	 0
1462171904.008	 0	 -3.054104	 0.728098	 -8.220218	 0.731000	 -0.413556	 -0.285498	 -0.140032	 0.373523	 -0.202671	 0.894313	 0
1462171904.018	 0	 -3.374580	 1.037766	 -8.149511	 0.722061	 -0.489374	 -0.327215	 -0.167788	 0.375054	 -0.232270	 0.881608	 0
1462171904.027	 0	 -3.618521	 1.196788	 -8.134196	 0.712044	 -0.566539	 -0.369418	 -0.196050	 0.377078	 -0.261044	 0.866737	 0
1462171904.037	 0	 -3.871485	 1.138547	 -8.221755	 0.698218	 -0.645455	 -0.413434	 -0.225095	 0.378664	 -0.289086	 0.849927	 0
1462171904.047	 0	 -4.034467	 0.915589	 -8.366161	 0.676868	 -0.725980	 -0.461844	 -0.255002	 0.378795	 -0.316583	 0.831423	 0
1462171904.056	 0	 -4.119890	 0.794065	 -8.540958	 0.645904	 -0.807253	 -0.517618	 -0.285351	 0.377465	 -0.343692	 0.811154	 0
1462171904.066	 0	 -4.155374	 0.989512	 -8.904033	 0.603355	 -0.889048	 -0.586108	 -0.315612	 0.375426	 -0.371348	 0.788381	 0
1462171904.075	 0	 -4.122407	 1.291457	 -9.230303	 0.544762	 -0.970338	 -0.673740	 -0.345259	 0.373067	 -0.400020	 0.762628	 0
1462171904.085	 0	 -4.035555	 1.532191	 -9.004563	 0.467303	 -1.046889	 -0.781933	 -0.373171	 0.370712	 -0.428089	 0.734885	 0
1462171904.095	 0	 -3.975566	 1.624030	 -8.257151	 0.372600	 -1.115154	 -0.906752	 -0.398604	 0.369043	 -0.453338	 0.706687	 0
1462171904.104	 0	 -3.926139	 1.360029	 -7.356854	 0.260016	 -1.173922	 -1.045688	 -0.421892	 0.367743	 -0.474469	 0.679450	 0
1462171904.114	 0	 -3.840029	 0.634743	 -6.652922	 0.121419	 -1.222940	 -1.203041	 -0.444324	 0.365226	 -0.491222	 0.654131	 0
1462171904.123	 0	 -3.763156	 -0.071475	 -6.299133	 -0.053703	 -1.261548	 -1.388813	 -0.466911	 0.360614	 -0.504435	 0.630474	 0
1462171904.133	 0	 -3.629497	 -0.366177	 -6.275555	 -0.270296	 -1.286780	 -1.611926	 -0.489377	 0.354246	 -0.516015	 0.607247	 0
1462171904.143	 0	 -3.462591	 -0.172056	 -6.430917	 -0.515353	 -1.294434	 -1.864357	 -0.510787	 0.346969	 -0.527801	 0.583211	 0
1462171904.152	 0	 -3.258654	 0.404869	 -6.581212	 -0.753366	 -1.282680	 -2.114467	 -0.530038	 0.339755	 -0.540881	 0.557741	 0
1462171904.162	 0	 -3.037514	 1.037734	 -6.642789	 -0.951611	 -1.254053	 -2.331085	 -0.546507	 0.333084	 -0.555566	 0.530784	 0
1462171904.172	 0	 -2.793508	 1.202685	 -6.419876	 -1.099894	 -1.214687	 -2.500229	 -0.560662	 0.326456	 -0.570380	 0.503738	 0
1462171904.181	 0	 -2.625058	 1.083127	 -5.874024	 -1.207509	 -1.172059	 -2.627486	 -0.573212	 0.320070	 -0.583490	 0.478040	 0
1462171904.191	 0	 -2.345863	 0.881855	 -5.301006	 -1.285392	 -1.129912	 -2.722635	 -0.584276	 0.313924	 -0.594590	 0.454462	 0
1462171904.200	 0	 -1.895308	 0.572610	 -4.810743	 -1.341143	 -1.089012	 -2.791882	 -0.594060	 0.307170	 -0.603946	 0.433577	 0
1462171904.210	 0	 -1.424983	 0.458853	 -4.324744	 -1.379370	 -1.050333	 -2.840561	 -0.602319	 0.299844	 -0.612105	 0.415492	 0
1462171904.220	 0	 -0.935498	 0.688848	 -3.853878	 -1.401666	 -1.014626	 -2.873419	 -0.608218	 0.292640	 -0.620165	 0.399785	 0
1462171904.229	 0	 -0.414726	 0.979048	 -3.380054	 -1.409458	 -0.982240	 -2.893060	 -0.611383	 0.285693	 -0.628699	 0.386429	 0
1462171904.239	 0	 -0.046044	 1.174776	 -2.833148	 -1.406959	 -0.954246	 -2.903318	 -0.612182	 0.279423	 -0.637320	 0.375472	 0
1462171904.248	 0	 0.168343	 1.070858	 -2.267482	 -1.399886	 -0.931259	 -2.907915	 -0.611704	 0.273979	 -0.645074	 0.366925	 0
1462171904.258	 0	 0.277875	 0.645840	 -1.768022	 -1.393523	 -0.912978	 -2.909119	 -0.611347	 0.268974	 -0.650944	 0.360805	 0
1462171904.268	 0	 0.236443	 0.143179	 -1.335713	 -1.390991	 -0.898938	 -2.909225	 -0.611901	 0.264421	 -0.654548	 0.356686	 0
1462171904.277	 0	 0.114846	 -0.384535	 -0.894567	 -1.393904	 -0.889182	 -2.909855	 -0.613726	 0.260588	 -0.655701	 0.354247	 0
1462171904.287	 0	 0.020428	 -0.849399	 -0.398228	 -1.401591	 -0.884144	 -2.910583	 -0.616638	 0.257641	 -0.654456	 0.353646	 0
1462171904.296	 0	 -0.005499	 -1.180806	 0.115318	 -1.412289	 -0.884043	 -2.910613	 -0.620137	 0.255718	 -0.651173	 0.354982	 0
1462171904.306	 0	 0.056513	 -1.300050	 0.602066	 -1.423433	 -0.888583	 -2.909058	 -0.623501	 0.254868	 -0.646543	 0.358150	 0
1462171904.316	 0	 0.262764	 -1.244682	 1.036491	 -1.431687	 -0.897187	 -2.903961	 -0.625944	 0.254842	 -0.641353	 0.363201	 0
1462171904.325	 0	 0.655832	 -0.974636	 1.391464	 -1.432931	 -0.908882	 -2.892727	 -0.626593	 0.255240	 -0.636575	 0.370144	 0
1462171904.335	 0	 1.131572	 -0.626774	 1.699621	 -1.424393	 -0.922965	 -2.873291	 -0.624959	 0.255752	 -0.632740	 0.379021	 0
1462171904.345	 0	 1.571194	 -0.294573	 1.976733	 -1.405398	 -0.938883	 -2.845186	 -0.621023	 0.256327	 -0.629918	 0.389655	 0
1462171904.354	 0	 1.850365	 -0.190415	 2.242320	 -1.378564	 -0.956420	 -2.809779	 -0.615534	 0.257006	 -0.627392	 0.401802	 0
1462171904.364	 0	 1.970202	 -0.329481	 2.516101	 -1.347815	 -0.975572	 -2.769116	 -0.609540	 0.257808	 -0.624167	 0.415225	 0
1462171904.373	 0	 1.950770	 -0.632649	 2.823652	 -1.315977	 -0.996723	 -2.724570	 -0.603798	 0.258812	 -0.619424	 0.429835	 0
1462171904.383	 0	 1.856912	 -0.886689	 3.138304	 -1.283879	 -1.020251	 -2.677168	 -0.598496	 0.260342	 -0.612921	 0.445368	 0
1462171904.393	 0	 1.849221	 -0.868347	 3.457862	 -1.247834	 -1.045912	 -2.625172	 -0.592862	 0.262666	 -0.605307	 0.461654	 0
1462171904.402	 0	 1.986906	 -0.564200	 3.814473	 -1.201083	 -1.073268	 -2.564399	 -0.585618	 0.266128	 -0.597512	 0.478756	 0
1462171904.412	 0	 2.235065	 -0.201949	 4.152502	 -1.138253	 -1.101177	 -2.490290	 -0.576117	 0.270628	 -0.589952	 0.496796	 0
1462171904.421	 0	 2.535852	 0.061733	 4.501658	 -1.055869	 -1.128141	 -2.398638	 -0.564320	 0.275809	 -0.582472	 0.515945	 0
1462171904.431	 0	 2.811581	 0.070355	 4.937730	 -0.952213	 -1.153082	 -2.285521	 -0.550680	 0.281301	 -0.574188	 0.536590	 0
1462171904.441	 0	 3.017339	 -0.191589	 5.463266	 -0.826699	 -1.174830	 -2.147748	 -0.535864	 0.286760	 -0.563954	 0.559084	 0
1462171904.450	 0	 3.058728	 -0.632127	 5.981543	 -0.681630	 -1.191971	 -1.985797	 -0.520702	 0.292017	 -0.550840	 0.583241	 0
1462171904.460	 0	 2.981027	 -1.160906	 6.406305	 -0.522024	 -1.202494	 -1.803855	 -0.505840	 0.296792	 -0.534511	 0.608555	 0
1462171904.469	 0	 2.897245	 -1.757432	 6.727259	 -0.355991	 -1.204193	 -1.609441	 -0.491625	 0.300531	 -0.515004	 0.634631	 0
1462171904.479	 0	 2.771345	 -2.274992	 7.097710	 -0.190781	 -1.196360	 -1.410067	 -0.477938	 0.303346	 -0.492248	 0.661247	 0
1462171904.489	 0	 2.688604	 -2.592463	 7.426552	 -0.033492	 -1.178330	 -1.214376	 -0.464224	 0.305563	 -0.466658	 0.688009	 0
1462171904.498	 0	 2.643511	 -2.745466	 7.667466	 0.108158	 -1.150022	 -1.031837	 -0.449988	 0.307361	 -0.438964	 0.714388	 0
1462171904.508	 0	 2.666671	 -2.717913	 7.927325	 0.231129	 -1.111928	 -0.866927	 -0.434621	 0.309074	 -0.409606	 0.740136	 0
1462171904.518	 0	 2.764302	 -2.426564	 8.143599	 0.335812	 -1.064821	 -0.721574	 -0.417423	 0.311389	 -0.379241	 0.764834	 0
1462171904.527	 0	 2.927921	 -1.997864	 8.241698	 0.422619	 -1.009766	 -0.597336	 -0.397993	 0.314608	 -0.348767	 0.788026	 0
1462171904.537	 0	 3.155563	 -1.733702	 8.334026	 0.492469	 -0.947682	 -0.492539	 -0.376315	 0.318240	 -0.318255	 0.809830	 0
1462171904.546	 0	 3.284083	 -1.533743	 8.400087	 0.547856	 -0.880430	 -0.403450	 -0.352894	 0.321959	 -0.287437	 0.830174	 0
1462171904.556	 0	 3.388205	 -1.504814	 8.429688	 0.590784	 -0.809531	 -0.326953	 -0.328174	 0.325339	 -0.256233	 0.849000	 0
1462171904.566	 0	 3.424162	 -1.586097	 8.391380	 0.622183	 -0.736411	 -0.260359	 -0.302693	 0.327647	 -0.224543	 0.866374	 0
1462171904.575	 0	 3.334424	 -1.575763	 8.221714	 0.644831	 -0.663359	 -0.201666	 -0.277127	 0.329157	 -0.192927	 0.881837	 0
1462171904.585	 0	 3.222023	 -1.713677	 8.084157	 0.660004	 -0.591224	 -0.148547	 -0.251843	 0.329586	 -0.161298	 0.895506	 0
1462171904.594	 0	 3.083125	 -2.020850	 8.012056	 0.667674	 -0.520073	 -0.098759	 -0.226995	 0.328259	 -0.129213	 0.907757	 0
1462171904.604	 0	 2.976746	 -2.396892	 8.012379	 0.667941	 -0.449764	 -0.050668	 -0.202509	 0.324777	 -0.096401	 0.918813	 0
1462171904.614	 0	 2.937984	 -2.662014	 8.002341	 0.661851	 -0.380010	 -0.003561	 -0.178048	 0.319389	 -0.063019	 0.928611	 0
1462171904.623	 0	 3.000708	 -2.720560	 7.806338	 0.651049	 -0.311131	 0.041574	 -0.153337	 0.312824	 -0.030084	 0.936869	 0
1462171904.633	 0	 3.088275	 -2.563457	 7.428577	 0.637359	 -0.244022	 0.083331	 -0.128434	 0.305899	 0.001163	 0.943361	 0
1462171904.642	 0	 3.135671	 -2.174172	 6.930439	 0.623355	 -0.179737	 0.121282	 -0.103776	 0.299680	 0.029980	 0.947905	 0
1462171904.652	 0	 3.101320	 -1.614916	 6.376095	 0.611516	 -0.119072	 0.155382	 -0.079891	 0.295172	 0.056025	 0.950448	 0
1462171904.662	 0	 3.050966	 -1.088449	 5.863733	 0.602679	 -0.062086	 0.186012	 -0.057062	 0.292622	 0.079472	 0.951210	 0
1462171904.671	 0	 2.970011	 -0.735638	 5.472715	 0.595844	 -0.008144	 0.213924	 -0.035207	 0.291439	 0.100866	 0.950605	 0
1462171904.681	 0	 2.859874	 -0.536668	 5.168450	 0.589860	 0.043033	 0.240177	 -0.014377	 0.290979	 0.120809	 0.948962	 0
1462171904.691	 0	 2.710868	 -0.445848	 4.921646	 0.583673	 0.091488	 0.265505	 0.005367	 0.290679	 0.139674	 0.946556	 0
1462171904.700	 0	 2.593403	 -0.305556	 4.654079	 0.577553	 0.137470	 0.289806	 0.024123	 0.290636	 0.157445	 0.943483	 0
1462171904.710	 0	 2.524827	 -0.052579	 4.291773	 0.572814	 0.180924	 0.312219	 0.041861	 0.291404	 0.173744	 0.939758	 0
1462171904.719	 0	 2.449698	 0.239753	 3.821814	 0.570519	 0.221358	 0.331649	 0.058369	 0.293343	 0.188082	 0.935504	 0
1462171904.729	 0	 2.347806	 0.550750	 3.344729	 0.571235	 0.258557	 0.347764	 0.073493	 0.296586	 0.200388	 0.930849	 0
1462171904.739	 0	 2.172570	 0.735301	 2.845565	 0.574472	 0.291997	 0.360673	 0.086985	 0.300768	 0.210729	 0.926048	 0
1462171904.748	 0	 1.874732	 0.695389	 2.312360	 0.578410	 0.320554	 0.370606	 0.098474	 0.304898	 0.219064	 0.921602	 0
1462171904.758	 0	 1.455187	 0.486387	 1.751902	 0.581251	 0.343165	 0.377942	 0.107632	 0.308046	 0.225383	 0.918001	 0
1462171904.767	 0	 0.978628	 0.244187	 1.197595	 0.582346	 0.359093	 0.383166	 0.114152	 0.309867	 0.229795	 0.915503	 0
1462171904.777	 0	 0.469793	 0.058623	 0.691259	 0.582038	 0.368172	 0.386762	 0.117873	 0.310521	 0.232529	 0.914118	 0
1462171904.787	 0	 -0.005552	 -0.117023	 0.242014	 0.580507	 0.370923	 0.389154	 0.118966	 0.310142	 0.233865	 0.913765	 0
1462171904.796	 0	 -0.439932	 -0.227692	 -0.201785	 0.578130	 0.367735	 0.390272	 0.117581	 0.308913	 0.233851	 0.914364	 0
1462171904.806	 0	 -0.745530	 -0.274359	 -0.676623	 0.575952	 0.359434	 0.389280	 0.114107	 0.307310	 0.232271	 0.915746	 0
1462171904.816	 0	 -0.917481	 -0.273428	 -1.173999	 0.574696	 0.346815	 0.385154	 0.108979	 0.305667	 0.228784	 0.917796	 0
1462171904.825	 0	 -1.013060	 -0.176957	 -1.701821	 0.575297	 0.330629	 0.377258	 0.102531	 0.304457	 0.223215	 0.920309	 0
1462171904.835	 0	 -1.041543	 0.036639	 -2.186519	 0.578816	 0.311367	 0.365475	 0.094899	 0.304245	 0.215572	 0.923016	 0
1462171904.844	 0	 -0.989027	 0.270884	 -2.629150	 0.585499	 0.289970	 0.349838	 0.086525	 0.305274	 0.205934	 0.925696	 0
1462171904.854	 0	 -0.949774	 0.487393	 -3.074385	 0.594970	 0.266483	 0.330548	 0.077485	 0.307456	 0.194311	 0.928283	 0
1462171904.864	 0	 -0.930979	 0.708358	 -3.545563	 0.606948	 0.240416	 0.307776	 0.067611	 0.310716	 0.180634	 0.930728	 0
1462171904.873	 0	 -0.864632	 0.952912	 -4.047797	 0.621487	 0.211787	 0.281216	 0.057028	 0.315157	 0.164685	 0.932900	 0
1462171904.883	 0	 -0.855971	 1.113432	 -4.579198	 0.637795	 0.179992	 0.250907	 0.045602	 0.320476	 0.146292	 0.934780	 0
1462171904.892	 0	 -0.902453	 1.200081	 -5.016665	 0.654444	 0.144717	 0.217915	 0.033194	 0.326116	 0.125802	 0.936334	 0
1462171904.902	 0	 -1.011541	 1.285688	 -5.380521	 0.670947	 0.105967	 0.183383	 0.019695	 0.331952	 0.103699	 0.937372	 0
1462171904.912	 0	 -1.116860	 1.332508	 -5.737347	 0.686689	 0.063691	 0.147582	 0.005094	 0.337762	 0.080075	 0.937805	 0
1462171904.921	 0	 -1.208762	 1.323036	 -6.068737	 0.700993	 0.018125	 0.110634	 -0.010485	 0.343295	 0.055032	 0.937555	 0
1462171904.931	 0	 -1.271932	 1.242761	 -6.451956	 0.712939	 -0.030756	 0.072088	 -0.026975	 0.348181	 0.028404	 0.936609	 0
1462171904.940	 0	 -1.293442	 1.151890	 -6.869042	 0.721915	 -0.082836	 0.031206	 -0.044239	 0.352220	 -0.000037	 0.934871	 0
1462171904.950	 0	 -1.285145	 1.140508	 -7.404727	 0.727923	 -0.138394	 -0.013033	 -0.062297	 0.355540	 -0.030688	 0.932077	 0
1462171904.960	 0	 -1.224654	 1.222453	 -8.126075	 0.731125	 -0.198135	 -0.062614	 -0.081190	 0.358439	 -0.064429	 0.927781	 0
1462171904.969	 0	 -1.158612	 1.287185	 -8.776808	 0.730645	 -0.261889	 -0.118302	 -0.100802	 0.360782	 -0.101308	 0.921635	 0
1462171904.979	 0	 -1.163797	 1.422994	 -9.097170	 0.726450	 -0.328054	 -0.178243	 -0.120835	 0.362716	 -0.139866	 0.913386	 0
1462171904.989	 0	 -1.122376	 1.689142	 -9.114471	 0.719925	 -0.394288	 -0.240785	 -0.140504	 0.364932	 -0.178721	 0.902852	 0
1462171904.998	 0	 -1.085951	 1.910437	 -8.949566	 0.711222	 -0.458953	 -0.304951	 -0.159267	 0.367490	 -0.216927	 0.890240	 0
1462171905.008	 0	 -1.126611	 1.985050	 -8.642921	 0.699946	 -0.521549	 -0.369398	 -0.177241	 0.370126	 -0.253584	 0.875949	 0
1462171905.017	 0	 -1.184792	 1.767592	 -8.540536	 0.683082	 -0.582504	 -0.435191	 -0.194923	 0.371679	 -0.288757	 0.860511	 0
1462171905.027	 0	 -1.321247	 1.376611	 -8.850847	 0.656254	 -0.644519	 -0.506505	 -0.213660	 0.371050	 -0.323787	 0.843702	 0
1462171905.037	 0	 -1.420472	 1.075626	 -9.300808	 0.616603	 -0.707816	 -0.587189	 -0.233724	 0.368021	 -0.359323	 0.825119	 0
1462171905.046	 0	 -1.445800	 1.152984	 -9.932311	 0.563145	 -0.771588	 -0.682311	 -0.254509	 0.363548	 -0.396311	 0.803738	 0
1462171905.056	 0	 -1.373026	 1.229868	 -10.524552	 0.492592	 -0.833561	 -0.796706	 -0.275382	 0.357777	 -0.434964	 0.779081	 0
1462171905.065	 0	 -1.274501	 1.093665	 -10.742671	 0.401510	 -0.889439	 -0.931030	 -0.295901	 0.350091	 -0.473741	 0.751963	 0
1462171905.075	 0	 -1.225562	 0.882465	 -10.664365	 0.290501	 -0.935623	 -1.082629	 -0.315829	 0.340622	 -0.510996	 0.723265	 0
1462171905.085	 0	 -1.140500	 0.507061	 -10.314608	 0.162590	 -0.969113	 -1.246749	 -0.335004	 0.329377	 -0.545581	 0.693992	 0
1462171905.094	 0	 -1.120798	 0.029581	 -9.656204	 0.025168	 -0.988751	 -1.413883	 -0.353550	 0.316580	 -0.576237	 0.665380	 0
1462171905.104	 0	 -1.244882	 -0.438434	 -8.675168	 -0.110217	 -0.996751	 -1.571872	 -0.371530	 0.303473	 -0.601878	 0.638445	 0
1462171905.113	 0	 -1.453368	 -1.131427	 -7.647606	 -0.238555	 -0.996818	 -1.713846	 -0.389772	 0.290307	 -0.621918	 0.614018	 0
1462171905.123	 0	 -1.696769	 -1.841407	 -7.073565	 -0.363265	 -0.991428	 -1.843323	 -0.409380	 0.276631	 -0.637253	 0.591432	 0
1462171905.133	 0	 -1.919587	 -2.181789	 -7.119501	 -0.488483	 -0.979722	 -1.968988	 -0.430342	 0.262232	 -0.650265	 0.568503	 0
1462171905.142	 0	 -1.975438	 -2.058218	 -7.477013	 -0.611490	 -0.958737	 -2.093422	 -0.451330	 0.247145	 -0.663097	 0.543620	 0
1462171905.152	 0	 -1.943473	 -1.429724	 -7.725306	 -0.723035	 -0.927761	 -2.211986	 -0.470350	 0.232314	 -0.676834	 0.516427	 0
1462171905.162	 0	 -1.850395	 -0.475987	 -7.769212	 -0.814941	 -0.888757	 -2.319616	 -0.485693	 0.218885	 -0.691863	 0.487357	 0
1462171905.171	 0	 -1.513341	 0.353233	 -7.568385	 -0.884160	 -0.843829	 -2.412408	 -0.496628	 0.206640	 -0.707930	 0.457707	 0
1462171905.181	 0	 -0.954204	 0.813782	 -6.986114	 -0.931522	 -0.796089	 -2.486665	 -0.503387	 0.194766	 -0.723870	 0.429743	 0
1462171905.190	 0	 -0.433691	 0.894628	 -6.083327	 -0.961778	 -0.749876	 -2.542297	 -0.507094	 0.183156	 -0.738228	 0.405376	 0
1462171905.200	 0	 -0.127772	 0.728861	 -5.103769	 -0.981490	 -0.708443	 -2.583109	 -0.509223	 0.172241	 -0.750126	 0.385143	 0
1462171905.210	 0	 -0.109504	 0.404565	 -4.221343	 -0.996773	 -0.673431	 -2.614494	 -0.511188	 0.162646	 -0.759264	 0.368446	 0
1462171905.219	 0	 -0.234166	 0.003662	 -3.634721	 -1.012006	 -0.643987	 -2.641039	 -0.514007	 0.154305	 -0.765896	 0.354106	 0
1462171905.229	 0	 -0.421865	 -0.436875	 -3.327764	 -1.029769	 -0.618069	 -2.665913	 -0.518267	 0.146732	 -0.770493	 0.340896	 0
1462171905.238	 0	 -0.636213	 -0.809544	 -3.068420	 -1.050639	 -0.594942	 -2.690378	 -0.524040	 0.139901	 -0.773324	 0.328299	 0
1462171905.248	 0	 -0.833151	 -1.065400	 -2.778121	 -1.073524	 -0.574718	 -2.714252	 -0.530883	 0.134038	 -0.774658	 0.316389	 0
1462171905.258	 0	 -1.008630	 -1.235212	 -2.487027	 -1.097597	 -0.557246	 -2.737599	 -0.538423	 0.129250	 -0.774788	 0.305120	 0
1462171905.267	 0	 -1.108808	 -1.324003	 -2.093576	 -1.121663	 -0.543030	 -2.759625	 -0.546199	 0.125711	 -0.773880	 0.294912	 0
1462171905.277	 0	 -1.147075	 -1.316569	 -1.603755	 -1.144498	 -0.532582	 -2.779352	 -0.553742	 0.123504	 -0.772118	 0.286270	 0
1462171905.286	 0	 -1.126054	 -1.272298	 -1.103905	 -1.165480	 -0.526214	 -2.796498	 -0.560769	 0.122700	 -0.769678	 0.279424	 0
1462171905.296	 0	 -1.043602	 -1.277475	 -0.654582	 -1.184846	 -0.523412	 -2.810694	 -0.567345	 0.122878	 -0.766607	 0.274472	 0
1462171905.306	 0	 -0.925475	 -1.272218	 -0.261243	 -1.202690	 -0.523625	 -2.821955	 -0.573473	 0.123741	 -0.763022	 0.271319	 0
1462171905.315	 0	 -0.824769	 -1.253522	 0.030439	 -1.219331	 -0.526208	 -2.831002	 -0.579215	 0.125141	 -0.759067	 0.269570	 0
1462171905.325	 0	 -0.626781	 -1.175733	 0.282490	 -1.234022	 -0.530453	 -2.837320	 -0.584319	 0.126704	 -0.755016	 0.269199	 0
1462171905.335	 0	 -0.405639	 -1.038035	 0.494050	 -1.246000	 -0.535924	 -2.840593	 -0.588531	 0.128235	 -0.751134	 0.270158	 0
1462171905.344	 0	 -0.212910	 -0.837965	 0.725044	 -1.254770	 -0.542756	 -2.841001	 -0.591664	 0.129886	 -0.747583	 0.272365	 0
1462171905.354	 0	 0.012259	 -0.591722	 0.973754	 -1.259683	 -0.551238	 -2.838319	 -0.593503	 0.131784	 -0.744483	 0.275922	 0
1462171905.363	 0	 0.241617	 -0.274594	 1.261703	 -1.259915	 -0.561548	 -2.832272	 -0.593777	 0.134043	 -0.741996	 0.280895	 0
1462171905.373	 0	 0.509888	 0.057960	 1.538436	 -1.254810	 -0.573702	 -2.822371	 -0.592306	 0.136649	 -0.740207	 0.287392	 0
1462171905.383	 0	 0.794868	 0.307828	 1.754578	 -1.244650	 -0.587036	 -2.808283	 -0.589261	 0.139261	 -0.739022	 0.295337	 0
1462171905.392	 0	 1.045101	 0.468011	 1.962500	 -1.230361	 -0.601282	 -2.790199	 -0.585008	 0.141769	 -0.738158	 0.304615	 0
1462171905.402	 0	 1.274633	 0.548335	 2.219390	 -1.212680	 -0.616694	 -2.768227	 -0.579839	 0.144273	 -0.737280	 0.315262	 0
1462171905.411	 0	 1.456973	 0.510954	 2.517529	 -1.192284	 -0.633675	 -2.742105	 -0.574057	 0.146837	 -0.735976	 0.327470	 0
1462171905.421	 0	 1.535231	 0.376561	 2.818903	 -1.170717	 -0.652479	 -2.712695	 -0.568215	 0.149633	 -0.733783	 0.341034	 0
1462171905.431	 0	 1.548979	 0.218462	 3.145202	 -1.148397	 -0.673562	 -2.680487	 -0.562487	 0.152966	 -0.730476	 0.355829	 0
1462171905.440	 0	 1.559513	 0.078823	 3.410828	 -1.125203	 -0.696447	 -2.645503	 -0.556892	 0.156709	 -0.726082	 0.371642	 0
1462171905.450	 0	 1.623018	 0.034827	 3.682159	 -1.099799	 -0.720765	 -2.607081	 -0.551066	 0.160827	 -0.720819	 0.388434	 0
1462171905.460	 0	 1.703303	 0.021580	 3.963669	 -1.070947	 -0.746302	 -2.564328	 -0.544722	 0.165312	 -0.714769	 0.406270	 0
1462171905.469	 0	 1.813408	 0.067532	 4.277955	 -1.037387	 -0.772909	 -2.516289	 -0.537606	 0.170225	 -0.707950	 0.425217	 0
1462171905.479	 0	 2.005028	 0.137278	 4.568471	 -0.997468	 -0.799839	 -2.461570	 -0.529378	 0.175413	 -0.700477	 0.445332	 0
1462171905.488	 0	 2.286521	 0.186372	 4.876959	 -0.949747	 -0.826014	 -2.398256	 -0.519824	 0.180493	 -0.692308	 0.466813	 0
1462171905.498	 0	 2.559887	 0.163591	 5.181007	 -0.893920	 -0.850627	 -2.325384	 -0.509050	 0.185262	 -0.683189	 0.489693	 0
1462171905.508	 0	 2.810943	 0.144523	 5.533665	 -0.829272	 -0.873157	 -2.242171	 -0.497008	 0.189833	 -0.672899	 0.513958	 0
1462171905.517	 0	 3.028389	 0.137912	 5.830708	 -0.755842	 -0.892518	 -2.148834	 -0.483722	 0.194206	 -0.661383	 0.539323	 0
1462171905.527	 0	 3.230257	 0.187398	 6.071261	 -0.673932	 -0.907348	 -2.046378	 -0.469076	 0.198415	 -0.648807	 0.565375	 0
1462171905.536	 0	 3.436297	 0.357062	 6.325477	 -0.583340	 -0.916449	 -1.935610	 -0.452677	 0.202705	 -0.635341	 0.591892	 0
1462171905.546	 0	 3.611260	 0.547005	 6.649642	 -0.484591	 -0.919027	 -1.817434	 -0.434296	 0.207388	 -0.620834	 0.618823	 0
1462171905.556	 0	 3.743838	 0.601703	 7.031003	 -0.380362	 -0.914461	 -1.693399	 -0.414240	 0.212373	 -0.604747	 0.646208	 0
1462171905.565	 0	 3.700691	 0.467483	 7.459723	 -0.274759	 -0.903351	 -1.565758	 -0.393401	 0.217610	 -0.586239	 0.673948	 0
1462171905.575	 0	 3.590297	 0.246728	 7.841904	 -0.171515	 -0.885889	 -1.437255	 -0.372375	 0.222884	 -0.564998	 0.701738	 0
1462171905.584	 0	 3.458164	 -0.079494	 8.124928	 -0.074609	 -0.862021	 -1.311015	 -0.351622	 0.227629	 -0.541076	 0.729235	 0
1462171905.594	 0	 3.273519	 -0.434790	 8.312239	 0.013181	 -0.832516	 -1.189535	 -0.331523	 0.231546	 -0.514666	 0.756041	 0
1462171905.604	 0	 3.129292	 -0.746694	 8.438918	 0.090749	 -0.797881	 -1.074105	 -0.312030	 0.234438	 -0.486085	 0.781919	 0
1462171905.613	 0	 2.983494	 -0.991478	 8.570035	 0.158576	 -0.758888	 -0.964820	 -0.292972	 0.236471	 -0.455553	 0.806672	 0
1462171905.623	 0	 2.894890	 -1.311136	 8.733629	 0.216637	 -0.715702	 -0.861018	 -0.274178	 0.237339	 -0.423016	 0.830394	 0
1462171905.633	 0	 2.782471	 -1.591353	 8.818233	 0.264770	 -0.669219	 -0.762659	 -0.255745	 0.236869	 -0.388674	 0.852889	 0
1462171905.642	 0	 2.699479	 -1.693255	 8.774096	 0.304171	 -0.620387	 -0.670318	 -0.237478	 0.235484	 -0.353277	 0.873697	 0
1462171905.652	 0	 2.595891	 -1.622812	 8.627494	 0.336457	 -0.570220	 -0.584384	 -0.219256	 0.233741	 -0.317619	 0.892418	 0
1462171905.661	 0	 2.460306	 -1.304665	 8.390458	 0.364342	 -0.519803	 -0.504809	 -0.201002	 0.232649	 -0.282434	 0.908683	 0
1462171905.671	 0	 2.380311	 -0.934408	 8.161144	 0.389518	 -0.469295	 -0.431079	 -0.182569	 0.232657	 -0.248036	 0.922506	 0
1462171905.681	 0	 2.342613	 -0.737444	 8.055299	 0.411837	 -0.418222	 -0.361780	 -0.163906	 0.233307	 -0.214021	 0.934290	 0
1462171905.690	 0	 2.298790	 -0.749338	 8.070304	 0.430302	 -0.366300	 -0.295040	 -0.145140	 0.233797	 -0.179656	 0.944456	 0
1462171905.700	 0	 2.287749	 -0.878055	 8.011855	 0.443675	 -0.313691	 -0.230661	 -0.126355	 0.233412	 -0.145017	 0.953165	 0
1462171905.709	 0	 2.290443	 -1.020704	 7.776755	 0.451463	 -0.261167	 -0.169732	 -0.107642	 0.231872	 -0.110949	 0.960385	 0
1462171905.719	 0	 2.250301	 -1.030424	 7.361854	 0.454683	 -0.210140	 -0.113054	 -0.089351	 0.229560	 -0.078340	 0.966013	 0
1462171905.729	 0	 2.205673	 -0.859724	 6.803491	 0.455453	 -0.161654	 -0.061577	 -0.071690	 0.227341	 -0.048110	 0.969980	 0
1462171905.738	 0	 2.155401	 -0.661523	 6.321238	 0.455079	 -0.115756	 -0.014782	 -0.054689	 0.225614	 -0.020237	 0.972470	 0
1462171905.748	 0	 2.101779	 -0.372355	 5.895868	 0.454815	 -0.072144	 0.028280	 -0.038318	 0.224787	 0.005637	 0.973638	 0
1462171905.757	 0	 1.997391	 -0.058978	 5.425033	 0.455571	 -0.031271	 0.067668	 -0.022860	 0.225149	 0.029421	 0.973612	 0
1462171905.767	 0	 1.964170	 0.102903	 4.958467	 0.456749	 0.007169	 0.103082	 -0.008177	 0.226272	 0.050991	 0.972694	 0
1462171905.777	 0	 1.890265	 0.069354	 4.522352	 0.456786	 0.043306	 0.134908	 0.005784	 0.227266	 0.070528	 0.971258	 0
