% Gyrometer data recorded with 'snsrlog'
% 
% 
% Label description:
% 	 0: Default Label
% 	 1: still_drop
% 	 2: walk_drop
% 	 3: other
% 	 4: dtw_same
% 	 5: dtw_diff
% 	 6: delete
% 
% Column description:
% 	 1: Seconds.milliseconds since 1970
% 	 2: Number of skipped measurements
% 	 3: Gyro X
% 	 4: Gyro Y
% 	 5: Gyro Z
% 	 6: Roll of the device
% 	 7: Pitch of the device
% 	 8: Yaw of the device
% 	 9: Quaternion X
% 	 10: Quaternion Y
% 	 11: Quaternion Z
% 	 12: Quaternion W
% 	 13: Label used for the current sample
% 
% 
1461599043.344	 0	 -0.819339	 1.514845	 -0.439765	 0.535542	 1.009914	 -0.151747	 0.482740	 0.195532	 0.063652	 0.851280	 0
1461599043.354	 0	 -1.076963	 2.149269	 -0.766268	 0.556075	 0.997756	 -0.152672	 0.477107	 0.205229	 0.066540	 0.851952	 0
1461599043.364	 0	 -1.287515	 2.935616	 -1.244171	 0.587480	 0.981272	 -0.157521	 0.469700	 0.219102	 0.069577	 0.852370	 0
1461599043.374	 0	 -1.317168	 3.694125	 -1.820892	 0.631567	 0.960812	 -0.168445	 0.460899	 0.237478	 0.072102	 0.852043	 0
1461599043.384	 0	 -1.153139	 4.453022	 -2.266076	 0.687830	 0.938004	 -0.185227	 0.451520	 0.260125	 0.074085	 0.850280	 0
1461599043.394	 0	 -0.898834	 5.097864	 -2.415759	 0.752920	 0.914920	 -0.204622	 0.442280	 0.286155	 0.076308	 0.846570	 0
1461599043.404	 0	 -0.582525	 5.322150	 -2.306653	 0.820940	 0.893616	 -0.223830	 0.433909	 0.313368	 0.078991	 0.841002	 0
1461599043.414	 0	 -0.268564	 5.163445	 -2.064672	 0.887050	 0.875305	 -0.241804	 0.426892	 0.339674	 0.081872	 0.834076	 0
1461599043.424	 0	 -0.004965	 4.748442	 -1.838493	 0.948631	 0.859876	 -0.258739	 0.421262	 0.363857	 0.084458	 0.826446	 0
1461599043.434	 0	 0.236977	 4.134863	 -1.723746	 1.004419	 0.846424	 -0.275787	 0.416892	 0.385247	 0.085961	 0.818778	 0
1461599043.444	 0	 0.481513	 3.538097	 -1.782585	 1.055331	 0.833507	 -0.294722	 0.413548	 0.404079	 0.085613	 0.811399	 0
1461599043.454	 0	 0.728227	 3.050018	 -1.959797	 1.103144	 0.819796	 -0.316703	 0.410959	 0.421081	 0.083040	 0.804306	 0
1461599043.464	 0	 0.962276	 2.607576	 -2.155658	 1.148538	 0.804656	 -0.341744	 0.408958	 0.436665	 0.078241	 0.797468	 0
1461599043.474	 0	 1.173722	 2.117398	 -2.343239	 1.190675	 0.787891	 -0.369323	 0.407477	 0.450677	 0.071210	 0.791064	 0
1461599043.484	 0	 1.245326	 1.626497	 -2.540268	 1.228339	 0.768976	 -0.398043	 0.406106	 0.463055	 0.062105	 0.785367	 0
1461599043.494	 0	 1.104222	 1.682366	 -2.666411	 1.262871	 0.747597	 -0.424655	 0.403934	 0.475087	 0.052356	 0.779992	 0
1461599043.504	 0	 0.893923	 2.093771	 -2.634108	 1.297804	 0.724901	 -0.447115	 0.400742	 0.488359	 0.043774	 0.773948	 0
1461599043.514	 0	 0.815938	 2.687016	 -2.553305	 1.335545	 0.702102	 -0.466200	 0.397034	 0.503373	 0.036872	 0.766564	 0
1461599043.524	 0	 0.939972	 3.432108	 -2.571964	 1.379664	 0.679008	 -0.484602	 0.393353	 0.520918	 0.031233	 0.756929	 0
1461599043.534	 0	 1.195247	 4.093641	 -2.766263	 1.431422	 0.654181	 -0.504443	 0.389848	 0.541200	 0.025808	 0.744617	 0
1461599043.544	 0	 1.344764	 4.368633	 -3.065551	 1.486911	 0.625944	 -0.524956	 0.385974	 0.563092	 0.019522	 0.730459	 0
1461599043.554	 0	 1.238525	 4.199327	 -3.281485	 1.539872	 0.594373	 -0.542836	 0.380983	 0.584845	 0.012330	 0.716000	 0
1461599043.564	 0	 0.836517	 3.689105	 -3.401032	 1.584566	 0.560726	 -0.554556	 0.374167	 0.604838	 0.004758	 0.702956	 0
1461599043.574	 0	 0.228260	 3.028175	 -3.412544	 1.618314	 0.526489	 -0.557823	 0.365016	 0.622332	 -0.002407	 0.692431	 0
1461599043.594	 1	 -0.645725	 1.737062	 -3.750532	 1.654940	 0.455972	 -0.543392	 0.339808	 0.649815	 -0.016621	 0.679702	 0
1461599043.604	 1	 -0.635649	 1.442090	 -4.088014	 1.665106	 0.416726	 -0.532228	 0.324623	 0.661570	 -0.025540	 0.675494	 0
1461599043.614	 1	 -0.346067	 1.531736	 -4.368931	 1.676355	 0.374319	 -0.522921	 0.309030	 0.673449	 -0.036238	 0.670562	 0
1461599043.624	 1	 0.059041	 2.077789	 -4.586924	 1.693457	 0.329273	 -0.516950	 0.293853	 0.686688	 -0.048337	 0.663154	 0
1461599043.634	 1	 0.502675	 2.710221	 -4.611546	 1.718201	 0.282987	 -0.514574	 0.279836	 0.701574	 -0.061256	 0.652482	 0
1461599043.654	 2	 0.900506	 3.872840	 -4.437932	 1.787880	 0.191430	 -0.514135	 0.255181	 0.735260	 -0.086465	 0.621932	 0
1461599043.664	 2	 1.021916	 4.022657	 -4.409885	 1.827772	 0.146271	 -0.513370	 0.243663	 0.752562	 -0.098653	 0.603777	 0
1461599043.674	 2	 1.224651	 3.672095	 -4.268903	 1.865819	 0.101517	 -0.512827	 0.232705	 0.768427	 -0.111405	 0.585625	 0
1461599043.684	 2	 1.482297	 2.809056	 -3.933871	 1.896276	 0.058876	 -0.514019	 0.222998	 0.780946	 -0.125054	 0.569875	 0
1461599043.694	 2	 1.643708	 1.977590	 -3.684033	 1.918162	 0.018282	 -0.516863	 0.214288	 0.790103	 -0.139523	 0.557092	 0
1461599043.704	 2	 1.706872	 1.164214	 -3.472605	 1.931802	 -0.020674	 -0.520541	 0.205988	 0.796328	 -0.154553	 0.547306	 0
1461599043.714	 2	 1.596139	 0.579041	 -3.250078	 1.938690	 -0.057395	 -0.524031	 0.197803	 0.800252	 -0.169359	 0.540174	 0
1461599043.724	 2	 1.362368	 0.363442	 -3.008121	 1.942510	 -0.091162	 -0.526205	 0.189669	 0.803043	 -0.182924	 0.534497	 0
1461599043.734	 2	 1.102124	 0.372731	 -2.712684	 1.945983	 -0.121408	 -0.526895	 0.181885	 0.805476	 -0.194712	 0.529351	 0
1461599043.744	 2	 0.916199	 0.677079	 -2.326690	 1.951763	 -0.147477	 -0.526756	 0.175165	 0.808213	 -0.204421	 0.523757	 0
1461599043.754	 2	 0.988378	 1.135236	 -1.893553	 1.961821	 -0.169624	 -0.528139	 0.170634	 0.811614	 -0.212624	 0.516680	 0
1461599043.764	 2	 1.172202	 1.525892	 -1.483332	 1.975352	 -0.188574	 -0.532388	 0.168600	 0.815408	 -0.220028	 0.508204	 0
1461599043.774	 2	 1.413091	 1.813077	 -1.091622	 1.991368	 -0.204855	 -0.540175	 0.169120	 0.819311	 -0.227058	 0.498570	 0
1461599043.784	 2	 1.640778	 1.868816	 -0.793606	 2.007676	 -0.219307	 -0.551281	 0.171647	 0.822817	 -0.234119	 0.488567	 0
1461599043.794	 2	 1.787457	 1.797547	 -0.588789	 2.022878	 -0.232580	 -0.564742	 0.175443	 0.825687	 -0.241306	 0.478783	 0
1461599043.804	 2	 1.845690	 1.601458	 -0.471755	 2.035972	 -0.245185	 -0.579440	 0.179773	 0.827806	 -0.248616	 0.469689	 0
1461599043.814	 2	 1.761685	 1.344071	 -0.358316	 2.046411	 -0.256770	 -0.594113	 0.184112	 0.829180	 -0.255662	 0.461736	 0
1461599043.824	 2	 1.552885	 1.075565	 -0.215119	 2.054325	 -0.266430	 -0.607703	 0.188240	 0.829950	 -0.261854	 0.455171	 0
1461599043.834	 2	 1.296840	 0.771875	 -0.102745	 2.059692	 -0.273909	 -0.619561	 0.191918	 0.830204	 -0.266975	 0.450169	 0
1461599043.844	 2	 1.081269	 0.482685	 -0.027890	 2.062393	 -0.279656	 -0.629718	 0.194999	 0.829954	 -0.271251	 0.446738	 0
1461599043.854	 2	 0.980067	 0.416873	 0.096007	 2.063909	 -0.283833	 -0.639149	 0.198032	 0.829457	 -0.274842	 0.444125	 0
1461599043.864	 2	 1.069294	 0.624306	 0.282603	 2.066485	 -0.286694	 -0.649782	 0.202052	 0.829027	 -0.278058	 0.441103	 0
1461599043.874	 2	 1.355822	 1.004753	 0.499998	 2.071570	 -0.288870	 -0.663651	 0.207948	 0.828772	 -0.281430	 0.436682	 0
1461599043.884	 2	 1.757953	 1.447711	 0.730824	 2.079629	 -0.290987	 -0.682161	 0.216214	 0.828608	 -0.285414	 0.430348	 0
1461599043.894	 2	 2.116147	 1.841956	 0.973302	 2.090481	 -0.293057	 -0.705322	 0.226840	 0.828409	 -0.289954	 0.422149	 0
1461599043.904	 2	 2.344325	 2.035671	 1.231032	 2.102710	 -0.294497	 -0.732204	 0.239394	 0.827868	 -0.294700	 0.412890	 0
1461599043.914	 2	 2.277952	 2.025825	 1.459591	 2.114875	 -0.294258	 -0.760477	 0.252955	 0.826864	 -0.298882	 0.403707	 0
1461599043.924	 2	 2.030950	 1.793676	 1.614117	 2.125637	 -0.291761	 -0.787814	 0.266483	 0.825384	 -0.301983	 0.395644	 0
1461599043.934	 2	 1.621894	 1.407447	 1.722793	 2.133669	 -0.286573	 -0.812536	 0.279164	 0.823405	 -0.303743	 0.389630	 0
1461599043.944	 2	 1.078072	 0.956736	 1.832041	 2.138582	 -0.277875	 -0.833321	 0.290571	 0.821059	 -0.303735	 0.386233	 0
1461599043.954	 2	 0.458756	 0.579506	 1.923447	 2.140946	 -0.265184	 -0.849365	 0.300569	 0.818599	 -0.301615	 0.385464	 0
1461599043.964	 2	 -0.090490	 0.372070	 1.990245	 2.142167	 -0.248732	 -0.860686	 0.309321	 0.816328	 -0.297309	 0.386699	 0
1461599043.974	 2	 -0.320699	 0.385941	 2.049930	 2.143771	 -0.230096	 -0.869550	 0.317603	 0.814280	 -0.291625	 0.388628	 0
1461599043.984	 2	 -0.295712	 0.649067	 2.117172	 2.147437	 -0.210789	 -0.878570	 0.326347	 0.812447	 -0.285368	 0.389863	 0
1461599043.994	 2	 -0.112292	 1.019128	 2.180833	 2.154593	 -0.191769	 -0.889242	 0.336112	 0.810910	 -0.278931	 0.389425	 0
1461599044.004	 2	 0.158668	 1.374228	 2.270236	 2.165011	 -0.173559	 -0.902694	 0.347168	 0.809443	 -0.272726	 0.387166	 0
1461599044.014	 2	 0.403180	 1.675164	 2.213356	 2.178498	 -0.157028	 -0.918454	 0.359075	 0.808111	 -0.266973	 0.383075	 0
1461599044.024	 2	 0.546994	 1.886235	 1.897537	 2.194485	 -0.143834	 -0.934313	 0.370495	 0.807301	 -0.261947	 0.377336	 0
1461599044.034	 2	 0.557176	 2.032946	 1.599334	 2.212473	 -0.133711	 -0.948837	 0.380869	 0.807178	 -0.257342	 0.370374	 0
1461599044.044	 2	 0.519042	 2.075925	 1.350678	 2.231515	 -0.125678	 -0.961710	 0.390182	 0.807577	 -0.252894	 0.362798	 0
1461599044.054	 2	 0.530976	 2.077471	 1.128910	 2.250816	 -0.119664	 -0.973236	 0.398492	 0.808307	 -0.248801	 0.354883	 0
1461599044.064	 2	 0.612893	 2.082041	 1.058964	 2.270385	 -0.115207	 -0.984584	 0.406390	 0.809113	 -0.245103	 0.346565	 0
1461599044.074	 2	 0.703907	 2.061238	 1.160292	 2.289528	 -0.111110	 -0.997214	 0.414632	 0.809485	 -0.241725	 0.338207	 0
1461599044.084	 2	 0.767987	 2.123184	 1.368134	 2.309048	 -0.106379	 -1.011638	 0.423715	 0.809359	 -0.238178	 0.329660	 0
1461599044.094	 2	 0.651886	 2.104772	 1.715346	 2.328520	 -0.099270	 -1.027927	 0.433922	 0.808489	 -0.233850	 0.321514	 0
1461599044.104	 2	 0.245123	 2.048536	 2.009317	 2.347687	 -0.087730	 -1.044085	 0.444740	 0.807088	 -0.227653	 0.314626	 0
1461599044.114	 2	 -0.125564	 1.683076	 2.078098	 2.364525	 -0.072684	 -1.058471	 0.455053	 0.805278	 -0.220161	 0.309812	 0
1461599044.124	 2	 -0.188505	 0.972203	 1.853549	 2.375398	 -0.057864	 -1.070972	 0.463774	 0.802863	 -0.213728	 0.307646	 0
1461599044.134	 2	 -0.119288	 0.271177	 1.573588	 2.379076	 -0.045730	 -1.081856	 0.470541	 0.799852	 -0.209742	 0.307955	 0
1461599044.144	 2	 -0.169386	 -0.117335	 1.512858	 2.378351	 -0.034043	 -1.091819	 0.476358	 0.796350	 -0.206834	 0.310048	 0
1461599044.154	 2	 -0.138006	 -0.357779	 1.369667	 2.374951	 -0.023204	 -1.100961	 0.481404	 0.792638	 -0.204796	 0.313102	 0
1461599044.164	 2	 -0.138127	 -0.264147	 1.227727	 2.371685	 -0.013473	 -1.109088	 0.485859	 0.789238	 -0.203033	 0.315947	 0
1461599044.174	 2	 -0.057773	 0.088221	 1.156769	 2.371542	 -0.004695	 -1.116842	 0.490308	 0.786468	 -0.200846	 0.317375	 0
1461599044.184	 2	 0.286141	 0.345913	 1.190277	 2.374558	 0.002224	 -1.126534	 0.495514	 0.783869	 -0.198925	 0.316929	 0
1461599044.194	 2	 0.940439	 0.354768	 1.209175	 2.378266	 0.005001	 -1.140552	 0.501802	 0.780680	 -0.199126	 0.314774	 0
1461599044.204	 2	 1.471727	 0.339210	 1.185220	 2.381689	 0.003458	 -1.158556	 0.508915	 0.776823	 -0.201681	 0.311249	 0
1461599044.214	 2	 1.803270	 0.279614	 1.167924	 2.384795	 -0.001105	 -1.178958	 0.516430	 0.772540	 -0.205805	 0.306799	 0
1461599044.224	 2	 1.884799	 0.159050	 1.149040	 2.386600	 -0.006825	 -1.200280	 0.523952	 0.767856	 -0.210783	 0.302392	 0
1461599044.234	 2	 1.680046	 0.082049	 1.008360	 2.387354	 -0.012381	 -1.219971	 0.530722	 0.763350	 -0.215664	 0.298530	 0
1461599044.244	 2	 1.239848	 -0.000749	 0.706614	 2.387488	 -0.016820	 -1.234974	 0.535773	 0.759828	 -0.219541	 0.295654	 0
1461599044.254	 2	 0.930220	 -0.343364	 0.270225	 2.384963	 -0.021484	 -1.244587	 0.538427	 0.757357	 -0.223395	 0.294281	 0
1461599044.264	 2	 0.704489	 -0.952700	 0.048039	 2.376835	 -0.026367	 -1.250524	 0.539003	 0.755067	 -0.228294	 0.295351	 0
1461599044.274	 2	 0.569674	 -1.577745	 -0.103678	 2.362355	 -0.031132	 -1.254006	 0.537895	 0.752477	 -0.234491	 0.299102	 0
1461599044.284	 2	 0.425197	 -1.378937	 -0.174108	 2.347373	 -0.035485	 -1.256428	 0.536330	 0.750033	 -0.240498	 0.303250	 0
1461599044.294	 2	 0.170194	 -0.572808	 -0.582165	 2.339597	 -0.040470	 -1.254882	 0.533999	 0.749798	 -0.244191	 0.304990	 0
1461599044.304	 2	 -0.048458	 -0.134338	 -1.073892	 2.337933	 -0.047293	 -1.248197	 0.530165	 0.752048	 -0.246142	 0.304571	 0
1461599044.314	 2	 -0.053097	 -0.167515	 -1.397087	 2.337037	 -0.056423	 -1.238493	 0.524882	 0.755422	 -0.248290	 0.303625	 0
1461599044.324	 2	 0.060506	 -0.319529	 -1.632892	 2.334856	 -0.067959	 -1.227809	 0.518625	 0.759051	 -0.251526	 0.302661	 0
1461599044.344	 3	 0.284776	 -0.537652	 -2.139915	 2.328101	 -0.099285	 -1.203558	 0.503099	 0.767256	 -0.261257	 0.299922	 0
1461599044.354	 3	 0.450264	 -0.876147	 -2.256410	 2.321707	 -0.118301	 -1.191133	 0.494093	 0.771129	 -0.268074	 0.298946	 0
1461599044.364	 3	 0.685512	 -1.403769	 -2.317722	 2.310564	 -0.139470	 -1.179995	 0.484409	 0.774037	 -0.277006	 0.299136	 0
1461599044.374	 3	 0.866736	 -2.092722	 -2.354486	 2.292765	 -0.162446	 -1.170388	 0.473846	 0.775598	 -0.288338	 0.301297	 0
1461599044.384	 3	 0.878505	 -2.386562	 -2.535306	 2.270915	 -0.187001	 -1.160868	 0.462140	 0.776508	 -0.301046	 0.304686	 0
1461599044.394	 3	 0.689685	 -2.538444	 -2.875053	 2.248372	 -0.213243	 -1.148708	 0.448633	 0.777870	 -0.313902	 0.308403	 0
1461599044.404	 3	 0.403530	 -2.656700	 -3.310624	 2.225756	 -0.241342	 -1.132285	 0.432707	 0.780065	 -0.326529	 0.312477	 0
1461599044.414	 3	 0.029525	 -2.620482	 -3.747191	 2.204851	 -0.271227	 -1.110734	 0.414293	 0.783416	 -0.338342	 0.316457	 0
1461599044.424	 3	 -0.395700	 -2.435594	 -4.090272	 2.187546	 -0.302083	 -1.083840	 0.393800	 0.788048	 -0.348636	 0.319929	 0
1461599044.434	 3	 -0.821025	 -2.152990	 -4.305618	 2.175246	 -0.332890	 -1.051966	 0.371877	 0.793891	 -0.356911	 0.322582	 0
1461599044.444	 3	 -1.201844	 -1.801662	 -4.413070	 2.168597	 -0.362833	 -1.015829	 0.349167	 0.800734	 -0.363011	 0.324239	 0
1461599044.454	 3	 -1.495837	 -1.388731	 -4.497257	 2.168371	 -0.391781	 -0.976047	 0.326133	 0.808481	 -0.367033	 0.324473	 0
1461599044.464	 3	 -1.666640	 -1.061611	 -4.631275	 2.173921	 -0.420484	 -0.933166	 0.302731	 0.816859	 -0.369641	 0.323204	 0
1461599044.484	 4	 -1.663135	 -0.150329	 -5.101353	 2.203951	 -0.480667	 -0.839458	 0.254881	 0.835080	 -0.372749	 0.314223	 0
1461599044.494	 4	 -1.488829	 0.481281	 -5.494523	 2.231519	 -0.514416	 -0.788506	 0.230459	 0.844997	 -0.374232	 0.304661	 0
1461599044.504	 4	 -1.031227	 0.675690	 -5.781257	 2.264810	 -0.551749	 -0.736200	 0.205616	 0.854446	 -0.377081	 0.292325	 0
1461599044.514	 4	 -0.109971	 -0.199087	 -5.476624	 2.290970	 -0.591874	 -0.689604	 0.181264	 0.860702	 -0.383421	 0.281645	 0
1461599044.524	 4	 1.075831	 -1.744277	 -4.672163	 2.295995	 -0.633641	 -0.657167	 0.158647	 0.861449	 -0.394733	 0.277350	 0
1461599044.534	 4	 1.998236	 -2.743511	 -3.929604	 2.280680	 -0.676317	 -0.640311	 0.138407	 0.857313	 -0.410055	 0.278769	 0
1461599044.544	 4	 2.346539	 -2.804070	 -3.486646	 2.256944	 -0.718429	 -0.633157	 0.120402	 0.850875	 -0.426670	 0.281900	 0
1461599044.554	 4	 2.376447	 -2.349082	 -3.214101	 2.233740	 -0.758915	 -0.630668	 0.104483	 0.844014	 -0.442810	 0.283977	 0
1461599044.564	 4	 2.137065	 -1.371449	 -2.846955	 2.217529	 -0.795850	 -0.630105	 0.091469	 0.838117	 -0.457139	 0.283227	 0
1461599044.574	 4	 1.748089	 -0.138881	 -2.292823	 2.213031	 -0.826391	 -0.630318	 0.082886	 0.834294	 -0.468466	 0.278609	 0
1461599044.584	 4	 1.455239	 0.707951	 -1.797471	 2.217515	 -0.850786	 -0.631332	 0.078259	 0.832191	 -0.477212	 0.271300	 0
1461599044.594	 4	 1.359876	 1.090853	 -1.542624	 2.226318	 -0.871717	 -0.633251	 0.075945	 0.830883	 -0.484625	 0.262686	 0
1461599044.604	 4	 1.449396	 1.057680	 -1.534120	 2.234958	 -0.892414	 -0.636207	 0.074132	 0.829404	 -0.492061	 0.253910	 0
1461599044.614	 4	 1.722073	 0.484920	 -1.791212	 2.238599	 -0.915987	 -0.639979	 0.070744	 0.826779	 -0.500749	 0.246338	 0
1461599044.624	 4	 2.163110	 -0.377380	 -2.306116	 2.233279	 -0.945652	 -0.644577	 0.063901	 0.822127	 -0.511879	 0.240841	 0
1461599044.634	 4	 2.583351	 -0.979224	 -2.992127	 2.219686	 -0.982867	 -0.650196	 0.053308	 0.815318	 -0.525758	 0.236630	 0
1461599044.644	 4	 2.909105	 -1.385869	 -3.787411	 2.204820	 -1.028536	 -0.652602	 0.038674	 0.807071	 -0.541750	 0.231622	 0
1461599044.654	 4	 3.062823	 -1.824048	 -4.600675	 2.189832	 -1.082024	 -0.650117	 0.019759	 0.797393	 -0.559222	 0.225932	 0
1461599044.674	 5	 2.071712	 -1.613426	 -5.583376	 2.186884	 -1.200002	 -0.609203	 -0.027614	 0.777130	 -0.592159	 0.211316	 0
1461599044.684	 5	 -0.868989	 1.979528	 -5.441209	 2.293573	 -1.242421	 -0.506594	 -0.046079	 0.777522	 -0.597392	 0.190943	 0
1461599044.694	 5	 -2.442135	 4.833003	 -5.370052	 2.499877	 -1.263080	 -0.333978	 -0.056299	 0.786223	 -0.594774	 0.157886	 0
1461599044.704	 5	 -2.913070	 6.412244	 -5.443978	 2.754088	 -1.265176	 -0.131336	 -0.061659	 0.797174	 -0.589111	 0.116879	 0
1461599044.714	 5	 -3.125913	 6.697256	 -5.095232	 3.001987	 -1.249122	 0.058694	 -0.064511	 0.807699	 -0.581406	 0.073671	 0
1461599044.724	 5	 -3.423590	 5.692252	 -3.881694	 -3.096246	 -1.217698	 0.190879	 -0.065243	 0.817599	 -0.570947	 0.035974	 0
1461599044.734	 5	 -3.774571	 3.966573	 -2.334420	 -2.992068	 -1.178288	 0.255275	 -0.064371	 0.827633	 -0.557495	 0.008936	 0
1461599044.744	 5	 -3.756296	 2.398017	 -0.971144	 -2.950168	 -1.138708	 0.270873	 -0.062155	 0.837673	 -0.542575	 -0.007298	 0
1461599044.754	 5	 -3.276236	 1.474680	 0.085044	 -2.943947	 -1.104931	 0.259280	 -0.058166	 0.846665	 -0.528702	 -0.015768	 0
1461599044.764	 5	 -2.743564	 1.107322	 0.829416	 -2.955270	 -1.078033	 0.233318	 -0.052033	 0.854242	 -0.516885	 -0.019809	 0
1461599044.774	 5	 -2.382098	 1.141221	 1.249692	 -2.972852	 -1.055884	 0.200532	 -0.043923	 0.860699	 -0.506731	 -0.022185	 0
1461599044.784	 5	 -2.241926	 1.403886	 1.299940	 -2.988121	 -1.035644	 0.167538	 -0.034675	 0.866480	 -0.497375	 -0.025082	 0
1461599044.794	 5	 -2.286785	 1.788667	 1.101417	 -2.995731	 -1.014958	 0.138900	 -0.025161	 0.872005	 -0.487934	 -0.029895	 0
1461599044.804	 5	 -2.448436	 2.181371	 0.775026	 -2.993807	 -0.992451	 0.116448	 -0.015943	 0.877545	 -0.477784	 -0.037181	 0
1461599044.814	 5	 -2.670052	 2.389518	 0.348325	 -2.982967	 -0.967327	 0.101170	 -0.007826	 0.883248	 -0.466518	 -0.046613	 0
1461599044.824	 5	 -2.856557	 2.330754	 -0.056654	 -2.966521	 -0.939627	 0.092389	 -0.001481	 0.889119	 -0.454105	 -0.057043	 0
1461599044.834	 5	 -2.897534	 2.040461	 -0.356346	 -2.948526	 -0.910627	 0.088298	 0.002889	 0.894941	 -0.441090	 -0.067162	 0
1461599044.844	 5	 -2.806618	 1.539144	 -0.515272	 -2.932922	 -0.881874	 0.086815	 0.005376	 0.900516	 -0.428153	 -0.075677	 0
1461599044.854	 5	 -2.627667	 0.829910	 -0.562863	 -2.923020	 -0.854547	 0.086449	 0.006063	 0.905778	 -0.415823	 -0.081371	 0
1461599044.864	 5	 -2.420129	 -0.003195	 -0.520200	 -2.921129	 -0.829255	 0.086183	 0.005087	 0.910776	 -0.404370	 -0.083345	 0
1461599044.874	 5	 -2.216626	 -0.826375	 -0.430516	 -2.927868	 -0.806166	 0.085544	 0.002692	 0.915561	 -0.393857	 -0.081344	 0
1461599044.884	 5	 -2.385225	 -1.890209	 -0.236452	 -2.945360	 -0.783187	 0.083021	 -0.000818	 0.920616	 -0.383256	 -0.074704	 0
1461599044.894	 5	 -3.423032	 -3.630166	 0.092108	 -2.982832	 -0.752266	 0.075170	 -0.005732	 0.927603	 -0.368683	 -0.059942	 0
1461599044.904	 5	 -4.046237	 -4.527273	 0.359890	 -3.033916	 -0.713676	 0.064142	 -0.011214	 0.935770	 -0.350244	 -0.039212	 0
1461599044.914	 5	 -4.124217	 -4.469357	 0.541221	 -3.086196	 -0.672920	 0.053298	 -0.016002	 0.943476	 -0.330600	 -0.017339	 0
1461599044.924	 5	 -3.862768	 -3.656753	 0.647754	 -3.130957	 -0.633711	 0.043816	 -0.019159	 0.950015	 -0.311612	 0.001774	 0
1461599044.934	 5	 -3.397308	 -2.332273	 0.728498	 3.120466	 -0.598419	 0.035363	 -0.020007	 0.955312	 -0.294524	 0.015303	 0
1461599044.944	 5	 -2.670339	 -0.735520	 0.766868	 3.104602	 -0.569523	 0.027280	 -0.018283	 0.959404	 -0.280612	 0.021579	 0
1461599044.954	 5	 -1.802401	 0.712495	 0.738681	 3.104119	 -0.549060	 0.019347	 -0.014389	 0.962290	 -0.270860	 0.020655	 0
1461599044.964	 5	 -1.035320	 1.648732	 0.644795	 3.114820	 -0.536674	 0.011973	 -0.009321	 0.964088	 -0.265022	 0.014494	 0
1461599044.974	 5	 -0.410409	 2.114992	 0.512604	 3.131840	 -0.530988	 0.005749	 -0.004053	 0.964944	 -0.262368	 0.005460	 0
1461599044.984	 5	 0.087389	 2.346429	 0.361217	 -3.130690	 -0.530697	 0.001130	 0.000884	 0.964987	 -0.262245	 -0.005112	 0
1461599044.994	 5	 0.417993	 2.420987	 0.216220	 -3.107983	 -0.534226	 -0.001673	 0.005242	 0.964397	 -0.263897	 -0.016429	 0
1461599045.004	 5	 0.483953	 2.217077	 0.138079	 -3.085875	 -0.539131	 -0.003194	 0.008957	 0.963500	 -0.266166	 -0.027274	 0
1461599045.014	 5	 0.445687	 1.801284	 0.133477	 -3.067391	 -0.543733	 -0.004397	 0.012077	 0.962584	 -0.268266	 -0.036320	 0
1461599045.024	 5	 0.461754	 1.370398	 0.122933	 -3.053186	 -0.548368	 -0.005446	 0.014583	 0.961670	 -0.270380	 -0.043275	 0
1461599045.034	 5	 0.535881	 1.065615	 0.071492	 -3.042123	 -0.553569	 -0.005897	 0.016418	 0.960705	 -0.272784	 -0.048627	 0
1461599045.044	 5	 0.655575	 0.944480	 -0.010609	 -3.032153	 -0.559766	 -0.005256	 0.017631	 0.959606	 -0.275691	 -0.053289	 0
1461599045.054	 5	 0.820516	 0.915727	 -0.095442	 -3.021881	 -0.567385	 -0.003322	 0.018335	 0.958280	 -0.279305	 -0.057893	 0
1461599045.064	 5	 1.005707	 0.842579	 -0.133971	 -3.011662	 -0.576745	 -0.000363	 0.018636	 0.956682	 -0.283781	 -0.062291	 0
1461599045.074	 5	 1.166853	 0.797824	 -0.080371	 -3.001956	 -0.587802	 0.002638	 0.018950	 0.954815	 -0.289070	 -0.066389	 0
1461599045.084	 5	 1.267551	 0.770811	 0.048524	 -2.993036	 -0.600165	 0.004650	 0.019721	 0.952726	 -0.294948	 -0.070208	 0
1461599045.094	 5	 1.208905	 0.646640	 0.208809	 -2.985968	 -0.612665	 0.004942	 0.021093	 0.950616	 -0.300834	 -0.073372	 0
1461599045.104	 5	 0.730362	 0.163378	 0.402447	 -2.984285	 -0.621979	 0.002366	 0.022921	 0.949116	 -0.305143	 -0.074443	 0
1461599045.114	 5	 -0.162786	 -0.863432	 0.569060	 -2.993916	 -0.623193	 -0.004005	 0.024517	 0.949205	 -0.305602	 -0.070831	 0
1461599045.124	 5	 0.406334	 -1.312336	 0.644122	 -3.010776	 -0.626175	 -0.011375	 0.025531	 0.949223	 -0.306980	 -0.063931	 0
1461599045.134	 5	 -0.342669	 -0.371025	 0.638013	 -3.023094	 -0.626264	 -0.019339	 0.027423	 0.949483	 -0.306940	 -0.059306	 0
1461599045.144	 5	 -0.768437	 2.650232	 0.549403	 -3.009207	 -0.619741	 -0.027482	 0.033225	 0.949921	 -0.303373	 -0.067169	 0
1461599045.154	 5	 -0.689221	 4.280549	 0.554292	 -2.973526	 -0.613434	 -0.035320	 0.042114	 0.949370	 -0.299405	 -0.085318	 0
1461599045.164	 5	 -0.501446	 3.931049	 0.689019	 -2.937586	 -0.609218	 -0.044422	 0.051609	 0.948093	 -0.296130	 -0.103741	 0
1461599045.174	 5	 -0.258002	 2.540722	 0.761355	 -2.914045	 -0.607675	 -0.054147	 0.059617	 0.946759	 -0.294208	 -0.116335	 0
1461599045.184	 5	 0.004364	 1.176180	 0.730386	 -2.904181	 -0.608835	 -0.063186	 0.065402	 0.945714	 -0.293911	 -0.122327	 0
1461599045.194	 5	 0.167960	 0.044784	 0.542583	 -2.904901	 -0.611547	 -0.069892	 0.068606	 0.945124	 -0.294809	 -0.122968	 0
1461599045.204	 5	 0.270394	 -0.644495	 0.282692	 -2.912007	 -0.614721	 -0.073316	 0.069333	 0.944956	 -0.296350	 -0.120115	 0
1461599045.214	 5	 0.543815	 -0.742782	 0.186675	 -2.920151	 -0.619577	 -0.074396	 0.068864	 0.944659	 -0.298867	 -0.116430	 0
1461599045.224	 5	 1.154003	 -0.456402	 0.323642	 -2.925951	 -0.629822	 -0.075133	 0.068811	 0.943384	 -0.303873	 -0.113813	 0
1461599045.234	 5	 1.825292	 0.113783	 0.460586	 -2.927047	 -0.646954	 -0.075996	 0.069820	 0.940712	 -0.311954	 -0.113447	 0
1461599045.244	 5	 1.876738	 0.065527	 0.573726	 -2.925346	 -0.667389	 -0.077193	 0.071565	 0.937258	 -0.321446	 -0.114449	 0
1461599045.254	 5	 0.200803	 -2.182351	 0.711279	 -2.945900	 -0.675275	 -0.084314	 0.071907	 0.936829	 -0.325497	 -0.105987	 0
1461599045.264	 5	 -0.929823	 -3.117581	 0.357521	 -2.980840	 -0.668714	 -0.091845	 0.069544	 0.939370	 -0.323276	 -0.090779	 0
1461599045.274	 5	 -0.634261	 -2.728362	 -0.117826	 -3.010109	 -0.661222	 -0.093233	 0.065284	 0.941782	 -0.320672	 -0.077164	 0
1461599045.284	 5	 -0.041961	 -2.420036	 -0.481407	 -3.032022	 -0.658885	 -0.088494	 0.059488	 0.943095	 -0.320422	 -0.066051	 0
1461599045.294	 5	 0.411415	 -2.293025	 -0.677076	 -3.050017	 -0.661336	 -0.080051	 0.052657	 0.943483	 -0.322342	 -0.056236	 0
1461599045.304	 5	 0.705160	 -2.215355	 -0.701292	 -3.066443	 -0.667114	 -0.070458	 0.045549	 0.943198	 -0.325722	 -0.046997	 0
1461599045.314	 5	 0.930777	 -2.184627	 -0.626235	 -3.082702	 -0.675426	 -0.061462	 0.038728	 0.942361	 -0.330177	 -0.037941	 0
1461599045.324	 5	 1.132360	 -2.278216	 -0.543600	 -3.100170	 -0.685965	 -0.053530	 0.032160	 0.941030	 -0.335583	 -0.028495	 0
1461599045.334	 5	 1.312923	 -2.512287	 -0.481273	 -3.120186	 -0.698493	 -0.046585	 0.025545	 0.939237	 -0.341843	 -0.018023	 0
1461599045.344	 5	 1.459802	 -2.840147	 -0.458959	 3.139498	 -0.712704	 -0.040341	 0.018537	 0.936992	 -0.348807	 -0.006055	 0
1461599045.354	 5	 1.557639	 -3.140360	 -0.457276	 3.112603	 -0.728130	 -0.034572	 0.010990	 0.934309	 -0.356219	 0.007388	 0
1461599045.364	 5	 1.636154	 -3.250031	 -0.441928	 3.083596	 -0.744480	 -0.029497	 0.003188	 0.931178	 -0.363909	 0.021644	 0
1461599045.374	 5	 1.703530	 -3.022365	 -0.407357	 3.055402	 -0.761599	 -0.025447	 -0.004210	 0.927635	 -0.371796	 0.035268	 0
1461599045.394	 6	 1.863200	 -1.994186	 -0.388522	 3.010331	 -0.798111	 -0.020410	 -0.016098	 0.919657	 -0.388308	 0.056471	 0
1461599045.404	 6	 1.955439	 -1.380242	 -0.464610	 2.996829	 -0.817882	 -0.017949	 -0.020542	 0.915361	 -0.397176	 0.062793	 0
1461599045.414	 6	 2.004483	 -0.839857	 -0.581506	 2.989825	 -0.838410	 -0.014238	 -0.024373	 0.910981	 -0.406346	 0.066356	 0
1461599045.424	 6	 2.057132	 -0.236532	 -0.671203	 2.989678	 -0.859585	 -0.009169	 -0.027464	 0.906567	 -0.415792	 0.067077	 0
1461599045.434	 6	 2.125497	 0.479930	 -0.700301	 2.997128	 -0.881455	 -0.003325	 -0.029288	 0.902133	 -0.425593	 0.064566	 0
1461599045.444	 6	 2.198276	 1.169225	 -0.660417	 3.011751	 -0.903985	 0.002567	 -0.029487	 0.897646	 -0.435764	 0.058920	 0
1461599045.454	 6	 2.451746	 1.430828	 -0.564271	 3.029956	 -0.928050	 0.007457	 -0.028297	 0.892766	 -0.446665	 0.051556	 0
1461599045.464	 6	 3.147416	 0.069297	 -0.591523	 3.038631	 -0.958220	 0.011906	 -0.028997	 0.886073	 -0.460099	 0.048404	 0
1461599045.474	 6	 3.445286	 -1.927016	 -0.605227	 3.026335	 -0.993175	 0.015005	 -0.034025	 0.877523	 -0.475244	 0.054207	 0
1461599045.484	 6	 3.103452	 -3.265017	 -0.443095	 2.992706	 -1.027461	 0.012241	 -0.041865	 0.868265	 -0.489663	 0.067772	 0
1461599045.494	 6	 2.397537	 -3.635091	 -0.131313	 2.950473	 -1.054309	 0.005708	 -0.050456	 0.860159	 -0.500544	 0.083890	 0
1461599045.504	 6	 1.651882	 -3.406007	 0.210898	 2.905367	 -1.072413	 -0.005756	 -0.057744	 0.853833	 -0.507609	 0.099839	 0
1461599045.514	 6	 1.044339	 -3.010950	 0.468186	 2.861237	 -1.082820	 -0.020526	 -0.063291	 0.849271	 -0.511492	 0.114494	 0
1461599045.524	 6	 0.633508	 -2.673654	 0.613451	 2.819153	 -1.087981	 -0.037053	 -0.067419	 0.845949	 -0.513300	 0.127864	 0
1461599045.534	 6	 0.457119	 -2.547326	 0.655596	 2.778684	 -1.090357	 -0.053809	 -0.070924	 0.843210	 -0.514023	 0.140523	 0
1461599045.544	 6	 0.549005	 -2.694853	 0.589477	 2.737681	 -1.092778	 -0.070269	 -0.074758	 0.840186	 -0.514751	 0.153395	 0
1461599045.554	 6	 0.864886	 -3.000186	 0.413364	 2.694036	 -1.097929	 -0.086509	 -0.079720	 0.836024	 -0.516503	 0.167131	 0
1461599045.564	 6	 1.264329	 -3.177583	 0.166307	 2.648064	 -1.107255	 -0.102750	 -0.085902	 0.830363	 -0.519847	 0.181323	 0
1461599045.574	 6	 1.600297	 -3.018637	 -0.072807	 2.602075	 -1.121242	 -0.119634	 -0.092648	 0.823307	 -0.525059	 0.194664	 0
1461599045.584	 6	 1.809947	 -2.521876	 -0.273571	 2.559593	 -1.137373	 -0.137153	 -0.098835	 0.815874	 -0.531238	 0.205835	 0
1461599045.594	 6	 1.941861	 -1.790655	 -0.441634	 2.523158	 -1.155416	 -0.155358	 -0.103762	 0.808475	 -0.538419	 0.213791	 0
1461599045.604	 6	 2.006414	 -0.903579	 -0.558636	 2.494337	 -1.174654	 -0.174401	 -0.106818	 0.801560	 -0.546430	 0.217957	 0
1461599045.614	 6	 1.945515	 0.042723	 -0.626035	 2.474719	 -1.193991	 -0.193494	 -0.107643	 0.795596	 -0.554861	 0.218103	 0
1461599045.624	 6	 1.701664	 0.874826	 -0.674786	 2.466318	 -1.211996	 -0.209791	 -0.106442	 0.791020	 -0.562978	 0.214506	 0
1461599045.634	 6	 1.289834	 1.397840	 -0.733476	 2.470716	 -1.227417	 -0.218859	 -0.104138	 0.788041	 -0.569943	 0.208114	 0
1461599045.644	 6	 0.838786	 1.509489	 -0.773272	 2.486341	 -1.239610	 -0.218276	 -0.101866	 0.786469	 -0.575238	 0.200476	 0
1461599045.654	 6	 0.503435	 1.213857	 -0.754985	 2.507257	 -1.248804	 -0.210050	 -0.100513	 0.785713	 -0.578918	 0.193406	 0
1461599045.664	 6	 0.338714	 0.613989	 -0.673872	 2.525589	 -1.255865	 -0.198911	 -0.100646	 0.785034	 -0.581419	 0.188528	 0
1461599045.674	 6	 0.313749	 -0.023271	 -0.559153	 2.536287	 -1.261807	 -0.189032	 -0.102286	 0.783946	 -0.583265	 0.186463	 0
1461599045.684	 6	 0.351571	 -0.488271	 -0.425261	 2.538336	 -1.267219	 -0.182847	 -0.104897	 0.782357	 -0.584825	 0.186799	 0
1461599045.694	 6	 0.445738	 -0.807422	 -0.250002	 2.531215	 -1.272345	 -0.182632	 -0.107813	 0.780288	 -0.586346	 0.189012	 0
1461599045.704	 6	 0.625770	 -1.085860	 0.000556	 2.511820	 -1.277415	 -0.192266	 -0.110509	 0.777589	 -0.588096	 0.193098	 0
1461599045.714	 6	 0.790071	 -1.320517	 0.268712	 2.478515	 -1.282231	 -0.213812	 -0.112708	 0.774232	 -0.590125	 0.199033	 0
1461599045.724	 6	 0.721910	 -1.445553	 0.452519	 2.437111	 -1.285514	 -0.242149	 -0.114540	 0.770777	 -0.591837	 0.206183	 0
1461599045.734	 6	 0.204560	 -1.411993	 0.471190	 2.402351	 -1.285102	 -0.263452	 -0.116557	 0.768469	 -0.591916	 0.213318	 0
1461599045.744	 6	 -0.757302	 -1.162164	 0.359327	 2.391560	 -1.278798	 -0.261775	 -0.119246	 0.768825	 -0.588855	 0.218948	 0
1461599045.754	 6	 -1.856995	 -0.697291	 0.218692	 2.412037	 -1.265398	 -0.231734	 -0.122440	 0.772709	 -0.581971	 0.221896	 0
1461599045.764	 6	 -2.727758	 -0.171971	 0.145901	 2.455737	 -1.245130	 -0.182565	 -0.125514	 0.779771	 -0.571782	 0.221964	 0
1461599045.774	 6	 -3.264160	 0.380398	 0.124804	 2.509953	 -1.219452	 -0.127633	 -0.127803	 0.789016	 -0.559452	 0.219396	 0
1461599045.784	 6	 -3.611178	 1.045945	 0.093520	 2.568676	 -1.189768	 -0.074039	 -0.128836	 0.799781	 -0.545869	 0.213961	 0
1461599045.794	 6	 -3.835761	 1.828539	 0.118744	 2.629455	 -1.156776	 -0.025816	 -0.127994	 0.811761	 -0.531543	 0.205238	 0
1461599045.814	 7	 -3.656380	 3.539145	 0.528498	 2.744410	 -1.085714	 0.037489	 -0.117631	 0.837350	 -0.503176	 0.178388	 0
1461599045.824	 7	 -3.312709	 4.409425	 0.848004	 2.795861	 -1.051276	 0.048312	 -0.106863	 0.849779	 -0.490549	 0.160682	 0
1461599045.834	 7	 -3.024735	 5.047681	 1.123205	 2.844475	 -1.018615	 0.047762	 -0.092765	 0.861496	 -0.478979	 0.140705	 0
1461599045.844	 7	 -2.813400	 5.372624	 1.283187	 2.890824	 -0.987705	 0.039786	 -0.076645	 0.872249	 -0.468017	 0.119447	 0
1461599045.854	 7	 -2.679567	 5.444731	 1.307205	 2.935517	 -0.958358	 0.028026	 -0.059785	 0.881916	 -0.457281	 0.097689	 0
1461599045.874	 8	 -2.462780	 4.850323	 0.975795	 3.019553	 -0.904438	 0.004509	 -0.028671	 0.897743	 -0.436025	 0.055835	 0
1461599045.884	 8	 -2.341032	 4.205467	 0.689504	 3.056932	 -0.880062	 -0.003732	 -0.016339	 0.903960	 -0.425657	 0.037492	 0
1461599045.894	 8	 -2.205556	 3.347471	 0.351020	 3.089320	 -0.857416	 -0.008133	 -0.007166	 0.909230	 -0.415647	 0.022078	 0
1461599045.904	 8	 -2.070387	 2.185395	 0.027827	 3.114072	 -0.836348	 -0.008465	 -0.001720	 0.913761	 -0.406104	 0.010856	 0
1461599045.914	 8	 -1.957350	 0.539165	 -0.186707	 3.125849	 -0.816561	 -0.005763	 -0.000481	 0.917782	 -0.397039	 0.006081	 0
1461599045.924	 8	 -1.908138	 -1.181373	 -0.260697	 3.121093	 -0.797469	 -0.001670	 -0.003210	 0.921508	 -0.388240	 0.009121	 0
1461599045.934	 8	 -1.953662	 -2.293268	 -0.190715	 3.103213	 -0.778160	 0.002205	 -0.008299	 0.925079	 -0.379248	 0.018173	 0
1461599045.944	 8	 -2.053018	 -2.700039	 -0.002864	 3.078357	 -0.757963	 0.004386	 -0.013732	 0.928550	 -0.369724	 0.030180	 0
1461599045.954	 8	 -2.159350	 -2.585315	 0.227203	 3.051923	 -0.736556	 0.004340	 -0.018158	 0.931974	 -0.359556	 0.042595	 0
1461599045.964	 8	 -2.219719	 -2.225065	 0.452759	 3.027260	 -0.714185	 0.002048	 -0.020930	 0.935366	 -0.348926	 0.053888	 0
1461599045.974	 8	 -2.189708	 -1.857241	 0.585944	 3.005205	 -0.691553	 -0.001625	 -0.022332	 0.938644	 -0.338192	 0.063833	 0
1461599045.984	 8	 -1.914829	 -1.044425	 0.580456	 2.990165	 -0.670982	 -0.005411	 -0.022356	 0.941607	 -0.328482	 0.070536	 0
1461599045.994	 8	 -1.588102	 -0.107252	 0.584201	 2.984278	 -0.653586	 -0.009423	 -0.020775	 0.944257	 -0.320362	 0.072909	 0
1461599046.004	 8	 -1.215199	 0.885141	 0.594451	 2.987735	 -0.639691	 -0.014199	 -0.017444	 0.946624	 -0.314000	 0.070728	 0
1461599046.014	 8	 -0.821524	 1.777315	 0.580142	 3.000192	 -0.629756	 -0.019696	 -0.012536	 0.948628	 -0.309573	 0.064123	 0
1461599046.024	 8	 -0.474047	 2.387683	 0.554020	 3.019179	 -0.623481	 -0.025657	 -0.006573	 0.950181	 -0.306863	 0.054288	 0
1461599046.034	 8	 -0.185201	 2.799209	 0.511639	 3.042737	 -0.620416	 -0.031713	 0.000000	 0.951227	 -0.305591	 0.042209	 0
1461599046.044	 8	 -0.053529	 2.925052	 0.464770	 3.068545	 -0.619256	 -0.037450	 0.006697	 0.951853	 -0.305099	 0.029072	 0
1461599046.054	 8	 -0.052290	 2.737833	 0.461951	 3.093303	 -0.618502	 -0.043029	 0.013140	 0.952222	 -0.304681	 0.016447	 0
1461599046.064	 8	 -0.097423	 2.414895	 0.498772	 3.114827	 -0.617473	 -0.048989	 0.019267	 0.952447	 -0.304049	 0.005304	 0
1461599046.074	 8	 -0.138647	 2.038568	 0.508418	 3.132584	 -0.616082	 -0.055208	 0.024936	 0.952594	 -0.303192	 -0.004078	 0
1461599046.084	 8	 -0.136232	 1.697757	 0.446609	 -3.136158	 -0.614684	 -0.060931	 0.029855	 0.952670	 -0.302306	 -0.011804	 0
1461599046.094	 8	 -0.096925	 1.543533	 0.315874	 -3.122943	 -0.613636	 -0.065265	 0.033916	 0.952659	 -0.301563	 -0.018738	 0
1461599046.104	 8	 -0.014626	 1.492025	 0.139894	 -3.109259	 -0.613293	 -0.067543	 0.037063	 0.952518	 -0.301131	 -0.025594	 0
1461599046.114	 8	 0.116884	 1.478553	 -0.051083	 -3.094391	 -0.614096	 -0.067449	 0.039260	 0.952182	 -0.301232	 -0.032670	 0
1461599046.124	 8	 0.294496	 1.480098	 -0.206084	 -3.078300	 -0.616478	 -0.065188	 0.040631	 0.951573	 -0.302086	 -0.040015	 0
1461599046.134	 8	 0.505418	 1.470361	 -0.290075	 -3.061404	 -0.620780	 -0.061453	 0.041467	 0.950624	 -0.303868	 -0.047526	 0
1461599046.144	 8	 0.719604	 1.440691	 -0.334847	 -3.044152	 -0.627143	 -0.056736	 0.041965	 0.949301	 -0.306654	 -0.055046	 0
1461599046.154	 8	 0.882327	 1.341150	 -0.357505	 -3.027212	 -0.635188	 -0.051276	 0.042157	 0.947667	 -0.310277	 -0.062275	 0
1461599046.164	 8	 0.875992	 1.122128	 -0.348831	 -3.011926	 -0.643655	 -0.045547	 0.042044	 0.945954	 -0.314155	 -0.068633	 0
1461599046.174	 8	 0.455475	 0.648030	 -0.334660	 -3.001000	 -0.649017	 -0.040366	 0.041471	 0.944822	 -0.316647	 -0.072978	 0
1461599046.184	 8	 0.714146	 0.205483	 -0.241915	 -2.995245	 -0.653878	 -0.035992	 0.040471	 0.943920	 -0.318989	 -0.074988	 0
1461599046.194	 8	 0.775760	 -0.308576	 0.029864	 -2.995696	 -0.662861	 -0.033614	 0.039562	 0.942531	 -0.323326	 -0.074361	 0
1461599046.204	 8	 -1.122089	 0.628410	 0.428124	 -2.996534	 -0.656684	 -0.039010	 0.041777	 0.943454	 -0.320227	 -0.074854	 0
1461599046.213	 8	 -1.534879	 2.779443	 0.611598	 -2.980152	 -0.642581	 -0.049101	 0.048671	 0.944829	 -0.312790	 -0.084210	 0
1461599046.223	 8	 -1.241210	 3.668250	 0.679126	 -2.951031	 -0.630603	 -0.060108	 0.057927	 0.945077	 -0.305839	 -0.099682	 0
1461599046.233	 8	 -0.695192	 3.057876	 0.772071	 -2.924805	 -0.623909	 -0.071219	 0.066867	 0.944368	 -0.301259	 -0.113758	 0
1461599046.243	 8	 -0.188725	 1.748881	 0.872715	 -2.910244	 -0.622810	 -0.082229	 0.074198	 0.943290	 -0.299576	 -0.122282	 0
1461599046.253	 8	 0.188447	 0.241888	 0.898038	 -2.910195	 -0.625881	 -0.092758	 0.079317	 0.942408	 -0.300378	 -0.123894	 0
1461599046.263	 8	 0.402774	 -0.999165	 0.716233	 -2.922379	 -0.631097	 -0.101086	 0.081643	 0.942000	 -0.302828	 -0.119439	 0
1461599046.273	 8	 0.664983	 -1.310182	 0.468062	 -2.938232	 -0.637925	 -0.105961	 0.081811	 0.941646	 -0.306420	 -0.112771	 0
1461599046.283	 8	 1.216930	 -0.938278	 0.348418	 -2.949868	 -0.649076	 -0.107890	 0.081346	 0.940429	 -0.312054	 -0.107701	 0
1461599046.293	 8	 1.813077	 -0.529838	 0.298003	 -2.956108	 -0.666073	 -0.107772	 0.080913	 0.937996	 -0.320323	 -0.104926	 0
1461599046.303	 8	 2.250684	 0.195036	 0.258307	 -2.955200	 -0.687748	 -0.106101	 0.081035	 0.934388	 -0.330556	 -0.105289	 0
1461599046.313	 8	 1.449774	 -0.332774	 0.485245	 -2.955721	 -0.706157	 -0.106718	 0.081872	 0.931222	 -0.339162	 -0.105316	 0
1461599046.323	 8	 -0.312336	 -2.100465	 0.656792	 -2.977774	 -0.708249	 -0.114921	 0.082010	 0.931634	 -0.340629	 -0.096462	 0
1461599046.333	 8	 -0.893923	 -2.966772	 0.348986	 -3.010915	 -0.700599	 -0.122292	 0.079639	 0.934145	 -0.338059	 -0.082139	 0
1461599046.343	 8	 -0.659116	 -2.859676	 -0.041065	 -3.041255	 -0.693365	 -0.124093	 0.075250	 0.936458	 -0.335775	 -0.068115	 0
1461599046.353	 8	 -0.303169	 -2.503245	 -0.320077	 -3.065328	 -0.689238	 -0.121194	 0.069814	 0.938014	 -0.334800	 -0.056261	 0
1461599046.363	 8	 0.012725	 -2.171100	 -0.444431	 -3.084428	 -0.688347	 -0.115776	 0.064067	 0.938836	 -0.335160	 -0.046371	 0
1461599046.373	 8	 0.253444	 -1.831327	 -0.427379	 -3.099883	 -0.690084	 -0.110025	 0.058776	 0.939045	 -0.336572	 -0.038189	 0
1461599046.383	 8	 0.485910	 -1.639527	 -0.431881	 -3.112990	 -0.694203	 -0.104314	 0.053878	 0.938734	 -0.338975	 -0.031162	 0
1461599046.393	 8	 0.721187	 -1.691861	 -0.513283	 -3.125372	 -0.700728	 -0.097724	 0.048654	 0.937960	 -0.342447	 -0.024373	 0
1461599046.403	 8	 0.893713	 -1.916393	 -0.605333	 -3.138914	 -0.709228	 -0.089978	 0.042640	 0.936810	 -0.346820	 -0.016871	 0
1461599046.413	 8	 0.983069	 -2.132120	 -0.690182	 3.129235	 -0.718911	 -0.081178	 0.035812	 0.935388	 -0.351703	 -0.008495	 0
1461599046.423	 8	 1.022853	 -2.267551	 -0.722695	 3.112993	 -0.729193	 -0.071859	 0.028462	 0.933752	 -0.356786	 0.000543	 0
1461599046.433	 8	 1.060680	 -2.187711	 -0.697769	 3.096769	 -0.739957	 -0.062883	 0.021202	 0.931895	 -0.361983	 0.009519	 0
1461599046.443	 8	 1.102942	 -1.844129	 -0.675756	 3.083054	 -0.751199	 -0.054423	 0.014569	 0.929837	 -0.367278	 0.017238	 0
1461599046.453	 8	 1.204916	 -1.260558	 -0.682937	 3.074548	 -0.763329	 -0.046123	 0.008908	 0.927566	 -0.372875	 0.022512	 0
1461599046.463	 8	 1.492256	 -0.492694	 -0.721990	 3.073574	 -0.777836	 -0.037583	 0.004486	 0.924864	 -0.379493	 0.024337	 0
1461599046.473	 8	 1.985669	 0.316945	 -0.783764	 3.081248	 -0.796820	 -0.028422	 0.001389	 0.921333	 -0.388133	 0.022292	 0
1461599046.483	 8	 2.531728	 0.953256	 -0.818833	 3.096511	 -0.821180	 -0.018491	 -0.000521	 0.916697	 -0.399223	 0.016976	 0
1461599046.493	 8	 3.011752	 1.336032	 -0.788544	 3.116842	 -0.850425	 -0.008067	 -0.001431	 0.910894	 -0.412525	 0.009609	 0
1461599046.503	 8	 3.339828	 1.350660	 -0.692148	 3.138508	 -0.883200	 0.002342	 -0.001718	 0.904067	 -0.427384	 0.001895	 0
1461599046.513	 8	 3.455237	 0.832121	 -0.575414	 -3.127559	 -0.918383	 0.011832	 -0.002193	 0.896392	 -0.443242	 -0.003668	 0
1461599046.523	 8	 3.272183	 -0.105380	 -0.415206	 -3.123828	 -0.955672	 0.016715	 -0.003336	 0.887960	 -0.459890	 -0.004044	 0
1461599046.533	 8	 2.803203	 -1.062940	 -0.206877	 -3.128830	 -0.985811	 0.021223	 -0.006328	 0.880926	 -0.473211	 -0.000600	 0
1461599046.543	 8	 2.190508	 -1.746480	 0.035090	 3.139006	 -1.009286	 0.021943	 -0.010229	 0.875287	 -0.483453	 0.006436	 0
1461599046.553	 8	 1.600486	 -2.134523	 0.260427	 3.114714	 -1.026662	 0.017520	 -0.014230	 0.870944	 -0.490916	 0.016008	 0
1461599046.563	 8	 1.144412	 -2.331091	 0.396855	 3.084782	 -1.038963	 0.009330	 -0.018147	 0.867651	 -0.496110	 0.026969	 0
1461599046.573	 8	 0.871808	 -2.477732	 0.452218	 3.051638	 -1.047891	 -0.000790	 -0.022153	 0.864985	 -0.499810	 0.038733	 0
1461599046.583	 8	 0.776906	 -2.684882	 0.448985	 3.016020	 -1.055253	 -0.011564	 -0.026605	 0.862470	 -0.502797	 0.051306	 0
1461599046.593	 8	 0.833020	 -2.954579	 0.388435	 2.977881	 -1.062691	 -0.022179	 -0.031898	 0.859646	 -0.505748	 0.064887	 0
1461599046.603	 8	 0.989778	 -3.110087	 0.274784	 2.938471	 -1.071442	 -0.032001	 -0.038060	 0.856188	 -0.509161	 0.079046	 0
1461599046.613	 8	 1.195135	 -3.114953	 0.126942	 2.899573	 -1.082215	 -0.040712	 -0.044846	 0.851960	 -0.513319	 0.093040	 0
1461599046.623	 8	 1.443817	 -2.989085	 -0.015799	 2.862165	 -1.095482	 -0.048764	 -0.051889	 0.846901	 -0.518431	 0.106279	 0
1461599046.633	 8	 1.760457	 -2.742938	 -0.118578	 2.826102	 -1.111788	 -0.057652	 -0.058685	 0.840923	 -0.524780	 0.118362	 0
1461599046.643	 8	 2.120791	 -2.315825	 -0.182753	 2.791242	 -1.131537	 -0.069310	 -0.064568	 0.833995	 -0.532642	 0.128746	 0
1461599046.653	 8	 2.375528	 -1.657547	 -0.239594	 2.759187	 -1.154038	 -0.084343	 -0.068891	 0.826458	 -0.541825	 0.136550	 0
1461599046.663	 8	 2.340966	 -0.775214	 -0.317409	 2.734189	 -1.177047	 -0.100589	 -0.071209	 0.819180	 -0.551427	 0.140718	 0
1461599046.673	 8	 1.982108	 0.171563	 -0.439761	 2.721955	 -1.197825	 -0.113114	 -0.071566	 0.813181	 -0.560224	 0.140588	 0
1461599046.683	 8	 1.413237	 0.960294	 -0.587333	 2.726285	 -1.214341	 -0.116823	 -0.070512	 0.809119	 -0.567221	 0.136435	 0
1461599046.693	 8	 0.838722	 1.442849	 -0.717455	 2.746450	 -1.226017	 -0.109649	 -0.068813	 0.806992	 -0.572088	 0.129394	 0
1461599046.703	 8	 0.439882	 1.565794	 -0.791705	 2.776903	 -1.233759	 -0.093886	 -0.067144	 0.806203	 -0.575216	 0.121054	 0
1461599046.713	 8	 0.286660	 1.234183	 -0.821166	 2.809415	 -1.239452	 -0.073726	 -0.066370	 0.805829	 -0.577390	 0.113379	 0
1461599046.723	 8	 0.316702	 0.574788	 -0.803051	 2.836738	 -1.244855	 -0.052755	 -0.067312	 0.805101	 -0.579302	 0.108122	 0
1461599046.733	 8	 0.391283	 0.004211	 -0.692842	 2.855553	 -1.250542	 -0.034283	 -0.069658	 0.803838	 -0.581237	 0.105619	 0
1461599046.743	 8	 0.467399	 -0.302067	 -0.509846	 2.865709	 -1.256384	 -0.021072	 -0.072361	 0.802213	 -0.583241	 0.105115	 0
1461599046.753	 8	 0.599636	 -0.479777	 -0.321880	 2.867594	 -1.262787	 -0.014502	 -0.074814	 0.800206	 -0.585523	 0.105998	 0
1461599046.763	 8	 0.810663	 -0.671752	 -0.162442	 2.860955	 -1.270588	 -0.014943	 -0.077037	 0.797584	 -0.588407	 0.108179	 0
1461599046.773	 8	 1.024751	 -0.904063	 0.009383	 2.844503	 -1.280040	 -0.023317	 -0.079133	 0.794227	 -0.591978	 0.111814	 0
1461599046.783	 8	 1.084118	 -1.130616	 0.179412	 2.817961	 -1.289948	 -0.039754	 -0.081161	 0.790445	 -0.595766	 0.116928	 0
1461599046.793	 8	 0.791633	 -1.250117	 0.302343	 2.786059	 -1.297443	 -0.060119	 -0.083216	 0.787156	 -0.598613	 0.122974	 0
1461599046.803	 8	 0.045542	 -1.099676	 0.359264	 2.759512	 -1.298604	 -0.075641	 -0.085156	 0.785797	 -0.598925	 0.128687	 0
1461599046.813	 8	 -1.007324	 -0.555201	 0.360709	 2.750317	 -1.290428	 -0.077760	 -0.086349	 0.787681	 -0.595489	 0.132267	 0
1461599046.823	 8	 -2.016431	 0.243114	 0.330030	 2.762602	 -1.272680	 -0.065317	 -0.086084	 0.793113	 -0.588254	 0.132358	 0
1461599046.833	 8	 -2.718376	 0.995912	 0.306911	 2.790275	 -1.247629	 -0.044864	 -0.084131	 0.801255	 -0.578184	 0.128906	 0
1461599046.843	 8	 -3.176963	 1.519422	 0.297657	 2.824881	 -1.217619	 -0.023043	 -0.080845	 0.811051	 -0.566189	 0.122846	 0
1461599046.853	 8	 -3.497563	 1.876677	 0.298444	 2.861493	 -1.184003	 -0.003017	 -0.076656	 0.821817	 -0.552734	 0.115004	 0
1461599046.863	 8	 -3.656834	 2.233796	 0.345784	 2.897380	 -1.148117	 0.012788	 -0.071472	 0.833012	 -0.538336	 0.105723	 0
1461599046.873	 8	 -3.665677	 2.758945	 0.450930	 2.932386	 -1.111414	 0.022536	 -0.064599	 0.844210	 -0.523628	 0.094607	 0
1461599046.883	 8	 -3.541411	 3.382134	 0.635760	 2.966797	 -1.075150	 0.024995	 -0.055386	 0.855049	 -0.509123	 0.081344	 0
1461599046.893	 8	 -3.259890	 4.005556	 0.916209	 2.999969	 -1.040892	 0.018769	 -0.043303	 0.865055	 -0.495423	 0.066037	 0
1461599046.903	 8	 -2.954010	 4.368279	 1.190821	 3.030854	 -1.009451	 0.004651	 -0.028794	 0.873901	 -0.482712	 0.049563	 0
1461599046.913	 8	 -2.726363	 4.484054	 1.407332	 3.058832	 -0.980528	 -0.015252	 -0.012757	 0.881576	 -0.470720	 0.032907	 0
1461599046.923	 8	 -2.611968	 4.449298	 1.500866	 3.084657	 -0.953219	 -0.038123	 0.003874	 0.888283	 -0.458982	 0.016546	 0
1461599046.933	 8	 -2.572461	 4.295437	 1.420223	 3.109770	 -0.926804	 -0.060768	 0.020063	 0.894227	 -0.447163	 0.000648	 0
1461599046.943	 8	 -2.531132	 4.006200	 1.152863	 3.135330	 -0.901131	 -0.080115	 0.034687	 0.899529	 -0.435236	 -0.014623	 0
1461599046.953	 8	 -2.425285	 3.478634	 0.753766	 -3.122386	 -0.876620	 -0.094015	 0.046618	 0.904237	 -0.423513	 -0.028628	 0
1461599046.963	 8	 -2.230231	 2.694998	 0.280103	 -3.098889	 -0.853895	 -0.101296	 0.054901	 0.908412	 -0.412485	 -0.040368	 0
1461599046.973	 8	 -1.944273	 1.702833	 -0.165384	 -3.079787	 -0.833685	 -0.101981	 0.059075	 0.912110	 -0.402716	 -0.048841	 0
1461599046.983	 8	 -1.637638	 0.650173	 -0.437895	 -3.067848	 -0.816339	 -0.098063	 0.059570	 0.915405	 -0.394525	 -0.053236	 0
1461599046.993	 8	 -1.423219	 -0.212492	 -0.508538	 -3.063877	 -0.801338	 -0.092439	 0.057648	 0.918423	 -0.387671	 -0.053740	 0
1461599047.003	 8	 -1.597792	 -0.874995	 -0.415133	 -3.067704	 -0.785914	 -0.087710	 0.054602	 0.921643	 -0.380797	 -0.050864	 0
1461599047.013	 8	 -2.474626	 -1.493552	 -0.119104	 -3.080520	 -0.763591	 -0.086900	 0.051655	 0.926195	 -0.370831	 -0.044483	 0
1461599047.023	 8	 -3.147377	 -1.722422	 0.315192	 -3.100910	 -0.733544	 -0.091783	 0.050102	 0.931979	 -0.357281	 -0.035415	 0
1461599047.033	 8	 -3.324054	 -1.473583	 0.677142	 -3.122447	 -0.700734	 -0.101047	 0.050713	 0.937839	 -0.342335	 -0.026313	 0
1461599047.043	 8	 -3.105161	 -0.859744	 0.784327	 -3.139452	 -0.668981	 -0.111462	 0.052966	 0.943091	 -0.327722	 -0.019296	 0
1461599047.053	 8	 -2.662424	 -0.154240	 0.715631	 3.134923	 -0.641177	 -0.120660	 0.056172	 0.947382	 -0.314741	 -0.015841	 0
1461599047.073	 9	 -1.532735	 1.091425	 0.463735	 3.139472	 -0.601534	 -0.134264	 0.063757	 0.952979	 -0.295653	 -0.018863	 0
1461599047.083	 9	 -0.884971	 1.642782	 0.341729	 -3.131114	 -0.591083	 -0.138798	 0.067858	 0.954223	 -0.290205	 -0.025197	 0
1461599047.093	 9	 -0.300679	 2.042608	 0.272153	 -3.113555	 -0.586740	 -0.142307	 0.072093	 0.954470	 -0.287466	 -0.033942	 0
1461599047.103	 9	 0.139305	 2.314827	 0.294302	 -3.092865	 -0.587273	 -0.145695	 0.076679	 0.953862	 -0.286884	 -0.044317	 0
1461599047.113	 9	 0.228123	 2.280210	 0.396585	 -3.072052	 -0.589821	 -0.149907	 0.081683	 0.952808	 -0.287172	 -0.054921	 0
1461599047.123	 9	 0.103257	 1.934860	 0.537271	 -3.055011	 -0.591552	 -0.155823	 0.086959	 0.951799	 -0.287104	 -0.063938	 0
1461599047.133	 9	 0.019380	 1.488067	 0.639354	 -3.043126	 -0.592487	 -0.163182	 0.092175	 0.950932	 -0.286769	 -0.070677	 0
1461599047.143	 9	 -0.015421	 1.110703	 0.655330	 -3.035572	 -0.593081	 -0.171098	 0.097027	 0.950194	 -0.286406	 -0.075421	 0
1461599047.153	 9	 -0.012875	 0.853436	 0.527154	 -3.030293	 -0.593530	 -0.177931	 0.101034	 0.949586	 -0.286095	 -0.078921	 0
1461599047.163	 9	 0.031450	 0.723928	 0.286832	 -3.025159	 -0.594095	 -0.182110	 0.103759	 0.949082	 -0.285933	 -0.081975	 0
1461599047.173	 9	 0.124273	 0.697444	 0.044856	 -3.018784	 -0.595188	 -0.183205	 0.105207	 0.948596	 -0.286075	 -0.085194	 0
1461599047.183	 9	 0.260419	 0.759496	 -0.143327	 -3.010522	 -0.597290	 -0.181662	 0.105694	 0.948005	 -0.286706	 -0.088963	 0
1461599047.193	 9	 0.423637	 0.852762	 -0.269640	 -3.000226	 -0.600745	 -0.178133	 0.105567	 0.947206	 -0.287967	 -0.093447	 0
1461599047.203	 9	 0.602881	 0.898563	 -0.334720	 -2.988554	 -0.605793	 -0.173276	 0.105066	 0.946141	 -0.289984	 -0.098426	 0
1461599047.213	 9	 0.777704	 0.881883	 -0.364107	 -2.976401	 -0.612481	 -0.167542	 0.104293	 0.944810	 -0.292813	 -0.103527	 0
1461599047.223	 9	 0.886347	 0.848498	 -0.377087	 -2.964162	 -0.620386	 -0.161212	 0.103331	 0.943272	 -0.296262	 -0.108578	 0
1461599047.233	 9	 0.783322	 0.745467	 -0.399530	 -2.952491	 -0.627801	 -0.154585	 0.102179	 0.941810	 -0.299540	 -0.113264	 0
1461599047.243	 9	 0.306928	 0.434109	 -0.406805	 -2.943680	 -0.631443	 -0.148550	 0.100785	 0.941038	 -0.301163	 -0.116581	 0
1461599047.253	 9	 0.323655	 0.256274	 -0.282846	 -2.938327	 -0.632762	 -0.144096	 0.099544	 0.940738	 -0.301780	 -0.118453	 0
1461599047.263	 9	 1.026252	 -0.142429	 0.021726	 -2.936381	 -0.641722	 -0.140915	 0.098678	 0.939357	 -0.306104	 -0.119043	 0
1461599047.273	 9	 0.016414	 -0.329994	 0.442289	 -2.942227	 -0.645798	 -0.144237	 0.099489	 0.938884	 -0.308121	 -0.116881	 0
1461599047.283	 9	 -0.730160	 1.450559	 0.590053	 -2.938220	 -0.640963	 -0.152762	 0.103933	 0.938988	 -0.305131	 -0.119976	 0
1461599047.293	 9	 -0.821259	 3.164408	 0.604662	 -2.915542	 -0.634229	 -0.162221	 0.111544	 0.938123	 -0.300135	 -0.131913	 0
1461599047.303	 9	 -0.657416	 3.217681	 0.683663	 -2.888460	 -0.628891	 -0.172247	 0.120042	 0.936507	 -0.295353	 -0.145986	 0
1461599047.313	 9	 -0.337995	 2.104671	 0.747260	 -2.870149	 -0.626699	 -0.182380	 0.127367	 0.934844	 -0.292422	 -0.155994	 0
1461599047.323	 9	 0.023124	 0.828405	 0.755687	 -2.864255	 -0.628121	 -0.191583	 0.132599	 0.933555	 -0.291981	 -0.160124	 0
1461599047.333	 9	 0.269487	 -0.037648	 0.670879	 -2.867253	 -0.632131	 -0.199189	 0.135909	 0.932646	 -0.293461	 -0.159938	 0
1461599047.343	 9	 0.443461	 -0.341461	 0.500279	 -2.873322	 -0.637401	 -0.204376	 0.137688	 0.931929	 -0.295943	 -0.158012	 0
1461599047.353	 9	 0.785533	 -0.337024	 0.370516	 -2.878234	 -0.645062	 -0.206893	 0.138485	 0.930902	 -0.299685	 -0.156311	 0
1461599047.363	 9	 1.253207	 -0.540222	 0.406118	 -2.883556	 -0.657015	 -0.207925	 0.138695	 0.929282	 -0.305584	 -0.154326	 0
1461599047.373	 9	 1.772746	 -0.613761	 0.448869	 -2.890055	 -0.673999	 -0.208158	 0.138525	 0.926921	 -0.313971	 -0.151822	 0
1461599047.383	 9	 1.545681	 -1.100545	 0.551827	 -2.898905	 -0.692053	 -0.208953	 0.138215	 0.924437	 -0.322958	 -0.148361	 0
1461599047.393	 9	 -0.031610	 -2.447846	 0.541300	 -2.924461	 -0.697148	 -0.215115	 0.137095	 0.924955	 -0.326653	 -0.137698	 0
1461599047.403	 9	 -1.017630	 -2.809221	 0.177768	 -2.955977	 -0.689140	 -0.220873	 0.134402	 0.928011	 -0.324676	 -0.123764	 0
1461599047.413	 9	 -0.685495	 -2.452274	 -0.186293	 -2.981843	 -0.680991	 -0.221394	 0.130280	 0.930890	 -0.322543	 -0.111523	 0
1461599047.423	 9	 -0.157068	 -2.207798	 -0.433744	 -3.001700	 -0.677657	 -0.217113	 0.125027	 0.932783	 -0.322476	 -0.101451	 0
1461599047.433	 9	 0.235556	 -2.134249	 -0.546252	 -3.018831	 -0.678412	 -0.210182	 0.119033	 0.933909	 -0.324211	 -0.092366	 0
1461599047.443	 9	 0.512708	 -1.994495	 -0.522852	 -3.034477	 -0.682238	 -0.202652	 0.113005	 0.934392	 -0.327246	 -0.083980	 0
1461599047.463	 10	 1.018850	 -1.766770	 -0.449470	 -3.061646	 -0.697964	 -0.188868	 0.102143	 0.933498	 -0.336605	 -0.069604	 0
1461599047.473	 10	 1.185263	 -1.990758	 -0.468990	 -3.076255	 -0.709087	 -0.181696	 0.096328	 0.932411	 -0.342767	 -0.061984	 0
1461599047.483	 10	 1.255420	 -2.254916	 -0.493374	 -3.093343	 -0.721222	 -0.174323	 0.089908	 0.931117	 -0.349439	 -0.053192	 0
1461599047.503	 11	 1.233699	 -2.501064	 -0.564750	 -3.131815	 -0.745904	 -0.158786	 0.075632	 0.928170	 -0.362853	 -0.033436	 0
1461599047.523	 12	 1.216486	 -2.090354	 -0.550121	 3.115477	 -0.770282	 -0.143617	 0.061592	 0.924630	 -0.375558	 -0.014882	 0
1461599047.533	 12	 1.276935	 -1.495945	 -0.546182	 3.103860	 -0.783029	 -0.136547	 0.055865	 0.922506	 -0.381822	 -0.008630	 0
1461599047.543	 12	 1.377119	 -0.811567	 -0.586514	 3.099253	 -0.796755	 -0.129185	 0.051285	 0.920093	 -0.388287	 -0.005564	 0
1461599047.553	 12	 1.503769	 -0.143471	 -0.661332	 3.102211	 -0.811710	 -0.120818	 0.047698	 0.917381	 -0.395100	 -0.005774	 0
1461599047.563	 12	 1.675061	 0.475663	 -0.723139	 3.112461	 -0.828228	 -0.111233	 0.045032	 0.914286	 -0.402456	 -0.009052	 0
1461599047.573	 12	 2.060268	 0.965513	 -0.779486	 3.129037	 -0.847767	 -0.100482	 0.043195	 0.910460	 -0.411064	 -0.014940	 0
1461599047.583	 12	 2.844253	 1.012082	 -0.934020	 -3.133445	 -0.874097	 -0.086860	 0.041058	 0.905068	 -0.422704	 -0.022064	 0
1461599047.593	 12	 3.599084	 0.458456	 -0.997966	 -3.114044	 -0.908206	 -0.070036	 0.037498	 0.897807	 -0.437912	 -0.027727	 0
1461599047.603	 12	 3.835480	 -0.467464	 -0.834918	 -3.103825	 -0.946736	 -0.053947	 0.032605	 0.889323	 -0.455186	 -0.029093	 0
1461599047.613	 12	 3.463289	 -1.375472	 -0.500140	 -3.107948	 -0.984366	 -0.043727	 0.027211	 0.880794	 -0.472047	 -0.025151	 0
1461599047.623	 12	 2.692058	 -2.092593	 -0.107878	 -3.130674	 -1.018789	 -0.045097	 0.022345	 0.872745	 -0.487410	 -0.015760	 0
1461599047.633	 12	 1.787010	 -2.409618	 0.249820	 3.126171	 -1.038918	 -0.048345	 0.017155	 0.867901	 -0.496413	 -0.005306	 0
1461599047.653	 13	 0.465825	 -2.482954	 0.602750	 3.057868	 -1.056024	 -0.070449	 0.009323	 0.863261	 -0.504337	 0.018401	 0
1461599047.663	 13	 0.191017	 -2.604408	 0.610407	 3.020930	 -1.057831	 -0.083383	 0.005521	 0.862303	 -0.505411	 0.031018	 0
1461599047.673	 13	 0.161649	 -2.864563	 0.511258	 2.983118	 -1.058584	 -0.094777	 0.000839	 0.861384	 -0.506009	 0.044403	 0
1461599047.683	 13	 0.375896	 -3.215399	 0.326014	 2.944254	 -1.060972	 -0.103460	 -0.005391	 0.859795	 -0.507212	 0.058823	 0
1461599047.693	 13	 0.727514	 -3.398624	 0.135805	 2.904907	 -1.066789	 -0.109937	 -0.012964	 0.857070	 -0.509726	 0.073773	 0
1461599047.703	 13	 1.090222	 -3.305016	 -0.009294	 2.866389	 -1.076422	 -0.115730	 -0.021007	 0.853154	 -0.513717	 0.088214	 0
1461599047.713	 13	 1.393331	 -2.985460	 -0.114470	 2.829509	 -1.089979	 -0.122522	 -0.028697	 0.848091	 -0.519286	 0.101293	 0
1461599047.723	 13	 1.619297	 -2.517711	 -0.202675	 2.796560	 -1.105399	 -0.129858	 -0.035527	 0.842557	 -0.525584	 0.112238	 0
1461599047.733	 13	 1.788097	 -1.960379	 -0.281022	 2.767988	 -1.122689	 -0.138265	 -0.041167	 0.836655	 -0.532675	 0.120710	 0
1461599047.743	 13	 1.942184	 -1.351978	 -0.363029	 2.744400	 -1.141613	 -0.147682	 -0.045451	 0.830542	 -0.540495	 0.126486	 0
1461599047.753	 13	 2.082504	 -0.715926	 -0.451054	 2.726291	 -1.162128	 -0.157926	 -0.048294	 0.824301	 -0.549041	 0.129421	 0
1461599047.763	 13	 2.146914	 -0.111541	 -0.536580	 2.714065	 -1.183755	 -0.168378	 -0.049741	 0.818086	 -0.558095	 0.129583	 0
1461599047.773	 13	 2.033792	 0.400927	 -0.608627	 2.708537	 -1.205089	 -0.177335	 -0.050027	 0.812279	 -0.567007	 0.127297	 0
1461599047.783	 13	 1.661813	 0.774921	 -0.666920	 2.711448	 -1.223892	 -0.181600	 -0.049585	 0.807496	 -0.574754	 0.123081	 0
1461599047.793	 13	 1.116310	 0.994300	 -0.702760	 2.724224	 -1.238203	 -0.178119	 -0.048884	 0.804267	 -0.580470	 0.117560	 0
1461599047.803	 13	 0.610681	 1.039394	 -0.702201	 2.745162	 -1.247680	 -0.166983	 -0.048270	 0.802570	 -0.584052	 0.111510	 0
1461599047.813	 13	 0.287934	 0.908743	 -0.662239	 2.769522	 -1.253497	 -0.151343	 -0.047999	 0.801887	 -0.586070	 0.105806	 0
1461599047.823	 13	 0.180271	 0.637389	 -0.577500	 2.791780	 -1.257426	 -0.135420	 -0.048219	 0.801544	 -0.587327	 0.101236	 0
1461599047.833	 13	 0.281563	 0.278575	 -0.442106	 2.806978	 -1.261325	 -0.123367	 -0.048920	 0.800899	 -0.588631	 0.098396	 0
1461599047.843	 13	 0.560120	 -0.095314	 -0.260436	 2.811196	 -1.266875	 -0.118905	 -0.049930	 0.799403	 -0.590704	 0.097619	 0
1461599047.853	 13	 0.914899	 -0.400059	 -0.046814	 2.802198	 -1.275010	 -0.124874	 -0.050902	 0.796769	 -0.593968	 0.098844	 0
1461599047.863	 13	 1.195290	 -0.620714	 0.145858	 2.780327	 -1.285307	 -0.141755	 -0.051631	 0.793132	 -0.598275	 0.101700	 0
1461599047.873	 13	 1.308117	 -0.782913	 0.264863	 2.748586	 -1.296432	 -0.167032	 -0.052250	 0.788929	 -0.603065	 0.105700	 0
1461599047.883	 13	 1.190292	 -0.909900	 0.306272	 2.711920	 -1.306558	 -0.195937	 -0.053066	 0.784794	 -0.607532	 0.110396	 0
1461599047.893	 13	 0.788565	 -0.983395	 0.276047	 2.677790	 -1.313515	 -0.221230	 -0.054379	 0.781555	 -0.610670	 0.115312	 0
1461599047.903	 13	 0.055175	 -0.963766	 0.193091	 2.656208	 -1.314829	 -0.233444	 -0.056369	 0.780251	 -0.611282	 0.119856	 0
1461599047.913	 13	 -0.893115	 -0.797831	 0.104842	 2.655041	 -1.308499	 -0.225869	 -0.058868	 0.781754	 -0.608422	 0.123362	 0
1461599047.923	 13	 -1.771374	 -0.543371	 0.078621	 2.672449	 -1.294242	 -0.201489	 -0.061375	 0.786132	 -0.602058	 0.125520	 0
1461599047.933	 13	 -2.381392	 -0.259475	 0.113218	 2.699540	 -1.273627	 -0.169777	 -0.063384	 0.792664	 -0.593026	 0.126435	 0
1461599047.943	 13	 -2.791537	 0.085562	 0.153038	 2.730261	 -1.248505	 -0.137453	 -0.064536	 0.800622	 -0.582201	 0.126020	 0
1461599047.953	 13	 -3.169240	 0.540947	 0.169090	 2.763842	 -1.219483	 -0.106325	 -0.064579	 0.809792	 -0.569856	 0.123814	 0
1461599047.963	 13	 -3.529179	 1.132507	 0.196913	 2.800460	 -1.186609	 -0.077528	 -0.063167	 0.820131	 -0.556030	 0.119273	 0
1461599047.973	 13	 -3.783955	 1.827100	 0.248225	 2.839495	 -1.150475	 -0.053051	 -0.059834	 0.831389	 -0.540999	 0.111949	 0
1461599047.983	 13	 -3.758510	 2.614798	 0.344857	 2.879648	 -1.113246	 -0.035320	 -0.054122	 0.842859	 -0.525674	 0.101617	 0
1461599047.993	 13	 -3.467634	 3.447412	 0.582408	 2.918957	 -1.077563	 -0.027600	 -0.045222	 0.853727	 -0.511182	 0.088305	 0
1461599048.003	 13	 -3.136921	 4.095129	 0.859457	 2.956269	 -1.044475	 -0.030094	 -0.033166	 0.863584	 -0.497831	 0.072713	 0
1461599048.013	 13	 -2.900644	 4.489259	 1.036918	 2.992101	 -1.013715	 -0.039703	 -0.018937	 0.872381	 -0.485278	 0.055666	 0
1461599048.023	 13	 -2.771765	 4.655926	 1.044807	 3.027847	 -0.984591	 -0.052199	 -0.003897	 0.880227	 -0.473032	 0.037761	 0
1461599048.033	 13	 -2.686908	 4.646304	 0.925679	 3.064223	 -0.956731	 -0.064569	 0.010840	 0.887197	 -0.460853	 0.019468	 0
1461599048.043	 13	 -2.587172	 4.451107	 0.742881	 3.100582	 -0.930162	 -0.075395	 0.024489	 0.893309	 -0.448773	 0.001414	 0
1461599048.053	 13	 -2.442755	 4.034253	 0.519263	 3.135310	 -0.905220	 -0.083945	 0.036362	 0.898570	 -0.437045	 -0.015527	 0
1461599048.063	 13	 -2.257954	 3.392539	 0.251637	 -3.116475	 -0.882193	 -0.089412	 0.045766	 0.903070	 -0.425963	 -0.030424	 0
1461599048.073	 13	 -2.043231	 2.539032	 -0.022484	 -3.090334	 -0.861252	 -0.091369	 0.052172	 0.906970	 -0.415804	 -0.042320	 0
1461599048.083	 13	 -1.826210	 1.457159	 -0.252922	 -3.071913	 -0.842381	 -0.090075	 0.055290	 0.910483	 -0.406754	 -0.050152	 0
1461599048.093	 13	 -1.741855	 -0.006491	 -0.382379	 -3.065528	 -0.824689	 -0.086686	 0.054893	 0.914001	 -0.398583	 -0.052156	 0
1461599048.103	 13	 -1.890063	 -1.584257	 -0.355271	 -3.075072	 -0.806082	 -0.083178	 0.051256	 0.918026	 -0.390390	 -0.046861	 0
1461599048.113	 13	 -2.162566	 -2.522127	 -0.139947	 -3.097546	 -0.785066	 -0.081931	 0.046247	 0.922599	 -0.381283	 -0.035992	 0
1461599048.123	 13	 -2.392131	 -2.796902	 0.156843	 -3.126610	 -0.761694	 -0.084004	 0.041762	 0.927388	 -0.371077	 -0.022556	 0
1461599048.133	 13	 -2.539062	 -2.745413	 0.450620	 3.125429	 -0.736630	 -0.089209	 0.038691	 0.932107	 -0.360010	 -0.008522	 0
1461599048.143	 13	 -2.505093	 -2.445653	 0.586334	 3.095617	 -0.711146	 -0.095656	 0.036814	 0.936510	 -0.348668	 0.004884	 0
1461599048.153	 13	 -2.221838	 -1.698532	 0.618529	 3.072601	 -0.687811	 -0.101901	 0.036304	 0.940256	 -0.338182	 0.015266	 0
1461599048.163	 13	 -1.830280	 -0.818976	 0.623305	 3.058354	 -0.668071	 -0.108008	 0.037329	 0.943269	 -0.329218	 0.021569	 0
1461599048.173	 13	 -1.380020	 0.091003	 0.593748	 3.053315	 -0.652647	 -0.113970	 0.039774	 0.945574	 -0.322111	 0.023488	 0
1461599048.183	 13	 -0.915315	 0.915682	 0.540890	 3.057029	 -0.641913	 -0.119784	 0.043438	 0.947184	 -0.317028	 0.021173	 0
1461599048.193	 13	 -0.493405	 1.520104	 0.457522	 3.067631	 -0.635597	 -0.125156	 0.047835	 0.948141	 -0.313848	 0.015524	 0
1461599048.203	 13	 -0.148195	 1.927946	 0.369853	 3.083293	 -0.633064	 -0.129781	 0.052544	 0.948506	 -0.312282	 0.007463	 0
1461599048.213	 13	 0.025735	 2.146567	 0.373570	 3.101648	 -0.632868	 -0.134297	 0.057553	 0.948437	 -0.311690	 -0.001939	 0
1461599048.223	 13	 -0.050764	 2.132639	 0.475354	 3.119881	 -0.632517	 -0.139830	 0.063022	 0.948264	 -0.310956	 -0.011433	 0
1461599048.233	 13	 -0.207314	 1.886051	 0.582064	 3.135465	 -0.630767	 -0.146708	 0.068726	 0.948186	 -0.309559	 -0.019828	 0
1461599048.243	 13	 -0.344674	 1.502458	 0.577559	 -3.136060	 -0.627618	 -0.153991	 0.074014	 0.948277	 -0.307566	 -0.026367	 0
1461599048.253	 13	 -0.370923	 1.257963	 0.439095	 -3.126511	 -0.623952	 -0.159973	 0.078349	 0.948474	 -0.305376	 -0.031678	 0
1461599048.263	 13	 -0.292900	 1.234924	 0.227181	 -3.116302	 -0.620831	 -0.163530	 0.081614	 0.948634	 -0.303426	 -0.036946	 0
1461599048.273	 13	 -0.154650	 1.324331	 -0.001264	 -3.103748	 -0.618923	 -0.164262	 0.083871	 0.948644	 -0.301986	 -0.042942	 0
1461599048.283	 13	 0.034104	 1.441637	 -0.175535	 -3.088639	 -0.618700	 -0.162603	 0.085363	 0.948398	 -0.301280	 -0.049849	 0
1461599048.293	 13	 0.272030	 1.507279	 -0.267586	 -3.071832	 -0.620637	 -0.159369	 0.086367	 0.947790	 -0.301565	 -0.057394	 0
1461599048.303	 13	 0.542278	 1.569165	 -0.277889	 -3.054035	 -0.625129	 -0.155465	 0.087238	 0.946721	 -0.303044	 -0.065375	 0
1461599048.313	 13	 0.811629	 1.626091	 -0.239206	 -3.035555	 -0.632310	 -0.151489	 0.088250	 0.945134	 -0.305776	 -0.073718	 0
1461599048.323	 13	 1.037915	 1.607586	 -0.206178	 -3.016982	 -0.641844	 -0.147458	 0.089353	 0.943084	 -0.309622	 -0.082116	 0
1461599048.333	 13	 1.155751	 1.474304	 -0.204181	 -2.999129	 -0.652842	 -0.143028	 0.090272	 0.940748	 -0.314208	 -0.090095	 0
1461599048.343	 13	 0.989242	 1.052227	 -0.247158	 -2.984345	 -0.662912	 -0.138125	 0.090548	 0.938638	 -0.318516	 -0.096478	 0
1461599048.353	 13	 1.035927	 0.529966	 -0.232175	 -2.974701	 -0.671907	 -0.133063	 0.089964	 0.936903	 -0.322564	 -0.100356	 0
1461599048.363	 13	 1.203537	 -0.082725	 -0.025117	 -2.971299	 -0.684104	 -0.129198	 0.089060	 0.934856	 -0.328337	 -0.101525	 0
1461599048.373	 13	 -0.534608	 0.121814	 0.343621	 -2.974255	 -0.684124	 -0.132492	 0.090115	 0.934855	 -0.328312	 -0.100684	 0
1461599048.383	 13	 -1.130760	 2.364417	 0.466665	 -2.961798	 -0.674162	 -0.140650	 0.095664	 0.935504	 -0.322631	 -0.107661	 0
1461599048.393	 13	 -0.888159	 3.556123	 0.482036	 -2.932956	 -0.665642	 -0.148905	 0.103845	 0.934852	 -0.316714	 -0.122312	 0
1461599048.403	 13	 -0.503086	 2.968723	 0.597911	 -2.906341	 -0.660974	 -0.157559	 0.111889	 0.933438	 -0.312526	 -0.136021	 0
1461599048.413	 13	 -0.110893	 1.574493	 0.778689	 -2.892801	 -0.660759	 -0.167204	 0.118488	 0.931971	 -0.310971	 -0.143835	 0
1461599048.423	 13	 0.184722	 0.139506	 0.873601	 -2.894250	 -0.664007	 -0.177390	 0.123150	 0.930921	 -0.311847	 -0.144812	 0
1461599048.433	 13	 0.349743	 -0.790008	 0.804898	 -2.906042	 -0.669085	 -0.186704	 0.125851	 0.930337	 -0.314297	 -0.140900	 0
1461599048.443	 13	 0.430226	 -0.971520	 0.594685	 -2.920052	 -0.674551	 -0.193651	 0.127078	 0.929947	 -0.317264	 -0.135622	 0
1461599048.453	 13	 0.681675	 -0.644156	 0.371732	 -2.929809	 -0.681302	 -0.197281	 0.127443	 0.929224	 -0.320804	 -0.131854	 0
1461599048.463	 13	 1.300669	 -0.125325	 0.299764	 -2.932935	 -0.692958	 -0.198158	 0.127724	 0.927374	 -0.326396	 -0.130879	 0
1461599048.473	 13	 2.074239	 0.543379	 0.276870	 -2.928381	 -0.711919	 -0.196650	 0.128392	 0.923850	 -0.335047	 -0.133268	 0
1461599048.483	 13	 2.703730	 1.278916	 0.171657	 -2.913890	 -0.737482	 -0.191768	 0.129484	 0.918566	 -0.346318	 -0.139766	 0
1461599048.493	 13	 1.700728	 0.141823	 0.486341	 -2.906751	 -0.758871	 -0.189932	 0.130669	 0.914206	 -0.355870	 -0.143209	 0
1461599048.513	 14	 -0.827936	 -2.746399	 0.565677	 -2.958161	 -0.757348	 -0.209381	 0.130361	 0.916647	 -0.357226	 -0.123103	 0
1461599048.523	 14	 -0.585482	 -2.876093	 0.233038	 -2.990897	 -0.751277	 -0.215165	 0.127062	 0.919306	 -0.356191	 -0.108904	 0
1461599048.533	 14	 -0.167545	 -2.745162	 -0.023034	 -3.019334	 -0.748607	 -0.216147	 0.122413	 0.921195	 -0.356679	 -0.095893	 0
1461599048.543	 14	 0.216316	 -2.678325	 -0.184552	 -3.044780	 -0.749706	 -0.213932	 0.116847	 0.922268	 -0.358809	 -0.083814	 0
1461599048.553	 14	 0.481692	 -2.497478	 -0.219285	 -3.067921	 -0.753727	 -0.210470	 0.111081	 0.922629	 -0.362125	 -0.072683	 0
1461599048.563	 14	 0.694497	 -2.196947	 -0.198091	 -3.088419	 -0.760003	 -0.207150	 0.105788	 0.922341	 -0.366251	 -0.062891	 0
1461599048.573	 14	 0.903712	 -1.924524	 -0.241074	 -3.105679	 -0.768433	 -0.203514	 0.100856	 0.921464	 -0.371143	 -0.054631	 0
1461599048.583	 14	 1.027992	 -1.980773	 -0.320480	 -3.121928	 -0.778391	 -0.198908	 0.095573	 0.920228	 -0.376648	 -0.046725	 0
1461599048.593	 14	 1.042860	 -2.181130	 -0.369368	 -3.139551	 -0.788802	 -0.193682	 0.089657	 0.918863	 -0.382364	 -0.038092	 0
1461599048.603	 14	 0.978091	 -2.288785	 -0.427357	 3.125022	 -0.798815	 -0.187925	 0.083229	 0.917498	 -0.387860	 -0.028885	 0
1461599048.613	 14	 0.871472	 -2.193393	 -0.516131	 3.107576	 -0.807933	 -0.181158	 0.076505	 0.916212	 -0.392815	 -0.019976	 0
1461599048.623	 14	 0.737042	 -1.880979	 -0.610103	 3.093710	 -0.815877	 -0.173099	 0.069864	 0.915064	 -0.397019	 -0.012391	 0
1461599048.633	 14	 0.646360	 -1.340052	 -0.708725	 3.085744	 -0.822863	 -0.163624	 0.063743	 0.914040	 -0.400520	 -0.007164	 0
1461599048.643	 14	 0.658900	 -0.631411	 -0.812014	 3.085702	 -0.829779	 -0.152576	 0.058491	 0.913001	 -0.403709	 -0.005213	 0
1461599048.653	 14	 0.801166	 0.187604	 -0.896221	 3.094690	 -0.837799	 -0.140124	 0.054420	 0.911713	 -0.407145	 -0.007098	 0
1461599048.663	 14	 1.061164	 1.033261	 -0.925786	 3.112864	 -0.848051	 -0.126850	 0.051866	 0.909888	 -0.411393	 -0.013009	 0
1461599048.673	 14	 1.404898	 1.737391	 -0.930752	 3.139029	 -0.861309	 -0.113030	 0.050793	 0.907271	 -0.416865	 -0.022418	 0
1461599048.693	 15	 2.622535	 2.673744	 -0.973140	 -3.071392	 -0.902827	 -0.080260	 0.051375	 0.897939	 -0.434352	 -0.049043	 0
1461599048.703	 15	 3.243653	 2.798343	 -0.847366	 -3.028068	 -0.932942	 -0.060998	 0.052695	 0.890530	 -0.447259	 -0.064340	 0
1461599048.713	 15	 3.558871	 2.442939	 -0.594434	 -2.988007	 -0.967838	 -0.042643	 0.054501	 0.881608	 -0.462327	 -0.077783	 0
1461599048.723	 15	 3.596308	 1.734709	 -0.267767	 -2.954253	 -1.002741	 -0.025302	 0.055996	 0.872442	 -0.477445	 -0.088068	 0
1461599048.733	 15	 3.368815	 0.750653	 0.050115	 -2.932650	 -1.036441	 -0.011829	 0.056763	 0.863645	 -0.492090	 -0.093502	 0
1461599048.743	 15	 2.863845	 -0.413816	 0.311182	 -2.927043	 -1.066357	 -0.003995	 0.056130	 0.856135	 -0.505166	 -0.093217	 0
1461599048.753	 15	 2.162718	 -1.472949	 0.498202	 -2.938504	 -1.090243	 -0.003109	 0.053885	 0.850577	 -0.515715	 -0.087480	 0
1461599048.763	 15	 1.436259	 -2.202668	 0.633089	 -2.964539	 -1.107216	 -0.009398	 0.050464	 0.847074	 -0.523342	 -0.077666	 0
1461599048.773	 15	 0.861434	 -2.632298	 0.703371	 -3.000525	 -1.118100	 -0.021218	 0.046348	 0.845207	 -0.528399	 -0.065356	 0
1461599048.783	 15	 0.506893	 -2.904642	 0.698595	 -3.041958	 -1.124705	 -0.035670	 0.041615	 0.844346	 -0.531680	 -0.051618	 0
1461599048.793	 15	 0.379703	 -3.118517	 0.634832	 -3.085654	 -1.129183	 -0.050095	 0.036109	 0.843837	 -0.534102	 -0.037014	 0
1461599048.813	 16	 0.783809	 -3.437397	 0.386418	 3.110015	 -1.140543	 -0.073099	 0.022237	 0.841399	 -0.539918	 -0.006444	 0
1461599048.823	 16	 1.319253	 -3.381465	 0.249056	 3.068248	 -1.152129	 -0.081463	 0.014170	 0.838167	 -0.545162	 0.008555	 0
1461599048.833	 16	 1.880083	 -2.918274	 0.107803	 3.030465	 -1.169525	 -0.089262	 0.006521	 0.833095	 -0.552667	 0.021671	 0
1461599048.843	 16	 2.203386	 -2.127898	 -0.038996	 3.000607	 -1.190782	 -0.096279	 0.000286	 0.826817	 -0.561598	 0.031326	 0
1461599048.853	 16	 2.232654	 -1.242952	 -0.170631	 2.980749	 -1.213134	 -0.101867	 -0.004042	 0.820224	 -0.570831	 0.036991	 0
1461599048.863	 16	 2.082472	 -0.388362	 -0.307380	 2.972530	 -1.234553	 -0.104264	 -0.006463	 0.813989	 -0.579554	 0.038703	 0
1461599048.873	 16	 1.864609	 0.386523	 -0.462400	 2.977350	 -1.254198	 -0.101256	 -0.007233	 0.808406	 -0.587433	 0.036741	 0
1461599048.883	 16	 1.637987	 1.128344	 -0.633638	 2.996921	 -1.271835	 -0.090626	 -0.006532	 0.803544	 -0.594389	 0.031253	 0
1461599048.893	 16	 1.458230	 1.846662	 -0.800174	 3.032401	 -1.287655	 -0.071013	 -0.004385	 0.799272	 -0.600538	 0.022340	 0
1461599048.903	 16	 1.375438	 2.504323	 -0.931882	 3.083527	 -1.302258	 -0.042242	 -0.000799	 0.795259	 -0.606182	 0.010290	 0
1461599048.913	 16	 1.399301	 3.040293	 -0.934563	 -3.136514	 -1.316392	 -0.007093	 0.004359	 0.791084	 -0.611678	 -0.004178	 0
1461599048.923	 16	 1.290784	 3.014684	 -0.550182	 -3.077321	 -1.329554	 0.022191	 0.011091	 0.786819	 -0.616808	 -0.018446	 0
1461599048.933	 16	 0.973447	 2.129475	 -0.131483	 -3.040443	 -1.339894	 0.035521	 0.017483	 0.783286	 -0.620756	 -0.028606	 0
1461599048.943	 16	 0.742659	 1.000965	 0.065718	 -3.025684	 -1.347675	 0.037728	 0.021421	 0.780664	 -0.623685	 -0.033504	 0
1461599048.953	 16	 0.572295	 -0.047260	 0.064907	 -3.023225	 -1.353987	 0.037938	 0.022289	 0.778658	 -0.626118	 -0.034234	 0
1461599048.963	 16	 0.454318	 -0.759253	 -0.043004	 -3.026517	 -1.358649	 0.040959	 0.020216	 0.777287	 -0.628013	 -0.031886	 0
1461599048.973	 16	 0.436183	 -0.889772	 -0.154900	 -3.026867	 -1.362863	 0.049689	 0.016840	 0.776052	 -0.629781	 -0.028891	 0
1461599048.983	 16	 0.409311	 -0.518150	 -0.107512	 -3.024608	 -1.366906	 0.058492	 0.014264	 0.774819	 -0.631450	 -0.026875	 0
1461599048.993	 16	 0.199510	 0.072195	 0.106566	 -3.026111	 -1.369603	 0.057781	 0.014150	 0.773985	 -0.632493	 -0.026439	 0
1461599049.003	 16	 -0.246174	 0.623090	 0.358567	 -3.036328	 -1.368733	 0.042316	 0.016881	 0.774277	 -0.632028	 -0.027396	 0
1461599049.013	 16	 -0.875597	 0.998253	 0.503956	 -3.053298	 -1.362144	 0.015605	 0.021731	 0.776334	 -0.629261	 -0.029378	 0
1461599049.023	 16	 -1.627269	 1.161975	 0.483248	 -3.069975	 -1.348227	 -0.013041	 0.027438	 0.780598	 -0.623609	 -0.032037	 0
1461599049.033	 16	 -2.357587	 1.468893	 0.563869	 -3.084747	 -1.326753	 -0.042185	 0.034107	 0.787055	 -0.614923	 -0.035369	 0
1461599049.043	 16	 -2.804509	 2.092412	 0.416895	 -3.088942	 -1.300021	 -0.066572	 0.042406	 0.794831	 -0.603952	 -0.041077	 0
1461599049.053	 16	 -3.111947	 2.634983	 0.017500	 -3.074347	 -1.269711	 -0.077437	 0.051071	 0.803328	 -0.591234	 -0.049990	 0
1461599049.063	 16	 -3.207023	 3.068480	 -0.523309	 -3.041571	 -1.237447	 -0.074174	 0.059141	 0.811967	 -0.577362	 -0.062173	 0
1461599049.073	 16	 -3.128435	 2.862443	 -1.182420	 -2.994683	 -1.205074	 -0.056159	 0.064645	 0.820187	 -0.563286	 -0.076310	 0
1461599049.083	 16	 -3.339031	 1.643379	 -1.437056	 -2.954764	 -1.170129	 -0.033495	 0.065406	 0.829063	 -0.548466	 -0.086961	 0
1461599049.093	 16	 -3.178079	 1.645554	 -1.218890	 -2.924864	 -1.135899	 -0.018286	 0.065835	 0.837494	 -0.533894	 -0.096058	 0
1461599049.103	 16	 -2.955050	 1.842785	 -0.918451	 -2.900887	 -1.104376	 -0.011694	 0.067920	 0.844838	 -0.520150	 -0.105262	 0
1461599049.113	 16	 -2.813379	 1.967036	 -0.594537	 -2.882558	 -1.075141	 -0.012803	 0.071585	 0.851320	 -0.507041	 -0.114187	 0
1461599049.123	 16	 -2.660043	 2.179696	 -0.394596	 -2.866580	 -1.047946	 -0.018830	 0.076653	 0.856982	 -0.494462	 -0.123344	 0
1461599049.133	 16	 -2.482065	 2.349398	 -0.388171	 -2.849215	 -1.022627	 -0.025540	 0.082291	 0.861820	 -0.482442	 -0.133209	 0
1461599049.143	 16	 -2.282850	 2.386150	 -0.519587	 -2.829137	 -0.998919	 -0.029989	 0.087515	 0.865936	 -0.471017	 -0.143665	 0
1461599049.153	 16	 -2.090113	 2.267945	 -0.754701	 -2.806423	 -0.976470	 -0.030437	 0.091484	 0.869498	 -0.460201	 -0.154334	 0
1461599049.163	 16	 -1.915307	 1.984792	 -1.009312	 -2.782530	 -0.954826	 -0.026467	 0.093607	 0.872749	 -0.449959	 -0.164571	 0
1461599049.173	 16	 -1.762915	 1.604682	 -1.149528	 -2.760007	 -0.933990	 -0.019693	 0.094004	 0.875839	 -0.440347	 -0.173676	 0
1461599049.183	 16	 -1.670949	 1.160105	 -1.110769	 -2.741936	 -0.914084	 -0.013021	 0.093322	 0.878916	 -0.431345	 -0.180939	 0
1461599049.193	 16	 -1.671801	 0.665228	 -1.005594	 -2.730329	 -0.894719	 -0.008339	 0.092007	 0.882222	 -0.422701	 -0.185856	 0
1461599049.203	 16	 -1.835690	 0.002717	 -0.909084	 -2.726771	 -0.874664	 -0.006124	 0.089929	 0.886198	 -0.413873	 -0.187814	 0
1461599049.213	 16	 -2.170803	 -0.794067	 -0.769755	 -2.733857	 -0.852388	 -0.007588	 0.087081	 0.891365	 -0.404144	 -0.185882	 0
1461599049.223	 16	 -2.368410	 -1.045668	 -0.784231	 -2.746615	 -0.827827	 -0.010708	 0.083719	 0.897322	 -0.393410	 -0.181748	 0
1461599049.233	 16	 -2.294059	 -0.821033	 -0.871246	 -2.756418	 -0.803131	 -0.012117	 0.080282	 0.902963	 -0.382559	 -0.178494	 0
1461599049.243	 16	 -2.179695	 -0.745123	 -0.917363	 -2.763701	 -0.779272	 -0.011793	 0.076701	 0.908148	 -0.372060	 -0.175943	 0
1461599049.253	 16	 -2.092252	 -0.782405	 -0.889696	 -2.770780	 -0.756318	 -0.010890	 0.073035	 0.913034	 -0.361944	 -0.173295	 0
1461599049.273	 17	 -1.889538	 -0.661988	 -0.776304	 -2.784685	 -0.713542	 -0.009092	 0.066186	 0.921857	 -0.342945	 -0.167891	 0
1461599049.283	 17	 -1.739481	 -0.389354	 -0.667432	 -2.788993	 -0.694449	 -0.008639	 0.063681	 0.925479	 -0.334299	 -0.166367	 0
1461599049.293	 17	 -1.570388	 -0.129742	 -0.586556	 -2.790807	 -0.677213	 -0.008508	 0.061913	 0.928493	 -0.326374	 -0.165977	 0
1461599049.303	 17	 -1.383078	 0.127843	 -0.484542	 -2.790288	 -0.662033	 -0.008642	 0.060818	 0.930906	 -0.319287	 -0.166645	 0
1461599049.313	 17	 -1.215685	 0.444137	 -0.361560	 -2.787162	 -0.648893	 -0.009455	 0.060608	 0.932707	 -0.312998	 -0.168573	 0
1461599049.323	 17	 -1.084336	 0.815804	 -0.244143	 -2.780995	 -0.637503	 -0.011148	 0.061403	 0.933906	 -0.307347	 -0.172006	 0
1461599049.333	 17	 -0.991256	 1.249016	 -0.162056	 -2.771036	 -0.627409	 -0.013546	 0.063178	 0.934511	 -0.302109	 -0.177280	 0
1461599049.343	 17	 -0.925972	 1.703306	 -0.117898	 -2.756801	 -0.618201	 -0.016359	 0.065813	 0.934524	 -0.297089	 -0.184585	 0
1461599049.353	 17	 -0.873565	 2.160672	 -0.094914	 -2.738071	 -0.609633	 -0.019388	 0.069199	 0.933925	 -0.292164	 -0.193998	 0
1461599049.363	 17	 -0.792477	 2.561824	 -0.038599	 -2.715340	 -0.601941	 -0.022742	 0.073313	 0.932667	 -0.287424	 -0.205290	 0
1461599049.373	 17	 -0.682292	 2.944423	 0.111077	 -2.689331	 -0.595781	 -0.027134	 0.078439	 0.930642	 -0.283098	 -0.218195	 0
1461599049.383	 17	 -0.578180	 3.320260	 0.352398	 -2.660627	 -0.591697	 -0.033505	 0.084992	 0.927735	 -0.279306	 -0.232536	 0
1461599049.393	 17	 -0.494670	 3.611203	 0.612293	 -2.630027	 -0.589795	 -0.042228	 0.093060	 0.923943	 -0.276012	 -0.247964	 0
1461599049.403	 17	 -0.475910	 3.798746	 0.814238	 -2.598539	 -0.589586	 -0.053161	 0.102395	 0.919409	 -0.272977	 -0.263981	 0
1461599049.413	 17	 -0.564313	 3.830952	 0.819570	 -2.566783	 -0.589445	 -0.065000	 0.112114	 0.914474	 -0.269599	 -0.280151	 0
1461599049.423	 17	 -0.713914	 3.558088	 0.825794	 -2.537355	 -0.588366	 -0.077688	 0.121693	 0.909654	 -0.265558	 -0.295297	 0
1461599049.433	 17	 -0.826220	 2.967782	 0.926790	 -2.513938	 -0.587036	 -0.092073	 0.131120	 0.905405	 -0.261300	 -0.307850	 0
1461599049.443	 17	 -0.839150	 1.724149	 1.030432	 -2.501635	 -0.586162	 -0.107815	 0.139707	 0.902548	 -0.257615	 -0.315473	 0
1461599049.453	 17	 0.008200	 -5.457253	 1.238656	 -2.538569	 -0.590227	 -0.121631	 0.141739	 0.906669	 -0.259946	 -0.300481	 0
1461599049.463	 17	 1.234435	 -10.520647	 1.356714	 -2.639870	 -0.606434	 -0.129101	 0.133604	 0.917801	 -0.273361	 -0.255079	 0
1461599049.473	 17	 0.005294	 -7.342368	 0.596603	 -2.731509	 -0.613747	 -0.135775	 0.124676	 0.926992	 -0.281904	 -0.213712	 0
1461599049.483	 17	 -0.945276	 -1.085115	 0.217617	 -2.760170	 -0.607467	 -0.142391	 0.123199	 0.930520	 -0.280051	 -0.201312	 0
1461599049.493	 17	 -1.147945	 2.731057	 0.274076	 -2.745469	 -0.598159	 -0.150316	 0.128164	 0.929928	 -0.273946	 -0.209195	 0
1461599049.503	 17	 -1.338796	 4.537962	 0.320261	 -2.708749	 -0.587570	 -0.160000	 0.136690	 0.926867	 -0.265492	 -0.227480	 0
1461599049.513	 17	 -1.089287	 4.049847	 0.578921	 -2.672859	 -0.579169	 -0.171618	 0.145959	 0.923050	 -0.257651	 -0.245543	 0
1461599049.523	 17	 -0.544564	 3.586519	 0.708416	 -2.641689	 -0.576204	 -0.182736	 0.154751	 0.918702	 -0.252516	 -0.261292	 0
1461599049.533	 17	 0.143382	 2.160228	 0.694483	 -2.620066	 -0.579425	 -0.190280	 0.161279	 0.914744	 -0.251300	 -0.272177	 0
1461599049.543	 17	 0.752824	 0.359071	 0.436883	 -2.612907	 -0.587265	 -0.191980	 0.163827	 0.912449	 -0.254122	 -0.275717	 0
1461599049.553	 17	 1.214068	 -1.225227	 -0.043351	 -2.618159	 -0.597294	 -0.186122	 0.161588	 0.912121	 -0.259999	 -0.272627	 0
1461599049.563	 17	 1.570700	 -2.177091	 -0.476289	 -2.630913	 -0.608270	 -0.173296	 0.155245	 0.913163	 -0.267817	 -0.265154	 0
1461599049.573	 17	 1.891597	 -2.207797	 -1.060209	 -2.641114	 -0.620065	 -0.152773	 0.145741	 0.914206	 -0.276728	 -0.257699	 0
1461599049.583	 17	 1.450388	 -2.444102	 -1.703353	 -2.649609	 -0.626817	 -0.126576	 0.133281	 0.916055	 -0.283772	 -0.250104	 0
1461599049.593	 17	 0.666036	 -2.018923	 -2.203068	 -2.655976	 -0.624488	 -0.098965	 0.119458	 0.918948	 -0.286502	 -0.243273	 0
1461599049.603	 17	 0.052791	 0.256559	 -2.392904	 -2.643569	 -0.615265	 -0.071840	 0.107747	 0.920382	 -0.284839	 -0.245264	 0
1461599049.613	 17	 -0.468003	 1.333663	 -2.062881	 -2.619917	 -0.601605	 -0.050889	 0.099862	 0.920549	 -0.279905	 -0.253514	 0
1461599049.623	 17	 -0.844155	 1.468303	 -1.542524	 -2.598207	 -0.586618	 -0.038093	 0.095139	 0.920532	 -0.273572	 -0.262159	 0
1461599049.633	 17	 -1.042695	 1.841403	 -0.921313	 -2.578600	 -0.572237	 -0.033409	 0.093785	 0.920149	 -0.266633	 -0.270992	 0
1461599049.643	 17	 -0.589481	 3.183464	 -0.181658	 -2.551330	 -0.564000	 -0.034595	 0.096824	 0.917435	 -0.261374	 -0.283940	 0
1461599049.653	 17	 0.193506	 4.722838	 0.326758	 -2.508737	 -0.565321	 -0.036620	 0.103485	 0.910898	 -0.259549	 -0.303628	 0
1461599049.663	 17	 0.638589	 5.520117	 0.740620	 -2.456043	 -0.573475	 -0.038567	 0.112459	 0.901372	 -0.260105	 -0.327456	 0
1461599049.673	 17	 1.005759	 4.869762	 1.261055	 -2.405668	 -0.587858	 -0.041557	 0.122747	 0.890688	 -0.263111	 -0.349830	 0
1461599049.683	 17	 1.080636	 2.010021	 1.479983	 -2.380721	 -0.605667	 -0.045668	 0.130945	 0.883492	 -0.268739	 -0.360658	 0
1461599049.693	 17	 1.396103	 0.478419	 1.313778	 -2.373713	 -0.624396	 -0.046707	 0.135625	 0.879449	 -0.276387	 -0.363023	 0
1461599049.703	 17	 1.945309	 -0.014941	 1.263906	 -2.370469	 -0.646151	 -0.042383	 0.137991	 0.875922	 -0.286554	 -0.362776	 0
1461599049.713	 17	 2.404412	 -0.040138	 1.348133	 -2.365750	 -0.671831	 -0.033993	 0.139524	 0.871714	 -0.299027	 -0.362258	 0
1461599049.723	 17	 2.600811	 -0.157689	 1.497733	 -2.360577	 -0.700462	 -0.024099	 0.141066	 0.866943	 -0.312952	 -0.361347	 0
1461599049.733	 17	 2.361139	 -0.561824	 1.552544	 -2.359510	 -0.728581	 -0.015694	 0.142574	 0.862751	 -0.326587	 -0.358713	 0
1461599049.743	 17	 1.938309	 -0.976477	 1.989330	 -2.367400	 -0.756167	 -0.014161	 0.145441	 0.859600	 -0.339334	 -0.353251	 0
1461599049.753	 17	 1.623235	 -1.060558	 2.293967	 -2.382360	 -0.783963	 -0.020457	 0.150335	 0.856868	 -0.351302	 -0.346070	 0
1461599049.763	 17	 1.546313	 -1.024464	 1.960324	 -2.397381	 -0.809485	 -0.027022	 0.154726	 0.854285	 -0.362284	 -0.339128	 0
1461599049.773	 17	 1.598019	 -0.854678	 1.341180	 -2.406901	 -0.831284	 -0.027617	 0.156788	 0.851738	 -0.372266	 -0.333734	 0
1461599049.783	 17	 1.647941	 -0.604108	 0.714277	 -2.408534	 -0.849273	 -0.020904	 0.156531	 0.849075	 -0.381190	 -0.330552	 0
1461599049.793	 17	 1.709503	 -1.027232	 0.326129	 -2.407355	 -0.864488	 -0.008018	 0.153755	 0.846912	 -0.389686	 -0.327481	 0
1461599049.803	 17	 1.686920	 -1.713440	 0.292230	 -2.411920	 -0.879068	 0.006287	 0.149165	 0.845861	 -0.398524	 -0.321632	 0
1461599049.813	 17	 1.649440	 -2.382654	 0.249028	 -2.423060	 -0.893195	 0.020454	 0.143208	 0.845847	 -0.407546	 -0.312953	 0
1461599049.823	 17	 1.735223	 -2.897296	 0.157165	 -2.438643	 -0.907319	 0.036140	 0.135611	 0.846488	 -0.416990	 -0.301973	 0
1461599049.833	 17	 1.913562	 -3.613085	 0.232081	 -2.458993	 -0.922879	 0.053465	 0.126420	 0.847447	 -0.427417	 -0.288384	 0
1461599049.843	 17	 1.823597	 -4.103575	 0.465965	 -2.487915	 -0.940045	 0.067240	 0.116942	 0.848771	 -0.438309	 -0.271656	 0
1461599049.853	 17	 1.692244	 -4.492121	 0.367575	 -2.522302	 -0.956405	 0.079099	 0.106684	 0.850483	 -0.448653	 -0.252997	 0
1461599049.863	 17	 1.511174	 -4.761449	 -0.030884	 -2.557412	 -0.969610	 0.093505	 0.094452	 0.852637	 -0.457716	 -0.233636	 0
1461599049.873	 17	 1.434229	 -4.696044	 -0.136182	 -2.591729	 -0.981022	 0.109404	 0.081280	 0.854687	 -0.465799	 -0.214325	 0
1461599049.883	 17	 1.635523	 -4.050586	 0.070567	 -2.622261	 -0.994543	 0.123756	 0.069720	 0.855372	 -0.474109	 -0.196719	 0
1461599049.893	 17	 2.069597	 -3.030504	 0.403468	 -2.644684	 -1.013177	 0.136213	 0.061357	 0.853710	 -0.483841	 -0.182517	 0
1461599049.903	 17	 2.410723	 -1.883801	 0.559310	 -2.656025	 -1.036367	 0.148310	 0.056273	 0.849747	 -0.494928	 -0.172652	 0
1461599049.913	 17	 2.487043	 -1.093722	 0.564931	 -2.657202	 -1.060978	 0.161389	 0.053452	 0.844441	 -0.506265	 -0.166605	 0
1461599049.923	 17	 2.377754	 -0.936195	 0.536442	 -2.654685	 -1.084824	 0.174914	 0.051356	 0.838902	 -0.517099	 -0.161909	 0
1461599049.933	 17	 2.212048	 -1.248204	 0.564822	 -2.655131	 -1.107354	 0.187311	 0.048878	 0.833784	 -0.527263	 -0.156233	 0
1461599049.943	 17	 1.976344	 -1.745692	 0.654967	 -2.663319	 -1.128340	 0.196197	 0.045637	 0.829443	 -0.536604	 -0.148315	 0
1461599049.953	 17	 1.723733	 -2.270244	 0.819610	 -2.682226	 -1.147736	 0.198978	 0.041764	 0.825985	 -0.545004	 -0.137747	 0
1461599049.963	 17	 1.559236	 -2.704321	 1.029089	 -2.712702	 -1.166324	 0.194135	 0.037589	 0.823124	 -0.552735	 -0.124653	 0
1461599049.973	 17	 1.460670	 -2.982064	 1.262897	 -2.754284	 -1.184691	 0.180755	 0.033528	 0.820500	 -0.560046	 -0.109560	 0
1461599049.983	 17	 1.360510	 -3.127013	 1.474507	 -2.806541	 -1.202728	 0.157893	 0.029926	 0.817929	 -0.566953	 -0.093068	 0
1461599049.993	 17	 1.133822	 -3.124172	 1.627845	 -2.868716	 -1.218956	 0.124937	 0.026997	 0.815603	 -0.572976	 -0.075904	 0
1461599050.003	 17	 0.767293	 -3.075654	 1.716749	 -2.939670	 -1.231339	 0.082337	 0.024728	 0.813937	 -0.577464	 -0.058567	 0
1461599050.013	 17	 0.320688	 -3.002717	 1.767144	 -3.017542	 -1.238487	 0.031834	 0.023037	 0.813221	 -0.580033	 -0.041249	 0
1461599050.023	 17	 -0.091699	 -3.056124	 1.715884	 -3.098009	 -1.239992	 -0.021219	 0.021293	 0.813507	 -0.580673	 -0.023897	 0
1461599050.033	 17	 -0.366616	 -3.353704	 1.636642	 3.104669	 -1.236983	 -0.071849	 0.018562	 0.814474	 -0.579874	 -0.005790	 0
1461599050.043	 17	 -0.619943	 -3.717332	 1.698344	 3.021851	 -1.230196	 -0.121079	 0.014861	 0.815849	 -0.577906	 0.013929	 0
1461599050.053	 17	 -1.048533	 -3.783873	 1.882636	 2.938227	 -1.218077	 -0.169696	 0.011288	 0.817948	 -0.574133	 0.034726	 0
1461599050.063	 17	 -1.542957	 -3.425003	 2.182299	 2.858124	 -1.199178	 -0.217540	 0.009479	 0.821113	 -0.568003	 0.055287	 0
1461599050.073	 17	 -1.990053	 -2.802141	 2.530900	 2.785738	 -1.173672	 -0.263633	 0.010563	 0.825322	 -0.559630	 0.074470	 0
1461599050.083	 17	 -2.569276	 -2.261662	 2.759454	 2.725380	 -1.141041	 -0.303601	 0.014223	 0.830865	 -0.548635	 0.091979	 0
1461599050.093	 17	 -3.101815	 -1.873487	 2.831648	 2.679131	 -1.102103	 -0.333047	 0.019128	 0.837717	 -0.534962	 0.108074	 0
1461599050.103	 17	 -3.302445	 -1.359878	 3.027880	 2.643076	 -1.059253	 -0.356829	 0.025773	 0.845168	 -0.519607	 0.122620	 0
1461599050.113	 17	 -3.027354	 -0.498172	 3.017517	 2.616861	 -1.017182	 -0.378693	 0.034728	 0.852237	 -0.504517	 0.133974	 0
1461599050.123	 17	 -2.624568	 0.712248	 3.038063	 2.601831	 -0.978471	 -0.401284	 0.046768	 0.858646	 -0.490757	 0.140349	 0
1461599050.133	 17	 -2.569999	 1.966169	 3.196331	 2.598823	 -0.940272	 -0.425272	 0.062555	 0.865162	 -0.477033	 0.141498	 0
1461599050.143	 17	 -2.713605	 2.945140	 3.493381	 2.605703	 -0.899874	 -0.450833	 0.081856	 0.872110	 -0.462066	 0.138631	 0
1461599050.153	 17	 -2.954301	 3.698947	 3.795575	 2.619773	 -0.856083	 -0.478349	 0.104205	 0.879335	 -0.445223	 0.132999	 0
1461599050.163	 17	 -3.140173	 4.128875	 4.045254	 2.638786	 -0.809561	 -0.507350	 0.128599	 0.886387	 -0.426615	 0.125616	 0
1461599050.173	 17	 -3.220356	 4.157146	 4.244447	 2.658711	 -0.761429	 -0.538191	 0.154016	 0.892649	 -0.406837	 0.118070	 0
1461599050.183	 17	 -3.095176	 3.879147	 4.386780	 2.676159	 -0.713609	 -0.571204	 0.179586	 0.897520	 -0.386981	 0.111591	 0
1461599050.193	 17	 -2.808456	 3.412987	 4.314934	 2.689878	 -0.668462	 -0.605167	 0.204223	 0.900735	 -0.368226	 0.106669	 0
1461599050.203	 17	 -2.324152	 2.810676	 4.175089	 2.698882	 -0.628114	 -0.639449	 0.227251	 0.902177	 -0.351740	 0.103505	 0
1461599050.213	 17	 -1.744026	 2.176044	 4.017058	 2.702197	 -0.593731	 -0.674393	 0.248605	 0.901808	 -0.338364	 0.102213	 0
1461599050.223	 17	 -1.225872	 1.802800	 3.798052	 2.701639	 -0.565067	 -0.709374	 0.268443	 0.900001	 -0.327914	 0.102022	 0
1461599050.233	 17	 -0.878120	 1.646852	 3.409850	 2.701489	 -0.541515	 -0.741908	 0.286465	 0.897537	 -0.319503	 0.101404	 0
1461599050.243	 17	 -0.629322	 1.350422	 3.261048	 2.700034	 -0.521267	 -0.772823	 0.303029	 0.894528	 -0.312641	 0.101234	 0
1461599050.253	 17	 -0.406633	 1.052996	 3.257407	 2.695972	 -0.503187	 -0.804349	 0.319105	 0.890742	 -0.307191	 0.101905	 0
1461599050.263	 17	 -0.356330	 0.699146	 3.176941	 2.688919	 -0.486011	 -0.835437	 0.334360	 0.886441	 -0.302685	 0.103963	 0
1461599050.273	 17	 -0.315591	 0.622558	 3.045851	 2.681692	 -0.469515	 -0.864824	 0.348701	 0.882027	 -0.298535	 0.106362	 0
1461599050.283	 17	 -0.310477	 0.695956	 2.902611	 2.675959	 -0.453578	 -0.892754	 0.362503	 0.877602	 -0.294398	 0.108334	 0
1461599050.293	 17	 -0.215987	 0.512538	 2.728494	 2.670558	 -0.438863	 -0.918881	 0.375339	 0.873183	 -0.290711	 0.110271	 0
1461599050.303	 17	 -0.049660	 0.026170	 2.461409	 2.661898	 -0.426431	 -0.943276	 0.386567	 0.868569	 -0.288594	 0.113438	 0
1461599050.313	 17	 0.206253	 -0.608021	 2.086657	 2.648440	 -0.417473	 -0.965128	 0.395443	 0.863841	 -0.288818	 0.118266	 0
1461599050.323	 17	 0.414206	 -1.252504	 1.739937	 2.629674	 -0.411931	 -0.984568	 0.401948	 0.858998	 -0.291487	 0.124884	 0
1461599050.333	 17	 0.486363	 -1.787574	 1.465757	 2.606291	 -0.408438	 -1.001560	 0.406345	 0.854146	 -0.295900	 0.133271	 0
1461599050.343	 17	 0.470743	 -1.903531	 1.163204	 2.581810	 -0.406051	 -1.015856	 0.409171	 0.849596	 -0.300922	 0.142166	 0
1461599050.353	 17	 0.568655	 -2.300450	 1.029700	 2.554970	 -0.404805	 -1.028473	 0.410647	 0.845057	 -0.306858	 0.151938	 0
1461599050.363	 17	 0.843108	 -2.707598	 1.023522	 2.523243	 -0.405328	 -1.042512	 0.411540	 0.839667	 -0.314690	 0.162985	 0
1461599050.373	 17	 1.081290	 -2.714082	 0.812499	 2.490285	 -0.408378	 -1.056805	 0.411709	 0.833932	 -0.323856	 0.173699	 0
1461599050.383	 17	 1.209658	 -2.582087	 0.732677	 2.458315	 -0.413147	 -1.071127	 0.411514	 0.828121	 -0.333535	 0.183373	 0
1461599050.393	 17	 1.144533	 -2.387037	 0.762769	 2.428118	 -0.417240	 -1.085723	 0.411640	 0.822293	 -0.342661	 0.192275	 0
1461599050.403	 17	 0.901529	 -2.251841	 0.680882	 2.400104	 -0.419799	 -1.098573	 0.411541	 0.816914	 -0.350639	 0.200840	 0
1461599050.413	 17	 0.479224	 -2.275207	 0.514885	 2.373860	 -0.420276	 -1.107485	 0.410430	 0.812394	 -0.357123	 0.209824	 0
1461599050.423	 17	 0.046444	 -2.460407	 0.321895	 2.348223	 -0.418775	 -1.111532	 0.407773	 0.808788	 -0.362256	 0.219895	 0
1461599050.433	 17	 -0.306141	 -2.815159	 0.101051	 2.321232	 -0.416046	 -1.110968	 0.403210	 0.805800	 -0.366680	 0.231634	 0
1461599050.443	 17	 -0.537590	 -3.200737	 -0.214921	 2.292176	 -0.413763	 -1.106072	 0.396379	 0.803262	 -0.371087	 0.244844	 0
1461599050.453	 17	 -0.676603	 -3.647431	 -0.561043	 2.260390	 -0.413205	 -1.097331	 0.387061	 0.800952	 -0.376012	 0.259376	 0
1461599050.463	 17	 -0.769306	 -4.102985	 -0.790417	 2.225096	 -0.414388	 -1.085881	 0.375525	 0.798453	 -0.381628	 0.275342	 0
1461599050.473	 17	 -0.827503	 -4.430572	 -0.813208	 2.186485	 -0.416147	 -1.073394	 0.362707	 0.795336	 -0.387599	 0.292663	 0
1461599050.483	 17	 -0.863908	 -4.362314	 -0.655589	 2.147253	 -0.417175	 -1.061335	 0.350015	 0.791609	 -0.393128	 0.310314	 0
1461599050.493	 17	 -0.969370	 -3.852858	 -0.406936	 2.111912	 -0.416243	 -1.049935	 0.338764	 0.787905	 -0.397077	 0.326763	 0
1461599050.503	 17	 -1.226626	 -3.195966	 -0.128946	 2.083108	 -0.412161	 -1.037936	 0.329361	 0.784916	 -0.398487	 0.341521	 0
1461599050.513	 17	 -1.543499	 -2.490129	 0.127638	 2.061741	 -0.404550	 -1.024295	 0.321744	 0.783060	 -0.396996	 0.354532	 0
1461599050.523	 17	 -1.881392	 -1.920558	 0.358625	 2.047526	 -0.393506	 -1.008559	 0.315680	 0.782463	 -0.392655	 0.365951	 0
1461599050.533	 17	 -2.183358	 -1.805883	 0.503002	 2.036259	 -0.379698	 -0.990547	 0.310088	 0.782483	 -0.386333	 0.377244	 0
1461599050.543	 17	 -2.374546	 -2.115472	 0.561468	 2.023311	 -0.364399	 -0.970696	 0.303910	 0.782239	 -0.379232	 0.389774	 0
1461599050.553	 17	 -2.423776	 -2.592925	 0.556388	 2.005829	 -0.348950	 -0.949941	 0.296650	 0.781037	 -0.372375	 0.404124	 0
1461599050.563	 17	 -2.368315	 -3.012491	 0.509370	 1.983647	 -0.334359	 -0.929157	 0.288398	 0.778670	 -0.366257	 0.419946	 0
1461599050.573	 17	 -2.270401	 -3.245078	 0.449868	 1.958185	 -0.321141	 -0.908705	 0.279451	 0.775330	 -0.360885	 0.436500	 0
1461599050.583	 17	 -2.078015	 -3.193433	 0.462529	 1.931901	 -0.309137	 -0.889557	 0.270680	 0.771370	 -0.356063	 0.452703	 0
1461599050.593	 17	 -1.775208	 -2.918873	 0.605259	 1.906782	 -0.297513	 -0.873288	 0.263267	 0.767006	 -0.351631	 0.467705	 0
1461599050.603	 17	 -1.456387	 -2.500053	 0.847243	 1.884289	 -0.285214	 -0.860727	 0.258060	 0.762475	 -0.347317	 0.481049	 0
1461599050.613	 17	 -1.169245	 -2.022535	 1.103903	 1.865375	 -0.271564	 -0.851661	 0.255306	 0.758068	 -0.342815	 0.492575	 0
1461599050.623	 17	 -0.879528	 -1.634737	 1.309616	 1.849688	 -0.256777	 -0.845891	 0.254775	 0.753805	 -0.338271	 0.502435	 0
1461599050.633	 17	 -0.615663	 -1.481227	 1.464348	 1.835340	 -0.241186	 -0.843101	 0.255899	 0.749310	 -0.334016	 0.511354	 0
1461599050.643	 17	 -0.422128	 -1.467399	 1.542724	 1.820798	 -0.225232	 -0.842480	 0.257967	 0.744333	 -0.330231	 0.519971	 0
1461599050.653	 17	 -0.334649	 -1.541523	 1.623336	 1.805562	 -0.208856	 -0.842918	 0.260491	 0.738867	 -0.326695	 0.528669	 0
1461599050.663	 17	 -0.257926	 -1.652674	 1.727144	 1.789054	 -0.191640	 -0.844037	 0.263362	 0.732750	 -0.323260	 0.537792	 0
1461599050.673	 17	 -0.115130	 -1.753641	 1.795302	 1.771402	 -0.173913	 -0.846252	 0.266654	 0.725964	 -0.320152	 0.547151	 0
1461599050.683	 17	 0.052176	 -1.921175	 1.934032	 1.752082	 -0.155436	 -0.850010	 0.270514	 0.718250	 -0.317510	 0.556890	 0
1461599050.693	 17	 0.204017	 -2.076080	 2.194512	 1.730867	 -0.134730	 -0.855295	 0.275340	 0.709338	 -0.314900	 0.567332	 0
1461599050.703	 17	 0.373267	 -2.114434	 2.400505	 1.708931	 -0.111943	 -0.862102	 0.281267	 0.699504	 -0.312257	 0.577995	 0
1461599050.713	 17	 0.558349	 -2.131010	 2.536223	 1.686869	 -0.087743	 -0.870388	 0.288150	 0.688951	 -0.309749	 0.588534	 0
1461599050.723	 17	 0.761129	 -2.204330	 2.627562	 1.664324	 -0.062541	 -0.880199	 0.295803	 0.677573	 -0.307611	 0.598975	 0
1461599050.733	 17	 0.959961	 -2.376009	 2.647680	 1.640491	 -0.036902	 -0.891462	 0.303874	 0.665173	 -0.306165	 0.609482	 0
1461599050.743	 17	 1.117994	 -2.560669	 2.621139	 1.615074	 -0.011287	 -0.903755	 0.312007	 0.651753	 -0.305515	 0.620105	 0
1461599050.753	 17	 1.216548	 -2.689809	 2.599896	 1.588462	 0.014391	 -0.916546	 0.320089	 0.637475	 -0.305438	 0.630774	 0
1461599050.773	 18	 1.097666	 -2.747178	 2.560964	 1.534453	 0.065918	 -0.939186	 0.335098	 0.607932	 -0.305169	 0.651920	 0
1461599050.783	 18	 1.054571	 -2.659386	 2.622904	 1.508330	 0.092450	 -0.948550	 0.342317	 0.593076	 -0.304357	 0.662153	 0
1461599050.793	 18	 1.063240	 -2.486408	 2.719291	 1.483918	 0.120097	 -0.957107	 0.349879	 0.578370	 -0.302844	 0.671832	 0
1461599050.803	 18	 1.182718	 -2.401597	 2.875707	 1.460945	 0.149398	 -0.965811	 0.358195	 0.563464	 -0.300813	 0.680967	 0
1461599050.813	 18	 1.393938	 -2.357188	 3.071447	 1.438908	 0.181016	 -0.975572	 0.367633	 0.547875	 -0.298461	 0.689638	 0
1461599050.823	 18	 1.612020	 -2.396153	 3.213064	 1.417344	 0.214758	 -0.986684	 0.378103	 0.531383	 -0.296044	 0.697874	 0
1461599050.833	 18	 1.796794	 -2.576561	 3.196987	 1.394926	 0.249325	 -0.999051	 0.388926	 0.513769	 -0.294197	 0.705851	 0
1461599050.843	 18	 1.915438	 -2.841955	 3.021897	 1.370744	 0.283045	 -1.012364	 0.399323	 0.495110	 -0.293520	 0.713620	 0
1461599050.853	 18	 1.951135	 -3.203420	 2.765637	 1.343660	 0.314842	 -1.026008	 0.408611	 0.475370	 -0.294372	 0.721391	 0
1461599050.863	 18	 1.916677	 -3.491412	 2.492553	 1.313711	 0.344309	 -1.039327	 0.416500	 0.454817	 -0.296648	 0.729157	 0
1461599050.873	 18	 1.830795	 -3.640614	 2.270228	 1.280948	 0.370053	 -1.051355	 0.422340	 0.434050	 -0.300387	 0.736884	 0
1461599050.883	 18	 1.713669	 -3.717708	 2.151145	 1.244902	 0.390633	 -1.061047	 0.425399	 0.413542	 -0.305674	 0.744703	 0
1461599050.893	 18	 1.517360	 -3.691758	 2.129639	 1.209733	 0.413465	 -1.068806	 0.428766	 0.392949	 -0.309592	 0.752265	 0
1461599050.903	 18	 1.270552	 -3.584179	 2.197800	 1.175614	 0.438609	 -1.073597	 0.432365	 0.372548	 -0.311691	 0.759682	 0
1461599050.913	 18	 1.034986	 -3.597746	 2.284986	 1.140202	 0.463731	 -1.074618	 0.435041	 0.352244	 -0.312801	 0.767346	 0
1461599050.923	 18	 0.825569	 -3.657709	 2.291575	 1.102021	 0.486950	 -1.071948	 0.436073	 0.331965	 -0.313747	 0.775373	 0
1461599050.933	 18	 0.661672	 -3.681568	 2.161685	 1.062133	 0.508096	 -1.066815	 0.435854	 0.311909	 -0.314763	 0.783370	 0
1461599050.943	 18	 0.560855	 -3.607328	 1.944767	 1.022242	 0.526958	 -1.060633	 0.434835	 0.292509	 -0.316040	 0.790870	 0
1461599050.953	 18	 0.557011	 -3.568413	 1.736273	 0.983606	 0.544984	 -1.054875	 0.433902	 0.273581	 -0.317481	 0.797552	 0
1461599050.963	 18	 0.665557	 -3.700925	 1.547587	 0.944609	 0.561691	 -1.050277	 0.432706	 0.254475	 -0.319853	 0.803556	 0
1461599050.973	 18	 0.811194	 -3.888852	 1.359127	 0.904710	 0.577601	 -1.047621	 0.431380	 0.234680	 -0.323452	 0.808836	 0
1461599050.983	 18	 0.838391	 -3.854075	 1.179100	 0.865073	 0.592394	 -1.046154	 0.429849	 0.214930	 -0.327801	 0.813376	 0
1461599050.993	 18	 0.738200	 -3.473058	 1.025785	 0.828322	 0.605452	 -1.044604	 0.428161	 0.196757	 -0.331955	 0.817173	 0
1461599051.003	 18	 0.641381	 -2.849378	 0.896014	 0.797082	 0.616713	 -1.042677	 0.426710	 0.181341	 -0.335228	 0.820156	 0
1461599051.013	 18	 0.694516	 -2.133397	 0.794572	 0.773160	 0.627229	 -1.041372	 0.426278	 0.168962	 -0.337392	 0.822134	 0
1461599051.023	 18	 0.912254	 -1.382630	 0.716533	 0.757855	 0.638443	 -1.042086	 0.427715	 0.159490	 -0.338422	 0.822857	 0
1461599051.033	 18	 1.265941	 -0.785285	 0.657198	 0.751060	 0.651569	 -1.046018	 0.431505	 0.152301	 -0.338547	 0.822188	 0
1461599051.043	 18	 1.655024	 -0.386846	 0.610624	 0.750958	 0.667235	 -1.053744	 0.437565	 0.146321	 -0.338207	 0.820209	 0
1461599051.053	 18	 1.921866	 -0.124084	 0.578773	 0.755928	 0.684839	 -1.064625	 0.445308	 0.141126	 -0.337557	 0.817215	 0
1461599051.063	 18	 2.008215	 0.089388	 0.570415	 0.764301	 0.703258	 -1.077113	 0.453910	 0.136630	 -0.336519	 0.813666	 0
1461599051.073	 18	 1.971293	 0.210487	 0.534562	 0.774753	 0.721323	 -1.090192	 0.462660	 0.132815	 -0.335205	 0.809904	 0
1461599051.083	 18	 1.875081	 0.233665	 0.465275	 0.785957	 0.738227	 -1.103523	 0.471042	 0.129444	 -0.333958	 0.806124	 0
1461599051.103	 19	 1.515298	 0.292448	 0.359181	 0.808484	 0.767203	 -1.128685	 0.485825	 0.124137	 -0.331632	 0.799115	 0
1461599051.123	 20	 1.047056	 0.340660	 0.364772	 0.827830	 0.788909	 -1.146838	 0.497012	 0.121038	 -0.328708	 0.793902	 0
1461599051.133	 20	 0.904965	 0.300720	 0.373098	 0.835461	 0.797963	 -1.153074	 0.501459	 0.119837	 -0.326990	 0.791995	 0
1461599051.143	 20	 0.856447	 0.028075	 0.303841	 0.840932	 0.806175	 -1.159190	 0.505252	 0.118029	 -0.325944	 0.790285	 0
1461599051.153	 20	 0.775972	 -0.209573	 0.207477	 0.844050	 0.813217	 -1.165640	 0.508294	 0.115530	 -0.325899	 0.788721	 0
1461599051.163	 20	 0.594426	 -0.424218	 0.162298	 0.844293	 0.818779	 -1.171046	 0.510335	 0.112587	 -0.326540	 0.787562	 0
1461599051.173	 20	 0.316967	 -0.654160	 0.168969	 0.840288	 0.822604	 -1.173723	 0.510989	 0.109182	 -0.327634	 0.787163	 0
1461599051.183	 20	 -0.000511	 -0.817639	 0.230961	 0.831515	 0.824716	 -1.172470	 0.510124	 0.105415	 -0.328839	 0.787735	 0
1461599051.193	 20	 -0.272445	 -0.854452	 0.324641	 0.819116	 0.825491	 -1.167213	 0.508047	 0.101634	 -0.329726	 0.789202	 0
1461599051.213	 21	 -0.343826	 -0.533803	 0.511558	 0.792356	 0.826750	 -1.149497	 0.503157	 0.095151	 -0.329165	 0.793366	 0
1461599051.223	 21	 -0.056927	 -0.363239	 0.534094	 0.783220	 0.829517	 -1.142562	 0.502198	 0.092453	 -0.328021	 0.794766	 0
1461599051.233	 21	 0.289587	 -0.276421	 0.619277	 0.777196	 0.835135	 -1.138402	 0.502790	 0.089458	 -0.326491	 0.795364	 0
1461599051.243	 21	 0.568711	 -0.256126	 0.743861	 0.772967	 0.843747	 -1.136125	 0.504712	 0.085830	 -0.324524	 0.795351	 0
1461599051.253	 21	 0.709481	 -0.360042	 0.847140	 0.768382	 0.854386	 -1.134353	 0.507241	 0.081346	 -0.322351	 0.795097	 0
1461599051.263	 21	 0.740479	 -0.617167	 0.896700	 0.761448	 0.865860	 -1.132414	 0.509653	 0.075733	 -0.320510	 0.794853	 0
1461599051.273	 21	 0.664534	 -0.913405	 0.936169	 0.750750	 0.877231	 -1.129329	 0.511401	 0.068954	 -0.319213	 0.794869	 0
1461599051.283	 21	 0.473711	 -1.369791	 0.992201	 0.733803	 0.887722	 -1.123541	 0.511814	 0.060650	 -0.318678	 0.795495	 0
1461599051.293	 21	 0.284619	 -1.841678	 0.964944	 0.710035	 0.896650	 -1.115297	 0.510625	 0.050719	 -0.319310	 0.796700	 0
1461599051.303	 21	 0.180790	 -2.062160	 0.879601	 0.682729	 0.903990	 -1.106265	 0.508402	 0.040032	 -0.320916	 0.798084	 0
1461599051.313	 22	 0.135790	 -2.035990	 0.803501	 0.655081	 0.910206	 -1.097250	 0.505810	 0.029514	 -0.322871	 0.799400	 0
1461599051.333	 22	 0.171638	 -1.465694	 0.552713	 0.609161	 0.920506	 -1.082778	 0.501596	 0.011903	 -0.326296	 0.801119	 0
1461599051.343	 22	 0.184311	 -0.911650	 0.397894	 0.595112	 0.924450	 -1.078518	 0.500593	 0.006250	 -0.327229	 0.801429	 0
1461599051.353	 22	 0.219961	 -0.312359	 0.331754	 0.588632	 0.928086	 -1.075881	 0.500741	 0.003312	 -0.326988	 0.801452	 0
1461599051.363	 22	 0.253331	 -0.162368	 0.494855	 0.583549	 0.932559	 -1.071856	 0.501404	 0.001056	 -0.325661	 0.801585	 0
1461599051.373	 22	 0.389836	 -0.093510	 0.658435	 0.577969	 0.938894	 -1.066338	 0.502621	 -0.001527	 -0.323456	 0.801714	 0
1461599051.383	 22	 0.588755	 0.134281	 0.763267	 0.574096	 0.947430	 -1.060774	 0.504869	 -0.004002	 -0.320328	 0.801549	 0
1461599051.393	 22	 0.783071	 0.514207	 0.871687	 0.573915	 0.958171	 -1.055458	 0.508452	 -0.005639	 -0.315886	 0.801037	 0
1461599051.403	 22	 0.971093	 0.886969	 1.016330	 0.577265	 0.971236	 -1.049853	 0.513359	 -0.006398	 -0.309906	 0.800237	 0
1461599051.413	 22	 1.199142	 1.151100	 1.157483	 0.583554	 0.986932	 -1.044203	 0.519560	 -0.006657	 -0.302539	 0.799051	 0
1461599051.423	 22	 1.422192	 1.322180	 1.225342	 0.592481	 1.005060	 -1.039574	 0.526894	 -0.006765	 -0.294292	 0.797326	 0
1461599051.433	 22	 1.574946	 1.357856	 1.220081	 0.603751	 1.024697	 -1.036806	 0.534960	 -0.006832	 -0.285741	 0.795061	 0
1461599051.443	 22	 1.647359	 1.191980	 1.109199	 0.616206	 1.044653	 -1.036826	 0.543166	 -0.007280	 -0.277798	 0.792304	 0
1461599051.453	 22	 1.582487	 0.920861	 0.950574	 0.628464	 1.063491	 -1.039506	 0.550847	 -0.008270	 -0.271103	 0.789305	 0
1461599051.463	 22	 1.402982	 0.573347	 0.770921	 0.638804	 1.080044	 -1.043727	 0.557427	 -0.009873	 -0.265980	 0.786405	 0
1461599051.473	 22	 1.149635	 0.184547	 0.588329	 0.645856	 1.093572	 -1.048502	 0.562540	 -0.012143	 -0.262639	 0.783851	 0
1461599051.483	 22	 0.853926	 -0.155035	 0.428946	 0.648760	 1.103797	 -1.052637	 0.566043	 -0.014980	 -0.260970	 0.781835	 0
1461599051.493	 22	 0.581345	 -0.359459	 0.289802	 0.648239	 1.110893	 -1.055602	 0.568124	 -0.017977	 -0.260555	 0.780399	 0
1461599051.513	 23	 0.251624	 -0.453167	 0.141528	 0.642186	 1.118718	 -1.058830	 0.569689	 -0.023409	 -0.261636	 0.778751	 0
1461599051.523	 23	 0.184960	 -0.341219	 0.151676	 0.638417	 1.121157	 -1.058823	 0.569939	 -0.025546	 -0.262116	 0.778339	 0
1461599051.533	 23	 0.213873	 -0.136722	 0.202353	 0.635842	 1.123892	 -1.058079	 0.570445	 -0.027088	 -0.261898	 0.777989	 0
1461599051.553	 24	 0.489346	 0.081896	 0.246750	 0.637812	 1.132663	 -1.059445	 0.573350	 -0.029123	 -0.259740	 0.776503	 0
1461599051.563	 24	 0.685063	 0.158018	 0.262807	 0.642913	 1.139306	 -1.063519	 0.575958	 -0.030146	 -0.258236	 0.775034	 0
1461599051.573	 24	 0.838676	 0.110010	 0.304719	 0.649714	 1.147492	 -1.069585	 0.579193	 -0.031530	 -0.256611	 0.773106	 0
1461599051.583	 24	 0.887211	 -0.035605	 0.338111	 0.655900	 1.156519	 -1.076281	 0.582554	 -0.033597	 -0.255166	 0.770968	 0
1461599051.593	 24	 0.837021	 -0.255737	 0.322645	 0.659925	 1.165298	 -1.082831	 0.585533	 -0.036413	 -0.254323	 0.768860	 0
1461599051.603	 24	 0.751372	 -0.476204	 0.246736	 0.661889	 1.173058	 -1.089558	 0.587915	 -0.039809	 -0.254385	 0.766850	 0
1461599051.613	 24	 0.658339	 -0.656423	 0.144622	 0.662609	 1.179476	 -1.096979	 0.589708	 -0.043525	 -0.255398	 0.764932	 0
1461599051.623	 24	 0.580466	 -0.775125	 0.024830	 0.662931	 1.184531	 -1.105451	 0.591009	 -0.047332	 -0.257261	 0.763076	 0
1461599051.633	 24	 0.573597	 -0.739044	 -0.135705	 0.665897	 1.188446	 -1.116841	 0.592228	 -0.050683	 -0.259728	 0.761077	 0
1461599051.643	 24	 0.612222	 -0.576389	 -0.277340	 0.673757	 1.191652	 -1.131993	 0.593765	 -0.053107	 -0.262333	 0.758818	 0
1461599051.653	 24	 0.674544	 -0.403915	 -0.375393	 0.686739	 1.194518	 -1.150724	 0.595766	 -0.054590	 -0.264825	 0.756274	 0
1461599051.663	 24	 0.742434	 -0.261616	 -0.378923	 0.703073	 1.197642	 -1.171470	 0.598218	 -0.055533	 -0.266958	 0.753515	 0
1461599051.673	 24	 0.777651	 -0.114261	 -0.285138	 0.720607	 1.201431	 -1.191914	 0.601003	 -0.056194	 -0.268379	 0.750740	 0
1461599051.683	 24	 0.732153	 0.049857	 -0.112692	 0.736785	 1.205970	 -1.209139	 0.603873	 -0.056686	 -0.268733	 0.748269	 0
1461599051.693	 24	 0.584965	 0.114586	 0.100213	 0.748187	 1.210900	 -1.220159	 0.606352	 -0.057255	 -0.268052	 0.746463	 0
1461599051.703	 24	 0.367585	 0.001922	 0.316341	 0.751174	 1.215806	 -1.222908	 0.607914	 -0.058470	 -0.266820	 0.745539	 0
1461599051.713	 24	 0.139632	 -0.254825	 0.459814	 0.744334	 1.220154	 -1.217586	 0.608262	 -0.060725	 -0.265718	 0.745468	 0
1461599051.723	 24	 -0.038706	 -0.550664	 0.512968	 0.729318	 1.223565	 -1.206687	 0.607479	 -0.064043	 -0.265285	 0.745983	 0
1461599051.733	 24	 -0.133952	 -0.761599	 0.427639	 0.710455	 1.225718	 -1.194271	 0.605942	 -0.067961	 -0.265790	 0.746707	 0
1461599051.743	 24	 -0.136880	 -0.770413	 0.237877	 0.693935	 1.226485	 -1.185033	 0.604265	 -0.071565	 -0.267133	 0.747250	 0
1461599051.753	 24	 -0.026785	 -0.587987	 0.064897	 0.684196	 1.226688	 -1.181510	 0.603142	 -0.074200	 -0.268703	 0.747337	 0
1461599051.763	 24	 0.145907	 -0.280040	 -0.080816	 0.683337	 1.227168	 -1.184449	 0.603044	 -0.075549	 -0.269932	 0.746838	 0
1461599051.773	 24	 0.326364	 0.052673	 -0.181605	 0.691539	 1.228327	 -1.193454	 0.604119	 -0.075549	 -0.270509	 0.745760	 0
1461599051.783	 24	 0.471557	 0.320022	 -0.216617	 0.706638	 1.230321	 -1.206730	 0.606182	 -0.074536	 -0.270351	 0.744243	 0
1461599051.793	 24	 0.558844	 0.498460	 -0.215717	 0.725919	 1.232969	 -1.222303	 0.608889	 -0.072898	 -0.269562	 0.742480	 0
1461599051.803	 24	 0.596667	 0.583564	 -0.198202	 0.747218	 1.235976	 -1.238848	 0.611912	 -0.070966	 -0.268367	 0.740612	 0
1461599051.813	 24	 0.604154	 0.584629	 -0.195060	 0.769143	 1.239028	 -1.255825	 0.614999	 -0.069006	 -0.267067	 0.738708	 0
1461599051.823	 24	 0.570667	 0.520723	 -0.220941	 0.790915	 1.241664	 -1.273135	 0.617940	 -0.067131	 -0.265994	 0.736812	 0
1461599051.833	 24	 0.478078	 0.381379	 -0.259799	 0.810884	 1.243383	 -1.289776	 0.620440	 -0.065476	 -0.265441	 0.735056	 0
1461599051.843	 24	 0.351050	 0.173069	 -0.289407	 0.827108	 1.243931	 -1.304509	 0.622241	 -0.064270	 -0.265651	 0.733563	 0
1461599051.853	 24	 0.226174	 -0.044705	 -0.303136	 0.838722	 1.243433	 -1.316695	 0.623286	 -0.063649	 -0.266646	 0.732368	 0
1461599051.863	 24	 0.114520	 -0.185840	 -0.303477	 0.846185	 1.242094	 -1.326232	 0.623686	 -0.063461	 -0.268204	 0.731474	 0
1461599051.873	 24	 0.045967	 -0.244099	 -0.298093	 0.850954	 1.240241	 -1.333740	 0.623686	 -0.063461	 -0.270008	 0.730810	 0
1461599051.883	 24	 0.028889	 -0.248272	 -0.293720	 0.854754	 1.238222	 -1.340402	 0.623553	 -0.063495	 -0.271854	 0.730237	 0
1461599051.893	 24	 0.034477	 -0.219360	 -0.264724	 0.858336	 1.236373	 -1.346604	 0.623446	 -0.063521	 -0.273550	 0.729692	 0
1461599051.903	 24	 0.055244	 -0.159477	 -0.212126	 0.861893	 1.234984	 -1.352234	 0.623458	 -0.063526	 -0.274907	 0.729171	 0
1461599051.913	 24	 0.100771	 -0.068698	 -0.142403	 0.865858	 1.234322	 -1.357405	 0.623699	 -0.063477	 -0.275752	 0.728650	 0
1461599051.923	 24	 0.180457	 0.020947	 -0.068725	 0.870930	 1.234694	 -1.362783	 0.624307	 -0.063430	 -0.276017	 0.728033	 0
1461599051.933	 24	 0.258998	 0.108343	 -0.012110	 0.877549	 1.236046	 -1.368877	 0.625309	 -0.063369	 -0.275762	 0.727274	 0
1461599051.943	 24	 0.329884	 0.175390	 0.022001	 0.885806	 1.238152	 -1.375928	 0.626658	 -0.063268	 -0.275107	 0.726369	 0
1461599051.953	 24	 0.383492	 0.221030	 0.030485	 0.895738	 1.240718	 -1.384219	 0.628283	 -0.063112	 -0.274225	 0.725312	 0
1461599051.963	 24	 0.405955	 0.247423	 0.012417	 0.907089	 1.243361	 -1.393625	 0.630069	 -0.062835	 -0.273260	 0.724150	 0
1461599051.973	 24	 0.395096	 0.223915	 -0.006891	 0.918831	 1.245788	 -1.403562	 0.631837	 -0.062530	 -0.272409	 0.722956	 0
1461599051.983	 24	 0.338319	 0.176235	 -0.004708	 0.929277	 1.247871	 -1.412611	 0.633376	 -0.062316	 -0.271734	 0.721881	 0
1461599051.993	 24	 0.239058	 0.153301	 0.019389	 0.937059	 1.249553	 -1.419161	 0.634548	 -0.062149	 -0.271111	 0.721100	 0
1461599052.003	 24	 0.125037	 0.152881	 0.061943	 0.941398	 1.250869	 -1.422130	 0.635290	 -0.061970	 -0.270397	 0.720730	 0
1461599052.013	 24	 0.040959	 0.175686	 0.092728	 0.942960	 1.251918	 -1.422005	 0.635701	 -0.061720	 -0.269531	 0.720713	 0
1461599052.023	 24	 0.007017	 0.223615	 0.088141	 0.943755	 1.252720	 -1.420633	 0.636000	 -0.061267	 -0.268535	 0.720860	 0
1461599052.033	 24	 -0.000175	 0.287411	 0.082403	 0.944995	 1.253392	 -1.419088	 0.636339	 -0.060554	 -0.267375	 0.721053	 0
1461599052.043	 24	 -0.007302	 0.346051	 0.098997	 0.946527	 1.254123	 -1.417210	 0.636736	 -0.059650	 -0.265984	 0.721292	 0
1461599052.053	 24	 -0.052726	 0.412406	 0.137311	 0.947288	 1.254922	 -1.413858	 0.637085	 -0.058577	 -0.264285	 0.721696	 0
1461599052.063	 24	 -0.124757	 0.483188	 0.188688	 0.946167	 1.255734	 -1.407778	 0.637266	 -0.057317	 -0.262195	 0.722399	 0
1461599052.073	 24	 -0.187273	 0.547451	 0.225001	 0.943265	 1.256485	 -1.399128	 0.637274	 -0.055861	 -0.259761	 0.723385	 0
1461599052.083	 24	 -0.209441	 0.591190	 0.234127	 0.939719	 1.257158	 -1.389280	 0.637215	 -0.054231	 -0.257118	 0.724504	 0
1461599052.093	 24	 -0.173140	 0.610096	 0.215869	 0.937123	 1.257844	 -1.380172	 0.637258	 -0.052498	 -0.254432	 0.725541	 0
1461599052.103	 24	 -0.096438	 0.600139	 0.193793	 0.936591	 1.258755	 -1.373261	 0.637546	 -0.050791	 -0.251813	 0.726323	 0
1461599052.113	 24	 -0.015548	 0.578422	 0.165177	 0.938398	 1.259939	 -1.369022	 0.638109	 -0.049175	 -0.249333	 0.726796	 0
1461599052.123	 24	 0.037707	 0.585460	 0.130674	 0.942293	 1.261228	 -1.367014	 0.638892	 -0.047545	 -0.246963	 0.727025	 0
1461599052.133	 24	 0.050569	 0.631922	 0.089430	 0.947900	 1.262328	 -1.366407	 0.639809	 -0.045677	 -0.244610	 0.727134	 0
1461599052.143	 24	 0.034633	 0.686933	 0.042121	 0.954696	 1.263007	 -1.366470	 0.640765	 -0.043451	 -0.242248	 0.727219	 0
1461599052.153	 24	 -0.002756	 0.723879	 -0.011564	 0.961997	 1.263064	 -1.366614	 0.641653	 -0.040861	 -0.239942	 0.727351	 0
1461599052.163	 24	 -0.040239	 0.744840	 -0.069659	 0.969600	 1.262423	 -1.366827	 0.642435	 -0.037951	 -0.237778	 0.727529	 0
1461599052.173	 24	 -0.069217	 0.740409	 -0.105684	 0.977154	 1.261253	 -1.366947	 0.643105	 -0.034853	 -0.235757	 0.727750	 0
1461599052.183	 24	 -0.091855	 0.691555	 -0.104876	 0.983818	 1.259888	 -1.366534	 0.643637	 -0.031841	 -0.233888	 0.728020	 0
1461599052.193	 24	 -0.120973	 0.608837	 -0.083011	 0.988720	 1.258526	 -1.365060	 0.643974	 -0.029128	 -0.232199	 0.728376	 0
1461599052.203	 24	 -0.152387	 0.497361	 -0.067788	 0.991446	 1.257137	 -1.362375	 0.644066	 -0.026808	 -0.230777	 0.728836	 0
1461599052.213	 24	 -0.161596	 0.351702	 -0.063735	 0.992288	 1.255718	 -1.359161	 0.643937	 -0.024994	 -0.229777	 0.729331	 0
1461599052.223	 24	 -0.135650	 0.199503	 -0.067508	 0.992070	 1.254371	 -1.356436	 0.643690	 -0.023749	 -0.229273	 0.729748	 0
1461599052.233	 24	 -0.089380	 0.061039	 -0.075594	 0.991668	 1.253196	 -1.355011	 0.643438	 -0.023047	 -0.229249	 0.730001	 0
1461599052.243	 24	 -0.047261	 -0.057164	 -0.078127	 0.991220	 1.252227	 -1.354850	 0.643204	 -0.022837	 -0.229637	 0.730092	 0
1461599052.253	 24	 -0.032679	 -0.136945	 -0.073667	 0.990417	 1.251410	 -1.355273	 0.642951	 -0.022995	 -0.230304	 0.730100	 0
1461599052.263	 24	 -0.049836	 -0.162352	 -0.064162	 0.988797	 1.250611	 -1.355248	 0.642612	 -0.023314	 -0.231064	 0.730148	 0
1461599052.273	 24	 -0.071098	 -0.150537	 -0.054313	 0.986523	 1.249770	 -1.354489	 0.642197	 -0.023621	 -0.231779	 0.730276	 0
1461599052.283	 24	 -0.080462	 -0.108949	 -0.043187	 0.984088	 1.248951	 -1.353211	 0.641772	 -0.023828	 -0.232349	 0.730462	 0
1461599052.293	 24	 -0.077932	 -0.030205	 -0.037148	 0.982226	 1.248190	 -1.351791	 0.641426	 -0.023800	 -0.232664	 0.730666	 0
1461599052.303	 24	 -0.056087	 0.077146	 -0.038470	 0.981775	 1.247534	 -1.350799	 0.641259	 -0.023430	 -0.232650	 0.730830	 0
1461599052.313	 24	 -0.026874	 0.179017	 -0.059092	 0.983376	 1.246912	 -1.350863	 0.641324	 -0.022659	 -0.232353	 0.730891	 0
1461599052.323	 24	 -0.030879	 0.257540	 -0.086036	 0.986393	 1.246098	 -1.351513	 0.641510	 -0.021496	 -0.231876	 0.730915	 0
1461599052.333	 24	 -0.077809	 0.288303	 -0.116249	 0.989413	 1.244829	 -1.351715	 0.641613	 -0.020036	 -0.231375	 0.731024	 0
1461599052.343	 24	 -0.138812	 0.269185	 -0.137211	 0.991262	 1.243043	 -1.350753	 0.641493	 -0.018459	 -0.230986	 0.731295	 0
1461599052.353	 24	 -0.180641	 0.238347	 -0.153120	 0.991914	 1.240861	 -1.348845	 0.641164	 -0.016885	 -0.230757	 0.731693	 0
1461599052.363	 24	 -0.206476	 0.207438	 -0.172366	 0.991852	 1.238362	 -1.346502	 0.640692	 -0.015329	 -0.230696	 0.732160	 0
1461599052.373	 24	 -0.215284	 0.163738	 -0.188683	 0.991361	 1.235644	 -1.344120	 0.640125	 -0.013846	 -0.230825	 0.732645	 0
1461599052.383	 24	 -0.217737	 0.103061	 -0.196686	 0.990414	 1.232816	 -1.341850	 0.639478	 -0.012531	 -0.231173	 0.733123	 0
1461599052.393	 24	 -0.230858	 0.040312	 -0.201419	 0.988706	 1.229897	 -1.339453	 0.638722	 -0.011426	 -0.231744	 0.733620	 0
1461599052.403	 24	 -0.254506	 0.005274	 -0.202605	 0.986155	 1.226847	 -1.336615	 0.637839	 -0.010450	 -0.232460	 0.734176	 0
1461599052.413	 24	 -0.291988	 -0.023326	 -0.201479	 0.982561	 1.223607	 -1.332965	 0.636794	 -0.009537	 -0.233265	 0.734840	 0
1461599052.423	 24	 -0.328443	 -0.054110	 -0.207843	 0.977948	 1.220121	 -1.328558	 0.635574	 -0.008684	 -0.234186	 0.735613	 0
1461599052.433	 24	 -0.349895	 -0.063735	 -0.223732	 0.972859	 1.216365	 -1.323803	 0.634234	 -0.007812	 -0.235204	 0.736454	 0
1461599052.443	 24	 -0.319038	 -0.058718	 -0.252729	 0.968636	 1.212479	 -1.319940	 0.632954	 -0.006870	 -0.236308	 0.737211	 0
1461599052.453	 24	 -0.236941	 -0.042223	 -0.291658	 0.966716	 1.208685	 -1.318383	 0.631948	 -0.005843	 -0.237501	 0.737700	 0
1461599052.463	 24	 -0.120583	 -0.009807	 -0.321145	 0.967918	 1.205233	 -1.319881	 0.631372	 -0.004741	 -0.238727	 0.737805	 0
1461599052.473	 24	 0.027897	 0.029035	 -0.331668	 0.972754	 1.202451	 -1.324853	 0.631365	 -0.003614	 -0.239884	 0.737442	 0
1461599052.483	 24	 0.166720	 0.048829	 -0.332693	 0.980901	 1.200446	 -1.333105	 0.631921	 -0.002559	 -0.240966	 0.736617	 0
1461599052.493	 24	 0.256473	 0.054041	 -0.311045	 0.991035	 1.199109	 -1.343410	 0.632863	 -0.001646	 -0.241966	 0.735482	 0
1461599052.503	 24	 0.291890	 0.061683	 -0.269717	 1.001690	 1.198305	 -1.354209	 0.633987	 -0.000885	 -0.242807	 0.734237	 0
1461599052.513	 24	 0.284732	 0.080197	 -0.212997	 1.011792	 1.197920	 -1.364248	 0.635137	 -0.000236	 -0.243404	 0.733045	 0
1461599052.533	 25	 0.196741	 0.116312	 -0.108516	 1.027844	 1.197939	 -1.379303	 0.637098	 0.000846	 -0.243804	 0.731208	 0
1461599052.543	 25	 0.125426	 0.127402	 -0.074754	 1.033362	 1.197974	 -1.383890	 0.637780	 0.001388	 -0.243710	 0.730644	 0
1461599052.553	 25	 0.040130	 0.119357	 -0.045310	 1.036631	 1.197837	 -1.386075	 0.638154	 0.001932	 -0.243508	 0.730383	 0
1461599052.563	 25	 -0.030351	 0.092059	 -0.024701	 1.037711	 1.197512	 -1.386161	 0.638225	 0.002408	 -0.243297	 0.730390	 0
1461599052.573	 25	 -0.073234	 0.044376	 -0.017311	 1.037112	 1.197029	 -1.384904	 0.638060	 0.002753	 -0.243181	 0.730571	 0
1461599052.583	 25	 -0.088456	 -0.006705	 -0.027246	 1.035575	 1.196388	 -1.383200	 0.637751	 0.002951	 -0.243249	 0.730818	 0
1461599052.593	 25	 -0.075907	 -0.043063	 -0.049009	 1.034021	 1.195614	 -1.381912	 0.637414	 0.003054	 -0.243517	 0.731022	 0
1461599052.603	 25	 -0.048391	 -0.064651	 -0.081422	 1.033155	 1.194694	 -1.381635	 0.637135	 0.003134	 -0.243980	 0.731111	 0
1461599052.613	 25	 -0.025065	 -0.078703	 -0.103071	 1.033020	 1.193693	 -1.382313	 0.636931	 0.003206	 -0.244584	 0.731086	 0
1461599052.623	 25	 -0.027238	 -0.085094	 -0.105243	 1.033008	 1.192656	 -1.383198	 0.636735	 0.003268	 -0.245236	 0.731038	 0
1461599052.633	 25	 -0.038928	 -0.088134	 -0.089183	 1.032554	 1.191663	 -1.383658	 0.636493	 0.003289	 -0.245860	 0.731040	 0
1461599052.643	 25	 -0.039803	 -0.069856	 -0.062361	 1.031795	 1.190863	 -1.383662	 0.636249	 0.003280	 -0.246353	 0.731086	 0
1461599052.653	 25	 -0.027764	 -0.027167	 -0.037556	 1.031269	 1.190329	 -1.383514	 0.636083	 0.003314	 -0.246633	 0.731136	 0
1461599052.663	 25	 -0.012527	 0.022889	 -0.022303	 1.031348	 1.190023	 -1.383479	 0.636034	 0.003457	 -0.246691	 0.731158	 0
1461599052.673	 25	 0.005809	 0.055878	 -0.012563	 1.032040	 1.189907	 -1.383697	 0.636098	 0.003680	 -0.246587	 0.731137	 0
1461599052.683	 25	 0.032617	 0.080285	 -0.009372	 1.033461	 1.189953	 -1.384426	 0.636283	 0.003952	 -0.246387	 0.731041	 0
1461599052.693	 25	 0.064738	 0.103582	 -0.010501	 1.035777	 1.190154	 -1.385862	 0.636609	 0.004273	 -0.246112	 0.730848	 0
1461599052.713	 26	 0.085307	 0.086343	 -0.013081	 0.739070	 1.124190	 -1.112394	 0.583422	 -0.002842	 -0.253092	 0.771722	 0
1461599052.723	 26	 0.084237	 0.039441	 -0.015702	 0.601328	 1.071959	 -0.989498	 0.550183	 -0.007509	 -0.256809	 0.794539	 0
1461599052.733	 26	 0.074513	 -0.019064	 -0.013007	 0.527110	 1.034613	 -0.925276	 0.528329	 -0.010472	 -0.259226	 0.808431	 0
1461599052.743	 26	 0.063737	 -0.073230	 -0.000648	 0.477860	 1.008792	 -0.883972	 0.513050	 -0.013563	 -0.260447	 0.817779	 0
1461599052.753	 26	 0.052029	 -0.097549	 0.018397	 0.445496	 0.990147	 -0.857596	 0.502231	 -0.015866	 -0.261367	 0.824136	 0
1461599052.763	 26	 0.051183	 -0.085660	 0.047284	 0.421927	 0.977341	 -0.838644	 0.494553	 -0.018021	 -0.261731	 0.828607	 0
1461599052.773	 26	 0.059011	 -0.042938	 0.077456	 0.403658	 0.969102	 -0.823756	 0.489204	 -0.020143	 -0.261488	 0.831804	 0
1461599052.783	 26	 0.074310	 0.009268	 0.098061	 0.388787	 0.962843	 -0.811223	 0.485014	 -0.021942	 -0.260956	 0.834375	 0
1461599052.793	 26	 0.078880	 0.057191	 0.110196	 0.375238	 0.957667	 -0.799340	 0.481399	 -0.023640	 -0.260126	 0.836678	 0
1461599052.803	 26	 0.076914	 0.089077	 0.108386	 0.362768	 0.953109	 -0.788057	 0.478158	 -0.025210	 -0.259132	 0.838797	 0
1461599052.813	 26	 0.069417	 0.091105	 0.093556	 0.351570	 0.948698	 -0.777795	 0.475127	 -0.026564	 -0.258193	 0.840765	 0
1461599052.823	 26	 0.045739	 0.060178	 0.074295	 0.341058	 0.943953	 -0.768372	 0.472043	 -0.027801	 -0.257455	 0.842686	 0
1461599052.843	 27	 -0.024193	 -0.032386	 0.042070	 0.339735	 0.944308	 -0.766666	 0.472037	 -0.028026	 -0.256993	 0.842823	 0
1461599052.853	 27	 -0.042434	 -0.074693	 0.067413	 0.338113	 0.944142	 -0.765461	 0.471780	 -0.028392	 -0.256894	 0.842985	 0
1461599052.863	 27	 -0.036179	 -0.107713	 0.064926	 0.326734	 0.939322	 -0.756613	 0.468549	 -0.030159	 -0.256565	 0.844823	 0
1461599052.873	 27	 -0.012799	 -0.118505	 0.052899	 0.324780	 0.939308	 -0.755639	 0.468308	 -0.030754	 -0.256614	 0.844921	 0
1461599052.883	 27	 0.016099	 -0.111053	 0.065506	 0.322848	 0.939581	 -0.754661	 0.468183	 -0.031394	 -0.256612	 0.844967	 0
1461599052.893	 27	 0.045062	 -0.081341	 0.067662	 0.321243	 0.940165	 -0.753792	 0.468222	 -0.031983	 -0.256534	 0.844947	 0
1461599052.903	 27	 0.061325	 -0.031399	 0.069056	 0.312637	 0.937048	 -0.746922	 0.465995	 -0.033411	 -0.256099	 0.846254	 0
1461599052.913	 27	 0.071012	 -0.005969	 0.059616	 0.312004	 0.937896	 -0.746270	 0.466262	 -0.033691	 -0.255846	 0.846172	 0
1461599052.923	 27	 0.070908	 -0.013539	 0.042495	 0.311607	 0.938723	 -0.745899	 0.466547	 -0.033932	 -0.255661	 0.846062	 0
1461599052.933	 27	 0.046104	 -0.054008	 0.025282	 0.311029	 0.939325	 -0.745701	 0.466715	 -0.034247	 -0.255625	 0.845967	 0
1461599052.943	 27	 0.008386	 -0.119979	 0.007950	 0.301464	 0.934952	 -0.738785	 0.463872	 -0.035848	 -0.255553	 0.847485	 0
1461599052.953	 27	 -0.015419	 -0.177447	 -0.006233	 0.299814	 0.934849	 -0.738774	 0.463620	 -0.036525	 -0.255946	 0.847475	 0
1461599052.963	 27	 -0.024130	 -0.205188	 -0.020259	 0.289644	 0.931287	 -0.732274	 0.461014	 -0.038659	 -0.256043	 0.848772	 0
1461599052.973	 27	 -0.024103	 -0.198838	 -0.023388	 0.280992	 0.928612	 -0.727059	 0.458935	 -0.040632	 -0.256189	 0.849762	 0
1461599052.983	 27	 -0.011089	 -0.159505	 -0.019927	 0.273544	 0.926958	 -0.722566	 0.457407	 -0.042461	 -0.256211	 0.850489	 0
1461599052.993	 27	 0.014771	 -0.101134	 -0.027069	 0.272725	 0.926970	 -0.723004	 0.457298	 -0.042912	 -0.256583	 0.850413	 0
1461599053.003	 27	 0.038510	 -0.040622	 -0.033108	 0.272698	 0.927207	 -0.723671	 0.457376	 -0.043120	 -0.256841	 0.850283	 0
1461599053.013	 27	 0.037753	 0.020049	 -0.027208	 0.273280	 0.927506	 -0.724321	 0.457557	 -0.043076	 -0.256943	 0.850157	 0
1461599053.023	 27	 0.020859	 0.047826	 -0.016136	 0.269430	 0.926354	 -0.721038	 0.456669	 -0.043750	 -0.256583	 0.850709	 0
1461599053.033	 27	 0.013311	 0.029782	 -0.014107	 0.270013	 0.926462	 -0.721321	 0.456781	 -0.043587	 -0.256556	 0.850665	 0
