% Gyrometer data recorded with 'snsrlog'
% 
% 
% Label description:
% 	 0: Default Label
% 	 1: still_drop
% 	 2: walk_drop
% 	 3: other
% 	 4: dtw_same
% 	 5: dtw_diff
% 	 6: delete
% 	 7: steal
% 
% Column description:
% 	 1: Seconds.milliseconds since 1970
% 	 2: Number of skipped measurements
% 	 3: Gyro X
% 	 4: Gyro Y
% 	 5: Gyro Z
% 	 6: Roll of the device
% 	 7: Pitch of the device
% 	 8: Yaw of the device
% 	 9: Quaternion X
% 	 10: Quaternion Y
% 	 11: Quaternion Z
% 	 12: Quaternion W
% 	 13: Label used for the current sample
% 
% 
1462501485.688	 0	 0.656184	 -1.550692	 1.341114	 -0.221582	 0.174320	 0.163759	 0.095235	 -0.102700	 0.071386	 0.987566	 7
1462501485.698	 0	 0.792079	 -1.736903	 1.385091	 -0.241105	 0.178599	 0.179081	 0.098890	 -0.111385	 0.077736	 0.985785	 7
1462501485.708	 0	 0.867123	 -1.998898	 1.514154	 -0.263680	 0.183046	 0.195872	 0.102968	 -0.121422	 0.084568	 0.983617	 7
1462501485.718	 0	 1.006317	 -1.882472	 1.491645	 -0.286268	 0.188255	 0.213361	 0.107620	 -0.131301	 0.091592	 0.981218	 7
1462501485.728	 0	 1.116596	 -1.658586	 1.315851	 -0.306386	 0.194777	 0.229837	 0.112876	 -0.139851	 0.098046	 0.978819	 7
1462501485.738	 0	 1.107434	 -1.849503	 1.385561	 -0.327428	 0.201157	 0.246433	 0.118246	 -0.148755	 0.104408	 0.976212	 7
1462501485.748	 0	 1.170598	 -2.204517	 1.589531	 -0.352362	 0.206807	 0.265159	 0.123775	 -0.159371	 0.111518	 0.973059	 7
1462501485.758	 0	 1.398751	 -2.579760	 1.710878	 -0.381559	 0.213219	 0.286135	 0.130293	 -0.171725	 0.119227	 0.969185	 7
1462501485.768	 0	 1.625150	 -3.147114	 1.886938	 -0.416576	 0.220722	 0.309675	 0.138164	 -0.186450	 0.127466	 0.964313	 7
1462501485.778	 0	 1.885709	 -3.511198	 2.093369	 -0.457044	 0.228494	 0.336606	 0.147166	 -0.203282	 0.136631	 0.958306	 7
1462501485.788	 0	 2.135929	 -3.663760	 2.130268	 -0.500179	 0.237384	 0.365889	 0.157523	 -0.220776	 0.146209	 0.951350	 7
1462501485.798	 0	 2.287972	 -3.781250	 2.123585	 -0.545137	 0.246963	 0.396459	 0.168910	 -0.238564	 0.155711	 0.943563	 7
1462501485.808	 1	 2.341292	 -3.866903	 2.213978	 -0.591623	 0.255127	 0.428427	 0.180377	 -0.256669	 0.165455	 0.934992	 7
1462501485.828	 1	 2.410738	 -4.146403	 2.566737	 -0.690231	 0.263870	 0.498334	 0.202673	 -0.294481	 0.186909	 0.915025	 7
1462501485.838	 1	 2.504375	 -4.266330	 2.640475	 -0.742446	 0.265310	 0.535705	 0.214025	 -0.314125	 0.198197	 0.903458	 7
1462501485.848	 1	 2.569492	 -4.263330	 2.641002	 -0.795293	 0.265343	 0.573883	 0.225611	 -0.333635	 0.209512	 0.891006	 7
1462501485.858	 1	 2.501304	 -4.204933	 2.599508	 -0.847300	 0.263460	 0.611443	 0.236844	 -0.352593	 0.220503	 0.878044	 7
1462501485.868	 1	 2.361704	 -4.184127	 2.625430	 -0.898539	 0.258838	 0.647854	 0.247286	 -0.371276	 0.231172	 0.864618	 7
1462501485.878	 1	 2.204354	 -4.269946	 2.607883	 -0.949720	 0.251447	 0.682646	 0.256923	 -0.390109	 0.241324	 0.850628	 7
1462501485.888	 1	 2.169353	 -4.586513	 2.500798	 -1.002704	 0.242638	 0.715768	 0.266521	 -0.409675	 0.250447	 0.835709	 7
1462501485.898	 1	 2.359767	 -5.143550	 2.471575	 -1.060483	 0.233258	 0.749108	 0.277199	 -0.430755	 0.258705	 0.818952	 7
1462501485.918	 2	 3.201132	 -6.735254	 2.590119	 -1.198712	 0.211535	 0.824352	 0.304591	 -0.479059	 0.274364	 0.776177	 7
1462501485.928	 2	 3.785981	 -7.549221	 2.491126	 -1.281183	 0.199419	 0.867860	 0.322448	 -0.506030	 0.281430	 0.748838	 7
1462501485.938	 2	 4.385197	 -8.153543	 2.267133	 -1.370430	 0.187157	 0.915482	 0.343345	 -0.533233	 0.287630	 0.717667	 7
1462501485.948	 2	 4.907252	 -8.686696	 2.145721	 -1.465186	 0.173075	 0.966899	 0.366610	 -0.560069	 0.293107	 0.682648	 7
1462501485.958	 2	 5.257691	 -9.124254	 2.230253	 -1.564197	 0.154022	 1.020543	 0.390827	 -0.586510	 0.298157	 0.643710	 7
1462501485.968	 2	 5.478271	 -9.368022	 2.438151	 -1.664948	 0.127874	 1.074226	 0.414596	 -0.612154	 0.303065	 0.601273	 7
1462501485.988	 3	 5.661491	 -9.132243	 2.611403	 -1.860171	 0.055501	 1.175042	 0.458000	 -0.657794	 0.312699	 0.509669	 7
1462501485.998	 3	 5.562129	 -8.728633	 2.640537	 -1.950078	 0.012326	 1.219230	 0.476741	 -0.676632	 0.317091	 0.462969	 7
1462501486.008	 3	 5.398088	 -8.238663	 2.672103	 -2.033277	 -0.034247	 1.257972	 0.492919	 -0.692809	 0.321321	 0.416892	 7
1462501486.018	 3	 5.190906	 -7.769422	 2.614327	 -2.110210	 -0.082539	 1.291363	 0.506792	 -0.706473	 0.325155	 0.371930	 7
1462501486.028	 3	 4.920651	 -7.258018	 2.478627	 -2.181067	 -0.130802	 1.319713	 0.518638	 -0.717712	 0.328404	 0.328716	 7
1462501486.038	 3	 4.591096	 -6.790776	 2.242850	 -2.246430	 -0.177308	 1.343581	 0.528886	 -0.726687	 0.330777	 0.287738	 7
1462501486.048	 3	 4.216377	 -6.351440	 1.953919	 -2.307090	 -0.220676	 1.363663	 0.537997	 -0.733614	 0.332001	 0.249288	 7
1462501486.058	 3	 3.838656	 -5.923332	 1.728856	 -2.363416	 -0.260718	 1.380185	 0.545999	 -0.738883	 0.332199	 0.213496	 7
1462501486.068	 3	 3.533641	 -5.552129	 1.606008	 -2.416196	 -0.298129	 1.393409	 0.552881	 -0.742925	 0.331640	 0.179999	 7
1462501486.078	 3	 3.349465	 -5.260969	 1.641228	 -2.466374	 -0.334496	 1.403315	 0.558434	 -0.746194	 0.330790	 0.148069	 7
1462501486.088	 3	 3.279037	 -5.130168	 1.756029	 -2.515609	 -0.371076	 1.409914	 0.562676	 -0.749007	 0.329777	 0.116756	 7
1462501486.098	 3	 3.364814	 -5.194011	 1.933736	 -2.565910	 -0.409228	 1.413458	 0.565780	 -0.751447	 0.328660	 0.084874	 7
1462501486.108	 3	 3.600142	 -5.437115	 2.092487	 -2.619176	 -0.450079	 1.414429	 0.568046	 -0.753312	 0.327433	 0.051300	 7
1462501486.118	 3	 4.033360	 -5.762039	 2.195465	 -2.676268	 -0.494808	 1.413751	 0.569785	 -0.754049	 0.326380	 0.015225	 7
1462501486.128	 3	 4.640233	 -6.070073	 2.204367	 -2.736892	 -0.544756	 1.412410	 0.571139	 -0.752916	 0.326117	 -0.023752	 7
1462501486.138	 3	 5.284578	 -6.274659	 2.120118	 -2.800057	 -0.600296	 1.410866	 0.572115	 -0.749292	 0.327079	 -0.065312	 7
1462501486.148	 3	 5.790361	 -6.210859	 2.028915	 -2.864194	 -0.660620	 1.408063	 0.572244	 -0.743135	 0.329502	 -0.108239	 7
1462501486.158	 3	 5.989294	 -5.818543	 1.941310	 -2.927306	 -0.723179	 1.402162	 0.570965	 -0.735036	 0.333294	 -0.150451	 7
1462501486.168	 3	 5.944068	 -5.178528	 1.884779	 -2.988136	 -0.785282	 1.391514	 0.567935	 -0.725871	 0.338224	 -0.190172	 7
1462501486.188	 4	 5.451530	 -3.426929	 1.809448	 -3.098941	 -0.901679	 1.353107	 0.556177	 -0.707483	 0.351687	 -0.257781	 7
1462501486.198	 4	 5.160811	 -2.615618	 1.807806	 3.133121	 -0.954247	 1.324371	 0.547705	 -0.699371	 0.359852	 -0.285316	 7
1462501486.218	 5	 4.877311	 -1.513917	 1.665990	 3.032274	 -1.051019	 1.249360	 0.527400	 -0.684625	 0.378669	 -0.331283	 7
1462501486.228	 5	 4.925691	 -1.141344	 1.581643	 2.978383	 -1.097440	 1.202005	 0.515916	 -0.677303	 0.389437	 -0.351325	 7
1462501486.238	 5	 5.015583	 -0.987197	 1.460798	 2.918056	 -1.143621	 1.146281	 0.503878	 -0.669406	 0.400981	 -0.370428	 7
1462501486.248	 5	 4.991714	 -0.764457	 1.366094	 2.848549	 -1.188489	 1.079767	 0.491468	 -0.661089	 0.412921	 -0.388481	 7
1462501486.258	 5	 4.842745	 -0.394329	 1.304758	 2.768356	 -1.230368	 0.999249	 0.478455	 -0.653094	 0.425176	 -0.404690	 7
1462501486.268	 5	 4.600127	 -0.154038	 1.195070	 2.675587	 -1.267999	 0.903615	 0.465296	 -0.645520	 0.437313	 -0.418998	 7
1462501486.278	 5	 4.321257	 -0.081078	 1.023392	 2.569146	 -1.300866	 0.793621	 0.452732	 -0.638052	 0.448924	 -0.431731	 7
1462501486.288	 5	 4.022793	 -0.118426	 0.886028	 2.447186	 -1.328534	 0.668646	 0.441098	 -0.630560	 0.459688	 -0.443299	 7
1462501486.298	 5	 3.702964	 -0.217965	 0.817546	 2.308688	 -1.350157	 0.528320	 0.430445	 -0.623162	 0.469265	 -0.454065	 7
1462501486.308	 5	 3.392747	 -0.324901	 0.759569	 2.157061	 -1.365422	 0.376273	 0.420796	 -0.615909	 0.477596	 -0.464208	 7
1462501486.318	 5	 3.106257	 -0.371348	 0.692357	 1.999972	 -1.374691	 0.219677	 0.412052	 -0.608896	 0.484901	 -0.473635	 7
1462501486.328	 5	 2.865016	 -0.344390	 0.645683	 1.845284	 -1.378625	 0.065681	 0.403960	 -0.602247	 0.491454	 -0.482274	 7
1462501486.338	 5	 2.660679	 -0.200421	 0.615764	 1.700089	 -1.377921	 -0.079741	 0.396103	 -0.596204	 0.497560	 -0.489977	 7
1462501486.348	 5	 2.469370	 0.075727	 0.484647	 1.570969	 -1.374292	 -0.211346	 0.388339	 -0.590940	 0.503730	 -0.496225	 7
1462501486.358	 5	 2.274496	 0.372316	 0.237584	 1.459579	 -1.369949	 -0.328065	 0.380882	 -0.586394	 0.510391	 -0.500571	 7
1462501486.368	 5	 2.074352	 0.479399	 -0.036775	 1.362343	 -1.366283	 -0.432093	 0.374267	 -0.582159	 0.517408	 -0.503292	 7
1462501486.378	 5	 1.847371	 0.434429	 -0.169504	 1.276776	 -1.362984	 -0.524138	 0.368714	 -0.578061	 0.524155	 -0.505131	 7
1462501486.388	 5	 1.610774	 0.260818	 -0.152007	 1.203308	 -1.359100	 -0.602441	 0.364140	 -0.574158	 0.529942	 -0.506860	 7
1462501486.398	 5	 1.431649	 -0.001820	 -0.067630	 1.139949	 -1.354236	 -0.667964	 0.360490	 -0.570243	 0.534510	 -0.509086	 7
1462501486.408	 5	 1.326531	 -0.247127	 0.089801	 1.084804	 -1.347870	 -0.722507	 0.357436	 -0.566222	 0.537881	 -0.512168	 7
1462501486.418	 5	 1.310864	 -0.348749	 0.296815	 1.037203	 -1.339333	 -0.767926	 0.354279	 -0.562269	 0.540348	 -0.516105	 7
1462501486.428	 5	 1.346182	 -0.270807	 0.498662	 0.996904	 -1.328495	 -0.806280	 0.350378	 -0.558662	 0.542397	 -0.520516	 7
1462501486.438	 5	 1.402483	 -0.038741	 0.695366	 0.964641	 -1.315389	 -0.838488	 0.345230	 -0.555743	 0.544390	 -0.524981	 7
1462501486.448	 5	 1.456738	 0.269413	 0.823521	 0.940093	 -1.300495	 -0.865892	 0.338682	 -0.553680	 0.546612	 -0.529102	 7
1462501486.458	 5	 1.490090	 0.514277	 0.869205	 0.920935	 -1.284783	 -0.890641	 0.331112	 -0.552277	 0.549224	 -0.532642	 7
1462501486.468	 5	 1.500413	 0.671617	 0.863119	 0.905846	 -1.268643	 -0.912980	 0.322944	 -0.551273	 0.552032	 -0.535785	 7
1462501486.478	 5	 1.526993	 0.906510	 0.558134	 0.889828	 -1.254109	 -0.938641	 0.314751	 -0.550368	 0.555810	 -0.537682	 7
1462501486.488	 5	 1.575457	 1.128786	 0.135607	 0.869197	 -1.242274	 -0.971779	 0.306866	 -0.549281	 0.561137	 -0.537819	 7
1462501486.498	 5	 1.552567	 1.265068	 -0.147484	 0.845593	 -1.232752	 -1.009816	 0.299442	 -0.548039	 0.567551	 -0.536538	 7
1462501486.508	 5	 1.446086	 1.323804	 -0.157734	 0.824862	 -1.224095	 -1.045810	 0.292191	 -0.547103	 0.573996	 -0.534632	 7
1462501486.518	 5	 1.328993	 1.414678	 -0.099119	 0.809585	 -1.215609	 -1.076686	 0.284913	 -0.546699	 0.579966	 -0.532526	 7
1462501486.528	 5	 1.269371	 1.627941	 -0.048656	 0.799654	 -1.207189	 -1.104247	 0.277061	 -0.547085	 0.585876	 -0.529797	 7
1462501486.538	 5	 1.210384	 1.687518	 0.076040	 0.794399	 -1.198329	 -1.127832	 0.268780	 -0.547957	 0.591411	 -0.527004	 7
1462501486.548	 5	 1.220372	 1.632296	 0.238501	 0.792741	 -1.188418	 -1.147419	 0.260136	 -0.548981	 0.596390	 -0.524660	 7
1462501486.558	 5	 1.272154	 1.457229	 0.318485	 0.791084	 -1.177393	 -1.165492	 0.251485	 -0.549544	 0.600983	 -0.523044	 7
1462501486.568	 5	 1.290283	 1.223227	 0.324675	 0.787692	 -1.166005	 -1.183098	 0.243354	 -0.549418	 0.605255	 -0.522097	 7
1462501486.578	 5	 1.257924	 0.987716	 0.249228	 0.781955	 -1.155089	 -1.200746	 0.236119	 -0.548616	 0.609280	 -0.521581	 7
1462501486.588	 5	 1.143501	 0.829620	 0.109138	 0.774411	 -1.145681	 -1.218447	 0.230018	 -0.547434	 0.613129	 -0.521038	 7
1462501486.598	 5	 0.920834	 0.793155	 -0.022483	 0.767504	 -1.138574	 -1.234790	 0.224990	 -0.546492	 0.616702	 -0.520005	 7
1462501486.608	 5	 0.595242	 0.835041	 -0.098124	 0.764272	 -1.134228	 -1.247415	 0.220904	 -0.546428	 0.619693	 -0.518266	 7
1462501486.618	 5	 0.237698	 0.852883	 -0.128950	 0.766043	 -1.132735	 -1.254865	 0.217755	 -0.547482	 0.621840	 -0.515908	 7
1462501486.628	 5	 -0.076222	 0.807091	 -0.117051	 0.772428	 -1.133615	 -1.256869	 0.215549	 -0.549472	 0.623031	 -0.513275	 7
1462501486.638	 5	 -0.277965	 0.762251	 -0.075212	 0.782351	 -1.135902	 -1.254450	 0.213982	 -0.552088	 0.623440	 -0.510621	 7
1462501486.648	 5	 -0.385763	 0.699271	 -0.003454	 0.794727	 -1.138631	 -1.248714	 0.212738	 -0.555021	 0.623259	 -0.508175	 7
1462501486.658	 5	 -0.436954	 0.611958	 0.109150	 0.808907	 -1.141031	 -1.240060	 0.211633	 -0.558036	 0.622542	 -0.506210	 7
1462501486.668	 5	 -0.457481	 0.672553	 0.243113	 0.825722	 -1.142607	 -1.228670	 0.210185	 -0.561298	 0.621426	 -0.504575	 7
1462501486.678	 5	 -0.490489	 0.806532	 0.371473	 0.846268	 -1.143294	 -1.214575	 0.208037	 -0.565089	 0.620022	 -0.502958	 7
1462501486.688	 5	 -0.554606	 0.958239	 0.438454	 0.870515	 -1.143572	 -1.198048	 0.205324	 -0.569503	 0.618381	 -0.501113	 7
1462501486.698	 5	 -0.633006	 1.095534	 0.419099	 0.897546	 -1.144142	 -1.180023	 0.202349	 -0.574489	 0.616637	 -0.498775	 7
1462501486.708	 5	 -0.690566	 1.209710	 0.300232	 0.925771	 -1.145634	 -1.162037	 0.199416	 -0.579863	 0.615029	 -0.495712	 7
1462501486.718	 5	 -0.730653	 1.249859	 0.100591	 0.953086	 -1.148659	 -1.145726	 0.196928	 -0.585297	 0.613791	 -0.491840	 7
1462501486.728	 5	 -0.784951	 1.192424	 -0.067861	 0.979095	 -1.153293	 -1.130563	 0.195176	 -0.590613	 0.612788	 -0.487416	 7
1462501486.738	 5	 -0.775694	 0.959949	 -0.147906	 1.002591	 -1.158711	 -1.116121	 0.194329	 -0.595376	 0.611791	 -0.483194	 7
1462501486.748	 5	 -0.674404	 0.671782	 -0.097115	 1.022260	 -1.163450	 -1.102718	 0.194125	 -0.599187	 0.610691	 -0.479944	 7
1462501486.758	 5	 -0.515762	 0.454482	 0.068938	 1.038728	 -1.166117	 -1.090334	 0.193837	 -0.602126	 0.609459	 -0.477945	 7
1462501486.768	 5	 -0.355979	 0.232039	 0.259445	 1.052078	 -1.166263	 -1.078912	 0.193274	 -0.604219	 0.608031	 -0.477350	 7
1462501486.778	 5	 -0.198094	 0.076465	 0.430342	 1.062466	 -1.164045	 -1.068848	 0.192319	 -0.605585	 0.606497	 -0.477956	 7
1462501486.788	 5	 -0.062785	 -0.091998	 0.574672	 1.069926	 -1.159761	 -1.060177	 0.191055	 -0.606272	 0.604866	 -0.479656	 7
1462501486.798	 5	 0.036026	 -0.218562	 0.615264	 1.074397	 -1.154309	 -1.053199	 0.189741	 -0.606351	 0.603253	 -0.482102	 7
1462501486.808	 5	 0.044667	 -0.344768	 0.522359	 1.076159	 -1.149185	 -1.047843	 0.188879	 -0.605963	 0.601773	 -0.484770	 7
1462501486.818	 5	 -0.111258	 -0.422387	 0.316236	 1.077232	 -1.146193	 -1.042194	 0.189125	 -0.605512	 0.600292	 -0.487068	 7
1462501486.828	 5	 -0.399623	 -0.444986	 0.016926	 1.080101	 -1.146866	 -1.034231	 0.190933	 -0.605494	 0.598671	 -0.488379	 7
1462501486.838	 5	 -0.746707	 -0.492768	 -0.258661	 1.086223	 -1.151695	 -1.022253	 0.194576	 -0.606100	 0.596692	 -0.488611	 7
1462501486.848	 5	 -0.986492	 -0.373367	 -0.317276	 1.097613	 -1.158806	 -1.005205	 0.199073	 -0.607558	 0.594197	 -0.488029	 7
1462501486.858	 5	 -1.219821	 -0.235963	 -0.384306	 1.115078	 -1.167250	 -0.983309	 0.203781	 -0.609969	 0.591310	 -0.486584	 7
1462501486.868	 5	 -1.493408	 -0.097906	 -0.377442	 1.140395	 -1.176877	 -0.954341	 0.208841	 -0.613446	 0.587738	 -0.484390	 7
1462501486.878	 5	 -1.627583	 0.107411	 -0.279510	 1.173775	 -1.186128	 -0.918881	 0.213489	 -0.617958	 0.583599	 -0.481624	 7
1462501486.888	 5	 -1.628900	 0.224892	 -0.213394	 1.211735	 -1.194244	 -0.880194	 0.217515	 -0.622961	 0.579283	 -0.478579	 7
1462501486.898	 5	 -1.518684	 0.113506	 -0.275073	 1.248600	 -1.201801	 -0.842311	 0.221548	 -0.627544	 0.575202	 -0.475654	 7
1462501486.908	 5	 -1.310472	 -0.184976	 -0.429936	 1.278583	 -1.209616	 -0.809091	 0.226306	 -0.630782	 0.571701	 -0.473347	 7
1462501486.918	 5	 -1.069699	 -0.540387	 -0.648492	 1.298778	 -1.218429	 -0.782742	 0.232120	 -0.632264	 0.569015	 -0.471789	 7
1462501486.928	 5	 -0.854366	 -0.832140	 -0.899273	 1.309105	 -1.228887	 -0.763554	 0.239089	 -0.632032	 0.567216	 -0.470785	 7
1462501486.938	 5	 -0.722353	 -0.961578	 -1.094530	 1.312707	 -1.240970	 -0.749852	 0.246811	 -0.630676	 0.566197	 -0.469844	 7
1462501486.948	 5	 -0.735844	 -1.035542	 -1.179296	 1.314473	 -1.254078	 -0.737178	 0.255076	 -0.628853	 0.565369	 -0.468869	 7
1462501486.958	 5	 -0.869917	 -0.936373	 -1.198521	 1.320563	 -1.267735	 -0.720591	 0.263519	 -0.627380	 0.564296	 -0.467463	 7
1462501486.968	 5	 -1.061264	 -0.795271	 -1.178490	 1.335098	 -1.281707	 -0.696759	 0.271932	 -0.626711	 0.562793	 -0.465350	 7
1462501486.978	 5	 -1.242536	 -0.660723	 -1.031781	 1.360220	 -1.294864	 -0.663328	 0.280053	 -0.626974	 0.560566	 -0.462860	 7
1462501486.988	 5	 -1.351776	 -0.463209	 -0.826497	 1.396138	 -1.306018	 -0.620730	 0.287308	 -0.628265	 0.557688	 -0.460133	 7
1462501486.998	 5	 -1.371904	 -0.314369	 -0.697046	 1.439506	 -1.315235	 -0.572270	 0.293686	 -0.630239	 0.554520	 -0.457225	 7
1462501487.008	 5	 -1.294907	 -0.272122	 -0.706915	 1.484849	 -1.323612	 -0.522587	 0.299665	 -0.632218	 0.551536	 -0.454213	 7
1462501487.018	 5	 -1.160590	 -0.272779	 -0.743261	 1.528303	 -1.331725	 -0.475008	 0.305449	 -0.633775	 0.549007	 -0.451244	 7
1462501487.028	 5	 -1.021804	 -0.245671	 -0.762335	 1.569059	 -1.339530	 -0.430471	 0.310923	 -0.634923	 0.546971	 -0.448355	 7
1462501487.038	 5	 -0.936316	 -0.185606	 -0.805151	 1.608805	 -1.347286	 -0.387602	 0.316121	 -0.635829	 0.545401	 -0.445339	 7
1462501487.048	 5	 -0.934057	 -0.105245	 -0.869434	 1.651326	 -1.355243	 -0.342719	 0.321241	 -0.636716	 0.544132	 -0.441948	 7
1462501487.058	 5	 -0.980727	 -0.017068	 -0.902312	 1.700155	 -1.363169	 -0.292352	 0.326349	 -0.637802	 0.542955	 -0.438069	 7
1462501487.068	 5	 -0.996771	 0.157788	 -0.850454	 1.755318	 -1.370193	 -0.237132	 0.330997	 -0.639313	 0.541847	 -0.433730	 7
1462501487.078	 5	 -0.967714	 0.356218	 -0.756139	 1.814296	 -1.375748	 -0.180151	 0.334760	 -0.641327	 0.540922	 -0.428997	 7
1462501487.088	 5	 -0.929304	 0.520421	 -0.684605	 1.874992	 -1.379944	 -0.123170	 0.337718	 -0.643705	 0.540201	 -0.423997	 7
1462501487.098	 5	 -0.887371	 0.772720	 -0.636795	 1.937434	 -1.383121	 -0.066756	 0.339803	 -0.646510	 0.539865	 -0.418455	 7
1462501487.108	 5	 -0.842308	 1.003791	 -0.581749	 2.000831	 -1.385320	 -0.011933	 0.340936	 -0.649772	 0.539965	 -0.412306	 7
1462501487.118	 5	 -0.823921	 1.208582	 -0.494743	 2.064278	 -1.386267	 0.040826	 0.341181	 -0.653493	 0.540305	 -0.405725	 7
1462501487.128	 5	 -0.812254	 1.360092	 -0.424160	 2.127142	 -1.385979	 0.091274	 0.340675	 -0.657619	 0.540777	 -0.398796	 7
1462501487.138	 5	 -0.765882	 1.411451	 -0.363337	 2.187019	 -1.384825	 0.137892	 0.339664	 -0.661862	 0.541346	 -0.391807	 7
1462501487.148	 5	 -0.703138	 1.344437	 -0.338929	 2.241979	 -1.383231	 0.179896	 0.338485	 -0.665891	 0.541940	 -0.385121	 7
1462501487.158	 5	 -0.630277	 1.208899	 -0.372797	 2.292852	 -1.381844	 0.218999	 0.337562	 -0.669420	 0.542568	 -0.378878	 7
1462501487.168	 5	 -0.529055	 0.964896	 -0.391936	 2.338246	 -1.380931	 0.254687	 0.337102	 -0.672220	 0.543179	 -0.373417	 7
1462501487.178	 5	 -0.415393	 0.654816	 -0.424586	 2.377025	 -1.380700	 0.286745	 0.337330	 -0.674085	 0.543681	 -0.369092	 7
1462501487.188	 5	 -0.317901	 0.421465	 -0.589602	 2.414515	 -1.381842	 0.320153	 0.338508	 -0.674966	 0.544305	 -0.365466	 7
1462501487.198	 5	 -0.175507	 0.447364	 -0.773912	 2.455452	 -1.384962	 0.357535	 0.340223	 -0.675074	 0.545626	 -0.361685	 7
1462501487.208	 5	 -0.102181	 0.682624	 -0.862951	 2.501155	 -1.389302	 0.397703	 0.341575	 -0.675049	 0.547832	 -0.357092	 7
1462501487.218	 5	 -0.173911	 0.914234	 -0.927315	 2.555500	 -1.393335	 0.444239	 0.342566	 -0.675414	 0.550409	 -0.351447	 7
1462501487.228	 5	 -0.348669	 1.207138	 -0.941186	 2.620698	 -1.395756	 0.498982	 0.343157	 -0.676586	 0.552979	 -0.344511	 7
1462501487.238	 5	 -0.595056	 1.380858	 -0.845768	 2.691918	 -1.395137	 0.557524	 0.343264	 -0.678868	 0.554998	 -0.336578	 7
1462501487.248	 5	 -0.811959	 1.202797	 -0.700593	 2.759406	 -1.391134	 0.613206	 0.343524	 -0.681831	 0.555807	 -0.328902	 7
1462501487.258	 5	 -0.893299	 0.791443	 -0.547001	 2.796270	 -1.384871	 0.642151	 0.343371	 -0.684885	 0.555049	 -0.323959	 7
1462501487.268	 5	 -0.780546	 0.419436	 -0.466183	 2.838756	 -1.378625	 0.680277	 0.344941	 -0.687143	 0.553875	 -0.319487	 7
1462501487.278	 5	 -0.538349	 0.174164	 -0.456719	 2.871864	 -1.374108	 0.711708	 0.346839	 -0.688390	 0.552911	 -0.316402	 7
1462501487.288	 5	 -0.273193	 0.064797	 -0.470703	 2.899617	 -1.372028	 0.739145	 0.348750	 -0.688642	 0.552636	 -0.314227	 7
1462501487.298	 5	 -0.068194	 0.063328	 -0.443726	 2.923408	 -1.371940	 0.762827	 0.350332	 -0.688258	 0.553051	 -0.312574	 7
1462501487.308	 5	 0.073469	 0.178246	 -0.379945	 2.943678	 -1.373172	 0.782054	 0.351235	 -0.687668	 0.554063	 -0.311064	 7
1462501487.318	 5	 0.147113	 0.356086	 -0.320314	 2.961918	 -1.375097	 0.797484	 0.351310	 -0.687199	 0.555579	 -0.309307	 7
1462501487.328	 5	 0.254578	 0.327775	 -0.367341	 2.980798	 -1.377955	 0.813275	 0.351211	 -0.686468	 0.557502	 -0.307578	 7
1462501487.338	 5	 0.210289	 0.522898	 -0.465321	 3.006055	 -1.380878	 0.834363	 0.351096	 -0.685752	 0.559764	 -0.305190	 7
1462501487.348	 5	 0.141116	 0.880754	 -0.573294	 3.041394	 -1.383051	 0.862273	 0.350510	 -0.685563	 0.562510	 -0.301212	 7
1462501487.358	 5	 0.135341	 1.119171	 -0.698917	 3.086598	 -1.384910	 0.897417	 0.349578	 -0.685612	 0.565832	 -0.295914	 7
1462501487.368	 5	 0.155635	 1.206668	 -0.798461	 3.139875	 -1.386617	 0.939468	 0.348638	 -0.685581	 0.569566	 -0.289870	 7
1462501487.378	 5	 0.214335	 1.215996	 -0.808477	 -3.087140	 -1.388374	 0.984258	 0.347670	 -0.685345	 0.573517	 -0.283737	 7
1462501487.388	 5	 0.293748	 1.259802	 -0.749078	 -3.031827	 -1.390476	 1.027829	 0.346324	 -0.684976	 0.577692	 -0.277740	 7
1462501487.398	 5	 0.361475	 1.299520	 -0.671498	 -2.978501	 -1.392980	 1.068894	 0.344466	 -0.684551	 0.582061	 -0.271916	 7
1462501487.408	 5	 0.379981	 1.320162	 -0.604324	 -2.927295	 -1.395540	 1.107572	 0.342240	 -0.684148	 0.586444	 -0.266265	 7
1462501487.418	 5	 0.350600	 1.405515	 -0.579827	 -2.876430	 -1.397659	 1.145199	 0.339696	 -0.683910	 0.590799	 -0.260441	 7
1462501487.428	 5	 0.303770	 1.439623	 -0.588694	 -2.824644	 -1.399001	 1.183155	 0.337024	 -0.683837	 0.595066	 -0.254318	 7
1462501487.438	 5	 0.237374	 1.372965	 -0.567421	 -2.774378	 -1.399486	 1.220072	 0.334529	 -0.683845	 0.599003	 -0.248276	 7
1462501487.448	 5	 0.130247	 1.409269	 -0.444653	 -2.731261	 -1.399112	 1.249669	 0.331793	 -0.684283	 0.602455	 -0.242318	 7
1462501487.458	 5	 0.121047	 1.392103	 -0.322170	 -2.696294	 -1.398715	 1.270910	 0.328603	 -0.685045	 0.605580	 -0.236654	 7
1462501487.468	 5	 0.199766	 1.277531	 -0.249318	 -2.664922	 -1.399112	 1.289492	 0.325345	 -0.685601	 0.608635	 -0.231656	 7
1462501487.478	 5	 0.306311	 1.190439	 -0.189242	 -2.634767	 -1.400615	 1.307816	 0.322032	 -0.685807	 0.611786	 -0.227339	 7
1462501487.488	 5	 0.390414	 1.129586	 -0.145967	 -2.604544	 -1.403061	 1.326867	 0.318637	 -0.685707	 0.615069	 -0.223533	 7
1462501487.498	 5	 0.419112	 1.069188	 -0.103083	 -2.574974	 -1.405998	 1.345850	 0.315221	 -0.685451	 0.618336	 -0.220121	 7
1462501487.508	 5	 0.404961	 0.970656	 -0.055917	 -2.547780	 -1.409065	 1.363296	 0.311914	 -0.685157	 0.621388	 -0.217133	 7
1462501487.518	 5	 0.344736	 0.822362	 0.003976	 -2.525803	 -1.411965	 1.376832	 0.308886	 -0.684942	 0.623976	 -0.214704	 7
1462501487.528	 5	 0.280251	 0.657224	 0.086130	 -2.511361	 -1.414756	 1.384390	 0.306161	 -0.684866	 0.625991	 -0.212977	 7
1462501487.538	 5	 0.234920	 0.520400	 0.120422	 -2.502494	 -1.417413	 1.387749	 0.303766	 -0.684865	 0.627551	 -0.211813	 7
1462501487.548	 5	 0.219091	 0.330079	 0.123051	 -2.496304	 -1.419906	 1.390146	 0.301920	 -0.684756	 0.628761	 -0.211218	 7
1462501487.558	 5	 0.208796	 0.136937	 0.178895	 -2.494644	 -1.422572	 1.390006	 0.300576	 -0.684525	 0.629585	 -0.211431	 7
1462501487.568	 5	 0.185313	 0.076614	 0.224590	 -2.659327	 -1.436208	 1.226029	 0.292211	 -0.688514	 0.626049	 -0.220507	 7
1462501487.578	 5	 0.170494	 0.107458	 0.218612	 -2.667143	 -1.438774	 1.217166	 0.290950	 -0.688402	 0.626542	 -0.221124	 7
1462501487.588	 5	 0.170610	 0.153010	 0.193456	 -2.673400	 -1.441191	 1.209424	 0.289630	 -0.688318	 0.627110	 -0.221508	 7
1462501487.598	 5	 0.170753	 0.196505	 0.177873	 -2.678166	 -1.443531	 1.202750	 0.288235	 -0.688250	 0.627764	 -0.221686	 7
1462501487.608	 5	 0.183708	 0.237724	 0.153741	 -2.772927	 -1.449742	 1.106362	 0.283237	 -0.690000	 0.626683	 -0.225711	 7
1462501487.618	 5	 0.185798	 0.240801	 0.138831	 -2.775776	 -1.451983	 1.101041	 0.281781	 -0.689888	 0.627512	 -0.225573	 7
1462501487.628	 5	 0.166622	 0.205064	 0.189822	 -2.782336	 -1.454218	 1.092280	 0.280310	 -0.689834	 0.628210	 -0.225629	 7
1462501487.638	 5	 0.156985	 0.167071	 0.226854	 -2.793807	 -1.456479	 1.078977	 0.278816	 -0.689841	 0.628751	 -0.225947	 7
1462501487.648	 5	 0.129078	 0.144630	 0.205655	 -2.882666	 -1.459628	 0.989014	 0.274992	 -0.691375	 0.627613	 -0.229088	 7
1462501487.658	 5	 0.084067	 0.138088	 0.165487	 -2.894471	 -1.460992	 0.975721	 0.273833	 -0.691479	 0.627934	 -0.229285	 7
1462501487.668	 5	 0.049641	 0.114489	 0.124002	 -2.903912	 -1.461865	 0.964991	 0.272917	 -0.691626	 0.628143	 -0.229362	 7
1462501487.678	 5	 0.023666	 0.055909	 0.102368	 -2.912068	 -1.462405	 0.956063	 0.272288	 -0.691759	 0.628223	 -0.229490	 7
1462501487.688	 5	 0.001009	 0.016472	 0.084128	 -2.965272	 -1.462185	 0.902852	 0.270604	 -0.692916	 0.627060	 -0.231165	 7
1462501487.698	 5	 -0.009647	 0.031295	 0.070503	 -2.971702	 -1.462236	 0.896139	 0.270285	 -0.693066	 0.626983	 -0.231298	 7
1462501487.708	 5	 -0.021294	 0.056804	 0.063382	 -2.977324	 -1.462170	 0.889965	 0.269919	 -0.693268	 0.626916	 -0.231299	 7
1462501487.718	 5	 -0.041561	 0.063208	 0.058289	 -2.982634	 -1.461909	 0.883988	 0.269556	 -0.693535	 0.626807	 -0.231219	 7
1462501487.728	 5	 -0.071637	 0.015459	 0.063470	 -3.020082	 -1.461064	 0.846370	 0.268367	 -0.694501	 0.625853	 -0.232284	 7
1462501487.738	 5	 -0.069670	 -0.255685	 0.074784	 -3.029231	 -1.460456	 0.839047	 0.268781	 -0.694599	 0.625275	 -0.233067	 7
1462501487.748	 5	 -0.151592	 -0.187504	 0.056948	 -3.038461	 -1.459287	 0.832065	 0.269418	 -0.694808	 0.624459	 -0.233896	 7
1462501487.758	 5	 -0.239615	 -0.057595	 0.041871	 -3.045010	 -1.457088	 0.826246	 0.269771	 -0.695479	 0.623522	 -0.233994	 7
1462501487.768	 5	 -0.187475	 -0.069679	 0.011476	 -3.059889	 -1.457431	 0.812071	 0.269429	 -0.695543	 0.623293	 -0.234805	 7
1462501487.778	 5	 -0.104343	 -0.077498	 -0.006373	 -3.061169	 -1.456202	 0.811551	 0.269825	 -0.695831	 0.622767	 -0.234892	 7
1462501487.788	 5	 -0.075543	 -0.071279	 -0.017223	 -3.061259	 -1.455401	 0.812215	 0.270201	 -0.695971	 0.622406	 -0.235002	 7
1462501487.798	 5	 -0.077432	 -0.023377	 -0.012498	 -3.060946	 -1.454638	 0.812921	 0.270460	 -0.696141	 0.622108	 -0.234991	 7
1462501487.808	 5	 -0.077041	 0.054316	 -0.005377	 -3.066187	 -1.453239	 0.807383	 0.270363	 -0.696693	 0.621577	 -0.234872	 7
1462501487.818	 5	 -0.074547	 0.135109	 -0.009970	 -3.069193	 -1.451832	 0.803250	 0.270057	 -0.697320	 0.621180	 -0.234413	 7
1462501487.828	 5	 -0.070009	 0.200965	 -0.020048	 -3.070766	 -1.450717	 0.799865	 0.269523	 -0.697927	 0.620985	 -0.233736	 7
1462501487.838	 5	 -0.068759	 0.240307	 -0.020751	 -3.072684	 -1.449694	 0.795665	 0.268796	 -0.698576	 0.620869	 -0.232942	 7
1462501487.848	 5	 -0.067567	 0.255285	 -0.007825	 -3.076087	 -1.449000	 0.789782	 0.267894	 -0.699178	 0.620860	 -0.232198	 7
1462501487.858	 5	 -0.064434	 0.227716	 0.005756	 -3.081234	 -1.448826	 0.782310	 0.266902	 -0.699633	 0.620979	 -0.231651	 7
1462501487.868	 5	 -0.048569	 0.192584	 0.008497	 -3.086811	 -1.449285	 0.774764	 0.265932	 -0.699854	 0.621266	 -0.231328	 7
1462501487.878	 5	 -0.018826	 0.163756	 0.005846	 -3.091837	 -1.449608	 0.768061	 0.265104	 -0.700065	 0.621485	 -0.231053	 7
1462501487.888	 5	 0.015192	 0.134931	 0.005289	 -3.095999	 -1.450033	 0.762520	 0.264402	 -0.700189	 0.621720	 -0.230850	 7
1462501487.898	 5	 0.040742	 0.121033	 0.006007	 -3.098039	 -1.450331	 0.759267	 0.263858	 -0.700292	 0.621929	 -0.230596	 7
1462501487.908	 5	 0.053526	 0.123067	 -0.001540	 -3.100349	 -1.450476	 0.755775	 0.263335	 -0.700442	 0.622076	 -0.230340	 7
1462501487.918	 5	 0.055689	 0.141050	 -0.014175	 -3.101787	 -1.450226	 0.753010	 0.262846	 -0.700716	 0.622119	 -0.229948	 7
1462501487.928	 5	 0.051474	 0.164379	 -0.025637	 -3.102510	 -1.449535	 0.750754	 0.262369	 -0.701141	 0.622044	 -0.229401	 7
1462501487.938	 5	 0.042955	 0.181330	 -0.038183	 -3.104224	 -1.448544	 0.747320	 0.261825	 -0.701697	 0.621870	 -0.228792	 7
1462501487.948	 5	 0.034367	 0.180230	 -0.046632	 -3.106333	 -1.447487	 0.743490	 0.261270	 -0.702281	 0.621666	 -0.228192	 7
1462501487.958	 5	 0.031103	 0.164330	 -0.040344	 -3.108869	 -1.446296	 0.739343	 0.260751	 -0.702898	 0.621394	 -0.227626	 7
1462501487.968	 5	 0.030935	 0.129251	 -0.037459	 -3.111638	 -1.445067	 0.735263	 0.260330	 -0.703491	 0.621069	 -0.227160	 7
1462501487.978	 5	 0.032886	 0.084647	 -0.027220	 -3.115346	 -1.443963	 0.730673	 0.260002	 -0.704006	 0.620723	 -0.226887	 7
1462501487.988	 5	 0.039103	 0.035785	 -0.016005	 -3.113291	 -1.444322	 0.732261	 0.259879	 -0.703922	 0.620936	 -0.226706	 7
1462501487.998	 5	 0.050689	 -0.002489	 -0.009002	 -3.112290	 -1.444799	 0.733204	 0.259841	 -0.703767	 0.621125	 -0.226713	 7
1462501488.008	 5	 0.050555	 -0.033312	 -0.006091	 -3.111916	 -1.445308	 0.733847	 0.259888	 -0.703570	 0.621278	 -0.226852	 7
1462501488.018	 5	 0.029118	 -0.049203	 -0.006037	 -3.119303	 -1.443877	 0.726983	 0.259942	 -0.704063	 0.620598	 -0.227123	 7
1462501488.028	 5	 -0.003945	 -0.048017	 -0.002541	 -3.119470	 -1.443922	 0.727326	 0.260109	 -0.703985	 0.620553	 -0.227294	 7
1462501488.038	 5	 -0.025165	 -0.026642	 0.003171	 -3.119942	 -1.443713	 0.727172	 0.260226	 -0.704016	 0.620436	 -0.227384	 7
1462501488.048	 5	 -0.035761	 -0.016983	 0.010814	 -3.120851	 -1.443368	 0.726432	 0.260290	 -0.704115	 0.620281	 -0.227427	 7
1462501488.058	 5	 -0.029321	 -0.014823	 0.018249	 -3.128116	 -1.442619	 0.719368	 0.260144	 -0.704438	 0.619877	 -0.227694	 7
1462501488.068	 5	 -0.005806	 -0.005339	 0.016012	 -3.134957	 -1.442381	 0.712645	 0.259924	 -0.704606	 0.619670	 -0.227989	 7
1462501488.078	 5	 0.008087	 0.006255	 0.007483	 -3.140780	 -1.442203	 0.706811	 0.259693	 -0.704755	 0.619517	 -0.228210	 7
1462501488.088	 5	 -0.004760	 0.001998	 0.002236	 3.137265	 -1.442052	 0.701673	 0.259491	 -0.704882	 0.619383	 -0.228410	 7
1462501488.098	 5	 -0.021929	 -0.002348	 -0.016829	 3.133702	 -1.441812	 0.698177	 0.259389	 -0.705003	 0.619235	 -0.228553	 7
1462501488.108	 5	 -0.039120	 -0.004620	 -0.043334	 3.131577	 -1.441304	 0.696153	 0.259390	 -0.705180	 0.619011	 -0.228611	 7
1462501488.118	 5	 -0.058428	 -0.011079	 -0.061334	 3.130868	 -1.440813	 0.695624	 0.259477	 -0.705320	 0.618806	 -0.228635	 7
1462501488.128	 5	 -0.072325	 -0.007927	 -0.071830	 3.131118	 -1.440134	 0.696053	 0.259626	 -0.705504	 0.618549	 -0.228594	 7
1462501488.138	 5	 -0.081872	 0.000630	 -0.068458	 3.130891	 -1.439460	 0.695925	 0.259726	 -0.705704	 0.618296	 -0.228549	 7
1462501488.148	 5	 -0.080737	 -0.000305	 -0.050359	 3.135106	 -1.438637	 0.700175	 0.260014	 -0.705889	 0.618067	 -0.228271	 7
1462501488.158	 5	 -0.054040	 -0.003515	 -0.042095	 3.138367	 -1.438024	 0.703500	 0.260249	 -0.706018	 0.617895	 -0.228068	 7
1462501488.168	 5	 -0.017741	 -0.003593	 -0.038149	 3.141262	 -1.437762	 0.706456	 0.260428	 -0.706044	 0.617842	 -0.227926	 7
1462501488.178	 5	 0.006833	 0.001632	 -0.040436	 3.139528	 -1.438477	 0.704794	 0.260296	 -0.705842	 0.618058	 -0.228117	 7
1462501488.188	 5	 0.027180	 0.022791	 -0.047876	 -3.140058	 -1.438701	 0.708265	 0.260383	 -0.705731	 0.618210	 -0.227948	 7
1462501488.198	 5	 0.038002	 0.064157	 -0.059309	 -3.135238	 -1.439057	 0.712587	 0.260377	 -0.705608	 0.618471	 -0.227631	 7
1462501488.208	 5	 0.033926	 0.105645	 -0.059953	 -3.129686	 -1.439401	 0.717229	 0.260257	 -0.705529	 0.618787	 -0.227154	 7
1462501488.218	 5	 0.029761	 0.131152	 -0.063932	 -3.128089	 -1.439515	 0.717642	 0.259895	 -0.705621	 0.618987	 -0.226733	 7
1462501488.228	 5	 0.032967	 0.134316	 -0.066051	 -3.126302	 -1.439586	 0.718152	 0.259513	 -0.705735	 0.619187	 -0.226270	 7
1462501488.238	 5	 0.036064	 0.110926	 -0.063087	 -3.124814	 -1.439495	 0.718544	 0.259202	 -0.705881	 0.619304	 -0.225854	 7
1462501488.248	 5	 0.044451	 0.077949	 -0.060259	 -3.123519	 -1.439483	 0.719062	 0.258985	 -0.705963	 0.619409	 -0.225556	 7
1462501488.258	 5	 0.053941	 0.054534	 -0.058417	 -3.122511	 -1.439250	 0.719553	 0.258874	 -0.706085	 0.619402	 -0.225320	 7
1462501488.268	 5	 0.050658	 0.040715	 -0.058506	 -3.121782	 -1.438816	 0.719906	 0.258825	 -0.706255	 0.619304	 -0.225114	 7
1462501488.278	 5	 0.037780	 0.031165	 -0.060603	 -3.120919	 -1.438109	 0.720518	 0.258858	 -0.706489	 0.619099	 -0.224903	 7
1462501488.288	 5	 0.026088	 0.042885	 -0.062524	 -3.115866	 -1.438382	 0.725221	 0.258922	 -0.706365	 0.619321	 -0.224611	 7
1462501488.298	 5	 0.020850	 0.064166	 -0.063346	 -3.110463	 -1.438589	 0.730072	 0.258937	 -0.706280	 0.619548	 -0.224234	 7
1462501488.308	 5	 0.013488	 0.079179	 -0.049274	 -3.110460	 -1.437725	 0.729416	 0.258810	 -0.706629	 0.619320	 -0.223910	 7
1462501488.318	 5	 0.007144	 0.078251	 -0.033241	 -3.106845	 -1.437800	 0.732263	 0.258687	 -0.706642	 0.619495	 -0.223525	 7
1462501488.328	 5	 0.004968	 0.062364	 -0.024844	 -3.104155	 -1.437850	 0.734311	 0.258571	 -0.706663	 0.619632	 -0.223216	 7
1462501488.338	 5	 0.002779	 0.046454	 -0.019644	 -3.102061	 -1.437870	 0.735917	 0.258487	 -0.706682	 0.619730	 -0.222976	 7
1462501488.348	 5	 -0.000477	 0.043235	 -0.024971	 -3.101002	 -1.436947	 0.736574	 0.258507	 -0.706997	 0.619472	 -0.222675	 7
1462501488.358	 5	 -0.005808	 0.059115	 -0.037565	 -3.098569	 -1.435887	 0.738503	 0.258569	 -0.707340	 0.619203	 -0.222261	 7
1462501488.368	 5	 -0.016461	 0.079250	 -0.052203	 -3.095062	 -1.434800	 0.741300	 0.258611	 -0.707697	 0.618967	 -0.221731	 7
1462501488.378	 5	 -0.033510	 0.094139	 -0.059369	 -3.092518	 -1.433694	 0.742996	 0.258565	 -0.708095	 0.618723	 -0.221196	 7
1462501488.388	 5	 -0.048419	 0.102700	 -0.058084	 -3.090753	 -1.432511	 0.743820	 0.258463	 -0.708541	 0.618448	 -0.220655	 7
1462501488.398	 5	 -0.065485	 0.099620	 -0.049428	 -3.089693	 -1.431346	 0.743929	 0.258323	 -0.708996	 0.618167	 -0.220144	 7
1462501488.408	 5	 -0.077304	 0.079483	 -0.044174	 -3.088876	 -1.430274	 0.743950	 0.258216	 -0.709406	 0.617897	 -0.219706	 7
1462501488.418	 5	 -0.073176	 0.050750	 -0.044471	 -3.087431	 -1.429303	 0.744867	 0.258219	 -0.709740	 0.617645	 -0.219335	 7
1462501488.428	 5	 -0.060466	 0.036828	 -0.052165	 -3.085892	 -1.428597	 0.746059	 0.258258	 -0.709967	 0.617467	 -0.219054	 7
1462501488.438	 5	 -0.045545	 0.035694	 -0.055494	 -3.084647	 -1.428002	 0.747018	 0.258291	 -0.710159	 0.617315	 -0.218821	 7
1462501488.448	 5	 -0.039135	 0.035688	 -0.053406	 -3.084334	 -1.427501	 0.747043	 0.258268	 -0.710340	 0.617178	 -0.218644	 7
1462501488.458	 5	 -0.040272	 0.020796	 -0.053522	 -3.084302	 -1.427053	 0.746900	 0.258266	 -0.710497	 0.617042	 -0.218522	 7
1462501488.468	 5	 -0.040316	 0.016500	 -0.058877	 -3.084328	 -1.426475	 0.746778	 0.258305	 -0.710684	 0.616850	 -0.218410	 7
1462501488.478	 5	 -0.038255	 0.013199	 -0.072768	 -3.083471	 -1.425904	 0.747577	 0.258399	 -0.710845	 0.616675	 -0.218267	 7
1462501488.488	 5	 -0.040427	 0.009973	 -0.078094	 -3.082118	 -1.425374	 0.748920	 0.258528	 -0.710979	 0.616519	 -0.218122	 7
1462501488.498	 5	 -0.043658	 0.014113	 -0.076330	 -3.080832	 -1.424774	 0.750165	 0.258652	 -0.711138	 0.616340	 -0.217961	 7
1462501488.508	 5	 -0.040411	 0.018402	 -0.069914	 -3.079872	 -1.424283	 0.751040	 0.258732	 -0.711276	 0.616198	 -0.217816	 7
1462501488.518	 5	 -0.024311	 0.022738	 -0.051887	 -3.079728	 -1.423956	 0.751048	 0.258733	 -0.711389	 0.616102	 -0.217719	 7
1462501488.528	 5	 -0.003975	 0.023839	 -0.038190	 -3.080434	 -1.423819	 0.750174	 0.258657	 -0.711466	 0.616058	 -0.217681	 7
1462501488.538	 5	 0.019496	 0.022703	 -0.038395	 -3.081513	 -1.423838	 0.748936	 0.258547	 -0.711503	 0.616060	 -0.217686	 7
1462501488.548	 5	 0.033349	 0.031069	 -0.052283	 -3.081753	 -1.423832	 0.748497	 0.258465	 -0.711536	 0.616075	 -0.217635	 7
1462501488.558	 5	 0.036574	 0.042711	 -0.058585	 -3.081838	 -1.423763	 0.748110	 0.258363	 -0.711597	 0.616082	 -0.217536	 7
1462501488.568	 5	 0.029194	 0.046069	 -0.038228	 -3.083057	 -1.423648	 0.746517	 0.258186	 -0.711704	 0.616057	 -0.217463	 7
1462501488.578	 5	 0.027133	 0.036724	 -0.007379	 -3.085924	 -1.423560	 0.743307	 0.257938	 -0.711833	 0.616006	 -0.217481	 7
1462501488.588	 5	 0.034637	 0.020954	 0.021195	 -3.090256	 -1.423591	 0.738761	 0.257650	 -0.711939	 0.615953	 -0.217627	 7
1462501488.598	 5	 0.046393	 0.004084	 0.046522	 -3.096037	 -1.423825	 0.732903	 0.257316	 -0.711993	 0.615928	 -0.217915	 7
1462501488.608	 5	 0.066628	 -0.015023	 0.060028	 -3.101629	 -1.424205	 0.727392	 0.257029	 -0.711977	 0.615944	 -0.218262	 7
1462501488.618	 5	 0.083645	 -0.025711	 0.059782	 -3.106555	 -1.424653	 0.722667	 0.256809	 -0.711910	 0.615984	 -0.218623	 7
1462501488.628	 5	 0.083592	 -0.032115	 0.056525	 -3.110455	 -1.424965	 0.719032	 0.256679	 -0.711855	 0.615991	 -0.218935	 7
1462501488.638	 5	 0.062256	 -0.022523	 0.050404	 -3.113678	 -1.424904	 0.716029	 0.256610	 -0.711906	 0.615885	 -0.219149	 7
1462501488.648	 5	 0.034559	 0.000878	 0.039138	 -3.115838	 -1.424467	 0.713887	 0.256564	 -0.712078	 0.615688	 -0.219199	 7
1462501488.658	 5	 0.004682	 0.019984	 0.021456	 -3.116839	 -1.423765	 0.712698	 0.256532	 -0.712334	 0.615442	 -0.219094	 7
1462501488.668	 5	 -0.030641	 0.014641	 0.003595	 -3.116950	 -1.422986	 0.712404	 0.256554	 -0.712597	 0.615185	 -0.218937	 7
1462501488.678	 5	 -0.047849	 -0.002412	 -0.008136	 -3.116892	 -1.422217	 0.712445	 0.256642	 -0.712832	 0.614916	 -0.218824	 7
1462501488.688	 5	 -0.051184	 -0.023730	 -0.015764	 -3.116753	 -1.421569	 0.712783	 0.256796	 -0.713001	 0.614668	 -0.218791	 7
1462501488.698	 5	 -0.041655	 -0.038658	 -0.017050	 -3.116717	 -1.421127	 0.713198	 0.256985	 -0.713086	 0.614470	 -0.218845	 7
1462501488.708	 5	 -0.033101	 -0.029166	 -0.024493	 -3.116940	 -1.420829	 0.713335	 0.257138	 -0.713134	 0.614322	 -0.218926	 7
1462501488.718	 5	 -0.025529	 -0.002645	 -0.030699	 -3.117511	 -1.420609	 0.712913	 0.257188	 -0.713193	 0.614217	 -0.218970	 7
1462501488.728	 5	 -0.023316	 0.012246	 -0.029507	 -3.118077	 -1.420502	 0.712296	 0.257155	 -0.713243	 0.614173	 -0.218968	 7
1462501488.738	 5	 -0.017947	 0.013338	 -0.023140	 -3.119096	 -1.420452	 0.711189	 0.257079	 -0.713289	 0.614146	 -0.218985	 7
1462501488.748	 5	 -0.005116	 0.009120	 -0.012625	 -3.120930	 -1.420509	 0.709292	 0.256959	 -0.713314	 0.614138	 -0.219064	 7
1462501488.758	 5	 0.007728	 0.007037	 -0.001025	 -3.123237	 -1.420637	 0.706947	 0.256816	 -0.713324	 0.614144	 -0.219184	 7
1462501488.768	 5	 0.015210	 0.009140	 -0.001063	 -3.125614	 -1.420845	 0.704513	 0.256654	 -0.713312	 0.614180	 -0.219312	 7
1462501488.778	 5	 0.019474	 0.010174	 -0.003214	 -3.127783	 -1.420973	 0.702256	 0.256500	 -0.713325	 0.614194	 -0.219410	 7
1462501488.788	 5	 0.020519	 0.010130	 -0.008545	 -3.129641	 -1.421101	 0.700325	 0.256367	 -0.713330	 0.614214	 -0.219496	 7
1462501488.798	 5	 0.013006	 0.006914	 -0.014897	 -3.130986	 -1.421141	 0.698941	 0.256282	 -0.713347	 0.614207	 -0.219556	 7
1462501488.808	 5	 0.008752	 0.008012	 -0.011645	 -3.132401	 -1.421066	 0.697492	 0.256209	 -0.713400	 0.614158	 -0.219606	 7
1462501488.818	 5	 0.018417	 0.020754	 -0.010538	 -3.133638	 -1.420974	 0.696112	 0.256106	 -0.713469	 0.614119	 -0.219612	 7
1462501488.828	 5	 0.023838	 0.035667	 -0.005111	 -3.135012	 -1.420885	 0.694448	 0.255945	 -0.713559	 0.614094	 -0.219579	 7
1462501488.838	 5	 0.024966	 0.037890	 0.008761	 -3.137067	 -1.420904	 0.692025	 0.255709	 -0.713637	 0.614104	 -0.219571	 7
1462501488.848	 5	 0.020679	 0.018895	 0.027812	 -3.140201	 -1.420881	 0.688648	 0.255469	 -0.713732	 0.614066	 -0.219649	 7
1462501488.858	 5	 0.022711	 -0.008705	 0.036067	 3.139409	 -1.420862	 0.685082	 0.255296	 -0.713800	 0.613994	 -0.219828	 7
1462501488.868	 5	 0.023647	 -0.026860	 0.026300	 3.136666	 -1.420776	 0.682559	 0.255247	 -0.713847	 0.613891	 -0.220022	 7
1462501488.878	 5	 0.009629	 -0.040777	 0.008176	 3.135122	 -1.420569	 0.681379	 0.255322	 -0.713891	 0.613750	 -0.220185	 7
1462501488.888	 5	 -0.011802	 -0.040860	 -0.011886	 3.134755	 -1.420180	 0.681448	 0.255501	 -0.713962	 0.613556	 -0.220288	 7
1462501488.898	 5	 -0.026681	 -0.023820	 -0.014792	 3.134336	 -1.419607	 0.681327	 0.255648	 -0.714107	 0.613311	 -0.220329	 7
1462501488.908	 5	 -0.039464	 -0.022680	 -0.009336	 3.133409	 -1.419029	 0.680631	 0.255746	 -0.714272	 0.613062	 -0.220374	 7
1462501488.918	 5	 -0.052300	 -0.038513	 0.002357	 3.131639	 -1.418502	 0.679216	 0.255839	 -0.714420	 0.612803	 -0.220506	 7
1462501488.928	 5	 -0.049132	 -0.058625	 0.017065	 3.129589	 -1.418121	 0.677704	 0.255967	 -0.714505	 0.612571	 -0.220728	 7
1462501488.938	 5	 -0.028868	 -0.074533	 0.031662	 3.126898	 -1.417995	 0.675702	 0.256090	 -0.714502	 0.612403	 -0.221060	 7
1462501488.948	 5	 -0.003265	 -0.077801	 0.031406	 3.124706	 -1.418206	 0.674253	 0.256221	 -0.714380	 0.612358	 -0.221426	 7
1462501488.958	 5	 0.017039	 -0.061999	 0.018584	 3.123353	 -1.418519	 0.673549	 0.256351	 -0.714224	 0.612375	 -0.221732	 7
1462501488.968	 5	 0.016068	 -0.035458	 0.011378	 3.122492	 -1.418689	 0.673098	 0.256436	 -0.714134	 0.612376	 -0.221922	 7
1462501488.978	 5	 0.007651	 -0.007793	 0.009577	 3.121736	 -1.418658	 0.672481	 0.256451	 -0.714139	 0.612336	 -0.222000	 7
1462501488.988	 5	 0.001363	 0.018803	 0.007748	 3.121351	 -1.418533	 0.671961	 0.256396	 -0.714201	 0.612299	 -0.221963	 7
1462501488.998	 5	 0.001400	 0.026256	 0.008882	 3.121351	 -1.418414	 0.671700	 0.256315	 -0.714271	 0.612285	 -0.221868	 7
1462501489.008	 5	 0.005627	 0.020903	 0.005595	 3.121884	 -1.418331	 0.671999	 0.256267	 -0.714318	 0.612291	 -0.221759	 7
1462501489.018	 5	 0.011945	 0.008082	 0.000089	 3.122883	 -1.418301	 0.672867	 0.256274	 -0.714327	 0.612312	 -0.221664	 7
1462501489.028	 5	 0.011847	 -0.010015	 -0.002214	 3.123996	 -1.418294	 0.674017	 0.256345	 -0.714305	 0.612325	 -0.221618	 7
1462501489.038	 5	 0.003225	 -0.028064	 -0.001244	 3.124664	 -1.418209	 0.674909	 0.256468	 -0.714291	 0.612281	 -0.221642	 7
1462501489.048	 5	 -0.003232	 -0.037624	 -0.002346	 3.125557	 -1.418018	 0.676145	 0.256656	 -0.714290	 0.612190	 -0.221678	 7
1462501489.058	 5	 -0.011819	 -0.041899	 -0.008710	 3.126850	 -1.417755	 0.677837	 0.256892	 -0.714297	 0.612074	 -0.221702	 7
1462501489.068	 5	 -0.022559	 -0.038821	 -0.028842	 3.129335	 -1.417459	 0.680722	 0.257194	 -0.714293	 0.611967	 -0.221660	 7
1462501489.078	 5	 -0.027917	 -0.031459	 -0.042586	 3.132721	 -1.417101	 0.684471	 0.257535	 -0.714296	 0.611859	 -0.221553	 7
1462501489.088	 5	 -0.037513	 -0.019815	 -0.054118	 3.135994	 -1.416721	 0.688012	 0.257839	 -0.714318	 0.611753	 -0.221419	 7
1462501489.098	 5	 -0.036402	 -0.010246	 -0.054037	 3.138912	 -1.416289	 0.691108	 0.258100	 -0.714375	 0.611632	 -0.221268	 7
1462501489.108	 5	 -0.032051	 -0.006944	 -0.036989	 3.140690	 -1.415918	 0.693004	 0.258274	 -0.714440	 0.611519	 -0.221165	 7
1462501489.118	 5	 -0.023472	 -0.014278	 -0.017944	 3.141060	 -1.415650	 0.693521	 0.258375	 -0.714496	 0.611414	 -0.221157	 7
1462501489.128	 5	 -0.019212	 -0.029066	 -0.002131	 3.140851	 -1.415413	 0.693573	 0.258484	 -0.714539	 0.611297	 -0.221217	 7
1462501489.138	 5	 -0.018189	 -0.042858	 0.003058	 3.140898	 -1.415220	 0.694013	 0.258648	 -0.714546	 0.611185	 -0.221310	 7
1462501489.148	 5	 -0.019291	 -0.043972	 -0.004406	 3.141296	 -1.415041	 0.694844	 0.258843	 -0.714537	 0.611081	 -0.221398	 7
1462501489.158	 5	 -0.026765	 -0.036573	 -0.013865	 -3.141186	 -1.414762	 0.695938	 0.259050	 -0.714558	 0.610951	 -0.221445	 7
1462501489.168	 5	 -0.039571	 -0.025991	 -0.026445	 -3.139732	 -1.414411	 0.697683	 0.259269	 -0.714601	 0.610821	 -0.221413	 7
1462501489.178	 5	 -0.047012	 -0.013267	 -0.034787	 -3.138019	 -1.414041	 0.699589	 0.259468	 -0.714656	 0.610700	 -0.221335	 7
1462501489.188	 5	 -0.045885	 0.001598	 -0.037854	 -3.136183	 -1.413671	 0.701482	 0.259625	 -0.714726	 0.610597	 -0.221208	 7
1462501489.198	 5	 -0.031934	 0.014342	 -0.034655	 -3.135119	 -1.413510	 0.702473	 0.259673	 -0.714764	 0.610568	 -0.221109	 7
1462501489.208	 5	 -0.012657	 0.019671	 -0.025176	 -3.134587	 -1.413537	 0.702853	 0.259643	 -0.714765	 0.610604	 -0.221039	 7
1462501489.218	 5	 0.006599	 0.014418	 -0.008335	 -3.134920	 -1.413726	 0.702381	 0.259555	 -0.714732	 0.610681	 -0.221038	 7
1462501489.228	 5	 0.022624	 0.008072	 0.003194	 -3.136189	 -1.414014	 0.701030	 0.259427	 -0.714680	 0.610768	 -0.221117	 7
1462501489.238	 5	 0.031114	 -0.004696	 0.006203	 -3.137606	 -1.414327	 0.699631	 0.259325	 -0.714609	 0.610851	 -0.221237	 7
1462501489.248	 5	 0.025690	 -0.015378	 -0.002373	 -3.138433	 -1.414459	 0.698945	 0.259317	 -0.714566	 0.610867	 -0.221340	 7
1462501489.258	 5	 0.011718	 -0.022891	 -0.017240	 -3.138116	 -1.414418	 0.699495	 0.259422	 -0.714542	 0.610832	 -0.221390	 7
1462501489.268	 5	 -0.005415	 -0.019772	 -0.034113	 -3.136902	 -1.414198	 0.700951	 0.259596	 -0.714555	 0.610750	 -0.221372	 7
1462501489.278	 5	 -0.019307	 -0.011323	 -0.047764	 -3.135139	 -1.413836	 0.702896	 0.259793	 -0.714608	 0.610635	 -0.221288	 7
1462501489.288	 5	 -0.034239	 -0.002823	 -0.055011	 -3.133019	 -1.413428	 0.705120	 0.259987	 -0.714677	 0.610519	 -0.221156	 7
1462501489.298	 5	 -0.038474	 0.007794	 -0.059132	 -3.131036	 -1.413047	 0.707118	 0.260139	 -0.714753	 0.610420	 -0.221007	 7
1462501489.308	 5	 -0.038425	 0.008933	 -0.048456	 -3.129653	 -1.412719	 0.708468	 0.260237	 -0.714829	 0.610334	 -0.220880	 7
1462501489.318	 5	 -0.031952	 0.004812	 -0.027228	 -3.129516	 -1.412571	 0.708591	 0.260256	 -0.714873	 0.610286	 -0.220849	 7
1462501489.328	 5	 -0.011599	 0.003825	 -0.008223	 -3.130693	 -1.412640	 0.707399	 0.260181	 -0.714878	 0.610289	 -0.220915	 7
1462501489.338	 5	 0.008718	 -0.001448	 0.006479	 -3.132735	 -1.412933	 0.705376	 0.260048	 -0.714826	 0.610351	 -0.221067	 7
1462501489.348	 5	 0.017258	 -0.008858	 0.014868	 -3.135097	 -1.413287	 0.703090	 0.259912	 -0.714754	 0.610423	 -0.221260	 7
1462501489.358	 5	 0.024688	 -0.016343	 0.012607	 -3.137338	 -1.413680	 0.701001	 0.259805	 -0.714658	 0.610503	 -0.221475	 7
1462501489.368	 5	 0.023605	 -0.018484	 0.010469	 -3.139328	 -1.414005	 0.699202	 0.259733	 -0.714572	 0.610560	 -0.221679	 7
1462501489.378	 5	 0.020357	 -0.018560	 -0.001224	 -3.140280	 -1.414246	 0.698451	 0.259729	 -0.714491	 0.610606	 -0.221822	 7
1462501489.388	 5	 0.015027	 -0.007985	 -0.011734	 -3.140522	 -1.414320	 0.698336	 0.259753	 -0.714456	 0.610614	 -0.221883	 7
1462501489.398	 5	 0.006539	 0.010061	 -0.020014	 -3.140505	 -1.414284	 0.698324	 0.259748	 -0.714470	 0.610604	 -0.221868	 7
1462501489.408	 5	 0.000190	 0.022835	 -0.020899	 -3.140552	 -1.414199	 0.698118	 0.259698	 -0.714518	 0.610591	 -0.221811	 7
1462501489.418	 5	 -0.005071	 0.030373	 -0.010118	 -3.141147	 -1.414026	 0.697261	 0.259593	 -0.714616	 0.610546	 -0.221740	 7
1462501489.428	 5	 0.000297	 0.025145	 0.004714	 3.140452	 -1.413952	 0.695423	 0.259428	 -0.714701	 0.610518	 -0.221736	 7
1462501489.438	 5	 0.010926	 0.008163	 0.014062	 3.138216	 -1.414033	 0.693068	 0.259261	 -0.714734	 0.610518	 -0.221827	 7
1462501489.448	 5	 0.021519	 -0.009937	 0.015937	 3.135960	 -1.414208	 0.690867	 0.259143	 -0.714716	 0.610533	 -0.221983	 7
1462501489.458	 5	 0.020350	 -0.028040	 0.012585	 3.134002	 -1.414328	 0.689152	 0.259115	 -0.714684	 0.610512	 -0.222174	 7
1462501489.468	 5	 0.012838	 -0.035471	 0.011518	 3.132372	 -1.414351	 0.687863	 0.259150	 -0.714662	 0.610453	 -0.222366	 7
1462501489.478	 5	 -0.001053	 -0.036509	 0.009499	 3.130974	 -1.414191	 0.686826	 0.259223	 -0.714690	 0.610330	 -0.222529	 7
1462501489.488	 5	 -0.008527	 -0.032270	 0.004275	 3.130270	 -1.413994	 0.686451	 0.259325	 -0.714721	 0.610209	 -0.222641	 7
1462501489.498	 5	 -0.011715	 -0.024987	 0.000805	 3.129800	 -1.413810	 0.686250	 0.259416	 -0.714751	 0.610105	 -0.222725	 7
1462501489.508	 5	 -0.008498	 -0.014421	 -0.007652	 3.130372	 -1.413691	 0.686981	 0.259516	 -0.714756	 0.610055	 -0.222728	 7
1462501489.518	 5	 -0.006310	 -0.000624	 -0.010738	 3.130395	 -1.413644	 0.687063	 0.259543	 -0.714763	 0.610032	 -0.222740	 7
1462501489.528	 5	 -0.004103	 0.011101	 -0.006383	 3.130113	 -1.413618	 0.686704	 0.259504	 -0.714786	 0.610026	 -0.222727	 7
1462501489.538	 5	 -0.001913	 0.015410	 0.002167	 3.129467	 -1.413642	 0.685918	 0.259417	 -0.714808	 0.610038	 -0.222722	 7
1462501489.548	 5	 0.003455	 0.012288	 0.013817	 3.128243	 -1.413698	 0.684557	 0.259298	 -0.714831	 0.610051	 -0.222751	 7
1462501489.558	 5	 0.006618	 -0.000448	 0.019001	 3.126663	 -1.413806	 0.682941	 0.259191	 -0.714832	 0.610065	 -0.222836	 7
1462501489.568	 5	 0.009763	 -0.014270	 0.020977	 3.125053	 -1.413956	 0.681427	 0.259125	 -0.714802	 0.610079	 -0.222969	 7
1462501489.578	 5	 0.010783	 -0.021742	 0.017702	 3.123361	 -1.414090	 0.679932	 0.259093	 -0.714766	 0.610075	 -0.223134	 7
1462501489.588	 5	 0.008652	 -0.023840	 0.020899	 3.121763	 -1.414190	 0.678564	 0.259081	 -0.714734	 0.610057	 -0.223300	 7
1462501489.598	 5	 0.006518	 -0.022778	 0.019861	 3.120383	 -1.414280	 0.677398	 0.259076	 -0.714704	 0.610040	 -0.223449	 7
1462501489.608	 5	 0.004372	 -0.017523	 0.010337	 3.119407	 -1.414363	 0.676598	 0.259079	 -0.714673	 0.610033	 -0.223564	 7
1462501489.618	 5	 -0.003138	 -0.021794	 0.005033	 3.118908	 -1.414452	 0.676299	 0.259115	 -0.714628	 0.610034	 -0.223662	 7
1462501489.628	 5	 -0.011690	 -0.022855	 0.001900	 3.118530	 -1.414485	 0.676143	 0.259171	 -0.714596	 0.610014	 -0.223753	 7
1462501489.638	 5	 -0.010605	 -0.022893	 0.007092	 3.117607	 -1.414617	 0.675456	 0.259194	 -0.714541	 0.610019	 -0.223890	 7
1462501489.648	 5	 -0.004180	 -0.028154	 0.017645	 3.116412	 -1.414861	 0.674521	 0.259199	 -0.714453	 0.610057	 -0.224061	 7
1462501489.658	 5	 0.013971	 -0.033472	 0.024896	 3.114958	 -1.415255	 0.673361	 0.259188	 -0.714319	 0.610140	 -0.224275	 7
1462501489.668	 5	 0.032151	 -0.026081	 0.024805	 3.113619	 -1.415717	 0.672288	 0.259166	 -0.714165	 0.610253	 -0.224481	 7
1462501489.678	 5	 0.043924	 -0.016566	 0.021594	 3.111939	 -1.416211	 0.670775	 0.259088	 -0.714020	 0.610383	 -0.224679	 7
1462501489.688	 5	 0.043960	 -0.008065	 0.020606	 3.110509	 -1.416646	 0.669424	 0.258998	 -0.713900	 0.610507	 -0.224829	 7
1462501489.698	 5	 0.040781	 -0.003793	 0.021739	 3.109301	 -1.416972	 0.668243	 0.258912	 -0.713817	 0.610601	 -0.224939	 7
1462501489.708	 5	 0.038649	 -0.003778	 0.022822	 3.108127	 -1.417225	 0.667082	 0.258831	 -0.713756	 0.610670	 -0.225034	 7
1462501489.718	 5	 0.036476	 -0.012273	 0.023826	 3.107182	 -1.417453	 0.666206	 0.258784	 -0.713693	 0.610729	 -0.225131	 7
1462501489.728	 5	 0.033255	 -0.016510	 0.024878	 3.106139	 -1.417601	 0.665289	 0.258760	 -0.713648	 0.610751	 -0.225240	 7
1462501489.738	 5	 0.031072	 -0.018692	 0.016349	 3.105401	 -1.417702	 0.664702	 0.258766	 -0.713610	 0.610758	 -0.225336	 7
1462501489.748	 5	 0.024628	 -0.016631	 0.004700	 3.104811	 -1.417723	 0.664274	 0.258792	 -0.713592	 0.610737	 -0.225419	 7
1462501489.758	 5	 0.011793	 -0.017695	 -0.000526	 3.104281	 -1.417671	 0.663918	 0.258832	 -0.713594	 0.610690	 -0.225493	 7
1462501489.768	 5	 0.002193	 -0.017651	 0.001692	 3.103314	 -1.417510	 0.663147	 0.258867	 -0.713635	 0.610594	 -0.225584	 7
1462501489.778	 5	 0.000082	 -0.017598	 0.008106	 3.102630	 -1.417369	 0.662630	 0.258906	 -0.713669	 0.610512	 -0.225653	 7
1462501489.788	 5	 -0.002077	 -0.027126	 0.013364	 3.101659	 -1.417314	 0.661893	 0.258945	 -0.713671	 0.610450	 -0.225768	 7
1462501489.798	 5	 0.001079	 -0.036855	 0.014285	 3.101290	 -1.417320	 0.661849	 0.259041	 -0.713633	 0.610410	 -0.225887	 7
1462501489.808	 5	 0.009593	 -0.039030	 0.010991	 3.101294	 -1.417370	 0.662219	 0.259167	 -0.713571	 0.610386	 -0.226005	 7
1462501489.818	 5	 0.013876	 -0.030580	 0.004634	 3.101951	 -1.417450	 0.663186	 0.259303	 -0.713495	 0.610391	 -0.226075	 7
1462501489.828	 5	 0.010717	 -0.009397	 -0.008999	 3.103052	 -1.417413	 0.664422	 0.259412	 -0.713470	 0.610381	 -0.226055	 7
1462501489.838	 5	 -0.002017	 0.010813	 -0.014029	 3.104353	 -1.417246	 0.665674	 0.259478	 -0.713507	 0.610348	 -0.225953	 7
1462501489.848	 5	 -0.007279	 0.033112	 -0.021236	 3.105797	 -1.417012	 0.666862	 0.259485	 -0.713588	 0.610316	 -0.225773	 7
1462501489.858	 5	 -0.010451	 0.042671	 -0.024316	 3.107589	 -1.416742	 0.668259	 0.259464	 -0.713693	 0.610294	 -0.225528	 7
1462501489.868	 5	 -0.015816	 0.035256	 -0.022206	 3.109264	 -1.416466	 0.669581	 0.259452	 -0.713795	 0.610263	 -0.225300	 7
1462501489.878	 5	 -0.015859	 0.025691	 -0.021229	 3.110760	 -1.416215	 0.670818	 0.259462	 -0.713881	 0.610227	 -0.225113	 7
1462501489.888	 5	 -0.016998	 0.011859	 -0.022413	 3.112269	 -1.415940	 0.672194	 0.259521	 -0.713957	 0.610169	 -0.224962	 7
1462501489.898	 5	 -0.021310	 0.001250	 -0.020342	 3.113210	 -1.415663	 0.673122	 0.259594	 -0.714028	 0.610087	 -0.224875	 7
1462501489.908	 5	 -0.024570	 -0.011497	 -0.019365	 3.114065	 -1.415350	 0.674085	 0.259709	 -0.714096	 0.609977	 -0.224826	 7
1462501489.918	 5	 -0.021368	 -0.009395	 -0.021505	 3.115245	 -1.415065	 0.675382	 0.259842	 -0.714148	 0.609882	 -0.224766	 7
1462501489.928	 5	 -0.021329	 -0.001941	 -0.020370	 3.116529	 -1.414814	 0.676713	 0.259951	 -0.714196	 0.609809	 -0.224682	 7
1462501489.938	 5	 -0.022378	 0.000205	 -0.018210	 3.117927	 -1.414578	 0.678129	 0.260055	 -0.714242	 0.609747	 -0.224585	 7
1462501489.948	 5	 -0.017039	 0.005468	 -0.023537	 3.119633	 -1.414376	 0.679810	 0.260156	 -0.714277	 0.609707	 -0.224464	 7
1462501489.958	 5	 -0.019142	 0.012913	 -0.024515	 3.121211	 -1.414165	 0.681295	 0.260228	 -0.714326	 0.609670	 -0.224327	 7
1462501489.968	 5	 -0.020208	 0.013793	 -0.027643	 3.122736	 -1.413988	 0.682708	 0.260286	 -0.714367	 0.609647	 -0.224191	 7
1462501489.978	 5	 -0.022323	 0.016998	 -0.026527	 3.124014	 -1.413813	 0.683845	 0.260321	 -0.714416	 0.609623	 -0.224059	 7
1462501489.988	 5	 -0.022308	 0.011749	 -0.016984	 3.125047	 -1.413660	 0.684759	 0.260349	 -0.714460	 0.609600	 -0.223950	 7
1462501489.998	 5	 -0.018063	 0.001146	 -0.010725	 3.125792	 -1.413585	 0.685476	 0.260386	 -0.714473	 0.609590	 -0.223893	 7
1462501490.008	 5	 -0.007411	 -0.005253	 -0.008746	 3.126555	 -1.413639	 0.686286	 0.260437	 -0.714436	 0.609618	 -0.223874	 7
1462501490.018	 5	 0.000026	 -0.011665	 -0.009937	 3.127548	 -1.413767	 0.687374	 0.260509	 -0.714367	 0.609671	 -0.223867	 7
1462501490.028	 5	 0.000018	 -0.006408	 -0.018416	 3.128917	 -1.413867	 0.688845	 0.260607	 -0.714297	 0.609721	 -0.223839	 7
1462501490.038	 5	 -0.005299	 0.005238	 -0.027853	 3.130671	 -1.413863	 0.690603	 0.260700	 -0.714266	 0.609751	 -0.223748	 7
1462501490.048	 5	 -0.013785	 0.015901	 -0.027680	 3.132444	 -1.413793	 0.692262	 0.260760	 -0.714269	 0.609772	 -0.223612	 7
1462501490.058	 5	 -0.018020	 0.019135	 -0.023349	 3.133838	 -1.413693	 0.693496	 0.260786	 -0.714295	 0.609780	 -0.223477	 7
1462501490.068	 5	 -0.015840	 0.022373	 -0.015877	 3.134979	 -1.413604	 0.694435	 0.260783	 -0.714327	 0.609792	 -0.223345	 7
1462501490.078	 5	 -0.006238	 0.016009	 -0.009625	 3.135799	 -1.413689	 0.695078	 0.260754	 -0.714309	 0.609857	 -0.223259	 7
1462501490.088	 5	 0.003354	 0.008573	 -0.004449	 3.136443	 -1.413851	 0.695619	 0.260733	 -0.714261	 0.609939	 -0.223215	 7
1462501490.098	 5	 0.011879	 0.002196	 -0.000320	 3.136645	 -1.414024	 0.695783	 0.260711	 -0.714209	 0.610009	 -0.223215	 7
1462501490.108	 5	 0.018289	 -0.000975	 0.004923	 3.136808	 -1.414258	 0.695938	 0.260691	 -0.714135	 0.610096	 -0.223234	 7
1462501490.118	 5	 0.020411	 -0.004319	 0.003914	 3.137338	 -1.414398	 0.696486	 0.260709	 -0.714080	 0.610154	 -0.223230	 7
1462501490.128	 5	 0.017193	 0.004100	 -0.009836	 3.138477	 -1.414483	 0.697606	 0.260752	 -0.714035	 0.610208	 -0.223176	 7
1462501490.138	 5	 0.008696	 0.021075	 -0.019197	 3.140405	 -1.414432	 0.699371	 0.260800	 -0.714036	 0.610244	 -0.223020	 7
1462501490.148	 5	 -0.007298	 0.029586	 -0.025374	 -3.140950	 -1.414248	 0.700950	 0.260826	 -0.714090	 0.610241	 -0.222824	 7
1462501490.168	 6	 -0.018977	 0.037112	 -0.018806	 -3.138072	 -1.413818	 0.703112	 0.260768	 -0.714260	 0.610223	 -0.222400	 7
1462501490.178	 6	 -0.013726	 0.014798	 -0.013729	 -3.137488	 -1.413731	 0.703508	 0.260741	 -0.714299	 0.610224	 -0.222301	 7
1462501490.188	 6	 -0.009500	 0.000995	 -0.008564	 -3.137537	 -1.413739	 0.703429	 0.260726	 -0.714302	 0.610229	 -0.222295	 7
1462501490.198	 6	 -0.004189	 -0.010667	 -0.001258	 -3.137745	 -1.413790	 0.703312	 0.260742	 -0.714278	 0.610233	 -0.222340	 7
1462501490.208	 6	 0.003287	 -0.015954	 0.006089	 -3.138285	 -1.413895	 0.702924	 0.260757	 -0.714237	 0.610243	 -0.222428	 7
1462501490.218	 6	 0.008657	 -0.010636	 0.008223	 -3.138782	 -1.414019	 0.702536	 0.260756	 -0.714195	 0.610266	 -0.222504	 7
1462501490.228	 6	 0.019370	 -0.000047	 0.006096	 -3.138873	 -1.414207	 0.702469	 0.260738	 -0.714136	 0.610329	 -0.222540	 7
1462501490.238	 6	 0.021551	 0.011632	 0.004053	 -3.138894	 -1.414365	 0.702351	 0.260685	 -0.714101	 0.610395	 -0.222533	 7
1462501490.248	 6	 0.019441	 0.023284	 -0.003280	 -3.138562	 -1.414430	 0.702471	 0.260619	 -0.714102	 0.610449	 -0.222459	 7
1462501490.268	 7	 0.000225	 0.023209	 -0.005125	 -3.137680	 -1.414289	 0.702885	 0.260514	 -0.714189	 0.610467	 -0.222252	 7
1462501490.278	 7	 -0.004071	 0.016847	 -0.004081	 -3.137503	 -1.414118	 0.702885	 0.260479	 -0.714261	 0.610429	 -0.222167	 7
1462501490.298	 8	 -0.011596	 0.002009	 0.000110	 -3.137399	 -1.413850	 0.702835	 0.260460	 -0.714361	 0.610353	 -0.222079	 7
1462501490.308	 8	 -0.006285	 -0.002270	 -0.001042	 -3.137532	 -1.413788	 0.702720	 0.260466	 -0.714380	 0.610326	 -0.222083	 7
1462501490.318	 8	 -0.000943	 -0.000166	 -0.002133	 -3.137860	 -1.413769	 0.702417	 0.260460	 -0.714389	 0.610310	 -0.222105	 7
1462501490.328	 8	 0.003354	 0.005147	 -0.001055	 -3.137947	 -1.413770	 0.702298	 0.260444	 -0.714395	 0.610312	 -0.222100	 7
1462501490.338	 8	 0.005545	 0.012625	 0.004325	 -3.138437	 -1.413787	 0.701695	 0.260376	 -0.714413	 0.610322	 -0.222094	 7
1462501490.358	 9	 -0.000871	 0.008404	 0.006474	 -3.139699	 -1.413702	 0.700119	 0.260208	 -0.714504	 0.610302	 -0.222052	 7
1462501490.368	 9	 -0.007322	 -0.004318	 0.009611	 -3.140783	 -1.413666	 0.699040	 0.260157	 -0.714535	 0.610268	 -0.222106	 7
1462501490.378	 9	 -0.004136	 -0.007519	 0.009554	 3.141169	 -1.413614	 0.697871	 0.260122	 -0.714566	 0.610219	 -0.222183	 7
1462501490.388	 9	 0.000139	 -0.005412	 0.008472	 3.140041	 -1.413612	 0.696796	 0.260082	 -0.714581	 0.610191	 -0.222258	 7
1462501490.398	 9	 -0.001959	 -0.003232	 0.014906	 3.138587	 -1.413655	 0.695384	 0.260016	 -0.714590	 0.610174	 -0.222352	 7
1462501490.408	 9	 0.003414	 -0.000019	 0.020219	 3.136780	 -1.413730	 0.693580	 0.259915	 -0.714601	 0.610167	 -0.222456	 7
1462501490.418	 9	 0.014129	 0.006354	 0.023383	 3.134937	 -1.413873	 0.691682	 0.259783	 -0.714598	 0.610189	 -0.222555	 7
1462501490.428	 9	 0.020559	 0.009489	 0.029858	 3.133078	 -1.414090	 0.689713	 0.259623	 -0.714581	 0.610245	 -0.222646	 7
1462501490.438	 9	 0.026929	 0.005192	 0.026565	 3.131411	 -1.414331	 0.687956	 0.259478	 -0.714549	 0.610311	 -0.222736	 7
1462501490.448	 9	 0.032234	 0.000906	 0.024347	 3.129959	 -1.414550	 0.686464	 0.259365	 -0.714514	 0.610367	 -0.222827	 7
1462501490.458	 9	 0.028990	 -0.007594	 0.024296	 3.128514	 -1.414683	 0.685057	 0.259289	 -0.714495	 0.610384	 -0.222930	 7
1462501490.468	 9	 0.019334	 -0.016090	 0.022168	 3.127530	 -1.414661	 0.684191	 0.259282	 -0.714504	 0.610345	 -0.223015	 7
1462501490.478	 9	 0.008624	 -0.017176	 0.014790	 3.126937	 -1.414477	 0.683749	 0.259325	 -0.714552	 0.610252	 -0.223069	 7
1462501490.488	 9	 -0.004206	 -0.017176	 0.009571	 3.127067	 -1.414213	 0.684031	 0.259414	 -0.714611	 0.610142	 -0.223075	 7
1462501490.498	 9	 -0.018109	 -0.020348	 0.006464	 3.127471	 -1.413861	 0.684605	 0.259533	 -0.714689	 0.610004	 -0.223062	 7
1462501490.508	 9	 -0.026682	 -0.020384	 -0.001990	 3.128286	 -1.413465	 0.685611	 0.259686	 -0.714771	 0.609856	 -0.223028	 7
1462501490.518	 9	 -0.033148	 -0.024696	 -0.012633	 3.129381	 -1.413155	 0.686941	 0.259861	 -0.714815	 0.609739	 -0.223003	 7
1462501490.538	 10	 -0.036378	 -0.025797	 -0.019011	 3.131798	 -1.412603	 0.689926	 0.260251	 -0.714866	 0.609522	 -0.222979	 7
1462501490.548	 10	 -0.029931	 -0.022579	 -0.012642	 3.132228	 -1.412507	 0.690614	 0.260376	 -0.714853	 0.609467	 -0.223023	 7
1462501490.558	 10	 -0.014924	 -0.016180	 -0.004186	 3.132170	 -1.412565	 0.690753	 0.260437	 -0.714811	 0.609465	 -0.223093	 7
1462501490.568	 10	 0.000056	 -0.011939	 -0.000014	 3.131749	 -1.412738	 0.690462	 0.260443	 -0.714749	 0.609504	 -0.223177	 7
1462501490.578	 10	 0.005383	 -0.014083	 -0.000080	 3.131511	 -1.412976	 0.690360	 0.260453	 -0.714663	 0.609570	 -0.223261	 7
1462501490.588	 10	 0.001094	 -0.015165	 -0.004315	 3.131414	 -1.413115	 0.690414	 0.260487	 -0.714603	 0.609601	 -0.223330	 7
1462501490.598	 10	 -0.001057	 -0.014173	 -0.006308	 3.131472	 -1.413184	 0.690620	 0.260535	 -0.714561	 0.609610	 -0.223381	 7
1462501490.608	 10	 -0.005306	 -0.010962	 -0.005174	 3.131188	 -1.413178	 0.690455	 0.260564	 -0.714553	 0.609589	 -0.223431	 7
1462501490.618	 10	 -0.007448	 -0.016243	 -0.000941	 3.130763	 -1.413159	 0.690183	 0.260598	 -0.714546	 0.609558	 -0.223498	 7
1462501490.628	 10	 -0.004276	 -0.022635	 -0.001028	 3.130475	 -1.413173	 0.690113	 0.260659	 -0.714519	 0.609533	 -0.223581	 7
1462501490.638	 10	 0.002144	 -0.023679	 0.004236	 3.129905	 -1.413300	 0.689781	 0.260701	 -0.714460	 0.609541	 -0.223700	 7
1462501490.648	 10	 0.008567	 -0.026828	 0.012676	 3.128977	 -1.413466	 0.689106	 0.260725	 -0.714393	 0.609555	 -0.223847	 7
1462501490.658	 10	 0.017129	 -0.023647	 0.014763	 3.127909	 -1.413736	 0.688284	 0.260727	 -0.714298	 0.609605	 -0.224011	 7
1462501490.668	 10	 0.025728	 -0.009853	 0.013750	 3.127282	 -1.414022	 0.687771	 0.260705	 -0.714207	 0.609683	 -0.224115	 7
1462501490.678	 10	 0.027879	 -0.004556	 0.011648	 3.126868	 -1.414296	 0.687392	 0.260666	 -0.714126	 0.609770	 -0.224182	 7
1462501490.688	 10	 0.024685	 -0.005587	 0.014863	 3.126274	 -1.414508	 0.686832	 0.260625	 -0.714067	 0.609832	 -0.224250	 7
1462501490.698	 10	 0.024693	 -0.004515	 0.015937	 3.126027	 -1.414644	 0.686607	 0.260606	 -0.714027	 0.609873	 -0.224287	 7
1462501490.708	 10	 0.024651	 -0.013025	 0.015857	 3.125663	 -1.414758	 0.686325	 0.260604	 -0.713988	 0.609899	 -0.224345	 7
1462501490.718	 10	 0.017133	 -0.022575	 0.015832	 3.125082	 -1.414763	 0.685933	 0.260640	 -0.713972	 0.609869	 -0.224433	 7
1462501490.728	 10	 0.011769	 -0.022605	 0.009482	 3.125684	 -1.414591	 0.686745	 0.260765	 -0.713987	 0.609794	 -0.224444	 7
1462501490.738	 10	 0.004288	 -0.018382	 0.002125	 3.125812	 -1.414555	 0.687062	 0.260843	 -0.713971	 0.609762	 -0.224491	 7
1462501490.748	 10	 -0.005319	 -0.015193	 -0.002026	 3.125993	 -1.414446	 0.687393	 0.260917	 -0.713981	 0.609710	 -0.224514	 7
1462501490.758	 10	 -0.011717	 -0.010966	 -0.003952	 3.126443	 -1.414313	 0.687962	 0.260998	 -0.713999	 0.609657	 -0.224509	 7
1462501490.768	 10	 -0.009556	 -0.009870	 0.001368	 3.126720	 -1.414222	 0.688329	 0.261054	 -0.714010	 0.609620	 -0.224511	 7
1462501490.778	 10	 -0.003151	 -0.013050	 0.005545	 3.126825	 -1.414182	 0.688538	 0.261101	 -0.714007	 0.609595	 -0.224532	 7
1462501490.788	 10	 0.007542	 -0.011987	 0.009723	 3.126756	 -1.414265	 0.688575	 0.261126	 -0.713969	 0.609612	 -0.224578	 7
1462501490.798	 10	 0.013932	 -0.018357	 0.013870	 3.126382	 -1.414402	 0.688355	 0.261147	 -0.713913	 0.609637	 -0.224662	 7
1462501490.808	 10	 0.013904	 -0.025787	 0.015931	 3.126364	 -1.414471	 0.688552	 0.261215	 -0.713864	 0.609637	 -0.224738	 7
1462501490.818	 10	 0.011725	 -0.033242	 0.013747	 3.126284	 -1.414479	 0.688763	 0.261314	 -0.713825	 0.609606	 -0.224831	 7
1462501490.828	 10	 0.008485	 -0.031189	 0.002069	 3.126978	 -1.414432	 0.689758	 0.261463	 -0.713788	 0.609568	 -0.224881	 7
1462501490.838	 10	 -0.000037	 -0.015317	 -0.012631	 3.128396	 -1.414324	 0.691366	 0.261616	 -0.713770	 0.609534	 -0.224851	 7
1462501490.848	 10	 -0.007478	 0.003744	 -0.027311	 3.130606	 -1.414127	 0.693590	 0.261758	 -0.713788	 0.609502	 -0.224715	 7
1462501490.858	 10	 -0.017049	 0.014378	 -0.031392	 3.132849	 -1.413902	 0.695733	 0.261864	 -0.713828	 0.609475	 -0.224539	 7
1462501490.868	 10	 -0.024526	 0.012281	 -0.030280	 3.134719	 -1.413620	 0.697498	 0.261954	 -0.713893	 0.609421	 -0.224373	 7
1462501490.878	 10	 -0.022416	 0.002740	 -0.025058	 3.136146	 -1.413391	 0.698892	 0.262042	 -0.713940	 0.609369	 -0.224259	 7
1462501490.888	 10	 -0.016046	 -0.013157	 -0.014603	 3.136768	 -1.413251	 0.699622	 0.262129	 -0.713957	 0.609319	 -0.224241	 7
1462501490.898	 10	 -0.004345	 -0.029078	 -0.005261	 3.136655	 -1.413207	 0.699768	 0.262221	 -0.713938	 0.609272	 -0.224321	 7
1462501490.908	 10	 0.007398	 -0.035434	 0.003104	 3.135932	 -1.413294	 0.699391	 0.262297	 -0.713880	 0.609251	 -0.224475	 7
1462501490.918	 10	 0.017001	 -0.031247	 -0.002268	 3.135147	 -1.413395	 0.698936	 0.262362	 -0.713821	 0.609235	 -0.224630	 7
1462501490.928	 10	 0.012766	 -0.020674	 -0.005213	 3.134731	 -1.413404	 0.698762	 0.262426	 -0.713794	 0.609203	 -0.224726	 7
1462501490.938	 10	 0.002131	 -0.008973	 -0.009274	 3.134575	 -1.413305	 0.698740	 0.262477	 -0.713810	 0.609149	 -0.224763	 7
1462501490.948	 10	 -0.005288	 0.003798	 -0.011221	 3.134641	 -1.413117	 0.698807	 0.262501	 -0.713866	 0.609083	 -0.224735	 7
1462501490.958	 10	 -0.009540	 0.003841	 -0.006920	 3.134995	 -1.413005	 0.699127	 0.262520	 -0.713898	 0.609054	 -0.224692	 7
1462501490.968	 10	 -0.007408	 -0.004605	 0.002574	 3.135410	 -1.412922	 0.699561	 0.262557	 -0.713913	 0.609030	 -0.224665	 7
1462501490.978	 10	 0.002203	 -0.006730	 0.006732	 3.135928	 -1.412918	 0.700128	 0.262602	 -0.713898	 0.609033	 -0.224652	 7
1462501490.988	 10	 0.005396	 -0.006755	 0.004571	 3.136118	 -1.412936	 0.700373	 0.262630	 -0.713882	 0.609037	 -0.224661	 7
1462501490.998	 10	 0.005355	 -0.008936	 -0.002909	 3.136483	 -1.412915	 0.700819	 0.262680	 -0.713871	 0.609027	 -0.224664	 7
1462501491.008	 10	 -0.002115	 -0.001530	 -0.011302	 3.137517	 -1.412810	 0.701889	 0.262759	 -0.713878	 0.609005	 -0.224607	 7
1462501491.018	 10	 -0.009588	 0.005869	 -0.020760	 3.138404	 -1.412656	 0.702741	 0.262810	 -0.713913	 0.608971	 -0.224530	 7
1462501491.028	 10	 -0.020236	 0.009107	 -0.018506	 3.139695	 -1.412468	 0.703962	 0.262874	 -0.713954	 0.608936	 -0.224416	 7
1462501491.038	 10	 -0.020250	 0.001700	 -0.013245	 3.140451	 -1.412293	 0.704694	 0.262924	 -0.713996	 0.608891	 -0.224346	 7
1462501491.048	 10	 -0.010685	 -0.012111	 -0.007062	 3.140576	 -1.412221	 0.704914	 0.262973	 -0.714004	 0.608857	 -0.224359	 7
1462501491.058	 10	 -0.003245	 -0.024843	 0.000215	 3.140502	 -1.412272	 0.705052	 0.263039	 -0.713962	 0.608850	 -0.224434	 7
1462501491.068	 10	 -0.001128	 -0.031208	 0.003334	 3.140559	 -1.412357	 0.705400	 0.263136	 -0.713896	 0.608849	 -0.224531	 7
1462501491.078	 10	 -0.005375	 -0.026981	 0.004571	 3.140571	 -1.412349	 0.705686	 0.263236	 -0.713862	 0.608816	 -0.224613	 7
1462501491.088	 10	 -0.007527	 -0.023845	 -0.003907	 3.140637	 -1.412420	 0.705999	 0.263319	 -0.713807	 0.608815	 -0.224694	 7
1462501491.098	 10	 -0.012853	 -0.017486	 -0.009130	 3.140739	 -1.412448	 0.706306	 0.263395	 -0.713770	 0.608803	 -0.224755	 7
1462501491.108	 10	 -0.018171	 -0.014279	 -0.009054	 3.140857	 -1.412500	 0.706587	 0.263454	 -0.713730	 0.608806	 -0.224805	 7
1462501491.118	 10	 -0.010687	 -0.015334	 -0.004865	 3.140778	 -1.412658	 0.706672	 0.263490	 -0.713662	 0.608843	 -0.224879	 7
1462501491.128	 10	 0.000021	 -0.015304	 0.003568	 3.140344	 -1.412856	 0.706392	 0.263500	 -0.713589	 0.608888	 -0.224975	 7
1462501491.138	 10	 0.014993	 -0.014239	 0.009842	 3.139632	 -1.413175	 0.705816	 0.263476	 -0.713488	 0.608972	 -0.225096	 7
1462501491.148	 10	 0.025723	 -0.006787	 0.015147	 3.138860	 -1.413595	 0.705115	 0.263414	 -0.713365	 0.609100	 -0.225213	 7
1462501491.158	 10	 0.036412	 -0.007844	 0.020373	 3.137620	 -1.414069	 0.703932	 0.263317	 -0.713237	 0.609239	 -0.225357	 7
1462501491.168	 10	 0.046034	 -0.006786	 0.023496	 3.136338	 -1.414571	 0.702701	 0.263213	 -0.713101	 0.609388	 -0.225504	 7
1462501491.178	 10	 0.050273	 -0.012125	 0.022343	 3.135219	 -1.414996	 0.701669	 0.263138	 -0.712981	 0.609509	 -0.225644	 7
1462501491.188	 10	 0.044914	 -0.012147	 0.017060	 3.134346	 -1.415304	 0.700903	 0.263098	 -0.712889	 0.609590	 -0.225761	 7
1462501491.198	 10	 0.033175	 -0.004729	 0.008705	 3.133482	 -1.415477	 0.700101	 0.263056	 -0.712844	 0.609629	 -0.225847	 7
1462501491.208	 10	 0.019295	 -0.005751	 0.008817	 3.132593	 -1.415446	 0.699262	 0.263031	 -0.712864	 0.609596	 -0.225904	 7
1462501491.218	 10	 0.007543	 -0.015227	 0.017357	 3.131402	 -1.415391	 0.698187	 0.263017	 -0.712887	 0.609541	 -0.225994	 7
1462501491.228	 10	 0.004290	 -0.032218	 0.024775	 3.130127	 -1.415441	 0.697172	 0.263039	 -0.712861	 0.609506	 -0.226146	 7
1462501491.238	 10	 0.013842	 -0.046051	 0.027759	 3.128800	 -1.415595	 0.696253	 0.263099	 -0.712785	 0.609490	 -0.226358	 7
1462501491.248	 10	 0.021296	 -0.050320	 0.028718	 3.127662	 -1.415860	 0.695571	 0.263173	 -0.712665	 0.609513	 -0.226590	 7
1462501491.258	 10	 0.023436	 -0.049263	 0.028708	 3.126663	 -1.416164	 0.695025	 0.263251	 -0.712530	 0.609552	 -0.226818	 7
1462501491.268	 10	 0.027733	 -0.039733	 0.024494	 3.125979	 -1.416443	 0.694737	 0.263326	 -0.712405	 0.609595	 -0.227009	 7
1462501491.278	 10	 0.027785	 -0.020657	 0.015078	 3.125241	 -1.416643	 0.694228	 0.263348	 -0.712327	 0.609627	 -0.227142	 7
1462501491.288	 10	 0.022505	 -0.002612	 0.007832	 3.124718	 -1.416787	 0.693774	 0.263331	 -0.712283	 0.609661	 -0.227208	 7
1462501491.298	 10	 0.015085	 0.009102	 0.006939	 3.124280	 -1.416874	 0.693278	 0.263278	 -0.712272	 0.609691	 -0.227224	 7
1462501491.308	 10	 0.011925	 0.014461	 0.011280	 3.123746	 -1.416900	 0.692607	 0.263199	 -0.712291	 0.609706	 -0.227213	 7
1462501491.318	 10	 0.014018	 -0.000383	 0.018584	 3.122686	 -1.416955	 0.691501	 0.263122	 -0.712300	 0.609712	 -0.227260	 7
1462501491.328	 10	 0.019304	 -0.020523	 0.030073	 3.121044	 -1.417122	 0.689986	 0.263066	 -0.712261	 0.609728	 -0.227404	 7
1462501491.338	 10	 0.027801	 -0.028002	 0.028862	 3.119991	 -1.417292	 0.689160	 0.263075	 -0.712197	 0.609745	 -0.227549	 7
1462501491.348	 10	 0.024574	 -0.025927	 0.020382	 3.119617	 -1.417407	 0.689011	 0.263123	 -0.712139	 0.609754	 -0.227651	 7
1462501491.358	 10	 0.015999	 -0.022803	 0.007694	 3.120116	 -1.417376	 0.689734	 0.263232	 -0.712110	 0.609726	 -0.227690	 7
1462501491.368	 10	 0.000006	 -0.012180	 -0.000595	 3.121178	 -1.417168	 0.690928	 0.263355	 -0.712138	 0.609655	 -0.227649	 7
1462501491.378	 10	 -0.011728	 -0.004753	 -0.007886	 3.122618	 -1.416905	 0.692429	 0.263479	 -0.712185	 0.609580	 -0.227561	 7
1462501491.388	 10	 -0.019183	 0.004780	 -0.014052	 3.124330	 -1.416620	 0.694119	 0.263590	 -0.712244	 0.609511	 -0.227431	 7
1462501491.398	 10	 -0.025538	 0.018596	 -0.018133	 3.126419	 -1.416312	 0.696053	 0.263675	 -0.712322	 0.609456	 -0.227237	 7
1462501491.408	 10	 -0.023377	 0.024963	 -0.019158	 3.128005	 -1.416078	 0.697414	 0.263702	 -0.712394	 0.609427	 -0.227057	 7
1462501491.418	 10	 -0.016942	 0.029222	 -0.015978	 3.129829	 -1.415891	 0.698953	 0.263715	 -0.712455	 0.609426	 -0.226852	 7
1462501491.428	 10	 -0.009466	 0.024991	 -0.009688	 3.131071	 -1.415814	 0.699935	 0.263695	 -0.712490	 0.609451	 -0.226699	 7
1462501491.438	 10	 -0.007405	 0.006926	 -0.006677	 3.131532	 -1.415760	 0.700287	 0.263685	 -0.712513	 0.609453	 -0.226635	 7
1462501491.448	 10	 -0.006368	 0.000540	 -0.006745	 3.131890	 -1.415705	 0.700633	 0.263706	 -0.712524	 0.609441	 -0.226606	 7
1462501491.458	 10	 -0.006353	 0.010059	 -0.014117	 3.132944	 -1.415592	 0.701621	 0.263749	 -0.712548	 0.609428	 -0.226517	 7
1462501491.468	 10	 -0.015940	 0.017503	 -0.018228	 3.134309	 -1.415373	 0.702839	 0.263791	 -0.712609	 0.609391	 -0.226373	 7
1462501491.478	 10	 -0.024445	 0.026022	 -0.020206	 3.135799	 -1.415115	 0.704105	 0.263817	 -0.712689	 0.609353	 -0.226195	 7
1462501491.488	 10	 -0.029752	 0.031364	 -0.019044	 3.136996	 -1.414786	 0.705019	 0.263814	 -0.712804	 0.609290	 -0.226004	 7
1462501491.498	 10	 -0.026533	 0.025057	 -0.007406	 3.137500	 -1.414566	 0.705266	 0.263773	 -0.712896	 0.609250	 -0.225871	 7
1462501491.508	 10	 -0.020157	 0.010224	 0.003058	 3.137234	 -1.414529	 0.704865	 0.263715	 -0.712930	 0.609247	 -0.225838	 7
1462501491.518	 10	 -0.008468	 -0.000448	 0.002857	 3.137151	 -1.414580	 0.704772	 0.263702	 -0.712917	 0.609265	 -0.225846	 7
1462501491.528	 10	 -0.004208	 -0.001532	 0.001744	 3.137014	 -1.414662	 0.704654	 0.263693	 -0.712892	 0.609289	 -0.225870	 7
1462501491.538	 10	 -0.007393	 0.001668	 0.001801	 3.137155	 -1.414733	 0.704785	 0.263688	 -0.712870	 0.609318	 -0.225869	 7
1462501491.548	 10	 -0.004145	 0.005960	 0.008207	 3.136734	 -1.414811	 0.704310	 0.263639	 -0.712861	 0.609344	 -0.225884	 7
1462501491.558	 10	 0.001188	 0.008060	 0.006089	 3.136663	 -1.414979	 0.704159	 0.263588	 -0.712821	 0.609412	 -0.225886	 7
1462501491.568	 10	 0.009725	 0.012250	 0.000725	 3.136783	 -1.415188	 0.704169	 0.263532	 -0.712770	 0.609501	 -0.225873	 7
1462501491.578	 10	 0.012952	 0.016503	 0.001803	 3.136619	 -1.415398	 0.703851	 0.263445	 -0.712729	 0.609590	 -0.225862	 7
1462501491.588	 10	 0.014030	 0.013355	 0.008159	 3.136083	 -1.415571	 0.703174	 0.263348	 -0.712705	 0.609658	 -0.225869	 7
1462501491.598	 10	 0.018302	 0.013350	 0.009187	 3.135707	 -1.415725	 0.702652	 0.263259	 -0.712684	 0.609722	 -0.225864	 7
1462501491.608	 10	 0.016141	 0.006982	 0.010212	 3.135299	 -1.415858	 0.702144	 0.263188	 -0.712664	 0.609774	 -0.225872	 7
1462501491.618	 10	 0.008614	 -0.000480	 0.004879	 3.134962	 -1.415892	 0.701789	 0.263161	 -0.712662	 0.609781	 -0.225888	 7
1462501491.628	 10	 -0.001009	 0.003734	 -0.004589	 3.135089	 -1.415819	 0.701890	 0.263166	 -0.712686	 0.609761	 -0.225864	 7
1462501491.638	 10	 -0.014889	 0.005871	 -0.008711	 3.135252	 -1.415654	 0.702001	 0.263174	 -0.712740	 0.609711	 -0.225818	 7
1462501491.648	 10	 -0.024473	 0.003827	 -0.001186	 3.134808	 -1.415485	 0.701519	 0.263156	 -0.712805	 0.609646	 -0.225808	 7
1462501491.658	 10	 -0.018057	 -0.002497	 0.009358	 3.133963	 -1.415419	 0.700686	 0.263124	 -0.712839	 0.609606	 -0.225846	 7
1462501491.668	 10	 -0.000981	 -0.014148	 0.022956	 3.132544	 -1.415595	 0.699363	 0.263066	 -0.712799	 0.609631	 -0.225972	 7
1462501491.678	 10	 0.017150	 -0.024770	 0.032290	 3.131130	 -1.415984	 0.698148	 0.263021	 -0.712680	 0.609722	 -0.226155	 7
1462501491.688	 10	 0.028875	 -0.027996	 0.032157	 3.129842	 -1.416429	 0.697090	 0.262988	 -0.712537	 0.609831	 -0.226349	 7
1462501491.698	 10	 0.028819	 -0.035480	 0.026756	 3.129498	 -1.416830	 0.697030	 0.263028	 -0.712383	 0.609936	 -0.226504	 7
1462501491.708	 10	 0.025599	 -0.032310	 0.019414	 3.129568	 -1.417134	 0.697405	 0.263107	 -0.712249	 0.610012	 -0.226632	 7
1462501491.718	 10	 0.020258	 -0.017542	 0.000411	 3.130821	 -1.417336	 0.698849	 0.263217	 -0.712139	 0.610085	 -0.226653	 7
1462501491.728	 10	 0.009648	 0.008966	 -0.015238	 3.133092	 -1.417355	 0.701091	 0.263320	 -0.712095	 0.610137	 -0.226530	 7
1462501491.738	 10	 -0.004192	 0.024885	 -0.025627	 3.135190	 -1.417215	 0.702986	 0.263371	 -0.712126	 0.610149	 -0.226343	 7
1462501491.748	 10	 -0.012680	 0.029220	 -0.018052	 3.136501	 -1.417024	 0.704024	 0.263361	 -0.712196	 0.610136	 -0.226168	 7
1462501491.758	 10	 -0.005190	 0.022908	 -0.005386	 3.136590	 -1.416904	 0.703877	 0.263295	 -0.712262	 0.610121	 -0.226076	 7
1462501491.768	 10	 0.007549	 0.001657	 0.002832	 3.135774	 -1.416971	 0.702995	 0.263223	 -0.712265	 0.610137	 -0.226106	 7
1462501491.778	 10	 0.016008	 -0.022763	 0.012124	 3.134378	 -1.417153	 0.701768	 0.263192	 -0.712213	 0.610157	 -0.226253	 7
1462501491.788	 10	 0.024496	 -0.036586	 0.016184	 3.132935	 -1.417411	 0.700652	 0.263206	 -0.712118	 0.610186	 -0.226460	 7
1462501491.798	 10	 0.024480	 -0.034505	 0.009809	 3.132034	 -1.417562	 0.700094	 0.263266	 -0.712043	 0.610184	 -0.226630	 7
1462501491.808	 10	 0.013823	 -0.019682	 -0.003816	 3.132423	 -1.417559	 0.700714	 0.263368	 -0.712006	 0.610164	 -0.226680	 7
1462501491.818	 10	 -0.006399	 0.002623	 -0.016222	 3.133676	 -1.417321	 0.701995	 0.263468	 -0.712053	 0.610099	 -0.226594	 7
1462501491.828	 10	 -0.026630	 0.019641	 -0.024413	 3.135056	 -1.416897	 0.703237	 0.263536	 -0.712175	 0.609989	 -0.226426	 7
1462501491.838	 10	 -0.039441	 0.019671	 -0.025366	 3.136120	 -1.416347	 0.704128	 0.263590	 -0.712346	 0.609832	 -0.226248	 7
1462501491.848	 10	 -0.036251	 0.010150	 -0.016955	 3.136325	 -1.415947	 0.704228	 0.263608	 -0.712478	 0.609705	 -0.226153	 7
1462501491.858	 10	 -0.023469	 -0.004695	 -0.005480	 3.135605	 -1.415793	 0.703541	 0.263600	 -0.712535	 0.609633	 -0.226180	 7
1462501491.868	 10	 -0.005317	 -0.015278	 0.009186	 3.134317	 -1.415931	 0.702389	 0.263567	 -0.712499	 0.609643	 -0.226306	 7
1462501491.878	 10	 0.011796	 -0.012031	 0.017647	 3.132869	 -1.416224	 0.701059	 0.263502	 -0.712420	 0.609707	 -0.226454	 7
1462501491.888	 10	 0.024681	 -0.004546	 0.028262	 3.131211	 -1.416605	 0.699437	 0.263388	 -0.712330	 0.609808	 -0.226599	 7
1462501491.898	 10	 0.031122	 -0.000280	 0.032508	 3.129433	 -1.417002	 0.697640	 0.263247	 -0.712243	 0.609920	 -0.226735	 7
1462501491.908	 10	 0.035402	 0.010275	 0.022976	 3.128694	 -1.417331	 0.696793	 0.263135	 -0.712170	 0.610036	 -0.226782	 7
1462501491.918	 10	 0.030054	 0.017652	 0.011366	 3.129273	 -1.417564	 0.697180	 0.263070	 -0.712113	 0.610152	 -0.226724	 7
1462501491.928	 10	 0.013997	 0.015503	 0.001893	 3.130036	 -1.417547	 0.697766	 0.263048	 -0.712128	 0.610180	 -0.226629	 7
1462501491.938	 10	 -0.000991	 0.012302	 -0.005468	 3.131619	 -1.417065	 0.699203	 0.263129	 -0.712266	 0.610053	 -0.226442	 7
1462501491.948	 10	 -0.009572	 0.006979	 -0.009706	 3.132685	 -1.416846	 0.700191	 0.263180	 -0.712323	 0.610003	 -0.226335	 7
1462501491.958	 10	 -0.018147	 -0.002553	 -0.007589	 3.133347	 -1.416635	 0.700857	 0.263239	 -0.712375	 0.609940	 -0.226275	 7
1462501491.968	 10	 -0.018178	 -0.009991	 -0.006592	 3.133851	 -1.416462	 0.701449	 0.263315	 -0.712407	 0.609877	 -0.226254	 7
1462501491.978	 10	 -0.010711	 -0.008966	 -0.008779	 3.134207	 -1.416416	 0.701907	 0.263375	 -0.712401	 0.609856	 -0.226261	 7
1462501491.988	 10	 -0.009615	 -0.005755	 -0.005561	 3.134503	 -1.416428	 0.702278	 0.263415	 -0.712382	 0.609857	 -0.226270	 7
1462501491.998	 10	 -0.006398	 -0.009957	 0.002898	 3.134292	 -1.416515	 0.702156	 0.263427	 -0.712348	 0.609874	 -0.226319	 7
1462501492.008	 10	 0.001069	 -0.015259	 0.008112	 3.134087	 -1.416645	 0.702094	 0.263453	 -0.712293	 0.609901	 -0.226390	 7
1462501492.018	 10	 0.011759	 -0.013148	 0.010169	 3.134124	 -1.416806	 0.702256	 0.263481	 -0.712227	 0.609945	 -0.226447	 7
1462501492.028	 10	 0.016034	 -0.011041	 0.009084	 3.134499	 -1.417030	 0.702721	 0.263508	 -0.712139	 0.610021	 -0.226484	 7
1462501492.038	 10	 0.013909	 -0.001423	 0.006030	 3.135229	 -1.417137	 0.703472	 0.263541	 -0.712090	 0.610071	 -0.226468	 7
1462501492.048	 10	 0.010719	 0.009154	 -0.003437	 3.136403	 -1.417167	 0.704573	 0.263571	 -0.712069	 0.610111	 -0.226390	 7
1462501492.058	 10	 0.002202	 0.019762	 -0.010725	 3.137642	 -1.417093	 0.705643	 0.263582	 -0.712091	 0.610127	 -0.226265	 7
1462501492.068	 10	 -0.010578	 0.025119	 -0.010564	 3.138933	 -1.416985	 0.706704	 0.263578	 -0.712130	 0.610139	 -0.226115	 7
1462501492.078	 10	 -0.015904	 0.021990	 -0.004153	 3.139966	 -1.416805	 0.707505	 0.263569	 -0.712196	 0.610121	 -0.225968	 7
1462501492.088	 10	 -0.011664	 0.012435	 -0.000016	 3.140751	 -1.416690	 0.708128	 0.263564	 -0.712237	 0.610113	 -0.225863	 7
1462501492.098	 10	 -0.006375	 0.000734	 0.001960	 3.141496	 -1.416675	 0.708828	 0.263588	 -0.712234	 0.610126	 -0.225810	 7
1462501492.108	 10	 -0.001063	 -0.002488	 -0.000249	 -3.140881	 -1.416713	 0.709650	 0.263630	 -0.712205	 0.610154	 -0.225777	 7
1462501492.118	 10	 0.003231	 0.002818	 -0.000238	 -3.140103	 -1.416733	 0.710412	 0.263661	 -0.712187	 0.610177	 -0.225736	 7
1462501492.128	 10	 0.003278	 0.009231	 0.004083	 -3.139483	 -1.416761	 0.710944	 0.263658	 -0.712178	 0.610209	 -0.225681	 7
1462501492.138	 10	 0.000095	 0.011383	 0.006262	 -3.138974	 -1.416725	 0.711327	 0.263643	 -0.712196	 0.610220	 -0.225612	 7
1462501492.148	 10	 0.001171	 0.011395	 0.008383	 -3.138376	 -1.416700	 0.711793	 0.263630	 -0.712210	 0.610237	 -0.225538	 7
1462501492.158	 10	 0.003277	 0.009231	 0.004080	 -3.137795	 -1.416694	 0.712258	 0.263619	 -0.712216	 0.610259	 -0.225472	 7
1462501492.168	 10	 0.001097	 0.004936	 -0.002336	 -3.136813	 -1.416679	 0.713175	 0.263648	 -0.712210	 0.610280	 -0.225400	 7
1462501492.178	 10	 -0.008507	 0.006021	 -0.003309	 -3.136029	 -1.416551	 0.713882	 0.263675	 -0.712244	 0.610258	 -0.225319	 7
1462501492.188	 10	 -0.008517	 0.005050	 0.000974	 -3.135489	 -1.416481	 0.714376	 0.263694	 -0.712261	 0.610249	 -0.225269	 7
1462501492.198	 10	 -0.006354	 0.009314	 0.003126	 -3.135330	 -1.416443	 0.714448	 0.263675	 -0.712281	 0.610248	 -0.225228	 7
1462501492.208	 10	 -0.004248	 0.005038	 0.000935	 -3.134691	 -1.416461	 0.715011	 0.263679	 -0.712273	 0.610275	 -0.225175	 7
1462501492.218	 10	 -0.001049	 0.001860	 0.004075	 -3.134252	 -1.416475	 0.715416	 0.263688	 -0.712265	 0.610293	 -0.225144	 7
1462501492.228	 10	 0.004276	 -0.000283	 0.004007	 -3.133608	 -1.416503	 0.716043	 0.263711	 -0.712246	 0.610317	 -0.225110	 7
1462501492.238	 10	 0.006405	 -0.001353	 0.003978	 -3.132750	 -1.416546	 0.716898	 0.263749	 -0.712217	 0.610349	 -0.225071	 7
1462501492.248	 10	 0.007489	 0.003947	 0.001885	 -3.131839	 -1.416556	 0.717760	 0.263777	 -0.712203	 0.610376	 -0.225011	 7
1462501492.258	 10	 0.004293	 0.006076	 0.000866	 -3.131120	 -1.416581	 0.718419	 0.263789	 -0.712189	 0.610405	 -0.224960	 7
1462501492.268	 10	 0.007523	 0.010337	 0.003008	 -3.130464	 -1.416578	 0.718966	 0.263784	 -0.712192	 0.610429	 -0.224893	 7
1462501492.278	 10	 0.010716	 0.011367	 -0.000208	 -3.129679	 -1.416618	 0.719628	 0.263775	 -0.712180	 0.610473	 -0.224821	 7
1462501492.288	 10	 0.008554	 0.010272	 -0.005529	 -3.128723	 -1.416609	 0.720471	 0.263785	 -0.712180	 0.610501	 -0.224736	 7
1462501492.298	 10	 0.002153	 0.012403	 -0.007586	 -3.127836	 -1.416578	 0.721242	 0.263792	 -0.712187	 0.610520	 -0.224651	 7
1462501492.308	 10	 -0.001069	 0.009213	 -0.008653	 -3.126971	 -1.416417	 0.722015	 0.263822	 -0.712231	 0.610491	 -0.224557	 7
1462501492.318	 10	 -0.004282	 0.000768	 -0.001244	 -3.126357	 -1.416238	 0.722592	 0.263861	 -0.712278	 0.610443	 -0.224491	 7
1462501492.328	 10	 -0.004309	 -0.005607	 -0.000238	 -3.126070	 -1.416131	 0.722920	 0.263903	 -0.712300	 0.610406	 -0.224474	 7
1462501492.338	 10	 -0.002187	 -0.003524	 -0.005566	 -3.125467	 -1.415978	 0.723563	 0.263966	 -0.712329	 0.610360	 -0.224435	 7
1462501492.348	 10	 -0.007506	 0.002850	 -0.008658	 -3.125026	 -1.415780	 0.723999	 0.264010	 -0.712381	 0.610299	 -0.224383	 7
1462501492.358	 10	 -0.010667	 0.012425	 -0.009606	 -3.124576	 -1.415575	 0.724362	 0.264026	 -0.712445	 0.610245	 -0.224306	 7
1462501492.368	 10	 -0.013862	 0.018894	 -0.008429	 -3.124646	 -1.415308	 0.724137	 0.263999	 -0.712548	 0.610166	 -0.224225	 7
1462501492.378	 10	 -0.017061	 0.016799	 -0.005222	 -3.124812	 -1.415074	 0.723807	 0.263960	 -0.712644	 0.610099	 -0.224152	 7
1462501492.388	 10	 -0.013893	 0.000912	 0.005261	 -3.125763	 -1.414938	 0.722805	 0.263909	 -0.712711	 0.610037	 -0.224166	 7
1462501492.398	 10	 -0.004325	 -0.013947	 0.013566	 -3.126871	 -1.414910	 0.721792	 0.263889	 -0.712728	 0.609994	 -0.224248	 7
1462501492.408	 10	 0.006309	 -0.023536	 0.015515	 -3.127580	 -1.414972	 0.721284	 0.263917	 -0.712697	 0.609980	 -0.224355	 7
1462501492.418	 10	 0.009514	 -0.024594	 0.017608	 -3.128241	 -1.415055	 0.720848	 0.263953	 -0.712655	 0.609971	 -0.224468	 7
1462501492.428	 10	 0.009523	 -0.018251	 0.012337	 -3.128563	 -1.415133	 0.720720	 0.263997	 -0.712613	 0.609970	 -0.224555	 7
1462501492.438	 10	 0.010648	 0.002942	 0.001866	 -3.128309	 -1.415117	 0.720994	 0.264019	 -0.712610	 0.609968	 -0.224546	 7
1462501492.448	 10	 0.005349	 0.013572	 -0.001186	 -3.128106	 -1.415059	 0.721077	 0.263993	 -0.712639	 0.609965	 -0.224490	 7
1462501492.458	 10	 -0.002107	 0.015729	 -0.000035	 -3.128000	 -1.414951	 0.721021	 0.263954	 -0.712691	 0.609947	 -0.224421	 7
1462501492.468	 10	 -0.003216	 0.007223	 -0.000104	 -3.128129	 -1.414826	 0.720791	 0.263926	 -0.712745	 0.609911	 -0.224380	 7
1462501492.478	 10	 -0.000083	 -0.009782	 0.002907	 -3.128425	 -1.414748	 0.720551	 0.263940	 -0.712767	 0.609871	 -0.224402	 7
1462501492.488	 10	 0.007354	 -0.018299	 0.004895	 -3.128745	 -1.414733	 0.720404	 0.263987	 -0.712755	 0.609840	 -0.224469	 7
1462501492.498	 10	 0.006301	 -0.015105	 0.004933	 -3.129130	 -1.414648	 0.720179	 0.264034	 -0.712767	 0.609784	 -0.224526	 7
1462501492.508	 10	 0.002071	 -0.008695	 0.007161	 -3.129554	 -1.414569	 0.719852	 0.264056	 -0.712787	 0.609737	 -0.224567	 7
1462501492.518	 10	 -0.002192	 -0.000128	 0.005160	 -3.129900	 -1.414411	 0.719523	 0.264063	 -0.712840	 0.609672	 -0.224568	 7
1462501492.528	 10	 -0.006456	 0.000948	 0.005207	 -3.130165	 -1.414289	 0.719249	 0.264060	 -0.712883	 0.609625	 -0.224563	 7
1462501492.538	 10	 -0.009679	 -0.005409	 0.007307	 -3.130410	 -1.414162	 0.719033	 0.264072	 -0.712922	 0.609571	 -0.224567	 7
1462501492.548	 10	 -0.011853	 -0.007584	 -0.000155	 -3.130383	 -1.414051	 0.719126	 0.264110	 -0.712947	 0.609525	 -0.224570	 7
1462501492.558	 10	 -0.017218	 -0.006566	 -0.008625	 -3.130024	 -1.413869	 0.719554	 0.264175	 -0.712986	 0.609460	 -0.224548	 7
1462501492.568	 10	 -0.025746	 -0.005469	 -0.007474	 -3.129973	 -1.413640	 0.719671	 0.264227	 -0.713045	 0.609372	 -0.224535	 7
1462501492.578	 10	 -0.032094	 -0.001134	 0.001148	 -3.130345	 -1.413451	 0.719327	 0.264240	 -0.713106	 0.609294	 -0.224537	 7
1462501492.588	 10	 -0.028872	 -0.005329	 0.010673	 -3.131152	 -1.413431	 0.718543	 0.264209	 -0.713125	 0.609269	 -0.224583	 7
1462501492.598	 10	 -0.016022	 -0.005290	 0.021219	 -3.132591	 -1.413529	 0.717151	 0.264139	 -0.713118	 0.609270	 -0.224685	 7
1462501492.608	 10	 0.003241	 0.002129	 0.025383	 -3.133650	 -1.413816	 0.716066	 0.264042	 -0.713055	 0.609354	 -0.224771	 7
1462501492.618	 10	 0.013928	 0.004232	 0.026375	 -3.134951	 -1.414210	 0.714703	 0.263907	 -0.712969	 0.609476	 -0.224872	 7
1462501492.628	 10	 0.018205	 0.007395	 0.024236	 -3.136103	 -1.414604	 0.713470	 0.263774	 -0.712883	 0.609602	 -0.224960	 7
1462501492.638	 10	 0.016079	 0.012689	 0.020040	 -3.137085	 -1.414853	 0.712357	 0.263648	 -0.712843	 0.609687	 -0.225004	 7
1462501492.648	 10	 0.011810	 0.017974	 0.013731	 -3.137553	 -1.414966	 0.711702	 0.263544	 -0.712842	 0.609739	 -0.224986	 7
1462501492.658	 10	 0.004349	 0.018011	 0.015928	 -3.138244	 -1.415035	 0.710817	 0.263431	 -0.712860	 0.609772	 -0.224972	 7
1462501492.668	 10	 0.002149	 0.009462	 0.009473	 -3.138329	 -1.415147	 0.710602	 0.263368	 -0.712845	 0.609825	 -0.224951	 7
1462501492.678	 10	 0.004220	 0.003129	 0.008339	 -3.138639	 -1.415219	 0.710247	 0.263328	 -0.712835	 0.609850	 -0.224963	 7
1462501492.688	 10	 0.006312	 -0.008554	 0.011409	 -3.139380	 -1.415301	 0.709548	 0.263295	 -0.712818	 0.609860	 -0.225025	 7
1462501492.698	 10	 0.003052	 -0.018141	 0.008151	 -3.140130	 -1.415362	 0.708951	 0.263304	 -0.712794	 0.609850	 -0.225118	 7
1462501492.708	 10	 0.003007	 -0.021386	 0.000661	 -3.140451	 -1.415436	 0.708840	 0.263354	 -0.712750	 0.609847	 -0.225209	 7
1462501492.718	 10	 0.003004	 -0.020338	 -0.001461	 -3.140829	 -1.415514	 0.708675	 0.263402	 -0.712705	 0.609843	 -0.225303	 7
1462501492.728	 10	 0.000891	 -0.021349	 0.004943	 3.141565	 -1.415600	 0.708093	 0.263426	 -0.712667	 0.609835	 -0.225419	 7
1462501492.738	 10	 0.005179	 -0.023435	 0.012347	 3.140517	 -1.415717	 0.707273	 0.263440	 -0.712621	 0.609832	 -0.225558	 7
1462501492.748	 10	 0.013767	 -0.020208	 0.020828	 3.139432	 -1.415967	 0.706377	 0.263424	 -0.712540	 0.609879	 -0.225704	 7
1462501492.758	 10	 0.026593	 -0.015992	 0.020755	 3.138602	 -1.416370	 0.705687	 0.263386	 -0.712414	 0.609991	 -0.225842	 7
1462501492.768	 10	 0.035109	 -0.016056	 0.015350	 3.138300	 -1.416724	 0.705525	 0.263381	 -0.712293	 0.610096	 -0.225947	 7
1462501492.778	 10	 0.030835	 -0.011835	 0.009031	 3.138155	 -1.417042	 0.705487	 0.263376	 -0.712185	 0.610194	 -0.226028	 7
1462501492.788	 10	 0.023340	 -0.005531	 -0.004700	 3.138537	 -1.417218	 0.705948	 0.263404	 -0.712114	 0.610255	 -0.226056	 7
1462501492.798	 10	 0.012710	 0.005122	 -0.006640	 3.139035	 -1.417218	 0.706426	 0.263422	 -0.712107	 0.610267	 -0.226024	 7
1462501492.808	 10	 0.003124	 0.008350	 -0.005460	 3.138881	 -1.417115	 0.706201	 0.263401	 -0.712151	 0.610235	 -0.225997	 7
1462501492.818	 10	 -0.002203	 0.004165	 0.002008	 3.138544	 -1.417026	 0.705817	 0.263376	 -0.712190	 0.610203	 -0.225988	 7
1462501492.828	 10	 0.004144	 -0.008513	 0.009299	 3.137950	 -1.417027	 0.705255	 0.263358	 -0.712197	 0.610188	 -0.226028	 7
1462501492.838	 10	 0.016890	 -0.025532	 0.014359	 3.136964	 -1.417214	 0.704481	 0.263362	 -0.712130	 0.610212	 -0.226168	 7
1462501492.848	 10	 0.025391	 -0.034059	 0.015271	 3.136214	 -1.417430	 0.704041	 0.263410	 -0.712037	 0.610240	 -0.226329	 7
1462501492.858	 10	 0.029693	 -0.027682	 0.016357	 3.135743	 -1.417636	 0.703851	 0.263463	 -0.711946	 0.610274	 -0.226465	 7
1462501492.868	 10	 0.028656	 -0.020241	 0.015369	 3.135551	 -1.417767	 0.703859	 0.263510	 -0.711883	 0.610294	 -0.226553	 7
1462501492.878	 10	 0.022280	 -0.010679	 0.011249	 3.135489	 -1.417778	 0.703914	 0.263547	 -0.711865	 0.610284	 -0.226593	 7
1462501492.888	 10	 0.011636	 0.005223	 -0.000234	 3.136242	 -1.417655	 0.704649	 0.263593	 -0.711891	 0.610256	 -0.226533	 7
1462501492.898	 10	 -0.003298	 0.015827	 -0.010664	 3.137673	 -1.417369	 0.705941	 0.263648	 -0.711970	 0.610196	 -0.226381	 7
1462501492.908	 10	 -0.016100	 0.016929	 -0.010543	 3.139098	 -1.417001	 0.707188	 0.263699	 -0.712080	 0.610111	 -0.226206	 7
1462501492.918	 10	 -0.020373	 0.012718	 -0.006283	 3.140381	 -1.416630	 0.708333	 0.263756	 -0.712187	 0.610019	 -0.226049	 7
1462501492.928	 10	 -0.019342	 -0.001059	 0.001040	 3.140872	 -1.416291	 0.708797	 0.263810	 -0.712285	 0.609911	 -0.225972	 7
1462501492.938	 10	 -0.016177	 -0.014842	 0.008344	 3.141059	 -1.416054	 0.709087	 0.263883	 -0.712340	 0.609818	 -0.225962	 7
1462501492.948	 10	 -0.009814	 -0.021259	 0.006096	 -3.141517	 -1.415902	 0.709871	 0.263994	 -0.712352	 0.609756	 -0.225964	 7
1462501492.958	 10	 -0.007702	 -0.022359	 0.001803	 -3.140599	 -1.415809	 0.710994	 0.264124	 -0.712336	 0.609717	 -0.225967	 7
1462501492.968	 10	 -0.013027	 -0.013888	 -0.005534	 -3.139146	 -1.415660	 0.712598	 0.264270	 -0.712333	 0.609675	 -0.225919	 7
1462501492.978	 10	 -0.021515	 0.000990	 -0.010651	 -3.137404	 -1.415412	 0.714366	 0.264397	 -0.712372	 0.609617	 -0.225805	 7
1462501492.988	 10	 -0.025745	 0.019000	 -0.022171	 -3.135314	 -1.415082	 0.716325	 0.264495	 -0.712449	 0.609555	 -0.225613	 7
1462501492.998	 10	 -0.029981	 0.033929	 -0.025191	 -3.132846	 -1.414781	 0.718492	 0.264550	 -0.712532	 0.609530	 -0.225354	 7
1462501493.008	 10	 -0.029928	 0.042461	 -0.021915	 -3.130762	 -1.414517	 0.720177	 0.264546	 -0.712624	 0.609522	 -0.225089	 7
1462501493.018	 10	 -0.023514	 0.039297	 -0.015605	 -3.129563	 -1.414343	 0.720990	 0.264491	 -0.712704	 0.609528	 -0.224886	 7
1462501493.028	 10	 -0.015002	 0.027625	 -0.008327	 -3.129120	 -1.414306	 0.721139	 0.264413	 -0.712745	 0.609556	 -0.224769	 7
1462501493.038	 10	 -0.007585	 0.007470	 0.002079	 -3.129376	 -1.414335	 0.720760	 0.264352	 -0.712758	 0.609576	 -0.224748	 7
1462501493.048	 10	 -0.001234	 -0.005298	 0.004037	 -3.129877	 -1.414451	 0.720285	 0.264322	 -0.712729	 0.609604	 -0.224798	 7
1462501493.058	 10	 0.003011	 -0.008517	 0.001838	 -3.130009	 -1.414492	 0.720228	 0.264338	 -0.712709	 0.609607	 -0.224833	 7
1462501493.068	 10	 -0.005526	 -0.003219	 -0.004433	 -3.129511	 -1.414442	 0.720762	 0.264382	 -0.712710	 0.609595	 -0.224811	 7
1462501493.078	 10	 -0.019383	 0.007397	 -0.012740	 -3.128921	 -1.414243	 0.721319	 0.264424	 -0.712763	 0.609540	 -0.224744	 7
1462501493.088	 10	 -0.033212	 0.020171	 -0.016763	 -3.128168	 -1.413937	 0.721920	 0.264444	 -0.712861	 0.609464	 -0.224617	 7
1462501493.098	 10	 -0.037459	 0.025495	 -0.017742	 -3.127490	 -1.413623	 0.722376	 0.264437	 -0.712972	 0.609391	 -0.224471	 7
1462501493.108	 10	 -0.034263	 0.017037	 -0.009321	 -3.127477	 -1.413423	 0.722201	 0.264394	 -0.713057	 0.609341	 -0.224386	 7
1462501493.118	 10	 -0.021490	 0.000065	 0.002134	 -3.128116	 -1.413436	 0.721534	 0.264349	 -0.713070	 0.609336	 -0.224412	 7
1462501493.128	 10	 -0.003357	 -0.007389	 0.008301	 -3.128921	 -1.413648	 0.720784	 0.264303	 -0.713014	 0.609389	 -0.224500	 7
1462501493.138	 10	 0.011583	 -0.006385	 0.006050	 -3.130083	 -1.414302	 0.719693	 0.264191	 -0.712830	 0.609590	 -0.224670	 7
1462501493.148	 10	 0.018034	 0.006336	 0.002915	 -3.131200	 -1.414598	 0.718554	 0.264091	 -0.712765	 0.609676	 -0.224761	 7
1462501493.158	 10	 0.015928	 0.011748	 0.009378	 -3.132302	 -1.414892	 0.717348	 0.263964	 -0.712711	 0.609770	 -0.224826	 7
1462501493.168	 10	 0.014918	 0.019236	 0.014786	 -3.133724	 -1.415126	 0.715747	 0.263800	 -0.712691	 0.609846	 -0.224876	 7
1462501493.178	 10	 0.019210	 0.021373	 0.017966	 -3.134740	 -1.415426	 0.714502	 0.263631	 -0.712650	 0.609959	 -0.224899	 7
1462501493.188	 10	 0.024497	 0.011776	 0.016765	 -3.135662	 -1.415738	 0.713422	 0.263492	 -0.712593	 0.610070	 -0.224939	 7
1462501493.198	 10	 0.029761	 -0.004187	 0.017636	 -3.136745	 -1.416045	 0.712334	 0.263400	 -0.712521	 0.610158	 -0.225035	 7
1462501493.208	 10	 0.033998	 -0.011638	 0.018596	 -3.137889	 -1.416330	 0.711280	 0.263341	 -0.712445	 0.610228	 -0.225159	 7
1462501493.218	 10	 0.031860	 -0.009527	 0.015436	 -3.138818	 -1.416584	 0.710442	 0.263297	 -0.712373	 0.610290	 -0.225267	 7
1462501493.228	 10	 0.022274	 -0.001028	 0.010270	 -3.139620	 -1.416677	 0.709675	 0.263258	 -0.712355	 0.610304	 -0.225331	 7
1462501493.238	 10	 0.010577	 0.008572	 0.009396	 -3.140483	 -1.416747	 0.708745	 0.263182	 -0.712359	 0.610320	 -0.225364	 7
1462501493.248	 10	 0.004184	 0.010719	 0.009472	 -3.141362	 -1.416744	 0.707761	 0.263100	 -0.712390	 0.610314	 -0.225377	 7
1462501493.258	 10	 0.005242	 0.004372	 0.014733	 3.140340	 -1.416831	 0.706205	 0.262989	 -0.712402	 0.610325	 -0.225441	 7
1462501493.268	 10	 0.010554	 -0.010450	 0.026272	 3.139070	 -1.416999	 0.704976	 0.262920	 -0.712368	 0.610357	 -0.225541	 7
1462501493.278	 10	 0.016932	 -0.022116	 0.033567	 3.137637	 -1.417272	 0.703703	 0.262873	 -0.712291	 0.610409	 -0.225698	 7
1462501493.288	 10	 0.023288	 -0.027492	 0.028132	 3.136630	 -1.417582	 0.702922	 0.262868	 -0.712185	 0.610476	 -0.225859	 7
1462501493.298	 10	 0.026445	 -0.030746	 0.020613	 3.135351	 -1.417822	 0.701918	 0.262874	 -0.712099	 0.610507	 -0.226039	 7
1462501493.308	 10	 0.024318	 -0.026444	 0.021732	 3.134240	 -1.418074	 0.701064	 0.262881	 -0.712008	 0.610547	 -0.226206	 7
1462501493.318	 10	 0.022261	 -0.013643	 0.026132	 3.132803	 -1.418260	 0.699772	 0.262840	 -0.711959	 0.610571	 -0.226347	 7
1462501493.328	 10	 0.029798	 -0.002998	 0.030428	 3.131397	 -1.418455	 0.698388	 0.262754	 -0.711922	 0.610613	 -0.226450	 7
1462501493.338	 10	 0.038386	 0.008669	 0.029395	 3.130605	 -1.418685	 0.697505	 0.262657	 -0.711877	 0.610691	 -0.226492	 7
1462501493.348	 10	 0.045883	 0.012917	 0.031500	 3.129950	 -1.418868	 0.696692	 0.262548	 -0.711854	 0.610762	 -0.226500	 7
1462501493.358	 10	 0.046934	 0.011835	 0.029348	 3.129475	 -1.418996	 0.696054	 0.262452	 -0.711844	 0.610818	 -0.226491	 7
1462501493.368	 10	 0.040490	 0.005457	 0.027211	 3.129108	 -1.418953	 0.695585	 0.262402	 -0.711878	 0.610807	 -0.226473	 7
1462501493.378	 10	 0.026560	 -0.004090	 0.025111	 3.128950	 -1.418753	 0.695408	 0.262409	 -0.711944	 0.610735	 -0.226450	 7
1462501493.388	 10	 0.008352	 -0.014696	 0.021972	 3.129197	 -1.418388	 0.695732	 0.262488	 -0.712042	 0.610600	 -0.226414	 7
1462501493.398	 10	 -0.008834	 -0.030661	 0.013445	 3.130117	 -1.417976	 0.696885	 0.262663	 -0.712121	 0.610444	 -0.226386	 7
1462501493.408	 10	 -0.018511	 -0.033923	 -0.000358	 3.131463	 -1.417480	 0.698550	 0.262899	 -0.712207	 0.610255	 -0.226351	 7
1462501493.418	 10	 -0.028119	 -0.025462	 -0.010855	 3.133271	 -1.416950	 0.700612	 0.263140	 -0.712303	 0.610070	 -0.226268	 7
1462501493.428	 10	 -0.040908	 -0.019065	 -0.013882	 3.134998	 -1.416411	 0.702543	 0.263361	 -0.712409	 0.609886	 -0.226172	 7
1462501493.438	 10	 -0.045146	 -0.011614	 -0.014843	 3.136711	 -1.415871	 0.704394	 0.263557	 -0.712523	 0.609710	 -0.226056	 7
1462501493.448	 10	 -0.039755	 0.000070	 -0.014782	 3.138408	 -1.415472	 0.706119	 0.263700	 -0.712609	 0.609596	 -0.225926	 7
1462501493.458	 10	 -0.029054	 0.005364	 -0.013760	 3.139662	 -1.415155	 0.707337	 0.263787	 -0.712687	 0.609511	 -0.225808	 7
1462501493.468	 10	 -0.015141	 0.008560	 -0.007457	 3.140828	 -1.415021	 0.708424	 0.263834	 -0.712716	 0.609495	 -0.225706	 7
1462501493.478	 10	 -0.007661	 0.012838	 -0.006435	 -3.141552	 -1.414856	 0.709113	 0.263853	 -0.712766	 0.609464	 -0.225608	 7
1462501493.488	 10	 -0.005507	 0.018142	 -0.007470	 -3.140900	 -1.414658	 0.709601	 0.263850	 -0.712836	 0.609425	 -0.225498	 7
1462501493.498	 10	 -0.017238	 0.018192	 -0.005236	 -3.140094	 -1.414343	 0.710226	 0.263863	 -0.712940	 0.609348	 -0.225359	 7
1462501493.508	 10	 -0.027940	 0.012898	 -0.006259	 -3.138651	 -1.413901	 0.711518	 0.263934	 -0.713067	 0.609236	 -0.225180	 7
1462501493.518	 10	 -0.033320	 0.006509	 -0.009470	 -3.137008	 -1.413408	 0.713068	 0.264043	 -0.713197	 0.609103	 -0.225001	 7
1462501493.528	 10	 -0.035500	 0.002214	 -0.015886	 -3.135176	 -1.412955	 0.714862	 0.264176	 -0.713304	 0.608982	 -0.224833	 7
1462501493.538	 10	 -0.041927	 -0.000973	 -0.017992	 -3.133106	 -1.412563	 0.716937	 0.264331	 -0.713381	 0.608882	 -0.224674	 7
1462501493.548	 10	 -0.048346	 0.000071	 -0.023256	 -3.131301	 -1.412131	 0.718762	 0.264483	 -0.713474	 0.608762	 -0.224527	 7
1462501493.558	 10	 -0.048329	 0.005374	 -0.025338	 -3.129583	 -1.411681	 0.720467	 0.264620	 -0.713577	 0.608639	 -0.224372	 7
1462501493.568	 10	 -0.046151	 0.011773	 -0.022100	 -3.128068	 -1.411338	 0.721898	 0.264710	 -0.713662	 0.608556	 -0.224220	 7
1462501493.578	 10	 -0.034373	 0.011807	 -0.012610	 -3.127572	 -1.411107	 0.722289	 0.264726	 -0.713735	 0.608496	 -0.224131	 7
1462501493.588	 10	 -0.019424	 0.005450	 -0.003208	 -3.127279	 -1.411014	 0.722518	 0.264729	 -0.713766	 0.608476	 -0.224083	 7
1462501493.598	 10	 -0.001304	 0.000085	 -0.002350	 -3.126930	 -1.411042	 0.722848	 0.264738	 -0.713753	 0.608495	 -0.224063	 7
1462501493.608	 10	 0.006162	 0.001111	 -0.004537	 -3.126008	 -1.411007	 0.723760	 0.264787	 -0.713746	 0.608503	 -0.224006	 7
1462501493.618	 10	 -0.002369	 0.004312	 -0.006566	 -3.124947	 -1.410840	 0.724789	 0.264851	 -0.713779	 0.608469	 -0.223918	 7
1462501493.628	 10	 -0.014090	 0.012818	 -0.011714	 -3.123703	 -1.410500	 0.725935	 0.264921	 -0.713869	 0.608385	 -0.223776	 7
1462501493.638	 10	 -0.029011	 0.022389	 -0.017890	 -3.122009	 -1.410049	 0.727432	 0.264994	 -0.713996	 0.608282	 -0.223564	 7
1462501493.648	 10	 -0.039670	 0.023500	 -0.015656	 -3.120449	 -1.409573	 0.728768	 0.265053	 -0.714137	 0.608170	 -0.223347	 7
1462501493.658	 10	 -0.049332	 0.017179	 -0.016721	 -3.118573	 -1.409044	 0.730455	 0.265148	 -0.714282	 0.608043	 -0.223116	 7
1462501493.668	 10	 -0.048294	 0.006578	 -0.011501	 -3.116814	 -1.408534	 0.732113	 0.265267	 -0.714412	 0.607911	 -0.222921	 7
1462501493.678	 10	 -0.039802	 -0.003020	 -0.011665	 -3.115234	 -1.408170	 0.733710	 0.265401	 -0.714485	 0.607814	 -0.222791	 7
1462501493.688	 10	 -0.028092	 -0.007325	 -0.013939	 -3.113303	 -1.407936	 0.735707	 0.265556	 -0.714506	 0.607764	 -0.222675	 7
1462501493.698	 10	 -0.023797	 -0.000964	 -0.014985	 -3.111157	 -1.407706	 0.737866	 0.265703	 -0.714527	 0.607728	 -0.222532	 7
1462501493.708	 10	 -0.026956	 0.010723	 -0.018046	 -3.109260	 -1.407411	 0.739685	 0.265813	 -0.714584	 0.607673	 -0.222364	 7
1462501493.718	 10	 -0.031194	 0.023446	 -0.025352	 -3.106893	 -1.407096	 0.741846	 0.265905	 -0.714654	 0.607636	 -0.222131	 7
1462501493.728	 10	 -0.031115	 0.038353	 -0.023083	 -3.104615	 -1.406734	 0.743779	 0.265948	 -0.714758	 0.607597	 -0.221851	 7
1462501493.738	 10	 -0.032232	 0.027719	 -0.023173	 -3.102895	 -1.406450	 0.745213	 0.265973	 -0.714843	 0.607567	 -0.221631	 7
1462501493.748	 10	 -0.033371	 0.011775	 -0.022246	 -3.100940	 -1.406150	 0.747029	 0.266066	 -0.714908	 0.607519	 -0.221441	 7
1462501493.758	 10	 -0.023806	 0.004293	 -0.023465	 -3.099037	 -1.405902	 0.748879	 0.266180	 -0.714946	 0.607481	 -0.221286	 7
1462501493.768	 10	 -0.016367	 0.003160	 -0.029935	 -3.096998	 -1.405675	 0.750907	 0.266315	 -0.714969	 0.607448	 -0.221140	 7
1462501493.778	 10	 -0.018485	 0.009526	 -0.033055	 -3.094693	 -1.405350	 0.753153	 0.266459	 -0.715021	 0.607392	 -0.220951	 7
1462501493.788	 10	 -0.030202	 0.015927	 -0.035025	 -3.092441	 -1.404955	 0.755288	 0.266589	 -0.715103	 0.607318	 -0.220736	 7
1462501493.798	 10	 -0.038725	 0.024416	 -0.041267	 -3.090086	 -1.404499	 0.757454	 0.266706	 -0.715209	 0.607232	 -0.220483	 7
1462501493.808	 10	 -0.048370	 0.024419	 -0.048663	 -3.087559	 -1.403939	 0.759767	 0.266839	 -0.715345	 0.607118	 -0.220198	 7
1462501493.818	 10	 -0.059084	 0.018045	 -0.051826	 -3.085087	 -1.403329	 0.762087	 0.266997	 -0.715487	 0.606978	 -0.219927	 7
1462501493.828	 10	 -0.063371	 0.016971	 -0.054995	 -3.082684	 -1.402713	 0.764380	 0.267169	 -0.715627	 0.606831	 -0.219670	 7
1462501493.838	 10	 -0.064382	 0.022346	 -0.047475	 -3.080613	 -1.402124	 0.766289	 0.267301	 -0.715773	 0.606691	 -0.219419	 7
1462501493.848	 10	 -0.063272	 0.022420	 -0.036825	 -3.079293	 -1.401575	 0.767425	 0.267379	 -0.715928	 0.606551	 -0.219207	 7
1462501493.858	 10	 -0.057912	 0.019282	 -0.027308	 -3.078587	 -1.401143	 0.767965	 0.267415	 -0.716060	 0.606435	 -0.219052	 7
1462501493.868	 10	 -0.048316	 0.012910	 -0.022122	 -3.078035	 -1.400813	 0.768388	 0.267443	 -0.716161	 0.606347	 -0.218933	 7
1462501493.878	 10	 -0.032381	 -0.005197	 -0.019231	 -3.077540	 -1.400642	 0.768910	 0.267503	 -0.716196	 0.606296	 -0.218888	 7
1462501493.888	 10	 -0.026047	 -0.024324	 -0.014135	 -3.077417	 -1.400535	 0.769241	 0.267598	 -0.716196	 0.606239	 -0.218928	 7
1462501493.898	 10	 -0.019738	 -0.042441	 -0.016490	 -3.077048	 -1.400468	 0.770000	 0.267767	 -0.716155	 0.606181	 -0.219015	 7
1462501493.908	 10	 -0.010202	 -0.048921	 -0.026225	 -3.075930	 -1.400393	 0.771597	 0.268009	 -0.716085	 0.606130	 -0.219087	 7
1462501493.918	 10	 -0.005911	 -0.041512	 -0.029391	 -3.074379	 -1.400318	 0.773605	 0.268268	 -0.716008	 0.606092	 -0.219129	 7
1462501493.928	 10	 -0.004775	 -0.035063	 -0.019749	 -3.073294	 -1.400257	 0.775072	 0.268473	 -0.715948	 0.606055	 -0.219176	 7
1462501493.938	 10	 -0.001460	 -0.019048	 -0.010038	 -3.072466	 -1.400261	 0.776143	 0.268605	 -0.715894	 0.606050	 -0.219204	 7
1462501493.948	 10	 0.000741	 -0.009443	 -0.004639	 -3.071586	 -1.400230	 0.777114	 0.268690	 -0.715869	 0.606051	 -0.219179	 7
1462501493.958	 10	 0.019981	 -0.011502	 0.009000	 -3.071408	 -1.400429	 0.777385	 0.268706	 -0.715794	 0.606115	 -0.219228	 7
1462501493.968	 10	 0.055316	 -0.010335	 0.037478	 -3.072349	 -1.400817	 0.776519	 0.268630	 -0.715693	 0.606219	 -0.219363	 7
1462501493.978	 10	 0.075763	 -0.006919	 0.076763	 -3.074436	 -1.401366	 0.774432	 0.268442	 -0.715583	 0.606360	 -0.219562	 7
1462501493.988	 10	 0.089735	 -0.032087	 0.131826	 -3.079741	 -1.402170	 0.769239	 0.268086	 -0.715460	 0.606500	 -0.220009	 7
1462501493.998	 10	 0.096175	 -0.088980	 0.209040	 -3.090051	 -1.403180	 0.759480	 0.267590	 -0.715333	 0.606550	 -0.220889	 7
1462501494.008	 10	 0.092872	 -0.172459	 0.282893	 -3.104685	 -1.404240	 0.746100	 0.267109	 -0.715185	 0.606449	 -0.222221	 7
1462501494.018	 10	 0.104299	 -0.263746	 0.312851	 -3.125366	 -1.405323	 0.727583	 0.266626	 -0.715024	 0.606140	 -0.224155	 7
1462501494.028	 10	 0.140234	 -0.306664	 0.275903	 3.137481	 -1.406643	 0.709996	 0.266352	 -0.714678	 0.605881	 -0.226274	 7
1462501494.038	 10	 0.173029	 -0.302009	 0.197860	 3.121068	 -1.408282	 0.696459	 0.266309	 -0.714117	 0.605822	 -0.228248	 7
1462501494.048	 10	 0.180455	 -0.248332	 0.122623	 3.112601	 -1.410069	 0.690491	 0.266555	 -0.713395	 0.606019	 -0.229686	 7
1462501494.058	 10	 0.168012	 -0.140078	 0.085371	 3.104908	 -1.411759	 0.684429	 0.266551	 -0.712798	 0.606301	 -0.230800	 7
1462501494.068	 10	 0.146355	 0.011092	 0.095492	 3.098648	 -1.413242	 0.678355	 0.266135	 -0.712427	 0.606704	 -0.231368	 7
1462501494.078	 10	 0.126875	 0.129644	 0.155382	 3.090643	 -1.414485	 0.669208	 0.265183	 -0.712330	 0.607148	 -0.231591	 7
1462501494.088	 10	 0.132728	 0.160090	 0.249401	 3.077429	 -1.415648	 0.654220	 0.263747	 -0.712420	 0.607559	 -0.231879	 7
1462501494.098	 10	 0.192457	 0.080770	 0.335536	 3.057559	 -1.417149	 0.633020	 0.262099	 -0.712430	 0.607955	 -0.232678	 7
1462501494.108	 10	 0.306024	 -0.119988	 0.417940	 3.029419	 -1.419488	 0.605182	 0.260552	 -0.712043	 0.608385	 -0.234469	 7
1462501494.118	 10	 0.456385	 -0.416706	 0.478843	 2.991787	 -1.423039	 0.570570	 0.259440	 -0.710969	 0.608885	 -0.237641	 7
1462501494.128	 10	 0.585086	 -0.737197	 0.483266	 2.946013	 -1.427672	 0.530934	 0.259044	 -0.709122	 0.609423	 -0.242168	 7
1462501494.138	 10	 0.689063	 -1.052668	 0.436794	 2.894804	 -1.433172	 0.489064	 0.259607	 -0.706485	 0.609959	 -0.247856	 7
1462501494.148	 10	 0.786913	 -1.285370	 0.361305	 2.840062	 -1.439476	 0.446269	 0.261068	 -0.703108	 0.610561	 -0.254359	 7
1462501494.158	 10	 0.847707	 -1.417251	 0.240183	 2.785034	 -1.446509	 0.404799	 0.263278	 -0.699121	 0.611319	 -0.261160	 7
1462501494.168	 10	 0.841755	 -1.444715	 0.117417	 2.733467	 -1.453838	 0.367400	 0.266071	 -0.694809	 0.612171	 -0.267754	 7
1462501494.178	 10	 0.761844	 -1.382036	 0.075000	 2.684286	 -1.460641	 0.332011	 0.269029	 -0.690610	 0.612910	 -0.273903	 7
1462501494.188	 10	 0.620556	 -1.261293	 0.094406	 2.635875	 -1.466079	 0.296326	 0.271780	 -0.686918	 0.613311	 -0.279515	 7
1462501494.198	 10	 0.440947	 -1.159241	 0.160865	 2.588520	 -1.469567	 0.260588	 0.274231	 -0.683954	 0.613168	 -0.284657	 7
1462501494.208	 10	 0.268584	 -1.134597	 0.262776	 2.540854	 -1.470880	 0.224080	 0.276456	 -0.681700	 0.612327	 -0.289678	 7
1462501494.218	 10	 0.139618	 -1.203524	 0.385821	 2.490685	 -1.470166	 0.185509	 0.278608	 -0.679954	 0.610745	 -0.295010	 7
1462501494.228	 10	 0.073072	 -1.372741	 0.491402	 2.436457	 -1.467907	 0.144316	 0.280930	 -0.678370	 0.608488	 -0.301056	 7
1462501494.238	 10	 0.068978	 -1.612664	 0.552085	 2.378530	 -1.464769	 0.101664	 0.283708	 -0.676574	 0.605697	 -0.308040	 7
1462501494.248	 10	 0.120115	 -1.876425	 0.574763	 2.316513	 -1.461426	 0.057482	 0.287080	 -0.674251	 0.602577	 -0.316024	 7
1462501494.258	 10	 0.196770	 -2.134104	 0.566369	 2.250406	 -1.458260	 0.011786	 0.291097	 -0.671231	 0.599263	 -0.324952	 7
1462501494.268	 10	 0.312908	 -2.373937	 0.538581	 2.178884	 -1.455593	 -0.036898	 0.295725	 -0.667369	 0.595912	 -0.334744	 7
1462501494.278	 10	 0.437747	 -2.578739	 0.507879	 2.100466	 -1.453446	 -0.090380	 0.300837	 -0.662627	 0.592617	 -0.345293	 7
1462501494.288	 10	 0.515143	 -2.677955	 0.497755	 2.016808	 -1.451396	 -0.147847	 0.306165	 -0.657232	 0.589368	 -0.356306	 7
1462501494.298	 10	 0.480954	 -2.696906	 0.510666	 1.935808	 -1.448691	 -0.202278	 0.311532	 -0.651680	 0.585908	 -0.367386	 7
1462501494.308	 10	 0.352351	 -2.605946	 0.535013	 1.866211	 -1.444964	 -0.245851	 0.316793	 -0.646460	 0.582047	 -0.378090	 7
1462501494.318	 10	 0.183837	 -2.412474	 0.599029	 1.812788	 -1.439990	 -0.274867	 0.321644	 -0.642008	 0.577734	 -0.388066	 7
1462501494.328	 10	 0.034894	 -2.193091	 0.723864	 1.773973	 -1.433412	 -0.291368	 0.325759	 -0.638513	 0.572967	 -0.397356	 7
1462501494.338	 10	 -0.085461	 -2.019548	 0.845892	 1.746605	 -1.425276	 -0.298232	 0.329139	 -0.635884	 0.567772	 -0.406145	 7
1462501494.348	 10	 -0.154149	 -1.930593	 0.911264	 1.726577	 -1.416180	 -0.298776	 0.332084	 -0.633772	 0.562255	 -0.414635	 7
1462501494.358	 10	 -0.155999	 -1.863637	 0.903377	 1.709096	 -1.406950	 -0.297416	 0.334799	 -0.631786	 0.556716	 -0.422875	 7
1462501494.368	 10	 -0.113831	 -1.923755	 0.843833	 1.691243	 -1.398258	 -0.296341	 0.337605	 -0.629553	 0.551292	 -0.431002	 7
1462501494.378	 10	 -0.012798	 -2.169153	 0.778856	 1.667558	 -1.390327	 -0.299037	 0.340966	 -0.626428	 0.545875	 -0.439716	 7
1462501494.388	 10	 0.101821	 -2.506854	 0.751269	 1.636142	 -1.382846	 -0.306388	 0.345009	 -0.622149	 0.540274	 -0.449448	 7
1462501494.398	 10	 0.187747	 -2.844252	 0.753776	 1.597993	 -1.375429	 -0.317100	 0.349723	 -0.616711	 0.534293	 -0.460317	 7
1462501494.408	 10	 0.220018	 -3.048281	 0.792095	 1.556957	 -1.367648	 -0.328293	 0.354810	 -0.610503	 0.527845	 -0.471991	 7
1462501494.418	 10	 0.160090	 -3.136987	 0.855737	 1.518493	 -1.359199	 -0.335721	 0.360008	 -0.604073	 0.520813	 -0.483988	 7
1462501494.428	 10	 0.034575	 -3.105293	 0.922136	 1.486993	 -1.350121	 -0.336008	 0.365191	 -0.597891	 0.513139	 -0.495832	 7
1462501494.438	 10	 -0.132805	 -2.912756	 1.004252	 1.465176	 -1.340434	 -0.327935	 0.370047	 -0.592478	 0.504960	 -0.507002	 7
1462501494.458	 11	 -0.629957	 -2.253541	 1.065871	 1.458893	 -1.320226	 -0.282564	 0.378486	 -0.585580	 0.487531	 -0.525507	 7
1462501494.468	 11	 -0.973799	 -1.812488	 1.026075	 1.477408	 -1.310825	 -0.243505	 0.382450	 -0.584591	 0.478536	 -0.531967	 7
1462501494.478	 11	 -1.330175	 -1.304470	 0.975289	 1.511523	 -1.301937	 -0.193307	 0.386276	 -0.585596	 0.469520	 -0.536115	 7
1462501494.488	 11	 -1.679620	 -0.804831	 0.798603	 1.560363	 -1.293987	 -0.132965	 0.390223	 -0.588473	 0.460748	 -0.537715	 7
1462501494.498	 11	 -1.912762	 -0.397089	 0.460139	 1.620169	 -1.288094	 -0.065699	 0.394716	 -0.592522	 0.452796	 -0.536742	 7
1462501494.528	 13	 -2.006459	 0.011835	 -0.241840	 1.814099	 -1.279259	 0.139719	 0.410949	 -0.604766	 0.434521	 -0.525899	 7
1462501494.538	 13	 -2.035724	 0.245027	 -0.364110	 1.883827	 -1.276922	 0.210649	 0.416896	 -0.608932	 0.429614	 -0.520415	 7
1462501494.548	 13	 -2.021266	 0.455891	 -0.467784	 1.955473	 -1.274147	 0.281273	 0.422613	 -0.613389	 0.425421	 -0.513974	 7
1462501494.558	 13	 -1.999512	 0.611583	 -0.549654	 2.027791	 -1.270832	 0.350905	 0.428147	 -0.617966	 0.421842	 -0.506811	 7
1462501494.568	 13	 -2.003422	 0.720860	 -0.589102	 2.100118	 -1.266478	 0.419357	 0.433513	 -0.622671	 0.418602	 -0.499120	 7
1462501494.578	 13	 -2.041842	 0.767367	 -0.644820	 2.172393	 -1.260903	 0.487211	 0.438919	 -0.627413	 0.415468	 -0.491009	 7
1462501494.588	 13	 -2.100770	 0.793478	 -0.734654	 2.245035	 -1.254193	 0.555310	 0.444605	 -0.632069	 0.412368	 -0.482460	 7
1462501494.598	 13	 -2.175869	 0.613883	 -0.890207	 2.317976	 -1.246488	 0.624605	 0.450951	 -0.636331	 0.409143	 -0.473633	 7
1462501494.608	 13	 -2.258515	 0.523632	 -0.902051	 2.387450	 -1.237316	 0.694024	 0.458399	 -0.639657	 0.405048	 -0.465453	 7
1462501494.618	 13	 -2.461627	 1.207445	 -0.996232	 2.463193	 -1.225481	 0.762720	 0.464736	 -0.644819	 0.402072	 -0.454496	 7
1462501494.628	 13	 -2.758274	 1.753190	 -1.100476	 2.546192	 -1.210337	 0.834116	 0.471048	 -0.651244	 0.399543	 -0.440862	 7
1462501494.638	 13	 -3.091028	 2.329943	 -1.196657	 2.634365	 -1.190852	 0.905176	 0.477014	 -0.659200	 0.397421	 -0.424228	 7
1462501494.648	 13	 -3.375226	 2.849697	 -1.359868	 2.725737	 -1.167057	 0.974588	 0.482838	 -0.668248	 0.395690	 -0.404650	 7
1462501494.658	 13	 -3.547822	 3.313472	 -1.570399	 2.818286	 -1.139788	 1.040779	 0.488523	 -0.677802	 0.394638	 -0.382348	 7
1462501494.668	 13	 -3.589816	 3.647018	 -1.792871	 2.909579	 -1.110043	 1.102349	 0.494047	 -0.687221	 0.394390	 -0.357913	 7
1462501494.678	 13	 -3.544504	 3.854459	 -1.916030	 2.996603	 -1.078652	 1.157449	 0.499227	 -0.696098	 0.394808	 -0.332186	 7
1462501494.688	 13	 -3.547380	 3.957342	 -1.956612	 3.077220	 -1.045601	 1.204630	 0.503861	 -0.704483	 0.395434	 -0.305713	 7
1462501494.698	 13	 -3.550768	 3.901124	 -1.936855	 -3.132962	 -1.010682	 1.244154	 0.508187	 -0.712305	 0.395615	 -0.279029	 7
1462501494.708	 13	 -3.410831	 3.769153	 -1.745333	 -3.069411	 -0.975445	 1.274564	 0.511704	 -0.719603	 0.395355	 -0.253032	 7
1462501494.718	 13	 -3.154397	 3.623453	 -1.493139	 -3.015352	 -0.941841	 1.295948	 0.513985	 -0.726381	 0.394952	 -0.228481	 7
1462501494.728	 13	 -2.862467	 3.616293	 -1.335883	 -2.967166	 -0.910796	 1.311091	 0.515017	 -0.732574	 0.395013	 -0.205081	 7
1462501494.738	 13	 -2.651584	 3.787684	 -1.376623	 -2.919906	 -0.881719	 1.323873	 0.515232	 -0.738017	 0.396019	 -0.181758	 7
1462501494.748	 13	 -2.599932	 4.264771	 -1.567668	 -2.868852	 -0.852795	 1.336701	 0.514838	 -0.742781	 0.398296	 -0.156777	 7
1462501494.758	 13	 -2.700176	 4.929180	 -1.802541	 -2.811563	 -0.822155	 1.349789	 0.513731	 -0.747018	 0.401843	 -0.128712	 7
1462501494.768	 13	 -2.911984	 5.649636	 -1.980501	 -2.748509	 -0.788630	 1.361424	 0.511563	 -0.750889	 0.406272	 -0.097014	 7
1462501494.778	 13	 -3.206817	 6.379160	 -2.115023	 -2.680690	 -0.751520	 1.369787	 0.507976	 -0.754430	 0.411120	 -0.061448	 7
1462501494.788	 13	 -3.492245	 7.042917	 -2.221464	 -2.609186	 -0.710958	 1.373813	 0.502767	 -0.757400	 0.416025	 -0.022243	 7
1462501494.798	 13	 -3.678599	 7.651236	 -2.305836	 -2.534487	 -0.668013	 1.373333	 0.495761	 -0.759345	 0.420968	 0.020063	 7
1462501494.808	 13	 -3.824468	 8.289892	 -2.443567	 -2.455978	 -0.623314	 1.368790	 0.486877	 -0.759728	 0.426026	 0.065313	 7
1462501494.818	 13	 -3.898829	 8.931520	 -2.582958	 -2.372856	 -0.577331	 1.360592	 0.476018	 -0.757992	 0.431262	 0.113438	 7
1462501494.828	 13	 -3.849205	 9.403532	 -2.740994	 -2.285734	 -0.531130	 1.349395	 0.463359	 -0.753609	 0.436608	 0.163540	 7
1462501494.838	 13	 -3.700631	 9.588064	 -2.901500	 -2.196586	 -0.485463	 1.336218	 0.449584	 -0.746261	 0.441685	 0.214205	 7
1462501494.848	 13	 -3.528248	 9.579274	 -3.017120	 -2.107393	 -0.440890	 1.321209	 0.435106	 -0.736102	 0.446084	 0.264282	 7
1462501494.858	 13	 -3.341746	 9.407615	 -3.146101	 -2.019557	 -0.397471	 1.304615	 0.420381	 -0.723390	 0.449453	 0.313015	 7
1462501494.868	 13	 -3.139706	 9.161241	 -3.304688	 -1.933836	 -0.354896	 1.286961	 0.405927	 -0.708320	 0.451586	 0.359968	 7
1462501494.878	 13	 -2.985761	 8.907495	 -3.472517	 -1.850280	 -0.312834	 1.268109	 0.391872	 -0.691138	 0.452357	 0.405139	 7
1462501494.888	 13	 -2.926025	 8.580724	 -3.628482	 -1.769657	 -0.271008	 1.247208	 0.378270	 -0.672371	 0.451363	 0.448442	 7
1462501494.898	 13	 -2.981579	 8.263716	 -3.804668	 -1.692148	 -0.229238	 1.223247	 0.364998	 -0.652472	 0.448257	 0.490023	 7
1462501494.908	 13	 -3.189703	 7.934562	 -3.957257	 -1.617872	 -0.187518	 1.194743	 0.351758	 -0.631967	 0.442560	 0.530117	 7
1462501494.918	 13	 -3.483886	 7.561012	 -3.960303	 -1.546959	 -0.147454	 1.160662	 0.337944	 -0.611560	 0.434271	 0.568504	 7
1462501494.928	 13	 -3.813798	 7.176974	 -3.810731	 -1.479372	 -0.111138	 1.120860	 0.322991	 -0.591870	 0.423750	 0.604816	 7
1462501494.938	 13	 -4.105886	 6.817938	 -3.571733	 -1.414520	 -0.080078	 1.076174	 0.306600	 -0.573084	 0.411591	 0.638877	 7
1462501494.948	 13	 -4.369117	 6.455732	 -3.318094	 -1.352334	 -0.054913	 1.027481	 0.288781	 -0.555342	 0.398129	 0.670593	 7
1462501494.958	 13	 -4.595180	 6.083594	 -3.098976	 -1.292863	 -0.035531	 0.975717	 0.269768	 -0.538635	 0.383555	 0.699988	 7
1462501494.968	 13	 -4.810773	 5.693133	 -2.908895	 -1.236515	 -0.021723	 0.921453	 0.249753	 -0.523084	 0.367917	 0.727079	 7
1462501494.978	 13	 -4.996606	 5.308695	 -2.756319	 -1.183436	 -0.013100	 0.865267	 0.228919	 -0.508664	 0.351291	 0.751965	 7
1462501494.988	 13	 -5.143837	 4.987746	 -2.633329	 -1.133464	 -0.009201	 0.807811	 0.207428	 -0.495197	 0.333837	 0.774794	 7
1462501494.998	 13	 -5.103673	 4.819258	 -2.530802	 -1.085384	 -0.009134	 0.750482	 0.185634	 -0.481937	 0.316030	 0.795865	 7
1462501495.008	 13	 -4.860013	 4.551502	 -2.394734	 -1.039673	 -0.011902	 0.695594	 0.164443	 -0.468749	 0.298578	 0.814914	 7
1462501495.018	 13	 -4.486689	 4.174846	 -2.262941	 -0.997686	 -0.016437	 0.644541	 0.144672	 -0.456051	 0.281844	 0.831656	 7
1462501495.028	 13	 -4.091557	 3.760123	 -2.238267	 -0.959937	 -0.021257	 0.597290	 0.126841	 -0.444061	 0.265657	 0.846255	 7
1462501495.038	 13	 -3.702876	 3.406493	 -2.298230	 -0.926103	 -0.025132	 0.553128	 0.111142	 -0.432742	 0.249678	 0.859094	 7
1462501495.048	 13	 -3.313651	 3.176172	 -2.367708	 -0.894923	 -0.027462	 0.511761	 0.097524	 -0.421684	 0.233906	 0.870609	 7
1462501495.058	 13	 -2.968779	 2.998498	 -2.381956	 -0.865558	 -0.028524	 0.473055	 0.085680	 -0.410711	 0.218517	 0.881037	 7
1462501495.068	 13	 -2.687898	 2.769414	 -2.324719	 -0.838314	 -0.029035	 0.436879	 0.075243	 -0.400151	 0.203694	 0.890352	 7
1462501495.078	 13	 -2.415302	 2.547139	 -2.211927	 -0.813294	 -0.029408	 0.403401	 0.066000	 -0.390177	 0.189677	 0.898570	 7
1462501495.088	 13	 -2.134935	 2.363350	 -2.069003	 -0.790135	 -0.029601	 0.372913	 0.057915	 -0.380690	 0.176677	 0.905818	 7
1462501495.098	 13	 -1.894881	 2.240218	 -1.937953	 -0.768287	 -0.029653	 0.345198	 0.050815	 -0.371517	 0.164683	 0.912290	 7
1462501495.109	 13	 -1.705831	 2.214650	 -1.867365	 -0.746926	 -0.029437	 0.319489	 0.044498	 -0.362338	 0.153387	 0.918261	 7
1462501495.118	 13	 -1.548631	 2.282270	 -1.865973	 -0.725020	 -0.028686	 0.295029	 0.038852	 -0.352706	 0.142445	 0.924012	 7
1462501495.128	 13	 -1.433214	 2.344442	 -1.899438	 -0.702380	 -0.027332	 0.271176	 0.033784	 -0.342561	 0.131569	 0.929624	 7
1462501495.139	 13	 -1.370271	 2.349494	 -1.910597	 -0.679499	 -0.025827	 0.247633	 0.029071	 -0.332176	 0.120702	 0.935011	 7
1462501495.149	 13	 -1.295645	 2.303795	 -1.875436	 -0.656884	 -0.024478	 0.224664	 0.024645	 -0.321810	 0.110019	 0.940067	 7
1462501495.158	 13	 -1.187032	 2.196541	 -1.808105	 -0.635147	 -0.023201	 0.202774	 0.020639	 -0.311753	 0.099749	 0.944687	 7
1462501495.169	 13	 -1.057232	 2.075233	 -1.763471	 -0.614567	 -0.021672	 0.182014	 0.017202	 -0.302140	 0.089883	 0.948861	 7
1462501495.179	 13	 -0.917812	 1.973959	 -1.738983	 -0.595006	 -0.019587	 0.162236	 0.014419	 -0.292914	 0.080327	 0.952649	 7
1462501495.188	 13	 -0.797241	 1.932447	 -1.694591	 -0.575960	 -0.017034	 0.143447	 0.012207	 -0.283861	 0.071121	 0.956146	 7
1462501495.199	 13	 -0.682982	 1.880572	 -1.615071	 -0.557276	 -0.014254	 0.125808	 0.010451	 -0.274926	 0.062393	 0.959382	 7
1462501495.209	 13	 -0.567674	 1.800191	 -1.505983	 -0.539269	 -0.011339	 0.109604	 0.009134	 -0.266274	 0.054303	 0.962323	 7
1462501495.218	 13	 -0.476116	 1.649787	 -1.382420	 -0.522490	 -0.008475	 0.094912	 0.008163	 -0.258185	 0.046922	 0.964921	 7
1462501495.229	 13	 -0.406409	 1.436312	 -1.311476	 -0.507668	 -0.005635	 0.081313	 0.007482	 -0.251019	 0.040050	 0.967124	 7
1462501495.239	 13	 -0.336053	 1.180949	 -1.296347	 -0.495255	 -0.002498	 0.068225	 0.007149	 -0.245003	 0.033371	 0.968921	 7
1462501495.249	 13	 -0.265725	 0.912884	 -1.272810	 -0.485479	 0.001039	 0.055587	 0.007184	 -0.240256	 0.026851	 0.970312	 7
