% Gyrometer data recorded with 'snsrlog'
% 
% 
% Label description:
% 	 0: Default Label
% 	 1: still_drop
% 	 2: walk_drop
% 	 3: other
% 	 4: dtw_same
% 	 5: dtw_diff
% 	 6: delete
% 
% Column description:
% 	 1: Seconds.milliseconds since 1970
% 	 2: Number of skipped measurements
% 	 3: Gyro X
% 	 4: Gyro Y
% 	 5: Gyro Z
% 	 6: Roll of the device
% 	 7: Pitch of the device
% 	 8: Yaw of the device
% 	 9: Quaternion X
% 	 10: Quaternion Y
% 	 11: Quaternion Z
% 	 12: Quaternion W
% 	 13: Label used for the current sample
% 
% 
1462090897.175	 0	 -1.511072	 1.480868	 -0.730411	 0.643561	 0.748085	 -0.300351	 0.386770	 0.239217	 -0.017866	 0.890430	 1
1462090897.185	 0	 -1.553026	 1.581444	 -0.665164	 0.655502	 0.731643	 -0.295020	 0.379180	 0.247572	 -0.016041	 0.891445	 1
1462090897.195	 0	 -1.519993	 1.747697	 -0.606353	 0.668504	 0.715743	 -0.288976	 0.371691	 0.256432	 -0.013683	 0.892133	 1
1462090897.205	 0	 -1.428947	 2.005168	 -0.558922	 0.683855	 0.700833	 -0.282842	 0.364576	 0.266198	 -0.010764	 0.892248	 1
1462090897.215	 0	 -1.339938	 2.351398	 -0.592711	 0.702947	 0.686669	 -0.277328	 0.357825	 0.277392	 -0.007414	 0.891605	 1
1462090897.225	 0	 -1.259657	 2.651963	 -0.620455	 0.725760	 0.672956	 -0.272564	 0.351324	 0.290021	 -0.003780	 0.890194	 1
1462090897.245	 1	 -1.306450	 3.026399	 -0.486540	 0.776943	 0.647240	 -0.260883	 0.338516	 0.317781	 0.005296	 0.885660	 1
1462090897.255	 1	 -1.482692	 2.998153	 -0.492729	 0.802059	 0.633693	 -0.252465	 0.331269	 0.331869	 0.010520	 0.883183	 1
1462090897.275	 2	 -2.025058	 2.551480	 -0.559306	 0.843379	 0.601194	 -0.228860	 0.313024	 0.357546	 0.020891	 0.879625	 1
1462090897.285	 2	 -2.264598	 2.237216	 -0.578263	 0.857905	 0.582317	 -0.213374	 0.301996	 0.368350	 0.025954	 0.878888	 1
1462090897.305	 3	 -2.300420	 1.993860	 -0.710238	 0.880915	 0.542121	 -0.181124	 0.278356	 0.387199	 0.034870	 0.878282	 1
1462090897.315	 3	 -2.067645	 2.296943	 -0.769127	 0.895999	 0.522776	 -0.167420	 0.267091	 0.397510	 0.038746	 0.877010	 1
1462090897.335	 4	 -1.295749	 3.490421	 -1.029061	 0.948888	 0.487737	 -0.151279	 0.247676	 0.425828	 0.044762	 0.869094	 1
1462090897.345	 5	 -0.854926	 3.903360	 -0.961916	 0.985866	 0.473816	 -0.148720	 0.240359	 0.443363	 0.047136	 0.862227	 1
1462090897.365	 5	 -0.426343	 4.077105	 -0.737024	 1.067530	 0.455035	 -0.148280	 0.230366	 0.479921	 0.052320	 0.844908	 1
1462090897.375	 5	 -0.632962	 3.730816	 -0.758697	 1.105137	 0.445767	 -0.146602	 0.225130	 0.496738	 0.054914	 0.836392	 1
1462090897.395	 6	 -1.423046	 2.530119	 -0.768319	 1.158779	 0.422369	 -0.131351	 0.210164	 0.522683	 0.060824	 0.823974	 1
1462090897.405	 6	 -1.702893	 2.044708	 -0.790649	 1.174989	 0.408716	 -0.118193	 0.200673	 0.531820	 0.064152	 0.820233	 1
1462090897.425	 6	 -1.733863	 1.907844	 -0.902492	 1.201195	 0.379537	 -0.089434	 0.180274	 0.547479	 0.070279	 0.814143	 1
1462090897.415	 6	 -1.805528	 1.822342	 -0.841915	 1.187877	 0.394263	 -0.103608	 0.190514	 0.539650	 0.067379	 0.817278	 1
1462090897.435	 6	 -1.507166	 2.286405	 -0.969152	 1.218515	 0.365072	 -0.077255	 0.170484	 0.556583	 0.072658	 0.809859	 1
1462090897.445	 6	 -1.166368	 2.868873	 -1.031711	 1.242483	 0.351277	 -0.068230	 0.161553	 0.567910	 0.074337	 0.803649	 1
1462090897.455	 6	 -0.754850	 3.493863	 -1.067851	 1.273714	 0.337465	 -0.062865	 0.153370	 0.581693	 0.074908	 0.795298	 1
1462090897.465	 6	 -0.332175	 3.969060	 -1.075636	 1.311630	 0.325579	 -0.061455	 0.146876	 0.597513	 0.074758	 0.784740	 1
1462090897.475	 6	 0.056541	 4.252952	 -1.077444	 1.354065	 0.314861	 -0.063688	 0.141838	 0.614531	 0.073662	 0.772533	 1
1462090897.485	 6	 0.376455	 4.426461	 -1.075417	 1.399549	 0.304877	 -0.068969	 0.138041	 0.632193	 0.071670	 0.759039	 1
1462090897.495	 6	 0.619280	 4.543849	 -1.070045	 1.446933	 0.295098	 -0.076443	 0.135130	 0.650105	 0.068921	 0.744549	 1
1462090897.505	 6	 0.823087	 4.540047	 -1.071854	 1.495030	 0.285221	 -0.085580	 0.132924	 0.667842	 0.065479	 0.729404	 1
1462090897.515	 6	 1.026358	 4.454081	 -1.110660	 1.542750	 0.274756	 -0.096303	 0.131308	 0.685028	 0.061174	 0.713970	 1
1462090897.525	 6	 1.243445	 4.396440	 -1.197279	 1.589786	 0.263015	 -0.108596	 0.130106	 0.701598	 0.055779	 0.698370	 1
1462090897.535	 6	 1.491627	 4.383264	 -1.299742	 1.636912	 0.249614	 -0.122682	 0.129314	 0.717836	 0.049148	 0.682330	 1
1462090897.555	 7	 1.941257	 4.197340	 -1.529197	 1.730460	 0.216987	 -0.155976	 0.128962	 0.748998	 0.031953	 0.649115	 1
1462090897.565	 7	 1.991815	 3.944129	 -1.665213	 1.774091	 0.197359	 -0.172937	 0.128625	 0.763181	 0.021799	 0.632879	 1
1462090897.575	 7	 1.942673	 3.600756	 -1.807595	 1.813855	 0.175722	 -0.188378	 0.127617	 0.776014	 0.011078	 0.617571	 1
1462090897.585	 7	 1.800452	 3.138071	 -1.867148	 1.848666	 0.153042	 -0.201558	 0.125888	 0.787212	 0.000285	 0.603696	 1
1462090897.595	 7	 1.572011	 2.463201	 -1.887425	 1.876573	 0.130315	 -0.211885	 0.123383	 0.796252	 -0.010159	 0.592162	 1
1462090897.605	 7	 1.273502	 1.643849	 -1.912700	 1.895908	 0.108020	 -0.218849	 0.119873	 0.802749	 -0.020027	 0.583800	 1
1462090897.615	 7	 0.947394	 0.851211	 -1.932157	 1.906692	 0.086399	 -0.222318	 0.115212	 0.806796	 -0.029169	 0.578754	 1
1462090897.625	 7	 0.648083	 0.151331	 -1.763410	 1.909924	 0.066839	 -0.223079	 0.109990	 0.808618	 -0.037155	 0.576766	 1
1462090897.645	 8	 0.247914	 -0.667689	 -1.051355	 1.901151	 0.039371	 -0.221361	 0.101236	 0.807351	 -0.048265	 0.579316	 1
1462090897.655	 8	 0.194683	 -0.653764	 -0.766203	 1.894364	 0.030870	 -0.220579	 0.098296	 0.805753	 -0.051815	 0.581735	 1
1462090897.675	 9	 0.521823	 0.063767	 -0.396818	 1.889239	 0.018606	 -0.224014	 0.095981	 0.804552	 -0.058011	 0.583196	 1
1462090897.685	 9	 0.813168	 0.585445	 -0.209058	 1.893888	 0.013842	 -0.230223	 0.097236	 0.805779	 -0.061514	 0.580932	 1
1462090897.695	 9	 1.077334	 1.012443	 -0.034731	 1.903156	 0.009850	 -0.239572	 0.100149	 0.808146	 -0.065375	 0.576712	 1
1462090897.705	 9	 1.277758	 1.295858	 0.114302	 1.915559	 0.006505	 -0.251465	 0.104424	 0.811220	 -0.069509	 0.571127	 1
1462090897.715	 9	 1.410442	 1.488915	 0.242834	 1.930098	 0.003716	 -0.265154	 0.109718	 0.814721	 -0.073751	 0.564581	 1
1462090897.725	 9	 1.474378	 1.580126	 0.379544	 1.945768	 0.001677	 -0.280031	 0.115814	 0.818358	 -0.077874	 0.557506	 1
1462090897.735	 9	 1.479329	 1.616149	 0.508793	 1.961861	 0.000575	 -0.295550	 0.122515	 0.821935	 -0.081664	 0.550222	 1
1462090897.745	 9	 1.447864	 1.643601	 0.614833	 1.978224	 0.000350	 -0.311264	 0.129607	 0.825425	 -0.085020	 0.542814	 1
1462090897.755	 9	 1.377805	 1.640268	 0.713462	 1.994684	 0.001012	 -0.326847	 0.136942	 0.828795	 -0.087850	 0.535378	 1
1462090897.765	 9	 1.253919	 1.565589	 0.778858	 2.010611	 0.002583	 -0.341764	 0.144261	 0.831910	 -0.090044	 0.528211	 1
1462090897.775	 9	 1.055964	 1.432344	 0.804920	 2.025330	 0.004984	 -0.355207	 0.151159	 0.834668	 -0.091485	 0.521643	 1
1462090897.785	 9	 0.821653	 1.267436	 0.850187	 2.038518	 0.008561	 -0.366834	 0.157549	 0.837017	 -0.091986	 0.515868	 1
1462090897.795	 9	 0.434077	 0.994221	 0.858480	 2.049343	 0.013726	 -0.375696	 0.163080	 0.838825	 -0.091228	 0.511326	 1
1462090897.806	 9	 -0.412952	 0.482117	 0.739593	 2.055571	 0.021471	 -0.377608	 0.166126	 0.839853	 -0.087946	 0.509229	 1
1462090897.815	 9	 -1.036042	 -0.037271	 0.586715	 2.056346	 0.031264	 -0.372451	 0.166468	 0.839953	 -0.082443	 0.509873	 1
1462090897.825	 9	 -1.249981	 -0.420001	 0.377192	 2.052679	 0.040727	 -0.363736	 0.165056	 0.839219	 -0.076531	 0.512456	 1
1462090897.836	 9	 -1.316685	 -0.634676	 0.227635	 2.046308	 0.049019	 -0.353322	 0.162559	 0.837972	 -0.070881	 0.516095	 1
1462090897.846	 9	 -1.281009	 -0.722353	 0.178549	 2.038666	 0.056578	 -0.342613	 0.159744	 0.836429	 -0.065540	 0.520166	 1
1462090897.856	 9	 -1.148834	 -0.710364	 0.125287	 2.030871	 0.063139	 -0.332611	 0.157004	 0.834814	 -0.060787	 0.524156	 1
1462090897.866	 9	 -0.989515	 -0.596381	 0.067410	 2.023986	 0.068412	 -0.323725	 0.154458	 0.833396	 -0.056773	 0.527609	 1
1462090897.876	 9	 -0.835048	 -0.382382	 0.012636	 2.019023	 0.072443	 -0.315965	 0.152136	 0.832448	 -0.053410	 0.530124	 1
1462090897.885	 9	 -0.727194	 -0.094866	 -0.043178	 2.016795	 0.075429	 -0.309063	 0.149984	 0.832209	 -0.050495	 0.531398	 1
1462090897.896	 9	 -0.684261	 0.237451	 -0.107603	 2.017832	 0.077583	 -0.302403	 0.147798	 0.832858	 -0.047745	 0.531247	 1
1462090897.906	 9	 -0.709750	 0.527564	 -0.152641	 2.021884	 0.079327	 -0.295485	 0.145463	 0.834342	 -0.044880	 0.529810	 1
1462090897.915	 9	 -0.846616	 0.760348	 -0.228149	 2.028294	 0.080996	 -0.287309	 0.142619	 0.836533	 -0.041556	 0.527394	 1
1462090897.926	 9	 -0.998694	 0.910434	 -0.273388	 2.036276	 0.082917	 -0.277453	 0.139144	 0.839222	 -0.037592	 0.524340	 1
1462090897.936	 9	 -1.036767	 0.976550	 -0.264981	 2.045009	 0.085204	 -0.266951	 0.135470	 0.842104	 -0.033280	 0.520962	 1
1462090897.946	 9	 -0.985448	 0.963919	 -0.226112	 2.053907	 0.087721	 -0.256917	 0.132018	 0.844953	 -0.029010	 0.517478	 1
1462090897.956	 9	 -0.863197	 0.697512	 -0.099900	 2.060984	 0.090683	 -0.248301	 0.129219	 0.847190	 -0.025063	 0.514726	 1
1462090897.966	 9	 -0.639823	 0.187436	 0.053273	 2.063655	 0.094164	 -0.242187	 0.127537	 0.848092	 -0.021834	 0.513808	 1
1462090897.976	 9	 -0.426497	 -0.325526	 0.097799	 2.061246	 0.097226	 -0.238446	 0.126699	 0.847553	 -0.019718	 0.514988	 1
1462090897.986	 9	 -0.378093	 -0.649417	 0.041075	 2.055106	 0.099514	 -0.235370	 0.125918	 0.846045	 -0.018336	 0.517703	 1
1462090897.996	 9	 -0.478684	 -0.675986	 0.003336	 2.047810	 0.101633	 -0.231406	 0.124718	 0.844290	 -0.016862	 0.520899	 1
1462090898.006	 9	 -0.583328	 -0.505136	 0.053796	 2.041780	 0.104525	 -0.226600	 0.123384	 0.842864	 -0.014752	 0.523583	 1
1462090898.016	 9	 -0.655815	 -0.296159	 0.094740	 2.037718	 0.108209	 -0.221250	 0.122050	 0.841937	 -0.012035	 0.525454	 1
1462090898.026	 9	 -0.642990	 -0.064326	 0.094625	 2.036272	 0.108928	 -0.215866	 0.119961	 0.841845	 -0.010403	 0.526116	 1
1462090898.036	 9	 -0.571510	 0.130337	 0.126721	 2.036566	 0.112643	 -0.211067	 0.118901	 0.842018	 -0.007547	 0.526128	 1
1462090898.046	 9	 -0.490473	 0.302744	 0.173448	 2.038783	 0.116362	 -0.207237	 0.118254	 0.842636	 -0.004831	 0.525316	 1
1462090898.056	 9	 -0.444998	 0.410302	 0.210288	 2.042261	 0.120220	 -0.204069	 0.117916	 0.843536	 -0.002156	 0.523964	 1
1462090898.066	 9	 -0.435934	 0.514631	 0.226002	 2.047676	 0.113933	 -0.201308	 0.115147	 0.845433	 -0.003793	 0.521507	 1
1462090898.076	 9	 -0.477375	 0.579400	 0.193927	 2.052966	 0.117912	 -0.198109	 0.114816	 0.846793	 -0.000961	 0.519382	 1
1462090898.096	 9	 -0.533400	 0.432195	 -0.033962	 2.062440	 0.123886	 -0.189767	 0.112786	 0.849416	 0.004288	 0.515512	 1
1462090898.106	 9	 -0.553446	 0.208406	 -0.247957	 2.064358	 0.124810	 -0.183943	 0.110540	 0.850189	 0.006290	 0.514704	 1
1462090898.116	 9	 -0.497247	 0.050639	 -0.420436	 2.064406	 0.123885	 -0.177572	 0.107597	 0.850595	 0.007536	 0.514640	 1
1462090898.126	 9	 -0.454191	 0.035537	 -0.578684	 2.063812	 0.121363	 -0.170915	 0.104130	 0.850916	 0.008139	 0.514813	 1
1462090898.086	 9	 -0.492712	 0.566070	 0.109742	 2.058300	 0.121361	 -0.194350	 0.114098	 0.848216	 0.001790	 0.517212	 1
1462090898.136	 9	 -0.449922	 0.081924	 -0.633709	 2.063802	 0.117856	 -0.163971	 0.100288	 0.851433	 0.008423	 0.514716	 1
1462090898.146	 9	 -0.554602	 0.010348	 -0.572716	 2.063261	 0.115156	 -0.156517	 0.096432	 0.851783	 0.009160	 0.514861	 1
1462090898.156	 9	 -0.723659	 -0.123885	 -0.524533	 2.061406	 0.113632	 -0.147959	 0.092410	 0.851776	 0.010624	 0.515582	 1
1462090898.166	 9	 -0.918530	 -0.295316	 -0.482867	 2.057736	 0.113339	 -0.137882	 0.088066	 0.851296	 0.012934	 0.517080	 1
1462090898.176	 9	 -1.092685	 -0.430157	 -0.373898	 2.052449	 0.114647	 -0.126617	 0.083646	 0.850356	 0.016185	 0.519265	 1
1462090898.186	 9	 -1.236332	 -0.471153	 -0.218493	 2.046432	 0.117892	 -0.114689	 0.079469	 0.849145	 0.020429	 0.521747	 1
1462090898.196	 9	 -1.353195	 -0.479347	 -0.075805	 2.040164	 0.122948	 -0.102287	 0.075588	 0.847786	 0.025583	 0.524301	 1
1462090898.206	 9	 -1.434811	 -0.462281	 0.044429	 2.033896	 0.129459	 -0.089604	 0.071999	 0.846350	 0.031452	 0.526800	 1
1462090898.216	 9	 -1.484630	 -0.456249	 0.122720	 2.027634	 0.136963	 -0.076768	 0.068644	 0.844854	 0.037805	 0.529226	 1
1462090898.236	 10	 -1.439173	 -0.714291	 0.051714	 2.012343	 0.151612	 -0.050691	 0.061860	 0.841066	 0.050436	 0.535012	 1
1462090898.246	 10	 -1.279863	 -0.996470	 -0.074861	 2.001164	 0.156819	 -0.038395	 0.058385	 0.838233	 0.055593	 0.539321	 1
1462090898.256	 10	 -1.102972	 -1.182877	 -0.187910	 1.987919	 0.160046	 -0.027136	 0.054928	 0.834841	 0.059621	 0.544489	 1
1462090898.266	 10	 -0.932482	 -1.199660	 -0.233247	 1.974254	 0.161854	 -0.017162	 0.051685	 0.831302	 0.062740	 0.549845	 1
1462090898.276	 10	 -0.772864	 -1.099897	 -0.198538	 1.961566	 0.163037	 -0.008743	 0.048924	 0.827968	 0.065237	 0.554815	 1
1462090898.296	 10	 -0.476876	 -0.735558	 0.001573	 1.942284	 0.165988	 0.002874	 0.045602	 0.822756	 0.069244	 0.562316	 1
1462090898.306	 11	 -0.339111	 -0.570396	 0.098895	 1.935619	 0.168007	 0.006133	 0.045066	 0.820883	 0.070840	 0.564891	 1
1462090898.316	 11	 -0.215269	 -0.413717	 0.194127	 1.930815	 0.170519	 0.007823	 0.045256	 0.819477	 0.072240	 0.566737	 1
1462090898.326	 11	 -0.128308	 -0.301250	 0.191219	 1.927433	 0.172872	 0.008528	 0.045758	 0.818454	 0.073326	 0.568034	 1
1462090898.336	 11	 -0.062913	 -0.226033	 0.176429	 1.924974	 0.174823	 0.008643	 0.046357	 0.817690	 0.074099	 0.568984	 1
1462090898.346	 11	 -0.010364	 -0.163503	 0.166962	 1.923259	 0.176489	 0.008253	 0.047055	 0.817135	 0.074629	 0.569655	 1
1462090898.356	 11	 0.026068	 -0.123270	 0.156361	 1.922065	 0.177907	 0.007523	 0.047803	 0.816728	 0.074972	 0.570132	 1
1462090898.366	 11	 0.034710	 -0.103070	 0.158605	 1.921124	 0.179267	 0.006659	 0.048579	 0.816390	 0.075258	 0.570512	 1
1462090898.376	 11	 0.027195	 -0.105237	 0.150125	 1.920224	 0.180593	 0.005839	 0.049326	 0.816066	 0.075542	 0.570874	 1
1462090898.386	 11	 0.009009	 -0.114756	 0.150194	 1.919227	 0.181950	 0.005182	 0.050020	 0.815715	 0.075883	 0.571269	 1
1462090898.396	 11	 -0.008111	 -0.129550	 0.156600	 1.918076	 0.183430	 0.004677	 0.050692	 0.815320	 0.076314	 0.571717	 1
1462090898.416	 12	 -0.045710	 -0.149926	 0.118371	 1.915146	 0.186287	 0.004351	 0.051756	 0.814367	 0.077309	 0.572845	 1
1462090898.426	 12	 -0.059913	 -0.204262	 0.099871	 1.913187	 0.187432	 0.004558	 0.052076	 0.813768	 0.077783	 0.573602	 1
1462090898.436	 12	 -0.068503	 -0.206441	 0.089268	 1.911044	 0.188533	 0.004871	 0.052348	 0.813119	 0.078265	 0.574431	 1
1462090898.446	 12	 -0.079200	 -0.194856	 0.069219	 1.908977	 0.189489	 0.005365	 0.052503	 0.812502	 0.078741	 0.575225	 1
1462090898.456	 12	 -0.089815	 -0.176796	 0.062019	 1.907038	 0.190377	 0.005988	 0.052583	 0.811927	 0.079230	 0.575962	 1
1462090898.466	 12	 -0.090819	 -0.149261	 0.045232	 1.905332	 0.191149	 0.006700	 0.052585	 0.811425	 0.079703	 0.576604	 1
1462090898.476	 12	 -0.082288	 -0.146134	 0.039858	 1.903753	 0.191805	 0.007372	 0.052564	 0.810962	 0.080122	 0.577198	 1
1462090898.486	 12	 -0.072587	 -0.119625	 0.032560	 1.902356	 0.192373	 0.007983	 0.052537	 0.810553	 0.080492	 0.577724	 1
1462090898.496	 12	 -0.068280	 -0.102697	 0.022022	 1.901178	 0.192823	 0.008579	 0.052473	 0.810211	 0.080815	 0.578164	 1
1462090898.506	 12	 -0.049976	 -0.067658	 0.021123	 1.900352	 0.193197	 0.009027	 0.052433	 0.809970	 0.081074	 0.578469	 1
1462090898.516	 12	 -0.037040	 -0.046369	 0.028669	 1.899786	 0.193575	 0.009335	 0.052441	 0.809800	 0.081301	 0.578674	 1
1462090898.526	 12	 -0.027367	 -0.036731	 0.032823	 1.905196	 0.186860	 0.008402	 0.050661	 0.811590	 0.078451	 0.576716	 1
1462090898.536	 12	 -0.022015	 -0.031444	 0.030694	 1.904865	 0.187236	 0.008518	 0.050736	 0.811484	 0.078629	 0.576834	 1
1462090898.546	 12	 -0.016690	 -0.029372	 0.025338	 1.904557	 0.187549	 0.008599	 0.050805	 0.811385	 0.078771	 0.576947	 1
1462090898.556	 12	 -0.015627	 -0.030411	 0.025223	 1.907409	 0.181215	 0.008080	 0.049078	 0.812424	 0.076123	 0.575989	 1
1462090898.566	 12	 -0.014532	 -0.024011	 0.024130	 1.910071	 0.176384	 0.007607	 0.047778	 0.813349	 0.074089	 0.575057	 1
1462090898.576	 12	 -0.014622	 -0.032598	 0.011226	 1.911191	 0.174242	 0.007454	 0.047184	 0.813742	 0.073201	 0.574665	 1
1462090898.586	 12	 -0.008124	 -0.020836	 0.020839	 1.912117	 0.172406	 0.007278	 0.046694	 0.814067	 0.072425	 0.574343	 1
1462090898.596	 12	 -0.010218	 -0.013368	 0.021963	 1.912901	 0.170670	 0.007124	 0.046229	 0.814347	 0.071692	 0.574075	 1
1462090898.606	 12	 -0.011286	 -0.010196	 0.017709	 1.913703	 0.168911	 0.007011	 0.045741	 0.814634	 0.070962	 0.573798	 1
1462090898.616	 12	 -0.012391	 -0.010259	 0.008104	 1.914070	 0.167523	 0.007011	 0.045330	 0.814785	 0.070405	 0.573684	 1
1462090898.626	 12	 -0.016660	 -0.011298	 0.009180	 1.914406	 0.166504	 0.007060	 0.045006	 0.814917	 0.070012	 0.573571	 1
1462090898.636	 12	 -0.019880	 -0.014481	 0.008096	 1.914829	 0.165635	 0.007115	 0.044719	 0.815068	 0.069683	 0.573419	 1
1462090898.646	 12	 -0.024157	 -0.015534	 0.007044	 1.915111	 0.164955	 0.007238	 0.044464	 0.815173	 0.069448	 0.573317	 1
1462090898.656	 12	 -0.025227	 -0.015530	 0.005974	 1.915577	 0.164325	 0.007351	 0.044221	 0.815330	 0.069234	 0.573139	 1
1462090898.676	 12	 -0.023029	 -0.009076	 0.013452	 1.916964	 0.163544	 0.007490	 0.043892	 0.815756	 0.068986	 0.572588	 1
1462090898.686	 12	 -0.020854	 -0.002674	 0.015612	 1.917646	 0.163205	 0.007512	 0.043763	 0.815963	 0.068869	 0.572317	 1
1462090898.666	 12	 -0.026288	 -0.015508	 0.007037	 1.916201	 0.163858	 0.007446	 0.044027	 0.815526	 0.069085	 0.572893	 1
1462090898.696	 12	 -0.019819	 -0.002732	 0.007068	 1.918060	 0.162891	 0.007598	 0.043623	 0.816093	 0.068774	 0.572153	 1
1462090898.716	 13	 -0.023040	 -0.006973	 0.007041	 1.918303	 0.162281	 0.007896	 0.043319	 0.816188	 0.068616	 0.572059	 1
1462090898.726	 13	 -0.020950	 -0.011277	 0.000582	 1.918383	 0.161975	 0.008059	 0.043162	 0.816225	 0.068540	 0.572029	 1
1462090898.736	 13	 -0.020930	 -0.008074	 0.001672	 1.918553	 0.161801	 0.008206	 0.043047	 0.816282	 0.068515	 0.571959	 1
1462090898.746	 13	 -0.016665	 -0.008089	 0.000562	 1.918781	 0.161534	 0.008319	 0.042916	 0.816358	 0.068443	 0.571868	 1
1462090898.756	 13	 -0.012386	 -0.007027	 0.001595	 1.918916	 0.161312	 0.008406	 0.042813	 0.816405	 0.068380	 0.571816	 1
1462090898.766	 13	 -0.008106	 -0.003853	 0.000516	 1.919104	 0.161115	 0.008450	 0.042732	 0.816467	 0.068316	 0.571742	 1
1462090898.776	 13	 -0.007013	 0.000408	 0.001609	 1.919186	 0.161010	 0.008497	 0.042680	 0.816494	 0.068288	 0.571710	 1
1462090898.786	 13	 -0.003841	 -0.004929	 0.000464	 1.919139	 0.160872	 0.008535	 0.042626	 0.816486	 0.068242	 0.571731	 1
1462090898.806	 14	 -0.000624	 -0.001745	 0.000460	 1.919240	 0.160642	 0.008556	 0.042548	 0.816523	 0.068156	 0.571695	 1
1462090898.816	 14	 0.004767	 0.002559	 0.008977	 1.919446	 0.160605	 0.008467	 0.042567	 0.816581	 0.068120	 0.571615	 1
1462090898.826	 14	 0.008988	 -0.003865	 0.004614	 1.919561	 0.160465	 0.008352	 0.042570	 0.816616	 0.068033	 0.571575	 1
1462090898.836	 14	 0.012174	 -0.002848	 -0.000737	 1.919657	 0.160278	 0.008219	 0.042568	 0.816646	 0.067920	 0.571545	 1
1462090898.846	 14	 0.010038	 -0.004954	 0.001392	 1.919587	 0.160147	 0.008123	 0.042572	 0.816628	 0.067838	 0.571580	 1
1462090898.856	 14	 0.013230	 -0.007090	 0.001341	 1.919605	 0.159967	 0.007994	 0.042572	 0.816636	 0.067728	 0.571582	 1
1462090898.866	 14	 0.012160	 -0.006039	 -0.000772	 1.919555	 0.159860	 0.007881	 0.042590	 0.816623	 0.067651	 0.571608	 1
1462090898.876	 14	 0.008963	 -0.006021	 0.000319	 1.919556	 0.159691	 0.007793	 0.042577	 0.816627	 0.067557	 0.571615	 1
1462090898.886	 14	 0.007901	 -0.004954	 0.000335	 1.919543	 0.159550	 0.007708	 0.042572	 0.816626	 0.067475	 0.571627	 1
1462090898.896	 14	 0.006841	 -0.002829	 -0.000705	 1.919635	 0.159352	 0.007632	 0.042543	 0.816657	 0.067374	 0.571597	 1
1462090898.906	 14	 0.004698	 -0.004948	 -0.000710	 1.919714	 0.159145	 0.007573	 0.042505	 0.816684	 0.067275	 0.571572	 1
1462090898.916	 14	 0.003620	 -0.009181	 0.001386	 1.919764	 0.158918	 0.007519	 0.042461	 0.816705	 0.067167	 0.571558	 1
1462090898.926	 14	 0.002569	 -0.005983	 0.001420	 1.919857	 0.158706	 0.007459	 0.042422	 0.816737	 0.067066	 0.571527	 1
1462090898.936	 14	 0.000438	 -0.003863	 -0.000678	 1.919924	 0.158505	 0.007433	 0.042373	 0.816762	 0.066978	 0.571506	 1
1462090898.946	 14	 -0.002763	 -0.003852	 -0.000654	 1.919945	 0.158341	 0.007446	 0.042320	 0.816773	 0.066915	 0.571501	 1
1462090898.956	 14	 -0.004884	 -0.004877	 0.003616	 1.919957	 0.158299	 0.007464	 0.042300	 0.816778	 0.066903	 0.571497	 1
1462090898.966	 14	 -0.008114	 -0.004920	 -0.003822	 1.919965	 0.158103	 0.007528	 0.042218	 0.816788	 0.066842	 0.571496	 1
1462090898.976	 14	 -0.009581	 -0.005854	 -0.002523	 1.919998	 0.157954	 0.007606	 0.042142	 0.816804	 0.066804	 0.571483	 1
1462090898.986	 14	 -0.009586	 -0.007973	 -0.001479	 1.919937	 0.157810	 0.007697	 0.042065	 0.816793	 0.066770	 0.571508	 1
1462090898.996	 14	 -0.011709	 -0.004783	 -0.002499	 1.919909	 0.157704	 0.007804	 0.041993	 0.816790	 0.066757	 0.571519	 1
1462090899.006	 14	 -0.009561	 -0.003709	 -0.000378	 1.919908	 0.157590	 0.007892	 0.041924	 0.816795	 0.066735	 0.571519	 1
1462090899.016	 14	 -0.012751	 -0.001572	 -0.000333	 1.919921	 0.157488	 0.007999	 0.041851	 0.816805	 0.066724	 0.571513	 1
1462090899.026	 14	 -0.011680	 -0.002622	 0.001777	 1.919948	 0.157380	 0.008094	 0.041780	 0.816817	 0.066708	 0.571501	 1
1462090899.036	 14	 -0.010597	 0.001623	 0.000740	 1.920028	 0.157377	 0.008177	 0.041742	 0.816842	 0.066732	 0.571466	 1
1462090899.046	 14	 -0.008462	 0.001617	 0.000721	 1.920090	 0.157388	 0.008257	 0.041711	 0.816861	 0.066761	 0.571437	 1
1462090899.056	 14	 -0.004208	 -0.000531	 -0.000403	 1.920089	 0.157353	 0.008306	 0.041681	 0.816863	 0.066761	 0.571437	 1
1462090899.066	 14	 -0.006333	 -0.000508	 0.001747	 1.920106	 0.157331	 0.008356	 0.041654	 0.816870	 0.066766	 0.571429	 1
1462090899.076	 14	 -0.005275	 -0.000527	 -0.000395	 1.920113	 0.157297	 0.008400	 0.041626	 0.816874	 0.066765	 0.571426	 1
1462090899.086	 14	 -0.004194	 0.000549	 0.001736	 1.920107	 0.157289	 0.008447	 0.041604	 0.816873	 0.066775	 0.571427	 1
1462090899.096	 14	 -0.003128	 -0.000510	 0.002783	 1.920109	 0.157298	 0.008473	 0.041596	 0.816874	 0.066786	 0.571425	 1
1462090899.106	 14	 0.000064	 -0.002646	 0.002734	 1.920147	 0.157279	 0.008463	 0.041594	 0.816885	 0.066776	 0.571410	 1
1462090899.116	 14	 0.001101	 -0.009031	 0.002665	 1.920103	 0.157255	 0.008441	 0.041598	 0.816873	 0.066759	 0.571429	 1
1462090899.126	 14	 0.002162	 -0.012209	 0.004757	 1.920041	 0.157262	 0.008398	 0.041619	 0.816854	 0.066749	 0.571456	 1
1462090899.136	 14	 0.004300	 -0.012207	 0.005803	 1.919962	 0.157230	 0.008335	 0.041638	 0.816831	 0.066716	 0.571491	 1
1462090899.146	 14	 0.006460	 -0.006895	 0.005833	 1.919947	 0.157236	 0.008248	 0.041676	 0.816825	 0.066693	 0.571500	 1
1462090899.156	 14	 0.007538	 -0.004770	 0.005843	 1.919953	 0.157254	 0.008150	 0.041721	 0.816824	 0.066673	 0.571500	 1
1462090899.166	 14	 0.008620	 -0.001582	 0.005862	 1.919937	 0.157233	 0.008056	 0.041754	 0.816818	 0.066637	 0.571510	 1
1462090899.176	 14	 0.006514	 0.001639	 0.009108	 1.919987	 0.157277	 0.007953	 0.041807	 0.816829	 0.066626	 0.571492	 1
1462090899.186	 14	 0.006584	 0.010204	 0.016649	 1.920184	 0.157485	 0.007812	 0.041917	 0.816876	 0.066675	 0.571412	 1
1462090899.196	 14	 0.007634	 0.009115	 0.013431	 1.920365	 0.157522	 0.007686	 0.041974	 0.816924	 0.066658	 0.571341	 1
1462090899.206	 14	 0.002243	 0.003757	 0.005965	 1.920366	 0.157463	 0.007628	 0.041980	 0.816925	 0.066617	 0.571344	 1
1462090899.216	 14	 -0.000974	 -0.000482	 0.007019	 1.920280	 0.157504	 0.007627	 0.041995	 0.816899	 0.066632	 0.571378	 1
1462090899.226	 14	 -0.002071	 -0.006861	 0.006968	 1.920222	 0.157512	 0.007623	 0.042001	 0.816882	 0.066633	 0.571402	 1
1462090899.236	 14	 -0.000992	 -0.002623	 0.004865	 1.920283	 0.157476	 0.007599	 0.041998	 0.816900	 0.066613	 0.571379	 1
1462090899.246	 14	 -0.002046	 0.002676	 0.001725	 1.920331	 0.157460	 0.007604	 0.041991	 0.816914	 0.066609	 0.571359	 1
1462090899.256	 14	 -0.003129	 -0.001569	 0.002760	 1.920291	 0.157457	 0.007623	 0.041983	 0.816903	 0.066612	 0.571375	 1
1462090899.266	 14	 -0.005269	 -0.003682	 0.003823	 1.920261	 0.157432	 0.007648	 0.041967	 0.816896	 0.066608	 0.571387	 1
1462090899.276	 14	 -0.003119	 -0.000498	 0.003833	 1.920203	 0.157418	 0.007683	 0.041950	 0.816880	 0.066611	 0.571410	 1
1462090899.286	 14	 -0.003128	 -0.001569	 0.002757	 1.920201	 0.157433	 0.007705	 0.041946	 0.816880	 0.066624	 0.571410	 1
1462090899.296	 14	 0.000057	 -0.005825	 0.003755	 1.920207	 0.157441	 0.007692	 0.041953	 0.816881	 0.066623	 0.571407	 1
1462090899.306	 14	 0.001134	 -0.004755	 0.004821	 1.920247	 0.157483	 0.007650	 0.041981	 0.816890	 0.066629	 0.571392	 1
1462090899.316	 14	 0.002222	 -0.000503	 0.004849	 1.920262	 0.157431	 0.007604	 0.041985	 0.816895	 0.066595	 0.571388	 1
1462090899.326	 14	 0.002223	 0.000552	 0.003792	 1.920239	 0.157400	 0.007579	 0.041987	 0.816889	 0.066575	 0.571399	 1
1462090899.336	 14	 -0.000983	 0.000553	 0.002753	 1.920218	 0.157375	 0.007568	 0.041984	 0.816884	 0.066561	 0.571409	 1
1462090899.346	 14	 0.000084	 -0.000506	 0.003799	 1.920217	 0.157406	 0.007548	 0.042001	 0.816882	 0.066568	 0.571409	 1
1462090899.356	 14	 0.001153	 0.001604	 0.001677	 1.920291	 0.157389	 0.007531	 0.042001	 0.816903	 0.066558	 0.571380	 1
1462090899.366	 14	 0.001168	 0.004795	 0.001706	 1.920318	 0.157370	 0.007524	 0.041998	 0.816912	 0.066549	 0.571369	 1
1462090899.376	 14	 0.000081	 0.001597	 0.000620	 1.920264	 0.157359	 0.007533	 0.041992	 0.816897	 0.066546	 0.571391	 1
1462090899.386	 14	 0.001144	 0.001586	 -0.000456	 1.920253	 0.157342	 0.007527	 0.041991	 0.816894	 0.066537	 0.571397	 1
1462090899.396	 14	 0.000066	 -0.001593	 0.000589	 1.920304	 0.157307	 0.007515	 0.041984	 0.816909	 0.066520	 0.571377	 1
1462090899.406	 14	 0.000069	 -0.003698	 0.003765	 1.920255	 0.157284	 0.007505	 0.041983	 0.816896	 0.066507	 0.571398	 1
1462090899.416	 14	 0.000085	 -0.000506	 0.003794	 1.920279	 0.157284	 0.007484	 0.041991	 0.816902	 0.066502	 0.571388	 1
1462090899.426	 14	 -0.002058	 -0.000516	 0.001681	 1.920219	 0.157286	 0.007499	 0.041987	 0.816885	 0.066505	 0.571413	 1
1462090899.436	 14	 0.001144	 0.000529	 0.000597	 1.920184	 0.157298	 0.007501	 0.041991	 0.816875	 0.066510	 0.571426	 1
1462090899.446	 14	 0.000092	 0.003724	 0.000636	 1.920220	 0.157325	 0.007496	 0.042000	 0.816884	 0.066520	 0.571411	 1
1462090899.456	 14	 0.000106	 0.005857	 0.001721	 1.920216	 0.157320	 0.007502	 0.041996	 0.816883	 0.066520	 0.571413	 1
1462090899.466	 14	 0.002220	 0.001595	 0.001662	 1.920226	 0.157270	 0.007485	 0.041988	 0.816888	 0.066495	 0.571410	 1
1462090899.476	 14	 0.002204	 -0.003706	 0.003743	 1.920252	 0.157240	 0.007443	 0.041996	 0.816895	 0.066471	 0.571402	 1
1462090899.486	 14	 0.000072	 -0.001589	 0.001648	 1.920203	 0.157196	 0.007426	 0.041992	 0.816882	 0.066447	 0.571424	 1
1462090899.496	 14	 0.001149	 0.000534	 0.001657	 1.920161	 0.157172	 0.007423	 0.041987	 0.816871	 0.066436	 0.571441	 1
1462090899.506	 14	 0.001158	 0.001605	 0.002734	 1.920186	 0.157222	 0.007398	 0.042011	 0.816876	 0.066449	 0.571431	 1
1462090899.516	 14	 0.000096	 0.002673	 0.002753	 1.920254	 0.157242	 0.007382	 0.042021	 0.816894	 0.066455	 0.571403	 1
1462090899.526	 14	 -0.002048	 0.000551	 0.002752	 1.920235	 0.157269	 0.007394	 0.042025	 0.816888	 0.066469	 0.571410	 1
1462090899.536	 14	 0.001149	 0.000534	 0.001658	 1.920249	 0.157260	 0.007377	 0.042029	 0.816892	 0.066461	 0.571405	 1
1462090899.546	 14	 0.002191	 -0.004786	 0.001598	 1.920273	 0.157229	 0.007350	 0.042030	 0.816899	 0.066441	 0.571397	 1
1462090899.556	 14	 -0.002053	 -0.001567	 0.003795	 1.920266	 0.157212	 0.007344	 0.042028	 0.816898	 0.066432	 0.571400	 1
1462090899.566	 14	 -0.002053	 -0.001568	 0.003795	 1.920191	 0.157260	 0.007356	 0.042039	 0.816875	 0.066453	 0.571430	 1
1462090899.576	 14	 -0.000990	 -0.000524	 0.001665	 1.920165	 0.157316	 0.007368	 0.042051	 0.816866	 0.066479	 0.571438	 1
1462090899.586	 14	 -0.000989	 0.000532	 0.000609	 1.920168	 0.157312	 0.007369	 0.042049	 0.816867	 0.066478	 0.571437	 1
1462090899.596	 14	 -0.000975	 0.002667	 0.001694	 1.920196	 0.157326	 0.007382	 0.042047	 0.816875	 0.066488	 0.571425	 1
1462090899.606	 14	 0.001165	 0.004780	 0.000628	 1.920233	 0.157287	 0.007378	 0.042036	 0.816887	 0.066471	 0.571411	 1
1462090899.616	 14	 0.000093	 0.002664	 0.001682	 1.920289	 0.157258	 0.007365	 0.042032	 0.816904	 0.066457	 0.571389	 1
1462090899.626	 14	 0.000072	 -0.003701	 0.003753	 1.920293	 0.157229	 0.007343	 0.042032	 0.816905	 0.066439	 0.571389	 1
1462090899.636	 14	 -0.003129	 -0.002638	 0.002725	 1.920199	 0.157254	 0.007365	 0.042034	 0.816878	 0.066453	 0.571426	 1
1462090899.646	 14	 -0.003129	 -0.001583	 0.001669	 1.920157	 0.157285	 0.007386	 0.042035	 0.816865	 0.066471	 0.571442	 1
1462090899.656	 14	 -0.004196	 -0.001579	 0.001678	 1.920138	 0.157316	 0.007415	 0.042033	 0.816860	 0.066492	 0.571448	 1
1462090899.666	 14	 -0.003119	 -0.000511	 0.002744	 1.920153	 0.157335	 0.007433	 0.042030	 0.816864	 0.066505	 0.571441	 1
1462090899.676	 14	 -0.000999	 -0.002651	 0.001640	 1.920181	 0.157345	 0.007430	 0.042034	 0.816871	 0.066509	 0.571429	 1
1462090899.686	 14	 0.001144	 -0.001586	 0.002697	 1.920151	 0.157360	 0.007423	 0.042042	 0.816862	 0.066512	 0.571441	 1
1462090899.696	 14	 0.000078	 -0.000526	 0.001650	 1.920179	 0.157379	 0.007405	 0.042053	 0.816869	 0.066515	 0.571430	 1
1462090899.706	 14	 0.000093	 0.002666	 0.001680	 1.920220	 0.157388	 0.007390	 0.042061	 0.816880	 0.066516	 0.571413	 1
1462090899.716	 14	 0.000093	 0.002665	 0.001680	 1.920235	 0.157403	 0.007390	 0.042065	 0.816884	 0.066522	 0.571407	 1
1462090899.726	 14	 0.001154	 0.000543	 0.002717	 1.920255	 0.157442	 0.007378	 0.042080	 0.816888	 0.066535	 0.571398	 1
1462090899.736	 14	 0.001139	 -0.002650	 0.002687	 1.920189	 0.157438	 0.007376	 0.042082	 0.816870	 0.066532	 0.571425	 1
1462090899.746	 14	 -0.002081	 -0.004784	 0.000563	 1.920136	 0.157440	 0.007389	 0.042079	 0.816855	 0.066535	 0.571446	 1
1462090899.756	 14	 -0.001010	 -0.005835	 0.002675	 1.920071	 0.157466	 0.007394	 0.042086	 0.816835	 0.066546	 0.571472	 1
1462090899.766	 14	 -0.003139	 -0.004765	 0.002704	 1.920024	 0.157491	 0.007412	 0.042088	 0.816821	 0.066560	 0.571490	 1
1462090899.776	 14	 -0.003123	 0.000538	 0.000621	 1.920007	 0.157505	 0.007433	 0.042084	 0.816817	 0.066572	 0.571496	 1
1462090899.786	 14	 -0.000973	 0.003723	 0.000631	 1.920059	 0.157496	 0.007435	 0.042079	 0.816832	 0.066569	 0.571475	 1
1462090899.796	 14	 0.000083	 0.000536	 0.001657	 1.920061	 0.157486	 0.007428	 0.042079	 0.816833	 0.066563	 0.571475	 1
1462090899.806	 14	 -0.002046	 0.001605	 0.001685	 1.920056	 0.157488	 0.007443	 0.042073	 0.816831	 0.066568	 0.571476	 1
1462090899.816	 14	 -0.000994	 -0.001590	 0.001645	 1.920007	 0.157481	 0.007456	 0.042068	 0.816818	 0.066568	 0.571496	 1
1462090899.826	 14	 -0.000984	 -0.000517	 0.002721	 1.920048	 0.157501	 0.007454	 0.042073	 0.816829	 0.066576	 0.571479	 1
1462090899.836	 14	 0.000089	 0.001601	 0.001666	 1.920134	 0.157527	 0.007439	 0.042084	 0.816852	 0.066585	 0.571444	 1
1462090899.846	 14	 0.001180	 0.004806	 0.003817	 1.920232	 0.157542	 0.007412	 0.042096	 0.816879	 0.066585	 0.571404	 1
1462090899.856	 14	 0.002224	 0.002653	 0.000591	 1.920294	 0.157547	 0.007387	 0.042105	 0.816896	 0.066581	 0.571379	 1
1462090899.866	 14	 0.000090	 0.002659	 0.000609	 1.920304	 0.157551	 0.007377	 0.042110	 0.816899	 0.066581	 0.571376	 1
1462090899.876	 14	 -0.000991	 0.000526	 -0.000467	 1.920288	 0.157532	 0.007388	 0.042101	 0.816895	 0.066575	 0.571382	 1
1462090899.886	 14	 -0.002065	 -0.001592	 0.000587	 1.920221	 0.157514	 0.007410	 0.042089	 0.816877	 0.066573	 0.571409	 1
1462090899.896	 14	 -0.001007	 -0.003721	 0.000558	 1.920224	 0.157495	 0.007418	 0.042080	 0.816878	 0.066567	 0.571408	 1
1462090899.906	 14	 0.001118	 -0.004798	 -0.000537	 1.920215	 0.157485	 0.007406	 0.042082	 0.816876	 0.066560	 0.571413	 1
1462090899.916	 14	 0.001127	 -0.003726	 0.000539	 1.920207	 0.157494	 0.007391	 0.042091	 0.816873	 0.066559	 0.571416	 1
1462090899.926	 14	 0.002199	 -0.003720	 0.001595	 1.920211	 0.157489	 0.007359	 0.042103	 0.816874	 0.066548	 0.571415	 1
1462090899.936	 14	 0.004376	 -0.003648	 0.012235	 1.920231	 0.157578	 0.007292	 0.042155	 0.816875	 0.066566	 0.571408	 1
1462090899.946	 14	 0.001149	 -0.003684	 0.005867	 1.920226	 0.157607	 0.007246	 0.042182	 0.816872	 0.066564	 0.571411	 1
1462090899.956	 14	 -0.001203	 -0.010047	 0.003807	 1.920048	 0.157613	 0.007262	 0.042183	 0.816821	 0.066567	 0.571482	 1
1462090899.966	 14	 -0.002260	 -0.006862	 0.002781	 1.919888	 0.157695	 0.007290	 0.042201	 0.816774	 0.066605	 0.571545	 1
1462090899.976	 14	 -0.003312	 -0.003669	 0.002820	 1.919780	 0.157731	 0.007321	 0.042202	 0.816742	 0.066627	 0.571587	 1
1462090899.986	 14	 -0.003310	 -0.000502	 -0.000348	 1.919746	 0.157727	 0.007354	 0.042188	 0.816733	 0.066634	 0.571600	 1
1462090899.996	 14	 -0.002237	 0.000559	 -0.000348	 1.919743	 0.157717	 0.007381	 0.042175	 0.816734	 0.066638	 0.571600	 1
1462090900.006	 14	 -0.000094	 0.000568	 0.001764	 1.919769	 0.157697	 0.007379	 0.042169	 0.816741	 0.066629	 0.571591	 1
1462090900.016	 14	 0.000973	 0.000565	 0.001753	 1.919767	 0.157658	 0.007371	 0.042161	 0.816742	 0.066611	 0.571593	 1
1462090900.026	 14	 -0.000104	 -0.001560	 0.001742	 1.919733	 0.157636	 0.007373	 0.042155	 0.816733	 0.066602	 0.571607	 1
1462090900.036	 14	 -0.000098	 0.000558	 0.000696	 1.919669	 0.157660	 0.007385	 0.042159	 0.816714	 0.066614	 0.571632	 1
1462090900.046	 14	 -0.001161	 0.000568	 0.001771	 1.919654	 0.157672	 0.007396	 0.042159	 0.816710	 0.066621	 0.571638	 1
1462090900.056	 14	 -0.002248	 0.001619	 0.000762	 1.919685	 0.157698	 0.007405	 0.042161	 0.816718	 0.066635	 0.571624	 1
1462090900.066	 14	 -0.002259	 -0.001565	 0.001799	 1.919660	 0.157741	 0.007416	 0.042170	 0.816710	 0.066655	 0.571633	 1
1462090900.076	 14	 -0.002279	 -0.004764	 0.000704	 1.919576	 0.157762	 0.007441	 0.042168	 0.816686	 0.066669	 0.571666	 1
1462090900.086	 14	 0.000957	 0.000561	 0.002856	 1.919587	 0.157773	 0.007439	 0.042172	 0.816689	 0.066674	 0.571661	 1
1462090900.096	 14	 -0.000119	 0.000549	 0.000734	 1.919630	 0.157763	 0.007425	 0.042174	 0.816701	 0.066666	 0.571644	 1
1462090900.106	 14	 0.002030	 0.002677	 0.001801	 1.919603	 0.157779	 0.007412	 0.042184	 0.816692	 0.066669	 0.571655	 1
1462090900.116	 14	 0.000951	 -0.000504	 0.002846	 1.919573	 0.157804	 0.007399	 0.042198	 0.816683	 0.066674	 0.571667	 1
1462090900.126	 14	 -0.002240	 0.001632	 0.002893	 1.919568	 0.157790	 0.007402	 0.042193	 0.816682	 0.066670	 0.571669	 1
1462090900.136	 14	 -0.000089	 0.005874	 0.001848	 1.919656	 0.157801	 0.007397	 0.042195	 0.816706	 0.066674	 0.571634	 1
1462090900.146	 14	 -0.000074	 0.009066	 0.001878	 1.919791	 0.157815	 0.007381	 0.042201	 0.816744	 0.066678	 0.571579	 1
1462090900.156	 14	 0.000983	 0.006935	 0.001848	 1.919868	 0.157818	 0.007369	 0.042204	 0.816766	 0.066678	 0.571548	 1
1462090900.166	 14	 0.000968	 0.004800	 0.000764	 1.919907	 0.157851	 0.007366	 0.042213	 0.816776	 0.066691	 0.571531	 1
1462090900.176	 14	 -0.001197	 -0.002633	 0.001778	 1.919839	 0.157847	 0.007378	 0.042210	 0.816757	 0.066691	 0.571558	 1
1462090900.186	 14	 -0.002254	 -0.000503	 0.001807	 1.919795	 0.157837	 0.007392	 0.042203	 0.816745	 0.066691	 0.571576	 1
1462090900.196	 14	 -0.001196	 -0.001578	 0.000721	 1.919773	 0.157821	 0.007394	 0.042198	 0.816739	 0.066684	 0.571585	 1
1462090900.206	 14	 0.002015	 0.000540	 0.000713	 1.919789	 0.157811	 0.007381	 0.042200	 0.816744	 0.066677	 0.571579	 1
1462090900.216	 14	 0.002016	 0.001597	 -0.000343	 1.919846	 0.157807	 0.007355	 0.042207	 0.816760	 0.066669	 0.571557	 1
1462090900.226	 14	 0.003088	 0.002657	 -0.000343	 1.919876	 0.157788	 0.007327	 0.042213	 0.816768	 0.066654	 0.571546	 1
1462090900.236	 14	 0.001143	 0.001422	 -0.000218	 1.919900	 0.157809	 0.007314	 0.042223	 0.816774	 0.066659	 0.571536	 1
1462090900.246	 14	 0.001148	 0.003541	 -0.001264	 1.919911	 0.157789	 0.007311	 0.042218	 0.816778	 0.066650	 0.571533	 1
1462090900.256	 14	 0.002219	 0.002489	 0.000849	 1.919942	 0.157779	 0.007293	 0.042222	 0.816787	 0.066642	 0.571521	 1
1462090900.266	 14	 0.001137	 0.000357	 -0.000228	 1.919921	 0.157743	 0.007280	 0.042217	 0.816781	 0.066623	 0.571531	 1
1462090900.276	 14	 0.003267	 -0.000714	 -0.000257	 1.919882	 0.157722	 0.007266	 0.042218	 0.816771	 0.066610	 0.571547	 1
1462090900.286	 14	 0.002213	 0.000368	 0.001894	 1.919885	 0.157715	 0.007236	 0.042228	 0.816771	 0.066598	 0.571547	 1
1462090900.296	 14	 0.000066	 0.000351	 -0.001286	 1.919883	 0.157656	 0.007229	 0.042215	 0.816772	 0.066572	 0.571550	 1
1462090900.306	 14	 0.000075	 0.000366	 0.000846	 1.919871	 0.157666	 0.007229	 0.042218	 0.816769	 0.066576	 0.571554	 1
1462090900.316	 14	 -0.002065	 -0.000691	 0.000855	 1.919846	 0.157664	 0.007245	 0.042212	 0.816762	 0.066579	 0.571564	 1
1462090900.326	 14	 -0.004209	 -0.002813	 0.000854	 1.919801	 0.157689	 0.007279	 0.042206	 0.816749	 0.066598	 0.571581	 1
1462090900.336	 14	 -0.003142	 -0.002816	 0.000844	 1.919775	 0.157700	 0.007300	 0.042202	 0.816741	 0.066608	 0.571591	 1
1462090900.346	 14	 -0.000998	 -0.000696	 0.000845	 1.919722	 0.157707	 0.007312	 0.042200	 0.816726	 0.066613	 0.571612	 1
1462090900.356	 14	 0.001135	 -0.001758	 0.001883	 1.919714	 0.157722	 0.007297	 0.042211	 0.816723	 0.066615	 0.571615	 1
1462090900.366	 14	 0.000063	 -0.002818	 0.001882	 1.919715	 0.157707	 0.007273	 0.042217	 0.816724	 0.066602	 0.571616	 1
1462090900.376	 14	 0.000063	 -0.002819	 0.001881	 1.919668	 0.157708	 0.007267	 0.042221	 0.816710	 0.066600	 0.571635	 1
1462090900.386	 14	 -0.000711	 -0.004076	 0.001985	 1.919568	 0.157745	 0.007271	 0.042233	 0.816680	 0.066614	 0.571675	 1
1462090900.396	 14	 -0.001753	 0.001246	 0.002043	 1.919557	 0.157766	 0.007276	 0.042237	 0.816677	 0.066623	 0.571679	 1
1462090900.406	 14	 -0.000670	 0.005490	 0.001007	 1.919627	 0.157781	 0.007281	 0.042238	 0.816696	 0.066632	 0.571650	 1
1462090900.416	 14	 0.002521	 0.003352	 0.000960	 1.919636	 0.157789	 0.007266	 0.042246	 0.816698	 0.066632	 0.571646	 1
1462090900.426	 14	 0.001444	 0.002284	 -0.000107	 1.919655	 0.157797	 0.007253	 0.042253	 0.816703	 0.066632	 0.571639	 1
1462090900.436	 14	 0.002505	 0.000160	 0.000930	 1.919591	 0.157809	 0.007244	 0.042262	 0.816684	 0.066632	 0.571665	 1
1462090900.446	 14	 0.000381	 0.002293	 0.000969	 1.919589	 0.157822	 0.007237	 0.042269	 0.816683	 0.066636	 0.571666	 1
1462090900.456	 14	 0.001444	 0.002282	 -0.000107	 1.919606	 0.157807	 0.007227	 0.042268	 0.816688	 0.066627	 0.571660	 1
1462090900.466	 14	 0.000376	 0.001229	 0.000958	 1.919632	 0.157779	 0.007216	 0.042263	 0.816696	 0.066613	 0.571650	 1
1462090900.476	 14	 -0.000691	 0.002288	 -0.000088	 1.919633	 0.157786	 0.007219	 0.042264	 0.816697	 0.066617	 0.571649	 1
1462090900.486	 14	 -0.000691	 0.002288	 -0.000089	 1.919646	 0.157776	 0.007227	 0.042257	 0.816701	 0.066616	 0.571644	 1
1462090900.496	 14	 0.000366	 -0.000899	 0.000939	 1.919639	 0.157790	 0.007216	 0.042266	 0.816698	 0.066618	 0.571647	 1
1462090900.506	 14	 0.000381	 0.002292	 0.000968	 1.919673	 0.157810	 0.007205	 0.042275	 0.816707	 0.066624	 0.571633	 1
1462090900.516	 14	 0.001439	 0.002274	 -0.001173	 1.919728	 0.157798	 0.007189	 0.042276	 0.816723	 0.066615	 0.571611	 1
1462090900.526	 14	 0.000357	 -0.000914	 -0.001193	 1.919735	 0.157793	 0.007178	 0.042279	 0.816724	 0.066610	 0.571609	 1
1462090900.536	 14	 0.000539	 0.002096	 -0.000000	 1.919714	 0.157775	 0.007177	 0.042275	 0.816719	 0.066602	 0.571618	 1
1462090900.546	 14	 -0.001606	 -0.001081	 0.001055	 1.919696	 0.157819	 0.007187	 0.042284	 0.816713	 0.066623	 0.571624	 1
1462090900.556	 14	 0.000525	 -0.000039	 -0.001085	 1.919688	 0.157789	 0.007195	 0.042273	 0.816712	 0.066612	 0.571628	 1
1462090900.566	 14	 0.000518	 -0.003215	 0.001016	 1.919668	 0.157787	 0.007193	 0.042274	 0.816706	 0.066611	 0.571636	 1
1462090900.576	 14	 0.000525	 -0.000038	 -0.001086	 1.919712	 0.157749	 0.007180	 0.042267	 0.816719	 0.066592	 0.571619	 1
1462090900.586	 14	 0.000530	 0.001025	 -0.001076	 1.919670	 0.157747	 0.007192	 0.042263	 0.816708	 0.066594	 0.571636	 1
1462090900.596	 14	 0.000529	 0.001024	 -0.001076	 1.919646	 0.157747	 0.007197	 0.042261	 0.816701	 0.066595	 0.571645	 1
1462090900.606	 14	 -0.000538	 0.001027	 -0.001067	 1.919633	 0.157742	 0.007210	 0.042255	 0.816698	 0.066596	 0.571651	 1
1462090900.616	 14	 -0.002673	 -0.000023	 0.000008	 1.919650	 0.157754	 0.007226	 0.042252	 0.816703	 0.066606	 0.571643	 1
1462090900.626	 14	 -0.002687	 -0.002159	 -0.001078	 1.919548	 0.157734	 0.007272	 0.042230	 0.816675	 0.066609	 0.571683	 1
1462090900.636	 14	 -0.002681	 0.001016	 -0.003180	 1.919482	 0.157732	 0.007305	 0.042218	 0.816657	 0.066616	 0.571709	 1
1462090900.646	 14	 -0.001604	 0.003139	 -0.003169	 1.919426	 0.157702	 0.007353	 0.042192	 0.816643	 0.066616	 0.571731	 1
1462090900.656	 14	 -0.002687	 -0.001106	 -0.002134	 1.919381	 0.157697	 0.007384	 0.042180	 0.816631	 0.066623	 0.571749	 1
1462090900.666	 14	 -0.001630	 -0.002180	 -0.003219	 1.919349	 0.157653	 0.007413	 0.042156	 0.816624	 0.066612	 0.571762	 1
1462090900.676	 14	 0.001588	 0.002056	 -0.004274	 1.919331	 0.157577	 0.007424	 0.042131	 0.816621	 0.066584	 0.571771	 1
1462090900.686	 14	 0.001607	 0.004199	 -0.002123	 1.919373	 0.157530	 0.007426	 0.042115	 0.816634	 0.066566	 0.571755	 1
1462090900.696	 14	 0.001607	 0.004199	 -0.002123	 1.919443	 0.157497	 0.007402	 0.042113	 0.816655	 0.066547	 0.571728	 1
1462090900.706	 14	 0.001818	 0.005038	 -0.003084	 1.919518	 0.157486	 0.007386	 0.042114	 0.816677	 0.066540	 0.571698	 1
1462090900.716	 14	 0.002876	 0.003964	 -0.004169	 1.919562	 0.157458	 0.007373	 0.042110	 0.816690	 0.066526	 0.571681	 1
1462090900.726	 14	 0.001782	 -0.003464	 -0.002097	 1.919516	 0.157400	 0.007367	 0.042097	 0.816678	 0.066499	 0.571701	 1
1462090900.736	 14	 0.000716	 -0.002406	 -0.003144	 1.919426	 0.157372	 0.007384	 0.042085	 0.816654	 0.066491	 0.571738	 1
1462090900.746	 14	 0.000736	 0.002905	 -0.004160	 1.919461	 0.157357	 0.007386	 0.042079	 0.816664	 0.066486	 0.571724	 1
1462090900.756	 14	 0.001794	 0.001831	 -0.005245	 1.919528	 0.157333	 0.007383	 0.042071	 0.816684	 0.066477	 0.571698	 1
1462090900.766	 14	 0.002866	 0.002892	 -0.005244	 1.919556	 0.157287	 0.007372	 0.042061	 0.816693	 0.066455	 0.571688	 1
1462090900.776	 14	 0.002859	 -0.001340	 -0.002087	 1.919520	 0.157240	 0.007354	 0.042056	 0.816684	 0.066430	 0.571704	 1
1462090900.786	 14	 0.002828	 -0.007722	 -0.002146	 1.919463	 0.157201	 0.007334	 0.042055	 0.816668	 0.066408	 0.571729	 1
1462090900.796	 14	 0.002844	 -0.004531	 -0.002117	 1.919424	 0.157136	 0.007313	 0.042047	 0.816659	 0.066374	 0.571747	 1
1462090900.806	 14	 0.002860	 -0.000284	 -0.003143	 1.919392	 0.157066	 0.007295	 0.042035	 0.816652	 0.066340	 0.571762	 1
1462090900.816	 14	 0.000735	 0.001848	 -0.003105	 1.919328	 0.157047	 0.007300	 0.042030	 0.816634	 0.066332	 0.571789	 1
1462090900.826	 14	 0.000734	 0.000791	 -0.002049	 1.919269	 0.157040	 0.007306	 0.042027	 0.816617	 0.066330	 0.571813	 1
1462090900.836	 14	 -0.001404	 0.001845	 -0.004152	 1.919243	 0.157016	 0.007328	 0.042012	 0.816611	 0.066326	 0.571823	 1
1462090900.846	 14	 -0.000327	 0.002913	 -0.003086	 1.919260	 0.156976	 0.007344	 0.041994	 0.816618	 0.066314	 0.571817	 1
1462090900.856	 14	 0.000006	 0.001669	 -0.003022	 1.919276	 0.156929	 0.007361	 0.041973	 0.816624	 0.066300	 0.571811	 1
1462090900.866	 14	 -0.002108	 0.004873	 -0.001908	 1.919256	 0.156889	 0.007395	 0.041948	 0.816620	 0.066293	 0.571819	 1
1462090900.876	 14	 -0.003175	 0.005932	 -0.002955	 1.919243	 0.156867	 0.007438	 0.041925	 0.816618	 0.066296	 0.571823	 1
1462090900.886	 14	 -0.002114	 0.003809	 -0.001919	 1.919285	 0.156846	 0.007461	 0.041908	 0.816631	 0.066295	 0.571806	 1
1462090900.896	 14	 -0.005320	 0.003810	 -0.002956	 1.919284	 0.156840	 0.007511	 0.041886	 0.816632	 0.066307	 0.571805	 1
1462090900.906	 14	 -0.003195	 0.002732	 -0.004050	 1.919316	 0.156858	 0.007546	 0.041876	 0.816642	 0.066325	 0.571790	 1
1462090900.916	 14	 -0.004259	 0.000632	 -0.000863	 1.919359	 0.156853	 0.007581	 0.041858	 0.816655	 0.066334	 0.571772	 1
1462090900.926	 14	 -0.003197	 0.000621	 -0.001938	 1.919377	 0.156867	 0.007615	 0.041848	 0.816660	 0.066350	 0.571763	 1
1462090900.936	 14	 -0.003197	 -0.000435	 -0.000882	 1.919400	 0.156884	 0.007651	 0.041837	 0.816667	 0.066367	 0.571752	 1
1462090900.946	 14	 -0.000000	 -0.000451	 -0.001976	 1.919440	 0.156839	 0.007656	 0.041821	 0.816680	 0.066351	 0.571736	 1
1462090900.956	 14	 0.001078	 0.002729	 -0.003022	 1.919451	 0.156755	 0.007653	 0.041798	 0.816686	 0.066316	 0.571734	 1
1462090900.966	 14	 0.001064	 0.000593	 -0.004108	 1.919411	 0.156698	 0.007665	 0.041778	 0.816676	 0.066296	 0.571751	 1
1462090900.976	 14	 0.001062	 -0.001519	 -0.001996	 1.919403	 0.156672	 0.007659	 0.041773	 0.816675	 0.066283	 0.571755	 1
1462090900.986	 14	 0.000024	 0.003809	 -0.000872	 1.919388	 0.156645	 0.007672	 0.041761	 0.816671	 0.066276	 0.571762	 1
1462090900.996	 14	 0.001082	 0.002735	 -0.001957	 1.919404	 0.156628	 0.007681	 0.041752	 0.816677	 0.066271	 0.571755	 1
1462090901.006	 14	 -0.003197	 0.000620	 -0.001939	 1.919447	 0.156636	 0.007702	 0.041744	 0.816689	 0.066282	 0.571737	 1
1462090901.016	 14	 -0.003216	 -0.002578	 -0.003034	 1.919437	 0.156611	 0.007734	 0.041724	 0.816688	 0.066280	 0.571741	 1
1462090901.026	 14	 -0.001073	 -0.001514	 -0.001977	 1.919404	 0.156613	 0.007759	 0.041715	 0.816679	 0.066288	 0.571753	 1
1462090901.036	 14	 0.000327	 -0.005960	 -0.001952	 1.919407	 0.156616	 0.007761	 0.041716	 0.816680	 0.066290	 0.571752	 1
1462090901.046	 14	 0.002475	 -0.003831	 -0.000885	 1.919343	 0.156569	 0.007744	 0.041711	 0.816662	 0.066264	 0.571780	 1
1462090901.056	 14	 0.002486	 -0.000648	 -0.001922	 1.919328	 0.156542	 0.007726	 0.041711	 0.816658	 0.066248	 0.571787	 1
1462090901.066	 14	 0.002495	 0.000423	 -0.000846	 1.919317	 0.156520	 0.007708	 0.041713	 0.816656	 0.066233	 0.571792	 1
1462090901.076	 14	 0.003568	 0.002539	 -0.001902	 1.919333	 0.156484	 0.007681	 0.041713	 0.816661	 0.066211	 0.571788	 1
1462090901.086	 14	 0.003558	 0.000412	 -0.001922	 1.919372	 0.156438	 0.007648	 0.041712	 0.816673	 0.066184	 0.571774	 1
1462090901.096	 14	 0.003558	 0.000412	 -0.001922	 1.919384	 0.156393	 0.007619	 0.041711	 0.816677	 0.066158	 0.571771	 1
1462090901.106	 14	 0.005699	 -0.001691	 0.002303	 1.919404	 0.156397	 0.007559	 0.041735	 0.816681	 0.066143	 0.571765	 1
1462090901.116	 14	 0.004633	 -0.000632	 0.001256	 1.919405	 0.156384	 0.007509	 0.041752	 0.816681	 0.066123	 0.571766	 1
1462090901.126	 14	 0.003570	 -0.000621	 0.002331	 1.919377	 0.156389	 0.007472	 0.041770	 0.816672	 0.066113	 0.571779	 1
1462090901.136	 14	 0.002483	 -0.004873	 0.002301	 1.919328	 0.156387	 0.007433	 0.041786	 0.816657	 0.066101	 0.571800	 1
1462090901.146	 14	 0.000363	 -0.002732	 0.003405	 1.919290	 0.156418	 0.007414	 0.041804	 0.816645	 0.066107	 0.571816	 1
1462090901.156	 14	 -0.000713	 -0.002744	 0.001283	 1.919260	 0.156420	 0.007410	 0.041807	 0.816636	 0.066106	 0.571828	 1
1462090901.166	 14	 -0.000709	 -0.002736	 0.002348	 1.919259	 0.156422	 0.007407	 0.041810	 0.816636	 0.066106	 0.571828	 1
1462090901.176	 14	 0.000373	 -0.000604	 0.003424	 1.919236	 0.156429	 0.007402	 0.041814	 0.816629	 0.066107	 0.571838	 1
1462090901.186	 14	 0.002767	 0.001379	 0.003475	 1.919253	 0.156402	 0.007376	 0.041817	 0.816634	 0.066089	 0.571832	 1
1462090901.196	 14	 0.000607	 -0.003934	 0.003444	 1.919202	 0.156395	 0.007358	 0.041824	 0.816619	 0.066080	 0.571854	 1
1462090901.206	 14	 -0.000440	 -0.000733	 0.004549	 1.919113	 0.156393	 0.007358	 0.041826	 0.816594	 0.066077	 0.571891	 1
1462090901.216	 14	 -0.000440	 -0.000732	 0.004548	 1.919143	 0.156388	 0.007342	 0.041830	 0.816602	 0.066071	 0.571879	 1
1462090901.226	 14	 0.001710	 0.003508	 0.003503	 1.919122	 0.156407	 0.007327	 0.041843	 0.816595	 0.066074	 0.571888	 1
1462090901.236	 14	 0.002773	 0.003497	 0.002428	 1.919160	 0.156464	 0.007297	 0.041870	 0.816604	 0.066090	 0.571871	 1
1462090901.246	 14	 0.002787	 0.005632	 0.003514	 1.919204	 0.156521	 0.007263	 0.041899	 0.816614	 0.066104	 0.571853	 1
1462090901.256	 14	 0.000642	 0.003511	 0.003513	 1.919270	 0.156549	 0.007232	 0.041917	 0.816631	 0.066108	 0.571827	 1
1462090901.266	 14	 0.001700	 0.002436	 0.002428	 1.919289	 0.156584	 0.007209	 0.041935	 0.816635	 0.066116	 0.571819	 1
1462090901.276	 14	 0.002762	 0.001369	 0.002409	 1.919297	 0.156595	 0.007182	 0.041950	 0.816637	 0.066113	 0.571816	 1
1462090901.286	 14	 0.000623	 0.001367	 0.001362	 1.919250	 0.156609	 0.007174	 0.041958	 0.816623	 0.066115	 0.571835	 1
1462090901.296	 14	 0.001690	 0.001363	 0.001352	 1.919222	 0.156618	 0.007155	 0.041970	 0.816614	 0.066113	 0.571847	 1
1462090901.306	 14	 0.000629	 0.003486	 0.000316	 1.919246	 0.156651	 0.007145	 0.041982	 0.816620	 0.066124	 0.571837	 1
1462090901.316	 14	 0.000633	 0.003493	 0.001382	 1.919273	 0.156665	 0.007131	 0.041991	 0.816627	 0.066127	 0.571826	 1
1462090901.326	 14	 0.002761	 0.000311	 0.003465	 1.919299	 0.156671	 0.007096	 0.042007	 0.816633	 0.066120	 0.571817	 1
1462090901.336	 14	 0.002933	 0.000174	 0.001377	 1.919310	 0.156662	 0.007064	 0.042016	 0.816636	 0.066107	 0.571813	 1
1462090901.346	 14	 0.003995	 -0.000892	 0.001357	 1.919323	 0.156657	 0.007027	 0.042029	 0.816639	 0.066095	 0.571809	 1
1462090901.356	 14	 0.000798	 0.000181	 0.001395	 1.919347	 0.156678	 0.007008	 0.042043	 0.816645	 0.066098	 0.571799	 1
1462090901.366	 14	 0.000798	 0.000181	 0.001395	 1.919332	 0.156709	 0.006996	 0.042057	 0.816639	 0.066107	 0.571805	 1
1462090901.376	 14	 -0.000269	 0.000184	 0.001405	 1.919368	 0.156706	 0.006984	 0.042060	 0.816650	 0.066103	 0.571791	 1
1462090901.386	 14	 -0.000250	 0.003383	 0.002500	 1.919404	 0.156720	 0.006972	 0.042067	 0.816659	 0.066107	 0.571776	 1
1462090901.396	 14	 0.001884	 0.002320	 0.003537	 1.919424	 0.156724	 0.006959	 0.042073	 0.816664	 0.066105	 0.571769	 1
1462090901.406	 14	 0.004017	 0.001258	 0.004574	 1.919447	 0.156740	 0.006905	 0.042099	 0.816669	 0.066096	 0.571761	 1
1462090901.416	 14	 0.002946	 0.001254	 0.003518	 1.919488	 0.156794	 0.006858	 0.042132	 0.816678	 0.066106	 0.571744	 1
1462090901.426	 14	 0.000821	 0.003387	 0.003556	 1.919546	 0.156827	 0.006828	 0.042152	 0.816693	 0.066112	 0.571721	 1
1462090901.436	 14	 0.000806	 0.000196	 0.003527	 1.919519	 0.156860	 0.006812	 0.042169	 0.816684	 0.066120	 0.571732	 1
1462090901.446	 14	 -0.000266	 -0.000865	 0.003526	 1.919469	 0.156913	 0.006802	 0.042190	 0.816668	 0.066138	 0.571751	 1
1462090901.456	 14	 0.000800	 -0.001924	 0.004573	 1.919443	 0.156952	 0.006782	 0.042210	 0.816659	 0.066148	 0.571761	 1
1462090901.466	 14	 -0.001334	 -0.001918	 0.004592	 1.919411	 0.156999	 0.006780	 0.042226	 0.816648	 0.066166	 0.571773	 1
1462090901.476	 14	 0.000791	 -0.002996	 0.003497	 1.919366	 0.157028	 0.006768	 0.042240	 0.816634	 0.066173	 0.571792	 1
1462090901.486	 14	 -0.001349	 -0.004054	 0.003506	 1.919287	 0.157063	 0.006766	 0.042254	 0.816611	 0.066185	 0.571823	 1
1462090901.496	 14	 0.001950	 -0.003125	 0.002465	 1.919222	 0.157121	 0.006748	 0.042280	 0.816590	 0.066202	 0.571849	 1
1462090901.506	 14	 0.001955	 -0.002061	 0.002475	 1.919197	 0.157103	 0.006729	 0.042283	 0.816583	 0.066189	 0.571860	 1
1462090901.516	 14	 0.004104	 0.000068	 0.003542	 1.919235	 0.157111	 0.006678	 0.042305	 0.816592	 0.066179	 0.571846	 1
1462090901.526	 14	 0.006243	 0.001125	 0.003533	 1.919267	 0.157126	 0.006614	 0.042335	 0.816600	 0.066167	 0.571835	 1
1462090901.536	 14	 0.006248	 0.002189	 0.003543	 1.919319	 0.157155	 0.006539	 0.042372	 0.816612	 0.066158	 0.571815	 1
1462090901.546	 14	 0.005177	 0.002184	 0.002487	 1.919346	 0.157164	 0.006471	 0.042401	 0.816618	 0.066143	 0.571806	 1
1462090901.556	 14	 0.005157	 -0.001015	 0.001391	 1.919320	 0.157159	 0.006426	 0.042419	 0.816610	 0.066127	 0.571818	 1
1462090901.566	 14	 0.003018	 -0.001017	 0.000344	 1.919241	 0.157184	 0.006402	 0.042438	 0.816586	 0.066130	 0.571851	 1
1462090901.576	 14	 0.004080	 -0.002084	 0.000325	 1.919148	 0.157204	 0.006374	 0.042459	 0.816558	 0.066128	 0.571889	 1
1462090901.586	 14	 0.001950	 -0.002070	 0.001410	 1.919131	 0.157214	 0.006346	 0.042473	 0.816552	 0.066123	 0.571897	 1
1462090901.596	 14	 0.003031	 -0.000995	 0.003542	 1.919111	 0.157233	 0.006320	 0.042490	 0.816546	 0.066123	 0.571905	 1
1462090901.606	 14	 0.001959	 -0.000999	 0.002485	 1.919143	 0.157246	 0.006286	 0.042507	 0.816553	 0.066120	 0.571893	 1
1462090901.616	 14	 0.003011	 -0.004193	 0.002447	 1.919118	 0.157257	 0.006244	 0.042528	 0.816545	 0.066111	 0.571904	 1
1462090901.626	 14	 0.000856	 -0.009497	 0.003482	 1.919046	 0.157263	 0.006220	 0.042542	 0.816524	 0.066106	 0.571934	 1
1462090901.636	 14	 0.000862	 -0.007378	 0.002435	 1.918964	 0.157263	 0.006199	 0.042553	 0.816500	 0.066098	 0.571969	 1
1462090901.646	 14	 0.003035	 -0.000986	 0.004607	 1.918978	 0.157276	 0.006153	 0.042575	 0.816503	 0.066090	 0.571964	 1
1462090901.656	 14	 0.006246	 0.001131	 0.004599	 1.919001	 0.157332	 0.006082	 0.042619	 0.816506	 0.066093	 0.571956	 1
1462090901.666	 14	 0.004108	 0.002185	 0.002496	 1.918976	 0.157378	 0.006035	 0.042653	 0.816496	 0.066098	 0.571967	 1
1462090901.676	 14	 0.003115	 0.001006	 0.001474	 1.918885	 0.157401	 0.006019	 0.042669	 0.816469	 0.066101	 0.572004	 1
1462090901.686	 14	 0.002058	 0.003135	 0.001503	 1.918805	 0.157423	 0.006005	 0.042683	 0.816445	 0.066104	 0.572036	 1
1462090901.696	 14	 0.000991	 0.003138	 0.001512	 1.918820	 0.157459	 0.005993	 0.042698	 0.816448	 0.066115	 0.572030	 1
1462090901.706	 14	 -0.000077	 0.002085	 0.002577	 1.918832	 0.157464	 0.005989	 0.042701	 0.816451	 0.066117	 0.572025	 1
1462090901.716	 14	 0.000999	 0.003153	 0.003643	 1.918828	 0.157472	 0.005974	 0.042709	 0.816450	 0.066116	 0.572027	 1
1462090901.726	 14	 0.000994	 0.003145	 0.002578	 1.918835	 0.157516	 0.005960	 0.042727	 0.816450	 0.066130	 0.572023	 1
1462090901.736	 14	 0.000989	 0.002081	 0.002568	 1.918809	 0.157524	 0.005949	 0.042735	 0.816442	 0.066129	 0.572034	 1
1462090901.746	 14	 -0.000073	 0.003148	 0.002587	 1.918837	 0.157527	 0.005942	 0.042738	 0.816450	 0.066129	 0.572023	 1
1462090901.756	 14	 0.000994	 0.002089	 0.003633	 1.918859	 0.157543	 0.005922	 0.042750	 0.816455	 0.066130	 0.572014	 1
1462090901.766	 14	 0.002055	 -0.000034	 0.004670	 1.918909	 0.157597	 0.005881	 0.042780	 0.816467	 0.066142	 0.571994	 1
1462090901.776	 14	 0.003132	 0.002091	 0.004681	 1.918993	 0.157642	 0.005825	 0.042813	 0.816488	 0.066146	 0.571960	 1
1462090901.786	 14	 0.003113	 -0.000052	 0.002530	 1.919017	 0.157675	 0.005785	 0.042838	 0.816493	 0.066149	 0.571951	 1
1462090901.796	 14	 0.003123	 0.002075	 0.002549	 1.919040	 0.157678	 0.005741	 0.042856	 0.816499	 0.066138	 0.571943	 1
1462090901.806	 14	 0.003114	 0.001003	 0.001474	 1.919015	 0.157686	 0.005719	 0.042868	 0.816491	 0.066134	 0.571954	 1
1462090901.816	 14	 0.003266	 0.000948	 0.003635	 1.919054	 0.157673	 0.005679	 0.042880	 0.816502	 0.066118	 0.571939	 1
1462090901.826	 14	 0.003256	 -0.000124	 0.002559	 1.919069	 0.157691	 0.005631	 0.042904	 0.816504	 0.066112	 0.571935	 1
1462090901.836	 14	 0.004344	 0.004128	 0.002589	 1.919175	 0.157716	 0.005569	 0.042933	 0.816533	 0.066107	 0.571892	 1
1462090901.846	 14	 0.004343	 0.003072	 0.003645	 1.919224	 0.157756	 0.005523	 0.042961	 0.816544	 0.066111	 0.571873	 1
1462090901.856	 14	 0.002194	 0.000943	 0.002579	 1.919222	 0.157816	 0.005487	 0.042993	 0.816541	 0.066125	 0.571874	 1
1462090901.866	 14	 0.002179	 -0.001192	 0.001494	 1.919191	 0.157848	 0.005471	 0.043010	 0.816531	 0.066133	 0.571886	 1
1462090901.876	 14	 0.002169	 -0.003319	 0.001474	 1.919178	 0.157869	 0.005450	 0.043025	 0.816526	 0.066136	 0.571892	 1
1462090901.886	 14	 0.001106	 -0.003308	 0.002549	 1.919130	 0.157868	 0.005434	 0.043033	 0.816512	 0.066129	 0.571912	 1
1462090901.896	 14	 0.002174	 -0.002256	 0.001484	 1.919096	 0.157908	 0.005415	 0.043053	 0.816501	 0.066139	 0.571926	 1
1462090901.906	 14	 0.003218	 -0.004410	 -0.001742	 1.919033	 0.157898	 0.005395	 0.043061	 0.816482	 0.066129	 0.571952	 1
1462090901.916	 14	 0.001102	 -0.002261	 0.000428	 1.919007	 0.157881	 0.005386	 0.043061	 0.816475	 0.066118	 0.571963	 1
1462090901.926	 14	 0.004310	 0.000905	 -0.001702	 1.919050	 0.157856	 0.005358	 0.043063	 0.816488	 0.066101	 0.571947	 1
1462090901.936	 14	 0.001108	 -0.000141	 -0.000619	 1.919087	 0.157804	 0.005333	 0.043057	 0.816500	 0.066073	 0.571934	 1
1462090901.946	 14	 0.005371	 -0.002273	 0.000390	 1.919097	 0.157747	 0.005284	 0.043061	 0.816503	 0.066036	 0.571933	 1
1462090901.956	 14	 0.004308	 -0.002263	 0.001465	 1.919032	 0.157714	 0.005237	 0.043073	 0.816485	 0.066008	 0.571962	 1
1462090901.966	 14	 0.006437	 -0.003333	 0.001436	 1.919000	 0.157688	 0.005186	 0.043087	 0.816475	 0.065982	 0.571977	 1
1462090901.976	 14	 0.004308	 -0.002264	 0.001464	 1.918929	 0.157674	 0.005137	 0.043105	 0.816454	 0.065961	 0.572008	 1
1462090901.986	 14	 0.004317	 -0.001192	 0.002540	 1.918898	 0.157716	 0.005099	 0.043134	 0.816443	 0.065966	 0.572021	 1
1462090901.996	 14	 0.002338	 -0.001275	 0.001526	 1.918854	 0.157717	 0.005074	 0.043146	 0.816430	 0.065959	 0.572040	 1
1462090902.006	 14	 0.000178	 -0.006587	 0.001496	 1.918765	 0.157752	 0.005072	 0.043160	 0.816404	 0.065971	 0.572076	 1
1462090902.016	 14	 -0.000873	 -0.002337	 0.000479	 1.918730	 0.157746	 0.005066	 0.043162	 0.816393	 0.065966	 0.572090	 1
1462090902.026	 14	 -0.000858	 0.000854	 0.000508	 1.918719	 0.157728	 0.005071	 0.043155	 0.816391	 0.065960	 0.572095	 1
1462090902.036	 14	 0.001277	 0.000847	 0.000489	 1.918709	 0.157722	 0.005060	 0.043158	 0.816388	 0.065954	 0.572100	 1
1462090902.046	 14	 0.001271	 -0.001273	 0.001535	 1.918671	 0.157732	 0.005051	 0.043166	 0.816377	 0.065955	 0.572115	 1
1462090902.056	 14	 -0.000854	 -0.000195	 0.002630	 1.918651	 0.157747	 0.005048	 0.043172	 0.816371	 0.065959	 0.572123	 1
1462090902.066	 14	 -0.000854	 0.000860	 0.001574	 1.918638	 0.157780	 0.005052	 0.043180	 0.816366	 0.065974	 0.572128	 1
1462090902.076	 14	 0.000222	 0.000872	 0.003696	 1.918613	 0.157801	 0.005045	 0.043190	 0.816358	 0.065980	 0.572137	 1
1462090902.086	 14	 -0.000862	 -0.003372	 0.004732	 1.918587	 0.157877	 0.005040	 0.043214	 0.816348	 0.066009	 0.572146	 1
1462090902.096	 14	 -0.000855	 -0.000196	 0.002630	 1.918575	 0.157912	 0.005044	 0.043223	 0.816343	 0.066024	 0.572150	 1
1462090902.106	 14	 0.002351	 0.000858	 0.002612	 1.918602	 0.157945	 0.005022	 0.043241	 0.816350	 0.066032	 0.572139	 1
1462090902.116	 14	 0.002346	 -0.000206	 0.002602	 1.918651	 0.157926	 0.004983	 0.043250	 0.816363	 0.066014	 0.572121	 1
1462090902.126	 14	 0.003423	 0.000863	 0.003668	 1.918700	 0.157944	 0.004937	 0.043272	 0.816376	 0.066009	 0.572102	 1
1462090902.136	 14	 0.004492	 0.002971	 0.001546	 1.918713	 0.157906	 0.004890	 0.043280	 0.816380	 0.065980	 0.572099	 1
1462090902.146	 14	 0.004596	 0.001850	 0.001558	 1.918757	 0.157912	 0.004838	 0.043301	 0.816391	 0.065969	 0.572083	 1
1462090902.156	 14	 0.005663	 0.001847	 0.001549	 1.918801	 0.157904	 0.004780	 0.043321	 0.816403	 0.065950	 0.572067	 1
1462090902.166	 14	 0.005664	 0.003959	 -0.000563	 1.918875	 0.157870	 0.004721	 0.043333	 0.816424	 0.065921	 0.572040	 1
1462090902.176	 14	 0.007798	 0.002896	 0.000474	 1.918944	 0.157836	 0.004644	 0.043353	 0.816443	 0.065886	 0.572015	 1
1462090902.186	 14	 0.008855	 0.000766	 0.000445	 1.918979	 0.157813	 0.004555	 0.043381	 0.816452	 0.065852	 0.572004	 1
1462090902.196	 14	 0.009936	 0.002898	 0.001521	 1.919050	 0.157790	 0.004457	 0.043412	 0.816470	 0.065816	 0.571979	 1
1462090902.206	 14	 0.008874	 0.003965	 0.001540	 1.919105	 0.157770	 0.004362	 0.043444	 0.816485	 0.065782	 0.571960	 1
1462090902.216	 14	 0.008879	 0.005029	 0.001550	 1.919173	 0.157724	 0.004266	 0.043467	 0.816504	 0.065738	 0.571936	 1
1462090902.226	 14	 0.007819	 0.008207	 -0.000543	 1.919272	 0.157691	 0.004185	 0.043488	 0.816531	 0.065703	 0.571899	 1
1462090902.236	 14	 0.008902	 0.012451	 -0.001579	 1.919366	 0.157655	 0.004113	 0.043504	 0.816558	 0.065670	 0.571864	 1
1462090902.246	 14	 0.007818	 0.008207	 -0.000543	 1.919444	 0.157622	 0.004043	 0.043520	 0.816579	 0.065638	 0.571835	 1
1462090902.256	 14	 0.007818	 0.007151	 0.000513	 1.919575	 0.157588	 0.003955	 0.043542	 0.816616	 0.065602	 0.571785	 1
1462090902.266	 14	 0.009958	 0.009264	 -0.000552	 1.919695	 0.157521	 0.003864	 0.043556	 0.816651	 0.065551	 0.571741	 1
1462090902.276	 14	 0.009947	 0.006081	 0.000484	 1.919767	 0.157504	 0.003780	 0.043583	 0.816670	 0.065522	 0.571715	 1
1462090902.286	 14	 0.011004	 0.005006	 -0.000601	 1.919805	 0.157443	 0.003687	 0.043603	 0.816681	 0.065471	 0.571704	 1
1462090902.296	 14	 0.010055	 0.009230	 0.001595	 1.919948	 0.157401	 0.003575	 0.043631	 0.816720	 0.065425	 0.571650	 1
1462090902.306	 14	 0.012213	 0.011374	 0.004793	 1.920097	 0.157397	 0.003450	 0.043677	 0.816760	 0.065391	 0.571594	 1
1462090902.316	 14	 0.022004	 0.033831	 0.025166	 1.920681	 0.157510	 0.003158	 0.043809	 0.816917	 0.065366	 0.571362	 1
1462090902.326	 14	 0.016589	 0.030539	 0.009196	 1.920930	 0.157525	 0.002948	 0.043891	 0.816983	 0.065318	 0.571266	 1
1462090902.336	 14	 0.004655	 -0.002472	 -0.000599	 1.920610	 0.157558	 0.002938	 0.043915	 0.816891	 0.065322	 0.571397	 1
1462090902.346	 14	 -0.002834	 -0.009866	 0.003661	 1.920305	 0.157691	 0.002979	 0.043946	 0.816800	 0.065381	 0.571517	 1
1462090902.356	 14	 -0.001751	 -0.005623	 0.002625	 1.920185	 0.157717	 0.003003	 0.043948	 0.816766	 0.065396	 0.571564	 1
1462090902.366	 14	 0.000415	 0.002865	 0.000554	 1.920258	 0.157746	 0.002995	 0.043957	 0.816785	 0.065407	 0.571534	 1
1462090902.376	 14	 0.001503	 0.007116	 0.000584	 1.920326	 0.157752	 0.002987	 0.043960	 0.816804	 0.065408	 0.571507	 1
1462090902.386	 14	 0.005782	 0.010287	 -0.000490	 1.920434	 0.157717	 0.002945	 0.043963	 0.816835	 0.065385	 0.571465	 1
1462090902.396	 14	 0.007921	 0.011344	 -0.000499	 1.920567	 0.157651	 0.002875	 0.043969	 0.816874	 0.065340	 0.571414	 1
1462090902.406	 14	 0.009004	 0.014532	 -0.000478	 1.920756	 0.157611	 0.002791	 0.043985	 0.816928	 0.065305	 0.571341	 1
1462090902.416	 14	 0.011137	 0.013470	 0.000559	 1.920954	 0.157583	 0.002681	 0.044016	 0.816983	 0.065266	 0.571264	 1
1462090902.426	 14	 0.012193	 0.010284	 0.001586	 1.921195	 0.157529	 0.002548	 0.044047	 0.817050	 0.065211	 0.571171	 1
1462090902.436	 14	 0.010053	 0.008171	 0.002651	 1.921327	 0.157519	 0.002428	 0.044089	 0.817086	 0.065176	 0.571121	 1
1462090902.446	 14	 0.012202	 0.010300	 0.003717	 1.921430	 0.157527	 0.002318	 0.044133	 0.817112	 0.065150	 0.571083	 1
1462090902.456	 14	 0.013360	 0.014488	 0.001626	 1.921614	 0.157510	 0.002179	 0.044179	 0.817162	 0.065107	 0.571012	 1
1462090902.466	 14	 0.012273	 0.011293	 0.000541	 1.921749	 0.157509	 0.002063	 0.044221	 0.817198	 0.065077	 0.570961	 1
1462090902.476	 14	 0.010123	 0.007052	 0.001586	 1.921841	 0.157543	 0.001948	 0.044275	 0.817221	 0.065060	 0.570927	 1
1462090902.486	 14	 0.007983	 0.005994	 0.001595	 1.921862	 0.157534	 0.001863	 0.044307	 0.817225	 0.065032	 0.570921	 1
1462090902.496	 14	 0.009027	 0.002785	 -0.000576	 1.921945	 0.157518	 0.001783	 0.044332	 0.817248	 0.065005	 0.570890	 1
1462090902.506	 14	 0.007948	 -0.001451	 0.001526	 1.922014	 0.157495	 0.001687	 0.044363	 0.817266	 0.064970	 0.570865	 1
1462090902.516	 14	 0.011164	 0.000675	 0.002583	 1.922023	 0.157431	 0.001583	 0.044386	 0.817268	 0.064914	 0.570866	 1
1462090902.526	 14	 0.013337	 0.007066	 0.004755	 1.922134	 0.157346	 0.001453	 0.044411	 0.817300	 0.064844	 0.570827	 1
1462090902.536	 14	 0.019808	 0.017715	 0.009060	 1.922452	 0.157301	 0.001220	 0.044484	 0.817387	 0.064766	 0.570706	 1
1462090902.546	 14	 0.023053	 0.025167	 0.011232	 1.922782	 0.157291	 0.000949	 0.044581	 0.817475	 0.064693	 0.570580	 1
1462090902.556	 14	 0.023016	 0.020881	 0.006930	 1.923061	 0.157265	 0.000701	 0.044666	 0.817550	 0.064618	 0.570475	 1
1462090902.566	 14	 0.022984	 0.017659	 0.002636	 1.923246	 0.157145	 0.000483	 0.044715	 0.817602	 0.064510	 0.570409	 1
1462090902.576	 14	 0.025118	 0.017652	 0.002617	 1.923384	 0.157006	 0.000258	 0.044763	 0.817641	 0.064392	 0.570363	 1
1462090902.586	 14	 0.029438	 0.024060	 0.007967	 1.923646	 0.156897	 -0.000024	 0.044839	 0.817713	 0.064274	 0.570267	 1
1462090902.596	 14	 0.038118	 0.043274	 0.020859	 1.924270	 0.156852	 -0.000461	 0.044984	 0.817882	 0.064145	 0.570027	 1
1462090902.606	 14	 0.050979	 0.053881	 0.021910	 1.925026	 0.156675	 -0.001010	 0.045134	 0.818091	 0.063932	 0.569739	 1
1462090902.616	 14	 0.062728	 0.054919	 0.022881	 1.925794	 0.156378	 -0.001683	 0.045300	 0.818304	 0.063637	 0.569453	 1
1462090902.626	 14	 0.079880	 0.066607	 0.028168	 1.926656	 0.156088	 -0.002510	 0.045529	 0.818540	 0.063302	 0.569133	 1
1462090902.636	 14	 0.096079	 0.088883	 0.032502	 1.927715	 0.155732	 -0.003497	 0.045798	 0.818830	 0.062900	 0.568738	 1
1462090902.646	 14	 0.086615	 0.115526	 0.036027	 1.928939	 0.155417	 -0.004465	 0.046067	 0.819166	 0.062524	 0.568274	 1
1462090902.656	 14	 0.038917	 0.186904	 0.032841	 1.930583	 0.155181	 -0.005092	 0.046205	 0.819626	 0.062287	 0.567625	 1
1462090902.666	 14	 0.014424	 0.209212	 0.019405	 1.932418	 0.154977	 -0.005271	 0.046164	 0.820149	 0.062195	 0.566883	 1
1462090902.676	 14	 0.061004	 0.118758	 0.032010	 1.933635	 0.154750	 -0.005769	 0.046266	 0.820490	 0.061989	 0.566404	 1
1462090902.686	 14	 0.102531	 0.087887	 0.045214	 1.934656	 0.154422	 -0.006800	 0.046565	 0.820766	 0.061586	 0.566023	 1
1462090902.696	 14	 0.121987	 0.136784	 0.048693	 1.936395	 0.153961	 -0.008142	 0.046932	 0.821241	 0.061058	 0.565360	 1
1462090902.706	 14	 0.146781	 0.194105	 0.042611	 1.938921	 0.153104	 -0.009697	 0.047252	 0.821946	 0.060326	 0.564387	 1
1462090902.716	 14	 0.185461	 0.260896	 0.027967	 1.941975	 0.151513	 -0.011503	 0.047455	 0.822817	 0.059235	 0.563216	 1
1462090902.726	 14	 0.241461	 0.355504	 0.043280	 1.945596	 0.151022	 -0.013778	 0.048148	 0.823797	 0.058479	 0.561801	 1
1462090902.736	 14	 0.293349	 0.458843	 0.087486	 1.950370	 0.150701	 -0.016688	 0.049119	 0.825076	 0.057647	 0.559923	 1
1462090902.746	 14	 0.359856	 0.509886	 0.112961	 1.955915	 0.150440	 -0.020306	 0.050382	 0.826544	 0.056666	 0.557742	 1
1462090902.756	 14	 0.449560	 0.526606	 0.108069	 1.961916	 0.149376	 -0.024730	 0.051748	 0.828137	 0.055147	 0.555400	 1
1462090902.766	 14	 0.563285	 0.449510	 0.082914	 1.967446	 0.148164	 -0.030056	 0.053471	 0.829572	 0.053314	 0.553271	 1
1462090902.776	 14	 0.687083	 0.268915	 0.020476	 1.971544	 0.145973	 -0.036322	 0.055362	 0.830611	 0.050783	 0.551763	 1
1462090902.786	 14	 0.847830	 0.046453	 -0.084241	 1.973635	 0.142326	 -0.043581	 0.057325	 0.831112	 0.047323	 0.551114	 1
1462090902.796	 14	 1.094581	 -0.219232	 -0.247660	 1.973342	 0.136441	 -0.052305	 0.059343	 0.830987	 0.042459	 0.551486	 1
1462090902.806	 14	 1.358131	 -0.493901	 -0.469926	 1.970468	 0.127614	 -0.062677	 0.061283	 0.830193	 0.035833	 0.552938	 1
1462090902.816	 14	 1.638757	 -0.738039	 -0.728293	 1.965108	 0.115379	 -0.074713	 0.062990	 0.828759	 0.027243	 0.555381	 1
1462090902.826	 14	 1.831084	 -0.977201	 -0.922964	 1.957338	 0.100471	 -0.087949	 0.064429	 0.826675	 0.017121	 0.558716	 1
1462090902.836	 14	 1.986453	 -1.153324	 -1.093280	 1.947508	 0.083443	 -0.102194	 0.065621	 0.824006	 0.005759	 0.562738	 1
1462090902.846	 14	 2.177907	 -1.359440	 -1.278045	 1.935661	 0.064305	 -0.117545	 0.066554	 0.820739	 -0.006860	 0.567371	 1
1462090902.856	 14	 2.369005	 -1.626308	 -1.480424	 1.920945	 0.042716	 -0.134394	 0.067224	 0.816605	 -0.021014	 0.572884	 1
1462090902.866	 14	 2.350622	 -1.820547	 -1.579056	 1.903684	 0.020043	 -0.151462	 0.067417	 0.811670	 -0.035755	 0.579109	 1
1462090902.876	 14	 2.199230	 -1.847254	 -1.509777	 1.885380	 -0.001570	 -0.167851	 0.067369	 0.806332	 -0.049891	 0.585492	 1
1462090902.886	 14	 2.062403	 -1.859926	 -1.552400	 1.866632	 -0.022528	 -0.183205	 0.066828	 0.800791	 -0.063453	 0.591812	 1
1462090902.896	 14	 1.962952	 -1.869495	 -1.592122	 1.847482	 -0.043314	 -0.197804	 0.065772	 0.795066	 -0.076704	 0.598047	 1
1462090902.906	 14	 1.871092	 -1.888359	 -1.590432	 1.827923	 -0.063688	 -0.211878	 0.064365	 0.789145	 -0.089607	 0.604216	 1
1462090902.916	 14	 1.771607	 -1.978133	 -1.543508	 1.807395	 -0.083180	 -0.225554	 0.062774	 0.782849	 -0.102025	 0.610571	 1
1462090902.926	 14	 1.605905	 -2.094170	 -1.478133	 1.785584	 -0.101432	 -0.238350	 0.060906	 0.776088	 -0.113680	 0.617296	 1
1462090902.936	 14	 1.351746	 -2.243307	 -1.612660	 1.762390	 -0.119521	 -0.249207	 0.058008	 0.768874	 -0.124651	 0.624444	 1
1462090902.946	 14	 0.996647	 -2.457436	 -2.096483	 1.737404	 -0.140849	 -0.256533	 0.052350	 0.761155	 -0.135688	 0.632053	 1
1462090902.956	 14	 0.570417	 -2.711913	 -2.447907	 1.710518	 -0.165329	 -0.259626	 0.043654	 0.752847	 -0.146426	 0.640215	 1
1462090902.966	 14	 0.232054	 -3.060801	 -2.587822	 1.680847	 -0.191178	 -0.259492	 0.032800	 0.743531	 -0.156424	 0.649321	 1
1462090902.976	 14	 -0.017759	 -3.355330	 -2.529771	 1.648341	 -0.216651	 -0.257471	 0.020857	 0.733071	 -0.165378	 0.659411	 1
1462090902.986	 14	 -0.240590	 -3.417571	 -2.402650	 1.614938	 -0.240815	 -0.254036	 0.008495	 0.722049	 -0.173031	 0.669801	 1
1462090902.996	 14	 -0.472131	 -3.215765	 -2.095014	 1.583378	 -0.262553	 -0.249185	 -0.003600	 0.711381	 -0.178985	 0.679624	 1
1462090903.006	 14	 -0.795713	 -2.763543	 -1.613724	 1.556484	 -0.279993	 -0.241770	 -0.014818	 0.702071	 -0.182284	 0.688222	 1
1462090903.016	 14	 -1.033909	 -2.307331	 -1.134207	 1.535170	 -0.292681	 -0.231831	 -0.024772	 0.694503	 -0.182912	 0.695410	 1
1462090903.026	 14	 -1.056985	 -2.021108	 -0.835061	 1.517522	 -0.302145	 -0.221111	 -0.033503	 0.688083	 -0.182068	 0.701620	 1
1462090903.036	 14	 -0.899850	 -1.895782	 -0.649820	 1.501169	 -0.309628	 -0.211638	 -0.040952	 0.682049	 -0.180900	 0.707394	 1
1462090903.046	 14	 -0.642659	 -1.800740	 -0.493442	 1.485070	 -0.315485	 -0.204625	 -0.046930	 0.676092	 -0.179976	 0.712956	 1
1462090903.066	 15	 -0.171270	 -1.302465	 -0.086854	 1.456356	 -0.321009	 -0.198315	 -0.053664	 0.665539	 -0.178776	 0.722646	 1
1462090903.076	 15	 -0.050255	 -0.923828	 0.107453	 1.446460	 -0.320505	 -0.197432	 -0.054652	 0.661939	 -0.178027	 0.726056	 1
1462090903.086	 15	 0.049086	 -0.611105	 0.297072	 1.439659	 -0.318008	 -0.197354	 -0.054347	 0.659503	 -0.177018	 0.728538	 1
1462090903.096	 15	 0.147919	 -0.401589	 0.481472	 1.434962	 -0.313523	 -0.198035	 -0.052855	 0.657874	 -0.175716	 0.730433	 1
1462090903.106	 15	 0.226140	 -0.249566	 0.649530	 1.431709	 -0.307213	 -0.199324	 -0.050345	 0.656804	 -0.174102	 0.731958	 1
1462090903.126	 16	 0.302071	 0.000079	 0.931488	 1.428907	 -0.289990	 -0.202700	 -0.042998	 0.656046	 -0.169815	 0.734110	 1
1462090903.136	 16	 0.341386	 0.078569	 1.064030	 1.428999	 -0.279321	 -0.204573	 -0.038356	 0.656206	 -0.167121	 0.734842	 1
1462090903.146	 16	 0.406078	 0.102782	 1.202241	 1.429401	 -0.267224	 -0.206866	 -0.033013	 0.656467	 -0.164129	 0.735543	 1
1462090903.156	 16	 0.445606	 -0.031178	 1.372238	 1.428929	 -0.253470	 -0.209435	 -0.027025	 0.656379	 -0.160693	 0.736624	 1
1462090903.166	 16	 0.355017	 -0.392215	 1.563636	 1.425375	 -0.237887	 -0.211158	 -0.020862	 0.655096	 -0.156328	 0.738902	 1
1462090903.176	 16	 0.145498	 -0.598924	 1.721270	 1.419966	 -0.220946	 -0.210639	 -0.015041	 0.653047	 -0.150702	 0.742019	 1
1462090903.186	 16	 -0.010848	 -0.818781	 1.847411	 1.412950	 -0.202946	 -0.207987	 -0.009597	 0.650327	 -0.143958	 0.745828	 1
1462090903.196	 16	 -0.068491	 -1.133764	 1.949426	 1.403156	 -0.184060	 -0.204214	 -0.004320	 0.646500	 -0.136533	 0.750585	 1
1462090903.206	 16	 -0.081348	 -1.459486	 2.055215	 1.390098	 -0.164242	 -0.199858	 0.000989	 0.641366	 -0.128633	 0.756375	 1
1462090903.216	 16	 -0.079881	 -1.705345	 2.179740	 1.374326	 -0.143281	 -0.195001	 0.006521	 0.635101	 -0.120251	 0.762984	 1
1462090903.226	 16	 -0.110087	 -1.872457	 2.296748	 1.356786	 -0.121331	 -0.189325	 0.012214	 0.628046	 -0.111334	 0.770074	 1
1462090903.236	 16	 -0.024157	 -2.126714	 2.470550	 1.336907	 -0.097809	 -0.183327	 0.018460	 0.619945	 -0.101919	 0.777779	 1
1462090903.246	 16	 0.201437	 -2.367917	 2.594233	 1.314119	 -0.072535	 -0.178490	 0.025806	 0.610519	 -0.092582	 0.786148	 1
1462090903.256	 16	 0.390363	 -2.394766	 2.634969	 1.290344	 -0.046269	 -0.174820	 0.034070	 0.600493	 -0.083590	 0.794519	 1
1462090903.266	 16	 0.611523	 -2.309533	 2.597600	 1.267104	 -0.019676	 -0.172582	 0.043120	 0.590463	 -0.075257	 0.802390	 1
1462090903.276	 16	 0.892069	 -2.263119	 2.511395	 1.244389	 0.006959	 -0.172509	 0.053025	 0.580406	 -0.067983	 0.809750	 1
1462090903.286	 16	 1.192831	 -2.232689	 2.429127	 1.222033	 0.033756	 -0.174946	 0.063883	 0.570218	 -0.061899	 0.816663	 1
1462090903.296	 16	 1.474690	 -2.182670	 2.400494	 1.200312	 0.061207	 -0.179651	 0.075789	 0.559966	 -0.056782	 0.823086	 1
1462090903.306	 16	 1.717133	 -2.159825	 2.422042	 1.179180	 0.089798	 -0.186087	 0.088752	 0.549591	 -0.052297	 0.829058	 1
1462090903.316	 16	 1.907180	 -2.182360	 2.471335	 1.158222	 0.119705	 -0.193654	 0.102643	 0.538901	 -0.048185	 0.834702	 1
1462090903.326	 16	 2.040604	 -2.212225	 2.513591	 1.137273	 0.150788	 -0.201774	 0.117226	 0.527831	 -0.044272	 0.840055	 1
1462090903.336	 16	 2.135560	 -2.243125	 2.544450	 1.116319	 0.182774	 -0.210075	 0.132279	 0.516393	 -0.040494	 0.845104	 1
1462090903.346	 16	 2.203522	 -2.329347	 2.562240	 1.094916	 0.215455	 -0.218320	 0.147637	 0.504419	 -0.036850	 0.849945	 1
1462090903.366	 17	 2.209397	 -2.649665	 2.541090	 1.048274	 0.281518	 -0.233377	 0.178325	 0.478006	 -0.030063	 0.859539	 1
1462090903.376	 17	 2.152601	 -2.912325	 2.525285	 1.021631	 0.314327	 -0.239372	 0.193214	 0.463106	 -0.026903	 0.864568	 1
1462090903.396	 18	 2.142415	 -3.643600	 2.441834	 0.956849	 0.379173	 -0.248502	 0.222037	 0.427914	 -0.021954	 0.875847	 1
1462090903.406	 18	 2.033241	 -3.647029	 2.364952	 0.921337	 0.410639	 -0.251285	 0.235724	 0.408894	 -0.019972	 0.881386	 1
1462090903.426	 19	 1.884306	 -3.684416	 1.989687	 0.849662	 0.468158	 -0.254216	 0.260448	 0.370902	 -0.017518	 0.891230	 1
1462090903.436	 19	 1.861106	 -3.705817	 1.815971	 0.813277	 0.494459	 -0.255673	 0.271821	 0.351714	 -0.017530	 0.895602	 1
1462090903.446	 19	 1.822578	 -3.616271	 1.681787	 0.777456	 0.519523	 -0.256929	 0.282655	 0.332827	 -0.018029	 0.899448	 1
1462090903.466	 20	 1.776497	 -3.271837	 1.492491	 0.709824	 0.566966	 -0.258335	 0.303060	 0.297076	 -0.019571	 0.905272	 1
1462090903.476	 20	 1.796472	 -3.040626	 1.410273	 0.679135	 0.589863	 -0.258884	 0.312921	 0.280654	 -0.020447	 0.907136	 1
1462090903.496	 21	 1.896575	 -2.563959	 1.327510	 0.625046	 0.635685	 -0.260158	 0.332751	 0.251019	 -0.021972	 0.908726	 1
1462090903.506	 21	 1.957302	 -2.352538	 1.319357	 0.601301	 0.659171	 -0.260623	 0.342922	 0.237657	 -0.022400	 0.908527	 1
1462090903.516	 21	 1.993281	 -2.181486	 1.307846	 0.579224	 0.682959	 -0.260836	 0.353205	 0.225069	 -0.022613	 0.907788	 1
1462090903.526	 21	 1.991678	 -2.059251	 1.296209	 0.558183	 0.706761	 -0.260563	 0.363438	 0.213050	 -0.022641	 0.906647	 1
1462090903.546	 22	 1.899094	 -1.938294	 1.218208	 0.517277	 0.752926	 -0.258432	 0.383092	 0.190074	 -0.022604	 0.903660	 1
1462090903.556	 22	 1.831732	 -1.917244	 1.160374	 0.496836	 0.774797	 -0.256639	 0.392305	 0.178919	 -0.022726	 0.901980	 1
1462090903.576	 23	 1.664472	 -1.940318	 0.991093	 0.455123	 0.815361	 -0.252484	 0.409263	 0.156832	 -0.023873	 0.898520	 1
1462090903.586	 23	 1.541609	 -1.898030	 0.906230	 0.434306	 0.833547	 -0.250145	 0.416794	 0.146156	 -0.024853	 0.896830	 1
1462090903.606	 24	 1.223969	 -1.730862	 0.802909	 0.393350	 0.864996	 -0.243484	 0.429563	 0.126183	 -0.026836	 0.893775	 1
1462090903.616	 24	 1.024837	 -1.629324	 0.790667	 0.372838	 0.877928	 -0.238318	 0.434621	 0.116932	 -0.027531	 0.892566	 1
1462090903.636	 25	 0.730089	 -1.448695	 0.792782	 0.331291	 0.898724	 -0.223641	 0.442342	 0.099783	 -0.027955	 0.890840	 1
1462090903.646	 25	 0.701546	 -1.383795	 0.784043	 0.310642	 0.907884	 -0.215182	 0.445657	 0.091705	 -0.027902	 0.890057	 1
1462090903.656	 25	 0.731633	 -1.324458	 0.765149	 0.290504	 0.917056	 -0.206638	 0.449018	 0.083929	 -0.027783	 0.889138	 1
1462090903.666	 25	 0.800981	 -1.294113	 0.724329	 0.271056	 0.926599	 -0.198525	 0.452603	 0.076394	 -0.027754	 0.888000	 1
1462090903.676	 25	 0.875514	 -1.283038	 0.668363	 0.252316	 0.936661	 -0.191202	 0.456482	 0.069017	 -0.027963	 0.886611	 1
1462090903.686	 25	 0.890579	 -1.218531	 0.623005	 0.234429	 0.946827	 -0.184410	 0.460458	 0.061951	 -0.028293	 0.885065	 1
1462090903.696	 25	 0.848376	 -1.081499	 0.582017	 0.217840	 0.956555	 -0.177787	 0.464284	 0.055508	 -0.028514	 0.883485	 1
1462090903.706	 25	 0.770122	 -0.891214	 0.536510	 0.203113	 0.965443	 -0.171307	 0.467789	 0.049962	 -0.028495	 0.881967	 1
1462090903.716	 25	 0.669542	 -0.675403	 0.481842	 0.190697	 0.973234	 -0.165097	 0.470868	 0.045482	 -0.028183	 0.880580	 1
1462090903.726	 25	 0.578336	 -0.482182	 0.395976	 0.180957	 0.979905	 -0.159717	 0.473525	 0.042085	 -0.027717	 0.879337	 1
1462090903.736	 25	 0.517893	 -0.318914	 0.298906	 0.173990	 0.985697	 -0.155666	 0.475873	 0.039664	 -0.027257	 0.878196	 1
1462090903.746	 25	 0.488378	 -0.173697	 0.218450	 0.169653	 0.990969	 -0.152971	 0.478059	 0.038118	 -0.026815	 0.877091	 1
1462090903.756	 25	 0.468394	 -0.075039	 0.174780	 0.167117	 0.995935	 -0.151106	 0.480151	 0.037189	 -0.026332	 0.876001	 1
1462090903.766	 25	 0.456922	 -0.004926	 0.158480	 0.165603	 1.000729	 -0.149559	 0.482187	 0.036646	 -0.025759	 0.874922	 1
1462090903.776	 25	 0.460269	 0.041727	 0.139702	 0.164854	 1.005485	 -0.148301	 0.484220	 0.036374	 -0.025134	 0.873829	 1
1462090903.786	 25	 0.471047	 0.081960	 0.118667	 0.164858	 1.010311	 -0.147462	 0.486298	 0.036328	 -0.024507	 0.872694	 1
1462090903.796	 25	 0.466896	 0.113821	 0.110474	 0.165411	 1.015136	 -0.146847	 0.488383	 0.036468	 -0.023845	 0.871541	 1
1462090903.806	 25	 0.416850	 0.127876	 0.121698	 0.165918	 1.019595	 -0.145973	 0.490302	 0.036671	 -0.023100	 0.870475	 1
1462090903.816	 25	 0.321790	 0.099534	 0.135051	 0.165835	 1.023243	 -0.144585	 0.491852	 0.036787	 -0.022321	 0.869615	 1
1462090903.826	 25	 0.203130	 0.048894	 0.144139	 0.164768	 1.025781	 -0.142622	 0.492900	 0.036676	 -0.021595	 0.869045	 1
1462090903.836	 25	 0.087700	 0.014115	 0.141623	 0.162954	 1.027143	 -0.140258	 0.493425	 0.036402	 -0.020943	 0.868774	 1
1462090903.846	 25	 0.010793	 0.018430	 0.118886	 0.161121	 1.027611	 -0.137944	 0.493566	 0.036153	 -0.020366	 0.868718	 1
1462090903.856	 25	 -0.012540	 0.073594	 0.089761	 0.160055	 1.027668	 -0.136050	 0.493546	 0.036155	 -0.019803	 0.868742	 1
1462090903.866	 25	 0.013524	 0.188224	 0.067154	 0.160447	 1.027821	 -0.134682	 0.493591	 0.036655	 -0.019104	 0.868712	 1
1462090903.876	 25	 0.083573	 0.346379	 0.050964	 0.162760	 1.028542	 -0.133841	 0.493908	 0.037832	 -0.018131	 0.868502	 1
1462090903.886	 25	 0.182646	 0.542794	 0.042337	 0.167379	 1.030156	 -0.133493	 0.494637	 0.039844	 -0.016754	 0.868024	 1
1462090903.896	 25	 0.309392	 0.721066	 0.036498	 0.174350	 1.032945	 -0.133690	 0.495899	 0.042680	 -0.014965	 0.867202	 1
1462090903.906	 25	 0.417713	 0.822955	 0.050357	 0.182811	 1.036892	 -0.134190	 0.497668	 0.046021	 -0.012862	 0.866051	 1
1462090903.916	 25	 0.463628	 0.804944	 0.078566	 0.191236	 1.041512	 -0.134474	 0.499709	 0.049355	 -0.010620	 0.864721	 1
1462090903.926	 25	 0.430019	 0.669110	 0.107436	 0.198130	 1.046061	 -0.134237	 0.501686	 0.052151	 -0.008525	 0.863434	 1
1462090903.946	 26	 0.106518	 0.151326	 0.149127	 0.204460	 1.051073	 -0.132603	 0.503811	 0.055022	 -0.005929	 0.862040	 1
1462090903.956	 26	 -0.120075	 -0.140662	 0.132390	 0.201174	 1.050734	 -0.129619	 0.503574	 0.054376	 -0.005490	 0.862222	 1
1462090903.966	 26	 -0.312308	 -0.364794	 0.094677	 0.195323	 1.048316	 -0.126495	 0.502439	 0.052764	 -0.005756	 0.862982	 1
1462090903.976	 26	 -0.431401	 -0.469997	 0.059565	 0.188326	 1.044458	 -0.123626	 0.500689	 0.050659	 -0.006492	 0.864119	 1
1462090903.986	 26	 -0.459134	 -0.449860	 0.038684	 0.180954	 1.041123	 -0.120611	 0.499157	 0.048389	 -0.007215	 0.865129	 1
1462090903.996	 26	 -0.395623	 -0.314077	 0.014882	 0.175809	 1.037055	 -0.118753	 0.497343	 0.046820	 -0.007909	 0.866253	 1
1462090904.006	 26	 -0.262403	 -0.108277	 -0.005678	 0.173316	 1.034101	 -0.117743	 0.496037	 0.046130	 -0.008245	 0.867036	 1
1462090904.016	 26	 -0.099183	 0.110306	 -0.011460	 0.173672	 1.032691	 -0.117491	 0.495425	 0.046413	 -0.008121	 0.867372	 1
1462090904.026	 26	 0.049974	 0.276894	 -0.004791	 0.172739	 1.037230	 -0.114674	 0.497312	 0.046497	 -0.006897	 0.866298	 1
1462090904.036	 26	 0.148656	 0.360823	 0.021775	 0.176336	 1.038511	 -0.114854	 0.497879	 0.047950	 -0.006013	 0.865899	 1
1462090904.046	 26	 0.180806	 0.349374	 0.069348	 0.179521	 1.040347	 -0.114380	 0.498667	 0.049361	 -0.004918	 0.865373	 1
1462090904.056	 26	 0.156009	 0.251977	 0.121945	 0.180996	 1.042173	 -0.112839	 0.499417	 0.050298	 -0.003787	 0.864892	 1
1462090904.066	 26	 0.086120	 0.119414	 0.147967	 0.178682	 1.043624	 -0.108893	 0.499937	 0.050216	 -0.002582	 0.864601	 1
1462090904.076	 26	 -0.004182	 -0.014386	 0.141113	 0.176484	 1.044071	 -0.106136	 0.500058	 0.049935	 -0.001916	 0.864549	 1
1462090904.086	 26	 -0.091160	 -0.110011	 0.119665	 0.173268	 1.043598	 -0.103435	 0.499785	 0.049241	 -0.001577	 0.864747	 1
1462090904.096	 26	 -0.147011	 -0.164278	 0.094068	 0.169640	 1.042438	 -0.101001	 0.499224	 0.048330	 -0.001488	 0.865123	 1
1462090904.106	 26	 -0.152493	 -0.171916	 0.066339	 0.163293	 1.041353	 -0.096529	 0.498646	 0.046745	 -0.001189	 0.865544	 1
1462090904.116	 26	 -0.123566	 -0.132778	 0.048334	 0.160624	 1.040133	 -0.095102	 0.498085	 0.045995	 -0.001294	 0.865906	 1
1462090904.126	 26	 -0.079586	 -0.079772	 0.042049	 0.158722	 1.039299	 -0.093976	 0.497699	 0.045486	 -0.001318	 0.866155	 1
1462090904.136	 26	 -0.027058	 -0.034153	 0.047345	 0.157381	 1.038966	 -0.092957	 0.497531	 0.045171	 -0.001226	 0.866268	 1
1462090904.146	 26	 0.021222	 0.014668	 0.053782	 0.152676	 1.040228	 -0.088631	 0.497977	 0.044162	 -0.000466	 0.866065	 1
1462090904.156	 26	 0.046030	 0.059361	 0.066771	 0.152210	 1.040731	 -0.087513	 0.498169	 0.044219	 -0.000076	 0.865952	 1
1462090904.166	 26	 0.052578	 0.077532	 0.081804	 0.151782	 1.041369	 -0.086144	 0.498414	 0.044351	 0.000438	 0.865804	 1
1462090904.176	 26	 0.036563	 0.061749	 0.098849	 0.150977	 1.041930	 -0.084429	 0.498618	 0.044409	 0.001004	 0.865683	 1
1462090904.186	 26	 0.002344	 0.034296	 0.113818	 0.146731	 1.042971	 -0.079864	 0.498970	 0.043672	 0.001965	 0.865516	 1
1462090904.196	 26	 -0.035089	 0.008950	 0.123500	 0.144741	 1.042890	 -0.077395	 0.498884	 0.043429	 0.002533	 0.865576	 1
1462090904.206	 26	 -0.062945	 -0.008040	 0.116124	 0.142544	 1.042501	 -0.074903	 0.498665	 0.043114	 0.003048	 0.865717	 1
1462090904.216	 26	 -0.082271	 -0.016643	 0.097035	 0.136031	 1.042180	 -0.068834	 0.498409	 0.041817	 0.004039	 0.865924	 1
1462090904.226	 26	 -0.098431	 -0.022145	 0.065151	 0.134350	 1.041342	 -0.067125	 0.498015	 0.041541	 0.004329	 0.866162	 1
1462090904.236	 26	 -0.110434	 -0.040516	 0.020323	 0.133209	 1.040308	 -0.066210	 0.497551	 0.041307	 0.004403	 0.866439	 1
1462090904.246	 26	 -0.109646	 -0.066333	 -0.019357	 0.132527	 1.039192	 -0.066119	 0.497069	 0.041068	 0.004232	 0.866728	 1
1462090904.256	 26	 -0.088414	 -0.076094	 -0.035617	 0.129093	 1.038086	 -0.063915	 0.496553	 0.040161	 0.004294	 0.867066	 1
1462090904.266	 26	 -0.043517	 -0.058162	 -0.037972	 0.128966	 1.037473	 -0.064511	 0.496300	 0.039977	 0.003982	 0.867221	 1
1462090904.276	 26	 0.005759	 -0.025285	 -0.030630	 0.127579	 1.038223	 -0.063769	 0.496613	 0.039537	 0.003986	 0.867062	 1
1462090904.286	 26	 0.045472	 0.015074	 -0.022067	 0.126622	 1.039779	 -0.063054	 0.497274	 0.039254	 0.004113	 0.866696	 1
1462090904.296	 26	 0.068056	 0.043785	 -0.013464	 0.126301	 1.041760	 -0.062566	 0.498121	 0.039178	 0.004314	 0.866211	 1
1462090904.306	 26	 0.069202	 0.058679	 -0.012263	 0.126156	 1.043793	 -0.062060	 0.498990	 0.039182	 0.004569	 0.865710	 1
1462090904.316	 26	 0.042519	 0.065069	 -0.021556	 0.126373	 1.045580	 -0.061814	 0.499756	 0.039286	 0.004792	 0.865262	 1
1462090904.326	 26	 -0.002418	 0.047058	 -0.029854	 0.126812	 1.046651	 -0.061876	 0.500218	 0.039429	 0.004912	 0.864987	 1
1462090904.336	 26	 -0.052736	 0.010001	 -0.026560	 0.126838	 1.046921	 -0.061842	 0.500334	 0.039441	 0.004943	 0.864920	 1
1462090904.346	 26	 -0.083836	 -0.027096	 -0.021302	 0.126584	 1.046922	 -0.061846	 0.500335	 0.039330	 0.004878	 0.864924	 1
1462090904.356	 26	 -0.099888	 -0.041893	 -0.014905	 0.126253	 1.045937	 -0.061928	 0.499912	 0.039194	 0.004725	 0.865176	 1
1462090904.366	 26	 -0.092384	 -0.040798	 -0.007500	 0.125786	 1.044977	 -0.061879	 0.499498	 0.039033	 0.004596	 0.865423	 1
1462090904.386	 27	 -0.029280	 -0.010149	 -0.008829	 0.124963	 1.044145	 -0.061560	 0.499134	 0.038780	 0.004500	 0.865645	 1
1462090904.396	 27	 0.013486	 0.017286	 -0.021735	 0.125369	 1.044150	 -0.061922	 0.499143	 0.038866	 0.004445	 0.865636	 1
1462090904.406	 27	 0.046664	 0.044780	 -0.030294	 0.126331	 1.044502	 -0.062596	 0.499306	 0.039104	 0.004405	 0.865532	 1
1462090904.416	 27	 0.059547	 0.056481	 -0.024968	 0.127472	 1.045036	 -0.063287	 0.499547	 0.039409	 0.004410	 0.865378	 1
1462090904.426	 27	 0.059567	 0.048079	 -0.010125	 0.128318	 1.046011	 -0.063678	 0.499974	 0.039648	 0.004487	 0.865121	 1
1462090904.436	 27	 0.049873	 0.023690	 -0.003872	 0.128883	 1.046789	 -0.063956	 0.500314	 0.039800	 0.004536	 0.864917	 1
1462090904.446	 27	 0.024118	 -0.009183	 -0.000755	 0.129122	 1.047330	 -0.064208	 0.500552	 0.039824	 0.004506	 0.864778	 1
1462090904.456	 27	 -0.013309	 -0.028194	 0.002592	 0.128788	 1.047601	 -0.064112	 0.500668	 0.039696	 0.004474	 0.864717	 1
1462090904.466	 27	 -0.040084	 -0.050436	 0.004751	 0.128018	 1.047448	 -0.063783	 0.500597	 0.039450	 0.004418	 0.864770	 1
1462090904.476	 27	 -0.050843	 -0.071655	 0.007845	 0.126760	 1.047170	 -0.063205	 0.500468	 0.039059	 0.004343	 0.864863	 1
1462090904.486	 27	 -0.042358	 -0.084431	 0.009786	 0.125159	 1.046978	 -0.062465	 0.500374	 0.038557	 0.004255	 0.864940	 1
1462090904.496	 27	 -0.020929	 -0.073799	 0.018227	 0.123065	 1.047237	 -0.061227	 0.500467	 0.037954	 0.004276	 0.864913	 1
1462090904.506	 27	 0.009175	 -0.038689	 0.032151	 0.121072	 1.048115	 -0.059786	 0.500823	 0.037428	 0.004430	 0.864729	 1
1462090904.516	 27	 0.036166	 0.021896	 0.037814	 0.119435	 1.049487	 -0.058159	 0.501388	 0.037090	 0.004769	 0.864414	 1
1462090904.526	 27	 0.049290	 0.088857	 0.037263	 0.118033	 1.051073	 -0.056147	 0.502039	 0.036945	 0.005339	 0.864039	 1
1462090904.536	 27	 0.044116	 0.120795	 0.039742	 0.116993	 1.052313	 -0.054075	 0.502538	 0.036983	 0.006012	 0.863743	 1
1462090904.546	 27	 0.035622	 0.119839	 0.051534	 0.116196	 1.053159	 -0.052112	 0.502869	 0.037111	 0.006687	 0.863540	 1
1462090904.556	 27	 0.026014	 0.102985	 0.070647	 0.114868	 1.053752	 -0.049719	 0.503084	 0.037124	 0.007404	 0.863408	 1
1462090904.566	 27	 0.021706	 0.073397	 0.095990	 0.112582	 1.054125	 -0.046589	 0.503196	 0.036915	 0.008192	 0.863344	 1
1462090904.576	 27	 0.054600	 0.023396	 0.108029	 0.110281	 1.054750	 -0.043774	 0.503424	 0.036616	 0.008847	 0.863218	 1
1462090904.586	 27	 0.115021	 0.166773	 0.103509	 0.109639	 1.055920	 -0.041803	 0.503895	 0.036808	 0.009570	 0.862927	 1
1462090904.596	 27	 0.143529	 0.399007	 0.019095	 0.112651	 1.057322	 -0.041259	 0.504473	 0.038212	 0.010605	 0.862516	 1
1462090904.606	 27	 0.159525	 0.440064	 -0.032885	 0.117827	 1.058847	 -0.042118	 0.505118	 0.040191	 0.011587	 0.862036	 1
1462090904.616	 27	 0.154805	 0.350682	 -0.040070	 0.122610	 1.060360	 -0.043290	 0.505764	 0.041919	 0.012338	 0.861564	 1
1462090904.626	 27	 0.141449	 0.242175	 -0.048430	 0.127571	 1.060434	 -0.045571	 0.505814	 0.043477	 0.012612	 0.861454	 1
1462090904.636	 27	 0.094867	 0.099750	 -0.053613	 0.130153	 1.061445	 -0.046943	 0.506263	 0.044216	 0.012709	 0.861151	 1
1462090904.646	 27	 0.027908	 -0.093415	 -0.023920	 0.130413	 1.061834	 -0.047745	 0.506445	 0.044114	 0.012442	 0.861053	 1
1462090904.656	 27	 -0.032391	 -0.243952	 0.019966	 0.128079	 1.061674	 -0.047495	 0.506386	 0.043177	 0.011953	 0.861142	 1
1462090904.666	 27	 -0.070096	 -0.321455	 0.023833	 0.125342	 1.060315	 -0.047626	 0.505820	 0.042000	 0.011159	 0.861544	 1
1462090904.676	 27	 -0.091521	 -0.289906	 -0.034304	 0.122404	 1.059439	 -0.047763	 0.505462	 0.040723	 0.010329	 0.861826	 1
1462090904.686	 27	 -0.105146	 -0.170258	 -0.114070	 0.121819	 1.058307	 -0.049415	 0.505011	 0.040083	 0.009432	 0.862130	 1
