% Gyrometer data recorded with 'snsrlog'
% 
% 
% Label description:
% 	 0: Default Label
% 	 1: still_drop
% 	 2: walk_drop
% 	 3: other
% 	 4: dtw_same
% 	 5: dtw_diff
% 	 6: delete
% 	 7: steal
% 
% Column description:
% 	 1: Seconds.milliseconds since 1970
% 	 2: Number of skipped measurements
% 	 3: Gyro X
% 	 4: Gyro Y
% 	 5: Gyro Z
% 	 6: Roll of the device
% 	 7: Pitch of the device
% 	 8: Yaw of the device
% 	 9: Quaternion X
% 	 10: Quaternion Y
% 	 11: Quaternion Z
% 	 12: Quaternion W
% 	 13: Label used for the current sample
% 
% 
1462501449.566	 0	 0.377856	 -1.523756	 1.252295	 -0.458923	 0.286630	 0.225184	 0.163494	 -0.208070	 0.076007	 0.961353	 7
1462501449.576	 0	 0.435880	 -1.429355	 1.239879	 -0.477233	 0.284755	 0.238730	 0.164757	 -0.215883	 0.081237	 0.958984	 7
1462501449.586	 0	 0.518175	 -1.381921	 1.214025	 -0.494959	 0.283436	 0.252383	 0.166373	 -0.223342	 0.086475	 0.956536	 7
1462501449.596	 0	 0.614080	 -1.377184	 1.172735	 -0.512558	 0.282891	 0.266156	 0.168462	 -0.230638	 0.091651	 0.953953	 7
1462501449.606	 0	 0.707520	 -1.420491	 1.105441	 -0.530442	 0.283230	 0.279843	 0.171067	 -0.237966	 0.096606	 0.951197	 7
1462501449.616	 0	 0.798667	 -1.484121	 1.021993	 -0.549095	 0.284497	 0.293371	 0.174220	 -0.245546	 0.101242	 0.948211	 7
1462501449.626	 0	 0.865195	 -1.578388	 0.956591	 -0.568343	 0.286567	 0.306649	 0.177839	 -0.253300	 0.105533	 0.945027	 7
1462501449.636	 0	 0.915789	 -1.710436	 0.954922	 -0.588902	 0.288929	 0.320089	 0.181773	 -0.261566	 0.109669	 0.941549	 7
1462501449.646	 0	 0.968595	 -1.887696	 1.026350	 -0.611384	 0.291134	 0.334377	 0.185952	 -0.270599	 0.113972	 0.937661	 7
1462501449.656	 0	 1.045846	 -2.117949	 1.134374	 -0.636819	 0.293152	 0.350095	 0.190526	 -0.280810	 0.118604	 0.933155	 7
1462501449.666	 0	 1.167840	 -2.380092	 1.261962	 -0.664985	 0.294727	 0.367483	 0.195443	 -0.292070	 0.123712	 0.928005	 7
1462501449.676	 0	 1.340961	 -2.661543	 1.387858	 -0.696570	 0.296248	 0.387027	 0.201046	 -0.304571	 0.129355	 0.922000	 7
1462501449.686	 0	 1.542674	 -2.959297	 1.477118	 -0.731763	 0.297971	 0.408772	 0.207536	 -0.318312	 0.135431	 0.915022	 7
1462501449.696	 0	 1.732534	 -3.226643	 1.501754	 -0.770448	 0.299993	 0.432301	 0.214947	 -0.333201	 0.141676	 0.907030	 7
1462501449.706	 0	 1.888568	 -3.404732	 1.501940	 -0.811700	 0.302156	 0.457246	 0.223137	 -0.348808	 0.147982	 0.898134	 7
1462501449.716	 0	 1.992867	 -3.734383	 1.554454	 -0.856110	 0.303783	 0.483378	 0.231863	 -0.365450	 0.154258	 0.888195	 7
1462501449.726	 0	 2.154764	 -4.128573	 1.677274	 -0.904913	 0.304156	 0.511425	 0.241119	 -0.383617	 0.160782	 0.876840	 7
1462501449.736	 0	 2.371730	 -4.635471	 1.826272	 -0.959072	 0.303440	 0.542065	 0.251298	 -0.403519	 0.167616	 0.863671	 7
1462501449.746	 0	 2.664163	 -5.182149	 1.946532	 -1.019489	 0.301477	 0.575708	 0.262641	 -0.425360	 0.174733	 0.848267	 7
1462501449.756	 0	 3.029259	 -5.689860	 2.043073	 -1.086087	 0.298456	 0.612880	 0.275508	 -0.448797	 0.182150	 0.830360	 7
1462501449.766	 0	 3.411351	 -6.194602	 2.116048	 -1.158678	 0.293922	 0.653623	 0.289910	 -0.473567	 0.189821	 0.809725	 7
1462501449.776	 0	 3.810485	 -6.684689	 2.163432	 -1.236952	 0.287382	 0.697850	 0.305823	 -0.499352	 0.197665	 0.786160	 7
1462501449.786	 0	 4.201895	 -7.196305	 2.172315	 -1.320866	 0.278389	 0.745301	 0.323242	 -0.525935	 0.205474	 0.759399	 7
1462501449.796	 0	 4.533674	 -7.684310	 2.186201	 -1.409957	 0.266131	 0.795186	 0.341859	 -0.553062	 0.213026	 0.729297	 7
1462501449.806	 0	 4.794537	 -8.066651	 2.221936	 -1.502782	 0.249559	 0.846428	 0.361103	 -0.580238	 0.220312	 0.695982	 7
1462501449.816	 0	 4.967262	 -8.354092	 2.255059	 -1.597785	 0.228106	 0.897600	 0.380413	 -0.606984	 0.227193	 0.659727	 7
1462501449.826	 0	 5.076603	 -8.514688	 2.300572	 -1.693236	 0.201516	 0.947395	 0.399269	 -0.632784	 0.233647	 0.620949	 7
1462501449.836	 0	 5.137160	 -8.590228	 2.321723	 -1.787749	 0.169999	 0.994786	 0.417322	 -0.657205	 0.239638	 0.580084	 7
1462501449.846	 0	 5.153856	 -8.622599	 2.264791	 -1.880639	 0.134548	 1.039079	 0.434524	 -0.679901	 0.244893	 0.537541	 7
1462501449.856	 0	 5.116371	 -8.588990	 2.190827	 -1.971355	 0.096018	 1.079750	 0.450760	 -0.700631	 0.249253	 0.493766	 7
1462501449.866	 0	 5.038938	 -8.459259	 2.155406	 -2.059073	 0.054768	 1.116221	 0.465682	 -0.719264	 0.252842	 0.449300	 7
1462501449.876	 0	 4.943922	 -8.246216	 2.161413	 -2.143167	 0.011037	 1.148174	 0.479003	 -0.735767	 0.255913	 0.404613	 7
1462501449.886	 0	 4.815184	 -7.962697	 2.191817	 -2.223215	 -0.034694	 1.175281	 0.490497	 -0.750190	 0.258625	 0.360195	 7
1462501449.896	 0	 4.676889	 -7.651650	 2.201244	 -2.299230	 -0.081641	 1.197611	 0.500186	 -0.762598	 0.261015	 0.316431	 7
1462501449.906	 0	 4.569411	 -7.348310	 2.186884	 -2.371557	 -0.129243	 1.215686	 0.508275	 -0.773050	 0.263172	 0.273480	 7
1462501449.916	 0	 4.486434	 -7.047233	 2.163764	 -2.440607	 -0.177198	 1.229996	 0.514939	 -0.781638	 0.265204	 0.231401	 7
1462501449.926	 0	 4.400434	 -6.711022	 2.144195	 -2.506451	 -0.225210	 1.240725	 0.520214	 -0.788484	 0.267234	 0.190411	 7
1462501449.936	 0	 4.299675	 -6.328043	 2.114532	 -2.568891	 -0.272858	 1.248039	 0.524126	 -0.793704	 0.269384	 0.150859	 7
1462501449.946	 0	 4.186155	 -5.914364	 2.059687	 -2.627867	 -0.319642	 1.252231	 0.526792	 -0.797429	 0.271698	 0.113036	 7
1462501449.956	 0	 4.101435	 -5.511339	 2.014084	 -2.683634	 -0.365469	 1.253585	 0.528323	 -0.799834	 0.274256	 0.076971	 7
1462501449.966	 0	 4.049985	 -5.020545	 1.911457	 -2.735098	 -0.410500	 1.252973	 0.528854	 -0.800884	 0.277570	 0.043050	 7
1462501449.976	 0	 3.945429	 -4.777829	 1.898639	 -2.784644	 -0.454444	 1.249901	 0.528531	 -0.800993	 0.280986	 0.010570	 7
1462501449.986	 0	 3.790296	 -4.660158	 1.928795	 -2.834450	 -0.496897	 1.243548	 0.527373	 -0.800525	 0.283892	 -0.021024	 7
1462501449.996	 0	 3.626964	 -4.522867	 2.021018	 -2.885120	 -0.537650	 1.233258	 0.525230	 -0.799715	 0.286203	 -0.051746	 7
1462501450.006	 0	 3.475825	 -4.335227	 2.167958	 -2.936918	 -0.576696	 1.218276	 0.521843	 -0.798790	 0.288040	 -0.081528	 7
1462501450.016	 0	 3.359941	 -4.079078	 2.242757	 -2.989184	 -0.613961	 1.199005	 0.517300	 -0.797715	 0.289709	 -0.110089	 7
1462501450.026	 0	 3.312210	 -3.764340	 2.210931	 -3.040726	 -0.649724	 1.176866	 0.511973	 -0.796232	 0.291676	 -0.137197	 7
1462501450.036	 0	 3.277244	 -3.407535	 2.118637	 -3.090588	 -0.684124	 1.152820	 0.506103	 -0.794256	 0.294234	 -0.162615	 7
1462501450.046	 0	 3.252072	 -2.986091	 1.997018	 -3.137905	 -0.717228	 1.127454	 0.499800	 -0.791841	 0.297592	 -0.186081	 7
1462501450.056	 0	 3.243032	 -2.527559	 1.862814	 3.101230	 -0.749319	 1.101128	 0.493072	 -0.789087	 0.301990	 -0.207422	 7
1462501450.066	 0	 3.217973	 -2.058459	 1.712862	 3.060831	 -0.780448	 1.074197	 0.485990	 -0.786101	 0.307466	 -0.226547	 7
1462501450.076	 0	 3.167401	 -1.593320	 1.592936	 3.024082	 -0.810482	 1.046648	 0.478545	 -0.783067	 0.313917	 -0.243429	 7
1462501450.086	 0	 3.118658	 -1.189903	 1.469223	 2.990579	 -0.839490	 1.018544	 0.470792	 -0.780049	 0.321213	 -0.258266	 7
1462501450.096	 0	 3.066422	 -0.850274	 1.348144	 2.959854	 -0.867590	 0.990134	 0.462870	 -0.777020	 0.329208	 -0.271318	 7
1462501450.106	 0	 2.985242	 -0.570901	 1.266190	 2.931111	 -0.894579	 0.961124	 0.454783	 -0.774074	 0.337628	 -0.282825	 7
1462501450.116	 0	 2.881376	 -0.383707	 1.224074	 2.903219	 -0.920201	 0.931124	 0.446566	 -0.771263	 0.346136	 -0.293126	 7
1462501450.126	 0	 2.758120	 -0.271652	 1.226190	 2.874922	 -0.944138	 0.899548	 0.438215	 -0.768651	 0.354394	 -0.302570	 7
1462501450.136	 0	 2.662130	 -0.253344	 1.218670	 2.845263	 -0.966511	 0.866291	 0.429852	 -0.766115	 0.362266	 -0.311542	 7
1462501450.146	 0	 2.600755	 -0.325861	 1.167373	 2.813652	 -0.987758	 0.831824	 0.421756	 -0.763369	 0.369745	 -0.320433	 7
1462501450.156	 0	 2.561698	 -0.418648	 1.116759	 2.779744	 -1.008132	 0.796203	 0.414025	 -0.760284	 0.376872	 -0.329422	 7
1462501450.166	 0	 2.564432	 -0.474340	 1.065060	 2.743483	 -1.027903	 0.759020	 0.406532	 -0.756861	 0.383832	 -0.338476	 7
1462501450.176	 0	 2.594010	 -0.489737	 1.007108	 2.705019	 -1.047436	 0.720044	 0.399194	 -0.753062	 0.390868	 -0.347512	 7
1462501450.186	 0	 2.563204	 -0.438774	 0.982272	 2.664655	 -1.066178	 0.678903	 0.391846	 -0.749144	 0.397897	 -0.356255	 7
1462501450.196	 0	 2.517434	 -0.369873	 0.931125	 2.623198	 -1.085438	 0.636148	 0.384587	 -0.744787	 0.405535	 -0.364590	 7
1462501450.206	 0	 2.458671	 -0.318157	 0.852186	 2.580812	 -1.102190	 0.592144	 0.377460	 -0.740783	 0.412492	 -0.372311	 7
1462501450.216	 0	 2.378513	 -0.272798	 0.768045	 2.538169	 -1.117875	 0.547701	 0.370633	 -0.736742	 0.419331	 -0.379479	 7
1462501450.226	 0	 2.363893	 -0.337379	 0.656732	 2.494412	 -1.133002	 0.502650	 0.364237	 -0.732420	 0.426121	 -0.386411	 7
1462501450.236	 0	 2.376451	 -0.502199	 0.520817	 2.447881	 -1.148815	 0.456595	 0.358594	 -0.727231	 0.433133	 -0.393627	 7
1462501450.246	 0	 2.340240	 -0.648364	 0.444103	 2.398754	 -1.163498	 0.409614	 0.353598	 -0.721702	 0.439646	 -0.401032	 7
1462501450.256	 0	 2.267101	 -0.732493	 0.400260	 2.347028	 -1.177098	 0.361249	 0.349083	 -0.715903	 0.445777	 -0.408542	 7
1462501450.266	 0	 2.112458	 -0.702340	 0.389098	 2.294687	 -1.188972	 0.312438	 0.344849	 -0.710262	 0.451433	 -0.415712	 7
1462501450.276	 0	 1.950993	 -0.524415	 0.365516	 2.244297	 -1.198826	 0.264616	 0.340708	 -0.705170	 0.456638	 -0.422060	 7
1462501450.286	 0	 1.821489	 -0.112754	 0.319317	 2.198617	 -1.207470	 0.217986	 0.336113	 -0.701000	 0.462104	 -0.426716	 7
1462501450.296	 0	 1.677306	 0.315239	 0.319227	 2.158443	 -1.214591	 0.172864	 0.330844	 -0.698003	 0.467740	 -0.429597	 7
1462501450.306	 0	 1.609518	 0.711631	 0.245705	 2.123635	 -1.221083	 0.129194	 0.324969	 -0.695955	 0.473823	 -0.430736	 7
1462501450.316	 0	 1.579757	 1.030221	 0.165799	 2.092835	 -1.227630	 0.086287	 0.318636	 -0.694522	 0.480481	 -0.430404	 7
1462501450.326	 0	 1.585744	 1.215922	 0.108858	 2.063855	 -1.234222	 0.043049	 0.311956	 -0.693428	 0.487554	 -0.429107	 7
1462501450.336	 0	 1.658158	 1.263938	 0.012755	 2.033915	 -1.241404	 -0.001978	 0.305215	 -0.692168	 0.495086	 -0.427360	 7
1462501450.346	 0	 1.729947	 1.189555	 -0.095138	 2.001111	 -1.249452	 -0.049388	 0.298781	 -0.690368	 0.502992	 -0.425583	 7
1462501450.356	 0	 1.769516	 1.016826	 -0.137589	 1.964267	 -1.257704	 -0.099405	 0.292788	 -0.687981	 0.510915	 -0.424173	 7
1462501450.366	 0	 1.756922	 0.812846	 -0.110602	 1.922809	 -1.265277	 -0.151953	 0.287256	 -0.685083	 0.518481	 -0.423466	 7
1462501450.376	 0	 1.677811	 0.772563	 -0.005607	 1.879337	 -1.271132	 -0.205551	 0.281771	 -0.682222	 0.525464	 -0.423162	 7
1462501450.386	 0	 1.561444	 0.873880	 0.131701	 1.837159	 -1.274724	 -0.258500	 0.275846	 -0.679933	 0.531858	 -0.422761	 7
1462501450.396	 0	 1.426088	 1.007288	 0.286525	 1.798346	 -1.275894	 -0.309225	 0.269322	 -0.678417	 0.537620	 -0.422115	 7
1462501450.406	 0	 1.306540	 1.119197	 0.416499	 1.763806	 -1.274894	 -0.356792	 0.262237	 -0.677642	 0.542782	 -0.421214	 7
1462501450.416	 0	 1.234283	 1.093611	 0.525597	 1.731836	 -1.272189	 -0.401805	 0.254903	 -0.677208	 0.547399	 -0.420439	 7
1462501450.426	 0	 1.208406	 0.971937	 0.603557	 1.700539	 -1.268116	 -0.445115	 0.247600	 -0.676740	 0.551522	 -0.420167	 7
1462501450.436	 0	 1.247096	 0.806935	 0.599553	 1.667802	 -1.263491	 -0.488313	 0.240608	 -0.675838	 0.555463	 -0.420491	 7
1462501450.446	 0	 1.248441	 0.707428	 0.518683	 1.634706	 -1.259108	 -0.530683	 0.234128	 -0.674520	 0.559411	 -0.421031	 7
1462501450.456	 0	 1.164031	 0.747559	 0.445188	 1.604594	 -1.255077	 -0.569980	 0.228023	 -0.673240	 0.563292	 -0.421255	 7
1462501450.466	 0	 0.989735	 0.959220	 0.375138	 1.581781	 -1.251374	 -0.603455	 0.221977	 -0.672645	 0.566964	 -0.420508	 7
1462501450.476	 0	 0.799418	 1.163522	 0.310487	 1.567468	 -1.248148	 -0.630322	 0.215926	 -0.672940	 0.570352	 -0.418600	 7
1462501450.486	 0	 0.655430	 1.229468	 0.252672	 1.559308	 -1.245424	 -0.651830	 0.210097	 -0.673812	 0.573409	 -0.415979	 7
1462501450.496	 0	 0.604489	 1.112198	 0.194473	 1.552852	 -1.243253	 -0.670835	 0.204807	 -0.674661	 0.576240	 -0.413320	 7
1462501450.506	 0	 0.577563	 0.854705	 0.169930	 1.545073	 -1.241385	 -0.688789	 0.200356	 -0.675054	 0.578783	 -0.411304	 7
1462501450.516	 0	 0.568121	 0.670662	 0.160840	 1.535690	 -1.239580	 -0.706213	 0.196576	 -0.675019	 0.581077	 -0.409947	 7
1462501450.526	 0	 0.516401	 0.591880	 0.129650	 1.526427	 -1.237972	 -0.722429	 0.193244	 -0.674841	 0.583186	 -0.408827	 7
1462501450.536	 0	 0.399854	 0.586539	 0.079458	 1.519948	 -1.236837	 -0.735458	 0.190347	 -0.674861	 0.585011	 -0.407545	 7
1462501450.546	 0	 0.266488	 0.618540	 0.043645	 1.517111	 -1.232163	 -0.744880	 0.186371	 -0.675539	 0.585794	 -0.407134	 7
1462501450.556	 0	 0.129857	 0.613607	 0.041591	 1.518789	 -1.231670	 -0.749661	 0.184091	 -0.676361	 0.586830	 -0.405312	 7
1462501450.566	 0	 0.061457	 0.572499	 0.065251	 1.522621	 -1.231077	 -0.751790	 0.182039	 -0.677376	 0.587501	 -0.403566	 7
1462501450.576	 0	 0.006089	 0.521217	 0.157977	 1.527529	 -1.229755	 -0.752255	 0.179980	 -0.678509	 0.587794	 -0.402159	 7
1462501450.586	 0	 -0.024469	 0.466653	 0.280494	 1.512975	 -1.204697	 -0.770304	 0.169373	 -0.678947	 0.585537	 -0.409256	 7
1462501450.596	 0	 0.023609	 0.379090	 0.398626	 1.517354	 -1.200997	 -0.769944	 0.166917	 -0.680063	 0.585146	 -0.408972	 7
1462501450.606	 0	 0.106539	 0.239093	 0.487191	 1.518590	 -1.196280	 -0.771594	 0.164340	 -0.680770	 0.584706	 -0.409467	 7
1462501450.616	 0	 0.190099	 0.060338	 0.511444	 1.516059	 -1.191104	 -0.775451	 0.161951	 -0.680906	 0.584325	 -0.410734	 7
1462501450.626	 0	 0.238405	 -0.102912	 0.476576	 1.478648	 -1.176693	 -0.810240	 0.155989	 -0.676758	 0.585938	 -0.417544	 7
1462501450.636	 0	 0.190454	 -0.244826	 0.394675	 1.472514	 -1.172336	 -0.814612	 0.154754	 -0.676029	 0.585609	 -0.419640	 7
1462501450.646	 0	 0.067275	 -0.249508	 0.285931	 1.468223	 -1.169125	 -0.816385	 0.154264	 -0.675416	 0.585087	 -0.421531	 7
1462501450.656	 0	 -0.071108	 -0.070260	 0.160912	 1.468372	 -1.167214	 -0.814947	 0.154023	 -0.675426	 0.584460	 -0.422472	 7
1462501450.666	 0	 -0.192668	 0.099161	 -0.006004	 1.461767	 -1.178783	 -0.820955	 0.158068	 -0.673965	 0.587219	 -0.419475	 7
1462501450.676	 0	 -0.260012	 0.205657	 -0.161094	 1.469226	 -1.180272	 -0.814837	 0.158474	 -0.674971	 0.586786	 -0.418308	 7
1462501450.686	 0	 -0.272851	 0.313193	 -0.297465	 1.478038	 -1.183169	 -0.808413	 0.159092	 -0.676154	 0.586651	 -0.416349	 7
1462501450.696	 0	 -0.297218	 0.441183	 -0.404769	 1.488356	 -1.187223	 -0.801654	 0.159793	 -0.677538	 0.586790	 -0.413626	 7
1462501450.706	 0	 -0.350128	 0.564473	 -0.438332	 1.501262	 -1.191810	 -0.793515	 0.160390	 -0.679281	 0.586970	 -0.410267	 7
1462501450.716	 0	 -0.354082	 0.597745	 -0.398554	 1.515551	 -1.196142	 -0.784552	 0.160770	 -0.681212	 0.587078	 -0.406747	 7
1462501450.726	 0	 -0.344687	 0.495050	 -0.329251	 1.529316	 -1.199780	 -0.775507	 0.161089	 -0.683032	 0.587029	 -0.403626	 7
1462501450.746	 1	 -0.256486	 -0.165656	 -0.175237	 1.546525	 -1.204644	 -0.759385	 0.163250	 -0.684839	 0.586105	 -0.401031	 7
1462501450.756	 1	 -0.245769	 -0.642949	 -0.133944	 1.547627	 -1.206124	 -0.752648	 0.165747	 -0.684395	 0.585128	 -0.402190	 7
1462501450.766	 1	 -0.301795	 -1.219165	 -0.120700	 1.544480	 -1.207397	 -0.744730	 0.169815	 -0.682998	 0.583511	 -0.405205	 7
1462501450.776	 1	 -0.495055	 -1.602278	 -0.228093	 1.540064	 -1.209480	 -0.732702	 0.175924	 -0.680896	 0.581083	 -0.409602	 7
1462501450.786	 1	 -0.754114	 -1.508246	 -0.272922	 1.543033	 -1.212416	 -0.713144	 0.182731	 -0.679515	 0.577900	 -0.413400	 7
1462501450.796	 1	 -0.943473	 -1.357924	 -0.300781	 1.552794	 -1.215495	 -0.687737	 0.189608	 -0.678909	 0.574152	 -0.416510	 7
1462501450.806	 1	 -1.140013	 -0.928842	 -0.318524	 1.571724	 -1.218804	 -0.656292	 0.196002	 -0.679517	 0.570097	 -0.418127	 7
1462501450.816	 1	 -1.310148	 -0.371857	 -0.288413	 1.601565	 -1.221549	 -0.619172	 0.201085	 -0.681783	 0.565890	 -0.417738	 7
1462501450.826	 1	 -1.383459	 -0.061205	 -0.307265	 1.638570	 -1.223860	 -0.578528	 0.205308	 -0.685100	 0.561699	 -0.415910	 7
1462501450.836	 1	 -1.314380	 -0.042946	 -0.401484	 1.676216	 -1.226416	 -0.538186	 0.209453	 -0.688398	 0.557840	 -0.413585	 7
1462501450.846	 1	 -1.133465	 -0.255118	 -0.545714	 1.709020	 -1.230025	 -0.501325	 0.214184	 -0.690760	 0.554600	 -0.411575	 7
1462501450.856	 1	 -0.882348	 -0.521694	 -0.683601	 1.733825	 -1.235021	 -0.470163	 0.219645	 -0.691734	 0.552161	 -0.410339	 7
1462501450.876	 2	 -0.470045	 -0.728556	 -0.882019	 1.763199	 -1.249108	 -0.424324	 0.231673	 -0.690331	 0.549784	 -0.409278	 7
1462501450.886	 2	 -0.421118	 -0.514048	 -0.909225	 1.775422	 -1.257119	 -0.405342	 0.237246	 -0.689249	 0.549488	 -0.408306	 7
1462501450.896	 2	 -0.556936	 -0.323482	 -0.939308	 1.793614	 -1.265195	 -0.382411	 0.242520	 -0.688786	 0.549197	 -0.406375	 7
1462501450.906	 2	 -0.806246	 -0.122883	 -0.805247	 1.821330	 -1.271725	 -0.351508	 0.247441	 -0.689417	 0.548146	 -0.403748	 7
1462501450.916	 2	 -1.024792	 0.187840	 -0.579840	 1.858562	 -1.275270	 -0.313646	 0.251317	 -0.691497	 0.546189	 -0.400436	 7
1462501450.926	 2	 -1.102800	 0.471195	 -0.404937	 1.901354	 -1.276176	 -0.273220	 0.253911	 -0.694732	 0.543808	 -0.396421	 7
1462501450.936	 2	 -1.048718	 0.535619	 -0.299298	 1.943330	 -1.275511	 -0.234913	 0.255691	 -0.698271	 0.541398	 -0.392335	 7
1462501450.946	 2	 -0.887923	 0.438559	 -0.271759	 1.979815	 -1.274484	 -0.201668	 0.257211	 -0.701361	 0.539262	 -0.388757	 7
1462501450.956	 2	 -0.654034	 0.277034	 -0.304074	 2.008209	 -1.274206	 -0.175311	 0.258757	 -0.703524	 0.537731	 -0.385934	 7
1462501450.966	 2	 -0.432205	 0.094925	 -0.392961	 2.029178	 -1.275428	 -0.154861	 0.260608	 -0.704618	 0.536916	 -0.383819	 7
1462501450.976	 2	 -0.273704	 -0.139332	 -0.511624	 2.044664	 -1.278334	 -0.137873	 0.263101	 -0.704670	 0.536647	 -0.382397	 7
1462501450.986	 2	 -0.170498	 -0.348937	 -0.625331	 2.042740	 -1.288594	 -0.135550	 0.266754	 -0.701528	 0.539336	 -0.381860	 7
1462501450.996	 2	 -0.096422	 -0.413560	 -0.706509	 2.053160	 -1.294176	 -0.120459	 0.270480	 -0.700132	 0.539701	 -0.381286	 7
1462501451.006	 2	 -0.077444	 -0.391891	 -0.790668	 2.064429	 -1.300611	 -0.104633	 0.274384	 -0.698533	 0.540359	 -0.380496	 7
1462501451.016	 2	 -0.161481	 -0.264616	 -0.874013	 2.080703	 -1.307457	 -0.084552	 0.278459	 -0.697128	 0.541084	 -0.379079	 7
1462501451.026	 2	 -0.309497	 0.021996	 -0.864729	 2.105440	 -1.313702	 -0.058443	 0.282158	 -0.696539	 0.541727	 -0.376499	 7
1462501451.036	 2	 -0.416771	 0.256107	 -0.745448	 2.136033	 -1.318276	 -0.028907	 0.285068	 -0.696883	 0.542094	 -0.373127	 7
1462501451.056	 3	 -0.272555	 0.770033	 -0.512782	 2.196720	 -1.323952	 0.022019	 0.287429	 -0.699256	 0.543362	 -0.364944	 7
1462501451.066	 3	 -0.120499	 1.101469	 -0.507825	 2.223938	 -1.327054	 0.039551	 0.286694	 -0.700810	 0.545191	 -0.359776	 7
1462501451.076	 3	 0.009129	 1.268609	 -0.580936	 2.251111	 -1.331322	 0.054779	 0.285316	 -0.702280	 0.547884	 -0.353867	 7
1462501451.086	 3	 0.079059	 1.246390	 -0.683002	 2.278305	 -1.337359	 0.069829	 0.284085	 -0.703185	 0.551286	 -0.347722	 7
1462501451.096	 3	 0.074886	 1.138135	 -0.799075	 2.309124	 -1.343645	 0.089493	 0.283423	 -0.703888	 0.554545	 -0.341604	 7
1462501451.116	 4	 0.023617	 0.780018	 -0.922393	 2.381399	 -1.357102	 0.144230	 0.284354	 -0.704264	 0.560543	 -0.330072	 7
1462501451.126	 4	 0.027835	 0.506971	 -0.879142	 2.417188	 -1.363316	 0.174955	 0.285846	 -0.703865	 0.562909	 -0.325575	 7
1462501451.136	 4	 0.068863	 0.306478	 -0.789710	 2.448660	 -1.369045	 0.203524	 0.287629	 -0.703104	 0.564929	 -0.322132	 7
1462501451.146	 4	 0.125310	 0.210148	 -0.703705	 2.475395	 -1.374436	 0.228470	 0.289346	 -0.702119	 0.566801	 -0.319445	 7
1462501451.156	 4	 0.183342	 0.252893	 -0.652656	 2.499311	 -1.379823	 0.250467	 0.290743	 -0.701045	 0.568791	 -0.316989	 7
1462501451.166	 4	 0.218551	 0.424489	 -0.589552	 2.522329	 -1.385126	 0.270062	 0.291468	 -0.700149	 0.571043	 -0.314242	 7
1462501451.176	 4	 0.217632	 0.613343	 -0.507854	 2.544560	 -1.389950	 0.286896	 0.291343	 -0.699638	 0.573466	 -0.311067	 7
1462501451.186	 4	 0.189442	 0.709450	 -0.466212	 2.565573	 -1.394359	 0.301248	 0.290611	 -0.699390	 0.575965	 -0.307675	 7
1462501451.196	 4	 0.129521	 0.653447	 -0.439567	 2.589335	 -1.397998	 0.318507	 0.290000	 -0.699350	 0.578147	 -0.304230	 7
1462501451.206	 4	 0.046939	 0.523241	 -0.387837	 2.612768	 -1.400648	 0.336663	 0.289698	 -0.699410	 0.579796	 -0.301226	 7
1462501451.216	 4	 -0.028100	 0.406855	 -0.333913	 2.635024	 -1.402282	 0.354803	 0.289654	 -0.699591	 0.580917	 -0.298677	 7
1462501451.226	 4	 -0.076511	 0.290297	 -0.293012	 2.655746	 -1.403134	 0.372598	 0.289888	 -0.699820	 0.581594	 -0.296590	 7
1462501451.236	 4	 -0.093723	 0.209957	 -0.231795	 2.673617	 -1.403466	 0.388427	 0.290239	 -0.700059	 0.581971	 -0.294938	 7
1462501451.246	 4	 -0.092213	 0.216724	 -0.160119	 2.610555	 -1.401617	 0.324516	 0.286136	 -0.700514	 0.581665	 -0.298452	 7
1462501451.256	 4	 -0.102582	 0.257376	 -0.131941	 2.622776	 -1.401451	 0.334401	 0.286036	 -0.700973	 0.581878	 -0.297049	 7
1462501451.266	 4	 -0.133400	 0.292500	 -0.140938	 2.636174	 -1.401028	 0.345109	 0.285874	 -0.701563	 0.582048	 -0.295474	 7
1462501451.276	 4	 -0.175063	 0.272508	 -0.127972	 2.650531	 -1.400241	 0.356810	 0.285772	 -0.702261	 0.582078	 -0.293852	 7
1462501451.286	 4	 -0.214561	 0.216433	 -0.093968	 2.627056	 -1.402659	 0.331711	 0.283900	 -0.701598	 0.583343	 -0.294741	 7
1462501451.296	 4	 -0.218133	 0.148283	 -0.106295	 2.640070	 -1.401230	 0.343236	 0.284090	 -0.702338	 0.582955	 -0.293559	 7
1462501451.306	 4	 -0.196209	 0.096720	 -0.167714	 2.654394	 -1.400157	 0.356679	 0.284599	 -0.702873	 0.582616	 -0.292458	 7
1462501451.316	 4	 -0.167835	 0.074750	 -0.252361	 2.671723	 -1.399682	 0.373461	 0.285435	 -0.703165	 0.582456	 -0.291258	 7
1462501451.326	 4	 -0.162709	 0.066822	 -0.312122	 2.673776	 -1.401701	 0.375397	 0.285576	 -0.702532	 0.583233	 -0.291092	 7
1462501451.336	 4	 -0.186282	 0.064610	 -0.333252	 2.696374	 -1.401540	 0.397673	 0.286807	 -0.702678	 0.583172	 -0.289649	 7
1462501451.346	 4	 -0.203282	 0.082720	 -0.336133	 2.719882	 -1.401148	 0.420748	 0.288055	 -0.702884	 0.583068	 -0.288113	 7
1462501451.356	 4	 -0.228554	 0.143519	 -0.322558	 2.743685	 -1.400423	 0.443611	 0.289148	 -0.703239	 0.582944	 -0.286398	 7
1462501451.366	 4	 -0.274114	 0.183123	 -0.301493	 2.748687	 -1.400827	 0.447456	 0.289043	 -0.703268	 0.583271	 -0.285769	 7
1462501451.376	 4	 -0.313496	 0.176043	 -0.267112	 2.771884	 -1.399027	 0.469162	 0.289919	 -0.704014	 0.582854	 -0.283889	 7
1462501451.386	 4	 -0.330657	 0.129540	 -0.233291	 2.792879	 -1.396802	 0.489026	 0.290819	 -0.704821	 0.582246	 -0.282206	 7
1462501451.396	 4	 -0.307743	 0.069132	 -0.202529	 2.810791	 -1.394528	 0.506374	 0.291759	 -0.705550	 0.581550	 -0.280846	 7
1462501451.406	 4	 -0.272604	 0.032955	 -0.188238	 2.815323	 -1.395434	 0.510917	 0.292026	 -0.705231	 0.581917	 -0.280609	 7
1462501451.416	 4	 -0.256706	 0.017946	 -0.198108	 2.830382	 -1.393582	 0.526004	 0.293010	 -0.705730	 0.581306	 -0.279596	 7
1462501451.426	 4	 -0.255758	 0.012454	 -0.221614	 2.846132	 -1.391778	 0.541885	 0.294091	 -0.706176	 0.580718	 -0.278554	 7
1462501451.436	 4	 -0.270783	 0.018673	 -0.250201	 2.863264	 -1.389911	 0.559135	 0.295274	 -0.706613	 0.580139	 -0.277399	 7
1462501451.446	 4	 -0.302698	 0.043154	 -0.260367	 2.885582	 -1.390820	 0.581326	 0.296598	 -0.706127	 0.580714	 -0.276016	 7
1462501451.456	 4	 -0.336663	 0.094204	 -0.274517	 2.905051	 -1.388302	 0.600307	 0.297772	 -0.706786	 0.580048	 -0.274463	 7
1462501451.466	 4	 -0.372692	 0.169640	 -0.300146	 2.926259	 -1.385419	 0.620332	 0.298861	 -0.707610	 0.579391	 -0.272536	 7
1462501451.476	 4	 -0.416282	 0.216464	 -0.314251	 2.948853	 -1.382086	 0.641217	 0.299918	 -0.708596	 0.578692	 -0.270290	 7
1462501451.486	 4	 -0.431150	 0.219746	 -0.306628	 2.968395	 -1.380797	 0.658965	 0.300641	 -0.708965	 0.578755	 -0.268378	 7
1462501451.496	 4	 -0.382084	 0.201632	 -0.291237	 2.988877	 -1.377339	 0.677706	 0.301622	 -0.709952	 0.578049	 -0.266180	 7
1462501451.506	 4	 -0.280779	 0.156909	 -0.257365	 3.006197	 -1.374675	 0.693647	 0.302494	 -0.710661	 0.577563	 -0.264347	 7
1462501451.516	 4	 -0.168810	 0.107923	 -0.220429	 3.020017	 -1.373025	 0.706514	 0.303218	 -0.711039	 0.577350	 -0.262963	 7
1462501451.526	 4	 -0.084472	 0.073806	 -0.193749	 3.020399	 -1.379348	 0.706505	 0.302549	 -0.709159	 0.579738	 -0.263554	 7
1462501451.536	 4	 -0.025828	 0.067217	 -0.198584	 3.031380	 -1.379191	 0.717011	 0.303105	 -0.709061	 0.579961	 -0.262688	 7
1462501451.546	 4	 0.003113	 0.090563	 -0.194356	 3.042320	 -1.379380	 0.727314	 0.303566	 -0.708875	 0.580339	 -0.261822	 7
1462501451.556	 4	 0.009861	 0.141785	 -0.168359	 3.052578	 -1.379631	 0.736454	 0.303803	 -0.708752	 0.580794	 -0.260871	 7
1462501451.566	 4	 0.006978	 0.172837	 -0.138179	 3.050769	 -1.383769	 0.733298	 0.302806	 -0.707739	 0.582439	 -0.261110	 7
1462501451.576	 4	 0.008167	 0.170946	 -0.105169	 3.058457	 -1.383938	 0.739356	 0.302693	 -0.707773	 0.582875	 -0.260176	 7
1462501451.586	 4	 0.018758	 0.131751	 -0.078981	 3.064298	 -1.384162	 0.743836	 0.302553	 -0.707786	 0.583258	 -0.259443	 7
1462501451.596	 4	 0.037742	 0.072236	 -0.064780	 3.068593	 -1.384541	 0.747320	 0.302494	 -0.707701	 0.583593	 -0.258989	 7
1462501451.606	 4	 0.054590	 0.009497	 -0.054846	 3.068734	 -1.387377	 0.747316	 0.302158	 -0.706863	 0.584642	 -0.259305	 7
1462501451.616	 4	 0.065094	 -0.030908	 -0.048919	 3.070912	 -1.388046	 0.749770	 0.302319	 -0.706572	 0.584895	 -0.259339	 7
1462501451.626	 4	 0.053372	 -0.020298	 -0.057244	 3.073393	 -1.388664	 0.752553	 0.302511	 -0.706286	 0.585133	 -0.259358	 7
1462501451.636	 4	 0.018183	 -0.002218	 -0.071690	 3.076912	 -1.388991	 0.756203	 0.302735	 -0.706091	 0.585310	 -0.259226	 7
1462501451.646	 4	 -0.027635	 0.020168	 -0.082800	 3.078723	 -1.389428	 0.757986	 0.302788	 -0.705924	 0.585511	 -0.259167	 7
1462501451.656	 4	 -0.071330	 0.035167	 -0.085477	 3.083865	 -1.388868	 0.762889	 0.303074	 -0.706016	 0.585453	 -0.258712	 7
1462501451.666	 4	 -0.103334	 0.036334	 -0.084122	 3.089062	 -1.387958	 0.767815	 0.303392	 -0.706214	 0.585277	 -0.258196	 7
1462501451.676	 4	 -0.116104	 0.038546	 -0.077596	 3.094011	 -1.386849	 0.772468	 0.303710	 -0.706479	 0.585030	 -0.257658	 7
1462501451.686	 4	 -0.101174	 0.018329	 -0.070436	 3.091766	 -1.389872	 0.770151	 0.303212	 -0.705635	 0.586073	 -0.258187	 7
1462501451.696	 4	 -0.071378	 -0.007219	 -0.061342	 3.095410	 -1.389115	 0.773870	 0.303542	 -0.705768	 0.585875	 -0.257887	 7
1462501451.706	 4	 -0.037316	 -0.031732	 -0.054406	 3.098331	 -1.388682	 0.777097	 0.303874	 -0.705784	 0.585747	 -0.257741	 7
1462501451.716	 4	 -0.007432	 -0.042358	 -0.040910	 3.100377	 -1.388557	 0.779587	 0.304167	 -0.705706	 0.585693	 -0.257731	 7
1462501451.726	 4	 0.016169	 -0.029665	 -0.038845	 3.094010	 -1.392374	 0.773725	 0.303534	 -0.704631	 0.586848	 -0.258787	 7
1462501451.736	 4	 0.030125	 -0.014792	 -0.035630	 3.095824	 -1.392660	 0.775751	 0.303684	 -0.704472	 0.586964	 -0.258782	 7
1462501451.746	 4	 0.039804	 -0.006250	 -0.027109	 3.097259	 -1.393054	 0.777305	 0.303765	 -0.704304	 0.587122	 -0.258788	 7
1462501451.756	 4	 0.054809	 0.006477	 -0.026056	 3.098579	 -1.393570	 0.778624	 0.303783	 -0.704120	 0.587336	 -0.258781	 7
1462501451.766	 4	 0.063436	 0.019189	 -0.028129	 3.094361	 -1.396720	 0.774347	 0.303160	 -0.703276	 0.588376	 -0.259444	 7
1462501451.776	 4	 0.053829	 0.020266	 -0.030167	 3.096131	 -1.397303	 0.775938	 0.303133	 -0.703088	 0.588646	 -0.259371	 7
1462501451.786	 4	 0.048479	 0.024474	 -0.038607	 3.098287	 -1.397814	 0.777894	 0.303128	 -0.702918	 0.588901	 -0.259259	 7
1462501451.806	 5	 0.064633	 0.041507	 -0.028987	 3.099456	 -1.400769	 0.778466	 0.302645	 -0.702094	 0.590058	 -0.259427	 7
1462501451.816	 5	 0.087163	 0.042712	 -0.000396	 3.100141	 -1.401578	 0.778728	 0.302442	 -0.701899	 0.590415	 -0.259376	 7
1462501451.826	 5	 0.130002	 0.049190	 0.030198	 3.098953	 -1.402755	 0.777041	 0.302066	 -0.701645	 0.590874	 -0.259458	 7
1462501451.836	 5	 0.167467	 0.049287	 0.058648	 3.095913	 -1.404319	 0.773447	 0.301525	 -0.701321	 0.591438	 -0.259677	 7
1462501451.846	 5	 0.186739	 0.055671	 0.067074	 3.089080	 -1.405988	 0.766056	 0.300768	 -0.701040	 0.591965	 -0.260113	 7
1462501451.856	 5	 0.182540	 0.074791	 0.061959	 3.085266	 -1.407796	 0.761491	 0.300097	 -0.700680	 0.592631	 -0.260340	 7
1462501451.866	 5	 0.154770	 0.081156	 0.048405	 3.082294	 -1.409390	 0.757658	 0.299461	 -0.700382	 0.593255	 -0.260456	 7
1462501451.876	 5	 0.111953	 0.070500	 0.028429	 3.080499	 -1.410605	 0.755093	 0.298963	 -0.700161	 0.593754	 -0.260483	 7
1462501451.886	 5	 0.063800	 0.051462	 0.023343	 3.079356	 -1.410128	 0.753353	 0.298744	 -0.700418	 0.593639	 -0.260304	 7
1462501451.896	 5	 0.015557	 0.011133	 0.015927	 3.078398	 -1.410390	 0.752151	 0.298580	 -0.700393	 0.593746	 -0.260317	 7
1462501451.906	 5	 -0.022020	 -0.026077	 0.003119	 3.077815	 -1.410251	 0.751744	 0.298625	 -0.700420	 0.593663	 -0.260382	 7
1462501451.916	 5	 -0.046731	 -0.044232	 -0.017084	 3.078315	 -1.409857	 0.752671	 0.298844	 -0.700468	 0.593476	 -0.260431	 7
1462501451.926	 5	 -0.069258	 -0.054950	 -0.037240	 3.080659	 -1.410152	 0.755568	 0.299131	 -0.700250	 0.593555	 -0.260508	 7
1462501451.936	 5	 -0.082148	 -0.052955	 -0.060556	 3.083805	 -1.409376	 0.759307	 0.299591	 -0.700336	 0.593261	 -0.260414	 7
1462501451.956	 6	 -0.057402	 -0.011538	 -0.059320	 3.091833	 -1.408044	 0.768010	 0.300407	 -0.700481	 0.592858	 -0.260004	 7
1462501451.966	 6	 -0.028395	 0.010798	 -0.046566	 3.091658	 -1.409824	 0.767877	 0.300212	 -0.699937	 0.593483	 -0.260267	 7
1462501451.976	 6	 0.010212	 0.042663	 -0.037014	 3.094377	 -1.409848	 0.770281	 0.300243	 -0.699923	 0.593587	 -0.260032	 7
1462501451.986	 6	 0.048771	 0.068114	 -0.031784	 3.096911	 -1.410254	 0.772217	 0.300122	 -0.699838	 0.593860	 -0.259775	 7
1462501451.996	 6	 0.076575	 0.078683	 -0.029797	 3.099369	 -1.410979	 0.773920	 0.299905	 -0.699682	 0.594265	 -0.259521	 7
1462501452.006	 6	 0.090474	 0.086062	 -0.033038	 3.099102	 -1.411990	 0.772868	 0.299500	 -0.699498	 0.594720	 -0.259440	 7
1462501452.016	 6	 0.086208	 0.095570	 -0.043570	 3.102330	 -1.412883	 0.775201	 0.299253	 -0.699297	 0.595218	 -0.259128	 7
1462501452.026	 6	 0.072379	 0.119944	 -0.061341	 3.106810	 -1.413675	 0.778593	 0.299013	 -0.699129	 0.595729	 -0.258681	 7
1462501452.036	 6	 0.039302	 0.135867	 -0.079023	 3.112773	 -1.414193	 0.783281	 0.298814	 -0.699042	 0.596198	 -0.258066	 7
1462501452.046	 6	 -0.008812	 0.134840	 -0.093520	 3.115114	 -1.412591	 0.784381	 0.298692	 -0.699663	 0.595840	 -0.257350	 7
1462501452.056	 6	 -0.063372	 0.111556	 -0.099656	 3.122539	 -1.412113	 0.790702	 0.298748	 -0.699817	 0.595969	 -0.256567	 7
1462501452.066	 6	 -0.105149	 0.071323	 -0.091141	 3.129260	 -1.411173	 0.796679	 0.298953	 -0.700067	 0.595876	 -0.255860	 7
1462501452.076	 6	 -0.126705	 0.019329	 -0.082911	 3.134880	 -1.409952	 0.802042	 0.299308	 -0.700349	 0.595603	 -0.255310	 7
1462501452.086	 6	 -0.130065	 -0.022096	 -0.075789	 3.133812	 -1.409056	 0.801242	 0.299458	 -0.700600	 0.595230	 -0.255314	 7
1462501452.096	 6	 -0.128034	 -0.051816	 -0.066491	 3.137653	 -1.407775	 0.805595	 0.300001	 -0.700820	 0.594801	 -0.255074	 7
1462501452.106	 6	 -0.133491	 -0.077328	 -0.066681	 3.141000	 -1.406458	 0.809701	 0.300612	 -0.701022	 0.594318	 -0.254925	 7
1462501452.116	 7	 -0.146472	 -0.106078	 -0.076428	 -3.138787	 -1.405031	 0.814145	 0.301343	 -0.701210	 0.593763	 -0.254838	 7
1462501452.136	 7	 -0.148708	 -0.136955	 -0.079860	 -3.141322	 -1.404793	 0.814498	 0.302250	 -0.700904	 0.593252	 -0.255795	 7
1462501452.146	 7	 -0.119780	 -0.130505	 -0.058736	 -3.138756	 -1.403503	 0.818440	 0.303036	 -0.701018	 0.592684	 -0.255869	 7
1462501452.156	 7	 -0.062997	 -0.113394	 -0.022836	 -3.138007	 -1.402711	 0.820393	 0.303601	 -0.701051	 0.592271	 -0.256064	 7
1462501452.166	 7	 0.014154	 -0.093177	 0.011887	 3.133827	 -1.406573	 0.810158	 0.302887	 -0.700000	 0.593218	 -0.257590	 7
1462501452.176	 7	 0.093277	 -0.078367	 0.032651	 3.131278	 -1.407322	 0.808401	 0.302934	 -0.699714	 0.593321	 -0.258072	 7
1462501452.196	 8	 0.175526	 -0.068979	 0.040548	 3.124467	 -1.410382	 0.802993	 0.302684	 -0.698738	 0.594064	 -0.259298	 7
1462501452.206	 8	 0.177746	 -0.036187	 0.017404	 3.117278	 -1.413234	 0.796295	 0.302133	 -0.697960	 0.594851	 -0.260232	 7
1462501452.216	 8	 0.159665	 0.004047	 -0.015103	 3.117389	 -1.414885	 0.796468	 0.301959	 -0.697451	 0.595426	 -0.260482	 7
1462501452.226	 8	 0.124561	 0.044425	 -0.034671	 3.119516	 -1.416233	 0.798279	 0.301792	 -0.697049	 0.595985	 -0.260474	 7
1462501452.236	 8	 0.093773	 0.074331	 -0.029862	 3.122167	 -1.417246	 0.800269	 0.301571	 -0.696789	 0.596481	 -0.260290	 7
1462501452.256	 9	 0.106529	 0.038361	 0.002770	 3.112484	 -1.418433	 0.789515	 0.300569	 -0.696788	 0.596841	 -0.260625	 7
1462501452.266	 9	 0.146952	 -0.012608	 0.030720	 3.110694	 -1.419788	 0.787692	 0.300306	 -0.696418	 0.597287	 -0.260896	 7
1462501452.276	 9	 0.184181	 -0.059336	 0.055539	 3.106500	 -1.421532	 0.783938	 0.300044	 -0.695904	 0.597762	 -0.261478	 7
1462501452.286	 9	 0.197916	 -0.091213	 0.065807	 3.092642	 -1.421986	 0.770964	 0.299618	 -0.695896	 0.597544	 -0.262486	 7
1462501452.296	 9	 0.177541	 -0.110313	 0.063675	 3.086529	 -1.423794	 0.765856	 0.299464	 -0.695303	 0.597941	 -0.263327	 7
1462501452.306	 9	 0.142230	 -0.112490	 0.042647	 3.081448	 -1.425282	 0.761868	 0.299431	 -0.694774	 0.598233	 -0.264097	 7
1462501452.316	 9	 0.093067	 -0.098770	 0.008033	 3.078784	 -1.426328	 0.760210	 0.299537	 -0.694348	 0.598424	 -0.264664	 7
1462501452.326	 9	 0.033261	 -0.081804	 -0.023262	 3.078853	 -1.426824	 0.761144	 0.299786	 -0.694064	 0.598487	 -0.264984	 7
1462501452.336	 9	 -0.025431	 -0.075301	 -0.030150	 3.080180	 -1.426728	 0.763262	 0.300134	 -0.693952	 0.598371	 -0.265145	 7
1462501452.346	 9	 -0.052005	 -0.061324	 -0.020197	 3.081309	 -1.426265	 0.765056	 0.300470	 -0.693975	 0.598139	 -0.265228	 7
1462501452.356	 9	 -0.047652	 -0.056966	 -0.004208	 3.081514	 -1.425773	 0.765849	 0.300739	 -0.694034	 0.597890	 -0.265329	 7
1462501452.366	 9	 -0.025208	 -0.056971	 0.004123	 3.080931	 -1.425467	 0.765835	 0.300943	 -0.694053	 0.597696	 -0.265487	 7
1462501452.376	 9	 0.002589	 -0.050626	 0.010334	 3.079864	 -1.425223	 0.765289	 0.301099	 -0.694068	 0.597521	 -0.265662	 7
1462501452.386	 9	 0.026822	 -0.040055	 0.009886	 3.078622	 -1.425433	 0.764466	 0.301161	 -0.693963	 0.597518	 -0.265875	 7
1462501452.396	 9	 0.040684	 -0.038008	 0.004456	 3.077616	 -1.425808	 0.763844	 0.301205	 -0.693807	 0.597583	 -0.266087	 7
1462501452.406	 9	 0.048152	 -0.028542	 -0.007245	 3.077415	 -1.426286	 0.763950	 0.301249	 -0.693617	 0.597708	 -0.266251	 7
1462501452.416	 9	 0.034252	 -0.022187	 -0.016654	 3.077390	 -1.425459	 0.764177	 0.301427	 -0.693834	 0.597380	 -0.266220	 7
1462501452.426	 9	 0.006485	 -0.022142	 -0.021741	 3.078518	 -1.425623	 0.765542	 0.301545	 -0.693728	 0.597427	 -0.266257	 7
1462501452.436	 9	 -0.021324	 -0.032719	 -0.024795	 3.079906	 -1.425505	 0.767238	 0.301731	 -0.693694	 0.597369	 -0.266267	 7
1462501452.446	 9	 -0.052431	 -0.050800	 -0.037478	 3.080942	 -1.423587	 0.768766	 0.302167	 -0.694190	 0.596642	 -0.266110	 7
1462501452.456	 9	 -0.074990	 -0.073147	 -0.048147	 3.083643	 -1.422914	 0.772172	 0.302619	 -0.694241	 0.596359	 -0.266098	 7
1462501452.466	 9	 -0.100760	 -0.095476	 -0.057721	 3.086341	 -1.421142	 0.775826	 0.303284	 -0.694588	 0.595653	 -0.266013	 7
1462501452.476	 9	 -0.122274	 -0.114689	 -0.075828	 3.089519	 -1.419504	 0.780181	 0.304038	 -0.694850	 0.594977	 -0.265983	 7
1462501452.486	 9	 -0.145840	 -0.123213	 -0.087423	 3.093355	 -1.418020	 0.785314	 0.304852	 -0.695031	 0.594353	 -0.265972	 7
1462501452.496	 9	 -0.167112	 -0.112491	 -0.083939	 3.097346	 -1.416854	 0.790553	 0.305624	 -0.695116	 0.593854	 -0.265980	 7
1462501452.506	 9	 -0.170198	 -0.094345	 -0.076283	 3.101837	 -1.415181	 0.796102	 0.306417	 -0.695371	 0.593213	 -0.265830	 7
1462501452.516	 9	 -0.159429	 -0.082599	 -0.065610	 3.105701	 -1.413577	 0.800876	 0.307124	 -0.695637	 0.592606	 -0.265674	 7
1462501452.526	 9	 -0.138044	 -0.082586	 -0.055138	 3.108852	 -1.412159	 0.804892	 0.307759	 -0.695865	 0.592057	 -0.265564	 7
1462501452.536	 9	 -0.107117	 -0.102815	 -0.044932	 3.108822	 -1.412977	 0.805901	 0.308020	 -0.695460	 0.592206	 -0.265991	 7
1462501452.546	 9	 -0.069880	 -0.128440	 -0.043363	 3.110473	 -1.412197	 0.808803	 0.308635	 -0.695467	 0.591800	 -0.266163	 7
1462501452.556	 9	 -0.036900	 -0.148756	 -0.044905	 3.111903	 -1.411767	 0.811719	 0.309279	 -0.695336	 0.591482	 -0.266466	 7
1462501452.566	 9	 -0.017703	 -0.146725	 -0.050382	 3.113567	 -1.411562	 0.814901	 0.309918	 -0.695127	 0.591243	 -0.266798	 7
1462501452.576	 9	 -0.015426	 -0.124367	 -0.045923	 3.112317	 -1.412523	 0.815042	 0.310218	 -0.694649	 0.591368	 -0.267415	 7
1462501452.586	 9	 -0.014123	 -0.077546	 -0.042301	 3.114200	 -1.412388	 0.817858	 0.310656	 -0.694504	 0.591236	 -0.267574	 7
1462501452.596	 9	 -0.022386	 -0.029570	 -0.030059	 3.115885	 -1.412199	 0.819971	 0.310915	 -0.694458	 0.591149	 -0.267586	 7
1462501452.606	 9	 -0.024353	 -0.006063	 -0.015969	 3.117018	 -1.411971	 0.821224	 0.311044	 -0.694483	 0.591078	 -0.267529	 7
1462501452.616	 9	 -0.018888	 0.010991	 -0.008391	 3.115472	 -1.412810	 0.819647	 0.310848	 -0.694270	 0.591343	 -0.267723	 7
1462501452.626	 9	 -0.001773	 0.020505	 -0.009517	 3.116237	 -1.412763	 0.820224	 0.310829	 -0.694297	 0.591368	 -0.267622	 7
1462501452.636	 9	 0.014229	 0.019393	 -0.009667	 3.117057	 -1.412875	 0.820853	 0.310790	 -0.694275	 0.591450	 -0.267539	 7
1462501452.646	 9	 0.024888	 0.018265	 -0.014026	 3.115675	 -1.413637	 0.819316	 0.310570	 -0.694101	 0.591708	 -0.267677	 7
1462501452.656	 9	 0.025925	 0.006598	 -0.008808	 3.113772	 -1.414133	 0.817345	 0.310388	 -0.694003	 0.591851	 -0.267827	 7
1462501452.666	 9	 0.020576	 -0.007122	 0.003908	 3.111122	 -1.414397	 0.814764	 0.310244	 -0.693970	 0.591878	 -0.268022	 7
1462501452.676	 9	 0.020553	 -0.019818	 0.013386	 3.108511	 -1.414520	 0.812341	 0.310161	 -0.693958	 0.591841	 -0.268229	 7
1462501452.686	 9	 0.026934	 -0.031475	 0.021747	 3.107203	 -1.414791	 0.811295	 0.310151	 -0.693864	 0.591873	 -0.268412	 7
1462501452.696	 9	 0.036496	 -0.037901	 0.019468	 3.107040	 -1.414982	 0.811458	 0.310233	 -0.693759	 0.591893	 -0.268545	 7
1462501452.706	 9	 0.040717	 -0.042205	 0.014056	 3.107743	 -1.415043	 0.812538	 0.310392	 -0.693668	 0.591879	 -0.268629	 7
1462501452.716	 9	 0.033216	 -0.039060	 0.004556	 3.107980	 -1.414985	 0.813145	 0.310539	 -0.693623	 0.591814	 -0.268718	 7
1462501452.726	 9	 0.021420	 -0.040165	 -0.006011	 3.108113	 -1.414689	 0.813671	 0.310719	 -0.693648	 0.591660	 -0.268785	 7
1462501452.736	 9	 -0.001091	 -0.049755	 -0.017628	 3.108650	 -1.414287	 0.814689	 0.310962	 -0.693683	 0.591465	 -0.268841	 7
1462501452.746	 9	 -0.025763	 -0.061497	 -0.033509	 3.109864	 -1.413669	 0.816515	 0.311313	 -0.693747	 0.591192	 -0.268870	 7
1462501452.756	 9	 -0.041831	 -0.062605	 -0.046170	 3.112634	 -1.413037	 0.819948	 0.311763	 -0.693775	 0.590940	 -0.268831	 7
1462501452.766	 9	 -0.048257	 -0.054185	 -0.060957	 3.115884	 -1.412369	 0.823814	 0.312228	 -0.693809	 0.590693	 -0.268747	 7
1462501452.776	 9	 -0.051487	 -0.040518	 -0.084244	 3.119005	 -1.411833	 0.827453	 0.312636	 -0.693820	 0.590504	 -0.268659	 7
1462501452.786	 9	 -0.066385	 -0.025637	 -0.091430	 3.122227	 -1.411230	 0.831064	 0.313015	 -0.693867	 0.590312	 -0.268517	 7
1462501452.796	 9	 -0.076944	 -0.009590	 -0.082655	 3.125164	 -1.410621	 0.834233	 0.313325	 -0.693947	 0.590134	 -0.268340	 7
1462501452.806	 9	 -0.067165	 0.014944	 -0.068650	 3.127422	 -1.410078	 0.836495	 0.313514	 -0.694057	 0.589995	 -0.268142	 7
1462501452.816	 9	 -0.042483	 0.033044	 -0.055900	 3.129060	 -1.409666	 0.837929	 0.313582	 -0.694174	 0.589916	 -0.267933	 7
1462501452.826	 9	 -0.018879	 0.046908	 -0.041049	 3.130029	 -1.409494	 0.838521	 0.313524	 -0.694262	 0.589929	 -0.267745	 7
1462501452.836	 9	 0.010012	 0.057512	 -0.033735	 3.130855	 -1.409405	 0.838841	 0.313402	 -0.694349	 0.589984	 -0.267539	 7
1462501452.846	 9	 0.032471	 0.077584	 -0.043330	 3.132172	 -1.409278	 0.839480	 0.313252	 -0.694462	 0.590061	 -0.267251	 7
1462501452.856	 9	 0.039950	 0.090256	 -0.052863	 3.134029	 -1.408976	 0.840530	 0.313108	 -0.694635	 0.590107	 -0.266869	 7
1462501452.866	 9	 0.022829	 0.092365	 -0.062279	 3.136212	 -1.408311	 0.841865	 0.313015	 -0.694914	 0.590039	 -0.266402	 7
1462501452.876	 9	 -0.012510	 0.073301	 -0.065337	 3.138310	 -1.407285	 0.843249	 0.313013	 -0.695280	 0.589826	 -0.265922	 7
1462501452.886	 9	 -0.046879	 0.035072	 -0.070715	 3.140427	 -1.406045	 0.845010	 0.313165	 -0.695652	 0.589491	 -0.265511	 7
1462501452.896	 9	 -0.075919	 -0.011628	 -0.068758	 -3.140876	 -1.404697	 0.846971	 0.313471	 -0.695991	 0.589057	 -0.265223	 7
1462501452.906	 9	 -0.097457	 -0.057248	 -0.061527	 -3.139722	 -1.403389	 0.848670	 0.313897	 -0.696263	 0.588558	 -0.265116	 7
1462501452.916	 9	 -0.109326	 -0.085918	 -0.059553	 -3.138860	 -1.402199	 0.850409	 0.314407	 -0.696454	 0.588049	 -0.265140	 7
1462501452.926	 9	 -0.112533	 -0.090142	 -0.056360	 -3.138454	 -1.401183	 0.851801	 0.314908	 -0.696587	 0.587575	 -0.265246	 7
1462501452.936	 9	 -0.118841	 -0.080474	 -0.045550	 -3.138574	 -1.400311	 0.852583	 0.315333	 -0.696703	 0.587148	 -0.265380	 7
1462501452.946	 9	 -0.110152	 -0.062320	 -0.031593	 -3.139457	 -1.399688	 0.852434	 0.315623	 -0.696792	 0.586812	 -0.265545	 7
1462501452.956	 9	 -0.096188	 -0.053759	 -0.018846	 -3.138729	 -1.398688	 0.853740	 0.315998	 -0.696975	 0.586406	 -0.265516	 7
1462501452.966	 9	 -0.076871	 -0.039912	 -0.008228	 -3.138514	 -1.397866	 0.854390	 0.316272	 -0.697142	 0.586067	 -0.265501	 7
1462501452.976	 9	 -0.049049	 -0.033528	 0.003313	 -3.138909	 -1.397311	 0.854340	 0.316445	 -0.697259	 0.585818	 -0.265536	 7
1462501452.986	 9	 -0.024467	 -0.039902	 0.014771	 3.140994	 -1.398005	 0.851463	 0.316311	 -0.697075	 0.585923	 -0.265947	 7
1462501452.996	 9	 -0.013816	 -0.054732	 0.027330	 3.139080	 -1.397850	 0.850028	 0.316391	 -0.697093	 0.585757	 -0.266169	 7
1462501453.006	 9	 -0.012811	 -0.074884	 0.035659	 3.136471	 -1.397726	 0.848080	 0.316493	 -0.697090	 0.585561	 -0.266489	 7
1462501453.016	 9	 -0.015061	 -0.098286	 0.034396	 3.133518	 -1.397584	 0.846025	 0.316660	 -0.697063	 0.585318	 -0.266895	 7
1462501453.026	 9	 -0.017228	 -0.107868	 0.032186	 3.132824	 -1.398421	 0.846337	 0.316863	 -0.696675	 0.585458	 -0.267358	 7
1462501453.036	 9	 -0.008670	 -0.102583	 0.031095	 3.129958	 -1.398299	 0.844502	 0.317078	 -0.696619	 0.585207	 -0.267800	 7
1462501453.046	 9	 0.007394	 -0.083547	 0.022606	 3.127623	 -1.398322	 0.843028	 0.317245	 -0.696533	 0.585042	 -0.268186	 7
1462501453.056	 9	 0.024526	 -0.058186	 0.006706	 3.126322	 -1.398522	 0.842373	 0.317371	 -0.696403	 0.584994	 -0.268478	 7
1462501453.066	 9	 0.029939	 -0.023285	 -0.018605	 3.129518	 -1.399441	 0.845859	 0.317531	 -0.696008	 0.585355	 -0.268528	 7
1462501453.076	 9	 0.027857	 0.005286	 -0.039636	 3.131507	 -1.399740	 0.847888	 0.317616	 -0.695865	 0.585502	 -0.268476	 7
1462501453.086	 9	 0.023651	 0.026502	 -0.048994	 3.134424	 -1.399985	 0.850633	 0.317684	 -0.695748	 0.585683	 -0.268303	 7
1462501453.096	 9	 0.022612	 0.036048	 -0.053159	 3.137753	 -1.400214	 0.853662	 0.317732	 -0.695646	 0.585886	 -0.268068	 7
1462501453.106	 9	 0.032200	 0.026491	 -0.046931	 3.139265	 -1.400673	 0.854943	 0.317674	 -0.695511	 0.586114	 -0.267990	 7
1462501453.116	 9	 0.040686	 0.009501	 -0.039702	 -3.141346	 -1.401065	 0.857410	 0.317725	 -0.695349	 0.586329	 -0.267880	 7
1462501453.126	 9	 0.045950	 -0.011735	 -0.032485	 -3.139456	 -1.401508	 0.859398	 0.317802	 -0.695156	 0.586517	 -0.267877	 7
1462501453.136	 9	 0.042698	 -0.022362	 -0.032556	 -3.137749	 -1.401950	 0.861341	 0.317917	 -0.694947	 0.586681	 -0.267924	 7
1462501453.146	 9	 0.028747	 -0.029829	 -0.041023	 -3.137811	 -1.401883	 0.861617	 0.318040	 -0.694914	 0.586611	 -0.268016	 7
1462501453.156	 9	 0.010540	 -0.037274	 -0.048394	 -3.135381	 -1.402034	 0.864439	 0.318287	 -0.694746	 0.586672	 -0.268024	 7
1462501453.166	 9	 -0.007578	 -0.029798	 -0.051364	 -3.132752	 -1.401998	 0.867435	 0.318562	 -0.694632	 0.586676	 -0.267984	 7
1462501453.176	 9	 -0.020265	 -0.002127	 -0.054193	 -3.129707	 -1.401821	 0.870622	 0.318800	 -0.694584	 0.586673	 -0.267832	 7
1462501453.186	 9	 -0.036145	 0.022423	 -0.048490	 -3.128745	 -1.401023	 0.871485	 0.318928	 -0.694807	 0.586436	 -0.267621	 7
1462501453.196	 9	 -0.046705	 0.035311	 -0.035489	 -3.126202	 -1.400562	 0.873735	 0.319028	 -0.694923	 0.586381	 -0.267322	 7
1462501453.206	 9	 -0.042394	 0.035376	 -0.024868	 -3.124246	 -1.400112	 0.875344	 0.319076	 -0.695058	 0.586322	 -0.267040	 7
1462501453.216	 9	 -0.031756	 0.019466	 -0.014451	 -3.123077	 -1.399770	 0.876279	 0.319106	 -0.695164	 0.586266	 -0.266851	 7
1462501453.226	 9	 -0.024413	 -0.012421	 -0.008413	 -3.123714	 -1.399494	 0.875717	 0.319136	 -0.695249	 0.586144	 -0.266862	 7
1462501453.236	 9	 -0.025600	 -0.032667	 -0.013916	 -3.124331	 -1.399116	 0.875404	 0.319261	 -0.695326	 0.585957	 -0.266923	 7
1462501453.246	 9	 -0.042778	 -0.048617	 -0.020305	 -3.124867	 -1.398647	 0.875344	 0.319462	 -0.695401	 0.585717	 -0.267014	 7
1462501453.256	 9	 -0.056725	 -0.058204	 -0.027730	 -3.124968	 -1.398165	 0.875838	 0.319731	 -0.695448	 0.585469	 -0.267115	 7
1462501453.266	 9	 -0.061036	 -0.056165	 -0.041524	 -3.124398	 -1.397678	 0.877022	 0.320044	 -0.695476	 0.585234	 -0.267183	 7
1462501453.276	 9	 -0.070680	 -0.060439	 -0.047867	 -3.124175	 -1.397258	 0.877901	 0.320343	 -0.695487	 0.585007	 -0.267293	 7
1462501453.286	 9	 -0.078175	 -0.068920	 -0.046806	 -3.124157	 -1.396980	 0.878657	 0.320639	 -0.695448	 0.584813	 -0.267462	 7
1462501453.296	 9	 -0.069573	 -0.070968	 -0.031970	 -3.125110	 -1.396892	 0.878474	 0.320866	 -0.695376	 0.584654	 -0.267725	 7
1462501453.306	 9	 -0.047083	 -0.070921	 -0.016170	 -3.126776	 -1.397091	 0.877565	 0.321010	 -0.695241	 0.584577	 -0.268072	 7
1462501453.316	 9	 -0.025662	 -0.071936	 -0.000371	 -3.129117	 -1.397615	 0.875963	 0.321064	 -0.695032	 0.584598	 -0.268503	 7
1462501453.326	 9	 -0.001085	 -0.071988	 0.002618	 -3.131480	 -1.398413	 0.874334	 0.321079	 -0.694744	 0.584713	 -0.268979	 7
1462501453.336	 9	 0.016004	 -0.073106	 0.002468	 -3.134373	 -1.399382	 0.872188	 0.321046	 -0.694417	 0.584873	 -0.269514	 7
1462501453.346	 9	 0.028846	 -0.069948	 0.003461	 -3.137611	 -1.400389	 0.869702	 0.320992	 -0.694086	 0.585037	 -0.270074	 7
1462501453.356	 9	 0.034269	 -0.056098	 0.008872	 -3.138618	 -1.400726	 0.869282	 0.321095	 -0.693919	 0.585049	 -0.270355	 7
1462501453.366	 9	 0.038628	 -0.048564	 0.022759	 -3.140193	 -1.401096	 0.868193	 0.321128	 -0.693772	 0.585072	 -0.270643	 7
1462501453.376	 9	 0.038711	 -0.046306	 0.040897	 3.140424	 -1.401473	 0.866053	 0.321085	 -0.693658	 0.585080	 -0.270968	 7
1462501453.386	 9	 0.050499	 -0.051553	 0.055673	 3.135059	 -1.402620	 0.861167	 0.320807	 -0.693378	 0.585280	 -0.271582	 7
1462501453.396	 9	 0.066525	 -0.057923	 0.064004	 3.130094	 -1.403896	 0.856717	 0.320549	 -0.693042	 0.585533	 -0.272201	 7
1462501453.406	 9	 0.082249	 -0.072880	 0.066630	 3.126768	 -1.405256	 0.854008	 0.320405	 -0.692621	 0.585843	 -0.272773	 7
1462501453.416	 9	 0.090727	 -0.083573	 0.062186	 3.124700	 -1.406619	 0.852669	 0.320369	 -0.692151	 0.586169	 -0.273308	 7
1462501453.426	 9	 0.091782	 -0.078334	 0.051557	 3.124207	 -1.407802	 0.852890	 0.320435	 -0.691698	 0.586471	 -0.273727	 7
1462501453.436	 9	 0.084340	 -0.059280	 0.035801	 3.125126	 -1.408730	 0.854362	 0.320553	 -0.691313	 0.586740	 -0.273985	 7
1462501453.446	 9	 0.070529	 -0.033818	 0.021237	 3.123148	 -1.409474	 0.852770	 0.320486	 -0.691077	 0.586900	 -0.274317	 7
1462501453.456	 9	 0.055656	 -0.012562	 0.013038	 3.122009	 -1.410059	 0.851792	 0.320406	 -0.690904	 0.587056	 -0.274514	 7
1462501453.466	 9	 0.049252	 -0.009383	 0.008861	 3.121208	 -1.410565	 0.851075	 0.320327	 -0.690758	 0.587202	 -0.274659	 7
1462501453.476	 9	 0.050291	 -0.010480	 0.004576	 3.121440	 -1.410787	 0.851386	 0.320338	 -0.690675	 0.587273	 -0.274704	 7
1462501453.486	 9	 0.048081	 -0.021157	 -0.001898	 3.121216	 -1.411278	 0.851341	 0.320324	 -0.690505	 0.587415	 -0.274844	 7
1462501453.496	 9	 0.030873	 -0.040329	 -0.012585	 3.121470	 -1.411637	 0.851954	 0.320414	 -0.690335	 0.587496	 -0.274991	 7
1462501453.506	 9	 0.004070	 -0.053129	 -0.028457	 3.122390	 -1.411758	 0.853402	 0.320627	 -0.690194	 0.587486	 -0.275118	 7
1462501453.516	 9	 -0.019494	 -0.058477	 -0.042155	 3.123851	 -1.411277	 0.855472	 0.320976	 -0.690206	 0.587269	 -0.275147	 7
1462501453.526	 9	 -0.036567	 -0.056315	 -0.044118	 3.126080	 -1.410951	 0.858317	 0.321346	 -0.690152	 0.587122	 -0.275162	 7
1462501453.536	 9	 -0.037520	 -0.041343	 -0.033313	 3.127890	 -1.410559	 0.860612	 0.321659	 -0.690148	 0.586961	 -0.275150	 7
1462501453.546	 9	 -0.012851	 -0.021153	 -0.025880	 3.129334	 -1.410365	 0.862348	 0.321860	 -0.690125	 0.586887	 -0.275131	 7
1462501453.556	 9	 0.019326	 0.002236	 -0.014215	 3.129360	 -1.410729	 0.862443	 0.321837	 -0.690005	 0.587005	 -0.275207	 7
1462501453.566	 9	 0.052606	 0.034132	 -0.002485	 3.129937	 -1.411170	 0.862767	 0.321720	 -0.689902	 0.587206	 -0.275173	 7
1462501453.576	 9	 0.084796	 0.064937	 0.004982	 3.130207	 -1.411942	 0.862465	 0.321433	 -0.689760	 0.587558	 -0.275112	 7
1462501453.586	 9	 0.108411	 0.095697	 0.002931	 3.130775	 -1.412972	 0.862140	 0.321017	 -0.689586	 0.588051	 -0.274983	 7
1462501453.596	 9	 0.112678	 0.109428	 -0.008706	 3.133178	 -1.413032	 0.863454	 0.320755	 -0.689687	 0.588277	 -0.274550	 7
1462501453.606	 9	 0.097675	 0.115685	 -0.031964	 3.135827	 -1.414058	 0.864975	 0.320362	 -0.689504	 0.588847	 -0.274247	 7
1462501453.617	 9	 0.056969	 0.108144	 -0.061521	 3.140362	 -1.414742	 0.868434	 0.320125	 -0.689370	 0.589336	 -0.273811	 7
1462501453.627	 9	 -0.005097	 0.089037	 -0.081408	 -3.136974	 -1.414856	 0.873405	 0.320099	 -0.689340	 0.589631	 -0.273279	 7
1462501453.637	 9	 -0.067219	 0.057243	 -0.090749	 -3.132828	 -1.412293	 0.876990	 0.320470	 -0.690084	 0.588925	 -0.272490	 7
1462501453.646	 9	 -0.122911	 0.016974	 -0.092771	 -3.126851	 -1.411182	 0.882765	 0.320858	 -0.690297	 0.588715	 -0.271945	 7
1462501453.657	 9	 -0.161487	 -0.020108	 -0.088517	 -3.121532	 -1.409632	 0.888271	 0.321414	 -0.690587	 0.588290	 -0.271472	 7
1462501453.667	 9	 -0.188286	 -0.055046	 -0.076877	 -3.120081	 -1.407803	 0.890286	 0.321945	 -0.690991	 0.587624	 -0.271258	 7
1462501453.676	 9	 -0.194753	 -0.078342	 -0.065314	 -3.116989	 -1.405847	 0.894172	 0.322660	 -0.691352	 0.586925	 -0.271002	 7
1462501453.687	 9	 -0.185200	 -0.095336	 -0.058095	 -3.114604	 -1.403948	 0.897519	 0.323392	 -0.691683	 0.586208	 -0.270838	 7
1462501453.697	 9	 -0.169195	 -0.102768	 -0.049777	 -3.112845	 -1.402200	 0.900334	 0.324104	 -0.691969	 0.585513	 -0.270757	 7
1462501453.706	 9	 -0.147748	 -0.098487	 -0.037126	 -3.114093	 -1.402355	 0.900144	 0.324381	 -0.691786	 0.585390	 -0.271160	 7
1462501453.717	 9	 -0.115616	 -0.088878	 -0.019198	 -3.113839	 -1.401108	 0.901331	 0.324899	 -0.691987	 0.584843	 -0.271207	 7
1462501453.727	 9	 -0.081314	 -0.070775	 -0.002276	 -3.114395	 -1.400208	 0.901538	 0.325263	 -0.692137	 0.584417	 -0.271306	 7
1462501453.736	 9	 -0.037435	 -0.054858	 0.010279	 -3.115460	 -1.399723	 0.901041	 0.325473	 -0.692213	 0.584145	 -0.271447	 7
1462501453.747	 9	 0.004328	 -0.043193	 0.022824	 -3.119682	 -1.401638	 0.897298	 0.325135	 -0.691696	 0.584623	 -0.272139	 7
1462501453.757	 9	 0.042837	 -0.028378	 0.027955	 -3.121537	 -1.401992	 0.895741	 0.325088	 -0.691594	 0.584655	 -0.272385	 7
1462501453.766	 9	 0.070671	 -0.012483	 0.031058	 -3.123427	 -1.402640	 0.893993	 0.324944	 -0.691433	 0.584808	 -0.272636	 7
1462501453.777	 9	 0.084664	 0.006675	 0.038574	 -3.125506	 -1.403476	 0.891866	 0.324698	 -0.691253	 0.585048	 -0.272873	 7
1462501453.787	 9	 0.087994	 0.024825	 0.049372	 -3.127962	 -1.404357	 0.889167	 0.324359	 -0.691100	 0.585320	 -0.273079	 7
1462501453.796	 9	 0.088034	 0.027007	 0.056852	 -3.130925	 -1.405244	 0.885889	 0.323969	 -0.690969	 0.585593	 -0.273290	 7
1462501453.807	 9	 0.097612	 0.015332	 0.064121	 -3.134444	 -1.406198	 0.882133	 0.323569	 -0.690818	 0.585865	 -0.273563	 7
1462501453.817	 9	 0.115647	 -0.012332	 0.070101	 -3.138608	 -1.407310	 0.877968	 0.323196	 -0.690596	 0.586145	 -0.273961	 7
1462501453.827	 9	 0.133671	 -0.037906	 0.070772	 3.139917	 -1.408600	 0.873570	 0.322867	 -0.690290	 0.586440	 -0.274489	 7
1462501453.837	 9	 0.141044	 -0.059200	 0.070496	 3.139354	 -1.410172	 0.873437	 0.322771	 -0.689772	 0.586911	 -0.274898	 7
1462501453.847	 9	 0.138874	 -0.061368	 0.064100	 3.134591	 -1.411568	 0.869239	 0.322532	 -0.689383	 0.587202	 -0.275531	 7
1462501453.857	 9	 0.131459	 -0.039101	 0.051582	 3.130602	 -1.412898	 0.865666	 0.322293	 -0.689017	 0.587512	 -0.276067	 7
1462501453.867	 9	 0.119847	 -0.000874	 0.038184	 3.127829	 -1.414129	 0.862969	 0.322014	 -0.688704	 0.587864	 -0.276423	 7
1462501453.877	 9	 0.111391	 0.032018	 0.023638	 3.127851	 -1.414417	 0.862703	 0.321878	 -0.688665	 0.588004	 -0.276383	 7
1462501453.887	 9	 0.104019	 0.060689	 0.014377	 3.127253	 -1.415475	 0.861549	 0.321515	 -0.688454	 0.588433	 -0.276415	 7
1462501453.897	 9	 0.092313	 0.070274	 0.011371	 3.127092	 -1.416428	 0.860691	 0.321140	 -0.688287	 0.588856	 -0.276367	 7
1462501453.907	 9	 0.075186	 0.056521	 0.014590	 3.126733	 -1.417226	 0.859697	 0.320797	 -0.688160	 0.589212	 -0.276322	 7
1462501453.917	 9	 0.062230	 0.027850	 0.015492	 3.129123	 -1.416940	 0.861680	 0.320814	 -0.688257	 0.589223	 -0.276040	 7
1462501453.927	 9	 0.050323	 -0.003000	 0.009980	 3.128344	 -1.417474	 0.860841	 0.320683	 -0.688125	 0.589398	 -0.276144	 7
1462501453.937	 9	 0.029889	 -0.027481	 -0.000728	 3.127966	 -1.417832	 0.860683	 0.320693	 -0.687992	 0.589483	 -0.276284	 7
1462501453.947	 9	 0.007394	 -0.032840	 -0.015502	 3.128393	 -1.417961	 0.861447	 0.320812	 -0.687890	 0.589490	 -0.276382	 7
1462501453.957	 9	 -0.011769	 -0.012633	 -0.023683	 3.132587	 -1.417052	 0.865804	 0.321197	 -0.688040	 0.589248	 -0.276080	 7
1462501453.967	 9	 -0.022344	 0.013936	 -0.030804	 3.134566	 -1.416853	 0.867724	 0.321302	 -0.688064	 0.589232	 -0.275934	 7
1462501453.977	 9	 -0.017980	 0.038349	 -0.035943	 3.137147	 -1.416648	 0.870007	 0.321355	 -0.688113	 0.589261	 -0.275686	 7
1462501453.987	 9	 -0.007186	 0.060685	 -0.031566	 3.139808	 -1.416545	 0.872134	 0.321317	 -0.688168	 0.589360	 -0.275381	 7
1462501453.997	 9	 0.008905	 0.074527	 -0.023052	 -3.140984	 -1.415793	 0.873828	 0.321297	 -0.688447	 0.589253	 -0.274935	 7
1462501454.007	 9	 0.022796	 0.076628	 -0.021022	 -3.138832	 -1.415988	 0.875224	 0.321117	 -0.688461	 0.589474	 -0.274638	 7
1462501454.017	 9	 0.025976	 0.077682	 -0.021038	 -3.137577	 -1.414918	 0.875723	 0.321067	 -0.688868	 0.589239	 -0.274180	 7
1462501454.027	 9	 0.012059	 0.084028	 -0.031511	 -3.136612	 -1.413490	 0.875907	 0.321044	 -0.689390	 0.588877	 -0.273670	 7
1462501454.037	 9	 -0.018926	 0.092544	 -0.042880	 -3.135098	 -1.411806	 0.876573	 0.321061	 -0.689984	 0.588450	 -0.273071	 7
1462501454.047	 9	 -0.057405	 0.089437	 -0.046831	 -3.133333	 -1.409833	 0.877496	 0.321135	 -0.690655	 0.587929	 -0.272412	 7
1462501454.057	 9	 -0.091626	 0.076790	 -0.044514	 -3.131535	 -1.407937	 0.878549	 0.321235	 -0.691285	 0.587421	 -0.271791	 7
1462501454.067	 9	 -0.110938	 0.054541	 -0.040288	 -3.129338	 -1.406144	 0.880180	 0.321404	 -0.691844	 0.586936	 -0.271216	 7
1462501454.077	 9	 -0.125996	 0.025914	 -0.034030	 -3.126761	 -1.404598	 0.882454	 0.321651	 -0.692278	 0.586510	 -0.270736	 7
1462501454.087	 9	 -0.130365	 -0.001675	 -0.026789	 -3.124712	 -1.403324	 0.884476	 0.321930	 -0.692600	 0.586128	 -0.270409	 7
1462501454.097	 9	 -0.127217	 -0.015489	 -0.023748	 -3.123549	 -1.402038	 0.885791	 0.322227	 -0.692918	 0.585695	 -0.270178	 7
1462501454.107	 9	 -0.122948	 -0.020774	 -0.017440	 -3.122727	 -1.400795	 0.886815	 0.322516	 -0.693224	 0.585261	 -0.269986	 7
1462501454.117	 9	 -0.112264	 -0.026055	 -0.007990	 -3.122520	 -1.399633	 0.887278	 0.322781	 -0.693514	 0.584832	 -0.269856	 7
1462501454.127	 9	 -0.096192	 -0.030250	 0.006756	 -3.124157	 -1.399919	 0.885939	 0.322755	 -0.693426	 0.584848	 -0.270079	 7
1462501454.137	 9	 -0.075864	 -0.034435	 0.024658	 -3.125725	 -1.399116	 0.884693	 0.322894	 -0.693648	 0.584486	 -0.270125	 7
1462501454.147	 9	 -0.050232	 -0.034473	 0.029763	 -3.127778	 -1.398549	 0.882964	 0.322974	 -0.693814	 0.584193	 -0.270238	 7
1462501454.157	 9	 -0.027827	 -0.035604	 0.029558	 -3.129883	 -1.398221	 0.881182	 0.323016	 -0.693912	 0.583980	 -0.270394	 7
1462501454.167	 9	 -0.006419	 -0.026119	 0.026263	 -3.131841	 -1.399748	 0.879496	 0.322791	 -0.693476	 0.584420	 -0.270832	 7
1462501454.177	 9	 0.007508	 -0.016572	 0.028362	 -3.133607	 -1.399788	 0.877894	 0.322746	 -0.693484	 0.584366	 -0.270983	 7
1462501454.187	 9	 0.018070	 -0.015525	 0.035550	 -3.135729	 -1.399945	 0.875904	 0.322654	 -0.693472	 0.584347	 -0.271162	 7
1462501454.197	 9	 0.025580	 -0.013366	 0.042965	 -3.138287	 -1.400176	 0.873443	 0.322517	 -0.693455	 0.584348	 -0.271368	 7
1462501454.207	 9	 0.036276	 -0.014453	 0.043924	 -3.139326	 -1.402051	 0.872483	 0.322231	 -0.692921	 0.584960	 -0.271751	 7
1462501454.217	 9	 0.050174	 -0.009177	 0.043852	 3.141144	 -1.402511	 0.869838	 0.322046	 -0.692844	 0.585042	 -0.271992	 7
1462501454.227	 9	 0.073694	 0.003486	 0.039502	 3.138669	 -1.403188	 0.867340	 0.321814	 -0.692711	 0.585218	 -0.272228	 7
1462501454.237	 9	 0.097236	 0.021459	 0.034135	 3.136729	 -1.404100	 0.865203	 0.321519	 -0.692523	 0.585513	 -0.272420	 7
1462501454.247	 9	 0.113312	 0.037337	 0.029870	 3.138890	 -1.405842	 0.866953	 0.321256	 -0.692025	 0.586226	 -0.272462	 7
1462501454.257	 9	 0.124056	 0.054308	 0.027803	 3.137669	 -1.407060	 0.865197	 0.320842	 -0.691782	 0.586691	 -0.272564	 7
1462501454.267	 9	 0.125153	 0.065959	 0.021507	 3.136845	 -1.408315	 0.863709	 0.320400	 -0.691539	 0.587197	 -0.272612	 7
1462501454.277	 9	 0.112295	 0.064849	 0.009885	 3.136638	 -1.409480	 0.862831	 0.320001	 -0.691308	 0.587687	 -0.272611	 7
1462501454.287	 9	 0.089718	 0.049871	 -0.011377	 3.139074	 -1.409755	 0.864699	 0.319893	 -0.691260	 0.587917	 -0.272361	 7
1462501454.297	 9	 0.051093	 0.027463	 -0.036827	 3.141318	 -1.410369	 0.866630	 0.319817	 -0.691077	 0.588225	 -0.272251	 7
1462501454.307	 9	 0.007167	 0.000918	 -0.048415	 -3.138869	 -1.410541	 0.869599	 0.319938	 -0.690959	 0.588360	 -0.272116	 7
1462501454.317	 9	 -0.022760	 -0.011734	 -0.045075	 -3.136148	 -1.410371	 0.872453	 0.320147	 -0.690923	 0.588349	 -0.271988	 7
1462501454.327	 9	 -0.026987	 -0.008469	 -0.036479	 -3.135006	 -1.409659	 0.873746	 0.320356	 -0.691080	 0.588110	 -0.271859	 7
1462501454.337	 9	 -0.018372	 0.004434	 -0.024699	 -3.133359	 -1.409441	 0.875408	 0.320476	 -0.691101	 0.588073	 -0.271743	 7
1462501454.347	 9	 0.006301	 0.023576	 -0.015144	 -3.132117	 -1.409433	 0.876482	 0.320483	 -0.691100	 0.588124	 -0.271628	 7
1462501454.357	 9	 0.033120	 0.045894	 -0.006644	 -3.131193	 -1.409699	 0.877012	 0.320357	 -0.691063	 0.588291	 -0.271508	 7
1462501454.367	 9	 0.058851	 0.073465	 -0.007678	 -3.129718	 -1.409775	 0.877824	 0.320193	 -0.691111	 0.588444	 -0.271250	 7
1462501454.377	 9	 0.066409	 0.094693	 -0.010744	 -3.128162	 -1.410443	 0.878484	 0.319870	 -0.691021	 0.588833	 -0.271016	 7
1462501454.387	 9	 0.051511	 0.109575	 -0.017936	 -3.126070	 -1.411003	 0.879531	 0.319537	 -0.690973	 0.589218	 -0.270694	 7
1462501454.397	 9	 0.023777	 0.120225	 -0.027187	 -3.123296	 -1.411312	 0.881145	 0.319234	 -0.691000	 0.589548	 -0.270262	 7
1462501454.407	 9	 -0.017950	 0.110715	 -0.035434	 -3.122140	 -1.409218	 0.881205	 0.319210	 -0.691757	 0.589006	 -0.269534	 7
1462501454.417	 9	 -0.056519	 0.084192	 -0.041740	 -3.118862	 -1.408746	 0.883603	 0.319141	 -0.691953	 0.589045	 -0.269028	 7
1462501454.427	 9	 -0.085521	 0.053354	 -0.052432	 -3.115332	 -1.407949	 0.886559	 0.319238	 -0.692187	 0.588938	 -0.268544	 7
1462501454.437	 9	 -0.114508	 0.020436	 -0.056749	 -3.111771	 -1.406864	 0.889859	 0.319488	 -0.692453	 0.588692	 -0.268101	 7
1462501454.447	 9	 -0.140256	 -0.010296	 -0.051477	 -3.111008	 -1.404709	 0.890725	 0.319875	 -0.693039	 0.587961	 -0.267728	 7
1462501454.457	 9	 -0.150988	 -0.028300	 -0.045156	 -3.108761	 -1.403207	 0.893254	 0.320308	 -0.693369	 0.587468	 -0.267438	 7
1462501454.467	 9	 -0.152089	 -0.039959	 -0.039926	 -3.106991	 -1.401673	 0.895422	 0.320763	 -0.693700	 0.586938	 -0.267200	 7
1462501454.477	 9	 -0.153187	 -0.051610	 -0.033631	 -3.105738	 -1.400136	 0.897185	 0.321231	 -0.694026	 0.586377	 -0.267020	 7
1462501454.487	 9	 -0.149963	 -0.058989	 -0.023064	 -3.107077	 -1.399665	 0.896464	 0.321442	 -0.694098	 0.586097	 -0.267193	 7
1462501454.497	 9	 -0.132881	 -0.058800	 -0.010367	 -3.107093	 -1.398285	 0.897040	 0.321848	 -0.694400	 0.585545	 -0.267131	 7
1462501454.507	 9	 -0.113619	 -0.055597	 -0.000913	 -3.107725	 -1.397095	 0.896979	 0.322184	 -0.694667	 0.585044	 -0.267129	 7
1462501454.517	 9	 -0.094378	 -0.056649	 0.008502	 -3.108880	 -1.396101	 0.896387	 0.322461	 -0.694893	 0.584596	 -0.267188	 7
1462501454.527	 9	 -0.069718	 -0.044969	 0.015860	 -3.111329	 -1.397542	 0.894432	 0.322289	 -0.694467	 0.584957	 -0.267712	 7
1462501454.537	 9	 -0.039742	 -0.029065	 0.021076	 -3.112890	 -1.397070	 0.893190	 0.322382	 -0.694594	 0.584710	 -0.267811	 7
1462501454.547	 9	 -0.009778	 -0.013184	 0.023094	 -3.114367	 -1.396904	 0.891856	 0.322375	 -0.694659	 0.584594	 -0.267906	 7
1462501454.557	 9	 0.018102	 0.007012	 0.032631	 -3.116040	 -1.397023	 0.890141	 0.322251	 -0.694677	 0.584595	 -0.268006	 7
1462501454.567	 9	 0.053440	 0.017619	 0.043086	 -3.120445	 -1.399708	 0.885587	 0.321577	 -0.694044	 0.585420	 -0.268654	 7
1462501454.577	 9	 0.088693	 0.016527	 0.053427	 -3.123121	 -1.400520	 0.882688	 0.321239	 -0.693915	 0.585659	 -0.268868	 7
1462501454.587	 9	 0.114303	 0.003795	 0.068006	 -3.126684	 -1.401614	 0.878986	 0.320845	 -0.693713	 0.585963	 -0.269201	 7
1462501454.597	 9	 0.135635	 -0.009997	 0.081547	 -3.131331	 -1.402932	 0.874347	 0.320415	 -0.693447	 0.586297	 -0.269669	 7
1462501454.607	 9	 0.150580	 -0.008978	 0.081426	 -3.136179	 -1.404412	 0.869520	 0.319960	 -0.693133	 0.586684	 -0.270175	 7
1462501454.617	 9	 0.155916	 -0.002666	 0.073978	 -3.140755	 -1.405968	 0.864935	 0.319502	 -0.692791	 0.587111	 -0.270665	 7
1462501454.627	 9	 0.151685	 0.014282	 0.062436	 -3.138712	 -1.407777	 0.866752	 0.319285	 -0.692247	 0.587817	 -0.270781	 7
1462501454.637	 9	 0.147452	 0.033341	 0.048795	 -3.141547	 -1.409262	 0.863583	 0.318820	 -0.691932	 0.588308	 -0.271068	 7
1462501454.647	 9	 0.140029	 0.049264	 0.041547	 3.139456	 -1.410678	 0.860917	 0.318349	 -0.691644	 0.588811	 -0.271263	 7
1462501454.657	 9	 0.128301	 0.057754	 0.034268	 3.137771	 -1.411991	 0.858636	 0.317879	 -0.691391	 0.589307	 -0.271382	 7
1462501454.667	 9	 0.111065	 0.054680	 0.022734	 -3.141464	 -1.411960	 0.861940	 0.317862	 -0.691411	 0.589477	 -0.270985	 7
1462501454.677	 9	 0.079949	 0.033375	 0.005754	 3.141460	 -1.412856	 0.861273	 0.317587	 -0.691217	 0.589835	 -0.271021	 7
1462501454.687	 9	 0.037004	 -0.005984	 -0.012356	 -3.141208	 -1.413338	 0.861755	 0.317535	 -0.691068	 0.590019	 -0.271061	 7
1462501454.697	 9	 -0.003826	 -0.042220	 -0.038982	 -3.139558	 -1.413407	 0.863767	 0.317734	 -0.690952	 0.590032	 -0.271095	 7
1462501454.707	 9	 -0.044617	 -0.067819	 -0.065513	 -3.134754	 -1.412077	 0.869220	 0.318384	 -0.691127	 0.589598	 -0.270830	 7
1462501454.717	 9	 -0.079902	 -0.071005	 -0.079090	 -3.130680	 -1.411356	 0.874076	 0.318961	 -0.691116	 0.589342	 -0.270737	 7
1462501454.727	 9	 -0.092595	 -0.050726	 -0.074528	 -3.126562	 -1.410442	 0.878821	 0.319515	 -0.691184	 0.589042	 -0.270562	 7
1462501454.737	 9	 -0.087079	 -0.026162	 -0.058361	 -3.123096	 -1.409533	 0.882673	 0.319954	 -0.691302	 0.588764	 -0.270349	 7
1462501454.747	 9	 -0.060184	 0.004719	 -0.042317	 -3.122437	 -1.409345	 0.883428	 0.320048	 -0.691325	 0.588703	 -0.270312	 7
1462501454.757	 9	 -0.017264	 0.039816	 -0.025312	 -3.120375	 -1.409055	 0.885195	 0.320093	 -0.691405	 0.588694	 -0.270071	 7
1462501454.767	 9	 0.029855	 0.067392	 -0.016939	 -3.118611	 -1.409236	 0.886370	 0.319954	 -0.691402	 0.588880	 -0.269837	 7
1462501454.777	 9	 0.068382	 0.083294	 -0.008601	 -3.117096	 -1.409843	 0.887092	 0.319671	 -0.691315	 0.589233	 -0.269628	 7
1462501454.787	 9	 0.083364	 0.091773	 -0.006515	 -3.118601	 -1.410122	 0.884731	 0.319258	 -0.691408	 0.589406	 -0.269499	 7
1462501454.797	 9	 0.078078	 0.101370	 -0.005314	 -3.117099	 -1.410927	 0.885254	 0.318881	 -0.691293	 0.589851	 -0.269268	 7
1462501454.807	 9	 0.062114	 0.107823	 -0.001917	 -3.115773	 -1.411590	 0.885516	 0.318485	 -0.691237	 0.590254	 -0.268997	 7
1462501454.817	 9	 0.038536	 0.100531	 -0.007027	 -3.114287	 -1.412033	 0.885971	 0.318140	 -0.691235	 0.590580	 -0.268692	 7
1462501454.827	 9	 0.009589	 0.081440	 -0.011212	 -3.115086	 -1.409925	 0.884337	 0.318113	 -0.692001	 0.589952	 -0.268134	 7
1462501454.837	 9	 -0.032228	 0.043241	 -0.015466	 -3.113670	 -1.409706	 0.885231	 0.318037	 -0.692112	 0.589982	 -0.267871	 7
1462501454.847	 9	 -0.067670	 -0.002407	 -0.017714	 -3.112632	 -1.409116	 0.886194	 0.318149	 -0.692269	 0.589816	 -0.267698	 7
1462501454.857	 9	 -0.094589	 -0.048079	 -0.020042	 -3.108963	 -1.406881	 0.890205	 0.318779	 -0.692768	 0.589100	 -0.267233	 7
1462501454.867	 9	 -0.116127	 -0.086330	 -0.023408	 -3.108607	 -1.405767	 0.891344	 0.319230	 -0.692956	 0.588624	 -0.267257	 7
1462501454.877	 9	 -0.130145	 -0.109751	 -0.032030	 -3.108129	 -1.404484	 0.892898	 0.319814	 -0.693142	 0.588054	 -0.267331	 7
1462501454.887	 9	 -0.140870	 -0.112980	 -0.041559	 -3.107193	 -1.403090	 0.894987	 0.320466	 -0.693335	 0.587448	 -0.267384	 7
1462501454.897	 9	 -0.149402	 -0.109793	 -0.045721	 -3.104397	 -1.402164	 0.898897	 0.321135	 -0.693348	 0.587057	 -0.267404	 7
1462501454.907	 9	 -0.155788	 -0.103416	 -0.048803	 -3.102971	 -1.400594	 0.901409	 0.321818	 -0.693585	 0.586414	 -0.267377	 7
1462501454.917	 9	 -0.152528	 -0.093829	 -0.045545	 -3.101584	 -1.399036	 0.903790	 0.322467	 -0.693834	 0.585788	 -0.267325	 7
1462501454.927	 9	 -0.142856	 -0.088462	 -0.034922	 -3.100632	 -1.397567	 0.905665	 0.323056	 -0.694078	 0.585189	 -0.267289	 7
1462501454.937	 9	 -0.127798	 -0.085178	 -0.015836	 -3.100968	 -1.398502	 0.906199	 0.323201	 -0.693680	 0.585382	 -0.267724	 7
1462501454.947	 9	 -0.095684	 -0.075600	 -0.002172	 -3.101697	 -1.397458	 0.906265	 0.323591	 -0.693870	 0.584900	 -0.267815	 7
1462501454.957	 9	 -0.056079	 -0.056518	 0.005121	 -3.102633	 -1.396808	 0.905941	 0.323849	 -0.693983	 0.584570	 -0.267933	 7
1462501454.967	 9	 -0.029309	 -0.041668	 0.010355	 -3.103687	 -1.396460	 0.905327	 0.323995	 -0.694041	 0.584362	 -0.268059	 7
1462501454.977	 9	 -0.005768	 -0.017163	 0.013656	 -3.104696	 -1.396343	 0.904547	 0.324036	 -0.694065	 0.584264	 -0.268161	 7
1462501454.987	 9	 0.018883	 0.006156	 0.012593	 -3.105435	 -1.396478	 0.903788	 0.323969	 -0.694050	 0.584292	 -0.268219	 7
1462501454.997	 9	 0.032806	 0.022023	 0.006225	 -3.105665	 -1.396777	 0.903368	 0.323847	 -0.694002	 0.584413	 -0.268228	 7
1462501455.007	 9	 0.037063	 0.024099	 0.000878	 -3.105494	 -1.397148	 0.903303	 0.323719	 -0.693929	 0.584576	 -0.268213	 7
1462501455.017	 9	 0.038137	 0.021999	 0.005112	 -3.105387	 -1.397525	 0.903177	 0.323589	 -0.693856	 0.584739	 -0.268204	 7
1462501455.027	 9	 0.042404	 0.014603	 0.013532	 -3.105783	 -1.397942	 0.902600	 0.323444	 -0.693777	 0.584895	 -0.268245	 7
1462501455.037	 9	 0.054104	 -0.003430	 0.024986	 -3.106940	 -1.398459	 0.901401	 0.323291	 -0.693667	 0.585046	 -0.268384	 7
1462501455.047	 9	 0.066825	 -0.029983	 0.035286	 -3.108970	 -1.399106	 0.899586	 0.323161	 -0.693503	 0.585183	 -0.268668	 7
1462501455.057	 9	 0.088147	 -0.044876	 0.043487	 -3.110935	 -1.401487	 0.898002	 0.322841	 -0.692809	 0.585893	 -0.269292	 7
1462501455.067	 9	 0.108462	 -0.043812	 0.051846	 -3.114092	 -1.402543	 0.895255	 0.322662	 -0.692523	 0.586115	 -0.269760	 7
1462501455.077	 9	 0.124557	 -0.039504	 0.065598	 -3.116413	 -1.404891	 0.893268	 0.322316	 -0.691851	 0.586813	 -0.270377	 7
1462501455.087	 9	 0.142775	 -0.036266	 0.079318	 -3.117356	 -1.406901	 0.892583	 0.322068	 -0.691253	 0.587442	 -0.270840	 7
1462501455.097	 9	 0.168504	 -0.018205	 0.086710	 -3.115236	 -1.408697	 0.894790	 0.321948	 -0.690664	 0.588099	 -0.271059	 7
1462501455.107	 9	 0.202832	 0.022089	 0.083589	 -3.120095	 -1.410665	 0.889740	 0.321351	 -0.690246	 0.588675	 -0.271581	 7
1462501455.117	 9	 0.206003	 0.033625	 0.062353	 -3.123819	 -1.412759	 0.885627	 0.320730	 -0.689790	 0.589353	 -0.272002	 7
1462501455.127	 9	 0.168443	 0.019647	 0.026314	 -3.125645	 -1.414562	 0.883531	 0.320290	 -0.689351	 0.589963	 -0.272312	 7
1462501455.137	 9	 0.110590	 0.008907	 -0.011663	 -3.117674	 -1.413587	 0.891303	 0.320757	 -0.689474	 0.589850	 -0.271695	 7
1462501455.147	 9	 0.053875	 0.008790	 -0.050604	 -3.114917	 -1.414255	 0.894011	 0.320780	 -0.689220	 0.590152	 -0.271655	 7
1462501455.157	 9	 -0.001773	 0.024601	 -0.099954	 -3.109227	 -1.414356	 0.899570	 0.321002	 -0.689071	 0.590345	 -0.271352	 7
1462501455.167	 9	 -0.069174	 0.028709	 -0.147288	 -3.100404	 -1.413796	 0.908206	 0.321456	 -0.689041	 0.590402	 -0.270766	 7
1462501455.177	 9	 -0.133348	 0.021254	 -0.174509	 -3.089848	 -1.412530	 0.918658	 0.322132	 -0.689151	 0.590259	 -0.269993	 7
1462501455.187	 9	 -0.171826	 0.013877	 -0.180637	 -3.079102	 -1.410787	 0.929380	 0.322926	 -0.689367	 0.589961	 -0.269143	 7
1462501455.197	 9	 -0.186821	 0.002221	 -0.180615	 -3.068725	 -1.408828	 0.939843	 0.323781	 -0.689625	 0.589577	 -0.268296	 7
1462501455.207	 9	 -0.189003	 -0.004185	 -0.184919	 -3.058503	 -1.406801	 0.950229	 0.324676	 -0.689880	 0.589167	 -0.267457	 7
1462501455.217	 9	 -0.189008	 0.000023	 -0.191274	 -3.048175	 -1.404751	 0.960715	 0.325587	 -0.690126	 0.588766	 -0.266597	 7
1462501455.227	 9	 -0.185752	 0.009585	 -0.191201	 -3.044405	 -1.403717	 0.964657	 0.326009	 -0.690273	 0.588512	 -0.266259	 7
1462501455.237	 9	 -0.177080	 0.030894	 -0.182552	 -3.034399	 -1.401746	 0.974547	 0.326810	 -0.690533	 0.588181	 -0.265335	 7
1462501455.247	 9	 -0.165190	 0.051169	 -0.168612	 -3.025026	 -1.399874	 0.983587	 0.327494	 -0.690808	 0.587902	 -0.264391	 7
1462501455.257	 9	 -0.143632	 0.071531	 -0.138769	 -3.016956	 -1.398201	 0.991111	 0.328010	 -0.691095	 0.587684	 -0.263483	 7
1462501455.267	 9	 -0.094227	 0.097233	 -0.094176	 -3.022240	 -1.398996	 0.985169	 0.327373	 -0.691157	 0.587862	 -0.263720	 7
1462501455.277	 9	 -0.026685	 0.111307	 -0.032819	 -3.018686	 -1.398491	 0.987674	 0.327281	 -0.691352	 0.587948	 -0.263128	 7
1462501455.287	 9	 0.052516	 0.110439	 0.026166	 -3.018047	 -1.398826	 0.987181	 0.326865	 -0.691426	 0.588227	 -0.262829	 7
1462501455.297	 9	 0.140136	 0.096765	 0.079695	 -3.020069	 -1.400076	 0.984121	 0.326186	 -0.691319	 0.588708	 -0.262875	 7
1462501455.307	 9	 0.225602	 0.080854	 0.120378	 -3.030328	 -1.402907	 0.973024	 0.324889	 -0.691001	 0.589427	 -0.263706	 7
1462501455.317	 9	 0.290690	 0.055339	 0.148350	 -3.036312	 -1.405806	 0.966331	 0.323853	 -0.690497	 0.590295	 -0.264359	 7
1462501455.327	 9	 0.322653	 0.033007	 0.161718	 -3.043623	 -1.409108	 0.958532	 0.322771	 -0.689873	 0.591234	 -0.265208	 7
1462501455.337	 9	 0.316166	 0.011783	 0.165840	 -3.051785	 -1.412448	 0.950086	 0.321724	 -0.689217	 0.592146	 -0.266152	 7
1462501455.347	 9	 0.284010	 -0.007311	 0.159534	 -3.052387	 -1.412652	 0.949309	 0.321601	 -0.689204	 0.592221	 -0.266168	 7
1462501455.357	 9	 0.225142	 -0.025380	 0.137497	 -3.060375	 -1.415178	 0.941420	 0.320840	 -0.688695	 0.592828	 -0.267050	 7
1462501455.367	 9	 0.155472	 -0.059472	 0.101551	 -3.067101	 -1.416996	 0.935111	 0.320372	 -0.688293	 0.593198	 -0.267827	 7
1462501455.377	 9	 0.079511	 -0.069089	 0.064821	 -3.072104	 -1.418034	 0.930726	 0.320183	 -0.688029	 0.593331	 -0.268436	 7
1462501455.387	 9	 -0.014671	 -0.094614	 0.027036	 -3.075316	 -1.418158	 0.928380	 0.320309	 -0.687938	 0.593173	 -0.268867	 7
1462501455.397	 9	 -0.114217	 -0.123337	 -0.013929	 -3.076590	 -1.417262	 0.928253	 0.320783	 -0.688043	 0.592686	 -0.269107	 7
1462501455.407	 9	 -0.194489	 -0.155161	 -0.034842	 -3.076877	 -1.415478	 0.929463	 0.321564	 -0.688318	 0.591880	 -0.269244	 7
1462501455.417	 9	 -0.241598	 -0.180611	 -0.043195	 -3.076942	 -1.413137	 0.931166	 0.322536	 -0.688702	 0.590857	 -0.269349	 7
1462501455.427	 9	 -0.249113	 -0.194377	 -0.037929	 -3.077367	 -1.410626	 0.932676	 0.323575	 -0.689114	 0.589743	 -0.269489	 7
1462501455.437	 9	 -0.229821	 -0.191121	 -0.021014	 -3.078642	 -1.408252	 0.933342	 0.324552	 -0.689508	 0.588651	 -0.269696	 7
1462501455.447	 9	 -0.180551	 -0.169848	 -0.000996	 -3.080789	 -1.406302	 0.932953	 0.325353	 -0.689834	 0.587700	 -0.269970	 7
1462501455.457	 9	 -0.102332	 -0.126270	 0.026439	 -3.083714	 -1.405089	 0.931385	 0.325860	 -0.690038	 0.587027	 -0.270300	 7
1462501455.467	 9	 -0.020949	 -0.081625	 0.056064	 -3.087711	 -1.404709	 0.928273	 0.326017	 -0.690112	 0.586669	 -0.270698	 7
1462501455.477	 9	 0.064706	 -0.043403	 0.081252	 -3.092519	 -1.405185	 0.923941	 0.325860	 -0.690032	 0.586633	 -0.271171	 7
1462501455.487	 9	 0.132173	 -0.015756	 0.107566	 -3.098544	 -1.406397	 0.918046	 0.325410	 -0.689828	 0.586862	 -0.271734	 7
1462501455.497	 9	 0.179315	 0.007643	 0.126557	 -3.105551	 -1.408130	 0.910915	 0.324749	 -0.689536	 0.587281	 -0.272358	 7
1462501455.507	 9	 0.209306	 0.020410	 0.139204	 -3.113302	 -1.410196	 0.902872	 0.323949	 -0.689188	 0.587823	 -0.273021	 7
1462501455.517	 9	 0.224246	 0.020365	 0.139073	 -3.121471	 -1.412434	 0.894385	 0.323103	 -0.688795	 0.588425	 -0.273718	 7
1462501455.527	 9	 0.224191	 0.016048	 0.130507	 -3.129470	 -1.414697	 0.886113	 0.322287	 -0.688374	 0.589042	 -0.274413	 7
1462501455.537	 9	 0.209178	 0.020178	 0.107230	 -3.136431	 -1.416841	 0.878879	 0.321549	 -0.687953	 0.589650	 -0.275027	 7
1462501455.547	 9	 0.179240	 0.032815	 0.077767	 -3.141578	 -1.418710	 0.873361	 0.320910	 -0.687581	 0.590225	 -0.275470	 7
1462501455.557	 9	 0.141829	 0.037035	 0.057882	 3.137886	 -1.420223	 0.869227	 0.320381	 -0.687283	 0.590718	 -0.275771	 7
1462501455.567	 9	 0.109743	 0.031727	 0.046389	 3.134866	 -1.421387	 0.865836	 0.319949	 -0.687065	 0.591104	 -0.275991	 7
1462501455.577	 9	 0.100115	 0.039093	 0.031620	 3.132819	 -1.422396	 0.863403	 0.319582	 -0.686872	 0.591460	 -0.276134	 7
1462501455.587	 9	 0.095809	 0.051692	 0.007262	 3.132337	 -1.423363	 0.862420	 0.319256	 -0.686675	 0.591852	 -0.276160	 7
1462501455.597	 9	 0.070020	 0.041957	 -0.025642	 3.133928	 -1.424156	 0.863544	 0.319064	 -0.686479	 0.592224	 -0.276072	 7
1462501455.607	 9	 0.013128	 0.005668	 -0.065984	 3.137821	 -1.424446	 0.867325	 0.319170	 -0.686327	 0.592423	 -0.275901	 7
1462501455.617	 9	 -0.052277	 -0.027389	 -0.104089	 -3.139155	 -1.424090	 0.873803	 0.319602	 -0.686254	 0.592399	 -0.275632	 7
1462501455.627	 9	 -0.111240	 -0.059340	 -0.133714	 -3.131122	 -1.423114	 0.882443	 0.320324	 -0.686266	 0.592160	 -0.275277	 7
1462501455.637	 9	 -0.151936	 -0.076329	 -0.147285	 -3.122244	 -1.421659	 0.892154	 0.321237	 -0.686357	 0.591752	 -0.274865	 7
1462501455.647	 9	 -0.174369	 -0.088957	 -0.137615	 -3.114013	 -1.419926	 0.901341	 0.322207	 -0.686515	 0.591226	 -0.274466	 7
1462501455.657	 9	 -0.179630	 -0.097242	 -0.108871	 -3.107668	 -1.418089	 0.908732	 0.323142	 -0.686726	 0.590613	 -0.274159	 7
1462501455.667	 9	 -0.153851	 -0.094905	 -0.069640	 -3.103893	 -1.416438	 0.913524	 0.323919	 -0.686946	 0.590008	 -0.273992	 7
1462501455.677	 9	 -0.104616	 -0.091622	 -0.037000	 -3.102238	 -1.415247	 0.916137	 0.324508	 -0.687093	 0.589516	 -0.273988	 7
1462501455.687	 9	 -0.054297	 -0.077767	 -0.012796	 -3.102076	 -1.414580	 0.917131	 0.324902	 -0.687146	 0.589181	 -0.274109	 7
1462501455.697	 9	 -0.017871	 -0.051253	 -0.008604	 -3.102182	 -1.414317	 0.917617	 0.325140	 -0.687128	 0.589008	 -0.274243	 7
1462501455.707	 9	 0.008944	 -0.022614	 -0.008571	 -3.101968	 -1.414350	 0.918143	 0.325253	 -0.687062	 0.588982	 -0.274330	 7
1462501455.717	 9	 0.013378	 0.014586	 -0.010396	 -3.100661	 -1.414189	 0.919401	 0.325324	 -0.687083	 0.588968	 -0.274223	 7
1462501455.727	 9	 -0.000394	 0.040117	 -0.015367	 -3.099425	 -1.414227	 0.920301	 0.325263	 -0.687095	 0.589058	 -0.274070	 7
1462501455.737	 9	 -0.027066	 0.053916	 -0.029927	 -3.097270	 -1.414020	 0.921963	 0.325231	 -0.687179	 0.589111	 -0.273783	 7
1462501455.747	 9	 -0.050539	 0.065594	 -0.042403	 -3.094294	 -1.413551	 0.924339	 0.325243	 -0.687335	 0.589112	 -0.273378	 7
1462501455.757	 9	 -0.073009	 0.070849	 -0.060280	 -3.088599	 -1.411204	 0.929357	 0.325651	 -0.687966	 0.588564	 -0.272481	 7
1462501455.767	 9	 -0.100838	 0.067617	 -0.077120	 -3.083732	 -1.410227	 0.933597	 0.325829	 -0.688216	 0.588451	 -0.271879	 7
1462501455.777	 9	 -0.122176	 0.067689	 -0.075868	 -3.078741	 -1.409003	 0.937973	 0.326059	 -0.688528	 0.588260	 -0.271228	 7
1462501455.787	 9	 -0.123203	 0.065657	 -0.063088	 -3.074532	 -1.407720	 0.941563	 0.326259	 -0.688876	 0.588031	 -0.270601	 7
1462501455.797	 9	 -0.100791	 0.056157	 -0.046244	 -3.073422	 -1.406748	 0.942148	 0.326288	 -0.689205	 0.587808	 -0.270213	 7
1462501455.807	 9	 -0.055906	 0.051923	 -0.025359	 -3.071309	 -1.406041	 0.943753	 0.326332	 -0.689428	 0.587699	 -0.269827	 7
1462501455.817	 9	 0.000654	 0.039105	 -0.009985	 -3.070185	 -1.405895	 0.944452	 0.326266	 -0.689506	 0.587739	 -0.269618	 7
1462501455.827	 9	 0.051861	 0.029433	 -0.003060	 -3.069434	 -1.406281	 0.944899	 0.326138	 -0.689426	 0.587931	 -0.269562	 7
1462501455.837	 9	 0.079679	 0.041088	 0.002138	 -3.071649	 -1.406531	 0.942357	 0.325873	 -0.689471	 0.587996	 -0.269624	 7
1462501455.847	 9	 0.071203	 0.054933	 0.001275	 -3.070901	 -1.407295	 0.942580	 0.325609	 -0.689320	 0.588343	 -0.269572	 7
1462501455.857	 9	 0.033863	 0.056116	 0.002677	 -3.070268	 -1.407741	 0.942648	 0.325375	 -0.689269	 0.588586	 -0.269455	 7
1462501455.867	 9	 -0.005642	 0.045652	 0.010384	 -3.070225	 -1.407780	 0.942192	 0.325199	 -0.689338	 0.588667	 -0.269313	 7
1462501455.877	 9	 -0.030339	 0.009622	 0.018791	 -3.072890	 -1.405558	 0.939332	 0.325349	 -0.690071	 0.587875	 -0.268985	 7
1462501455.887	 9	 -0.046588	 -0.045602	 0.023747	 -3.074798	 -1.405142	 0.937709	 0.325415	 -0.690196	 0.587644	 -0.269091	 7
1462501455.897	 9	 -0.062906	 -0.102005	 0.012707	 -3.076872	 -1.404569	 0.936511	 0.325701	 -0.690273	 0.587275	 -0.269350	 7
1462501455.907	 9	 -0.089829	 -0.138222	 -0.005514	 -3.078426	 -1.403752	 0.936272	 0.326202	 -0.690334	 0.586780	 -0.269668	 7
1462501455.917	 9	 -0.131560	 -0.146729	 -0.022287	 -3.075844	 -1.401873	 0.940281	 0.327124	 -0.690557	 0.586030	 -0.269611	 7
1462501455.927	 9	 -0.164590	 -0.124394	 -0.035647	 -3.075826	 -1.400283	 0.941626	 0.327833	 -0.690787	 0.585318	 -0.269708	 7
1462501455.937	 9	 -0.181538	 -0.091423	 -0.042653	 -3.075126	 -1.398472	 0.943340	 0.328505	 -0.691109	 0.584593	 -0.269636	 7
1462501455.947	 9	 -0.184641	 -0.069092	 -0.044549	 -3.074087	 -1.396606	 0.945144	 0.329120	 -0.691476	 0.583894	 -0.269461	 7
1462501455.957	 9	 -0.176060	 -0.056382	 -0.048660	 -3.070487	 -1.396777	 0.949322	 0.329486	 -0.691225	 0.583982	 -0.269468	 7
1462501455.967	 9	 -0.158933	 -0.047901	 -0.045533	 -3.069026	 -1.395116	 0.951319	 0.330014	 -0.691556	 0.583397	 -0.269238	 7
1462501455.977	 9	 -0.130051	 -0.045751	 -0.030843	 -3.068098	 -1.393713	 0.952737	 0.330457	 -0.691838	 0.582889	 -0.269070	 7
1462501455.987	 9	 -0.084053	 -0.044632	 -0.004589	 -3.068307	 -1.392739	 0.952979	 0.330757	 -0.692041	 0.582496	 -0.269031	 7
1462501455.997	 9	 -0.029464	 -0.040325	 0.024821	 -3.071466	 -1.395815	 0.950241	 0.330242	 -0.691210	 0.583374	 -0.269896	 7
1462501456.007	 9	 0.019751	 -0.030752	 0.044731	 -3.074059	 -1.395917	 0.947947	 0.330189	 -0.691210	 0.583289	 -0.270142	 7
1462501456.017	 9	 0.052948	 -0.016931	 0.057360	 -3.077146	 -1.396417	 0.945011	 0.329996	 -0.691138	 0.583345	 -0.270445	 7
1462501456.027	 9	 0.073375	 0.002262	 0.072281	 -3.080825	 -1.397138	 0.941306	 0.329676	 -0.691048	 0.583482	 -0.270768	 7
1462501456.037	 9	 0.099152	 0.019359	 0.093531	 -3.085396	 -1.398110	 0.936508	 0.329201	 -0.690946	 0.583706	 -0.271123	 7
1462501456.047	 9	 0.131305	 0.035333	 0.109386	 -3.090783	 -1.399397	 0.930730	 0.328580	 -0.690801	 0.584039	 -0.271528	 7
1462501456.057	 9	 0.164456	 0.046951	 0.111329	 -3.089862	 -1.401697	 0.931032	 0.328062	 -0.690225	 0.584926	 -0.271710	 7
1462501456.067	 9	 0.186848	 0.052125	 0.100525	 -3.094956	 -1.403571	 0.925346	 0.327304	 -0.689931	 0.585498	 -0.272138	 7
1462501456.077	 9	 0.192153	 0.061543	 0.081383	 -3.098983	 -1.405534	 0.920666	 0.326573	 -0.689588	 0.586142	 -0.272502	 7
1462501456.087	 9	 0.178274	 0.070009	 0.069859	 -3.102185	 -1.407393	 0.916732	 0.325876	 -0.689261	 0.586785	 -0.272777	 7
1462501456.097	 9	 0.154739	 0.068947	 0.060455	 -3.099532	 -1.407051	 0.918562	 0.325780	 -0.689422	 0.586852	 -0.272340	 7
1462501456.107	 9	 0.122587	 0.050939	 0.054264	 -3.102038	 -1.408373	 0.915453	 0.325245	 -0.689208	 0.587316	 -0.272522	 7
1462501456.117	 9	 0.090428	 0.028628	 0.044744	 -3.104325	 -1.409386	 0.912786	 0.324847	 -0.689039	 0.587651	 -0.272703	 7
1462501456.127	 9	 0.055039	 0.002057	 0.033082	 -3.106317	 -1.410040	 0.910672	 0.324606	 -0.688922	 0.587838	 -0.272881	 7
1462501456.137	 9	 0.012093	 -0.028845	 0.007580	 -3.099212	 -1.408494	 0.917873	 0.325231	 -0.689164	 0.587487	 -0.272280	 7
1462501456.147	 9	 -0.033991	 -0.048047	 -0.018842	 -3.098980	 -1.408272	 0.918557	 0.325432	 -0.689148	 0.587356	 -0.272362	 7
1462501456.157	 9	 -0.077881	 -0.060819	 -0.037762	 -3.097664	 -1.407592	 0.920480	 0.325811	 -0.689209	 0.587078	 -0.272354	 7
1462501456.167	 9	 -0.099255	 -0.057649	 -0.049270	 -3.095668	 -1.406616	 0.923109	 0.326279	 -0.689331	 0.586716	 -0.272266	 7
1462501456.177	 9	 -0.095961	 -0.039569	 -0.048063	 -3.094984	 -1.406021	 0.924294	 0.326577	 -0.689401	 0.586465	 -0.272273	 7
1462501456.187	 9	 -0.078747	 -0.018278	 -0.038423	 -3.093032	 -1.405156	 0.926512	 0.326902	 -0.689551	 0.586190	 -0.272097	 7
1462501456.197	 9	 -0.047625	 0.006202	 -0.023545	 -3.091574	 -1.404581	 0.927993	 0.327073	 -0.689671	 0.586033	 -0.271926	 7
1462501456.207	 9	 -0.014373	 0.023284	 -0.001295	 -3.091045	 -1.404349	 0.928319	 0.327066	 -0.689755	 0.585996	 -0.271798	 7
1462501456.217	 9	 0.012379	 0.025439	 0.013415	 -3.092819	 -1.405034	 0.926302	 0.326785	 -0.689649	 0.586212	 -0.271940	 7
1462501456.227	 9	 0.032653	 0.023266	 0.015350	 -3.093411	 -1.405331	 0.925455	 0.326622	 -0.689622	 0.586331	 -0.271949	 7
1462501456.237	 9	 0.026163	 0.009419	 0.009949	 -3.093882	 -1.405630	 0.924839	 0.326502	 -0.689573	 0.586439	 -0.271983	 7
1462501456.247	 9	 0.006860	 -0.008621	 0.007817	 -3.094359	 -1.405755	 0.924400	 0.326471	 -0.689544	 0.586463	 -0.272041	 7
1462501456.257	 9	 -0.012514	 -0.022405	 -0.000601	 -3.092604	 -1.405205	 0.926322	 0.326703	 -0.689626	 0.586302	 -0.271902	 7
1462501456.267	 9	 -0.024319	 -0.025653	 -0.013318	 -3.092320	 -1.404978	 0.926870	 0.326844	 -0.689640	 0.586197	 -0.271925	 7
1462501456.277	 9	 -0.036130	 -0.025749	 -0.031334	 -3.091030	 -1.404630	 0.928439	 0.327060	 -0.689657	 0.586078	 -0.271878	 7
1462501456.287	 9	 -0.051051	 -0.017234	 -0.036454	 -3.089237	 -1.404134	 0.930459	 0.327307	 -0.689712	 0.585929	 -0.271763	 7
1462501456.297	 9	 -0.056353	 -0.010828	 -0.035282	 -3.087697	 -1.403348	 0.932145	 0.327558	 -0.689868	 0.585687	 -0.271584	 7
1462501456.307	 9	 -0.046777	 -0.019343	 -0.032247	 -3.086025	 -1.402836	 0.934004	 0.327789	 -0.689936	 0.585536	 -0.271460	 7
1462501456.317	 9	 -0.025481	 -0.035308	 -0.025121	 -3.084878	 -1.402508	 0.935488	 0.328016	 -0.689941	 0.585412	 -0.271440	 7
1462501456.327	 9	 0.004383	 -0.044917	 -0.018010	 -3.084109	 -1.402461	 0.936702	 0.328217	 -0.689860	 0.585358	 -0.271521	 7
1462501456.337	 9	 0.032091	 -0.059829	 -0.009865	 -3.083069	 -1.402554	 0.938307	 0.328452	 -0.689711	 0.585342	 -0.271649	 7
1462501456.347	 9	 0.048046	 -0.072618	 -0.006928	 -3.081693	 -1.402474	 0.940370	 0.328773	 -0.689581	 0.585261	 -0.271764	 7
1462501456.357	 9	 0.046923	 -0.083251	 -0.007019	 -3.080022	 -1.402122	 0.942823	 0.329185	 -0.689504	 0.585084	 -0.271842	 7
1462501456.367	 9	 0.027610	 -0.094971	 -0.017621	 -3.077895	 -1.401458	 0.945857	 0.329713	 -0.689481	 0.584799	 -0.271874	 7
1462501456.377	 9	 0.006168	 -0.102469	 -0.033491	 -3.077128	 -1.401549	 0.947663	 0.330097	 -0.689261	 0.584710	 -0.272155	 7
1462501456.387	 9	 -0.016334	 -0.105732	 -0.052509	 -3.075466	 -1.401408	 0.950416	 0.330582	 -0.689072	 0.584563	 -0.272361	 7
1462501456.397	 9	 -0.042003	 -0.099420	 -0.072477	 -3.072769	 -1.400024	 0.954189	 0.331315	 -0.689203	 0.584032	 -0.272278	 7
1462501456.407	 9	 -0.073997	 -0.083462	 -0.084837	 -3.071408	 -1.398555	 0.956533	 0.331960	 -0.689411	 0.583448	 -0.272220	 7
1462501456.417	 9	 -0.107022	 -0.066280	 -0.084307	 -3.070945	 -1.397097	 0.957814	 0.332500	 -0.689668	 0.582863	 -0.272163	 7
1462501456.427	 9	 -0.125044	 -0.054411	 -0.068050	 -3.071105	 -1.395826	 0.958325	 0.332926	 -0.689916	 0.582342	 -0.272130	 7
1462501456.437	 9	 -0.126023	 -0.054253	 -0.046723	 -3.070249	 -1.394999	 0.959766	 0.333307	 -0.690022	 0.582012	 -0.272100	 7
1462501456.447	 9	 -0.115329	 -0.064798	 -0.029862	 -3.069113	 -1.394586	 0.961542	 0.333655	 -0.689996	 0.581822	 -0.272147	 7
1462501456.457	 9	 -0.088642	 -0.078582	 -0.013170	 -3.068928	 -1.394522	 0.962489	 0.333938	 -0.689881	 0.581702	 -0.272346	 7
1462501456.467	 9	 -0.047057	 -0.091433	 -0.008323	 -3.069307	 -1.394830	 0.963006	 0.334177	 -0.689657	 0.581671	 -0.272686	 7
1462501456.477	 9	 -0.004349	 -0.082034	 -0.015000	 -3.070439	 -1.395198	 0.962755	 0.334360	 -0.689442	 0.581639	 -0.273072	 7
1462501456.487	 9	 0.007467	 -0.053459	 -0.029756	 -3.071535	 -1.395388	 0.962331	 0.334503	 -0.689311	 0.581577	 -0.273362	 7
1462501456.497	 9	 -0.011558	 -0.006670	 -0.038743	 -3.072650	 -1.395165	 0.961478	 0.334569	 -0.689363	 0.581433	 -0.273457	 7
1462501456.507	 9	 -0.039145	 0.024282	 -0.035014	 -3.073841	 -1.394744	 0.960195	 0.334540	 -0.689532	 0.581268	 -0.273416	 7
1462501456.517	 9	 -0.064668	 0.032952	 -0.022984	 -3.075437	 -1.394237	 0.958350	 0.334448	 -0.689764	 0.581084	 -0.273335	 7
1462501456.527	 9	 -0.075341	 0.017160	 -0.004917	 -3.077673	 -1.393917	 0.955942	 0.334318	 -0.689950	 0.580932	 -0.273347	 7
1462501456.537	 9	 -0.067930	 -0.010395	 0.011817	 -3.079862	 -1.393929	 0.953796	 0.334212	 -0.690006	 0.580863	 -0.273482	 7
1462501456.547	 9	 -0.039178	 -0.040117	 0.031539	 -3.081855	 -1.393470	 0.952109	 0.334280	 -0.690144	 0.580606	 -0.273595	 7
1462501456.557	 9	 -0.002906	 -0.053953	 0.044950	 -3.084772	 -1.393375	 0.949672	 0.334301	 -0.690179	 0.580421	 -0.273876	 7
1462501456.567	 9	 0.022755	 -0.049721	 0.052226	 -3.088118	 -1.393577	 0.946799	 0.334249	 -0.690144	 0.580323	 -0.274234	 7
1462501456.577	 9	 0.027139	 -0.025277	 0.051349	 -3.090222	 -1.394347	 0.944961	 0.334106	 -0.689945	 0.580483	 -0.274567	 7
1462501456.587	 9	 0.024096	 0.006650	 0.052736	 -3.091585	 -1.394908	 0.943548	 0.333928	 -0.689837	 0.580639	 -0.274729	 7
1462501456.597	 9	 0.018873	 0.036528	 0.052087	 -3.092143	 -1.395398	 0.942625	 0.333695	 -0.689776	 0.580839	 -0.274742	 7
1462501456.607	 9	 0.019992	 0.047161	 0.052173	 -3.091853	 -1.395813	 0.942377	 0.333462	 -0.689740	 0.581061	 -0.274645	 7
1462501456.617	 9	 0.026383	 0.052392	 0.042571	 -3.090503	 -1.396265	 0.943118	 0.333255	 -0.689675	 0.581337	 -0.274477	 7
1462501456.627	 9	 0.029499	 0.051172	 0.022279	 -3.087772	 -1.396654	 0.945257	 0.333139	 -0.689583	 0.581629	 -0.274228	 7
1462501456.637	 9	 0.027263	 0.045721	 0.003064	 -3.087669	 -1.396941	 0.944892	 0.332938	 -0.689577	 0.581793	 -0.274138	 7
1462501456.647	 9	 0.020818	 0.046719	 -0.008594	 -3.086731	 -1.397166	 0.945369	 0.332795	 -0.689563	 0.581960	 -0.273995	 7
1462501456.657	 9	 0.010090	 0.041379	 -0.016012	 -3.084226	 -1.397023	 0.947439	 0.332802	 -0.689602	 0.582045	 -0.273707	 7
1462501456.667	 9	 -0.001723	 0.036010	 -0.027683	 -3.082266	 -1.396678	 0.949032	 0.332835	 -0.689702	 0.582038	 -0.273432	 7
1462501456.677	 9	 -0.026282	 0.035005	 -0.029610	 -3.080893	 -1.396123	 0.950078	 0.332883	 -0.689871	 0.581936	 -0.273161	 7
1462501456.687	 9	 -0.051925	 0.028699	 -0.029444	 -3.080154	 -1.395546	 0.950554	 0.332923	 -0.690054	 0.581800	 -0.272938	 7
1462501456.697	 9	 -0.061539	 0.026600	 -0.029379	 -3.078963	 -1.394993	 0.951526	 0.332999	 -0.690210	 0.581681	 -0.272708	 7
1462501456.707	 9	 -0.063615	 0.033035	 -0.022906	 -3.077729	 -1.394601	 0.952459	 0.333024	 -0.690332	 0.581627	 -0.272481	 7
1462501456.717	 9	 -0.057179	 0.034126	 -0.016557	 -3.076478	 -1.394522	 0.953384	 0.332992	 -0.690371	 0.581683	 -0.272304	 7
1462501456.727	 9	 -0.036895	 0.034073	 -0.015669	 -3.074636	 -1.394711	 0.954885	 0.332944	 -0.690319	 0.581849	 -0.272140	 7
1462501456.737	 9	 -0.011262	 0.038342	 -0.013662	 -3.072691	 -1.395167	 0.956444	 0.332844	 -0.690197	 0.582113	 -0.272007	 7
1462501456.747	 9	 0.000485	 0.040426	 -0.014811	 -3.070909	 -1.395667	 0.957826	 0.332722	 -0.690070	 0.582389	 -0.271887	 7
1462501456.757	 9	 0.009059	 0.045734	 -0.012704	 -3.069344	 -1.396198	 0.958962	 0.332573	 -0.689945	 0.582673	 -0.271777	 7
1462501456.767	 9	 0.020888	 0.061677	 -0.009461	 -3.068569	 -1.396679	 0.959178	 0.332345	 -0.689881	 0.582933	 -0.271663	 7
1462501456.777	 9	 0.036959	 0.072289	 -0.006304	 -3.068492	 -1.397195	 0.958569	 0.332030	 -0.689849	 0.583201	 -0.271555	 7
1462501456.787	 9	 0.045501	 0.066999	 0.001035	 -3.069092	 -1.397653	 0.957299	 0.331693	 -0.689850	 0.583427	 -0.271477	 7
1462501456.797	 9	 0.049711	 0.046845	 0.010404	 -3.070399	 -1.398081	 0.955491	 0.331382	 -0.689853	 0.583599	 -0.271480	 7
1462501456.807	 9	 0.060348	 0.031991	 0.019766	 -3.071869	 -1.398454	 0.953673	 0.331124	 -0.689850	 0.583727	 -0.271526	 7
1462501456.817	 9	 0.062453	 0.024555	 0.021811	 -3.073456	 -1.398720	 0.951817	 0.330905	 -0.689868	 0.583805	 -0.271581	 7
1462501456.827	 9	 0.042135	 0.017162	 0.020853	 -3.074352	 -1.398695	 0.950713	 0.330790	 -0.689936	 0.583798	 -0.271563	 7
1462501456.837	 9	 0.010120	 0.015154	 0.024309	 -3.074761	 -1.398384	 0.950123	 0.330755	 -0.690065	 0.583706	 -0.271475	 7
1462501456.847	 9	 -0.014411	 0.018418	 0.024551	 -3.074780	 -1.397923	 0.949890	 0.330753	 -0.690230	 0.583580	 -0.271328	 7
1462501456.857	 9	 -0.028330	 0.014159	 0.018236	 -3.074012	 -1.397521	 0.950459	 0.330789	 -0.690352	 0.583495	 -0.271155	 7
1462501456.867	 9	 -0.029399	 0.016267	 0.015066	 -3.072565	 -1.397331	 0.951710	 0.330829	 -0.690395	 0.583502	 -0.270985	 7
1462501456.877	 9	 -0.015487	 0.027895	 0.010787	 -3.070685	 -1.397352	 0.953291	 0.330823	 -0.690382	 0.583605	 -0.270801	 7
1462501456.887	 9	 0.001619	 0.038442	 0.005405	 -3.068245	 -1.397632	 0.955329	 0.330769	 -0.690297	 0.583827	 -0.270606	 7
1462501456.897	 9	 0.015522	 0.052267	 -0.001992	 -3.065467	 -1.397986	 0.957591	 0.330682	 -0.690200	 0.584099	 -0.270374	 7
1462501456.907	 9	 0.023025	 0.060739	 -0.004112	 -3.062928	 -1.398311	 0.959523	 0.330555	 -0.690133	 0.584365	 -0.270123	 7
1462501456.917	 9	 0.027293	 0.059670	 -0.003094	 -3.061132	 -1.398655	 0.960699	 0.330380	 -0.690086	 0.584618	 -0.269912	 7
1462501456.927	 9	 0.030436	 0.044792	 -0.000063	 -3.060079	 -1.398986	 0.961264	 0.330213	 -0.690042	 0.584826	 -0.269776	 7
1462501456.937	 9	 0.037838	 0.028830	 0.001855	 -3.059535	 -1.399276	 0.961471	 0.330078	 -0.690001	 0.584985	 -0.269703	 7
1462501456.947	 9	 0.036675	 0.016008	 -0.006780	 -3.058803	 -1.399482	 0.962014	 0.330018	 -0.689953	 0.585101	 -0.269648	 7
1462501456.957	 9	 0.029153	 0.010665	 -0.013159	 -3.058224	 -1.399516	 0.962499	 0.330010	 -0.689941	 0.585142	 -0.269597	 7
1462501456.967	 9	 0.015296	 0.011793	 -0.009830	 -3.058194	 -1.399380	 0.962439	 0.330003	 -0.689993	 0.585110	 -0.269544	 7
1462501456.977	 9	 0.004606	 0.006522	 -0.007653	 -3.058488	 -1.399107	 0.962084	 0.330011	 -0.690088	 0.585018	 -0.269490	 7
1462501456.987	 9	 0.001436	 0.005537	 0.001957	 -3.058699	 -1.398879	 0.961816	 0.330018	 -0.690167	 0.584944	 -0.269441	 7
1462501456.997	 9	 0.005735	 0.008747	 0.006211	 -3.058125	 -1.398713	 0.962292	 0.330041	 -0.690212	 0.584919	 -0.269351	 7
1462501457.007	 9	 0.008933	 0.011897	 0.001948	 -3.056898	 -1.398549	 0.963389	 0.330087	 -0.690242	 0.584920	 -0.269217	 7
1462501457.017	 9	 0.007870	 0.019292	 -0.005436	 -3.054958	 -1.398367	 0.965138	 0.330153	 -0.690265	 0.584944	 -0.269025	 7
1462501457.027	 9	 0.002559	 0.026738	 -0.007453	 -3.053265	 -1.398063	 0.966567	 0.330201	 -0.690340	 0.584930	 -0.268801	 7
1462501457.037	 9	 -0.012426	 0.015106	 -0.004233	 -3.052916	 -1.397645	 0.966724	 0.330222	 -0.690477	 0.584828	 -0.268647	 7
1462501457.047	 9	 -0.018887	 -0.003959	 0.004172	 -3.053409	 -1.397211	 0.966231	 0.330267	 -0.690612	 0.584669	 -0.268590	 7
1462501457.057	 9	 -0.013571	 -0.016662	 0.014665	 -3.054671	 -1.396911	 0.965104	 0.330296	 -0.690712	 0.584512	 -0.268639	 7
1462501457.067	 9	 -0.008251	 -0.034524	 0.029441	 -3.056986	 -1.396844	 0.963072	 0.330282	 -0.690755	 0.584381	 -0.268832	 7
1462501457.077	 9	 0.002407	 -0.048291	 0.042009	 -3.059466	 -1.397029	 0.961014	 0.330265	 -0.690710	 0.584310	 -0.269122	 7
1462501457.087	 9	 0.025895	 -0.057834	 0.055570	 -3.062358	 -1.397501	 0.958625	 0.330209	 -0.690584	 0.584311	 -0.269512	 7
1462501457.097	 9	 0.054734	 -0.064201	 0.069114	 -3.065412	 -1.398339	 0.956122	 0.330102	 -0.690352	 0.584424	 -0.269992	 7
1462501457.107	 9	 0.072929	 -0.063107	 0.080687	 -3.068698	 -1.399287	 0.953393	 0.329968	 -0.690093	 0.584567	 -0.270505	 7
1462501457.117	 9	 0.084742	 -0.054571	 0.089188	 -3.071866	 -1.400304	 0.950707	 0.329806	 -0.689823	 0.584748	 -0.271001	 7
1462501457.127	 9	 0.083735	 -0.036531	 0.082967	 -3.074099	 -1.401121	 0.948780	 0.329664	 -0.689609	 0.584915	 -0.271359	 7
1462501457.137	 9	 0.075227	 -0.019579	 0.070406	 -3.074839	 -1.401776	 0.948164	 0.329564	 -0.689426	 0.585096	 -0.271554	 7
1462501457.147	 9	 0.070931	 -0.010124	 0.052410	 -3.074022	 -1.402284	 0.949001	 0.329533	 -0.689256	 0.585287	 -0.271611	 7
1462501457.157	 9	 0.068709	 -0.011328	 0.032165	 -3.072593	 -1.402711	 0.950472	 0.329554	 -0.689088	 0.585466	 -0.271628	 7
1462501457.167	 9	 0.063312	 -0.010363	 0.016231	 -3.070994	 -1.403004	 0.952126	 0.329609	 -0.688951	 0.585603	 -0.271615	 7
1462501457.177	 9	 0.051522	 -0.018853	 0.014122	 -3.070363	 -1.403181	 0.952895	 0.329661	 -0.688860	 0.585661	 -0.271656	 7
1462501457.187	 9	 0.042950	 -0.029433	 0.018360	 -3.070627	 -1.403293	 0.952876	 0.329713	 -0.688796	 0.585658	 -0.271762	 7
1462501457.197	 9	 0.042924	 -0.032640	 0.016198	 -3.071241	 -1.403337	 0.952558	 0.329777	 -0.688753	 0.585614	 -0.271888	 7
1462501457.207	 9	 0.030064	 -0.045350	 0.018323	 -3.072043	 -1.403315	 0.952163	 0.329879	 -0.688715	 0.585528	 -0.272045	 7
1462501457.217	 9	 0.021545	 -0.046266	 0.016319	 -3.072821	 -1.403268	 0.951832	 0.330000	 -0.688676	 0.585429	 -0.272207	 7
1462501457.227	 9	 0.019417	 -0.035700	 0.005778	 -3.072582	 -1.403212	 0.952433	 0.330146	 -0.688626	 0.585368	 -0.272291	 7
1462501457.237	 9	 0.009832	 -0.025088	 -0.001502	 -3.071661	 -1.403102	 0.953620	 0.330303	 -0.688586	 0.585322	 -0.272301	 7
1462501457.247	 9	 -0.002916	 -0.009126	 -0.005507	 -3.069904	 -1.402888	 0.955492	 0.330468	 -0.688576	 0.585286	 -0.272204	 7
1462501457.257	 9	 -0.012484	 0.005733	 -0.013813	 -3.067845	 -1.402593	 0.957511	 0.330608	 -0.688605	 0.585253	 -0.272031	 7
1462501457.267	 9	 -0.025317	 0.004669	 -0.019041	 -3.065555	 -1.402106	 0.959739	 0.330783	 -0.688684	 0.585167	 -0.271803	 7
1462501457.277	 9	 -0.032843	 -0.005953	 -0.020141	 -3.064539	 -1.401667	 0.960803	 0.330924	 -0.688768	 0.585044	 -0.271682	 7
1462501457.287	 9	 -0.033960	 -0.015531	 -0.021286	 -3.063549	 -1.401230	 0.961941	 0.331097	 -0.688836	 0.584908	 -0.271592	 7
1462501457.297	 9	 -0.036150	 -0.026169	 -0.022432	 -3.062705	 -1.400803	 0.963043	 0.331299	 -0.688888	 0.584756	 -0.271543	 7
1462501457.307	 9	 -0.046849	 -0.028295	 -0.026621	 -3.061993	 -1.400332	 0.964055	 0.331516	 -0.688947	 0.584580	 -0.271505	 7
1462501457.317	 9	 -0.055367	 -0.026127	 -0.024395	 -3.061513	 -1.399790	 0.964837	 0.331733	 -0.689034	 0.584373	 -0.271466	 7
1462501457.327	 9	 -0.056393	 -0.023943	 -0.016904	 -3.061637	 -1.399396	 0.964980	 0.331883	 -0.689103	 0.584202	 -0.271476	 7
1462501457.337	 9	 -0.054237	 -0.023911	 -0.011593	 -3.062240	 -1.399065	 0.964631	 0.331993	 -0.689171	 0.584039	 -0.271520	 7
1462501457.347	 9	 -0.052114	 -0.030268	 -0.007407	 -3.062724	 -1.398772	 0.964449	 0.332119	 -0.689217	 0.583886	 -0.271578	 7
1462501457.357	 9	 -0.051057	 -0.034511	 -0.005324	 -3.063074	 -1.398593	 0.964432	 0.332244	 -0.689222	 0.583771	 -0.271660	 7
1462501457.367	 9	 -0.044688	 -0.043031	 -0.004393	 -3.063348	 -1.398481	 0.964561	 0.332387	 -0.689194	 0.583670	 -0.271771	 7
1462501457.377	 9	 -0.037180	 -0.049267	 -0.001250	 -3.063609	 -1.398499	 0.964785	 0.332537	 -0.689117	 0.583602	 -0.271930	 7
1462501457.387	 9	 -0.027540	 -0.050290	 0.008248	 -3.064276	 -1.398611	 0.964619	 0.332657	 -0.689022	 0.583551	 -0.272132	 7
1462501457.397	 9	 -0.013640	 -0.051341	 0.015578	 -3.065650	 -1.398849	 0.963742	 0.332717	 -0.688915	 0.583521	 -0.272395	 7
1462501457.407	 9	 -0.002953	 -0.050294	 0.017626	 -3.066948	 -1.399169	 0.962933	 0.332765	 -0.688783	 0.583522	 -0.272666	 7
1462501457.417	 9	 0.007740	 -0.046071	 0.017572	 -3.067902	 -1.399536	 0.962432	 0.332812	 -0.688635	 0.583554	 -0.272917	 7
1462501457.427	 9	 0.014153	 -0.040802	 0.013302	 -3.068565	 -1.399949	 0.962170	 0.332848	 -0.688472	 0.583617	 -0.273146	 7
1462501457.437	 9	 0.017385	 -0.029158	 0.006987	 -3.068872	 -1.400288	 0.962178	 0.332886	 -0.688335	 0.583678	 -0.273317	 7
1462501457.447	 9	 0.018464	 -0.019650	 -0.001461	 -3.068241	 -1.400573	 0.963015	 0.332944	 -0.688202	 0.583764	 -0.273398	 7
1462501457.457	 9	 0.014209	 -0.013286	 -0.005628	 -3.067295	 -1.400784	 0.964104	 0.333008	 -0.688091	 0.583843	 -0.273430	 7
1462501457.467	 9	 0.009963	 -0.006907	 -0.007664	 -3.065990	 -1.400912	 0.965488	 0.333083	 -0.688003	 0.583913	 -0.273409	 7
1462501457.477	 9	 0.005717	 0.000529	 -0.010756	 -3.064778	 -1.400956	 0.966716	 0.333144	 -0.687952	 0.583962	 -0.273359	 7
1462501457.487	 9	 -0.000672	 0.002683	 -0.009615	 -3.063690	 -1.400917	 0.967785	 0.333200	 -0.687934	 0.583984	 -0.273290	 7
1462501457.497	 9	 -0.010281	 0.001648	 -0.009541	 -3.062756	 -1.400779	 0.968694	 0.333263	 -0.687948	 0.583970	 -0.273208	 7
1462501457.507	 9	 -0.018854	 -0.005772	 -0.009536	 -3.061917	 -1.400600	 0.969571	 0.333349	 -0.687966	 0.583930	 -0.273141	 7
1462501457.517	 9	 -0.024190	 -0.006812	 -0.008434	 -3.060829	 -1.400340	 0.970734	 0.333474	 -0.687994	 0.583867	 -0.273057	 7
1462501457.527	 9	 -0.026341	 -0.005781	 -0.013736	 -3.059523	 -1.400087	 0.972100	 0.333604	 -0.688014	 0.583814	 -0.272958	 7
1462501457.537	 9	 -0.034864	 0.000596	 -0.017866	 -3.057519	 -1.399849	 0.974114	 0.333751	 -0.688017	 0.583795	 -0.272812	 7
1462501457.547	 9	 -0.037961	 0.010330	 -0.014485	 -3.055990	 -1.399590	 0.975566	 0.333847	 -0.688055	 0.583766	 -0.272660	 7
1462501457.557	 9	 -0.030444	 0.014609	 -0.008116	 -3.054668	 -1.399471	 0.976741	 0.333885	 -0.688072	 0.583787	 -0.272526	 7
1462501457.567	 9	 -0.016589	 0.012425	 -0.010390	 -3.053028	 -1.399422	 0.978243	 0.333931	 -0.688058	 0.583840	 -0.272390	 7
1462501457.577	 9	 -0.004895	 0.009145	 -0.017983	 -3.051405	 -1.399456	 0.979766	 0.333975	 -0.688016	 0.583915	 -0.272283	 7
1462501457.587	 9	 -0.006013	 0.002727	 -0.023362	 -3.050097	 -1.399442	 0.981059	 0.334041	 -0.687982	 0.583953	 -0.272208	 7
1462501457.597	 9	 -0.015593	 0.007018	 -0.022173	 -3.048798	 -1.399307	 0.982326	 0.334120	 -0.687984	 0.583953	 -0.272105	 7
1462501457.607	 9	 -0.018766	 0.010242	 -0.018918	 -3.047612	 -1.399121	 0.983430	 0.334185	 -0.688012	 0.583939	 -0.271983	 7
1462501457.617	 9	 -0.020918	 0.002834	 -0.014705	 -3.046731	 -1.398977	 0.984277	 0.334243	 -0.688030	 0.583924	 -0.271900	 7
1462501457.627	 9	 -0.010287	 -0.005708	 -0.014878	 -3.045575	 -1.398943	 0.985478	 0.334324	 -0.687996	 0.583943	 -0.271846	 7
1462501457.637	 9	 0.005691	 -0.011082	 -0.016133	 -3.043933	 -1.398980	 0.987221	 0.334438	 -0.687917	 0.583993	 -0.271797	 7
1462501457.647	 9	 0.014221	 -0.007955	 -0.021508	 -3.042188	 -1.399035	 0.989070	 0.334555	 -0.687830	 0.584051	 -0.271748	 7
1462501457.657	 9	 0.007854	 0.005838	 -0.028785	 -3.040294	 -1.398962	 0.990962	 0.334665	 -0.687791	 0.584087	 -0.271635	 7
1462501457.667	 9	 -0.005941	 0.026058	 -0.032740	 -3.038161	 -1.398715	 0.992907	 0.334753	 -0.687822	 0.584099	 -0.271421	 7
1462501457.677	 9	 -0.014418	 0.039904	 -0.033603	 -3.036399	 -1.398376	 0.994332	 0.334786	 -0.687915	 0.584090	 -0.271164	 7
1462501457.687	 9	 -0.018669	 0.041003	 -0.030358	 -3.035002	 -1.398056	 0.995349	 0.334783	 -0.688022	 0.584080	 -0.270918	 7
1462501457.697	 9	 -0.016530	 0.036788	 -0.024020	 -3.034285	 -1.397819	 0.995729	 0.334745	 -0.688120	 0.584072	 -0.270735	 7
1462501457.707	 9	 -0.005899	 0.029302	 -0.025247	 -3.033623	 -1.397609	 0.996118	 0.334721	 -0.688202	 0.584061	 -0.270579	 7
1462501457.717	 9	 0.002598	 0.022879	 -0.027511	 -3.033423	 -1.397473	 0.996121	 0.334687	 -0.688265	 0.584050	 -0.270484	 7
1462501457.727	 9	 0.001616	 0.024100	 -0.022096	 -3.033422	 -1.397295	 0.995926	 0.334651	 -0.688346	 0.584018	 -0.270392	 7
1462501457.737	 9	 -0.002613	 0.022078	 -0.009288	 -3.034068	 -1.397069	 0.995078	 0.334586	 -0.688462	 0.583950	 -0.270322	 7
1462501457.747	 9	 -0.006855	 0.018977	 0.001379	 -3.035051	 -1.396837	 0.993913	 0.334512	 -0.688588	 0.583867	 -0.270274	 7
1462501457.757	 9	 -0.007911	 0.019003	 0.004586	 -3.036072	 -1.396574	 0.992718	 0.334443	 -0.688721	 0.583772	 -0.270225	 7
1462501457.767	 9	 -0.010021	 0.023272	 0.005710	 -3.036588	 -1.396379	 0.991974	 0.334371	 -0.688829	 0.583722	 -0.270147	 7
1462501457.777	 9	 -0.010023	 0.022216	 0.006767	 -3.037146	 -1.396162	 0.991175	 0.334296	 -0.688946	 0.583665	 -0.270064	 7
1462501457.787	 9	 -0.011087	 0.020115	 0.009953	 -3.037240	 -1.396005	 0.990858	 0.334240	 -0.689030	 0.583641	 -0.269972	 7
1462501457.797	 9	 -0.008950	 0.025388	 0.004654	 -3.036868	 -1.395838	 0.990977	 0.334201	 -0.689106	 0.583632	 -0.269846	 7
1462501457.807	 9	 -0.011081	 0.029618	 0.000449	 -3.036485	 -1.395721	 0.991068	 0.334141	 -0.689174	 0.583645	 -0.269718	 7
1462501457.817	 9	 -0.016416	 0.030690	 -0.000561	 -3.036137	 -1.395578	 0.991107	 0.334077	 -0.689253	 0.583651	 -0.269581	 7
1462501457.827	 9	 -0.009983	 0.030725	 0.006844	 -3.036563	 -1.395449	 0.990374	 0.333971	 -0.689353	 0.583636	 -0.269489	 7
1462501457.837	 9	 0.000686	 0.022253	 0.016265	 -3.037487	 -1.395481	 0.989200	 0.333830	 -0.689416	 0.583651	 -0.269471	 7
1462501457.847	 9	 0.014521	 0.011598	 0.019243	 -3.038496	 -1.395607	 0.988045	 0.333705	 -0.689438	 0.583680	 -0.269507	 7
1462501457.857	 9	 0.016643	 0.006333	 0.016008	 -3.039541	 -1.395681	 0.986916	 0.333608	 -0.689466	 0.583682	 -0.269552	 7
1462501457.867	 9	 0.008087	 0.005271	 0.012875	 -3.040407	 -1.395693	 0.985990	 0.333540	 -0.689500	 0.583666	 -0.269582	 7
1462501457.877	 9	 -0.000454	 0.006345	 0.010828	 -3.041052	 -1.395620	 0.985277	 0.333495	 -0.689552	 0.583630	 -0.269583	 7
1462501457.887	 9	 -0.000471	 0.007370	 0.005509	 -3.041371	 -1.395547	 0.984883	 0.333464	 -0.689595	 0.583606	 -0.269563	 7
1462501457.897	 9	 -0.007927	 0.009527	 0.006660	 -3.042066	 -1.395433	 0.984099	 0.333416	 -0.689663	 0.583559	 -0.269552	 7
1462501457.907	 9	 -0.013241	 0.009582	 0.012036	 -3.042588	 -1.395367	 0.983471	 0.333363	 -0.689715	 0.583534	 -0.269536	 7
1462501457.917	 9	 -0.007851	 0.012826	 0.021611	 -3.043620	 -1.395399	 0.982298	 0.333254	 -0.689763	 0.583531	 -0.269556	 7
1462501457.927	 9	 0.006007	 0.003266	 0.028861	 -3.044827	 -1.395608	 0.981001	 0.333123	 -0.689759	 0.583574	 -0.269634	 7
1462501457.937	 9	 0.023045	 -0.006343	 0.030755	 -3.045904	 -1.396020	 0.979932	 0.333000	 -0.689679	 0.583675	 -0.269773	 7
1462501457.947	 9	 0.031534	 -0.013837	 0.027413	 -3.046955	 -1.396416	 0.978974	 0.332911	 -0.689588	 0.583760	 -0.269933	 7
1462501457.957	 9	 0.030426	 -0.017071	 0.020998	 -3.047881	 -1.396725	 0.978191	 0.332859	 -0.689508	 0.583813	 -0.270083	 7
1462501457.967	 9	 0.021916	 -0.003288	 0.011608	 -3.048326	 -1.396897	 0.977808	 0.332829	 -0.689464	 0.583848	 -0.270158	 7
1462501457.977	 9	 0.002784	 0.014837	 0.009812	 -3.048737	 -1.396802	 0.977289	 0.332785	 -0.689521	 0.583818	 -0.270130	 7
1462501457.987	 9	 -0.011020	 0.026602	 0.013239	 -3.049424	 -1.396677	 0.976349	 0.332683	 -0.689620	 0.583790	 -0.270068	 7
1462501457.997	 9	 -0.007794	 0.025582	 0.020662	 -3.050119	 -1.396695	 0.975368	 0.332544	 -0.689684	 0.583812	 -0.270025	 7
1462501458.007	 9	 0.003948	 0.017115	 0.031138	 -3.051414	 -1.396942	 0.973849	 0.332357	 -0.689693	 0.583884	 -0.270075	 7
1462501458.017	 9	 0.025228	 -0.005209	 0.041402	 -3.053164	 -1.397434	 0.972059	 0.332170	 -0.689618	 0.583998	 -0.270251	 7
1462501458.027	 9	 0.048660	 -0.025337	 0.046364	 -3.054997	 -1.398091	 0.970389	 0.332021	 -0.689466	 0.584138	 -0.270520	 7
1462501458.037	 9	 0.059313	 -0.027512	 0.044119	 -3.056676	 -1.398801	 0.968937	 0.331895	 -0.689284	 0.584291	 -0.270810	 7
1462501458.047	 9	 0.057179	 -0.021177	 0.036735	 -3.057895	 -1.399377	 0.967907	 0.331801	 -0.689130	 0.584419	 -0.271039	 7
1462501458.057	 9	 0.048694	 -0.002075	 0.027394	 -3.058775	 -1.399721	 0.967068	 0.331713	 -0.689054	 0.584502	 -0.271162	 7
1462501458.067	 9	 0.034868	 0.017035	 0.017034	 -3.059096	 -1.399821	 0.966599	 0.331629	 -0.689061	 0.584545	 -0.271154	 7
1462501458.077	 9	 0.013535	 0.021338	 0.015128	 -3.059526	 -1.399707	 0.965947	 0.331549	 -0.689142	 0.584524	 -0.271090	 7
1462501458.087	 9	 0.002846	 0.016067	 0.017304	 -3.060193	 -1.399503	 0.965094	 0.331483	 -0.689250	 0.584461	 -0.271032	 7
1462501458.097	 9	 0.003871	 0.006498	 0.018271	 -3.060457	 -1.399389	 0.964719	 0.331449	 -0.689308	 0.584431	 -0.270992	 7
1462501458.107	 9	 0.009164	 -0.004139	 0.020256	 -3.060762	 -1.399377	 0.964405	 0.331432	 -0.689322	 0.584419	 -0.271003	 7
1462501458.117	 9	 0.013395	 -0.008437	 0.015915	 -3.060753	 -1.399441	 0.964464	 0.331440	 -0.689295	 0.584433	 -0.271030	 7
1462501458.127	 9	 0.010166	 -0.010586	 0.011660	 -3.060710	 -1.399492	 0.964582	 0.331459	 -0.689268	 0.584441	 -0.271059	 7
1462501458.137	 9	 0.003703	 -0.021218	 0.009485	 -3.061138	 -1.399480	 0.964328	 0.331499	 -0.689255	 0.584401	 -0.271130	 7
1462501458.147	 9	 0.000504	 -0.023313	 0.012691	 -3.061750	 -1.399443	 0.963934	 0.331548	 -0.689248	 0.584341	 -0.271219	 7
1462501458.157	 9	 -0.002684	 -0.022224	 0.014860	 -3.062438	 -1.399420	 0.963457	 0.331588	 -0.689240	 0.584284	 -0.271312	 7
1462501458.167	 9	 -0.003713	 -0.017936	 0.019171	 -3.063216	 -1.399433	 0.962844	 0.331602	 -0.689232	 0.584242	 -0.271404	 7
1462501458.177	 9	 -0.001536	 -0.011537	 0.022408	 -3.063707	 -1.399469	 0.962453	 0.331605	 -0.689220	 0.584226	 -0.271465	 7
1462501458.187	 9	 0.002756	 -0.012499	 0.022378	 -3.064210	 -1.399558	 0.962033	 0.331593	 -0.689197	 0.584229	 -0.271533	 7
1462501458.197	 9	 0.010193	 -0.016799	 0.019075	 -3.064441	 -1.399709	 0.961927	 0.331599	 -0.689141	 0.584256	 -0.271610	 7
1462501458.207	 9	 0.017635	 -0.018980	 0.014726	 -3.064101	 -1.399849	 0.962417	 0.331646	 -0.689067	 0.584292	 -0.271662	 7
1462501458.217	 9	 0.018680	 -0.020077	 0.010442	 -3.063512	 -1.399980	 0.963172	 0.331713	 -0.688985	 0.584331	 -0.271705	 7
1462501458.227	 9	 0.017595	 -0.020105	 0.006187	 -3.062812	 -1.400033	 0.964055	 0.331804	 -0.688919	 0.584344	 -0.271731	 7
1462501458.237	 9	 0.012225	 -0.013823	 -0.009695	 -3.061486	 -1.399990	 0.965530	 0.331931	 -0.688867	 0.584350	 -0.271697	 7
1462501458.247	 9	 -0.005932	 -0.009576	 -0.018024	 -3.060068	 -1.399676	 0.967060	 0.332095	 -0.688893	 0.584273	 -0.271596	 7
1462501458.257	 9	 -0.027266	 -0.003168	 -0.023108	 -3.058787	 -1.399240	 0.968410	 0.332258	 -0.688963	 0.584158	 -0.271467	 7
1462501458.267	 9	 -0.037923	 0.000054	 -0.022985	 -3.057937	 -1.398690	 0.969292	 0.332403	 -0.689085	 0.583997	 -0.271327	 7
1462501458.277	 9	 -0.036868	 -0.003132	 -0.021958	 -3.056981	 -1.398256	 0.970276	 0.332535	 -0.689171	 0.583878	 -0.271203	 7
1462501458.287	 9	 -0.030516	 -0.013788	 -0.022113	 -3.055744	 -1.397890	 0.971638	 0.332703	 -0.689213	 0.583778	 -0.271104	 7
1462501458.297	 9	 -0.024154	 -0.028644	 -0.014846	 -3.054573	 -1.397644	 0.973069	 0.332895	 -0.689202	 0.583697	 -0.271071	 7
1462501458.307	 9	 -0.014547	 -0.037105	 -0.004352	 -3.054208	 -1.397570	 0.973787	 0.333048	 -0.689152	 0.583636	 -0.271141	 7
1462501458.317	 9	 -0.004958	 -0.040325	 -0.004465	 -3.054231	 -1.397559	 0.974168	 0.333188	 -0.689089	 0.583577	 -0.271258	 7
1462501458.327	 9	 -0.004992	 -0.041443	 -0.011936	 -3.053657	 -1.397519	 0.975162	 0.333369	 -0.689012	 0.583524	 -0.271343	 7
1462501458.337	 9	 -0.012468	 -0.031940	 -0.024572	 -3.052689	 -1.397351	 0.976495	 0.333574	 -0.688967	 0.583449	 -0.271366	 7
1462501458.347	 9	 -0.024147	 -0.014925	 -0.029641	 -3.051306	 -1.397041	 0.978098	 0.333774	 -0.688973	 0.583360	 -0.271297	 7
1462501458.357	 9	 -0.032551	 0.005433	 -0.028290	 -3.049875	 -1.396730	 0.979548	 0.333908	 -0.689011	 0.583299	 -0.271167	 7
1462501458.367	 9	 -0.031395	 0.016135	 -0.018609	 -3.048984	 -1.396460	 0.980319	 0.333959	 -0.689077	 0.583254	 -0.271033	 7
1462501458.377	 9	 -0.023906	 0.011928	 -0.009121	 -3.048782	 -1.396345	 0.980402	 0.333948	 -0.689122	 0.583239	 -0.270965	 7
1462501458.387	 9	 -0.006867	 -0.001897	 -0.001937	 -3.048936	 -1.396428	 0.980235	 0.333921	 -0.689106	 0.583263	 -0.270986	 7
1462501458.397	 9	 0.010142	 -0.016832	 -0.001158	 -3.048989	 -1.396685	 0.980316	 0.333922	 -0.689015	 0.583328	 -0.271077	 7
1462501458.407	 9	 0.020769	 -0.030653	 0.003950	 -3.049278	 -1.396969	 0.980305	 0.333955	 -0.688900	 0.583375	 -0.271229	 7
1462501458.417	 9	 0.023951	 -0.033861	 0.002826	 -3.049589	 -1.397205	 0.980328	 0.334014	 -0.688789	 0.583398	 -0.271388	 7
1462501458.427	 9	 0.021838	 -0.021160	 -0.006630	 -3.049025	 -1.397305	 0.981143	 0.334114	 -0.688701	 0.583415	 -0.271451	 7
1462501458.437	 9	 0.011205	 -0.003131	 -0.018093	 -3.047883	 -1.397235	 0.982370	 0.334214	 -0.688671	 0.583416	 -0.271402	 7
1462501458.447	 9	 -0.005829	 0.011757	 -0.025267	 -3.046470	 -1.397014	 0.983725	 0.334306	 -0.688697	 0.583396	 -0.271268	 7
1462501458.457	 9	 -0.017550	 0.013935	 -0.023012	 -3.045593	 -1.396667	 0.984494	 0.334373	 -0.688782	 0.583323	 -0.271123	 7
1462501458.467	 9	 -0.015407	 0.009728	 -0.015609	 -3.045246	 -1.396368	 0.984753	 0.334411	 -0.688868	 0.583248	 -0.271021	 7
1462501458.477	 9	 -0.007973	 -0.004068	 -0.008341	 -3.045651	 -1.396196	 0.984377	 0.334429	 -0.688923	 0.583174	 -0.271017	 7
1462501458.487	 9	 -0.001575	 -0.008312	 -0.004173	 -3.046232	 -1.396062	 0.983897	 0.334455	 -0.688962	 0.583098	 -0.271051	 7
1462501458.497	 9	 -0.000517	 -0.009386	 -0.005257	 -3.046688	 -1.395990	 0.983548	 0.334480	 -0.688978	 0.583045	 -0.271092	 7
1462501458.507	 9	 0.001688	 -0.003960	 -0.002007	 -3.047424	 -1.395939	 0.982881	 0.334474	 -0.689003	 0.582996	 -0.271142	 7
1462501458.517	 9	 -0.000433	 -0.002874	 0.000154	 -3.048320	 -1.395834	 0.982029	 0.334459	 -0.689053	 0.582926	 -0.271182	 7
1462501458.527	 9	 -0.008979	 -0.008137	 0.004443	 -3.049238	 -1.395747	 0.981177	 0.334448	 -0.689095	 0.582860	 -0.271233	 7
1462501458.537	 9	 -0.005776	 -0.012362	 0.009705	 -3.049969	 -1.395691	 0.980547	 0.334453	 -0.689117	 0.582804	 -0.271290	 7
1462501458.547	 9	 0.004907	 -0.013427	 0.013865	 -3.050487	 -1.395724	 0.980147	 0.334460	 -0.689104	 0.582783	 -0.271358	 7
1462501458.557	 9	 0.011330	 -0.009192	 0.013848	 -3.050627	 -1.395821	 0.980093	 0.334466	 -0.689068	 0.582799	 -0.271410	 7
1462501458.567	 9	 0.010275	 -0.003893	 0.010708	 -3.050657	 -1.395894	 0.980098	 0.334465	 -0.689043	 0.582817	 -0.271436	 7
1462501458.577	 9	 0.009249	 0.005675	 0.009740	 -3.050675	 -1.395932	 0.980025	 0.334438	 -0.689042	 0.582837	 -0.271428	 7
1462501458.587	 9	 0.004979	 0.004632	 0.010833	 -3.051074	 -1.395946	 0.979565	 0.334394	 -0.689061	 0.582837	 -0.271434	 7
1462501458.597	 9	 0.004939	 -0.002821	 0.009698	 -3.051575	 -1.395941	 0.979062	 0.334367	 -0.689079	 0.582820	 -0.271459	 7
1462501458.607	 9	 0.005982	 -0.006031	 0.007528	 -3.052203	 -1.395936	 0.978474	 0.334349	 -0.689093	 0.582793	 -0.271503	 7
1462501458.617	 9	 0.009165	 -0.012400	 0.010638	 -3.053008	 -1.395983	 0.977772	 0.334334	 -0.689088	 0.582769	 -0.271585	 7
1462501458.627	 9	 0.013435	 -0.016629	 0.015891	 -3.054152	 -1.396084	 0.976775	 0.334307	 -0.689071	 0.582747	 -0.271708	 7
1462501458.637	 9	 0.019859	 -0.015553	 0.020108	 -3.055305	 -1.396200	 0.975762	 0.334274	 -0.689052	 0.582731	 -0.271832	 7
1462501458.647	 9	 0.018775	 -0.019797	 0.021143	 -3.056358	 -1.396307	 0.974876	 0.334258	 -0.689027	 0.582711	 -0.271958	 7
1462501458.657	 9	 0.011329	 -0.016540	 0.015923	 -3.057001	 -1.396282	 0.974394	 0.334284	 -0.689027	 0.582660	 -0.272034	 7
1462501458.667	 9	 0.007081	 -0.012272	 0.015999	 -3.057365	 -1.396269	 0.974135	 0.334303	 -0.689025	 0.582630	 -0.272082	 7
1462501458.677	 9	 0.002802	 -0.013331	 0.014960	 -3.057545	 -1.396239	 0.974053	 0.334332	 -0.689022	 0.582601	 -0.272114	 7
1462501458.687	 9	 0.005955	 -0.015537	 0.005320	 -3.057710	 -1.396199	 0.974025	 0.334377	 -0.689016	 0.582564	 -0.272155	 7
1462501458.697	 9	 0.001708	 -0.009158	 0.003284	 -3.057816	 -1.396172	 0.974022	 0.334411	 -0.689009	 0.582538	 -0.272185	 7
1462501458.707	 9	 -0.007855	 -0.004836	 0.008736	 -3.058364	 -1.396103	 0.973527	 0.334412	 -0.689036	 0.582491	 -0.272217	 7
1462501458.717	 9	 -0.006729	 -0.000515	 0.018358	 -3.059000	 -1.396077	 0.972882	 0.334379	 -0.689065	 0.582464	 -0.272243	 7
1462501458.727	 9	 0.001796	 -0.005836	 0.021432	 -3.059799	 -1.396159	 0.972100	 0.334329	 -0.689064	 0.582464	 -0.272306	 7
1462501458.737	 9	 0.013489	 -0.015444	 0.021240	 -3.060597	 -1.396357	 0.971409	 0.334291	 -0.689016	 0.582490	 -0.272417	 7
1462501458.747	 9	 0.014526	 -0.020773	 0.020115	 -3.061356	 -1.396485	 0.970832	 0.334292	 -0.688974	 0.582485	 -0.272536	 7
1462501458.757	 9	 0.013460	 -0.018658	 0.018012	 -3.061978	 -1.396601	 0.970378	 0.334298	 -0.688933	 0.582481	 -0.272640	 7
1462501458.767	 9	 0.009193	 -0.016534	 0.015937	 -3.062570	 -1.396673	 0.969937	 0.334306	 -0.688906	 0.582467	 -0.272729	 7
1462501458.777	 9	 0.000653	 -0.014404	 0.012833	 -3.062877	 -1.396678	 0.969758	 0.334334	 -0.688892	 0.582441	 -0.272783	 7
1462501458.787	 9	 -0.000419	 -0.015464	 0.012832	 -3.063221	 -1.396722	 0.969545	 0.334353	 -0.688869	 0.582427	 -0.272848	 7
1462501458.797	 9	 -0.002537	 -0.011211	 0.011824	 -3.063516	 -1.396745	 0.969350	 0.334368	 -0.688855	 0.582412	 -0.272897	 7
1462501458.807	 9	 0.001745	 -0.005929	 0.008638	 -3.063309	 -1.396824	 0.969609	 0.334384	 -0.688818	 0.582438	 -0.272916	 7
1462501458.817	 9	 0.008166	 0.001467	 0.004387	 -3.062855	 -1.396950	 0.970054	 0.334384	 -0.688771	 0.582495	 -0.272913	 7
1462501458.827	 9	 0.007114	 0.005717	 0.003370	 -3.062680	 -1.396988	 0.970160	 0.334364	 -0.688766	 0.582523	 -0.272891	 7
1462501458.837	 9	 0.002842	 0.001544	 0.001237	 -3.062565	 -1.397019	 0.970238	 0.334353	 -0.688760	 0.582541	 -0.272880	 7
1462501458.847	 9	 0.006022	 0.001496	 -0.004120	 -3.062284	 -1.397031	 0.970512	 0.334363	 -0.688749	 0.582555	 -0.272865	 7
1462501458.857	 9	 -0.000397	 -0.001676	 -0.004094	 -3.062354	 -1.396989	 0.970452	 0.334369	 -0.688762	 0.582537	 -0.272864	 7
1462501458.867	 9	 -0.012181	 -0.011214	 -0.004080	 -3.062507	 -1.396852	 0.970403	 0.334419	 -0.688787	 0.582473	 -0.272876	 7
1462501458.877	 9	 -0.018571	 -0.011172	 -0.000826	 -3.062747	 -1.396682	 0.970272	 0.334472	 -0.688823	 0.582394	 -0.272889	 7
1462501458.887	 9	 -0.015361	 -0.011166	 0.001277	 -3.062861	 -1.396594	 0.970267	 0.334518	 -0.688833	 0.582347	 -0.272910	 7
1462501458.897	 9	 -0.015365	 -0.012230	 0.001267	 -3.062686	 -1.396563	 0.970555	 0.334571	 -0.688817	 0.582326	 -0.272928	 7
1462501458.907	 9	 -0.011085	 -0.009059	 0.000193	 -3.062352	 -1.396573	 0.970979	 0.334618	 -0.688789	 0.582327	 -0.272938	 7
1462501458.917	 9	 -0.007857	 -0.002694	 -0.000842	 -3.061723	 -1.396637	 0.971641	 0.334653	 -0.688746	 0.582364	 -0.272926	 7
1462501458.927	 9	 -0.009994	 -0.001640	 -0.002946	 -3.061062	 -1.396704	 0.972306	 0.334678	 -0.688707	 0.582406	 -0.272905	 7
1462501458.937	 9	 -0.011061	 -0.003748	 -0.000825	 -3.060739	 -1.396813	 0.972651	 0.334685	 -0.688663	 0.582449	 -0.272915	 7
1462501458.947	 9	 -0.004651	 -0.005864	 0.003363	 -3.060643	 -1.396952	 0.972793	 0.334683	 -0.688614	 0.582492	 -0.272950	 7
1462501458.957	 9	 0.010285	 -0.006972	 0.003222	 -3.060530	 -1.397248	 0.972973	 0.334664	 -0.688517	 0.582584	 -0.273020	 7
1462501458.967	 9	 0.019909	 0.000414	 -0.001056	 -3.060010	 -1.397578	 0.973505	 0.334641	 -0.688408	 0.582708	 -0.273058	 7
1462501458.977	 9	 0.018900	 0.015285	 -0.004107	 -3.059334	 -1.397841	 0.974071	 0.334596	 -0.688333	 0.582831	 -0.273041	 7
1462501458.987	 9	 0.015779	 0.030242	 -0.006077	 -3.058750	 -1.397996	 0.974398	 0.334512	 -0.688315	 0.582936	 -0.272964	 7
1462501458.997	 9	 0.012595	 0.031338	 -0.002842	 -3.058724	 -1.398047	 0.974118	 0.334401	 -0.688351	 0.582995	 -0.272884	 7
1462501459.007	 9	 0.012572	 0.022860	 0.001343	 -3.058760	 -1.398149	 0.973834	 0.334296	 -0.688365	 0.583062	 -0.272833	 7
1462501459.017	 9	 0.016799	 0.008009	 0.008628	 -3.059033	 -1.398255	 0.973441	 0.334223	 -0.688365	 0.583105	 -0.272832	 7
1462501459.027	 9	 0.020991	 -0.007958	 0.008443	 -3.059292	 -1.398345	 0.973209	 0.334204	 -0.688343	 0.583123	 -0.272871	 7
1462501459.037	 9	 0.020958	 -0.016452	 0.010496	 -3.059586	 -1.398432	 0.973052	 0.334222	 -0.688305	 0.583124	 -0.272943	 7
1462501459.047	 9	 0.016642	 -0.028125	 0.012556	 -3.060137	 -1.398496	 0.972726	 0.334260	 -0.688267	 0.583098	 -0.273050	 7
1462501459.057	 9	 0.013431	 -0.028130	 0.010452	 -3.060712	 -1.398449	 0.972424	 0.334331	 -0.688252	 0.583028	 -0.273151	 7
1462501459.067	 9	 0.002740	 -0.030241	 0.008393	 -3.060931	 -1.398366	 0.972496	 0.334433	 -0.688233	 0.582953	 -0.273231	 7
1462501459.077	 9	 -0.003667	 -0.022846	 -0.001075	 -3.060426	 -1.398189	 0.973238	 0.334570	 -0.688226	 0.582878	 -0.273240	 7
1462501459.087	 9	 -0.010041	 -0.012229	 -0.006250	 -3.059586	 -1.397959	 0.974231	 0.334705	 -0.688239	 0.582807	 -0.273197	 7
1462501459.097	 9	 -0.019589	 0.000556	 -0.007115	 -3.058500	 -1.397676	 0.975331	 0.334814	 -0.688281	 0.582744	 -0.273090	 7
1462501459.107	 9	 -0.019520	 0.012280	 -0.003810	 -3.057384	 -1.397504	 0.976342	 0.334865	 -0.688312	 0.582736	 -0.272967	 7
