% Gyrometer data recorded with 'snsrlog'
% 
% 
% Label description:
% 	 0: Default Label
% 	 1: still_drop
% 	 2: walk_drop
% 	 3: other
% 	 4: dtw_same
% 	 5: dtw_diff
% 	 6: delete
% 	 7: steal
% 
% Column description:
% 	 1: Seconds.milliseconds since 1970
% 	 2: Number of skipped measurements
% 	 3: Gyro X
% 	 4: Gyro Y
% 	 5: Gyro Z
% 	 6: Roll of the device
% 	 7: Pitch of the device
% 	 8: Yaw of the device
% 	 9: Quaternion X
% 	 10: Quaternion Y
% 	 11: Quaternion Z
% 	 12: Quaternion W
% 	 13: Label used for the current sample
% 
% 
1463571576.940	 0	 -0.720764	 0.887045	 -1.049834	 0.071756	 0.746772	 0.076069	 0.363002	 0.047236	 0.048457	 0.929328	 2
1463571576.950	 0	 -0.926339	 0.756711	 -1.065243	 0.088721	 0.737131	 0.062678	 0.358450	 0.052626	 0.045170	 0.930969	 2
1463571576.970	 1	 -0.917320	 0.592347	 -1.286398	 0.119903	 0.715414	 0.033830	 0.348499	 0.062026	 0.036790	 0.934531	 2
1463571576.990	 1	 -0.533184	 1.150736	 -1.425228	 0.159910	 0.698109	 0.000564	 0.340896	 0.075150	 0.027580	 0.936687	 2
1463571577.000	 1	 -0.499381	 1.458804	 -1.610229	 0.185767	 0.690580	 -0.018300	 0.337795	 0.084188	 0.022819	 0.937169	 2
1463571577.010	 2	 -0.686621	 1.773592	 -1.838006	 0.216004	 0.680850	 -0.039240	 0.333872	 0.095074	 0.017598	 0.937646	 2
1463571577.020	 2	 -0.958390	 1.988047	 -2.002035	 0.249068	 0.667654	 -0.061105	 0.328557	 0.107369	 0.012043	 0.938284	 2
1463571577.030	 2	 -1.190907	 2.088080	 -2.088603	 0.282891	 0.651240	 -0.082586	 0.321945	 0.120379	 0.006337	 0.939053	 2
1463571577.040	 2	 -1.340494	 2.321056	 -2.142684	 0.317643	 0.632451	 -0.103146	 0.314408	 0.134284	 0.000740	 0.939742	 2
1463571577.060	 3	 -1.166233	 3.300054	 -2.153209	 0.397669	 0.593138	 -0.141936	 0.299157	 0.168114	 -0.008897	 0.939236	 2
1463571577.080	 4	 -0.473222	 4.809730	 -1.962950	 0.501902	 0.561902	 -0.178129	 0.288742	 0.213754	 -0.014202	 0.933132	 2
1463571577.090	 4	 -0.190742	 5.582690	 -1.887877	 0.565209	 0.550097	 -0.195938	 0.285820	 0.241578	 -0.015029	 0.927212	 2
1463571577.100	 4	 -0.136817	 6.151590	 -1.884118	 0.634449	 0.538358	 -0.213166	 0.283226	 0.272112	 -0.014950	 0.919519	 2
1463571577.110	 5	 -0.297244	 6.168293	 -1.992339	 0.704735	 0.524347	 -0.229223	 0.279779	 0.303322	 -0.014805	 0.910769	 2
1463571577.130	 5	 -1.170096	 5.456925	 -2.465623	 0.830116	 0.480219	 -0.253016	 0.265296	 0.361088	 -0.017017	 0.893837	 2
1463571577.140	 5	 -1.289964	 5.060504	 -2.618541	 0.885086	 0.452282	 -0.261056	 0.255214	 0.387413	 -0.019422	 0.885664	 2
1463571577.150	 5	 -1.062064	 5.051594	 -2.728250	 0.939061	 0.423962	 -0.269405	 0.245333	 0.413135	 -0.022746	 0.876706	 2
1463571577.160	 5	 -0.594704	 5.073317	 -2.770485	 0.993957	 0.397068	 -0.280037	 0.236908	 0.438636	 -0.027154	 0.866450	 2
1463571577.170	 5	 0.024356	 5.080127	 -2.754496	 1.050118	 0.372829	 -0.294331	 0.230867	 0.463739	 -0.032786	 0.854735	 2
1463571577.180	 5	 0.592914	 5.066422	 -2.801139	 1.107289	 0.350468	 -0.312717	 0.227109	 0.488330	 -0.039884	 0.841644	 2
1463571577.190	 5	 1.015886	 5.057598	 -2.966900	 1.165203	 0.327835	 -0.334583	 0.224749	 0.512555	 -0.048649	 0.827290	 2
1463571577.200	 5	 1.341948	 4.930437	 -3.209652	 1.222504	 0.303268	 -0.359119	 0.223032	 0.536094	 -0.059285	 0.812000	 2
1463571577.210	 5	 1.541446	 4.697041	 -3.486397	 1.277551	 0.275547	 -0.385216	 0.221265	 0.558537	 -0.071851	 0.796188	 2
1463571577.220	 5	 1.595111	 4.476338	 -3.685018	 1.329446	 0.244621	 -0.411013	 0.218943	 0.579754	 -0.085741	 0.780127	 2
1463571577.230	 5	 1.579134	 4.337418	 -3.781024	 1.378619	 0.211288	 -0.435189	 0.215990	 0.599978	 -0.100180	 0.763766	 2
1463571577.240	 5	 1.586869	 4.189365	 -3.806982	 1.425199	 0.176471	 -0.457586	 0.212648	 0.619165	 -0.114833	 0.747147	 2
1463571577.250	 5	 1.663142	 4.078452	 -3.817204	 1.469537	 0.140641	 -0.478797	 0.209222	 0.637324	 -0.129742	 0.730213	 2
1463571577.260	 5	 1.841185	 4.098705	 -3.885709	 1.512967	 0.103572	 -0.499874	 0.206016	 0.654839	 -0.145216	 0.712500	 2
1463571577.270	 5	 2.091676	 4.200780	 -4.081975	 1.556533	 0.064096	 -0.521644	 0.202994	 0.672069	 -0.161812	 0.693494	 2
1463571577.280	 5	 2.331800	 4.255102	 -4.413946	 1.599933	 0.020735	 -0.544091	 0.199696	 0.688973	 -0.180040	 0.673070	 2
1463571577.290	 5	 2.438139	 4.297682	 -5.098695	 1.642778	 -0.029650	 -0.565720	 0.194610	 0.705741	 -0.200527	 0.651034	 2
1463571577.310	 6	 2.381964	 3.429960	 -6.121952	 1.716420	 -0.149987	 -0.601313	 0.176670	 0.735206	 -0.247224	 0.605921	 2
1463571577.320	 6	 2.257953	 2.695628	 -6.379225	 1.742965	 -0.216040	 -0.614086	 0.163801	 0.746216	 -0.272063	 0.585075	 2
1463571577.330	 6	 2.169221	 1.874836	 -6.518245	 1.761351	 -0.283835	 -0.624163	 0.148703	 0.754188	 -0.297313	 0.566297	 2
1463571577.340	 6	 2.131222	 0.982184	 -6.426038	 1.770637	 -0.351430	 -0.633004	 0.132062	 0.758782	 -0.322600	 0.550217	 2
1463571577.350	 6	 2.108624	 0.207199	 -6.088812	 1.771081	 -0.416207	 -0.642076	 0.114973	 0.760107	 -0.347187	 0.537103	 2
1463571577.360	 6	 2.014240	 -0.209910	 -5.711395	 1.765646	 -0.477273	 -0.651617	 0.098064	 0.759193	 -0.370483	 0.526072	 2
1463571577.370	 6	 1.935958	 -0.238129	 -5.234580	 1.758201	 -0.533424	 -0.661837	 0.082398	 0.757247	 -0.391888	 0.515956	 2
1463571577.380	 6	 2.055267	 -0.180158	 -4.819432	 1.749538	 -0.585518	 -0.674609	 0.068547	 0.754579	 -0.412151	 0.506007	 2
1463571577.400	 7	 1.714786	 -0.492615	 -4.190575	 1.724541	 -0.678530	 -0.703982	 0.043591	 0.746799	 -0.448762	 0.488880	 2
1463571577.410	 7	 1.358601	 -0.523810	 -4.089714	 1.712448	 -0.721244	 -0.714711	 0.030616	 0.743017	 -0.464176	 0.481174	 2
1463571577.420	 7	 1.147392	 -0.531463	 -4.057039	 1.701367	 -0.763143	 -0.723205	 0.017124	 0.739427	 -0.478350	 0.473429	 2
1463571577.430	 7	 1.105105	 -0.405300	 -3.837016	 1.690857	 -0.803331	 -0.731795	 0.004217	 0.735909	 -0.491636	 0.465526	 2
1463571577.440	 7	 1.199992	 -0.150173	 -3.377196	 1.680474	 -0.839443	 -0.742953	 -0.006486	 0.732469	 -0.504005	 0.457632	 2
1463571577.450	 7	 1.361022	 0.233357	 -2.785662	 1.670229	 -0.870146	 -0.758288	 -0.013925	 0.729250	 -0.515529	 0.449700	 2
1463571577.460	 7	 1.497043	 0.545293	 -1.956912	 1.659770	 -0.893167	 -0.778063	 -0.017308	 0.726330	 -0.525758	 0.442408	 2
1463571577.470	 7	 1.458619	 0.665976	 -1.025044	 1.648867	 -0.906958	 -0.800163	 -0.016915	 0.723700	 -0.533960	 0.436874	 2
1463571577.480	 7	 1.131058	 0.602204	 -0.125414	 1.639803	 -0.911318	 -0.819743	 -0.013773	 0.721758	 -0.539215	 0.433732	 2
1463571577.490	 7	 0.606808	 0.369860	 0.623022	 1.634235	 -0.907339	 -0.832314	 -0.009368	 0.720717	 -0.540952	 0.433416	 2
1463571577.500	 7	 -0.063318	 -0.059365	 1.150284	 1.632552	 -0.897107	 -0.835352	 -0.005188	 0.720572	 -0.539156	 0.435958	 2
1463571577.510	 7	 -0.679701	 -0.560466	 1.321510	 1.634089	 -0.883695	 -0.827884	 -0.002826	 0.721146	 -0.534285	 0.440998	 2
1463571577.520	 7	 -0.922833	 -1.126228	 1.234167	 1.633697	 -0.870580	 -0.815484	 -0.002865	 0.721280	 -0.528322	 0.447910	 2
1463571577.530	 7	 -0.990084	 -1.494796	 1.130075	 1.630274	 -0.858450	 -0.801368	 -0.004656	 0.720697	 -0.522122	 0.456029	 2
1463571577.540	 7	 -0.894740	 -1.635541	 1.120475	 1.623964	 -0.846811	 -0.788239	 -0.006988	 0.719410	 -0.516171	 0.464723	 2
1463571577.550	 7	 -0.586201	 -1.510901	 1.272418	 1.615238	 -0.834256	 -0.779086	 -0.008155	 0.717534	 -0.510830	 0.473425	 2
1463571577.560	 7	 -0.436691	 -1.320625	 1.610734	 1.605783	 -0.818935	 -0.773296	 -0.007292	 0.715467	 -0.505535	 0.482171	 2
1463571577.570	 7	 -0.543808	 -1.052654	 1.998900	 1.599254	 -0.799726	 -0.766796	 -0.004542	 0.714069	 -0.499045	 0.490957	 2
1463571577.580	 7	 -0.689507	 -0.745855	 2.299305	 1.596998	 -0.777262	 -0.758381	 -0.000240	 0.713679	 -0.491180	 0.499404	 2
1463571577.590	 7	 -0.801427	 -0.459861	 2.531014	 1.598488	 -0.752295	 -0.748583	 0.005364	 0.714198	 -0.482190	 0.507331	 2
1463571577.600	 7	 -0.905189	 -0.186180	 2.681540	 1.603254	 -0.725545	 -0.737743	 0.011978	 0.715539	 -0.472281	 0.514598	 2
1463571577.610	 7	 -0.944441	 0.039848	 2.740470	 1.610414	 -0.697922	 -0.726657	 0.019311	 0.717496	 -0.461851	 0.521077	 2
1463571577.620	 7	 -0.941994	 0.094189	 2.754809	 1.618036	 -0.670022	 -0.716045	 0.026935	 0.719570	 -0.451242	 0.527138	 2
1463571577.630	 7	 -0.951933	 0.045103	 2.728861	 1.624833	 -0.642193	 -0.705868	 0.034423	 0.721416	 -0.440565	 0.533177	 2
1463571577.640	 7	 -1.086759	 0.008986	 2.680674	 1.631434	 -0.614765	 -0.694871	 0.041356	 0.723217	 -0.429582	 0.539172	 2
1463571577.650	 7	 -1.313373	 -0.062735	 2.672387	 1.638407	 -0.587259	 -0.681807	 0.047564	 0.725161	 -0.417805	 0.545269	 2
1463571577.660	 7	 -1.517686	 -0.143157	 2.646774	 1.645403	 -0.559771	 -0.666572	 0.052892	 0.727175	 -0.405224	 0.551555	 2
1463571577.670	 7	 -1.563334	 -0.114115	 2.673020	 1.652319	 -0.531995	 -0.650769	 0.057998	 0.729195	 -0.392180	 0.557768	 2
1463571577.680	 7	 -1.443865	 0.038167	 2.746934	 1.659344	 -0.503633	 -0.636420	 0.063756	 0.731205	 -0.379143	 0.563493	 2
1463571577.690	 7	 -1.188672	 0.355788	 2.941637	 1.667261	 -0.473725	 -0.625230	 0.071256	 0.733333	 -0.366271	 0.568323	 2
1463571577.700	 7	 -0.832396	 0.817922	 3.158119	 1.677215	 -0.441893	 -0.618428	 0.081262	 0.735802	 -0.353743	 0.571715	 2
1463571577.710	 7	 -0.348840	 1.417287	 3.283114	 1.690334	 -0.408949	 -0.617247	 0.094114	 0.738818	 -0.342093	 0.572942	 2
1463571577.720	 7	 0.153924	 1.972478	 3.191182	 1.706939	 -0.377029	 -0.621987	 0.109227	 0.742404	 -0.332039	 0.571538	 2
1463571577.730	 7	 0.689407	 2.346593	 3.223039	 1.725862	 -0.346265	 -0.632779	 0.126401	 0.746098	 -0.323666	 0.567980	 2
1463571577.740	 7	 1.261368	 2.467877	 3.604994	 1.744557	 -0.313595	 -0.650532	 0.146561	 0.748831	 -0.316296	 0.563674	 2
1463571577.750	 7	 1.612676	 2.563016	 3.812775	 1.763181	 -0.279149	 -0.673659	 0.169081	 0.750540	 -0.309461	 0.558869	 2
1463571577.760	 7	 1.550862	 2.535047	 3.597769	 1.782622	 -0.246373	 -0.697433	 0.191220	 0.751920	 -0.302921	 0.553435	 2
1463571577.770	 7	 1.238964	 2.203791	 3.113546	 1.801034	 -0.217608	 -0.717957	 0.210525	 0.753055	 -0.296622	 0.548272	 2
1463571577.780	 7	 0.954647	 1.494989	 2.498744	 1.814458	 -0.194177	 -0.734530	 0.225814	 0.753240	 -0.291391	 0.544729	 2
1463571577.790	 7	 0.645994	 0.803510	 1.916289	 1.821879	 -0.176043	 -0.746763	 0.236903	 0.752451	 -0.287406	 0.543223	 2
1463571577.810	 8	 0.624058	 -0.018979	 1.130820	 1.823663	 -0.151952	 -0.765197	 0.251200	 0.748697	 -0.283603	 0.543986	 2
1463571577.820	 8	 0.659149	 -0.058154	 0.876498	 1.821659	 -0.144432	 -0.773969	 0.256406	 0.746380	 -0.283563	 0.544761	 2
1463571577.830	 8	 0.568442	 0.221556	 0.544176	 1.821915	 -0.139874	 -0.781457	 0.260573	 0.745072	 -0.283944	 0.544376	 2
1463571577.840	 8	 0.252753	 0.646567	 0.356910	 1.826777	 -0.136973	 -0.785743	 0.263709	 0.745566	 -0.283437	 0.542450	 2
1463571577.850	 8	 0.018449	 1.095929	 0.480366	 1.836285	 -0.132967	 -0.787502	 0.266873	 0.747537	 -0.281219	 0.539336	 2
1463571577.860	 8	 -0.056019	 1.449484	 0.656958	 1.849890	 -0.126887	 -0.788745	 0.270993	 0.750465	 -0.277539	 0.535105	 2
1463571577.870	 8	 -0.103665	 1.534667	 0.650705	 1.864987	 -0.120218	 -0.789754	 0.275355	 0.753735	 -0.273332	 0.530427	 2
1463571577.880	 8	 -0.099517	 1.264827	 0.403032	 1.878640	 -0.115370	 -0.790194	 0.278743	 0.756834	 -0.269792	 0.526040	 2
1463571577.890	 8	 -0.175094	 0.580661	 0.189500	 1.886317	 -0.112781	 -0.789458	 0.280221	 0.758713	 -0.267578	 0.523672	 2
1463571577.900	 8	 -0.376284	 -0.066716	 0.011509	 1.887462	 -0.111136	 -0.786631	 0.279760	 0.759258	 -0.266074	 0.523895	 2
1463571577.910	 8	 -0.635267	 -0.570984	 -0.109228	 1.883586	 -0.110276	 -0.780859	 0.277296	 0.758966	 -0.264782	 0.526277	 2
1463571577.920	 8	 -0.720793	 -0.866099	 -0.065402	 1.876251	 -0.108840	 -0.773751	 0.274035	 0.757877	 -0.263389	 0.530238	 2
1463571577.930	 8	 -0.528977	 -0.742899	 -0.012638	 1.868836	 -0.107361	 -0.767969	 0.271289	 0.756558	 -0.262319	 0.534051	 2
1463571577.940	 8	 -0.023299	 -0.421283	 0.101055	 1.864024	 -0.106179	 -0.766494	 0.270436	 0.755362	 -0.262143	 0.536258	 2
1463571577.950	 8	 0.654310	 0.493380	 0.075956	 1.865016	 -0.106562	 -0.771687	 0.272419	 0.754958	 -0.263540	 0.535138	 2
1463571577.960	 8	 1.155795	 1.381240	 -0.196181	 1.876645	 -0.110660	 -0.781165	 0.276383	 0.757128	 -0.265965	 0.528803	 2
1463571577.970	 8	 1.422959	 1.118024	 -0.597420	 1.887411	 -0.119737	 -0.792935	 0.279744	 0.759147	 -0.270882	 0.521596	 2
1463571577.980	 8	 1.267766	 0.912200	 -0.735467	 1.895372	 -0.130711	 -0.803297	 0.281710	 0.760745	 -0.276464	 0.515242	 2
1463571577.990	 8	 0.868861	 1.419746	 -1.015027	 1.906975	 -0.142616	 -0.809654	 0.282445	 0.763866	 -0.280806	 0.507820	 2
1463571578.000	 8	 0.174793	 2.708771	 -1.304994	 1.930646	 -0.155559	 -0.808931	 0.281937	 0.771007	 -0.282033	 0.496505	 2
1463571578.010	 8	 -0.659995	 3.534839	 -1.544756	 1.966290	 -0.167564	 -0.799054	 0.279852	 0.782059	 -0.279059	 0.481863	 2
1463571578.020	 8	 -0.665966	 2.616095	 -1.957178	 1.998520	 -0.181440	 -0.784624	 0.274958	 0.792713	 -0.276368	 0.468642	 2
1463571578.030	 8	 -0.056519	 0.705452	 -2.352214	 2.012564	 -0.201021	 -0.772921	 0.267103	 0.798824	 -0.279153	 0.461096	 2
1463571578.040	 8	 0.424135	 -0.899629	 -2.757141	 2.009098	 -0.226356	 -0.764297	 0.256480	 0.800628	 -0.287211	 0.459044	 2
1463571578.050	 8	 0.585899	 -2.030300	 -3.138890	 1.993159	 -0.256455	 -0.756513	 0.242976	 0.799511	 -0.298726	 0.460985	 2
1463571578.060	 8	 0.300905	 -2.356125	 -3.303568	 1.972393	 -0.288170	 -0.746689	 0.227228	 0.797341	 -0.310690	 0.464851	 2
1463571578.080	 9	 -0.855805	 -1.797353	 -3.132696	 1.943981	 -0.343768	 -0.712615	 0.193528	 0.796350	 -0.326121	 0.471189	 2
1463571578.090	 9	 -1.165127	 -1.883513	 -3.258696	 1.933522	 -0.369823	 -0.689296	 0.175054	 0.796727	 -0.331052	 0.474328	 2
1463571578.100	 9	 -1.314531	 -1.682723	 -3.497454	 1.925626	 -0.397458	 -0.663339	 0.155386	 0.797514	 -0.335553	 0.476687	 2
1463571578.110	 9	 -1.346256	 -1.144482	 -3.795912	 1.923883	 -0.427677	 -0.635508	 0.135159	 0.799411	 -0.339984	 0.476535	 2
1463571578.120	 9	 -1.242193	 -0.529193	 -4.121479	 1.929500	 -0.461092	 -0.606690	 0.114798	 0.802509	 -0.344890	 0.473129	 2
1463571578.130	 9	 -1.013165	 -0.081570	 -4.490193	 1.941033	 -0.498302	 -0.577703	 0.094279	 0.806244	 -0.350980	 0.466793	 2
1463571578.140	 9	 -0.695338	 0.238776	 -4.920547	 1.956959	 -0.540115	 -0.548955	 0.073353	 0.810019	 -0.358889	 0.457916	 2
1463571578.150	 9	 -0.351498	 0.469261	 -5.411646	 1.976565	 -0.587234	 -0.520046	 0.051650	 0.813408	 -0.368947	 0.446742	 2
1463571578.160	 9	 -0.018335	 0.606971	 -5.793743	 1.999272	 -0.639002	 -0.490657	 0.029267	 0.816025	 -0.380982	 0.433705	 2
1463571578.170	 9	 0.355154	 0.548016	 -5.998973	 2.023205	 -0.694009	 -0.461274	 0.006591	 0.817292	 -0.394692	 0.419772	 2
1463571578.180	 9	 0.873633	 0.249003	 -5.955113	 2.044292	 -0.750816	 -0.434409	 -0.015663	 0.816366	 -0.410052	 0.406398	 2
1463571578.190	 9	 1.492321	 -0.078081	 -5.635289	 2.058730	 -0.807800	 -0.413798	 -0.036343	 0.812817	 -0.426964	 0.394601	 2
1463571578.200	 9	 2.064554	 -0.064919	 -5.056111	 2.066162	 -0.862886	 -0.402370	 -0.053959	 0.807240	 -0.444894	 0.384084	 2
1463571578.210	 9	 2.563936	 0.097339	 -4.187156	 2.066137	 -0.913405	 -0.403144	 -0.066964	 0.800464	 -0.463122	 0.374554	 2
1463571578.220	 9	 2.988902	 0.194954	 -3.168947	 2.055140	 -0.957185	 -0.418931	 -0.074841	 0.792754	 -0.481024	 0.366819	 2
1463571578.230	 9	 3.328970	 0.244292	 -2.242104	 2.031269	 -0.993908	 -0.450583	 -0.078058	 0.784277	 -0.498413	 0.361109	 2
1463571578.240	 9	 3.472521	 0.193911	 -1.505250	 1.995263	 -1.023859	 -0.495628	 -0.077867	 0.775261	 -0.514966	 0.357376	 2
1463571578.250	 9	 3.254689	 -0.107445	 -0.909330	 1.950313	 -1.046605	 -0.547877	 -0.075952	 0.766123	 -0.529721	 0.355926	 2
1463571578.260	 9	 2.425488	 -0.703818	 -0.468566	 1.904317	 -1.061267	 -0.594347	 -0.074878	 0.757782	 -0.540678	 0.357529	 2
1463571578.270	 9	 1.538558	 -0.834466	 -0.069859	 1.866989	 -1.068283	 -0.627348	 -0.074705	 0.751471	 -0.547228	 0.360904	 2
1463571578.280	 9	 1.007503	 -0.407748	 0.330936	 1.840831	 -1.069162	 -0.651073	 -0.073267	 0.747509	 -0.550805	 0.363972	 2
1463571578.290	 9	 0.683305	 0.068666	 0.628079	 1.824602	 -1.065670	 -0.669202	 -0.069882	 0.745567	 -0.552579	 0.365927	 2
1463571578.310	 10	 0.620143	 -0.062268	 0.733987	 1.800041	 -1.054124	 -0.699421	 -0.061766	 0.743177	 -0.554239	 0.369718	 2
1463571578.320	 10	 0.863611	 -0.401906	 0.638117	 1.780754	 -1.049361	 -0.717979	 -0.058703	 0.740583	 -0.555856	 0.372981	 2
1463571578.330	 10	 1.244474	 -0.738218	 0.469676	 1.753117	 -1.046514	 -0.742364	 -0.056474	 0.736337	 -0.558905	 0.377152	 2
1463571578.340	 10	 1.430380	 -2.342989	 0.281536	 1.709895	 -1.045595	 -0.771541	 -0.057604	 0.729000	 -0.563006	 0.385053	 2
1463571578.350	 10	 1.004234	 -3.845933	 0.100739	 1.654299	 -1.045421	 -0.794257	 -0.065011	 0.718811	 -0.565713	 0.398815	 2
1463571578.360	 10	 0.531814	 -3.459222	 -0.004520	 1.606810	 -1.045665	 -0.807055	 -0.073969	 0.709615	 -0.566712	 0.412082	 2
1463571578.370	 10	 0.253825	 -2.388851	 -0.064611	 1.574777	 -1.046198	 -0.813216	 -0.081057	 0.703155	 -0.566869	 0.421500	 2
1463571578.380	 10	 0.169952	 -1.273904	 -0.205910	 1.556185	 -1.047836	 -0.816838	 -0.085635	 0.699298	 -0.567207	 0.426527	 2
1463571578.390	 10	 0.182406	 -0.522186	 -0.382334	 1.546258	 -1.051199	 -0.820551	 -0.088344	 0.697212	 -0.568263	 0.427981	 2
1463571578.400	 10	 0.170505	 -0.471828	 -0.483010	 1.538487	 -1.055782	 -0.824396	 -0.090839	 0.695552	 -0.569674	 0.428284	 2
1463571578.420	 11	 -0.085369	 -1.306161	 -0.503466	 1.516317	 -1.065925	 -0.827124	 -0.099824	 0.690555	 -0.571232	 0.432277	 2
1463571578.430	 11	 -0.386073	 -1.483959	 -0.502503	 1.506848	 -1.071101	 -0.821375	 -0.106355	 0.688025	 -0.570512	 0.435691	 2
1463571578.440	 11	 -0.684453	 -1.573881	 -0.556161	 1.501916	 -1.076899	 -0.809279	 -0.113987	 0.686071	 -0.568728	 0.439161	 2
1463571578.450	 11	 -0.896175	 -1.479295	 -0.505478	 1.501966	 -1.082812	 -0.792063	 -0.121984	 0.684834	 -0.566097	 0.442331	 2
1463571578.460	 11	 -0.938136	 -1.345161	 -0.212912	 1.505598	 -1.086398	 -0.772421	 -0.128961	 0.684251	 -0.562677	 0.445606	 2
1463571578.470	 11	 -0.911993	 -1.284338	 0.117813	 1.509945	 -1.086581	 -0.752809	 -0.134515	 0.683923	 -0.558611	 0.449565	 2
1463571578.480	 11	 -1.098650	 -1.037206	 0.387113	 1.518794	 -1.083930	 -0.730189	 -0.138854	 0.684514	 -0.553562	 0.453573	 2
1463571578.490	 11	 -1.338217	 -0.616169	 0.562573	 1.536031	 -1.079248	 -0.702454	 -0.141967	 0.686762	 -0.547466	 0.456600	 2
1463571578.500	 11	 -1.569030	 -0.283168	 0.628429	 1.560669	 -1.073399	 -0.670418	 -0.144253	 0.690489	 -0.540608	 0.458431	 2
1463571578.510	 11	 -1.883688	 -0.075453	 0.690653	 1.592329	 -1.066585	 -0.632964	 -0.146383	 0.695538	 -0.532737	 0.459337	 2
1463571578.520	 11	 -2.175076	 0.039020	 0.811489	 1.629620	 -1.057960	 -0.590392	 -0.148475	 0.701696	 -0.523601	 0.459804	 2
1463571578.530	 11	 -2.423032	 0.073696	 0.946125	 1.670216	 -1.046963	 -0.544413	 -0.150498	 0.708643	 -0.513230	 0.460185	 2
1463571578.540	 11	 -2.866831	 0.303910	 0.978776	 1.716942	 -1.033890	 -0.492907	 -0.152746	 0.716876	 -0.501370	 0.459767	 2
1463571578.550	 11	 -3.044930	 0.557553	 0.976292	 1.768683	 -1.019131	 -0.438307	 -0.154974	 0.726294	 -0.488571	 0.458017	 2
1463571578.560	 11	 -2.608324	 0.629106	 1.192703	 1.813747	 -1.002192	 -0.392446	 -0.155666	 0.735211	 -0.476453	 0.456316	 2
1463571578.570	 11	 -1.955276	 0.629908	 1.713511	 1.845247	 -0.981640	 -0.362371	 -0.153218	 0.742847	 -0.465550	 0.456033	 2
1463571578.580	 11	 -1.546610	 0.568155	 2.309403	 1.865041	 -0.956291	 -0.345556	 -0.147483	 0.749569	 -0.454986	 0.457583	 2
1463571578.590	 11	 -1.608357	 0.478801	 2.722625	 1.879699	 -0.926515	 -0.333535	 -0.140043	 0.756100	 -0.443425	 0.460516	 2
1463571578.600	 11	 -2.052841	 0.416733	 2.930543	 1.896070	 -0.893029	 -0.318356	 -0.132563	 0.763296	 -0.429714	 0.463846	 2
1463571578.610	 11	 -2.454936	 0.036938	 2.902801	 1.912948	 -0.857652	 -0.298424	 -0.126528	 0.770545	 -0.413933	 0.467878	 2
1463571578.620	 11	 -2.607463	 -0.649319	 2.663275	 1.924981	 -0.823114	 -0.275991	 -0.122982	 0.776393	 -0.397204	 0.473623	 2
1463571578.630	 11	 -2.476843	 -1.390435	 2.306737	 1.928830	 -0.791841	 -0.253905	 -0.122026	 0.779875	 -0.380925	 0.481456	 2
1463571578.640	 11	 -2.260354	 -1.840034	 1.996926	 1.925531	 -0.764395	 -0.233609	 -0.122852	 0.781193	 -0.365800	 0.490749	 2
1463571578.650	 11	 -2.110167	 -1.740811	 1.806836	 1.920349	 -0.739685	 -0.214818	 -0.124172	 0.781711	 -0.351753	 0.499779	 2
1463571578.660	 11	 -2.047709	 -1.115000	 1.741776	 1.919271	 -0.716208	 -0.196873	 -0.124768	 0.783081	 -0.338479	 0.506605	 2
1463571578.670	 11	 -1.901139	 -0.193819	 1.814083	 1.925331	 -0.692710	 -0.180917	 -0.123422	 0.786344	 -0.326018	 0.510041	 2
1463571578.680	 11	 -1.556534	 0.597302	 1.925020	 1.936614	 -0.669118	 -0.169560	 -0.119507	 0.791206	 -0.314893	 0.510443	 2
1463571578.690	 11	 -1.023249	 1.111385	 2.043460	 1.949375	 -0.646146	 -0.165105	 -0.112929	 0.796739	 -0.305729	 0.508904	 2
1463571578.700	 11	 -0.485039	 1.343331	 2.125128	 1.960731	 -0.624285	 -0.167866	 -0.104089	 0.802110	 -0.298626	 0.506565	 2
1463571578.710	 11	 -0.116140	 1.325814	 2.058873	 1.969793	 -0.604280	 -0.175488	 -0.094197	 0.806830	 -0.293242	 0.504144	 2
1463571578.720	 11	 -0.020311	 1.214591	 1.867298	 1.977321	 -0.586533	 -0.184274	 -0.084694	 0.810859	 -0.288868	 0.501886	 2
1463571578.730	 11	 -0.159499	 1.050895	 1.678346	 1.984574	 -0.570255	 -0.191220	 -0.076392	 0.814487	 -0.284524	 0.499822	 2
1463571578.740	 11	 -0.309906	 0.529991	 1.507484	 1.989039	 -0.554947	 -0.195615	 -0.069802	 0.817147	 -0.279764	 0.499130	 2
1463571578.750	 11	 -0.316698	 -0.082844	 1.331319	 1.988088	 -0.541042	 -0.198675	 -0.064897	 0.818223	 -0.275014	 0.500667	 2
1463571578.760	 11	 -0.181371	 -0.420703	 1.143685	 1.982824	 -0.529245	 -0.201895	 -0.061075	 0.817991	 -0.271002	 0.503704	 2
1463571578.770	 11	 0.044554	 -0.325977	 0.950763	 1.976844	 -0.520034	 -0.206323	 -0.057541	 0.817357	 -0.268310	 0.506583	 2
1463571578.780	 11	 0.287060	 0.121772	 0.751388	 1.973850	 -0.513500	 -0.212343	 -0.053679	 0.817276	 -0.267180	 0.507733	 2
1463571578.790	 11	 0.544476	 0.547278	 0.570861	 1.974640	 -0.509814	 -0.220178	 -0.049351	 0.817959	 -0.267736	 0.506779	 2
1463571578.800	 11	 0.708459	 0.785342	 0.465073	 1.977296	 -0.507913	 -0.229488	 -0.044660	 0.818991	 -0.269404	 0.504658	 2
1463571578.810	 11	 0.794428	 1.069830	 0.276200	 1.982839	 -0.508109	 -0.239151	 -0.040003	 0.820575	 -0.272028	 0.501056	 2
1463571578.820	 11	 0.863945	 1.221747	 0.133130	 1.989962	 -0.509967	 -0.248768	 -0.035589	 0.822399	 -0.275293	 0.496596	 2
1463571578.830	 11	 0.915161	 1.343906	 -0.014320	 1.998471	 -0.513475	 -0.258350	 -0.031425	 0.824407	 -0.279186	 0.491345	 2
1463571578.840	 11	 0.942028	 1.317976	 -0.205567	 2.007375	 -0.518794	 -0.267375	 -0.027897	 0.826331	 -0.283622	 0.485754	 2
1463571578.850	 11	 0.964401	 1.058780	 -0.444772	 2.014712	 -0.526345	 -0.275493	 -0.025538	 0.827661	 -0.288662	 0.480624	 2
1463571578.860	 11	 1.003925	 0.586836	 -0.680779	 2.018187	 -0.536245	 -0.282745	 -0.024705	 0.827849	 -0.294346	 0.476881	 2
1463571578.870	 11	 1.058760	 -0.039319	 -0.908761	 2.015974	 -0.548428	 -0.289455	 -0.025553	 0.826487	 -0.300706	 0.475229	 2
1463571578.880	 11	 1.087728	 -0.717532	 -1.139135	 2.007280	 -0.562849	 -0.295532	 -0.028285	 0.823389	 -0.307674	 0.475990	 2
1463571578.890	 11	 0.954128	 -1.080969	 -1.295889	 1.994463	 -0.578507	 -0.300163	 -0.032664	 0.819169	 -0.314660	 0.478418	 2
1463571578.900	 11	 0.594671	 -0.715962	 -1.415122	 1.985496	 -0.593990	 -0.300950	 -0.038038	 0.815784	 -0.320654	 0.479823	 2
1463571578.910	 11	 0.168679	 0.241559	 -1.256494	 1.987394	 -0.607270	 -0.297555	 -0.042785	 0.815059	 -0.324975	 0.477744	 2
1463571578.920	 11	 -0.329918	 1.240008	 -0.617259	 2.000796	 -0.613724	 -0.291299	 -0.044928	 0.817545	 -0.326262	 0.472393	 2
1463571578.930	 11	 -0.604220	 1.853425	 0.258368	 2.022025	 -0.611058	 -0.285275	 -0.043223	 0.822625	 -0.324287	 0.465035	 2
1463571578.940	 11	 -0.571705	 1.312227	 1.028923	 2.037889	 -0.600832	 -0.283474	 -0.038678	 0.827176	 -0.320206	 0.460166	 2
1463571578.950	 11	 -0.380309	 0.411265	 1.387627	 2.042883	 -0.586998	 -0.285957	 -0.033186	 0.829585	 -0.315437	 0.459551	 2
1463571578.960	 11	 0.019801	 -0.260192	 1.358711	 2.038112	 -0.574236	 -0.292534	 -0.027816	 0.829665	 -0.311861	 0.462195	 2
1463571578.970	 11	 0.477566	 -0.471124	 1.057547	 2.028224	 -0.565591	 -0.302502	 -0.022911	 0.828196	 -0.310655	 0.465898	 2
1463571578.980	 11	 0.772098	 -0.194493	 0.456466	 2.019619	 -0.563113	 -0.313337	 -0.019101	 0.826492	 -0.312125	 0.468106	 2
1463571578.990	 11	 0.774463	 -0.180031	 -0.041131	 2.013545	 -0.566052	 -0.322036	 -0.017260	 0.824926	 -0.315252	 0.468845	 2
1463571579.010	 12	 0.100902	 -0.321792	 0.084912	 2.000671	 -0.570491	 -0.330537	 -0.017016	 0.821638	 -0.318861	 0.472175	 2
1463571579.020	 12	 -0.103887	 -0.047345	 0.593354	 1.998974	 -0.566038	 -0.331802	 -0.015541	 0.821575	 -0.317428	 0.473300	 2
1463571579.040	 13	 1.087325	 0.064762	 1.866138	 1.987033	 -0.544259	 -0.356335	 -0.001324	 0.820335	 -0.314823	 0.477426	 2
1463571579.050	 13	 1.744785	 0.156842	 1.776009	 1.974534	 -0.533761	 -0.382065	 0.010182	 0.817925	 -0.316991	 0.480012	 2
1463571579.060	 13	 1.076575	 2.649784	 1.191146	 1.982320	 -0.526780	 -0.402911	 0.021921	 0.820005	 -0.319241	 0.474549	 2
1463571579.070	 13	 -0.395294	 4.647555	 0.639579	 2.024885	 -0.519350	 -0.405770	 0.031923	 0.830291	 -0.316476	 0.457647	 2
1463571579.080	 13	 -0.933434	 2.977894	 -0.135424	 2.064206	 -0.514792	 -0.397540	 0.035892	 0.839545	 -0.312174	 0.443197	 2
1463571579.090	 13	 -0.982289	 0.548147	 -0.951601	 2.082523	 -0.516565	 -0.383465	 0.032349	 0.843711	 -0.309464	 0.437421	 2
1463571579.100	 13	 -0.683304	 -1.606789	 -1.572149	 2.079773	 -0.525376	 -0.367409	 0.022856	 0.842770	 -0.309482	 0.439816	 2
1463571579.110	 13	 -0.124813	 -3.325221	 -1.589805	 2.056200	 -0.538316	 -0.355741	 0.010890	 0.836763	 -0.312207	 0.449708	 2
1463571579.120	 13	 0.183315	 -3.921202	 -1.221820	 2.020682	 -0.550776	 -0.350075	 -0.000391	 0.827815	 -0.315883	 0.463617	 2
1463571579.130	 13	 0.275899	 -3.521922	 -0.686029	 1.984674	 -0.559288	 -0.348770	 -0.008986	 0.818757	 -0.318777	 0.477428	 2
1463571579.140	 13	 0.213140	 -2.178255	 -0.359733	 1.949213	 -0.575235	 -0.354458	 -0.016889	 0.809142	 -0.325980	 0.488611	 2
1463571579.150	 13	 0.177494	 -0.411914	 -0.417589	 1.940963	 -0.579390	 -0.354660	 -0.019345	 0.806840	 -0.327515	 0.491294	 2
1463571579.160	 13	 0.530688	 -0.008262	 -0.639653	 1.939658	 -0.586347	 -0.356852	 -0.020675	 0.806063	 -0.330646	 0.490416	 2
1463571579.170	 13	 0.948617	 -0.594945	 -0.851246	 1.931881	 -0.596868	 -0.363060	 -0.022507	 0.803490	 -0.336007	 0.490914	 2
1463571579.180	 13	 0.991453	 -1.015027	 -1.120902	 1.918434	 -0.610167	 -0.370150	 -0.025810	 0.799334	 -0.342506	 0.493039	 2
1463571579.190	 13	 0.774270	 -0.983580	 -1.565273	 1.906345	 -0.626528	 -0.373757	 -0.031254	 0.795233	 -0.349216	 0.494647	 2
1463571579.200	 13	 0.767717	 -1.044651	 -2.068824	 1.895573	 -0.647385	 -0.374773	 -0.038904	 0.791045	 -0.356844	 0.495375	 2
1463571579.210	 13	 0.863377	 -1.064439	 -2.411951	 1.884316	 -0.672213	 -0.375567	 -0.047991	 0.786354	 -0.365708	 0.495581	 2
1463571579.220	 13	 0.913900	 -0.864622	 -2.557607	 1.874334	 -0.699097	 -0.376782	 -0.057384	 0.781728	 -0.375288	 0.494739	 2
1463571579.230	 13	 0.912563	 -0.693397	 -2.560265	 1.866021	 -0.726288	 -0.378347	 -0.066501	 0.777395	 -0.384959	 0.492992	 2
1463571579.240	 13	 0.934632	 -0.560332	 -2.535772	 1.858627	 -0.753305	 -0.380459	 -0.075245	 0.773221	 -0.394590	 0.490678	 2
1463571579.250	 13	 1.022047	 -0.421735	 -2.455311	 1.851597	 -0.779893	 -0.384058	 -0.083277	 0.769143	 -0.404311	 0.487869	 2
1463571579.260	 13	 1.133648	 -0.199501	 -2.565054	 1.845051	 -0.807152	 -0.389485	 -0.090776	 0.765119	 -0.414581	 0.484226	 2
1463571579.270	 13	 1.134132	 0.035474	 -2.722736	 1.840915	 -0.836129	 -0.394939	 -0.098339	 0.761425	 -0.425395	 0.479166	 2
1463571579.280	 13	 1.129885	 0.192475	 -2.634912	 1.838233	 -0.864928	 -0.400701	 -0.105453	 0.758018	 -0.436147	 0.473353	 2
1463571579.290	 13	 1.155718	 0.287533	 -2.423231	 1.835278	 -0.891828	 -0.407867	 -0.111548	 0.754744	 -0.446452	 0.467547	 2
1463571579.310	 14	 1.154688	 0.480233	 -2.104898	 1.830356	 -0.940551	 -0.425973	 -0.120644	 0.749049	 -0.465947	 0.455264	 2
1463571579.320	 14	 1.079132	 0.208953	 -1.996990	 1.825504	 -0.962914	 -0.435452	 -0.125038	 0.745867	 -0.474815	 0.450110	 2
1463571579.330	 14	 1.012108	 -0.041272	 -1.915606	 1.818106	 -0.984155	 -0.444586	 -0.129884	 0.742217	 -0.482963	 0.446084	 2
1463571579.340	 14	 0.989941	 -0.208258	 -1.924427	 1.808641	 -1.005176	 -0.453834	 -0.135195	 0.738145	 -0.490794	 0.442703	 2
1463571579.350	 14	 1.010958	 -0.239492	 -1.969663	 1.797748	 -1.026502	 -0.463803	 -0.140775	 0.733784	 -0.498625	 0.439451	 2
1463571579.360	 14	 1.078309	 -0.140350	 -2.057785	 1.786100	 -1.048672	 -0.475374	 -0.146318	 0.729291	 -0.506832	 0.435714	 2
1463571579.370	 14	 1.142214	 -0.089094	 -2.150586	 1.773336	 -1.071822	 -0.488886	 -0.151860	 0.724616	 -0.515465	 0.431470	 2
1463571579.380	 14	 1.208146	 -0.072837	 -2.228809	 1.758569	 -1.095795	 -0.504724	 -0.157474	 0.719644	 -0.524448	 0.426929	 2
1463571579.400	 15	 1.311213	 -0.019119	 -2.406123	 1.721728	 -1.146458	 -0.544825	 -0.169021	 0.708791	 -0.543486	 0.416737	 2
1463571579.410	 15	 1.177070	 -0.111822	 -2.483618	 1.701119	 -1.172571	 -0.566468	 -0.175399	 0.703159	 -0.552837	 0.411307	 2
1463571579.420	 15	 0.866215	 -0.365436	 -2.528034	 1.682341	 -1.198726	 -0.583559	 -0.183090	 0.697647	 -0.561059	 0.406176	 2
1463571579.430	 15	 0.463831	 -0.601417	 -2.528831	 1.668892	 -1.224496	 -0.592039	 -0.192301	 0.692561	 -0.567621	 0.401478	 2
1463571579.440	 15	 0.134657	 -0.780600	 -2.437042	 1.662404	 -1.249236	 -0.591151	 -0.202490	 0.688080	 -0.572530	 0.397182	 2
1463571579.450	 15	 0.043107	 -1.081336	 -2.290902	 1.657489	 -1.272455	 -0.585895	 -0.213225	 0.683564	 -0.576263	 0.393949	 2
1463571579.470	 16	 0.473413	 -1.621722	 -2.127024	 1.617857	 -1.316266	 -0.595456	 -0.235706	 0.671093	 -0.583280	 0.392253	 2
1463571579.480	 16	 0.753944	 -1.456349	 -2.089560	 1.577540	 -1.337417	 -0.621533	 -0.245752	 0.663616	 -0.587875	 0.391947	 2
1463571579.490	 16	 0.908160	 -1.359854	 -2.067624	 1.522941	 -1.357964	 -0.663378	 -0.254930	 0.655712	 -0.593123	 0.391481	 2
1463571579.500	 16	 0.861236	 -1.382859	 -2.032259	 1.458780	 -1.377608	 -0.714954	 -0.263921	 0.647777	 -0.598212	 0.390990	 2
1463571579.510	 16	 0.716134	 -1.698551	 -1.916700	 1.387004	 -1.395839	 -0.771684	 -0.273536	 0.639744	 -0.602328	 0.391290	 2
1463571579.520	 16	 0.443531	 -2.051871	 -1.614938	 1.315423	 -1.411315	 -0.824186	 -0.283906	 0.631933	 -0.604541	 0.393176	 2
1463571579.530	 16	 0.136645	 -2.079837	 -1.195813	 1.257432	 -1.423255	 -0.861660	 -0.293924	 0.625260	 -0.604768	 0.396123	 2
1463571579.540	 16	 -0.202876	 -1.650644	 -0.669837	 1.229363	 -1.431298	 -0.871971	 -0.302077	 0.620863	 -0.603344	 0.399068	 2
1463571579.550	 16	 -0.452092	 -0.932806	 -0.051371	 1.240226	 -1.434591	 -0.849714	 -0.306889	 0.619502	 -0.600830	 0.401298	 2
1463571579.560	 16	 -0.689419	 -0.260955	 0.390712	 1.286090	 -1.433635	 -0.799231	 -0.308463	 0.621006	 -0.597647	 0.402517	 2
1463571579.570	 16	 -0.966503	 0.112438	 0.580976	 1.358289	 -1.430572	 -0.726734	 -0.308457	 0.624592	 -0.593825	 0.402630	 2
1463571579.580	 16	 -1.217006	 0.314920	 0.680960	 1.448355	 -1.425971	 -0.638446	 -0.307923	 0.629580	 -0.589269	 0.401964	 2
1463571579.590	 16	 -1.408376	 0.369513	 0.798237	 1.546582	 -1.419360	 -0.542859	 -0.307158	 0.635475	 -0.584011	 0.400946	 2
1463571579.600	 16	 -1.703911	 0.458912	 0.979624	 1.652277	 -1.409555	 -0.440104	 -0.306217	 0.642468	 -0.577589	 0.399822	 2
1463571579.620	 17	 -2.266326	 0.745952	 1.173700	 1.867805	 -1.379324	 -0.234480	 -0.303249	 0.660218	 -0.561686	 0.395805	 2
1463571579.630	 17	 -2.577590	 1.027820	 1.196086	 1.972031	 -1.359535	 -0.137723	 -0.301562	 0.670827	 -0.552455	 0.392231	 2
1463571579.640	 17	 -2.842780	 1.648215	 1.131696	 2.075432	 -1.336961	 -0.046718	 -0.299100	 0.683047	 -0.542965	 0.386232	 2
1463571579.650	 17	 -2.678172	 2.779881	 1.196213	 2.169441	 -1.312661	 0.024692	 -0.293694	 0.696901	 -0.534924	 0.376734	 2
1463571579.660	 17	 -2.143220	 3.869233	 1.588560	 2.240998	 -1.287644	 0.061319	 -0.283203	 0.711734	 -0.529497	 0.364505	 2
1463571579.670	 17	 -1.702401	 4.426280	 2.020473	 2.289247	 -1.261433	 0.066522	 -0.268105	 0.726855	 -0.525576	 0.351528	 2
1463571579.680	 17	 -1.586843	 4.249340	 2.307708	 2.322938	 -1.234077	 0.056244	 -0.251235	 0.741447	 -0.521485	 0.339398	 2
1463571579.690	 17	 -1.752908	 3.374976	 2.376687	 2.347741	 -1.205207	 0.044060	 -0.235796	 0.754799	 -0.515581	 0.329930	 2
1463571579.700	 17	 -2.038080	 2.272181	 2.284712	 2.367056	 -1.175018	 0.037451	 -0.223727	 0.766631	 -0.507265	 0.323891	 2
1463571579.710	 17	 -2.280076	 1.242906	 2.228217	 2.380145	 -1.143353	 0.035509	 -0.214877	 0.777084	 -0.496674	 0.321376	 2
1463571579.720	 17	 -2.404127	 0.477922	 1.997302	 2.389546	 -1.111860	 0.038660	 -0.209031	 0.786170	 -0.484741	 0.321354	 2
1463571579.730	 17	 -2.345301	 -0.156132	 1.708463	 2.395524	 -1.082389	 0.045437	 -0.205829	 0.793677	 -0.472511	 0.323179	 2
1463571579.740	 17	 -2.188646	 -0.658411	 1.443445	 2.397496	 -1.055785	 0.053843	 -0.204709	 0.799548	 -0.460629	 0.326556	 2
1463571579.750	 17	 -2.007567	 -1.108430	 1.354551	 2.394197	 -1.031469	 0.061585	 -0.204887	 0.803965	 -0.449142	 0.331562	 2
1463571579.760	 17	 -1.878179	 -1.319063	 1.401556	 2.386150	 -1.008029	 0.067105	 -0.205315	 0.807491	 -0.437815	 0.337820	 2
1463571579.770	 17	 -1.733679	 -1.493576	 1.448764	 2.374487	 -0.985300	 0.070496	 -0.205675	 0.810319	 -0.426706	 0.344968	 2
1463571579.780	 17	 -1.519997	 -1.508512	 1.528829	 2.359709	 -0.963472	 0.070963	 -0.205506	 0.812550	 -0.416112	 0.352675	 2
1463571579.790	 17	 -1.240258	 -1.327874	 1.617598	 2.343173	 -0.942902	 0.067685	 -0.204209	 0.814413	 -0.406510	 0.360249	 2
1463571579.800	 17	 -0.982841	 -0.858250	 1.653831	 2.327922	 -0.923767	 0.061087	 -0.201365	 0.816377	 -0.398252	 0.366574	 2
1463571579.810	 17	 -0.828808	 -0.280525	 1.594986	 2.317433	 -0.906045	 0.053286	 -0.197185	 0.818900	 -0.391311	 0.370671	 2
1463571579.820	 17	 -0.710607	 0.206554	 1.488716	 2.312320	 -0.889913	 0.045599	 -0.192186	 0.821975	 -0.385554	 0.372517	 2
1463571579.830	 17	 -0.595083	 0.545027	 1.422651	 2.310805	 -0.875105	 0.037577	 -0.186534	 0.825402	 -0.380753	 0.372752	 2
1463571579.840	 17	 -0.483097	 0.803812	 1.366532	 2.311665	 -0.861452	 0.028985	 -0.180363	 0.829019	 -0.376746	 0.371833	 2
1463571579.850	 17	 -0.336323	 1.015320	 1.258515	 2.314501	 -0.849416	 0.019944	 -0.173899	 0.832657	 -0.373649	 0.369902	 2
1463571579.860	 17	 -0.138562	 1.180905	 1.145363	 2.318565	 -0.839535	 0.010108	 -0.167246	 0.836113	 -0.371674	 0.367154	 2
1463571579.870	 17	 0.051529	 1.272335	 1.069955	 2.322875	 -0.831619	 -0.001031	 -0.160341	 0.839289	 -0.370744	 0.363915	 2
1463571579.880	 17	 0.184445	 1.279510	 0.939908	 2.327189	 -0.825560	 -0.012569	 -0.153586	 0.842091	 -0.370628	 0.360455	 2
1463571579.890	 17	 0.311463	 1.190778	 0.782375	 2.331125	 -0.821530	 -0.023853	 -0.147362	 0.844380	 -0.371255	 0.357037	 2
1463571579.900	 17	 0.410434	 1.035150	 0.628726	 2.333923	 -0.819357	 -0.034728	 -0.141848	 0.846057	 -0.372478	 0.354017	 2
1463571579.910	 17	 0.517896	 0.907882	 0.429441	 2.335915	 -0.819255	 -0.044775	 -0.137205	 0.847127	 -0.374345	 0.351307	 2
1463571579.920	 17	 0.668520	 0.894183	 0.214849	 2.337952	 -0.821679	 -0.054155	 -0.133293	 0.847684	 -0.377142	 0.348467	 2
1463571579.930	 17	 0.840747	 0.931507	 0.004808	 2.340567	 -0.826802	 -0.063172	 -0.129919	 0.847814	 -0.381026	 0.345185	 2
1463571579.940	 17	 1.040648	 0.958073	 -0.210904	 2.343521	 -0.834811	 -0.072066	 -0.127059	 0.847452	 -0.386094	 0.341485	 2
1463571579.950	 17	 1.271256	 0.972514	 -0.472824	 2.346725	 -0.846163	 -0.080800	 -0.124827	 0.846490	 -0.392516	 0.337348	 2
1463571579.960	 17	 1.542745	 1.063355	 -0.742914	 2.350411	 -0.861278	 -0.089518	 -0.123187	 0.844878	 -0.400493	 0.332584	 2
1463571579.970	 17	 1.766822	 0.875290	 -1.065278	 2.353569	 -0.880427	 -0.097766	 -0.122577	 0.842338	 -0.409981	 0.327654	 2
1463571579.980	 17	 1.664715	 0.712052	 -1.322757	 2.357058	 -0.901529	 -0.102798	 -0.123592	 0.839204	 -0.419711	 0.322963	 2
1463571579.990	 17	 1.145751	 0.602268	 -1.271301	 2.363552	 -0.919961	 -0.102601	 -0.125639	 0.836651	 -0.427648	 0.318350	 2
1463571580.010	 18	 -0.804287	 1.075613	 -0.294994	 2.394162	 -0.929651	 -0.084322	 -0.128430	 0.838359	 -0.430710	 0.308462	 2
1463571580.020	 18	 -1.037235	 1.152204	 0.345073	 2.413280	 -0.920665	 -0.075126	 -0.126673	 0.842507	 -0.426805	 0.303272	 2
1463571580.030	 18	 -0.656419	 1.227428	 0.751710	 2.425284	 -0.910529	 -0.074990	 -0.122495	 0.846340	 -0.423312	 0.299183	 2
1463571580.040	 18	 -0.301465	 1.181179	 0.970933	 2.431720	 -0.901597	 -0.082365	 -0.116537	 0.849513	 -0.421060	 0.295728	 2
1463571580.050	 18	 -0.164305	 0.623430	 0.968812	 2.431759	 -0.893798	 -0.092398	 -0.110973	 0.851621	 -0.419277	 0.294335	 2
1463571580.060	 18	 -0.192838	 -0.070202	 0.788887	 2.426301	 -0.886925	 -0.100633	 -0.107458	 0.852599	 -0.417315	 0.295593	 2
1463571580.070	 18	 -0.211631	 -0.501219	 0.599597	 2.417930	 -0.881132	 -0.106041	 -0.105915	 0.852755	 -0.415247	 0.298599	 2
1463571580.080	 18	 -0.255569	 -0.471900	 0.518188	 2.410119	 -0.875775	 -0.109797	 -0.105012	 0.852797	 -0.413158	 0.301678	 2
1463571580.090	 18	 -0.299266	 -0.549531	 0.355851	 2.403460	 -0.870893	 -0.111390	 -0.104859	 0.852789	 -0.411010	 0.304674	 2
1463571580.100	 18	 -0.294131	 -0.499294	 0.245434	 2.398616	 -0.866928	 -0.111275	 -0.105208	 0.852783	 -0.409081	 0.307158	 2
1463571580.110	 18	 -0.216167	 -0.561627	 0.334765	 2.392421	 -0.863118	 -0.112062	 -0.105466	 0.852576	 -0.407284	 0.310019	 2
1463571580.120	 18	 0.026390	 -0.317475	 0.659983	 2.384011	 -0.858939	 -0.118035	 -0.103886	 0.852348	 -0.406029	 0.312810	 2
1463571580.130	 18	 0.169513	 -0.038573	 0.896865	 2.374589	 -0.854035	 -0.128994	 -0.100240	 0.852321	 -0.405226	 0.315109	 2
1463571580.150	 19	 0.740286	 0.368435	 0.638834	 2.361368	 -0.849888	 -0.155982	 -0.090657	 0.852264	 -0.407129	 0.315709	 2
1463571580.160	 19	 0.476718	 -0.346069	 0.419196	 2.350781	 -0.851215	 -0.167445	 -0.088187	 0.850867	 -0.409020	 0.317729	 2
1463571580.170	 19	 -0.757526	 0.194964	 0.166405	 2.352028	 -0.846324	 -0.165376	 -0.087882	 0.851829	 -0.406728	 0.318177	 2
1463571580.180	 19	 -1.184638	 1.778592	 -0.164710	 2.375748	 -0.838794	 -0.152038	 -0.087367	 0.856296	 -0.402544	 0.311580	 2
1463571580.190	 19	 -0.673004	 2.447020	 -0.038251	 2.406210	 -0.833275	 -0.142676	 -0.084277	 0.861531	 -0.400108	 0.300959	 2
1463571580.200	 19	 -0.056959	 2.262431	 -0.016556	 2.431188	 -0.831854	 -0.140551	 -0.079948	 0.865390	 -0.400220	 0.290744	 2
1463571580.210	 19	 0.448373	 1.720474	 -0.038789	 2.447846	 -0.834560	 -0.143244	 -0.075900	 0.867401	 -0.402401	 0.282717	 2
1463571580.220	 19	 0.982005	 0.818092	 -0.030516	 2.452709	 -0.841359	 -0.150893	 -0.072744	 0.867147	 -0.406534	 0.278380	 2
1463571580.230	 19	 1.502133	 -0.125760	 0.120299	 2.443174	 -0.851399	 -0.165020	 -0.070284	 0.864514	 -0.412396	 0.278577	 2
1463571580.240	 19	 2.012282	 -0.840554	 0.173152	 2.420602	 -0.864602	 -0.185860	 -0.068302	 0.859687	 -0.420061	 0.282526	 2
1463571580.250	 19	 2.355709	 -1.268652	 0.092641	 2.389583	 -0.880750	 -0.211000	 -0.067060	 0.853202	 -0.429273	 0.288573	 2
1463571580.260	 19	 2.529148	 -1.527210	 0.002398	 2.353301	 -0.898578	 -0.238843	 -0.066516	 0.845638	 -0.439378	 0.295667	 2
1463571580.270	 19	 2.287289	 -1.710162	 0.049695	 2.314282	 -0.914770	 -0.267132	 -0.066522	 0.837859	 -0.448783	 0.303582	 2
1463571580.280	 19	 1.619847	 -1.750173	 -0.017338	 2.278990	 -0.926630	 -0.289555	 -0.067637	 0.831106	 -0.455696	 0.311495	 2
1463571580.290	 19	 0.983798	 -1.692280	 -0.357634	 2.252439	 -0.935811	 -0.301262	 -0.070862	 0.825740	 -0.460166	 0.318401	 2
1463571580.300	 19	 0.735183	 -1.521543	 -0.820685	 2.234513	 -0.946131	 -0.304041	 -0.076151	 0.821183	 -0.463896	 0.323512	 2
1463571580.310	 19	 0.832697	 -1.383843	 -1.152770	 2.220865	 -0.959555	 -0.303492	 -0.082576	 0.816609	 -0.468351	 0.327075	 2
1463571580.320	 19	 1.041220	 -1.351876	 -1.353586	 2.207207	 -0.975941	 -0.303618	 -0.089464	 0.811492	 -0.473938	 0.329939	 2
1463571580.330	 19	 1.253194	 -1.337392	 -1.470399	 2.191960	 -0.994700	 -0.305787	 -0.096532	 0.805730	 -0.480562	 0.332478	 2
1463571580.340	 19	 1.390006	 -1.260423	 -1.508176	 2.175254	 -1.014808	 -0.310410	 -0.103394	 0.799552	 -0.487883	 0.334659	 2
1463571580.350	 19	 1.514293	 -1.129131	 -1.540009	 2.157501	 -1.035798	 -0.317473	 -0.109890	 0.793128	 -0.495725	 0.336345	 2
1463571580.360	 19	 1.571697	 -1.039188	 -1.434161	 2.138134	 -1.056661	 -0.327661	 -0.115694	 0.786609	 -0.503792	 0.337720	 2
1463571580.370	 19	 1.525660	 -0.980443	 -1.272284	 2.116958	 -1.075919	 -0.340417	 -0.120754	 0.780230	 -0.511452	 0.339229	 2
1463571580.380	 19	 1.441422	 -0.855814	 -1.133973	 2.095534	 -1.093436	 -0.354604	 -0.125093	 0.774233	 -0.518581	 0.340571	 2
1463571580.390	 19	 1.361406	 -0.742882	 -0.993676	 2.074109	 -1.109168	 -0.369974	 -0.128719	 0.768666	 -0.525163	 0.341741	 2
1463571580.400	 19	 1.282333	 -0.663921	 -0.844112	 2.052376	 -1.123101	 -0.386599	 -0.131666	 0.763490	 -0.531219	 0.342861	 2
1463571580.420	 20	 1.187559	 -0.584357	 -0.617671	 2.006462	 -1.146200	 -0.423776	 -0.135979	 0.753946	 -0.541990	 0.345430	 2
1463571580.430	 20	 1.211241	 -0.572430	 -0.580449	 1.981535	 -1.156479	 -0.444761	 -0.137671	 0.749277	 -0.547125	 0.346821	 2
1463571580.440	 20	 1.305094	 -0.577027	 -0.589835	 1.953874	 -1.166827	 -0.468697	 -0.139206	 0.744367	 -0.552522	 0.348222	 2
1463571580.450	 20	 1.404800	 -0.678600	 -0.622555	 1.921967	 -1.177498	 -0.496265	 -0.140869	 0.738967	 -0.558259	 0.349901	 2
1463571580.460	 20	 1.469976	 -0.850358	 -0.667352	 1.885537	 -1.188470	 -0.526973	 -0.142978	 0.733011	 -0.564203	 0.352034	 2
1463571580.480	 21	 1.424586	 -1.360236	 -0.742041	 1.799888	 -1.210080	 -0.593792	 -0.149648	 0.719501	 -0.575622	 0.358586	 2
1463571580.490	 21	 1.309436	 -1.530366	 -0.782055	 1.753785	 -1.220385	 -0.627018	 -0.154313	 0.712335	 -0.580685	 0.362728	 2
1463571580.500	 21	 1.122340	 -1.557856	 -0.835036	 1.709623	 -1.230367	 -0.657360	 -0.159631	 0.705422	 -0.585117	 0.366791	 2
1463571580.510	 21	 0.853929	 -1.389525	 -0.904670	 1.671895	 -1.240276	 -0.682023	 -0.165278	 0.699328	 -0.588825	 0.370011	 2
1463571580.520	 21	 0.554288	 -1.061501	 -0.966152	 1.644269	 -1.250310	 -0.699031	 -0.170827	 0.694536	 -0.591816	 0.371740	 2
1463571580.530	 21	 0.317956	 -0.679256	 -1.005299	 1.627257	 -1.260491	 -0.708798	 -0.175884	 0.691144	 -0.594275	 0.371782	 2
1463571580.540	 21	 0.240096	 -0.413389	 -1.041580	 1.616326	 -1.270923	 -0.715363	 -0.180369	 0.688614	 -0.596636	 0.370544	 2
1463571580.550	 21	 0.297638	 -0.354661	 -1.133191	 1.605061	 -1.282065	 -0.723365	 -0.184732	 0.686113	 -0.599298	 0.368735	 2
1463571580.560	 21	 0.355254	 -0.517070	 -1.211938	 1.589703	 -1.294130	 -0.734556	 -0.189584	 0.683111	 -0.602247	 0.367037	 2
1463571580.570	 21	 0.329256	 -0.829652	 -1.206095	 1.570341	 -1.306273	 -0.746896	 -0.195339	 0.679546	 -0.604911	 0.366255	 2
1463571580.580	 21	 0.263715	 -1.181241	 -1.168297	 1.548359	 -1.318022	 -0.758318	 -0.202134	 0.675527	 -0.606926	 0.366668	 2
1463571580.590	 21	 0.246344	 -1.510559	 -1.120053	 1.522749	 -1.329264	 -0.769970	 -0.209847	 0.670985	 -0.608361	 0.368295	 2
1463571580.600	 21	 0.299551	 -1.808186	 -1.073195	 1.490618	 -1.339902	 -0.785189	 -0.218218	 0.665745	 -0.609470	 0.371094	 2
1463571580.610	 21	 0.252283	 -2.155373	 -1.007805	 1.453751	 -1.349867	 -0.801864	 -0.227401	 0.659920	 -0.609999	 0.375095	 2
1463571580.620	 21	 0.003752	 -2.485368	 -0.853111	 1.420638	 -1.358657	 -0.811085	 -0.237548	 0.654081	 -0.609152	 0.380371	 2
1463571580.630	 21	 -0.373573	 -2.602601	 -0.598331	 1.402725	 -1.365712	 -0.802948	 -0.248126	 0.649154	 -0.606389	 0.386428	 2
1463571580.640	 21	 -0.711245	 -2.558478	 -0.224095	 1.404741	 -1.370018	 -0.774658	 -0.258189	 0.645644	 -0.601727	 0.392946	 2
1463571580.650	 21	 -1.031535	 -2.266213	 0.201324	 1.428178	 -1.370584	 -0.726843	 -0.266788	 0.643965	 -0.595413	 0.399522	 2
1463571580.660	 21	 -1.329481	 -1.506281	 0.591466	 1.474905	 -1.367119	 -0.661505	 -0.272824	 0.644890	 -0.588017	 0.404870	 2
1463571580.680	 22	 -1.764291	 -0.124796	 0.982190	 1.615217	 -1.350229	 -0.506671	 -0.276833	 0.654386	 -0.572464	 0.409179	 2
1463571580.690	 22	 -1.979222	 0.165749	 1.066697	 1.695637	 -1.338234	 -0.425198	 -0.277058	 0.661504	 -0.564149	 0.409130	 2
1463571580.700	 22	 -2.264508	 0.399701	 1.238683	 1.778885	 -1.322820	 -0.343006	 -0.276589	 0.669964	 -0.554910	 0.408315	 2
1463571580.710	 22	 -2.658715	 0.653879	 1.369174	 1.866120	 -1.303448	 -0.258845	 -0.275671	 0.680036	 -0.544352	 0.406494	 2
1463571580.720	 22	 -2.899835	 1.229933	 1.506657	 1.953841	 -1.280083	 -0.178529	 -0.273606	 0.691885	 -0.533010	 0.402909	 2
1463571580.730	 22	 -2.666936	 2.181068	 1.784184	 2.031195	 -1.253284	 -0.117762	 -0.268071	 0.705333	 -0.522606	 0.396896	 2
1463571580.740	 22	 -2.066436	 3.167878	 2.143037	 2.089783	 -1.224721	 -0.086877	 -0.257543	 0.719580	 -0.514497	 0.388805	 2
1463571580.750	 22	 -1.388408	 3.758516	 2.609433	 2.127729	 -1.195464	 -0.085184	 -0.242205	 0.733636	 -0.508636	 0.380006	 2
1463571580.760	 22	 -0.904264	 3.887759	 3.173406	 2.147966	 -1.164582	 -0.105382	 -0.223082	 0.747019	 -0.503749	 0.372066	 2
1463571580.770	 22	 -0.773846	 3.592524	 3.580907	 2.156334	 -1.130954	 -0.136653	 -0.202030	 0.759501	 -0.498267	 0.366159	 2
1463571580.780	 22	 -1.045528	 2.853506	 3.497530	 2.163092	 -1.096179	 -0.163189	 -0.182660	 0.770843	 -0.491093	 0.362304	 2
1463571580.790	 22	 -1.491327	 2.041048	 3.190109	 2.172374	 -1.061377	 -0.178037	 -0.167007	 0.781093	 -0.481796	 0.360382	 2
1463571580.800	 22	 -1.882156	 1.326430	 2.903369	 2.183565	 -1.026819	 -0.182399	 -0.155029	 0.790439	 -0.470624	 0.360117	 2
1463571580.810	 22	 -2.148087	 0.765304	 2.712889	 2.194169	 -0.992194	 -0.180522	 -0.145719	 0.798991	 -0.458019	 0.361383	 2
1463571580.820	 22	 -2.220124	 0.375775	 2.503134	 2.203042	 -0.958482	 -0.175340	 -0.138435	 0.806639	 -0.444815	 0.363743	 2
1463571580.830	 22	 -2.113704	 -0.014895	 2.354694	 2.208116	 -0.926524	 -0.169974	 -0.132539	 0.813099	 -0.431802	 0.367220	 2
1463571580.840	 22	 -1.903705	 -0.104340	 2.132486	 2.210504	 -0.897182	 -0.165676	 -0.127401	 0.818514	 -0.419682	 0.371040	 2
1463571580.850	 22	 -1.693535	 -0.017372	 1.743528	 2.213813	 -0.871991	 -0.160977	 -0.123166	 0.823223	 -0.409068	 0.373894	 2
1463571580.860	 22	 -1.447965	 -0.035626	 1.525936	 2.216650	 -0.850394	 -0.156868	 -0.119597	 0.827178	 -0.399879	 0.376259	 2
1463571580.870	 22	 -1.195503	 -0.088866	 1.473151	 2.217178	 -0.831005	 -0.155186	 -0.115978	 0.830401	 -0.391833	 0.378749	 2
1463571580.880	 22	 -0.978180	 -0.186149	 1.492735	 2.214805	 -0.812944	 -0.156215	 -0.112074	 0.832939	 -0.384633	 0.381718	 2
1463571580.890	 22	 -0.818394	 -0.212450	 1.450600	 2.210672	 -0.796084	 -0.159016	 -0.107999	 0.834969	 -0.378145	 0.384927	 2
1463571580.900	 22	 -0.698779	 -0.140927	 1.388410	 2.206506	 -0.780495	 -0.162577	 -0.103851	 0.836758	 -0.372313	 0.387858	 2
1463571580.910	 22	 -0.600478	 -0.076669	 1.342324	 2.202690	 -0.765870	 -0.166741	 -0.099562	 0.838427	 -0.367009	 0.390425	 2
1463571580.920	 22	 -0.406145	 0.018917	 1.255195	 2.199028	 -0.752810	 -0.171956	 -0.095121	 0.839881	 -0.362558	 0.392560	 2
1463571580.930	 22	 -0.118883	 0.136532	 1.163198	 2.195087	 -0.742097	 -0.179308	 -0.090330	 0.840983	 -0.359475	 0.394165	 2
1463571580.940	 22	 0.108795	 0.255698	 1.114365	 2.190973	 -0.733293	 -0.188804	 -0.085076	 0.841821	 -0.357598	 0.395250	 2
1463571580.950	 22	 0.237416	 0.412405	 1.068876	 2.187510	 -0.725714	 -0.199520	 -0.079450	 0.842615	 -0.356503	 0.395718	 2
1463571580.960	 22	 0.295992	 0.662817	 1.009948	 2.186185	 -0.718982	 -0.210497	 -0.073511	 0.843676	 -0.355897	 0.395151	 2
1463571580.970	 22	 0.346358	 1.012969	 0.914717	 2.188300	 -0.713216	 -0.221322	 -0.067234	 0.845233	 -0.355769	 0.393052	 2
1463571580.980	 22	 0.418760	 1.336015	 0.757229	 2.194101	 -0.709021	 -0.231741	 -0.060826	 0.847244	 -0.356294	 0.389272	 2
1463571580.990	 22	 0.516001	 1.544755	 0.540909	 2.202707	 -0.707056	 -0.241596	 -0.054658	 0.849444	 -0.357651	 0.384113	 2
1463571581.000	 22	 0.632655	 1.614786	 0.271973	 2.212884	 -0.707886	 -0.250633	 -0.049179	 0.851512	 -0.359974	 0.378057	 2
1463571581.010	 22	 0.785890	 1.551500	 -0.032627	 2.223315	 -0.712027	 -0.258817	 -0.044745	 0.853130	 -0.363436	 0.371593	 2
1463571581.020	 22	 0.958900	 1.372307	 -0.325688	 2.232598	 -0.719620	 -0.266345	 -0.041545	 0.854024	 -0.368110	 0.365255	 2
1463571581.030	 22	 1.180730	 1.113392	 -0.592206	 2.239469	 -0.730699	 -0.273797	 -0.039571	 0.853975	 -0.374099	 0.359459	 2
1463571581.040	 22	 1.425831	 0.797093	 -0.842409	 2.242978	 -0.745299	 -0.281679	 -0.038808	 0.852818	 -0.381487	 0.354490	 2
1463571581.050	 22	 1.653592	 0.449782	 -1.122590	 2.242560	 -0.763427	 -0.289979	 -0.039406	 0.850452	 -0.390248	 0.350550	 2
1463571581.060	 22	 1.708117	 0.081244	 -1.466473	 2.239747	 -0.784924	 -0.296668	 -0.041941	 0.847116	 -0.399965	 0.347366	 2
1463571581.070	 22	 1.240386	 -0.091772	 -1.606822	 2.237688	 -0.806098	 -0.298353	 -0.046403	 0.843779	 -0.408632	 0.344825	 2
1463571581.080	 22	 0.121588	 0.559651	 -1.404511	 2.247229	 -0.820375	 -0.289880	 -0.051208	 0.843109	 -0.413074	 0.340463	 2
1463571581.090	 22	 -1.098480	 1.293478	 -0.733747	 2.272337	 -0.822387	 -0.271889	 -0.054073	 0.846560	 -0.411507	 0.333279	 2
1463571581.100	 22	 -1.543565	 0.833656	 0.065171	 2.294999	 -0.813520	 -0.254270	 -0.055033	 0.851196	 -0.405639	 0.328472	 2
1463571581.110	 22	 -1.197640	 0.456483	 0.554229	 2.307321	 -0.801370	 -0.244410	 -0.054226	 0.854824	 -0.399420	 0.326801	 2
1463571581.120	 22	 -0.545404	 0.469522	 0.855611	 2.311892	 -0.790744	 -0.244448	 -0.051108	 0.857200	 -0.395201	 0.326209	 2
1463571581.130	 22	 -0.034652	 0.251090	 1.007929	 2.309669	 -0.782526	 -0.252363	 -0.046453	 0.858270	 -0.393072	 0.326664	 2
1463571581.140	 22	 0.199235	 -0.309749	 0.912216	 2.300602	 -0.776526	 -0.262884	 -0.042468	 0.857905	 -0.392140	 0.329274	 2
1463571581.150	 22	 0.295918	 -0.723830	 0.758314	 2.287051	 -0.772416	 -0.273195	 -0.039834	 0.856468	 -0.391894	 0.333609	 2
1463571581.160	 22	 0.335088	 -0.963717	 0.694993	 2.271015	 -0.769199	 -0.282985	 -0.038096	 0.854420	 -0.391922	 0.338987	 2
1463571581.170	 22	 0.325480	 -0.717115	 0.669661	 2.256246	 -0.766090	 -0.292574	 -0.036217	 0.852511	 -0.392029	 0.343842	 2
1463571581.180	 22	 0.239148	 -0.191870	 0.610289	 2.247280	 -0.762930	 -0.300896	 -0.033726	 0.851542	 -0.392037	 0.346477	 2
1463571581.190	 22	 0.037544	 -0.053146	 0.738029	 2.242028	 -0.758179	 -0.307735	 -0.030777	 0.851381	 -0.391233	 0.348053	 2
1463571581.200	 22	 -0.086647	 -0.211855	 1.095730	 2.234968	 -0.749880	 -0.315626	 -0.026919	 0.851358	 -0.389184	 0.350716	 2
1463571581.210	 22	 -0.159474	 -0.377668	 1.228041	 2.225718	 -0.739330	 -0.324212	 -0.022649	 0.851190	 -0.386361	 0.354525	 2
1463571581.220	 22	 -0.110099	 -0.334944	 0.979686	 2.217016	 -0.730108	 -0.331510	 -0.019092	 0.850867	 -0.383887	 0.358177	 2
1463571581.230	 22	 0.109047	 -0.147030	 0.580932	 2.211148	 -0.724988	 -0.337378	 -0.016530	 0.850491	 -0.382846	 0.360306	 2
1463571581.240	 22	 0.127241	 1.070096	 0.490852	 2.213706	 -0.721921	 -0.343177	 -0.012858	 0.851363	 -0.382685	 0.358565	 2
1463571581.250	 22	 -0.261583	 3.190826	 0.025852	 2.241187	 -0.719422	 -0.342903	 -0.007147	 0.856512	 -0.381773	 0.347254	 2
1463571581.260	 22	 -0.444145	 3.056761	 -0.640973	 2.279041	 -0.720671	 -0.334460	 -0.003837	 0.862767	 -0.380947	 0.332412	 2
1463571581.270	 22	 -0.613895	 2.119488	 -0.888013	 2.311201	 -0.723157	 -0.321397	 -0.003908	 0.867675	 -0.379894	 0.320632	 2
1463571581.280	 22	 -0.714242	 0.987169	 -1.163051	 2.335261	 -0.726326	 -0.304577	 -0.007319	 0.871022	 -0.378605	 0.312930	 2
1463571581.290	 22	 -0.546839	 -0.461255	 -1.359166	 2.346466	 -0.731544	 -0.286439	 -0.014169	 0.871964	 -0.378004	 0.310790	 2
1463571581.300	 22	 -0.146480	 -1.906628	 -1.480546	 2.341923	 -0.740272	 -0.269997	 -0.023955	 0.869884	 -0.379021	 0.314756	 2
1463571581.310	 22	 0.468737	 -2.813822	 -1.076566	 2.321160	 -0.751052	 -0.261729	 -0.033691	 0.864923	 -0.381872	 0.323956	 2
1463571581.320	 22	 1.108799	 -2.858480	 -0.816114	 2.290939	 -0.763758	 -0.263635	 -0.041333	 0.858165	 -0.386843	 0.334957	 2
1463571581.330	 22	 1.620472	 -2.440608	 -0.920059	 2.259751	 -0.780158	 -0.271579	 -0.047562	 0.850692	 -0.394160	 0.344526	 2
1463571581.340	 22	 2.120219	 -1.839732	 -1.020067	 2.230396	 -0.800490	 -0.284843	 -0.052319	 0.842987	 -0.403875	 0.351457	 2
1463571581.350	 22	 2.400377	 -1.391717	 -0.874459	 2.201674	 -0.822028	 -0.304057	 -0.055065	 0.835306	 -0.414985	 0.356399	 2
1463571581.360	 22	 2.215548	 -1.716341	 -0.540155	 2.169018	 -0.840252	 -0.326631	 -0.056841	 0.827445	 -0.425172	 0.362399	 2
1463571581.370	 22	 1.646710	 -2.081364	 -0.651570	 2.135446	 -0.855125	 -0.344423	 -0.060340	 0.819702	 -0.433086	 0.369978	 2
1463571581.380	 22	 1.016538	 -2.072952	 -1.065915	 2.108863	 -0.869386	 -0.352109	 -0.066563	 0.812969	 -0.438995	 0.376741	 2
1463571581.390	 22	 0.560706	 -2.145363	 -1.555002	 2.089507	 -0.885052	 -0.349650	 -0.075810	 0.806984	 -0.443606	 0.382418	 2
1463571581.400	 22	 0.469288	 -2.178899	 -1.962705	 2.074112	 -0.903738	 -0.341560	 -0.087288	 0.800990	 -0.448232	 0.387149	 2
1463571581.410	 22	 0.611970	 -2.098700	 -2.139052	 2.059290	 -0.924929	 -0.333356	 -0.099375	 0.794580	 -0.453592	 0.391179	 2
1463571581.420	 22	 0.880641	 -1.851260	 -2.229679	 2.044250	 -0.948246	 -0.328204	 -0.110909	 0.787805	 -0.460117	 0.394151	 2
1463571581.430	 22	 1.169096	 -1.532163	 -2.261184	 2.028535	 -0.973355	 -0.327633	 -0.121350	 0.780750	 -0.467943	 0.395894	 2
1463571581.440	 22	 1.380102	 -1.215199	 -2.174811	 2.011933	 -0.999001	 -0.332093	 -0.130307	 0.773657	 -0.476689	 0.396538	 2
1463571581.450	 22	 1.466047	 -1.024775	 -1.988345	 1.993887	 -1.023600	 -0.340824	 -0.137845	 0.766688	 -0.485608	 0.396703	 2
1463571581.470	 23	 1.478009	 -0.883446	 -1.561895	 1.951728	 -1.066766	 -0.368183	 -0.149603	 0.753258	 -0.502317	 0.397365	 2
1463571581.480	 23	 1.485022	 -0.909777	 -1.376758	 1.926571	 -1.085366	 -0.386552	 -0.154257	 0.746636	 -0.510024	 0.398265	 2
1463571581.490	 23	 1.473580	 -0.995672	 -1.199476	 1.897955	 -1.102038	 -0.407817	 -0.158427	 0.739926	 -0.517240	 0.399841	 2
1463571581.500	 23	 1.414509	 -0.980538	 -1.043219	 1.867073	 -1.116702	 -0.431036	 -0.162152	 0.733308	 -0.523873	 0.401899	 2
1463571581.510	 23	 1.416989	 -1.007335	 -0.924125	 1.834436	 -1.129766	 -0.456276	 -0.165395	 0.726818	 -0.530135	 0.404149	 2
1463571581.520	 23	 1.405462	 -1.109201	 -0.749122	 1.798229	 -1.140913	 -0.484212	 -0.168301	 0.720181	 -0.535955	 0.407145	 2
1463571581.530	 23	 1.361992	 -1.158121	 -0.619175	 1.760130	 -1.150064	 -0.513438	 -0.170907	 0.713600	 -0.541209	 0.410680	 2
1463571581.540	 23	 1.355742	 -1.187351	 -0.545855	 1.720266	 -1.157888	 -0.544125	 -0.173312	 0.706994	 -0.546170	 0.414513	 2
1463571581.560	 24	 1.236977	 -1.319376	 -0.466118	 1.637297	 -1.170413	 -0.606908	 -0.178248	 0.693670	 -0.555109	 0.422970	 2
1463571581.570	 24	 1.046956	 -1.335810	 -0.462484	 1.598283	 -1.175545	 -0.634727	 -0.181225	 0.687349	 -0.558689	 0.427288	 2
1463571581.590	 25	 0.521177	 -0.957379	 -0.557764	 1.540019	 -1.185813	 -0.672913	 -0.188053	 0.677390	 -0.563734	 0.433568	 2
1463571581.600	 25	 0.277078	 -0.630485	 -0.605885	 1.524050	 -1.191622	 -0.682465	 -0.191344	 0.674343	 -0.565477	 0.434609	 2
1463571581.610	 25	 0.161924	 -0.335933	 -0.661824	 1.514537	 -1.197985	 -0.688322	 -0.194276	 0.672322	 -0.567102	 0.434322	 2
1463571581.620	 25	 0.161719	 -0.084451	 -0.743678	 1.507964	 -1.205090	 -0.693833	 -0.196766	 0.670862	 -0.569050	 0.432908	 2
1463571581.630	 25	 0.236696	 0.051858	 -0.836849	 1.501170	 -1.213069	 -0.701382	 -0.198956	 0.669505	 -0.571550	 0.430710	 2
1463571581.640	 25	 0.352385	 -0.007625	 -0.925802	 1.490897	 -1.221847	 -0.712569	 -0.201226	 0.667730	 -0.574586	 0.428364	 2
1463571581.650	 25	 0.452259	 -0.290094	 -0.969799	 1.474456	 -1.231054	 -0.727813	 -0.204113	 0.665064	 -0.577869	 0.426726	 2
1463571581.660	 25	 0.459089	 -0.662287	 -0.957336	 1.452645	 -1.240148	 -0.744910	 -0.207968	 0.661525	 -0.580874	 0.426287	 2
1463571581.670	 25	 0.431980	 -1.044543	 -0.879659	 1.426829	 -1.248542	 -0.762148	 -0.212775	 0.657273	 -0.583251	 0.427244	 2
1463571581.680	 25	 0.419038	 -1.414708	 -0.742310	 1.397239	 -1.255565	 -0.779362	 -0.218289	 0.652365	 -0.584872	 0.429761	 2
1463571581.690	 25	 0.397863	 -1.726300	 -0.597950	 1.364716	 -1.261012	 -0.796169	 -0.224307	 0.646913	 -0.585723	 0.433726	 2
1463571581.700	 25	 0.281016	 -1.965228	 -0.445686	 1.332447	 -1.265072	 -0.810000	 -0.230773	 0.641259	 -0.585645	 0.438807	 2
1463571581.710	 25	 -0.040679	 -1.725072	 -0.312759	 1.309926	 -1.268251	 -0.814575	 -0.237057	 0.636695	 -0.584449	 0.443671	 2
1463571581.720	 25	 -0.550769	 -1.156745	 -0.176203	 1.308047	 -1.271405	 -0.802896	 -0.242467	 0.634749	 -0.582042	 0.446687	 2
1463571581.730	 25	 -0.960745	 -0.846199	 -0.052510	 1.325925	 -1.274433	 -0.774729	 -0.247324	 0.635162	 -0.578344	 0.448239	 2
1463571581.740	 25	 -1.124894	 -0.653618	 0.037038	 1.354174	 -1.276783	 -0.738015	 -0.251709	 0.636788	 -0.573974	 0.449107	 2
1463571581.750	 25	 -1.202908	 -0.551476	 0.156967	 1.387670	 -1.277934	 -0.696985	 -0.255635	 0.639034	 -0.569182	 0.449798	 2
1463571581.760	 25	 -1.244153	 -0.391618	 0.330401	 1.425335	 -1.277160	 -0.653070	 -0.258755	 0.641926	 -0.564011	 0.450409	 2
1463571581.770	 25	 -1.168489	 -0.119260	 0.517720	 1.464301	 -1.273966	 -0.610295	 -0.260473	 0.645453	 -0.558846	 0.450817	 2
1463571581.780	 25	 -1.069378	 0.199374	 0.642384	 1.502432	 -1.268796	 -0.571679	 -0.260596	 0.649562	 -0.554095	 0.450708	 2
1463571581.790	 25	 -1.088820	 0.299012	 0.734071	 1.540432	 -1.262198	 -0.534915	 -0.259874	 0.654106	 -0.549379	 0.450326	 2
1463571581.800	 25	 -1.439938	 0.200882	 0.847054	 1.583940	 -1.254166	 -0.491625	 -0.259549	 0.659303	 -0.543498	 0.450071	 2
1463571581.810	 25	 -2.197351	 0.127679	 1.006437	 1.643654	 -1.243664	 -0.430080	 -0.260468	 0.666222	 -0.534905	 0.449646	 2
1463571581.820	 25	 -2.767613	 0.352895	 1.178691	 1.719125	 -1.229452	 -0.353056	 -0.261942	 0.675368	 -0.523768	 0.448253	 2
1463571581.830	 25	 -2.482691	 1.026230	 1.449982	 1.790751	 -1.211179	 -0.285667	 -0.260945	 0.685784	 -0.512914	 0.445565	 2
1463571581.840	 25	 -1.568919	 1.894212	 1.829515	 1.842204	 -1.189994	 -0.248511	 -0.254733	 0.696370	 -0.504962	 0.441807	 2
1463571581.850	 25	 -0.617507	 2.550826	 2.264303	 1.871114	 -1.166997	 -0.243320	 -0.242976	 0.706456	 -0.500292	 0.437711	 2
1463571581.860	 25	 -0.081906	 2.799500	 2.744744	 1.884772	 -1.141462	 -0.258598	 -0.227163	 0.716015	 -0.497176	 0.434207	 2
1463571581.870	 25	 -0.070019	 2.679350	 3.194340	 1.892518	 -1.111989	 -0.280245	 -0.209350	 0.725391	 -0.493327	 0.431983	 2
1463571581.880	 25	 -0.532645	 2.341227	 3.461662	 1.902868	 -1.078454	 -0.295940	 -0.191810	 0.735022	 -0.486967	 0.431061	 2
1463571581.890	 25	 -1.018193	 2.000133	 3.603397	 1.917757	 -1.041736	 -0.302701	 -0.175543	 0.744982	 -0.477804	 0.431149	 2
1463571581.900	 25	 -1.188775	 1.744862	 3.680307	 1.932819	 -1.003326	 -0.306158	 -0.160061	 0.754694	 -0.467041	 0.432077	 2
1463571581.910	 25	 -1.188988	 1.604228	 3.794103	 1.945662	 -0.964100	 -0.310494	 -0.144617	 0.763850	 -0.455675	 0.433566	 2
1463571581.920	 25	 -1.136228	 1.438313	 4.109696	 1.954708	 -0.922269	 -0.317651	 -0.128279	 0.772438	 -0.443449	 0.436161	 2
1463571581.930	 25	 -1.008384	 1.405912	 4.093361	 1.961151	 -0.880207	 -0.327131	 -0.111546	 0.780225	 -0.431222	 0.439153	 2
1463571581.940	 25	 -0.911867	 1.663784	 3.905215	 1.969292	 -0.840088	 -0.337243	 -0.094723	 0.787727	 -0.419674	 0.440895	 2
1463571581.950	 25	 -0.871611	 2.098462	 3.581720	 1.982420	 -0.802866	 -0.346575	 -0.077999	 0.795537	 -0.408954	 0.440219	 2
1463571581.960	 25	 -0.735522	 1.929648	 3.384995	 1.995722	 -0.768470	 -0.356124	 -0.062008	 0.802717	 -0.399028	 0.438835	 2
1463571581.970	 25	 -0.484015	 1.476250	 3.298655	 2.003469	 -0.735992	 -0.368199	 -0.046683	 0.808211	 -0.389969	 0.438793	 2
1463571581.980	 25	 -0.250927	 0.978116	 3.196071	 2.005031	 -0.705495	 -0.382531	 -0.032183	 0.811855	 -0.381878	 0.440483	 2
1463571581.990	 25	 -0.132718	 0.557975	 3.095214	 2.001923	 -0.676515	 -0.397692	 -0.018599	 0.813992	 -0.374435	 0.443700	 2
1463571582.000	 25	 -0.040668	 0.273832	 2.963877	 1.996003	 -0.648968	 -0.412713	 -0.005923	 0.815040	 -0.367503	 0.447903	 2
1463571582.010	 25	 0.174764	 0.156077	 2.799975	 1.988421	 -0.623478	 -0.428402	 0.006223	 0.815231	 -0.361550	 0.452374	 2
1463571582.020	 25	 0.601478	 0.344359	 2.535834	 1.980728	 -0.601527	 -0.446608	 0.018446	 0.814834	 -0.357571	 0.455903	 2
1463571582.030	 25	 1.182509	 0.711569	 2.220858	 1.974312	 -0.584612	 -0.469014	 0.031224	 0.814093	 -0.356494	 0.457373	 2
1463571582.040	 25	 1.664188	 1.382231	 2.056646	 1.971772	 -0.571451	 -0.495806	 0.045426	 0.813688	 -0.357798	 0.455883	 2
1463571582.050	 25	 2.041238	 1.952937	 2.000057	 1.973586	 -0.560593	 -0.526458	 0.061326	 0.813777	 -0.360708	 0.451548	 2
1463571582.060	 25	 2.147074	 2.258596	 1.951889	 1.978558	 -0.550947	 -0.558681	 0.078097	 0.814149	 -0.364225	 0.445423	 2
1463571582.070	 25	 2.132400	 2.229770	 1.784424	 1.984779	 -0.542657	 -0.590218	 0.094439	 0.814442	 -0.367899	 0.438652	 2
1463571582.080	 25	 2.108212	 1.692327	 1.437523	 1.988089	 -0.537214	 -0.619910	 0.108686	 0.813810	 -0.372220	 0.432843	 2
1463571582.090	 25	 2.140958	 0.670673	 1.223105	 1.983052	 -0.534196	 -0.648541	 0.120233	 0.811154	 -0.377596	 0.430110	 2
1463571582.100	 25	 2.008756	 -0.537185	 1.078731	 1.966945	 -0.532020	 -0.675569	 0.128720	 0.806039	 -0.383646	 0.431912	 2
1463571582.110	 25	 1.916262	 -1.662333	 0.622512	 1.940910	 -0.532328	 -0.699631	 0.133245	 0.798799	 -0.390690	 0.437637	 2
1463571582.120	 25	 1.662135	 -2.882977	 0.425792	 1.904564	 -0.534174	 -0.720356	 0.133757	 0.789362	 -0.398339	 0.447596	 2
1463571582.130	 25	 1.345070	 -3.295277	 0.350112	 1.863409	 -0.534941	 -0.737479	 0.131970	 0.778886	 -0.405218	 0.460130	 2
1463571582.140	 25	 1.048362	 -3.617860	 0.187698	 1.821613	 -0.535722	 -0.750759	 0.128333	 0.768272	 -0.411295	 0.473418	 2
1463571582.150	 25	 0.885328	 -3.763344	 0.153660	 1.778364	 -0.536493	 -0.761481	 0.123224	 0.757218	 -0.416838	 0.487527	 2
1463571582.170	 26	 -0.677198	 -2.826036	 0.878323	 1.709904	 -0.526815	 -0.765842	 0.113700	 0.739596	 -0.418973	 0.514327	 2
1463571582.180	 26	 -1.455077	 -2.246425	 1.289085	 1.693205	 -0.513288	 -0.752565	 0.109821	 0.735611	 -0.412313	 0.526131	 2
1463571582.190	 26	 -1.445621	 -2.089946	 1.603793	 1.678912	 -0.496377	 -0.737804	 0.107134	 0.732095	 -0.403979	 0.537922	 2
1463571582.200	 26	 -1.100868	 -1.753756	 1.755258	 1.665805	 -0.477963	 -0.726370	 0.106520	 0.728540	 -0.395914	 0.548757	 2
1463571582.210	 26	 -0.869694	 -1.369558	 1.734439	 1.655012	 -0.459740	 -0.717901	 0.107471	 0.725356	 -0.388534	 0.557988	 2
1463571582.230	 27	 -0.924924	 -1.177002	 1.571519	 1.638696	 -0.426035	 -0.701925	 0.110007	 0.720271	 -0.374469	 0.573482	 2
1463571582.240	 27	 -1.156429	 -1.452131	 1.379137	 1.629418	 -0.410953	 -0.690977	 0.109486	 0.717543	 -0.367126	 0.581690	 2
1463571582.250	 27	 -1.466530	 -1.930579	 0.985184	 1.617134	 -0.399316	 -0.676582	 0.106082	 0.714202	 -0.359943	 0.590849	 2
1463571582.260	 27	 -1.829905	 -2.551957	 0.513631	 1.600307	 -0.392342	 -0.658033	 0.098881	 0.709827	 -0.353105	 0.601402	 2
1463571582.270	 27	 -2.156343	 -3.101607	 0.121289	 1.579151	 -0.389855	 -0.635581	 0.088107	 0.704344	 -0.346505	 0.613246	 2
1463571582.280	 27	 -2.348258	 -3.589498	 -0.060628	 1.553958	 -0.390265	 -0.610613	 0.074888	 0.697571	 -0.339920	 0.626291	 2
1463571582.290	 27	 -2.421531	 -4.068079	 0.062382	 1.524407	 -0.390941	 -0.584579	 0.060650	 0.689119	 -0.332881	 0.640802	 2
1463571582.300	 27	 -2.406966	 -4.462129	 0.436934	 1.490682	 -0.389110	 -0.558258	 0.046766	 0.678815	 -0.324693	 0.656961	 2
1463571582.310	 27	 -2.280061	 -4.634714	 0.889304	 1.454333	 -0.383687	 -0.532525	 0.034285	 0.667045	 -0.315248	 0.674162	 2
1463571582.320	 27	 -2.060555	 -4.615212	 1.320274	 1.417102	 -0.374473	 -0.508126	 0.023893	 0.654361	 -0.304750	 0.691642	 2
1463571582.330	 27	 -1.714184	 -4.560458	 1.676929	 1.379337	 -0.361901	 -0.486067	 0.015865	 0.640910	 -0.293761	 0.709004	 2
1463571582.340	 27	 -1.247645	 -4.731258	 1.925995	 1.339143	 -0.346422	 -0.467594	 0.010178	 0.626037	 -0.282990	 0.726561	 2
1463571582.350	 27	 -0.804482	 -5.244174	 2.069767	 1.293086	 -0.329032	 -0.452863	 0.006037	 0.608473	 -0.272916	 0.745145	 2
1463571582.360	 27	 -0.549778	 -5.961213	 2.296411	 1.239355	 -0.309510	 -0.439780	 0.002708	 0.587385	 -0.262808	 0.765444	 2
1463571582.370	 27	 -0.461079	 -6.376546	 2.552886	 1.180439	 -0.287907	 -0.425911	 -0.000086	 0.563535	 -0.251813	 0.786777	 2
1463571582.380	 27	 -0.500824	 -6.218017	 2.837134	 1.121950	 -0.264679	 -0.409677	 -0.002124	 0.539062	 -0.239461	 0.807506	 2
1463571582.390	 27	 -0.502604	 -5.674818	 3.087329	 1.068212	 -0.240052	 -0.390616	 -0.003018	 0.515801	 -0.225634	 0.826456	 2
1463571582.400	 27	 -0.216275	 -4.625470	 2.996551	 1.023392	 -0.215262	 -0.372276	 -0.001952	 0.495748	 -0.212119	 0.842161	 2
1463571582.410	 27	 0.217859	 -3.748176	 2.706784	 0.986755	 -0.191217	 -0.357951	 0.001192	 0.478878	 -0.200564	 0.854663	 2
1463571582.420	 27	 0.669167	 -2.900277	 2.477343	 0.957362	 -0.167181	 -0.348109	 0.006499	 0.464899	 -0.191053	 0.864480	 2
1463571582.430	 27	 1.042502	 -1.964926	 2.395403	 0.936305	 -0.142070	 -0.341722	 0.014115	 0.454316	 -0.182914	 0.871746	 2
1463571582.440	 27	 1.420136	 -1.071700	 2.370592	 0.923937	 -0.115134	 -0.338054	 0.024085	 0.447296	 -0.175618	 0.876644	 2
1463571582.450	 27	 1.867291	 -0.358554	 2.330704	 0.918687	 -0.085870	 -0.337850	 0.036545	 0.443114	 -0.169316	 0.879572	 2
1463571582.460	 27	 2.272051	 0.198295	 2.281205	 0.919183	 -0.054466	 -0.341224	 0.051236	 0.441123	 -0.164014	 0.880843	 2
1463571582.470	 27	 2.602122	 0.505643	 2.263073	 0.923392	 -0.021144	 -0.347644	 0.067716	 0.440367	 -0.159470	 0.880943	 2
1463571582.480	 27	 2.766688	 0.555127	 2.259969	 0.928960	 0.013327	 -0.355936	 0.085164	 0.439818	 -0.155333	 0.880442	 2
1463571582.490	 27	 2.768116	 0.380904	 2.289243	 0.933571	 0.048217	 -0.364620	 0.102736	 0.438529	 -0.151191	 0.879931	 2
1463571582.500	 27	 2.602272	 0.065479	 2.286686	 0.935599	 0.082383	 -0.372360	 0.119518	 0.435951	 -0.146831	 0.879831	 2
1463571582.510	 27	 2.344290	 -0.308327	 2.263073	 0.934035	 0.114945	 -0.378323	 0.134894	 0.431820	 -0.142222	 0.880402	 2
1463571582.520	 27	 2.068613	 -0.615892	 2.273269	 0.929047	 0.145898	 -0.381974	 0.148793	 0.426312	 -0.137203	 0.881643	 2
1463571582.530	 27	 1.843666	 -0.827661	 2.313756	 0.921469	 0.175666	 -0.383280	 0.161492	 0.419819	 -0.131664	 0.883367	 2
1463571582.540	 27	 1.729993	 -1.012869	 2.395086	 0.911659	 0.205150	 -0.382736	 0.173550	 0.412413	 -0.125631	 0.885445	 2
1463571582.550	 27	 1.737061	 -1.161248	 2.470378	 0.900078	 0.235107	 -0.381147	 0.185523	 0.404174	 -0.119290	 0.887691	 2
1463571582.560	 27	 1.864322	 -1.339172	 2.480404	 0.886800	 0.265896	 -0.379781	 0.197848	 0.394983	 -0.113148	 0.889968	 2
1463571582.570	 27	 2.050279	 -1.468759	 2.432817	 0.872343	 0.297503	 -0.379589	 0.210738	 0.384963	 -0.107618	 0.892083	 2
1463571582.580	 27	 2.307920	 -1.564477	 2.391315	 0.857440	 0.330337	 -0.381117	 0.224498	 0.374303	 -0.102808	 0.893828	 2
1463571582.590	 27	 2.557651	 -1.674680	 2.255961	 0.842270	 0.364063	 -0.384963	 0.239069	 0.363014	 -0.099060	 0.895128	 2
1463571582.600	 27	 2.746415	 -1.778627	 2.078565	 0.827037	 0.397928	 -0.391182	 0.254097	 0.351220	 -0.096545	 0.895968	 2
1463571582.620	 28	 3.030036	 -1.807148	 1.780614	 0.798688	 0.465833	 -0.409570	 0.285144	 0.327166	 -0.094427	 0.895957	 2
1463571582.640	 29	 2.989430	 -1.689023	 1.626466	 0.774410	 0.532220	 -0.431785	 0.315901	 0.303688	 -0.094382	 0.893908	 2
1463571582.650	 29	 2.818981	 -1.645803	 1.650733	 0.762845	 0.564238	 -0.441311	 0.330372	 0.292305	 -0.093994	 0.892512	 2
1463571582.660	 29	 2.567199	 -1.700829	 1.734477	 0.749725	 0.595126	 -0.448062	 0.343782	 0.280694	 -0.092981	 0.891280	 2
1463571582.670	 29	 2.270818	 -1.733175	 1.847596	 0.734101	 0.624714	 -0.451035	 0.355933	 0.268713	 -0.091130	 0.890393	 2
1463571582.680	 29	 1.968397	 -1.658341	 1.924463	 0.716735	 0.652658	 -0.450125	 0.366776	 0.256861	 -0.088358	 0.889770	 2
1463571582.690	 29	 1.713737	 -1.576739	 1.927439	 0.698320	 0.678689	 -0.446099	 0.376396	 0.245418	 -0.084947	 0.889314	 2
1463571582.700	 29	 1.546700	 -1.642643	 1.865401	 0.678475	 0.702866	 -0.440288	 0.385015	 0.234001	 -0.081551	 0.889020	 2
1463571582.710	 29	 1.423951	 -1.825639	 1.808281	 0.656097	 0.725562	 -0.433281	 0.392847	 0.221972	 -0.078576	 0.888946	 2
1463571582.720	 29	 1.291897	 -1.912106	 1.711642	 0.631694	 0.746590	 -0.425217	 0.399871	 0.209571	 -0.076031	 0.889046	 2
1463571582.730	 29	 1.198099	 -1.990541	 1.564654	 0.606432	 0.765813	 -0.417023	 0.406184	 0.197156	 -0.074111	 0.889186	 2
1463571582.740	 29	 1.116673	 -2.176306	 1.435742	 0.579536	 0.783442	 -0.408940	 0.411864	 0.184298	 -0.073031	 0.889421	 2
1463571582.750	 29	 1.001221	 -2.356473	 1.331692	 0.550372	 0.799428	 -0.400511	 0.416819	 0.170807	 -0.072714	 0.889831	 2
1463571582.760	 29	 0.838224	 -2.460768	 1.257537	 0.519238	 0.813507	 -0.391178	 0.420901	 0.156960	 -0.072879	 0.890446	 2
1463571582.770	 29	 0.652325	 -2.473262	 1.219607	 0.486603	 0.825543	 -0.380376	 0.424032	 0.143095	 -0.073169	 0.891273	 2
1463571582.780	 29	 0.452991	 -2.401614	 1.192168	 0.453168	 0.835456	 -0.367903	 0.426205	 0.129559	 -0.073315	 0.892294	 2
1463571582.790	 29	 0.272905	 -2.301484	 1.140313	 0.419747	 0.843189	 -0.354238	 0.427469	 0.116600	 -0.073318	 0.893476	 2
1463571582.800	 29	 0.128020	 -2.185665	 1.065918	 0.387033	 0.848936	 -0.340157	 0.427979	 0.104310	 -0.073302	 0.894751	 2
1463571582.810	 29	 0.014418	 -1.991298	 0.982389	 0.356077	 0.852960	 -0.326179	 0.427907	 0.092992	 -0.073199	 0.896041	 2
1463571582.820	 29	 -0.050041	 -1.796978	 0.912286	 0.327542	 0.855719	 -0.312743	 0.427480	 0.082779	 -0.072977	 0.897264	 2
1463571582.830	 29	 -0.122013	 -1.711327	 0.960604	 0.299422	 0.857594	 -0.298442	 0.426724	 0.073020	 -0.072371	 0.898519	 2
1463571582.840	 29	 -0.118572	 -1.641305	 0.937778	 0.271900	 0.859090	 -0.283954	 0.425898	 0.063594	 -0.071584	 0.899690	 2
1463571582.850	 29	 -0.056745	 -1.544598	 0.804920	 0.246473	 0.860528	 -0.271173	 0.425250	 0.054742	 -0.071117	 0.900616	 2
1463571582.860	 29	 0.045902	 -1.355783	 0.629932	 0.224795	 0.862281	 -0.261155	 0.425003	 0.046959	 -0.071071	 0.901175	 2
1463571582.870	 29	 0.174275	 -1.116220	 0.423220	 0.207907	 0.864681	 -0.254437	 0.425321	 0.040584	 -0.071453	 0.901304	 2
1463571582.880	 29	 0.273037	 -0.802266	 0.196143	 0.196727	 0.867669	 -0.251394	 0.426192	 0.035961	 -0.072247	 0.901026	 2
1463571582.890	 29	 0.256968	 -0.452410	 0.033279	 0.191223	 0.870444	 -0.251214	 0.427224	 0.033307	 -0.073147	 0.900566	 2
1463571582.900	 29	 0.116221	 -0.207311	 0.041048	 0.188623	 0.872042	 -0.251215	 0.427840	 0.032014	 -0.073593	 0.900284	 2
1463571582.910	 29	 -0.078193	 -0.107079	 0.143855	 0.186001	 0.871968	 -0.249374	 0.427682	 0.031233	 -0.073330	 0.900408	 2
1463571582.920	 29	 -0.244390	 -0.153534	 0.270630	 0.181390	 0.870365	 -0.245128	 0.426735	 0.030184	 -0.072511	 0.900960	 2
1463571582.930	 29	 -0.314922	 -0.248412	 0.358820	 0.174564	 0.867969	 -0.239104	 0.425331	 0.028566	 -0.071406	 0.901764	 2
1463571582.940	 29	 -0.269624	 -0.379319	 0.365733	 0.166246	 0.865762	 -0.232727	 0.423963	 0.026324	 -0.070435	 0.902553	 2
1463571582.950	 29	 -0.135945	 -0.498182	 0.309109	 0.157418	 0.864571	 -0.227314	 0.423053	 0.023568	 -0.069932	 0.903095	 2
1463571582.960	 29	 0.071562	 -0.549424	 0.220499	 0.149188	 0.865104	 -0.223635	 0.422963	 0.020593	 -0.069981	 0.903206	 2
1463571582.970	 29	 0.308652	 -0.448562	 0.144770	 0.142916	 0.867814	 -0.221746	 0.423939	 0.017984	 -0.070304	 0.902779	 2
1463571582.980	 29	 0.486794	 -0.225838	 0.129305	 0.139286	 0.872436	 -0.220749	 0.425873	 0.016259	 -0.070371	 0.901896	 2
1463571582.990	 29	 0.532071	 0.062562	 0.169962	 0.138184	 0.877902	 -0.219457	 0.428270	 0.015688	 -0.069727	 0.900820	 2
1463571583.000	 29	 0.440789	 0.333506	 0.241487	 0.138973	 0.882873	 -0.217000	 0.430499	 0.016253	 -0.068181	 0.899865	 2
1463571583.010	 29	 0.258511	 0.548308	 0.307952	 0.140950	 0.886327	 -0.213120	 0.432075	 0.017761	 -0.065822	 0.899257	 2
1463571583.020	 29	 0.061936	 0.673804	 0.373712	 0.143289	 0.887910	 -0.207759	 0.432806	 0.019872	 -0.062820	 0.899076	 2
1463571583.030	 29	 -0.074458	 0.672464	 0.427109	 0.144987	 0.888059	 -0.201161	 0.432855	 0.022054	 -0.059478	 0.899229	 2
1463571583.040	 29	 -0.131382	 0.549650	 0.481882	 0.144946	 0.887530	 -0.193559	 0.432531	 0.023712	 -0.056097	 0.899560	 2
1463571583.050	 29	 -0.129920	 0.357560	 0.540830	 0.142406	 0.886964	 -0.185008	 0.432106	 0.024451	 -0.052829	 0.899942	 2
1463571583.060	 29	 -0.095639	 0.130100	 0.575717	 0.137191	 0.886713	 -0.175854	 0.431749	 0.024094	 -0.049848	 0.900293	 2
1463571583.070	 29	 -0.045468	 -0.089184	 0.571108	 0.129770	 0.886913	 -0.166743	 0.431551	 0.022709	 -0.047338	 0.900559	 2
1463571583.090	 30	 -0.066789	 -0.340935	 0.607318	 0.109475	 0.887374	 -0.147543	 0.431106	 0.017686	 -0.043047	 0.901100	 2
1463571583.100	 30	 -0.117931	 -0.313219	 0.595232	 0.098744	 0.886971	 -0.137949	 0.430621	 0.014935	 -0.041050	 0.901475	 2
1463571583.110	 30	 -0.165282	 -0.164231	 0.587439	 0.089297	 0.885987	 -0.128453	 0.429924	 0.012758	 -0.038836	 0.901939	 2
1463571583.120	 30	 -0.173893	 0.040060	 0.594744	 0.081778	 0.884753	 -0.118882	 0.429170	 0.011468	 -0.036174	 0.902426	 2
1463571583.130	 30	 -0.136711	 0.221900	 0.604638	 0.076089	 0.883740	 -0.109228	 0.428561	 0.011005	 -0.033067	 0.902840	 2
1463571583.140	 30	 -0.043355	 0.335388	 0.598487	 0.071852	 0.883479	 -0.099697	 0.428324	 0.011142	 -0.029679	 0.903069	 2
1463571583.160	 31	 0.228542	 0.302539	 0.578762	 0.064753	 0.886741	 -0.081635	 0.429598	 0.011720	 -0.022966	 0.902652	 2
1463571583.170	 31	 0.319762	 0.167341	 0.599090	 0.059742	 0.890110	 -0.072563	 0.431010	 0.011330	 -0.019876	 0.902057	 2
1463571583.180	 31	 0.343929	 0.045317	 0.648901	 0.052849	 0.893871	 -0.062750	 0.432588	 0.010261	 -0.016865	 0.901376	 2
1463571583.190	 31	 0.348842	 -0.073568	 0.683988	 0.044204	 0.897684	 -0.052232	 0.434188	 0.008576	 -0.013934	 0.900673	 2
1463571583.200	 31	 0.319800	 -0.163530	 0.733494	 0.033881	 0.901256	 -0.040887	 0.435689	 0.006344	 -0.011023	 0.900007	 2
1463571583.210	 31	 0.263495	 -0.189265	 0.828598	 0.022012	 0.904282	 -0.028129	 0.436962	 0.003755	 -0.007842	 0.899438	 2
1463571583.220	 31	 0.223106	 -0.200450	 0.883199	 0.008863	 0.906722	 -0.013970	 0.438003	 0.000924	 -0.004339	 0.898963	 2
1463571583.230	 31	 0.205914	 -0.175304	 0.823900	 -0.003767	 0.908830	 -0.000268	 0.438936	 -0.001751	 -0.000947	 0.898516	 2
1463571583.240	 31	 0.192803	 -0.163165	 0.732472	 -0.015136	 0.910724	 0.012036	 0.439808	 -0.004150	 0.002076	 0.898080	 2
1463571583.250	 31	 0.192389	 -0.181843	 0.650238	 -0.025567	 0.912486	 0.023061	 0.440645	 -0.006395	 0.004719	 0.897646	 2
1463571583.260	 32	 0.216247	 -0.249591	 0.557744	 -0.035505	 0.914397	 0.032674	 0.441568	 -0.008716	 0.006821	 0.897160	 2
1463571583.280	 32	 0.324738	 -0.164095	 0.364692	 -0.051700	 0.919586	 0.047174	 0.444037	 -0.012694	 0.009661	 0.895866	 2
1463571583.290	 32	 0.334116	 0.069355	 0.294181	 -0.044275	 0.905080	 0.043428	 0.437474	 -0.010411	 0.009846	 0.899117	 2
1463571583.300	 32	 0.364259	 0.158320	 0.254248	 -0.046403	 0.908514	 0.047939	 0.439050	 -0.010327	 0.011354	 0.898331	 2
1463571583.310	 32	 0.376143	 0.203891	 0.236451	 -0.047763	 0.912136	 0.052135	 0.440705	 -0.009955	 0.012881	 0.897504	 2
