% Gyrometer data recorded with 'snsrlog'
% 
% 
% Label description:
% 	 0: Default Label
% 	 1: still_drop
% 	 2: walk_drop
% 	 3: other
% 	 4: dtw_same
% 	 5: dtw_diff
% 	 6: delete
% 
% Column description:
% 	 1: Seconds.milliseconds since 1970
% 	 2: Number of skipped measurements
% 	 3: Gyro X
% 	 4: Gyro Y
% 	 5: Gyro Z
% 	 6: Roll of the device
% 	 7: Pitch of the device
% 	 8: Yaw of the device
% 	 9: Quaternion X
% 	 10: Quaternion Y
% 	 11: Quaternion Z
% 	 12: Quaternion W
% 	 13: Label used for the current sample
% 
% 
1462074524.048	 0	 -1.319364	 1.417811	 0.236016	 0.455000	 0.397244	 0.008986	 0.191239	 0.221970	 0.048794	 0.954870	 2
1462074524.058	 0	 -1.559663	 1.041183	 -0.169321	 0.463801	 0.383657	 0.015636	 0.183781	 0.227055	 0.051285	 0.955008	 2
1462074524.068	 0	 -1.767789	 1.164234	 -0.591603	 0.473395	 0.366011	 0.019167	 0.174694	 0.232263	 0.051833	 0.955432	 2
1462074524.078	 0	 -1.877179	 1.619829	 -0.731355	 0.487630	 0.346280	 0.021604	 0.164603	 0.239589	 0.051912	 0.955410	 2
1462074524.088	 0	 -1.862991	 1.917555	 -0.737234	 0.505394	 0.326263	 0.024197	 0.154255	 0.248581	 0.052160	 0.954826	 2
1462074524.098	 0	 -1.687346	 2.043669	 -0.729063	 0.524835	 0.307546	 0.026512	 0.144513	 0.258293	 0.052381	 0.953759	 2
1462074524.108	 0	 -1.490741	 2.062521	 -0.690101	 0.544836	 0.290738	 0.028365	 0.135726	 0.268175	 0.052487	 0.952316	 2
1462074524.118	 0	 -1.395656	 2.270002	 -0.641039	 0.566294	 0.275325	 0.030360	 0.127548	 0.278704	 0.052771	 0.950406	 2
1462074524.128	 0	 -1.412824	 2.711373	 -0.651703	 0.591601	 0.260041	 0.032708	 0.119280	 0.291035	 0.053301	 0.947750	 2
1462074524.138	 0	 -1.486834	 3.097564	 -0.667714	 0.620997	 0.244213	 0.035693	 0.110549	 0.305280	 0.054075	 0.944277	 2
1462074524.148	 0	 -1.612243	 3.224355	 -0.687824	 0.652121	 0.227488	 0.039685	 0.101183	 0.320315	 0.055022	 0.940284	 2
1462074524.158	 0	 -1.768636	 3.342789	 -0.701362	 0.684437	 0.208943	 0.044973	 0.090706	 0.335872	 0.056051	 0.935853	 2
1462074524.168	 0	 -1.820140	 3.579803	 -0.753136	 0.720193	 0.186970	 0.050886	 0.078408	 0.352935	 0.056587	 0.930638	 2
1462074524.178	 0	 -1.544780	 3.822685	 -1.030384	 0.757267	 0.168012	 0.054947	 0.067816	 0.370350	 0.056439	 0.924693	 2
1462074524.188	 0	 -1.077449	 4.034402	 -1.567512	 0.797760	 0.148634	 0.053142	 0.058106	 0.388996	 0.053242	 0.917862	 2
1462074524.198	 0	 -0.543646	 4.054702	 -2.071819	 0.839506	 0.129250	 0.044657	 0.049879	 0.407900	 0.046658	 0.910469	 2
1462074524.208	 0	 -0.112601	 4.132559	 -2.454264	 0.882175	 0.109618	 0.030788	 0.042970	 0.426994	 0.037284	 0.902463	 2
1462074524.218	 0	 0.222271	 4.445446	 -2.879513	 0.927541	 0.088271	 0.012438	 0.036681	 0.447124	 0.025293	 0.893361	 2
1462074524.228	 0	 0.544077	 4.773572	 -3.116942	 0.976287	 0.065378	 -0.009266	 0.031037	 0.468598	 0.011238	 0.882795	 2
1462074524.238	 0	 0.788640	 5.338054	 -3.205474	 1.029497	 0.042392	 -0.032598	 0.026468	 0.491839	 -0.003750	 0.870276	 2
1462074524.248	 0	 1.053910	 5.909582	 -3.193939	 1.087887	 0.019363	 -0.056918	 0.023006	 0.517045	 -0.019339	 0.855431	 2
1462074524.258	 0	 1.193104	 6.507569	 -3.251401	 1.151650	 -0.004599	 -0.081534	 0.020265	 0.544152	 -0.035435	 0.837993	 2
1462074524.268	 0	 1.196584	 7.076094	 -3.319679	 1.220618	 -0.030708	 -0.105088	 0.017533	 0.572923	 -0.051821	 0.817781	 2
1462074524.278	 0	 1.116843	 7.395152	 -3.355449	 1.293066	 -0.059045	 -0.126261	 0.014476	 0.602447	 -0.068081	 0.795118	 2
1462074524.288	 0	 1.091931	 7.309145	 -3.345374	 1.365226	 -0.088975	 -0.144934	 0.011212	 0.631043	 -0.084105	 0.771094	 2
1462074524.308	 1	 1.299286	 5.935977	 -2.975217	 1.492344	 -0.148026	 -0.177703	 0.005988	 0.679122	 -0.114977	 0.724940	 2
1462074524.318	 1	 1.513623	 4.931183	 -2.684698	 1.541364	 -0.174670	 -0.193928	 0.004901	 0.696768	 -0.129669	 0.705462	 2
1462074524.328	 1	 1.736775	 4.252157	 -2.655658	 1.582276	 -0.201060	 -0.211275	 0.004442	 0.711059	 -0.144729	 0.688062	 2
1462074524.338	 1	 1.940432	 3.469327	 -2.575191	 1.615083	 -0.227547	 -0.229831	 0.004356	 0.722182	 -0.160245	 0.672872	 2
1462074524.348	 1	 2.008607	 2.582759	 -2.627731	 1.638502	 -0.254719	 -0.248997	 0.003942	 0.729877	 -0.176181	 0.660473	 2
1462074524.358	 1	 1.684327	 1.951779	 -2.647831	 1.655043	 -0.282485	 -0.265389	 0.002017	 0.735120	 -0.191374	 0.650362	 2
1462074524.368	 1	 1.168091	 1.566075	 -2.656517	 1.668357	 -0.310064	 -0.276369	 -0.001933	 0.739173	 -0.204715	 0.641647	 2
1462074524.378	 1	 0.820784	 1.309101	 -2.739014	 1.680012	 -0.337951	 -0.282709	 -0.007714	 0.742534	 -0.216675	 0.633747	 2
1462074524.388	 1	 0.822728	 1.143366	 -2.858873	 1.690059	 -0.366972	 -0.287759	 -0.014399	 0.745199	 -0.228634	 0.626257	 2
1462074524.398	 1	 1.039958	 1.108128	 -2.936761	 1.698688	 -0.397169	 -0.294342	 -0.020951	 0.747241	 -0.241476	 0.618774	 2
1462074524.418	 2	 1.649136	 0.827812	 -2.918030	 1.709195	 -0.459118	 -0.316532	 -0.031759	 0.748884	 -0.270254	 0.604258	 2
1462074524.428	 2	 1.886907	 0.531652	 -2.887686	 1.707969	 -0.490319	 -0.332534	 -0.036217	 0.747666	 -0.285938	 0.598267	 2
1462074524.438	 2	 1.979840	 0.272307	 -2.825897	 1.702679	 -0.521141	 -0.350405	 -0.040493	 0.745240	 -0.301802	 0.593206	 2
1462074524.448	 2	 1.978981	 0.009236	 -2.729221	 1.693795	 -0.550994	 -0.369198	 -0.044767	 0.741796	 -0.317331	 0.589097	 2
1462074524.458	 2	 1.896047	 -0.276619	 -2.580887	 1.681592	 -0.579274	 -0.388161	 -0.049154	 0.737461	 -0.332088	 0.586048	 2
1462074524.468	 2	 1.769699	 -0.519549	 -2.397670	 1.666644	 -0.605417	 -0.406725	 -0.053632	 0.732441	 -0.345733	 0.584057	 2
1462074524.478	 2	 1.621047	 -0.701059	 -2.260581	 1.649646	 -0.629695	 -0.424530	 -0.058334	 0.726930	 -0.358280	 0.582928	 2
1462074524.488	 2	 1.484511	 -0.783854	 -2.146127	 1.631812	 -0.652471	 -0.441515	 -0.063193	 0.721272	 -0.369881	 0.582205	 2
1462074524.498	 2	 1.424186	 -0.800688	 -1.998683	 1.613542	 -0.673548	 -0.458322	 -0.067827	 0.715611	 -0.380691	 0.581699	 2
1462074524.508	 2	 1.475025	 -0.808035	 -1.818014	 1.594092	 -0.692693	 -0.476224	 -0.071834	 0.709790	 -0.391008	 0.581507	 2
1462074524.518	 2	 1.626549	 -0.787586	 -1.577215	 1.572949	 -0.709277	 -0.496701	 -0.074584	 0.703743	 -0.401086	 0.581647	 2
1462074524.528	 2	 1.813053	 -0.852028	 -1.294880	 1.549203	 -0.722786	 -0.520297	 -0.075909	 0.697238	 -0.410945	 0.582426	 2
1462074524.538	 2	 1.923249	 -1.007910	 -1.039376	 1.522253	 -0.733060	 -0.546263	 -0.076171	 0.690049	 -0.420364	 0.584229	 2
1462074524.548	 2	 1.874888	 -1.232992	 -0.856672	 1.492756	 -0.740876	 -0.572749	 -0.076170	 0.682228	 -0.429112	 0.587049	 2
1462074524.558	 2	 1.571655	 -1.421144	 -0.671406	 1.463231	 -0.746494	 -0.595991	 -0.076725	 0.674321	 -0.436298	 0.590803	 2
1462074524.578	 3	 1.113497	 -1.693711	 -0.162650	 1.407066	 -0.750488	 -0.631326	 -0.078811	 0.658926	 -0.445642	 0.600840	 2
1462074524.588	 3	 0.985585	 -1.684803	 0.133763	 1.380916	 -0.748103	 -0.644828	 -0.079334	 0.651563	 -0.448114	 0.606932	 2
1462074524.608	 4	 0.773251	 -1.425232	 0.641066	 1.336699	 -0.735591	 -0.664746	 -0.078079	 0.638678	 -0.449580	 0.619574	 2
1462074524.618	 4	 0.662925	 -1.257273	 0.876992	 1.319434	 -0.725984	 -0.671139	 -0.076239	 0.633391	 -0.448735	 0.625812	 2
1462074524.628	 4	 0.464931	 -1.129418	 1.120768	 1.305822	 -0.714416	 -0.674241	 -0.073848	 0.628986	 -0.446615	 0.632028	 2
1462074524.638	 4	 0.182161	 -1.093910	 1.355896	 1.295706	 -0.701232	 -0.672932	 -0.071406	 0.625404	 -0.442899	 0.638445	 2
1462074524.648	 4	 -0.133003	 -1.127538	 1.577875	 1.288446	 -0.686731	 -0.666842	 -0.069274	 0.622472	 -0.437459	 0.645259	 2
1462074524.658	 4	 -0.591535	 -1.190938	 1.743273	 1.284110	 -0.671665	 -0.654966	 -0.068040	 0.620237	 -0.430080	 0.652463	 2
1462074524.668	 4	 -1.161092	 -1.183434	 1.814379	 1.283863	 -0.657216	 -0.636057	 -0.068316	 0.619115	 -0.420589	 0.659647	 2
1462074524.678	 4	 -1.630520	 -1.233329	 1.637888	 1.286514	 -0.645186	 -0.611682	 -0.070614	 0.618844	 -0.409823	 0.666401	 2
1462074524.688	 4	 -1.937726	 -1.355212	 1.280267	 1.289519	 -0.637273	 -0.584432	 -0.075347	 0.618687	 -0.398949	 0.672599	 2
1462074524.698	 4	 -1.929663	 -1.233775	 1.015952	 1.292714	 -0.632353	 -0.557459	 -0.081140	 0.618628	 -0.388791	 0.677907	 2
1462074524.708	 4	 -1.686801	 -1.010870	 0.905072	 1.296241	 -0.628278	 -0.533433	 -0.086304	 0.618772	 -0.379780	 0.682232	 2
1462074524.718	 4	 -1.378059	 -0.808883	 1.016169	 1.299554	 -0.622792	 -0.512842	 -0.089912	 0.618953	 -0.371532	 0.686132	 2
1462074524.728	 4	 -1.021241	 -0.232937	 1.233705	 1.305273	 -0.614370	 -0.495887	 -0.090830	 0.620110	 -0.363861	 0.689071	 2
1462074524.738	 4	 -0.740512	 0.673419	 1.515727	 1.317856	 -0.602592	 -0.481906	 -0.088330	 0.623787	 -0.356619	 0.689863	 2
1462074524.748	 4	 -0.435364	 1.000900	 1.916844	 1.333518	 -0.586179	 -0.470509	 -0.082776	 0.628681	 -0.349112	 0.689949	 2
1462074524.758	 4	 -0.216089	 1.608050	 2.128409	 1.352586	 -0.566484	 -0.461890	 -0.074612	 0.634902	 -0.341682	 0.688903	 2
1462074524.768	 4	 -0.090631	 2.295788	 2.268002	 1.377545	 -0.544797	 -0.455089	 -0.064260	 0.643231	 -0.334329	 0.685819	 2
1462074524.778	 4	 0.071922	 2.626876	 2.229168	 1.405489	 -0.522609	 -0.450763	 -0.052613	 0.652638	 -0.327488	 0.681210	 2
1462074524.788	 4	 0.176127	 2.494245	 2.022401	 1.431920	 -0.501781	 -0.448913	 -0.041097	 0.661535	 -0.321529	 0.676241	 2
1462074524.798	 4	 0.243428	 2.081327	 1.723822	 1.453867	 -0.483641	 -0.448829	 -0.030859	 0.668884	 -0.316601	 0.671867	 2
1462074524.808	 4	 0.370270	 1.609837	 1.439101	 1.470323	 -0.468291	 -0.450729	 -0.021949	 0.674363	 -0.312901	 0.668466	 2
1462074524.818	 4	 0.496413	 0.990505	 1.154075	 1.480137	 -0.455606	 -0.454620	 -0.014433	 0.677600	 -0.310484	 0.666521	 2
1462074524.828	 4	 0.463353	 0.320670	 0.880624	 1.482995	 -0.445823	 -0.459163	 -0.008856	 0.678500	 -0.309062	 0.666363	 2
1462074524.838	 4	 0.066150	 -0.093688	 0.782176	 1.482322	 -0.437742	 -0.460411	 -0.005569	 0.678200	 -0.307033	 0.667641	 2
1462074524.848	 4	 -0.374735	 -0.158038	 0.823783	 1.482356	 -0.429954	 -0.456608	 -0.003993	 0.678116	 -0.303402	 0.669395	 2
1462074524.858	 4	 -0.589544	 -0.099089	 0.945568	 1.484041	 -0.421341	 -0.449719	 -0.002913	 0.678570	 -0.298476	 0.671153	 2
1462074524.868	 4	 -0.679392	 0.029278	 1.010424	 1.487247	 -0.411928	 -0.441598	 -0.001743	 0.679530	 -0.292873	 0.672653	 2
1462074524.878	 4	 -0.752492	 0.337148	 1.048030	 1.493238	 -0.402251	 -0.432719	 -0.000352	 0.681434	 -0.286907	 0.673300	 2
1462074524.888	 4	 -0.850364	 0.736249	 1.189014	 1.503435	 -0.391371	 -0.422883	 0.001706	 0.684753	 -0.280212	 0.672750	 2
1462074524.898	 4	 -0.841534	 1.149774	 1.308953	 1.517604	 -0.379095	 -0.412852	 0.004677	 0.689407	 -0.272957	 0.670963	 2
1462074524.908	 4	 -0.687252	 1.644643	 1.411330	 1.535901	 -0.365572	 -0.404342	 0.009072	 0.695432	 -0.265731	 0.667592	 2
1462074524.918	 4	 -0.491340	 2.179483	 1.468955	 1.558420	 -0.351094	 -0.398227	 0.015061	 0.702825	 -0.258868	 0.662418	 2
1462074524.928	 4	 -0.358514	 2.743807	 1.460261	 1.585966	 -0.336475	 -0.394095	 0.022284	 0.711802	 -0.252428	 0.655073	 2
1462074524.938	 4	 -0.198258	 3.011336	 1.456026	 1.616221	 -0.321852	 -0.392052	 0.030419	 0.721535	 -0.246450	 0.646315	 2
1462074524.948	 4	 -0.151216	 2.976558	 1.519239	 1.646523	 -0.306780	 -0.391379	 0.039035	 0.731121	 -0.240549	 0.637240	 2
1462074524.958	 4	 -0.168388	 2.707707	 1.545662	 1.674410	 -0.291226	 -0.391069	 0.047489	 0.739785	 -0.234431	 0.628892	 2
1462074524.968	 4	 -0.141744	 2.506328	 1.507320	 1.699796	 -0.276014	 -0.391421	 0.055624	 0.747524	 -0.228508	 0.621206	 2
1462074524.978	 4	 -0.152623	 2.278384	 1.457335	 1.723108	 -0.261216	 -0.391968	 0.063320	 0.754505	 -0.222680	 0.614106	 2
1462074524.988	 4	 -0.142975	 1.877015	 1.407688	 1.742741	 -0.246897	 -0.392862	 0.070463	 0.760257	 -0.217102	 0.608203	 2
1462074524.998	 4	 -0.096615	 1.359439	 1.335325	 1.757342	 -0.233415	 -0.394260	 0.076890	 0.764399	 -0.212052	 0.604000	 2
1462074525.008	 4	 -0.122043	 0.813081	 1.224952	 1.766571	 -0.220859	 -0.395619	 0.082379	 0.766886	 -0.207465	 0.601712	 2
1462074525.018	 4	 -0.269090	 0.102816	 1.050167	 1.769428	 -0.209671	 -0.395571	 0.086202	 0.767510	 -0.203188	 0.601840	 2
1462074525.028	 4	 -0.555879	 -0.403590	 0.916863	 1.766799	 -0.199552	 -0.392745	 0.088062	 0.766608	 -0.198698	 0.604216	 2
1462074525.038	 4	 -0.975193	 -0.408538	 0.944980	 1.763859	 -0.188686	 -0.385867	 0.088587	 0.765756	 -0.192712	 0.607151	 2
1462074525.048	 4	 -1.239930	 -0.177143	 0.919597	 1.763322	 -0.177230	 -0.375801	 0.088320	 0.765748	 -0.185413	 0.609468	 2
1462074525.058	 4	 -1.183749	 0.116037	 0.743854	 1.765460	 -0.167098	 -0.365241	 0.087683	 0.766605	 -0.178319	 0.610599	 2
1462074525.068	 4	 -0.827082	 0.619293	 0.471530	 1.771612	 -0.159944	 -0.357015	 0.087330	 0.768658	 -0.172861	 0.609638	 2
1462074525.078	 4	 -0.231591	 1.098247	 0.171323	 1.782032	 -0.156712	 -0.353654	 0.087946	 0.771891	 -0.170166	 0.606213	 2
1462074525.088	 4	 0.501445	 1.371127	 -0.183156	 1.794760	 -0.158257	 -0.356563	 0.089675	 0.775641	 -0.171063	 0.600897	 2
1462074525.098	 4	 1.154354	 1.047580	 -0.387952	 1.805042	 -0.163868	 -0.365662	 0.092359	 0.778441	 -0.175447	 0.595582	 2
1462074525.108	 4	 1.620929	 0.171191	 -0.635703	 1.806885	 -0.172932	 -0.379244	 0.095007	 0.778576	 -0.182836	 0.592760	 2
1462074525.118	 4	 1.970105	 -0.853388	 -0.978663	 1.797964	 -0.185871	 -0.395847	 0.096607	 0.775459	 -0.193075	 0.593340	 2
1462074525.128	 4	 2.251940	 -1.989571	 -1.485138	 1.777432	 -0.203755	 -0.414616	 0.096206	 0.768900	 -0.206338	 0.597463	 2
1462074525.138	 4	 2.494118	 -2.821372	 -2.128049	 1.746357	 -0.227629	 -0.435305	 0.093184	 0.759206	 -0.222803	 0.604385	 2
1462074525.148	 4	 2.557424	 -2.861544	 -2.801470	 1.712188	 -0.257713	 -0.457057	 0.087659	 0.748632	 -0.241776	 0.611074	 2
1462074525.158	 4	 2.259468	 -2.233811	 -3.333376	 1.682470	 -0.292574	 -0.477213	 0.079902	 0.739573	 -0.261439	 0.615058	 2
1462074525.168	 4	 1.530234	 -1.159537	 -3.623970	 1.663569	 -0.329810	 -0.491547	 0.070149	 0.734100	 -0.279347	 0.614932	 2
1462074525.178	 4	 0.584172	 0.365831	 -3.692129	 1.661424	 -0.367290	 -0.496750	 0.059104	 0.733989	 -0.293694	 0.609516	 2
1462074525.188	 4	 -0.330835	 2.189382	 -3.549959	 1.680506	 -0.402927	 -0.491716	 0.048104	 0.740302	 -0.303680	 0.597844	 2
1462074525.198	 4	 -0.970991	 4.068041	 -3.325474	 1.722800	 -0.435333	 -0.477681	 0.038595	 0.753099	 -0.309667	 0.579188	 2
1462074525.208	 4	 -1.160322	 5.214935	 -2.917755	 1.781067	 -0.463110	 -0.459027	 0.031579	 0.769657	 -0.313010	 0.555567	 2
1462074525.218	 4	 -0.481684	 4.536869	 -2.132783	 1.835873	 -0.484418	 -0.444987	 0.028060	 0.784304	 -0.315958	 0.533151	 2
1462074525.228	 4	 1.092965	 1.921469	 -0.761893	 1.860307	 -0.497113	 -0.448843	 0.029579	 0.790310	 -0.321207	 0.520924	 2
1462074525.238	 4	 1.692347	 1.068953	 0.428201	 1.862463	 -0.500309	 -0.467330	 0.036262	 0.790467	 -0.327123	 0.516563	 2
1462074525.248	 4	 1.224646	 1.748932	 1.164385	 1.869281	 -0.494675	 -0.485632	 0.046334	 0.791999	 -0.329654	 0.511780	 2
1462074525.258	 4	 0.632927	 2.489139	 1.502548	 1.885991	 -0.483240	 -0.498821	 0.057770	 0.796188	 -0.328429	 0.504859	 2
1462074525.268	 4	 0.064422	 2.092031	 1.513395	 1.905927	 -0.469466	 -0.506656	 0.068264	 0.801246	 -0.324735	 0.497888	 2
1462074525.278	 4	 -0.500656	 1.176141	 1.121855	 1.919522	 -0.456316	 -0.507311	 0.074598	 0.804863	 -0.319568	 0.494476	 2
1462074525.288	 4	 -0.482729	 0.059306	 0.243775	 1.924534	 -0.449988	 -0.503703	 0.075796	 0.806360	 -0.316143	 0.494057	 2
1462074525.298	 4	 -0.159086	 -0.730784	 -0.627531	 1.920542	 -0.453245	 -0.499588	 0.072552	 0.805461	 -0.316481	 0.495791	 2
1462074525.308	 4	 -0.088173	 -0.961594	 -1.039548	 1.913375	 -0.461993	 -0.495014	 0.067000	 0.803655	 -0.318834	 0.497990	 2
1462074525.318	 4	 -0.014263	 -1.113868	 -1.327233	 1.904949	 -0.473565	 -0.489865	 0.060163	 0.801447	 -0.322082	 0.500326	 2
1462074525.328	 4	 0.356990	 -1.221337	 -1.769494	 1.894392	 -0.489969	 -0.486529	 0.052233	 0.798471	 -0.327553	 0.502419	 2
1462074525.338	 4	 0.832804	 -1.026743	 -2.313223	 1.883457	 -0.512881	 -0.486536	 0.043553	 0.795054	 -0.336142	 0.502992	 2
1462074525.348	 4	 1.057546	 -0.545395	 -2.726348	 1.875613	 -0.541111	 -0.488599	 0.034513	 0.792105	 -0.346968	 0.500991	 2
1462074525.358	 4	 0.827919	 0.072530	 -2.970118	 1.874660	 -0.571688	 -0.488581	 0.025078	 0.790688	 -0.357875	 0.496094	 2
1462074525.369	 4	 0.194663	 0.995610	 -3.097761	 1.885976	 -0.602091	 -0.481669	 0.015211	 0.792153	 -0.366847	 0.487529	 2
1462074525.379	 4	 -0.591904	 1.853359	 -3.056287	 1.912502	 -0.629952	 -0.464801	 0.005096	 0.797096	 -0.372571	 0.475188	 2
1462074525.389	 4	 -0.799901	 1.875069	 -2.786768	 1.944945	 -0.653987	 -0.442866	 -0.004641	 0.803127	 -0.376071	 0.462100	 2
1462074525.398	 4	 -0.094822	 1.216701	 -2.354610	 1.968558	 -0.675622	 -0.427261	 -0.012664	 0.806827	 -0.380466	 0.451792	 2
1462074525.408	 4	 0.986674	 0.655822	 -2.113463	 1.977659	 -0.698232	 -0.424969	 -0.018249	 0.806987	 -0.388257	 0.444630	 2
1462074525.419	 4	 1.797534	 0.468742	 -2.209656	 1.977407	 -0.724593	 -0.433175	 -0.022445	 0.804714	 -0.399613	 0.438453	 2
1462074525.428	 4	 2.331825	 0.052450	 -2.345008	 1.968880	 -0.754532	 -0.448474	 -0.026538	 0.800322	 -0.413552	 0.433307	 2
1462074525.438	 4	 2.633417	 -0.631987	 -2.443527	 1.950212	 -0.786695	 -0.468826	 -0.031588	 0.793587	 -0.428960	 0.430366	 2
1462074525.449	 4	 2.733498	 -1.536772	 -2.501842	 1.920124	 -0.819640	 -0.492610	 -0.038394	 0.784424	 -0.444811	 0.430520	 2
1462074525.459	 4	 2.680579	 -2.521970	 -2.563837	 1.878118	 -0.852504	 -0.518509	 -0.047637	 0.772833	 -0.460360	 0.434199	 2
1462074525.469	 4	 2.044536	 -2.739462	 -2.305606	 1.832466	 -0.882137	 -0.541737	 -0.058479	 0.760776	 -0.473631	 0.439856	 2
1462074525.479	 4	 0.953468	 -2.202381	 -1.433170	 1.799951	 -0.900849	 -0.553940	 -0.067483	 0.752310	 -0.481043	 0.445054	 2
1462074525.488	 4	 0.609622	 -2.358888	 -1.300544	 1.772596	 -0.914776	 -0.559697	 -0.076365	 0.745183	 -0.485510	 0.450723	 2
1462074525.498	 4	 0.794943	 -2.540072	 -1.716293	 1.741809	 -0.931749	 -0.566749	 -0.086733	 0.737040	 -0.490803	 0.456467	 2
1462074525.508	 4	 1.138468	 -2.449180	 -2.389869	 1.707379	 -0.955254	 -0.578659	 -0.098568	 0.727732	 -0.498583	 0.460550	 2
1462074525.519	 4	 1.374993	 -2.491356	 -2.976358	 1.668338	 -0.984992	 -0.596148	 -0.111949	 0.717209	 -0.508642	 0.462993	 2
1462074525.529	 4	 1.474299	 -2.618619	 -3.617864	 1.623795	 -1.020407	 -0.618261	 -0.127484	 0.705408	 -0.520237	 0.464220	 2
1462074525.539	 4	 1.515035	 -2.673778	 -4.313610	 1.573332	 -1.062287	 -0.645876	 -0.145486	 0.692424	 -0.533321	 0.463629	 2
1462074525.549	 4	 1.471412	 -2.674123	 -4.818404	 1.515944	 -1.108924	 -0.680449	 -0.165401	 0.678548	 -0.547222	 0.461263	 2
1462074525.559	 4	 1.344118	 -2.465508	 -5.142544	 1.451758	 -1.158266	 -0.723288	 -0.186294	 0.664446	 -0.561266	 0.456932	 2
1462074525.569	 4	 1.299816	 -1.884806	 -5.164464	 1.380237	 -1.207479	 -0.778358	 -0.206221	 0.651013	 -0.575280	 0.450232	 2
1462074525.579	 4	 1.304626	 -0.933541	 -4.814610	 1.300566	 -1.252457	 -0.850317	 -0.222623	 0.639267	 -0.589230	 0.441117	 2
1462074525.589	 4	 1.254606	 0.267950	 -4.595170	 1.214110	 -1.292773	 -0.940135	 -0.234778	 0.630050	 -0.603290	 0.428902	 2
1462074525.599	 4	 1.311628	 2.116489	 -3.988034	 1.124509	 -1.326104	 -1.049669	 -0.240156	 0.624535	 -0.618078	 0.412628	 2
1462074525.609	 4	 1.414793	 4.184349	 -3.039279	 1.044649	 -1.348782	 -1.169358	 -0.236192	 0.623636	 -0.633398	 0.392553	 2
1462074525.619	 4	 1.696275	 5.803880	 -1.801033	 0.986052	 -1.358308	 -1.285147	 -0.222280	 0.626408	 -0.648752	 0.370575	 2
1462074525.629	 4	 1.994983	 6.593378	 -0.613292	 0.953616	 -1.354705	 -1.384420	 -0.200417	 0.630705	 -0.663301	 0.349395	 2
1462074525.639	 4	 1.371153	 5.323613	 0.479125	 0.960387	 -1.343577	 -1.436926	 -0.177556	 0.635540	 -0.673380	 0.333350	 2
1462074525.649	 4	 0.247216	 1.456110	 0.727890	 0.983809	 -1.334752	 -1.438495	 -0.166010	 0.638497	 -0.676029	 0.328247	 2
1462074525.659	 4	 -0.522069	 -1.853083	 0.668625	 1.000391	 -1.330970	 -1.409890	 -0.168198	 0.638419	 -0.672816	 0.333840	 2
1462074525.669	 4	 -0.839960	 -3.626321	 0.659155	 1.009081	 -1.329640	 -1.367222	 -0.178404	 0.636057	 -0.666356	 0.345794	 2
1462074525.679	 4	 -0.807967	 -4.135433	 0.721282	 1.012055	 -1.328125	 -1.322274	 -0.191122	 0.632281	 -0.658725	 0.360241	 2
1462074525.689	 4	 -0.644909	 -4.041574	 0.823049	 1.011615	 -1.325012	 -1.280685	 -0.203234	 0.627819	 -0.651072	 0.375026	 2
1462074525.699	 4	 -0.460991	 -3.815960	 0.915202	 1.008566	 -1.320140	 -1.243843	 -0.213956	 0.622985	 -0.643733	 0.389512	 2
1462074525.709	 4	 -0.216528	 -3.472933	 0.795835	 0.999939	 -1.314415	 -1.215850	 -0.223295	 0.617760	 -0.637240	 0.403035	 2
1462074525.719	 4	 0.067509	 -3.014579	 0.022818	 0.973149	 -1.312641	 -1.211177	 -0.232586	 0.611617	 -0.633231	 0.413335	 2
1462074525.729	 4	 0.373141	 -2.510659	 -0.471800	 0.929570	 -1.313905	 -1.229008	 -0.241412	 0.604756	 -0.631776	 0.420536	 2
1462074525.739	 4	 0.711892	 -2.242976	 -0.675819	 0.873004	 -1.315069	 -1.263894	 -0.249231	 0.597177	 -0.632198	 0.426132	 2
1462074525.749	 4	 1.203792	 -2.422572	 -0.748916	 0.800425	 -1.313305	 -1.314556	 -0.256556	 0.587799	 -0.633963	 0.432160	 2
1462074525.759	 4	 1.649640	 -2.601275	 -0.864234	 0.712047	 -1.307723	 -1.379350	 -0.263781	 0.576184	 -0.636929	 0.439037	 2
1462074525.769	 4	 1.864651	 -2.327864	 -1.061794	 0.617586	 -1.299556	 -1.452150	 -0.270360	 0.563638	 -0.641130	 0.445162	 2
1462074525.779	 4	 1.811442	 -1.713009	 -1.217605	 0.528298	 -1.290509	 -1.525376	 -0.275609	 0.551888	 -0.646343	 0.449110	 2
1462074525.789	 4	 1.546207	 -0.912551	 -1.238754	 0.453478	 -1.282021	 -1.591650	 -0.278987	 0.542373	 -0.652024	 0.450403	 2
1462074525.799	 4	 1.122888	 -0.050900	 -1.099159	 0.399113	 -1.275473	 -1.645660	 -0.280153	 0.536122	 -0.657570	 0.449097	 2
1462074525.809	 4	 0.575848	 0.683646	 -0.790213	 0.369006	 -1.272087	 -1.682522	 -0.279186	 0.533682	 -0.662164	 0.445845	 2
1462074525.819	 4	 0.007221	 1.136435	 -0.476241	 0.361088	 -1.272680	 -1.701711	 -0.276867	 0.534748	 -0.665219	 0.441445	 2
1462074525.829	 4	 -0.484202	 1.311623	 -0.277429	 0.368384	 -1.277230	 -1.707515	 -0.274249	 0.538341	 -0.666714	 0.436429	 2
1462074525.839	 4	 -0.984705	 1.202364	 -0.146197	 0.385964	 -1.285802	 -1.702216	 -0.272406	 0.543655	 -0.666496	 0.431298	 2
1462074525.849	 4	 -1.485979	 0.952515	 -0.041844	 0.412479	 -1.298673	 -1.685169	 -0.272158	 0.550284	 -0.664279	 0.426439	 2
1462074525.859	 4	 -1.922116	 0.667749	 0.113839	 0.450337	 -1.314824	 -1.653691	 -0.273329	 0.557960	 -0.660131	 0.422136	 2
1462074525.869	 4	 -2.391620	 0.291876	 0.306267	 0.504893	 -1.333852	 -1.601413	 -0.276121	 0.566600	 -0.653720	 0.418775	 2
1462074525.879	 4	 -2.783770	 0.058020	 0.459909	 0.582139	 -1.354685	 -1.523170	 -0.280192	 0.576138	 -0.645281	 0.416136	 2
1462074525.889	 4	 -3.171631	 0.086585	 0.575457	 0.691421	 -1.376188	 -1.412216	 -0.284778	 0.586870	 -0.635321	 0.413343	 2
1462074525.899	 4	 -3.602871	 0.331959	 0.796779	 0.853157	 -1.396169	 -1.250320	 -0.288983	 0.599468	 -0.623797	 0.409883	 2
1462074525.909	 4	 -3.862497	 0.774539	 1.001390	 1.077591	 -1.410104	 -1.029363	 -0.291837	 0.613966	 -0.611230	 0.405308	 2
1462074525.919	 4	 -3.793109	 1.432921	 1.030359	 1.337531	 -1.414081	 -0.778814	 -0.292543	 0.629587	 -0.599063	 0.398952	 2
1462074525.929	 4	 -3.446779	 2.352997	 0.884567	 1.584599	 -1.408738	 -0.549973	 -0.290317	 0.645623	 -0.589014	 0.389806	 2
1462074525.939	 4	 -3.013895	 3.292007	 0.744592	 1.793196	 -1.397369	 -0.369543	 -0.284808	 0.661752	 -0.581747	 0.377544	 2
1462074525.949	 4	 -2.676713	 3.950541	 0.756310	 1.962347	 -1.381941	 -0.236279	 -0.276397	 0.677810	 -0.576494	 0.363088	 2
1462074525.959	 4	 -2.453665	 4.308091	 0.870666	 2.097940	 -1.363330	 -0.141207	 -0.265804	 0.693657	 -0.572174	 0.347572	 2
1462074525.969	 4	 -2.305426	 4.421194	 0.980201	 2.206557	 -1.342473	 -0.075047	 -0.253877	 0.709047	 -0.568060	 0.331823	 2
1462074525.979	 4	 -2.181570	 4.406187	 1.014153	 2.295093	 -1.320659	 -0.029398	 -0.241318	 0.723724	 -0.563960	 0.316132	 2
1462074525.989	 4	 -2.062950	 4.130202	 0.845359	 2.370780	 -1.299718	 0.005189	 -0.229382	 0.737174	 -0.559911	 0.300762	 2
1462074525.999	 4	 -2.033510	 3.294841	 0.651887	 2.435815	 -1.280013	 0.036058	 -0.219934	 0.748822	 -0.555311	 0.287269	 2
1462074526.009	 4	 -2.052052	 2.269886	 0.694733	 2.485907	 -1.259871	 0.062198	 -0.213385	 0.758759	 -0.549357	 0.277414	 2
1462074526.019	 4	 -1.980680	 1.449563	 0.831422	 2.518773	 -1.239033	 0.079314	 -0.208495	 0.767337	 -0.542389	 0.271176	 2
1462074526.029	 4	 -2.042303	 0.362858	 0.848490	 2.538336	 -1.217653	 0.093206	 -0.206205	 0.774520	 -0.534140	 0.268872	 2
1462074526.039	 4	 -2.091228	 -0.530225	 0.876842	 2.547033	 -1.195568	 0.106104	 -0.206536	 0.780474	 -0.524529	 0.270318	 2
1462074526.049	 4	 -2.067184	 -0.942286	 0.971914	 2.547682	 -1.173065	 0.116179	 -0.207917	 0.785666	 -0.514210	 0.274020	 2
1462074526.059	 4	 -1.959977	 -0.925894	 1.075578	 2.543857	 -1.150674	 0.122415	 -0.208956	 0.790515	 -0.503912	 0.278382	 2
1462074526.069	 4	 -1.898746	 -0.863127	 1.102273	 2.538797	 -1.128708	 0.126438	 -0.209436	 0.795204	 -0.493893	 0.282590	 2
1462074526.079	 4	 -1.871919	 -0.784905	 1.046282	 2.534670	 -1.107204	 0.130823	 -0.209834	 0.799763	 -0.484044	 0.286444	 2
1462074526.089	 4	 -1.853896	 -0.720848	 0.940145	 2.532570	 -1.086453	 0.136664	 -0.210380	 0.804174	 -0.474444	 0.289736	 2
1462074526.099	 4	 -1.886697	 -0.822357	 0.862751	 2.531264	 -1.066035	 0.144134	 -0.211424	 0.808359	 -0.464767	 0.292997	 2
1462074526.109	 4	 -1.900416	 -0.989530	 0.831473	 2.528967	 -1.045674	 0.152399	 -0.213022	 0.812217	 -0.454827	 0.296745	 2
1462074526.119	 4	 -1.775603	 -0.998413	 0.830304	 2.525069	 -1.026024	 0.159665	 -0.214644	 0.815681	 -0.445098	 0.300800	 2
1462074526.129	 4	 -1.438712	 -0.611241	 0.822447	 2.521262	 -1.008756	 0.163806	 -0.215211	 0.818838	 -0.436800	 0.303963	 2
1462074526.139	 4	 -1.018620	 -0.002054	 0.809538	 2.519559	 -0.994871	 0.163677	 -0.213932	 0.821909	 -0.430774	 0.305175	 2
1462074526.149	 4	 -0.575808	 0.713077	 0.748391	 2.521349	 -0.984771	 0.159584	 -0.210694	 0.825002	 -0.427311	 0.303949	 2
1462074526.159	 4	 -0.131779	 1.508619	 0.629365	 2.528601	 -0.979039	 0.152383	 -0.205505	 0.828189	 -0.426719	 0.299636	 2
1462074526.169	 4	 0.203029	 2.008723	 0.500015	 2.540061	 -0.977030	 0.143255	 -0.199037	 0.831279	 -0.428377	 0.293008	 2
1462074526.179	 4	 0.433792	 2.181447	 0.357866	 2.553619	 -0.977975	 0.133617	 -0.192217	 0.833961	 -0.431498	 0.285254	 2
1462074526.189	 4	 0.627226	 2.146756	 0.199192	 2.567552	 -0.981509	 0.124324	 -0.185712	 0.835975	 -0.435628	 0.277282	 2
1462074526.199	 4	 0.818904	 1.960026	 0.047645	 2.580387	 -0.987551	 0.115551	 -0.179892	 0.837120	 -0.440576	 0.269745	 2
1462074526.209	 4	 1.029402	 1.666032	 -0.074158	 2.590572	 -0.996077	 0.106860	 -0.174916	 0.837243	 -0.446268	 0.263200	 2
1462074526.219	 4	 1.207996	 1.192186	 -0.222934	 2.596717	 -1.006979	 0.098528	 -0.171212	 0.836182	 -0.452520	 0.258286	 2
1462074526.229	 4	 1.432203	 0.860945	 -0.342005	 2.598962	 -1.020356	 0.090243	 -0.168662	 0.833976	 -0.459441	 0.254854	 2
1462074526.239	 4	 1.708797	 0.742563	 -0.421184	 2.598255	 -1.036428	 0.080534	 -0.166497	 0.830816	 -0.467392	 0.252128	 2
1462074526.249	 4	 2.145106	 0.783169	 -0.511998	 2.595070	 -1.056217	 0.068018	 -0.164191	 0.826608	 -0.476997	 0.249470	 2
1462074526.259	 4	 3.076617	 0.832937	 -0.605972	 2.585612	 -1.083145	 0.047744	 -0.161090	 0.820390	 -0.489940	 0.246918	 2
1462074526.269	 4	 4.106182	 0.487096	 -0.799334	 2.562844	 -1.119864	 0.015513	 -0.157853	 0.810863	 -0.507155	 0.245718	 2
1462074526.279	 4	 4.237336	 -0.049705	 -0.995176	 2.528619	 -1.160691	 -0.023051	 -0.156232	 0.799156	 -0.525634	 0.246271	 2
1462074526.289	 4	 2.227895	 0.845380	 -0.699714	 2.506793	 -1.189768	 -0.050755	 -0.154881	 0.791029	 -0.538808	 0.244890	 2
1462074526.299	 4	 -0.557319	 3.630781	 0.053859	 2.539900	 -1.189935	 -0.048160	 -0.146994	 0.794740	 -0.541062	 0.232449	 2
1462074526.309	 4	 -1.069988	 3.770355	 0.319667	 2.587187	 -1.179874	 -0.039061	 -0.136605	 0.802074	 -0.539410	 0.216917	 2
1462074526.319	 4	 -0.876297	 2.187052	 0.454586	 2.616252	 -1.169658	 -0.036222	 -0.128741	 0.807671	 -0.536955	 0.206816	 2
1462074526.329	 4	 -0.658465	 0.123467	 0.518752	 2.620742	 -1.160993	 -0.038270	 -0.125732	 0.810549	 -0.533969	 0.205133	 2
1462074526.339	 4	 -0.508808	 -1.634037	 0.521345	 2.604263	 -1.153655	 -0.042863	 -0.127413	 0.811044	 -0.530450	 0.211176	 2
1462074526.349	 4	 -0.419744	 -2.603743	 0.452929	 2.576248	 -1.147422	 -0.047006	 -0.132390	 0.809895	 -0.526574	 0.221952	 2
1462074526.359	 4	 -0.159251	 -2.577955	 0.447703	 2.544619	 -1.142957	 -0.052707	 -0.137819	 0.807823	 -0.523298	 0.233639	 2
1462074526.369	 4	 0.326784	 -1.893610	 0.558547	 2.511826	 -1.141547	 -0.065861	 -0.140894	 0.805185	 -0.522021	 0.243557	 2
1462074526.379	 4	 0.701098	 -1.331541	 0.629793	 2.478278	 -1.142815	 -0.086954	 -0.141362	 0.802204	 -0.522765	 0.251401	 2
1462074526.389	 4	 0.476975	 -1.415105	 0.456182	 2.448066	 -1.144091	 -0.105232	 -0.142141	 0.799331	 -0.523454	 0.258578	 2
1462074526.399	 4	 -0.144222	 -1.658832	 0.183290	 2.427499	 -1.142629	 -0.110144	 -0.145324	 0.797347	 -0.522051	 0.265671	 2
1462074526.409	 4	 -0.724052	 -1.550224	 -0.034461	 2.419663	 -1.138078	 -0.101125	 -0.150224	 0.796741	 -0.518492	 0.271665	 2
1462074526.419	 4	 -0.994348	 -0.997770	 -0.229462	 2.424400	 -1.132108	 -0.082986	 -0.155276	 0.797463	 -0.514047	 0.275132	 2
1462074526.429	 4	 -0.748405	 0.151120	 -0.396763	 2.440101	 -1.128061	 -0.063768	 -0.158293	 0.799107	 -0.511050	 0.274225	 2
1462074526.439	 4	 -0.276842	 1.149542	 -0.541851	 2.463006	 -1.128269	 -0.048955	 -0.158397	 0.800992	 -0.510935	 0.268826	 2
1462074526.449	 4	 -0.035661	 1.174317	 -0.841068	 2.488830	 -1.132307	 -0.033910	 -0.158398	 0.802217	 -0.512587	 0.261939	 2
1462074526.459	 4	 0.007198	 0.666924	 -1.270336	 2.516998	 -1.139247	 -0.011758	 -0.160988	 0.802332	 -0.514741	 0.255711	 2
1462074526.469	 4	 0.058612	 0.020346	 -1.529386	 2.545006	 -1.148092	 0.016940	 -0.166384	 0.801248	 -0.516944	 0.251170	 2
1462074526.479	 4	 0.142797	 -0.700882	 -1.509120	 2.567072	 -1.157558	 0.046764	 -0.173708	 0.798986	 -0.518900	 0.249381	 2
1462074526.489	 4	 0.276174	 -1.391657	 -1.230019	 2.577394	 -1.166626	 0.071327	 -0.181812	 0.795675	 -0.520400	 0.251057	 2
1462074526.499	 4	 0.489143	 -2.034086	 -0.852045	 2.572082	 -1.175345	 0.085950	 -0.189921	 0.791291	 -0.521563	 0.256437	 2
1462074526.509	 4	 0.836566	 -2.430344	 -0.500662	 2.550563	 -1.184721	 0.088124	 -0.197402	 0.785730	 -0.522958	 0.264906	 2
1462074526.519	 4	 1.287605	 -2.476802	 -0.271619	 2.515445	 -1.196164	 0.077135	 -0.203600	 0.778975	 -0.525476	 0.274990	 2
1462074526.529	 4	 1.698459	 -2.125103	 -0.154690	 2.471725	 -1.210022	 0.054154	 -0.207921	 0.771445	 -0.529649	 0.284804	 2
1462074526.539	 4	 1.780370	 -1.961487	 -0.146420	 2.423919	 -1.224712	 0.024147	 -0.211096	 0.763682	 -0.534677	 0.293850	 2
1462074526.549	 4	 1.558856	 -2.029433	 -0.218661	 2.376940	 -1.237954	 -0.004161	 -0.214889	 0.756116	 -0.538942	 0.302742	 2
1462074526.559	 4	 1.539282	 -1.599095	 -0.284827	 2.333200	 -1.250657	 -0.031987	 -0.218261	 0.749024	 -0.543225	 0.310212	 2
1462074526.569	 4	 1.669544	 -0.877539	 -0.319746	 2.291906	 -1.263973	 -0.064194	 -0.219777	 0.742564	 -0.548629	 0.315124	 2
1462074526.579	 4	 2.094173	 -0.148719	 -0.407251	 2.247916	 -1.279470	 -0.106841	 -0.218968	 0.736229	 -0.556112	 0.317426	 2
1462074526.589	 4	 2.737685	 0.211988	 -0.567230	 2.189203	 -1.299266	 -0.169614	 -0.216340	 0.728657	 -0.566585	 0.318178	 2
1462074526.599	 4	 2.764838	 -0.258074	 -0.695469	 2.113825	 -1.320332	 -0.246782	 -0.214496	 0.719742	 -0.577771	 0.319600	 2
1462074526.609	 4	 2.202614	 -1.011500	 -0.829739	 2.037570	 -1.338636	 -0.316539	 -0.216053	 0.710697	 -0.586512	 0.322854	 2
1462074526.619	 4	 1.837862	 -1.102658	 -0.933988	 1.966714	 -1.354948	 -0.377718	 -0.219474	 0.702232	 -0.593542	 0.326204	 2
1462074526.629	 4	 1.499900	 -0.789109	 -0.953706	 1.903862	 -1.369547	 -0.433003	 -0.222825	 0.695001	 -0.599688	 0.328172	 2
1462074526.639	 4	 1.102619	 -0.446114	 -0.896964	 1.854619	 -1.381903	 -0.477835	 -0.225595	 0.689491	 -0.604762	 0.328592	 2
1462074526.649	 4	 0.811422	 -0.253261	 -0.821228	 1.818179	 -1.392288	 -0.511807	 -0.227970	 0.685397	 -0.608790	 0.328079	 2
1462074526.659	 4	 0.711396	 0.103631	 -0.634791	 1.787105	 -1.400711	 -0.543465	 -0.229118	 0.682400	 -0.612426	 0.326757	 2
1462074526.669	 4	 0.711578	 0.397822	 -0.400785	 1.754823	 -1.406601	 -0.579601	 -0.228497	 0.680253	 -0.615961	 0.325018	 2
1462074526.679	 4	 0.776955	 0.533998	 -0.223170	 1.716843	 -1.410438	 -0.623240	 -0.226589	 0.678436	 -0.619541	 0.323342	 2
1462074526.689	 4	 0.849976	 0.556750	 -0.136202	 1.672110	 -1.412980	 -0.674186	 -0.224033	 0.676577	 -0.623234	 0.321919	 2
1462074526.699	 4	 0.891272	 0.485391	 -0.132962	 1.622133	 -1.414935	 -0.729946	 -0.221454	 0.674493	 -0.626991	 0.320779	 2
1462074526.709	 4	 0.884119	 0.388091	 -0.206277	 1.569624	 -1.416974	 -0.787207	 -0.219364	 0.672153	 -0.630719	 0.319817	 2
1462074526.719	 4	 0.857011	 0.359975	 -0.280906	 1.516950	 -1.419455	 -0.844240	 -0.217735	 0.669727	 -0.634441	 0.318657	 2
1462074526.729	 4	 0.892060	 0.281537	 -0.229719	 1.460839	 -1.421193	 -0.904041	 -0.216201	 0.667143	 -0.638098	 0.317818	 2
1462074526.739	 4	 0.984527	 0.187787	 -0.213278	 1.397930	 -1.421929	 -0.969825	 -0.214695	 0.664192	 -0.641852	 0.317462	 2
1462074526.749	 4	 1.127368	 0.001660	 -0.301515	 1.323565	 -1.422346	 -1.045587	 -0.213695	 0.660482	 -0.645953	 0.317558	 2
1462074526.759	 4	 1.300410	 -0.305071	 -0.434833	 1.233077	 -1.422562	 -1.134828	 -0.213738	 0.655628	 -0.650486	 0.318334	 2
1462074526.769	 4	 1.451996	 -0.642523	 -0.559724	 1.126358	 -1.422060	 -1.237074	 -0.215034	 0.649541	 -0.655355	 0.319948	 2
1462074526.779	 4	 1.499489	 -0.911293	 -0.642571	 1.010877	 -1.420336	 -1.345279	 -0.217441	 0.642584	 -0.660273	 0.322250	 2
1462074526.789	 4	 1.402469	 -1.073061	 -0.695454	 0.898088	 -1.417602	 -1.448843	 -0.220748	 0.635396	 -0.664822	 0.324889	 2
1462074526.799	 4	 1.174937	 -1.077021	 -0.746798	 0.796410	 -1.414900	 -1.540762	 -0.224666	 0.628680	 -0.668725	 0.327251	 2
1462074526.809	 4	 0.862758	 -0.934949	 -0.788585	 0.709753	 -1.413345	 -1.618587	 -0.228837	 0.623029	 -0.671847	 0.328770	 2
1462074526.819	 4	 0.554366	 -0.688486	 -0.807054	 0.637922	 -1.413445	 -1.683679	 -0.232835	 0.618745	 -0.674250	 0.329134	 2
1462074526.829	 4	 0.317938	 -0.370739	 -0.793512	 0.578390	 -1.414968	 -1.739345	 -0.236228	 0.615808	 -0.676176	 0.328274	 2
1462074526.839	 4	 0.204866	 0.038479	 -0.730103	 0.529344	 -1.417000	 -1.788290	 -0.238395	 0.614048	 -0.678009	 0.326216	 2
1462074526.849	 4	 0.213449	 0.445228	 -0.664578	 0.487862	 -1.418507	 -1.833786	 -0.238962	 0.613103	 -0.680159	 0.323088	 2
1462074526.859	 4	 0.259525	 0.688851	 -0.638200	 0.449531	 -1.419196	 -1.879074	 -0.238340	 0.612524	 -0.682719	 0.319222	 2
1462074526.869	 4	 0.327535	 0.568970	 -0.568502	 0.412128	 -1.418882	 -1.923229	 -0.237532	 0.611759	 -0.685344	 0.315647	 2
1462074526.879	 4	 0.443832	 -0.012098	 -0.421452	 0.375884	 -1.416822	 -1.961563	 -0.237722	 0.610048	 -0.687529	 0.314059	 2
1462074526.889	 4	 0.447294	 -1.006392	 -0.248489	 0.340641	 -1.413560	 -1.989759	 -0.240438	 0.606955	 -0.688506	 0.315840	 2
1462074526.899	 4	 0.193483	 -2.074957	 -0.007899	 0.312583	 -1.411201	 -1.999769	 -0.246475	 0.603027	 -0.687241	 0.321417	 2
1462074526.909	 4	 -0.326924	 -2.748349	 0.350593	 0.304838	 -1.412182	 -1.981128	 -0.254975	 0.599711	 -0.683002	 0.329912	 2
1462074526.919	 4	 -1.023351	 -2.815290	 0.811114	 0.335175	 -1.418009	 -1.921720	 -0.263946	 0.598724	 -0.675642	 0.339662	 2
1462074526.929	 4	 -1.747649	 -2.454595	 1.269463	 0.420989	 -1.428334	 -1.809076	 -0.271759	 0.601128	 -0.665509	 0.349126	 2
1462074526.939	 4	 -2.393231	 -2.004960	 1.557432	 0.574119	 -1.440901	 -1.633170	 -0.278163	 0.606831	 -0.653194	 0.357378	 2
1462074526.949	 4	 -2.955618	 -1.557585	 1.567557	 0.799648	 -1.452762	 -1.389048	 -0.283824	 0.615148	 -0.639376	 0.363642	 2
1462074526.959	 4	 -3.413235	 -0.891897	 1.364584	 1.096687	 -1.460591	 -1.079209	 -0.288872	 0.625657	 -0.624977	 0.366756	 2
1462074526.969	 4	 -3.742711	 0.042286	 1.131020	 1.444254	 -1.460149	 -0.727573	 -0.292465	 0.638354	 -0.610928	 0.365698	 2
1462074526.979	 4	 -3.892343	 1.045504	 0.956215	 1.780231	 -1.448472	 -0.397271	 -0.293903	 0.652921	 -0.597798	 0.360490	 2
1462074526.989	 4	 -3.900747	 2.233329	 0.921514	 2.050960	 -1.426485	 -0.143583	 -0.292120	 0.669239	 -0.586089	 0.351120	 2
1462074526.999	 4	 -3.969519	 3.413730	 1.011963	 2.253920	 -1.396499	 0.030264	 -0.286492	 0.687498	 -0.575547	 0.337660	 2
1462074527.009	 4	 -4.151427	 4.321491	 1.154148	 2.408403	 -1.360115	 0.145681	 -0.277628	 0.707543	 -0.565214	 0.320683	 2
1462074527.019	 4	 -4.322041	 4.784641	 1.444502	 2.523909	 -1.318158	 0.216083	 -0.266267	 0.728689	 -0.554102	 0.301803	 2
1462074527.029	 4	 -4.264381	 4.928654	 1.819423	 2.604866	 -1.272706	 0.249211	 -0.252730	 0.749884	 -0.542049	 0.282815	 2
1462074527.039	 4	 -3.732950	 4.630751	 2.167988	 2.655099	 -1.228504	 0.252054	 -0.237409	 0.769408	 -0.530204	 0.265578	 2
1462074527.049	 4	 -2.808671	 3.464942	 2.235419	 2.677341	 -1.191135	 0.235156	 -0.222666	 0.784927	 -0.519824	 0.253167	 2
1462074527.059	 4	 -1.835943	 1.930153	 2.042146	 2.677620	 -1.163207	 0.210384	 -0.210991	 0.795442	 -0.511521	 0.247185	 2
1462074527.069	 4	 -1.102374	 0.438040	 1.770355	 2.661627	 -1.143598	 0.184064	 -0.203147	 0.801552	 -0.505044	 0.247338	 2
1462074527.079	 4	 -0.693454	 -0.863905	 1.483976	 2.634534	 -1.129393	 0.160327	 -0.199282	 0.804372	 -0.499421	 0.252686	 2
1462074527.089	 4	 -0.479722	 -1.758398	 1.277691	 2.600441	 -1.118230	 0.139882	 -0.198519	 0.804977	 -0.494053	 0.261752	 2
1462074527.099	 4	 -0.416814	 -2.117921	 1.153367	 2.564037	 -1.108411	 0.122283	 -0.199397	 0.804429	 -0.488737	 0.272527	 2
1462074527.109	 4	 -0.572159	 -1.971109	 1.095337	 2.531245	 -1.097917	 0.108343	 -0.200604	 0.803970	 -0.483081	 0.282883	 2
1462074527.119	 4	 -0.913064	 -1.563232	 1.028563	 2.507516	 -1.085164	 0.100400	 -0.201602	 0.804596	 -0.476601	 0.291262	 2
1462074527.129	 4	 -1.264270	 -0.993315	 0.862139	 2.495743	 -1.070272	 0.099900	 -0.202358	 0.806639	 -0.469366	 0.296782	 2
1462074527.139	 4	 -1.484259	 -0.498733	 0.773804	 2.493854	 -1.054024	 0.104799	 -0.202754	 0.809871	 -0.461744	 0.299652	 2
1462074527.149	 4	 -1.504865	 -0.122105	 0.780685	 2.496842	 -1.037286	 0.110640	 -0.202355	 0.813809	 -0.454233	 0.300732	 2
1462074527.159	 4	 -1.340385	 0.087335	 0.834490	 2.500284	 -1.021251	 0.114113	 -0.201004	 0.817839	 -0.447377	 0.300984	 2
1462074527.169	 4	 -1.034465	 0.161541	 0.924173	 2.500858	 -1.006890	 0.113077	 -0.198666	 0.821445	 -0.441580	 0.301277	 2
1462074527.179	 4	 -0.739705	 0.253876	 0.869177	 2.499658	 -0.995099	 0.108867	 -0.195718	 0.824450	 -0.437145	 0.301463	 2
1462074527.189	 4	 -0.509266	 0.252021	 0.853299	 2.496929	 -0.985456	 0.102560	 -0.192484	 0.826892	 -0.433774	 0.301728	 2
1462074527.199	 4	 -0.297908	 0.261000	 0.856871	 2.492455	 -0.977501	 0.094081	 -0.188915	 0.828855	 -0.431276	 0.302178	 2
1462074527.209	 4	 -0.075917	 0.275149	 0.844412	 2.486421	 -0.971287	 0.083511	 -0.185012	 0.830346	 -0.429692	 0.302755	 2
1462074527.219	 4	 0.155772	 0.323184	 0.815132	 2.479121	 -0.967039	 0.070939	 -0.180785	 0.831349	 -0.429139	 0.303340	 2
1462074527.229	 4	 0.345110	 0.454204	 0.772072	 2.471666	 -0.964559	 0.056829	 -0.176177	 0.832032	 -0.429572	 0.303566	 2
1462074527.239	 4	 0.481165	 0.630859	 0.693665	 2.465452	 -0.963618	 0.042114	 -0.171257	 0.832577	 -0.430868	 0.303049	 2
1462074527.249	 4	 0.587208	 0.795764	 0.596226	 2.460967	 -0.964094	 0.027469	 -0.166196	 0.833029	 -0.432904	 0.301721	 2
1462074527.259	 4	 0.679246	 0.942543	 0.487017	 2.458273	 -0.965935	 0.013157	 -0.161087	 0.833390	 -0.435605	 0.299601	 2
1462074527.269	 4	 0.783812	 1.060310	 0.342258	 2.457388	 -0.969393	 -0.000440	 -0.156125	 0.833577	 -0.439004	 0.296731	 2
1462074527.279	 4	 0.926649	 1.160827	 0.181020	 2.458019	 -0.974880	 -0.013449	 -0.151382	 0.833465	 -0.443255	 0.293161	 2
1462074527.289	 4	 1.104485	 1.210230	 0.025396	 2.459375	 -0.982687	 -0.026306	 -0.146894	 0.832904	 -0.448468	 0.289084	 2
1462074527.299	 4	 1.327900	 1.203051	 -0.140744	 2.460469	 -0.993149	 -0.039442	 -0.142758	 0.831700	 -0.454758	 0.284762	 2
1462074527.309	 4	 1.634486	 1.204995	 -0.335232	 2.460737	 -1.006970	 -0.053391	 -0.139000	 0.829646	 -0.462437	 0.280213	 2
1462074527.319	 4	 2.134343	 1.245579	 -0.549160	 2.459033	 -1.025600	 -0.069929	 -0.135402	 0.826358	 -0.472236	 0.275303	 2
1462074527.329	 4	 2.750596	 1.256447	 -0.707894	 2.452596	 -1.049959	 -0.092032	 -0.131620	 0.821415	 -0.484692	 0.270235	 2
1462074527.339	 4	 3.127543	 1.092498	 -0.723359	 2.438677	 -1.078133	 -0.120989	 -0.127688	 0.814939	 -0.498936	 0.265767	 2
1462074527.349	 4	 2.743074	 0.992924	 -0.676176	 2.422309	 -1.104616	 -0.150673	 -0.124147	 0.808488	 -0.512245	 0.261800	 2
1462074527.359	 4	 1.102689	 1.907683	 -0.451952	 2.424550	 -1.120277	 -0.165658	 -0.120156	 0.806019	 -0.520410	 0.255086	 2
1462074527.369	 4	 -0.533945	 2.264891	 0.036688	 2.451878	 -1.119080	 -0.161203	 -0.114641	 0.809460	 -0.520991	 0.245357	 2
1462074527.379	 4	 -0.902682	 1.125725	 0.175308	 2.474974	 -1.111311	 -0.151527	 -0.111324	 0.813560	 -0.518078	 0.239424	 2
1462074527.389	 4	 -0.645398	 -0.089829	 0.300306	 2.481953	 -1.103962	 -0.146111	 -0.110577	 0.815840	 -0.514917	 0.238826	 2
1462074527.399	 4	 -0.277445	 -1.214712	 0.506182	 2.469905	 -1.098271	 -0.149002	 -0.111598	 0.815892	 -0.512347	 0.243653	 2
1462074527.409	 4	 0.027093	 -1.951464	 0.674657	 2.442799	 -1.093880	 -0.159222	 -0.113653	 0.814130	 -0.510358	 0.252605	 2
1462074527.419	 4	 0.289908	 -2.153995	 0.719509	 2.408252	 -1.090890	 -0.174163	 -0.115880	 0.811220	 -0.509133	 0.263205	 2
1462074527.429	 4	 0.451229	 -2.140433	 0.748072	 2.370894	 -1.088935	 -0.192042	 -0.117800	 0.807689	 -0.508594	 0.274033	 2
1462074527.439	 4	 0.485115	 -1.837660	 0.859302	 2.333869	 -1.086445	 -0.211895	 -0.118743	 0.804245	 -0.508222	 0.284253	 2
1462074527.449	 4	 0.467484	 -1.132793	 0.956604	 2.302004	 -1.082781	 -0.233031	 -0.117633	 0.801693	 -0.507998	 0.292212	 2
1462074527.459	 4	 0.187292	 -0.741122	 0.879559	 2.278780	 -1.077814	 -0.250306	 -0.115596	 0.800323	 -0.507331	 0.297886	 2
1462074527.469	 4	 -0.408099	 -0.750645	 0.645924	 2.266536	 -1.070791	 -0.255879	 -0.114999	 0.800263	 -0.504842	 0.302471	 2
1462074527.479	 4	 -0.941789	 -0.896732	 0.525583	 2.263168	 -1.061329	 -0.249983	 -0.116215	 0.801351	 -0.500218	 0.306778	 2
1462074527.489	 4	 -1.205155	 -1.021922	 0.462765	 2.263527	 -1.050308	 -0.238104	 -0.118576	 0.802957	 -0.494270	 0.311284	 2
1462074527.499	 4	 -1.102759	 -0.759917	 0.406760	 2.265595	 -1.039635	 -0.225684	 -0.120830	 0.804705	 -0.488421	 0.315111	 2
1462074527.509	 4	 -0.427990	 0.283003	 0.320000	 2.269682	 -1.032928	 -0.220669	 -0.120462	 0.806405	 -0.485332	 0.315679	 2
1462074527.519	 4	 0.327013	 1.471567	 0.109202	 2.277826	 -1.032701	 -0.225116	 -0.116642	 0.807991	 -0.486425	 0.311345	 2
1462074527.529	 4	 0.492849	 1.832490	 -0.213940	 2.291132	 -1.036867	 -0.230798	 -0.111952	 0.809517	 -0.489647	 0.303965	 2
1462074527.539	 4	 0.276657	 1.271513	 -0.510363	 2.306363	 -1.042437	 -0.229911	 -0.109698	 0.810617	 -0.492484	 0.297198	 2
1462074527.549	 4	 0.100318	 0.406510	 -0.621321	 2.318037	 -1.047827	 -0.223757	 -0.110387	 0.810885	 -0.494280	 0.293203	 2
1462074527.559	 4	 0.046784	 -0.548338	 -0.605228	 2.321443	 -1.052638	 -0.216214	 -0.113549	 0.809954	 -0.495209	 0.293001	 2
1462074527.569	 4	 0.157395	 -1.298573	 -0.614238	 2.316007	 -1.057954	 -0.209563	 -0.118629	 0.807645	 -0.495950	 0.296091	 2
1462074527.579	 4	 0.416816	 -1.698463	 -0.652190	 2.302992	 -1.064975	 -0.205887	 -0.124727	 0.803988	 -0.497289	 0.301247	 2
1462074527.589	 4	 0.964419	 -1.610169	 -0.722214	 2.283639	 -1.075550	 -0.208904	 -0.130462	 0.798989	 -0.500521	 0.306717	 2
1462074527.599	 4	 1.640956	 -1.166528	 -0.726108	 2.258629	 -1.090732	 -0.222820	 -0.134331	 0.792816	 -0.506701	 0.310890	 2
1462074527.609	 4	 2.067258	 -0.654724	 -0.671769	 2.228603	 -1.108430	 -0.247690	 -0.135925	 0.786056	 -0.515070	 0.313598	 2
1462074527.619	 4	 2.082679	 -0.379899	 -0.608598	 2.197549	 -1.126008	 -0.277464	 -0.136193	 0.779507	 -0.523971	 0.315078	 2
1462074527.629	 4	 1.903575	 -0.380101	 -0.562278	 2.166644	 -1.141893	 -0.307532	 -0.136290	 0.773383	 -0.532206	 0.316323	 2
1462074527.639	 4	 1.700814	 -0.600779	 -0.567895	 2.135584	 -1.156200	 -0.335748	 -0.137108	 0.767466	 -0.539479	 0.318058	 2
1462074527.649	 4	 1.526026	 -0.968583	 -0.610294	 2.103122	 -1.169497	 -0.361611	 -0.139260	 0.761402	 -0.545830	 0.320848	 2
1462074527.659	 4	 1.365184	 -1.313098	 -0.662191	 2.069178	 -1.182070	 -0.385027	 -0.142840	 0.755103	 -0.551331	 0.324731	 2
1462074527.669	 4	 1.231639	 -1.537414	 -0.701483	 2.034420	 -1.194062	 -0.406419	 -0.147511	 0.748664	 -0.556131	 0.329334	 2
1462074527.679	 4	 1.121687	 -1.542426	 -0.703769	 2.000083	 -1.205382	 -0.426561	 -0.152583	 0.742350	 -0.560411	 0.334027	 2
1462074527.689	 4	 1.036454	 -1.304830	 -0.681633	 1.967980	 -1.215928	 -0.446150	 -0.157227	 0.736535	 -0.564404	 0.338000	 2
1462074527.699	 4	 0.991447	 -0.920490	 -0.647823	 1.939056	 -1.225738	 -0.466072	 -0.160825	 0.731450	 -0.568373	 0.340687	 2
1462074527.709	 4	 0.996794	 -0.485321	 -0.624636	 1.913038	 -1.235087	 -0.487393	 -0.163114	 0.727100	 -0.572586	 0.341856	 2
1462074527.719	 4	 1.065579	 -0.167409	 -0.611619	 1.887713	 -1.244288	 -0.511682	 -0.164234	 0.723190	 -0.577233	 0.341797	 2
1462074527.729	 4	 1.155895	 -0.036746	 -0.597335	 1.860109	 -1.253421	 -0.540180	 -0.164637	 0.719313	 -0.582301	 0.341187	 2
1462074527.739	 4	 1.226131	 -0.102688	 -0.568719	 1.828155	 -1.262249	 -0.572976	 -0.164864	 0.715169	 -0.587565	 0.340765	 2
1462074527.749	 4	 1.251017	 -0.285453	 -0.534400	 1.791280	 -1.270475	 -0.609153	 -0.165366	 0.710636	 -0.592744	 0.341036	 2
1462074527.759	 4	 1.220254	 -0.502081	 -0.498847	 1.750656	 -1.277908	 -0.646948	 -0.166399	 0.705788	 -0.597598	 0.342129	 2
1462074527.769	 4	 1.169378	 -0.700427	 -0.443764	 1.707417	 -1.284303	 -0.685262	 -0.167941	 0.700742	 -0.601995	 0.344033	 2
1462074527.779	 4	 1.115295	 -0.907211	 -0.380206	 1.661952	 -1.289499	 -0.723715	 -0.169948	 0.695523	 -0.605893	 0.346782	 2
1462074527.789	 4	 1.075178	 -1.080123	 -0.333506	 1.614655	 -1.293678	 -0.762080	 -0.172423	 0.690122	 -0.609356	 0.350269	 2
1462074527.799	 4	 1.088768	 -1.161874	 -0.307741	 1.565138	 -1.296986	 -0.801625	 -0.175086	 0.684529	 -0.612623	 0.354200	 2
1462074527.809	 4	 1.132305	 -1.181375	 -0.339208	 1.513342	 -1.299815	 -0.843202	 -0.177803	 0.678749	 -0.615933	 0.358206	 2
1462074527.819	 4	 1.180134	 -1.187138	 -0.381242	 1.458260	 -1.302526	 -0.888068	 -0.180611	 0.672679	 -0.619486	 0.362105	 2
1462074527.829	 4	 1.239576	 -1.223745	 -0.418336	 1.399745	 -1.304844	 -0.936188	 -0.183510	 0.666299	 -0.623228	 0.365999	 2
1462074527.839	 4	 1.310311	 -1.343445	 -0.469091	 1.336691	 -1.306702	 -0.987948	 -0.186738	 0.659434	 -0.627130	 0.370114	 2
1462074527.849	 4	 1.392563	 -1.490975	 -0.540453	 1.273207	 -1.308362	 -1.038988	 -0.190569	 0.652417	 -0.630797	 0.374339	 2
1462074527.859	 4	 1.419479	 -1.574812	 -0.650175	 1.199997	 -1.309576	 -1.098652	 -0.194841	 0.644395	 -0.635066	 0.378791	 2
1462074527.869	 4	 1.306000	 -1.555098	 -0.764106	 1.127069	 -1.311025	 -1.157906	 -0.199637	 0.636403	 -0.639227	 0.382785	 2
1462074527.879	 4	 1.054654	 -1.398433	 -0.822274	 1.060833	 -1.313068	 -1.211469	 -0.204675	 0.629204	 -0.642879	 0.385897	 2
1462074527.889	 4	 0.742971	 -1.163722	 -0.849349	 1.005188	 -1.316104	 -1.256342	 -0.209668	 0.623319	 -0.645814	 0.387863	 2
1462074527.899	 4	 0.460051	 -0.959765	 -0.852448	 0.959827	 -1.320289	 -1.292813	 -0.214549	 0.618761	 -0.648040	 0.388779	 2
1462074527.909	 4	 0.248605	 -0.804574	 -0.804401	 0.922882	 -1.325162	 -1.322223	 -0.219234	 0.615269	 -0.649633	 0.389046	 2
1462074527.919	 4	 0.129102	 -0.638804	 -0.727214	 0.892631	 -1.330113	 -1.346365	 -0.223449	 0.612617	 -0.650804	 0.388877	 2
1462074527.929	 4	 0.088812	 -0.435918	 -0.633320	 0.867527	 -1.334562	 -1.367177	 -0.226860	 0.610619	 -0.651821	 0.388341	 2
1462074527.939	 4	 0.091899	 -0.289731	 -0.566975	 0.845578	 -1.338372	 -1.386479	 -0.229495	 0.609049	 -0.652859	 0.387513	 2
1462074527.949	 4	 0.112946	 -0.398944	 -0.511689	 0.823649	 -1.341551	 -1.405421	 -0.232028	 0.607414	 -0.653803	 0.386979	 2
1462074527.959	 4	 0.083556	 -0.806768	 -0.440625	 0.799980	 -1.344227	 -1.422615	 -0.235500	 0.605215	 -0.654184	 0.387682	 2
1462074527.969	 4	 -0.126257	 -1.312263	 -0.270848	 0.780158	 -1.346908	 -1.430658	 -0.240492	 0.602708	 -0.653190	 0.390192	 2
1462074527.979	 4	 -0.531474	 -1.654112	 -0.054152	 0.773976	 -1.350681	 -1.420918	 -0.246761	 0.600863	 -0.650237	 0.394036	 2
1462074527.989	 4	 -1.082704	 -2.236499	 0.227656	 0.787938	 -1.356269	 -1.385455	 -0.254856	 0.599978	 -0.644541	 0.399553	 2
1462074527.999	 4	 -1.834403	 -2.927680	 0.679652	 0.833719	 -1.363460	 -1.310268	 -0.265340	 0.600345	 -0.634887	 0.407552	 2
1462074528.009	 4	 -2.657553	 -3.092711	 1.056169	 0.924647	 -1.371671	 -1.185917	 -0.277179	 0.603008	 -0.621320	 0.416551	 2
1462074528.019	 4	 -3.347227	 -2.911232	 1.308988	 1.064495	 -1.378570	 -1.013175	 -0.289171	 0.608323	 -0.604841	 0.424842	 2
1462074528.029	 4	 -3.798991	 -2.885411	 1.460237	 1.240842	 -1.380565	 -0.804324	 -0.301290	 0.615299	 -0.586216	 0.432415	 2
1462074528.039	 4	 -3.974144	 -2.968453	 1.524935	 1.426315	 -1.375108	 -0.585244	 -0.313738	 0.622552	 -0.566151	 0.439853	 2
1462074528.049	 4	 -3.855661	 -2.535696	 1.554574	 1.594152	 -1.361973	 -0.386432	 -0.325035	 0.629899	 -0.546206	 0.446361	 2
1462074528.059	 4	 -3.552690	 -1.199648	 1.551579	 1.735081	 -1.343055	 -0.225854	 -0.332517	 0.638667	 -0.528593	 0.449585	 2
1462074528.069	 4	 -3.171210	 0.484027	 1.556465	 1.852471	 -1.320772	 -0.105735	 -0.334698	 0.649896	 -0.514737	 0.447948	 2
1462074528.079	 4	 -2.969154	 2.025617	 1.695876	 1.954451	 -1.295261	 -0.017175	 -0.331750	 0.663973	 -0.503916	 0.441759	 2
1462074528.089	 4	 -3.004884	 3.461918	 1.740459	 2.052305	 -1.266978	 0.052362	 -0.324643	 0.681088	 -0.495206	 0.430694	 2
1462074528.099	 4	 -2.975142	 4.292890	 1.792695	 2.144941	 -1.236602	 0.106397	 -0.314715	 0.700020	 -0.487727	 0.415992	 2
1462074528.109	 4	 -2.706406	 4.306350	 1.997238	 2.220551	 -1.204711	 0.140490	 -0.302987	 0.718666	 -0.480605	 0.400920	 2
1462074528.119	 4	 -2.226862	 3.553251	 2.182155	 2.270682	 -1.173271	 0.153777	 -0.290816	 0.734921	 -0.473436	 0.388813	 2
1462074528.129	 4	 -1.796816	 2.424498	 2.173237	 2.297849	 -1.144351	 0.153758	 -0.279966	 0.747720	 -0.466090	 0.381174	 2
1462074528.139	 4	 -1.562069	 1.194191	 2.014801	 2.308958	 -1.118284	 0.149420	 -0.271786	 0.757129	 -0.458209	 0.378066	 2
1462074528.149	 4	 -1.441651	 -0.021277	 1.803144	 2.308478	 -1.094667	 0.145781	 -0.266876	 0.763487	 -0.449485	 0.379248	 2
1462074528.159	 4	 -1.306682	 -1.104800	 1.605378	 2.297981	 -1.073400	 0.143455	 -0.264985	 0.767057	 -0.440073	 0.384373	 2
1462074528.169	 4	 -1.029513	 -2.184036	 1.469294	 2.276816	 -1.054769	 0.140719	 -0.265529	 0.767831	 -0.430370	 0.393333	 2
1462074528.179	 4	 -0.671855	 -3.147921	 1.578707	 2.240409	 -1.038043	 0.132681	 -0.267362	 0.765599	 -0.420472	 0.406914	 2
1462074528.189	 4	 -0.387942	 -3.634449	 1.630325	 2.194781	 -1.022314	 0.120700	 -0.269443	 0.761393	 -0.410610	 0.423180	 2
1462074528.199	 4	 -0.164660	 -3.738883	 1.546411	 2.145924	 -1.008073	 0.107207	 -0.271516	 0.755893	 -0.401329	 0.440274	 2
1462074528.209	 4	 -0.013168	 -3.611814	 1.383213	 2.098331	 -0.995656	 0.094071	 -0.273499	 0.749742	 -0.392969	 0.456794	 2
1462074528.219	 4	 -0.024165	 -3.296197	 1.194408	 2.055408	 -0.984805	 0.083236	 -0.275484	 0.743590	 -0.385426	 0.471836	 2
1462074528.229	 4	 -0.246182	 -2.761343	 1.085150	 2.021313	 -0.974101	 0.077186	 -0.277363	 0.738517	 -0.378088	 0.484472	 2
1462074528.239	 4	 -0.535315	 -2.023795	 1.032717	 1.998657	 -0.962727	 0.076710	 -0.278818	 0.735378	 -0.370754	 0.493985	 2
1462074528.249	 4	 -0.877010	 -0.933670	 1.030915	 1.990788	 -0.950062	 0.082010	 -0.279261	 0.735251	 -0.363558	 0.499244	 2
1462074528.259	 4	 -0.787172	 0.016892	 1.025123	 1.993762	 -0.937208	 0.088050	 -0.277945	 0.737735	 -0.357594	 0.500620	 2
1462074528.269	 4	 -0.266188	 0.350898	 0.946960	 1.996411	 -0.926683	 0.087531	 -0.274821	 0.740566	 -0.354087	 0.500656	 2
1462074528.279	 4	 0.135092	 0.274016	 0.774360	 1.994360	 -0.919422	 0.081142	 -0.271111	 0.742356	 -0.352642	 0.501048	 2
1462074528.289	 4	 0.311196	 0.171426	 0.632258	 1.989445	 -0.914530	 0.072564	 -0.267635	 0.743233	 -0.352268	 0.501880	 2
1462074528.299	 4	 0.403155	 0.304354	 0.519723	 1.984630	 -0.911028	 0.063240	 -0.264181	 0.743939	 -0.352639	 0.502403	 2
1462074528.309	 4	 0.490295	 0.592192	 0.353252	 1.982190	 -0.909265	 0.053629	 -0.260611	 0.744924	 -0.354063	 0.501806	 2
1462074528.319	 4	 0.516671	 0.922504	 0.152536	 1.983464	 -0.909467	 0.044601	 -0.257068	 0.746373	 -0.356565	 0.499704	 2
1462074528.329	 4	 0.478849	 1.229499	 -0.062759	 1.989327	 -0.911527	 0.037356	 -0.253808	 0.748368	 -0.359897	 0.495985	 2
1462074528.339	 4	 0.468225	 1.419412	 -0.278315	 1.998782	 -0.915475	 0.031905	 -0.251003	 0.750642	 -0.363931	 0.491008	 2
1462074528.349	 4	 0.510452	 1.511249	 -0.503769	 2.010262	 -0.921622	 0.027553	 -0.248730	 0.752817	 -0.368760	 0.485197	 2
1462074528.359	 4	 0.592745	 1.518781	 -0.751673	 2.022580	 -0.930290	 0.023937	 -0.247126	 0.754570	 -0.374451	 0.478893	 2
1462074528.369	 4	 0.709124	 1.511335	 -0.997880	 2.035083	 -0.941693	 0.020659	 -0.246189	 0.755734	 -0.381109	 0.472243	 2
1462074528.379	 4	 0.855456	 1.504986	 -1.227287	 2.047364	 -0.955814	 0.017296	 -0.245812	 0.756246	 -0.388777	 0.465318	 2
1462074528.389	 4	 1.037936	 1.675271	 -1.431917	 2.060158	 -0.972663	 0.013161	 -0.245570	 0.756334	 -0.397705	 0.457695	 2
1462074528.399	 4	 1.195132	 2.124440	 -1.616681	 2.076020	 -0.991975	 0.008300	 -0.244869	 0.756586	 -0.408081	 0.448426	 2
1462074528.409	 4	 1.340429	 2.770371	 -1.806970	 2.097931	 -1.013720	 0.003340	 -0.243239	 0.757509	 -0.420099	 0.436500	 2
1462074528.419	 4	 1.140429	 3.615177	 -1.846392	 2.129648	 -1.036024	 0.001311	 -0.240479	 0.759790	 -0.432837	 0.421358	 2
1462074528.429	 4	 0.240355	 4.527046	 -1.428278	 2.182023	 -1.051566	 0.010585	 -0.235724	 0.766039	 -0.443105	 0.401593	 2
1462074528.439	 4	 -0.182938	 2.820656	 -0.916116	 2.228585	 -1.059275	 0.025128	 -0.232422	 0.771760	 -0.448670	 0.386084	 2
1462074528.449	 4	 0.003153	 -0.099275	 -0.299055	 2.241016	 -1.062348	 0.032190	 -0.232927	 0.772620	 -0.449956	 0.382548	 2
1462074528.459	 4	 0.502665	 -2.086065	 0.200332	 2.218118	 -1.063922	 0.025006	 -0.235599	 0.768679	 -0.449272	 0.389589	 2
1462074528.469	 4	 0.933891	 -3.190533	 0.460201	 2.172017	 -1.065491	 0.006076	 -0.239006	 0.761436	 -0.448155	 0.402801	 2
1462074528.479	 4	 1.112334	 -3.696460	 0.580765	 2.113945	 -1.066729	 -0.019033	 -0.242753	 0.752253	 -0.446788	 0.419008	 2
1462074528.489	 4	 0.928910	 -3.535577	 0.691501	 2.056123	 -1.065865	 -0.043774	 -0.246199	 0.743115	 -0.444684	 0.435227	 2
1462074528.499	 4	 0.542043	 -2.853875	 0.818447	 2.009075	 -1.061678	 -0.062676	 -0.248659	 0.735929	 -0.441524	 0.449036	 2
1462074528.509	 4	 0.403809	 -1.764131	 0.992852	 1.974918	 -1.054727	 -0.078264	 -0.248772	 0.731526	 -0.438333	 0.459180	 2
1462074528.519	 4	 0.546470	 -0.588324	 1.121917	 1.950831	 -1.046519	 -0.096033	 -0.245502	 0.729778	 -0.436564	 0.465365	 2
1462074528.529	 4	 0.599971	 0.049234	 1.206250	 1.933124	 -1.037698	 -0.115715	 -0.239931	 0.729726	 -0.435925	 0.468938	 2
1462074528.539	 4	 0.141566	 0.281151	 1.321107	 1.923939	 -1.026725	 -0.129743	 -0.233954	 0.731283	 -0.434314	 0.471022	 2
1462074528.549	 4	 -0.469276	 -0.442977	 1.540300	 1.918268	 -1.011565	 -0.133696	 -0.229748	 0.733175	 -0.429320	 0.474715	 2
1462074528.559	 4	 -0.785195	 -1.243904	 1.408772	 1.910578	 -0.995254	 -0.130155	 -0.228364	 0.733860	 -0.421909	 0.480929	 2
1462074528.569	 4	 -0.707754	 -1.337422	 0.864755	 1.902538	 -0.983118	 -0.123334	 -0.229312	 0.733282	 -0.415098	 0.487245	 2
1462074528.579	 4	 -0.313641	 -0.274337	 0.218969	 1.900430	 -0.978326	 -0.118395	 -0.230278	 0.733042	 -0.411972	 0.489797	 2
1462074528.589	 4	 -0.283454	 1.669418	 -0.134092	 1.915899	 -0.978054	 -0.113886	 -0.228673	 0.736343	 -0.412552	 0.485087	 2
1462074528.599	 4	 -0.669151	 2.556047	 -0.494434	 1.950734	 -0.979663	 -0.101645	 -0.226420	 0.743018	 -0.414151	 0.474487	 2
1462074528.609	 4	 -0.638818	 1.403308	 -0.892296	 1.982564	 -0.984445	 -0.084872	 -0.227281	 0.747711	 -0.415544	 0.465397	 2
1462074528.619	 4	 -0.343588	 -0.374744	 -1.024383	 1.995193	 -0.991905	 -0.070318	 -0.231940	 0.747558	 -0.416331	 0.462633	 2
1462074528.629	 4	 0.130593	 -1.436500	 -1.017076	 1.989325	 -1.001232	 -0.062798	 -0.238254	 0.743517	 -0.417293	 0.465062	 2
1462074528.639	 4	 0.441199	 -1.885117	 -1.006903	 1.972118	 -1.012019	 -0.061801	 -0.244878	 0.737280	 -0.418886	 0.470092	 2
1462074528.649	 4	 0.490776	 -1.974893	 -1.046538	 1.951479	 -1.023430	 -0.062852	 -0.251667	 0.730308	 -0.420663	 0.475769	 2
1462074528.659	 4	 0.580991	 -1.870776	 -1.026105	 1.930313	 -1.035113	 -0.065488	 -0.258119	 0.723301	 -0.422738	 0.481147	 2
1462074528.669	 4	 0.819120	 -1.657310	 -0.973970	 1.906684	 -1.046926	 -0.072867	 -0.263498	 0.716247	 -0.425576	 0.486256	 2
1462074528.679	 4	 1.117105	 -1.130833	 -1.001506	 1.882016	 -1.059617	 -0.086512	 -0.267215	 0.709576	 -0.430009	 0.490092	 2
1462074528.689	 4	 1.380869	 -0.655001	 -0.986586	 1.856860	 -1.073029	 -0.106568	 -0.269135	 0.703514	 -0.436105	 0.492389	 2
1462074528.699	 4	 1.556494	 -0.360376	 -0.915033	 1.830021	 -1.086093	 -0.132206	 -0.269593	 0.697881	 -0.443147	 0.493865	 2
1462074528.709	 4	 1.682160	 -0.164196	 -0.945209	 1.801310	 -1.099100	 -0.162181	 -0.269199	 0.692418	 -0.450904	 0.494748	 2
1462074528.719	 4	 1.774428	 -0.162349	 -1.093070	 1.770164	 -1.113109	 -0.195395	 -0.268814	 0.686655	 -0.459354	 0.495215	 2
1462074528.729	 4	 1.867633	 -0.386229	 -1.273947	 1.734022	 -1.128528	 -0.231979	 -0.269189	 0.679935	 -0.468267	 0.495935	 2
1462074528.739	 4	 1.952260	 -0.675537	 -1.387150	 1.690846	 -1.144805	 -0.272882	 -0.270448	 0.672013	 -0.477379	 0.497358	 2
1462074528.749	 4	 2.019357	 -0.905687	 -1.416520	 1.640532	 -1.160744	 -0.318607	 -0.272229	 0.663160	 -0.486410	 0.499516	 2
1462074528.759	 4	 2.044951	 -1.358884	 -1.419894	 1.581434	 -1.175782	 -0.369618	 -0.274737	 0.653120	 -0.495079	 0.502842	 2
1462074528.769	 4	 1.564810	 -2.063321	 -1.365783	 1.519852	 -1.189300	 -0.415721	 -0.279597	 0.642142	 -0.501524	 0.507891	 2
1462074528.779	 4	 0.821186	 -2.376973	 -1.210889	 1.468719	 -1.201077	 -0.445562	 -0.286924	 0.631873	 -0.504616	 0.513589	 2
1462074528.789	 4	 0.334600	 -2.086883	 -1.005721	 1.432218	 -1.211027	 -0.461179	 -0.294649	 0.623591	 -0.505512	 0.518433	 2
1462074528.799	 4	 0.184078	 -1.439590	 -0.981335	 1.406664	 -1.220273	 -0.471263	 -0.301183	 0.617442	 -0.506271	 0.521291	 2
1462074528.809	 4	 0.255434	 -0.707700	 -1.081722	 1.386399	 -1.230291	 -0.483288	 -0.306112	 0.612926	 -0.508368	 0.521708	 2
1462074528.819	 4	 0.456085	 0.009351	 -1.122625	 1.367335	 -1.240470	 -0.501752	 -0.308896	 0.609765	 -0.512247	 0.519974	 2
1462074528.829	 4	 0.685109	 0.601089	 -1.125507	 1.346629	 -1.250140	 -0.528505	 -0.309494	 0.607603	 -0.517804	 0.516635	 2
1462074528.839	 4	 0.860052	 1.039827	 -1.128276	 1.323615	 -1.259190	 -0.562611	 -0.308357	 0.606143	 -0.524643	 0.512110	 2
1462074528.849	 4	 0.973336	 1.265283	 -1.086666	 1.298000	 -1.267373	 -0.602301	 -0.306037	 0.605054	 -0.532198	 0.506967	 2
1462074528.859	 4	 0.988734	 1.314576	 -1.029856	 1.270797	 -1.274583	 -0.644495	 -0.303177	 0.604113	 -0.539824	 0.501718	 2
1462074528.869	 4	 0.920049	 1.183318	 -0.970796	 1.243353	 -1.281060	 -0.685999	 -0.300466	 0.603139	 -0.546978	 0.496748	 2
1462074528.879	 4	 0.817535	 0.885249	 -0.901271	 1.215632	 -1.286895	 -0.724974	 -0.298489	 0.601832	 -0.553239	 0.492574	 2
1462074528.889	 4	 0.723216	 0.516936	 -0.834603	 1.187036	 -1.292145	 -0.761086	 -0.297524	 0.599989	 -0.558477	 0.489485	 2
1462074528.899	 4	 0.657854	 0.170944	 -0.758387	 1.157074	 -1.296698	 -0.794872	 -0.297495	 0.597568	 -0.562768	 0.487546	 2
1462074528.909	 4	 0.599151	 -0.117660	 -0.685958	 1.126110	 -1.300540	 -0.826491	 -0.298241	 0.594667	 -0.566232	 0.486626	 2
1462074528.919	 4	 0.557833	 -0.316120	 -0.642683	 1.094424	 -1.303858	 -0.856518	 -0.299571	 0.591420	 -0.569087	 0.486435	 2
1462074528.929	 4	 0.527498	 -0.417032	 -0.636963	 1.062055	 -1.306945	 -0.885933	 -0.301286	 0.587972	 -0.571611	 0.486596	 2
1462074528.939	 4	 0.499522	 -0.434238	 -0.674182	 1.028986	 -1.310120	 -0.915678	 -0.303232	 0.584462	 -0.574054	 0.486742	 2
1462074528.949	 4	 0.434370	 -0.318152	 -0.826004	 0.995329	 -1.314356	 -0.946882	 -0.305415	 0.581122	 -0.576742	 0.486197	 2
1462074528.959	 4	 0.502292	 -0.754198	 -0.940426	 0.954928	 -1.319327	 -0.982646	 -0.308608	 0.576967	 -0.579425	 0.485939	 2
1462074528.969	 4	 0.791613	 -1.805305	 -1.006014	 0.893585	 -1.322946	 -1.029948	 -0.314213	 0.569569	 -0.581478	 0.488615	 2
1462074528.979	 4	 0.959485	 -2.189751	 -1.004659	 0.817979	 -1.324450	 -1.085704	 -0.321045	 0.559970	 -0.583160	 0.493243	 2
1462074528.989	 4	 0.936198	 -1.749955	 -0.941747	 0.745134	 -1.324465	 -1.141227	 -0.326906	 0.550925	 -0.585110	 0.497253	 2
1462074528.999	 4	 0.702578	 -0.758740	 -0.752507	 0.690482	 -1.323946	 -1.186997	 -0.330200	 0.544773	 -0.587554	 0.498969	 2
1462074529.009	 4	 0.412455	 0.168418	 -0.472781	 0.661357	 -1.323569	 -1.216569	 -0.330600	 0.542350	 -0.590137	 0.498296	 2
1462074529.019	 4	 0.166633	 0.835270	 -0.283256	 0.652556	 -1.323773	 -1.232724	 -0.328894	 0.542853	 -0.592688	 0.495843	 2
1462074529.029	 4	 -0.032919	 1.216198	 -0.195910	 0.656977	 -1.324937	 -1.239896	 -0.326051	 0.545277	 -0.595107	 0.492149	 2
1462074529.039	 4	 -0.208485	 1.346299	 -0.219815	 0.667788	 -1.327516	 -1.242451	 -0.323062	 0.548689	 -0.597320	 0.487628	 2
1462074529.049	 4	 -0.317974	 1.090446	 -0.344871	 0.677519	 -1.331764	 -1.244666	 -0.321076	 0.551975	 -0.599152	 0.482961	 2
1462074529.059	 4	 -0.320033	 0.322547	 -0.488416	 0.676461	 -1.337167	 -1.251327	 -0.321501	 0.553509	 -0.600236	 0.479565	 2
1462074529.069	 4	 -0.179262	 -1.025706	 -0.522437	 0.658158	 -1.342130	 -1.263299	 -0.325468	 0.551730	 -0.599805	 0.479478	 2
1462074529.079	 4	 -0.183842	 -2.135956	 -0.355812	 0.629176	 -1.345906	 -1.273593	 -0.332663	 0.546980	 -0.597230	 0.483183	 2
1462074529.089	 4	 -0.477592	 -2.708021	 -0.013271	 0.609255	 -1.349672	 -1.267356	 -0.341624	 0.541628	 -0.592052	 0.489292	 2
1462074529.099	 4	 -1.006650	 -2.770501	 0.396810	 0.614732	 -1.355067	 -1.233323	 -0.351122	 0.537845	 -0.584188	 0.496146	 2
1462074529.109	 4	 -1.632477	 -2.770913	 0.820034	 0.654209	 -1.362731	 -1.164753	 -0.360875	 0.536479	 -0.573563	 0.502976	 2
1462074529.119	 4	 -2.371969	 -3.180954	 1.324631	 0.736028	 -1.371857	 -1.050145	 -0.371817	 0.537137	 -0.559104	 0.510527	 2
1462074529.129	 4	 -3.076071	 -3.713990	 1.749975	 0.864629	 -1.380257	 -0.882411	 -0.384736	 0.539008	 -0.540204	 0.519258	 2
1462074529.139	 4	 -3.573191	 -3.790239	 1.887880	 1.032178	 -1.385278	 -0.673139	 -0.398821	 0.541880	 -0.518490	 0.527709	 2
1462074529.149	 4	 -3.774990	 -3.304058	 1.821689	 1.220119	 -1.384750	 -0.446750	 -0.412526	 0.545939	 -0.496399	 0.534191	 2
1462074529.159	 4	 -3.615252	 -2.387361	 1.721186	 1.402420	 -1.377293	 -0.234233	 -0.424025	 0.551443	 -0.476108	 0.537990	 2
1462074529.169	 4	 -3.208353	 -1.179343	 1.705438	 1.558036	 -1.363391	 -0.060372	 -0.431719	 0.558843	 -0.459179	 0.538951	 2
1462074529.179	 4	 -2.758717	 0.094900	 1.892428	 1.681600	 -1.343595	 0.068636	 -0.434822	 0.568669	 -0.445611	 0.537565	 2
1462074529.189	 4	 -2.343217	 1.546250	 2.141046	 1.778745	 -1.319233	 0.156472	 -0.432799	 0.581705	 -0.435599	 0.533440	 2
1462074529.199	 4	 -2.023448	 2.837287	 2.391138	 1.858049	 -1.291519	 0.212339	 -0.426015	 0.597964	 -0.428691	 0.526473	 2
1462074529.209	 4	 -1.778656	 3.605356	 2.656200	 1.923225	 -1.261204	 0.244358	 -0.415599	 0.616328	 -0.423636	 0.517638	 2
1462074529.219	 4	 -1.596108	 3.817600	 2.957130	 1.974729	 -1.228395	 0.258663	 -0.402793	 0.635404	 -0.418888	 0.508480	 2
1462074529.229	 4	 -1.486560	 3.551927	 3.179646	 2.013528	 -1.193630	 0.261141	 -0.388904	 0.653944	 -0.413344	 0.500258	 2
1462074529.239	 4	 -1.441506	 2.910547	 3.194601	 2.041629	 -1.158473	 0.258137	 -0.375554	 0.670710	 -0.406483	 0.493840	 2
1462074529.249	 4	 -1.439139	 2.020772	 2.966753	 2.061346	 -1.124894	 0.254990	 -0.364248	 0.684771	 -0.398321	 0.489645	 2
1462074529.259	 4	 -1.442282	 1.003275	 2.577901	 2.073705	 -1.094454	 0.254746	 -0.356042	 0.695510	 -0.389059	 0.487988	 2
1462074529.269	 4	 -1.406622	 0.096030	 2.154567	 2.079479	 -1.067805	 0.257809	 -0.351007	 0.702979	 -0.379125	 0.488752	 2
1462074529.279	 4	 -1.363250	 -0.599017	 1.808809	 2.080046	 -1.044606	 0.263497	 -0.348532	 0.707780	 -0.368879	 0.491428	 2
1462074529.289	 4	 -1.226928	 -0.891667	 1.549116	 2.077062	 -1.024363	 0.269890	 -0.347496	 0.710801	 -0.358929	 0.495155	 2
1462074529.299	 4	 -0.970088	 -0.804472	 1.356920	 2.072378	 -1.007039	 0.274341	 -0.346590	 0.712980	 -0.350263	 0.498849	 2
1462074529.309	 4	 -0.643281	 -0.314799	 1.106045	 2.068913	 -0.993263	 0.275684	 -0.345005	 0.715118	 -0.343948	 0.501277	 2
1462074529.319	 4	 -0.421151	 0.100125	 0.919333	 2.068280	 -0.982614	 0.274835	 -0.342733	 0.717583	 -0.339883	 0.502084	 2
1462074529.329	 4	 -0.362053	 0.243042	 0.850874	 2.069227	 -0.973293	 0.273207	 -0.340162	 0.720250	 -0.336798	 0.502093	 2
1462074529.339	 4	 -0.433115	 0.111350	 0.849201	 2.070145	 -0.963900	 0.272442	 -0.337885	 0.722761	 -0.333453	 0.502254	 2
1462074529.349	 4	 -0.519213	 -0.063706	 0.874966	 2.070154	 -0.953909	 0.272811	 -0.336045	 0.724972	 -0.329426	 0.502959	 2
1462074529.359	 4	 -0.589467	 -0.043139	 0.896019	 2.070571	 -0.943310	 0.274117	 -0.334351	 0.727248	 -0.324982	 0.503693	 2
1462074529.369	 4	 -0.630868	 0.225048	 0.901006	 2.073631	 -0.932422	 0.276066	 -0.332406	 0.730130	 -0.320691	 0.503561	 2
1462074529.379	 4	 -0.599540	 0.548151	 0.881359	 2.079690	 -0.921682	 0.277825	 -0.329954	 0.733748	 -0.316985	 0.502260	 2
1462074529.389	 4	 -0.437425	 0.801468	 0.824753	 2.087316	 -0.911954	 0.278036	 -0.326905	 0.737769	 -0.314305	 0.500043	 2
1462074529.399	 4	 -0.153349	 0.927555	 0.726469	 2.094118	 -0.904300	 0.275177	 -0.323273	 0.741606	 -0.313060	 0.497502	 2
1462074529.409	 4	 0.155820	 0.954559	 0.615321	 2.098669	 -0.899112	 0.268873	 -0.319195	 0.744876	 -0.313275	 0.495108	 2
1462074529.419	 4	 0.456428	 0.999471	 0.476704	 2.101081	 -0.896622	 0.259395	 -0.314789	 0.747512	 -0.314998	 0.492858	 2
1462074529.429	 4	 0.664700	 1.149971	 0.340939	 2.103120	 -0.896520	 0.247819	 -0.310112	 0.749844	 -0.318121	 0.490269	 2
1462074529.439	 4	 0.791090	 1.369778	 0.195874	 2.106530	 -0.898404	 0.235392	 -0.305274	 0.752186	 -0.322438	 0.486886	 2
1462074529.449	 4	 0.897218	 1.602326	 0.039381	 2.112055	 -0.902178	 0.222710	 -0.300350	 0.754640	 -0.327862	 0.482509	 2
1462074529.459	 4	 1.046728	 1.778182	 -0.143595	 2.119123	 -0.908216	 0.209600	 -0.295426	 0.757001	 -0.334482	 0.477278	 2
1462074529.469	 4	 1.235279	 1.863485	 -0.330951	 2.126478	 -0.916856	 0.195532	 -0.290564	 0.758962	 -0.342359	 0.471529	 2
1462074529.479	 4	 1.466161	 1.852060	 -0.492932	 2.132580	 -0.928180	 0.179824	 -0.285780	 0.760230	 -0.351448	 0.465687	 2
1462074529.489	 4	 1.740916	 1.808033	 -0.586324	 2.135584	 -0.941889	 0.161075	 -0.280828	 0.760635	 -0.361680	 0.460172	 2
1462074529.499	 4	 1.944975	 1.941774	 -0.688104	 2.137170	 -0.957678	 0.139640	 -0.275520	 0.760570	 -0.373067	 0.454360	 2
1462074529.509	 4	 2.121381	 2.038857	 -0.722841	 2.137617	 -0.974877	 0.115621	 -0.269737	 0.760217	 -0.385332	 0.448142	 2
1462074529.519	 4	 2.274907	 2.005454	 -0.720225	 2.135253	 -0.992999	 0.088473	 -0.263537	 0.759368	 -0.398154	 0.442021	 2
1462074529.529	 4	 2.206167	 1.907840	 -0.715206	 2.130819	 -1.011049	 0.060233	 -0.257401	 0.758137	 -0.410780	 0.436156	 2
1462074529.539	 4	 1.489325	 1.619605	 -0.564572	 2.129589	 -1.025361	 0.038731	 -0.252460	 0.757486	 -0.420789	 0.430598	 2
1462074529.549	 4	 0.312993	 0.823518	 -0.230285	 2.134394	 -1.031312	 0.032050	 -0.250143	 0.758053	 -0.425104	 0.426697	 2
1462074529.559	 4	 -0.495794	 -0.139287	 0.142946	 2.139499	 -1.029076	 0.037036	 -0.250490	 0.759008	 -0.423823	 0.426070	 2
1462074529.569	 4	 -0.664977	 -0.736500	 0.441538	 2.139359	 -1.022445	 0.043741	 -0.251707	 0.759591	 -0.419824	 0.428268	 2
1462074529.579	 4	 -0.561774	 -1.284482	 0.745677	 2.129887	 -1.013580	 0.046537	 -0.252920	 0.759131	 -0.414614	 0.433412	 2
1462074529.589	 4	 -0.388655	 -1.473311	 1.030169	 2.113250	 -1.003135	 0.043958	 -0.253186	 0.758075	 -0.409055	 0.440333	 2
1462074529.599	 4	 -0.281127	 -1.315206	 1.315262	 2.093809	 -0.990902	 0.037124	 -0.251933	 0.757215	 -0.403424	 0.447665	 2
1462074529.609	 4	 -0.199468	 -0.968907	 1.581017	 2.074655	 -0.976590	 0.027091	 -0.248837	 0.757120	 -0.397815	 0.454524	 2
1462074529.619	 4	 -0.160407	 -0.284001	 1.735191	 2.060403	 -0.960785	 0.015382	 -0.243673	 0.758505	 -0.392707	 0.459429	 2
1462074529.629	 4	 -0.044774	 0.252742	 1.729587	 2.051376	 -0.945013	 0.002612	 -0.236978	 0.761072	 -0.388556	 0.462205	 2
1462074529.639	 4	 0.100333	 0.593753	 1.585487	 2.045439	 -0.930846	 -0.011104	 -0.229608	 0.764026	 -0.385644	 0.463490	 2
1462074529.649	 4	 0.078609	 0.869230	 1.430507	 2.043671	 -0.918288	 -0.023474	 -0.222261	 0.767378	 -0.383527	 0.463290	 2
1462074529.659	 4	 0.004439	 1.024371	 1.380374	 2.045117	 -0.906014	 -0.034151	 -0.214972	 0.771145	 -0.381475	 0.462169	 2
1462074529.669	 4	 -0.009899	 1.022515	 1.265379	 2.048155	 -0.894369	 -0.043584	 -0.207977	 0.774952	 -0.379523	 0.460605	 2
1462074529.679	 4	 0.059452	 0.715769	 1.088202	 2.049389	 -0.884550	 -0.052364	 -0.201989	 0.777885	 -0.377910	 0.459652	 2
1462074529.689	 4	 0.123033	 0.418626	 1.059305	 2.047092	 -0.875653	 -0.061554	 -0.196706	 0.779831	 -0.376385	 0.459896	 2
1462074529.699	 4	 0.089093	 0.289573	 0.996585	 2.043623	 -0.867027	 -0.070269	 -0.191869	 0.781365	 -0.374749	 0.460671	 2
1462074529.709	 4	 -0.040232	 0.170608	 0.819688	 2.040992	 -0.859309	 -0.076250	 -0.188141	 0.782636	 -0.372922	 0.461534	 2
1462074529.719	 4	 -0.182650	 0.349238	 0.754381	 2.041398	 -0.851902	 -0.079455	 -0.184999	 0.784268	 -0.370861	 0.461693	 2
1462074529.729	 4	 -0.171518	 0.730370	 0.954997	 2.045131	 -0.843100	 -0.083021	 -0.180753	 0.786912	 -0.368644	 0.460651	 2
1462074529.739	 4	 0.069049	 0.839986	 1.207574	 2.047555	 -0.832825	 -0.090922	 -0.174674	 0.789849	 -0.366721	 0.459504	 2
1462074529.749	 4	 0.334895	 0.816230	 1.265786	 2.046843	 -0.822889	 -0.103061	 -0.167557	 0.792313	 -0.365617	 0.458790	 2
1462074529.759	 4	 0.463405	 0.702955	 1.244430	 2.043936	 -0.813767	 -0.117175	 -0.160227	 0.794230	 -0.365102	 0.458505	 2
1462074529.769	 4	 0.446920	 0.438685	 1.169642	 2.039084	 -0.805219	 -0.130915	 -0.153513	 0.795499	 -0.364584	 0.459013	 2
1462074529.779	 4	 0.429901	 0.109123	 1.037766	 2.032169	 -0.797553	 -0.143382	 -0.147876	 0.795991	 -0.363987	 0.460483	 2
1462074529.789	 4	 0.469601	 -0.344577	 0.824310	 2.021703	 -0.791642	 -0.154757	 -0.143745	 0.795264	 -0.363590	 0.463353	 2
1462074529.799	 4	 0.580399	 -0.685500	 0.644322	 2.007794	 -0.787811	 -0.165956	 -0.140835	 0.793370	 -0.363747	 0.467352	 2
1462074529.809	 4	 0.749404	 -1.122383	 0.455474	 1.989149	 -0.786156	 -0.178030	 -0.139015	 0.790063	 -0.364655	 0.472761	 2
1462074529.819	 4	 0.930580	 -1.438305	 0.231410	 1.966059	 -0.787051	 -0.191265	 -0.138263	 0.785363	 -0.366540	 0.479310	 2
1462074529.829	 4	 1.062667	 -1.805752	 0.069107	 1.939170	 -0.789909	 -0.205279	 -0.138506	 0.779458	 -0.369122	 0.486837	 2
1462074529.839	 4	 1.298464	 -2.432383	 -0.004854	 1.904868	 -0.794049	 -0.221798	 -0.139615	 0.771640	 -0.372306	 0.496456	 2
1462074529.849	 4	 1.475933	 -3.485789	 -0.285839	 1.859380	 -0.800390	 -0.240656	 -0.142726	 0.760742	 -0.376100	 0.509362	 2
1462074529.859	 4	 1.177732	 -4.403332	 -0.652018	 1.808957	 -0.809865	 -0.254312	 -0.149910	 0.747576	 -0.379234	 0.524250	 2
1462074529.869	 4	 0.387952	 -4.469305	 -0.837633	 1.782590	 -0.819307	 -0.243359	 -0.161831	 0.738627	 -0.377499	 0.534542	 2
1462074529.879	 4	 -0.255456	 -3.696030	 -0.654317	 1.748193	 -0.826168	 -0.238081	 -0.172351	 0.728073	 -0.375505	 0.546992	 2
1462074529.889	 4	 -0.304264	 -2.625039	 -0.243200	 1.723297	 -0.829125	 -0.232449	 -0.179970	 0.720361	 -0.372739	 0.556558	 2
1462074529.899	 4	 0.065787	 -1.603702	 0.090271	 1.705243	 -0.828811	 -0.231926	 -0.183415	 0.715296	 -0.370849	 0.563188	 2
1462074529.909	 4	 0.337516	 -0.796055	 0.103947	 1.692041	 -0.828007	 -0.236390	 -0.184014	 0.712067	 -0.370636	 0.567210	 2
1462074529.919	 4	 0.336365	 -0.083880	 0.042375	 1.685844	 -0.827849	 -0.241566	 -0.183272	 0.710801	 -0.371485	 0.568482	 2
1462074529.929	 4	 0.377026	 0.068046	 -0.111101	 1.682623	 -0.828895	 -0.246701	 -0.182383	 0.710238	 -0.372988	 0.568488	 2
1462074529.939	 4	 0.563937	 -0.091103	 -0.421149	 1.677158	 -0.832778	 -0.253663	 -0.182185	 0.708888	 -0.375716	 0.568440	 2
1462074529.949	 4	 0.879670	 -0.483000	 -0.800561	 1.665431	 -0.840627	 -0.264400	 -0.183142	 0.705672	 -0.380198	 0.569154	 2
1462074529.959	 4	 1.187429	 -0.923241	 -1.249629	 1.645784	 -0.852743	 -0.279827	 -0.185437	 0.700184	 -0.386586	 0.570882	 2
1462074529.969	 4	 1.261712	 -1.479251	 -1.770213	 1.619068	 -0.869990	 -0.297487	 -0.190194	 0.692376	 -0.394425	 0.573473	 2
1462074529.979	 4	 1.149127	 -2.177277	 -2.149810	 1.585534	 -0.890953	 -0.315123	 -0.197825	 0.682274	 -0.402502	 0.577373	 2
1462074529.989	 4	 0.898798	 -2.924605	 -2.490300	 1.545816	 -0.914978	 -0.330902	 -0.208716	 0.669942	 -0.409969	 0.582702	 2
1462074529.999	 4	 0.582787	 -3.840467	 -2.777432	 1.499200	 -0.941750	 -0.344176	 -0.223185	 0.655091	 -0.416238	 0.589738	 2
1462074530.009	 4	 0.277525	 -4.748839	 -3.053930	 1.444877	 -0.971080	 -0.355271	 -0.241262	 0.637457	 -0.420965	 0.598523	 2
1462074530.019	 4	 0.072973	 -5.551337	 -3.356965	 1.381729	 -1.003282	 -0.366697	 -0.262525	 0.616901	 -0.424476	 0.608550	 2
1462074530.029	 4	 -0.124111	 -6.166332	 -3.614623	 1.309662	 -1.038120	 -0.380536	 -0.286344	 0.593676	 -0.426908	 0.619117	 2
1462074530.039	 4	 -0.376764	 -6.476898	 -3.715494	 1.231316	 -1.074398	 -0.396747	 -0.311802	 0.568755	 -0.427956	 0.629405	 2
1462074530.049	 4	 -0.631975	 -6.355342	 -3.630078	 1.151267	 -1.110554	 -0.414734	 -0.337511	 0.543714	 -0.427587	 0.638459	 2
1462074530.059	 4	 -0.851822	 -5.949251	 -3.307853	 1.074001	 -1.144622	 -0.433121	 -0.362074	 0.519990	 -0.425786	 0.645926	 2
1462074530.069	 4	 -1.033884	 -5.212770	 -2.731364	 1.005793	 -1.174559	 -0.448389	 -0.384147	 0.499108	 -0.422530	 0.651760	 2
1462074530.079	 4	 -1.185616	 -4.097341	 -1.954446	 0.955790	 -1.198898	 -0.454920	 -0.402446	 0.482916	 -0.418119	 0.655749	 2
1462074530.089	 4	 -1.233878	 -2.862254	 -1.062213	 0.930486	 -1.216565	 -0.448157	 -0.416142	 0.472449	 -0.412939	 0.658103	 2
1462074530.099	 4	 -1.132411	 -1.758657	 -0.201283	 0.929171	 -1.226826	 -0.428006	 -0.425099	 0.467307	 -0.407292	 0.659567	 2
1462074530.109	 4	 -0.964127	 -0.827720	 0.491200	 0.946963	 -1.230108	 -0.397984	 -0.429769	 0.466589	 -0.401607	 0.660534	 2
1462074530.119	 4	 -0.883052	 -0.087559	 0.948198	 0.978646	 -1.228258	 -0.361624	 -0.431254	 0.469346	 -0.396160	 0.660902	 2
1462074530.129	 4	 -0.978085	 0.371864	 1.195229	 1.020729	 -1.223718	 -0.319851	 -0.431120	 0.474583	 -0.390750	 0.660470	 2
1462074530.139	 4	 -1.255448	 0.558278	 1.268653	 1.071266	 -1.218722	 -0.271675	 -0.430974	 0.481319	 -0.384919	 0.659113	 2
1462074530.149	 4	 -1.574676	 0.516772	 1.282770	 1.128407	 -1.214138	 -0.216503	 -0.431777	 0.488707	 -0.378249	 0.657010	 2
1462074530.159	 4	 -1.821934	 0.232488	 1.434681	 1.189355	 -1.208516	 -0.154828	 -0.433552	 0.496052	 -0.370066	 0.654994	 2
1462074530.169	 4	 -2.007396	 -0.168150	 1.700074	 1.251302	 -1.199963	 -0.087697	 -0.436050	 0.502941	 -0.359668	 0.653874	 2
1462074530.179	 4	 -2.089115	 -0.287301	 1.956526	 1.312460	 -1.187672	 -0.018930	 -0.438520	 0.509853	 -0.347597	 0.653396	 2
1462074530.189	 4	 -2.090749	 -0.357039	 2.165846	 1.370216	 -1.171868	 0.047094	 -0.440493	 0.516982	 -0.334613	 0.653245	 2
1462074530.199	 4	 -2.075523	 -0.542157	 2.458141	 1.422110	 -1.152035	 0.109036	 -0.441907	 0.524022	 -0.320329	 0.653841	 2
1462074530.209	 4	 -2.027836	 -0.646417	 2.766893	 1.467292	 -1.127882	 0.165670	 -0.442471	 0.531112	 -0.304740	 0.655190	 2
1462074530.219	 4	 -1.911799	 -0.659045	 2.978918	 1.505234	 -1.100288	 0.215266	 -0.441988	 0.538327	 -0.288459	 0.656995	 2
1462074530.229	 4	 -1.700004	 -0.662983	 3.108126	 1.534897	 -1.070435	 0.256250	 -0.440359	 0.545412	 -0.272113	 0.659215	 2
1462074530.239	 4	 -1.432874	 -0.692676	 3.228086	 1.555908	 -1.038860	 0.288275	 -0.437447	 0.552146	 -0.255937	 0.662021	 2
1462074530.249	 4	 -1.177358	 -0.727383	 3.385403	 1.569424	 -1.005537	 0.312536	 -0.433165	 0.558570	 -0.239842	 0.665465	 2
1462074530.259	 4	 -0.994356	 -0.784979	 3.583637	 1.577328	 -0.970200	 0.331157	 -0.427586	 0.564815	 -0.223509	 0.669476	 2
1462074530.269	 4	 -0.887456	 -0.960006	 3.837926	 1.580576	 -0.932423	 0.346307	 -0.420917	 0.570739	 -0.206330	 0.674177	 2
1462074530.279	 4	 -0.806229	 -1.187792	 4.139907	 1.579489	 -0.891737	 0.359205	 -0.413184	 0.576202	 -0.187859	 0.679691	 2
1462074530.289	 4	 -0.686596	 -1.418876	 4.442589	 1.574104	 -0.848012	 0.369949	 -0.404210	 0.581127	 -0.168085	 0.686042	 2
1462074530.299	 4	 -0.525703	 -1.667606	 4.675473	 1.564267	 -0.801792	 0.378399	 -0.393946	 0.585266	 -0.147291	 0.693236	 2
1462074530.309	 4	 -0.354595	 -1.907706	 4.782588	 1.550320	 -0.754203	 0.384865	 -0.382610	 0.588344	 -0.125929	 0.701144	 2
1462074530.319	 4	 -0.182003	 -2.144770	 4.722394	 1.532726	 -0.706829	 0.389743	 -0.370620	 0.590059	 -0.104603	 0.709598	 2
1462074530.329	 4	 0.008248	 -2.371212	 4.522538	 1.511731	 -0.661105	 0.393139	 -0.358343	 0.590164	 -0.083913	 0.718509	 2
1462074530.339	 4	 0.240740	 -2.608031	 4.227357	 1.487201	 -0.618040	 0.394711	 -0.345947	 0.588468	 -0.064395	 0.727928	 2
1462074530.349	 4	 0.509465	 -2.836610	 3.909556	 1.459058	 -0.577936	 0.394096	 -0.333403	 0.584931	 -0.046361	 0.737935	 2
1462074530.369	 5	 1.012027	 -3.144560	 3.448300	 1.394310	 -0.504316	 0.386764	 -0.307199	 0.573386	 -0.014521	 0.759372	 2
1462074530.379	 5	 1.174693	 -3.195706	 3.354753	 1.359975	 -0.469050	 0.381469	 -0.293360	 0.566223	 -0.000089	 0.770280	 2
1462074530.389	 5	 1.288783	 -3.223634	 3.363091	 1.325532	 -0.433518	 0.376239	 -0.278920	 0.558595	 0.013975	 0.781012	 2
1462074530.399	 5	 1.384798	 -3.286183	 3.429882	 1.290966	 -0.397039	 0.371545	 -0.263763	 0.550523	 0.028045	 0.791560	 2
1462074530.409	 5	 1.468810	 -3.390305	 3.479338	 1.255889	 -0.359646	 0.367581	 -0.247934	 0.541823	 0.042205	 0.801982	 2
1462074530.419	 5	 1.541855	 -3.536054	 3.503990	 1.219842	 -0.321575	 0.364430	 -0.231515	 0.532274	 0.056434	 0.812343	 2
1462074530.429	 5	 1.623494	 -3.640602	 3.493780	 1.182942	 -0.283194	 0.362019	 -0.214609	 0.521894	 0.070542	 0.822553	 2
1462074530.439	 5	 1.752293	 -3.680591	 3.458182	 1.145640	 -0.244533	 0.359885	 -0.197119	 0.510929	 0.084245	 0.832466	 2
1462074530.449	 5	 1.911554	 -3.671108	 3.510172	 1.108452	 -0.205107	 0.357870	 -0.178836	 0.499668	 0.097527	 0.841925	 2
1462074530.459	 5	 2.071129	 -3.616766	 3.588155	 1.071856	 -0.163979	 0.356375	 -0.159505	 0.488385	 0.110725	 0.850752	 2
1462074530.479	 6	 2.371560	 -3.362502	 3.424843	 1.001718	 -0.080577	 0.353432	 -0.119126	 0.466107	 0.135040	 0.866209	 2
1462074530.489	 6	 2.582126	 -3.147395	 3.252358	 0.969592	 -0.039143	 0.350566	 -0.098303	 0.455780	 0.145282	 0.872637	 2
1462074530.499	 6	 2.816576	 -3.090678	 3.101638	 0.938624	 0.002394	 0.346235	 -0.076854	 0.445696	 0.154163	 0.878454	 2
1462074530.509	 6	 3.060485	 -3.280833	 2.938946	 0.906580	 0.044285	 0.340304	 -0.054520	 0.434866	 0.161750	 0.884170	 2
1462074530.519	 6	 3.190325	 -3.610514	 2.703477	 0.871769	 0.085729	 0.333122	 -0.031628	 0.422427	 0.167994	 0.890131	 2
1462074530.529	 6	 3.212777	 -3.806299	 2.408375	 0.834926	 0.125532	 0.325219	 -0.008928	 0.408589	 0.172795	 0.896168	 2
1462074530.549	 7	 3.331976	 -4.263316	 2.063107	 0.757148	 0.201992	 0.308295	 0.036117	 0.377736	 0.178762	 0.907775	 2
1462074530.559	 7	 3.352600	 -4.588242	 1.999155	 0.713684	 0.240413	 0.300625	 0.059164	 0.359712	 0.180718	 0.913481	 2
1462074530.569	 7	 3.299224	 -4.965282	 1.905521	 0.667094	 0.278155	 0.294025	 0.082081	 0.339926	 0.181971	 0.919021	 2
1462074530.579	 7	 3.227356	 -5.340969	 1.991110	 0.615482	 0.315899	 0.290168	 0.105081	 0.317666	 0.183213	 0.924381	 2
1462074530.589	 7	 3.025194	 -5.300272	 2.094496	 0.561987	 0.353148	 0.290212	 0.127520	 0.294533	 0.184966	 0.928858	 2
1462074530.599	 7	 2.457335	 -4.645564	 2.092743	 0.511736	 0.386384	 0.295205	 0.147194	 0.272993	 0.187695	 0.931976	 2
1462074530.609	 7	 1.845785	 -3.883057	 1.978338	 0.467690	 0.413319	 0.304349	 0.162922	 0.254426	 0.191322	 0.933873	 2
1462074530.619	 7	 1.548160	 -3.694277	 1.783388	 0.426303	 0.435755	 0.314899	 0.176267	 0.237112	 0.194789	 0.935289	 2
1462074530.629	 7	 1.368386	 -3.825225	 1.547136	 0.384023	 0.455076	 0.325097	 0.188428	 0.219300	 0.197246	 0.936748	 2
1462074530.639	 7	 1.104451	 -3.858651	 1.231525	 0.341352	 0.470778	 0.334170	 0.199164	 0.201088	 0.198433	 0.938361	 2
1462074530.649	 7	 0.757764	 -3.702195	 0.812892	 0.300706	 0.481712	 0.341013	 0.207741	 0.183372	 0.198136	 0.940192	 2
1462074530.659	 7	 0.476184	 -3.455224	 0.289024	 0.264163	 0.488095	 0.343938	 0.214126	 0.166899	 0.195958	 0.942282	 2
1462074530.669	 7	 0.302292	 -3.415254	 -0.282470	 0.231302	 0.491052	 0.341408	 0.218919	 0.151321	 0.191321	 0.944761	 2
1462074530.679	 7	 0.145837	 -3.450599	 -0.672572	 0.200136	 0.491630	 0.334389	 0.222628	 0.135841	 0.184578	 0.947584	 2
1462074530.689	 7	 -0.056865	 -3.295940	 -0.840955	 0.170946	 0.490099	 0.325375	 0.225113	 0.120876	 0.176996	 0.950466	 2
1462074530.699	 7	 -0.270378	 -3.085786	 -0.841404	 0.143865	 0.486617	 0.316224	 0.226312	 0.106718	 0.169520	 0.953235	 2
1462074530.709	 7	 -0.452452	 -2.871669	 -0.722724	 0.118325	 0.481561	 0.308353	 0.226402	 0.093297	 0.162808	 0.955788	 2
1462074530.729	 8	 -0.493832	 -2.068446	 -0.272598	 0.073913	 0.470134	 0.299237	 0.224793	 0.070224	 0.153372	 0.959695	 2
1462074530.739	 8	 -0.239081	 -1.471474	 0.016363	 0.057898	 0.466950	 0.298854	 0.224493	 0.062274	 0.151394	 0.960627	 2
1462074530.749	 8	 0.204806	 -1.004138	 0.252381	 0.045830	 0.467875	 0.301056	 0.225786	 0.056790	 0.151089	 0.960712	 2
1462074530.759	 8	 0.732077	 -0.659985	 0.402330	 0.036654	 0.474038	 0.304890	 0.229339	 0.053257	 0.151838	 0.959954	 2
1462074530.769	 8	 1.094546	 -0.161346	 0.522114	 0.031220	 0.484408	 0.310088	 0.234597	 0.052005	 0.153597	 0.958472	 2
1462074530.779	 8	 1.229150	 0.500225	 0.577189	 0.031723	 0.496620	 0.316103	 0.240252	 0.053860	 0.156397	 0.956513	 2
1462074530.789	 8	 1.300147	 1.065906	 0.583966	 0.038112	 0.509641	 0.322244	 0.245803	 0.058632	 0.159958	 0.954231	 2
1462074530.799	 8	 1.355339	 1.433929	 0.608226	 0.048577	 0.523306	 0.328478	 0.251286	 0.065426	 0.164088	 0.951657	 2
1462074530.819	 9	 1.454482	 1.558764	 0.702311	 0.073096	 0.552307	 0.342058	 0.262516	 0.081017	 0.173456	 0.945746	 2
1462074530.829	 9	 1.523913	 1.340571	 0.709268	 0.083461	 0.567879	 0.349011	 0.268692	 0.088035	 0.178034	 0.942528	 2
1462074530.839	 9	 1.538417	 1.006686	 0.727350	 0.090588	 0.583839	 0.355977	 0.275277	 0.093579	 0.182211	 0.939290	 2
1462074530.849	 9	 1.473751	 0.649475	 0.723523	 0.094065	 0.599404	 0.363023	 0.281956	 0.097418	 0.185931	 0.936184	 2
1462074530.859	 9	 1.302083	 0.267802	 0.676704	 0.093799	 0.613525	 0.369865	 0.288280	 0.099398	 0.189019	 0.933427	 2
1462074530.869	 9	 1.002302	 -0.092499	 0.591767	 0.090109	 0.624892	 0.376148	 0.293647	 0.099516	 0.191335	 0.931267	 2
1462074530.879	 9	 0.625886	 -0.403704	 0.499427	 0.083476	 0.632552	 0.381808	 0.297588	 0.097901	 0.192920	 0.929859	 2
1462074530.889	 9	 0.244350	 -0.643851	 0.376886	 0.074777	 0.636247	 0.386555	 0.299927	 0.094880	 0.193786	 0.929241	 2
1462074530.899	 9	 -0.094298	 -0.797291	 0.201490	 0.065288	 0.636283	 0.389647	 0.300719	 0.090938	 0.193797	 0.929377	 2
1462074530.909	 9	 -0.349337	 -0.850125	 -0.000342	 0.056406	 0.633414	 0.390436	 0.300204	 0.086677	 0.192875	 0.930142	 2
1462074530.919	 9	 -0.520452	 -0.838694	 -0.106387	 0.048395	 0.628547	 0.389685	 0.298732	 0.082408	 0.191413	 0.931305	 2
1462074530.929	 9	 -0.599368	 -0.786693	 -0.154241	 0.041237	 0.622640	 0.388242	 0.296712	 0.078334	 0.189789	 0.932634	 2
1462074530.939	 9	 -0.606582	 -0.696575	 -0.197036	 0.035179	 0.616486	 0.386224	 0.294483	 0.074663	 0.188077	 0.933987	 2
1462074530.949	 9	 -0.531285	 -0.552303	 -0.218730	 0.030662	 0.610855	 0.383825	 0.292357	 0.071700	 0.186413	 0.935220	 2
1462074530.959	 9	 -0.363036	 -0.396507	 -0.227272	 0.027787	 0.606690	 0.381216	 0.290764	 0.069606	 0.184863	 0.936182	 2
1462074530.969	 9	 -0.147718	 -0.234316	 -0.214848	 0.026560	 0.604618	 0.378575	 0.289996	 0.068466	 0.183494	 0.936774	 2
1462074530.979	 9	 0.104962	 -0.050070	 -0.225991	 0.027092	 0.604956	 0.375922	 0.290197	 0.068360	 0.182321	 0.936948	 2
1462074530.989	 9	 0.350047	 0.130807	 -0.264810	 0.029762	 0.607799	 0.372705	 0.291399	 0.069389	 0.181142	 0.936728	 2
1462074530.999	 9	 0.522635	 0.307809	 -0.280652	 0.034487	 0.612547	 0.369126	 0.293326	 0.071485	 0.180061	 0.936177	 2
1462074531.009	 9	 0.615828	 0.391476	 -0.292408	 0.040453	 0.618414	 0.365306	 0.295681	 0.074208	 0.179042	 0.935420	 2
1462074531.019	 9	 0.636031	 0.379684	 -0.296957	 0.046672	 0.624633	 0.361318	 0.298191	 0.077037	 0.177992	 0.934594	 2
1462074531.029	 9	 0.589725	 0.292593	 -0.298430	 0.052216	 0.630520	 0.357275	 0.300615	 0.079500	 0.176840	 0.933830	 2
1462074531.039	 9	 0.504870	 0.176906	 -0.298767	 0.056688	 0.635623	 0.353227	 0.302774	 0.081383	 0.175549	 0.933213	 2
1462074531.049	 9	 0.399605	 0.039944	 -0.307651	 0.059880	 0.639685	 0.349125	 0.304565	 0.082568	 0.174065	 0.932805	 2
1462074531.059	 9	 0.304047	 -0.089477	 -0.299497	 0.061716	 0.642764	 0.345082	 0.306014	 0.083045	 0.172419	 0.932593	 2
1462074531.069	 9	 0.219583	 -0.183366	 -0.227164	 0.061967	 0.644960	 0.341873	 0.307153	 0.082837	 0.170934	 0.932511	 2
1462074531.079	 9	 0.207944	 -0.164169	 -0.224752	 0.061954	 0.646877	 0.338957	 0.308172	 0.082527	 0.169549	 0.932455	 2
1462074531.089	 9	 0.255643	 0.009977	 -0.244862	 0.063502	 0.649134	 0.335712	 0.309231	 0.082917	 0.168248	 0.932306	 2
1462074531.109	 10	 0.420722	 0.301697	 -0.138075	 0.070864	 0.656012	 0.330715	 0.312042	 0.086074	 0.166988	 0.931309	 2
1462074531.119	 10	 0.467028	 0.367700	 -0.111220	 0.075567	 0.660502	 0.328801	 0.313831	 0.088286	 0.166791	 0.930535	 2
1462074531.129	 10	 0.472537	 0.372216	 -0.072858	 0.080264	 0.665148	 0.327293	 0.315677	 0.090562	 0.166790	 0.929692	 2
1462074531.139	 10	 0.468035	 0.288501	 -0.032033	 0.084041	 0.669783	 0.326271	 0.317573	 0.092480	 0.166878	 0.928841	 2
1462074531.149	 10	 0.465523	 0.177100	 0.005319	 0.086420	 0.674418	 0.325719	 0.319563	 0.093819	 0.166969	 0.928008	 2
1462074531.169	 11	 0.538393	 -0.024902	 0.047516	 0.090153	 0.675025	 0.323858	 0.319622	 0.095296	 0.166698	 0.927886	 2
1462074531.179	 11	 0.590527	 -0.084392	 0.078481	 0.089275	 0.680856	 0.324082	 0.322403	 0.095325	 0.166626	 0.926933	 2
1462074531.189	 11	 0.610004	 -0.067091	 0.125366	 0.088034	 0.687010	 0.324847	 0.325335	 0.095297	 0.166740	 0.925891	 2
1462074531.199	 11	 0.592447	 0.014165	 0.176366	 0.087035	 0.693125	 0.326270	 0.328194	 0.095488	 0.167192	 0.924780	 2
1462074531.209	 11	 0.532282	 0.117831	 0.220485	 0.086613	 0.698793	 0.328373	 0.330762	 0.096032	 0.168051	 0.923652	 2
1462074531.219	 11	 0.415407	 0.206629	 0.244710	 0.086794	 0.703456	 0.330988	 0.332784	 0.096874	 0.169251	 0.922618	 2
1462074531.229	 11	 0.256596	 0.245413	 0.248585	 0.087301	 0.706653	 0.333899	 0.334081	 0.097817	 0.170651	 0.921792	 2
1462074531.239	 11	 0.079137	 0.194756	 0.231541	 0.087510	 0.708085	 0.336867	 0.334581	 0.098511	 0.172041	 0.921278	 2
1462074531.249	 11	 -0.084825	 0.071707	 0.207206	 0.102086	 0.697213	 0.329769	 0.328646	 0.103296	 0.171256	 0.923035	 2
1462074531.259	 11	 -0.215577	 -0.053354	 0.215707	 0.099919	 0.695576	 0.332762	 0.327918	 0.102674	 0.172290	 0.923171	 2
1462074531.269	 11	 -0.306583	 -0.140095	 0.244468	 0.096515	 0.692954	 0.336190	 0.326819	 0.101481	 0.173329	 0.923498	 2
1462074531.279	 11	 -0.361051	 -0.187465	 0.290329	 0.092166	 0.689733	 0.340203	 0.325499	 0.099897	 0.174495	 0.923917	 2
1462074531.289	 11	 -0.370342	 -0.162554	 0.344963	 0.095820	 0.686508	 0.339598	 0.323712	 0.101256	 0.174830	 0.924333	 2
1462074531.299	 11	 -0.314222	 -0.044530	 0.362625	 0.091832	 0.683547	 0.344644	 0.322431	 0.100014	 0.176538	 0.924592	 2
1462074531.309	 11	 -0.229270	 0.109295	 0.342002	 0.089548	 0.681366	 0.349418	 0.321382	 0.099565	 0.178395	 0.924649	 2
1462074531.319	 11	 -0.172571	 0.171596	 0.302654	 0.088507	 0.679815	 0.353649	 0.320543	 0.099647	 0.180197	 0.924582	 2
1462074531.329	 11	 -0.187709	 0.162781	 0.254636	 0.104377	 0.656553	 0.347074	 0.308611	 0.104232	 0.179790	 0.928208	 2
1462074531.339	 11	 -0.302131	 0.139490	 0.223443	 0.103855	 0.654127	 0.350305	 0.307357	 0.104308	 0.181218	 0.928338	 2
1462074531.349	 11	 -0.492191	 0.145130	 0.191046	 0.103396	 0.649945	 0.353397	 0.305283	 0.104257	 0.182599	 0.928757	 2
1462074531.359	 11	 -0.691872	 0.162368	 0.140722	 0.103340	 0.643684	 0.356139	 0.302219	 0.104174	 0.183889	 0.929514	 2
1462074531.369	 11	 -0.805201	 0.139123	 0.115899	 0.105427	 0.633913	 0.357392	 0.297388	 0.104590	 0.184819	 0.930840	 2
1462074531.379	 11	 -0.767130	 0.075111	 0.104314	 0.104973	 0.626213	 0.359727	 0.293701	 0.104133	 0.185862	 0.931854	 2
1462074531.389	 11	 -0.590173	 0.037336	 0.100290	 0.104221	 0.619924	 0.361768	 0.290715	 0.103594	 0.186722	 0.932678	 2
1462074531.399	 11	 -0.388810	 0.180439	 0.114790	 0.104413	 0.615710	 0.363691	 0.288620	 0.103633	 0.187659	 0.933136	 2
1462074531.409	 11	 -0.220575	 0.345699	 0.091416	 0.106662	 0.613218	 0.365244	 0.287157	 0.104711	 0.188714	 0.933254	 2
1462074531.419	 11	 -0.117121	 0.375864	 0.039639	 0.109919	 0.611927	 0.366081	 0.286199	 0.106249	 0.189574	 0.933200	 2
1462074531.429	 11	 -0.124898	 0.373219	 -0.036061	 0.122627	 0.599552	 0.360947	 0.279456	 0.110498	 0.188969	 0.934872	 2
1462074531.439	 11	 -0.198961	 0.354731	 -0.121915	 0.126779	 0.597650	 0.360008	 0.278220	 0.112162	 0.189103	 0.935015	 2
