% Gyrometer data recorded with 'snsrlog'
% 
% 
% Label description:
% 	 0: Default Label
% 	 1: still_drop
% 	 2: walk_drop
% 	 3: other
% 	 4: dtw_same
% 	 5: dtw_diff
% 	 6: delete
% 	 7: steal
% 
% Column description:
% 	 1: Seconds.milliseconds since 1970
% 	 2: Number of skipped measurements
% 	 3: Gyro X
% 	 4: Gyro Y
% 	 5: Gyro Z
% 	 6: Roll of the device
% 	 7: Pitch of the device
% 	 8: Yaw of the device
% 	 9: Quaternion X
% 	 10: Quaternion Y
% 	 11: Quaternion Z
% 	 12: Quaternion W
% 	 13: Label used for the current sample
% 
% 
1463630384.917	 0	 -0.442845	 -1.016419	 0.357056	 0.156295	 0.026175	 0.122345	 0.008251	 0.078713	 0.061962	 0.994936	 2
1463630384.927	 0	 -0.228647	 -0.661520	 0.395795	 0.148629	 0.024128	 0.126605	 0.007310	 0.074853	 0.063975	 0.995113	 2
1463630384.937	 0	 -0.162070	 -0.020176	 0.274357	 0.146719	 0.022883	 0.129954	 0.006628	 0.073875	 0.065589	 0.995086	 2
1463630384.947	 0	 -0.173540	 0.378773	 0.136423	 0.149562	 0.021464	 0.131859	 0.005757	 0.075250	 0.066494	 0.994929	 2
1463630384.957	 0	 -0.187656	 0.623899	 0.052500	 0.155296	 0.019727	 0.132852	 0.004663	 0.078048	 0.066937	 0.994689	 2
1463630384.967	 0	 -0.128977	 0.685916	 -0.025234	 0.162073	 0.018254	 0.133021	 0.003697	 0.081370	 0.066978	 0.994424	 2
1463630384.977	 0	 -0.022377	 0.693828	 -0.064456	 0.169036	 0.017653	 0.132530	 0.003186	 0.084811	 0.066721	 0.994156	 2
1463630384.997	 1	 -0.000671	 0.786164	 -0.082970	 0.183481	 0.017998	 0.130928	 0.002949	 0.091998	 0.065962	 0.993568	 2
1463630385.017	 2	 -0.317815	 0.800446	 -0.148284	 0.200509	 0.013754	 0.129452	 0.000354	 0.100317	 0.065041	 0.992827	 2
1463630385.027	 2	 -0.446064	 0.647749	 -0.282874	 0.207318	 0.009178	 0.127914	 -0.002058	 0.103552	 0.064043	 0.992558	 2
1463630385.037	 2	 -0.512945	 0.709913	 -0.537497	 0.214107	 0.003293	 0.124430	 -0.005010	 0.106744	 0.061994	 0.992339	 2
1463630385.047	 2	 -0.477351	 1.132293	 -0.945260	 0.224131	 -0.003327	 0.117355	 -0.008209	 0.111542	 0.058090	 0.992027	 2
1463630385.057	 2	 -0.400540	 1.852953	 -1.271741	 0.240701	 -0.010174	 0.106547	 -0.011436	 0.119619	 0.052253	 0.991378	 2
1463630385.067	 2	 -0.351495	 2.311090	 -1.290286	 0.262883	 -0.016927	 0.094857	 -0.014594	 0.130513	 0.045892	 0.990276	 2
1463630385.077	 2	 -0.337850	 2.195696	 -1.210480	 0.285150	 -0.023509	 0.083934	 -0.017586	 0.141470	 0.039858	 0.988984	 2
1463630385.087	 2	 -0.346388	 1.959685	 -1.198748	 0.305006	 -0.030298	 0.073501	 -0.020543	 0.151242	 0.034012	 0.987698	 2
1463630385.097	 2	 -0.290845	 1.799502	 -1.264667	 0.322973	 -0.037080	 0.062644	 -0.023323	 0.160106	 0.027925	 0.986429	 2
1463630385.107	 2	 -0.138166	 1.698130	 -1.394832	 0.339677	 -0.043265	 0.050328	 -0.025565	 0.168393	 0.021139	 0.985162	 2
1463630385.117	 2	 0.126098	 1.685043	 -1.479318	 0.355859	 -0.047725	 0.036394	 -0.026699	 0.176485	 0.013681	 0.983846	 2
1463630385.137	 3	 0.737336	 2.358217	 -1.538059	 0.394056	 -0.049371	 0.004276	 -0.024624	 0.195644	 -0.002736	 0.980362	 2
1463630385.147	 3	 0.998279	 3.194158	 -1.586906	 0.422973	 -0.046988	 -0.013923	 -0.021507	 0.210010	 -0.011736	 0.977392	 2
1463630385.157	 3	 1.002042	 3.983414	 -1.577463	 0.459993	 -0.044491	 -0.032639	 -0.017936	 0.228241	 -0.020955	 0.973214	 2
1463630385.167	 3	 0.661044	 4.759851	 -1.568334	 0.504917	 -0.044974	 -0.050061	 -0.015516	 0.250189	 -0.029843	 0.967613	 2
1463630385.177	 3	 0.196699	 5.305812	 -1.710549	 0.556067	 -0.050702	 -0.065976	 -0.015312	 0.275032	 -0.038659	 0.960536	 2
1463630385.187	 3	 -0.142417	 5.588796	 -1.985259	 0.610394	 -0.061809	 -0.081584	 -0.017199	 0.301290	 -0.048154	 0.952161	 2
1463630385.197	 3	 -0.266453	 6.018779	 -2.289249	 0.668175	 -0.077004	 -0.097834	 -0.020299	 0.329050	 -0.058767	 0.942263	 2
1463630385.207	 3	 -0.091884	 6.714139	 -2.693551	 0.731867	 -0.094903	 -0.116710	 -0.023372	 0.359393	 -0.071343	 0.930162	 2
1463630385.217	 3	 0.406492	 7.454716	 -3.036306	 0.802101	 -0.113547	 -0.139981	 -0.024856	 0.392456	 -0.086378	 0.915369	 2
1463630385.227	 3	 1.112206	 8.138303	 -3.234321	 0.878400	 -0.131179	 -0.168436	 -0.023420	 0.427788	 -0.103742	 0.897601	 2
1463630385.237	 3	 1.886397	 8.494236	 -3.266526	 0.958027	 -0.146873	 -0.202057	 -0.018421	 0.463885	 -0.122908	 0.877134	 2
1463630385.247	 3	 2.496591	 8.224368	 -3.273284	 1.035562	 -0.161473	 -0.240127	 -0.010483	 0.498183	 -0.143366	 0.855073	 2
1463630385.257	 3	 2.633676	 7.861567	 -3.526176	 1.108020	 -0.179158	 -0.280284	 -0.002139	 0.529482	 -0.164917	 0.832134	 2
1463630385.267	 3	 2.263629	 7.729545	 -3.840714	 1.178371	 -0.203553	 -0.318209	 0.004180	 0.559209	 -0.186784	 0.807700	 2
1463630385.277	 3	 1.771434	 7.599981	 -4.012419	 1.247810	 -0.234192	 -0.350567	 0.007815	 0.587853	 -0.207771	 0.781792	 2
1463630385.287	 3	 1.445288	 7.266691	 -4.049983	 1.314676	 -0.268612	 -0.377463	 0.009484	 0.614644	 -0.227544	 0.755213	 2
1463630385.297	 3	 1.266391	 6.940312	 -4.101552	 1.378424	 -0.305473	 -0.400163	 0.009845	 0.639323	 -0.246421	 0.728317	 2
1463630385.307	 3	 1.173942	 6.655874	 -4.201445	 1.439414	 -0.344803	 -0.419674	 0.009094	 0.662020	 -0.264918	 0.701046	 2
1463630385.327	 4	 1.371538	 6.126590	 -4.067410	 1.554636	 -0.425818	 -0.453314	 0.007289	 0.701847	 -0.300976	 0.645579	 2
1463630385.337	 4	 1.541310	 5.572995	 -3.923767	 1.604762	 -0.465532	 -0.469532	 0.006826	 0.717723	 -0.318612	 0.619123	 2
1463630385.347	 4	 1.677633	 4.971378	 -3.815449	 1.648528	 -0.504794	 -0.485688	 0.006308	 0.730715	 -0.336057	 0.594207	 2
1463630385.357	 4	 1.733012	 4.175381	 -3.703973	 1.684477	 -0.543599	 -0.501381	 0.005146	 0.740619	 -0.353152	 0.571613	 2
1463630385.367	 4	 1.702080	 3.366162	 -3.543909	 1.712314	 -0.581390	 -0.516087	 0.003051	 0.747614	 -0.369544	 0.551816	 2
1463630385.377	 4	 1.619259	 2.630586	 -3.369919	 1.732828	 -0.617549	 -0.529393	 -0.000008	 0.752173	 -0.384905	 0.534869	 2
1463630385.387	 4	 1.576617	 1.742540	 -3.377811	 1.745256	 -0.653354	 -0.541927	 -0.004562	 0.754250	 -0.399802	 0.520811	 2
1463630385.397	 4	 1.467474	 0.879385	 -3.499995	 1.749192	 -0.690133	 -0.552898	 -0.011613	 0.753848	 -0.414408	 0.509750	 2
1463630385.417	 5	 1.170812	 -0.433482	 -3.817634	 1.738967	 -0.767180	 -0.569524	 -0.032720	 0.747780	 -0.442501	 0.493910	 2
1463630385.437	 5	 1.061464	 -1.426540	 -4.106218	 1.707189	 -0.849833	 -0.583020	 -0.062192	 0.735534	 -0.469682	 0.484274	 2
1463630385.427	 5	 1.101324	 -0.999249	 -3.982158	 1.725658	 -0.807902	 -0.576109	 -0.046621	 0.742374	 -0.456166	 0.488488	 2
1463630385.447	 5	 0.988415	 -1.537923	 -4.094895	 1.686182	 -0.891845	 -0.590551	 -0.078416	 0.728011	 -0.482743	 0.480426	 2
1463630385.457	 5	 0.846011	 -1.515333	 -3.970883	 1.664935	 -0.932606	 -0.598133	 -0.094523	 0.720462	 -0.494882	 0.476542	 2
1463630385.467	 5	 0.592805	 -1.452015	 -3.848724	 1.645570	 -0.971781	 -0.603842	 -0.110529	 0.713333	 -0.505690	 0.472459	 2
1463630385.477	 5	 0.350120	 -1.362639	 -3.795688	 1.629564	 -1.010012	 -0.606544	 -0.126598	 0.706818	 -0.515250	 0.467866	 2
1463630385.487	 5	 0.246814	 -1.365119	 -3.739392	 1.614716	 -1.047652	 -0.607924	 -0.142746	 0.700422	 -0.524000	 0.463094	 2
1463630385.507	 6	 0.464754	 -1.280255	 -3.242789	 1.579617	 -1.118033	 -0.618397	 -0.172434	 0.687165	 -0.540413	 0.453899	 2
1463630385.517	 6	 0.655232	 -1.246293	 -2.882838	 1.553774	 -1.147716	 -0.633061	 -0.184628	 0.680013	 -0.548094	 0.450652	 2
1463630385.527	 6	 0.748254	 -1.231649	 -2.586164	 1.522672	 -1.174087	 -0.653517	 -0.195397	 0.672701	 -0.555369	 0.448173	 2
1463630385.537	 6	 0.806580	 -1.469922	 -2.126348	 1.485607	 -1.195999	 -0.678489	 -0.205035	 0.665121	 -0.561657	 0.447343	 2
1463630385.547	 6	 0.831076	 -1.870791	 -1.661356	 1.441545	 -1.212735	 -0.706741	 -0.214026	 0.656968	 -0.566510	 0.449056	 2
1463630385.557	 6	 0.769350	 -2.266621	 -1.416179	 1.392342	 -1.225837	 -0.736027	 -0.223128	 0.648229	 -0.570002	 0.452892	 2
1463630385.567	 6	 0.528289	 -2.517550	 -1.355667	 1.343325	 -1.238130	 -0.761956	 -0.233220	 0.639364	 -0.572255	 0.457544	 2
1463630385.577	 6	 0.268854	 -2.813138	 -1.300739	 1.296919	 -1.249964	 -0.781964	 -0.244470	 0.630546	 -0.573024	 0.462915	 2
1463630385.587	 6	 0.081259	 -2.976507	 -1.317678	 1.251618	 -1.262207	 -0.798414	 -0.256796	 0.621615	 -0.572785	 0.468580	 2
1463630385.597	 6	 -0.038485	 -2.888324	 -0.939601	 1.211965	 -1.272268	 -0.809512	 -0.268431	 0.613434	 -0.571400	 0.474495	 2
1463630385.607	 6	 0.088097	 -2.748652	 -0.402259	 1.176312	 -1.277143	 -0.817674	 -0.277918	 0.605920	 -0.569017	 0.481500	 2
1463630385.617	 6	 0.072068	 -2.624730	 0.252346	 1.148264	 -1.276030	 -0.819208	 -0.284995	 0.599343	 -0.565328	 0.489868	 2
1463630385.627	 6	 0.072071	 -2.466009	 0.871965	 1.131176	 -1.269166	 -0.810857	 -0.289724	 0.594005	 -0.560121	 0.499482	 2
1463630385.637	 6	 0.154554	 -2.256185	 1.238756	 1.120109	 -1.258078	 -0.798180	 -0.292393	 0.589494	 -0.554199	 0.509771	 2
1463630385.647	 6	 0.263873	 -2.061801	 1.394148	 1.110636	 -1.244810	 -0.786002	 -0.293578	 0.585408	 -0.548322	 0.520050	 2
1463630385.657	 6	 0.115660	 -2.141284	 1.520459	 1.104177	 -1.230643	 -0.770737	 -0.294432	 0.581605	 -0.541883	 0.530479	 2
1463630385.667	 6	 -0.773559	 -2.445855	 1.548814	 1.112177	 -1.219048	 -0.736973	 -0.297682	 0.578895	 -0.532746	 0.540784	 2
1463630385.677	 6	 -1.857504	 -2.354617	 1.518602	 1.144787	 -1.212128	 -0.676444	 -0.303999	 0.578840	 -0.520306	 0.549373	 2
1463630385.687	 6	 -2.282750	 -1.784336	 1.519085	 1.195365	 -1.206925	 -0.601536	 -0.310792	 0.581515	 -0.506652	 0.555475	 2
1463630385.697	 6	 -1.911068	 -1.140030	 1.635881	 1.246317	 -1.198852	 -0.533091	 -0.315028	 0.585512	 -0.494225	 0.560067	 2
1463630385.717	 7	 -0.659269	 -0.196542	 1.857571	 1.312742	 -1.170628	 -0.449045	 -0.313432	 0.593339	 -0.475694	 0.568704	 2
1463630385.727	 7	 -0.380694	 0.557227	 1.777964	 1.336276	 -1.154241	 -0.427429	 -0.308435	 0.598211	 -0.469853	 0.571182	 2
1463630385.737	 7	 -0.228520	 1.154436	 1.765144	 1.360754	 -1.137639	 -0.411723	 -0.301518	 0.604424	 -0.465570	 0.571841	 2
1463630385.747	 7	 -0.050248	 1.610268	 1.774228	 1.385291	 -1.120447	 -0.401248	 -0.292920	 0.611601	 -0.462433	 0.571225	 2
1463630385.757	 7	 0.181744	 1.961319	 1.729647	 1.407736	 -1.103035	 -0.397154	 -0.282863	 0.619185	 -0.460534	 0.569655	 2
1463630385.767	 7	 0.357486	 2.216259	 1.608993	 1.428059	 -1.086328	 -0.398567	 -0.271879	 0.626861	 -0.459854	 0.567152	 2
1463630385.777	 7	 0.470843	 2.382967	 1.469942	 1.447028	 -1.070830	 -0.403667	 -0.260483	 0.634474	 -0.460126	 0.563804	 2
1463630385.787	 7	 0.587201	 2.515560	 1.320956	 1.464734	 -1.056704	 -0.411842	 -0.248862	 0.641902	 -0.461252	 0.559710	 2
1463630385.797	 7	 0.781533	 2.616418	 1.227481	 1.480214	 -1.043589	 -0.423889	 -0.236826	 0.648967	 -0.463267	 0.555103	 2
1463630385.807	 7	 1.126247	 2.656567	 1.183289	 1.490994	 -1.030822	 -0.442077	 -0.223942	 0.655254	 -0.466375	 0.550442	 2
1463630385.817	 7	 1.500922	 2.760046	 1.084005	 1.496648	 -1.018695	 -0.467450	 -0.210036	 0.660650	 -0.470934	 0.545571	 2
1463630385.827	 7	 1.913052	 2.878366	 0.993059	 1.497357	 -1.007221	 -0.500193	 -0.194993	 0.665116	 -0.477069	 0.540374	 2
1463630385.837	 7	 1.933583	 2.884205	 0.780848	 1.495924	 -0.997383	 -0.535933	 -0.179950	 0.668826	 -0.484147	 0.534689	 2
1463630385.847	 7	 1.866459	 2.851026	 0.578629	 1.496512	 -0.989772	 -0.569278	 -0.165930	 0.672383	 -0.491232	 0.528260	 2
1463630385.857	 7	 1.952257	 2.849608	 0.418004	 1.496514	 -0.983804	 -0.603464	 -0.152288	 0.675468	 -0.498790	 0.521307	 2
1463630385.867	 7	 2.020839	 2.778388	 0.304839	 1.494966	 -0.979020	 -0.638990	 -0.138950	 0.677911	 -0.506760	 0.514125	 2
1463630385.877	 7	 2.101506	 2.732013	 0.249351	 1.491961	 -0.974842	 -0.675691	 -0.125763	 0.679766	 -0.514975	 0.506855	 2
1463630385.887	 7	 2.094795	 2.651333	 0.267843	 1.488187	 -0.970577	 -0.712646	 -0.112636	 0.681183	 -0.523097	 0.499672	 2
1463630385.897	 7	 1.979953	 2.577547	 0.459993	 1.485490	 -0.964922	 -0.747310	 -0.099489	 0.682526	 -0.530320	 0.492972	 2
1463630385.907	 7	 2.034833	 2.628656	 0.782917	 1.483885	 -0.956207	 -0.781184	 -0.085196	 0.683897	 -0.536672	 0.486835	 2
1463630385.927	 8	 2.139260	 2.469549	 1.471141	 1.479363	 -0.928333	 -0.849539	 -0.052911	 0.685454	 -0.547152	 0.477470	 2
1463630385.937	 8	 1.529913	 1.753727	 1.517753	 1.478108	 -0.910780	 -0.876039	 -0.037795	 0.685709	 -0.549826	 0.475463	 2
1463630385.957	 9	 -0.585857	 -0.518122	 1.105781	 1.480886	 -0.885033	 -0.877021	 -0.027342	 0.686165	 -0.544779	 0.481296	 2
1463630385.967	 9	 -0.953005	 -0.656144	 0.991526	 1.486156	 -0.875706	 -0.861606	 -0.027820	 0.687135	 -0.539155	 0.486194	 2
1463630385.977	 9	 -0.840091	 -0.244884	 0.987975	 1.493958	 -0.866699	 -0.846516	 -0.027653	 0.688759	 -0.533639	 0.489975	 2
1463630385.987	 9	 -0.431442	 0.511276	 1.143857	 1.504277	 -0.856112	 -0.837009	 -0.024362	 0.691104	 -0.529110	 0.491756	 2
1463630385.997	 9	 0.004743	 1.182615	 1.347736	 1.516665	 -0.843237	 -0.834273	 -0.017402	 0.694050	 -0.525676	 0.491585	 2
1463630386.007	 9	 0.307573	 1.728049	 1.442896	 1.530575	 -0.828795	 -0.836939	 -0.007642	 0.697392	 -0.523114	 0.489835	 2
1463630386.017	 9	 0.373572	 2.062714	 1.271716	 1.547155	 -0.815392	 -0.841753	 0.003159	 0.701346	 -0.521188	 0.486278	 2
1463630386.027	 9	 0.216206	 1.812709	 0.907335	 1.563570	 -0.805289	 -0.845431	 0.012314	 0.705227	 -0.519624	 0.482176	 2
1463630386.037	 9	 -0.135838	 1.218856	 0.569159	 1.577743	 -0.798864	 -0.844880	 0.018067	 0.708588	 -0.517841	 0.478976	 2
1463630386.047	 9	 -0.561183	 0.535138	 0.422622	 1.589445	 -0.794330	 -0.838418	 0.020390	 0.711420	 -0.515078	 0.477662	 2
1463630386.057	 9	 -0.742613	 -0.097588	 0.366092	 1.597188	 -0.790376	 -0.828293	 0.020157	 0.713356	 -0.511602	 0.478518	 2
1463630386.067	 9	 -0.638945	 -0.685507	 0.296838	 1.598470	 -0.787021	 -0.818829	 0.018283	 0.713746	 -0.508482	 0.481330	 2
1463630386.077	 9	 -0.542140	 -1.005517	 0.061747	 1.594701	 -0.785531	 -0.810941	 0.015035	 0.712898	 -0.506234	 0.485054	 2
1463630386.087	 9	 -0.549704	 -1.228875	 -0.234416	 1.588297	 -0.787098	 -0.803259	 0.010131	 0.711389	 -0.504797	 0.488880	 2
1463630386.097	 9	 -0.637222	 -1.167477	 -0.309817	 1.582452	 -0.790070	 -0.794489	 0.004496	 0.709987	 -0.503411	 0.492418	 2
1463630386.107	 9	 -0.725243	 -0.862691	 -0.263584	 1.580167	 -0.792744	 -0.784475	 -0.000573	 0.709428	 -0.501611	 0.495073	 2
1463630386.117	 9	 -0.850349	 -0.656264	 -0.302139	 1.581583	 -0.795530	 -0.772791	 -0.005346	 0.709751	 -0.499417	 0.496797	 2
1463630386.127	 9	 -0.971907	 -0.771551	 -0.408730	 1.584178	 -0.799184	 -0.759113	 -0.010841	 0.710315	 -0.496949	 0.498374	 2
1463630386.137	 9	 -0.841001	 -1.025316	 -0.735157	 1.583634	 -0.805394	 -0.746226	 -0.017737	 0.710023	 -0.495307	 0.500224	 2
1463630386.147	 9	 -0.612666	 -0.857164	 -1.215173	 1.581512	 -0.816401	 -0.736378	 -0.025629	 0.709234	 -0.495620	 0.500691	 2
1463630386.157	 9	 -0.347936	 -0.451998	 -1.410874	 1.580698	 -0.830161	 -0.729915	 -0.032965	 0.708699	 -0.497482	 0.499170	 2
1463630386.167	 9	 0.234829	 -0.064773	 -1.312163	 1.578459	 -0.843689	 -0.730721	 -0.038000	 0.707886	 -0.501052	 0.496387	 2
1463630386.177	 9	 0.993531	 0.428004	 -1.107426	 1.572333	 -0.855310	 -0.742857	 -0.039348	 0.706368	 -0.506826	 0.492568	 2
1463630386.187	 9	 1.601240	 0.831698	 -0.927781	 1.562761	 -0.864955	 -0.765316	 -0.037280	 0.704275	 -0.514500	 0.487746	 2
1463630386.197	 9	 2.049303	 0.951230	 -0.839983	 1.549045	 -0.873217	 -0.795614	 -0.033126	 0.701368	 -0.523569	 0.482557	 2
1463630386.207	 9	 2.387211	 0.818785	 -0.780212	 1.529554	 -0.880467	 -0.832140	 -0.028095	 0.697197	 -0.533701	 0.477798	 2
1463630386.217	 9	 2.432741	 0.617648	 -0.631142	 1.506063	 -0.885908	 -0.871208	 -0.022810	 0.692112	 -0.543891	 0.473965	 2
1463630386.237	 9	 1.264079	 -0.184427	 -0.239427	 1.465024	 -0.890517	 -0.929158	 -0.015865	 0.683041	 -0.558135	 0.470839	 2
1463630386.227	 9	 2.008587	 0.346998	 -0.430670	 1.483594	 -0.889082	 -0.905637	 -0.018245	 0.687188	 -0.552463	 0.471406	 2
1463630386.247	 9	 0.496610	 -0.998162	 -0.119885	 1.448591	 -0.891187	 -0.940170	 -0.016956	 0.679268	 -0.560730	 0.473169	 2
1463630386.257	 9	 -0.039121	 -1.738466	 -0.047506	 1.431870	 -0.891748	 -0.941502	 -0.021400	 0.675319	 -0.560994	 0.478301	 2
1463630386.267	 9	 -0.289614	 -2.211383	 0.051522	 1.413771	 -0.891852	 -0.937677	 -0.027797	 0.670914	 -0.559869	 0.485436	 2
1463630386.277	 9	 -0.452877	 -2.503859	 0.134417	 1.394678	 -0.891377	 -0.930846	 -0.035240	 0.666117	 -0.557808	 0.493859	 2
1463630386.287	 10	 -0.631432	 -2.603071	 0.168087	 1.376267	 -0.890870	 -0.921244	 -0.043359	 0.661325	 -0.554960	 0.502780	 2
1463630386.307	 10	 -0.978306	 -2.504239	 0.309510	 1.347263	 -0.889776	 -0.892816	 -0.060281	 0.653134	 -0.546737	 0.520443	 2
1463630386.317	 10	 -1.042581	 -2.299212	 0.542182	 1.337262	 -0.887524	 -0.875210	 -0.067889	 0.649877	 -0.541388	 0.529103	 2
1463630386.327	 10	 -1.103370	 -1.950441	 0.944552	 1.332224	 -0.881966	 -0.855432	 -0.073560	 0.647676	 -0.534916	 0.537559	 2
1463630386.337	 10	 -1.247756	 -1.790827	 1.482307	 1.331983	 -0.871770	 -0.832160	 -0.077295	 0.646466	 -0.526694	 0.546534	 2
1463630386.347	 10	 -1.418154	 -1.834327	 2.161211	 1.334998	 -0.855756	 -0.804354	 -0.079425	 0.645837	 -0.516063	 0.557015	 2
1463630386.357	 10	 -1.551869	 -1.955070	 2.763407	 1.339082	 -0.833674	 -0.772985	 -0.080136	 0.645290	 -0.502993	 0.569366	 2
1463630386.367	 10	 -1.888692	 -1.850184	 3.010310	 1.346313	 -0.808862	 -0.737532	 -0.080370	 0.645528	 -0.487931	 0.582029	 2
1463630386.377	 10	 -2.181382	 -2.107144	 3.244935	 1.354461	 -0.782537	 -0.698012	 -0.081190	 0.645988	 -0.470924	 0.595263	 2
1463630386.387	 10	 -2.146572	 -2.471441	 3.037681	 1.357523	 -0.756202	 -0.659034	 -0.083067	 0.645069	 -0.453371	 0.609459	 2
1463630386.397	 10	 -1.910586	 -1.362716	 2.021746	 1.362162	 -0.738040	 -0.626305	 -0.085691	 0.645014	 -0.439282	 0.619391	 2
1463630386.407	 10	 -1.682979	 0.287815	 1.208091	 1.379341	 -0.727869	 -0.599535	 -0.086770	 0.649182	 -0.429276	 0.621897	 2
1463630386.417	 10	 -1.239928	 0.833066	 0.601823	 1.400036	 -0.723014	 -0.579767	 -0.086977	 0.654772	 -0.422837	 0.620417	 2
1463630386.427	 10	 -0.645588	 0.750341	 0.141863	 1.415263	 -0.721895	 -0.568761	 -0.086965	 0.659017	 -0.419809	 0.617975	 2
1463630386.437	 10	 -0.102403	 0.480191	 -0.077466	 1.422707	 -0.722620	 -0.565794	 -0.086653	 0.661177	 -0.419402	 0.615986	 2
1463630386.447	 10	 0.193983	 0.996218	 -0.226584	 1.428820	 -0.724190	 -0.568055	 -0.085205	 0.663133	 -0.420762	 0.613151	 2
1463630386.467	 11	 -0.213688	 2.320976	 -0.460095	 1.465580	 -0.732165	 -0.569974	 -0.079735	 0.674231	 -0.424928	 0.598740	 2
1463630386.477	 11	 -0.693339	 2.926251	 -0.496114	 1.497976	 -0.737528	 -0.562870	 -0.077213	 0.683457	 -0.425515	 0.588100	 2
1463630386.487	 11	 -1.067137	 3.539028	 -0.489219	 1.552009	 -0.735353	 -0.542319	 -0.072100	 0.698452	 -0.420962	 0.574245	 2
1463630386.497	 11	 -1.308445	 3.638452	 -0.370025	 1.599951	 -0.739342	 -0.525343	 -0.069416	 0.711303	 -0.418982	 0.560075	 2
1463630386.507	 11	 -1.442423	 3.106494	 -0.152130	 1.645831	 -0.740659	 -0.506042	 -0.067219	 0.723287	 -0.415593	 0.547375	 2
1463630386.517	 11	 -1.297552	 2.345814	 -0.121036	 1.683543	 -0.740503	 -0.487583	 -0.066085	 0.732909	 -0.411796	 0.537495	 2
1463630386.527	 11	 -0.746736	 1.538486	 -0.198356	 1.709525	 -0.741148	 -0.475028	 -0.065586	 0.739394	 -0.409500	 0.530381	 2
1463630386.537	 11	 0.183176	 0.709414	 -0.187524	 1.719488	 -0.743018	 -0.473716	 -0.064645	 0.741869	 -0.410066	 0.526590	 2
1463630386.547	 11	 1.125194	 0.149695	 -0.135922	 1.714122	 -0.745777	 -0.485626	 -0.062243	 0.740666	 -0.413895	 0.525576	 2
1463630386.557	 11	 1.777621	 -0.244494	 -0.109035	 1.697853	 -0.749104	 -0.507429	 -0.058681	 0.736854	 -0.420170	 0.526365	 2
1463630386.567	 11	 2.241546	 -0.945001	 -0.157960	 1.670803	 -0.752912	 -0.536215	 -0.055133	 0.730334	 -0.428156	 0.529392	 2
1463630386.577	 11	 2.597226	 -1.869408	 -0.325260	 1.630936	 -0.757664	 -0.570321	 -0.053008	 0.720431	 -0.437557	 0.535456	 2
1463630386.587	 11	 2.883057	 -1.983041	 -0.772164	 1.584057	 -0.765031	 -0.608864	 -0.052183	 0.708562	 -0.448789	 0.542039	 2
1463630386.597	 11	 3.032411	 -1.355089	 -1.532838	 1.539377	 -0.778087	 -0.651032	 -0.052164	 0.697203	 -0.462594	 0.545155	 2
1463630386.607	 11	 2.860282	 -0.622455	 -2.215136	 1.500912	 -0.797183	 -0.693981	 -0.053207	 0.687586	 -0.478134	 0.543859	 2
1463630386.617	 11	 2.285948	 0.015440	 -2.484495	 1.471825	 -0.819504	 -0.732325	 -0.055272	 0.680604	 -0.493105	 0.539046	 2
1463630386.627	 11	 1.557604	 0.486391	 -2.370392	 1.453996	 -0.841635	 -0.761768	 -0.057837	 0.676635	 -0.505571	 0.532183	 2
1463630386.637	 11	 1.036714	 0.218816	 -2.078459	 1.441406	 -0.861647	 -0.783105	 -0.061202	 0.673975	 -0.515264	 0.525846	 2
1463630386.647	 11	 0.462916	 -0.454478	 -1.728027	 1.428009	 -0.878777	 -0.796640	 -0.066440	 0.670958	 -0.522050	 0.522365	 2
1463630386.657	 11	 -0.561705	 -0.513064	 -1.421238	 1.423502	 -0.893977	 -0.795517	 -0.073610	 0.669792	 -0.524783	 0.520157	 2
1463630386.667	 11	 -1.392429	 -0.253471	 -1.307144	 1.433242	 -0.908765	 -0.779065	 -0.082028	 0.671659	 -0.523987	 0.517284	 2
1463630386.677	 11	 -1.584693	 -0.177300	 -1.441179	 1.449428	 -0.924633	 -0.756372	 -0.091257	 0.674702	 -0.522206	 0.513567	 2
1463630386.687	 11	 -1.368276	 -0.245645	 -1.684562	 1.463921	 -0.942365	 -0.735478	 -0.101008	 0.677084	 -0.521382	 0.509427	 2
1463630386.697	 11	 -1.017880	 -0.157260	 -1.968151	 1.474704	 -0.962349	 -0.719814	 -0.110753	 0.678464	 -0.522336	 0.504565	 2
1463630386.707	 11	 -0.730067	 0.260829	 -2.279035	 1.484717	 -0.984975	 -0.709327	 -0.119858	 0.679608	 -0.525233	 0.497892	 2
1463630386.717	 11	 -0.663458	 1.057242	 -2.577012	 1.500009	 -1.010498	 -0.700923	 -0.127839	 0.681809	 -0.529700	 0.488070	 2
1463630386.737	 12	 -2.150567	 3.583894	 -2.218693	 1.610988	 -1.059683	 -0.640622	 -0.136372	 0.700878	 -0.534155	 0.452605	 2
1463630386.747	 12	 -1.829618	 2.454672	 -1.750270	 1.676660	 -1.076986	 -0.597173	 -0.139997	 0.710945	 -0.533315	 0.436501	 2
1463630386.767	 13	 -0.605258	 2.555373	 -0.716612	 1.766752	 -1.095438	 -0.546295	 -0.140187	 0.724501	 -0.533689	 0.413065	 2
1463630386.777	 13	 -0.163611	 3.157329	 -0.398325	 1.803762	 -1.099434	 -0.538480	 -0.134384	 0.730998	 -0.535743	 0.400701	 2
1463630386.787	 13	 0.022286	 3.748221	 -0.242041	 1.841247	 -1.102068	 -0.536886	 -0.125709	 0.737932	 -0.538610	 0.386721	 2
1463630386.797	 13	 -0.070577	 4.059191	 -0.078474	 1.882722	 -1.103289	 -0.535298	 -0.115469	 0.745533	 -0.541161	 0.371473	 2
1463630386.807	 13	 -0.337357	 3.850151	 0.174489	 1.925974	 -1.101288	 -0.530643	 -0.104910	 0.753435	 -0.542107	 0.357000	 2
1463630386.817	 13	 -0.626508	 3.606617	 0.208850	 1.971282	 -1.096765	 -0.520969	 -0.095002	 0.761549	 -0.541309	 0.343515	 2
1463630386.827	 13	 -0.866617	 3.358804	 -0.033290	 2.019101	 -1.092740	 -0.505557	 -0.086854	 0.769519	 -0.539634	 0.330292	 2
1463630386.837	 13	 -1.049653	 3.120368	 -0.426116	 2.070945	 -1.091016	 -0.482915	 -0.081182	 0.777230	 -0.537596	 0.316722	 2
1463630386.847	 13	 -1.186846	 2.931277	 -0.889222	 2.127362	 -1.091814	 -0.452913	 -0.077970	 0.784637	 -0.535459	 0.302571	 2
1463630386.857	 13	 -1.225284	 2.195119	 -1.363607	 2.184856	 -1.095484	 -0.415591	 -0.078214	 0.791024	 -0.533433	 0.289157	 2
1463630386.867	 13	 -1.317741	 1.761101	 -1.556546	 2.241150	 -1.100027	 -0.372810	 -0.081269	 0.796423	 -0.531213	 0.277342	 2
1463630386.877	 13	 -1.396687	 1.671744	 -1.443720	 2.297640	 -1.102520	 -0.328339	 -0.084619	 0.801750	 -0.528414	 0.266111	 2
1463630386.887	 13	 -1.350860	 1.704016	 -1.228534	 2.351700	 -1.102492	 -0.286753	 -0.087099	 0.807019	 -0.525302	 0.255327	 2
1463630386.897	 13	 -1.247035	 1.824315	 -1.024758	 2.402221	 -1.100743	 -0.250113	 -0.088368	 0.812112	 -0.522275	 0.244734	 2
1463630386.907	 13	 -1.185818	 2.158774	 -0.786646	 2.450802	 -1.097300	 -0.218668	 -0.087918	 0.817313	 -0.519326	 0.233605	 2
1463630386.917	 13	 -1.116713	 2.705748	 -0.427259	 2.497937	 -1.091603	 -0.194385	 -0.084736	 0.822936	 -0.516362	 0.221283	 2
1463630386.927	 13	 -0.984075	 3.391711	 -0.089513	 2.544135	 -1.084289	 -0.178545	 -0.078262	 0.828945	 -0.513635	 0.207136	 2
1463630386.937	 13	 -0.815912	 4.137181	 0.254872	 2.589705	 -1.076244	 -0.171609	 -0.068322	 0.835115	 -0.511370	 0.190828	 2
1463630386.947	 13	 -0.748808	 4.900406	 0.659985	 2.635085	 -1.066888	 -0.173619	 -0.054655	 0.841502	 -0.509133	 0.172250	 2
1463630386.957	 13	 -0.720777	 5.324232	 1.034570	 2.678687	 -1.056018	 -0.183871	 -0.037894	 0.847837	 -0.506501	 0.152295	 2
1463630386.967	 13	 -0.571294	 4.992999	 1.179393	 2.716315	 -1.045428	 -0.199619	 -0.020440	 0.853236	 -0.503782	 0.133324	 2
1463630386.977	 13	 -0.201674	 3.861109	 1.006844	 2.743541	 -1.038336	 -0.216560	 -0.005547	 0.856710	 -0.502066	 0.118096	 2
1463630386.987	 14	 0.287211	 2.389196	 0.635058	 2.758535	 -1.037070	 -0.231137	 0.004607	 0.857855	 -0.502365	 0.108129	 2
1463630387.007	 14	 0.916142	 0.886914	 0.092313	 2.768032	 -1.048829	 -0.249789	 0.013700	 0.855519	 -0.508189	 0.098202	 2
1463630387.017	 14	 1.174705	 0.469308	 0.397378	 2.761691	 -1.058026	 -0.263631	 0.016964	 0.852948	 -0.512728	 0.096448	 2
1463630387.027	 14	 1.446713	 0.406962	 0.709895	 2.745411	 -1.068316	 -0.286729	 0.021402	 0.849524	 -0.518240	 0.096329	 2
1463630387.037	 14	 1.792454	 0.651436	 0.681450	 2.726873	 -1.081136	 -0.314447	 0.026733	 0.845289	 -0.525027	 0.095493	 2
1463630387.047	 14	 2.218858	 0.862183	 0.581649	 2.707971	 -1.097894	 -0.344982	 0.032412	 0.840005	 -0.533508	 0.093325	 2
1463630387.057	 14	 2.710243	 0.933336	 0.618531	 2.684012	 -1.118597	 -0.382094	 0.038611	 0.833370	 -0.543867	 0.090617	 2
1463630387.067	 14	 3.268315	 0.827203	 0.728853	 2.649099	 -1.143222	 -0.430241	 0.045281	 0.825010	 -0.556339	 0.088290	 2
1463630387.077	 14	 3.782349	 0.424544	 0.851719	 2.596963	 -1.170972	 -0.493151	 0.051800	 0.814731	 -0.570858	 0.087472	 2
1463630387.087	 14	 3.937263	 -0.093003	 0.973450	 2.525470	 -1.198312	 -0.570703	 0.057438	 0.803248	 -0.586151	 0.088996	 2
1463630387.097	 14	 3.263882	 -0.361862	 1.026903	 2.444628	 -1.219783	 -0.653752	 0.062146	 0.792445	 -0.599719	 0.092230	 2
1463630387.107	 14	 1.716928	 -0.312245	 1.083464	 2.379900	 -1.228581	 -0.718975	 0.066334	 0.785508	 -0.607736	 0.096097	 2
1463630387.117	 14	 0.327357	 -0.157772	 1.142828	 2.342806	 -1.225152	 -0.756188	 0.070464	 0.783074	 -0.609756	 0.100134	 2
1463630387.127	 14	 -0.524505	 0.338463	 1.026971	 2.330921	 -1.215054	 -0.770808	 0.075068	 0.783806	 -0.607819	 0.102809	 2
1463630387.137	 14	 -1.279678	 1.306942	 0.510743	 2.350051	 -1.202852	 -0.761656	 0.080273	 0.787366	 -0.602827	 0.101047	 2
1463630387.147	 14	 -1.805856	 1.467594	 0.304732	 2.389395	 -1.188245	 -0.735356	 0.085173	 0.793115	 -0.595258	 0.096864	 2
1463630387.157	 14	 -1.602719	 0.987347	 0.163143	 2.424481	 -1.174273	 -0.709624	 0.088544	 0.798565	 -0.587935	 0.093735	 2
1463630387.167	 14	 -0.996258	 0.243572	 -0.221010	 2.448674	 -1.166169	 -0.688176	 0.088859	 0.802215	 -0.583151	 0.092144	 2
1463630387.177	 14	 -0.399100	 -0.646031	 -0.624556	 2.462000	 -1.165366	 -0.669047	 0.085234	 0.803821	 -0.581415	 0.092538	 2
1463630387.187	 14	 0.028303	 -1.308902	 -0.778323	 2.465148	 -1.169583	 -0.652914	 0.078756	 0.803784	 -0.581973	 0.095061	 2
1463630387.197	 14	 0.302392	 -1.551338	 -0.804308	 2.461033	 -1.176447	 -0.640941	 0.071277	 0.802637	 -0.583902	 0.098747	 2
1463630387.207	 14	 0.469288	 -1.306425	 -0.991056	 2.457949	 -1.185709	 -0.629098	 0.063646	 0.800976	 -0.586588	 0.101498	 2
1463630387.217	 14	 0.453646	 -0.003217	 -1.104553	 2.467993	 -1.196435	 -0.613908	 0.058245	 0.799694	 -0.589198	 0.099710	 2
1463630387.227	 14	 -0.444233	 1.431442	 -0.755131	 2.498946	 -1.200429	 -0.592533	 0.057981	 0.800946	 -0.588652	 0.092807	 2
1463630387.237	 14	 -1.545256	 1.861585	 -0.112742	 2.542335	 -1.191444	 -0.565679	 0.061678	 0.805662	 -0.582992	 0.084995	 2
1463630387.247	 14	 -1.812907	 0.930033	 0.242213	 2.575317	 -1.175446	 -0.543429	 0.065239	 0.811327	 -0.575256	 0.081079	 2
1463630387.257	 14	 -1.401885	 -0.577773	 0.462269	 2.584403	 -1.160184	 -0.531282	 0.065672	 0.815527	 -0.568870	 0.083606	 2
1463630387.267	 14	 -0.552231	 -1.736014	 0.809650	 2.565656	 -1.149900	 -0.535643	 0.064005	 0.816846	 -0.565886	 0.091866	 2
1463630387.277	 14	 0.365570	 -2.167643	 1.060886	 2.523982	 -1.145197	 -0.558239	 0.062314	 0.815117	 -0.566588	 0.103343	 2
1463630387.287	 14	 1.349070	 -1.807672	 0.790297	 2.474072	 -1.148664	 -0.591435	 0.060917	 0.810662	 -0.571167	 0.113511	 2
1463630387.297	 14	 1.964913	 0.039410	 -0.043027	 2.439219	 -1.161912	 -0.625143	 0.061713	 0.804942	 -0.578787	 0.115173	 2
1463630387.307	 14	 1.705510	 0.751635	 -0.641625	 2.428161	 -1.179208	 -0.644198	 0.062367	 0.800250	 -0.586112	 0.110378	 2
1463630387.317	 14	 1.273594	 0.314038	 -0.585451	 2.421993	 -1.193608	 -0.656253	 0.062176	 0.796637	 -0.591804	 0.106167	 2
1463630387.327	 14	 0.705282	 -1.188027	 -0.556113	 2.410495	 -1.203775	 -0.660305	 0.058098	 0.793846	 -0.595751	 0.107305	 2
1463630387.337	 14	 0.121480	 -2.531991	 -0.584851	 2.394540	 -1.209508	 -0.653308	 0.049267	 0.791988	 -0.597685	 0.114452	 2
1463630387.347	 14	 -0.095249	 -2.759125	 -0.606393	 2.379873	 -1.213145	 -0.639440	 0.038566	 0.790682	 -0.598379	 0.123599	 2
1463630387.357	 14	 0.084825	 -2.551538	 -0.655054	 2.366053	 -1.217697	 -0.626552	 0.028298	 0.789088	 -0.599281	 0.131914	 2
1463630387.367	 14	 0.638408	 -2.705337	 -0.812643	 2.344955	 -1.226535	 -0.620838	 0.017674	 0.785916	 -0.602019	 0.139988	 2
1463630387.377	 14	 1.159091	 -3.140972	 -1.127104	 2.313497	 -1.241263	 -0.622167	 0.005229	 0.780638	 -0.607034	 0.148616	 2
1463630387.387	 14	 1.379049	 -3.730172	 -1.472353	 2.274529	 -1.261038	 -0.625566	 -0.010098	 0.773641	 -0.613471	 0.158213	 2
1463630387.397	 14	 1.324103	 -4.226054	 -1.820730	 2.235141	 -1.283021	 -0.623757	 -0.028360	 0.765956	 -0.619685	 0.168812	 2
1463630387.407	 14	 1.201332	 -4.555494	 -1.978328	 2.197110	 -1.306060	 -0.616715	 -0.048682	 0.757836	 -0.625223	 0.180029	 2
1463630387.417	 14	 1.137286	 -4.779770	 -1.984121	 2.157078	 -1.328892	 -0.609136	 -0.069961	 0.749249	 -0.629978	 0.191989	 2
1463630387.427	 14	 1.196768	 -4.659357	 -1.929164	 2.112059	 -1.351648	 -0.606972	 -0.090956	 0.740088	 -0.634385	 0.203844	 2
1463630387.437	 14	 1.320913	 -4.093328	 -1.706497	 2.057447	 -1.373410	 -0.619179	 -0.109700	 0.730632	 -0.638839	 0.214541	 2
1463630387.447	 14	 1.497064	 -3.353096	 -1.494384	 1.988430	 -1.393503	 -0.653446	 -0.124992	 0.721210	 -0.643708	 0.223322	 2
1463630387.457	 14	 1.662750	 -2.675385	 -1.694147	 1.905569	 -1.414518	 -0.708621	 -0.138146	 0.711677	 -0.649484	 0.229352	 2
1463630387.467	 14	 1.801130	 -1.916482	 -2.148699	 1.806920	 -1.438980	 -0.786969	 -0.150172	 0.702013	 -0.656546	 0.231460	 2
1463630387.477	 14	 1.951670	 -1.099905	 -2.565519	 1.669400	 -1.466566	 -0.912291	 -0.160888	 0.692269	 -0.665043	 0.229341	 2
1463630387.487	 14	 2.172264	 -0.417261	 -2.649546	 1.425952	 -1.492994	 -1.151094	 -0.169567	 0.682377	 -0.674842	 0.224049	 2
1463630387.497	 14	 2.412809	 -0.058113	 -2.161245	 0.996840	 -1.506559	 -1.579899	 -0.175210	 0.672216	 -0.685269	 0.218709	 2
1463630387.507	 14	 2.532552	 0.059524	 -1.438606	 0.561513	 -1.499968	 -2.016565	 -0.177786	 0.662149	 -0.695448	 0.215181	 2
1463630387.517	 14	 2.468955	 -0.031588	 -0.682209	 0.329940	 -1.481092	 -2.249018	 -0.177915	 0.652664	 -0.704591	 0.214306	 2
1463630387.527	 14	 2.391817	 -0.636136	 -0.038114	 0.240828	 -1.458504	 -2.334075	 -0.177513	 0.643489	 -0.712195	 0.217233	 2
1463630387.537	 14	 2.359661	 -1.686060	 0.369110	 0.206587	 -1.434782	 -2.354308	 -0.179060	 0.633705	 -0.718183	 0.224875	 2
1463630387.547	 14	 2.235308	 -2.626810	 0.540486	 0.186154	 -1.411454	 -2.350643	 -0.183502	 0.623188	 -0.722574	 0.236329	 2
1463630387.557	 14	 1.889021	 -3.433977	 0.562635	 0.165793	 -1.390865	 -2.338475	 -0.191051	 0.612573	 -0.725011	 0.250226	 2
1463630387.567	 14	 1.314699	 -4.066924	 0.463695	 0.140379	 -1.375582	 -2.324402	 -0.201884	 0.602668	 -0.724989	 0.265377	 2
1463630387.577	 14	 0.720107	 -4.424748	 0.307810	 0.108534	 -1.366591	 -2.312472	 -0.215426	 0.593964	 -0.722555	 0.280556	 2
1463630387.587	 14	 0.347312	 -4.368410	 0.152781	 0.071643	 -1.362225	 -2.305096	 -0.230154	 0.586314	 -0.718611	 0.294726	 2
1463630387.597	 14	 0.242760	 -3.806345	 0.029965	 0.033969	 -1.359653	 -2.302956	 -0.243850	 0.579490	 -0.714553	 0.306826	 2
1463630387.607	 14	 0.322781	 -2.839269	 -0.049126	 0.001297	 -1.356725	 -2.304678	 -0.254532	 0.573579	 -0.711586	 0.316014	 2
1463630387.617	 14	 0.517879	 -1.720121	 -0.085172	 -0.022080	 -1.352090	 -2.308143	 -0.261128	 0.568643	 -0.710457	 0.322038	 2
1463630387.627	 14	 0.765028	 -0.702794	 -0.060806	 -0.033688	 -1.345066	 -2.310355	 -0.263546	 0.564533	 -0.711313	 0.325392	 2
1463630387.637	 14	 1.035539	 0.045529	 -0.014633	 -0.034546	 -1.335390	 -2.310039	 -0.262456	 0.560863	 -0.713923	 0.326900	 2
1463630387.647	 14	 1.304394	 0.249013	 -0.006554	 -0.031026	 -1.323000	 -2.308623	 -0.259678	 0.556769	 -0.717677	 0.327894	 2
1463630387.657	 14	 1.443059	 0.481358	 -0.031178	 -0.026027	 -1.308777	 -2.307855	 -0.255871	 0.552321	 -0.722204	 0.328470	 2
1463630387.667	 14	 1.340554	 0.536388	 -0.110771	 -0.022519	 -1.294924	 -2.309886	 -0.251860	 0.548095	 -0.726848	 0.328406	 2
1463630387.677	 14	 0.948764	 0.001060	 -0.314836	 -0.028548	 -1.284247	 -2.318013	 -0.250159	 0.544202	 -0.730385	 0.328332	 2
1463630387.687	 14	 0.622868	 -0.573969	 -0.540094	 -0.048858	 -1.277214	 -2.334345	 -0.252079	 0.540312	 -0.732468	 0.328649	 2
1463630387.697	 14	 0.500283	 -0.680744	 -0.646596	 -0.074760	 -1.271559	 -2.354469	 -0.255324	 0.536494	 -0.734067	 0.328831	 2
1463630387.707	 14	 0.319726	 -0.863899	 -0.749041	 -0.105055	 -1.267218	 -2.377779	 -0.259614	 0.532876	 -0.735219	 0.328781	 2
1463630387.717	 14	 0.113166	 -1.238551	 -0.721954	 -0.139003	 -1.264704	 -2.401471	 -0.265473	 0.529443	 -0.735374	 0.329302	 2
1463630387.727	 14	 -0.056639	 -1.814748	 -0.605406	 -0.175563	 -1.263889	 -2.422430	 -0.273276	 0.525915	 -0.734145	 0.331309	 2
1463630387.737	 14	 -0.188537	 -2.501650	 -0.485955	 -0.215746	 -1.264410	 -2.440148	 -0.283416	 0.521885	 -0.731354	 0.335309	 2
1463630387.747	 14	 -0.381690	 -3.048017	 -0.372124	 -0.259917	 -1.266639	 -2.455748	 -0.295696	 0.517542	 -0.726945	 0.340978	 2
1463630387.757	 14	 -0.723113	 -3.177645	 -0.198769	 -0.304945	 -1.271975	 -2.469649	 -0.308909	 0.513974	 -0.720953	 0.347321	 2
1463630387.767	 14	 -1.237129	 -2.893228	 0.092911	 -0.346163	 -1.282426	 -2.481526	 -0.321517	 0.512705	 -0.713410	 0.353280	 2
1463630387.777	 14	 -1.829333	 -2.342653	 0.534824	 -0.378274	 -1.299615	 -2.489007	 -0.332271	 0.514907	 -0.704279	 0.358409	 2
1463630387.787	 14	 -2.360800	 -1.597513	 0.990808	 -0.397380	 -1.323652	 -2.490188	 -0.340299	 0.520970	 -0.693879	 0.362380	 2
1463630387.797	 14	 -2.729572	 -0.618924	 1.290881	 -0.401950	 -1.352826	 -2.485864	 -0.344908	 0.530596	 -0.683182	 0.364374	 2
1463630387.807	 14	 -2.928168	 0.427726	 1.365230	 -0.393784	 -1.384696	 -2.479303	 -0.345932	 0.543045	 -0.673265	 0.363520	 2
1463630387.817	 14	 -3.044255	 1.217793	 1.291529	 -0.378628	 -1.417611	 -2.474478	 -0.344295	 0.557289	 -0.664378	 0.359850	 2
1463630387.827	 14	 -3.117065	 1.734980	 1.153097	 -0.363892	 -1.450811	 -2.475975	 -0.341126	 0.572454	 -0.656282	 0.353869	 2
1463630387.837	 14	 -3.110124	 2.136474	 1.080038	 -0.350309	 -1.483865	 -2.482663	 -0.336823	 0.588027	 -0.648747	 0.346268	 2
1463630387.847	 14	 -2.958140	 2.914541	 1.073166	 -0.320902	 -1.515746	 -2.480177	 -0.330082	 0.604102	 -0.642461	 0.336677	 2
1463630387.857	 14	 -2.675785	 4.065496	 1.205046	 -0.170276	 -1.545325	 -2.367095	 -0.319037	 0.621020	 -0.638214	 0.324396	 2
1463630387.867	 14	 -2.332650	 5.316189	 1.474808	 1.493725	 -1.560455	 -0.753086	 -0.302492	 0.638827	 -0.636181	 0.309309	 2
1463630387.877	 14	 -2.139111	 6.233923	 1.823772	 2.256208	 -1.535929	 -0.050792	 -0.280978	 0.657331	 -0.635329	 0.292102	 2
1463630387.897	 14	 -2.250145	 6.833310	 2.444196	 2.402737	 -1.473742	 -0.038924	 -0.229152	 0.695202	 -0.631724	 0.255163	 2
1463630387.887	 14	 -2.139700	 6.726727	 2.165144	 2.358190	 -1.506205	 -0.015053	 -0.256006	 0.676259	 -0.634186	 0.273756	 2
1463630387.907	 14	 -2.330742	 6.114762	 2.620456	 2.431512	 -1.439273	 -0.074043	 -0.202869	 0.713140	 -0.627257	 0.238379	 2
1463630387.917	 14	 -2.265458	 4.495352	 2.711395	 2.442482	 -1.404419	 -0.112840	 -0.180412	 0.728582	 -0.620623	 0.226819	 2
1463630387.927	 14	 -2.315874	 2.720632	 2.605796	 2.443806	 -1.369877	 -0.143601	 -0.163499	 0.741438	 -0.611972	 0.221423	 2
1463630387.937	 14	 -2.600139	 1.095029	 2.288336	 2.449202	 -1.335344	 -0.153307	 -0.152911	 0.752595	 -0.601120	 0.221074	 2
1463630387.947	 14	 -2.831770	 -0.235021	 1.974234	 2.457089	 -1.300764	 -0.145911	 -0.148022	 0.762512	 -0.588324	 0.224810	 2
1463630387.967	 15	 -2.275647	 -1.520473	 1.381919	 2.457771	 -1.240560	 -0.120084	 -0.148538	 0.776927	 -0.563002	 0.239477	 2
1463630387.977	 15	 -1.795123	 -1.394626	 1.036796	 2.452821	 -1.218666	 -0.109973	 -0.150512	 0.781333	 -0.553117	 0.246832	 2
1463630387.987	 15	 -1.481948	 -1.315385	 0.797142	 2.448550	 -1.201387	 -0.100448	 -0.152768	 0.784568	 -0.545013	 0.253132	 2
1463630387.997	 15	 -1.369481	 -1.464529	 0.809695	 2.441480	 -1.185664	 -0.092783	 -0.155275	 0.787112	 -0.537454	 0.259785	 2
1463630388.007	 15	 -1.329923	 -1.585780	 0.972350	 2.429782	 -1.169433	 -0.088546	 -0.157544	 0.789357	 -0.529725	 0.267369	 2
1463630388.017	 15	 -1.241872	 -1.572398	 1.093205	 2.414679	 -1.152851	 -0.087693	 -0.159227	 0.791385	 -0.522001	 0.275447	 2
1463630388.027	 15	 -1.082098	 -1.447045	 1.136676	 2.397950	 -1.136937	 -0.089770	 -0.160160	 0.793126	 -0.514788	 0.283360	 2
1463630388.037	 15	 -0.949488	 -1.143399	 1.114901	 2.382414	 -1.122111	 -0.093324	 -0.160259	 0.794764	 -0.508301	 0.290340	 2
1463630388.047	 15	 -0.841524	 -0.599613	 1.050812	 2.371437	 -1.108440	 -0.097180	 -0.159178	 0.796714	 -0.502678	 0.295337	 2
1463630388.057	 15	 -0.704217	 0.072645	 0.967414	 2.366759	 -1.096241	 -0.101357	 -0.156580	 0.799208	 -0.498181	 0.297598	 2
1463630388.067	 15	 -0.494897	 0.588673	 0.929894	 2.366072	 -1.085729	 -0.107493	 -0.152467	 0.802013	 -0.494940	 0.297596	 2
1463630388.077	 15	 -0.203673	 0.844740	 0.864730	 2.365889	 -1.077544	 -0.116739	 -0.147365	 0.804552	 -0.493101	 0.296364	 2
1463630388.087	 15	 0.104386	 0.865342	 0.750334	 2.363915	 -1.072259	 -0.128886	 -0.142024	 0.806336	 -0.492688	 0.294805	 2
1463630388.097	 15	 0.355327	 0.837647	 0.552857	 2.360596	 -1.070123	 -0.142259	 -0.137066	 0.807261	 -0.493588	 0.293111	 2
1463630388.107	 15	 0.563167	 0.923039	 0.385583	 2.357465	 -1.070773	 -0.156024	 -0.132401	 0.807586	 -0.495640	 0.290888	 2
1463630388.117	 15	 0.773694	 1.085349	 0.265895	 2.354669	 -1.073788	 -0.171077	 -0.127570	 0.807491	 -0.498806	 0.287883	 2
1463630388.127	 15	 0.981947	 1.233707	 0.127979	 2.352279	 -1.079177	 -0.187423	 -0.122570	 0.806981	 -0.503074	 0.284034	 2
1463630388.137	 15	 1.184413	 1.317990	 -0.047785	 2.350112	 -1.087168	 -0.204612	 -0.117685	 0.805945	 -0.508432	 0.279463	 2
1463630388.147	 15	 1.351896	 1.261670	 -0.266117	 2.347811	 -1.097867	 -0.221720	 -0.113414	 0.804254	 -0.514747	 0.274498	 2
1463630388.157	 15	 1.520969	 1.082036	 -0.474953	 2.344043	 -1.111239	 -0.238580	 -0.110183	 0.801724	 -0.521887	 0.269689	 2
1463630388.167	 15	 1.707997	 0.852448	 -0.671620	 2.337568	 -1.127267	 -0.255917	 -0.108061	 0.798242	 -0.529854	 0.265304	 2
1463630388.177	 15	 1.914295	 0.598662	 -0.823919	 2.326929	 -1.145836	 -0.275002	 -0.106969	 0.793722	 -0.538666	 0.261537	 2
1463630388.187	 15	 2.071193	 0.224244	 -0.910833	 2.310004	 -1.166250	 -0.297003	 -0.106980	 0.788125	 -0.548061	 0.258928	 2
1463630388.197	 15	 2.027051	 -0.080908	 -0.914354	 2.287586	 -1.186803	 -0.321074	 -0.107983	 0.781919	 -0.557314	 0.257570	 2
1463630388.207	 15	 1.442224	 0.229388	 -0.749721	 2.270396	 -1.203550	 -0.340545	 -0.108776	 0.777023	 -0.564760	 0.255830	 2
1463630388.217	 15	 0.249952	 1.326853	 -0.230351	 2.276222	 -1.210046	 -0.345658	 -0.106534	 0.776581	 -0.567980	 0.250941	 2
1463630388.227	 15	 -0.296235	 0.986111	 0.228446	 2.290008	 -1.207629	 -0.343377	 -0.102993	 0.778721	 -0.567576	 0.246665	 2
1463630388.237	 15	 -0.139150	 0.072301	 0.561751	 2.288742	 -1.202663	 -0.347918	 -0.100529	 0.779913	 -0.566337	 0.246764	 2
1463630388.247	 15	 0.216406	 -0.518570	 0.773769	 2.269882	 -1.197912	 -0.363850	 -0.098634	 0.779416	 -0.565725	 0.250474	 2
1463630388.257	 15	 0.414333	 -0.807884	 0.705408	 2.243073	 -1.194615	 -0.384650	 -0.097391	 0.777759	 -0.565907	 0.255647	 2
1463630388.267	 15	 0.419828	 -0.877036	 0.558708	 2.216661	 -1.192530	 -0.403619	 -0.097025	 0.775711	 -0.566365	 0.260939	 2
1463630388.287	 16	 0.399080	 -0.469031	 0.492344	 2.172468	 -1.189099	 -0.436951	 -0.095841	 0.772162	 -0.567508	 0.269285	 2
1463630388.297	 16	 0.406726	 -0.208444	 0.495768	 2.154553	 -1.187258	 -0.453322	 -0.094163	 0.770881	 -0.568269	 0.271932	 2
1463630388.307	 16	 0.469345	 0.136280	 0.536798	 2.138699	 -1.185302	 -0.470857	 -0.091431	 0.769912	 -0.569290	 0.273470	 2
1463630388.317	 16	 0.642867	 0.616385	 0.664449	 2.123106	 -1.183159	 -0.493046	 -0.086795	 0.769173	 -0.570944	 0.273611	 2
1463630388.327	 16	 0.694460	 0.706365	 0.919555	 2.105031	 -1.179546	 -0.520418	 -0.080507	 0.768509	 -0.572791	 0.273539	 2
1463630388.337	 16	 0.455333	 0.200931	 1.232399	 2.083835	 -1.172115	 -0.547344	 -0.074276	 0.767954	 -0.573357	 0.275666	 2
1463630388.347	 16	 0.008026	 -0.739033	 1.235007	 2.061875	 -1.161718	 -0.565815	 -0.070672	 0.767329	 -0.571943	 0.281235	 2
1463630388.357	 16	 -0.408241	 -1.443770	 0.980554	 2.044217	 -1.150921	 -0.570875	 -0.070812	 0.766756	 -0.568756	 0.289115	 2
1463630388.367	 16	 -0.415807	 -1.422659	 0.662153	 2.030842	 -1.142286	 -0.569315	 -0.072817	 0.766120	 -0.565428	 0.296730	 2
1463630388.377	 16	 0.029713	 -0.164656	 0.368370	 2.023099	 -1.137886	 -0.571582	 -0.072911	 0.765739	 -0.564153	 0.300099	 2
1463630388.387	 16	 0.769543	 2.468042	 0.263864	 2.026355	 -1.137946	 -0.587045	 -0.066083	 0.766751	 -0.566583	 0.294466	 2
1463630388.407	 17	 0.308028	 4.442700	 -0.865832	 2.099296	 -1.150221	 -0.603949	 -0.042122	 0.775347	 -0.574627	 0.258587	 2
1463630388.417	 17	 -0.112044	 2.715743	 -1.134047	 2.141341	 -1.162066	 -0.592471	 -0.037617	 0.778404	 -0.577696	 0.242775	 2
1463630388.427	 17	 -0.484079	 0.706255	 -1.329620	 2.177749	 -1.170477	 -0.565884	 -0.039632	 0.780749	 -0.577883	 0.234333	 2
1463630388.437	 17	 -0.616713	 -1.003984	 -1.523428	 2.204127	 -1.178981	 -0.530831	 -0.047833	 0.781481	 -0.577108	 0.232262	 2
1463630388.447	 17	 -0.324078	 -2.353145	 -1.474584	 2.213937	 -1.188521	 -0.498142	 -0.060089	 0.779901	 -0.576663	 0.235805	 2
1463630388.457	 17	 0.195451	 -3.028476	 -1.256253	 2.203589	 -1.199476	 -0.478096	 -0.073513	 0.775815	 -0.577508	 0.243293	 2
1463630388.467	 17	 0.791622	 -3.117545	 -0.977714	 2.174600	 -1.211663	 -0.475654	 -0.085807	 0.769684	 -0.580011	 0.252608	 2
1463630388.477	 17	 1.477821	 -2.838328	 -0.771136	 2.127884	 -1.225651	 -0.494286	 -0.095768	 0.761754	 -0.584730	 0.262010	 2
1463630388.487	 17	 2.068030	 -2.519714	 -0.597459	 2.063456	 -1.240860	 -0.535129	 -0.103222	 0.752305	 -0.591608	 0.270893	 2
1463630388.497	 17	 2.411692	 -2.364765	 -0.505222	 1.983138	 -1.255785	 -0.594537	 -0.109071	 0.741745	 -0.599810	 0.279546	 2
1463630388.507	 17	 2.322716	 -2.409521	 -0.552823	 1.895705	 -1.269344	 -0.661321	 -0.114848	 0.730890	 -0.607991	 0.288023	 2
1463630388.517	 17	 1.762502	 -2.750160	 -0.671546	 1.814492	 -1.280909	 -0.718540	 -0.122454	 0.720757	 -0.614343	 0.296810	 2
1463630388.527	 17	 1.085700	 -3.082504	 -0.866978	 1.748524	 -1.291493	 -0.755853	 -0.132790	 0.711854	 -0.618110	 0.305892	 2
1463630388.537	 17	 0.655932	 -3.063657	 -1.081542	 1.696926	 -1.302789	 -0.777358	 -0.144839	 0.704044	 -0.620199	 0.314160	 2
1463630388.547	 17	 0.517702	 -2.777627	 -1.295092	 1.653216	 -1.315672	 -0.792972	 -0.157219	 0.696900	 -0.621881	 0.320743	 2
1463630388.557	 17	 0.645791	 -2.301489	 -1.585927	 1.608770	 -1.331078	 -0.813764	 -0.169041	 0.689878	 -0.624416	 0.324957	 2
1463630388.567	 17	 0.929071	 -1.727973	 -1.879339	 1.554538	 -1.349280	 -0.850204	 -0.179741	 0.682574	 -0.628656	 0.326463	 2
1463630388.577	 17	 1.260920	 -1.138844	 -2.053663	 1.482044	 -1.368818	 -0.911210	 -0.188726	 0.674902	 -0.634758	 0.325535	 2
1463630388.597	 18	 1.753601	 -0.313831	 -2.049210	 1.258056	 -1.403372	 -1.127438	 -0.201087	 0.658733	 -0.651015	 0.319083	 2
1463630388.607	 18	 1.852342	 -0.269866	 -1.960136	 1.105074	 -1.414817	 -1.279760	 -0.205541	 0.650286	 -0.659898	 0.315303	 2
1463630388.617	 18	 1.823419	 -0.421828	 -1.806763	 0.936684	 -1.420999	 -1.446328	 -0.209877	 0.641672	 -0.668347	 0.312283	 2
1463630388.627	 18	 1.676323	 -0.586637	 -1.566154	 0.773846	 -1.422027	 -1.605514	 -0.214215	 0.633329	 -0.675784	 0.310357	 2
1463630388.637	 18	 1.477410	 -0.852550	 -1.354810	 0.629832	 -1.419396	 -1.743261	 -0.218908	 0.625410	 -0.681924	 0.309712	 2
1463630388.647	 18	 1.256879	 -1.116789	 -1.214668	 0.505630	 -1.415030	 -1.858271	 -0.224360	 0.617900	 -0.686772	 0.310172	 2
1463630388.657	 18	 1.024953	 -1.304447	 -1.079043	 0.400492	 -1.410177	 -1.951962	 -0.230446	 0.610948	 -0.690392	 0.311441	 2
1463630388.667	 18	 0.832638	 -1.475120	 -0.931881	 0.312374	 -1.405334	 -2.026760	 -0.236968	 0.604547	 -0.692899	 0.313464	 2
1463630388.677	 18	 0.677415	 -1.675896	 -0.814098	 0.236922	 -1.400735	 -2.086833	 -0.243998	 0.598504	 -0.694421	 0.316287	 2
1463630388.687	 18	 0.545266	 -1.915436	 -0.752297	 0.168652	 -1.396618	 -2.137309	 -0.251795	 0.592604	 -0.695057	 0.319870	 2
1463630388.697	 18	 0.420463	 -2.144678	 -0.734160	 0.103222	 -1.393138	 -2.182545	 -0.260500	 0.586726	 -0.694900	 0.324046	 2
1463630388.707	 18	 0.287303	 -2.320843	 -0.733574	 0.038721	 -1.390456	 -2.224924	 -0.270034	 0.580919	 -0.694010	 0.328580	 2
1463630388.717	 18	 0.173509	 -2.458819	 -0.739196	 -0.025889	 -1.388500	 -2.265871	 -0.280268	 0.575184	 -0.692461	 0.333334	 2
1463630388.727	 18	 0.085787	 -2.492695	 -0.752602	 -0.090791	 -1.387015	 -2.306557	 -0.290839	 0.569574	 -0.690462	 0.338023	 2
1463630388.747	 19	 0.066967	 -2.355904	 -0.817242	 -0.221603	 -1.383486	 -2.390247	 -0.311821	 0.558512	 -0.686155	 0.346443	 2
1463630388.757	 19	 0.127588	 -2.139404	 -0.858386	 -0.285125	 -1.380261	 -2.432418	 -0.321551	 0.552934	 -0.684446	 0.349861	 2
1463630388.767	 19	 0.172124	 -1.734414	 -0.874189	 -0.343572	 -1.376013	 -2.473166	 -0.329979	 0.547716	 -0.683421	 0.352217	 2
1463630388.777	 19	 0.203507	 -1.222629	 -0.835596	 -0.393082	 -1.371139	 -2.509882	 -0.336557	 0.543255	 -0.683197	 0.353334	 2
1463630388.787	 19	 0.269983	 -0.759678	 -0.770052	 -0.432050	 -1.365687	 -2.540789	 -0.341217	 0.539529	 -0.683794	 0.353419	 2
1463630388.797	 19	 0.374162	 -0.452091	 -0.699888	 -0.460724	 -1.359452	 -2.564784	 -0.344308	 0.536192	 -0.685105	 0.352961	 2
1463630388.807	 19	 0.459622	 -0.239348	 -0.662417	 -0.481812	 -1.352493	 -2.583423	 -0.346311	 0.533020	 -0.686965	 0.352191	 2
1463630388.817	 19	 0.521007	 -0.142559	 -0.637538	 -0.497977	 -1.344991	 -2.598386	 -0.347670	 0.529883	 -0.689172	 0.351273	 2
1463630388.827	 19	 0.575704	 -0.302337	 -0.648027	 -0.512709	 -1.336960	 -2.610958	 -0.349228	 0.526385	 -0.691349	 0.350706	 2
1463630388.837	 19	 0.488311	 -0.714892	 -0.666026	 -0.531609	 -1.329097	 -2.624288	 -0.352106	 0.522361	 -0.692848	 0.350887	 2
1463630388.847	 19	 0.123221	 -1.233560	 -0.615451	 -0.559569	 -1.323819	 -2.641683	 -0.357184	 0.518484	 -0.692602	 0.351989	 2
1463630388.857	 19	 -0.450046	 -1.588490	 -0.510384	 -0.599041	 -1.323388	 -2.666732	 -0.364348	 0.515873	 -0.690035	 0.353520	 2
1463630388.867	 19	 -1.009960	 -1.669521	 -0.324017	 -0.648510	 -1.328306	 -2.700572	 -0.372602	 0.515249	 -0.685376	 0.354888	 2
1463630388.877	 19	 -1.358031	 -1.546840	 0.025462	 -0.699776	 -1.337920	 -2.736985	 -0.380484	 0.516683	 -0.679193	 0.356324	 2
1463630388.887	 19	 -1.532403	 -1.279771	 0.408877	 -0.746151	 -1.351191	 -2.770696	 -0.386917	 0.519916	 -0.672169	 0.358011	 2
1463630388.897	 19	 -1.623068	 -0.864470	 0.733259	 -0.785656	 -1.367327	 -2.801093	 -0.391348	 0.524808	 -0.664891	 0.359644	 2
1463630388.907	 19	 -1.678457	 -0.390111	 1.002465	 -0.818495	 -1.385628	 -2.829422	 -0.393546	 0.531242	 -0.657821	 0.360799	 2
1463630388.917	 19	 -1.721643	 -0.020223	 1.243948	 -0.845916	 -1.405911	 -2.856180	 -0.393812	 0.538977	 -0.650893	 0.361600	 2
1463630388.927	 19	 -1.845566	 0.247399	 1.430828	 -0.873961	 -1.428213	 -2.886459	 -0.392702	 0.547892	 -0.643844	 0.362028	 2
1463630388.937	 19	 -2.102612	 0.415902	 1.535881	 -0.918974	 -1.452732	 -2.935678	 -0.390972	 0.558044	 -0.636232	 0.361851	 2
1463630388.947	 19	 -2.505592	 0.500076	 1.540173	 -1.018829	 -1.479060	 -3.040902	 -0.389433	 0.569494	 -0.627625	 0.360700	 2
1463630388.957	 19	 -2.772918	 0.642075	 1.506521	 -1.244635	 -1.504527	 3.009828	 -0.388141	 0.582012	 -0.618199	 0.358384	 2
1463630388.967	 19	 -2.541579	 0.989663	 1.570621	 -1.667323	 -1.523315	 2.577606	 -0.385573	 0.594660	 -0.609418	 0.355419	 2
1463630388.977	 19	 -1.843034	 1.602994	 1.801516	 -2.251517	 -1.531989	 1.978537	 -0.379635	 0.606701	 -0.602967	 0.352451	 2
1463630388.987	 19	 -0.913095	 2.300560	 2.154809	 -2.861530	 -1.533877	 1.346802	 -0.368943	 0.617752	 -0.599818	 0.349974	 2
1463630388.997	 19	 -0.096038	 2.809253	 2.524380	 2.812105	 -1.530254	 0.709743	 -0.353748	 0.627725	 -0.599575	 0.348331	 2
1463630389.007	 19	 0.294172	 3.162282	 2.816286	 2.322817	 -1.516805	 0.189041	 -0.335392	 0.637137	 -0.600841	 0.347214	 2
1463630389.017	 19	 0.196412	 3.350858	 2.967033	 2.062387	 -1.494191	 -0.105117	 -0.315581	 0.646893	 -0.601959	 0.345808	 2
1463630389.027	 19	 -0.254610	 3.261146	 3.173686	 1.962012	 -1.465402	 -0.239068	 -0.295697	 0.657739	 -0.601215	 0.344214	 2
1463630389.037	 19	 -0.772385	 3.143143	 3.265554	 1.943381	 -1.432760	 -0.289778	 -0.276486	 0.669776	 -0.598018	 0.342535	 2
1463630389.047	 19	 -1.268046	 2.878134	 3.188538	 1.964088	 -1.398674	 -0.298661	 -0.258805	 0.682524	 -0.592599	 0.340598	 2
1463630389.057	 19	 -1.696928	 2.753239	 3.099454	 2.002581	 -1.363709	 -0.287591	 -0.242626	 0.695813	 -0.585277	 0.338271	 2
1463630389.067	 19	 -2.056263	 2.876105	 3.030188	 2.050051	 -1.327585	 -0.268156	 -0.226942	 0.709944	 -0.576533	 0.334793	 2
1463630389.077	 19	 -2.227613	 2.651075	 2.877182	 2.096823	 -1.291430	 -0.248123	 -0.212295	 0.723987	 -0.566815	 0.330899	 2
1463630389.097	 20	 -1.977459	 0.823303	 2.471125	 2.154511	 -1.224073	 -0.221075	 -0.191010	 0.746429	 -0.545657	 0.329571	 2
1463630389.107	 20	 -1.571431	 -0.155568	 2.147278	 2.159543	 -1.196190	 -0.216474	 -0.185225	 0.753186	 -0.535732	 0.333757	 2
1463630389.117	 20	 -1.190716	 -0.830297	 1.806233	 2.153129	 -1.173396	 -0.215984	 -0.182063	 0.757152	 -0.527103	 0.340200	 2
1463630389.127	 20	 -1.035272	 -1.159015	 1.567353	 2.142245	 -1.154052	 -0.215808	 -0.180644	 0.759495	 -0.519297	 0.347658	 2
1463630389.137	 20	 -1.000135	 -1.099156	 1.475948	 2.132074	 -1.136074	 -0.214624	 -0.179642	 0.761455	 -0.511841	 0.354872	 2
1463630389.147	 20	 -0.967929	 -0.835451	 1.479187	 2.124024	 -1.118384	 -0.213458	 -0.178082	 0.763630	 -0.504657	 0.361216	 2
1463630389.157	 20	 -0.863611	 -0.451690	 1.493574	 2.118193	 -1.100995	 -0.213760	 -0.175414	 0.766185	 -0.498023	 0.366283	 2
1463630389.167	 20	 -0.634076	 0.034642	 1.475851	 2.113971	 -1.084699	 -0.217490	 -0.171235	 0.769032	 -0.492536	 0.369697	 2
1463630389.177	 20	 -0.340608	 0.559628	 1.387591	 2.111312	 -1.070434	 -0.225378	 -0.165502	 0.772037	 -0.488676	 0.371165	 2
1463630389.187	 20	 -0.039241	 1.015942	 1.219757	 2.110452	 -1.058980	 -0.236773	 -0.158597	 0.775033	 -0.486619	 0.370637	 2
1463630389.197	 20	 0.250472	 1.316553	 0.989827	 2.110740	 -1.050894	 -0.250814	 -0.151152	 0.777722	 -0.486341	 0.368476	 2
1463630389.207	 20	 0.506581	 1.526681	 0.735901	 2.111700	 -1.046327	 -0.266732	 -0.143625	 0.779932	 -0.487697	 0.365006	 2
1463630389.217	 20	 0.678211	 1.707217	 0.473909	 2.114051	 -1.045004	 -0.283197	 -0.136304	 0.781757	 -0.490375	 0.360291	 2
1463630389.227	 20	 0.773099	 1.869172	 0.257170	 2.118548	 -1.046294	 -0.299242	 -0.129231	 0.783387	 -0.494000	 0.354356	 2
1463630389.237	 20	 0.821582	 1.879528	 0.091652	 2.124247	 -1.049417	 -0.314426	 -0.122621	 0.784771	 -0.498132	 0.347799	 2
1463630389.247	 20	 0.887582	 1.763215	 -0.080527	 2.129653	 -1.054298	 -0.328924	 -0.116760	 0.785677	 -0.502678	 0.341166	 2
1463630389.257	 20	 1.005348	 1.594124	 -0.322923	 2.133829	 -1.061649	 -0.342888	 -0.112003	 0.785837	 -0.507864	 0.334648	 2
1463630389.267	 20	 1.143157	 1.411899	 -0.608245	 2.136634	 -1.072115	 -0.356360	 -0.108541	 0.785127	 -0.513915	 0.328155	 2
1463630389.277	 20	 1.260733	 1.206612	 -0.855239	 2.137756	 -1.085466	 -0.369318	 -0.106423	 0.783547	 -0.520722	 0.321834	 2
1463630389.287	 20	 1.352930	 0.987059	 -1.026475	 2.136843	 -1.100923	 -0.382205	 -0.105401	 0.781218	 -0.528052	 0.315832	 2
1463630389.307	 21	 1.342728	 0.242218	 -1.366901	 2.126339	 -1.136662	 -0.405821	 -0.107842	 0.774138	 -0.543267	 0.306498	 2
1463630389.317	 21	 1.024804	 -0.075853	 -1.502444	 2.122150	 -1.155151	 -0.410267	 -0.111862	 0.770224	 -0.549864	 0.303135	 2
1463630389.327	 21	 0.339544	 0.230307	 -1.361474	 2.130122	 -1.170006	 -0.402637	 -0.116271	 0.768108	 -0.554083	 0.299138	 2
1463630389.337	 21	 -0.401048	 0.911808	 -0.819001	 2.154804	 -1.177007	 -0.384245	 -0.118198	 0.769290	 -0.555133	 0.293341	 2
1463630389.347	 21	 -0.741074	 0.694025	 -0.188201	 2.181312	 -1.175821	 -0.364186	 -0.118301	 0.772206	 -0.553381	 0.288917	 2
1463630389.357	 21	 -0.452887	 0.147218	 0.205994	 2.193190	 -1.171628	 -0.354335	 -0.117856	 0.774208	 -0.551231	 0.287846	 2
1463630389.367	 21	 0.052069	 -0.184863	 0.377555	 2.188664	 -1.168361	 -0.357997	 -0.116929	 0.774449	 -0.550375	 0.289211	 2
1463630389.377	 21	 0.413500	 -0.458426	 0.347350	 2.173443	 -1.167300	 -0.370329	 -0.116101	 0.773174	 -0.550919	 0.291909	 2
1463630389.387	 21	 0.556630	 -0.812577	 0.262876	 2.152212	 -1.167952	 -0.385603	 -0.116215	 0.770810	 -0.552150	 0.295764	 2
1463630389.397	 21	 0.529607	 -1.102935	 0.252949	 2.127796	 -1.168766	 -0.400819	 -0.117308	 0.767896	 -0.553264	 0.300787	 2
1463630389.407	 21	 0.389548	 -1.200011	 0.303356	 2.103842	 -1.168549	 -0.413970	 -0.118843	 0.765079	 -0.553775	 0.306373	 2
1463630389.417	 21	 0.268783	 -1.123169	 0.437277	 2.081661	 -1.166535	 -0.425514	 -0.120063	 0.762721	 -0.553582	 0.312072	 2
1463630389.427	 21	 0.199224	 -0.854762	 0.607705	 2.061703	 -1.162631	 -0.437111	 -0.120157	 0.761001	 -0.552955	 0.317302	 2
1463630389.437	 21	 0.199246	 -0.535553	 0.771606	 2.043751	 -1.157084	 -0.449949	 -0.118777	 0.759904	 -0.552171	 0.321785	 2
1463630389.457	 22	 0.568936	 0.265793	 1.275686	 2.007811	 -1.140637	 -0.488666	 -0.109551	 0.759109	 -0.551266	 0.328416	 2
1463630389.467	 22	 0.839772	 0.302555	 1.174554	 1.984578	 -1.132746	 -0.518050	 -0.102626	 0.758118	 -0.552457	 0.330932	 2
1463630389.477	 22	 0.707188	 -0.059752	 0.734309	 1.963043	 -1.127818	 -0.542159	 -0.098058	 0.756512	 -0.553897	 0.333575	 2
1463630389.487	 22	 0.661662	 -0.466364	 0.233210	 1.944113	 -1.126971	 -0.559354	 -0.096570	 0.754305	 -0.555604	 0.336158	 2
1463630389.497	 22	 0.576466	 -1.397991	 -0.227666	 1.920724	 -1.130235	 -0.572437	 -0.099111	 0.750518	 -0.557624	 0.340523	 2
1463630389.517	 23	 -0.917028	 0.872445	 -1.175102	 1.936564	 -1.144600	 -0.541967	 -0.110312	 0.749508	 -0.557448	 0.339589	 2
1463630389.527	 23	 -0.757089	 2.664053	 -1.189664	 1.987584	 -1.152524	 -0.511149	 -0.109936	 0.755070	 -0.557478	 0.327112	 2
1463630389.537	 23	 -0.089609	 3.239300	 -0.942867	 2.034213	 -1.160579	 -0.494815	 -0.105312	 0.760292	 -0.559841	 0.312158	 2
1463630389.547	 23	 0.349863	 2.831839	 -0.778897	 2.067501	 -1.168945	 -0.491105	 -0.099614	 0.763720	 -0.563585	 0.298631	 2
1463630389.557	 23	 0.623363	 1.573555	 -0.819631	 2.084362	 -1.178620	 -0.493839	 -0.096347	 0.764593	 -0.567847	 0.289249	 2
1463630389.567	 23	 0.840703	 -0.190537	 -0.964764	 2.081127	 -1.190571	 -0.500101	 -0.098014	 0.762257	 -0.572323	 0.286014	 2
1463630389.577	 23	 0.914163	 -1.679869	 -1.119943	 2.060741	 -1.204454	 -0.507586	 -0.104698	 0.757179	 -0.576644	 0.288446	 2
1463630389.587	 23	 0.852093	 -2.583019	 -1.165109	 2.030299	 -1.218749	 -0.514545	 -0.114719	 0.750536	 -0.580305	 0.294588	 2
1463630389.597	 23	 0.789601	 -2.940167	 -1.159362	 1.995193	 -1.232663	 -0.521234	 -0.126243	 0.743210	 -0.583288	 0.302452	 2
1463630389.607	 23	 0.906325	 -3.076692	 -1.164846	 1.955031	 -1.246730	 -0.531540	 -0.138108	 0.735260	 -0.586243	 0.310867	 2
1463630389.617	 23	 1.189345	 -3.270975	 -1.147803	 1.903452	 -1.261499	 -0.552022	 -0.150027	 0.726080	 -0.589833	 0.319995	 2
1463630389.627	 23	 1.273078	 -3.519013	 -0.997370	 1.839613	 -1.275300	 -0.582623	 -0.161968	 0.715848	 -0.593448	 0.330374	 2
1463630389.637	 23	 0.948807	 -3.582052	 -0.876823	 1.792620	 -1.284162	 -0.595667	 -0.173974	 0.707696	 -0.593900	 0.340855	 2
1463630389.647	 23	 0.522277	 -3.301804	 -1.124153	 1.744627	 -1.295591	 -0.610353	 -0.186625	 0.699050	 -0.594837	 0.350241	 2
1463630389.657	 23	 0.331312	 -2.953156	 -1.524235	 1.709419	 -1.310257	 -0.615393	 -0.199985	 0.691233	 -0.595680	 0.356887	 2
1463630389.667	 23	 0.413867	 -2.707005	 -1.720896	 1.675039	 -1.327479	 -0.622339	 -0.213351	 0.683386	 -0.597164	 0.361747	 2
1463630389.677	 23	 0.740570	 -2.320861	 -1.874682	 1.629789	 -1.346212	 -0.643823	 -0.225661	 0.675013	 -0.600015	 0.365263	 2
1463630389.687	 23	 1.138414	 -1.878637	 -2.186300	 1.564639	 -1.367479	 -0.690218	 -0.236762	 0.665825	 -0.605056	 0.366781	 2
1463630389.697	 23	 1.461033	 -1.573170	 -2.466562	 1.470139	 -1.390785	 -0.769778	 -0.247153	 0.655683	 -0.612074	 0.366553	 2
1463630389.707	 23	 1.638699	 -1.411415	 -2.529483	 1.338311	 -1.413083	 -0.888814	 -0.256894	 0.644913	 -0.620085	 0.365496	 2
1463630389.717	 23	 1.681143	 -1.309866	 -2.442581	 1.166662	 -1.431334	 -1.048889	 -0.265882	 0.634016	 -0.628217	 0.364246	 2
1463630389.727	 23	 1.606104	 -1.254542	 -2.324179	 0.961851	 -1.444075	 -1.242736	 -0.274322	 0.623379	 -0.635914	 0.362986	 2
1463630389.737	 23	 1.473597	 -1.198761	 -2.165839	 0.740466	 -1.450784	 -1.453556	 -0.282304	 0.613284	 -0.642886	 0.361781	 2
1463630389.747	 23	 1.295398	 -1.144598	 -1.955960	 0.527313	 -1.451882	 -1.656591	 -0.289730	 0.603984	 -0.648952	 0.360722	 2
1463630389.757	 23	 1.098637	 -1.018556	 -1.668516	 0.345683	 -1.448849	 -1.828920	 -0.296334	 0.595787	 -0.653997	 0.359878	 2
1463630389.767	 23	 0.946012	 -1.036244	 -1.382793	 0.202576	 -1.443319	 -1.962804	 -0.302235	 0.588547	 -0.657981	 0.359621	 2
1463630389.777	 23	 0.814465	 -1.094546	 -1.115749	 0.093597	 -1.436694	 -2.061788	 -0.307737	 0.582014	 -0.660922	 0.360194	 2
1463630389.787	 23	 0.734551	 -1.020445	 -0.903343	 0.011474	 -1.429690	 -2.134142	 -0.312605	 0.576163	 -0.663197	 0.361227	 2
1463630389.797	 23	 0.666139	 -0.977387	 -0.713707	 -0.049573	 -1.422690	 -2.185910	 -0.316802	 0.570916	 -0.664991	 0.362600	 2
1463630389.807	 23	 0.538524	 -0.996240	 -0.578485	 -0.096564	 -1.416515	 -2.223424	 -0.320784	 0.566234	 -0.666151	 0.364307	 2
1463630389.817	 23	 0.375592	 -0.998301	 -0.488628	 -0.135546	 -1.411799	 -2.252766	 -0.324794	 0.562202	 -0.666639	 0.366101	 2
1463630389.827	 23	 0.256790	 -0.911230	 -0.410048	 -0.168591	 -1.408358	 -2.276703	 -0.328622	 0.558830	 -0.666682	 0.367765	 2
1463630389.837	 23	 0.230295	 -0.726453	 -0.314311	 -0.194014	 -1.405479	 -2.294606	 -0.331730	 0.556073	 -0.666668	 0.369178	 2
1463630389.847	 23	 0.304479	 -0.486473	 -0.192293	 -0.209192	 -1.402283	 -2.304433	 -0.333662	 0.553750	 -0.666948	 0.370420	 2
1463630389.857	 23	 0.434154	 -0.254043	 -0.062301	 -0.212747	 -1.398157	 -2.304916	 -0.334205	 0.551681	 -0.667719	 0.371627	 2
1463630389.867	 23	 0.505562	 -0.131214	 0.037336	 -0.207614	 -1.393352	 -2.298126	 -0.333761	 0.549765	 -0.668793	 0.372931	 2
1463630389.877	 23	 0.445258	 -0.076306	 0.104449	 -0.198561	 -1.388947	 -2.288013	 -0.332945	 0.548178	 -0.669763	 0.374253	 2
1463630389.887	 23	 0.306372	 0.044917	 0.190981	 -0.186204	 -1.385914	 -2.275510	 -0.331830	 0.547323	 -0.670397	 0.375358	 2
1463630389.897	 23	 0.224672	 0.247250	 0.338519	 -0.166413	 -1.384094	 -2.257343	 -0.329917	 0.547382	 -0.670809	 0.376223	 2
1463630389.917	 24	 0.333060	 0.704111	 0.754277	 -0.090175	 -1.380130	 -2.190566	 -0.322034	 0.549475	 -0.671813	 0.378204	 2
1463630389.927	 24	 0.397099	 0.986201	 0.958839	 -0.033342	 -1.376881	 -2.141987	 -0.315742	 0.551371	 -0.672605	 0.379341	 2
1463630389.947	 25	 0.522978	 1.270117	 1.146893	 0.097935	 -1.366572	 -2.032769	 -0.299695	 0.556116	 -0.674818	 0.381494	 2
1463630389.957	 25	 0.404520	 1.172392	 1.263183	 0.165075	 -1.360519	 -1.976439	 -0.291360	 0.558715	 -0.675494	 0.382954	 2
1463630389.977	 26	 -0.414875	 0.483902	 1.325725	 0.303768	 -1.355780	 -1.851342	 -0.278601	 0.566202	 -0.672250	 0.387140	 2
1463630389.987	 26	 -0.828192	 -0.060305	 1.355167	 0.374018	 -1.358226	 -1.780139	 -0.275984	 0.570648	 -0.667649	 0.390435	 2
1463630389.997	 26	 -1.018098	 -0.367399	 1.464802	 0.450807	 -1.361529	 -1.698455	 -0.274840	 0.575299	 -0.661579	 0.394724	 2
1463630390.007	 26	 -0.996384	 -0.371008	 1.562630	 0.533606	 -1.363142	 -1.609856	 -0.273675	 0.579957	 -0.655078	 0.399531	 2
1463630390.017	 26	 -0.937089	 -0.098202	 1.658439	 0.621265	 -1.362214	 -1.518430	 -0.271420	 0.584928	 -0.648777	 0.404077	 2
1463630390.027	 26	 -0.864110	 0.356476	 1.759019	 0.712997	 -1.358429	 -1.427009	 -0.267368	 0.590592	 -0.642972	 0.407802	 2
1463630390.037	 26	 -0.791865	 0.908774	 1.827475	 0.806147	 -1.351805	 -1.339562	 -0.261166	 0.597155	 -0.637886	 0.410243	 2
1463630390.047	 26	 -0.724306	 1.398113	 1.865545	 0.897186	 -1.342760	 -1.259296	 -0.253071	 0.604520	 -0.633492	 0.411338	 2
1463630390.057	 26	 -0.646247	 1.841767	 1.914821	 0.984319	 -1.331307	 -1.187594	 -0.243165	 0.612562	 -0.629703	 0.411233	 2
1463630390.067	 26	 -0.611171	 2.194320	 1.997728	 1.066879	 -1.317625	 -1.124200	 -0.231726	 0.621153	 -0.626269	 0.410194	 2
1463630390.078	 26	 -0.626603	 2.592613	 2.207261	 1.148484	 -1.301238	 -1.065519	 -0.218519	 0.630614	 -0.622733	 0.408386	 2
1463630390.087	 26	 -0.593068	 2.858727	 2.543029	 1.228094	 -1.280748	 -1.011852	 -0.203265	 0.640805	 -0.618750	 0.406449	 2
1463630390.098	 26	 -0.306872	 3.019236	 2.938494	 1.297416	 -1.254927	 -0.970428	 -0.185730	 0.650822	 -0.614619	 0.405190	 2
1463630390.108	 26	 0.114379	 3.289039	 3.352984	 1.352243	 -1.223394	 -0.946461	 -0.165208	 0.660150	 -0.610899	 0.404611	 2
1463630390.118	 26	 0.442331	 3.548799	 3.664814	 1.396081	 -1.187405	 -0.936902	 -0.141881	 0.668848	 -0.607529	 0.404252	 2
1463630390.128	 26	 0.632050	 3.619346	 3.789579	 1.432308	 -1.149235	 -0.936871	 -0.117029	 0.676802	 -0.604253	 0.403883	 2
1463630390.138	 26	 0.629394	 3.386589	 3.665939	 1.463040	 -1.111605	 -0.941181	 -0.092668	 0.683797	 -0.600766	 0.403626	 2
1463630390.148	 26	 0.444535	 2.960142	 3.306550	 1.490285	 -1.077198	 -0.945034	 -0.070770	 0.689883	 -0.596855	 0.403505	 2
1463630390.158	 26	 0.187790	 2.581711	 2.792633	 1.516041	 -1.047839	 -0.946193	 -0.052165	 0.695422	 -0.592661	 0.403013	 2
1463630390.168	 26	 -0.118189	 2.162035	 2.291549	 1.540932	 -1.023672	 -0.943411	 -0.037155	 0.700609	 -0.588152	 0.402299	 2
1463630390.178	 26	 -0.299761	 1.870709	 1.792708	 1.565241	 -1.004605	 -0.937655	 -0.025287	 0.705599	 -0.583666	 0.401029	 2
1463630390.188	 26	 -0.345052	 1.868052	 1.408337	 1.588915	 -0.989669	 -0.931566	 -0.015289	 0.710450	 -0.579669	 0.398762	 2
1463630390.198	 26	 -0.212774	 2.037346	 1.193477	 1.612074	 -0.977184	 -0.927559	 -0.005650	 0.715199	 -0.576385	 0.395272	 2
1463630390.208	 26	 0.129830	 2.295827	 0.895552	 1.633175	 -0.967437	 -0.929036	 0.004344	 0.719491	 -0.574589	 0.390079	 2
1463630390.218	 26	 0.489010	 2.407826	 0.644074	 1.650552	 -0.960708	 -0.936920	 0.014507	 0.722920	 -0.574562	 0.383478	 2
1463630390.228	 26	 0.847712	 2.331265	 0.498492	 1.662843	 -0.956151	 -0.950878	 0.024666	 0.725186	 -0.576089	 0.376323	 2
1463630390.238	 26	 1.078642	 1.991096	 0.470935	 1.668534	 -0.952452	 -0.969463	 0.034323	 0.726020	 -0.578658	 0.369961	 2
1463630390.248	 26	 1.077491	 1.690588	 0.538489	 1.670216	 -0.948371	 -0.989017	 0.043309	 0.725987	 -0.581326	 0.364866	 2
1463630390.258	 26	 0.922909	 1.442637	 0.604670	 1.671121	 -0.943466	 -1.006467	 0.051588	 0.725764	 -0.583407	 0.360889	 2
1463630390.268	 26	 0.711135	 0.937636	 0.548527	 1.670836	 -0.938503	 -1.020419	 0.058269	 0.725339	 -0.584856	 0.358373	 2
1463630390.278	 26	 0.492144	 0.323619	 0.416828	 1.667533	 -0.934626	 -1.030248	 0.062194	 0.724447	 -0.585887	 0.357834	 2
1463630390.288	 26	 0.324729	 -0.100273	 0.416473	 1.662057	 -0.930906	 -1.037031	 0.064323	 0.723236	 -0.586485	 0.358924	 2
1463630390.298	 26	 0.112652	 -0.551161	 0.488727	 1.654952	 -0.926372	 -1.040525	 0.065061	 0.721814	 -0.586387	 0.361804	 2
1463630390.308	 26	 -0.117597	 -1.171654	 0.486024	 1.645177	 -0.921403	 -1.040190	 0.063791	 0.719999	 -0.585597	 0.366889	 2
1463630390.318	 26	 -0.372818	 -1.845574	 0.439345	 1.631935	 -0.916715	 -1.035648	 0.059908	 0.717634	 -0.584184	 0.374355	 2
1463630390.328	 26	 -0.641960	 -2.354155	 0.452942	 1.616738	 -0.911971	 -1.026593	 0.053883	 0.714950	 -0.581911	 0.383826	 2
1463630390.338	 26	 -0.826379	 -2.836920	 0.540645	 1.599488	 -0.906534	 -1.014108	 0.046322	 0.711826	 -0.578781	 0.395183	 2
1463630390.348	 26	 -0.910247	 -3.321658	 0.690335	 1.578676	 -0.899885	 -0.999874	 0.037602	 0.707839	 -0.574978	 0.408596	 2
1463630390.358	 26	 -0.997092	 -3.791217	 0.878559	 1.554113	 -0.891604	 -0.984243	 0.027984	 0.702835	 -0.570416	 0.424105	 2
1463630390.368	 26	 -1.064650	 -4.269126	 1.096378	 1.525962	 -0.881545	 -0.967085	 0.017574	 0.696735	 -0.564954	 0.441677	 2
1463630390.388	 27	 -1.021612	 -5.409235	 2.004081	 1.454411	 -0.851980	 -0.930660	 -0.004228	 0.679521	 -0.550746	 0.484677	 2
1463630390.398	 27	 -1.034855	 -5.755863	 2.306845	 1.412458	 -0.830978	 -0.910809	 -0.014647	 0.668308	 -0.541407	 0.509930	 2
1463630390.408	 27	 -1.196575	 -6.030435	 2.219372	 1.369275	 -0.810850	 -0.888360	 -0.026161	 0.656028	 -0.531113	 0.535595	 2
1463630390.418	 27	 -1.455444	 -6.211995	 2.012112	 1.326235	 -0.793777	 -0.862297	 -0.039492	 0.643082	 -0.519924	 0.560861	 2
1463630390.428	 27	 -1.695004	 -6.361794	 1.792191	 1.283773	 -0.780283	 -0.833062	 -0.054549	 0.629621	 -0.507943	 0.585316	 2
1463630390.438	 27	 -1.901685	 -6.626998	 1.658303	 1.240499	 -0.769888	 -0.801237	 -0.071281	 0.615214	 -0.495100	 0.609349	 2
1463630390.448	 27	 -2.021591	 -6.889741	 1.605745	 1.195649	 -0.761617	 -0.767461	 -0.089243	 0.599539	 -0.481262	 0.633227	 2
1463630390.458	 27	 -2.117996	 -6.992397	 1.637602	 1.150016	 -0.754789	 -0.732318	 -0.107731	 0.582773	 -0.466433	 0.656666	 2
1463630390.468	 27	 -2.297817	 -6.807598	 1.821001	 1.107394	 -0.748457	 -0.694092	 -0.125928	 0.566018	 -0.450042	 0.679138	 2
1463630390.478	 27	 -2.420698	 -6.366204	 2.063844	 1.070664	 -0.741826	 -0.652604	 -0.142910	 0.550281	 -0.432097	 0.700043	 2
1463630390.488	 27	 -2.476016	 -5.826338	 2.272910	 1.040502	 -0.734637	 -0.608757	 -0.158236	 0.536000	 -0.413011	 0.719088	 2
1463630390.498	 27	 -2.455390	 -5.169327	 2.386486	 1.017015	 -0.727101	 -0.564013	 -0.171699	 0.523513	 -0.393477	 0.735955	 2
1463630390.508	 27	 -2.393612	 -4.504850	 2.372947	 0.999570	 -0.719812	 -0.519847	 -0.183450	 0.512909	 -0.374230	 0.750482	 2
1463630390.518	 27	 -2.325318	 -3.891685	 2.179826	 0.986928	 -0.713854	 -0.477635	 -0.193991	 0.504020	 -0.356007	 0.762621	 2
1463630390.528	 27	 -2.274220	 -3.567451	 2.031060	 0.976759	 -0.709423	 -0.437461	 -0.203935	 0.496058	 -0.338772	 0.773027	 2
1463630390.538	 27	 -2.261154	 -3.230806	 1.964805	 0.969094	 -0.705808	 -0.398202	 -0.213343	 0.488957	 -0.322048	 0.782107	 2
1463630390.548	 27	 -2.236801	 -2.793953	 1.934553	 0.965098	 -0.702582	 -0.359462	 -0.222020	 0.483172	 -0.305790	 0.789775	 2
1463630390.558	 27	 -2.071759	 -2.336743	 1.835057	 0.964342	 -0.699363	 -0.322678	 -0.229615	 0.478744	 -0.290513	 0.796042	 2
1463630390.568	 27	 -1.703272	 -1.956751	 1.729875	 0.964725	 -0.695255	 -0.290304	 -0.235542	 0.475193	 -0.276840	 0.801294	 2
1463630390.578	 27	 -1.184702	 -1.716040	 1.692429	 0.964033	 -0.688837	 -0.263652	 -0.239228	 0.471882	 -0.264793	 0.806215	 2
1463630390.588	 27	 -0.634238	 -1.371419	 1.769710	 0.962540	 -0.678933	 -0.242667	 -0.240159	 0.469004	 -0.254172	 0.811021	 2
1463630390.598	 27	 -0.099599	 -0.837838	 1.937344	 0.962951	 -0.664736	 -0.226392	 -0.237893	 0.467607	 -0.244764	 0.815378	 2
1463630390.608	 27	 0.460197	 -0.415879	 2.122905	 0.964973	 -0.645875	 -0.214762	 -0.232350	 0.467594	 -0.236431	 0.819433	 2
1463630390.618	 27	 0.994690	 -0.202956	 2.366424	 0.966917	 -0.622047	 -0.207372	 -0.223701	 0.468209	 -0.228735	 0.823662	 2
1463630390.628	 27	 1.440344	 -0.124174	 2.703255	 0.968231	 -0.592945	 -0.202691	 -0.212216	 0.468998	 -0.220915	 0.828373	 2
1463630390.638	 27	 1.772155	 -0.185566	 3.024852	 0.968408	 -0.559038	 -0.199437	 -0.198421	 0.469523	 -0.212481	 0.833684	 2
1463630390.658	 28	 2.042673	 -0.732346	 3.268929	 0.961099	 -0.483463	 -0.194638	 -0.167657	 0.467328	 -0.193791	 0.846133	 2
1463630390.668	 28	 2.024270	 -1.143677	 3.154422	 0.951569	 -0.445666	 -0.192659	 -0.152573	 0.463535	 -0.184138	 0.853200	 2
1463630390.678	 28	 1.934432	 -1.476646	 2.963466	 0.938358	 -0.409768	 -0.190728	 -0.138490	 0.457965	 -0.174728	 0.860557	 2
1463630390.688	 28	 1.805866	 -1.626755	 2.745773	 0.923156	 -0.376327	 -0.188597	 -0.125541	 0.451327	 -0.165754	 0.867796	 2
1463630390.698	 28	 1.671759	 -1.604453	 2.540390	 0.907832	 -0.345402	 -0.186166	 -0.113623	 0.444450	 -0.157319	 0.874531	 2
1463630390.708	 28	 1.537031	 -1.528617	 2.383471	 0.893325	 -0.316722	 -0.183317	 -0.102589	 0.437780	 -0.149352	 0.880635	 2
1463630390.718	 28	 1.433481	 -1.449289	 2.280665	 0.879560	 -0.289616	 -0.179821	 -0.092217	 0.431307	 -0.141582	 0.886242	 2
1463630390.728	 28	 1.393145	 -1.276894	 2.130217	 0.867306	 -0.264027	 -0.176516	 -0.082267	 0.425440	 -0.134383	 0.891165	 2
1463630390.738	 28	 1.434829	 -1.190432	 2.043266	 0.855900	 -0.239154	 -0.173748	 -0.072374	 0.419906	 -0.127697	 0.895620	 2
1463630390.748	 28	 1.599219	 -1.110688	 1.959447	 0.844943	 -0.214030	 -0.172309	 -0.061979	 0.414541	 -0.121665	 0.899729	 2
1463630390.758	 28	 1.824232	 -1.074728	 1.875759	 0.833996	 -0.188120	 -0.172793	 -0.050759	 0.409133	 -0.116444	 0.903590	 2
1463630390.768	 28	 2.112395	 -0.996434	 1.788718	 0.823395	 -0.161049	 -0.175625	 -0.038452	 0.403797	 -0.112176	 0.907131	 2
1463630390.778	 28	 2.424856	 -1.030437	 1.772892	 0.812437	 -0.132036	 -0.180659	 -0.024788	 0.398137	 -0.108646	 0.910532	 2
1463630390.788	 28	 2.714077	 -0.981689	 1.718605	 0.801566	 -0.101221	 -0.187784	 -0.009845	 0.392291	 -0.105864	 0.913676	 2
1463630390.798	 28	 2.993696	 -0.911817	 1.640085	 0.791581	 -0.068902	 -0.197144	 0.006292	 0.386566	 -0.103966	 0.916361	 2
1463630390.818	 29	 3.093615	 -1.225841	 1.644819	 0.768634	 -0.001578	 -0.217944	 0.040048	 0.372782	 -0.101117	 0.921523	 2
1463630390.828	 29	 2.772116	 -1.325587	 1.693584	 0.755860	 0.030738	 -0.225542	 0.055712	 0.365003	 -0.098943	 0.924056	 2
1463630390.838	 29	 2.403340	 -1.688177	 1.705144	 0.740231	 0.060613	 -0.230023	 0.069555	 0.355927	 -0.096050	 0.926959	 2
1463630390.848	 29	 2.031872	 -2.153004	 1.697659	 0.719965	 0.087789	 -0.231549	 0.081445	 0.344819	 -0.092654	 0.930528	 2
1463630390.858	 29	 1.630654	 -2.540525	 1.631469	 0.695302	 0.111701	 -0.230252	 0.091209	 0.331879	 -0.088940	 0.934680	 2
1463630390.868	 29	 1.235099	 -2.784061	 1.475979	 0.667599	 0.131590	 -0.226804	 0.098714	 0.317797	 -0.085279	 0.939142	 2
1463630390.878	 29	 0.963607	 -2.943106	 1.288224	 0.637870	 0.147815	 -0.222372	 0.104379	 0.302989	 -0.082064	 0.943699	 2
1463630390.888	 29	 0.838256	 -2.924652	 1.142411	 0.607746	 0.161666	 -0.217803	 0.109004	 0.288100	 -0.079351	 0.948061	 2
1463630390.898	 29	 0.843098	 -2.740143	 1.067351	 0.579119	 0.174621	 -0.213424	 0.113390	 0.273923	 -0.076930	 0.951940	 2
1463630390.908	 29	 0.968989	 -2.500321	 1.041843	 0.552787	 0.188097	 -0.209529	 0.118261	 0.260745	 -0.074673	 0.955223	 2
1463630390.918	 29	 1.142170	 -2.226286	 1.059937	 0.529198	 0.202909	 -0.206091	 0.124000	 0.248742	 -0.072426	 0.957865	 2
1463630390.928	 29	 1.340894	 -1.998852	 1.115743	 0.508020	 0.219567	 -0.202855	 0.130793	 0.237753	 -0.070024	 0.959929	 2
1463630390.938	 29	 1.557584	 -1.815019	 1.179512	 0.488715	 0.238321	 -0.199742	 0.138723	 0.227520	 -0.067440	 0.961479	 2
1463630390.948	 29	 1.780652	 -1.642853	 1.250578	 0.471126	 0.259308	 -0.196675	 0.147835	 0.217970	 -0.064637	 0.962526	 2
1463630390.958	 29	 1.992879	 -1.515251	 1.331981	 0.454858	 0.282535	 -0.193508	 0.158095	 0.208932	 -0.061580	 0.963100	 2
1463630390.968	 29	 2.134479	 -1.444737	 1.432652	 0.439158	 0.307603	 -0.189747	 0.169236	 0.200116	 -0.058146	 0.963292	 2
1463630390.978	 29	 2.156434	 -1.360385	 1.486534	 0.423856	 0.333407	 -0.185114	 0.180697	 0.191548	 -0.054351	 0.963174	 2
1463630390.988	 29	 2.026477	 -1.260451	 1.427847	 0.409257	 0.358199	 -0.179916	 0.191684	 0.183475	 -0.050502	 0.962831	 2
1463630390.998	 29	 1.747297	 -1.248158	 1.250278	 0.394970	 0.380074	 -0.174741	 0.201330	 0.175774	 -0.047102	 0.962471	 2
1463630391.008	 29	 1.394646	 -1.364885	 0.998611	 0.379941	 0.397832	 -0.170164	 0.209080	 0.167946	 -0.044626	 0.962335	 2
1463630391.018	 29	 1.067181	 -1.576308	 0.752238	 0.363313	 0.411447	 -0.166484	 0.214923	 0.159532	 -0.043277	 0.962541	 2
1463630391.028	 29	 0.795392	 -1.807597	 0.575536	 0.344544	 0.421640	 -0.163447	 0.219160	 0.150237	 -0.042891	 0.963098	 2
1463630391.038	 29	 0.568250	 -1.903476	 0.462585	 0.324487	 0.429111	 -0.160626	 0.222102	 0.140463	 -0.043076	 0.963891	 2
1463630391.058	 30	 0.375243	 -1.706500	 0.266801	 0.286195	 0.439045	 -0.156319	 0.225748	 0.121933	 -0.044467	 0.965501	 2
1463630391.068	 30	 0.424399	 -1.415655	 0.206199	 0.270778	 0.443552	 -0.155213	 0.227502	 0.114377	 -0.045337	 0.965974	 2
1463630391.078	 30	 0.557367	 -1.028057	 0.174544	 0.259288	 0.449043	 -0.154791	 0.229856	 0.108589	 -0.046048	 0.966051	 2
1463630391.088	 30	 0.753608	 -0.591572	 0.163042	 0.252377	 0.456236	 -0.154976	 0.233164	 0.104859	 -0.046430	 0.965652	 2
1463630391.098	 30	 0.998407	 -0.265863	 0.149020	 0.249447	 0.465684	 -0.155912	 0.237682	 0.102846	 -0.046570	 0.964760	 2
1463630391.108	 30	 1.218856	 -0.121986	 0.131388	 0.248757	 0.477341	 -0.157648	 0.243348	 0.101695	 -0.046682	 0.963463	 2
1463630391.118	 30	 1.316993	 -0.094934	 0.088154	 0.248950	 0.490222	 -0.160168	 0.249650	 0.100794	 -0.046976	 0.961930	 2
1463630391.128	 30	 1.216126	 -0.137821	 0.000175	 0.249267	 0.502435	 -0.163390	 0.255659	 0.099880	 -0.047631	 0.960414	 2
1463630391.138	 30	 0.948215	 -0.257173	 -0.139283	 0.249005	 0.512096	 -0.167417	 0.260463	 0.098701	 -0.048919	 0.959179	 2
1463630391.148	 30	 0.593685	 -0.412445	 -0.280453	 0.247562	 0.518125	 -0.172100	 0.263531	 0.097055	 -0.050929	 0.958404	 2
1463630391.158	 30	 0.230024	 -0.512000	 -0.368803	 0.245022	 0.520375	 -0.176924	 0.264768	 0.095072	 -0.053418	 0.958126	 2
1463630391.168	 30	 -0.107294	 -0.514343	 -0.388269	 0.241935	 0.519189	 -0.181172	 0.264319	 0.093100	 -0.055944	 0.958300	 2
1463630391.178	 30	 -0.354537	 -0.447624	 -0.381232	 0.238980	 0.515361	 -0.184635	 0.262570	 0.091454	 -0.058258	 0.958801	 2
1463630391.188	 30	 -0.470460	 -0.371693	 -0.370990	 0.236531	 0.510107	 -0.187577	 0.260126	 0.090208	 -0.060351	 0.959455	 2
1463630391.198	 30	 -0.447896	 -0.341954	 -0.367713	 0.234463	 0.504753	 -0.190444	 0.257637	 0.089166	 -0.062360	 0.960096	 2
1463630391.208	 30	 -0.317923	 -0.384921	 -0.374576	 0.232322	 0.500432	 -0.193634	 0.255648	 0.087990	 -0.064460	 0.960597	 2
1463630391.218	 30	 -0.126405	 -0.502515	 -0.379470	 0.229398	 0.497845	 -0.197364	 0.254478	 0.086268	 -0.066800	 0.960904	 2
1463630391.228	 30	 0.103553	 -0.611746	 -0.388883	 0.225611	 0.497404	 -0.201774	 0.254326	 0.083915	 -0.069430	 0.960966	 2
1463630391.238	 30	 0.323563	 -0.608912	 -0.349207	 0.221666	 0.499245	 -0.206502	 0.255261	 0.081302	 -0.072082	 0.960748	 2
1463630391.248	 30	 0.459325	 -0.437057	 -0.214456	 0.226560	 0.516001	 -0.214258	 0.263746	 0.081563	 -0.074047	 0.958281	 2
1463630391.258	 30	 0.495663	 -0.117895	 -0.042346	 0.225584	 0.520610	 -0.216477	 0.265992	 0.080498	 -0.074926	 0.957682	 2
1463630391.268	 30	 0.473412	 0.252244	 0.095578	 0.227457	 0.525455	 -0.217004	 0.268387	 0.081002	 -0.074598	 0.956996	 2
1463630391.278	 30	 0.358002	 0.577794	 0.207254	 0.231955	 0.529709	 -0.216014	 0.270534	 0.083004	 -0.073224	 0.956326	 2
1463630391.288	 30	 0.111892	 0.803687	 0.310615	 0.238133	 0.532129	 -0.213279	 0.271790	 0.086167	 -0.070910	 0.955865	 2
1463630391.298	 30	 -0.207535	 0.879751	 0.403628	 0.244474	 0.531821	 -0.208637	 0.271660	 0.089848	 -0.067852	 0.955785	 2
1463630391.308	 30	 -0.555501	 0.789981	 0.496416	 0.251302	 0.530144	 -0.202976	 0.270829	 0.093988	 -0.064342	 0.955865	 2
1463630391.318	 30	 -0.894713	 0.515136	 0.592730	 0.252861	 0.523700	 -0.194259	 0.267403	 0.096318	 -0.060436	 0.956852	 2
1463630391.328	 30	 -1.156702	 0.115454	 0.665895	 0.249901	 0.514685	 -0.183862	 0.262525	 0.096830	 -0.056502	 0.958390	 2
1463630391.338	 30	 -1.292896	 -0.277453	 0.697530	 0.242598	 0.504087	 -0.172626	 0.256731	 0.095402	 -0.052805	 0.960312	 2
1463630391.348	 30	 -1.310373	 -0.587979	 0.696924	 0.232222	 0.493173	 -0.161465	 0.250722	 0.092427	 -0.049493	 0.962365	 2
1463630391.358	 30	 -1.233320	 -0.774285	 0.704111	 0.219720	 0.482485	 -0.150535	 0.244803	 0.088306	 -0.046459	 0.964425	 2
1463630391.368	 30	 -1.028499	 -0.814038	 0.731800	 0.206753	 0.473361	 -0.139976	 0.239669	 0.083761	 -0.043481	 0.966257	 2
1463630391.378	 30	 -0.706414	 -0.676322	 0.785696	 0.194868	 0.467162	 -0.129741	 0.236015	 0.079506	 -0.040296	 0.967653	 2
1463630391.388	 30	 -0.397391	 -0.367321	 0.840235	 0.185813	 0.464093	 -0.119640	 0.233966	 0.076435	 -0.036634	 0.968543	 2
1463630391.398	 30	 -0.153328	 -0.014647	 0.877628	 0.180338	 0.463605	 -0.109662	 0.233258	 0.074968	 -0.032466	 0.968977	 2
1463630391.408	 30	 0.039255	 0.284990	 0.913909	 0.178008	 0.465164	 -0.099686	 0.233603	 0.074948	 -0.027827	 0.969040	 2
1463630391.418	 30	 0.156667	 0.494361	 0.939348	 0.177997	 0.468125	 -0.089655	 0.234656	 0.076019	 -0.022824	 0.968833	 2
1463630391.428	 30	 0.135877	 0.616693	 0.933207	 0.179400	 0.471268	 -0.079614	 0.235803	 0.077782	 -0.017645	 0.968522	 2
1463630391.438	 30	 0.076601	 0.549379	 0.867019	 0.180774	 0.473737	 -0.070003	 0.236629	 0.079512	 -0.012710	 0.968258	 2
1463630391.448	 30	 0.049295	 0.490324	 0.779315	 0.181717	 0.475759	 -0.061246	 0.237260	 0.080952	 -0.008262	 0.968032	 2
1463630391.458	 30	 -0.026965	 0.489655	 0.656344	 0.183186	 0.476945	 -0.053606	 0.237526	 0.082540	 -0.004334	 0.967858	 2
1463630391.468	 30	 -0.115567	 0.366660	 0.527014	 0.184260	 0.477051	 -0.047240	 0.237314	 0.083813	 -0.001121	 0.967810	 2
