% Gyrometer data recorded with 'snsrlog'
% 
% 
% Label description:
% 	 0: Default Label
% 	 1: still_drop
% 	 2: walk_drop
% 	 3: other
% 	 4: dtw_same
% 	 5: dtw_diff
% 	 6: delete
% 	 7: steal
% 
% Column description:
% 	 1: Seconds.milliseconds since 1970
% 	 2: Number of skipped measurements
% 	 3: Gyro X
% 	 4: Gyro Y
% 	 5: Gyro Z
% 	 6: Roll of the device
% 	 7: Pitch of the device
% 	 8: Yaw of the device
% 	 9: Quaternion X
% 	 10: Quaternion Y
% 	 11: Quaternion Z
% 	 12: Quaternion W
% 	 13: Label used for the current sample
% 
% 
1463569399.583	 0	 -0.693450	 0.754349	 1.643331	 0.185504	 0.637981	 0.081645	 0.308411	 0.100617	 0.067608	 0.943498	 1
1463569399.593	 0	 -1.726735	 1.079395	 1.461384	 0.182445	 0.625877	 0.103433	 0.301685	 0.102404	 0.076985	 0.944761	 1
1463569399.603	 1	 -2.398904	 0.644528	 1.210604	 0.178535	 0.606146	 0.123793	 0.291434	 0.103311	 0.085359	 0.947157	 1
1463569399.623	 1	 -2.874916	 -0.150175	 0.259891	 0.164331	 0.551722	 0.152049	 0.264674	 0.099359	 0.095123	 0.954477	 1
1463569399.633	 1	 -2.614411	 -0.437036	 -0.177746	 0.158724	 0.525021	 0.156043	 0.251935	 0.096493	 0.095546	 0.958170	 1
1463569399.643	 1	 -2.189924	 -0.559818	 -0.363764	 0.153019	 0.501756	 0.156388	 0.240988	 0.093151	 0.094365	 0.961427	 1
1463569399.653	 1	 -1.751966	 -0.554013	 -0.266276	 0.147644	 0.482926	 0.156099	 0.232162	 0.089991	 0.093085	 0.964022	 1
1463569399.663	 1	 -1.363444	 -0.499047	 -0.024375	 0.141768	 0.468379	 0.157500	 0.225335	 0.086887	 0.092714	 0.965960	 1
1463569399.673	 1	 -1.055332	 -0.276229	 0.172182	 0.136943	 0.457404	 0.160657	 0.220106	 0.084571	 0.093431	 0.967301	 1
1463569399.683	 1	 -0.847940	 0.124185	 0.324374	 0.135094	 0.448931	 0.165165	 0.215893	 0.083897	 0.095208	 0.968136	 1
1463569399.693	 1	 -0.692744	 0.557613	 0.461342	 0.137159	 0.442291	 0.170977	 0.212324	 0.085297	 0.098085	 0.968515	 1
1463569399.713	 2	 -0.575043	 1.298631	 0.465081	 0.151998	 0.431892	 0.183983	 0.205937	 0.093476	 0.105669	 0.968342	 1
1463569399.723	 2	 -0.607656	 1.703280	 0.371080	 0.165828	 0.426628	 0.189232	 0.202382	 0.100512	 0.109471	 0.967964	 1
1463569399.733	 2	 -0.667787	 2.058861	 0.393031	 0.183367	 0.420846	 0.194593	 0.198315	 0.109318	 0.113634	 0.967372	 1
1463569399.743	 2	 -0.719979	 2.281520	 0.422201	 0.203240	 0.414732	 0.200614	 0.193851	 0.119283	 0.118269	 0.966543	 1
1463569399.753	 2	 -0.763427	 2.402415	 0.355496	 0.224839	 0.408148	 0.206308	 0.188999	 0.130007	 0.122812	 0.965554	 1
1463569399.763	 2	 -0.734846	 2.389256	 0.312494	 0.246716	 0.401648	 0.211659	 0.184117	 0.140809	 0.127130	 0.964423	 1
1463569399.773	 2	 -0.756157	 2.034355	 0.204932	 0.266589	 0.395124	 0.216153	 0.179346	 0.150539	 0.130763	 0.963366	 1
1463569399.783	 2	 -1.006785	 1.732022	 0.066818	 0.282992	 0.386389	 0.219948	 0.173738	 0.158426	 0.133546	 0.962747	 1
1463569399.793	 2	 -1.298187	 1.577918	 -0.034392	 0.297809	 0.374627	 0.223600	 0.166747	 0.165396	 0.135857	 0.962488	 1
1463569399.803	 2	 -1.604578	 1.386862	 -0.103843	 0.310703	 0.359777	 0.227606	 0.158335	 0.171319	 0.137885	 0.962584	 1
1463569399.813	 2	 -1.848769	 1.222537	 -0.128824	 0.321737	 0.342345	 0.232282	 0.148716	 0.176255	 0.139812	 0.962949	 1
1463569399.823	 2	 -2.001865	 1.129299	 -0.141148	 0.331374	 0.323256	 0.237605	 0.138309	 0.180445	 0.141731	 0.963443	 1
1463569399.833	 2	 -2.051906	 1.201361	 -0.197593	 0.341487	 0.303352	 0.242901	 0.127452	 0.184767	 0.143504	 0.963859	 1
1463569399.843	 2	 -1.975626	 1.576241	 -0.245925	 0.354730	 0.283704	 0.247725	 0.116513	 0.190519	 0.145139	 0.963878	 1
1463569399.853	 2	 -1.711781	 2.136580	 -0.311217	 0.373580	 0.265942	 0.251523	 0.106157	 0.198953	 0.146587	 0.963151	 1
1463569399.863	 2	 -1.260321	 2.751881	 -0.494865	 0.399271	 0.251445	 0.252682	 0.097130	 0.210665	 0.147196	 0.961519	 1
1463569399.873	 2	 -0.636937	 3.341742	 -0.890202	 0.432196	 0.240989	 0.248708	 0.090098	 0.225784	 0.145845	 0.958975	 1
1463569399.893	 3	 0.771108	 4.474129	 -2.129274	 0.520996	 0.229662	 0.215437	 0.082563	 0.266285	 0.132539	 0.951162	 1
1463569399.903	 3	 1.331933	 5.055416	 -2.412241	 0.576224	 0.227645	 0.188296	 0.081874	 0.291291	 0.121680	 0.945325	 1
1463569399.913	 3	 1.585161	 5.608503	 -2.455127	 0.637674	 0.226339	 0.158588	 0.082229	 0.318973	 0.110025	 0.937758	 1
1463569399.923	 3	 1.527897	 5.978233	 -2.534317	 0.703380	 0.222994	 0.128549	 0.082251	 0.348348	 0.098175	 0.928574	 1
1463569399.933	 3	 1.290549	 6.087802	 -2.774225	 0.770644	 0.214830	 0.098690	 0.080795	 0.378137	 0.085691	 0.918228	 1
1463569399.943	 3	 1.040241	 5.937896	 -3.013237	 0.836484	 0.201175	 0.069677	 0.077631	 0.407053	 0.072429	 0.907213	 1
1463569399.953	 3	 0.905073	 5.721012	 -3.201652	 0.899561	 0.183040	 0.041644	 0.073271	 0.434568	 0.058397	 0.895752	 1
1463569399.963	 3	 0.972535	 5.698205	 -3.385763	 0.961285	 0.161930	 0.013757	 0.068542	 0.461317	 0.043471	 0.883515	 1
1463569399.973	 3	 1.248674	 5.747545	 -3.510271	 1.022962	 0.139157	 -0.015400	 0.064383	 0.487804	 0.027330	 0.870147	 1
1463569399.983	 3	 1.639337	 5.898393	 -3.671067	 1.085499	 0.115240	 -0.046922	 0.061395	 0.514336	 0.009681	 0.855333	 1
1463569400.003	 4	 2.195918	 6.021548	 -4.209780	 1.212322	 0.058789	 -0.116969	 0.057399	 0.567085	 -0.031301	 0.821060	 1
1463569400.013	 4	 2.242864	 5.765493	 -4.445973	 1.272186	 0.024459	 -0.152354	 0.055015	 0.591541	 -0.053971	 0.802583	 1
1463569400.023	 4	 2.158516	 5.434898	 -4.600719	 1.327598	 -0.013712	 -0.185621	 0.051721	 0.613948	 -0.077202	 0.783857	 1
1463569400.043	 5	 1.898026	 4.478682	 -4.563653	 1.421702	 -0.096630	 -0.242461	 0.042484	 0.651360	 -0.122818	 0.747556	 1
1463569400.053	 5	 1.919864	 4.005336	 -4.413712	 1.459979	 -0.138299	 -0.267271	 0.037610	 0.666197	 -0.144715	 0.730633	 1
1463569400.063	 5	 2.088314	 3.641973	 -4.291734	 1.493309	 -0.179395	 -0.291929	 0.033341	 0.678826	 -0.166517	 0.714392	 1
1463569400.073	 5	 2.357664	 3.428062	 -4.200151	 1.522876	 -0.220097	 -0.317882	 0.030047	 0.689728	 -0.188693	 0.698404	 1
1463569400.083	 5	 2.709885	 3.382843	 -4.133298	 1.549953	 -0.260647	 -0.346266	 0.028058	 0.699388	 -0.211602	 0.682124	 1
1463569400.093	 5	 3.091089	 3.416935	 -4.118182	 1.575257	 -0.301608	 -0.377803	 0.027458	 0.708079	 -0.235554	 0.665120	 1
1463569400.103	 5	 3.432665	 3.422410	 -4.105120	 1.598558	 -0.343235	 -0.412432	 0.028078	 0.715738	 -0.260492	 0.647359	 1
1463569400.113	 5	 3.701951	 3.247400	 -4.076054	 1.618315	 -0.385427	 -0.449696	 0.029525	 0.721898	 -0.286134	 0.629380	 1
1463569400.123	 5	 3.863816	 2.857364	 -3.968122	 1.632434	 -0.427497	 -0.488956	 0.031354	 0.725978	 -0.311976	 0.612081	 1
1463569400.133	 5	 3.868702	 2.349493	 -3.745883	 1.639843	 -0.468027	 -0.529113	 0.033251	 0.727791	 -0.337171	 0.596263	 1
1463569400.143	 5	 3.719077	 1.820344	 -3.440433	 1.640781	 -0.505776	 -0.568821	 0.034934	 0.727575	 -0.360908	 0.582374	 1
1463569400.153	 5	 3.456729	 1.321771	 -3.070837	 1.636150	 -0.539766	 -0.606944	 0.036265	 0.725738	 -0.382592	 0.570624	 1
1463569400.163	 5	 3.131995	 0.919334	 -2.669962	 1.627454	 -0.569372	 -0.642695	 0.037316	 0.722810	 -0.401881	 0.560932	 1
1463569400.183	 6	 2.423033	 0.289108	 -2.008881	 1.603014	 -0.616385	 -0.705069	 0.038330	 0.715313	 -0.433384	 0.546842	 1
1463569400.193	 6	 2.060064	 -0.020091	 -1.672883	 1.588355	 -0.634521	 -0.731081	 0.038041	 0.711072	 -0.445845	 0.542358	 1
1463569400.203	 6	 1.696327	 -0.282346	 -1.317257	 1.572933	 -0.648767	 -0.753172	 0.037383	 0.706720	 -0.456015	 0.539629	 1
1463569400.213	 6	 1.405393	 -0.510642	 -0.942766	 1.557045	 -0.659070	 -0.771813	 0.036650	 0.702297	 -0.464090	 0.538568	 1
1463569400.223	 7	 1.163741	 -0.708154	 -0.556694	 1.540786	 -0.665340	 -0.787476	 0.036103	 0.697778	 -0.470247	 0.539139	 1
1463569400.243	 7	 0.842778	 -0.815708	 0.175147	 1.509789	 -0.666276	 -0.811568	 0.036775	 0.688972	 -0.477574	 0.543956	 1
1463569400.253	 7	 0.721462	 -0.765344	 0.470822	 1.496309	 -0.661760	 -0.820753	 0.038337	 0.684964	 -0.479209	 0.547461	 1
1463569400.263	 7	 0.573524	 -0.639928	 0.691759	 1.485225	 -0.654882	 -0.827829	 0.040590	 0.681513	 -0.479676	 0.551184	 1
1463569400.273	 7	 0.391285	 -0.482000	 0.835495	 1.477247	 -0.646471	 -0.832403	 0.043291	 0.678855	 -0.479048	 0.554793	 1
1463569400.283	 7	 0.195742	 -0.344969	 0.878972	 1.472278	 -0.637539	 -0.834397	 0.046030	 0.677025	 -0.477530	 0.558108	 1
1463569400.293	 7	 -0.029227	 -0.277508	 0.850651	 1.469801	 -0.628943	 -0.833683	 0.048331	 0.675943	 -0.475285	 0.561133	 1
1463569400.303	 7	 -0.224734	 -0.267836	 0.785301	 1.469008	 -0.621138	 -0.830469	 0.049903	 0.675421	 -0.472483	 0.563982	 1
1463569400.313	 7	 -0.343548	 -0.279738	 0.709490	 1.469002	 -0.614222	 -0.825677	 0.050805	 0.675201	 -0.469421	 0.566715	 1
1463569400.323	 7	 -0.433221	 -0.251060	 0.667907	 1.469720	 -0.607917	 -0.819866	 0.051310	 0.675244	 -0.466187	 0.569283	 1
1463569400.333	 7	 -0.510778	 -0.196425	 0.690406	 1.471466	 -0.601629	 -0.813084	 0.051718	 0.675609	 -0.462635	 0.571704	 1
1463569400.343	 7	 -0.587994	 -0.112701	 0.764329	 1.474453	 -0.594796	 -0.805361	 0.052285	 0.676335	 -0.458623	 0.574023	 1
1463569400.363	 8	 -0.754629	 0.137075	 0.966336	 1.485589	 -0.578213	 -0.786940	 0.054598	 0.679253	 -0.448772	 0.578134	 1
1463569400.373	 8	 -0.833365	 0.240016	 0.902968	 1.493496	 -0.569590	 -0.776346	 0.055884	 0.681441	 -0.443237	 0.579704	 1
1463569400.383	 8	 -0.876954	 0.243778	 0.671046	 1.501857	 -0.562899	 -0.765478	 0.056436	 0.683876	 -0.438080	 0.580701	 1
1463569400.393	 8	 -0.981309	 0.052922	 0.417593	 1.509110	 -0.558727	 -0.753900	 0.055556	 0.686132	 -0.433396	 0.581639	 1
1463569400.403	 8	 -1.142310	 -0.192759	 0.207819	 1.514747	 -0.556834	 -0.740775	 0.052944	 0.688054	 -0.428910	 0.582936	 1
1463569400.413	 8	 -1.348190	 -0.510117	 0.069175	 1.518556	 -0.556495	 -0.725553	 0.048635	 0.689540	 -0.424277	 0.584943	 1
1463569400.423	 8	 -1.652074	 -0.725642	 -0.146534	 1.521380	 -0.558182	 -0.707091	 0.042253	 0.690844	 -0.419265	 0.587509	 1
1463569400.433	 8	 -1.912841	 -0.602359	 -0.118604	 1.526429	 -0.560550	 -0.685221	 0.034888	 0.692820	 -0.413388	 0.589824	 1
1463569400.443	 8	 -1.730945	 -0.209214	 0.340683	 1.534839	 -0.559259	 -0.664032	 0.029720	 0.695615	 -0.406632	 0.591512	 1
1463569400.453	 8	 -1.373954	 -0.122067	 0.914963	 1.542747	 -0.552008	 -0.646404	 0.027766	 0.698061	 -0.399228	 0.593765	 1
1463569400.463	 8	 -1.012337	 -0.079458	 1.363028	 1.548660	 -0.539639	 -0.633240	 0.028748	 0.699771	 -0.391654	 0.596743	 1
1463569400.473	 8	 -0.897835	 0.042928	 1.565665	 1.554310	 -0.524534	 -0.622298	 0.031388	 0.701342	 -0.383881	 0.599809	 1
1463569400.483	 8	 -0.878030	 0.162055	 1.574061	 1.560767	 -0.508800	 -0.611959	 0.034571	 0.703154	 -0.376011	 0.602491	 1
1463569400.493	 8	 -0.892717	 0.176438	 1.351578	 1.567548	 -0.494669	 -0.601700	 0.037224	 0.705113	 -0.368562	 0.604642	 1
1463569400.503	 8	 -0.856219	 0.009400	 1.066214	 1.572755	 -0.483310	 -0.591832	 0.038704	 0.706661	 -0.362037	 0.606681	 1
1463569400.513	 8	 -0.756300	 -0.124304	 0.856276	 1.575830	 -0.474285	 -0.583034	 0.039327	 0.707596	 -0.356550	 0.608796	 1
1463569400.523	 8	 -0.635132	 -0.146637	 0.759094	 1.577676	 -0.466488	 -0.575604	 0.039770	 0.708160	 -0.351854	 0.610841	 1
1463569400.533	 8	 -0.518838	 -0.172336	 0.782355	 1.578822	 -0.458739	 -0.569580	 0.040564	 0.708486	 -0.347597	 0.612844	 1
1463569400.543	 8	 -0.476906	 -0.328838	 0.778402	 1.578266	 -0.450829	 -0.564320	 0.041387	 0.708272	 -0.343544	 0.615318	 1
1463569400.553	 8	 -0.593032	 -0.412332	 0.658205	 1.576918	 -0.443878	 -0.558225	 0.041445	 0.707846	 -0.339532	 0.618024	 1
1463569400.563	 8	 -0.762985	 -0.376478	 0.547048	 1.576422	 -0.438110	 -0.550282	 0.040581	 0.707743	 -0.335285	 0.620513	 1
1463569400.573	 8	 -0.828056	 -0.339333	 0.509593	 1.576873	 -0.432920	 -0.541273	 0.039295	 0.707964	 -0.330852	 0.622719	 1
1463569400.583	 8	 -0.767637	 -0.164323	 0.466999	 1.578128	 -0.428028	 -0.532637	 0.038165	 0.708434	 -0.326598	 0.624499	 1
1463569400.593	 8	 -0.671483	 0.201330	 0.327818	 1.582339	 -0.424294	 -0.525064	 0.037477	 0.709827	 -0.322974	 0.624843	 1
1463569400.603	 8	 -0.652872	 0.479460	 0.114960	 1.589423	 -0.422457	 -0.517955	 0.036733	 0.712141	 -0.320041	 0.623762	 1
1463569400.613	 8	 -0.737752	 0.646333	 -0.228055	 1.598773	 -0.423639	 -0.510104	 0.035009	 0.715209	 -0.317806	 0.621489	 1
1463569400.623	 8	 -0.787134	 0.730477	 -0.671265	 1.609528	 -0.428820	 -0.501310	 0.031759	 0.718748	 -0.316568	 0.618204	 1
1463569400.633	 8	 -0.742031	 0.999925	 -1.190308	 1.622316	 -0.439216	 -0.492436	 0.026988	 0.722894	 -0.317015	 0.613349	 1
1463569400.643	 8	 -0.676976	 1.458192	 -1.477564	 1.639907	 -0.452981	 -0.483702	 0.021882	 0.728400	 -0.318627	 0.606161	 1
1463569400.653	 8	 -0.455222	 1.474021	 -1.551819	 1.657900	 -0.467972	 -0.476592	 0.017050	 0.733846	 -0.321239	 0.598319	 1
1463569400.663	 8	 -0.168497	 1.490657	 -1.928243	 1.674791	 -0.485533	 -0.471942	 0.012131	 0.738754	 -0.325545	 0.590013	 1
1463569400.673	 8	 0.160493	 1.617217	 -2.535410	 1.691636	 -0.509302	 -0.469756	 0.006121	 0.743361	 -0.332726	 0.580233	 1
1463569400.683	 8	 0.473489	 1.758519	 -3.163489	 1.708897	 -0.539588	 -0.469833	 -0.001007	 0.747697	 -0.342811	 0.568708	 1
1463569400.693	 8	 0.707488	 1.738838	 -3.875507	 1.725706	 -0.577054	 -0.471120	 -0.009943	 0.751368	 -0.355688	 0.555727	 1
1463569400.703	 8	 0.786721	 1.761740	 -4.644397	 1.742423	 -0.622130	 -0.471870	 -0.021358	 0.754279	 -0.370981	 0.541276	 1
1463569400.713	 8	 0.759339	 2.019066	 -5.397389	 1.763217	 -0.674683	 -0.469583	 -0.035275	 0.757248	 -0.388030	 0.524180	 1
1463569400.723	 8	 0.639559	 2.478711	 -6.009146	 1.791370	 -0.733539	 -0.462451	 -0.051155	 0.760686	 -0.406190	 0.503737	 1
1463569400.733	 8	 0.529156	 2.512951	 -6.171993	 1.826438	 -0.794734	 -0.449866	 -0.067795	 0.764177	 -0.424280	 0.481065	 1
1463569400.743	 8	 0.286347	 0.122592	 -5.889445	 1.847825	 -0.853304	 -0.431511	 -0.088112	 0.762987	 -0.440025	 0.465258	 1
1463569400.753	 8	 0.101779	 -1.541846	 -5.508995	 1.852618	 -0.907552	 -0.409400	 -0.111812	 0.757040	 -0.452879	 0.457481	 1
1463569400.763	 8	 -0.018826	 -1.798989	 -4.936957	 1.853766	 -0.956640	 -0.385577	 -0.135173	 0.749785	 -0.463409	 0.452551	 1
1463569400.773	 8	 -0.063474	 -1.381992	 -3.774204	 1.856089	 -0.995662	 -0.364335	 -0.154081	 0.743507	 -0.471315	 0.448685	 1
1463569400.783	 8	 -0.000503	 -0.738185	 -2.385403	 1.860122	 -1.021835	 -0.349120	 -0.166414	 0.739421	 -0.476597	 0.445442	 1
1463569400.793	 8	 0.298442	 -0.313995	 -0.971923	 1.858734	 -1.035095	 -0.345888	 -0.171791	 0.736861	 -0.479981	 0.444006	 1
1463569400.803	 8	 0.609432	 -0.021807	 0.137547	 1.849820	 -1.037619	 -0.355329	 -0.171195	 0.735313	 -0.482112	 0.444494	 1
1463569400.813	 8	 0.898847	 0.004805	 0.696931	 1.833755	 -1.034163	 -0.374111	 -0.167159	 0.733828	 -0.483855	 0.446585	 1
1463569400.823	 8	 1.086779	 -0.076741	 0.821362	 1.812899	 -1.028921	 -0.397808	 -0.161966	 0.731841	 -0.485831	 0.449605	 1
1463569400.833	 8	 1.066856	 -0.099069	 0.667857	 1.791666	 -1.024411	 -0.421448	 -0.157128	 0.729539	 -0.488101	 0.452593	 1
1463569400.843	 8	 0.839652	 0.011623	 0.293586	 1.775602	 -1.022431	 -0.440025	 -0.153681	 0.727593	 -0.490474	 0.454341	 1
1463569400.853	 8	 0.582294	 0.152486	 -0.185653	 1.766616	 -1.024330	 -0.451927	 -0.152155	 0.726227	 -0.493051	 0.454252	 1
1463569400.863	 8	 0.354961	 0.288251	 -0.622570	 1.764193	 -1.030228	 -0.457761	 -0.152478	 0.725399	 -0.495914	 0.452345	 1
1463569400.873	 8	 0.173700	 0.359890	 -0.936857	 1.766919	 -1.039145	 -0.458628	 -0.154269	 0.724980	 -0.498915	 0.449098	 1
1463569400.883	 8	 0.058692	 0.350301	 -1.132045	 1.772838	 -1.049969	 -0.455941	 -0.157129	 0.724732	 -0.501923	 0.445137	 1
1463569400.893	 8	 0.043609	 0.240590	 -1.306654	 1.779394	 -1.062407	 -0.451543	 -0.160921	 0.724228	 -0.505087	 0.441005	 1
1463569400.903	 8	 0.093270	 0.083651	 -1.514238	 1.784811	 -1.076849	 -0.446767	 -0.165720	 0.723107	 -0.508676	 0.436924	 1
1463569400.913	 8	 0.160129	 -0.022500	 -1.751342	 1.788995	 -1.093657	 -0.442004	 -0.171517	 0.721310	 -0.512864	 0.432741	 1
1463569400.923	 8	 0.238863	 -0.053567	 -2.043270	 1.792787	 -1.113320	 -0.437217	 -0.178249	 0.718923	 -0.517840	 0.428040	 1
1463569400.933	 8	 0.315374	 -0.062646	 -2.383998	 1.796802	 -1.136360	 -0.432098	 -0.186010	 0.715933	 -0.523730	 0.422549	 1
1463569400.943	 8	 0.387603	 -0.037992	 -2.768072	 1.801800	 -1.163205	 -0.426138	 -0.194882	 0.712320	 -0.530610	 0.416022	 1
1463569400.953	 8	 0.427518	 -0.050694	 -3.183120	 1.808742	 -1.194110	 -0.418145	 -0.205059	 0.708027	 -0.538401	 0.408378	 1
1463569400.963	 8	 0.405225	 -0.118614	 -3.610928	 1.819513	 -1.229120	 -0.405589	 -0.216849	 0.703005	 -0.546841	 0.399656	 1
1463569400.973	 8	 0.340029	 -0.244800	 -4.023985	 1.836967	 -1.267948	 -0.384997	 -0.230442	 0.697224	 -0.555601	 0.389979	 1
1463569400.983	 8	 0.276928	 -0.410077	 -4.400122	 1.864857	 -1.310170	 -0.352163	 -0.245860	 0.690577	 -0.564462	 0.379525	 1
1463569400.993	 8	 0.224214	 -0.553930	 -4.604562	 1.908631	 -1.354378	 -0.301709	 -0.262607	 0.683099	 -0.573168	 0.368636	 1
1463569401.003	 8	 0.142945	 -0.471911	 -4.474134	 1.979540	 -1.397121	 -0.224251	 -0.279156	 0.675583	 -0.581234	 0.357527	 1
1463569401.013	 8	 0.187305	 -0.121191	 -4.200553	 2.090742	 -1.436095	 -0.109478	 -0.293859	 0.668586	 -0.588984	 0.346030	 1
1463569401.023	 8	 0.256173	 0.232553	 -3.939946	 2.268720	 -1.470374	 0.068149	 -0.306260	 0.662131	 -0.596820	 0.334055	 1
1463569401.033	 8	 0.260446	 0.361025	 -3.822620	 2.589008	 -1.497895	 0.386160	 -0.317489	 0.655896	 -0.604536	 0.321773	 1
1463569401.043	 8	 0.181451	 0.402165	 -3.608397	 3.119142	 -1.510726	 0.913517	 -0.327974	 0.649956	 -0.611632	 0.309672	 1
1463569401.053	 8	 0.096590	 0.579102	 -3.150931	 -2.646474	 -1.503950	 1.426811	 -0.336810	 0.644939	 -0.617873	 0.298070	 1
1463569401.063	 8	 0.060336	 0.825328	 -2.359660	 -2.354919	 -1.488910	 1.711468	 -0.342630	 0.641472	 -0.623168	 0.287714	 1
1463569401.073	 8	 0.059187	 0.969845	 -1.206216	 -2.226217	 -1.477889	 1.831205	 -0.344457	 0.640017	 -0.627131	 0.280062	 1
1463569401.083	 8	 0.003033	 0.924716	 0.026940	 -2.197881	 -1.475895	 1.850135	 -0.342296	 0.640808	 -0.629203	 0.276228	 1
1463569401.093	 8	 -0.081862	 0.786297	 0.851291	 -2.239388	 -1.480938	 1.800238	 -0.337627	 0.643289	 -0.629454	 0.275634	 1
1463569401.103	 8	 -0.100084	 0.757562	 1.134675	 -2.322249	 -1.488576	 1.709343	 -0.331829	 0.646470	 -0.628936	 0.276415	 1
1463569401.113	 8	 -0.137337	 0.581919	 1.099260	 -2.429563	 -1.495476	 1.595289	 -0.326353	 0.649597	 -0.628025	 0.277672	 1
1463569401.123	 8	 -0.174060	 0.261006	 0.832285	 -2.538636	 -1.499729	 1.482460	 -0.322534	 0.652085	 -0.626769	 0.279137	 1
1463569401.133	 8	 -0.129112	 -0.014658	 0.384905	 -2.609794	 -1.501221	 1.410667	 -0.320945	 0.653417	 -0.625661	 0.280336	 1
1463569401.143	 8	 -0.041532	 -0.110400	 -0.021738	 -2.623512	 -1.500994	 1.397930	 -0.321137	 0.653580	 -0.625198	 0.280769	 1
1463569401.153	 8	 0.038353	 -0.014950	 -0.173949	 -2.604185	 -1.500418	 1.417761	 -0.321738	 0.653214	 -0.625400	 0.280484	 1
1463569401.173	 8	 0.059962	 0.195141	 -0.087987	 -2.557341	 -1.499993	 1.462322	 -0.321748	 0.652674	 -0.626617	 0.279010	 1
1463569401.183	 9	 0.048069	 0.332864	 -0.021591	 -2.546414	 -1.500230	 1.470304	 -0.320857	 0.652873	 -0.627307	 0.278018	 1
1463569401.193	 9	 0.066963	 0.490240	 -0.019225	 -2.535046	 -1.500637	 1.477181	 -0.319413	 0.653279	 -0.628251	 0.276591	 1
1463569401.203	 9	 0.111300	 0.632470	 -0.041734	 -2.516642	 -1.501240	 1.489625	 -0.317510	 0.653735	 -0.629579	 0.274679	 1
1463569401.213	 9	 0.158712	 0.743883	 -0.059228	 -2.490369	 -1.502088	 1.508756	 -0.315226	 0.654167	 -0.631272	 0.272385	 1
1463569401.223	 9	 0.202771	 0.817068	 -0.069588	 -2.457239	 -1.503181	 1.533935	 -0.312652	 0.654541	 -0.633248	 0.269854	 1
1463569401.233	 9	 0.258567	 0.912362	 -0.106492	 -2.411265	 -1.504241	 1.571151	 -0.309918	 0.654770	 -0.635581	 0.266955	 1
1463569401.243	 9	 0.345507	 1.075406	 -0.175006	 -2.349983	 -1.505496	 1.622221	 -0.306716	 0.654868	 -0.638438	 0.263573	 1
1463569401.253	 9	 0.400397	 1.219500	 -0.229563	 -2.271055	 -1.506508	 1.689421	 -0.303123	 0.654841	 -0.641808	 0.259581	 1
1463569401.263	 9	 0.415761	 1.324619	 -0.247902	 -2.183453	 -1.507087	 1.764181	 -0.299214	 0.654810	 -0.645437	 0.255158	 1
1463569401.273	 9	 0.400238	 1.418339	 -0.237303	 -2.095258	 -1.507277	 1.838565	 -0.294959	 0.654898	 -0.649150	 0.250421	 1
1463569401.283	 9	 0.370895	 1.493217	 -0.190523	 -2.012887	 -1.507231	 1.906320	 -0.290356	 0.655196	 -0.652803	 0.245480	 1
1463569401.293	 9	 0.336166	 1.533219	 -0.115245	 -1.939371	 -1.507351	 1.964695	 -0.285386	 0.655726	 -0.656294	 0.240534	 1
1463569401.303	 9	 0.306536	 1.526380	 -0.043645	 -1.874213	 -1.507827	 2.014629	 -0.280166	 0.656436	 -0.659559	 0.235756	 1
1463569401.313	 9	 0.278618	 1.467099	 -0.016243	 -1.816660	 -1.508426	 2.057436	 -0.274993	 0.657240	 -0.662536	 0.231217	 1
1463569401.333	 10	 0.180215	 1.281562	 -0.120491	 -1.716497	 -1.507958	 2.130611	 -0.265914	 0.658672	 -0.667805	 0.222437	 1
1463569401.343	 10	 0.131213	 1.154442	 -0.216101	 -1.678581	 -1.506246	 2.156701	 -0.262412	 0.659249	 -0.670055	 0.218074	 1
1463569401.353	 10	 0.092729	 1.010141	 -0.330079	 -1.648547	 -1.503349	 2.176315	 -0.259782	 0.659644	 -0.672082	 0.213749	 1
1463569401.363	 10	 0.063777	 0.849863	 -0.443224	 -1.625579	 -1.499238	 2.190398	 -0.258081	 0.659812	 -0.673909	 0.209496	 1
1463569401.373	 10	 0.037142	 0.683582	 -0.503156	 -1.609403	 -1.494332	 2.199343	 -0.257215	 0.659784	 -0.675498	 0.205495	 1
1463569401.383	 10	 -0.034349	 0.463591	 -0.507778	 -1.603107	 -1.489243	 2.200348	 -0.257115	 0.659703	 -0.676664	 0.202015	 1
1463569401.393	 10	 -0.142227	 0.188682	 -0.473167	 -1.604204	 -1.483915	 2.196665	 -0.258045	 0.659441	 -0.677369	 0.199305	 1
1463569401.403	 10	 -0.202616	 0.004238	 -0.411478	 -1.622925	 -1.479562	 2.177413	 -0.259489	 0.659575	 -0.677226	 0.197461	 1
1463569401.423	 11	 -0.225099	 -0.114986	 -0.287697	 -1.667220	 -1.472593	 2.134854	 -0.262779	 0.660050	 -0.676133	 0.195256	 1
1463569401.433	 11	 -0.215107	 -0.068968	 -0.244725	 -1.687064	 -1.469848	 2.115765	 -0.264113	 0.660371	 -0.675548	 0.194395	 1
1463569401.443	 11	 -0.197471	 0.043776	 -0.237435	 -1.703650	 -1.467249	 2.098972	 -0.265051	 0.660753	 -0.675125	 0.193289	 1
1463569401.453	 11	 -0.176496	 0.203157	 -0.251056	 -1.715848	 -1.464550	 2.085081	 -0.265496	 0.661193	 -0.674977	 0.191680	 1
1463569401.463	 11	 -0.152231	 0.383935	 -0.257127	 -1.759001	 -1.451971	 2.038719	 -0.269011	 0.662361	 -0.674067	 0.185859	 1
1463569401.473	 11	 -0.128973	 0.554124	 -0.246154	 -1.760956	 -1.449266	 2.031576	 -0.268231	 0.662955	 -0.674540	 0.183134	 1
1463569401.483	 11	 -0.102604	 0.695670	 -0.223751	 -1.759510	 -1.446803	 2.026357	 -0.266857	 0.663617	 -0.675273	 0.180015	 1
1463569401.493	 11	 -0.075351	 0.790509	 -0.190081	 -1.760845	 -1.443043	 2.017339	 -0.265603	 0.664446	 -0.675992	 0.176071	 1
1463569401.503	 11	 -0.048297	 0.831181	 -0.144110	 -1.754520	 -1.441410	 2.015402	 -0.263379	 0.665145	 -0.677036	 0.172730	 1
1463569401.513	 11	 -0.020446	 0.814419	 -0.097615	 -1.746883	 -1.440298	 2.014818	 -0.260979	 0.665799	 -0.678115	 0.169594	 1
1463569401.533	 12	 -0.014922	 0.574488	 -0.033818	 -1.730543	 -1.439298	 2.017131	 -0.256544	 0.666794	 -0.680063	 0.164579	 1
1463569401.543	 12	 -0.142815	 0.150547	 -0.024926	 -1.735657	 -1.438869	 2.009323	 -0.255825	 0.667344	 -0.680059	 0.163477	 1
1463569401.553	 12	 -0.244868	 -0.211894	 -0.031673	 -1.753129	 -1.438187	 1.993014	 -0.256552	 0.667959	 -0.679170	 0.163525	 1
1463569401.563	 12	 -0.291972	 -0.467121	 -0.040037	 -1.735858	 -1.439440	 2.013838	 -0.257203	 0.666789	 -0.679648	 0.165283	 1
1463569401.573	 12	 -0.286284	 -0.606574	 -0.054173	 -1.762649	 -1.438429	 1.992661	 -0.259581	 0.667234	 -0.677966	 0.166669	 1
1463569401.583	 12	 -0.232047	 -0.634492	 -0.068760	 -1.786151	 -1.437282	 1.975344	 -0.262154	 0.667457	 -0.676367	 0.168237	 1
1463569401.593	 12	 -0.144251	 -0.569902	 -0.073186	 -1.803003	 -1.436202	 1.964309	 -0.264537	 0.667428	 -0.675090	 0.169745	 1
1463569401.603	 12	 -0.048650	 -0.434075	 -0.078084	 -1.811568	 -1.435293	 1.960414	 -0.266440	 0.667170	 -0.674289	 0.170963	 1
1463569401.613	 12	 0.033186	 -0.262159	 -0.098512	 -1.812000	 -1.434431	 1.963067	 -0.267767	 0.666736	 -0.674007	 0.171692	 1
1463569401.623	 12	 0.100092	 -0.082711	 -0.118765	 -1.830926	 -1.429413	 1.945731	 -0.270086	 0.667215	 -0.672945	 0.170361	 1
1463569401.633	 12	 0.148868	 0.083015	 -0.126173	 -1.818846	 -1.428544	 1.957492	 -0.270241	 0.666614	 -0.673575	 0.169979	 1
1463569401.643	 12	 0.164380	 0.204220	 -0.126246	 -1.803947	 -1.427705	 1.970756	 -0.269927	 0.666043	 -0.674465	 0.169184	 1
1463569401.653	 12	 0.150818	 0.265985	 -0.121290	 -1.788979	 -1.426855	 1.983315	 -0.269349	 0.665564	 -0.675430	 0.168134	 1
1463569401.663	 12	 0.112502	 0.278980	 -0.108120	 -1.784456	 -1.424724	 1.985224	 -0.269187	 0.665560	 -0.675902	 0.166509	 1
1463569401.673	 12	 0.054673	 0.229222	 -0.099554	 -1.775874	 -1.423877	 1.991411	 -0.268634	 0.665388	 -0.676552	 0.165442	 1
1463569401.683	 12	 -0.024834	 0.117758	 -0.102030	 -1.773372	 -1.422884	 1.992428	 -0.268466	 0.665396	 -0.676818	 0.164598	 1
1463569401.693	 12	 -0.092803	 -0.033120	 -0.108171	 -1.776892	 -1.421676	 1.988796	 -0.268862	 0.665518	 -0.676659	 0.164106	 1
1463569401.703	 12	 -0.122352	 -0.188357	 -0.111506	 -1.755854	 -1.420200	 2.010977	 -0.269617	 0.664161	 -0.677695	 0.164095	 1
1463569401.713	 12	 -0.099405	 -0.292728	 -0.121203	 -1.763990	 -1.418843	 2.005454	 -0.271003	 0.664145	 -0.677073	 0.164440	 1
1463569401.723	 12	 -0.063739	 -0.403620	 -0.144926	 -1.770652	 -1.417340	 2.002517	 -0.272795	 0.663894	 -0.676434	 0.165119	 1
1463569401.733	 12	 -0.013031	 -0.486956	 -0.175985	 -1.774868	 -1.415638	 2.003004	 -0.274963	 0.663366	 -0.675841	 0.166072	 1
1463569401.743	 12	 0.059309	 -0.509701	 -0.204548	 -1.780537	 -1.411928	 2.002546	 -0.277993	 0.662713	 -0.675145	 0.166465	 1
1463569401.753	 12	 0.137358	 -0.454832	 -0.233493	 -1.775189	 -1.409966	 2.012752	 -0.280236	 0.661604	 -0.675066	 0.167435	 1
1463569401.763	 12	 0.190042	 -0.354095	 -0.254329	 -1.765207	 -1.407874	 2.026721	 -0.282196	 0.660328	 -0.675332	 0.168102	 1
1463569401.773	 12	 0.198054	 -0.233977	 -0.260742	 -1.753085	 -1.405700	 2.041698	 -0.283780	 0.659064	 -0.675833	 0.168383	 1
1463569401.783	 12	 0.157028	 -0.107243	 -0.257068	 -1.770877	 -1.402404	 2.025884	 -0.285693	 0.659571	 -0.674694	 0.167727	 1
1463569401.793	 12	 0.090368	 -0.000559	 -0.239508	 -1.762142	 -1.400220	 2.035000	 -0.286491	 0.658836	 -0.675220	 0.167141	 1
1463569401.803	 12	 0.017192	 0.073247	 -0.211540	 -1.757234	 -1.398137	 2.039401	 -0.286990	 0.658452	 -0.675599	 0.166264	 1
1463569401.813	 12	 -0.047627	 0.111904	 -0.187169	 -1.755936	 -1.396190	 2.039654	 -0.287294	 0.658370	 -0.675804	 0.165224	 1
1463569401.823	 12	 -0.089220	 0.105733	 -0.174060	 -1.757674	 -1.396033	 2.036773	 -0.286986	 0.658628	 -0.675796	 0.164767	 1
1463569401.833	 12	 -0.105441	 0.064267	 -0.178568	 -1.760760	 -1.394108	 2.032862	 -0.287393	 0.658787	 -0.675710	 0.163771	 1
1463569401.843	 12	 -0.096223	 -0.000785	 -0.198437	 -1.763999	 -1.392019	 2.029401	 -0.288055	 0.658860	 -0.675563	 0.162919	 1
1463569401.853	 12	 -0.083853	 -0.076482	 -0.218433	 -1.766975	 -1.389747	 2.026952	 -0.289024	 0.658798	 -0.675369	 0.162256	 1
1463569401.863	 12	 -0.073587	 -0.160584	 -0.223568	 -1.757537	 -1.388221	 2.037547	 -0.289840	 0.657911	 -0.675902	 0.162180	 1
1463569401.873	 12	 -0.079299	 -0.246663	 -0.215793	 -1.761706	 -1.385926	 2.035593	 -0.291382	 0.657675	 -0.675496	 0.162067	 1
1463569401.883	 12	 -0.091368	 -0.324206	 -0.206818	 -1.767226	 -1.383707	 2.033092	 -0.293173	 0.657419	 -0.674928	 0.162240	 1
1463569401.893	 12	 -0.097021	 -0.394362	 -0.203158	 -1.773839	 -1.381522	 2.030199	 -0.295193	 0.657139	 -0.674221	 0.162651	 1
1463569401.903	 12	 -0.096186	 -0.447518	 -0.199409	 -1.773388	 -1.378572	 2.034827	 -0.297557	 0.656262	 -0.673952	 0.163001	 1
1463569401.913	 12	 -0.087727	 -0.472994	 -0.189062	 -1.780558	 -1.376512	 2.032291	 -0.299835	 0.655896	 -0.673114	 0.163757	 1
1463569401.923	 12	 -0.081271	 -0.475025	 -0.173151	 -1.787511	 -1.374604	 2.030050	 -0.302084	 0.655517	 -0.672273	 0.164595	 1
1463569401.933	 12	 -0.068338	 -0.457960	 -0.161382	 -1.793791	 -1.372844	 2.028370	 -0.304238	 0.655122	 -0.671476	 0.165453	 1
1463569401.943	 12	 -0.051019	 -0.421715	 -0.143077	 -1.799112	 -1.371274	 2.027346	 -0.306218	 0.654722	 -0.670760	 0.166285	 1
1463569401.953	 12	 -0.028268	 -0.369493	 -0.119343	 -1.803177	 -1.369977	 2.027108	 -0.307941	 0.654325	 -0.670164	 0.167067	 1
1463569401.963	 12	 -0.008663	 -0.301344	 -0.100761	 -1.805881	 -1.368920	 2.027614	 -0.309369	 0.653944	 -0.669711	 0.167738	 1
1463569401.973	 12	 0.009943	 -0.215141	 -0.086266	 -1.806936	 -1.368058	 2.028956	 -0.310452	 0.653585	 -0.669439	 0.168220	 1
1463569401.983	 12	 0.014634	 -0.135302	 -0.074906	 -1.806916	 -1.367336	 2.030558	 -0.311212	 0.653285	 -0.669311	 0.168489	 1
1463569401.993	 12	 0.008633	 -0.058629	 -0.064549	 -1.806406	 -1.366712	 2.031868	 -0.311680	 0.653078	 -0.669284	 0.168535	 1
1463569402.003	 12	 -0.009234	 -0.000081	 -0.064914	 -1.806036	 -1.366085	 2.032383	 -0.311935	 0.652983	 -0.669302	 0.168359	 1
1463569402.013	 12	 -0.027242	 0.041340	 -0.080358	 -1.805951	 -1.365306	 2.032139	 -0.312090	 0.652971	 -0.669340	 0.167968	 1
1463569402.023	 12	 -0.045381	 0.071978	 -0.116151	 -1.806023	 -1.364167	 2.031406	 -0.312258	 0.652995	 -0.669396	 0.167335	 1
1463569402.033	 12	 -0.058221	 0.088827	 -0.144658	 -1.806230	 -1.362692	 2.030324	 -0.312472	 0.653038	 -0.669462	 0.166506	 1
1463569402.043	 12	 -0.071028	 0.098353	 -0.156182	 -1.806670	 -1.361025	 2.028891	 -0.312713	 0.653102	 -0.669519	 0.165567	 1
1463569402.053	 12	 -0.086955	 0.102764	 -0.141081	 -1.807780	 -1.359404	 2.026716	 -0.312920	 0.653231	 -0.669531	 0.164614	 1
1463569402.063	 12	 -0.106029	 0.105172	 -0.109986	 -1.809989	 -1.358008	 2.023377	 -0.313039	 0.653471	 -0.669463	 0.163712	 1
1463569402.073	 12	 -0.126181	 0.094913	 -0.066209	 -1.813593	 -1.356967	 2.018681	 -0.313061	 0.653836	 -0.669284	 0.162941	 1
1463569402.083	 12	 -0.138901	 0.078230	 -0.024670	 -1.822034	 -1.357921	 2.009364	 -0.312515	 0.654672	 -0.668724	 0.162932	 1
1463569402.093	 12	 -0.140973	 0.053040	 0.020942	 -1.827893	 -1.357665	 2.002763	 -0.312398	 0.655210	 -0.668345	 0.162551	 1
1463569402.103	 12	 -0.130360	 0.015996	 0.050346	 -1.834148	 -1.357746	 1.996102	 -0.312277	 0.655747	 -0.667910	 0.162405	 1
1463569402.113	 12	 -0.110252	 -0.031822	 0.064647	 -1.840243	 -1.358036	 1.990060	 -0.312232	 0.656213	 -0.667451	 0.162493	 1
1463569402.123	 12	 -0.084884	 -0.084024	 0.063959	 -1.846472	 -1.360170	 1.984445	 -0.311746	 0.656711	 -0.666958	 0.163440	 1
1463569402.133	 12	 -0.056368	 -0.138427	 0.053613	 -1.851289	 -1.360540	 1.980793	 -0.312028	 0.656907	 -0.666510	 0.163938	 1
1463569402.143	 12	 -0.029981	 -0.190704	 0.042239	 -1.855293	 -1.360876	 1.978512	 -0.312498	 0.656954	 -0.666076	 0.164616	 1
1463569402.153	 12	 -0.007797	 -0.231252	 0.033142	 -1.858554	 -1.361169	 1.977444	 -0.313134	 0.656868	 -0.665659	 0.165438	 1
1463569402.163	 12	 0.005992	 -0.246194	 0.030728	 -1.858711	 -1.359451	 1.979669	 -0.314498	 0.656410	 -0.665426	 0.165605	 1
1463569402.173	 12	 0.009254	 -0.233440	 0.030818	 -1.861107	 -1.359771	 1.979648	 -0.315180	 0.656232	 -0.665055	 0.166501	 1
1463569402.183	 12	 0.009449	 -0.200397	 0.040716	 -1.863308	 -1.360155	 1.979540	 -0.315746	 0.656087	 -0.664722	 0.167326	 1
1463569402.193	 12	 0.011859	 -0.151397	 0.051808	 -1.865151	 -1.360660	 1.979345	 -0.316124	 0.655991	 -0.664455	 0.168050	 1
1463569402.203	 12	 0.017493	 -0.087568	 0.054457	 -1.868933	 -1.358491	 1.976657	 -0.317232	 0.655981	 -0.664048	 0.167608	 1
1463569402.213	 12	 0.024126	 -0.024955	 0.037929	 -1.868951	 -1.358967	 1.977051	 -0.317206	 0.655943	 -0.664020	 0.167918	 1
1463569402.223	 12	 0.032826	 0.026985	 0.017022	 -1.867725	 -1.359271	 1.978159	 -0.317059	 0.655887	 -0.664126	 0.167995	 1
1463569402.233	 12	 0.035077	 0.068315	 -0.002863	 -1.865564	 -1.359388	 1.979762	 -0.316828	 0.655821	 -0.664336	 0.167861	 1
1463569402.243	 12	 0.029808	 0.091672	 -0.011123	 -1.869216	 -1.359154	 1.975406	 -0.316691	 0.656192	 -0.664119	 0.167527	 1
1463569402.253	 12	 0.026727	 0.104554	 0.003944	 -1.866961	 -1.359226	 1.976682	 -0.316336	 0.656182	 -0.664370	 0.167237	 1
1463569402.263	 12	 0.011958	 0.128107	 0.019213	 -1.865274	 -1.359424	 1.977174	 -0.315870	 0.656256	 -0.664599	 0.166919	 1
1463569402.273	 12	 -0.005998	 0.164349	 0.022904	 -1.864084	 -1.359639	 1.976803	 -0.315281	 0.656426	 -0.664821	 0.166483	 1
1463569402.283	 12	 -0.032590	 0.193061	 0.011694	 -1.867885	 -1.360677	 1.971196	 -0.314352	 0.657048	 -0.664705	 0.166246	 1
1463569402.293	 12	 -0.056108	 0.195166	 -0.000871	 -1.868216	 -1.360545	 1.968846	 -0.313734	 0.657383	 -0.664846	 0.165525	 1
1463569402.303	 12	 -0.076533	 0.171756	 -0.010503	 -1.869564	 -1.360246	 1.965641	 -0.313229	 0.657758	 -0.664894	 0.164795	 1
1463569402.313	 12	 -0.078918	 0.116475	 -0.007799	 -1.871705	 -1.359921	 1.962097	 -0.312886	 0.658120	 -0.664844	 0.164202	 1
1463569402.323	 12	 -0.054650	 0.043132	 0.008355	 -1.870861	 -1.359618	 1.962199	 -0.312741	 0.658158	 -0.664962	 0.163848	 1
1463569402.333	 12	 -0.017458	 -0.012098	 0.034161	 -1.872474	 -1.359803	 1.960547	 -0.312671	 0.658293	 -0.664849	 0.163897	 1
1463569402.343	 12	 0.011333	 -0.023822	 0.042327	 -1.873058	 -1.360224	 1.960194	 -0.312607	 0.658322	 -0.664795	 0.164125	 1
1463569402.353	 12	 0.017823	 0.000569	 0.035038	 -1.872848	 -1.360631	 1.960479	 -0.312493	 0.658315	 -0.664812	 0.164299	 1
1463569402.363	 12	 -0.002363	 0.024000	 0.031170	 -1.875474	 -1.360870	 1.957721	 -0.312377	 0.658542	 -0.664633	 0.164334	 1
1463569402.373	 12	 -0.032157	 0.042171	 0.031598	 -1.876620	 -1.361092	 1.956168	 -0.312171	 0.658701	 -0.664587	 0.164276	 1
1463569402.383	 12	 -0.059806	 0.057192	 0.038373	 -1.878990	 -1.361287	 1.953204	 -0.311916	 0.658978	 -0.664464	 0.164143	 1
1463569402.393	 12	 -0.077863	 0.075354	 0.041898	 -1.889314	 -1.360921	 1.942244	 -0.311854	 0.659825	 -0.663744	 0.163774	 1
1463569402.403	 12	 -0.080989	 0.093456	 0.043160	 -1.899797	 -1.360563	 1.930941	 -0.311721	 0.660714	 -0.663025	 0.163356	 1
1463569402.413	 12	 -0.069222	 0.099829	 0.046313	 -1.909127	 -1.360139	 1.920669	 -0.311561	 0.661537	 -0.662395	 0.162882	 1
1463569402.423	 12	 -0.048998	 0.091261	 0.046053	 -1.915378	 -1.359698	 1.913488	 -0.311404	 0.662132	 -0.661991	 0.162412	 1
1463569402.433	 12	 -0.017134	 0.062433	 0.043372	 -1.918257	 -1.359544	 1.909896	 -0.311219	 0.662452	 -0.661829	 0.162120	 1
1463569402.443	 12	 0.015726	 0.018701	 0.039476	 -1.917574	 -1.359565	 1.910258	 -0.311106	 0.662452	 -0.661906	 0.162022	 1
1463569402.453	 12	 0.047509	 -0.030323	 0.038738	 -1.914749	 -1.359820	 1.913258	 -0.311078	 0.662223	 -0.662112	 0.162172	 1
1463569402.463	 12	 0.076131	 -0.072940	 0.040220	 -1.911045	 -1.360317	 1.917602	 -0.311121	 0.661865	 -0.662352	 0.162565	 1
1463569402.473	 12	 0.100570	 -0.097462	 0.041909	 -1.907124	 -1.361019	 1.922501	 -0.311205	 0.661448	 -0.662586	 0.163146	 1
1463569402.483	 12	 0.115526	 -0.092204	 0.039694	 -1.903258	 -1.361611	 1.927414	 -0.311348	 0.661022	 -0.662805	 0.163712	 1
1463569402.493	 12	 0.126332	 -0.062460	 0.038808	 -1.899638	 -1.362155	 1.931870	 -0.311435	 0.660647	 -0.663020	 0.164190	 1
1463569402.503	 12	 0.125479	 -0.016718	 0.039238	 -1.896249	 -1.362595	 1.935678	 -0.311420	 0.660350	 -0.663247	 0.164494	 1
1463569402.513	 12	 0.120270	 0.013066	 0.037425	 -1.893061	 -1.362878	 1.938935	 -0.311342	 0.660117	 -0.663483	 0.164625	 1
1463569402.523	 12	 0.121383	 0.023701	 0.037508	 -1.889197	 -1.363066	 1.942707	 -0.311241	 0.659856	 -0.663779	 0.164670	 1
1463569402.533	 12	 0.130904	 0.010879	 0.033034	 -1.884441	 -1.363061	 1.947430	 -0.311222	 0.659513	 -0.664130	 0.164667	 1
1463569402.543	 12	 0.153118	 -0.025389	 0.027163	 -1.878095	 -1.362981	 1.954060	 -0.311326	 0.659000	 -0.664570	 0.164749	 1
1463569402.553	 12	 0.177475	 -0.060592	 0.022347	 -1.870477	 -1.362855	 1.962342	 -0.311564	 0.658332	 -0.665071	 0.164947	 1
1463569402.563	 12	 0.195528	 -0.076614	 0.019897	 -1.862725	 -1.362758	 1.971015	 -0.311872	 0.657615	 -0.665562	 0.165247	 1
1463569402.573	 12	 0.210512	 -0.073404	 0.028313	 -1.855147	 -1.362844	 1.979562	 -0.312129	 0.656913	 -0.666038	 0.165633	 1
1463569402.583	 12	 0.225630	 -0.045699	 0.041221	 -1.847255	 -1.363248	 1.988223	 -0.312206	 0.656239	 -0.666556	 0.166074	 1
1463569402.593	 12	 0.217198	 -0.023328	 0.042564	 -1.839215	 -1.363859	 1.996762	 -0.312119	 0.655612	 -0.667106	 0.166506	 1
1463569402.603	 12	 0.141052	 -0.091283	 0.027669	 -1.830957	 -1.364389	 2.005817	 -0.312151	 0.654921	 -0.667643	 0.167014	 1
1463569402.613	 12	 0.039135	 -0.205878	 0.024288	 -1.822486	 -1.364989	 2.015966	 -0.312441	 0.654085	 -0.668117	 0.167849	 1
1463569402.623	 12	 -0.014471	 -0.265222	 0.032729	 -1.825683	 -1.365271	 2.015311	 -0.313199	 0.653938	 -0.667672	 0.168778	 1
1463569402.633	 12	 -0.007998	 -0.251406	 0.033867	 -1.829249	 -1.365567	 2.014307	 -0.313961	 0.653813	 -0.667198	 0.169716	 1
1463569402.643	 12	 0.020985	 -0.205840	 0.022315	 -1.831118	 -1.365853	 2.014619	 -0.314590	 0.653624	 -0.666878	 0.170535	 1
1463569402.653	 12	 0.041437	 -0.156031	 0.005542	 -1.828067	 -1.365832	 2.019321	 -0.315116	 0.653143	 -0.666957	 0.171098	 1
1463569402.663	 12	 0.035230	 -0.105040	 -0.005653	 -1.827408	 -1.365905	 2.021203	 -0.315485	 0.652908	 -0.666900	 0.171537	 1
1463569402.673	 12	 0.017398	 -0.033775	 -0.012295	 -1.826744	 -1.365857	 2.022416	 -0.315676	 0.652770	 -0.666900	 0.171708	 1
1463569402.683	 12	 0.000740	 0.051371	 -0.012471	 -1.823208	 -1.365600	 2.025599	 -0.315622	 0.652553	 -0.667186	 0.171522	 1
1463569402.693	 12	 -0.011652	 0.131246	 -0.003094	 -1.822403	 -1.365521	 2.025266	 -0.315272	 0.652669	 -0.667341	 0.171120	 1
1463569402.703	 12	 -0.022000	 0.186697	 0.012433	 -1.821634	 -1.365563	 2.024259	 -0.314672	 0.652897	 -0.667548	 0.170548	 1
1463569402.713	 12	 -0.034717	 0.202713	 0.015890	 -1.821286	 -1.365643	 2.022561	 -0.313975	 0.653199	 -0.667748	 0.169896	 1
1463569402.723	 12	 -0.031686	 0.174973	 0.004938	 -1.818430	 -1.365063	 2.023486	 -0.313518	 0.653255	 -0.668118	 0.169062	 1
1463569402.733	 12	 -0.014896	 0.125900	 -0.008454	 -1.817888	 -1.364956	 2.022629	 -0.313094	 0.653428	 -0.668276	 0.168560	 1
1463569402.743	 12	 0.009413	 0.073730	 -0.005953	 -1.816764	 -1.364893	 2.022888	 -0.312824	 0.653477	 -0.668430	 0.168256	 1
1463569402.753	 12	 0.027406	 0.028062	 0.010513	 -1.813977	 -1.364738	 2.025275	 -0.312724	 0.653327	 -0.668665	 0.168088	 1
1463569402.763	 12	 0.037986	 -0.005883	 0.027154	 -1.811426	 -1.364868	 2.027810	 -0.312656	 0.653155	 -0.668850	 0.168149	 1
1463569402.773	 12	 0.037909	 -0.030277	 0.036517	 -1.809620	 -1.365155	 2.029873	 -0.312629	 0.653005	 -0.668958	 0.168353	 1
1463569402.783	 12	 0.032522	 -0.046170	 0.042808	 -1.808823	 -1.365421	 2.031121	 -0.312680	 0.652896	 -0.668976	 0.168607	 1
1463569402.793	 12	 0.030325	 -0.062095	 0.045873	 -1.808140	 -1.365716	 2.032396	 -0.312768	 0.652776	 -0.668974	 0.168917	 1
1463569402.803	 12	 0.033410	 -0.086568	 0.045614	 -1.807346	 -1.365992	 2.034000	 -0.312933	 0.652613	 -0.668961	 0.169294	 1
1463569402.813	 12	 0.042946	 -0.098320	 0.042221	 -1.806565	 -1.366255	 2.035776	 -0.313163	 0.652420	 -0.668931	 0.169729	 1
1463569402.823	 12	 0.047279	 -0.078177	 0.034907	 -1.805759	 -1.366455	 2.037477	 -0.313380	 0.652237	 -0.668912	 0.170107	 1
1463569402.833	 12	 0.043158	 -0.039934	 0.026771	 -1.804848	 -1.366699	 2.038933	 -0.313468	 0.652105	 -0.668929	 0.170386	 1
1463569402.843	 12	 0.032677	 0.001573	 0.026185	 -1.804645	 -1.367164	 2.039265	 -0.313352	 0.652105	 -0.668929	 0.170599	 1
1463569402.853	 12	 0.023178	 0.016554	 0.034938	 -1.804369	 -1.367828	 2.039432	 -0.313090	 0.652152	 -0.668953	 0.170805	 1
1463569402.863	 12	 0.024232	 0.004927	 0.045484	 -1.803993	 -1.368726	 2.039751	 -0.312766	 0.652202	 -0.668977	 0.171114	 1
1463569402.873	 12	 0.033779	 -0.011027	 0.049523	 -1.803176	 -1.369760	 2.040662	 -0.312441	 0.652207	 -0.669019	 0.171525	 1
1463569402.883	 12	 0.040122	 -0.024867	 0.050409	 -1.801979	 -1.370696	 2.042095	 -0.312192	 0.652156	 -0.669074	 0.171953	 1
1463569402.893	 12	 0.037942	 -0.035490	 0.051398	 -1.800929	 -1.371491	 2.043497	 -0.312030	 0.652088	 -0.669110	 0.172367	 1
1463569402.903	 12	 0.032581	 -0.043960	 0.054565	 -1.799702	 -1.372243	 2.045151	 -0.311905	 0.651993	 -0.669151	 0.172792	 1
1463569402.913	 12	 0.031490	 -0.050331	 0.055581	 -1.798337	 -1.372906	 2.046998	 -0.311827	 0.651873	 -0.669198	 0.173205	 1
1463569402.923	 12	 0.033606	 -0.054591	 0.055522	 -1.796735	 -1.373501	 2.049139	 -0.311788	 0.651724	 -0.669255	 0.173613	 1
1463569402.933	 12	 0.032501	 -0.062041	 0.054394	 -1.795482	 -1.374028	 2.050993	 -0.311796	 0.651584	 -0.669283	 0.174016	 1
1463569402.943	 12	 0.031382	 -0.073738	 0.054292	 -1.793846	 -1.374485	 2.053320	 -0.311852	 0.651400	 -0.669330	 0.174427	 1
1463569402.953	 12	 0.037636	 -0.106722	 0.054993	 -1.791684	 -1.374923	 2.056453	 -0.312001	 0.651134	 -0.669387	 0.174929	 1
1463569402.963	 12	 0.046047	 -0.133346	 0.053601	 -1.789288	 -1.375332	 2.060115	 -0.312253	 0.650805	 -0.669434	 0.175523	 1
1463569402.973	 12	 0.050272	 -0.142931	 0.053471	 -1.787568	 -1.375714	 2.063259	 -0.312572	 0.650496	 -0.669421	 0.176153	 1
1463569402.983	 12	 0.052435	 -0.140779	 0.057731	 -1.786194	 -1.376140	 2.066063	 -0.312881	 0.650213	 -0.669381	 0.176798	 1
1463569402.993	 12	 0.054627	 -0.132245	 0.062051	 -1.784957	 -1.376623	 2.068673	 -0.313152	 0.649954	 -0.669335	 0.177444	 1
1463569403.003	 12	 0.057853	 -0.120608	 0.054667	 -1.784097	 -1.377080	 2.070811	 -0.313406	 0.649733	 -0.669272	 0.178044	 1
1463569403.013	 12	 0.053602	 -0.104741	 0.040994	 -1.783971	 -1.377408	 2.072084	 -0.313667	 0.649571	 -0.669172	 0.178548	 1
1463569403.023	 12	 0.043955	 -0.100566	 0.026194	 -1.784022	 -1.377570	 2.073096	 -0.313958	 0.649421	 -0.669070	 0.178961	 1
1463569403.033	 12	 0.039555	 -0.106057	 0.000599	 -1.784154	 -1.377428	 2.074069	 -0.314366	 0.649245	 -0.668965	 0.179278	 1
1463569403.043	 12	 0.044851	 -0.095591	 -0.020670	 -1.784245	 -1.376993	 2.075051	 -0.314861	 0.649046	 -0.668871	 0.179479	 1
1463569403.053	 12	 0.056705	 -0.062714	 -0.028998	 -1.784034	 -1.376472	 2.076078	 -0.315299	 0.648860	 -0.668822	 0.179567	 1
1463569403.063	 12	 0.071889	 -0.013800	 -0.024412	 -1.782636	 -1.376265	 2.077845	 -0.315474	 0.648690	 -0.668888	 0.179630	 1
1463569403.073	 12	 0.091369	 0.037259	 -0.015577	 -1.779966	 -1.376391	 2.080387	 -0.315363	 0.648539	 -0.669078	 0.179660	 1
1463569403.083	 12	 0.106532	 0.078750	 -0.007857	 -1.775673	 -1.376789	 2.084118	 -0.315002	 0.648371	 -0.669411	 0.179659	 1
1463569403.093	 12	 0.117306	 0.098942	 -0.005626	 -1.769956	 -1.377287	 2.089008	 -0.314506	 0.648158	 -0.669860	 0.179622	 1
1463569403.103	 12	 0.112973	 0.085127	 -0.005711	 -1.763266	 -1.377807	 2.094902	 -0.314000	 0.647879	 -0.670369	 0.179617	 1
1463569403.113	 12	 0.086066	 0.034166	 -0.003813	 -1.756564	 -1.378419	 2.101189	 -0.313584	 0.647551	 -0.670839	 0.179774	 1
1463569403.123	 12	 0.049519	 -0.028435	 0.002326	 -1.751326	 -1.379165	 2.106575	 -0.313320	 0.647247	 -0.671153	 0.180152	 1
1463569403.133	 12	 0.024864	 -0.061266	 0.011838	 -1.748484	 -1.380031	 2.109951	 -0.313169	 0.647057	 -0.671267	 0.180676	 1
1463569403.143	 12	 0.026002	 -0.057978	 0.025713	 -1.748026	 -1.380291	 2.111040	 -0.313281	 0.646952	 -0.671232	 0.180987	 1
1463569403.153	 12	 0.045367	 -0.030334	 0.032197	 -1.746639	 -1.380668	 2.112832	 -0.313269	 0.646833	 -0.671274	 0.181274	 1
1463569403.163	 12	 0.059301	 -0.022883	 0.038539	 -1.744302	 -1.381125	 2.115450	 -0.313179	 0.646679	 -0.671388	 0.181561	 1
1463569403.173	 12	 0.057102	 -0.037761	 0.039492	 -1.741537	 -1.382010	 2.118585	 -0.312968	 0.646525	 -0.671505	 0.182036	 1
1463569403.183	 12	 0.044207	 -0.049484	 0.030969	 -1.739882	 -1.382421	 2.120747	 -0.312974	 0.646377	 -0.671553	 0.182374	 1
1463569403.193	 12	 0.032461	 -0.042081	 0.020483	 -1.738721	 -1.382702	 2.122395	 -0.313023	 0.646253	 -0.671574	 0.182652	 1
1463569403.203	 12	 0.025076	 -0.019760	 0.015426	 -1.737753	 -1.382897	 2.123636	 -0.313034	 0.646166	 -0.671605	 0.182826	 1
1463569403.213	 12	 0.024114	 -0.000581	 0.019877	 -1.737955	 -1.383171	 2.123523	 -0.312974	 0.646192	 -0.671574	 0.182951	 1
1463569403.223	 12	 0.030562	 0.007924	 0.022034	 -1.737754	 -1.383558	 2.123694	 -0.312832	 0.646222	 -0.671576	 0.183082	 1
1463569403.233	 12	 0.036979	 0.006879	 0.027301	 -1.736787	 -1.384063	 2.124628	 -0.312641	 0.646214	 -0.671623	 0.183263	 1
1463569403.243	 12	 0.044447	 0.004745	 0.029352	 -1.735170	 -1.384646	 2.126230	 -0.312420	 0.646170	 -0.671707	 0.183487	 1
1463569403.253	 12	 0.048737	 0.003714	 0.035704	 -1.732903	 -1.385342	 2.128494	 -0.312158	 0.646094	 -0.671826	 0.183763	 1
1463569403.263	 12	 0.049833	 0.001653	 0.045274	 -1.730566	 -1.386216	 2.130852	 -0.311843	 0.646029	 -0.671940	 0.184112	 1
1463569403.273	 12	 0.047717	 -0.000422	 0.051674	 -1.728122	 -1.387198	 2.133321	 -0.311492	 0.645968	 -0.672054	 0.184502	 1
1463569403.283	 12	 0.044493	 -0.011003	 0.058006	 -1.725549	 -1.388309	 2.135988	 -0.311119	 0.645903	 -0.672163	 0.184964	 1
1463569403.293	 12	 0.040130	 -0.035424	 0.062088	 -1.722898	 -1.389468	 2.138932	 -0.310792	 0.645810	 -0.672253	 0.185510	 1
1463569403.303	 12	 0.026118	 -0.057789	 0.052415	 -1.720952	 -1.390401	 2.141407	 -0.310626	 0.645702	 -0.672285	 0.186045	 1
1463569403.313	 12	 0.006817	 -0.066341	 0.038651	 -1.720189	 -1.390974	 2.142803	 -0.310630	 0.645616	 -0.672249	 0.186472	 1
1463569403.323	 12	 -0.007099	 -0.077984	 0.040796	 -1.720222	 -1.391415	 2.143483	 -0.310713	 0.645553	 -0.672161	 0.186867	 1
1463569403.333	 12	 -0.014601	 -0.092790	 0.049249	 -1.720852	 -1.391837	 2.143704	 -0.310856	 0.645503	 -0.672023	 0.187295	 1
1463569403.343	 12	 -0.016756	 -0.102318	 0.054507	 -1.721919	 -1.392336	 2.143598	 -0.311014	 0.645471	 -0.671845	 0.187781	 1
1463569403.353	 12	 -0.025205	 -0.082098	 0.052634	 -1.724194	 -1.392707	 2.142181	 -0.311197	 0.645516	 -0.671608	 0.188172	 1
1463569403.363	 12	 -0.032545	 -0.052308	 0.050840	 -1.727629	 -1.392950	 2.139321	 -0.311346	 0.645662	 -0.671332	 0.188406	 1
1463569403.373	 12	 -0.030317	 -0.023666	 0.041492	 -1.731352	 -1.393068	 2.135897	 -0.311450	 0.645856	 -0.671070	 0.188501	 1
1463569403.383	 12	 -0.019621	 -0.007828	 0.029819	 -1.734269	 -1.393108	 2.133085	 -0.311507	 0.646023	 -0.670879	 0.188515	 1
1463569403.393	 12	 -0.007840	 0.008037	 0.022401	 -1.735983	 -1.393144	 2.131336	 -0.311505	 0.646138	 -0.670776	 0.188494	 1
1463569403.403	 12	 -0.001322	 0.032490	 0.023635	 -1.737594	 -1.393186	 2.129476	 -0.311431	 0.646280	 -0.670699	 0.188406	 1
1463569403.413	 12	 0.004132	 0.054841	 0.028057	 -1.738730	 -1.393373	 2.127863	 -0.311228	 0.646442	 -0.670666	 0.188299	 1
1463569403.423	 12	 0.011620	 0.060128	 0.026977	 -1.738866	 -1.393701	 2.127152	 -0.310934	 0.646572	 -0.670699	 0.188222	 1
1463569403.433	 12	 0.015892	 0.063291	 0.024839	 -1.738651	 -1.394041	 2.126765	 -0.310622	 0.646685	 -0.670756	 0.188143	 1
1463569403.443	 12	 0.014831	 0.066469	 0.022750	 -1.737780	 -1.394474	 2.126999	 -0.310261	 0.646773	 -0.670853	 0.188094	 1
1463569403.453	 12	 0.005254	 0.077095	 0.017606	 -1.737366	 -1.394804	 2.126683	 -0.309910	 0.646893	 -0.670934	 0.187972	 1
1463569403.463	 12	 -0.005385	 0.088789	 0.012480	 -1.737425	 -1.394964	 2.125763	 -0.309578	 0.647045	 -0.671005	 0.187740	 1
1463569403.473	 12	 -0.010709	 0.093044	 0.010435	 -1.737336	 -1.395093	 2.124919	 -0.309233	 0.647197	 -0.671092	 0.187474	 1
1463569403.483	 12	 -0.007508	 0.091978	 0.011463	 -1.736748	 -1.395247	 2.124569	 -0.308870	 0.647321	 -0.671210	 0.187221	 1
1463569403.493	 12	 -0.003273	 0.084520	 0.011358	 -1.735996	 -1.395429	 2.124443	 -0.308516	 0.647428	 -0.671331	 0.187000	 1
1463569403.503	 12	 0.003097	 0.077055	 0.011234	 -1.734443	 -1.395614	 2.125192	 -0.308175	 0.647476	 -0.671493	 0.186815	 1
1463569403.513	 12	 0.011562	 0.057915	 0.015246	 -1.732516	 -1.395815	 2.126480	 -0.307878	 0.647477	 -0.671662	 0.186695	 1
1463569403.523	 12	 0.021061	 0.031326	 0.019178	 -1.729996	 -1.396017	 2.128616	 -0.307655	 0.647404	 -0.671842	 0.186669	 1
1463569403.533	 12	 0.023124	 0.012205	 0.023245	 -1.727695	 -1.396262	 2.130747	 -0.307491	 0.647315	 -0.671987	 0.186727	 1
1463569403.543	 12	 0.023066	 -0.002671	 0.025238	 -1.725512	 -1.396567	 2.132919	 -0.307358	 0.647215	 -0.672106	 0.186859	 1
1463569403.553	 12	 0.016611	 -0.019623	 0.031532	 -1.723897	 -1.396927	 2.134690	 -0.307268	 0.647130	 -0.672174	 0.187059	 1
1463569403.563	 12	 0.009078	 -0.039756	 0.038870	 -1.722820	 -1.397324	 2.136098	 -0.307229	 0.647055	 -0.672190	 0.187325	 1
1463569403.573	 12	 0.002579	 -0.066282	 0.045075	 -1.722166	 -1.397837	 2.137329	 -0.307236	 0.646979	 -0.672153	 0.187710	 1
1463569403.583	 12	 -0.005983	 -0.076854	 0.050380	 -1.722042	 -1.398373	 2.138200	 -0.307297	 0.646911	 -0.672066	 0.188153	 1
1463569403.593	 12	 -0.013429	 -0.069409	 0.047315	 -1.723362	 -1.398743	 2.137567	 -0.307412	 0.646921	 -0.671907	 0.188499	 1
1463569403.603	 12	 -0.014486	 -0.060950	 0.039938	 -1.725073	 -1.398916	 2.136468	 -0.307573	 0.646946	 -0.671740	 0.188744	 1
1463569403.613	 12	 -0.015521	 -0.045069	 0.029432	 -1.726797	 -1.398919	 2.135226	 -0.307750	 0.646975	 -0.671592	 0.188886	 1
1463569403.623	 12	 -0.013306	 -0.018561	 0.018997	 -1.728675	 -1.398839	 2.133597	 -0.307880	 0.647040	 -0.671460	 0.188918	 1
1463569403.633	 12	 -0.009988	 0.011173	 0.013911	 -1.730490	 -1.398673	 2.131738	 -0.307943	 0.647139	 -0.671363	 0.188822	 1
1463569403.643	 12	 -0.001337	 0.036667	 0.013003	 -1.731288	 -1.398569	 2.130647	 -0.307894	 0.647221	 -0.671347	 0.188677	 1
1463569403.653	 12	 0.007315	 0.063217	 0.011040	 -1.731286	 -1.398513	 2.130089	 -0.307731	 0.647302	 -0.671403	 0.188469	 1
1463569403.663	 12	 0.020167	 0.074864	 0.008902	 -1.729777	 -1.398451	 2.130885	 -0.307502	 0.647315	 -0.671562	 0.188226	 1
1463569403.673	 12	 0.028646	 0.067378	 0.004429	 -1.726769	 -1.398357	 2.133202	 -0.307274	 0.647233	 -0.671811	 0.187998	 1
1463569403.683	 12	 0.032811	 0.048189	 -0.000053	 -1.722637	 -1.398227	 2.136805	 -0.307095	 0.647054	 -0.672113	 0.187825	 1
1463569403.693	 12	 0.029501	 0.027959	 -0.004478	 -1.718447	 -1.398125	 2.140662	 -0.306968	 0.646845	 -0.672398	 0.187730	 1
1463569403.703	 12	 0.024111	 0.016268	 -0.005607	 -1.714454	 -1.398067	 2.144455	 -0.306871	 0.646632	 -0.672658	 0.187693	 1
1463569403.713	 12	 0.008056	 0.007784	 -0.008744	 -1.711671	 -1.398019	 2.147134	 -0.306817	 0.646477	 -0.672836	 0.187678	 1
1463569403.723	 12	 -0.007946	 0.009945	 -0.010718	 -1.710565	 -1.397824	 2.148136	 -0.306834	 0.646407	 -0.672921	 0.187588	 1
1463569403.733	 12	 -0.017536	 0.015269	 -0.013782	 -1.710619	 -1.397699	 2.147929	 -0.306826	 0.646420	 -0.672938	 0.187492	 1
1463569403.743	 12	 -0.023890	 0.023813	 -0.011515	 -1.711644	 -1.397563	 2.146671	 -0.306810	 0.646503	 -0.672905	 0.187352	 1
1463569403.753	 12	 -0.021700	 0.026018	 0.000211	 -1.713102	 -1.397606	 2.144935	 -0.306725	 0.646637	 -0.672842	 0.187254	 1
1463569403.763	 12	 -0.014283	 0.006919	 0.009564	 -1.714164	 -1.397827	 2.143732	 -0.306620	 0.646745	 -0.672781	 0.187271	 1
1463569403.773	 12	 -0.001577	 -0.019664	 0.015603	 -1.714381	 -1.398120	 2.143632	 -0.306563	 0.646771	 -0.672744	 0.187412	 1
1463569403.783	 12	 0.002721	 -0.016463	 0.018795	 -1.714013	 -1.398499	 2.144199	 -0.306496	 0.646758	 -0.672729	 0.187618	 1
1463569403.793	 12	 0.004941	 -0.003659	 0.025291	 -1.714372	 -1.398822	 2.143892	 -0.306410	 0.646804	 -0.672688	 0.187746	 1
1463569403.803	 12	 0.011286	 -0.020658	 0.030406	 -1.713488	 -1.399123	 2.144919	 -0.306344	 0.646761	 -0.672713	 0.187912	 1
1463569403.813	 12	 0.018649	 -0.044080	 0.030124	 -1.711532	 -1.399454	 2.147261	 -0.306333	 0.646621	 -0.672776	 0.188184	 1
1463569403.823	 12	 0.013261	 -0.050492	 0.023715	 -1.709933	 -1.399674	 2.149348	 -0.306397	 0.646475	 -0.672814	 0.188448	 1
1463569403.833	 12	 -0.000614	 -0.049402	 0.021713	 -1.709764	 -1.399819	 2.150007	 -0.306505	 0.646405	 -0.672771	 0.188666	 1
1463569403.843	 12	 -0.016610	 -0.054611	 0.030329	 -1.710538	 -1.400035	 2.149734	 -0.306604	 0.646397	 -0.672668	 0.188901	 1
1463569403.853	 12	 -0.031581	 -0.064115	 0.033567	 -1.712130	 -1.400301	 2.148716	 -0.306722	 0.646430	 -0.672507	 0.189167	 1
1463569403.863	 12	 -0.040195	 -0.076885	 0.029260	 -1.715033	 -1.400557	 2.146515	 -0.306901	 0.646519	 -0.672258	 0.189457	 1
1463569403.873	 12	 -0.047698	 -0.067429	 0.010228	 -1.719259	 -1.400485	 2.142974	 -0.307200	 0.646655	 -0.671948	 0.189607	 1
1463569403.883	 12	 -0.042301	 -0.051513	 0.007128	 -1.722743	 -1.400273	 2.139998	 -0.307480	 0.646761	 -0.671704	 0.189659	 1
1463569403.893	 12	 -0.028421	 -0.057867	 0.016535	 -1.725228	 -1.400033	 2.138048	 -0.307763	 0.646801	 -0.671518	 0.189722	 1
1463569403.903	 12	 -0.019935	 -0.072746	 0.021647	 -1.727680	 -1.399911	 2.136270	 -0.308052	 0.646830	 -0.671314	 0.189875	 1
1463569403.913	 12	 -0.015699	 -0.079141	 0.021547	 -1.730094	 -1.399897	 2.134620	 -0.308334	 0.646853	 -0.671099	 0.190097	 1
1463569403.923	 12	 -0.010399	 -0.077107	 0.010860	 -1.732433	 -1.399849	 2.133067	 -0.308632	 0.646865	 -0.670888	 0.190315	 1
1463569403.933	 12	 -0.004016	 -0.071885	 0.000192	 -1.734199	 -1.399655	 2.132041	 -0.308957	 0.646837	 -0.670722	 0.190473	 1
1463569403.943	 12	 0.010908	 -0.068793	 -0.007375	 -1.734771	 -1.399286	 2.132179	 -0.309317	 0.646725	 -0.670635	 0.190573	 1
1463569403.953	 12	 0.017305	 -0.064604	 -0.013791	 -1.734334	 -1.398892	 2.133286	 -0.309661	 0.646556	 -0.670614	 0.190663	 1
1463569403.963	 12	 0.019442	 -0.060387	 -0.018037	 -1.733441	 -1.398531	 2.134813	 -0.309976	 0.646370	 -0.670621	 0.190758	 1
1463569403.973	 12	 0.019463	 -0.056132	 -0.017997	 -1.732345	 -1.398412	 2.136495	 -0.310191	 0.646202	 -0.670636	 0.190925	 1
1463569403.983	 12	 0.017388	 -0.051802	 -0.008344	 -1.731677	 -1.398518	 2.137712	 -0.310325	 0.646087	 -0.670619	 0.191156	 1
1463569403.993	 12	 0.013156	 -0.049615	 -0.001889	 -1.731509	 -1.398716	 2.138391	 -0.310422	 0.646017	 -0.670571	 0.191399	 1
1463569404.003	 12	 0.007825	 -0.054864	 0.005572	 -1.731609	 -1.398954	 2.138827	 -0.310517	 0.645964	 -0.670504	 0.191662	 1
1463569404.013	 12	 0.000302	 -0.068646	 0.008709	 -1.732332	 -1.399217	 2.138754	 -0.310647	 0.645932	 -0.670387	 0.191965	 1
1463569404.023	 12	 -0.003995	 -0.078175	 0.012923	 -1.733248	 -1.399424	 2.138594	 -0.310834	 0.645890	 -0.670252	 0.192280	 1
1463569404.033	 12	 -0.007163	 -0.073888	 0.016188	 -1.734530	 -1.399605	 2.138068	 -0.311033	 0.645866	 -0.670095	 0.192583	 1
1463569404.043	 12	 -0.010291	 -0.060035	 0.018476	 -1.736094	 -1.399789	 2.137129	 -0.311192	 0.645879	 -0.669935	 0.192839	 1
1463569404.053	 12	 -0.012335	 -0.042995	 0.020783	 -1.737084	 -1.399913	 2.136587	 -0.311307	 0.645880	 -0.669828	 0.193021	 1
1463569404.063	 12	 -0.011259	 -0.038766	 0.017613	 -1.737650	 -1.399921	 2.136391	 -0.311431	 0.645857	 -0.669758	 0.193141	 1
1463569404.073	 12	 -0.005971	 -0.049418	 0.017463	 -1.737401	 -1.399833	 2.137080	 -0.311600	 0.645765	 -0.669734	 0.193260	 1
1463569404.083	 12	 -0.002855	 -0.065405	 0.014084	 -1.737040	 -1.399664	 2.138038	 -0.311844	 0.645634	 -0.669705	 0.193404	 1
1463569404.093	 12	 -0.001862	 -0.076091	 0.007575	 -1.736883	 -1.399384	 2.138915	 -0.312168	 0.645485	 -0.669656	 0.193548	 1
1463569404.103	 12	 -0.004050	 -0.081457	 0.000077	 -1.737018	 -1.399019	 2.139568	 -0.312547	 0.645334	 -0.669587	 0.193680	 1
1463569404.113	 12	 -0.006142	 -0.075045	 0.003346	 -1.738000	 -1.398673	 2.139363	 -0.312925	 0.645237	 -0.669468	 0.193805	 1
1463569404.123	 12	 -0.007133	 -0.062247	 0.007731	 -1.739466	 -1.398358	 2.138555	 -0.313260	 0.645190	 -0.669330	 0.193895	 1
1463569404.133	 12	 -0.004982	 -0.052728	 0.001400	 -1.741066	 -1.398039	 2.137508	 -0.313564	 0.645168	 -0.669194	 0.193947	 1
1463569404.143	 12	 -0.001790	 -0.050641	 -0.002876	 -1.742411	 -1.397717	 2.136677	 -0.313854	 0.645136	 -0.669077	 0.193989	 1
1463569404.153	 12	 0.002426	 -0.060235	 -0.004072	 -1.743504	 -1.397374	 2.136171	 -0.314171	 0.645076	 -0.668968	 0.194050	 1
1463569404.163	 12	 0.005571	 -0.068778	 -0.007380	 -1.744720	 -1.397080	 2.135639	 -0.314504	 0.645013	 -0.668840	 0.194159	 1
1463569404.173	 12	 0.005558	 -0.069850	 -0.008458	 -1.745942	 -1.396862	 2.135141	 -0.314826	 0.644952	 -0.668705	 0.194309	 1
1463569404.183	 12	 0.005611	 -0.059206	 -0.007294	 -1.746856	 -1.396747	 2.134864	 -0.315080	 0.644896	 -0.668592	 0.194470	 1
1463569404.193	 12	 0.003548	 -0.045357	 -0.005015	 -1.748043	 -1.396718	 2.134174	 -0.315264	 0.644886	 -0.668474	 0.194612	 1
1463569404.203	 12	 0.002526	 -0.039997	 0.000374	 -1.748818	 -1.396795	 2.133814	 -0.315381	 0.644875	 -0.668383	 0.194769	 1
1463569404.213	 12	 0.003550	 -0.051678	 0.003455	 -1.749378	 -1.396884	 2.133739	 -0.315514	 0.644841	 -0.668299	 0.194956	 1
1463569404.223	 12	 0.006693	 -0.066556	 0.006487	 -1.749799	 -1.396996	 2.133946	 -0.315685	 0.644777	 -0.668208	 0.195201	 1
1463569404.233	 12	 0.008769	 -0.082486	 0.010585	 -1.750241	 -1.397149	 2.134292	 -0.315892	 0.644694	 -0.668099	 0.195513	 1
1463569404.243	 12	 0.007654	 -0.095224	 0.013674	 -1.750867	 -1.397324	 2.134601	 -0.316142	 0.644601	 -0.667963	 0.195881	 1
1463569404.253	 12	 0.009786	 -0.097342	 0.015767	 -1.751644	 -1.397478	 2.134810	 -0.316418	 0.644506	 -0.667813	 0.196256	 1
1463569404.263	 12	 0.009807	 -0.089920	 0.012637	 -1.752545	 -1.397560	 2.134846	 -0.316703	 0.644420	 -0.667664	 0.196588	 1
1463569404.273	 12	 0.007716	 -0.075069	 0.006397	 -1.753460	 -1.397515	 2.134738	 -0.316988	 0.644343	 -0.667531	 0.196830	 1
1463569404.283	 12	 0.001386	 -0.054879	 0.001308	 -1.754502	 -1.397322	 2.134314	 -0.317264	 0.644289	 -0.667415	 0.196956	 1
1463569404.293	 12	 -0.004948	 -0.033641	 -0.005904	 -1.755459	 -1.397017	 2.133758	 -0.317506	 0.644254	 -0.667330	 0.196969	 1
1463569404.303	 12	 -0.014519	 -0.016616	 -0.011047	 -1.756795	 -1.396691	 2.132629	 -0.317698	 0.644271	 -0.667241	 0.196907	 1
1463569404.313	 12	 -0.014455	 -0.001733	 -0.011977	 -1.758368	 -1.396374	 2.131117	 -0.317842	 0.644327	 -0.667152	 0.196796	 1
1463569404.323	 12	 -0.012288	 0.004650	 -0.010872	 -1.759551	 -1.396096	 2.129898	 -0.317936	 0.644378	 -0.667094	 0.196671	 1
1463569404.333	 12	 -0.003741	 0.002536	 -0.005638	 -1.760053	 -1.395968	 2.129366	 -0.317975	 0.644401	 -0.667071	 0.196610	 1
1463569404.343	 12	 0.002650	 -0.002779	 -0.002547	 -1.759662	 -1.395882	 2.129773	 -0.318005	 0.644367	 -0.667096	 0.196588	 1
1463569404.353	 12	 0.001544	 -0.011284	 -0.002618	 -1.758789	 -1.395810	 2.130727	 -0.318045	 0.644294	 -0.667144	 0.196600	 1
1463569404.363	 12	 -0.001703	 -0.018743	 -0.005858	 -1.757787	 -1.395681	 2.131877	 -0.318124	 0.644198	 -0.667195	 0.196615	 1
1463569404.373	 12	 -0.008115	 -0.016635	 -0.011114	 -1.757216	 -1.395406	 2.132605	 -0.318261	 0.644112	 -0.667224	 0.196575	 1
1463569404.383	 12	 -0.007045	 -0.014526	 -0.013238	 -1.757012	 -1.395102	 2.132939	 -0.318402	 0.644050	 -0.667235	 0.196512	 1
1463569404.393	 12	 -0.002785	 -0.015610	 -0.014353	 -1.756803	 -1.394852	 2.133297	 -0.318531	 0.643990	 -0.667242	 0.196475	 1
1463569404.403	 12	 0.005711	 -0.025201	 -0.013451	 -1.756531	 -1.394678	 2.133796	 -0.318659	 0.643921	 -0.667243	 0.196492	 1
1463569404.413	 12	 0.012071	 -0.036897	 -0.010418	 -1.756030	 -1.394546	 2.134649	 -0.318811	 0.643822	 -0.667244	 0.196568	 1
1463569404.423	 12	 0.014226	 -0.036865	 -0.005109	 -1.755972	 -1.394459	 2.135101	 -0.318966	 0.643747	 -0.667212	 0.196669	 1
1463569404.433	 12	 0.012128	 -0.030462	 -0.002899	 -1.756213	 -1.394435	 2.135203	 -0.319087	 0.643705	 -0.667164	 0.196772	 1
1463569404.443	 12	 0.006822	 -0.024064	 -0.002793	 -1.756633	 -1.394419	 2.135057	 -0.319186	 0.643685	 -0.667112	 0.196853	 1
1463569404.453	 12	 0.003654	 -0.017665	 -0.001639	 -1.756891	 -1.394470	 2.134991	 -0.319233	 0.643675	 -0.667076	 0.196932	 1
1463569404.463	 12	 0.001477	 -0.013385	 -0.001643	 -1.757266	 -1.394497	 2.134769	 -0.319278	 0.643676	 -0.667037	 0.196988	 1
1463569404.473	 12	 -0.000654	 -0.014427	 0.000499	 -1.757677	 -1.394612	 2.134501	 -0.319290	 0.643690	 -0.666993	 0.197072	 1
1463569404.483	 12	 -0.001710	 -0.015456	 0.004764	 -1.758414	 -1.394818	 2.133929	 -0.319283	 0.643728	 -0.666924	 0.197192	 1
1463569404.493	 12	 -0.003831	 -0.015427	 0.007983	 -1.759033	 -1.395040	 2.133457	 -0.319263	 0.643763	 -0.666864	 0.197313	 1
1463569404.503	 12	 -0.003871	 -0.021825	 0.005793	 -1.759814	 -1.395152	 2.132873	 -0.319298	 0.643790	 -0.666793	 0.197410	 1
1463569404.513	 12	 -0.003911	 -0.031390	 0.006770	 -1.759917	 -1.395192	 2.133052	 -0.319377	 0.643755	 -0.666757	 0.197517	 1
1463569404.523	 12	 -0.001776	 -0.031396	 0.006750	 -1.759981	 -1.395200	 2.133304	 -0.319476	 0.643709	 -0.666722	 0.197625	 1
1463569404.533	 12	 -0.000715	 -0.028247	 0.001440	 -1.759985	 -1.395129	 2.133586	 -0.319593	 0.643657	 -0.666696	 0.197695	 1
1463569404.543	 12	 -0.000714	 -0.028247	 0.001440	 -1.759981	 -1.395115	 2.133857	 -0.319683	 0.643613	 -0.666670	 0.197779	 1
1463569404.553	 12	 0.001389	 -0.036747	 0.003473	 -1.760032	 -1.395113	 2.134148	 -0.319794	 0.643561	 -0.666633	 0.197891	 1
1463569404.563	 12	 0.001372	 -0.042050	 0.005556	 -1.760561	 -1.395168	 2.134036	 -0.319916	 0.643532	 -0.666558	 0.198044	 1
1463569404.573	 12	 0.000295	 -0.042062	 0.003434	 -1.761494	 -1.395218	 2.133532	 -0.320048	 0.643524	 -0.666457	 0.198194	 1
1463569404.583	 12	 0.000330	 -0.032505	 0.001390	 -1.762324	 -1.395162	 2.133062	 -0.320192	 0.643512	 -0.666373	 0.198284	 1
1463569404.593	 12	 0.000392	 -0.016574	 -0.001661	 -1.762846	 -1.395071	 2.132759	 -0.320299	 0.643500	 -0.666322	 0.198319	 1
1463569404.603	 12	 -0.000600	 -0.000616	 -0.001505	 -1.763380	 -1.394937	 2.132271	 -0.320365	 0.643513	 -0.666290	 0.198280	 1
1463569404.613	 12	 -0.003756	 0.003695	 0.004957	 -1.763535	 -1.394897	 2.132081	 -0.320369	 0.643524	 -0.666285	 0.198252	 1
1463569404.623	 12	 -0.006955	 0.000544	 0.009218	 -1.763703	 -1.394991	 2.131892	 -0.320332	 0.643547	 -0.666274	 0.198277	 1
1463569404.633	 12	 -0.009125	 -0.009007	 0.011281	 -1.763889	 -1.395158	 2.131757	 -0.320295	 0.643565	 -0.666251	 0.198352	 1
1463569404.643	 12	 -0.008165	 -0.018451	 0.016418	 -1.764043	 -1.395410	 2.131743	 -0.320258	 0.643576	 -0.666219	 0.198487	 1
1463569404.653	 12	 -0.007113	 -0.022701	 0.017436	 -1.764548	 -1.395620	 2.131439	 -0.320258	 0.643594	 -0.666161	 0.198624	 1
1463569404.663	 12	 -0.002839	 -0.021650	 0.017408	 -1.765107	 -1.395813	 2.131100	 -0.320270	 0.643611	 -0.666098	 0.198759	 1
1463569404.673	 12	 -0.000693	 -0.017417	 0.015297	 -1.765378	 -1.395941	 2.131013	 -0.320289	 0.643610	 -0.666059	 0.198863	 1
1463569404.683	 12	 -0.002827	 -0.016355	 0.014259	 -1.765846	 -1.396011	 2.130704	 -0.320322	 0.643619	 -0.666012	 0.198936	 1
1463569404.693	 12	 -0.003909	 -0.018487	 0.013181	 -1.766378	 -1.396029	 2.130346	 -0.320379	 0.643625	 -0.665962	 0.198995	 1
1463569404.703	 12	 -0.009235	 -0.011071	 0.006901	 -1.766938	 -1.395991	 2.129910	 -0.320437	 0.643636	 -0.665917	 0.199016	 1
1463569404.713	 12	 -0.011317	 0.001683	 0.004904	 -1.767634	 -1.395863	 2.129225	 -0.320492	 0.643664	 -0.665878	 0.198966	 1
1463569404.723	 12	 -0.009144	 0.009130	 0.006019	 -1.768192	 -1.395794	 2.128587	 -0.320495	 0.643705	 -0.665855	 0.198909	 1
1463569404.733	 12	 -0.003811	 0.011218	 0.002793	 -1.768320	 -1.395653	 2.128341	 -0.320506	 0.643719	 -0.665863	 0.198817	 1
1463569404.743	 12	 0.001510	 0.009067	 0.001658	 -1.768197	 -1.395475	 2.128367	 -0.320533	 0.643710	 -0.665887	 0.198723	 1
1463569404.753	 12	 0.001498	 0.004828	 0.003749	 -1.767941	 -1.395395	 2.128558	 -0.320536	 0.643698	 -0.665912	 0.198675	 1
1463569404.763	 12	 -0.000659	 -0.004700	 0.009006	 -1.767528	 -1.395365	 2.128981	 -0.320544	 0.643668	 -0.665937	 0.198673	 1
1463569404.773	 12	 -0.000707	 -0.017440	 0.012084	 -1.767289	 -1.395386	 2.129352	 -0.320577	 0.643635	 -0.665937	 0.198727	 1
1463569404.783	 12	 0.006692	 -0.034466	 0.013992	 -1.766900	 -1.395447	 2.130030	 -0.320645	 0.643570	 -0.665930	 0.198849	 1
1463569404.793	 12	 0.016144	 -0.050380	 0.012604	 -1.766577	 -1.395513	 2.130822	 -0.320771	 0.643481	 -0.665901	 0.199032	 1
1463569404.803	 12	 0.026785	 -0.059954	 0.016684	 -1.766438	 -1.395586	 2.131561	 -0.320937	 0.643383	 -0.665847	 0.199260	 1
1463569404.813	 12	 0.034237	 -0.070552	 0.025046	 -1.766306	 -1.395760	 2.132401	 -0.321106	 0.643278	 -0.665778	 0.199559	 1
1463569404.823	 12	 0.042752	 -0.080105	 0.031276	 -1.765855	 -1.396039	 2.133672	 -0.321271	 0.643145	 -0.665714	 0.199937	 1
1463569404.833	 12	 0.041689	 -0.079038	 0.031296	 -1.765507	 -1.396414	 2.134865	 -0.321413	 0.643023	 -0.665637	 0.200357	 1
1463569404.843	 12	 0.039570	 -0.077945	 0.034522	 -1.765350	 -1.396882	 2.135843	 -0.321519	 0.642925	 -0.665547	 0.200799	 1
1463569404.853	 12	 0.035289	 -0.082172	 0.036653	 -1.764952	 -1.397434	 2.137079	 -0.321599	 0.642818	 -0.665467	 0.201280	 1
1463569404.863	 12	 0.029932	 -0.088523	 0.038774	 -1.764758	 -1.397966	 2.138172	 -0.321707	 0.642711	 -0.665368	 0.201771	 1
1463569404.873	 12	 0.022433	 -0.091715	 0.035613	 -1.764918	 -1.398418	 2.138941	 -0.321856	 0.642614	 -0.665248	 0.202240	 1
1463569404.883	 12	 0.020299	 -0.085381	 0.028230	 -1.765027	 -1.398744	 2.139715	 -0.322032	 0.642509	 -0.665140	 0.202649	 1
1463569404.893	 12	 0.016090	 -0.068388	 0.023094	 -1.765297	 -1.398867	 2.140190	 -0.322233	 0.642416	 -0.665044	 0.202938	 1
1463569404.903	 12	 0.013005	 -0.040746	 0.020179	 -1.765873	 -1.398880	 2.140114	 -0.322396	 0.642372	 -0.664958	 0.203102	 1
1463569404.913	 12	 0.008869	 -0.009911	 0.017302	 -1.766465	 -1.398869	 2.139707	 -0.322466	 0.642376	 -0.664904	 0.203153	 1
1463569404.923	 12	 0.002543	 0.009231	 0.014335	 -1.766788	 -1.398721	 2.139343	 -0.322506	 0.642388	 -0.664895	 0.203082	 1
1463569404.933	 12	 0.004638	 0.003883	 0.011066	 -1.766948	 -1.398521	 2.139129	 -0.322557	 0.642388	 -0.664898	 0.202991	 1
1463569404.943	 12	 0.005594	 -0.013193	 0.003435	 -1.766584	 -1.398278	 2.139571	 -0.322659	 0.642331	 -0.664921	 0.202935	 1
1463569404.953	 12	 0.009738	 -0.031357	 -0.006366	 -1.765806	 -1.397970	 2.140620	 -0.322841	 0.642211	 -0.664952	 0.202923	 1
1463569404.963	 12	 0.010686	 -0.036433	 -0.010789	 -1.765032	 -1.397645	 2.141763	 -0.323059	 0.642075	 -0.664973	 0.202938	 1
1463569404.973	 12	 0.008596	 -0.028966	 -0.008572	 -1.764221	 -1.397373	 2.142892	 -0.323243	 0.641949	 -0.664999	 0.202956	 1
1463569404.983	 12	 0.007606	 -0.017224	 -0.003127	 -1.763899	 -1.397255	 2.143416	 -0.323343	 0.641886	 -0.665003	 0.202985	 1
1463569404.993	 12	 0.006563	 -0.014014	 -0.000956	 -1.763608	 -1.397304	 2.143857	 -0.323372	 0.641848	 -0.665003	 0.203056	 1
1463569405.003	 12	 0.009745	 -0.017222	 -0.002078	 -1.763098	 -1.397362	 2.144530	 -0.323399	 0.641797	 -0.665015	 0.203137	 1
1463569405.013	 12	 0.009748	 -0.018271	 0.000043	 -1.762666	 -1.397328	 2.145159	 -0.323468	 0.641736	 -0.665023	 0.203195	 1
1463569405.023	 12	 0.006584	 -0.009759	 -0.000917	 -1.762028	 -1.397301	 2.145923	 -0.323510	 0.641675	 -0.665049	 0.203235	 1
1463569405.033	 12	 0.002391	 0.006208	 -0.000732	 -1.761850	 -1.397282	 2.146084	 -0.323509	 0.641665	 -0.665062	 0.203224	 1
1463569405.043	 12	 0.000304	 0.011572	 0.004667	 -1.761590	 -1.397436	 2.146243	 -0.323422	 0.641680	 -0.665082	 0.203249	 1
1463569405.053	 12	 0.002460	 0.012660	 0.008922	 -1.761372	 -1.397663	 2.146334	 -0.323303	 0.641710	 -0.665099	 0.203290	 1
1463569405.063	 12	 0.000330	 0.012674	 0.010008	 -1.761416	 -1.397843	 2.146164	 -0.323203	 0.641750	 -0.665102	 0.203312	 1
1463569405.073	 12	 -0.012330	 0.045670	 0.008294	 -1.762957	 -1.397942	 2.144279	 -0.323078	 0.641907	 -0.665041	 0.203215	 1
1463569405.083	 12	 -0.016494	 0.059579	 0.018052	 -1.763681	 -1.398090	 2.142957	 -0.322845	 0.642061	 -0.665053	 0.203061	 1
1463569405.093	 12	 -0.014418	 0.043649	 0.022149	 -1.763695	 -1.398292	 2.142428	 -0.322612	 0.642164	 -0.665097	 0.202962	 1
1463569405.103	 12	 -0.014499	 0.025575	 0.023047	 -1.763812	 -1.398506	 2.141988	 -0.322438	 0.642243	 -0.665114	 0.202929	 1
1463569405.113	 12	 -0.011432	 0.011995	 0.021740	 -1.763616	 -1.398564	 2.142004	 -0.322358	 0.642266	 -0.665142	 0.202892	 1
1463569405.123	 12	 -0.012601	 -0.006115	 0.017315	 -1.762997	 -1.398395	 2.142601	 -0.322400	 0.642217	 -0.665188	 0.202832	 1
1463569405.133	 12	 -0.008455	 -0.029551	 0.013858	 -1.762419	 -1.398047	 2.143393	 -0.322579	 0.642115	 -0.665214	 0.202785	 1
1463569405.143	 12	 0.000070	 -0.029600	 0.010585	 -1.762428	 -1.398092	 2.143686	 -0.322661	 0.642071	 -0.665181	 0.202902	 1
1463569405.153	 12	 0.008653	 -0.008452	 -0.003147	 -1.762254	 -1.398152	 2.144014	 -0.322689	 0.642041	 -0.665174	 0.202976	 1
1463569405.163	 12	 0.014081	 0.011734	 -0.004073	 -1.761074	 -1.398044	 2.145121	 -0.322687	 0.641972	 -0.665256	 0.202927	 1
1463569405.173	 12	 0.008733	 0.005399	 0.000176	 -1.759890	 -1.397907	 2.146220	 -0.322692	 0.641902	 -0.665341	 0.202864	 1
1463569405.183	 12	 0.005456	 -0.009491	 -0.001000	 -1.759520	 -1.397898	 2.146647	 -0.322709	 0.641870	 -0.665357	 0.202884	 1
1463569405.193	 12	 0.005443	 -0.009514	 -0.004198	 -1.759738	 -1.397867	 2.146551	 -0.322761	 0.641860	 -0.665333	 0.202911	 1
1463569405.203	 12	 0.005494	 -0.000982	 -0.000921	 -1.760329	 -1.397886	 2.146009	 -0.322778	 0.641889	 -0.665292	 0.202927	 1
1463569405.213	 12	 0.004469	 0.004370	 0.003401	 -1.760490	 -1.397930	 2.145814	 -0.322753	 0.641909	 -0.665284	 0.202930	 1
1463569405.223	 12	 0.004459	 0.002243	 0.003381	 -1.760283	 -1.397945	 2.145998	 -0.322739	 0.641901	 -0.665298	 0.202930	 1
1463569405.233	 12	 0.002299	 -0.003069	 0.003350	 -1.760108	 -1.397949	 2.146189	 -0.322741	 0.641889	 -0.665307	 0.202939	 1
1463569405.243	 12	 0.002283	 -0.007316	 0.004376	 -1.760101	 -1.397926	 2.146266	 -0.322770	 0.641875	 -0.665301	 0.202954	 1
1463569405.253	 12	 0.004418	 -0.005211	 0.002245	 -1.760280	 -1.397928	 2.146156	 -0.322794	 0.641875	 -0.665283	 0.202975	 1
1463569405.263	 12	 0.002313	 0.000121	 0.003379	 -1.760393	 -1.397949	 2.146058	 -0.322793	 0.641881	 -0.665274	 0.202987	 1
1463569405.273	 12	 -0.000944	 0.004740	 0.001228	 -1.760713	 -1.397906	 2.145700	 -0.322799	 0.641902	 -0.665261	 0.202955	 1
1463569405.283	 12	 -0.000946	 0.003683	 0.002284	 -1.761093	 -1.397917	 2.145282	 -0.322788	 0.641932	 -0.665241	 0.202942	 1
1463569405.293	 12	 -0.004137	 0.005820	 0.002331	 -1.761055	 -1.397920	 2.145263	 -0.322768	 0.641939	 -0.665249	 0.202924	 1
1463569405.303	 12	 -0.002002	 0.006870	 0.001256	 -1.761162	 -1.397886	 2.145084	 -0.322758	 0.641954	 -0.665251	 0.202887	 1
1463569405.313	 12	 0.002252	 0.003666	 0.001190	 -1.760862	 -1.397928	 2.145334	 -0.322724	 0.641948	 -0.665273	 0.202889	 1
1463569405.323	 12	 0.005452	 0.002601	 0.002217	 -1.760352	 -1.397913	 2.145818	 -0.322715	 0.641920	 -0.665307	 0.202881	 1
1463569405.333	 12	 0.005435	 0.002570	 -0.002047	 -1.759907	 -1.397819	 2.146246	 -0.322735	 0.641887	 -0.665339	 0.202847	 1
1463569405.343	 12	 0.004373	 0.003636	 -0.002029	 -1.759524	 -1.397735	 2.146601	 -0.322750	 0.641861	 -0.665368	 0.202812	 1
1463569405.353	 12	 0.004373	 0.002580	 -0.000973	 -1.759075	 -1.397691	 2.147031	 -0.322754	 0.641833	 -0.665398	 0.202795	 1
1463569405.363	 12	 0.006512	 0.003638	 -0.000982	 -1.758821	 -1.397721	 2.147256	 -0.322731	 0.641825	 -0.665415	 0.202799	 1
1463569405.373	 12	 0.006520	 0.003653	 0.001150	 -1.758606	 -1.397773	 2.147441	 -0.322702	 0.641822	 -0.665429	 0.202810	 1
1463569405.383	 12	 0.006499	 -0.001658	 0.002167	 -1.758279	 -1.397802	 2.147769	 -0.322688	 0.641805	 -0.665448	 0.202825	 1
1463569405.393	 12	 0.002220	 -0.003772	 0.002184	 -1.758079	 -1.397840	 2.148004	 -0.322684	 0.641791	 -0.665455	 0.202852	 1
1463569405.403	 12	 0.001165	 -0.004802	 0.006447	 -1.758016	 -1.397922	 2.148113	 -0.322671	 0.641788	 -0.665450	 0.202897	 1
1463569405.413	 12	 0.001179	 -0.003723	 0.008589	 -1.757763	 -1.398054	 2.148394	 -0.322633	 0.641781	 -0.665458	 0.202957	 1
1463569405.423	 12	 0.006459	 -0.003389	 0.008463	 -1.757710	 -1.398161	 2.148481	 -0.322608	 0.641783	 -0.665453	 0.203007	 1
1463569405.433	 12	 0.009645	 -0.007645	 0.009461	 -1.757231	 -1.398236	 2.149024	 -0.322597	 0.641751	 -0.665472	 0.203061	 1
1463569405.443	 12	 0.013871	 -0.019335	 0.012512	 -1.756474	 -1.398296	 2.149940	 -0.322619	 0.641686	 -0.665498	 0.203145	 1
1463569405.453	 12	 0.015935	 -0.033177	 0.011299	 -1.755687	 -1.398388	 2.151034	 -0.322678	 0.641598	 -0.665511	 0.203288	 1
1463569405.463	 12	 0.012698	 -0.035341	 0.004911	 -1.755236	 -1.398360	 2.151847	 -0.322798	 0.641510	 -0.665502	 0.203404	 1
1463569405.473	 12	 0.013745	 -0.034327	 -0.001484	 -1.754544	 -1.398258	 2.152906	 -0.322941	 0.641400	 -0.665510	 0.203499	 1
1463569405.483	 12	 0.012731	 -0.019463	 -0.005602	 -1.753930	 -1.398045	 2.153768	 -0.323084	 0.641302	 -0.665530	 0.203513	 1
1463569405.493	 12	 0.013846	 -0.006726	 -0.008692	 -1.753332	 -1.397844	 2.154474	 -0.323179	 0.641229	 -0.665564	 0.203484	 1
1463569405.503	 12	 0.017056	 -0.000392	 -0.013990	 -1.752663	 -1.397684	 2.155173	 -0.323234	 0.641168	 -0.665607	 0.203445	 1
1463569405.513	 12	 0.017044	 -0.002520	 -0.014009	 -1.752161	 -1.397616	 2.155721	 -0.323265	 0.641124	 -0.665636	 0.203442	 1
1463569405.523	 12	 0.011701	 -0.006736	 -0.010803	 -1.751933	 -1.397648	 2.156023	 -0.323275	 0.641102	 -0.665640	 0.203481	 1
1463569405.533	 12	 0.006355	 -0.014119	 -0.004429	 -1.751980	 -1.397776	 2.156125	 -0.323281	 0.641093	 -0.665617	 0.203576	 1
1463569405.543	 12	 -0.001092	 -0.010891	 -0.002201	 -1.752425	 -1.397960	 2.155811	 -0.323267	 0.641117	 -0.665569	 0.203680	 1
1463569405.553	 12	 -0.002137	 -0.004521	 -0.004263	 -1.752522	 -1.398039	 2.155773	 -0.323261	 0.641121	 -0.665554	 0.203726	 1
1463569405.563	 12	 -0.001039	 0.001858	 -0.004212	 -1.752517	 -1.398079	 2.155775	 -0.323246	 0.641125	 -0.665553	 0.203740	 1
1463569405.573	 12	 0.001144	 0.010376	 -0.002020	 -1.752292	 -1.398094	 2.155913	 -0.323211	 0.641127	 -0.665575	 0.203718	 1
1463569405.583	 12	 0.000074	 0.011428	 -0.004133	 -1.751906	 -1.398068	 2.156187	 -0.323179	 0.641120	 -0.665610	 0.203677	 1
1463569405.593	 12	 -0.000009	 0.008650	 -0.004260	 -1.751325	 -1.398018	 2.156671	 -0.323157	 0.641096	 -0.665657	 0.203634	 1
1463569405.603	 12	 -0.000014	 0.006530	 -0.003214	 -1.750649	 -1.397977	 2.157263	 -0.323135	 0.641065	 -0.665708	 0.203600	 1
1463569405.613	 12	 0.003182	 0.004401	 -0.002196	 -1.749968	 -1.397955	 2.157896	 -0.323119	 0.641030	 -0.665754	 0.203584	 1
1463569405.623	 12	 0.005309	 -0.000893	 0.001999	 -1.749350	 -1.397960	 2.158505	 -0.323107	 0.640995	 -0.665792	 0.203591	 1
1463569405.633	 12	 0.007405	 -0.007296	 -0.000211	 -1.748391	 -1.397942	 2.159517	 -0.323118	 0.640927	 -0.665844	 0.203614	 1
1463569405.643	 12	 0.008424	 -0.015824	 -0.002432	 -1.747383	 -1.397848	 2.160665	 -0.323182	 0.640835	 -0.665895	 0.203640	 1
1463569405.653	 12	 0.006253	 -0.020103	 -0.006717	 -1.746353	 -1.397718	 2.161880	 -0.323271	 0.640730	 -0.665943	 0.203668	 1
1463569405.663	 12	 0.006230	 -0.024366	 -0.007822	 -1.745469	 -1.397616	 2.162988	 -0.323366	 0.640631	 -0.665978	 0.203717	 1
1463569405.673	 12	 0.009423	 -0.025446	 -0.008926	 -1.744476	 -1.397501	 2.164235	 -0.323473	 0.640519	 -0.666016	 0.203773	 1
1463569405.683	 12	 0.010564	 -0.012662	 -0.005620	 -1.743743	 -1.397449	 2.165132	 -0.323533	 0.640443	 -0.666046	 0.203819	 1
1463569405.693	 12	 0.007434	 -0.000922	 -0.001221	 -1.743663	 -1.397412	 2.165255	 -0.323559	 0.640427	 -0.666048	 0.203821	 1
1463569405.703	 12	 0.005285	 -0.003051	 -0.002288	 -1.743397	 -1.397395	 2.165548	 -0.323569	 0.640405	 -0.666062	 0.203828	 1
1463569405.713	 12	 0.003101	 -0.012625	 -0.003424	 -1.743065	 -1.397352	 2.165976	 -0.323610	 0.640365	 -0.666074	 0.203848	 1
1463569405.723	 12	 0.004125	 -0.020089	 -0.005634	 -1.742681	 -1.397302	 2.166539	 -0.323679	 0.640308	 -0.666081	 0.203895	 1
1463569405.733	 12	 0.007299	 -0.023313	 -0.008889	 -1.742033	 -1.397206	 2.167409	 -0.323774	 0.640224	 -0.666101	 0.203944	 1
1463569405.743	 12	 0.008293	 -0.022946	 -0.011127	 -1.741239	 -1.397078	 2.168431	 -0.323879	 0.640126	 -0.666132	 0.203984	 1
1463569405.753	 12	 0.010426	 -0.024008	 -0.010090	 -1.740527	 -1.396983	 2.169389	 -0.323980	 0.640034	 -0.666154	 0.204041	 1
1463569405.763	 12	 0.007208	 -0.029301	 -0.007979	 -1.740106	 -1.396943	 2.170089	 -0.324077	 0.639959	 -0.666152	 0.204126	 1
1463569405.773	 12	 0.010349	 -0.042075	 -0.008125	 -1.739631	 -1.396914	 2.170958	 -0.324207	 0.639864	 -0.666142	 0.204253	 1
1463569405.783	 12	 0.014532	 -0.061226	 -0.007275	 -1.738925	 -1.396841	 2.172235	 -0.324404	 0.639721	 -0.666130	 0.204426	 1
1463569405.793	 12	 0.017686	 -0.072920	 -0.005280	 -1.738120	 -1.396794	 2.173761	 -0.324640	 0.639551	 -0.666106	 0.204660	 1
1463569405.803	 12	 0.019862	 -0.068634	 0.000071	 -1.737717	 -1.396879	 2.174883	 -0.324836	 0.639419	 -0.666053	 0.204936	 1
1463569405.813	 12	 0.020996	 -0.059025	 0.005480	 -1.737407	 -1.397069	 2.175832	 -0.324973	 0.639317	 -0.665997	 0.205220	 1
1463569405.823	 12	 0.021049	 -0.050493	 0.008757	 -1.736724	 -1.397339	 2.177047	 -0.325044	 0.639218	 -0.665970	 0.205502	 1
1463569405.833	 12	 0.022061	 -0.063252	 0.009696	 -1.735954	 -1.397569	 2.178419	 -0.325150	 0.639098	 -0.665943	 0.205795	 1
1463569405.843	 12	 0.021931	 -0.089851	 0.008384	 -1.734873	 -1.397714	 2.180335	 -0.325354	 0.638913	 -0.665914	 0.206138	 1
1463569405.853	 12	 0.024998	 -0.115412	 0.004922	 -1.734221	 -1.397775	 2.182094	 -0.325679	 0.638701	 -0.665836	 0.206538	 1
1463569405.863	 12	 0.030203	 -0.136756	 -0.002783	 -1.733884	 -1.397744	 2.183776	 -0.326114	 0.638458	 -0.665718	 0.206979	 1
1463569405.873	 12	 0.031149	 -0.154903	 -0.011488	 -1.733781	 -1.397518	 2.185416	 -0.326678	 0.638177	 -0.665577	 0.207412	 1
1463569405.883	 12	 0.033207	 -0.177193	 -0.004255	 -1.733802	 -1.397245	 2.187135	 -0.327324	 0.637864	 -0.665409	 0.207893	 1
1463569405.893	 12	 0.040655	 -0.199398	 0.016788	 -1.733698	 -1.397321	 2.189221	 -0.327929	 0.637542	 -0.665204	 0.208581	 1
1463569405.903	 12	 0.047038	 -0.214215	 0.029385	 -1.733438	 -1.397752	 2.191621	 -0.328465	 0.637221	 -0.664974	 0.209449	 1
1463569405.913	 12	 0.048056	 -0.224855	 0.029279	 -1.732881	 -1.398358	 2.194433	 -0.328974	 0.636884	 -0.664739	 0.210421	 1
1463569405.923	 12	 0.041523	 -0.227694	 0.018539	 -1.732608	 -1.398943	 2.197018	 -0.329513	 0.636551	 -0.664480	 0.211401	 1
1463569405.933	 12	 0.011683	 -0.173752	 -0.035050	 -1.734304	 -1.399064	 2.197254	 -0.330112	 0.636345	 -0.664169	 0.212062	 1
1463569405.943	 12	 -0.006219	 -0.125809	 -0.031249	 -1.736857	 -1.398967	 2.196109	 -0.330627	 0.636253	 -0.663874	 0.212460	 1
1463569405.953	 12	 -0.012286	 -0.086165	 0.006476	 -1.739228	 -1.399091	 2.194684	 -0.330919	 0.636250	 -0.663627	 0.212785	 1
1463569405.963	 12	 -0.015317	 -0.067918	 0.027988	 -1.741452	 -1.399310	 2.193162	 -0.331100	 0.636288	 -0.663410	 0.213065	 1
1463569405.973	 12	 -0.015208	 -0.051902	 0.036661	 -1.743695	 -1.399466	 2.191475	 -0.331256	 0.636345	 -0.663210	 0.213275	 1
1463569405.983	 12	 -0.027898	 0.000017	 0.004216	 -1.745346	 -1.399559	 2.189939	 -0.331284	 0.636433	 -0.663096	 0.213324	 1
1463569405.993	 12	 -0.027869	 0.010615	 -0.001014	 -1.746875	 -1.399476	 2.188269	 -0.331286	 0.636538	 -0.663025	 0.213228	 1
1463569406.003	 12	 -0.017301	 -0.030730	 0.021956	 -1.748354	 -1.399606	 2.186945	 -0.331312	 0.636614	 -0.662915	 0.213306	 1
1463569406.013	 12	 -0.002667	 -0.107258	 0.034971	 -1.747898	 -1.400006	 2.188225	 -0.331436	 0.636492	 -0.662834	 0.213727	 1
1463569406.023	 12	 0.008640	 -0.187161	 0.021340	 -1.749461	 -1.400278	 2.188365	 -0.331908	 0.636330	 -0.662547	 0.214367	 1
1463569406.033	 12	 0.008399	 -0.219233	 -0.001337	 -1.751123	 -1.400289	 2.188795	 -0.332591	 0.636081	 -0.662224	 0.215042	 1
1463569406.043	 12	 0.009386	 -0.240471	 0.003785	 -1.752939	 -1.400341	 2.189397	 -0.333367	 0.635791	 -0.661854	 0.215837	 1
1463569406.053	 12	 0.023207	 -0.271189	 0.026826	 -1.753968	 -1.400606	 2.190996	 -0.334127	 0.635440	 -0.661496	 0.216788	 1
1463569406.063	 12	 0.042386	 -0.292389	 0.044580	 -1.755141	 -1.401077	 2.192708	 -0.334902	 0.635075	 -0.661091	 0.217894	 1
1463569406.073	 12	 0.061430	 -0.316563	 0.047290	 -1.755502	 -1.401658	 2.195514	 -0.335720	 0.634626	 -0.660696	 0.219143	 1
1463569406.083	 12	 0.080531	 -0.329470	 0.035281	 -1.754801	 -1.402170	 2.199530	 -0.336591	 0.634082	 -0.660347	 0.220428	 1
1463569406.093	 12	 0.095389	 -0.343373	 0.030758	 -1.752148	 -1.402579	 2.205633	 -0.337514	 0.633390	 -0.660098	 0.221748	 1
1463569406.103	 12	 0.113391	 -0.375314	 0.033501	 -1.749884	 -1.403093	 2.211644	 -0.338499	 0.632681	 -0.659785	 0.223197	 1
1463569406.113	 12	 0.129205	 -0.416837	 0.034043	 -1.747004	 -1.403656	 2.218688	 -0.339590	 0.631870	 -0.659454	 0.224810	 1
1463569406.123	 12	 0.153436	 -0.481802	 0.032162	 -1.743440	 -1.404234	 2.227004	 -0.340849	 0.630922	 -0.659089	 0.226630	 1
1463569406.133	 12	 0.197935	 -0.553178	 0.034306	 -1.733013	 -1.404721	 2.242872	 -0.342253	 0.629454	 -0.659034	 0.228746	 1
1463569406.143	 12	 0.255497	 -0.575610	 0.044253	 -1.724909	 -1.405518	 2.256902	 -0.343732	 0.628073	 -0.658760	 0.231101	 1
1463569406.153	 12	 0.312339	 -0.525703	 0.055946	 -1.713066	 -1.406486	 2.274407	 -0.345005	 0.626552	 -0.658700	 0.233492	 1
1463569406.163	 12	 0.357629	 -0.426916	 0.056471	 -1.697269	 -1.407514	 2.295014	 -0.345914	 0.624977	 -0.658935	 0.235697	 1
1463569406.173	 12	 0.384911	 -0.296196	 0.053187	 -1.678991	 -1.408428	 2.316920	 -0.346431	 0.623469	 -0.659433	 0.237530	 1
1463569406.183	 12	 0.378085	 -0.153704	 0.046046	 -1.657891	 -1.409287	 2.340211	 -0.346446	 0.622068	 -0.660237	 0.238941	 1
1463569406.193	 12	 0.332602	 -0.048441	 0.022909	 -1.637531	 -1.409853	 2.361546	 -0.346169	 0.620895	 -0.661155	 0.239855	 1
1463569406.203	 12	 0.256763	 -0.025146	 -0.022042	 -1.620714	 -1.409920	 2.378842	 -0.345950	 0.619931	 -0.661982	 0.240383	 1
1463569406.213	 12	 0.165706	 -0.066629	 -0.058940	 -1.613607	 -1.409080	 2.386673	 -0.346288	 0.619298	 -0.662359	 0.240489	 1
1463569406.223	 12	 0.071310	 -0.150539	 -0.081280	 -1.608887	 -1.408365	 2.392771	 -0.346836	 0.618695	 -0.662520	 0.240807	 1
1463569406.233	 12	 -0.025357	 -0.212166	 -0.147158	 -1.610727	 -1.407101	 2.392905	 -0.347884	 0.618247	 -0.662321	 0.240993	 1
1463569406.243	 12	 -0.091179	 -0.273395	 -0.256926	 -1.616827	 -1.405042	 2.389343	 -0.349449	 0.617804	 -0.661908	 0.241002	 1
1463569406.253	 12	 -0.159959	 -0.237160	 -0.421183	 -1.626641	 -1.401218	 2.381980	 -0.351625	 0.617308	 -0.661473	 0.240299	 1
1463569406.263	 12	 -0.239587	 -0.048483	 -0.542363	 -1.638514	 -1.395864	 2.370965	 -0.353841	 0.616997	 -0.661235	 0.238495	 1
1463569406.273	 12	 -0.250097	 0.146751	 -0.464785	 -1.649546	 -1.390737	 2.358728	 -0.355334	 0.617075	 -0.661222	 0.236096	 1
1463569406.283	 12	 -0.251197	 0.450047	 -0.295695	 -1.657808	 -1.387099	 2.346588	 -0.355474	 0.617718	 -0.661511	 0.233379	 1
1463569406.293	 12	 -0.280384	 0.806413	 -0.006500	 -1.664766	 -1.386010	 2.332229	 -0.353682	 0.619297	 -0.662038	 0.230403	 1
1463569406.303	 12	 -0.264989	 1.101053	 0.295587	 -1.670305	 -1.387945	 2.316051	 -0.349879	 0.621785	 -0.662753	 0.227435	 1
1463569406.313	 12	 -0.186588	 1.310174	 0.710366	 -1.672303	 -1.393623	 2.301249	 -0.344102	 0.624919	 -0.663619	 0.225121	 1
1463569406.323	 12	 -0.145550	 1.474040	 1.176206	 -1.672745	 -1.404134	 2.286190	 -0.336131	 0.628854	 -0.664395	 0.223913	 1
1463569406.333	 12	 -0.109775	 1.470730	 1.320807	 -1.673435	 -1.417046	 2.270499	 -0.327210	 0.633071	 -0.665015	 0.223404	 1
1463569406.343	 12	 -0.154331	 1.175373	 1.201213	 -1.678303	 -1.429155	 2.252647	 -0.319196	 0.636936	 -0.665280	 0.223223	 1
1463569406.353	 12	 -0.394583	 0.523607	 1.135425	 -1.704607	 -1.440202	 2.219021	 -0.313546	 0.640606	 -0.664079	 0.224303	 1
1463569406.363	 12	 -0.744019	 -0.208587	 1.081564	 -1.770727	 -1.449860	 2.152702	 -0.310896	 0.644456	 -0.660679	 0.226987	 1
1463569406.373	 12	 -0.973297	 -0.815549	 1.038479	 -1.876053	 -1.457808	 2.053430	 -0.310748	 0.648366	 -0.655438	 0.231210	 1
1463569406.383	 12	 -1.078664	 -1.280298	 0.856023	 -2.006237	 -1.462420	 1.934255	 -0.312871	 0.651862	 -0.649106	 0.236325	 1
1463569406.393	 12	 -1.051715	 -1.415575	 0.546525	 -2.134788	 -1.462885	 1.819176	 -0.316637	 0.654620	 -0.642635	 0.241317	 1
1463569406.403	 12	 -0.812459	 -1.093219	 0.214923	 -2.227827	 -1.460143	 1.737591	 -0.320599	 0.656460	 -0.637482	 0.244733	 1
1463569406.413	 12	 -0.455895	 -0.530214	 0.114745	 -2.279154	 -1.457671	 1.692732	 -0.323006	 0.657562	 -0.634455	 0.246469	 1
1463569406.423	 12	 -0.143359	 -0.145788	 0.158231	 -2.304273	 -1.457341	 1.669639	 -0.323478	 0.658223	 -0.633204	 0.247299	 1
1463569406.433	 12	 0.100963	 -0.174029	 0.176090	 -2.313123	 -1.458937	 1.662150	 -0.323293	 0.658188	 -0.632908	 0.248389	 1
1463569406.443	 12	 0.245316	 -0.530009	 0.133154	 -2.312260	 -1.461497	 1.667305	 -0.323879	 0.657220	 -0.632739	 0.250613	 1
1463569406.453	 12	 0.342148	 -1.129241	 -0.032064	 -2.301260	 -1.463814	 1.688158	 -0.326482	 0.655005	 -0.632188	 0.254395	 1
1463569406.463	 12	 0.255888	 -1.486674	 -0.368223	 -2.277841	 -1.463634	 1.726132	 -0.331551	 0.651777	 -0.631148	 0.258675	 1
1463569406.473	 12	 0.144168	 -1.282225	 -0.527343	 -2.250325	 -1.460738	 1.767454	 -0.337274	 0.648659	 -0.630061	 0.261746	 1
1463569406.483	 12	 0.207089	 -0.994952	 -0.341907	 -2.225286	 -1.458688	 1.803262	 -0.341668	 0.645999	 -0.629404	 0.264194	 1
1463569406.493	 12	 0.276528	 -0.807666	 -0.008251	 -2.209880	 -1.459533	 1.827340	 -0.344301	 0.643871	 -0.628923	 0.267101	 1
1463569406.503	 12	 0.181083	 -0.498727	 0.314118	 -2.212825	 -1.462730	 1.830348	 -0.345113	 0.642799	 -0.628281	 0.270128	 1
1463569406.513	 12	 -0.034650	 -0.071838	 0.572554	 -2.242425	 -1.466907	 1.802294	 -0.343974	 0.643387	 -0.627358	 0.272317	 1
1463569406.523	 12	 -0.228453	 0.087497	 0.759035	 -2.300763	 -1.471204	 1.742982	 -0.341707	 0.645281	 -0.625903	 0.274033	 1
1463569406.533	 12	 -0.329083	 0.135552	 0.891447	 -2.383477	 -1.475228	 1.658685	 -0.338979	 0.647872	 -0.623924	 0.275815	 1
1463569406.543	 12	 -0.373782	 0.310780	 0.982991	 -2.483998	 -1.478743	 1.555093	 -0.335534	 0.650995	 -0.621848	 0.277358	 1
1463569406.553	 12	 -0.343058	 0.408179	 1.079549	 -2.598113	 -1.481745	 1.436557	 -0.331372	 0.654410	 -0.619872	 0.278745	 1
1463569406.563	 12	 -0.303631	 0.300401	 1.193305	 -2.728354	 -1.484351	 1.302326	 -0.326915	 0.657770	 -0.617799	 0.280694	 1
1463569406.573	 12	 -0.247258	 -0.129113	 1.388115	 -2.885864	 -1.486257	 1.144483	 -0.322963	 0.660713	 -0.615010	 0.284459	 1
1463569406.583	 12	 -0.204811	 -0.268865	 1.494087	 -3.064894	 -1.486618	 0.967362	 -0.319157	 0.663366	 -0.611786	 0.289485	 1
1463569406.593	 12	 -0.199178	 -0.320012	 1.629979	 3.029682	 -1.484321	 0.781110	 -0.315095	 0.666055	 -0.608316	 0.295021	 1
1463569406.603	 12	 -0.155567	 -0.461701	 1.762567	 2.839556	 -1.479064	 0.594446	 -0.310848	 0.668657	 -0.604507	 0.301401	 1
1463569406.613	 12	 -0.067091	 -0.650895	 1.962531	 2.653824	 -1.470874	 0.413944	 -0.306425	 0.670943	 -0.600365	 0.309031	 1
1463569406.623	 12	 -0.005404	 -0.861298	 2.160399	 2.478844	 -1.459135	 0.246109	 -0.301740	 0.672958	 -0.595749	 0.318061	 1
1463569406.633	 12	 0.045089	 -1.032548	 2.179682	 2.331681	 -1.444679	 0.107875	 -0.297273	 0.674534	 -0.590849	 0.327917	 1
1463569406.643	 12	 0.104535	 -1.148234	 2.237770	 2.209784	 -1.428287	 -0.003818	 -0.292944	 0.675674	 -0.585808	 0.338346	 1
1463569406.653	 12	 0.258004	 -1.387368	 2.470808	 2.098659	 -1.409427	 -0.102897	 -0.288315	 0.676268	 -0.580486	 0.350103	 1
1463569406.663	 12	 0.390600	 -1.658277	 2.860399	 1.991557	 -1.386479	 -0.195340	 -0.282937	 0.676296	 -0.574501	 0.364031	 1
1463569406.673	 12	 0.484412	 -1.812688	 3.019075	 1.898267	 -1.360250	 -0.272493	 -0.277018	 0.675924	 -0.567996	 0.379169	 1
1463569406.683	 12	 0.750174	 -2.087395	 3.085611	 1.811825	 -1.332714	 -0.340487	 -0.271040	 0.674303	 -0.561593	 0.395557	 1
1463569406.693	 12	 0.930709	 -2.346824	 3.171149	 1.730593	 -1.303612	 -0.400773	 -0.265005	 0.671399	 -0.555180	 0.413244	 1
1463569406.703	 12	 0.900025	 -2.459372	 3.125472	 1.661059	 -1.273519	 -0.447684	 -0.259272	 0.667817	 -0.548409	 0.431331	 1
1463569406.713	 12	 0.619595	 -2.151438	 3.088148	 1.610249	 -1.243145	 -0.477202	 -0.253607	 0.664853	 -0.541063	 0.448223	 1
1463569406.723	 12	 0.171137	 -1.327699	 3.123165	 1.584810	 -1.212009	 -0.487920	 -0.246720	 0.664522	 -0.532961	 0.462053	 1
1463569406.733	 12	 -0.116937	 -0.665918	 2.889903	 1.577232	 -1.182371	 -0.487188	 -0.239177	 0.666343	 -0.524843	 0.472568	 1
1463569406.743	 12	 -0.155569	 -0.434376	 2.829514	 1.576386	 -1.154258	 -0.483289	 -0.231354	 0.669034	 -0.517055	 0.481169	 1
1463569406.753	 12	 0.024802	 -0.563518	 2.987672	 1.571390	 -1.124704	 -0.482958	 -0.222867	 0.671162	 -0.509197	 0.490500	 1
1463569406.763	 12	 0.154440	 -0.656648	 2.957967	 1.562732	 -1.094955	 -0.485589	 -0.214150	 0.672527	 -0.501572	 0.500273	 1
1463569406.773	 12	 0.173948	 -1.084998	 3.004968	 1.550396	 -1.064934	 -0.488420	 -0.206062	 0.672753	 -0.493544	 0.511230	 1
1463569406.783	 12	 0.056839	 -1.510705	 2.775018	 1.536457	 -1.036546	 -0.488501	 -0.199705	 0.671846	 -0.485076	 0.522917	 1
1463569406.793	 12	 0.182827	 -2.233828	 2.843928	 1.515868	 -1.008599	 -0.488761	 -0.194877	 0.668873	 -0.476136	 0.536588	 1
1463569406.803	 12	 0.472927	 -2.726381	 3.386752	 1.486815	 -0.976040	 -0.491798	 -0.189269	 0.663835	 -0.466075	 0.553420	 1
1463569406.813	 12	 0.993703	 -2.612259	 3.787203	 1.453384	 -0.938207	 -0.499985	 -0.180762	 0.657796	 -0.455954	 0.571607	 1
1463569406.823	 12	 1.538457	 -2.003793	 3.725242	 1.419946	 -0.899044	 -0.514641	 -0.169292	 0.651596	 -0.447737	 0.588469	 1
1463569406.833	 12	 1.797604	 -1.432622	 3.538595	 1.390659	 -0.860833	 -0.532641	 -0.155860	 0.646001	 -0.441534	 0.602858	 1
1463569406.843	 12	 1.622076	 -1.487872	 3.475663	 1.365158	 -0.823404	 -0.547525	 -0.142659	 0.640508	 -0.435278	 0.616385	 1
1463569406.853	 12	 1.210237	 -1.826765	 3.364191	 1.342164	 -0.787356	 -0.555572	 -0.131411	 0.634631	 -0.427716	 0.630106	 1
1463569406.863	 12	 0.781197	 -2.170055	 3.226182	 1.319840	 -0.753607	 -0.556779	 -0.122851	 0.627983	 -0.418767	 0.644344	 1
1463569406.873	 12	 0.485447	 -1.835348	 3.061350	 1.303181	 -0.722121	 -0.553076	 -0.115316	 0.622484	 -0.409191	 0.657098	 1
1463569406.883	 12	 0.475205	 -1.592887	 2.611812	 1.288962	 -0.694506	 -0.549138	 -0.108693	 0.617525	 -0.400606	 0.668104	 1
1463569406.893	 12	 0.588814	 -0.891093	 1.899030	 1.278782	 -0.672854	 -0.548385	 -0.102497	 0.613943	 -0.394725	 0.675841	 1
1463569406.903	 12	 0.718502	 -0.473586	 1.004414	 1.270922	 -0.659048	 -0.552179	 -0.097471	 0.611336	 -0.392375	 0.680301	 1
1463569406.913	 12	 0.591996	 -0.679380	 0.295934	 1.261445	 -0.652819	 -0.558403	 -0.094984	 0.608324	 -0.392585	 0.683226	 1
1463569406.923	 12	 -0.007431	 -1.675674	 -0.050227	 1.246309	 -0.652138	 -0.560189	 -0.097144	 0.603212	 -0.392312	 0.687597	 1
1463569406.933	 12	 -0.828446	 -2.944791	 0.026110	 1.224406	 -0.654179	 -0.552958	 -0.104400	 0.595310	 -0.389173	 0.695162	 1
1463569406.943	 12	 -1.421411	 -3.752585	 0.008835	 1.197768	 -0.658510	 -0.537545	 -0.115824	 0.585207	 -0.383280	 0.705134	 1
1463569406.953	 12	 -1.705752	 -4.265809	 -0.037161	 1.168179	 -0.665028	 -0.518347	 -0.129627	 0.573613	 -0.376073	 0.716054	 1
1463569406.963	 12	 -1.768599	 -4.737485	 0.015482	 1.134855	 -0.672261	 -0.497745	 -0.144602	 0.560265	 -0.367901	 0.727903	 1
1463569406.973	 12	 -1.786946	 -5.052926	 0.070258	 1.097928	 -0.679512	 -0.476993	 -0.160018	 0.545211	 -0.358982	 0.740453	 1
1463569406.983	 12	 -2.002393	 -5.083712	 0.137925	 1.061247	 -0.687629	 -0.454327	 -0.175956	 0.529690	 -0.349082	 0.752735	 1
1463569406.993	 12	 -2.782748	 -3.973591	 0.369267	 1.037316	 -0.697746	 -0.423746	 -0.192279	 0.517867	 -0.337298	 0.762281	 1
1463569407.003	 12	 -3.625288	 -2.323371	 0.692504	 1.038287	 -0.710066	 -0.380659	 -0.208363	 0.513894	 -0.323366	 0.766767	 1
1463569407.013	 12	 -3.633078	 -1.906864	 0.923455	 1.050431	 -0.721009	 -0.332673	 -0.223309	 0.513226	 -0.308471	 0.769141	 1
1463569407.023	 12	 -3.123716	 -2.185983	 1.066695	 1.059096	 -0.728120	 -0.287899	 -0.236409	 0.511237	 -0.293697	 0.772328	 1
1463569407.033	 12	 -2.552614	 -2.456078	 1.159391	 1.061067	 -0.731320	 -0.248926	 -0.247366	 0.507173	 -0.279524	 0.776822	 1
1463569407.043	 12	 -1.999515	 -2.419179	 1.191154	 1.058565	 -0.731453	 -0.216017	 -0.256065	 0.502050	 -0.266414	 0.781921	 1
1463569407.053	 12	 -1.297864	 -2.137854	 1.254806	 1.053436	 -0.728025	 -0.190524	 -0.261693	 0.496905	 -0.255001	 0.787132	 1
1463569407.063	 12	 -0.423905	 -1.837155	 1.419451	 1.045338	 -0.719369	 -0.173852	 -0.263269	 0.491964	 -0.245454	 0.792725	 1
1463569407.073	 12	 0.510925	 -1.364845	 1.659766	 1.035285	 -0.704185	 -0.166317	 -0.260065	 0.487764	 -0.237812	 0.798685	 1
1463569407.093	 13	 2.039601	 -0.086310	 2.141144	 1.019547	 -0.654736	 -0.173453	 -0.239591	 0.484638	 -0.227911	 0.809802	 1
1463569407.103	 13	 2.416024	 0.335459	 2.373061	 1.016270	 -0.622747	 -0.183181	 -0.224175	 0.485692	 -0.224502	 0.814523	 1
1463569407.123	 14	 2.508308	 0.355973	 2.745466	 1.014287	 -0.551433	 -0.201134	 -0.189849	 0.488869	 -0.215999	 0.823595	 1
1463569407.133	 14	 2.411758	 0.236182	 2.761178	 1.013382	 -0.515102	 -0.208204	 -0.172739	 0.489882	 -0.210801	 0.828094	 1
1463569407.143	 14	 2.322191	 0.040617	 2.744152	 1.011443	 -0.479387	 -0.214253	 -0.156181	 0.490098	 -0.205213	 0.832646	 1
1463569407.153	 14	 2.228199	 -0.210053	 2.753295	 1.007783	 -0.444130	 -0.219216	 -0.140193	 0.489252	 -0.199144	 0.837448	 1
1463569407.163	 14	 2.115836	 -0.534902	 2.792815	 1.001869	 -0.409148	 -0.222742	 -0.124824	 0.487122	 -0.192410	 0.842680	 1
1463569407.183	 15	 1.774252	 -1.854318	 2.727026	 0.973639	 -0.342274	 -0.224005	 -0.098052	 0.474918	 -0.176512	 0.856552	 1
1463569407.193	 15	 1.695784	 -2.376745	 2.668494	 0.951637	 -0.310459	 -0.222672	 -0.086300	 0.465026	 -0.167958	 0.864924	 1
1463569407.203	 15	 1.685782	 -2.883252	 2.632961	 0.924633	 -0.279235	 -0.220564	 -0.075188	 0.452708	 -0.159240	 0.874097	 1
1463569407.213	 15	 1.724487	 -3.258956	 2.614207	 0.893594	 -0.248061	 -0.217903	 -0.064285	 0.438349	 -0.150446	 0.883789	 1
1463569407.223	 15	 1.764030	 -3.438060	 2.572763	 0.860243	 -0.216959	 -0.214775	 -0.053408	 0.422690	 -0.141731	 0.893529	 1
1463569407.233	 15	 1.789607	 -3.382310	 2.497390	 0.826810	 -0.186298	 -0.211296	 -0.042525	 0.406740	 -0.133308	 0.902764	 1
1463569407.243	 15	 1.801162	 -3.130825	 2.420763	 0.795436	 -0.156231	 -0.207479	 -0.031573	 0.391509	 -0.125242	 0.911065	 1
1463569407.253	 15	 1.816283	 -2.824909	 2.371256	 0.767077	 -0.126610	 -0.203310	 -0.020465	 0.377480	 -0.117470	 0.918309	 1
1463569407.263	 15	 1.808458	 -2.721306	 2.427707	 0.740323	 -0.096923	 -0.198110	 -0.009206	 0.364036	 -0.109526	 0.924877	 1
1463569407.273	 15	 1.801404	 -2.666751	 2.467710	 0.714027	 -0.067095	 -0.191664	 0.002139	 0.350685	 -0.101270	 0.930999	 1
1463569407.283	 15	 1.824643	 -2.642998	 2.379270	 0.687961	 -0.037682	 -0.184953	 0.013476	 0.337374	 -0.093246	 0.936644	 1
1463569407.293	 15	 1.882371	 -2.691319	 2.192875	 0.661355	 -0.009102	 -0.179113	 0.024751	 0.323764	 -0.086062	 0.941890	 1
1463569407.303	 15	 1.950384	 -2.828951	 2.015152	 0.633499	 0.018720	 -0.174372	 0.035982	 0.309508	 -0.079836	 0.946856	 1
1463569407.313	 15	 2.011365	 -3.167001	 1.917688	 0.602652	 0.046214	 -0.170184	 0.047201	 0.293759	 -0.074306	 0.951817	 1
1463569407.323	 15	 2.041018	 -3.644846	 1.890602	 0.567175	 0.073666	 -0.165614	 0.058360	 0.275730	 -0.069086	 0.956971	 1
1463569407.333	 15	 2.033076	 -4.136730	 1.818951	 0.526544	 0.100645	 -0.160475	 0.069244	 0.255183	 -0.064243	 0.962268	 1
1463569407.343	 15	 2.021902	 -4.551683	 1.647863	 0.481448	 0.126563	 -0.155359	 0.079694	 0.232445	 -0.060182	 0.967469	 1
1463569407.353	 15	 1.965675	 -4.712963	 1.385740	 0.433898	 0.150798	 -0.151062	 0.089548	 0.208477	 -0.057313	 0.972231	 1
1463569407.363	 15	 1.775821	 -4.490777	 1.147532	 0.387604	 0.172395	 -0.147307	 0.098370	 0.185139	 -0.055406	 0.976205	 1
1463569407.373	 15	 1.571131	 -4.037597	 0.929721	 0.345510	 0.190985	 -0.143858	 0.105983	 0.163921	 -0.054127	 0.979269	 1
1463569407.383	 15	 1.556615	 -3.775269	 0.724464	 0.306847	 0.207906	 -0.141439	 0.113031	 0.144371	 -0.053635	 0.981583	 1
1463569407.393	 15	 1.658228	 -3.576900	 0.546372	 0.270530	 0.224507	 -0.140457	 0.120124	 0.125885	 -0.054023	 0.983262	 1
1463569407.403	 15	 1.801987	 -3.276467	 0.379523	 0.237289	 0.242151	 -0.140828	 0.127901	 0.108771	 -0.055089	 0.984264	 1
1463569407.423	 16	 2.225089	 -2.230193	 0.066910	 0.185000	 0.283107	 -0.146000	 0.146773	 0.080955	 -0.058900	 0.984091	 1
1463569407.433	 16	 2.424491	 -1.707324	 -0.057852	 0.168071	 0.306453	 -0.150664	 0.157901	 0.071272	 -0.061342	 0.982967	 1
1463569407.443	 16	 2.578545	 -1.348725	 -0.119803	 0.155464	 0.331391	 -0.156084	 0.169911	 0.063537	 -0.063894	 0.981331	 1
1463569407.453	 16	 2.619997	 -1.090970	 -0.199829	 0.145961	 0.357044	 -0.162079	 0.182330	 0.057185	 -0.066547	 0.979315	 1
1463569407.463	 16	 2.559994	 -1.058544	 -0.299186	 0.137981	 0.382142	 -0.168943	 0.194494	 0.051455	 -0.069594	 0.977078	 1
1463569407.473	 16	 2.435795	 -1.119026	 -0.329575	 0.129619	 0.406219	 -0.176012	 0.206089	 0.045495	 -0.072891	 0.974753	 1
1463569407.483	 16	 2.210717	 -1.100269	 -0.327441	 0.121218	 0.428350	 -0.182693	 0.216666	 0.039589	 -0.076151	 0.972466	 1
1463569407.493	 16	 1.927274	 -1.031183	 -0.301949	 0.113267	 0.447848	 -0.188685	 0.225914	 0.034060	 -0.079190	 0.970325	 1
1463569407.503	 16	 1.625704	 -0.983106	 -0.247719	 0.105590	 0.464463	 -0.193676	 0.233717	 0.028892	 -0.081872	 0.968421	 1
1463569407.513	 16	 1.354673	 -1.057128	 -0.151195	 0.096862	 0.478399	 -0.197272	 0.240129	 0.023501	 -0.084146	 0.966802	 1
1463569407.523	 16	 1.131030	 -1.029270	 -0.066925	 0.087398	 0.490110	 -0.199455	 0.245393	 0.018038	 -0.085950	 0.965437	 1
1463569407.533	 16	 0.899429	 -0.822130	 -0.050192	 0.079266	 0.499622	 -0.200930	 0.249632	 0.013423	 -0.087361	 0.964299	 1
1463569407.543	 16	 0.646876	 -0.480295	 -0.094903	 0.074299	 0.506640	 -0.202453	 0.252798	 0.010463	 -0.088500	 0.963406	 1
1463569407.553	 16	 0.438771	 -0.202538	 -0.157649	 0.072678	 0.511355	 -0.204493	 0.255002	 0.009170	 -0.089545	 0.962742	 1
1463569407.563	 16	 0.317266	 -0.142856	 -0.190141	 0.072462	 0.514673	 -0.206887	 0.256596	 0.008580	 -0.090624	 0.962223	 1
1463569407.573	 16	 0.200359	 -0.235317	 -0.227285	 0.071640	 0.516815	 -0.209549	 0.257598	 0.007726	 -0.091944	 0.961837	 1
1463569407.583	 16	 0.075232	 -0.252309	 -0.274313	 0.070663	 0.517681	 -0.212664	 0.257980	 0.006806	 -0.093542	 0.961587	 1
1463569407.593	 16	 0.007114	 -0.225421	 -0.260680	 0.069838	 0.517674	 -0.215777	 0.257947	 0.006008	 -0.095145	 0.961444	 1
1463569407.603	 16	 0.048648	 -0.089839	 -0.174519	 0.069648	 0.517838	 -0.218070	 0.258023	 0.005612	 -0.096267	 0.961314	 1
1463569407.613	 16	 0.223986	 0.140997	 -0.099295	 0.071184	 0.519481	 -0.219547	 0.258890	 0.006065	 -0.096727	 0.961032	 1
1463569407.623	 16	 0.463500	 0.404598	 -0.026455	 0.074995	 0.523459	 -0.220412	 0.260984	 0.007554	 -0.096521	 0.960476	 1
1463569407.633	 16	 0.699832	 0.642937	 0.081347	 0.080848	 0.529902	 -0.220390	 0.264350	 0.009992	 -0.095530	 0.959632	 1
1463569407.643	 16	 0.906092	 0.817745	 0.216529	 0.087988	 0.538586	 -0.219123	 0.268834	 0.013078	 -0.093669	 0.958532	 1
1463569407.653	 16	 1.066785	 0.837377	 0.348533	 0.095117	 0.549123	 -0.216548	 0.274177	 0.016227	 -0.091083	 0.957218	 1
1463569407.663	 16	 1.141353	 0.714594	 0.460778	 0.100603	 0.560790	 -0.212748	 0.279953	 0.018699	 -0.088062	 0.955783	 1
1463569407.673	 16	 1.107910	 0.579062	 0.531214	 0.104191	 0.572483	 -0.208008	 0.285628	 0.020411	 -0.084834	 0.954360	 1
1463569407.683	 16	 0.996125	 0.434527	 0.502067	 0.106239	 0.583249	 -0.203179	 0.290780	 0.021474	 -0.081810	 0.953044	 1
1463569407.693	 16	 0.829751	 0.304048	 0.433973	 0.107263	 0.592428	 -0.198951	 0.295132	 0.022070	 -0.079280	 0.951906	 1
1463569407.703	 16	 0.638045	 0.207409	 0.377191	 0.107343	 0.599655	 -0.195098	 0.298520	 0.022284	 -0.077146	 0.951019	 1
1463569407.713	 16	 0.470176	 0.211532	 0.291299	 0.107640	 0.605058	 -0.191982	 0.301056	 0.022601	 -0.075405	 0.950352	 1
1463569407.723	 16	 0.324978	 0.228715	 0.255421	 0.108398	 0.608933	 -0.189331	 0.302889	 0.023154	 -0.073877	 0.949876	 1
1463569407.733	 16	 0.164546	 0.148394	 0.261400	 0.108518	 0.611239	 -0.186444	 0.303951	 0.023528	 -0.072396	 0.949642	 1
1463569407.743	 16	 0.006811	 -0.023535	 0.249450	 0.106988	 0.611958	 -0.183422	 0.304201	 0.023223	 -0.071165	 0.949662	 1
1463569407.753	 16	 -0.122015	 -0.163741	 0.223688	 0.103990	 0.611276	 -0.180508	 0.303739	 0.022277	 -0.070263	 0.949900	 1
1463569407.763	 16	 -0.185419	 -0.244499	 0.208568	 0.100149	 0.609753	 -0.177738	 0.302854	 0.020949	 -0.069588	 0.950262	 1
1463569407.773	 16	 -0.173905	 -0.315592	 0.236582	 0.095451	 0.608180	 -0.174780	 0.301916	 0.019241	 -0.068950	 0.950643	 1
1463569407.783	 16	 -0.106418	 -0.301618	 0.284084	 0.090346	 0.607165	 -0.171327	 0.301228	 0.017384	 -0.068113	 0.950958	 1
1463569407.793	 16	 0.041687	 -0.157122	 0.322506	 0.086146	 0.607440	 -0.167519	 0.301185	 0.015947	 -0.066926	 0.951081	 1
1463569407.803	 16	 0.225258	 0.065755	 0.330442	 0.084128	 0.609514	 -0.163720	 0.302072	 0.015466	 -0.065356	 0.950916	 1
1463569407.813	 16	 0.352400	 0.356521	 0.290476	 0.084907	 0.613029	 -0.160335	 0.303737	 0.016191	 -0.063516	 0.950498	 1
1463569407.823	 16	 0.366228	 0.634615	 0.217274	 0.089266	 0.616904	 -0.157876	 0.305689	 0.018464	 -0.061557	 0.949960	 1
1463569407.833	 16	 0.313630	 0.583601	 0.201267	 0.094766	 0.619706	 -0.156087	 0.307166	 0.021226	 -0.059769	 0.949540	 1
1463569407.843	 16	 0.227841	 0.290119	 0.176902	 0.097338	 0.622390	 -0.154115	 0.308491	 0.022632	 -0.058345	 0.949166	 1
1463569407.853	 16	 0.115099	 -0.039633	 0.126856	 0.096834	 0.623947	 -0.152555	 0.309197	 0.022566	 -0.057628	 0.948982	 1
1463569407.863	 16	 0.019746	 -0.290832	 0.062469	 0.093933	 0.624435	 -0.151638	 0.309334	 0.021310	 -0.057625	 0.948967	 1
1463569407.873	 16	 -0.037505	 -0.392087	 0.009785	 0.091192	 0.620722	 -0.152028	 0.307500	 0.020109	 -0.058357	 0.949544	 1
1463569407.883	 16	 -0.044972	 -0.355153	 -0.033503	 0.087582	 0.620243	 -0.152252	 0.307169	 0.018381	 -0.059034	 0.949644	 1
1463569407.893	 16	 -0.023904	 -0.173458	 -0.050114	 0.085643	 0.619903	 -0.152807	 0.306955	 0.017390	 -0.059606	 0.949696	 1
1463569407.903	 16	 0.015774	 0.076519	 -0.030015	 0.086017	 0.619914	 -0.153250	 0.306976	 0.017499	 -0.059759	 0.949678	 1
1463569407.913	 16	 0.095109	 0.354102	 -0.000391	 0.088199	 0.625210	 -0.152992	 0.309547	 0.018346	 -0.059129	 0.948867	 1
1463569407.923	 16	 0.192563	 0.634761	 0.020556	 0.093852	 0.626894	 -0.152978	 0.310510	 0.020957	 -0.058190	 0.948556	 1
