% Gyrometer data recorded with 'snsrlog'
% 
% 
% Label description:
% 	 0: Default Label
% 	 1: still_drop
% 	 2: walk_drop
% 	 3: other
% 	 4: dtw_same
% 	 5: dtw_diff
% 	 6: delete
% 
% Column description:
% 	 1: Seconds.milliseconds since 1970
% 	 2: Number of skipped measurements
% 	 3: Gyro X
% 	 4: Gyro Y
% 	 5: Gyro Z
% 	 6: Roll of the device
% 	 7: Pitch of the device
% 	 8: Yaw of the device
% 	 9: Quaternion X
% 	 10: Quaternion Y
% 	 11: Quaternion Z
% 	 12: Quaternion W
% 	 13: Label used for the current sample
% 
% 
1462170668.819	 0	 -0.081320	 -1.683089	 1.409767	 -0.390026	 -0.377573	 -0.067146	 -0.190395	 -0.184049	 0.004000	 0.964292	 4
1462170668.829	 0	 -0.104069	 -1.625938	 1.338414	 -0.401158	 -0.383436	 -0.054593	 -0.191994	 -0.190417	 0.011694	 0.962675	 4
1462170668.838	 0	 -0.166828	 -1.617151	 1.282907	 -0.412237	 -0.389682	 -0.042837	 -0.193769	 -0.196685	 0.019049	 0.960940	 4
1462170668.848	 0	 -0.239345	 -1.598999	 1.226306	 -0.423539	 -0.396461	 -0.031978	 -0.195806	 -0.202970	 0.026064	 0.959054	 4
1462170668.857	 0	 -0.282487	 -1.539783	 1.122771	 -0.434703	 -0.403435	 -0.022242	 -0.197976	 -0.209083	 0.032563	 0.957094	 4
1462170668.867	 0	 -0.315851	 -1.485251	 1.015411	 -0.445736	 -0.410333	 -0.013729	 -0.200172	 -0.215023	 0.038475	 0.955100	 4
1462170668.877	 0	 -0.355658	 -1.425805	 0.947895	 -0.456564	 -0.417344	 -0.006177	 -0.202470	 -0.220771	 0.043938	 0.953067	 4
1462170668.886	 0	 -0.405277	 -1.387464	 0.902572	 -0.467199	 -0.424652	 0.000575	 -0.204946	 -0.226342	 0.049054	 0.950979	 4
1462170668.896	 0	 -0.447576	 -1.427723	 0.897393	 -0.478193	 -0.432344	 0.006893	 -0.207592	 -0.232030	 0.054067	 0.948759	 4
1462170668.906	 0	 -0.429489	 -1.433405	 0.917123	 -0.489283	 -0.440136	 0.013302	 -0.210219	 -0.237770	 0.059169	 0.946452	 4
1462170668.915	 0	 -0.387562	 -1.364730	 0.949938	 -0.499682	 -0.447803	 0.020087	 -0.212709	 -0.243227	 0.064384	 0.944166	 4
1462170668.925	 0	 -0.310326	 -1.280678	 0.966583	 -0.509039	 -0.455080	 0.027345	 -0.214940	 -0.248253	 0.069682	 0.941974	 4
1462170668.934	 0	 -0.235810	 -1.134249	 0.982653	 -0.516854	 -0.461855	 0.035173	 -0.216871	 -0.252629	 0.075034	 0.939955	 4
1462170668.944	 0	 -0.203607	 -0.985830	 0.971620	 -0.523055	 -0.468299	 0.043164	 -0.218647	 -0.256279	 0.080253	 0.938123	 4
1462170668.954	 0	 -0.167356	 -0.893990	 0.945065	 -0.528237	 -0.474326	 0.051084	 -0.220244	 -0.259460	 0.085278	 0.936430	 4
1462170668.963	 0	 -0.152151	 -0.914293	 0.883893	 -0.533440	 -0.479997	 0.058614	 -0.221696	 -0.262624	 0.090080	 0.934754	 4
1462170668.973	 0	 -0.129152	 -1.029949	 0.816712	 -0.539749	 -0.485206	 0.065627	 -0.222920	 -0.266260	 0.094707	 0.932975	 4
1462170668.983	 0	 -0.111035	 -1.108066	 0.731312	 -0.547243	 -0.489896	 0.071985	 -0.223900	 -0.270386	 0.099099	 0.931096	 4
1462170668.992	 0	 -0.083662	 -1.087253	 0.645659	 -0.555133	 -0.494007	 0.077651	 -0.224651	 -0.274626	 0.103143	 0.929233	 4
1462170669.002	 0	 -0.056716	 -0.998093	 0.571907	 -0.562536	 -0.497530	 0.082761	 -0.225200	 -0.278584	 0.106802	 0.927507	 4
1462170669.011	 0	 -0.004356	 -0.941591	 0.528748	 -0.569368	 -0.500454	 0.087653	 -0.225507	 -0.282258	 0.110219	 0.925920	 4
1462170669.021	 0	 0.042946	 -0.893192	 0.512864	 -0.575690	 -0.502835	 0.092614	 -0.225558	 -0.285709	 0.113539	 0.924447	 4
1462170669.030	 0	 0.113006	 -0.819814	 0.521979	 -0.581225	 -0.504820	 0.097916	 -0.225401	 -0.288836	 0.116875	 0.923097	 4
1462170669.040	 0	 0.198703	 -0.739209	 0.546001	 -0.585583	 -0.506226	 0.103927	 -0.224924	 -0.291506	 0.120325	 0.921930	 4
1462170669.050	 0	 0.268243	 -0.626754	 0.594046	 -0.588592	 -0.507298	 0.110770	 -0.224237	 -0.293648	 0.123959	 0.920936	 4
1462170669.059	 0	 0.331351	 -0.464802	 0.656308	 -0.589703	 -0.508189	 0.118535	 -0.223439	 -0.295020	 0.127776	 0.920169	 4
1462170669.069	 0	 0.328789	 -0.300786	 0.722650	 -0.588813	 -0.509331	 0.127065	 -0.222767	 -0.295553	 0.131752	 0.919600	 4
1462170669.078	 0	 0.346736	 -0.114275	 0.794095	 -0.585871	 -0.510700	 0.136305	 -0.222236	 -0.295220	 0.135853	 0.919239	 4
1462170669.088	 0	 0.372066	 0.090983	 0.844576	 -0.580626	 -0.512204	 0.146173	 -0.221843	 -0.293900	 0.140001	 0.919135	 4
1462170669.098	 0	 0.405750	 0.325721	 0.896566	 -0.572861	 -0.513650	 0.156704	 -0.221526	 -0.291497	 0.144166	 0.919332	 4
1462170669.108	 0	 0.435964	 0.543893	 0.937217	 -0.562673	 -0.514937	 0.167950	 -0.221241	 -0.288060	 0.148370	 0.919815	 4
1462170669.117	 0	 0.433186	 0.790193	 0.983299	 -0.549951	 -0.516331	 0.179568	 -0.221187	 -0.283500	 0.152478	 0.920573	 4
1462170669.127	 0	 0.404931	 1.009353	 1.039165	 -0.534769	 -0.518002	 0.191608	 -0.221451	 -0.277855	 0.156539	 0.921549	 4
1462170669.136	 0	 0.368438	 1.133245	 1.116439	 -0.517870	 -0.520132	 0.204247	 -0.222051	 -0.271493	 0.160733	 0.922578	 4
1462170669.146	 0	 0.310401	 1.184057	 1.195542	 -0.500049	 -0.522906	 0.217405	 -0.223038	 -0.264779	 0.165122	 0.923516	 4
1462170669.155	 0	 0.242868	 1.205331	 1.264441	 -0.481695	 -0.526386	 0.231025	 -0.224427	 -0.257897	 0.169717	 0.924293	 4
1462170669.165	 0	 0.128474	 1.150918	 1.312904	 -0.463577	 -0.530745	 0.244739	 -0.226288	 -0.251177	 0.174439	 0.924811	 4
1462170669.175	 0	 0.090139	 1.047096	 1.305796	 -0.446208	 -0.535492	 0.258369	 -0.228363	 -0.244833	 0.179204	 0.925091	 4
1462170669.184	 0	 0.100800	 0.753491	 1.216934	 -0.431468	 -0.539703	 0.271441	 -0.230098	 -0.239655	 0.183927	 0.925090	 4
1462170669.194	 0	 0.081640	 0.385434	 1.103833	 -0.420678	 -0.543408	 0.283482	 -0.231413	 -0.236192	 0.188557	 0.924720	 4
1462170669.204	 0	 0.027142	 0.105277	 0.953313	 -0.413658	 -0.546883	 0.293897	 -0.232491	 -0.234294	 0.192834	 0.924050	 4
1462170669.213	 0	 0.025880	 -0.132221	 0.806700	 -0.409774	 -0.549905	 0.302706	 -0.233260	 -0.233655	 0.196684	 0.923207	 4
1462170669.223	 0	 -0.005677	 -0.394565	 0.663706	 -0.409134	 -0.552521	 0.309933	 -0.233706	 -0.234320	 0.200143	 0.922181	 4
1462170669.232	 0	 -0.049643	 -0.636844	 0.539622	 -0.411688	 -0.555059	 0.315665	 -0.233966	 -0.236284	 0.203276	 0.920928	 4
1462170669.242	 0	 -0.073776	 -0.758774	 0.445278	 -0.416411	 -0.557472	 0.320153	 -0.234081	 -0.239095	 0.206078	 0.919550	 4
1462170669.252	 0	 -0.049973	 -0.800220	 0.385083	 -0.421956	 -0.559528	 0.324029	 -0.234003	 -0.242192	 0.208666	 0.918174	 4
1462170669.261	 0	 -0.030477	 -0.793122	 0.375119	 -0.427623	 -0.561296	 0.327740	 -0.233784	 -0.245310	 0.211169	 0.916829	 4
1462170669.271	 0	 -0.009844	 -0.771884	 0.366541	 -0.433134	 -0.562933	 0.331456	 -0.233506	 -0.248347	 0.213644	 0.915508	 4
1462170669.281	 0	 0.001958	 -0.725824	 0.381874	 -0.438167	 -0.564461	 0.335378	 -0.233190	 -0.251180	 0.216148	 0.914227	 4
1462170669.290	 0	 0.028103	 -0.620861	 0.392782	 -0.442169	 -0.565887	 0.339520	 -0.232898	 -0.253561	 0.218621	 0.913056	 4
1462170669.300	 0	 0.054172	 -0.511153	 0.409953	 -0.444937	 -0.567122	 0.343960	 -0.232605	 -0.255401	 0.221069	 0.912027	 4
1462170669.309	 0	 0.061135	 -0.407635	 0.391123	 -0.446743	 -0.568210	 0.348328	 -0.232353	 -0.256786	 0.223358	 0.911144	 4
1462170669.319	 0	 0.059776	 -0.318367	 0.358516	 -0.447809	 -0.569228	 0.352406	 -0.232183	 -0.257797	 0.225421	 0.910394	 4
1462170669.329	 0	 0.089103	 -0.240894	 0.297055	 -0.448361	 -0.569826	 0.356052	 -0.231929	 -0.258502	 0.227193	 0.909818	 4
1462170669.338	 0	 0.090713	 -0.181317	 0.218150	 -0.448660	 -0.570051	 0.358945	 -0.231625	 -0.258986	 0.228561	 0.909415	 4
1462170669.348	 0	 0.113140	 -0.165163	 0.144898	 -0.449076	 -0.569770	 0.361177	 -0.231158	 -0.259418	 0.229601	 0.909149	 4
1462170669.357	 0	 0.110131	 -0.166790	 0.071588	 -0.449844	 -0.569172	 0.362671	 -0.230596	 -0.259907	 0.230321	 0.908970	 4
1462170669.367	 0	 0.097038	 -0.117760	 0.012526	 -0.450719	 -0.568439	 0.363398	 -0.230060	 -0.260350	 0.230693	 0.908885	 4
1462170669.377	 0	 0.123592	 -0.040064	 -0.009159	 -0.450999	 -0.567435	 0.363951	 -0.229488	 -0.260486	 0.230895	 0.908939	 4
1462170669.386	 0	 0.118619	 0.013964	 -0.025963	 -0.450795	 -0.566342	 0.364280	 -0.228959	 -0.260373	 0.230933	 0.909095	 4
1462170669.396	 0	 0.119661	 0.038729	 -0.019496	 -0.450281	 -0.565233	 0.364629	 -0.228456	 -0.260119	 0.230943	 0.909291	 4
1462170669.406	 0	 0.109824	 0.064575	 -0.020418	 -0.449503	 -0.564141	 0.365018	 -0.227987	 -0.259750	 0.230943	 0.909515	 4
1462170669.415	 0	 0.120667	 0.062346	 -0.008071	 -0.448640	 -0.563058	 0.365471	 -0.227523	 -0.259350	 0.230964	 0.909740	 4
1462170669.425	 0	 0.114587	 0.071706	 -0.012913	 -0.447714	 -0.562014	 0.365925	 -0.227085	 -0.258923	 0.230981	 0.909967	 4
1462170669.434	 0	 0.115872	 0.072838	 -0.021605	 -0.446837	 -0.560949	 0.366280	 -0.226644	 -0.258505	 0.230958	 0.910201	 4
1462170669.444	 0	 0.113610	 0.062150	 -0.035373	 -0.446014	 -0.559794	 0.366543	 -0.226166	 -0.258097	 0.230892	 0.910452	 4
1462170669.453	 0	 0.119874	 0.043277	 -0.046785	 -0.445455	 -0.558556	 0.366685	 -0.225635	 -0.257790	 0.230795	 0.910696	 4
1462170669.463	 0	 0.099657	 0.011195	 -0.080567	 -0.445381	 -0.557327	 0.366491	 -0.225095	 -0.257666	 0.230600	 0.910914	 4
1462170669.473	 0	 0.110934	 -0.017147	 -0.104528	 -0.445751	 -0.555993	 0.365985	 -0.224495	 -0.257703	 0.230304	 0.911126	 4
1462170669.482	 0	 0.115056	 -0.056177	 -0.138506	 -0.446568	 -0.554454	 0.365211	 -0.223783	 -0.257904	 0.229919	 0.911342	 4
1462170669.492	 0	 0.119269	 -0.109349	 -0.175117	 -0.448083	 -0.552726	 0.364102	 -0.222945	 -0.258375	 0.229444	 0.911534	 4
1462170669.501	 0	 0.106444	 -0.160241	 -0.210376	 -0.450265	 -0.550914	 0.362594	 -0.222045	 -0.259102	 0.228852	 0.911696	 4
1462170669.511	 0	 0.101949	 -0.205103	 -0.228219	 -0.453056	 -0.549066	 0.360819	 -0.221093	 -0.260077	 0.228200	 0.911813	 4
1462170669.521	 0	 0.119073	 -0.214484	 -0.235858	 -0.456029	 -0.547151	 0.359015	 -0.220096	 -0.261131	 0.227546	 0.911916	 4
1462170669.530	 0	 0.122545	 -0.187360	 -0.230621	 -0.458792	 -0.545105	 0.357272	 -0.219054	 -0.262090	 0.226882	 0.912057	 4
1462170669.540	 0	 0.113833	 -0.162619	 -0.220379	 -0.461296	 -0.543112	 0.355607	 -0.218059	 -0.262944	 0.226228	 0.912213	 4
1462170669.549	 0	 0.117168	 -0.140095	 -0.196552	 -0.463446	 -0.541240	 0.354170	 -0.217131	 -0.263670	 0.225646	 0.912368	 4
1462170669.559	 0	 0.099759	 -0.087104	 -0.179757	 -0.465092	 -0.539555	 0.352852	 -0.216332	 -0.264190	 0.225077	 0.912548	 4
1462170669.569	 0	 0.090922	 -0.058758	 -0.157050	 -0.466320	 -0.538098	 0.351713	 -0.215664	 -0.264552	 0.224564	 0.912728	 4
1462170669.578	 0	 0.094240	 0.004847	 -0.153915	 -0.466950	 -0.536644	 0.350667	 -0.215053	 -0.264652	 0.224027	 0.912975	 4
1462170669.588	 0	 0.086692	 0.077736	 -0.164296	 -0.467004	 -0.535185	 0.349486	 -0.214521	 -0.264474	 0.223367	 0.913313	 4
1462170669.598	 0	 0.091491	 0.125910	 -0.183696	 -0.466582	 -0.533625	 0.348117	 -0.214021	 -0.264055	 0.222559	 0.913749	 4
1462170669.607	 0	 0.067244	 0.136539	 -0.197797	 -0.499932	 -0.638301	 0.327823	 -0.261607	 -0.281339	 0.226698	 0.894996	 4
1462170669.617	 0	 0.081839	 0.149042	 -0.213567	 -0.527810	 -0.721289	 0.308321	 -0.299143	 -0.293486	 0.229656	 0.878429	 4
1462170669.627	 0	 0.068192	 0.142928	 -0.223432	 -0.553235	 -0.787899	 0.288882	 -0.329102	 -0.302706	 0.231596	 0.863958	 4
1462170669.636	 0	 0.076768	 0.144095	 -0.232160	 -0.553377	 -0.786164	 0.286734	 -0.328635	 -0.302394	 0.230521	 0.864533	 4
1462170669.646	 0	 0.080647	 0.133701	 -0.223698	 -0.576783	 -0.840501	 0.267815	 -0.352972	 -0.309559	 0.231855	 0.851955	 4
1462170669.655	 0	 0.083884	 0.128095	 -0.226548	 -0.599533	 -0.885403	 0.248688	 -0.373025	 -0.315530	 0.232594	 0.840948	 4
1462170669.665	 0	 0.079908	 0.139198	 -0.206907	 -0.620599	 -0.923748	 0.230350	 -0.390119	 -0.320304	 0.233134	 0.831180	 4
1462170669.674	 0	 0.078755	 0.138656	 -0.186280	 -0.640313	 -0.955868	 0.212754	 -0.404435	 -0.324225	 0.233422	 0.822694	 4
1462170669.684	 0	 0.056059	 0.112280	 -0.155915	 -0.657413	 -0.983562	 0.197198	 -0.416733	 -0.327175	 0.233821	 0.815241	 4
1462170669.694	 0	 0.045185	 0.094583	 -0.153560	 -0.657852	 -0.982331	 0.195551	 -0.416430	 -0.327054	 0.233094	 0.815652	 4
1462170669.703	 0	 0.030098	 0.094051	 -0.150356	 -0.674037	 -1.006456	 0.180705	 -0.427132	 -0.329565	 0.233417	 0.808988	 4
1462170669.713	 0	 0.000562	 0.087667	 -0.138520	 -0.689781	 -1.027477	 0.166035	 -0.436488	 -0.331787	 0.233545	 0.803027	 4
1462170669.722	 0	 -0.005552	 0.076610	 -0.146778	 -0.705198	 -1.046132	 0.151518	 -0.444819	 -0.333788	 0.233548	 0.797607	 4
1462170669.732	 0	 -0.029905	 0.080844	 -0.148623	 -0.720302	 -1.062501	 0.137115	 -0.452181	 -0.335608	 0.233391	 0.792734	 4
1462170669.742	 0	 -0.020164	 0.058314	 -0.131054	 -0.734296	 -1.077293	 0.123750	 -0.458818	 -0.337145	 0.233325	 0.788276	 4
1462170669.751	 0	 -0.032543	 0.045504	 -0.097579	 -0.735645	 -1.076823	 0.121690	 -0.458818	 -0.337235	 0.232757	 0.788405	 4
1462170669.761	 0	 -0.056703	 0.021610	 -0.087333	 -0.749697	 -1.090820	 0.108592	 -0.465049	 -0.338748	 0.232832	 0.784072	 4
1462170669.771	 0	 -0.048212	 0.020373	 -0.059637	 -0.762354	 -1.103535	 0.096801	 -0.470673	 -0.339976	 0.233023	 0.780117	 4
1462170669.780	 0	 -0.056604	 0.010799	 -0.036949	 -0.775045	 -1.115366	 0.085015	 -0.475911	 -0.341170	 0.233192	 0.776359	 4
1462170669.790	 0	 -0.063771	 0.018856	 -0.021576	 -0.787856	 -1.126312	 0.073114	 -0.480777	 -0.342348	 0.233305	 0.772800	 4
1462170669.799	 0	 -0.070628	 0.015018	 -0.029969	 -0.800831	 -1.136325	 0.060945	 -0.485281	 -0.343505	 0.233298	 0.769467	 4
1462170669.809	 0	 -0.089026	 0.023259	 -0.014880	 -0.802142	 -1.136763	 0.059278	 -0.485585	 -0.343564	 0.233044	 0.769325	 4
1462170669.819	 0	 -0.109339	 0.039414	 -0.018058	 -0.815218	 -1.146056	 0.046752	 -0.489837	 -0.344637	 0.232900	 0.766187	 4
1462170669.828	 0	 -0.107777	 0.042810	 -0.009081	 -0.827936	 -1.154555	 0.034452	 -0.493766	 -0.345619	 0.232705	 0.763276	 4
1462170669.838	 0	 -0.113410	 0.048485	 -0.008760	 -0.840548	 -1.162500	 0.022154	 -0.497480	 -0.346538	 0.232464	 0.760517	 4
1462170669.848	 0	 -0.116649	 0.043674	 0.006332	 -0.852726	 -1.169856	 0.010252	 -0.500935	 -0.347381	 0.232232	 0.757931	 4
1462170669.857	 0	 -0.113928	 0.063657	 0.026611	 -0.863975	 -1.176795	 -0.000925	 -0.504202	 -0.348035	 0.232028	 0.755523	 4
1462170669.867	 0	 -0.113052	 0.089709	 0.051730	 -0.864429	 -1.177841	 -0.002319	 -0.504787	 -0.347733	 0.231798	 0.755342	 4
1462170669.876	 0	 -0.124703	 0.102454	 0.053354	 -0.874907	 -1.184596	 -0.013131	 -0.507995	 -0.348145	 0.231562	 0.753070	 4
1462170669.886	 0	 -0.109565	 0.100077	 0.062129	 -0.884564	 -1.190787	 -0.023185	 -0.510943	 -0.348456	 0.231349	 0.750995	 4
1462170669.896	 0	 -0.112792	 0.118828	 0.074921	 -0.894404	 -1.196775	 -0.033525	 -0.513833	 -0.348741	 0.231079	 0.748971	 4
1462170669.905	 0	 -0.115882	 0.121090	 0.085071	 -0.903171	 -1.202585	 -0.042898	 -0.516601	 -0.348852	 0.230902	 0.747068	 4
1462170669.915	 0	 -0.111019	 0.114072	 0.088700	 -0.902837	 -1.203887	 -0.043739	 -0.517265	 -0.348339	 0.230742	 0.746897	 4
1462170669.925	 0	 -0.095699	 0.117485	 0.078884	 -0.911424	 -1.209358	 -0.052915	 -0.519881	 -0.348434	 0.230567	 0.745088	 4
1462170669.934	 0	 -0.099870	 0.123189	 0.074175	 -0.919602	 -1.214702	 -0.061786	 -0.522434	 -0.348437	 0.230406	 0.743349	 4
1462170669.944	 0	 -0.096680	 0.105454	 0.079092	 -0.927537	 -1.219477	 -0.070310	 -0.524738	 -0.348485	 0.230231	 0.741756	 4
1462170669.953	 0	 -0.092098	 0.089977	 0.065377	 -0.935316	 -1.223864	 -0.078581	 -0.526868	 -0.348568	 0.230060	 0.740259	 4
1462170669.963	 0	 -0.098666	 0.092191	 0.065527	 -0.944062	 -1.227866	 -0.087789	 -0.528904	 -0.348791	 0.229747	 0.738797	 4
1462170669.972	 0	 -0.094978	 0.094526	 0.059320	 -0.944295	 -1.228891	 -0.088958	 -0.529448	 -0.348417	 0.229578	 0.738637	 4
1462170669.982	 0	 -0.099127	 0.094429	 0.064411	 -0.952884	 -1.232768	 -0.098047	 -0.531429	 -0.348599	 0.229272	 0.737222	 4
1462170669.992	 0	 -0.101926	 0.088416	 0.061982	 -0.960373	 -1.236413	 -0.106109	 -0.533269	 -0.348659	 0.229027	 0.735940	 4
1462170670.001	 0	 -0.112080	 0.085950	 0.067064	 -0.968099	 -1.239868	 -0.114368	 -0.535044	 -0.348761	 0.228754	 0.734687	 4
1462170670.011	 0	 -0.119648	 0.068141	 0.063275	 -0.976093	 -1.243265	 -0.122824	 -0.536797	 -0.348896	 0.228488	 0.733426	 4
1462170670.020	 0	 -0.101621	 0.064496	 0.044592	 -0.983766	 -1.246309	 -0.130872	 -0.538388	 -0.349059	 0.228233	 0.732261	 4
1462170670.030	 0	 -0.111254	 0.070256	 0.031033	 -0.985156	 -1.247182	 -0.133038	 -0.538911	 -0.348843	 0.227996	 0.732053	 4
1462170670.040	 0	 -0.104423	 0.080810	 0.033669	 -0.993425	 -1.250014	 -0.141799	 -0.540480	 -0.349042	 0.227617	 0.730919	 4
1462170670.049	 0	 -0.110843	 0.074818	 0.034941	 -1.001414	 -1.252597	 -0.150284	 -0.541943	 -0.349236	 0.227229	 0.729863	 4
1462170670.059	 0	 -0.123390	 0.064150	 0.046129	 -1.009531	 -1.255203	 -0.158854	 -0.543412	 -0.349431	 0.226864	 0.728789	 4
1462170670.069	 0	 -0.124932	 0.061721	 0.047412	 -1.017267	 -1.257735	 -0.167010	 -0.544824	 -0.349597	 0.226547	 0.727754	 4
1462170670.078	 0	 -0.116347	 0.052321	 0.043542	 -1.019057	 -1.258694	 -0.169403	 -0.545365	 -0.349430	 0.226374	 0.727482	 4
1462170670.088	 0	 -0.099399	 0.032192	 0.023435	 -1.026898	 -1.260984	 -0.177439	 -0.546657	 -0.349688	 0.226095	 0.726474	 4
1462170670.098	 0	 -0.104390	 0.016724	 0.012210	 -1.034153	 -1.263230	 -0.184777	 -0.547877	 -0.349917	 0.225914	 0.725501	 4
1462170670.107	 0	 -0.091208	 0.007255	 0.004662	 -1.041685	 -1.265149	 -0.192238	 -0.548976	 -0.350258	 0.225703	 0.724571	 4
1462170670.117	 0	 -0.082901	 -0.011630	 0.002002	 -1.049501	 -1.266954	 -0.199845	 -0.550028	 -0.350671	 0.225503	 0.723634	 4
1462170670.126	 0	 -0.085559	 -0.001184	 -0.010259	 -1.057010	 -1.268382	 -0.207207	 -0.550947	 -0.351098	 0.225233	 0.722813	 4
1462170670.136	 0	 -0.079801	 0.012893	 -0.012570	 -1.063972	 -1.269802	 -0.214154	 -0.551852	 -0.351434	 0.224969	 0.722041	 4
1462170670.146	 0	 -0.094353	 0.017496	 -0.018661	 -1.066641	 -1.270078	 -0.217089	 -0.552158	 -0.351536	 0.224709	 0.721838	 4
1462170670.155	 0	 -0.086200	 0.016353	 -0.008712	 -1.073688	 -1.271525	 -0.224185	 -0.553088	 -0.351844	 0.224433	 0.721061	 4
1462170670.165	 0	 -0.093755	 0.012739	 -0.006174	 -1.080640	 -1.272899	 -0.231212	 -0.553993	 -0.352143	 0.224146	 0.720309	 4
1462170670.174	 0	 -0.084329	 0.012737	 -0.003701	 -1.087844	 -1.274200	 -0.238410	 -0.554876	 -0.352490	 0.223859	 0.719549	 4
1462170670.184	 0	 -0.083292	 0.011465	 -0.011155	 -1.094969	 -1.275293	 -0.245601	 -0.555699	 -0.352843	 0.223511	 0.718848	 4
1462170670.193	 0	 -0.079695	 0.015036	 -0.007408	 -1.097006	 -1.275537	 -0.247857	 -0.555948	 -0.352900	 0.223325	 0.718686	 4
1462170670.203	 0	 -0.086047	 0.020846	 -0.006036	 -1.103367	 -1.276650	 -0.254308	 -0.556733	 -0.353171	 0.223044	 0.718032	 4
1462170670.213	 0	 -0.099732	 0.020796	 0.005256	 -1.109770	 -1.277854	 -0.260841	 -0.557557	 -0.353408	 0.222775	 0.717359	 4
1462170670.222	 0	 -0.080509	 0.024362	 0.003990	 -1.115690	 -1.278987	 -0.266958	 -0.558339	 -0.353597	 0.222509	 0.716740	 4
1462170670.232	 0	 -0.083109	 0.016060	 0.003954	 -1.121458	 -1.280069	 -0.272840	 -0.559079	 -0.353800	 0.222278	 0.716134	 4
1462170670.242	 0	 -0.076090	 0.024288	 0.005317	 -1.127103	 -1.281369	 -0.278621	 -0.559883	 -0.353938	 0.222109	 0.715490	 4
1462170670.251	 0	 -0.077307	 0.011376	 0.012643	 -1.129084	 -1.281794	 -0.280819	 -0.560185	 -0.353944	 0.221982	 0.715290	 4
1462170670.261	 0	 -0.066474	 0.008974	 0.003937	 -1.133891	 -1.282942	 -0.285663	 -0.560868	 -0.354068	 0.221883	 0.714725	 4
1462170670.271	 0	 -0.059259	 0.013554	 -0.014615	 -1.139060	 -1.283964	 -0.290911	 -0.561542	 -0.354229	 0.221714	 0.714168	 4
1462170670.280	 0	 -0.061941	 0.020564	 -0.013238	 -1.144311	 -1.284773	 -0.296291	 -0.562163	 -0.354423	 0.221471	 0.713658	 4
1462170670.290	 0	 -0.049812	 0.031055	 -0.034259	 -1.148426	 -1.285308	 -0.300660	 -0.562647	 -0.354550	 0.221205	 0.713296	 4
1462170670.299	 0	 -0.057320	 0.035700	 -0.031621	 -1.152838	 -1.285959	 -0.305406	 -0.563201	 -0.354649	 0.220919	 0.712898	 4
1462170670.309	 0	 -0.053684	 0.031031	 -0.027961	 -1.154451	 -1.285897	 -0.307422	 -0.563362	 -0.354669	 0.220639	 0.712848	 4
1462170670.318	 0	 -0.058600	 0.017996	 -0.031718	 -1.158664	 -1.286602	 -0.311859	 -0.563900	 -0.354769	 0.220425	 0.712438	 4
1462170670.328	 0	 -0.041806	 0.011059	 -0.018129	 -1.162039	 -1.287267	 -0.315323	 -0.564345	 -0.354851	 0.220314	 0.712079	 4
1462170670.338	 0	 -0.035750	 0.008615	 -0.031776	 -1.165554	 -1.287845	 -0.318902	 -0.564769	 -0.354967	 0.220180	 0.711727	 4
1462170670.347	 0	 -0.031032	 0.001558	 -0.028055	 -1.169017	 -1.288449	 -0.322382	 -0.565188	 -0.355086	 0.220076	 0.711367	 4
1462170670.357	 0	 -0.022453	 -0.006664	 -0.031912	 -1.170258	 -1.288260	 -0.323602	 -0.565211	 -0.355224	 0.219944	 0.711321	 4
1462170670.367	 0	 -0.028749	 -0.007857	 -0.023114	 -1.173421	 -1.288815	 -0.326681	 -0.565578	 -0.355357	 0.219887	 0.710980	 4
1462170670.376	 0	 -0.021615	 -0.017253	 -0.018183	 -1.176741	 -1.289484	 -0.329816	 -0.565971	 -0.355504	 0.219885	 0.710594	 4
1462170670.386	 0	 -0.022985	 -0.026686	 -0.013238	 -1.180219	 -1.290075	 -0.333012	 -0.566335	 -0.355705	 0.219889	 0.710203	 4
1462170670.395	 0	 -0.024361	 -0.025542	 -0.011922	 -1.183548	 -1.290562	 -0.336051	 -0.566655	 -0.355918	 0.219879	 0.709843	 4
1462170670.405	 0	 0.002156	 -0.025427	 -0.007026	 -1.186899	 -1.291106	 -0.339045	 -0.566982	 -0.356138	 0.219909	 0.709462	 4
1462170670.415	 0	 -0.004160	 -0.024266	 0.001778	 -1.189618	 -1.291698	 -0.341431	 -0.567284	 -0.356295	 0.219989	 0.709118	 4
1462170670.424	 0	 -0.000607	 -0.018318	 0.009278	 -1.189767	 -1.291768	 -0.341374	 -0.567278	 -0.356348	 0.220071	 0.709070	 4
1462170670.434	 0	 -0.008226	 -0.005386	 0.019439	 -1.192792	 -1.292468	 -0.344232	 -0.567662	 -0.356454	 0.220100	 0.708700	 4
1462170670.443	 0	 -0.029053	 -0.004345	 0.019599	 -1.195937	 -1.293212	 -0.347250	 -0.568074	 -0.356544	 0.220120	 0.708318	 4
1462170670.453	 0	 -0.034079	 0.002655	 0.018494	 -1.199028	 -1.293940	 -0.350270	 -0.568487	 -0.356617	 0.220122	 0.707949	 4
1462170670.463	 0	 -0.045207	 -0.002088	 0.027229	 -1.202247	 -1.294676	 -0.353448	 -0.568917	 -0.356687	 0.220108	 0.707574	 4
1462170670.472	 0	 -0.058602	 -0.000959	 0.029793	 -1.203655	 -1.295146	 -0.354884	 -0.569156	 -0.356670	 0.220125	 0.707384	 4
1462170670.482	 0	 -0.083052	 0.000081	 0.031173	 -1.207894	 -1.295916	 -0.359110	 -0.569669	 -0.356792	 0.220044	 0.706936	 4
1462170670.491	 0	 -0.079683	 0.001360	 0.049811	 -1.211650	 -1.296767	 -0.362896	 -0.570179	 -0.356846	 0.220004	 0.706509	 4
1462170670.501	 0	 -0.076122	 0.001318	 0.044869	 -1.215509	 -1.297868	 -0.366772	 -0.570766	 -0.356851	 0.220031	 0.706024	 4
1462170670.511	 0	 -0.080116	 0.003772	 0.069817	 -1.219003	 -1.299153	 -0.370306	 -0.571384	 -0.356780	 0.220128	 0.705530	 4
1462170670.520	 0	 -0.082606	 0.007213	 0.061205	 -1.222700	 -1.300349	 -0.374079	 -0.571995	 -0.356729	 0.220177	 0.705045	 4
1462170670.530	 0	 -0.072779	 -0.005720	 0.056050	 -1.224544	 -1.301144	 -0.375977	 -0.572359	 -0.356652	 0.220251	 0.704765	 4
1462170670.540	 0	 -0.066774	 -0.002211	 0.051121	 -1.227763	 -1.302167	 -0.379189	 -0.572871	 -0.356629	 0.220318	 0.704340	 4
1462170670.549	 0	 -0.070414	 -0.008179	 0.043631	 -1.231080	 -1.302996	 -0.382459	 -0.573326	 -0.356666	 0.220343	 0.703943	 4
1462170670.559	 0	 -0.080273	 -0.011743	 0.049855	 -1.235020	 -1.303784	 -0.386318	 -0.573804	 -0.356761	 0.220331	 0.703508	 4
1462170670.568	 0	 -0.062093	 -0.015223	 0.047252	 -1.238118	 -1.304558	 -0.389283	 -0.574212	 -0.356818	 0.220389	 0.703129	 4
1462170670.578	 0	 -0.058471	 -0.032860	 0.050783	 -1.241285	 -1.305331	 -0.392196	 -0.574601	 -0.356912	 0.220487	 0.702732	 4
1462170670.588	 0	 -0.071985	 -0.029304	 0.065799	 -1.243085	 -1.306083	 -0.393770	 -0.574896	 -0.356915	 0.220658	 0.702436	 4
1462170670.597	 0	 -0.082928	 -0.031764	 0.059617	 -1.246602	 -1.307018	 -0.397032	 -0.575353	 -0.356989	 0.220781	 0.701985	 4
1462170670.607	 0	 -0.070926	 -0.032840	 0.069470	 -1.250044	 -1.307858	 -0.400165	 -0.575768	 -0.357096	 0.220905	 0.701552	 4
1462170670.617	 0	 -0.056199	 -0.042303	 0.051890	 -1.252857	 -1.308564	 -0.402618	 -0.576093	 -0.357207	 0.221050	 0.701183	 4
1462170670.626	 0	 -0.070731	 -0.049480	 0.045647	 -1.255942	 -1.309115	 -0.405283	 -0.576381	 -0.357389	 0.221158	 0.700819	 4
1462170670.636	 0	 -0.090274	 -0.041305	 0.050760	 -1.259384	 -1.309702	 -0.408387	 -0.576719	 -0.357559	 0.221226	 0.700433	 4
1462170670.645	 0	 -0.091512	 -0.038949	 0.052033	 -1.262476	 -1.310449	 -0.411159	 -0.577079	 -0.357662	 0.221356	 0.700042	 4
1462170670.655	 0	 -0.114786	 -0.016669	 0.057306	 -1.266773	 -1.311109	 -0.415335	 -0.577533	 -0.357801	 0.221319	 0.699609	 4
1462170670.665	 0	 -0.097914	 -0.010648	 0.067145	 -1.270606	 -1.311644	 -0.419085	 -0.577927	 -0.357928	 0.221265	 0.699236	 4
1462170670.674	 0	 -0.105361	 0.008179	 0.072287	 -1.274095	 -1.312368	 -0.422693	 -0.578385	 -0.357927	 0.221216	 0.698872	 4
1462170670.684	 0	 -0.112716	 0.016380	 0.072349	 -1.278026	 -1.313074	 -0.426860	 -0.578888	 -0.357923	 0.221097	 0.698495	 4
1462170670.693	 0	 -0.107836	 0.021084	 0.067378	 -1.281156	 -1.313901	 -0.430284	 -0.579380	 -0.357821	 0.221042	 0.698157	 4
1462170670.703	 0	 -0.099302	 0.022280	 0.063620	 -1.283890	 -1.314806	 -0.433344	 -0.579870	 -0.357665	 0.221024	 0.697836	 4
1462170670.713	 0	 -0.093158	 0.024633	 0.057342	 -1.286107	 -1.315309	 -0.435890	 -0.580216	 -0.357576	 0.220921	 0.697626	 4
1462170670.722	 0	 -0.094235	 0.013994	 0.049752	 -1.288689	 -1.315883	 -0.438749	 -0.580596	 -0.357505	 0.220837	 0.697373	 4
1462170670.732	 0	 -0.088012	 0.017486	 0.036054	 -1.290842	 -1.316244	 -0.441178	 -0.580890	 -0.357460	 0.220718	 0.697189	 4
1462170670.741	 0	 -0.091532	 0.001018	 0.038361	 -1.292489	 -1.316647	 -0.442990	 -0.581140	 -0.357407	 0.220680	 0.697020	 4
1462170670.751	 0	 -0.100010	 -0.005999	 0.049483	 -1.294094	 -1.317096	 -0.444703	 -0.581389	 -0.357357	 0.220678	 0.696839	 4
1462170670.761	 0	 -0.087777	 -0.024769	 0.050468	 -1.297094	 -1.317792	 -0.447585	 -0.581758	 -0.357390	 0.220746	 0.696492	 4
1462170670.770	 0	 -0.088926	 -0.024759	 0.050445	 -1.298863	 -1.318252	 -0.449223	 -0.581978	 -0.357414	 0.220823	 0.696271	 4
1462170670.780	 0	 -0.083993	 -0.027076	 0.050331	 -1.301028	 -1.318551	 -0.451233	 -0.582178	 -0.357508	 0.220839	 0.696051	 4
1462170670.789	 0	 -0.081498	 -0.023543	 0.046541	 -1.303187	 -1.318746	 -0.453230	 -0.582348	 -0.357629	 0.220829	 0.695850	 4
1462170670.799	 0	 -0.075382	 -0.012928	 0.042789	 -1.305211	 -1.318811	 -0.455227	 -0.582499	 -0.357735	 0.220743	 0.695697	 4
1462170670.809	 0	 -0.066917	 0.009495	 0.042879	 -1.306628	 -1.318868	 -0.456782	 -0.582636	 -0.357761	 0.220631	 0.695604	 4
1462170670.820	 0	 -0.068193	 0.015398	 0.046675	 -1.308503	 -1.319485	 -0.458865	 -0.582964	 -0.357650	 0.220631	 0.695386	 4
1462170670.838	 0	 -0.074453	 0.027288	 0.069101	 -1.311812	 -1.320531	 -0.462792	 -0.583575	 -0.357390	 0.220535	 0.695038	 4
1462170670.847	 0	 -0.067068	 0.020304	 0.072689	 -1.311785	 -1.321147	 -0.463074	 -0.583790	 -0.357141	 0.220607	 0.694962	 4
1462170670.857	 0	 -0.066862	 0.003793	 0.065022	 -1.312525	 -1.321711	 -0.463990	 -0.584019	 -0.356988	 0.220669	 0.694829	 4
1462170670.866	 0	 -0.061798	 0.003677	 0.041387	 -1.314304	 -1.322312	 -0.465868	 -0.584315	 -0.356905	 0.220710	 0.694610	 4
1462170670.876	 0	 -0.083587	 0.008257	 0.035271	 -1.315887	 -1.322507	 -0.467607	 -0.584501	 -0.356896	 0.220626	 0.694484	 4
1462170670.886	 0	 -0.080963	 -0.007047	 0.030070	 -1.317615	 -1.322660	 -0.469414	 -0.584673	 -0.356929	 0.220548	 0.694347	 4
1462170670.895	 0	 -0.075880	 -0.021174	 0.022372	 -1.319027	 -1.322655	 -0.470774	 -0.584759	 -0.357023	 0.220487	 0.694246	 4
1462170670.905	 0	 -0.028034	 -0.008809	 0.011062	 -1.318757	 -1.322482	 -0.470484	 -0.584692	 -0.357058	 0.220459	 0.694293	 4
1462170670.914	 0	 -0.023226	 -0.005223	 0.016028	 -1.319480	 -1.322301	 -0.471177	 -0.584689	 -0.357153	 0.220377	 0.694273	 4
1462170670.924	 0	 -0.025628	 -0.007596	 0.014750	 -1.320282	 -1.321993	 -0.471927	 -0.584655	 -0.357291	 0.220261	 0.694268	 4
1462170670.934	 0	 -0.019663	 0.008937	 0.018621	 -1.320788	 -1.322218	 -0.472485	 -0.584757	 -0.357246	 0.220281	 0.694198	 4
1462170670.943	 0	 -0.013673	 0.019591	 0.023653	 -1.320560	 -1.321975	 -0.472442	 -0.584711	 -0.357242	 0.220158	 0.694278	 4
1462170670.953	 0	 -0.027039	 0.032443	 0.017623	 -1.320443	 -1.321793	 -0.472672	 -0.584718	 -0.357180	 0.219991	 0.694357	 4
1462170670.962	 0	 -0.013775	 0.038454	 0.027539	 -1.320070	 -1.321626	 -0.472703	 -0.584721	 -0.357084	 0.219822	 0.694457	 4
1462170670.972	 0	 -0.007722	 0.042033	 0.030016	 -1.318837	 -1.321558	 -0.471900	 -0.584696	 -0.356909	 0.219721	 0.694601	 4
1462170670.982	 0	 -0.022211	 0.031339	 0.025007	 -1.318962	 -1.321873	 -0.472369	 -0.584847	 -0.356734	 0.219686	 0.694573	 4
1462170670.991	 0	 -0.018349	 0.020661	 0.007470	 -1.318326	 -1.321748	 -0.472011	 -0.584821	 -0.356650	 0.219588	 0.694670	 4
1462170671.001	 0	 -0.021905	 0.018248	 -0.000002	 -1.317912	 -1.321574	 -0.471836	 -0.584790	 -0.356602	 0.219477	 0.694756	 4
1462170671.011	 0	 -0.030164	 0.001619	 -0.018778	 -1.318495	 -1.321399	 -0.472516	 -0.584802	 -0.356650	 0.219360	 0.694758	 4
1462170671.020	 0	 -0.025299	 -0.001874	 -0.016364	 -1.319164	 -1.321063	 -0.473239	 -0.584771	 -0.356757	 0.219207	 0.694778	 4
1462170671.030	 0	 -0.039899	 0.002767	 -0.016251	 -1.320219	 -1.320806	 -0.474342	 -0.584785	 -0.356867	 0.219057	 0.694756	 4
1462170671.039	 0	 -0.022851	 -0.001868	 -0.017627	 -1.321456	 -1.320704	 -0.475582	 -0.584845	 -0.356960	 0.218958	 0.694690	 4
1462170671.049	 0	 -0.020498	 -0.006492	 -0.005272	 -1.321931	 -1.320456	 -0.476075	 -0.584816	 -0.357044	 0.218853	 0.694703	 4
1462170671.059	 0	 -0.025516	 0.005333	 0.007289	 -1.322426	 -1.320251	 -0.476626	 -0.584808	 -0.357108	 0.218747	 0.694711	 4
1462170671.068	 0	 -0.025607	 0.020652	 0.009918	 -1.323056	 -1.320045	 -0.477447	 -0.584832	 -0.357139	 0.218585	 0.694725	 4
1462170671.078	 0	 -0.023183	 0.026545	 0.008710	 -1.322938	 -1.319872	 -0.477613	 -0.584830	 -0.357094	 0.218442	 0.694795	 4
1462170671.087	 0	 -0.030600	 0.043030	 0.015118	 -1.323167	 -1.319707	 -0.478271	 -0.584880	 -0.357024	 0.218233	 0.694855	 4
1462170671.097	 0	 -0.030576	 0.039499	 0.015073	 -1.323394	 -1.319737	 -0.478913	 -0.584978	 -0.356907	 0.218085	 0.694880	 4
1462170671.107	 0	 -0.031787	 0.045368	 0.012651	 -1.323150	 -1.319784	 -0.479159	 -0.585060	 -0.356738	 0.217942	 0.694942	 4
1462170671.116	 0	 -0.026680	 0.029969	 -0.007417	 -1.323778	 -1.319833	 -0.480128	 -0.585177	 -0.356660	 0.217803	 0.694926	 4
1462170671.126	 0	 -0.033954	 0.028760	 -0.007393	 -1.323608	 -1.319788	 -0.480353	 -0.585224	 -0.356547	 0.217662	 0.694989	 4
1462170671.135	 0	 -0.038648	 0.019250	 -0.019892	 -1.323647	 -1.319702	 -0.480669	 -0.585254	 -0.356490	 0.217538	 0.695032	 4
1462170671.145	 0	 -0.016720	 0.014644	 -0.021291	 -1.323017	 -1.319500	 -0.480279	 -0.585201	 -0.356437	 0.217430	 0.695138	 4
1462170671.155	 0	 -0.027601	 0.006356	 -0.021319	 -1.322533	 -1.319336	 -0.479978	 -0.585158	 -0.356400	 0.217345	 0.695220	 4
1462170671.164	 0	 -0.025069	 -0.008940	 -0.022730	 -1.322327	 -1.319210	 -0.479776	 -0.585112	 -0.356419	 0.217318	 0.695257	 4
1462170671.174	 0	 -0.023937	 -0.014728	 -0.007884	 -1.322159	 -1.319107	 -0.479556	 -0.585064	 -0.356452	 0.217315	 0.695282	 4
1462170671.184	 0	 -0.021518	 -0.012351	 -0.006626	 -1.322197	 -1.319101	 -0.479541	 -0.585056	 -0.356471	 0.217330	 0.695274	 4
1462170671.193	 0	 -0.014283	 -0.005239	 -0.004103	 -1.322885	 -1.319107	 -0.480176	 -0.585095	 -0.356523	 0.217312	 0.695220	 4
1462170671.203	 0	 -0.011828	 -0.000536	 -0.007796	 -1.322275	 -1.318952	 -0.479579	 -0.585015	 -0.356525	 0.217296	 0.695291	 4
1462170671.212	 0	 0.001457	 0.000765	 0.002093	 -1.321650	 -1.318918	 -0.478970	 -0.584966	 -0.356495	 0.217314	 0.695342	 4
1462170671.222	 0	 0.001439	 0.001960	 0.004588	 -1.320810	 -1.318880	 -0.478181	 -0.584907	 -0.356443	 0.217332	 0.695413	 4
1462170671.232	 0	 -0.009476	 0.010114	 -0.001489	 -1.320454	 -1.318766	 -0.477896	 -0.584865	 -0.356432	 0.217294	 0.695466	 4
1462170671.241	 0	 -0.001099	 0.012599	 0.013398	 -1.319481	 -1.318711	 -0.477047	 -0.584805	 -0.356356	 0.217288	 0.695557	 4
1462170671.251	 0	 0.003702	 0.022056	 0.015956	 -1.318692	 -1.318770	 -0.476486	 -0.584807	 -0.356230	 0.217270	 0.695626	 4
1462170671.260	 0	 -0.001247	 0.031481	 0.021050	 -1.318162	 -1.318956	 -0.476222	 -0.584865	 -0.356076	 0.217261	 0.695658	 4
1462170671.270	 0	 0.001195	 0.027969	 0.022242	 -1.317356	 -1.319171	 -0.475691	 -0.584914	 -0.355896	 0.217273	 0.695706	 4
1462170671.280	 0	 0.015845	 0.022132	 0.018382	 -1.315987	 -1.319346	 -0.474573	 -0.584909	 -0.355702	 0.217313	 0.695796	 4
1462170671.289	 0	 -0.004795	 0.019681	 0.018462	 -1.314816	 -1.319507	 -0.473603	 -0.584906	 -0.355537	 0.217355	 0.695870	 4
1462170671.299	 0	 -0.003496	 0.003206	 0.018285	 -1.314485	 -1.319699	 -0.473347	 -0.584946	 -0.355447	 0.217403	 0.695867	 4
1462170671.309	 0	 -0.014317	 -0.000442	 0.007118	 -1.314508	 -1.319784	 -0.473389	 -0.584973	 -0.355422	 0.217420	 0.695852	 4
1462170671.318	 0	 -0.017885	 -0.002858	 -0.000352	 -1.315001	 -1.319691	 -0.473867	 -0.584981	 -0.355477	 0.217370	 0.695833	 4
1462170671.328	 0	 -0.008050	 -0.007579	 -0.010400	 -1.315329	 -1.319449	 -0.474170	 -0.584936	 -0.355564	 0.217290	 0.695851	 4
1462170671.337	 0	 -0.019083	 0.010035	 -0.008917	 -1.316070	 -1.319377	 -0.475005	 -0.584985	 -0.355596	 0.217196	 0.695823	 4
1462170671.347	 0	 -0.017948	 0.026522	 -0.008759	 -1.317049	 -1.319184	 -0.476203	 -0.585042	 -0.355636	 0.217009	 0.695814	 4
1462170671.357	 0	 -0.028946	 0.026514	 -0.001259	 -1.317756	 -1.318999	 -0.477176	 -0.585090	 -0.355644	 0.216823	 0.695826	 4
1462170671.366	 0	 -0.013264	 0.019627	 0.015975	 -1.318224	 -1.318969	 -0.477865	 -0.585154	 -0.355613	 0.216712	 0.695823	 4
1462170671.376	 0	 -0.016944	 0.023156	 0.018505	 -1.318297	 -1.318967	 -0.478151	 -0.585197	 -0.355556	 0.216633	 0.695841	 4
1462170671.385	 0	 -0.020534	 0.028966	 0.008637	 -1.318857	 -1.318981	 -0.479002	 -0.585291	 -0.355498	 0.216505	 0.695832	 4
1462170671.395	 0	 -0.025261	 0.015950	 0.001065	 -1.319066	 -1.318952	 -0.479468	 -0.585343	 -0.355442	 0.216395	 0.695850	 4
1462170671.405	 0	 -0.019120	 0.013588	 -0.005203	 -1.319654	 -1.318957	 -0.480175	 -0.585407	 -0.355438	 0.216323	 0.695821	 4
1462170671.414	 0	 -0.011779	 0.005374	 -0.006572	 -1.320409	 -1.318891	 -0.481029	 -0.585460	 -0.355468	 0.216228	 0.695791	 4
1462170671.424	 0	 -0.028780	 -0.005272	 -0.001630	 -1.320959	 -1.318862	 -0.481614	 -0.585497	 -0.355495	 0.216176	 0.695762	 4
1462170671.433	 0	 -0.029963	 -0.006468	 -0.004123	 -1.321777	 -1.318822	 -0.482418	 -0.585541	 -0.355555	 0.216125	 0.695710	 4
1462170671.443	 0	 -0.026325	 -0.017001	 0.003197	 -1.322539	 -1.318765	 -0.483079	 -0.585561	 -0.355641	 0.216101	 0.695656	 4
1462170671.453	 0	 -0.020234	 -0.016979	 0.001915	 -1.323390	 -1.318664	 -0.483796	 -0.585571	 -0.355753	 0.216071	 0.695600	 4
1462170671.462	 0	 -0.038573	 -0.005258	 0.008324	 -1.324995	 -1.318510	 -0.485364	 -0.585637	 -0.355892	 0.215951	 0.695511	 4
1462170671.472	 0	 -0.053136	 -0.006512	 0.007126	 -1.326414	 -1.318373	 -0.486791	 -0.585703	 -0.356003	 0.215830	 0.695437	 4
1462170671.482	 0	 -0.041087	 0.004177	 0.013390	 -1.327999	 -1.318584	 -0.488450	 -0.585881	 -0.356013	 0.215779	 0.695297	 4
1462170671.491	 0	 -0.043591	 0.014775	 0.015986	 -1.329419	 -1.318620	 -0.490013	 -0.586016	 -0.356039	 0.215663	 0.695206	 4
1462170671.501	 0	 -0.065477	 0.021719	 0.013668	 -1.331489	 -1.318584	 -0.492370	 -0.586203	 -0.356078	 0.215439	 0.695098	 4
1462170671.510	 0	 -0.044857	 0.037099	 0.009984	 -1.332954	 -1.318533	 -0.494216	 -0.586361	 -0.356059	 0.215212	 0.695044	 4
1462170671.520	 0	 -0.064226	 0.035786	 0.002596	 -1.334499	 -1.318372	 -0.496170	 -0.586502	 -0.356064	 0.214938	 0.695008	 4
1462170671.530	 0	 -0.052035	 0.039339	 -0.003647	 -1.336275	 -1.318314	 -0.498347	 -0.586683	 -0.356059	 0.214685	 0.694935	 4
1462170671.539	 0	 -0.043424	 0.031095	 -0.011232	 -1.337626	 -1.318332	 -0.500097	 -0.586855	 -0.356010	 0.214479	 0.694880	 4
1462170671.549	 0	 -0.039766	 0.025241	 -0.008827	 -1.338562	 -1.318303	 -0.501348	 -0.586970	 -0.355975	 0.214310	 0.694852	 4
1462170671.558	 0	 -0.037183	 0.012256	 -0.017672	 -1.338797	 -1.318231	 -0.501809	 -0.587008	 -0.355940	 0.214198	 0.694872	 4
1462170671.568	 0	 -0.024882	 -0.008895	 -0.021683	 -1.339069	 -1.318074	 -0.502136	 -0.586998	 -0.355980	 0.214118	 0.694885	 4
1462170671.578	 0	 -0.016240	 -0.023015	 -0.028088	 -1.339204	 -1.317760	 -0.502142	 -0.586905	 -0.356107	 0.214062	 0.694916	 4
1462170671.587	 0	 -0.033128	 -0.033743	 -0.036814	 -1.340772	 -1.317528	 -0.503451	 -0.586912	 -0.356328	 0.213998	 0.694816	 4
1462170671.597	 0	 -0.029437	 -0.020839	 -0.047888	 -1.341682	 -1.316992	 -0.504229	 -0.586817	 -0.356557	 0.213836	 0.694829	 4
1462170671.606	 0	 -0.034389	 -0.010227	 -0.041545	 -1.342425	 -1.316512	 -0.504940	 -0.586744	 -0.356731	 0.213663	 0.694854	 4
1462170671.616	 0	 -0.047839	 -0.006705	 -0.032746	 -1.343589	 -1.316209	 -0.506079	 -0.586746	 -0.356881	 0.213519	 0.694820	 4
1462170671.626	 0	 -0.046785	 -0.006580	 -0.012871	 -1.344866	 -1.316068	 -0.507348	 -0.586801	 -0.356989	 0.213410	 0.694752	 4
1462170671.635	 0	 -0.038418	 0.005303	 -0.001605	 -1.345245	 -1.316074	 -0.507821	 -0.586846	 -0.356980	 0.213359	 0.694733	 4
1462170671.645	 0	 -0.045679	 0.012298	 -0.007710	 -1.345773	 -1.316029	 -0.508539	 -0.586907	 -0.356965	 0.213251	 0.694723	 4
1462170671.655	 0	 -0.055457	 0.019330	 -0.005102	 -1.347653	 -1.316114	 -0.510679	 -0.587110	 -0.356967	 0.213085	 0.694602	 4
1462170671.664	 0	 -0.043222	 0.018170	 -0.012631	 -1.348545	 -1.316080	 -0.511801	 -0.587206	 -0.356957	 0.212947	 0.694567	 4
1462170671.674	 0	 -0.046863	 0.019333	 -0.012596	 -1.349234	 -1.316129	 -0.512783	 -0.587321	 -0.356895	 0.212823	 0.694541	 4
1462170671.684	 0	 -0.018874	 -0.000491	 -0.004241	 -1.349116	 -1.316166	 -0.512762	 -0.587339	 -0.356850	 0.212807	 0.694553	 4
1462170671.693	 0	 -0.028500	 -0.007634	 -0.010469	 -1.349331	 -1.316305	 -0.512974	 -0.587388	 -0.356826	 0.212838	 0.694514	 4
1462170671.703	 0	 -0.021288	 -0.008718	 -0.000577	 -1.350426	 -1.316338	 -0.513989	 -0.587461	 -0.356899	 0.212817	 0.694421	 4
1462170671.712	 0	 -0.021187	 -0.020509	 -0.004424	 -1.350418	 -1.316369	 -0.513863	 -0.587447	 -0.356926	 0.212867	 0.694404	 4
1462170671.722	 0	 -0.029716	 -0.008788	 -0.006740	 -1.350492	 -1.316382	 -0.513877	 -0.587445	 -0.356944	 0.212889	 0.694390	 4
1462170671.731	 0	 -0.016374	 -0.012217	 -0.000632	 -1.350529	 -1.316311	 -0.513818	 -0.587413	 -0.356993	 0.212898	 0.694389	 4
1462170671.741	 0	 -0.012722	 -0.008672	 -0.001860	 -1.350272	 -1.316203	 -0.513522	 -0.587360	 -0.357019	 0.212893	 0.694422	 4
1462170671.751	 0	 -0.013963	 -0.003960	 -0.000563	 -1.350142	 -1.316160	 -0.513351	 -0.587333	 -0.357035	 0.212902	 0.694434	 4
1462170671.760	 0	 -0.014045	 0.001964	 0.005712	 -1.350566	 -1.316236	 -0.513808	 -0.587389	 -0.357028	 0.212890	 0.694394	 4
1462170671.770	 0	 -0.010488	 0.011439	 0.012006	 -1.350137	 -1.316317	 -0.513510	 -0.587401	 -0.356946	 0.212893	 0.694425	 4
1462170671.780	 0	 -0.015367	 0.005568	 0.018186	 -1.349883	 -1.316540	 -0.513339	 -0.587454	 -0.356849	 0.212944	 0.694415	 4
1462170671.789	 0	 -0.010381	 -0.001530	 0.008148	 -1.349840	 -1.316667	 -0.513332	 -0.587489	 -0.356803	 0.212972	 0.694401	 4
1462170671.799	 0	 -0.005478	 0.000821	 0.003180	 -1.349261	 -1.316733	 -0.512773	 -0.587467	 -0.356748	 0.213015	 0.694433	 4
1462170671.808	 0	 -0.000527	 0.003134	 -0.008003	 -1.348957	 -1.316683	 -0.512531	 -0.587444	 -0.356727	 0.212995	 0.694470	 4
1462170671.818	 0	 0.005533	 0.002001	 -0.005560	 -1.348862	 -1.316634	 -0.512430	 -0.587424	 -0.356736	 0.212988	 0.694484	 4
1462170671.828	 0	 -0.010267	 -0.006286	 -0.000599	 -1.348998	 -1.316591	 -0.512554	 -0.587421	 -0.356759	 0.212972	 0.694481	 4
1462170671.837	 0	 -0.002973	 0.003138	 -0.005515	 -1.348976	 -1.316399	 -0.512542	 -0.587373	 -0.356805	 0.212912	 0.694516	 4
1462170671.847	 0	 -0.006709	 0.003188	 0.005679	 -1.348868	 -1.316307	 -0.512483	 -0.587351	 -0.356809	 0.212873	 0.694544	 4
1462170671.856	 0	 -0.008166	 0.018617	 0.008219	 -1.348859	 -1.316229	 -0.512620	 -0.587356	 -0.356786	 0.212799	 0.694574	 4
1462170671.866	 0	 -0.009434	 0.025689	 0.010782	 -1.348715	 -1.316246	 -0.512715	 -0.587393	 -0.356704	 0.212729	 0.694606	 4
1462170671.876	 0	 -0.017904	 0.026796	 0.005866	 -1.349102	 -1.316372	 -0.513376	 -0.587501	 -0.356611	 0.212651	 0.694586	 4
1462170671.885	 0	 -0.000948	 0.028092	 0.012002	 -1.348903	 -1.316327	 -0.513454	 -0.587525	 -0.356531	 0.212552	 0.694638	 4
1462170671.895	 0	 0.000336	 0.025707	 0.005754	 -1.348244	 -1.316251	 -0.513058	 -0.587505	 -0.356438	 0.212473	 0.694726	 4
1462170671.904	 0	 -0.004401	 0.011520	 -0.000585	 -1.347836	 -1.316198	 -0.512791	 -0.587488	 -0.356389	 0.212430	 0.694779	 4
1462170671.914	 0	 -0.004357	 0.016186	 -0.007993	 -1.347582	 -1.316070	 -0.512693	 -0.587466	 -0.356363	 0.212351	 0.694836	 4
1462170671.924	 0	 0.010329	 -0.000240	 -0.010725	 -1.347163	 -1.315913	 -0.512319	 -0.587404	 -0.356369	 0.212312	 0.694897	 4
1462170671.933	 0	 0.004296	 -0.020247	 -0.004692	 -1.347105	 -1.315828	 -0.512157	 -0.587360	 -0.356418	 0.212325	 0.694905	 4
1462170671.943	 0	 0.005600	 -0.022646	 -0.013421	 -1.347108	 -1.315710	 -0.511946	 -0.587292	 -0.356512	 0.212364	 0.694902	 4
1462170671.953	 0	 0.006702	 -0.020211	 -0.000978	 -1.346627	 -1.315583	 -0.511260	 -0.587189	 -0.356580	 0.212423	 0.694936	 4
1462170671.962	 0	 0.011576	 -0.020196	 -0.002252	 -1.346544	 -1.315324	 -0.510996	 -0.587086	 -0.356696	 0.212413	 0.694966	 4
1462170671.972	 0	 0.003000	 -0.001415	 -0.004506	 -1.346699	 -1.315004	 -0.511100	 -0.587008	 -0.356804	 0.212327	 0.695004	 4
1462170671.981	 0	 -0.014097	 0.006774	 0.000636	 -1.346893	 -1.315005	 -0.511339	 -0.587030	 -0.356801	 0.212301	 0.694994	 4
1462170671.991	 0	 -0.010430	 0.003260	 0.000572	 -1.346930	 -1.314758	 -0.511440	 -0.586982	 -0.356849	 0.212203	 0.695040	 4
1462170672.001	 0	 -0.022646	 0.014982	 0.001991	 -1.347299	 -1.314566	 -0.511960	 -0.586987	 -0.356875	 0.212073	 0.695062	 4
1462170672.010	 0	 -0.016575	 0.030272	 -0.005342	 -1.347291	 -1.314274	 -0.512237	 -0.586965	 -0.356867	 0.211887	 0.695142	 4
1462170672.020	 0	 -0.020281	 0.029121	 0.002115	 -1.347886	 -1.314229	 -0.513132	 -0.587050	 -0.356824	 0.211737	 0.695138	 4
1462170672.029	 0	 -0.023809	 0.020812	 -0.006652	 -1.348345	 -1.314187	 -0.513857	 -0.587120	 -0.356781	 0.211607	 0.695140	 4
1462170672.039	 0	 -0.009968	 0.000069	 -0.011104	 -1.348119	 -1.314124	 -0.513737	 -0.587107	 -0.356755	 0.211564	 0.695178	 4
1462170672.049	 0	 -0.005048	 -0.001122	 -0.017354	 -1.348563	 -1.313973	 -0.514185	 -0.587102	 -0.356817	 0.211493	 0.695172	 4
1462170672.058	 0	 -0.001229	 -0.007085	 -0.033586	 -1.348016	 -1.313743	 -0.513622	 -0.587002	 -0.356853	 0.211459	 0.695248	 4
1462170672.068	 0	 -0.004717	 -0.018939	 -0.044877	 -1.347843	 -1.313221	 -0.513309	 -0.586833	 -0.357022	 0.211361	 0.695334	 4
1462170672.077	 0	 -0.004629	 -0.020166	 -0.053591	 -1.347509	 -1.312627	 -0.512853	 -0.586638	 -0.357195	 0.211244	 0.695445	 4
1462170672.087	 0	 0.000115	 -0.016536	 -0.041152	 -1.346971	 -1.312052	 -0.512196	 -0.586433	 -0.357352	 0.211142	 0.695568	 4
1462170672.097	 0	 0.000031	 -0.024688	 -0.026327	 -1.346822	 -1.311706	 -0.511874	 -0.586304	 -0.357485	 0.211107	 0.695619	 4
1462170672.107	 0	 -0.002524	 -0.011705	 -0.018724	 -1.347058	 -1.311472	 -0.511981	 -0.586239	 -0.357598	 0.211069	 0.695628	 4
1462170672.116	 0	 0.017997	 -0.011511	 -0.002673	 -1.346675	 -1.311378	 -0.511464	 -0.586164	 -0.357640	 0.211108	 0.695657	 4
1462170672.126	 0	 0.011904	 -0.000966	 -0.006259	 -1.346020	 -1.311237	 -0.510784	 -0.586076	 -0.357649	 0.211110	 0.695726	 4
1462170672.135	 0	 0.023962	 0.009716	 -0.001239	 -1.345378	 -1.311137	 -0.510155	 -0.586006	 -0.357636	 0.211111	 0.695792	 4
1462170672.145	 0	 0.033675	 0.016812	 -0.003701	 -1.343642	 -1.310913	 -0.508551	 -0.585846	 -0.357561	 0.211094	 0.695970	 4
1462170672.155	 0	 0.003174	 0.030832	 0.002810	 -1.342588	 -1.310785	 -0.507773	 -0.585785	 -0.357455	 0.211017	 0.696098	 4
1462170672.164	 0	 0.015228	 0.029786	 0.015159	 -1.341562	 -1.310651	 -0.507020	 -0.585725	 -0.357354	 0.210939	 0.696225	 4
1462170672.174	 0	 0.006804	 0.023823	 0.008924	 -1.340549	 -1.310638	 -0.506254	 -0.585692	 -0.357229	 0.210905	 0.696327	 4
1462170672.183	 0	 0.001845	 0.033254	 0.015259	 -1.339943	 -1.310691	 -0.505976	 -0.585720	 -0.357085	 0.210840	 0.696397	 4
1462170672.193	 0	 -0.001705	 0.022612	 0.010193	 -1.339372	 -1.310721	 -0.505642	 -0.585728	 -0.356977	 0.210799	 0.696459	 4
1462170672.202	 0	 -0.005706	 0.029782	 0.010137	 -1.339363	 -1.310832	 -0.505922	 -0.585807	 -0.356862	 0.210731	 0.696471	 4
1462170672.212	 0	 -0.014086	 0.023790	 -0.001066	 -1.339070	 -1.310840	 -0.505946	 -0.585844	 -0.356751	 0.210640	 0.696525	 4
1462170672.222	 0	 0.004077	 0.022752	 0.007530	 -1.338219	 -1.310881	 -0.505332	 -0.585834	 -0.356624	 0.210616	 0.696605	 4
1462170672.231	 0	 -0.008036	 0.006243	 0.012390	 -1.337527	 -1.311079	 -0.504781	 -0.585860	 -0.356493	 0.210664	 0.696636	 4
1462170672.241	 0	 -0.016422	 0.003775	 -0.000019	 -1.337537	 -1.311125	 -0.504853	 -0.585883	 -0.356463	 0.210656	 0.696634	 4
1462170672.251	 0	 0.005629	 -0.007973	 -0.013921	 -1.337403	 -1.310956	 -0.504683	 -0.585824	 -0.356510	 0.210626	 0.696669	 4
1462170672.260	 0	 0.009253	 -0.003247	 -0.013891	 -1.337118	 -1.310750	 -0.504336	 -0.585740	 -0.356566	 0.210602	 0.696718	 4
1462170672.270	 0	 0.012920	 -0.000897	 -0.017612	 -1.336803	 -1.310525	 -0.504001	 -0.585656	 -0.356613	 0.210559	 0.696778	 4
1462170672.279	 0	 0.012772	 0.007417	 -0.005100	 -1.336651	 -1.310392	 -0.503882	 -0.585617	 -0.356630	 0.210517	 0.696815	 4
1462170672.289	 0	 0.003083	 0.005001	 -0.007562	 -1.336236	 -1.310335	 -0.503514	 -0.585580	 -0.356608	 0.210506	 0.696860	 4
1462170672.299	 0	 0.006654	 0.012112	 -0.002537	 -1.335759	 -1.310189	 -0.503156	 -0.585530	 -0.356584	 0.210448	 0.696932	 4
1462170672.308	 0	 0.007849	 0.007438	 0.002378	 -1.335416	 -1.310140	 -0.502904	 -0.585508	 -0.356551	 0.210421	 0.696975	 4
1462170672.318	 0	 -0.001918	 0.014462	 0.003742	 -1.335218	 -1.310178	 -0.502826	 -0.585525	 -0.356496	 0.210402	 0.696996	 4
1462170672.327	 0	 -0.006763	 0.015602	 0.001293	 -1.335275	 -1.310185	 -0.503032	 -0.585557	 -0.356453	 0.210348	 0.697006	 4
1462170672.337	 0	 -0.008031	 0.020327	 0.005075	 -1.335037	 -1.310130	 -0.503001	 -0.585563	 -0.356393	 0.210273	 0.697055	 4
1462170672.347	 0	 -0.016594	 0.012112	 0.016214	 -1.335021	 -1.310270	 -0.503103	 -0.585618	 -0.356322	 0.210274	 0.697044	 4
1462170672.356	 0	 -0.026769	 0.003851	 0.014731	 -1.335843	 -1.310377	 -0.504011	 -0.585721	 -0.356314	 0.210231	 0.696975	 4
1462170672.366	 0	 -0.023218	 0.001588	 0.027114	 -1.336324	 -1.310572	 -0.504539	 -0.585814	 -0.356276	 0.210245	 0.696912	 4
1462170672.375	 0	 -0.031690	 -0.010211	 0.029518	 -1.337357	 -1.310911	 -0.505512	 -0.585965	 -0.356263	 0.210310	 0.696772	 4
1462170672.385	 0	 -0.032908	 -0.003176	 0.025867	 -1.338604	 -1.311101	 -0.506722	 -0.586097	 -0.356293	 0.210311	 0.696645	 4
1462170672.395	 0	 -0.024369	 -0.005505	 0.023312	 -1.339716	 -1.311243	 -0.507803	 -0.586209	 -0.356327	 0.210302	 0.696537	 4
1462170672.404	 0	 -0.026784	 0.006204	 0.014744	 -1.341166	 -1.311199	 -0.509267	 -0.586306	 -0.356414	 0.210205	 0.696439	 4
1462170672.414	 0	 -0.024346	 0.017944	 0.007396	 -1.342092	 -1.311118	 -0.510339	 -0.586380	 -0.356443	 0.210078	 0.696401	 4
1462170672.424	 0	 -0.012162	 0.013284	 0.006040	 -1.343007	 -1.311058	 -0.511383	 -0.586455	 -0.356472	 0.209965	 0.696357	 4
1462170672.433	 0	 -0.003638	 0.007446	 0.007179	 -1.343068	 -1.311138	 -0.511543	 -0.586497	 -0.356425	 0.209951	 0.696350	 4
1462170672.443	 0	 0.004897	 0.003947	 0.005854	 -1.342992	 -1.311067	 -0.511506	 -0.586480	 -0.356428	 0.209920	 0.696372	 4
1462170672.452	 0	 -0.004752	 0.008544	 -0.005235	 -1.343139	 -1.310922	 -0.511722	 -0.586467	 -0.356454	 0.209845	 0.696392	 4
1462170672.462	 0	 -0.010837	 0.006175	 -0.002745	 -1.343442	 -1.310848	 -0.512097	 -0.586483	 -0.356469	 0.209781	 0.696390	 4
1462170672.472	 0	 -0.003501	 0.003834	 -0.006535	 -1.343099	 -1.310733	 -0.511830	 -0.586443	 -0.356458	 0.209739	 0.696443	 4
1462170672.481	 0	 -0.001051	 0.002661	 -0.007802	 -1.342723	 -1.310631	 -0.511498	 -0.586397	 -0.356451	 0.209714	 0.696492	 4
1462170672.491	 0	 0.002635	 -0.005562	 -0.007907	 -1.342773	 -1.310548	 -0.511518	 -0.586374	 -0.356484	 0.209697	 0.696499	 4
1462170672.500	 0	 -0.009430	 -0.023279	 -0.008033	 -1.342750	 -1.310366	 -0.511337	 -0.586299	 -0.356577	 0.209699	 0.696515	 4
1462170672.510	 0	 -0.011712	 -0.029257	 -0.021753	 -1.343003	 -1.310136	 -0.511341	 -0.586215	 -0.356724	 0.209703	 0.696509	 4
1462170672.520	 0	 0.001596	 -0.038537	 -0.009492	 -1.343207	 -1.309957	 -0.511203	 -0.586124	 -0.356882	 0.209757	 0.696488	 4
1462170672.529	 0	 -0.009366	 -0.042092	 -0.004506	 -1.343748	 -1.309855	 -0.511357	 -0.586069	 -0.357052	 0.209832	 0.696425	 4
1462170672.539	 0	 -0.013060	 -0.043250	 0.001713	 -1.344544	 -1.309895	 -0.511751	 -0.586066	 -0.357204	 0.209940	 0.696317	 4
1462170672.549	 0	 -0.008260	 -0.037319	 0.005476	 -1.345398	 -1.309825	 -0.512235	 -0.586045	 -0.357377	 0.210001	 0.696227	 4
1462170672.558	 0	 0.008725	 -0.029004	 0.004232	 -1.345702	 -1.309669	 -0.512229	 -0.585972	 -0.357526	 0.210045	 0.696199	 4
1462170672.568	 0	 -0.008377	 -0.006732	 0.002063	 -1.346391	 -1.309530	 -0.512810	 -0.585969	 -0.357632	 0.210003	 0.696160	 4
1462170672.578	 0	 -0.013290	 0.001492	 0.003412	 -1.347454	 -1.309414	 -0.513850	 -0.586014	 -0.357728	 0.209918	 0.696098	 4
1462170672.587	 0	 -0.007356	 0.013351	 0.013443	 -1.347729	 -1.309289	 -0.514218	 -0.586020	 -0.357748	 0.209833	 0.696109	 4
1462170672.597	 0	 -0.024379	 0.023836	 0.008665	 -1.348213	 -1.309290	 -0.514934	 -0.586097	 -0.357707	 0.209725	 0.696097	 4
1462170672.606	 0	 -0.018390	 0.033313	 0.013705	 -1.348530	 -1.309449	 -0.515564	 -0.586217	 -0.357591	 0.209647	 0.696080	 4
1462170672.616	 0	 -0.011116	 0.036879	 0.013703	 -1.348878	 -1.309502	 -0.516276	 -0.586321	 -0.357489	 0.209517	 0.696083	 4
1462170672.625	 0	 -0.012307	 0.021606	 0.019760	 -1.348376	 -1.309597	 -0.516044	 -0.586356	 -0.357357	 0.209479	 0.696133	 4
1462170672.635	 0	 -0.009774	 0.012164	 0.013435	 -1.347769	 -1.309611	 -0.515623	 -0.586348	 -0.357266	 0.209452	 0.696195	 4
1462170672.645	 0	 -0.026687	 -0.002066	 0.009644	 -1.347964	 -1.309768	 -0.515872	 -0.586411	 -0.357219	 0.209469	 0.696160	 4
1462170672.654	 0	 -0.030295	 -0.005630	 0.007140	 -1.348917	 -1.309907	 -0.516838	 -0.586519	 -0.357231	 0.209454	 0.696068	 4
1462170672.664	 0	 -0.015610	 -0.010320	 -0.001680	 -1.349028	 -1.309934	 -0.516861	 -0.586518	 -0.357256	 0.209487	 0.696046	 4
1462170672.673	 0	 -0.020413	 -0.015073	 -0.005434	 -1.348923	 -1.309865	 -0.516663	 -0.586476	 -0.357296	 0.209505	 0.696055	 4
1462170672.683	 0	 -0.004657	 -0.010274	 -0.002979	 -1.349075	 -1.309764	 -0.516682	 -0.586439	 -0.357370	 0.209512	 0.696047	 4
1462170672.693	 0	 -0.017892	 -0.015119	 -0.015390	 -1.349379	 -1.309500	 -0.516902	 -0.586379	 -0.357481	 0.209445	 0.696060	 4
1462170672.702	 0	 -0.007117	 -0.005568	 -0.001678	 -1.349746	 -1.309356	 -0.517224	 -0.586363	 -0.357552	 0.209398	 0.696052	 4
1462170672.712	 0	 -0.009558	 -0.005572	 -0.000424	 -1.350307	 -1.309357	 -0.517725	 -0.586394	 -0.357600	 0.209388	 0.696004	 4
1462170672.722	 0	 -0.009580	 -0.000863	 -0.000378	 -1.350445	 -1.309207	 -0.517854	 -0.586365	 -0.357649	 0.209338	 0.696018	 4
1462170672.731	 0	 0.000087	 0.010956	 -0.000305	 -1.350404	 -1.309076	 -0.517890	 -0.586343	 -0.357659	 0.209275	 0.696050	 4
1462170672.741	 0	 0.007216	 0.025184	 0.010988	 -1.349446	 -1.308955	 -0.517130	 -0.586277	 -0.357580	 0.209222	 0.696162	 4
1462170672.750	 0	 -0.011071	 0.028658	 0.016085	 -1.348821	 -1.309033	 -0.516791	 -0.586301	 -0.357442	 0.209181	 0.696226	 4
1462170672.760	 0	 -0.015881	 0.027429	 0.011125	 -1.348407	 -1.309109	 -0.516690	 -0.586345	 -0.357307	 0.209117	 0.696277	 4
1462170672.770	 0	 -0.017063	 0.020360	 0.011057	 -1.348602	 -1.309231	 -0.517118	 -0.586432	 -0.357217	 0.209061	 0.696266	 4
1462170672.779	 0	 -0.010890	 0.016807	 0.002291	 -1.347892	 -1.309177	 -0.516619	 -0.586404	 -0.357131	 0.209011	 0.696350	 4
1462170672.789	 0	 -0.021754	 0.013187	 -0.003906	 -1.347914	 -1.309116	 -0.516821	 -0.586422	 -0.357095	 0.208929	 0.696377	 4
1462170672.798	 0	 -0.020456	 -0.005635	 -0.002867	 -1.348008	 -1.309110	 -0.516934	 -0.586431	 -0.357096	 0.208915	 0.696373	 4
1462170672.808	 0	 -0.016875	 0.001468	 0.000917	 -1.348284	 -1.309146	 -0.517272	 -0.586472	 -0.357084	 0.208889	 0.696353	 4
1462170672.818	 0	 -0.004607	 -0.006766	 -0.007929	 -1.348701	 -1.309035	 -0.517660	 -0.586470	 -0.357144	 0.208843	 0.696338	 4
1462170672.827	 0	 -0.010715	 -0.006773	 -0.004174	 -1.349274	 -1.308869	 -0.518178	 -0.586460	 -0.357236	 0.208781	 0.696317	 4
1462170672.837	 0	 -0.014445	 0.006174	 -0.001535	 -1.349602	 -1.308880	 -0.518532	 -0.586492	 -0.357243	 0.208757	 0.696294	 4
1462170672.846	 0	 -0.015755	 0.016792	 0.003549	 -1.350274	 -1.308716	 -0.519354	 -0.586528	 -0.357279	 0.208619	 0.696286	 4
1462170672.856	 0	 -0.008610	 0.027488	 0.014805	 -1.350309	 -1.308681	 -0.519614	 -0.586562	 -0.357224	 0.208528	 0.696313	 4
1462170672.866	 0	 -0.007792	 0.013395	 0.019426	 -1.350507	 -1.308669	 -0.520000	 -0.586607	 -0.357183	 0.208448	 0.696320	 4
1462170672.875	 0	 -0.011492	 0.018109	 0.023219	 -1.350285	 -1.308810	 -0.519959	 -0.586658	 -0.357081	 0.208440	 0.696332	 4
1462170672.885	 0	 -0.001753	 0.016971	 0.021915	 -1.350157	 -1.308965	 -0.520005	 -0.586719	 -0.356982	 0.208433	 0.696334	 4
1462170672.895	 0	 -0.013859	 0.018053	 0.015774	 -1.350443	 -1.309151	 -0.520474	 -0.586819	 -0.356895	 0.208409	 0.696301	 4
1462170672.904	 0	 -0.010062	 0.015621	 -0.000423	 -1.350523	 -1.309139	 -0.520706	 -0.586849	 -0.356858	 0.208348	 0.696313	 4
1462170672.914	 0	 0.002240	 -0.002024	 -0.008125	 -1.350746	 -1.309112	 -0.520970	 -0.586866	 -0.356866	 0.208314	 0.696305	 4
1462170672.923	 0	 -0.024326	 -0.019870	 -0.018118	 -1.351918	 -1.309032	 -0.522030	 -0.586913	 -0.356983	 0.208265	 0.696219	 4
1462170672.933	 0	 -0.013333	 -0.024548	 -0.021950	 -1.352715	 -1.308769	 -0.522648	 -0.586875	 -0.357149	 0.208204	 0.696185	 4
1462170672.943	 0	 -0.005972	 -0.021040	 -0.031890	 -1.353327	 -1.308522	 -0.523039	 -0.586820	 -0.357312	 0.208173	 0.696157	 4
1462170672.952	 0	 -0.018331	 -0.011570	 -0.013092	 -1.354278	 -1.308376	 -0.523860	 -0.586831	 -0.357441	 0.208122	 0.696097	 4
1462170672.962	 0	 -0.014651	 -0.003363	 -0.021723	 -1.355241	 -1.308173	 -0.524796	 -0.586847	 -0.357555	 0.208018	 0.696055	 4
1462170672.972	 0	 -0.018317	 -0.005713	 -0.018002	 -1.355966	 -1.307976	 -0.525494	 -0.586848	 -0.357655	 0.207928	 0.696031	 4
1462170672.981	 0	 -0.009970	 0.012038	 -0.009160	 -1.356299	 -1.307878	 -0.525906	 -0.586862	 -0.357676	 0.207853	 0.696030	 4
1462170672.991	 0	 -0.014794	 0.017857	 -0.016531	 -1.356487	 -1.307698	 -0.526290	 -0.586867	 -0.357676	 0.207720	 0.696066	 4
1462170673.000	 0	 -0.011096	 0.020184	 -0.023981	 -1.357098	 -1.307484	 -0.527095	 -0.586894	 -0.357709	 0.207555	 0.696075	 4
1462170673.010	 0	 -0.005200	 0.035592	 -0.011423	 -1.356762	 -1.307406	 -0.527089	 -0.586908	 -0.357615	 0.207435	 0.696147	 4
1462170673.020	 0	 0.005666	 0.033349	 -0.001558	 -1.355777	 -1.307538	 -0.526478	 -0.586934	 -0.357416	 0.207398	 0.696238	 4
1462170673.029	 0	 -0.000470	 0.023975	 0.010801	 -1.354943	 -1.307656	 -0.525904	 -0.586947	 -0.357263	 0.207389	 0.696309	 4
1462170673.039	 0	 -0.004067	 0.005152	 0.015594	 -1.354289	 -1.307903	 -0.525322	 -0.586973	 -0.357141	 0.207474	 0.696324	 4
1462170673.049	 0	 0.004448	 -0.003027	 0.019193	 -1.353950	 -1.308108	 -0.524959	 -0.586994	 -0.357075	 0.207563	 0.696314	 4
1462170673.058	 0	 0.008149	 -0.005392	 0.014182	 -1.353281	 -1.308389	 -0.524229	 -0.587004	 -0.356982	 0.207705	 0.696311	 4
1462170673.068	 0	 0.015578	 -0.016012	 0.004096	 -1.352591	 -1.308582	 -0.523418	 -0.586979	 -0.356929	 0.207843	 0.696318	 4
1462170673.077	 0	 0.021717	 -0.013680	 -0.004606	 -1.352181	 -1.308626	 -0.522822	 -0.586926	 -0.356950	 0.207944	 0.696322	 4
1462170673.087	 0	 -0.002622	 -0.009079	 -0.003193	 -1.352098	 -1.308590	 -0.522655	 -0.586896	 -0.356979	 0.207967	 0.696325	 4
1462170673.096	 0	 0.009493	 -0.005474	 -0.000731	 -1.351960	 -1.308575	 -0.522422	 -0.586865	 -0.357003	 0.208003	 0.696328	 4
1462170673.106	 0	 -0.005155	 0.012100	 -0.002958	 -1.352157	 -1.308556	 -0.522664	 -0.586883	 -0.357006	 0.207971	 0.696321	 4
1462170673.116	 0	 -0.002803	 0.021552	 0.000856	 -1.352386	 -1.308499	 -0.523063	 -0.586916	 -0.356984	 0.207882	 0.696331	 4
1462170673.125	 0	 -0.005392	 0.029861	 0.014623	 -1.352313	 -1.308586	 -0.523270	 -0.586982	 -0.356875	 0.207814	 0.696352	 4
1462170673.135	 0	 -0.009093	 0.034575	 0.018419	 -1.352300	 -1.308844	 -0.523567	 -0.587101	 -0.356715	 0.207785	 0.696342	 4
1462170673.144	 0	 -0.027326	 0.028623	 0.022177	 -1.352566	 -1.309156	 -0.524147	 -0.587254	 -0.356555	 0.207755	 0.696303	 4
1462170673.154	 0	 -0.015035	 0.013333	 0.014502	 -1.352725	 -1.309481	 -0.524493	 -0.587381	 -0.356423	 0.207780	 0.696257	 4
1462170673.164	 0	 -0.012529	 0.010946	 0.007010	 -1.352970	 -1.309589	 -0.524855	 -0.587447	 -0.356373	 0.207758	 0.696234	 4
1462170673.173	 0	 -0.008736	 -0.012603	 0.003019	 -1.352877	 -1.309793	 -0.524717	 -0.587483	 -0.356327	 0.207840	 0.696202	 4
1462170673.183	 0	 -0.011154	 -0.017316	 0.004227	 -1.353126	 -1.310017	 -0.524838	 -0.587534	 -0.356319	 0.207939	 0.696133	 4
1462170673.193	 0	 -0.002584	 -0.027878	 0.002830	 -1.353377	 -1.310010	 -0.524837	 -0.587506	 -0.356409	 0.208011	 0.696090	 4
1462170673.202	 0	 0.014462	 -0.025472	 -0.002201	 -1.353110	 -1.309918	 -0.524282	 -0.587412	 -0.356503	 0.208098	 0.696095	 4
1462170673.212	 0	 -0.000138	 -0.022010	 -0.002092	 -1.353316	 -1.309905	 -0.524299	 -0.587390	 -0.356573	 0.208148	 0.696062	 4
1462170673.221	 0	 -0.006347	 -0.012562	 0.007978	 -1.353657	 -1.309915	 -0.524470	 -0.587388	 -0.356639	 0.208192	 0.696018	 4
1462170673.231	 0	 0.002047	 -0.008924	 0.019155	 -1.353610	 -1.309998	 -0.524333	 -0.587389	 -0.356641	 0.208251	 0.695998	 4
1462170673.241	 0	 0.004401	 -0.004167	 0.025406	 -1.353401	 -1.310213	 -0.524068	 -0.587417	 -0.356589	 0.208346	 0.695972	 4
1462170673.250	 0	 -0.004111	 -0.007725	 0.027894	 -1.353706	 -1.310345	 -0.524317	 -0.587462	 -0.356588	 0.208389	 0.695922	 4
1462170673.260	 0	 0.005560	 -0.004125	 0.031610	 -1.354230	 -1.310574	 -0.524751	 -0.587542	 -0.356582	 0.208461	 0.695836	 4
1462170673.270	 0	 -0.004217	 -0.001788	 0.036653	 -1.354146	 -1.310946	 -0.524640	 -0.587624	 -0.356486	 0.208587	 0.695778	 4
1462170673.279	 0	 -0.009160	 0.014670	 0.036847	 -1.355010	 -1.311138	 -0.525591	 -0.587751	 -0.356457	 0.208568	 0.695691	 4
1462170673.289	 0	 -0.012748	 0.011091	 0.031855	 -1.355738	 -1.311342	 -0.526399	 -0.587870	 -0.356419	 0.208562	 0.695612	 4
1462170673.298	 0	 -0.018213	 0.011019	 0.024288	 -1.356312	 -1.311560	 -0.527083	 -0.587986	 -0.356359	 0.208559	 0.695546	 4
1462170673.308	 0	 -0.019424	 0.014530	 0.021844	 -1.356823	 -1.311681	 -0.527768	 -0.588085	 -0.356304	 0.208508	 0.695506	 4
1462170673.317	 0	 -0.013299	 -0.001900	 0.025366	 -1.356829	 -1.311693	 -0.527805	 -0.588094	 -0.356292	 0.208500	 0.695507	 4
1462170673.327	 0	 -0.018014	 -0.007890	 0.011660	 -1.357412	 -1.311856	 -0.528336	 -0.588168	 -0.356295	 0.208536	 0.695431	 4
1462170673.337	 0	 -0.024081	 -0.003232	 0.008009	 -1.358109	 -1.311824	 -0.529021	 -0.588209	 -0.356344	 0.208493	 0.695384	 4
1462170673.346	 0	 -0.022824	 0.001439	 0.000595	 -1.358990	 -1.311665	 -0.529904	 -0.588235	 -0.356433	 0.208397	 0.695345	 4
1462170673.356	 0	 -0.017850	 -0.015042	 -0.003332	 -1.359573	 -1.311569	 -0.530397	 -0.588239	 -0.356517	 0.208369	 0.695308	 4
1462170673.366	 0	 -0.015347	 -0.020946	 -0.008379	 -1.360471	 -1.311333	 -0.531157	 -0.588223	 -0.356668	 0.208297	 0.695266	 4
1462170673.375	 0	 -0.025097	 -0.022148	 -0.004617	 -1.361862	 -1.311156	 -0.532381	 -0.588252	 -0.356839	 0.208227	 0.695174	 4
1462170673.385	 0	 -0.007976	 -0.019793	 -0.018346	 -1.362548	 -1.311039	 -0.532876	 -0.588240	 -0.356962	 0.208221	 0.695122	 4
1462170673.395	 0	 -0.003181	 -0.012684	 -0.014570	 -1.363275	 -1.310749	 -0.533492	 -0.588203	 -0.357111	 0.208133	 0.695104	 4
1462170673.404	 0	 0.002932	 -0.013855	 -0.018342	 -1.363989	 -1.310444	 -0.534027	 -0.588149	 -0.357283	 0.208064	 0.695081	 4
1462170673.414	 0	 -0.012882	 -0.017440	 -0.014574	 -1.364557	 -1.310192	 -0.534437	 -0.588102	 -0.357427	 0.208013	 0.695063	 4
1462170673.423	 0	 0.017408	 -0.011365	 -0.007209	 -1.364453	 -1.309946	 -0.534169	 -0.588004	 -0.357536	 0.208001	 0.695094	 4
1462170673.433	 0	 0.002708	 0.001552	 -0.000789	 -1.364402	 -1.309840	 -0.534078	 -0.587967	 -0.357573	 0.207985	 0.695111	 4
1462170673.443	 0	 -0.002134	 0.008556	 -0.006904	 -1.364179	 -1.309806	 -0.533933	 -0.587956	 -0.357547	 0.207960	 0.695141	 4
1462170673.452	 0	 -0.003044	 0.008525	 -0.008212	 -1.364171	 -1.309662	 -0.533983	 -0.587930	 -0.357568	 0.207896	 0.695171	 4
1462170673.462	 0	 -0.009167	 0.005009	 -0.000763	 -1.364401	 -1.309633	 -0.534314	 -0.587958	 -0.357558	 0.207840	 0.695169	 4
1462170673.471	 0	 -0.012738	 0.004940	 -0.009444	 -1.364614	 -1.309513	 -0.534575	 -0.587953	 -0.357587	 0.207776	 0.695177	 4
1462170673.481	 0	 -0.007897	 0.002630	 -0.005766	 -1.364815	 -1.309418	 -0.534798	 -0.587949	 -0.357617	 0.207728	 0.695180	 4
1462170673.491	 0	 0.004272	 0.003851	 -0.008299	 -1.364870	 -1.309342	 -0.534904	 -0.587943	 -0.357625	 0.207684	 0.695194	 4
1462170673.500	 0	 0.003032	 -0.002004	 -0.002141	 -1.364551	 -1.309366	 -0.534610	 -0.587930	 -0.357594	 0.207700	 0.695216	 4
1462170673.510	 0	 -0.004223	 -0.016144	 0.001476	 -1.364285	 -1.309426	 -0.534208	 -0.587900	 -0.357604	 0.207780	 0.695212	 4
1462170673.519	 0	 0.005526	 -0.012595	 -0.003505	 -1.364423	 -1.309470	 -0.534209	 -0.587897	 -0.357640	 0.207833	 0.695181	 4
1462170673.529	 0	 0.006760	 -0.005562	 -0.009649	 -1.364035	 -1.309472	 -0.533720	 -0.587850	 -0.357648	 0.207890	 0.695199	 4
1462170673.539	 0	 0.009176	 -0.006713	 -0.007188	 -1.363646	 -1.309456	 -0.533272	 -0.587807	 -0.357649	 0.207926	 0.695224	 4
1462170673.548	 0	 0.011634	 -0.007893	 -0.009697	 -1.363292	 -1.309325	 -0.532844	 -0.587735	 -0.357687	 0.207931	 0.695264	 4
1462170673.558	 0	 0.005589	 -0.007944	 -0.013394	 -1.363213	 -1.309263	 -0.532650	 -0.587693	 -0.357733	 0.207957	 0.695268	 4
1462170673.567	 0	 0.003199	 -0.016197	 -0.013469	 -1.363191	 -1.309156	 -0.532468	 -0.587636	 -0.357807	 0.207981	 0.695271	 4
1462170673.577	 0	 0.009226	 -0.010266	 -0.010951	 -1.363009	 -1.309095	 -0.532137	 -0.587581	 -0.357857	 0.208024	 0.695279	 4
1462170673.587	 0	 -0.001705	 -0.018538	 -0.007255	 -1.363408	 -1.309034	 -0.532400	 -0.587572	 -0.357935	 0.208032	 0.695245	 4
1462170673.596	 0	 0.012908	 -0.024354	 -0.007389	 -1.362875	 -1.308923	 -0.531673	 -0.587469	 -0.357993	 0.208094	 0.695283	 4
1462170673.606	 0	 0.001893	 -0.012619	 -0.004725	 -1.362939	 -1.308910	 -0.531584	 -0.587444	 -0.358045	 0.208140	 0.695264	 4
1462170673.616	 0	 0.005608	 -0.013823	 -0.012211	 -1.362736	 -1.308818	 -0.531280	 -0.587387	 -0.358088	 0.208158	 0.695284	 4
1462170673.625	 0	 0.015227	 -0.005491	 -0.004717	 -1.362268	 -1.308734	 -0.530724	 -0.587316	 -0.358111	 0.208189	 0.695323	 4
1462170673.635	 0	 0.015087	 0.001646	 0.007783	 -1.361655	 -1.308689	 -0.530117	 -0.587260	 -0.358088	 0.208206	 0.695377	 4
1462170673.644	 0	 0.016317	 0.007508	 0.002868	 -1.360745	 -1.308657	 -0.529255	 -0.587192	 -0.358033	 0.208229	 0.695455	 4
1462170673.654	 0	 0.006537	 0.006329	 0.010359	 -1.360476	 -1.308694	 -0.529049	 -0.587193	 -0.357990	 0.208232	 0.695476	 4
1462170673.664	 0	 0.002752	 0.008754	 0.025313	 -1.359740	 -1.308838	 -0.528366	 -0.587183	 -0.357897	 0.208298	 0.695513	 4
1462170673.673	 0	 -0.004538	 0.006372	 0.026568	 -1.359250	 -1.309139	 -0.527945	 -0.587233	 -0.357770	 0.208391	 0.695508	 4
1462170673.683	 0	 0.000462	 -0.008952	 0.018928	 -1.358795	 -1.309331	 -0.527455	 -0.587241	 -0.357705	 0.208486	 0.695507	 4
1462170673.692	 0	 -0.005474	 -0.013771	 0.005239	 -1.359023	 -1.309401	 -0.527560	 -0.587253	 -0.357735	 0.208538	 0.695465	 4
1462170673.702	 0	 0.010344	 -0.009016	 0.000239	 -1.358965	 -1.309375	 -0.527375	 -0.587220	 -0.357775	 0.208577	 0.695461	 4
1462170673.712	 0	 0.004332	 -0.006742	 -0.008406	 -1.358906	 -1.309169	 -0.527233	 -0.587149	 -0.357851	 0.208547	 0.695490	 4
1462170673.721	 0	 0.000589	 -0.001999	 0.000359	 -1.358855	 -1.309084	 -0.527140	 -0.587117	 -0.357883	 0.208538	 0.695504	 4
1462170673.731	 0	 -0.001901	 0.001551	 0.005378	 -1.358797	 -1.309017	 -0.527125	 -0.587103	 -0.357886	 0.208507	 0.695523	 4
1462170673.740	 0	 -0.000615	 -0.002012	 -0.000879	 -1.358740	 -1.308964	 -0.527072	 -0.587087	 -0.357895	 0.208492	 0.695537	 4
1462170673.750	 0	 -0.006739	 -0.000834	 0.004133	 -1.358932	 -1.308925	 -0.527261	 -0.587091	 -0.357917	 0.208471	 0.695528	 4
1462170673.760	 0	 0.001802	 -0.012552	 0.006452	 -1.359117	 -1.308913	 -0.527352	 -0.587085	 -0.357958	 0.208490	 0.695507	 4
1462170673.769	 0	 0.005441	 -0.006663	 0.004010	 -1.358989	 -1.308903	 -0.527128	 -0.587056	 -0.357981	 0.208527	 0.695508	 4
1462170673.779	 0	 0.015242	 -0.018404	 0.001352	 -1.358559	 -1.308804	 -0.526528	 -0.586968	 -0.358035	 0.208580	 0.695539	 4
1462170673.789	 0	 0.003100	 -0.018469	 0.000168	 -1.358265	 -1.308668	 -0.526039	 -0.586878	 -0.358112	 0.208622	 0.695562	 4
1462170673.798	 0	 0.003056	 -0.013746	 0.002701	 -1.358441	 -1.308519	 -0.526095	 -0.586832	 -0.358196	 0.208610	 0.695561	 4
1462170673.808	 0	 0.000565	 -0.007849	 0.006500	 -1.358596	 -1.308309	 -0.526152	 -0.586774	 -0.358289	 0.208572	 0.695574	 4
1462170673.817	 0	 0.009044	 -0.001922	 0.006517	 -1.358523	 -1.308151	 -0.526051	 -0.586725	 -0.358335	 0.208538	 0.695602	 4
1462170673.827	 0	 0.002856	 0.014552	 0.010445	 -1.358480	 -1.307996	 -0.526107	 -0.586701	 -0.358344	 0.208459	 0.695641	 4
1462170673.837	 0	 -0.015440	 0.021551	 0.014338	 -1.358581	 -1.308142	 -0.526410	 -0.586781	 -0.358252	 0.208427	 0.695631	 4
1462170673.846	 0	 0.000405	 0.025113	 0.006838	 -1.358984	 -1.308010	 -0.527048	 -0.586820	 -0.358240	 0.208283	 0.695647	 4
1462170673.856	 0	 0.000464	 0.019205	 0.003048	 -1.359289	 -1.308068	 -0.527526	 -0.586888	 -0.358190	 0.208224	 0.695632	 4
1462170673.866	 0	 0.005379	 0.021539	 -0.004407	 -1.358736	 -1.308054	 -0.527165	 -0.586878	 -0.358107	 0.208183	 0.695696	 4
1462170673.875	 0	 0.000976	 0.007342	 -0.008347	 -1.358214	 -1.307941	 -0.526779	 -0.586835	 -0.358069	 0.208130	 0.695768	 4
1462170673.885	 0	 -0.006104	 -0.003397	 -0.027061	 -1.358510	 -1.307711	 -0.527087	 -0.586802	 -0.358143	 0.208040	 0.695784	 4
1462170673.894	 0	 -0.003709	 -0.006881	 -0.020898	 -1.358088	 -1.307412	 -0.526631	 -0.586690	 -0.358209	 0.207985	 0.695861	 4
1462170673.904	 0	 -0.008683	 0.001389	 -0.012089	 -1.357874	 -1.307183	 -0.526441	 -0.586621	 -0.358251	 0.207919	 0.695918	 4
1462170673.914	 0	 -0.017149	 -0.006892	 -0.012135	 -1.358201	 -1.306978	 -0.526764	 -0.586594	 -0.358324	 0.207841	 0.695926	 4
1462170673.923	 0	 -0.001420	 -0.000901	 -0.007181	 -1.357882	 -1.306907	 -0.526446	 -0.586553	 -0.358325	 0.207836	 0.695962	 4
1462170673.933	 0	 -0.001396	 -0.007957	 -0.006012	 -1.358033	 -1.306889	 -0.526555	 -0.586552	 -0.358350	 0.207837	 0.695949	 4
1462170673.942	 0	 0.007131	 -0.003237	 -0.010975	 -1.357715	 -1.306761	 -0.526175	 -0.586486	 -0.358385	 0.207837	 0.695987	 4
1462170673.952	 0	 0.013102	 -0.003134	 0.001421	 -1.356736	 -1.306723	 -0.525166	 -0.586397	 -0.358351	 0.207890	 0.696064	 4
1462170673.962	 0	 0.017939	 0.006293	 -0.000990	 -1.356162	 -1.306667	 -0.524580	 -0.586338	 -0.358337	 0.207909	 0.696115	 4
1462170673.971	 0	 0.017864	 0.008691	 0.006491	 -1.355135	 -1.306656	 -0.523624	 -0.586271	 -0.358263	 0.207937	 0.696202	 4
1462170673.981	 0	 0.026286	 0.011138	 0.015171	 -1.353829	 -1.306624	 -0.522400	 -0.586179	 -0.358176	 0.207971	 0.696313	 4
1462170673.990	 0	 0.020141	 0.022888	 0.016567	 -1.353025	 -1.306674	 -0.521774	 -0.586163	 -0.358066	 0.207968	 0.696384	 4
1462170674.000	 0	 0.015317	 0.024013	 0.011633	 -1.351976	 -1.306770	 -0.520947	 -0.586148	 -0.357918	 0.207978	 0.696470	 4
1462170674.010	 0	 0.008075	 0.015730	 0.010341	 -1.351426	 -1.306961	 -0.520541	 -0.586181	 -0.357795	 0.208015	 0.696495	 4
1462170674.019	 0	 0.011818	 0.010987	 0.001576	 -1.351100	 -1.307030	 -0.520317	 -0.586191	 -0.357729	 0.208019	 0.696518	 4
1462170674.029	 0	 0.010681	 0.001541	 -0.002244	 -1.350667	 -1.307085	 -0.519914	 -0.586178	 -0.357682	 0.208049	 0.696545	 4
1462170674.038	 0	 0.013236	 -0.006747	 -0.012284	 -1.350191	 -1.306935	 -0.519406	 -0.586099	 -0.357704	 0.208041	 0.696602	 4
1462170674.048	 0	 0.002299	 -0.009146	 -0.011012	 -1.350612	 -1.306893	 -0.519727	 -0.586102	 -0.357768	 0.208040	 0.696567	 4
1462170674.058	 0	 -0.007444	 -0.013873	 -0.006042	 -1.351105	 -1.306875	 -0.520105	 -0.586114	 -0.357833	 0.208047	 0.696521	 4
1462170674.067	 0	 0.009520	 -0.007891	 -0.003581	 -1.351389	 -1.306757	 -0.520287	 -0.586088	 -0.357910	 0.208031	 0.696509	 4
1462170674.077	 0	 0.007100	 0.004996	 -0.012131	 -1.351715	 -1.306605	 -0.520605	 -0.586073	 -0.357970	 0.207971	 0.696509	 4
1462170674.086	 0	 -0.001562	 0.019141	 -0.002001	 -1.352125	 -1.306534	 -0.521142	 -0.586109	 -0.357974	 0.207882	 0.696503	 4
1462170674.096	 0	 -0.005198	 0.019116	 -0.003225	 -1.352367	 -1.306546	 -0.521574	 -0.586164	 -0.357929	 0.207807	 0.696502	 4
1462170674.106	 0	 -0.012467	 0.014372	 -0.003239	 -1.352452	 -1.306535	 -0.521820	 -0.586196	 -0.357890	 0.207742	 0.696515	 4
1462170674.115	 0	 0.005721	 0.009794	 0.004077	 -1.352144	 -1.306562	 -0.521604	 -0.586196	 -0.357838	 0.207736	 0.696543	 4
1462170674.125	 0	 -0.004084	 0.015670	 0.010401	 -1.352361	 -1.306653	 -0.521959	 -0.586260	 -0.357786	 0.207703	 0.696526	 4
1462170674.135	 0	 -0.005198	 -0.000832	 0.007748	 -1.352281	 -1.306705	 -0.521929	 -0.586276	 -0.357753	 0.207705	 0.696528	 4
1462170674.144	 0	 -0.013757	 -0.003183	 0.015221	 -1.352652	 -1.306859	 -0.522266	 -0.586336	 -0.357743	 0.207743	 0.696472	 4
1462170674.154	 0	 -0.006397	 0.002672	 0.004063	 -1.352980	 -1.306863	 -0.522599	 -0.586363	 -0.357758	 0.207725	 0.696447	 4
1462170674.163	 0	 -0.007667	 0.005050	 0.009064	 -1.353106	 -1.306986	 -0.522762	 -0.586409	 -0.357722	 0.207742	 0.696421	 4
1462170674.173	 0	 -0.018574	 0.007323	 0.004172	 -1.353793	 -1.306959	 -0.523530	 -0.586469	 -0.357743	 0.207668	 0.696382	 4
1462170674.183	 0	 -0.015060	 0.016817	 0.014193	 -1.354637	 -1.307073	 -0.524509	 -0.586585	 -0.357720	 0.207609	 0.696314	 4
1462170674.192	 0	 -0.017519	 0.017997	 0.016701	 -1.355301	 -1.307112	 -0.525354	 -0.586677	 -0.357693	 0.207521	 0.696277	 4
1462170674.202	 0	 -0.017580	 0.026252	 0.019271	 -1.355855	 -1.307142	 -0.526134	 -0.586766	 -0.357649	 0.207421	 0.696254	 4
1462170674.212	 0	 -0.011472	 0.028606	 0.014294	 -1.356037	 -1.307201	 -0.526590	 -0.586843	 -0.357563	 0.207334	 0.696259	 4
1462170674.221	 0	 -0.021226	 0.026234	 0.019288	 -1.356382	 -1.307427	 -0.527225	 -0.586977	 -0.357437	 0.207282	 0.696226	 4
1462170674.231	 0	 -0.013885	 0.027410	 0.013049	 -1.356188	 -1.307444	 -0.527346	 -0.587023	 -0.357330	 0.207188	 0.696270	 4
1462170674.240	 0	 -0.006428	 0.013252	 0.001679	 -1.355823	 -1.307314	 -0.527190	 -0.587001	 -0.357283	 0.207096	 0.696341	 4
1462170674.250	 0	 -0.010040	 0.013213	 -0.002032	 -1.355715	 -1.307176	 -0.527231	 -0.586985	 -0.357270	 0.207009	 0.696387	 4
1462170674.260	 0	 -0.020856	 0.001344	 -0.009559	 -1.356331	 -1.306980	 -0.527943	 -0.587000	 -0.357327	 0.206882	 0.696382	 4
1462170674.269	 0	 -0.007491	 -0.002109	 -0.007178	 -1.356484	 -1.306842	 -0.528104	 -0.586978	 -0.357370	 0.206829	 0.696394	 4
1462170674.279	 0	 -0.001372	 -0.002109	 -0.012179	 -1.356745	 -1.306735	 -0.528336	 -0.586966	 -0.357421	 0.206793	 0.696389	 4
1462170674.288	 0	 0.002254	 -0.002077	 -0.009712	 -1.356508	 -1.306578	 -0.528087	 -0.586907	 -0.357452	 0.206762	 0.696432	 4
1462170674.298	 0	 -0.003877	 0.000278	 -0.004688	 -1.356397	 -1.306396	 -0.527972	 -0.586853	 -0.357496	 0.206715	 0.696469	 4
1462170674.308	 0	 -0.001464	 -0.006737	 0.001437	 -1.356328	 -1.306177	 -0.527843	 -0.586783	 -0.357568	 0.206673	 0.696504	 4
1462170674.317	 0	 0.018063	 -0.012567	 -0.004936	 -1.355828	 -1.305929	 -0.527229	 -0.586663	 -0.357639	 0.206665	 0.696571	 4
1462170674.327	 0	 0.016857	 -0.005539	 -0.009827	 -1.355471	 -1.305795	 -0.526798	 -0.586589	 -0.357677	 0.206671	 0.696612	 4
1462170674.337	 0	 0.009487	 0.006214	 -0.007184	 -1.355006	 -1.305461	 -0.526337	 -0.586471	 -0.357738	 0.206594	 0.696702	 4
1462170674.346	 0	 0.011791	 0.021566	 -0.000824	 -1.354406	 -1.305243	 -0.525899	 -0.586401	 -0.357715	 0.206505	 0.696800	 4
1462170674.356	 0	 0.021541	 0.020420	 -0.003371	 -1.353692	 -1.305083	 -0.525379	 -0.586341	 -0.357661	 0.206429	 0.696900	 4
1462170674.365	 0	 -0.000285	 0.016763	 -0.007028	 -1.353133	 -1.304928	 -0.525026	 -0.586297	 -0.357611	 0.206340	 0.696989	 4
1462170674.375	 0	 -0.002651	 0.014360	 -0.013255	 -1.353516	 -1.304742	 -0.525559	 -0.586307	 -0.357637	 0.206211	 0.697006	 4
1462170674.384	 0	 0.024146	 0.008579	 -0.017178	 -1.352968	 -1.304526	 -0.525064	 -0.586221	 -0.357648	 0.206158	 0.697088	 4
1462170674.394	 0	 0.019319	 0.003839	 -0.018446	 -1.352190	 -1.304288	 -0.524330	 -0.586110	 -0.357655	 0.206114	 0.697191	 4
1462170674.404	 0	 0.001061	 -0.007962	 -0.008537	 -1.352014	 -1.304238	 -0.524094	 -0.586073	 -0.357676	 0.206130	 0.697206	 4
1462170674.413	 0	 0.010787	 -0.004398	 -0.011033	 -1.351787	 -1.304196	 -0.523823	 -0.586038	 -0.357687	 0.206145	 0.697226	 4
1462170674.423	 0	 0.013337	 -0.029109	 -0.011305	 -1.352021	 -1.304047	 -0.523813	 -0.585975	 -0.357811	 0.206172	 0.697207	 4
1462170674.433	 0	 0.014551	 -0.011503	 -0.021066	 -1.352081	 -1.303824	 -0.523690	 -0.585891	 -0.357927	 0.206165	 0.697220	 4
1462170674.442	 0	 0.027952	 -0.011461	 -0.024861	 -1.351769	 -1.303558	 -0.523212	 -0.585771	 -0.358029	 0.206160	 0.697271	 4
1462170674.452	 0	 0.021770	 -0.000859	 -0.018506	 -1.351503	 -1.303302	 -0.522856	 -0.585670	 -0.358107	 0.206129	 0.697324	 4
1462170674.462	 0	 0.008422	 -0.003285	 -0.019708	 -1.351758	 -1.303109	 -0.523083	 -0.585636	 -0.358181	 0.206067	 0.697333	 4
1462170674.471	 0	 0.001058	 0.004943	 -0.015857	 -1.352238	 -1.302931	 -0.523581	 -0.585631	 -0.358249	 0.205980	 0.697328	 4
1462170674.481	 0	 0.002194	 0.014388	 -0.012037	 -1.353119	 -1.302801	 -0.524579	 -0.585687	 -0.358298	 0.205851	 0.697294	 4
1462170674.490	 0	 -0.003845	 0.008465	 -0.013312	 -1.353486	 -1.302693	 -0.525020	 -0.585701	 -0.358325	 0.205772	 0.697291	 4
1462170674.500	 0	 -0.001414	 0.008477	 -0.013324	 -1.353536	 -1.302558	 -0.525162	 -0.585688	 -0.358337	 0.205696	 0.697319	 4
1462170674.509	 0	 0.001026	 0.010828	 -0.015795	 -1.353549	 -1.302515	 -0.525282	 -0.585697	 -0.358318	 0.205645	 0.697336	 4
1462170674.519	 0	 -0.001437	 0.010839	 -0.012055	 -1.353697	 -1.302474	 -0.525543	 -0.585718	 -0.358304	 0.205585	 0.697343	 4
1462170674.529	 0	 0.002274	 0.003770	 -0.015874	 -1.353926	 -1.302462	 -0.525815	 -0.585741	 -0.358307	 0.205554	 0.697332	 4
1462170674.538	 0	 -0.007483	 0.008440	 -0.014532	 -1.354414	 -1.302466	 -0.526397	 -0.585796	 -0.358306	 0.205495	 0.697304	 4
1462170674.548	 0	 0.005964	 -0.007978	 -0.014770	 -1.354718	 -1.302472	 -0.526656	 -0.585812	 -0.358334	 0.205495	 0.697275	 4
1462170674.557	 0	 -0.007375	 -0.016276	 -0.013547	 -1.355170	 -1.302341	 -0.527015	 -0.585798	 -0.358421	 0.205463	 0.697252	 4
1462170674.567	 0	 -0.004901	 -0.018640	 -0.017310	 -1.355510	 -1.302365	 -0.527176	 -0.585797	 -0.358486	 0.205514	 0.697204	 4
1462170674.577	 0	 0.003438	 -0.012618	 -0.001135	 -1.355838	 -1.302502	 -0.527357	 -0.585830	 -0.358511	 0.205588	 0.697141	 4
1462170674.587	 0	 -0.007533	 -0.010301	 0.001431	 -1.355947	 -1.302606	 -0.527381	 -0.585849	 -0.358515	 0.205643	 0.697107	 4
1462170674.596	 0	 0.003372	 0.002678	 -0.002215	 -1.356745	 -1.302689	 -0.528131	 -0.585923	 -0.358551	 0.205641	 0.697028	 4
1462170674.606	 0	 -0.007597	 0.002648	 0.001567	 -1.356915	 -1.302697	 -0.528316	 -0.585940	 -0.358554	 0.205629	 0.697015	 4
1462170674.615	 0	 -0.011223	 0.004963	 -0.002117	 -1.357604	 -1.302779	 -0.529052	 -0.586022	 -0.358557	 0.205599	 0.696954	 4
1462170674.625	 0	 -0.011245	 0.004978	 0.000369	 -1.357945	 -1.302888	 -0.529471	 -0.586089	 -0.358524	 0.205585	 0.696918	 4
1462170674.634	 0	 -0.017430	 0.012064	 0.009172	 -1.358309	 -1.303056	 -0.529944	 -0.586178	 -0.358468	 0.205579	 0.696874	 4
1462170674.644	 0	 -0.018628	 0.008526	 0.009142	 -1.358536	 -1.303228	 -0.530302	 -0.586262	 -0.358397	 0.205572	 0.696842	 4
1462170674.654	 0	 -0.035650	 0.014317	 0.006805	 -1.359446	 -1.303476	 -0.531373	 -0.586422	 -0.358334	 0.205541	 0.696749	 4
1462170674.663	 0	 -0.028429	 0.020267	 0.011800	 -1.360220	 -1.303655	 -0.532377	 -0.586566	 -0.358262	 0.205472	 0.696685	 4
1462170674.673	 0	 -0.016287	 0.007426	 0.020305	 -1.360120	 -1.303976	 -0.532417	 -0.586664	 -0.358130	 0.205527	 0.696655	 4
1462170674.683	 0	 -0.019817	 -0.003230	 0.012757	 -1.360279	 -1.304336	 -0.532610	 -0.586771	 -0.358033	 0.205615	 0.696588	 4
1462170674.692	 0	 -0.010021	 -0.013793	 0.010113	 -1.360146	 -1.304455	 -0.532393	 -0.586775	 -0.358019	 0.205688	 0.696570	 4
1462170674.702	 0	 0.004562	 -0.013724	 0.010041	 -1.360347	 -1.304640	 -0.532436	 -0.586808	 -0.358027	 0.205788	 0.696509	 4
1462170674.711	 0	 -0.007572	 -0.019660	 0.011284	 -1.360107	 -1.304836	 -0.531991	 -0.586802	 -0.358022	 0.205932	 0.696474	 4
1462170674.721	 0	 -0.006435	 -0.005520	 0.012668	 -1.360271	 -1.304992	 -0.532106	 -0.586844	 -0.358004	 0.205987	 0.696431	 4
1462170674.731	 0	 -0.012603	 -0.006660	 0.023869	 -1.360516	 -1.305083	 -0.532269	 -0.586870	 -0.358017	 0.206030	 0.696389	 4
1462170674.740	 0	 0.003080	 0.004054	 0.031357	 -1.360633	 -1.305217	 -0.532382	 -0.586912	 -0.357989	 0.206065	 0.696358	 4
1462170674.750	 0	 0.000684	 0.014579	 0.021536	 -1.360525	 -1.305227	 -0.532409	 -0.586930	 -0.357941	 0.206028	 0.696379	 4
1462170674.760	 0	 0.000573	 0.028735	 0.026654	 -1.360216	 -1.305376	 -0.532352	 -0.586989	 -0.357811	 0.206002	 0.696404	 4
1462170674.769	 0	 -0.020146	 0.029850	 0.032982	 -1.360319	 -1.305700	 -0.532731	 -0.587126	 -0.357649	 0.205998	 0.696372	 4
1462170674.779	 0	 -0.007801	 0.012177	 0.020310	 -1.360338	 -1.305979	 -0.532936	 -0.587230	 -0.357521	 0.206017	 0.696345	 4
1462170674.788	 0	 -0.011323	 0.010902	 0.006647	 -1.360156	 -1.306147	 -0.532864	 -0.587277	 -0.357435	 0.206040	 0.696343	 4
1462170674.798	 0	 -0.019346	 0.000143	 -0.010897	 -1.360655	 -1.306132	 -0.533432	 -0.587324	 -0.357446	 0.205984	 0.696314	 4
1462170674.807	 0	 -0.018141	 0.000156	 -0.009660	 -1.361160	 -1.306097	 -0.533956	 -0.587357	 -0.357477	 0.205939	 0.696284	 4
1462170674.817	 0	 0.003793	 -0.013859	 -0.008675	 -1.360738	 -1.305970	 -0.533467	 -0.587282	 -0.357507	 0.205947	 0.696329	 4
1462170674.827	 0	 -0.001087	 -0.016214	 -0.004947	 -1.360102	 -1.305858	 -0.532718	 -0.587185	 -0.357536	 0.205987	 0.696384	 4
1462170674.836	 0	 -0.016896	 -0.016282	 -0.003626	 -1.360703	 -1.305846	 -0.533156	 -0.587199	 -0.357620	 0.206007	 0.696324	 4
1462170674.846	 0	 0.000141	 -0.018563	 -0.004978	 -1.360563	 -1.305802	 -0.532846	 -0.587147	 -0.357674	 0.206061	 0.696324	 4
1462170674.855	 0	 0.015930	 -0.018480	 -0.003815	 -1.359952	 -1.305599	 -0.532080	 -0.587023	 -0.357740	 0.206087	 0.696387	 4
1462170674.865	 0	 0.012396	 -0.022096	 -0.015020	 -1.360565	 -1.305210	 -0.532438	 -0.586927	 -0.357951	 0.206024	 0.696377	 4
1462170674.875	 0	 0.030723	 -0.024422	 -0.025081	 -1.360391	 -1.304497	 -0.532021	 -0.586694	 -0.358202	 0.205902	 0.696481	 4
1462170674.884	 0	 0.042977	 -0.003312	 -0.048529	 -1.359291	 -1.304013	 -0.530813	 -0.586470	 -0.358302	 0.205853	 0.696632	 4
1462170674.894	 0	 0.060393	 -0.014070	 -0.089738	 -1.359756	 -1.302587	 -0.531086	 -0.586118	 -0.358762	 0.205462	 0.696808	 4
1462170674.904	 0	 0.069521	 -0.032055	 -0.152106	 -1.359575	 -1.300354	 -0.530579	 -0.585490	 -0.359439	 0.204909	 0.697150	 4
1462170674.913	 0	 0.064571	 -0.102084	 -0.244761	 -1.359706	 -1.298142	 -0.529880	 -0.584800	 -0.360274	 0.204521	 0.697411	 4
1462170674.923	 0	 0.052528	 -0.191059	 -0.350004	 -1.361756	 -1.295001	 -0.530350	 -0.583893	 -0.361682	 0.204002	 0.697595	 4
1462170674.932	 0	 0.028493	 -0.317749	 -0.453096	 -1.366173	 -1.290924	 -0.532095	 -0.582743	 -0.363793	 0.203442	 0.697622	 4
1462170674.942	 0	 0.011947	 -0.445714	 -0.578605	 -1.373311	 -1.285740	 -0.535416	 -0.581336	 -0.366689	 0.202778	 0.697473	 4
1462170674.952	 0	 -0.001979	 -0.574888	 -0.707910	 -1.382534	 -1.279327	 -0.539571	 -0.579580	 -0.370401	 0.202039	 0.697187	 4
1462170674.961	 0	 -0.013560	 -0.688820	 -0.853178	 -1.394016	 -1.271641	 -0.544958	 -0.577532	 -0.374890	 0.201109	 0.696756	 4
1462170674.971	 0	 -0.034987	 -0.763992	 -1.005445	 -1.407237	 -1.262550	 -0.551274	 -0.575172	 -0.380101	 0.199890	 0.696236	 4
1462170674.980	 0	 -0.060087	 -0.798094	 -1.177143	 -1.421730	 -1.251871	 -0.558463	 -0.572507	 -0.385944	 0.198194	 0.695703	 4
1462170674.990	 0	 -0.071013	 -0.769658	 -1.335832	 -1.436405	 -1.239621	 -0.566026	 -0.569572	 -0.392179	 0.195873	 0.695282	 4
1462170675.000	 0	 -0.067310	 -0.728276	 -1.506885	 -1.450515	 -1.225732	 -0.573428	 -0.566327	 -0.398723	 0.192867	 0.695051	 4
1462170675.009	 0	 -0.062592	 -0.700832	 -1.647025	 -1.463819	 -1.210400	 -0.580387	 -0.562788	 -0.405515	 0.189260	 0.694987	 4
1462170675.019	 0	 -0.061439	 -0.729782	 -1.765373	 -1.476523	 -1.193858	 -0.586611	 -0.558928	 -0.412644	 0.185280	 0.694979	 4
1462170675.028	 0	 -0.074725	 -0.830476	 -1.860792	 -1.489718	 -1.176344	 -0.592521	 -0.554784	 -0.420300	 0.181158	 0.694798	 4
1462170675.038	 0	 -0.116568	 -1.031465	 -1.972029	 -1.504656	 -1.157797	 -0.598566	 -0.550329	 -0.428806	 0.177052	 0.694202	 4
1462170675.048	 0	 -0.146917	 -1.305533	 -2.107697	 -1.522015	 -1.137991	 -0.604566	 -0.545429	 -0.438499	 0.173116	 0.693006	 4
1462170675.057	 0	 -0.219623	 -1.588138	 -2.259394	 -1.542337	 -1.116755	 -0.610904	 -0.540102	 -0.449499	 0.169277	 0.691076	 4
1462170675.067	 0	 -0.314280	 -1.808607	 -2.436423	 -1.565519	 -1.093813	 -0.617938	 -0.534406	 -0.461734	 0.165254	 0.688406	 4
1462170675.077	 0	 -0.450604	 -1.962155	 -2.610056	 -1.591176	 -1.069113	 -0.625994	 -0.528481	 -0.474982	 0.160781	 0.685018	 4
1462170675.086	 0	 -0.579836	 -2.085021	 -2.777192	 -1.618655	 -1.042618	 -0.634835	 -0.522364	 -0.489071	 0.155720	 0.680953	 4
1462170675.096	 0	 -0.702232	 -2.151219	 -2.922645	 -1.647024	 -1.014519	 -0.643935	 -0.516085	 -0.503748	 0.150047	 0.676299	 4
1462170675.105	 0	 -0.793959	 -2.113374	 -3.017462	 -1.674943	 -0.985175	 -0.652819	 -0.509726	 -0.518565	 0.143691	 0.671285	 4
1462170675.115	 0	 -0.912753	 -2.077777	 -3.072407	 -1.702110	 -0.954936	 -0.661535	 -0.503404	 -0.533294	 0.136684	 0.665957	 4
1462170675.125	 0	 -1.012005	 -2.119596	 -3.095954	 -1.729321	 -0.924202	 -0.670171	 -0.497179	 -0.548057	 0.129345	 0.660088	 4
1462170675.134	 0	 -1.121422	 -2.129477	 -3.085568	 -1.756528	 -0.893092	 -0.678721	 -0.491084	 -0.562788	 0.121710	 0.653677	 4
1462170675.144	 0	 -1.269613	 -2.170131	 -3.071582	 -1.784120	 -0.861823	 -0.687683	 -0.485292	 -0.577416	 0.113801	 0.646631	 4
1462170675.153	 0	 -1.441682	 -2.263996	 -3.077914	 -1.812945	 -0.829969	 -0.697377	 -0.479783	 -0.592221	 0.105564	 0.638701	 4
1462170675.163	 0	 -1.624697	 -2.294544	 -3.118318	 -1.842434	 -0.797220	 -0.707686	 -0.474524	 -0.607092	 0.096787	 0.629999	 4
1462170675.173	 0	 -1.806483	 -2.336831	 -3.153882	 -1.872320	 -0.763448	 -0.718474	 -0.469493	 -0.621974	 0.087404	 0.620552	 4
1462170675.182	 0	 -1.979769	 -2.370857	 -3.193129	 -1.902615	 -0.728560	 -0.729642	 -0.464669	 -0.636879	 0.077420	 0.610307	 4
1462170675.192	 0	 -2.180379	 -2.314260	 -3.213895	 -1.932515	 -0.692593	 -0.741164	 -0.460105	 -0.651518	 0.066678	 0.599484	 4
1462170675.202	 0	 -2.356763	 -2.313813	 -3.194366	 -1.962210	 -0.655770	 -0.753161	 -0.455892	 -0.665842	 0.055289	 0.588014	 4
1462170675.211	 0	 -2.507721	 -2.357769	 -3.139398	 -1.992064	 -0.618505	 -0.765409	 -0.452044	 -0.679881	 0.043585	 0.575776	 4
1462170675.221	 0	 -2.631052	 -2.349740	 -3.075327	 -2.021555	 -0.581039	 -0.777630	 -0.448530	 -0.693469	 0.031642	 0.562957	 4
1462170675.231	 0	 -2.758926	 -2.422915	 -3.003385	 -2.051162	 -0.543277	 -0.789946	 -0.445365	 -0.706707	 0.019514	 0.549395	 4
1462170675.240	 0	 -2.892997	 -2.471396	 -2.931154	 -2.081032	 -0.505284	 -0.802285	 -0.442541	 -0.719607	 0.007295	 0.535042	 4
1462170675.250	 0	 -3.050598	 -2.457496	 -2.841999	 -2.110667	 -0.466962	 -0.814997	 -0.440173	 -0.731946	 -0.005238	 0.520073	 4
1462170675.259	 0	 -3.205907	 -2.448184	 -2.734265	 -2.139926	 -0.428355	 -0.828214	 -0.438318	 -0.743628	 -0.018107	 0.504547	 4
1462170675.269	 0	 -3.342568	 -2.516514	 -2.632408	 -2.169283	 -0.389485	 -0.841752	 -0.436920	 -0.754785	 -0.031121	 0.488296	 4
1462170675.278	 0	 -3.469424	 -2.613016	 -2.524683	 -2.199138	 -0.350449	 -0.855575	 -0.435994	 -0.765472	 -0.044121	 0.471185	 4
1462170675.288	 0	 -3.539201	 -2.736205	 -2.397644	 -2.229658	 -0.311412	 -0.869438	 -0.435488	 -0.775716	 -0.056921	 0.453183	 4
1462170675.298	 0	 -3.620098	 -2.804173	 -2.279911	 -2.260437	 -0.272489	 -0.883177	 -0.435349	 -0.785407	 -0.069502	 0.434485	 4
1462170675.307	 0	 -3.667415	 -2.778975	 -2.161371	 -2.290664	 -0.233704	 -0.896732	 -0.435518	 -0.794359	 -0.082006	 0.415444	 4
1462170675.317	 0	 -3.679883	 -2.738084	 -2.005565	 -2.319880	 -0.195376	 -0.910137	 -0.436015	 -0.802432	 -0.094390	 0.396339	 4
1462170675.327	 0	 -3.667703	 -2.719607	 -1.877454	 -2.348392	 -0.157701	 -0.923166	 -0.436763	 -0.809734	 -0.106452	 0.377143	 4
1462170675.336	 0	 -3.625839	 -2.593729	 -1.727243	 -2.375425	 -0.120921	 -0.935832	 -0.437728	 -0.816119	 -0.118258	 0.358272	 4
1462170675.346	 0	 -3.569377	 -2.461924	 -1.582014	 -2.400638	 -0.085176	 -0.948156	 -0.438875	 -0.821562	 -0.129827	 0.339956	 4
1462170675.355	 0	 -3.485983	 -2.377060	 -1.433684	 -2.424541	 -0.050629	 -0.960130	 -0.440210	 -0.826199	 -0.140981	 0.322078	 4
1462170675.365	 0	 -3.413847	 -2.199332	 -1.299235	 -2.446574	 -0.017168	 -0.971818	 -0.441665	 -0.829998	 -0.151902	 0.304896	 4
1462170675.375	 0	 -3.316685	 -1.939007	 -1.152865	 -2.465852	 0.014932	 -0.983261	 -0.443181	 -0.832868	 -0.162684	 0.288887	 4
1462170675.384	 0	 -3.203398	 -1.715206	 -1.024352	 -2.482495	 0.045637	 -0.994511	 -0.444739	 -0.834906	 -0.173304	 0.274052	 4
1462170675.394	 0	 -3.073995	 -1.550214	 -0.900265	 -2.497080	 0.074854	 -1.005578	 -0.446362	 -0.836264	 -0.183605	 0.260215	 4
1462170675.403	 0	 -2.961555	 -1.398246	 -0.774986	 -2.509954	 0.102481	 -1.016502	 -0.448077	 -0.837043	 -0.193484	 0.247287	 4
1462170675.413	 0	 -2.859953	 -1.218236	 -0.676694	 -2.520840	 0.128858	 -1.027355	 -0.449807	 -0.837271	 -0.203161	 0.235323	 4
1462170675.423	 0	 -2.725288	 -1.072271	 -0.588865	 -2.529947	 0.153882	 -1.038003	 -0.451504	 -0.837054	 -0.212543	 0.224300	 4
1462170675.432	 0	 -2.609514	 -1.010086	 -0.519214	 -2.538029	 0.177664	 -1.048409	 -0.453193	 -0.836538	 -0.221512	 0.213900	 4
1462170675.442	 0	 -2.502007	 -1.002081	 -0.447604	 -2.545740	 0.200225	 -1.058605	 -0.454948	 -0.835817	 -0.229943	 0.203859	 4
1462170675.452	 0	 -2.399122	 -1.008344	 -0.396000	 -2.553343	 0.221787	 -1.068526	 -0.456735	 -0.834962	 -0.237868	 0.194038	 4
1462170675.461	 0	 -2.301036	 -1.027580	 -0.344508	 -2.560936	 0.242289	 -1.078232	 -0.458600	 -0.833983	 -0.245253	 0.184418	 4
1462170675.471	 0	 -2.198085	 -1.078477	 -0.275977	 -2.568766	 0.261751	 -1.087837	 -0.460619	 -0.832889	 -0.252069	 0.174893	 4
1462170675.480	 0	 -2.093752	 -1.150603	 -0.215131	 -2.577120	 0.280130	 -1.097332	 -0.462835	 -0.831717	 -0.258235	 0.165367	 4
1462170675.490	 0	 -1.961620	 -1.208410	 -0.144334	 -2.586003	 0.297253	 -1.106572	 -0.465219	 -0.830504	 -0.263675	 0.155917	 4
1462170675.499	 0	 -1.808004	 -1.207175	 -0.060601	 -2.594900	 0.312767	 -1.115620	 -0.467786	 -0.829204	 -0.268384	 0.146859	 4
1462170675.509	 0	 -1.694430	 -1.170975	 -0.003636	 -2.603487	 0.327018	 -1.124464	 -0.470434	 -0.827816	 -0.272581	 0.138248	 4
1462170675.519	 0	 -1.533638	 -1.081623	 0.044951	 -2.611342	 0.339888	 -1.132920	 -0.473042	 -0.826375	 -0.276316	 0.130327	 4
1462170675.528	 0	 -1.355923	 -0.960447	 0.086331	 -2.618204	 0.351159	 -1.140803	 -0.475529	 -0.824930	 -0.279571	 0.123301	 4
1462170675.538	 0	 -1.184048	 -0.857063	 0.110158	 -2.624143	 0.360862	 -1.148016	 -0.477854	 -0.823535	 -0.282348	 0.117155	 4
1462170675.548	 0	 -1.010413	 -0.809194	 0.101091	 -2.629768	 0.369182	 -1.154286	 -0.479960	 -0.822310	 -0.284574	 0.111638	 4
1462170675.557	 0	 -0.827964	 -0.767362	 0.059610	 -2.635400	 0.376156	 -1.159340	 -0.481776	 -0.821350	 -0.286183	 0.106653	 4
1462170675.567	 0	 -0.674402	 -0.768102	 0.009131	 -2.641349	 0.382072	 -1.163060	 -0.483255	 -0.820708	 -0.287219	 0.102018	 4
1462170675.577	 0	 -0.535334	 -0.822948	 -0.021962	 -2.648081	 0.386926	 -1.165749	 -0.484589	 -0.820340	 -0.287590	 0.097505	 4
1462170675.586	 0	 -0.439026	 -0.860243	 -0.036504	 -2.655549	 0.391006	 -1.167723	 -0.485857	 -0.820165	 -0.287440	 0.093009	 4
1462170675.596	 0	 -0.416230	 -0.821210	 -0.023784	 -2.662893	 0.394677	 -1.169479	 -0.487081	 -0.820019	 -0.287144	 0.088710	 4
1462170675.605	 0	 -0.432638	 -0.768067	 0.017858	 -2.669606	 0.398328	 -1.171578	 -0.488361	 -0.819739	 -0.287002	 0.084625	 4
1462170675.615	 0	 -0.460471	 -0.713469	 0.115485	 -2.675431	 0.401828	 -1.174577	 -0.489906	 -0.819186	 -0.287046	 0.080817	 4
1462170675.625	 0	 -0.493254	 -0.647099	 0.216989	 -2.680209	 0.405212	 -1.178637	 -0.491755	 -0.818315	 -0.287333	 0.077318	 4
1462170675.634	 0	 -0.522081	 -0.636073	 0.312923	 -2.684279	 0.408397	 -1.183788	 -0.493976	 -0.817137	 -0.287745	 0.074007	 4
1462170675.644	 0	 -0.515409	 -0.620360	 0.376422	 -2.687984	 0.411374	 -1.189609	 -0.496448	 -0.815769	 -0.288177	 0.070806	 4
1462170675.653	 0	 -0.492444	 -0.609603	 0.385118	 -2.691484	 0.414073	 -1.195545	 -0.498976	 -0.814356	 -0.288542	 0.067750	 4
1462170675.663	 0	 -0.410916	 -0.595205	 0.364979	 -2.695015	 0.416274	 -1.201015	 -0.501389	 -0.813058	 -0.288679	 0.064890	 4
1462170675.673	 0	 -0.315862	 -0.569116	 0.320045	 -2.698659	 0.417849	 -1.205744	 -0.503606	 -0.811951	 -0.288513	 0.062272	 4
1462170675.682	 0	 -0.241484	 -0.509088	 0.258174	 -2.702158	 0.418973	 -1.209522	 -0.505479	 -0.811079	 -0.288173	 0.059982	 4
1462170675.692	 0	 -0.163440	 -0.464310	 0.202338	 -2.705497	 0.419759	 -1.212421	 -0.507021	 -0.810426	 -0.287712	 0.057983	 4
1462170675.702	 0	 -0.103533	 -0.476004	 0.167124	 -2.709132	 0.420043	 -1.214599	 -0.508385	 -0.809970	 -0.286959	 0.056115	 4
1462170675.711	 0	 -0.047435	 -0.462964	 0.137159	 -2.712919	 0.419981	 -1.216251	 -0.509605	 -0.809655	 -0.286017	 0.054363	 4
1462170675.721	 0	 -0.026839	 -0.445221	 0.134756	 -2.716646	 0.419720	 -1.217700	 -0.510761	 -0.809392	 -0.285006	 0.052723	 4
1462170675.730	 0	 -0.032872	 -0.465227	 0.140790	 -2.720495	 0.419413	 -1.219102	 -0.511919	 -0.809141	 -0.283942	 0.051056	 4
1462170675.740	 0	 -0.015858	 -0.485093	 0.151679	 -2.724516	 0.418992	 -1.220609	 -0.513158	 -0.808866	 -0.282790	 0.049339	 4
1462170675.750	 0	 -0.028344	 -0.477882	 0.186607	 -2.728425	 0.418517	 -1.222416	 -0.514507	 -0.808509	 -0.281648	 0.047643	 4
1462170675.759	 0	 -0.012894	 -0.456447	 0.215332	 -2.732029	 0.417848	 -1.224510	 -0.515954	 -0.808071	 -0.280515	 0.046087	 4
1462170675.769	 0	 -0.010744	 -0.466804	 0.253731	 -2.735517	 0.417016	 -1.226916	 -0.517530	 -0.807550	 -0.279352	 0.044585	 4
1462170675.778	 0	 0.010749	 -0.440624	 0.283718	 -2.738752	 0.415928	 -1.229585	 -0.519209	 -0.806958	 -0.278159	 0.043226	 4
1462170675.788	 0	 0.017687	 -0.380505	 0.291768	 -2.741462	 0.414692	 -1.232339	 -0.520866	 -0.806332	 -0.277044	 0.042114	 4
1462170675.797	 0	 0.032030	 -0.323948	 0.288560	 -2.743612	 0.413378	 -1.235041	 -0.522433	 -0.805706	 -0.276041	 0.041260	 4
1462170675.807	 0	 0.063945	 -0.292334	 0.234061	 -2.745586	 0.411925	 -1.237208	 -0.523777	 -0.805218	 -0.275018	 0.040595	 4
1462170675.817	 0	 0.069202	 -0.312529	 0.199032	 -2.747815	 0.410573	 -1.238947	 -0.524967	 -0.804841	 -0.273956	 0.039858	 4
1462170675.826	 0	 0.090362	 -0.356187	 0.164921	 -2.750682	 0.409152	 -1.240282	 -0.526088	 -0.804584	 -0.272690	 0.038940	 4
1462170675.836	 0	 0.126327	 -0.218390	 0.146303	 -2.752790	 0.407562	 -1.241299	 -0.526999	 -0.804398	 -0.271551	 0.038423	 4
1462170675.846	 0	 0.178908	 -0.015703	 0.138222	 -2.753104	 0.405569	 -1.241990	 -0.527588	 -0.804272	 -0.270725	 0.038792	 4
1462170675.855	 0	 0.255506	 0.030399	 0.108500	 -2.752735	 0.403065	 -1.242214	 -0.527964	 -0.804269	 -0.269877	 0.039650	 4
1462170675.865	 0	 0.262235	 -0.005219	 0.052180	 -2.752821	 0.400486	 -1.241803	 -0.528156	 -0.804442	 -0.268867	 0.040433	 4
1462170675.874	 0	 0.208577	 -0.089404	 -0.000673	 -2.753758	 0.398443	 -1.241017	 -0.528238	 -0.804719	 -0.267827	 0.040764	 4
1462170675.884	 0	 0.109459	 -0.150088	 -0.029389	 -2.755378	 0.397344	 -1.240249	 -0.528292	 -0.804981	 -0.266966	 0.040539	 4
1462170675.894	 0	 0.012256	 -0.168167	 -0.021636	 -2.757122	 0.397149	 -1.239842	 -0.528386	 -0.805128	 -0.266422	 0.039949	 4
1462170675.903	 0	 -0.028118	 -0.181082	 0.016949	 -2.758782	 0.397326	 -1.239977	 -0.528638	 -0.805121	 -0.266053	 0.039211	 4
1462170675.913	 0	 -0.031010	 -0.193684	 0.077715	 -2.760355	 0.397355	 -1.240695	 -0.529133	 -0.804961	 -0.265662	 0.038474	 4
1462170675.922	 0	 0.017304	 -0.180341	 0.104948	 -2.761777	 0.396998	 -1.241635	 -0.529746	 -0.804748	 -0.265168	 0.037882	 4
1462170675.932	 0	 0.078968	 -0.141108	 0.119960	 -2.762868	 0.395985	 -1.242543	 -0.530389	 -0.804553	 -0.264511	 0.037622	 4
1462170675.942	 0	 0.111927	 -0.109370	 0.085336	 -2.763804	 0.394726	 -1.243060	 -0.530886	 -0.804465	 -0.263793	 0.037549	 4
1462170675.951	 0	 0.124378	 -0.082528	 0.035854	 -2.764625	 0.393486	 -1.243076	 -0.531162	 -0.804507	 -0.263103	 0.037583	 4
1462170675.961	 0	 0.111240	 -0.048722	 -0.009699	 -2.765306	 0.392417	 -1.242633	 -0.531214	 -0.804663	 -0.262506	 0.037682	 4
1462170675.971	 0	 0.088578	 -0.033872	 -0.067828	 -2.766011	 0.391802	 -1.241744	 -0.531028	 -0.804928	 -0.262068	 0.037697	 4
1462170675.980	 0	 0.068199	 -0.008337	 -0.113423	 -2.766063	 0.389811	 -1.240673	 -0.530863	 -0.805261	 -0.261274	 0.038404	 4
1462170675.990	 0	 0.060968	 0.003320	 -0.126932	 -2.766617	 0.389717	 -1.239236	 -0.530369	 -0.805655	 -0.261064	 0.038396	 4
1462170676.000	 0	 0.038982	 0.017372	 -0.121705	 -2.766995	 0.389740	 -1.237859	 -0.529860	 -0.806027	 -0.260946	 0.038416	 4
1462170676.009	 0	 0.008406	 0.037307	 -0.110159	 -2.767124	 0.390012	 -1.236681	 -0.529367	 -0.806335	 -0.260993	 0.038438	 4
1462170676.019	 0	 -0.015978	 0.013777	 -0.087918	 -2.767261	 0.390470	 -1.235840	 -0.528986	 -0.806549	 -0.261116	 0.038358	 4
1462170676.028	 0	 -0.001567	 -0.001289	 -0.059571	 -2.767449	 0.390733	 -1.235245	 -0.528737	 -0.806703	 -0.261155	 0.038282	 4
1462170676.038	 0	 -0.004065	 -0.027069	 -0.037463	 -2.767828	 0.390926	 -1.234847	 -0.528600	 -0.806811	 -0.261121	 0.038125	 4
1462170676.048	 0	 0.019105	 -0.043440	 -0.037750	 -2.768378	 0.390920	 -1.234423	 -0.528502	 -0.806933	 -0.260965	 0.037960	 4
1462170676.057	 0	 0.054378	 -0.053853	 -0.035552	 -2.769101	 0.390705	 -1.233916	 -0.528420	 -0.807087	 -0.260682	 0.037797	 4
1462170676.067	 0	 0.072579	 -0.045533	 -0.036798	 -2.769836	 0.390197	 -1.233283	 -0.528326	 -0.807280	 -0.260282	 0.037732	 4
1462170676.076	 0	 0.061523	 -0.005609	 -0.045022	 -2.770233	 0.389754	 -1.232648	 -0.528178	 -0.807467	 -0.259995	 0.037785	 4
1462170676.086	 0	 0.056552	 0.023777	 -0.048417	 -2.770332	 0.389400	 -1.231993	 -0.527972	 -0.807651	 -0.259821	 0.037934	 4
1462170676.095	 0	 0.045640	 0.064776	 -0.074025	 -2.770134	 0.389242	 -1.231142	 -0.527623	 -0.807876	 -0.259796	 0.038170	 4
1462170676.105	 0	 0.016475	 0.095143	 -0.090956	 -2.769637	 0.389367	 -1.230221	 -0.527170	 -0.808106	 -0.259958	 0.038454	 4
1462170676.115	 0	 -0.023472	 0.104231	 -0.114268	 -2.769015	 0.389884	 -1.229234	 -0.526624	 -0.808341	 -0.260301	 0.038683	 4
1462170676.124	 0	 -0.023476	 0.088972	 -0.105730	 -2.769546	 0.390594	 -1.227865	 -0.526048	 -0.808693	 -0.260407	 0.038438	 4
1462170676.134	 0	 -0.017352	 0.072542	 -0.102205	 -2.769169	 0.391106	 -1.226892	 -0.525539	 -0.808928	 -0.260684	 0.038568	 4
1462170676.144	 0	 0.000739	 0.050429	 -0.073950	 -2.768922	 0.391452	 -1.226138	 -0.525157	 -0.809113	 -0.260867	 0.038666	 4
1462170676.153	 0	 0.022439	 0.047133	 -0.051728	 -2.768720	 0.391502	 -1.225513	 -0.524871	 -0.809272	 -0.260927	 0.038814	 4
1462170676.163	 0	 0.033210	 0.039079	 -0.028258	 -2.769630	 0.391423	 -1.224645	 -0.524649	 -0.809519	 -0.260641	 0.038582	 4
1462170676.172	 0	 0.063525	 0.031056	 -0.016069	 -2.769469	 0.391020	 -1.224241	 -0.524516	 -0.809632	 -0.260521	 0.038818	 4
1462170676.182	 0	 0.062337	 0.047459	 -0.028316	 -2.769217	 0.390545	 -1.223793	 -0.524364	 -0.809757	 -0.260396	 0.039116	 4
1462170676.192	 0	 0.057590	 0.041491	 -0.038295	 -2.768996	 0.390119	 -1.223207	 -0.524152	 -0.809918	 -0.260278	 0.039406	 4
1462170676.201	 0	 0.048078	 0.035434	 -0.059434	 -2.768922	 0.389856	 -1.222475	 -0.523880	 -0.810115	 -0.260183	 0.039608	 4
1462170676.211	 0	 0.034734	 0.047078	 -0.069186	 -2.769900	 0.390165	 -1.221288	 -0.523487	 -0.810437	 -0.260022	 0.039276	 4
1462170676.221	 0	 0.026207	 0.063470	 -0.076428	 -2.770784	 0.390612	 -1.220005	 -0.523024	 -0.810778	 -0.259937	 0.038955	 4
1462170676.230	 0	 0.024894	 0.061179	 -0.064020	 -2.771257	 0.390848	 -1.218971	 -0.522636	 -0.811051	 -0.259884	 0.038829	 4
1462170676.240	 0	 0.014962	 0.064796	 -0.041567	 -2.770873	 0.390894	 -1.218464	 -0.522374	 -0.811175	 -0.259993	 0.039037	 4
1462170676.249	 0	 0.037921	 0.069686	 -0.029206	 -2.770804	 0.390808	 -1.217834	 -0.522121	 -0.811341	 -0.259965	 0.039172	 4
1462170676.259	 0	 0.075559	 0.061673	 -0.020781	 -2.771078	 0.390378	 -1.217133	 -0.521927	 -0.811540	 -0.259715	 0.039277	 4
1462170676.268	 0	 0.070779	 0.053375	 -0.025812	 -2.771748	 0.389614	 -1.216218	 -0.521741	 -0.811812	 -0.259227	 0.039345	 4
1462170676.278	 0	 0.081877	 0.035712	 -0.034748	 -2.772684	 0.388674	 -1.215187	 -0.521565	 -0.812125	 -0.258600	 0.039371	 4
1462170676.288	 0	 0.061408	 0.022575	 -0.049693	 -2.772710	 0.388235	 -1.214472	 -0.521333	 -0.812323	 -0.258410	 0.039580	 4
1462170676.297	 0	 0.029970	 0.002361	 -0.057200	 -2.774281	 0.387790	 -1.213265	 -0.521103	 -0.812681	 -0.257805	 0.039227	 4
1462170676.307	 0	 0.011747	 -0.035288	 -0.037623	 -2.776210	 0.388050	 -1.212169	 -0.520873	 -0.812997	 -0.257381	 0.038509	 4
1462170676.317	 0	 -0.010263	 -0.048216	 -0.015284	 -2.777820	 0.388669	 -1.211553	 -0.520751	 -0.813171	 -0.257190	 0.037754	 4
1462170676.326	 0	 -0.017705	 -0.057541	 0.007019	 -2.779015	 0.389055	 -1.211365	 -0.520779	 -0.813232	 -0.257024	 0.037181	 4
1462170676.336	 0	 -0.004755	 -0.034897	 0.043225	 -2.779378	 0.389075	 -1.211712	 -0.520964	 -0.813147	 -0.256944	 0.036983	 4
1462170676.345	 0	 0.014343	 -0.002886	 0.065830	 -2.779283	 0.388801	 -1.212248	 -0.521205	 -0.813013	 -0.256873	 0.037032	 4
1462170676.355	 0	 0.019056	 0.019535	 0.071012	 -2.778641	 0.388059	 -1.213024	 -0.521532	 -0.812820	 -0.256767	 0.037408	 4
1462170676.365	 0	 0.033650	 0.048936	 0.053853	 -2.777610	 0.387193	 -1.213630	 -0.521755	 -0.812666	 -0.256713	 0.038000	 4
1462170676.374	 0	 0.036457	 0.046345	 0.011567	 -2.776950	 0.386577	 -1.213789	 -0.521813	 -0.812628	 -0.256650	 0.038426	 4
1462170676.384	 0	 0.055085	 0.034423	 -0.028411	 -2.777052	 0.386235	 -1.213321	 -0.521680	 -0.812762	 -0.256482	 0.038544	 4
1462170676.393	 0	 0.026242	 0.024675	 -0.060674	 -2.777031	 0.386081	 -1.212639	 -0.521419	 -0.812943	 -0.256415	 0.038684	 4
1462170676.403	 0	 0.017943	 -0.003674	 -0.069628	 -2.777785	 0.386422	 -1.211688	 -0.521086	 -0.813196	 -0.256332	 0.038401	 4
1462170676.413	 0	 -0.001748	 -0.010642	 -0.037298	 -2.778551	 0.386924	 -1.211050	 -0.520861	 -0.813364	 -0.256315	 0.038026	 4
1462170676.422	 0	 -0.009415	 -0.002211	 0.001344	 -2.779125	 0.387516	 -1.210815	 -0.520764	 -0.813419	 -0.256390	 0.037652	 4
1462170676.432	 0	 -0.003637	 0.001538	 0.033658	 -2.779296	 0.388002	 -1.210984	 -0.520794	 -0.813365	 -0.256537	 0.037420	 4
1462170676.441	 0	 0.005937	 0.005204	 0.048555	 -2.779094	 0.388336	 -1.211441	 -0.520911	 -0.813233	 -0.256727	 0.037347	 4
1462170676.451	 0	 0.016863	 0.007611	 0.048526	 -2.778857	 0.388022	 -1.211844	 -0.521085	 -0.813132	 -0.256675	 0.037482	 4
1462170676.461	 0	 0.020729	 0.001611	 0.026077	 -2.778537	 0.388044	 -1.212161	 -0.521170	 -0.813043	 -0.256773	 0.037565	 4
1462170676.470	 0	 0.031811	 0.005087	 0.007421	 -2.778150	 0.387528	 -1.212332	 -0.521255	 -0.813005	 -0.256677	 0.037850	 4
1462170676.480	 0	 0.041840	 -0.011501	 -0.018894	 -2.778142	 0.386847	 -1.212105	 -0.521248	 -0.813083	 -0.256412	 0.038080	 4
1462170676.490	 0	 0.034697	 -0.002249	 -0.041126	 -2.778262	 0.386311	 -1.211674	 -0.521156	 -0.813212	 -0.256165	 0.038240	 4
1462170676.499	 0	 0.040906	 0.005902	 -0.060951	 -2.778760	 0.386045	 -1.210861	 -0.520923	 -0.813441	 -0.255917	 0.038219	 4
1462170676.509	 0	 0.014115	 0.003462	 -0.053387	 -2.779368	 0.386081	 -1.210113	 -0.520692	 -0.813646	 -0.255758	 0.038057	 4
1462170676.518	 0	 -0.004282	 0.009355	 -0.037081	 -2.779856	 0.386330	 -1.209559	 -0.520497	 -0.813793	 -0.255717	 0.037858	 4
1462170676.528	 0	 -0.017820	 0.000018	 -0.012261	 -2.780028	 0.386575	 -1.209411	 -0.520428	 -0.813828	 -0.255764	 0.037736	 4
1462170676.538	 0	 -0.018076	 -0.002153	 0.018780	 -2.779989	 0.386697	 -1.209573	 -0.520473	 -0.813782	 -0.255825	 0.037696	 4
1462170676.547	 0	 -0.004788	 -0.020809	 0.038399	 -2.780034	 0.386724	 -1.209924	 -0.520618	 -0.813690	 -0.255830	 0.037625	 4
1462170676.557	 0	 0.029502	 -0.039600	 0.018149	 -2.780317	 0.386499	 -1.210074	 -0.520744	 -0.813663	 -0.255672	 0.037555	 4
1462170676.566	 0	 0.024961	 -0.059791	 -0.008133	 -2.780998	 0.386377	 -1.209931	 -0.520789	 -0.813716	 -0.255445	 0.037332	 4
1462170676.576	 0	 0.032438	 -0.071619	 -0.023205	 -2.782061	 0.386257	 -1.209522	 -0.520773	 -0.813846	 -0.255114	 0.036986	 4
1462170676.586	 0	 0.007058	 -0.083573	 -0.033143	 -2.783221	 0.386227	 -1.209053	 -0.520734	 -0.813990	 -0.254791	 0.036583	 4
1462170676.595	 0	 -0.023354	 -0.075484	 -0.034149	 -2.784019	 0.386603	 -1.208829	 -0.520697	 -0.814052	 -0.254725	 0.036177	 4
1462170676.605	 0	 -0.034549	 -0.055413	 -0.015244	 -2.784658	 0.386979	 -1.208728	 -0.520690	 -0.814079	 -0.254703	 0.035822	 4
1462170676.615	 0	 -0.033665	 -0.019978	 0.003759	 -2.784622	 0.387422	 -1.208953	 -0.520722	 -0.814007	 -0.254888	 0.035680	 4
1462170676.624	 0	 -0.021811	 0.015489	 0.018981	 -2.783926	 0.387741	 -1.209421	 -0.520783	 -0.813864	 -0.255201	 0.035812	 4
1462170676.634	 0	 -0.001318	 0.052078	 0.018018	 -2.782966	 0.387944	 -1.209809	 -0.520793	 -0.813740	 -0.255537	 0.036094	 4
1462170676.643	 0	 0.032802	 0.068607	 -0.001860	 -2.781969	 0.387810	 -1.209901	 -0.520720	 -0.813702	 -0.255746	 0.036527	 4
1462170676.653	 0	 0.014612	 0.080227	 -0.012830	 -2.781197	 0.387634	 -1.209741	 -0.520578	 -0.813734	 -0.255876	 0.036912	 4
1462170676.663	 0	 -0.004580	 0.074095	 -0.038891	 -2.780493	 0.387783	 -1.209446	 -0.520349	 -0.813794	 -0.256111	 0.037193	 4
1462170676.672	 0	 -0.029008	 0.070542	 -0.022652	 -2.779867	 0.388088	 -1.209264	 -0.520156	 -0.813821	 -0.256389	 0.037383	 4
1462170676.682	 0	 -0.030141	 0.047012	 -0.019165	 -2.779504	 0.388405	 -1.209124	 -0.520013	 -0.813842	 -0.256604	 0.037457	 4
1462170676.691	 0	 -0.044806	 0.030570	 -0.000627	 -2.779201	 0.388830	 -1.209207	 -0.519954	 -0.813803	 -0.256849	 0.037447	 4
1462170676.701	 0	 0.003724	 0.016776	 0.016380	 -2.779148	 0.388803	 -1.209286	 -0.519982	 -0.813782	 -0.256853	 0.037467	 4
1462170676.711	 0	 0.010954	 0.009813	 0.027454	 -2.779087	 0.388582	 -1.209444	 -0.520067	 -0.813746	 -0.256787	 0.037535	 4
1462170676.720	 0	 0.023133	 -0.001880	 0.030999	 -2.778982	 0.388154	 -1.209692	 -0.520209	 -0.813691	 -0.256653	 0.037669	 4
1462170676.730	 0	 0.013373	 0.003968	 0.032352	 -2.778797	 0.387680	 -1.209949	 -0.520350	 -0.813634	 -0.256522	 0.037848	 4
1462170676.739	 0	 0.019503	 0.023908	 0.015135	 -2.778574	 0.387461	 -1.210110	 -0.520414	 -0.813594	 -0.256499	 0.037982	 4
1462170676.749	 0	 -0.006144	 0.059077	 0.010663	 -2.777808	 0.387205	 -1.210313	 -0.520431	 -0.813534	 -0.256603	 0.038341	 4
1462170676.759	 0	 -0.005061	 0.095550	 0.006071	 -2.776596	 0.387088	 -1.210517	 -0.520373	 -0.813460	 -0.256877	 0.038842	 4
1462170676.768	 0	 0.007134	 0.117876	 -0.011150	 -2.775121	 0.386926	 -1.210615	 -0.520244	 -0.813410	 -0.257200	 0.039476	 4
1462170676.778	 0	 -0.001300	 0.124828	 -0.023460	 -2.773766	 0.386958	 -1.210482	 -0.520011	 -0.813417	 -0.257562	 0.040035	 4
1462170676.788	 0	 -0.004843	 0.121220	 -0.033421	 -2.772693	 0.387074	 -1.210193	 -0.519741	 -0.813467	 -0.257880	 0.040475	 4
1462170676.798	 0	 0.003899	 0.088245	 -0.042507	 -2.772062	 0.387100	 -1.209712	 -0.519460	 -0.813579	 -0.258044	 0.040787	 4
1462170676.807	 0	 -0.011757	 0.056389	 -0.041520	 -2.771839	 0.387232	 -1.209223	 -0.519216	 -0.813698	 -0.258143	 0.040902	 4
1462170676.816	 0	 -0.000731	 0.009444	 -0.025915	 -2.772057	 0.387464	 -1.208853	 -0.519064	 -0.813792	 -0.258169	 0.040794	 4
1462170676.826	 0	 0.005431	 -0.032830	 -0.012721	 -2.772729	 0.387485	 -1.208505	 -0.519006	 -0.813895	 -0.257995	 0.040560	 4
1462170676.836	 0	 0.024849	 -0.053843	 0.001870	 -2.773526	 0.387390	 -1.208287	 -0.519033	 -0.813971	 -0.257747	 0.040291	 4
1462170676.845	 0	 0.052586	 -0.068816	 0.035122	 -2.774142	 0.386902	 -1.208379	 -0.519211	 -0.813972	 -0.257401	 0.040169	 4
1462170676.855	 0	 0.056095	 -0.053451	 0.042721	 -2.774727	 0.386107	 -1.208578	 -0.519469	 -0.813954	 -0.256945	 0.040135	 4
1462170676.864	 0	 0.048641	 -0.024039	 0.045553	 -2.774960	 0.385290	 -1.208810	 -0.519697	 -0.813920	 -0.256573	 0.040246	 4
1462170676.874	 0	 0.021926	 -0.001885	 0.031010	 -2.774723	 0.384720	 -1.209118	 -0.519865	 -0.813850	 -0.256420	 0.040468	 4
1462170676.884	 0	 0.012220	 0.023876	 0.015177	 -2.773992	 0.384177	 -1.209426	 -0.519965	 -0.813770	 -0.256406	 0.040882	 4
1462170676.893	 0	 0.007465	 0.035519	 -0.003313	 -2.773232	 0.383832	 -1.209571	 -0.519971	 -0.813725	 -0.256473	 0.041272	 4
1462170676.903	 0	 0.004027	 0.047176	 -0.016897	 -2.772865	 0.383845	 -1.209402	 -0.519853	 -0.813761	 -0.256570	 0.041440	 4
1462170676.913	 0	 0.008908	 0.058923	 -0.025495	 -2.772057	 0.383641	 -1.209287	 -0.519729	 -0.813780	 -0.256699	 0.041842	 4
1462170676.922	 0	 0.021097	 0.047223	 -0.023194	 -2.771631	 0.383475	 -1.209033	 -0.519592	 -0.813841	 -0.256740	 0.042096	 4
1462170676.932	 0	 0.012559	 0.027256	 -0.008450	 -2.771401	 0.383395	 -1.208870	 -0.519506	 -0.813881	 -0.256765	 0.042233	 4
1462170676.941	 0	 0.024625	 0.012120	 0.009968	 -2.771391	 0.383233	 -1.208781	 -0.519489	 -0.813908	 -0.256703	 0.042296	 4
1462170676.951	 0	 0.017114	 0.011061	 0.036088	 -2.771205	 0.382966	 -1.208995	 -0.519586	 -0.813855	 -0.256653	 0.042421	 4
1462170676.961	 0	 0.032751	 0.013594	 0.053430	 -2.771021	 0.382651	 -1.209320	 -0.519735	 -0.813775	 -0.256585	 0.042545	 4
1462170676.970	 0	 0.038744	 0.021893	 0.058457	 -2.770624	 0.382219	 -1.209752	 -0.519915	 -0.813665	 -0.256531	 0.042776	 4
1462170676.980	 0	 0.035117	 0.028903	 0.052336	 -2.770030	 0.381773	 -1.210194	 -0.520076	 -0.813548	 -0.256522	 0.043090	 4
1462170676.989	 0	 0.012082	 0.036970	 0.041354	 -2.769263	 0.381455	 -1.210668	 -0.520211	 -0.813416	 -0.256609	 0.043433	 4
1462170676.999	 0	 0.026860	 0.052163	 0.010376	 -2.768356	 0.381281	 -1.210923	 -0.520220	 -0.813335	 -0.256783	 0.043819	 4
1462170677.009	 0	 0.020939	 0.066110	 -0.015540	 -2.767476	 0.381224	 -1.210886	 -0.520100	 -0.813326	 -0.256989	 0.044198	 4
1462170677.018	 0	 0.007567	 0.097730	 -0.032537	 -2.766735	 0.381225	 -1.210565	 -0.519874	 -0.813393	 -0.257175	 0.044540	 4
1462170677.028	 0	 0.014798	 0.103675	 -0.028783	 -2.765514	 0.381284	 -1.210364	 -0.519627	 -0.813417	 -0.257510	 0.045046	 4
1462170677.037	 0	 0.030533	 0.096753	 -0.017753	 -2.764588	 0.381322	 -1.210069	 -0.519383	 -0.813472	 -0.257759	 0.045450	 4
1462170677.047	 0	 0.020836	 0.075566	 -0.009230	 -2.764027	 0.381321	 -1.209805	 -0.519203	 -0.813527	 -0.257899	 0.045712	 4
1462170677.057	 0	 0.017191	 0.070853	 -0.006777	 -2.763644	 0.381406	 -1.209591	 -0.519056	 -0.813572	 -0.258026	 0.045871	 4
1462170677.067	 0	 0.015998	 0.046189	 0.004153	 -2.763340	 0.381381	 -1.209497	 -0.518982	 -0.813590	 -0.258093	 0.046014	 4
1462170677.076	 0	 0.015942	 0.035667	 0.016468	 -2.762946	 0.381150	 -1.209575	 -0.518992	 -0.813566	 -0.258107	 0.046231	 4
1462170677.086	 0	 0.008620	 0.028612	 0.023885	 -2.762636	 0.381144	 -1.209746	 -0.519023	 -0.813515	 -0.258189	 0.046337	 4
1462170677.095	 0	 0.008645	 0.029767	 0.020170	 -2.762205	 0.381099	 -1.209954	 -0.519058	 -0.813452	 -0.258289	 0.046498	 4
1462170677.105	 0	 0.019584	 0.045074	 0.011578	 -2.761609	 0.380962	 -1.210125	 -0.519068	 -0.813397	 -0.258395	 0.046758	 4
1462170677.114	 0	 0.019659	 0.045024	 0.002879	 -2.761033	 0.380753	 -1.210163	 -0.519036	 -0.813379	 -0.258464	 0.047047	 4
1462170677.124	 0	 0.029513	 0.050846	 -0.015747	 -2.760623	 0.380558	 -1.209952	 -0.518922	 -0.813428	 -0.258490	 0.047298	 4
1462170677.134	 0	 0.022544	 0.043551	 -0.049336	 -2.760242	 0.380471	 -1.209499	 -0.518700	 -0.813539	 -0.258545	 0.047537	 4
1462170677.143	 0	 0.006887	 0.051592	 -0.070296	 -2.760050	 0.380690	 -1.208824	 -0.518372	 -0.813704	 -0.258663	 0.047639	 4
1462170677.153	 0	 -0.016196	 0.045610	 -0.067758	 -2.759896	 0.381034	 -1.208174	 -0.518043	 -0.813861	 -0.258820	 0.047686	 4
1462170677.162	 0	 -0.029634	 0.046766	 -0.060223	 -2.759820	 0.381457	 -1.207589	 -0.517740	 -0.814000	 -0.258990	 0.047671	 4
1462170677.172	 0	 -0.049275	 0.056192	 -0.042632	 -2.759657	 0.382234	 -1.207225	 -0.517471	 -0.814072	 -0.259324	 0.047560	 4
1462170677.182	 0	 -0.040829	 0.042194	 -0.027911	 -2.759247	 0.382716	 -1.207116	 -0.517311	 -0.814079	 -0.259614	 0.047602	 4
1462170677.191	 0	 -0.027563	 0.023552	 -0.005808	 -2.759223	 0.383074	 -1.207010	 -0.517218	 -0.814097	 -0.259755	 0.047522	 4
1462170677.201	 0	 -0.006927	 0.015454	 0.001459	 -2.758881	 0.383219	 -1.207116	 -0.517197	 -0.814058	 -0.259902	 0.047606	 4
1462170677.210	 0	 0.003958	 0.015544	 0.007618	 -2.758643	 0.383034	 -1.207189	 -0.517221	 -0.814038	 -0.259894	 0.047747	 4
1462170677.220	 0	 0.007673	 0.016687	 -0.001086	 -2.758487	 0.382944	 -1.207177	 -0.517207	 -0.814040	 -0.259900	 0.047838	 4
1462170677.230	 0	 0.012594	 0.013149	 -0.006118	 -2.758346	 0.382896	 -1.207109	 -0.517167	 -0.814055	 -0.259916	 0.047918	 4
1462170677.239	 0	 -0.004280	 0.010624	 -0.020969	 -2.758441	 0.382886	 -1.206853	 -0.517077	 -0.814124	 -0.259881	 0.047915	 4
1462170677.249	 0	 0.006613	 0.017746	 -0.019708	 -2.758532	 0.382976	 -1.206612	 -0.516979	 -0.814186	 -0.259887	 0.047884	 4
1462170677.259	 0	 -0.009110	 0.012924	 -0.025892	 -2.758582	 0.383146	 -1.206332	 -0.516849	 -0.814256	 -0.259933	 0.047851	 4
1462170677.268	 0	 -0.015377	 0.025933	 -0.010814	 -2.758458	 0.383323	 -1.206204	 -0.516758	 -0.814282	 -0.260030	 0.047867	 4
1462170677.278	 0	 -0.032385	 0.019980	 -0.008307	 -2.758256	 0.383679	 -1.206210	 -0.516688	 -0.814266	 -0.260220	 0.047846	 4
1462170677.287	 0	 -0.033499	 0.003478	 -0.010959	 -2.758128	 0.384024	 -1.206253	 -0.516644	 -0.814244	 -0.260388	 0.047793	 4
1462170677.297	 0	 -0.001814	 -0.005818	 -0.016186	 -2.758118	 0.384327	 -1.206173	 -0.516570	 -0.814257	 -0.260506	 0.047720	 4
1462170677.307	 0	 -0.013943	 -0.015280	 -0.013739	 -2.758285	 0.384594	 -1.206084	 -0.516521	 -0.814278	 -0.260563	 0.047587	 4
1462170677.316	 0	 0.007850	 -0.009252	 -0.007572	 -2.758402	 0.384586	 -1.205995	 -0.516501	 -0.814304	 -0.260528	 0.047553	 4
1462170677.326	 0	 0.017484	 -0.002105	 -0.001334	 -2.758418	 0.384535	 -1.205919	 -0.516479	 -0.814325	 -0.260502	 0.047571	 4
1462170677.335	 0	 0.010203	 -0.002147	 -0.002541	 -2.758507	 0.384512	 -1.205844	 -0.516463	 -0.814347	 -0.260468	 0.047551	 4
1462170677.345	 0	 0.002987	 -0.006928	 -0.008767	 -2.758583	 0.384493	 -1.205745	 -0.516435	 -0.814375	 -0.260439	 0.047539	 4
1462170677.355	 0	 -0.028639	 -0.023488	 0.003643	 -2.758931	 0.384813	 -1.205759	 -0.516445	 -0.814372	 -0.260473	 0.047303	 4
1462170677.364	 0	 -0.022425	 -0.038809	 -0.004004	 -2.759351	 0.385076	 -1.205756	 -0.516464	 -0.814376	 -0.260466	 0.047056	 4
1462170677.374	 0	 -0.018789	 -0.041131	 -0.001562	 -2.759757	 0.385296	 -1.205793	 -0.516503	 -0.814370	 -0.260448	 0.046823	 4
1462170677.384	 0	 -0.020149	 -0.022263	 0.004855	 -2.759789	 0.385426	 -1.205992	 -0.516571	 -0.814317	 -0.260494	 0.046746	 4
1462170677.393	 0	 -0.008133	 -0.006855	 0.012412	 -2.759699	 0.385427	 -1.206202	 -0.516645	 -0.814260	 -0.260523	 0.046755	 4
1462170677.403	 0	 -0.006973	 0.015482	 0.006428	 -2.759571	 0.385521	 -1.206328	 -0.516667	 -0.814222	 -0.260595	 0.046764	 4
1462170677.412	 0	 0.000350	 0.017843	 0.001446	 -2.759204	 0.385520	 -1.206403	 -0.516650	 -0.814194	 -0.260692	 0.046904	 4
1462170677.422	 0	 -0.019070	 0.023600	 -0.004609	 -2.758870	 0.385743	 -1.206492	 -0.516614	 -0.814158	 -0.260866	 0.046964	 4
1462170677.432	 0	 -0.027446	 0.014084	 -0.014607	 -2.758656	 0.386028	 -1.206492	 -0.516549	 -0.814146	 -0.261031	 0.046969	 4
1462170677.441	 0	 -0.023731	 -0.004721	 -0.012338	 -2.758756	 0.386385	 -1.206421	 -0.516486	 -0.814158	 -0.261142	 0.046835	 4
1462170677.451	 0	 -0.001775	 -0.025795	 -0.010184	 -2.759228	 0.386529	 -1.206294	 -0.516478	 -0.814198	 -0.261073	 0.046618	 4
1462170677.460	 0	 0.003090	 -0.039855	 -0.002901	 -2.759572	 0.386616	 -1.206280	 -0.516505	 -0.814208	 -0.261017	 0.046455	 4
1462170677.470	 0	 0.001838	 -0.045706	 0.004497	 -2.760376	 0.386792	 -1.206126	 -0.516525	 -0.814262	 -0.260874	 0.046096	 4
1462170677.480	 0	 -0.007947	 -0.052752	 0.015655	 -2.761216	 0.386983	 -1.206098	 -0.516598	 -0.814283	 -0.260730	 0.045703	 4
1462170677.489	 0	 -0.033614	 -0.051603	 0.031948	 -2.761738	 0.387188	 -1.206431	 -0.516775	 -0.814204	 -0.260682	 0.045388	 4
1462170677.499	 0	 -0.030304	 -0.030233	 0.059491	 -2.761834	 0.387160	 -1.207070	 -0.517051	 -0.814042	 -0.260661	 0.045274	 4
1462170677.509	 0	 -0.020758	 -0.013639	 0.070799	 -2.761713	 0.387124	 -1.207783	 -0.517330	 -0.813856	 -0.260694	 0.045240	 4
1462170677.518	 0	 -0.002571	 0.004080	 0.065924	 -2.761101	 0.386814	 -1.208623	 -0.517633	 -0.813632	 -0.260752	 0.045469	 4
1462170677.528	 0	 0.007251	 0.014622	 0.048591	 -2.760412	 0.386443	 -1.209282	 -0.517859	 -0.813455	 -0.260802	 0.045771	 4
1462170677.537	 0	 0.035368	 0.025205	 0.023712	 -2.759933	 0.385801	 -1.209512	 -0.517974	 -0.813400	 -0.260684	 0.046121	 4
1462170677.547	 0	 0.012529	 0.026096	 -0.005984	 -2.759699	 0.385408	 -1.209427	 -0.517960	 -0.813426	 -0.260591	 0.046341	 4
1462170677.557	 0	 -0.000686	 0.014194	 -0.017225	 -2.759626	 0.385426	 -1.209229	 -0.517867	 -0.813476	 -0.260612	 0.046391	 4
1462170677.566	 0	 -0.017715	 -0.004650	 -0.004911	 -2.759696	 0.385446	 -1.209217	 -0.517869	 -0.813480	 -0.260601	 0.046358	 4
1462170677.576	 0	 -0.038441	 -0.015264	 0.008750	 -2.759780	 0.385718	 -1.209369	 -0.517906	 -0.813436	 -0.260688	 0.046226	 4
1462170677.585	 0	 -0.008162	 -0.009182	 0.017359	 -2.759904	 0.385836	 -1.209564	 -0.517987	 -0.813385	 -0.260706	 0.046116	 4
1462170677.595	 0	 -0.007244	 -0.000759	 0.047263	 -2.759778	 0.385750	 -1.210000	 -0.518159	 -0.813272	 -0.260716	 0.046135	 4
1462170677.605	 0	 0.017036	 0.015803	 0.041102	 -2.759308	 0.385451	 -1.210423	 -0.518308	 -0.813158	 -0.260732	 0.046357	 4
1462170677.614	 0	 0.031640	 0.018206	 0.037327	 -2.758911	 0.384983	 -1.210756	 -0.518453	 -0.813074	 -0.260662	 0.046611	 4
1462170677.624	 0	 0.030658	 0.007480	 0.016097	 -2.758803	 0.384704	 -1.210822	 -0.518502	 -0.813061	 -0.260583	 0.046727	 4
1462170677.633	 0	 0.016368	 -0.006869	 -0.010074	 -2.758765	 0.384457	 -1.210755	 -0.518502	 -0.813084	 -0.260496	 0.046822	 4
1462170677.643	 0	 0.003235	 -0.022348	 -0.028808	 -2.759026	 0.384367	 -1.210486	 -0.518438	 -0.813162	 -0.260388	 0.046778	 4
1462170677.653	 0	 -0.007636	 -0.024792	 -0.034991	 -2.759504	 0.384393	 -1.210129	 -0.518352	 -0.813265	 -0.260266	 0.046622	 4
1462170677.662	 0	 -0.010058	 -0.035369	 -0.030119	 -2.759956	 0.384562	 -1.209836	 -0.518270	 -0.813347	 -0.260207	 0.046428	 4
1462170677.672	 0	 -0.005480	 -0.018725	 -0.006360	 -2.760198	 0.384667	 -1.209756	 -0.518255	 -0.813371	 -0.260183	 0.046309	 4
1462170677.681	 0	 0.021055	 -0.007899	 0.011015	 -2.760292	 0.384544	 -1.209770	 -0.518289	 -0.813372	 -0.260111	 0.046304	 4
1462170677.691	 0	 0.003882	 0.005035	 0.022420	 -2.760107	 0.384342	 -1.209989	 -0.518380	 -0.813316	 -0.260086	 0.046410	 4
1462170677.701	 0	 0.020737	 0.022829	 0.031220	 -2.759585	 0.383980	 -1.210314	 -0.518491	 -0.813229	 -0.260089	 0.046685	 4
1462170677.710	 0	 0.003750	 0.041505	 0.017834	 -2.758866	 0.383692	 -1.210656	 -0.518574	 -0.813130	 -0.260173	 0.047016	 4
1462170677.720	 0	 0.026832	 0.056878	 0.010425	 -2.758061	 0.383341	 -1.210766	 -0.518560	 -0.813091	 -0.260249	 0.047430	 4
1462170677.730	 0	 0.017140	 0.063852	 0.003092	 -2.757181	 0.383096	 -1.210829	 -0.518503	 -0.813059	 -0.260384	 0.047850	 4
1462170677.739	 0	 0.029287	 0.082688	 -0.006711	 -2.756501	 0.382850	 -1.210660	 -0.518378	 -0.813093	 -0.260461	 0.048220	 4
1462170677.749	 0	 0.043871	 0.082759	 -0.006783	 -2.755681	 0.382433	 -1.210467	 -0.518247	 -0.813132	 -0.260508	 0.048699	 4
1462170677.758	 0	 0.042770	 0.079155	 -0.017998	 -2.755041	 0.382029	 -1.210141	 -0.518083	 -0.813211	 -0.260510	 0.049118	 4
1462170677.768	 0	 0.033024	 0.068562	 -0.009363	 -2.754827	 0.381872	 -1.209733	 -0.517910	 -0.813315	 -0.260494	 0.049304	 4
1462170677.778	 0	 0.019809	 0.034362	 -0.008414	 -2.754848	 0.381829	 -1.209406	 -0.517786	 -0.813401	 -0.260465	 0.049350	 4
1462170677.787	 0	 0.017326	 0.009743	 0.011220	 -2.754936	 0.381727	 -1.209284	 -0.517761	 -0.813437	 -0.260399	 0.049360	 4
1462170677.797	 0	 0.019649	 -0.010119	 0.034608	 -2.754954	 0.381515	 -1.209453	 -0.517860	 -0.813398	 -0.260317	 0.049392	 4
1462170677.806	 0	 0.006189	 -0.008948	 0.044627	 -2.754950	 0.381325	 -1.209807	 -0.518028	 -0.813311	 -0.260254	 0.049402	 4
1462170677.816	 0	 0.028051	 0.002900	 0.039672	 -2.754801	 0.380948	 -1.210156	 -0.518199	 -0.813225	 -0.260155	 0.049527	 4
