% Gyrometer data recorded with 'snsrlog'
% 
% 
% Label description:
% 	 0: Default Label
% 	 1: still_drop
% 	 2: walk_drop
% 	 3: other
% 	 4: dtw_same
% 	 5: dtw_diff
% 	 6: delete
% 	 7: steal
% 
% Column description:
% 	 1: Seconds.milliseconds since 1970
% 	 2: Number of skipped measurements
% 	 3: Gyro X
% 	 4: Gyro Y
% 	 5: Gyro Z
% 	 6: Roll of the device
% 	 7: Pitch of the device
% 	 8: Yaw of the device
% 	 9: Quaternion X
% 	 10: Quaternion Y
% 	 11: Quaternion Z
% 	 12: Quaternion W
% 	 13: Label used for the current sample
% 
% 
1463569841.753	 0	 -0.890006	 0.831038	 -0.281139	 0.197630	 0.660242	 -0.059326	 0.325202	 0.083719	 0.004045	 0.941923	 1
1463569841.763	 0	 -1.001740	 0.916305	 -0.301754	 0.207283	 0.650116	 -0.060526	 0.320471	 0.088382	 0.004505	 0.943115	 1
1463569841.773	 0	 -1.125214	 1.008983	 -0.331789	 0.217787	 0.638735	 -0.061582	 0.315135	 0.093525	 0.005049	 0.944414	 1
1463569841.783	 0	 -1.244468	 1.111051	 -0.385221	 0.229297	 0.626072	 -0.062720	 0.309189	 0.099192	 0.005576	 0.945797	 1
1463569841.793	 0	 -1.374219	 1.253540	 -0.442448	 0.242178	 0.612044	 -0.063989	 0.302593	 0.105556	 0.006093	 0.947237	 1
1463569841.803	 0	 -1.534593	 1.456812	 -0.490316	 0.256857	 0.596402	 -0.065144	 0.295214	 0.112869	 0.006736	 0.948717	 1
1463569841.823	 1	 -1.842511	 1.869692	 -0.587172	 0.292048	 0.560042	 -0.066550	 0.277935	 0.130664	 0.008559	 0.951633	 1
1463569841.833	 1	 -1.923151	 2.002584	 -0.627864	 0.311928	 0.539988	 -0.066816	 0.268342	 0.140820	 0.009607	 0.952927	 1
1463569841.843	 1	 -1.964500	 2.087555	 -0.660818	 0.332587	 0.519421	 -0.066836	 0.258462	 0.151426	 0.010638	 0.954020	 1
1463569841.853	 1	 -2.033193	 2.232391	 -0.663135	 0.354175	 0.498162	 -0.066197	 0.248175	 0.162603	 0.011833	 0.954897	 1
1463569841.863	 1	 -2.007361	 2.309691	 -0.699942	 0.376742	 0.476842	 -0.065276	 0.237805	 0.174294	 0.013053	 0.955458	 1
1463569841.873	 1	 -1.908261	 2.340771	 -0.774054	 0.399876	 0.456084	 -0.064899	 0.227727	 0.186176	 0.013902	 0.955660	 1
1463569841.883	 1	 -1.820635	 2.415597	 -0.833803	 0.423901	 0.435930	 -0.065071	 0.217974	 0.198404	 0.014417	 0.955466	 1
1463569841.893	 1	 -1.775593	 2.497064	 -0.875002	 0.448808	 0.416101	 -0.065403	 0.208385	 0.211026	 0.014750	 0.954896	 1
1463569841.903	 1	 -1.768169	 2.531756	 -0.928032	 0.474192	 0.396214	 -0.065743	 0.198773	 0.223875	 0.014881	 0.954017	 1
1463569841.913	 1	 -1.811731	 2.609210	 -0.971694	 0.500042	 0.375834	 -0.065846	 0.188908	 0.236979	 0.014865	 0.952856	 1
1463569841.923	 1	 -1.902471	 2.856001	 -1.003778	 0.527672	 0.354590	 -0.065233	 0.178545	 0.251009	 0.014981	 0.951258	 1
1463569841.933	 1	 -2.008524	 3.069468	 -1.090392	 0.557453	 0.332137	 -0.064048	 0.167533	 0.266118	 0.015098	 0.949150	 1
1463569841.943	 1	 -2.131213	 3.436686	 -1.248968	 0.590342	 0.307942	 -0.062712	 0.155671	 0.282721	 0.014952	 0.946368	 1
1463569841.953	 1	 -2.152453	 3.817436	 -1.407236	 0.627278	 0.282422	 -0.061542	 0.143210	 0.301188	 0.014427	 0.942639	 1
1463569841.963	 1	 -2.018439	 4.078626	 -1.562640	 0.667399	 0.256804	 -0.061280	 0.130881	 0.320985	 0.013215	 0.937904	 1
1463569841.973	 1	 -1.823082	 4.184676	 -1.673127	 0.709302	 0.231869	 -0.062154	 0.119142	 0.341395	 0.011207	 0.932271	 1
1463569841.983	 1	 -1.652769	 4.170737	 -1.766395	 0.751428	 0.207652	 -0.063884	 0.108016	 0.361696	 0.008461	 0.925979	 1
1463569841.993	 1	 -1.572871	 4.259881	 -1.908008	 0.794122	 0.183244	 -0.066235	 0.097080	 0.382083	 0.004955	 0.919002	 1
1463569842.013	 2	 -1.379837	 4.941007	 -2.212422	 0.888002	 0.132005	 -0.072306	 0.075013	 0.426188	 -0.004257	 0.901509	 1
1463569842.023	 2	 -1.122409	 5.331737	 -2.348511	 0.940925	 0.106409	 -0.077013	 0.064793	 0.450497	 -0.010178	 0.890366	 1
1463569842.033	 2	 -0.808621	 5.702958	 -2.511916	 0.997596	 0.081015	 -0.083674	 0.055522	 0.476072	 -0.017343	 0.877480	 1
1463569842.043	 2	 -0.422192	 6.144748	 -2.741374	 1.058520	 0.055364	 -0.093056	 0.047340	 0.503044	 -0.026173	 0.862566	 1
1463569842.053	 2	 0.027143	 6.628434	 -3.034936	 1.124115	 0.028695	 -0.105933	 0.040334	 0.531483	 -0.037157	 0.845292	 1
1463569842.063	 2	 0.499041	 7.012325	 -3.440462	 1.193643	 -0.000241	 -0.122720	 0.034364	 0.560965	 -0.050788	 0.825565	 1
1463569842.073	 2	 0.915702	 7.052363	 -3.910521	 1.264030	 -0.033311	 -0.143184	 0.028849	 0.590138	 -0.067520	 0.803957	 1
1463569842.083	 2	 1.163056	 6.792161	 -4.197523	 1.331553	 -0.070156	 -0.165046	 0.023395	 0.617463	 -0.086374	 0.781493	 1
1463569842.093	 2	 1.319327	 6.398680	 -4.419960	 1.394649	 -0.110203	 -0.186642	 0.017716	 0.642338	 -0.106537	 0.758774	 1
1463569842.103	 2	 1.466607	 5.906335	 -4.638977	 1.452219	 -0.153480	 -0.207677	 0.011601	 0.664388	 -0.127907	 0.736270	 1
1463569842.113	 2	 1.614883	 5.426510	 -4.890924	 1.503981	 -0.200049	 -0.228103	 0.004895	 0.683563	 -0.150468	 0.714196	 1
1463569842.123	 2	 1.765340	 5.057314	 -4.993719	 1.550923	 -0.249067	 -0.248032	 -0.002094	 0.700262	 -0.173935	 0.692370	 1
1463569842.133	 2	 1.946323	 4.928400	 -4.950667	 1.595098	 -0.298726	 -0.267583	 -0.008609	 0.715219	 -0.197675	 0.670308	 1
1463569842.143	 2	 2.278902	 4.849762	 -4.953228	 1.637287	 -0.349178	 -0.288243	 -0.014164	 0.728708	 -0.222160	 0.647633	 1
1463569842.153	 2	 2.674043	 4.633132	 -4.892608	 1.675780	 -0.400341	 -0.311280	 -0.018510	 0.740209	 -0.247633	 0.624840	 1
1463569842.163	 2	 3.087147	 4.388706	 -4.844125	 1.709531	 -0.452264	 -0.337278	 -0.021685	 0.749482	 -0.274113	 0.602220	 1
1463569842.173	 2	 3.359797	 4.051588	 -4.581064	 1.737626	 -0.503339	 -0.366051	 -0.023521	 0.756424	 -0.300792	 0.580339	 1
1463569842.183	 2	 3.465933	 3.660059	 -4.261640	 1.759984	 -0.552103	 -0.396403	 -0.024246	 0.761231	 -0.326668	 0.559668	 1
1463569842.193	 2	 3.503953	 3.159566	 -4.035358	 1.775825	 -0.599063	 -0.427716	 -0.024649	 0.763848	 -0.351652	 0.540620	 1
1463569842.203	 2	 3.491391	 2.628923	 -3.880322	 1.784767	 -0.644544	 -0.459755	 -0.025263	 0.764351	 -0.375736	 0.523404	 1
1463569842.213	 2	 3.462777	 2.072939	 -3.706198	 1.786550	 -0.688727	 -0.492746	 -0.026373	 0.762854	 -0.398998	 0.508093	 1
1463569842.223	 2	 3.332947	 1.621774	 -3.345841	 1.781746	 -0.729503	 -0.526537	 -0.027499	 0.759799	 -0.420689	 0.494945	 1
1463569842.233	 2	 3.196604	 1.362176	 -2.971921	 1.772465	 -0.766117	 -0.561041	 -0.028168	 0.755895	 -0.440609	 0.483418	 1
1463569842.243	 2	 3.128912	 1.198974	 -2.624347	 1.759394	 -0.798754	 -0.597068	 -0.028084	 0.751402	 -0.459084	 0.473126	 1
1463569842.253	 2	 3.046831	 1.038925	 -2.141265	 1.742500	 -0.826679	 -0.635185	 -0.026875	 0.746419	 -0.476097	 0.464185	 1
1463569842.263	 2	 2.764914	 0.930457	 -1.519546	 1.723837	 -0.847818	 -0.673110	 -0.024252	 0.741513	 -0.490668	 0.456962	 1
1463569842.273	 2	 2.331285	 0.816847	 -0.934922	 1.706294	 -0.862000	 -0.707623	 -0.020573	 0.737252	 -0.502251	 0.451419	 1
1463569842.283	 2	 1.826309	 0.560484	 -0.410687	 1.690635	 -0.869810	 -0.736429	 -0.016570	 0.733675	 -0.510690	 0.447930	 1
1463569842.293	 2	 1.341923	 0.248915	 -0.010774	 1.676795	 -0.872459	 -0.758824	 -0.012822	 0.730649	 -0.516295	 0.446573	 1
1463569842.303	 2	 0.880305	 -0.095647	 0.249020	 1.664717	 -0.871549	 -0.774470	 -0.009934	 0.728068	 -0.519487	 0.447160	 1
1463569842.313	 2	 0.515611	 -0.413416	 0.429352	 1.653889	 -0.868228	 -0.784243	 -0.008061	 0.725776	 -0.520780	 0.449413	 1
1463569842.323	 2	 0.310995	 -0.713720	 0.589269	 1.642878	 -0.863023	 -0.790310	 -0.006941	 0.723439	 -0.520791	 0.453172	 1
1463569842.333	 2	 0.236591	 -0.997505	 0.733285	 1.630160	 -0.856223	 -0.794827	 -0.006272	 0.720694	 -0.520071	 0.458353	 1
1463569842.343	 2	 0.229758	 -1.211272	 0.879497	 1.615413	 -0.847946	 -0.798976	 -0.005738	 0.717440	 -0.518922	 0.464723	 1
1463569842.353	 2	 0.184714	 -1.390811	 1.037017	 1.599263	 -0.838056	 -0.802554	 -0.005189	 0.713787	 -0.517272	 0.472134	 1
1463569842.363	 2	 0.110288	 -1.473397	 1.205287	 1.582982	 -0.826467	 -0.804809	 -0.004520	 0.710005	 -0.514926	 0.480337	 1
1463569842.373	 2	 0.074011	 -1.411235	 1.402281	 1.567719	 -0.812960	 -0.806061	 -0.003227	 0.706351	 -0.511905	 0.488887	 1
1463569842.383	 2	 0.036069	 -1.240658	 1.588576	 1.554481	 -0.797500	 -0.806570	 -0.000939	 0.703066	 -0.508258	 0.497365	 1
1463569842.393	 2	 -0.081004	 -1.043777	 1.703332	 1.544423	 -0.780754	 -0.805320	 0.002041	 0.700449	 -0.503876	 0.505446	 1
1463569842.403	 2	 -0.196278	 -0.873874	 1.765599	 1.537433	 -0.763273	 -0.802248	 0.005458	 0.698512	 -0.498840	 0.513040	 1
1463569842.413	 2	 -0.297087	 -0.741783	 1.752786	 1.532864	 -0.745778	 -0.797631	 0.008976	 0.697130	 -0.493366	 0.520114	 1
1463569842.423	 2	 -0.362101	 -0.684498	 1.705926	 1.529711	 -0.728742	 -0.792030	 0.012357	 0.696079	 -0.487695	 0.526758	 1
1463569842.433	 2	 -0.456575	 -0.725316	 1.612581	 1.526965	 -0.712529	 -0.785434	 0.015213	 0.695119	 -0.481913	 0.533234	 1
1463569842.443	 2	 -0.752985	 -0.900783	 1.350286	 1.524650	 -0.698518	 -0.775926	 0.016387	 0.694311	 -0.475846	 0.539661	 1
1463569842.453	 2	 -1.276725	 -1.205156	 0.967274	 1.523273	 -0.688481	 -0.760498	 0.014314	 0.693868	 -0.469110	 0.546149	 1
1463569842.463	 2	 -1.775384	 -1.504414	 0.713048	 1.522744	 -0.681614	 -0.738647	 0.009081	 0.693734	 -0.461338	 0.553008	 1
1463569842.473	 2	 -2.148909	 -1.682443	 0.652829	 1.523165	 -0.676103	 -0.711765	 0.001835	 0.693849	 -0.452414	 0.560260	 1
1463569842.483	 2	 -2.187948	 -1.410855	 0.980754	 1.525680	 -0.668407	 -0.682737	 -0.004909	 0.694462	 -0.442187	 0.567599	 1
1463569842.493	 2	 -1.871174	 -0.666376	 1.395242	 1.532848	 -0.656303	 -0.657306	 -0.007837	 0.696355	 -0.431681	 0.573307	 1
1463569842.503	 2	 -1.529547	 -0.036179	 1.754096	 1.543641	 -0.640131	 -0.636406	 -0.007037	 0.699330	 -0.421241	 0.577446	 1
1463569842.513	 2	 -1.247083	 0.401595	 1.955008	 1.556538	 -0.621251	 -0.619674	 -0.003488	 0.702987	 -0.411106	 0.580335	 1
1463569842.523	 2	 -1.033537	 0.638264	 1.970271	 1.570182	 -0.601534	 -0.606206	 0.001529	 0.706926	 -0.401518	 0.582268	 1
1463569842.533	 2	 -0.773532	 0.693749	 1.806528	 1.582651	 -0.582957	 -0.596214	 0.007017	 0.710562	 -0.393128	 0.583525	 1
1463569842.543	 2	 -0.643561	 0.618263	 1.570226	 1.593231	 -0.566492	 -0.588640	 0.012161	 0.713664	 -0.385959	 0.584441	 1
1463569842.553	 2	 -0.627625	 0.431785	 1.235834	 1.601773	 -0.553098	 -0.581605	 0.015963	 0.716186	 -0.379798	 0.585300	 1
1463569842.563	 2	 -0.553913	 0.275988	 0.902291	 1.608184	 -0.543107	 -0.575231	 0.018367	 0.718097	 -0.374830	 0.586091	 1
1463569842.573	 2	 -0.434336	 0.242165	 0.686716	 1.613199	 -0.535607	 -0.570169	 0.020088	 0.719599	 -0.370993	 0.586633	 1
1463569842.593	 3	 -0.349494	 0.498076	 0.516771	 1.624741	 -0.524192	 -0.562347	 0.023342	 0.723045	 -0.365033	 0.586013	 1
1463569842.603	 3	 -0.335431	 0.725979	 0.562466	 1.633176	 -0.518535	 -0.558799	 0.025540	 0.725548	 -0.362120	 0.584634	 1
1463569842.613	 3	 -0.264793	 0.919999	 0.652115	 1.643313	 -0.512063	 -0.556008	 0.028573	 0.728535	 -0.359126	 0.582623	 1
1463569842.623	 3	 -0.199395	 0.904537	 0.746254	 1.653429	 -0.504696	 -0.554217	 0.032243	 0.731495	 -0.356106	 0.580572	 1
1463569842.633	 3	 -0.198818	 0.718054	 0.844695	 1.661803	 -0.496364	 -0.552821	 0.036047	 0.733933	 -0.352887	 0.579236	 1
1463569842.643	 3	 -0.241507	 0.422034	 0.927573	 1.667605	 -0.487088	 -0.551189	 0.039607	 0.735622	 -0.349311	 0.579028	 1
1463569842.653	 3	 -0.258299	 0.038048	 0.917752	 1.669858	 -0.477610	 -0.549319	 0.042513	 0.736280	 -0.345648	 0.580182	 1
1463569842.663	 3	 -0.283214	 -0.405139	 0.793136	 1.667892	 -0.469085	 -0.547177	 0.044266	 0.735715	 -0.342295	 0.582751	 1
1463569842.673	 3	 -0.369162	 -0.749352	 0.519978	 1.662528	 -0.462737	 -0.543975	 0.044323	 0.734180	 -0.339410	 0.586358	 1
1463569842.683	 3	 -0.425780	 -0.893414	 0.138653	 1.655812	 -0.460039	 -0.539537	 0.042474	 0.732283	 -0.337373	 0.590031	 1
1463569842.693	 3	 -0.404659	 -0.792478	 -0.307146	 1.649474	 -0.461509	 -0.534853	 0.039193	 0.730514	 -0.336595	 0.592889	 1
1463569842.703	 3	 -0.430906	 -0.394954	 -0.940544	 1.646905	 -0.468985	 -0.529453	 0.034239	 0.729891	 -0.337462	 0.593470	 1
1463569842.713	 3	 -0.513811	 0.144743	 -1.498589	 1.649932	 -0.482219	 -0.522792	 0.027804	 0.730921	 -0.339725	 0.591243	 1
1463569842.723	 3	 -0.627714	 0.844550	 -1.990927	 1.660597	 -0.500343	 -0.514233	 0.020325	 0.734119	 -0.342952	 0.585696	 1
1463569842.733	 3	 -0.692458	 1.571757	 -2.498360	 1.679647	 -0.523240	 -0.503781	 0.012026	 0.739531	 -0.347218	 0.576532	 1
1463569842.743	 3	 -0.688644	 2.179193	 -3.067187	 1.706233	 -0.551378	 -0.491633	 0.002765	 0.746658	 -0.352892	 0.563880	 1
1463569842.753	 3	 -0.634997	 2.538268	 -3.690985	 1.739117	 -0.585626	 -0.477321	 -0.008013	 0.754812	 -0.360314	 0.548059	 1
1463569842.773	 4	 -0.405293	 0.695821	 -4.661856	 1.792860	 -0.668687	 -0.443007	 -0.037788	 0.764838	 -0.379639	 0.519104	 1
1463569842.783	 4	 0.086099	 -0.280153	 -4.991747	 1.801465	 -0.716414	 -0.428010	 -0.056875	 0.763529	 -0.392043	 0.509991	 1
1463569842.793	 4	 0.663492	 -0.454338	 -5.310664	 1.803314	 -0.768524	 -0.418602	 -0.076378	 0.759604	 -0.407105	 0.501431	 1
1463569842.803	 4	 1.166141	 -0.183727	 -5.631185	 1.803259	 -0.824948	 -0.414907	 -0.095345	 0.754370	 -0.424735	 0.491360	 1
1463569842.813	 4	 1.370683	 0.578854	 -5.552332	 1.806414	 -0.882852	 -0.415120	 -0.112499	 0.749304	 -0.443658	 0.478597	 1
1463569842.823	 4	 1.028080	 1.818323	 -4.614865	 1.822485	 -0.933038	 -0.413891	 -0.124703	 0.747387	 -0.460313	 0.462573	 1
1463569842.833	 4	 0.667668	 2.581989	 -3.295865	 1.850609	 -0.969966	 -0.409886	 -0.130770	 0.748975	 -0.472916	 0.445293	 1
1463569842.843	 4	 0.547159	 1.603917	 -2.110264	 1.871994	 -0.994556	 -0.407326	 -0.133911	 0.750260	 -0.481581	 0.432732	 1
1463569842.853	 4	 0.287205	 0.386815	 -1.088734	 1.879105	 -1.008314	 -0.406476	 -0.136543	 0.749846	 -0.486249	 0.427375	 1
1463569842.863	 4	 -0.110572	 -0.115568	 -0.419581	 1.881802	 -1.013649	 -0.403064	 -0.138723	 0.749441	 -0.487400	 0.426070	 1
1463569842.873	 4	 -0.468980	 -0.374687	 -0.069301	 1.885228	 -1.013762	 -0.395296	 -0.140834	 0.749612	 -0.486020	 0.426652	 1
1463569842.883	 4	 -0.634165	 -0.583466	 -0.032504	 1.889267	 -1.012117	 -0.384235	 -0.143525	 0.749924	 -0.483417	 0.428161	 1
1463569842.893	 4	 -0.539143	 -0.716359	 -0.132618	 1.891728	 -1.011312	 -0.373244	 -0.146820	 0.749771	 -0.480979	 0.430054	 1
1463569842.903	 4	 -0.261143	 -0.731851	 -0.249215	 1.890056	 -1.012052	 -0.366337	 -0.150022	 0.748790	 -0.479604	 0.432188	 1
1463569842.913	 4	 0.043496	 -0.596867	 -0.285781	 1.885541	 -1.014654	 -0.364121	 -0.152683	 0.747263	 -0.479621	 0.433877	 1
1463569842.923	 4	 0.287981	 -0.370849	 -0.260229	 1.879031	 -1.017895	 -0.366761	 -0.154196	 0.745576	 -0.480736	 0.435008	 1
1463569842.933	 4	 0.407551	 -0.141406	 -0.252740	 1.872265	 -1.021472	 -0.372369	 -0.154774	 0.744015	 -0.482576	 0.435438	 1
1463569842.943	 4	 0.419797	 0.000903	 -0.286772	 1.877668	 -1.030082	 -0.369165	 -0.157155	 0.743673	 -0.485044	 0.432418	 1
1463569842.953	 4	 0.386786	 0.099197	 -0.385752	 1.873952	 -1.034677	 -0.374403	 -0.157442	 0.742602	 -0.487343	 0.431568	 1
1463569842.963	 4	 0.421543	 0.084554	 -0.484241	 1.870286	 -1.040280	 -0.379539	 -0.158059	 0.741389	 -0.489930	 0.430497	 1
1463569842.973	 4	 0.440389	 0.173471	 -0.681809	 1.867848	 -1.047527	 -0.384138	 -0.159063	 0.740157	 -0.493002	 0.428737	 1
1463569842.983	 4	 0.500063	 0.164898	 -0.961654	 1.868351	 -1.058386	 -0.386191	 -0.161339	 0.738810	 -0.496875	 0.425729	 1
1463569842.993	 4	 0.540296	 0.128519	 -1.268217	 1.866823	 -1.071323	 -0.389516	 -0.164255	 0.736806	 -0.501476	 0.422682	 1
1463569843.003	 4	 0.504674	 0.071124	 -1.570071	 1.866152	 -1.088802	 -0.391168	 -0.168894	 0.734125	 -0.507157	 0.418720	 1
1463569843.013	 4	 0.374099	 -0.026027	 -1.819226	 1.868542	 -1.106845	 -0.388514	 -0.174482	 0.731570	 -0.512336	 0.414576	 1
1463569843.023	 4	 0.192568	 -0.137305	 -1.983874	 1.874533	 -1.126174	 -0.380595	 -0.181392	 0.728985	 -0.517134	 0.410184	 1
1463569843.033	 4	 0.006022	 -0.239549	 -2.078054	 1.884868	 -1.145936	 -0.366851	 -0.189335	 0.726514	 -0.521314	 0.405661	 1
1463569843.043	 4	 -0.071206	 -0.271669	 -2.138431	 1.898689	 -1.166046	 -0.348777	 -0.197915	 0.724044	 -0.525157	 0.400999	 1
1463569843.053	 4	 -0.003753	 -0.178669	 -2.193573	 1.914538	 -1.186538	 -0.329377	 -0.206395	 0.721505	 -0.529189	 0.395969	 1
1463569843.073	 5	 0.176176	 0.019167	 -2.266836	 1.949268	 -1.229363	 -0.291192	 -0.222294	 0.715854	 -0.538716	 0.384609	 1
1463569843.083	 5	 0.204002	 0.091990	 -2.333544	 1.970232	 -1.251530	 -0.269808	 -0.229981	 0.712840	 -0.543922	 0.378308	 1
1463569843.093	 5	 0.212667	 0.176556	 -2.402107	 1.995753	 -1.274249	 -0.244654	 -0.237650	 0.709761	 -0.549330	 0.371481	 1
1463569843.103	 5	 0.217097	 0.227452	 -2.421921	 2.026477	 -1.297061	 -0.214915	 -0.245220	 0.706647	 -0.554808	 0.364288	 1
1463569843.113	 5	 0.216941	 0.183934	 -2.409536	 2.062243	 -1.319527	 -0.179969	 -0.252771	 0.703400	 -0.560176	 0.357124	 1
1463569843.123	 5	 0.230207	 0.061523	 -2.417182	 2.102681	 -1.341534	 -0.139244	 -0.260507	 0.699832	 -0.565337	 0.350379	 1
1463569843.133	 5	 0.256379	 0.004636	 -2.477622	 2.151806	 -1.363726	 -0.089028	 -0.268625	 0.695890	 -0.570483	 0.343696	 1
1463569843.143	 5	 0.302980	 0.039711	 -2.608791	 2.214695	 -1.386450	 -0.025235	 -0.276961	 0.691602	 -0.575908	 0.336616	 1
1463569843.153	 5	 0.349110	 0.035967	 -2.812788	 2.300402	 -1.409937	 0.061355	 -0.285786	 0.686810	 -0.581716	 0.328975	 1
1463569843.173	 6	 0.381577	 -0.058751	 -3.393726	 2.622628	 -1.456232	 0.386574	 -0.306144	 0.675209	 -0.594421	 0.311500	 1
1463569843.183	 6	 0.339050	 -0.257293	 -3.655250	 2.924046	 -1.472622	 0.691699	 -0.318282	 0.668244	 -0.600793	 0.301985	 1
1463569843.193	 6	 0.287006	 -0.531571	 -3.804424	 -2.970684	 -1.476573	 1.086527	 -0.331767	 0.660520	 -0.606654	 0.292599	 1
1463569843.203	 6	 0.211087	 -0.805618	 -3.784998	 -2.611434	 -1.465522	 1.454979	 -0.346163	 0.652303	 -0.611637	 0.283853	 1
1463569843.213	 6	 0.044239	 -1.043062	 -3.594983	 -2.366740	 -1.443877	 1.711142	 -0.360881	 0.644194	 -0.615319	 0.275971	 1
1463569843.223	 6	 -0.103288	 -1.161374	 -3.249493	 -2.224915	 -1.418347	 1.866015	 -0.375223	 0.636717	 -0.617495	 0.269258	 1
1463569843.233	 6	 -0.013144	 -0.884793	 -2.914120	 -2.134319	 -1.393447	 1.967782	 -0.387807	 0.629861	 -0.619445	 0.263000	 1
1463569843.243	 6	 0.217972	 -0.282764	 -2.670734	 -2.059922	 -1.370689	 2.048075	 -0.397520	 0.623438	 -0.622601	 0.256262	 1
1463569843.253	 6	 0.313678	 0.450638	 -2.552838	 -1.991338	 -1.348918	 2.115464	 -0.404277	 0.617642	 -0.627353	 0.248008	 1
1463569843.263	 6	 0.031388	 0.962422	 -2.494461	 -1.937476	 -1.326241	 2.162004	 -0.409137	 0.613197	 -0.632521	 0.237727	 1
1463569843.273	 6	 -0.376365	 1.310028	 -2.392823	 -1.903567	 -1.302488	 2.184424	 -0.413005	 0.610513	 -0.636989	 0.225712	 1
1463569843.283	 6	 -0.608176	 1.666185	 -2.067762	 -1.882486	 -1.280171	 2.189930	 -0.415181	 0.609559	 -0.640915	 0.212815	 1
1463569843.293	 6	 -0.624779	 1.891182	 -1.409014	 -1.868027	 -1.263044	 2.185713	 -0.414763	 0.610189	 -0.644474	 0.200735	 1
1463569843.303	 6	 -0.480513	 1.846316	 -0.498395	 -1.858228	 -1.254566	 2.176292	 -0.411439	 0.612208	 -0.647472	 0.191571	 1
1463569843.313	 6	 -0.249708	 1.556020	 0.190705	 -1.851368	 -1.254127	 2.166271	 -0.406281	 0.614858	 -0.649822	 0.186055	 1
1463569843.323	 6	 0.023161	 1.100315	 0.381255	 -1.843474	 -1.257515	 2.161693	 -0.401213	 0.616868	 -0.651823	 0.183381	 1
1463569843.333	 6	 0.221776	 0.576385	 0.227575	 -1.833255	 -1.260658	 2.164983	 -0.397883	 0.617480	 -0.653542	 0.182457	 1
1463569843.343	 6	 0.266523	 0.023024	 0.060040	 -1.824388	 -1.262265	 2.172580	 -0.396810	 0.616955	 -0.654595	 0.182795	 1
1463569843.353	 6	 0.177173	 -0.490262	 -0.062258	 -1.821531	 -1.262471	 2.179454	 -0.397928	 0.615874	 -0.654529	 0.184239	 1
1463569843.363	 6	 0.016026	 -0.827949	 -0.199349	 -1.826067	 -1.261013	 2.182667	 -0.400867	 0.614650	 -0.653345	 0.186151	 1
1463569843.373	 6	 -0.153269	 -0.888799	 -0.298623	 -1.836097	 -1.258037	 2.181487	 -0.404731	 0.613621	 -0.651469	 0.187753	 1
1463569843.383	 6	 -0.281661	 -0.720476	 -0.312991	 -1.848702	 -1.254322	 2.176361	 -0.408450	 0.613073	 -0.649419	 0.188585	 1
1463569843.393	 6	 -0.362379	 -0.467686	 -0.247056	 -1.861772	 -1.250781	 2.168180	 -0.411315	 0.613143	 -0.647528	 0.188634	 1
1463569843.403	 6	 -0.390936	 -0.249027	 -0.173366	 -1.874220	 -1.247849	 2.158234	 -0.413231	 0.613720	 -0.645900	 0.188152	 1
1463569843.413	 6	 -0.382695	 -0.095804	 -0.161355	 -1.885039	 -1.245153	 2.148184	 -0.414501	 0.614518	 -0.644594	 0.187233	 1
1463569843.423	 6	 -0.352490	 -0.008836	 -0.183189	 -1.893791	 -1.242336	 2.139226	 -0.415470	 0.615289	 -0.643592	 0.185995	 1
1463569843.433	 6	 -0.300004	 0.036707	 -0.188552	 -1.900458	 -1.239542	 2.131897	 -0.416256	 0.615933	 -0.642854	 0.184653	 1
1463569843.443	 6	 -0.231551	 0.058932	 -0.176152	 -1.905025	 -1.237026	 2.126481	 -0.416863	 0.616409	 -0.642367	 0.183384	 1
1463569843.453	 6	 -0.154604	 0.051526	 -0.139589	 -1.907803	 -1.235027	 2.122949	 -0.417308	 0.616709	 -0.642081	 0.182363	 1
1463569843.463	 6	 -0.064881	 0.016613	 -0.077815	 -1.909011	 -1.233849	 2.121382	 -0.417591	 0.616819	 -0.641952	 0.181794	 1
1463569843.473	 6	 0.034527	 -0.013967	 -0.001164	 -1.908634	 -1.233681	 2.121862	 -0.417672	 0.616738	 -0.641984	 0.181770	 1
1463569843.483	 6	 0.124526	 0.001181	 0.070665	 -1.906391	 -1.234532	 2.124300	 -0.417430	 0.616511	 -0.642244	 0.182178	 1
1463569843.493	 6	 0.179460	 0.063104	 0.125117	 -1.902432	 -1.236145	 2.128023	 -0.416788	 0.616244	 -0.642754	 0.182753	 1
1463569843.503	 6	 0.185345	 0.148444	 0.162095	 -1.897487	 -1.238189	 2.131916	 -0.415741	 0.616076	 -0.643454	 0.183241	 1
1463569843.513	 6	 0.145152	 0.198774	 0.192755	 -1.892937	 -1.240447	 2.134701	 -0.414409	 0.616128	 -0.644168	 0.183574	 1
1463569843.523	 6	 0.070444	 0.193710	 0.197621	 -1.890276	 -1.242617	 2.135428	 -0.413078	 0.616427	 -0.644674	 0.183794	 1
1463569843.533	 6	 -0.017437	 0.128965	 0.180732	 -1.890373	 -1.244397	 2.133745	 -0.412018	 0.616934	 -0.644825	 0.183941	 1
1463569843.544	 6	 -0.090812	 -0.025188	 0.160752	 -1.893848	 -1.245738	 2.129878	 -0.411513	 0.617536	 -0.644479	 0.184264	 1
1463569843.553	 6	 -0.120767	 -0.263379	 0.156665	 -1.900658	 -1.246840	 2.124809	 -0.411785	 0.618051	 -0.643559	 0.185144	 1
1463569843.564	 6	 -0.075951	 -0.468974	 0.130915	 -1.908887	 -1.247864	 2.120603	 -0.412800	 0.618244	 -0.642267	 0.186716	 1
1463569843.574	 6	 0.004493	 -0.573750	 0.088741	 -1.915860	 -1.248746	 2.119090	 -0.414285	 0.617980	 -0.640981	 0.188713	 1
1463569843.584	 6	 0.056703	 -0.571941	 0.065922	 -1.920989	 -1.249559	 2.119761	 -0.415872	 0.617424	 -0.639865	 0.190814	 1
1463569843.594	 6	 0.067608	 -0.521989	 0.065226	 -1.925152	 -1.250411	 2.121031	 -0.417320	 0.616833	 -0.638891	 0.192822	 1
1463569843.604	 6	 0.046453	 -0.454097	 0.031938	 -1.928847	 -1.251013	 2.122127	 -0.418643	 0.616297	 -0.638022	 0.194535	 1
1463569843.614	 6	 0.029570	 -0.301851	 -0.100785	 -1.930631	 -1.250553	 2.123861	 -0.419895	 0.615720	 -0.637471	 0.195466	 1
1463569843.624	 6	 -0.051454	 -0.210782	 -0.188756	 -1.931789	 -1.248796	 2.125029	 -0.421190	 0.615213	 -0.637084	 0.195541	 1
1463569843.634	 6	 -0.125595	 -0.188546	 -0.093221	 -1.935436	 -1.247219	 2.123198	 -0.422295	 0.615110	 -0.636466	 0.195492	 1
1463569843.644	 6	 -0.133480	 -0.175738	 0.056173	 -1.941255	 -1.246937	 2.118966	 -0.422935	 0.615412	 -0.635645	 0.195831	 1
1463569843.654	 6	 -0.087787	 -0.016114	 0.086036	 -1.945737	 -1.247386	 2.115008	 -0.422996	 0.615846	 -0.635094	 0.196121	 1
1463569843.664	 6	 -0.090878	 0.218021	 0.104228	 -1.947509	 -1.247970	 2.111413	 -0.422263	 0.616479	 -0.635085	 0.195743	 1
1463569843.674	 6	 -0.151877	 0.584512	 0.163589	 -1.948178	 -1.248870	 2.105765	 -0.420442	 0.617675	 -0.635515	 0.194490	 1
1463569843.684	 6	 -0.366053	 1.253765	 0.256943	 -1.947898	 -1.249845	 2.094540	 -0.416564	 0.620126	 -0.636680	 0.191197	 1
1463569843.694	 6	 -0.695864	 1.258674	 0.507117	 -1.957675	 -1.251645	 2.070788	 -0.411705	 0.624251	 -0.636954	 0.187347	 1
1463569843.703	 6	 -0.771776	 1.205911	 0.533931	 -1.972987	 -1.253766	 2.041525	 -0.406723	 0.628960	 -0.636609	 0.183617	 1
1463569843.714	 6	 -0.606789	 0.091970	 0.407026	 -1.992800	 -1.255090	 2.016079	 -0.404567	 0.632386	 -0.634974	 0.182270	 1
1463569843.724	 6	 -0.051501	 -0.822390	 0.239148	 -2.008851	 -1.256838	 2.006149	 -0.405942	 0.633016	 -0.632718	 0.184851	 1
1463569843.734	 6	 0.506175	 -0.777393	 0.069518	 -2.007943	 -1.259411	 2.015896	 -0.407897	 0.631247	 -0.632119	 0.188605	 1
1463569843.744	 6	 0.771760	 -0.310571	 0.016129	 -1.991859	 -1.262652	 2.037309	 -0.408496	 0.628580	 -0.633512	 0.191522	 1
1463569843.753	 6	 0.722253	 0.026966	 0.047411	 -1.971049	 -1.265977	 2.059585	 -0.407797	 0.626237	 -0.635739	 0.193301	 1
1463569843.763	 6	 0.512593	 0.160430	 0.033426	 -1.953308	 -1.268542	 2.076714	 -0.406669	 0.624639	 -0.637768	 0.194161	 1
1463569843.774	 6	 0.279720	 0.155422	 -0.017881	 -1.941619	 -1.269731	 2.087284	 -0.405849	 0.623712	 -0.639145	 0.194329	 1
1463569843.784	 6	 0.133539	 0.175923	 -0.036667	 -1.934679	 -1.269995	 2.092826	 -0.405271	 0.623282	 -0.640020	 0.194036	 1
1463569843.794	 6	 0.089344	 0.304784	 -0.031886	 -1.928753	 -1.270009	 2.096237	 -0.404432	 0.623166	 -0.640890	 0.193286	 1
1463569843.804	 6	 0.096613	 0.492979	 -0.037658	 -1.921118	 -1.270020	 2.099576	 -0.403020	 0.623228	 -0.642109	 0.191982	 1
1463569843.814	 6	 0.090763	 0.633194	 -0.065078	 -1.911603	 -1.269810	 2.103215	 -0.401164	 0.623389	 -0.643671	 0.190109	 1
1463569843.824	 6	 0.044775	 0.651074	 -0.111405	 -1.902205	 -1.269057	 2.106196	 -0.399309	 0.623618	 -0.645260	 0.187861	 1
1463569843.834	 6	 -0.014502	 0.558448	 -0.147986	 -1.895008	 -1.267765	 2.107635	 -0.397854	 0.623894	 -0.646545	 0.185603	 1
1463569843.844	 6	 -0.082574	 0.395785	 -0.165960	 -1.890849	 -1.265961	 2.107329	 -0.397000	 0.624183	 -0.647379	 0.183539	 1
1463569843.854	 6	 -0.113370	 0.107391	 -0.053273	 -1.891430	 -1.264760	 2.104783	 -0.396784	 0.624532	 -0.647483	 0.182452	 1
1463569843.864	 6	 -0.058743	 -0.235998	 0.137025	 -1.896144	 -1.265357	 2.101396	 -0.397057	 0.624824	 -0.646864	 0.183050	 1
1463569843.874	 6	 0.048902	 -0.553796	 0.210931	 -1.902424	 -1.267380	 2.099836	 -0.397941	 0.624725	 -0.645787	 0.185256	 1
1463569843.884	 6	 0.156335	 -0.769694	 0.109937	 -1.907193	 -1.269150	 2.102414	 -0.399708	 0.623912	 -0.644621	 0.188231	 1
1463569843.894	 6	 0.233236	 -0.869806	 -0.023819	 -1.909175	 -1.269938	 2.109230	 -0.402214	 0.622423	 -0.643587	 0.191336	 1
1463569843.904	 6	 0.288003	 -1.224369	 -0.054239	 -1.911454	 -1.270316	 2.118497	 -0.405703	 0.620363	 -0.642236	 0.195163	 1
1463569843.914	 6	 0.391973	 -1.370250	 -0.035187	 -1.913561	 -1.271184	 2.130587	 -0.409839	 0.617763	 -0.640621	 0.200014	 1
1463569843.924	 6	 0.449931	 -1.312877	 -0.020237	 -1.913070	 -1.272411	 2.144964	 -0.413715	 0.614958	 -0.639277	 0.204918	 1
1463569843.934	 6	 0.460319	 -1.182837	 0.022447	 -1.911362	 -1.274054	 2.159621	 -0.417134	 0.612237	 -0.638121	 0.209683	 1
1463569843.944	 6	 0.427915	 -0.867442	 0.087479	 -1.908055	 -1.276161	 2.173009	 -0.419489	 0.609979	 -0.637399	 0.213722	 1
1463569843.954	 6	 0.368154	 -0.483772	 0.169370	 -1.903504	 -1.278833	 2.183856	 -0.420480	 0.608441	 -0.637183	 0.216780	 1
1463569843.964	 6	 0.293287	 -0.106688	 0.217227	 -1.897866	 -1.281813	 2.191804	 -0.420137	 0.607669	 -0.637489	 0.218701	 1
1463569843.974	 6	 0.215484	 0.132920	 0.226528	 -1.891890	 -1.284704	 2.197138	 -0.418918	 0.607487	 -0.638138	 0.219654	 1
1463569843.984	 6	 0.132348	 0.187130	 0.188323	 -1.887241	 -1.287085	 2.200061	 -0.417553	 0.607621	 -0.638767	 0.220052	 1
1463569843.994	 6	 0.070854	 0.080652	 0.147369	 -1.884988	 -1.288831	 2.201202	 -0.416616	 0.607805	 -0.639093	 0.220375	 1
1463569844.004	 6	 0.063430	 -0.126805	 0.136977	 -1.885194	 -1.290330	 2.201737	 -0.416360	 0.607819	 -0.638974	 0.221161	 1
1463569844.014	 6	 0.112634	 -0.326925	 0.134686	 -1.886257	 -1.291931	 2.203538	 -0.416729	 0.607485	 -0.638535	 0.222648	 1
1463569844.024	 6	 0.203618	 -0.475204	 0.111199	 -1.886031	 -1.293624	 2.208376	 -0.417579	 0.606669	 -0.638020	 0.224746	 1
1463569844.034	 6	 0.311808	 -0.562135	 0.047634	 -1.882627	 -1.295122	 2.217583	 -0.418798	 0.605279	 -0.637671	 0.227203	 1
1463569844.044	 6	 0.360402	 -0.602194	 -0.029897	 -1.876537	 -1.296108	 2.230104	 -0.420323	 0.603450	 -0.637501	 0.229716	 1
1463569844.054	 6	 0.316565	 -0.562145	 -0.098417	 -1.870132	 -1.296307	 2.242762	 -0.422030	 0.601544	 -0.637385	 0.231894	 1
1463569844.064	 6	 0.204961	 -0.435519	 -0.135700	 -1.865541	 -1.295775	 2.252449	 -0.423648	 0.599972	 -0.637241	 0.233407	 1
1463569844.074	 6	 0.085300	 -0.225747	 -0.150824	 -1.862989	 -1.294694	 2.258021	 -0.424852	 0.598969	 -0.637159	 0.234022	 1
1463569844.084	 6	 -0.024728	 -0.017006	 -0.157516	 -1.862041	 -1.293202	 2.259687	 -0.425527	 0.598558	 -0.637204	 0.233722	 1
1463569844.094	 6	 -0.099858	 0.099315	 -0.134464	 -1.862660	 -1.291590	 2.258217	 -0.425800	 0.598618	 -0.637285	 0.232848	 1
1463569844.104	 6	 -0.130614	 0.092371	 -0.077775	 -1.864875	 -1.290355	 2.254869	 -0.425899	 0.598935	 -0.637233	 0.231992	 1
1463569844.114	 6	 -0.119013	 0.028817	 -0.036903	 -1.868135	 -1.289545	 2.251011	 -0.426041	 0.599290	 -0.637005	 0.231442	 1
1463569844.124	 6	 -0.058211	 0.002229	 -0.012102	 -1.870422	 -1.289157	 2.248584	 -0.426166	 0.599499	 -0.636807	 0.231213	 1
1463569844.134	 6	 0.020931	 0.036053	 -0.009279	 -1.870063	 -1.289083	 2.248710	 -0.426113	 0.599506	 -0.636871	 0.231118	 1
1463569844.144	 6	 0.081061	 0.126177	 -0.023884	 -1.866638	 -1.289108	 2.251226	 -0.425769	 0.599368	 -0.637309	 0.230902	 1
1463569844.154	 6	 0.098577	 0.249249	 -0.059127	 -1.860737	 -1.288912	 2.255096	 -0.425109	 0.599204	 -0.638123	 0.230296	 1
1463569844.164	 6	 0.057370	 0.366114	 -0.093917	 -1.854151	 -1.288292	 2.258435	 -0.424205	 0.599181	 -0.639153	 0.229162	 1
1463569844.174	 6	 -0.042617	 0.455577	 -0.117792	 -1.849232	 -1.287172	 2.259036	 -0.423170	 0.599487	 -0.640157	 0.227470	 1
1463569844.184	 6	 -0.158664	 0.503868	 -0.105675	 -1.847536	 -1.285738	 2.255639	 -0.422066	 0.600231	 -0.640938	 0.225348	 1
1463569844.194	 6	 -0.240728	 0.485323	 -0.056108	 -1.849280	 -1.284450	 2.248671	 -0.420943	 0.601356	 -0.641384	 0.223167	 1
1463569844.204	 6	 -0.274938	 0.419933	 0.006461	 -1.853595	 -1.283619	 2.239602	 -0.419864	 0.602689	 -0.641504	 0.221253	 1
1463569844.214	 6	 -0.247484	 0.315982	 0.056412	 -1.858944	 -1.283326	 2.230437	 -0.418908	 0.603988	 -0.641399	 0.219820	 1
1463569844.224	 6	 -0.178709	 0.174461	 0.075811	 -1.863954	 -1.283466	 2.223028	 -0.418230	 0.605005	 -0.641161	 0.219010	 1
1463569844.234	 6	 -0.113266	 0.039038	 0.054797	 -1.868001	 -1.283688	 2.218067	 -0.417954	 0.605622	 -0.640854	 0.218726	 1
1463569844.244	 6	 -0.059385	 -0.053849	 0.027886	 -1.871048	 -1.283800	 2.215262	 -0.418045	 0.605887	 -0.640523	 0.218792	 1
1463569844.254	 6	 -0.002940	 -0.062660	 0.009194	 -1.872352	 -1.283881	 2.214572	 -0.418227	 0.605897	 -0.640324	 0.218995	 1
1463569844.264	 6	 0.035602	 -0.014039	 -0.017333	 -1.871661	 -1.283856	 2.215598	 -0.418325	 0.605756	 -0.640357	 0.219106	 1
1463569844.274	 6	 0.043360	 0.073983	 -0.049620	 -1.869352	 -1.283600	 2.217478	 -0.418237	 0.605588	 -0.640638	 0.218914	 1
1463569844.284	 6	 0.013826	 0.175930	 -0.083585	 -1.866370	 -1.282941	 2.219031	 -0.417964	 0.605520	 -0.641102	 0.218266	 1
1463569844.294	 6	 -0.026433	 0.252504	 -0.100639	 -1.863555	 -1.281965	 2.219489	 -0.417513	 0.605626	 -0.641656	 0.217203	 1
1463569844.304	 6	 -0.057445	 0.239825	 -0.101553	 -1.861754	 -1.280840	 2.218788	 -0.417085	 0.605847	 -0.642126	 0.216019	 1
1463569844.314	 6	 -0.069328	 0.195310	 -0.084812	 -1.860952	 -1.279781	 2.217466	 -0.416766	 0.606095	 -0.642453	 0.214962	 1
1463569844.324	 6	 -0.091884	 0.131842	 -0.045773	 -1.861623	 -1.278988	 2.215207	 -0.416552	 0.606408	 -0.642569	 0.214149	 1
1463569844.333	 6	 -0.121890	 0.065268	 0.001828	 -1.864404	 -1.278579	 2.211467	 -0.416442	 0.606846	 -0.642396	 0.213640	 1
1463569844.344	 6	 -0.134693	 0.035787	 0.037901	 -1.868453	 -1.278477	 2.206805	 -0.416360	 0.607373	 -0.642052	 0.213335	 1
1463569844.354	 6	 -0.160158	 0.043510	 0.065905	 -1.873461	 -1.278584	 2.201161	 -0.416218	 0.608025	 -0.641610	 0.213084	 1
1463569844.364	 6	 -0.196262	 0.066087	 0.084547	 -1.879603	 -1.278790	 2.194118	 -0.415979	 0.608858	 -0.641080	 0.212771	 1
1463569844.374	 6	 -0.218645	 0.077800	 0.077391	 -1.886450	 -1.278915	 2.186173	 -0.415711	 0.609794	 -0.640499	 0.212357	 1
1463569844.384	 6	 -0.227332	 0.077555	 0.040162	 -1.893322	 -1.278678	 2.178171	 -0.415546	 0.610706	 -0.639921	 0.211805	 1
1463569844.394	 6	 -0.231828	 0.058175	 0.005917	 -1.900132	 -1.278074	 2.170412	 -0.415548	 0.611541	 -0.639328	 0.211181	 1
1463569844.404	 6	 -0.221274	 0.065310	 -0.032476	 -1.906267	 -1.277128	 2.163348	 -0.415654	 0.612274	 -0.638798	 0.210451	 1
1463569844.414	 6	 -0.212737	 0.083213	 -0.053699	 -1.911601	 -1.275940	 2.156955	 -0.415783	 0.612936	 -0.638357	 0.209604	 1
1463569844.424	 6	 -0.205183	 0.098105	 -0.050429	 -1.916522	 -1.274744	 2.150824	 -0.415861	 0.613590	 -0.637969	 0.208714	 1
1463569844.434	 6	 -0.187887	 0.143799	 -0.049089	 -1.920572	 -1.273650	 2.145226	 -0.415788	 0.614238	 -0.637703	 0.207766	 1
1463569844.444	 6	 -0.174947	 0.180911	 -0.059514	 -1.923660	 -1.272498	 2.140197	 -0.415601	 0.614864	 -0.637572	 0.206684	 1
1463569844.454	 6	 -0.162854	 0.228973	 -0.027199	 -1.926088	 -1.271571	 2.135402	 -0.415201	 0.615532	 -0.637553	 0.205558	 1
1463569844.474	 7	 -0.122995	 0.256950	 0.033463	 -1.929798	 -1.270857	 2.126115	 -0.413754	 0.617018	 -0.637725	 0.203476	 1
1463569844.484	 7	 -0.103842	 0.234648	 0.045877	 -1.931136	 -1.270883	 2.122192	 -0.412961	 0.617695	 -0.637848	 0.202648	 1
1463569844.494	 7	 -0.094349	 0.199638	 0.060311	 -1.924102	 -1.266135	 2.126588	 -0.413613	 0.617105	 -0.638795	 0.200117	 1
1463569844.504	 7	 -0.096498	 0.175366	 0.085682	 -1.926030	 -1.266553	 2.122679	 -0.412887	 0.617755	 -0.638792	 0.199618	 1
1463569844.514	 7	 -0.097652	 0.149903	 0.093982	 -1.928435	 -1.267093	 2.118527	 -0.412197	 0.618416	 -0.638718	 0.199236	 1
1463569844.524	 7	 -0.089472	 0.094396	 0.069947	 -1.930970	 -1.267518	 2.114725	 -0.411692	 0.618981	 -0.638581	 0.198964	 1
1463569844.534	 7	 -0.088925	 0.026002	 0.023400	 -1.928004	 -1.262329	 2.116854	 -0.413087	 0.618415	 -0.638899	 0.196799	 1
1463569844.544	 7	 -0.089289	 -0.050583	 0.022690	 -1.931220	 -1.262210	 2.113809	 -0.413211	 0.618718	 -0.638532	 0.196777	 1
1463569844.554	 7	 -0.078911	 -0.115479	 0.024085	 -1.927461	 -1.259857	 2.118093	 -0.414097	 0.618009	 -0.638850	 0.196109	 1
1463569844.564	 7	 -0.059917	 -0.158104	 0.020299	 -1.927550	 -1.258249	 2.119231	 -0.414998	 0.617632	 -0.638694	 0.195902	 1
1463569844.574	 7	 -0.050380	 -0.156129	 0.002077	 -1.927583	 -1.255616	 2.120548	 -0.416266	 0.617136	 -0.638516	 0.195353	 1
1463569844.584	 7	 -0.052465	 -0.124376	 -0.021090	 -1.929044	 -1.252937	 2.120308	 -0.417524	 0.616819	 -0.638191	 0.194731	 1
1463569844.594	 7	 -0.058703	 -0.086093	 -0.024956	 -1.929977	 -1.251675	 2.120164	 -0.418185	 0.616653	 -0.637988	 0.194504	 1
1463569844.604	 7	 -0.052180	 -0.062704	 -0.023738	 -1.929490	 -1.250900	 2.121135	 -0.418579	 0.616432	 -0.637982	 0.194375	 1
1463569844.614	 7	 -0.039296	 -0.054181	 -0.016316	 -1.927990	 -1.250593	 2.122977	 -0.418767	 0.616167	 -0.638112	 0.194386	 1
1463569844.624	 7	 -0.019010	 -0.059518	 -0.010139	 -1.927085	 -1.251205	 2.124328	 -0.418697	 0.616024	 -0.638180	 0.194766	 1
1463569844.634	 7	 -0.008343	 -0.065905	 -0.006014	 -1.926860	 -1.252253	 2.125133	 -0.418535	 0.615966	 -0.638165	 0.195343	 1
1463569844.644	 7	 -0.007221	 -0.058444	 -0.002741	 -1.927230	 -1.253347	 2.125344	 -0.418365	 0.615979	 -0.638084	 0.195932	 1
1463569844.654	 7	 -0.009141	 -0.032804	 0.004888	 -1.928447	 -1.254078	 2.124543	 -0.418270	 0.616089	 -0.637920	 0.196323	 1
1463569844.664	 7	 -0.006872	 -0.001987	 0.001960	 -1.928889	 -1.254290	 2.124187	 -0.418234	 0.616137	 -0.637866	 0.196424	 1
1463569844.674	 7	 -0.004615	 0.023534	 0.002176	 -1.928405	 -1.254225	 2.124468	 -0.418187	 0.616121	 -0.637938	 0.196341	 1
1463569844.684	 7	 -0.006696	 0.046842	 -0.011446	 -1.928400	 -1.253876	 2.124079	 -0.418178	 0.616173	 -0.637972	 0.196085	 1
1463569844.694	 7	 -0.014087	 0.062827	 -0.010170	 -1.928170	 -1.253433	 2.123680	 -0.418125	 0.616242	 -0.638052	 0.195722	 1
1463569844.704	 7	 -0.013064	 0.053251	 -0.010268	 -1.927622	 -1.253374	 2.123640	 -0.417956	 0.616299	 -0.638170	 0.195518	 1
1463569844.714	 7	 0.000741	 0.029885	 0.000053	 -1.926934	 -1.253436	 2.123940	 -0.417809	 0.616309	 -0.638285	 0.195426	 1
1463569844.724	 7	 0.016645	 0.005396	 0.002883	 -1.926068	 -1.253454	 2.124690	 -0.417758	 0.616238	 -0.638393	 0.195405	 1
1463569844.734	 7	 0.030441	 -0.020097	 0.013183	 -1.924803	 -1.253704	 2.126073	 -0.417700	 0.616094	 -0.638526	 0.195550	 1
1463569844.744	 7	 0.046353	 -0.039298	 0.011797	 -1.923669	 -1.253782	 2.127603	 -0.417784	 0.615892	 -0.638614	 0.195718	 1
1463569844.754	 7	 0.050619	 -0.027710	 -0.001993	 -1.922583	 -1.253484	 2.129092	 -0.417991	 0.615662	 -0.638691	 0.195748	 1
1463569844.764	 7	 0.029372	 0.001005	 -0.011136	 -1.921818	 -1.253121	 2.130005	 -0.418145	 0.615514	 -0.638757	 0.195669	 1
1463569844.774	 7	 0.018787	 0.015959	 -0.006642	 -1.921692	 -1.253090	 2.130064	 -0.418133	 0.615512	 -0.638777	 0.195638	 1
1463569844.784	 7	 0.027311	 0.009582	 -0.002510	 -1.921046	 -1.253355	 2.130627	 -0.418015	 0.615480	 -0.638860	 0.195717	 1
1463569844.794	 7	 0.036756	 -0.021317	 -0.006076	 -1.920167	 -1.253492	 2.131703	 -0.418021	 0.615353	 -0.638941	 0.195842	 1
1463569844.804	 7	 0.043026	 -0.061647	 0.008417	 -1.919867	 -1.253796	 2.132575	 -0.418095	 0.615227	 -0.638922	 0.196141	 1
1463569844.814	 7	 0.054610	 -0.103089	 0.018591	 -1.919778	 -1.254368	 2.133702	 -0.418229	 0.615050	 -0.638837	 0.196686	 1
1463569844.824	 7	 0.057747	 -0.125358	 0.029015	 -1.919784	 -1.254852	 2.134958	 -0.418461	 0.614829	 -0.638718	 0.197269	 1
1463569844.834	 7	 0.065165	 -0.138129	 0.030964	 -1.919539	 -1.255375	 2.136655	 -0.418735	 0.614544	 -0.638608	 0.197930	 1
1463569844.844	 7	 0.074814	 -0.135969	 0.039426	 -1.919064	 -1.256007	 2.138581	 -0.418971	 0.614243	 -0.638524	 0.198633	 1
1463569844.854	 7	 0.069572	 -0.111527	 0.034367	 -1.918603	 -1.256354	 2.140301	 -0.419240	 0.613959	 -0.638454	 0.199170	 1
1463569844.864	 7	 0.064334	 -0.082861	 0.025083	 -1.917481	 -1.256510	 2.142413	 -0.419481	 0.613641	 -0.638480	 0.199558	 1
1463569844.874	 7	 0.051710	 -0.030818	 0.009685	 -1.916588	 -1.256335	 2.143810	 -0.419680	 0.613422	 -0.638526	 0.199665	 1
1463569844.884	 7	 0.031570	 0.004290	 0.002726	 -1.915992	 -1.256375	 2.144499	 -0.419688	 0.613341	 -0.638583	 0.199717	 1
1463569844.894	 7	 0.028435	 0.013911	 0.008169	 -1.914990	 -1.256356	 2.145392	 -0.419648	 0.613251	 -0.638704	 0.199688	 1
1463569844.904	 7	 0.032599	 0.011601	 -0.015337	 -1.913990	 -1.256264	 2.146341	 -0.419650	 0.613144	 -0.638818	 0.199650	 1
1463569844.914	 7	 0.018646	 0.008336	 -0.031233	 -1.913165	 -1.255956	 2.147134	 -0.419728	 0.613032	 -0.638909	 0.199536	 1
1463569844.924	 7	 0.012220	 0.003045	 -0.030160	 -1.912980	 -1.255709	 2.147337	 -0.419811	 0.612986	 -0.638926	 0.199453	 1
1463569844.934	 7	 0.019590	 -0.016140	 -0.032531	 -1.912561	 -1.255640	 2.147934	 -0.419883	 0.612896	 -0.638953	 0.199490	 1
1463569844.944	 7	 0.016319	 -0.027854	 -0.035807	 -1.912566	 -1.255497	 2.148252	 -0.420028	 0.612815	 -0.638919	 0.199539	 1
1463569844.954	 7	 0.006686	 -0.036312	 -0.032603	 -1.912856	 -1.255245	 2.148364	 -0.420235	 0.612740	 -0.638845	 0.199570	 1
1463569844.964	 7	 -0.000793	 -0.040521	 -0.029377	 -1.913347	 -1.255127	 2.148306	 -0.420413	 0.612693	 -0.638747	 0.199658	 1
1463569844.974	 7	 -0.003964	 -0.040458	 -0.021885	 -1.913869	 -1.255089	 2.148210	 -0.420562	 0.612657	 -0.638646	 0.199774	 1
1463569844.984	 7	 -0.007113	 -0.040356	 -0.009064	 -1.914318	 -1.255266	 2.148159	 -0.420633	 0.612639	 -0.638558	 0.199961	 1
1463569844.994	 7	 0.002560	 -0.038158	 0.004732	 -1.914303	 -1.255638	 2.148538	 -0.420625	 0.612595	 -0.638527	 0.200215	 1
1463569845.004	 7	 0.017518	 -0.035012	 0.004633	 -1.913704	 -1.255933	 2.149487	 -0.420629	 0.612482	 -0.638561	 0.200444	 1
1463569845.014	 7	 0.018633	 -0.025442	 0.004711	 -1.912709	 -1.256067	 2.150748	 -0.420654	 0.612328	 -0.638644	 0.200592	 1
1463569845.024	 7	 0.019709	 -0.021213	 0.001542	 -1.911844	 -1.256083	 2.151842	 -0.420707	 0.612187	 -0.638717	 0.200683	 1
1463569845.034	 7	 0.014377	 -0.003261	 -0.018499	 -1.911267	 -1.255661	 2.152533	 -0.420871	 0.612061	 -0.638766	 0.200570	 1
1463569845.044	 7	 -0.001623	 0.015787	 -0.038438	 -1.910905	 -1.254900	 2.152806	 -0.421083	 0.611970	 -0.638809	 0.200264	 1
1463569845.054	 7	 -0.019758	 0.025345	 -0.047787	 -1.910632	 -1.254132	 2.152847	 -0.421256	 0.611917	 -0.638856	 0.199908	 1
1463569845.064	 7	 -0.031500	 0.022212	 -0.044517	 -1.910903	 -1.253596	 2.152330	 -0.421357	 0.611950	 -0.638847	 0.199627	 1
1463569845.074	 7	 -0.029390	 0.011615	 -0.038238	 -1.911148	 -1.253199	 2.151912	 -0.421435	 0.611977	 -0.638833	 0.199421	 1
1463569845.084	 7	 -0.017664	 -0.002155	 -0.025678	 -1.911150	 -1.252965	 2.151867	 -0.421497	 0.611965	 -0.638836	 0.199320	 1
1463569845.094	 7	 -0.004816	 -0.006340	 -0.010906	 -1.910809	 -1.253036	 2.152237	 -0.421479	 0.611927	 -0.638871	 0.199361	 1
1463569845.104	 7	 0.010207	 0.004306	 -0.003475	 -1.910048	 -1.253219	 2.152980	 -0.421404	 0.611863	 -0.638959	 0.199433	 1
1463569845.114	 7	 0.020017	 0.025736	 0.022220	 -1.909067	 -1.253586	 2.153753	 -0.421209	 0.611832	 -0.639091	 0.199516	 1
1463569845.124	 7	 0.038273	 0.026938	 0.048721	 -1.907837	 -1.254488	 2.154709	 -0.420818	 0.611838	 -0.639261	 0.199780	 1
1463569845.134	 7	 0.061744	 0.014196	 0.061190	 -1.906092	 -1.255494	 2.156305	 -0.420425	 0.611770	 -0.639475	 0.200130	 1
1463569845.144	 7	 0.069168	 0.007761	 0.056801	 -1.904194	 -1.256193	 2.158161	 -0.420160	 0.611636	 -0.639692	 0.200402	 1
1463569845.154	 7	 0.061666	 0.010890	 0.045168	 -1.902482	 -1.256637	 2.159841	 -0.419984	 0.611496	 -0.639885	 0.200581	 1
1463569845.164	 7	 0.045669	 0.015177	 0.043213	 -1.901533	 -1.257005	 2.160705	 -0.419826	 0.611445	 -0.640000	 0.200704	 1
1463569845.174	 7	 0.031766	 0.017276	 0.033760	 -1.900962	 -1.257291	 2.161153	 -0.419688	 0.611435	 -0.640076	 0.200779	 1
1463569845.184	 7	 0.021065	 0.013038	 0.031680	 -1.900518	 -1.257521	 2.161463	 -0.419567	 0.611436	 -0.640139	 0.200828	 1
1463569845.194	 7	 0.019904	 -0.004000	 0.028333	 -1.900025	 -1.257824	 2.161963	 -0.419464	 0.611410	 -0.640193	 0.200949	 1
1463569845.204	 7	 0.015643	 0.001300	 0.024156	 -1.900096	 -1.258042	 2.161899	 -0.419397	 0.611437	 -0.640186	 0.201031	 1
1463569845.214	 7	 0.026285	 -0.012498	 0.032461	 -1.899172	 -1.258458	 2.162909	 -0.419276	 0.611358	 -0.640279	 0.201226	 1
1463569845.224	 7	 0.026328	 -0.001876	 0.030428	 -1.898553	 -1.258897	 2.163605	 -0.419150	 0.611316	 -0.640340	 0.201423	 1
1463569845.234	 7	 0.021090	 0.020461	 0.028549	 -1.897870	 -1.259162	 2.164149	 -0.419012	 0.611296	 -0.640429	 0.201486	 1
1463569845.244	 7	 0.009395	 0.036390	 0.020270	 -1.897013	 -1.259330	 2.164672	 -0.418843	 0.611289	 -0.640557	 0.201454	 1
1463569845.254	 7	 -0.000182	 0.055449	 0.004541	 -1.896328	 -1.259213	 2.164839	 -0.418713	 0.611311	 -0.640683	 0.201255	 1
1463569845.264	 7	 -0.008704	 0.071322	 -0.010163	 -1.895522	 -1.258817	 2.164957	 -0.418618	 0.611330	 -0.640839	 0.200899	 1
1463569845.274	 7	 -0.016130	 0.079862	 -0.008958	 -1.894982	 -1.258417	 2.164682	 -0.418489	 0.611403	 -0.640979	 0.200498	 1
1463569845.284	 7	 -0.012942	 0.073502	 -0.004784	 -1.894380	 -1.258214	 2.164494	 -0.418304	 0.611483	 -0.641123	 0.200179	 1
1463569845.294	 7	 -0.006585	 0.062854	 -0.003875	 -1.893636	 -1.257985	 2.164555	 -0.418158	 0.611523	 -0.641272	 0.199886	 1
1463569845.304	 7	 -0.000250	 0.046896	 -0.001951	 -1.892868	 -1.257764	 2.164788	 -0.418054	 0.611529	 -0.641409	 0.199644	 1
1463569845.314	 7	 0.006054	 0.016116	 0.009428	 -1.892135	 -1.257685	 2.165249	 -0.417985	 0.611498	 -0.641516	 0.199538	 1
1463569845.324	 7	 0.016576	 -0.021098	 0.015383	 -1.891417	 -1.257820	 2.166079	 -0.417966	 0.611410	 -0.641583	 0.199635	 1
1463569845.334	 7	 0.021821	 -0.037099	 0.010923	 -1.890725	 -1.257930	 2.167115	 -0.418025	 0.611273	 -0.641624	 0.199797	 1
1463569845.344	 7	 0.015418	 -0.031808	 0.004630	 -1.890355	 -1.257869	 2.167832	 -0.418145	 0.611154	 -0.641630	 0.199891	 1
1463569845.354	 7	 0.005848	 -0.020117	 -0.000510	 -1.890260	 -1.257738	 2.168168	 -0.418259	 0.611081	 -0.641616	 0.199921	 1
1463569845.364	 7	 -0.003731	 -0.013714	 -0.001434	 -1.890386	 -1.257598	 2.168187	 -0.418350	 0.611050	 -0.641588	 0.199914	 1
1463569845.374	 7	 -0.005859	 -0.017916	 0.004940	 -1.890648	 -1.257654	 2.168085	 -0.418385	 0.611051	 -0.641543	 0.199982	 1
1463569845.384	 7	 0.000554	 -0.016863	 0.005962	 -1.890763	 -1.257830	 2.168133	 -0.418380	 0.611047	 -0.641515	 0.200098	 1
1463569845.394	 7	 0.003777	 -0.007346	 -0.000372	 -1.890531	 -1.257917	 2.168463	 -0.418379	 0.611009	 -0.641530	 0.200165	 1
1463569845.404	 7	 0.000619	 0.003285	 -0.002376	 -1.890181	 -1.257959	 2.168799	 -0.418356	 0.610978	 -0.641570	 0.200181	 1
1463569845.414	 7	 -0.003605	 0.016031	 -0.006483	 -1.889847	 -1.257980	 2.168999	 -0.418303	 0.610972	 -0.641620	 0.200151	 1
1463569845.424	 7	 -0.006752	 0.024573	 -0.003178	 -1.889657	 -1.258027	 2.168958	 -0.418214	 0.611004	 -0.641664	 0.200097	 1
1463569845.434	 7	 -0.013100	 0.034180	 -0.000900	 -1.889694	 -1.258062	 2.168590	 -0.418102	 0.611081	 -0.641693	 0.200004	 1
1463569845.444	 7	 -0.012021	 0.032089	 0.004400	 -1.889619	 -1.258052	 2.168303	 -0.417994	 0.611147	 -0.641737	 0.199885	 1
1463569845.454	 7	 -0.008931	 0.002350	 0.011557	 -1.889828	 -1.258156	 2.167964	 -0.417924	 0.611207	 -0.641727	 0.199878	 1
1463569845.464	 7	 -0.007904	 -0.009329	 0.014637	 -1.889785	 -1.258351	 2.168039	 -0.417870	 0.611215	 -0.641729	 0.199962	 1
1463569845.474	 7	 -0.002509	 0.001307	 0.016819	 -1.889858	 -1.258386	 2.167955	 -0.417857	 0.611229	 -0.641722	 0.199970	 1
1463569845.484	 7	 0.000698	 0.001305	 0.017856	 -1.889794	 -1.258515	 2.167981	 -0.417803	 0.611242	 -0.641733	 0.200006	 1
1463569845.494	 7	 0.002816	 -0.009276	 0.026263	 -1.889840	 -1.258634	 2.167973	 -0.417776	 0.611251	 -0.641725	 0.200062	 1
1463569845.504	 7	 0.012350	 -0.029468	 0.032385	 -1.889953	 -1.258920	 2.168104	 -0.417761	 0.611240	 -0.641688	 0.200244	 1
1463569845.514	 7	 0.015496	 -0.040121	 0.031191	 -1.890148	 -1.259197	 2.168286	 -0.417790	 0.611210	 -0.641629	 0.200465	 1
1463569845.524	 7	 0.011204	 -0.041203	 0.026952	 -1.890366	 -1.259288	 2.168486	 -0.417892	 0.611155	 -0.641564	 0.200629	 1
1463569845.534	 7	 0.004809	 -0.035896	 0.022791	 -1.890795	 -1.259381	 2.168437	 -0.417984	 0.611131	 -0.641479	 0.200779	 1
1463569845.544	 7	 -0.002639	 -0.027396	 0.018669	 -1.891362	 -1.259416	 2.168150	 -0.418067	 0.611138	 -0.641389	 0.200873	 1
1463569845.554	 7	 -0.011158	 -0.014683	 0.008202	 -1.891881	 -1.259378	 2.167789	 -0.418136	 0.611157	 -0.641317	 0.200902	 1
1463569845.564	 7	 -0.015389	 0.002271	 -0.002264	 -1.892240	 -1.259198	 2.167432	 -0.418200	 0.611178	 -0.641278	 0.200831	 1
1463569845.574	 7	 -0.021714	 0.021413	 -0.005229	 -1.892643	 -1.259025	 2.166837	 -0.418203	 0.611246	 -0.641253	 0.200699	 1
1463569845.584	 7	 -0.027890	 0.050264	 0.003569	 -1.893065	 -1.258955	 2.165938	 -0.418086	 0.611384	 -0.641255	 0.200514	 1
1463569845.594	 7	 -0.018266	 0.048162	 0.010927	 -1.893352	 -1.258998	 2.165113	 -0.417912	 0.611532	 -0.641278	 0.200353	 1
1463569845.604	 7	 -0.010941	 0.006749	 0.023269	 -1.893605	 -1.259321	 2.164641	 -0.417745	 0.611637	 -0.641273	 0.200398	 1
1463569845.614	 7	 0.000665	 -0.030437	 0.033482	 -1.893820	 -1.259783	 2.164613	 -0.417656	 0.611665	 -0.641231	 0.200626	 1
1463569845.624	 7	 0.010284	 -0.035714	 0.042942	 -1.894007	 -1.260318	 2.164765	 -0.417591	 0.611666	 -0.641178	 0.200931	 1
1463569845.634	 7	 0.024281	 -0.026044	 0.062096	 -1.894079	 -1.261108	 2.164980	 -0.417425	 0.611690	 -0.641143	 0.201314	 1
1463569845.644	 7	 0.031896	 -0.006827	 0.075000	 -1.893525	 -1.262088	 2.165626	 -0.417129	 0.611705	 -0.641195	 0.201714	 1
1463569845.654	 7	 0.034158	 0.013424	 0.081564	 -1.891975	 -1.263094	 2.167035	 -0.416739	 0.611665	 -0.641377	 0.202065	 1
1463569845.664	 7	 0.044875	 0.026126	 0.077324	 -1.890619	 -1.263905	 2.168145	 -0.416383	 0.611649	 -0.641547	 0.202306	 1
1463569845.674	 7	 0.038444	 0.031364	 0.063570	 -1.889196	 -1.264519	 2.169272	 -0.416073	 0.611618	 -0.641729	 0.202459	 1
1463569845.684	 7	 0.028774	 0.028109	 0.050831	 -1.888118	 -1.264928	 2.170065	 -0.415838	 0.611602	 -0.641873	 0.202536	 1
1463569845.694	 7	 0.019086	 0.024824	 0.033829	 -1.887406	 -1.265137	 2.170516	 -0.415680	 0.611601	 -0.641975	 0.202540	 1
1463569845.704	 7	 0.008284	 0.009856	 0.018860	 -1.887071	 -1.265191	 2.170713	 -0.415615	 0.611599	 -0.642025	 0.202521	 1
1463569845.714	 7	 0.001727	 -0.017818	 0.013328	 -1.887160	 -1.265149	 2.170733	 -0.415663	 0.611582	 -0.642004	 0.202539	 1
1463569845.724	 7	 -0.006902	 -0.030611	 0.005820	 -1.887789	 -1.264961	 2.170389	 -0.415821	 0.611571	 -0.641909	 0.202551	 1
1463569845.734	 7	 -0.014322	 -0.025281	 0.003979	 -1.888469	 -1.264765	 2.169956	 -0.415969	 0.611574	 -0.641811	 0.202548	 1
1463569845.744	 7	 -0.016400	 -0.012519	 0.003048	 -1.889131	 -1.264578	 2.169419	 -0.416078	 0.611600	 -0.641728	 0.202509	 1
1463569845.754	 7	 -0.017453	 -0.010380	 0.004141	 -1.889497	 -1.264439	 2.169105	 -0.416144	 0.611615	 -0.641684	 0.202468	 1
1463569845.764	 7	 -0.016420	 -0.017828	 0.004060	 -1.889781	 -1.264326	 2.168938	 -0.416221	 0.611610	 -0.641641	 0.202460	 1
1463569845.774	 7	 -0.012169	 -0.021039	 0.002926	 -1.889980	 -1.264259	 2.168908	 -0.416297	 0.611589	 -0.641603	 0.202487	 1
1463569845.784	 7	 -0.004654	 -0.012544	 0.004004	 -1.890144	 -1.264199	 2.168880	 -0.416360	 0.611573	 -0.641572	 0.202505	 1
1463569845.794	 7	 -0.002455	 0.006549	 -0.002233	 -1.890232	 -1.264079	 2.168769	 -0.416393	 0.611575	 -0.641565	 0.202452	 1
1463569845.804	 7	 -0.005624	 0.016108	 -0.005315	 -1.890219	 -1.263959	 2.168634	 -0.416386	 0.611593	 -0.641581	 0.202360	 1
1463569845.814	 7	 -0.007778	 0.013971	 -0.007447	 -1.890456	 -1.263875	 2.168262	 -0.416376	 0.611639	 -0.641569	 0.202282	 1
1463569845.824	 7	 -0.012031	 0.014015	 -0.003146	 -1.890946	 -1.263842	 2.167650	 -0.416357	 0.611713	 -0.641529	 0.202224	 1
1463569845.834	 7	 -0.010917	 0.015152	 0.007515	 -1.891528	 -1.263953	 2.166902	 -0.416279	 0.611821	 -0.641484	 0.202203	 1
1463569845.844	 7	 -0.008847	 -0.002899	 0.012662	 -1.892140	 -1.264296	 2.166266	 -0.416170	 0.611924	 -0.641421	 0.202313	 1
1463569845.854	 7	 -0.008888	 -0.016680	 0.018930	 -1.892936	 -1.264570	 2.165602	 -0.416134	 0.612008	 -0.641323	 0.202445	 1
1463569845.864	 7	 -0.006748	 -0.014567	 0.017867	 -1.893620	 -1.264779	 2.165066	 -0.416122	 0.612070	 -0.641235	 0.202560	 1
1463569845.874	 7	 -0.010974	 -0.003934	 0.015871	 -1.894140	 -1.264932	 2.164589	 -0.416093	 0.612132	 -0.641175	 0.202623	 1
1463569845.884	 7	 -0.013066	 0.006694	 0.013857	 -1.894542	 -1.265010	 2.164118	 -0.416052	 0.612196	 -0.641139	 0.202624	 1
1463569845.894	 7	 -0.010884	 0.018373	 0.011814	 -1.894751	 -1.265070	 2.163725	 -0.415980	 0.612262	 -0.641136	 0.202584	 1
1463569845.904	 7	 -0.009791	 0.023688	 0.011853	 -1.894686	 -1.265114	 2.163535	 -0.415887	 0.612313	 -0.641169	 0.202520	 1
1463569845.914	 7	 -0.008719	 0.018358	 0.015282	 -1.894637	 -1.265190	 2.163344	 -0.415788	 0.612365	 -0.641198	 0.202471	 1
1463569845.924	 7	 -0.004507	 0.004533	 0.017248	 -1.894764	 -1.265339	 2.163113	 -0.415710	 0.612414	 -0.641196	 0.202491	 1
1463569845.934	 7	 0.001850	 -0.005059	 0.017102	 -1.894809	 -1.265436	 2.163091	 -0.415686	 0.612423	 -0.641188	 0.202534	 1
1463569845.944	 7	 -0.005625	 -0.005045	 0.016099	 -1.895215	 -1.265349	 2.162723	 -0.415732	 0.612450	 -0.641141	 0.202508	 1
1463569845.954	 7	 -0.013099	 -0.002918	 0.012984	 -1.895629	 -1.265247	 2.162312	 -0.415772	 0.612484	 -0.641097	 0.202465	 1
1463569845.964	 7	 -0.018448	 -0.002925	 0.009831	 -1.896214	 -1.265097	 2.161721	 -0.415826	 0.612534	 -0.641035	 0.202399	 1
1463569845.974	 7	 -0.018456	 -0.002941	 0.007696	 -1.896672	 -1.264915	 2.161248	 -0.415887	 0.612568	 -0.640987	 0.202321	 1
1463569845.984	 7	 -0.018469	 -0.001908	 0.003439	 -1.897045	 -1.264647	 2.160862	 -0.415974	 0.612586	 -0.640948	 0.202212	 1
1463569845.994	 7	 -0.026981	 0.007653	 -0.001729	 -1.897479	 -1.264367	 2.160334	 -0.416042	 0.612625	 -0.640910	 0.202073	 1
1463569846.004	 7	 -0.029062	 0.021464	 -0.004782	 -1.897761	 -1.264096	 2.159824	 -0.416064	 0.612677	 -0.640902	 0.201895	 1
1463569846.014	 7	 -0.022628	 0.033099	 -0.011128	 -1.897594	 -1.263730	 2.159606	 -0.416062	 0.612705	 -0.640958	 0.201639	 1
1463569846.024	 7	 -0.013123	 0.018126	 -0.018812	 -1.897143	 -1.263447	 2.159794	 -0.416066	 0.612685	 -0.641032	 0.201456	 1
1463569846.034	 7	 -0.015324	 0.006409	 -0.022100	 -1.896817	 -1.263199	 2.159989	 -0.416101	 0.612654	 -0.641079	 0.201326	 1
1463569846.044	 7	 -0.011060	 0.005333	 -0.022148	 -1.896562	 -1.262868	 2.160173	 -0.416183	 0.612610	 -0.641113	 0.201185	 1
1463569846.054	 7	 -0.020505	 0.030959	 -0.012237	 -1.896743	 -1.262613	 2.159777	 -0.416202	 0.612650	 -0.641114	 0.201019	 1
1463569846.064	 7	 -0.026894	 0.030950	 -0.008881	 -1.897202	 -1.262392	 2.158921	 -0.416158	 0.612761	 -0.641104	 0.200803	 1
1463569846.074	 7	 -0.006783	 -0.009483	 -0.003039	 -1.896694	 -1.262356	 2.159370	 -0.416144	 0.612715	 -0.641165	 0.200778	 1
1463569846.084	 7	 -0.001447	 -0.010554	 -0.002030	 -1.896644	 -1.262298	 2.159537	 -0.416198	 0.612680	 -0.641158	 0.200795	 1
1463569846.094	 7	 -0.002499	 -0.008416	 -0.000936	 -1.896511	 -1.262227	 2.159730	 -0.416237	 0.612646	 -0.641166	 0.200790	 1
1463569846.104	 7	 -0.002473	 -0.003097	 -0.000888	 -1.896334	 -1.262150	 2.159941	 -0.416270	 0.612613	 -0.641182	 0.200775	 1
1463569846.114	 7	 -0.006703	 0.007529	 -0.003951	 -1.896112	 -1.262020	 2.160081	 -0.416284	 0.612594	 -0.641214	 0.200703	 1
1463569846.124	 7	 -0.007760	 0.008604	 -0.002867	 -1.895719	 -1.261923	 2.160359	 -0.416274	 0.612566	 -0.641267	 0.200636	 1
1463569846.134	 7	 -0.003480	 0.010719	 -0.002886	 -1.895509	 -1.261850	 2.160452	 -0.416258	 0.612561	 -0.641301	 0.200575	 1
1463569846.144	 7	 -0.002396	 0.010747	 0.001368	 -1.895413	 -1.261823	 2.160428	 -0.416229	 0.612573	 -0.641324	 0.200527	 1
1463569846.154	 7	 -0.003413	 0.014003	 0.009933	 -1.895152	 -1.261908	 2.160536	 -0.416151	 0.612585	 -0.641367	 0.200514	 1
1463569846.164	 7	 0.007233	 0.007597	 0.010846	 -1.894885	 -1.261991	 2.160697	 -0.416088	 0.612586	 -0.641407	 0.200514	 1
1463569846.174	 7	 0.018924	 -0.011506	 0.021224	 -1.894196	 -1.262277	 2.161448	 -0.416005	 0.612526	 -0.641476	 0.200650	 1
1463569846.184	 7	 0.025389	 -0.004033	 0.027632	 -1.893712	 -1.262635	 2.162024	 -0.415911	 0.612489	 -0.641519	 0.200819	 1
1463569846.194	 7	 0.039188	 -0.020029	 0.027363	 -1.892339	 -1.263042	 2.163562	 -0.415810	 0.612346	 -0.641651	 0.201043	 1
1463569846.204	 7	 0.058472	 -0.012571	 0.036857	 -1.890819	 -1.263637	 2.165283	 -0.415658	 0.612198	 -0.641794	 0.201350	 1
1463569846.214	 7	 0.056526	 0.020423	 0.047038	 -1.889712	 -1.264291	 2.166333	 -0.415413	 0.612155	 -0.641919	 0.201590	 1
1463569846.224	 7	 0.052240	 0.014077	 0.050213	 -1.888426	 -1.264941	 2.167486	 -0.415144	 0.612108	 -0.642070	 0.201807	 1
1463569846.234	 7	 0.048816	 -0.028499	 0.044518	 -1.887327	 -1.265558	 2.168802	 -0.414995	 0.612006	 -0.642165	 0.202121	 1
1463569846.244	 7	 0.038066	 -0.040206	 0.039173	 -1.887223	 -1.265985	 2.169370	 -0.414997	 0.611940	 -0.642128	 0.202429	 1
1463569846.254	 7	 0.023120	 -0.039114	 0.037181	 -1.887896	 -1.266290	 2.169140	 -0.415045	 0.611949	 -0.642012	 0.202674	 1
1463569846.264	 7	 0.011341	 -0.040205	 0.028745	 -1.888491	 -1.266410	 2.168970	 -0.415145	 0.611936	 -0.641905	 0.202846	 1
1463569846.274	 7	 -0.008891	 -0.018972	 0.015261	 -1.889406	 -1.266321	 2.168315	 -0.415267	 0.611970	 -0.641782	 0.202883	 1
1463569846.284	 7	 -0.024789	 0.009749	 0.009270	 -1.890474	 -1.266119	 2.167202	 -0.415334	 0.612074	 -0.641673	 0.202778	 1
1463569846.294	 7	 -0.031146	 0.026725	 0.000956	 -1.891194	 -1.265926	 2.166199	 -0.415320	 0.612191	 -0.641625	 0.202605	 1
1463569846.304	 7	 -0.023719	 0.013969	 0.005035	 -1.891636	 -1.265844	 2.165514	 -0.415279	 0.612280	 -0.641603	 0.202491	 1
1463569846.314	 7	 -0.013112	 -0.005162	 0.011159	 -1.891886	 -1.265938	 2.165234	 -0.415243	 0.612322	 -0.641579	 0.202512	 1
1463569846.324	 7	 -0.003535	 -0.013677	 0.014194	 -1.892121	 -1.266081	 2.165090	 -0.415228	 0.612342	 -0.641545	 0.202591	 1
1463569846.334	 7	 -0.000283	 -0.003050	 0.014263	 -1.892142	 -1.266116	 2.165128	 -0.415235	 0.612335	 -0.641537	 0.202622	 1
1463569846.344	 7	 0.008182	 -0.009534	 0.003469	 -1.891700	 -1.266019	 2.165609	 -0.415272	 0.612271	 -0.641580	 0.202605	 1
1463569846.354	 7	 0.027295	 -0.025584	 -0.002178	 -1.890355	 -1.265924	 2.167164	 -0.415347	 0.612075	 -0.641701	 0.202657	 1
1463569846.364	 7	 0.035889	 -0.013909	 -0.002147	 -1.888985	 -1.265891	 2.168755	 -0.415405	 0.611880	 -0.641825	 0.202737	 1
1463569846.374	 7	 0.031696	 0.001003	 -0.000907	 -1.887914	 -1.265896	 2.169877	 -0.415403	 0.611756	 -0.641934	 0.202771	 1
1463569846.384	 7	 0.024203	 0.002034	 -0.003804	 -1.886807	 -1.265966	 2.171001	 -0.415369	 0.611642	 -0.642049	 0.202819	 1
1463569846.394	 7	 0.012499	 0.008459	 -0.002576	 -1.886406	 -1.266024	 2.171378	 -0.415337	 0.611610	 -0.642094	 0.202839	 1
1463569846.404	 7	 -0.003459	 0.018087	 -0.001281	 -1.886640	 -1.266003	 2.171012	 -0.415307	 0.611660	 -0.642083	 0.202785	 1
1463569846.414	 7	 -0.020520	 0.021328	 -0.001102	 -1.887404	 -1.265928	 2.170029	 -0.415276	 0.611779	 -0.642024	 0.202676	 1
1463569846.424	 7	 -0.030087	 0.026698	 0.002229	 -1.888354	 -1.265833	 2.168809	 -0.415238	 0.611927	 -0.641950	 0.202540	 1
1463569846.434	 7	 -0.042827	 0.037403	 0.006703	 -1.889694	 -1.265754	 2.167090	 -0.415167	 0.612141	 -0.641846	 0.202368	 1
1463569846.444	 7	 -0.033347	 0.007623	 0.010607	 -1.890685	 -1.265755	 2.165861	 -0.415109	 0.612296	 -0.641765	 0.202278	 1
1463569846.454	 7	 -0.027052	 -0.025285	 0.021970	 -1.891284	 -1.265996	 2.165375	 -0.415074	 0.612359	 -0.641690	 0.202394	 1
1463569846.464	 7	 -0.018477	 -0.028408	 0.034656	 -1.892069	 -1.266307	 2.164813	 -0.415054	 0.612426	 -0.641584	 0.202569	 1
1463569846.474	 7	 -0.006671	 -0.025159	 0.047372	 -1.892578	 -1.266732	 2.164514	 -0.414989	 0.612477	 -0.641509	 0.202787	 1
1463569846.484	 7	 -0.004394	 0.000401	 0.052918	 -1.893274	 -1.267131	 2.163830	 -0.414874	 0.612587	 -0.641434	 0.202928	 1
1463569846.494	 7	 0.007303	 -0.015527	 0.061194	 -1.893517	 -1.267757	 2.163656	 -0.414696	 0.612657	 -0.641402	 0.203178	 1
1463569846.504	 7	 0.013678	 -0.026144	 0.066369	 -1.893635	 -1.268511	 2.163759	 -0.414522	 0.612696	 -0.641368	 0.203526	 1
1463569846.514	 7	 0.008487	 -0.002666	 0.075160	 -1.894377	 -1.269269	 2.163114	 -0.414318	 0.612825	 -0.641280	 0.203827	 1
1463569846.524	 7	 -0.007301	 0.037854	 0.083135	 -1.896146	 -1.269955	 2.161030	 -0.414024	 0.613141	 -0.641127	 0.203955	 1
1463569846.534	 7	 -0.007270	 0.030532	 0.100121	 -1.897756	 -1.270951	 2.159067	 -0.413617	 0.613476	 -0.640996	 0.204188	 1
1463569846.544	 7	 0.000121	 0.011386	 0.103077	 -1.899025	 -1.271996	 2.157591	 -0.413233	 0.613748	 -0.640886	 0.204491	 1
1463569846.554	 7	 0.005361	 -0.013056	 0.108133	 -1.900191	 -1.273053	 2.156434	 -0.412909	 0.613965	 -0.640766	 0.204869	 1
1463569846.564	 7	 0.012585	 -0.057857	 0.102506	 -1.900970	 -1.274130	 2.156071	 -0.412699	 0.614059	 -0.640645	 0.205390	 1
1463569846.574	 7	 0.014652	 -0.064315	 0.092835	 -1.901399	 -1.275027	 2.156241	 -0.412598	 0.614061	 -0.640541	 0.205908	 1
1463569846.584	 7	 0.005155	 -0.036677	 0.086778	 -1.902138	 -1.275691	 2.155918	 -0.412521	 0.614112	 -0.640424	 0.206277	 1
1463569846.594	 7	 -0.005474	 -0.017584	 0.075322	 -1.903322	 -1.276124	 2.154894	 -0.412445	 0.614240	 -0.640286	 0.206473	 1
1463569846.604	 7	 -0.006567	 -0.019738	 0.071046	 -1.903987	 -1.276642	 2.154340	 -0.412320	 0.614333	 -0.640208	 0.206692	 1
1463569846.614	 7	 -0.007662	 -0.019788	 0.063594	 -1.904301	 -1.277212	 2.154173	 -0.412184	 0.614386	 -0.640162	 0.206946	 1
1463569846.624	 7	 -0.012870	 0.014203	 0.055428	 -1.904992	 -1.277632	 2.153379	 -0.412025	 0.614516	 -0.640103	 0.207059	 1
1463569846.634	 7	 -0.019164	 0.044999	 0.046176	 -1.905691	 -1.277907	 2.152252	 -0.411813	 0.614700	 -0.640077	 0.207015	 1
1463569846.644	 7	 -0.022320	 0.056693	 0.044181	 -1.906587	 -1.278203	 2.150761	 -0.411546	 0.614941	 -0.640047	 0.206923	 1
1463569846.654	 7	 -0.030796	 0.053666	 0.063412	 -1.908150	 -1.278775	 2.148609	 -0.411199	 0.615272	 -0.639951	 0.206927	 1
1463569846.664	 7	 -0.042595	 0.028288	 0.079266	 -1.910806	 -1.279407	 2.145503	 -0.410887	 0.615691	 -0.639729	 0.206984	 1
1463569846.674	 7	 -0.036262	 -0.002439	 0.098112	 -1.913304	 -1.280402	 2.142876	 -0.410554	 0.616058	 -0.639494	 0.207282	 1
1463569846.684	 7	 -0.036275	 -0.018278	 0.113952	 -1.916198	 -1.281331	 2.140050	 -0.410306	 0.616417	 -0.639199	 0.207614	 1
1463569846.694	 7	 -0.034086	 -0.008746	 0.116254	 -1.918704	 -1.282186	 2.137561	 -0.410062	 0.616739	 -0.638949	 0.207907	 1
1463569846.704	 7	 -0.027669	 -0.006630	 0.117281	 -1.920743	 -1.282934	 2.135467	 -0.409824	 0.617019	 -0.638755	 0.208145	 1
1463569846.714	 7	 -0.020248	 -0.010961	 0.109712	 -1.921899	 -1.283662	 2.134288	 -0.409592	 0.617200	 -0.638647	 0.208394	 1
1463569846.724	 7	 -0.025503	 0.002907	 0.113081	 -1.922779	 -1.284354	 2.133312	 -0.409346	 0.617365	 -0.638575	 0.208610	 1
1463569846.734	 7	 -0.030901	 0.004920	 0.095023	 -1.924154	 -1.284735	 2.131747	 -0.409178	 0.617573	 -0.638460	 0.208676	 1
1463569846.744	 7	 -0.009611	 -0.005788	 0.093671	 -1.924729	 -1.285461	 2.131083	 -0.408920	 0.617708	 -0.638418	 0.208911	 1
1463569846.754	 7	 -0.002173	 -0.010094	 0.089299	 -1.923639	 -1.286159	 2.132146	 -0.408673	 0.617661	 -0.638536	 0.209172	 1
1463569846.764	 7	 0.007507	 0.011105	 0.083017	 -1.924217	 -1.286949	 2.131487	 -0.408396	 0.617800	 -0.638494	 0.209432	 1
1463569846.774	 7	 0.018145	 0.016283	 0.068052	 -1.924134	 -1.287716	 2.131369	 -0.408083	 0.617895	 -0.638529	 0.209653	 1
1463569846.784	 7	 0.005227	 -0.002863	 0.062657	 -1.924466	 -1.288360	 2.130993	 -0.407863	 0.617989	 -0.638507	 0.209874	 1
1463569846.794	 7	 -0.009777	 -0.013479	 0.059493	 -1.925845	 -1.288994	 2.129702	 -0.407697	 0.618158	 -0.638367	 0.210122	 1
1463569846.804	 7	 -0.024717	 -0.017650	 0.064914	 -1.928024	 -1.289573	 2.127651	 -0.407570	 0.618393	 -0.638144	 0.210356	 1
1463569846.814	 7	 -0.033238	 -0.017595	 0.069253	 -1.930619	 -1.290123	 2.125180	 -0.407454	 0.618667	 -0.637880	 0.210574	 1
1463569846.824	 7	 -0.040696	 -0.011221	 0.065114	 -1.933248	 -1.290583	 2.122617	 -0.407349	 0.618948	 -0.637620	 0.210740	 1
1463569846.834	 7	 -0.046040	 -0.010165	 0.061972	 -1.935691	 -1.290906	 2.120190	 -0.407271	 0.619210	 -0.637382	 0.210842	 1
1463569846.844	 7	 -0.046056	 -0.015468	 0.064055	 -1.937846	 -1.291377	 2.118065	 -0.407145	 0.619451	 -0.637173	 0.211007	 1
1463569846.854	 7	 -0.041889	 -0.039921	 0.066988	 -1.939772	 -1.291853	 2.116366	 -0.407077	 0.619629	 -0.636966	 0.211239	 1
1463569846.864	 7	 -0.036654	 -0.067538	 0.074144	 -1.941767	 -1.292336	 2.114868	 -0.407090	 0.619759	 -0.636725	 0.211559	 1
1463569846.874	 7	 -0.030286	 -0.077162	 0.076226	 -1.943895	 -1.292839	 2.113383	 -0.407143	 0.619873	 -0.636456	 0.211932	 1
1463569846.884	 7	 -0.017523	 -0.078333	 0.066509	 -1.945380	 -1.293154	 2.112595	 -0.407268	 0.619900	 -0.636242	 0.212258	 1
1463569846.894	 7	 -0.006833	 -0.059350	 0.048470	 -1.946238	 -1.293221	 2.112317	 -0.407432	 0.619870	 -0.636098	 0.212461	 1
1463569846.904	 7	 -0.003604	 -0.035057	 0.026283	 -1.946551	 -1.293129	 2.112380	 -0.407582	 0.619817	 -0.636026	 0.212544	 1
1463569846.914	 7	 -0.004615	 -0.010698	 0.011595	 -1.946680	 -1.292989	 2.112385	 -0.407670	 0.619792	 -0.635997	 0.212533	 1
1463569846.924	 7	 -0.004578	 -0.001140	 0.009552	 -1.946972	 -1.293067	 2.112110	 -0.407652	 0.619823	 -0.635968	 0.212565	 1
1463569846.934	 7	 -0.008863	 -0.006431	 0.011673	 -1.947650	 -1.293272	 2.111465	 -0.407601	 0.619897	 -0.635901	 0.212646	 1
1463569846.944	 7	 -0.012126	 -0.019185	 0.011585	 -1.948646	 -1.293504	 2.110619	 -0.407579	 0.619980	 -0.635792	 0.212772	 1
1463569846.954	 7	 -0.015338	 -0.022359	 0.012650	 -1.949729	 -1.293694	 2.109742	 -0.407590	 0.620058	 -0.635667	 0.212899	 1
1463569846.964	 7	 -0.018489	 -0.011713	 0.012778	 -1.951009	 -1.293839	 2.108591	 -0.407592	 0.620166	 -0.635531	 0.212985	 1
1463569846.974	 7	 -0.022683	 0.003198	 0.014020	 -1.952139	 -1.293984	 2.107440	 -0.407546	 0.620291	 -0.635426	 0.213023	 1
1463569846.984	 7	 -0.028997	 0.019196	 0.017422	 -1.953173	 -1.294100	 2.106197	 -0.407452	 0.620442	 -0.635350	 0.212992	 1
1463569846.994	 7	 -0.027917	 0.018160	 0.021667	 -1.953938	 -1.294280	 2.105181	 -0.407320	 0.620580	 -0.635305	 0.212973	 1
1463569847.004	 7	 -0.020462	 0.014947	 0.021571	 -1.954584	 -1.294328	 2.104331	 -0.407246	 0.620688	 -0.635265	 0.212921	 1
1463569847.014	 7	 -0.010894	 0.011688	 0.016127	 -1.954855	 -1.294270	 2.103895	 -0.407216	 0.620744	 -0.635255	 0.212846	 1
1463569847.024	 7	 -0.014093	 0.015881	 0.013042	 -1.955191	 -1.294153	 2.103388	 -0.407204	 0.620803	 -0.635239	 0.212745	 1
1463569847.034	 7	 -0.021549	 0.012766	 0.020537	 -1.956054	 -1.294163	 2.102357	 -0.407154	 0.620922	 -0.635173	 0.212690	 1
1463569847.044	 7	 -0.027949	 0.005409	 0.030117	 -1.957343	 -1.294326	 2.100949	 -0.407073	 0.621083	 -0.635063	 0.212703	 1
1463569847.054	 7	 -0.032224	 0.003302	 0.031200	 -1.958885	 -1.294467	 2.099317	 -0.407010	 0.621261	 -0.634925	 0.212716	 1
1463569847.064	 7	 -0.039691	 0.002276	 0.033386	 -1.960711	 -1.294553	 2.097410	 -0.406969	 0.621460	 -0.634758	 0.212710	 1
1463569847.074	 7	 -0.043935	 0.001279	 0.040874	 -1.962758	 -1.294698	 2.095279	 -0.406908	 0.621686	 -0.634571	 0.212724	 1
1463569847.084	 7	 -0.051340	 0.009856	 0.047413	 -1.965372	 -1.294828	 2.092512	 -0.406835	 0.621979	 -0.634337	 0.212707	 1
1463569847.094	 7	 -0.060939	 0.006732	 0.052795	 -1.968156	 -1.294961	 2.089556	 -0.406754	 0.622293	 -0.634088	 0.212685	 1
1463569847.104	 7	 -0.068431	 0.001444	 0.053875	 -1.970947	 -1.294990	 2.086623	 -0.406717	 0.622595	 -0.633833	 0.212635	 1
1463569847.114	 7	 -0.073741	 0.007834	 0.052912	 -1.973650	 -1.294933	 2.083719	 -0.406687	 0.622895	 -0.633590	 0.212535	 1
1463569847.124	 7	 -0.073717	 0.023697	 0.040266	 -1.976025	 -1.294630	 2.081006	 -0.406694	 0.623175	 -0.633388	 0.212303	 1
1463569847.134	 7	 -0.069386	 0.032232	 0.045635	 -1.978040	 -1.294578	 2.078564	 -0.406588	 0.623455	 -0.633236	 0.212138	 1
1463569847.144	 7	 -0.074691	 0.032303	 0.053141	 -1.980351	 -1.294731	 2.075786	 -0.406403	 0.623783	 -0.633065	 0.212036	 1
1463569847.154	 7	 -0.084211	 0.040918	 0.063961	 -1.983172	 -1.294915	 2.072425	 -0.406187	 0.624178	 -0.632853	 0.211921	 1
1463569847.164	 7	 -0.095762	 0.059221	 0.089808	 -1.986618	 -1.295079	 2.068274	 -0.405927	 0.624665	 -0.632598	 0.211745	 1
1463569847.174	 7	 -0.134903	 0.060981	 0.175416	 -1.990159	 -1.294761	 2.063758	 -0.405741	 0.625189	 -0.632347	 0.211305	 1
1463569847.184	 7	 -0.196547	 0.082710	 0.213457	 -1.998435	 -1.295950	 2.054377	 -0.405030	 0.626281	 -0.631700	 0.211371	 1
1463569847.194	 7	 -0.200915	 0.114177	 0.150908	 -2.006456	 -1.296652	 2.044962	 -0.404381	 0.627376	 -0.631096	 0.211173	 1
1463569847.204	 7	 -0.201903	 0.184975	 0.086563	 -2.012752	 -1.296703	 2.036699	 -0.403756	 0.628384	 -0.630697	 0.210562	 1
1463569847.214	 7	 -0.218752	 0.235002	 0.085037	 -2.019284	 -1.295611	 2.027612	 -0.403317	 0.629481	 -0.630289	 0.209346	 1
1463569847.224	 7	 -0.242136	 0.251058	 0.089654	 -2.025694	 -1.295395	 2.018381	 -0.402499	 0.630662	 -0.629952	 0.208377	 1
1463569847.234	 7	 -0.247407	 0.235374	 0.124724	 -2.032922	 -1.295316	 2.008403	 -0.401652	 0.631913	 -0.629532	 0.207488	 1
1463569847.244	 7	 -0.270546	 0.295110	 0.139336	 -2.040712	 -1.295364	 1.997420	 -0.400613	 0.633311	 -0.629109	 0.206513	 1
1463569847.254	 7	 -0.276503	 0.357100	 0.178323	 -2.047517	 -1.294582	 1.986694	 -0.399610	 0.634730	 -0.628810	 0.205007	 1
1463569847.264	 7	 -0.217091	 0.375102	 0.337838	 -2.055985	 -1.296109	 1.974027	 -0.397744	 0.636436	 -0.628504	 0.204283	 1
1463569847.274	 7	 -0.136245	 0.390041	 0.523781	 -2.065085	 -1.299573	 1.960569	 -0.395174	 0.638269	 -0.628282	 0.204238	 1
1463569847.284	 7	 -0.045874	 0.401645	 0.693624	 -2.074661	 -1.305002	 1.946501	 -0.391896	 0.640179	 -0.628179	 0.204889	 1
1463569847.294	 7	 0.041764	 0.385807	 0.744936	 -2.083210	 -1.311592	 1.933546	 -0.388254	 0.641943	 -0.628279	 0.205993	 1
1463569847.304	 7	 0.114047	 0.361880	 0.701453	 -2.089713	 -1.318259	 1.923044	 -0.384720	 0.643389	 -0.628564	 0.207241	 1
1463569847.314	 7	 0.149567	 0.393962	 0.739810	 -2.095176	 -1.325258	 1.913443	 -0.381029	 0.644724	 -0.629009	 0.208557	 1
1463569847.324	 7	 0.139254	 0.433659	 0.782900	 -2.101730	 -1.332680	 1.902338	 -0.377046	 0.646183	 -0.629464	 0.209904	 1
1463569847.334	 7	 0.076175	 0.417815	 0.772644	 -2.110536	 -1.339862	 1.888836	 -0.373067	 0.647793	 -0.629769	 0.211134	 1
1463569847.344	 7	 -0.054703	 0.290418	 0.752348	 -2.125085	 -1.346234	 1.870676	 -0.369641	 0.649591	 -0.629489	 0.212465	 1
1463569847.354	 7	 -0.184978	 0.217894	 0.818885	 -2.147288	 -1.352055	 1.845469	 -0.366491	 0.651787	 -0.628580	 0.213880	 1
1463569847.364	 7	 -0.249842	 0.079314	 1.043036	 -2.180381	 -1.358931	 1.810407	 -0.363153	 0.654459	 -0.626955	 0.216172	 1
1463569847.374	 7	 -0.272432	 -0.058031	 1.161320	 -2.222585	 -1.366511	 1.767493	 -0.359791	 0.657328	 -0.624799	 0.219308	 1
1463569847.384	 7	 -0.238759	 -0.236149	 1.253157	 -2.272142	 -1.374552	 1.718842	 -0.356595	 0.660112	 -0.622271	 0.223320	 1
1463569847.394	 7	 -0.133221	 -0.455824	 1.217155	 -2.324769	 -1.382688	 1.669321	 -0.353941	 0.662368	 -0.619615	 0.228193	 1
1463569847.404	 7	 0.037610	 -0.644754	 1.193660	 -2.375833	 -1.391076	 1.623472	 -0.351868	 0.663790	 -0.617166	 0.233832	 1
1463569847.414	 7	 0.118577	 -0.778107	 1.317474	 -2.432914	 -1.400495	 1.573128	 -0.349794	 0.664816	 -0.614688	 0.240462	 1
1463569847.424	 7	 0.068833	 -0.819392	 1.470993	 -2.504878	 -1.410099	 1.508430	 -0.347423	 0.666051	 -0.611809	 0.247714	 1
1463569847.434	 7	 -0.001136	 -0.722557	 1.742141	 -2.599778	 -1.419470	 1.420025	 -0.344170	 0.667927	 -0.608462	 0.255334	 1
1463569847.444	 7	 -0.096433	 -0.509137	 1.946386	 -2.722076	 -1.427714	 1.302060	 -0.339556	 0.670684	 -0.604790	 0.262895	 1
1463569847.454	 7	 -0.144331	 -0.225285	 1.908945	 -2.856413	 -1.433036	 1.169514	 -0.334211	 0.673938	 -0.601235	 0.269495	 1
1463569847.464	 7	 -0.043945	 0.155054	 1.743220	 -2.985175	 -1.436251	 1.038910	 -0.328046	 0.677227	 -0.598640	 0.274551	 1
1463569847.474	 7	 0.075477	 0.488797	 1.320046	 -3.087240	 -1.438237	 0.931836	 -0.321888	 0.679982	 -0.597476	 0.277552	 1
1463569847.484	 7	 0.124780	 0.711709	 0.838901	 3.130776	 -1.439624	 0.859311	 -0.316459	 0.682091	 -0.597621	 0.278306	 1
1463569847.494	 7	 0.074718	 0.663865	 0.381679	 3.099822	 -1.440411	 0.821078	 -0.312558	 0.683564	 -0.598338	 0.277560	 1
1463569847.504	 7	 -0.037652	 0.488915	 -0.028223	 3.099912	 -1.440282	 0.815771	 -0.310732	 0.684442	 -0.599042	 0.275923	 1
1463569847.514	 7	 -0.117481	 0.325370	 -0.318937	 3.123067	 -1.439364	 0.835455	 -0.310648	 0.684846	 -0.599616	 0.273760	 1
1463569847.524	 7	 -0.141385	 0.206734	 -0.554300	 -3.120530	 -1.437952	 0.873039	 -0.311836	 0.684814	 -0.600173	 0.271257	 1
1463569847.534	 7	 -0.071149	 0.034459	 -0.668420	 -3.071096	 -1.436703	 0.922031	 -0.313950	 0.684190	 -0.600872	 0.268836	 1
1463569847.544	 7	 0.005074	 -0.181995	 -0.565588	 -3.028410	 -1.436056	 0.966434	 -0.316404	 0.683100	 -0.601433	 0.267472	 1
1463569847.554	 7	 0.038901	 -0.352451	 -0.443840	 -2.996785	 -1.435757	 1.001462	 -0.318898	 0.681847	 -0.601678	 0.267157	 1
1463569847.564	 7	 0.078896	 -0.536008	 -0.365964	 -2.973023	 -1.435838	 1.030406	 -0.321591	 0.680368	 -0.601638	 0.267789	 1
1463569847.574	 7	 0.084912	 -0.648505	 -0.329762	 -2.953788	 -1.436120	 1.056184	 -0.324511	 0.678710	 -0.601373	 0.269066	 1
1463569847.584	 7	 0.001377	 -0.717340	 -0.322214	 -2.937186	 -1.435742	 1.080064	 -0.327691	 0.677155	 -0.600743	 0.270532	 1
1463569847.594	 7	 -0.038492	 -0.574680	 -0.319474	 -2.920594	 -1.434738	 1.102952	 -0.330657	 0.675897	 -0.600068	 0.271566	 1
1463569847.604	 7	 -0.062932	 -0.661941	 -0.188984	 -2.911448	 -1.433650	 1.118502	 -0.333392	 0.674838	 -0.599145	 0.272890	 1
1463569847.614	 7	 -0.009133	 -0.718241	 -0.010929	 -2.914996	 -1.433297	 1.122103	 -0.335742	 0.673839	 -0.597953	 0.275083	 1
1463569847.624	 7	 0.044742	 -0.697427	 0.094306	 -2.926901	 -1.433762	 1.117195	 -0.337548	 0.672901	 -0.596767	 0.277732	 1
1463569847.634	 7	 0.077863	 -0.683745	 0.087751	 -2.939261	 -1.434675	 1.111624	 -0.339172	 0.671885	 -0.595727	 0.280434	 1
1463569847.644	 7	 0.057275	 -0.718056	 0.048081	 -2.949626	 -1.435426	 1.108306	 -0.340990	 0.670794	 -0.594658	 0.283094	 1
1463569847.654	 7	 -0.008908	 -0.706297	 0.029583	 -2.958895	 -1.435596	 1.106174	 -0.342995	 0.669797	 -0.593428	 0.285606	 1
1463569847.664	 7	 -0.104014	 -0.544031	 0.073486	 -2.970018	 -1.434911	 1.100961	 -0.344683	 0.669278	 -0.592054	 0.287633	 1
1463569847.674	 7	 -0.164224	 -0.241316	 0.138641	 -2.983943	 -1.433606	 1.090142	 -0.345436	 0.669482	 -0.590811	 0.288808	 1
1463569847.684	 7	 -0.182015	 0.051296	 0.147914	 -2.996799	 -1.432051	 1.077359	 -0.345250	 0.670245	 -0.589956	 0.289006	 1
1463569847.694	 7	 -0.185389	 0.282809	 0.097875	 -3.004254	 -1.430371	 1.067494	 -0.344460	 0.671320	 -0.589571	 0.288242	 1
1463569847.704	 7	 -0.173405	 0.383398	 0.040090	 -3.006037	 -1.428690	 1.061998	 -0.343455	 0.672461	 -0.589528	 0.286866	 1
1463569847.714	 7	 -0.148986	 0.374660	 0.018480	 -3.004954	 -1.427160	 1.059206	 -0.342483	 0.673506	 -0.589633	 0.285358	 1
1463569847.724	 7	 -0.104483	 0.276939	 0.054485	 -3.005921	 -1.426074	 1.055141	 -0.341601	 0.674355	 -0.589704	 0.284258	 1
1463569847.734	 7	 -0.085653	 0.121186	 0.144528	 -3.013029	 -1.425365	 1.046310	 -0.340849	 0.675043	 -0.589522	 0.283905	 1
1463569847.744	 7	 -0.103961	 -0.055164	 0.312502	 -3.032039	 -1.424704	 1.027216	 -0.340121	 0.675772	 -0.588789	 0.284565	 1
1463569847.754	 7	 -0.111405	 -0.228030	 0.525177	 -3.066201	 -1.424033	 0.994542	 -0.339235	 0.676632	 -0.587433	 0.286376	 1
1463569847.764	 7	 -0.095311	 -0.394531	 0.745166	 -3.116679	 -1.423363	 0.947096	 -0.338081	 0.677590	 -0.585494	 0.289430	 1
1463569847.774	 7	 -0.037226	 -0.467685	 0.947540	 3.101612	 -1.422740	 0.886148	 -0.336466	 0.678594	 -0.583220	 0.293521	 1
1463569847.784	 7	 0.044922	 -0.405925	 1.137105	 3.024352	 -1.422129	 0.812345	 -0.333963	 0.679721	 -0.580974	 0.298191	 1
1463569847.794	 7	 0.136702	 -0.297746	 1.277993	 2.938244	 -1.421253	 0.728542	 -0.330504	 0.680974	 -0.578951	 0.303080	 1
1463569847.804	 7	 0.222982	 -0.237302	 1.434471	 2.842260	 -1.419700	 0.633935	 -0.326095	 0.682332	 -0.577083	 0.308320	 1
1463569847.814	 7	 0.244839	 -0.147855	 1.457494	 2.746219	 -1.417038	 0.538523	 -0.321257	 0.683712	 -0.575374	 0.313490	 1
1463569847.824	 7	 0.251667	 -0.080670	 1.484704	 2.652955	 -1.412935	 0.445214	 -0.316098	 0.685191	 -0.573709	 0.318519	 1
1463569847.834	 7	 0.258191	 -0.009818	 1.430953	 2.567579	 -1.407815	 0.358929	 -0.310779	 0.686691	 -0.572238	 0.323135	 1
1463569847.844	 7	 0.271924	 -0.009058	 1.394604	 2.489774	 -1.401944	 0.280122	 -0.305546	 0.688070	 -0.570869	 0.327582	 1
1463569847.854	 7	 0.276003	 -0.023123	 1.363531	 2.418596	 -1.395355	 0.208090	 -0.300432	 0.689332	 -0.569519	 0.331979	 1
1463569847.864	 7	 0.290783	 -0.070909	 1.380010	 2.352148	 -1.388029	 0.141106	 -0.295379	 0.690470	 -0.568136	 0.336487	 1
1463569847.874	 7	 0.359072	 -0.154433	 1.476688	 2.285748	 -1.379740	 0.074880	 -0.290193	 0.691400	 -0.566662	 0.341538	 1
1463569847.884	 7	 0.403564	 -0.138460	 1.643774	 2.217893	 -1.369851	 0.007267	 -0.284414	 0.692296	 -0.565078	 0.347161	 1
1463569847.894	 7	 0.313883	 -0.065679	 1.816819	 2.155154	 -1.357285	 -0.056062	 -0.277877	 0.693708	 -0.563031	 0.352915	 1
1463569847.904	 7	 0.270095	 -0.162626	 1.923940	 2.098717	 -1.342631	 -0.112592	 -0.271151	 0.695304	 -0.560444	 0.359070	 1
1463569847.914	 7	 0.253458	 -0.376728	 2.020143	 2.046346	 -1.326362	 -0.163205	 -0.264624	 0.696687	 -0.557296	 0.366091	 1
1463569847.924	 7	 0.276915	 -0.700393	 2.130964	 1.995427	 -1.308591	 -0.209427	 -0.258505	 0.697546	 -0.553536	 0.374437	 1
1463569847.934	 7	 0.305558	 -1.034889	 2.217126	 1.945398	 -1.289500	 -0.251457	 -0.252908	 0.697728	 -0.549183	 0.384201	 1
1463569847.944	 7	 0.372840	 -1.306883	 2.284349	 1.895929	 -1.269395	 -0.290136	 -0.247699	 0.697179	 -0.544444	 0.395180	 1
1463569847.954	 7	 0.459578	 -1.482526	 2.299012	 1.847281	 -1.248741	 -0.326030	 -0.242736	 0.695902	 -0.539590	 0.406991	 1
1463569847.964	 7	 0.411525	 -1.279095	 2.318375	 1.804487	 -1.227496	 -0.356843	 -0.237475	 0.694678	 -0.534705	 0.418471	 1
1463569847.974	 7	 0.210692	 -0.680442	 2.361930	 1.775307	 -1.205114	 -0.378955	 -0.230996	 0.694947	 -0.529653	 0.427968	 1
1463569847.984	 7	 0.077309	 -0.003556	 2.367259	 1.759505	 -1.182109	 -0.394182	 -0.222980	 0.697012	 -0.524714	 0.434890	 1
1463569847.994	 7	 0.121348	 0.378216	 2.522832	 1.749717	 -1.157979	 -0.408224	 -0.213310	 0.700142	 -0.519987	 0.440356	 1
1463569848.004	 7	 0.241292	 0.390230	 2.614620	 1.739057	 -1.132678	 -0.424264	 -0.202667	 0.703171	 -0.515378	 0.445940	 1
1463569848.014	 7	 0.257616	 0.304460	 2.527354	 1.728673	 -1.107947	 -0.439654	 -0.192214	 0.705800	 -0.510916	 0.451514	 1
1463569848.024	 7	 0.162824	 -0.104781	 2.523305	 1.717500	 -1.083356	 -0.452274	 -0.182854	 0.707670	 -0.505893	 0.458083	 1
1463569848.034	 7	 -0.007418	 -0.465769	 2.542743	 1.706728	 -1.058289	 -0.460285	 -0.174751	 0.709005	 -0.499797	 0.465808	 1
1463569848.044	 7	 0.043481	 -1.076718	 2.649586	 1.691648	 -1.032366	 -0.467275	 -0.167681	 0.709079	 -0.492924	 0.475516	 1
1463569848.054	 7	 0.159593	 -1.627713	 2.983426	 1.669145	 -1.003892	 -0.475965	 -0.160833	 0.707459	 -0.485249	 0.488025	 1
1463569848.064	 7	 0.242689	 -1.394632	 3.477254	 1.646317	 -0.970418	 -0.485170	 -0.152004	 0.705838	 -0.476462	 0.501668	 1
1463569848.074	 7	 0.404559	 -0.458079	 3.622042	 1.630898	 -0.934796	 -0.495400	 -0.140103	 0.705840	 -0.468065	 0.512910	 1
1463569848.084	 7	 0.701100	 0.309908	 3.750235	 1.621543	 -0.898068	 -0.509084	 -0.125011	 0.707231	 -0.460782	 0.521418	 1
1463569848.094	 7	 0.774681	 0.617165	 3.909121	 1.615546	 -0.859766	 -0.524158	 -0.107975	 0.709182	 -0.453698	 0.528735	 1
1463569848.104	 7	 0.467944	 0.875236	 4.025031	 1.615188	 -0.820172	 -0.535284	 -0.090518	 0.711998	 -0.445492	 0.535166	 1
1463569848.114	 7	 -0.023526	 1.123099	 4.125404	 1.623092	 -0.779237	 -0.539466	 -0.073214	 0.716404	 -0.435240	 0.540344	 1
1463569848.124	 7	 -0.358032	 1.373830	 4.244686	 1.636277	 -0.737085	 -0.538984	 -0.056101	 0.721857	 -0.423229	 0.544658	 1
1463569848.134	 7	 -0.565783	 1.428847	 4.267256	 1.652551	 -0.693949	 -0.536313	 -0.038953	 0.727923	 -0.409981	 0.548203	 1
1463569848.144	 7	 -0.661781	 1.052219	 3.920347	 1.666354	 -0.653323	 -0.532654	 -0.023716	 0.733021	 -0.396746	 0.552006	 1
1463569848.154	 7	 -0.571187	 0.218667	 3.268081	 1.673273	 -0.618327	 -0.529402	 -0.011727	 0.735895	 -0.384981	 0.556876	 1
1463569848.164	 7	 -0.162485	 -0.537442	 2.276985	 1.669148	 -0.592879	 -0.529005	 -0.004061	 0.735324	 -0.376825	 0.563281	 1
1463569848.174	 7	 0.494014	 -0.951351	 1.200590	 1.657933	 -0.578434	 -0.534592	 0.000783	 0.732416	 -0.373835	 0.569046	 1
1463569848.184	 7	 0.852006	 -1.817985	 0.201447	 1.636650	 -0.574748	 -0.544449	 0.001651	 0.726370	 -0.375514	 0.575650	 1
1463569848.194	 7	 0.810409	 -2.591846	 -0.486414	 1.607368	 -0.578651	 -0.554335	 -0.001657	 0.717846	 -0.379581	 0.583620	 1
1463569848.204	 7	 0.577765	 -2.781687	 -0.798424	 1.575439	 -0.585937	 -0.561805	 -0.007640	 0.708432	 -0.383898	 0.592189	 1
1463569848.214	 7	 0.338652	 -2.365811	 -1.040794	 1.547692	 -0.595894	 -0.566714	 -0.014801	 0.700158	 -0.388137	 0.599091	 1
1463569848.224	 7	 0.096381	 -1.770924	 -0.946823	 1.527319	 -0.605706	 -0.569009	 -0.021488	 0.694026	 -0.391478	 0.603830	 1
1463569848.234	 7	 -0.091784	 -1.387675	 -0.681572	 1.512702	 -0.613247	 -0.568867	 -0.027126	 0.689582	 -0.393406	 0.607431	 1
1463569848.244	 7	 -0.196222	 -1.383061	 -0.381141	 1.499984	 -0.617963	 -0.567074	 -0.031957	 0.685671	 -0.394001	 0.611226	 1
1463569848.254	 7	 -0.323519	 -1.470935	 -0.083502	 1.487538	 -0.619700	 -0.563744	 -0.036178	 0.681793	 -0.393253	 0.615793	 1
1463569848.264	 7	 -0.631214	 -1.527785	 0.165904	 1.476185	 -0.619134	 -0.557007	 -0.040487	 0.678154	 -0.390795	 0.621085	 1
1463569848.274	 7	 -1.133267	 -1.405215	 0.437857	 1.469118	 -0.616476	 -0.544387	 -0.045154	 0.675686	 -0.385971	 0.626447	 1
1463569848.284	 7	 -1.719026	 -1.403461	 0.736058	 1.466736	 -0.611512	 -0.524426	 -0.050520	 0.674480	 -0.378252	 0.632020	 1
1463569848.294	 7	 -2.264824	 -1.517837	 1.023239	 1.467323	 -0.604249	 -0.497400	 -0.056847	 0.673995	 -0.367645	 0.638230	 1
1463569848.304	 7	 -2.755787	 -1.762217	 1.299140	 1.469164	 -0.594732	 -0.464094	 -0.064234	 0.673688	 -0.354303	 0.645359	 1
1463569848.314	 7	 -3.127234	 -2.060738	 1.637443	 1.470587	 -0.582413	 -0.425828	 -0.072342	 0.673047	 -0.338361	 0.653672	 1
1463569848.324	 7	 -3.221787	 -2.341239	 2.079013	 1.469899	 -0.566101	 -0.385123	 -0.080144	 0.671618	 -0.320138	 0.663339	 1
1463569848.334	 7	 -2.982467	 -2.447063	 2.542749	 1.466039	 -0.545116	 -0.346592	 -0.085942	 0.669260	 -0.300838	 0.673945	 1
1463569848.344	 7	 -2.646863	 -2.647468	 2.909913	 1.457982	 -0.519939	 -0.311410	 -0.089573	 0.665678	 -0.280932	 0.685512	 1
1463569848.354	 7	 -2.193640	 -2.862390	 3.083015	 1.444682	 -0.492411	 -0.281012	 -0.091258	 0.660495	 -0.261450	 0.697898	 1
1463569848.364	 7	 -1.660150	 -3.141283	 3.120537	 1.425424	 -0.463948	 -0.256223	 -0.091210	 0.653381	 -0.243171	 0.711085	 1
1463569848.374	 7	 -1.151474	 -3.500734	 3.186301	 1.399849	 -0.434719	 -0.236749	 -0.089511	 0.644082	 -0.226149	 0.725261	 1
1463569848.384	 7	 -0.741754	 -3.874130	 3.342320	 1.368395	 -0.403826	 -0.221024	 -0.086167	 0.632573	 -0.209709	 0.740573	 1
1463569848.394	 7	 -0.423417	 -4.121060	 3.447024	 1.332760	 -0.371460	 -0.207728	 -0.081390	 0.619289	 -0.193629	 0.756548	 1
1463569848.404	 7	 -0.248920	 -4.218471	 3.431809	 1.294992	 -0.338880	 -0.195482	 -0.075837	 0.604840	 -0.177950	 0.772496	 1
1463569848.414	 7	 -0.188306	 -4.172639	 3.323000	 1.256971	 -0.307356	 -0.183204	 -0.070160	 0.589882	 -0.162741	 0.787802	 1
1463569848.424	 7	 -0.188238	 -4.026996	 3.166622	 1.219999	 -0.277670	 -0.170462	 -0.064721	 0.574952	 -0.148094	 0.802066	 1
1463569848.434	 7	 -0.201944	 -3.924366	 3.086698	 1.184038	 -0.249428	 -0.156927	 -0.059503	 0.560091	 -0.133740	 0.815397	 1
1463569848.444	 7	 -0.155290	 -3.903960	 2.986300	 1.148282	 -0.222421	 -0.143097	 -0.054362	 0.545040	 -0.119775	 0.828028	 1
1463569848.454	 7	 -0.028137	 -4.006156	 2.878732	 1.111289	 -0.196425	 -0.129851	 -0.049069	 0.529247	 -0.106468	 0.840330	 1
1463569848.464	 7	 0.121283	 -4.167730	 2.805587	 1.072322	 -0.170998	 -0.117396	 -0.043427	 0.512404	 -0.093796	 0.852501	 1
1463569848.474	 7	 0.244325	 -4.308644	 2.784021	 1.031455	 -0.145738	 -0.105305	 -0.037362	 0.494511	 -0.081516	 0.864534	 1
1463569848.484	 7	 0.324248	 -4.125775	 2.806342	 0.990909	 -0.120397	 -0.092938	 -0.030826	 0.476517	 -0.069365	 0.875883	 1
1463569848.494	 7	 0.593141	 -3.710441	 2.840904	 0.954267	 -0.094161	 -0.081049	 -0.023188	 0.460043	 -0.057544	 0.885727	 1
1463569848.504	 7	 1.158447	 -3.567280	 2.863958	 0.919023	 -0.065182	 -0.072218	 -0.013183	 0.444040	 -0.046781	 0.894688	 1
1463569848.514	 7	 1.694293	 -3.357889	 2.914529	 0.885068	 -0.032642	 -0.066518	 -0.000502	 0.428427	 -0.037031	 0.902817	 1
1463569848.524	 7	 2.034193	 -2.999545	 2.892523	 0.854281	 0.002190	 -0.062738	 0.013989	 0.414035	 -0.028093	 0.909720	 1
1463569848.534	 7	 2.255455	 -2.815007	 2.762291	 0.825736	 0.037750	 -0.060466	 0.029407	 0.400461	 -0.020114	 0.915621	 1
1463569848.544	 7	 2.399437	 -2.696426	 2.599079	 0.798442	 0.073208	 -0.059488	 0.045255	 0.387266	 -0.013164	 0.920763	 1
1463569848.554	 7	 2.450150	 -2.637395	 2.399889	 0.771965	 0.107819	 -0.059413	 0.061063	 0.374274	 -0.007201	 0.925278	 1
1463569848.564	 7	 2.428502	 -2.714693	 2.145707	 0.745242	 0.140706	 -0.060130	 0.076358	 0.361025	 -0.002348	 0.929422	 1
1463569848.574	 9	 2.401630	 -2.995115	 1.892877	 0.716349	 0.171677	 -0.061663	 0.091021	 0.346633	 0.001277	 0.933573	 1
1463569848.604	 9	 2.105682	 -3.870126	 1.233999	 0.610042	 0.252935	 -0.068755	 0.130477	 0.293604	 0.005334	 0.946966	 1
1463569848.614	 9	 1.958708	 -3.873206	 1.043413	 0.571798	 0.275570	 -0.070891	 0.141591	 0.274502	 0.005034	 0.951092	 1
1463569848.624	 9	 1.835940	 -3.745332	 0.880479	 0.534540	 0.296254	 -0.072965	 0.151779	 0.255841	 0.004157	 0.954720	 1
1463569848.634	 9	 1.741738	 -3.516931	 0.804558	 0.499243	 0.315609	 -0.074602	 0.161272	 0.238119	 0.003107	 0.957748	 1
1463569848.644	 9	 1.743828	 -3.239858	 0.732515	 0.466699	 0.334458	 -0.076087	 0.170495	 0.221688	 0.001975	 0.960095	 1
1463569848.654	 9	 1.860942	 -2.999444	 0.641966	 0.436759	 0.353803	 -0.078174	 0.180003	 0.206391	 0.000543	 0.961770	 1
1463569848.664	 9	 1.993365	 -2.667667	 0.539456	 0.410351	 0.374010	 -0.081341	 0.190007	 0.192621	 -0.001265	 0.962701	 1
1463569848.674	 9	 2.059848	 -2.322633	 0.478142	 0.387641	 0.394794	 -0.085012	 0.200297	 0.180521	 -0.003148	 0.962956	 1
1463569848.684	 9	 2.075423	 -2.107465	 0.381958	 0.367808	 0.415580	 -0.089181	 0.210594	 0.169717	 -0.005193	 0.962715	 1
1463569848.694	 9	 2.036458	 -1.877581	 0.239493	 0.350484	 0.435742	 -0.094251	 0.220624	 0.160009	 -0.007647	 0.962114	 1
1463569848.714	 10	 1.935112	 -1.225887	 0.010906	 0.326612	 0.473333	 -0.106943	 0.239460	 0.145459	 -0.013200	 0.959857	 1
1463569848.724	 10	 1.942440	 -1.009111	 -0.013785	 0.319321	 0.491679	 -0.114015	 0.248671	 0.140262	 -0.015932	 0.958246	 1
1463569848.734	 10	 1.967836	 -0.867393	 0.032075	 0.313614	 0.510368	 -0.120801	 0.257993	 0.135782	 -0.018344	 0.956382	 1
1463569848.744	 10	 1.961024	 -0.818725	 0.140229	 0.308187	 0.529426	 -0.126522	 0.267380	 0.131498	 -0.020218	 0.954362	 1
1463569848.754	 10	 1.873149	 -0.780290	 0.271375	 0.302348	 0.548265	 -0.130532	 0.276510	 0.127212	 -0.021386	 0.952314	 1
1463569848.764	 10	 1.733660	 -0.820442	 0.397974	 0.295585	 0.566108	 -0.132632	 0.285008	 0.122778	 -0.021901	 0.950377	 1
1463569848.774	 10	 1.582757	 -0.975794	 0.474576	 0.286584	 0.582813	 -0.133021	 0.292817	 0.117581	 -0.022071	 0.948655	 1
1463569848.784	 10	 1.407000	 -1.131637	 0.473590	 0.275242	 0.598094	 -0.132333	 0.299853	 0.111517	 -0.022258	 0.947183	 1
1463569848.794	 10	 1.200387	 -1.229225	 0.426522	 0.262535	 0.611352	 -0.131236	 0.305892	 0.104992	 -0.022688	 0.945987	 1
1463569848.804	 10	 0.933212	 -1.326152	 0.446064	 0.248301	 0.622121	 -0.129088	 0.310684	 0.098055	 -0.023109	 0.945160	 1
1463569848.814	 10	 0.734473	 -1.321797	 0.379626	 0.233522	 0.630642	 -0.126564	 0.314398	 0.091052	 -0.023657	 0.944618	 1
1463569848.834	 11	 0.537581	 -1.208303	 0.110627	 0.207392	 0.643260	 -0.124758	 0.319926	 0.078411	 -0.026167	 0.943830	 1
1463569848.844	 11	 0.447832	 -1.207179	 0.082643	 0.195487	 0.648046	 -0.124936	 0.322020	 0.072548	 -0.027887	 0.943537	 1
1463569848.854	 11	 0.337867	 -1.262831	 0.137437	 0.182664	 0.651871	 -0.124360	 0.323614	 0.066422	 -0.029476	 0.943395	 1
1463569848.864	 11	 0.230391	 -1.277776	 0.233086	 0.168568	 0.654737	 -0.122269	 0.324682	 0.059988	 -0.030627	 0.943422	 1
1463569848.874	 11	 0.179807	 -1.159416	 0.253812	 0.154911	 0.657010	 -0.119512	 0.325461	 0.053900	 -0.031438	 0.943494	 1
1463569848.884	 11	 0.203391	 -0.917985	 0.262248	 0.143329	 0.659305	 -0.116650	 0.326284	 0.048811	 -0.031872	 0.943473	 1
1463569848.894	 11	 0.289490	 -0.574380	 0.305194	 0.134691	 0.662339	 -0.113449	 0.327498	 0.045143	 -0.031646	 0.943242	 1
1463569848.904	 11	 0.416572	 -0.148916	 0.359204	 0.129800	 0.666600	 -0.109725	 0.329344	 0.043291	 -0.030522	 0.942723	 1
1463569848.914	 11	 0.557576	 0.306118	 0.389920	 0.129247	 0.672270	 -0.105716	 0.331914	 0.043489	 -0.028502	 0.941876	 1
1463569848.924	 11	 0.728855	 0.645960	 0.388394	 0.132582	 0.679562	 -0.101895	 0.335297	 0.045439	 -0.025860	 0.940660	 1
1463569848.934	 11	 0.908462	 0.736706	 0.361030	 0.137844	 0.688631	 -0.098679	 0.339538	 0.048138	 -0.023096	 0.939076	 1
1463569848.944	 11	 1.028270	 0.609451	 0.315107	 0.142817	 0.699028	 -0.096284	 0.344399	 0.050519	 -0.020694	 0.937235	 1
1463569848.964	 12	 0.996241	 0.002645	 0.226609	 0.146151	 0.720254	 -0.093626	 0.354265	 0.051805	 -0.017977	 0.933536	 1
1463569848.974	 12	 0.874119	 -0.351980	 0.262740	 0.142512	 0.729581	 -0.092030	 0.358531	 0.050072	 -0.017491	 0.932010	 1
1463569848.984	 12	 0.725433	 -0.662030	 0.275005	 0.135101	 0.737533	 -0.089801	 0.362107	 0.046755	 -0.017466	 0.930799	 1
1463569848.994	 12	 0.537926	 -0.815748	 0.268812	 0.125464	 0.743704	 -0.087214	 0.364828	 0.042543	 -0.017777	 0.929933	 1
1463569849.004	 12	 0.331993	 -0.807709	 0.267483	 0.115275	 0.747828	 -0.084227	 0.366590	 0.038225	 -0.018105	 0.929421	 1
1463569849.014	 12	 0.152062	 -0.709404	 0.257175	 0.105648	 0.750054	 -0.080984	 0.367476	 0.034282	 -0.018290	 0.929221	 1
1463569849.024	 12	 0.029890	 -0.598377	 0.264601	 0.097090	 0.750874	 -0.077512	 0.367722	 0.030921	 -0.018225	 0.929243	 1
1463569849.034	 12	 -0.026275	 -0.500482	 0.247883	 0.089410	 0.750949	 -0.074027	 0.367635	 0.027992	 -0.018015	 0.929374	 1
1463569849.044	 12	 -0.027858	 -0.350792	 0.208790	 0.083476	 0.750838	 -0.071006	 0.367490	 0.025792	 -0.017705	 0.929501	 1
1463569849.054	 12	 0.002509	 -0.213970	 0.168234	 0.079341	 0.750917	 -0.068570	 0.367460	 0.024316	 -0.017331	 0.929560	 1
1463569849.064	 12	 0.043476	 -0.091015	 0.126391	 0.076879	 0.751350	 -0.066732	 0.367618	 0.023500	 -0.016918	 0.929526	 1
1463569849.074	 12	 0.074621	 -0.008497	 0.077863	 0.075830	 0.752103	 -0.065582	 0.367945	 0.023206	 -0.016559	 0.929410	 1
1463569849.084	 12	 0.079976	 0.022102	 0.046128	 0.075584	 0.752929	 -0.064962	 0.368319	 0.023188	 -0.016296	 0.929267	 1
1463569849.094	 12	 0.073695	 0.042377	 0.052766	 0.075544	 0.753715	 -0.064378	 0.368678	 0.023260	 -0.016014	 0.929128	 1
1463569849.104	 12	 0.069844	 0.100090	 0.089573	 0.075671	 0.754476	 -0.063359	 0.369020	 0.023490	 -0.015499	 0.928995	 1
1463569849.114	 12	 0.075602	 0.157783	 0.127361	 0.076090	 0.755297	 -0.061824	 0.369385	 0.023951	 -0.014690	 0.928851	 1
1463569849.124	 12	 0.095985	 0.153699	 0.159118	 0.076339	 0.756315	 -0.059862	 0.369836	 0.024407	 -0.013709	 0.928675	 1
1463569849.134	 12	 0.140598	 0.083594	 0.190050	 0.075737	 0.757730	 -0.057458	 0.370459	 0.024543	 -0.012672	 0.928438	 1
1463569849.144	 12	 0.196583	 -0.022010	 0.170462	 0.074243	 0.759671	 -0.055196	 0.371322	 0.024231	 -0.011855	 0.928112	 1
1463569849.154	 12	 0.204849	 -0.042561	 0.126503	 0.072592	 0.761885	 -0.053494	 0.372319	 0.023738	 -0.011323	 0.927732	 1
1463569849.174	 13	 -0.013775	 -0.078393	 -0.062699	 0.071346	 0.763374	 -0.053351	 0.373000	 0.023158	 -0.011457	 0.927472	 1
1463569849.184	 13	 -0.119752	 -0.059695	 -0.167112	 0.071979	 0.762318	 -0.055205	 0.372536	 0.023126	 -0.012222	 0.927649	 1
