% Gyrometer data recorded with 'snsrlog'
% 
% 
% Label description:
% 	 0: Default Label
% 	 1: still_drop
% 	 2: walk_drop
% 	 3: other
% 	 4: dtw_same
% 	 5: dtw_diff
% 	 6: delete
% 	 7: steal
% 
% Column description:
% 	 1: Seconds.milliseconds since 1970
% 	 2: Number of skipped measurements
% 	 3: Gyro X
% 	 4: Gyro Y
% 	 5: Gyro Z
% 	 6: Roll of the device
% 	 7: Pitch of the device
% 	 8: Yaw of the device
% 	 9: Quaternion X
% 	 10: Quaternion Y
% 	 11: Quaternion Z
% 	 12: Quaternion W
% 	 13: Label used for the current sample
% 
% 
1463571502.986	 0	 -0.387163	 -0.388238	 -0.574052	 0.173264	 0.560379	 -0.105436	 0.279499	 0.068517	 -0.026555	 0.957330	 2
1463571502.996	 0	 -0.248520	 -0.156988	 -0.602948	 0.174450	 0.556571	 -0.111727	 0.277913	 0.068352	 -0.029589	 0.957714	 2
1463571503.007	 0	 -0.136617	 0.030995	 -0.595779	 0.177803	 0.553922	 -0.118378	 0.276929	 0.069141	 -0.032441	 0.957851	 2
1463571503.017	 0	 -0.054261	 0.220726	 -0.506272	 0.182700	 0.552242	 -0.124412	 0.276420	 0.070720	 -0.034740	 0.957802	 2
1463571503.027	 0	 -0.012382	 0.356933	 -0.333782	 0.188269	 0.551342	 -0.128763	 0.276245	 0.072825	 -0.036102	 0.957644	 2
1463571503.037	 0	 -0.012480	 0.389273	 -0.127788	 0.193225	 0.550900	 -0.130802	 0.276199	 0.074935	 -0.036418	 0.957482	 2
1463571503.046	 0	 -0.056864	 0.318492	 0.066975	 0.196464	 0.550518	 -0.130466	 0.276063	 0.076549	 -0.035831	 0.957416	 2
1463571503.056	 0	 -0.145548	 0.175141	 0.210291	 0.197379	 0.549675	 -0.128140	 0.275588	 0.077345	 -0.034638	 0.957533	 2
1463571503.067	 0	 -0.263421	 0.007997	 0.287562	 0.195960	 0.547933	 -0.124487	 0.274591	 0.077244	 -0.033181	 0.957879	 2
1463571503.076	 0	 -0.396166	 -0.109419	 0.322796	 0.192792	 0.544985	 -0.120028	 0.272961	 0.076462	 -0.031640	 0.958460	 2
1463571503.086	 0	 -0.528816	 -0.168665	 0.312742	 0.188780	 0.540728	 -0.115281	 0.270684	 0.075358	 -0.030138	 0.959241	 2
1463571503.097	 0	 -0.652091	 -0.227302	 0.243995	 0.184404	 0.535087	 -0.110905	 0.267757	 0.074070	 -0.028922	 0.960200	 2
1463571503.106	 0	 -0.715076	 -0.304151	 0.149816	 0.179857	 0.528483	 -0.107453	 0.264402	 0.072596	 -0.028206	 0.961263	 2
1463571503.116	 0	 -0.720231	 -0.445992	 0.095253	 0.174429	 0.521574	 -0.104776	 0.260916	 0.070593	 -0.027973	 0.962371	 2
1463571503.127	 0	 -0.729220	 -0.542744	 0.096562	 0.167962	 0.514573	 -0.102278	 0.257376	 0.068054	 -0.027943	 0.963507	 2
1463571503.136	 0	 -0.767564	 -0.564642	 0.141454	 0.160937	 0.507336	 -0.099426	 0.253702	 0.065283	 -0.027799	 0.964677	 2
1463571503.146	 0	 -0.850265	 -0.515972	 0.219362	 0.153814	 0.499475	 -0.095712	 0.249698	 0.062575	 -0.027249	 0.965915	 2
1463571503.157	 0	 -0.961446	 -0.408613	 0.311919	 0.147143	 0.490692	 -0.090878	 0.245224	 0.060227	 -0.026108	 0.967242	 2
1463571503.166	 0	 -1.062920	 -0.290554	 0.417280	 0.141140	 0.480955	 -0.084817	 0.240263	 0.058349	 -0.024295	 0.968648	 2
1463571503.176	 0	 -1.102618	 -0.198200	 0.522930	 0.135628	 0.470747	 -0.077566	 0.235050	 0.056823	 -0.021827	 0.970075	 2
1463571503.187	 0	 -1.037810	 -0.066219	 0.561961	 0.131061	 0.460983	 -0.069771	 0.230051	 0.055762	 -0.018932	 0.971395	 2
1463571503.197	 0	 -0.881148	 0.205881	 0.453355	 0.129396	 0.452451	 -0.063031	 0.225706	 0.055921	 -0.016149	 0.972455	 2
1463571503.207	 0	 -0.683287	 0.485531	 0.229359	 0.131755	 0.445559	 -0.058765	 0.222253	 0.057699	 -0.014052	 0.973179	 2
1463571503.217	 0	 -0.474691	 0.643117	 -0.102443	 0.137605	 0.440320	 -0.058129	 0.219727	 0.060729	 -0.013284	 0.973579	 2
1463571503.227	 0	 -0.292657	 0.634553	 -0.476058	 0.145633	 0.436455	 -0.061815	 0.218018	 0.064320	 -0.014346	 0.973717	 2
1463571503.237	 0	 -0.221725	 0.730327	 -0.733699	 0.155417	 0.433182	 -0.068835	 0.216735	 0.068399	 -0.016832	 0.973686	 2
1463571503.247	 0	 -0.302645	 1.128275	 -0.891288	 0.169380	 0.429051	 -0.077680	 0.215170	 0.074351	 -0.019810	 0.973541	 2
1463571503.267	 1	 -0.495517	 1.444479	 -0.926099	 0.203599	 0.417130	 -0.095952	 0.210515	 0.089429	 -0.025658	 0.973153	 2
1463571503.277	 1	 -0.568232	 1.587663	 -0.864451	 0.222426	 0.409894	 -0.104125	 0.207639	 0.097988	 -0.028079	 0.972880	 2
1463571503.297	 2	 -0.717635	 1.983023	 -0.526953	 0.262988	 0.393811	 -0.114912	 0.201010	 0.117232	 -0.030220	 0.972079	 2
1463571503.307	 2	 -0.750890	 2.190200	 -0.278545	 0.284942	 0.385704	 -0.116288	 0.197494	 0.128097	 -0.029288	 0.971457	 2
1463571503.317	 2	 -0.705527	 2.321635	 -0.029394	 0.307346	 0.378550	 -0.114954	 0.194259	 0.139406	 -0.027003	 0.970619	 2
1463571503.327	 2	 -0.581504	 2.418535	 0.182514	 0.330093	 0.373101	 -0.111518	 0.191663	 0.151001	 -0.023594	 0.969488	 2
1463571503.337	 2	 -0.393750	 2.538958	 0.290708	 0.353481	 0.369857	 -0.107172	 0.190009	 0.162881	 -0.019544	 0.967980	 2
1463571503.347	 2	 -0.190887	 2.793564	 0.281719	 0.379297	 0.368631	 -0.103342	 0.189319	 0.175778	 -0.015359	 0.965932	 2
1463571503.357	 2	 0.021748	 3.179202	 0.158762	 0.409290	 0.369094	 -0.101246	 0.189551	 0.190421	 -0.011461	 0.963161	 2
1463571503.367	 2	 0.235493	 3.689346	 -0.101595	 0.445214	 0.370636	 -0.102344	 0.190576	 0.207516	 -0.008407	 0.959451	 2
1463571503.387	 3	 0.553954	 5.019479	 -0.766618	 0.540410	 0.373726	 -0.116717	 0.194030	 0.251394	 -0.005726	 0.948220	 2
1463571503.397	 3	 0.394064	 5.381977	 -1.150856	 0.597771	 0.371961	 -0.128837	 0.194974	 0.277402	 -0.006124	 0.940742	 2
1463571503.407	 3	 -0.100708	 6.013503	 -1.532873	 0.660789	 0.363721	 -0.141580	 0.193217	 0.306167	 -0.007275	 0.932135	 2
1463571503.417	 3	 -0.536236	 6.458323	 -1.823355	 0.728407	 0.349128	 -0.152867	 0.188599	 0.337375	 -0.008582	 0.922244	 2
1463571503.427	 3	 -0.713539	 6.748551	 -2.207048	 0.798893	 0.329625	 -0.163986	 0.182064	 0.369970	 -0.010838	 0.910965	 2
1463571503.437	 3	 -0.764892	 7.020527	 -2.563232	 0.871965	 0.306157	 -0.175574	 0.174277	 0.403638	 -0.014398	 0.898052	 2
1463571503.447	 3	 -0.690371	 7.425791	 -2.822287	 0.948533	 0.279928	 -0.187350	 0.165865	 0.438628	 -0.018969	 0.883025	 2
1463571503.457	 3	 -0.408989	 7.929091	 -2.972458	 1.029790	 0.252584	 -0.199841	 0.157811	 0.475149	 -0.024412	 0.865293	 2
1463571503.467	 3	 0.155604	 8.386965	 -2.965652	 1.116065	 0.226424	 -0.214448	 0.151588	 0.512851	 -0.030727	 0.844429	 2
1463571503.477	 3	 0.899979	 8.658744	 -2.881146	 1.205953	 0.202568	 -0.232949	 0.148281	 0.550689	 -0.038276	 0.820542	 2
1463571503.487	 3	 1.651271	 8.862009	 -2.854889	 1.298516	 0.180065	 -0.256264	 0.147973	 0.588059	 -0.047456	 0.793749	 2
1463571503.497	 3	 2.236875	 8.879838	 -2.946149	 1.392043	 0.156302	 -0.283649	 0.149663	 0.624326	 -0.058586	 0.764451	 2
1463571503.507	 3	 2.617599	 8.533783	 -3.138126	 1.482665	 0.129124	 -0.313146	 0.152082	 0.658201	 -0.071739	 0.733823	 2
1463571503.517	 3	 2.740091	 7.855649	 -3.466298	 1.566363	 0.096648	 -0.342096	 0.153686	 0.688603	 -0.086902	 0.703317	 2
1463571503.527	 3	 2.622101	 6.932023	 -3.863934	 1.640073	 0.058182	 -0.367500	 0.153050	 0.714932	 -0.103687	 0.674312	 2
1463571503.537	 3	 2.416192	 5.949910	 -4.295454	 1.702750	 0.014081	 -0.387829	 0.149496	 0.737177	 -0.121781	 0.647604	 2
1463571503.547	 3	 2.233075	 5.124488	 -4.817369	 1.755754	 -0.035701	 -0.402859	 0.142735	 0.755990	 -0.141237	 0.623024	 2
1463571503.557	 3	 2.170562	 4.586445	 -5.409066	 1.802132	 -0.091645	 -0.413268	 0.132849	 0.772340	 -0.162376	 0.599563	 2
1463571503.567	 3	 2.240774	 4.318512	 -5.953578	 1.845031	 -0.153573	 -0.420196	 0.120454	 0.786958	 -0.185362	 0.576046	 2
1463571503.577	 3	 2.353531	 4.144929	 -6.377151	 1.886139	 -0.220339	 -0.424299	 0.106263	 0.800019	 -0.209906	 0.551921	 2
1463571503.587	 3	 2.457040	 4.018246	 -6.497531	 1.926437	 -0.289703	 -0.425861	 0.091145	 0.811501	 -0.235214	 0.527099	 2
1463571503.607	 4	 2.739714	 3.016475	 -5.336976	 1.993812	 -0.418813	 -0.429965	 0.064980	 0.826616	 -0.283845	 0.481576	 2
1463571503.617	 4	 2.827708	 2.442400	 -4.530972	 2.016839	 -0.473418	 -0.436232	 0.055885	 0.829972	 -0.305850	 0.463120	 2
1463571503.627	 4	 2.798680	 1.944374	 -3.991815	 2.033667	 -0.522729	 -0.444432	 0.048474	 0.831322	 -0.326353	 0.447268	 2
1463571503.637	 4	 2.649784	 1.289124	 -3.621468	 2.043801	 -0.567934	 -0.452999	 0.041465	 0.830845	 -0.345380	 0.434384	 2
1463571503.647	 4	 2.413796	 0.641383	 -3.424011	 2.047686	 -0.610059	 -0.460426	 0.033827	 0.828833	 -0.362939	 0.424460	 2
1463571503.657	 4	 2.142318	 0.029102	 -3.337821	 2.046375	 -0.650010	 -0.465683	 0.024926	 0.825604	 -0.379111	 0.417171	 2
1463571503.667	 4	 1.882910	 -0.492981	 -3.275409	 2.040853	 -0.688164	 -0.468638	 0.014691	 0.821408	 -0.393975	 0.412136	 2
1463571503.677	 4	 1.652979	 -0.903226	 -3.179174	 2.032062	 -0.724488	 -0.469757	 0.003445	 0.816477	 -0.407586	 0.408933	 2
1463571503.687	 4	 1.457873	 -1.221657	 -3.021640	 2.020586	 -0.758621	 -0.469785	 -0.008325	 0.810992	 -0.419943	 0.407273	 2
1463571503.697	 4	 1.232744	 -1.606693	 -2.820768	 2.006047	 -0.790156	 -0.468883	 -0.020545	 0.804946	 -0.430914	 0.407373	 2
1463571503.707	 4	 1.038833	 -1.835435	 -2.468441	 1.989026	 -0.817950	 -0.467741	 -0.032505	 0.798616	 -0.440231	 0.409088	 2
1463571503.717	 4	 0.990011	 -1.924611	 -2.025489	 1.969258	 -0.841531	 -0.468639	 -0.043222	 0.792085	 -0.448208	 0.412119	 2
1463571503.727	 4	 1.067729	 -1.874901	 -1.593003	 1.946575	 -0.861159	 -0.473555	 -0.052042	 0.785399	 -0.455372	 0.416025	 2
1463571503.737	 4	 1.221463	 -1.671010	 -1.282308	 1.921955	 -0.877993	 -0.483199	 -0.058821	 0.778711	 -0.462334	 0.419995	 2
1463571503.757	 5	 1.521601	 -1.256455	 -0.902718	 1.868626	 -0.906550	 -0.515704	 -0.067314	 0.765453	 -0.476784	 0.426881	 2
1463571503.767	 5	 1.581403	 -1.160767	 -0.737155	 1.840157	 -0.918425	 -0.536788	 -0.069750	 0.758888	 -0.484035	 0.430041	 2
1463571503.777	 5	 1.573759	 -1.122216	 -0.557682	 1.810677	 -0.928246	 -0.559620	 -0.071366	 0.752391	 -0.490910	 0.433385	 2
1463571503.787	 5	 1.079778	 -1.505275	 -0.339530	 1.781779	 -0.934879	 -0.577964	 -0.073722	 0.746160	 -0.495822	 0.438145	 2
1463571503.797	 5	 0.800892	 -1.706512	 -0.188701	 1.754299	 -0.938649	 -0.591505	 -0.076734	 0.740285	 -0.498866	 0.444098	 2
1463571503.807	 5	 0.703134	 -1.665390	 -0.130982	 1.728089	 -0.941338	 -0.602799	 -0.079997	 0.734649	 -0.501125	 0.450294	 2
1463571503.817	 5	 0.752987	 -1.554483	 -0.070702	 1.702285	 -0.943240	 -0.615228	 -0.082556	 0.729161	 -0.503420	 0.456154	 2
1463571503.827	 5	 0.657971	 -1.441614	 0.054804	 1.678172	 -0.943901	 -0.626887	 -0.084621	 0.724068	 -0.505267	 0.461812	 2
1463571503.847	 6	 0.363909	 -1.489621	 0.502407	 1.634964	 -0.938364	 -0.644116	 -0.087471	 0.715053	 -0.505979	 0.474377	 2
1463571503.857	 6	 0.323306	 -1.307509	 0.811394	 1.616441	 -0.931230	 -0.650138	 -0.087558	 0.711302	 -0.504765	 0.481243	 2
1463571503.867	 6	 0.529141	 -0.920806	 1.125469	 1.599414	 -0.920915	 -0.658694	 -0.085249	 0.708089	 -0.503469	 0.487711	 2
1463571503.877	 6	 0.378069	 -0.729881	 1.285228	 1.585545	 -0.908401	 -0.666563	 -0.081597	 0.705604	 -0.501656	 0.493767	 2
1463571503.887	 6	 -0.194748	 -0.647604	 1.252614	 1.579177	 -0.895700	 -0.666179	 -0.078883	 0.704554	 -0.498101	 0.499277	 2
1463571503.897	 6	 -0.777559	 -0.529098	 1.078677	 1.581315	 -0.884371	 -0.656107	 -0.077938	 0.705166	 -0.492780	 0.503820	 2
1463571503.907	 6	 -0.996251	 -0.201595	 0.978118	 1.589884	 -0.874362	 -0.641083	 -0.077648	 0.707172	 -0.486736	 0.506919	 2
1463571503.917	 6	 -0.768903	 0.331928	 1.160151	 1.601515	 -0.863139	 -0.628374	 -0.075433	 0.710136	 -0.481007	 0.508576	 2
1463571503.927	 6	 -0.309591	 0.900276	 1.398040	 1.613505	 -0.849567	 -0.622530	 -0.069942	 0.713585	 -0.476329	 0.508935	 2
1463571503.937	 6	 0.093259	 1.422741	 1.446288	 1.625620	 -0.835066	 -0.623713	 -0.061642	 0.717348	 -0.473093	 0.507735	 2
1463571503.947	 6	 0.092020	 1.634387	 1.150920	 1.639551	 -0.822709	 -0.626664	 -0.053049	 0.721493	 -0.470843	 0.504916	 2
1463571503.957	 6	 -0.055736	 1.643598	 0.748368	 1.655594	 -0.814333	 -0.627031	 -0.046287	 0.725895	 -0.469001	 0.500971	 2
1463571503.967	 6	 0.259248	 1.953888	 0.689896	 1.671864	 -0.807717	 -0.630226	 -0.039066	 0.730302	 -0.468280	 0.495830	 2
1463571503.977	 6	 0.621766	 2.360877	 0.931389	 1.687934	 -0.799748	 -0.639397	 -0.029256	 0.734756	 -0.468544	 0.489637	 2
1463571503.987	 6	 0.682565	 2.419526	 1.123243	 1.703973	 -0.789854	 -0.651058	 -0.017883	 0.739200	 -0.468726	 0.483280	 2
1463571503.997	 6	 0.703337	 2.205420	 1.234041	 1.718143	 -0.778849	 -0.662980	 -0.006477	 0.743104	 -0.468489	 0.477779	 2
1463571504.007	 6	 1.020711	 2.039877	 1.268104	 1.728061	 -0.767744	 -0.678511	 0.005315	 0.745864	 -0.468947	 0.473019	 2
1463571504.017	 6	 1.287876	 1.860680	 1.305675	 1.733592	 -0.756875	 -0.698215	 0.017568	 0.747399	 -0.470382	 0.468857	 2
1463571504.027	 6	 1.398409	 1.540366	 1.034226	 1.735447	 -0.748065	 -0.719333	 0.028813	 0.747825	 -0.472726	 0.465250	 2
1463571504.037	 6	 1.476395	 1.179112	 0.677418	 1.733777	 -0.742959	 -0.740537	 0.038032	 0.747197	 -0.476190	 0.462053	 2
1463571504.047	 6	 1.576805	 0.746109	 0.409271	 1.727610	 -0.740796	 -0.762359	 0.045417	 0.745359	 -0.480727	 0.459652	 2
1463571504.057	 6	 1.537727	 0.274009	 0.266669	 1.717064	 -0.740258	 -0.783851	 0.051042	 0.742426	 -0.485762	 0.458512	 2
1463571504.067	 6	 1.367333	 -0.175832	 0.353491	 1.703229	 -0.739156	 -0.803375	 0.055264	 0.738742	 -0.490302	 0.459141	 2
1463571504.077	 6	 1.102240	 -0.515393	 0.648921	 1.687530	 -0.734937	 -0.820134	 0.058998	 0.734657	 -0.493452	 0.461847	 2
1463571504.087	 6	 0.701288	 -0.701369	 0.948030	 1.672936	 -0.727143	 -0.832156	 0.062439	 0.730882	 -0.494575	 0.466164	 2
1463571504.097	 6	 0.300368	 -0.906268	 1.277869	 1.659891	 -0.715667	 -0.838972	 0.065610	 0.727509	 -0.493512	 0.472093	 2
1463571504.107	 6	 -0.175224	 -1.205799	 1.727908	 1.647957	 -0.699713	 -0.840083	 0.068535	 0.724423	 -0.489911	 0.480105	 2
1463571504.117	 6	 -0.315323	 -1.261039	 2.264671	 1.636505	 -0.677655	 -0.838130	 0.072611	 0.721321	 -0.483936	 0.490132	 2
1463571504.127	 6	 -0.404110	 -1.077681	 1.993249	 1.627161	 -0.656549	 -0.835091	 0.076536	 0.718647	 -0.477858	 0.499340	 2
1463571504.137	 6	 -0.869851	 -1.153780	 1.431742	 1.620854	 -0.640390	 -0.827030	 0.077721	 0.716952	 -0.471702	 0.507381	 2
1463571504.147	 6	 -1.458200	 -1.310333	 0.726676	 1.617465	 -0.630623	 -0.811179	 0.074622	 0.716429	 -0.465120	 0.514611	 2
1463571504.157	 6	 -1.710546	 -1.175345	 0.172736	 1.617164	 -0.627052	 -0.790696	 0.068447	 0.716995	 -0.458849	 0.520280	 2
1463571504.167	 6	 -1.499044	 -0.636038	 0.119427	 1.620644	 -0.625224	 -0.771162	 0.062863	 0.718505	 -0.453127	 0.523904	 2
1463571504.177	 6	 -0.620571	 0.335238	 0.355284	 1.627515	 -0.621919	 -0.760519	 0.061725	 0.720574	 -0.449194	 0.524583	 2
1463571504.187	 6	 0.736261	 1.556397	 0.628735	 1.637006	 -0.616511	 -0.765582	 0.067543	 0.722792	 -0.448680	 0.521244	 2
1463571504.197	 6	 2.030912	 2.646634	 0.717131	 1.648458	 -0.610649	 -0.787294	 0.079988	 0.724833	 -0.452210	 0.513542	 2
1463571504.207	 6	 2.814169	 3.234435	 0.542062	 1.660952	 -0.606919	 -0.820107	 0.096009	 0.726471	 -0.458937	 0.502394	 2
1463571504.217	 6	 3.131960	 3.200578	 0.255487	 1.671932	 -0.606577	 -0.857778	 0.112359	 0.727222	 -0.467613	 0.489758	 2
1463571504.227	 6	 3.140866	 2.647244	 -0.069468	 1.678252	 -0.609726	 -0.895985	 0.126680	 0.726577	 -0.477352	 0.477675	 2
1463571504.237	 6	 2.956969	 1.694751	 -0.367683	 1.676964	 -0.615925	 -0.932227	 0.137435	 0.724127	 -0.487702	 0.467866	 2
1463571504.247	 6	 2.382878	 0.229858	 -0.494615	 1.665669	 -0.623354	 -0.963375	 0.143400	 0.719648	 -0.497727	 0.462396	 2
1463571504.257	 6	 -0.111924	 -2.732799	 -0.399215	 1.641792	 -0.628146	 -0.969922	 0.138158	 0.713870	 -0.502184	 0.468095	 2
1463571504.267	 6	 -1.466965	 -4.009591	 -0.423810	 1.612906	 -0.631527	 -0.954011	 0.124101	 0.708229	 -0.501170	 0.481497	 2
1463571504.277	 6	 -1.245947	 -3.910033	 -0.245752	 1.583641	 -0.633601	 -0.936853	 0.110014	 0.702191	 -0.499218	 0.495586	 2
1463571504.287	 6	 -0.769494	 -3.727415	 0.194134	 1.557479	 -0.628154	 -0.923044	 0.100583	 0.696057	 -0.495757	 0.509522	 2
1463571504.297	 6	 -0.764913	 -3.644761	 0.440011	 1.535259	 -0.622285	 -0.908544	 0.092142	 0.690706	 -0.491624	 0.522246	 2
1463571504.307	 6	 -0.916141	 -3.521412	 0.370011	 1.511749	 -0.617957	 -0.894241	 0.083007	 0.684880	 -0.487801	 0.534883	 2
1463571504.317	 6	 -1.010907	 -3.398425	 0.277129	 1.485390	 -0.615662	 -0.881408	 0.073050	 0.678118	 -0.484793	 0.547536	 2
1463571504.327	 6	 -1.036688	 -3.262799	 0.341503	 1.461137	 -0.612829	 -0.867765	 0.063617	 0.671707	 -0.481158	 0.559687	 2
1463571504.337	 6	 -1.058320	 -3.063249	 0.569489	 1.437641	 -0.609095	 -0.854254	 0.054838	 0.665244	 -0.477135	 0.571652	 2
1463571504.347	 6	 -1.019419	 -2.706410	 0.804807	 1.417522	 -0.603170	 -0.840499	 0.047694	 0.659438	 -0.472268	 0.582950	 2
1463571504.357	 6	 -0.962367	 -2.493902	 0.944837	 1.399788	 -0.595683	 -0.827077	 0.041904	 0.654073	 -0.466940	 0.593633	 2
1463571504.367	 6	 -0.986473	 -2.409730	 0.955422	 1.383075	 -0.587964	 -0.813456	 0.036475	 0.648867	 -0.461364	 0.603974	 2
1463571504.377	 6	 -1.021895	 -2.277132	 0.745943	 1.367535	 -0.581967	 -0.799622	 0.030696	 0.644004	 -0.456000	 0.613499	 2
1463571504.387	 6	 -1.052006	 -2.003292	 0.361882	 1.354082	 -0.579591	 -0.786231	 0.024244	 0.639890	 -0.451492	 0.621376	 2
1463571504.397	 6	 -0.958257	 -1.516856	 0.010693	 1.343968	 -0.580954	 -0.774436	 0.017686	 0.636939	 -0.448236	 0.626962	 2
1463571504.407	 6	 -0.796474	 -0.795236	 -0.149193	 1.339280	 -0.583944	 -0.765019	 0.012502	 0.635710	 -0.446012	 0.629912	 2
1463571504.417	 6	 -0.653448	 -0.094884	 -0.169500	 1.340861	 -0.587243	 -0.757500	 0.009203	 0.636435	 -0.444406	 0.630372	 2
1463571504.427	 6	 -0.661493	 0.379159	 -0.071232	 1.347706	 -0.589679	 -0.750213	 0.007469	 0.638752	 -0.442656	 0.629282	 2
1463571504.437	 6	 -0.907292	 0.460267	 0.013727	 1.357848	 -0.591518	 -0.740458	 0.005884	 0.642066	 -0.439993	 0.627792	 2
1463571504.447	 6	 -1.493311	 -0.034601	 0.030211	 1.367882	 -0.593939	 -0.724790	 0.002118	 0.645360	 -0.435639	 0.627475	 2
1463571504.457	 6	 -2.342321	 -1.068054	 0.032249	 1.374242	 -0.597883	 -0.699565	 -0.006156	 0.647499	 -0.428677	 0.630034	 2
1463571504.467	 6	 -3.075877	 -2.074064	 0.051656	 1.375376	 -0.603077	 -0.664811	 -0.019141	 0.647821	 -0.418970	 0.635945	 2
1463571504.477	 6	 -3.452416	 -2.441381	 -0.004969	 1.374381	 -0.609515	 -0.624475	 -0.034851	 0.647131	 -0.407670	 0.643282	 2
1463571504.497	 7	 -3.380205	 -1.306351	 -0.100546	 1.385826	 -0.624605	 -0.540313	 -0.065588	 0.648924	 -0.384551	 0.653236	 2
1463571504.507	 7	 -2.840314	 -0.216507	 -0.078054	 1.401963	 -0.630712	 -0.504169	 -0.076596	 0.652902	 -0.374929	 0.653667	 2
1463571504.517	 7	 -2.139042	 0.926023	 -0.058607	 1.425333	 -0.634957	 -0.475850	 -0.083139	 0.659347	 -0.367779	 0.650453	 2
1463571504.527	 7	 -1.421523	 2.008833	 0.092297	 1.454682	 -0.636657	 -0.456057	 -0.084976	 0.667983	 -0.363078	 0.644013	 2
1463571504.537	 7	 -0.756761	 2.458598	 0.341148	 1.485389	 -0.634844	 -0.444482	 -0.082652	 0.677368	 -0.360145	 0.636111	 2
1463571504.547	 7	 -0.311697	 2.427698	 0.659911	 1.513293	 -0.629368	 -0.438909	 -0.077557	 0.686116	 -0.357906	 0.628596	 2
1463571504.557	 7	 -0.130784	 2.277394	 0.979864	 1.537856	 -0.620453	 -0.436447	 -0.070827	 0.693964	 -0.355402	 0.622164	 2
1463571504.567	 7	 -0.198187	 2.283436	 1.198988	 1.561759	 -0.608911	 -0.434154	 -0.063299	 0.701631	 -0.352005	 0.616278	 2
1463571504.577	 7	 -0.426616	 2.194372	 1.291803	 1.587507	 -0.596290	 -0.429416	 -0.056029	 0.709770	 -0.347433	 0.610227	 2
1463571504.587	 7	 -0.264393	 1.274034	 1.313800	 1.604561	 -0.582971	 -0.425956	 -0.049679	 0.715278	 -0.342659	 0.607037	 2
1463571504.597	 7	 0.044246	 0.688986	 0.990203	 1.612507	 -0.572037	 -0.426027	 -0.044508	 0.718017	 -0.339406	 0.606031	 2
1463571504.607	 7	 0.383358	 0.599310	 0.495099	 1.616423	 -0.565975	 -0.429847	 -0.040375	 0.719457	 -0.338717	 0.604997	 2
1463571504.617	 7	 0.618289	 0.540192	 0.065133	 1.618234	 -0.564626	 -0.436786	 -0.037105	 0.720176	 -0.340419	 0.603395	 2
1463571504.627	 7	 0.614350	 1.277552	 -0.191214	 1.624596	 -0.566291	 -0.444084	 -0.033960	 0.722175	 -0.343257	 0.599570	 2
1463571504.637	 7	 0.487577	 2.160420	 -0.379061	 1.641267	 -0.569953	 -0.450069	 -0.030173	 0.727139	 -0.346478	 0.591871	 2
1463571504.647	 7	 0.254412	 2.570009	 -0.459547	 1.664320	 -0.574689	 -0.453396	 -0.026558	 0.733817	 -0.349309	 0.582057	 2
1463571504.657	 7	 -0.031768	 2.724307	 -0.418317	 1.691300	 -0.579081	 -0.453386	 -0.023313	 0.741460	 -0.351074	 0.571349	 2
1463571504.667	 7	 -0.343401	 2.812536	 -0.258116	 1.721199	 -0.581751	 -0.449735	 -0.020309	 0.749788	 -0.351250	 0.560383	 2
1463571504.677	 7	 -0.545754	 2.869586	 0.046853	 1.753035	 -0.581253	 -0.443695	 -0.016845	 0.758585	 -0.349703	 0.549521	 2
1463571504.687	 7	 -0.539905	 2.894583	 0.415789	 1.785214	 -0.577041	 -0.437925	 -0.012093	 0.767474	 -0.346925	 0.538962	 2
1463571504.697	 7	 -0.167430	 2.449610	 0.953009	 1.811825	 -0.568569	 -0.436734	 -0.005285	 0.774949	 -0.343778	 0.530323	 2
1463571504.707	 7	 0.602057	 1.681018	 1.611654	 1.825886	 -0.555462	 -0.445480	 0.004609	 0.779215	 -0.341485	 0.525538	 2
1463571504.717	 7	 1.355709	 1.224917	 1.941892	 1.829042	 -0.540238	 -0.464511	 0.017297	 0.780518	 -0.341090	 0.523594	 2
1463571504.727	 7	 1.717197	 1.395056	 1.936064	 1.829727	 -0.525579	 -0.488871	 0.031476	 0.780867	 -0.342280	 0.521632	 2
1463571504.737	 7	 1.785688	 2.039160	 1.756019	 1.835971	 -0.512716	 -0.514006	 0.046360	 0.782330	 -0.344158	 0.517075	 2
1463571504.747	 7	 1.837942	 2.462673	 1.511182	 1.847645	 -0.502412	 -0.538891	 0.061308	 0.784867	 -0.346603	 0.509992	 2
1463571504.757	 7	 2.021224	 2.648292	 1.221426	 1.861481	 -0.495409	 -0.564486	 0.075928	 0.787598	 -0.350129	 0.501333	 2
1463571504.767	 7	 2.335089	 2.119971	 0.802393	 1.871406	 -0.493243	 -0.592002	 0.089184	 0.788955	 -0.355795	 0.492956	 2
1463571504.777	 7	 2.628675	 1.877299	 0.311591	 1.876439	 -0.496704	 -0.621232	 0.100569	 0.788770	 -0.363919	 0.485068	 2
1463571504.787	 7	 2.797566	 2.057801	 -0.102781	 1.882146	 -0.505294	 -0.651226	 0.110848	 0.788507	 -0.373815	 0.475638	 2
1463571504.797	 7	 2.752266	 1.855655	 0.017229	 1.886780	 -0.514388	 -0.681316	 0.120836	 0.787825	 -0.383776	 0.466312	 2
1463571504.807	 7	 2.360651	 1.283221	 0.709123	 1.887111	 -0.517333	 -0.710369	 0.131443	 0.786068	 -0.391491	 0.459950	 2
1463571504.817	 7	 1.404985	 0.215934	 1.575043	 1.880461	 -0.509355	 -0.733467	 0.141609	 0.782927	 -0.394547	 0.459679	 2
1463571504.837	 8	 0.316256	 0.328394	 1.389469	 1.873349	 -0.481812	 -0.756387	 0.157505	 0.779237	 -0.391066	 0.463734	 2
1463571504.847	 8	 0.325575	 -0.073400	 0.988119	 1.870858	 -0.472351	 -0.763381	 0.162606	 0.777924	 -0.389698	 0.465326	 2
1463571504.857	 8	 0.461923	 -1.120336	 0.556214	 1.859643	 -0.467183	 -0.770132	 0.164608	 0.774639	 -0.390455	 0.469450	 2
1463571504.867	 8	 0.436211	 -2.353000	 0.114400	 1.836546	 -0.466364	 -0.775791	 0.162516	 0.768688	 -0.393411	 0.477426	 2
1463571504.877	 8	 0.118623	 -2.887344	 -0.217128	 1.807381	 -0.468215	 -0.777674	 0.156900	 0.761552	 -0.396803	 0.487820	 2
1463571504.887	 8	 -0.156465	 -2.625640	 -0.467015	 1.781217	 -0.472020	 -0.775564	 0.149692	 0.755386	 -0.399522	 0.497359	 2
1463571504.897	 8	 -0.430628	 -2.042920	 -0.596689	 1.761530	 -0.476910	 -0.770410	 0.142249	 0.750985	 -0.401235	 0.504774	 2
1463571504.907	 8	 -0.910084	 -1.359258	 -0.676742	 1.750943	 -0.481920	 -0.760406	 0.134761	 0.749148	 -0.401026	 0.509700	 2
1463571504.917	 8	 -1.369797	 -1.007562	 -0.765385	 1.747569	 -0.487009	 -0.744880	 0.126624	 0.749447	 -0.398896	 0.513008	 2
1463571504.927	 8	 -1.652469	 -0.834620	 -0.938232	 1.747913	 -0.493003	 -0.725234	 0.117382	 0.750884	 -0.395737	 0.515546	 2
1463571504.937	 8	 -1.704864	 -0.788257	 -1.019408	 1.750019	 -0.499913	 -0.704178	 0.107641	 0.752754	 -0.392397	 0.517494	 2
1463571504.947	 8	 -1.565270	 -0.477252	 -0.903692	 1.753821	 -0.506287	 -0.684167	 0.098776	 0.754871	 -0.389074	 0.518686	 2
1463571504.957	 8	 -1.307295	 -0.078320	 -0.642180	 1.760529	 -0.510827	 -0.667063	 0.092140	 0.757476	 -0.385793	 0.518559	 2
1463571504.967	 8	 -0.740530	 0.074696	 0.006555	 1.766239	 -0.510865	 -0.656422	 0.089190	 0.759439	 -0.382788	 0.518430	 2
1463571504.977	 8	 -0.051691	 0.495781	 0.710011	 1.770627	 -0.505063	 -0.655267	 0.091454	 0.760589	 -0.380384	 0.518120	 2
1463571504.987	 8	 0.419454	 0.858811	 0.946951	 1.775532	 -0.496688	 -0.660980	 0.097246	 0.761521	 -0.378867	 0.516806	 2
1463571504.997	 8	 0.505370	 1.168510	 0.714618	 1.783030	 -0.489925	 -0.668495	 0.103690	 0.763008	 -0.378189	 0.513848	 2
1463571505.007	 8	 0.347942	 0.854070	 0.411452	 1.790264	 -0.486200	 -0.674006	 0.108347	 0.764527	 -0.377980	 0.510774	 2
1463571505.017	 8	 0.018208	 0.172274	 0.421833	 1.792545	 -0.482484	 -0.676268	 0.110822	 0.764940	 -0.377196	 0.510205	 2
1463571505.027	 8	 -0.522229	 -0.019933	 0.538787	 1.793751	 -0.476692	 -0.673343	 0.111765	 0.765336	 -0.374451	 0.511425	 2
1463571505.037	 8	 -0.981549	 0.608411	 0.758588	 1.801401	 -0.468070	 -0.665301	 0.112828	 0.767633	 -0.369072	 0.511659	 2
1463571505.047	 8	 -0.778755	 1.792981	 1.239978	 1.819285	 -0.454985	 -0.658770	 0.117685	 0.772405	 -0.361939	 0.508469	 2
1463571505.057	 8	 -0.134743	 2.116462	 1.519807	 1.840090	 -0.440077	 -0.659744	 0.126414	 0.777412	 -0.355792	 0.503052	 2
1463571505.067	 8	 0.365364	 1.330423	 1.277934	 1.852940	 -0.427409	 -0.666587	 0.135235	 0.779998	 -0.352269	 0.499221	 2
1463571505.077	 8	 0.755529	 0.606167	 0.418385	 1.856486	 -0.422953	 -0.675568	 0.140720	 0.780186	 -0.352709	 0.497095	 2
1463571505.087	 8	 1.017578	 0.964292	 -0.398004	 1.860726	 -0.427886	 -0.685079	 0.143684	 0.780647	 -0.356479	 0.492816	 2
1463571505.097	 8	 0.806013	 1.971841	 -0.587149	 1.874862	 -0.436037	 -0.692598	 0.146692	 0.783693	 -0.360126	 0.484371	 2
1463571505.107	 8	 0.361130	 2.103981	 -0.436073	 1.895054	 -0.441993	 -0.695896	 0.149846	 0.788378	 -0.361502	 0.474682	 2
1463571505.117	 8	 -0.026855	 1.126138	 -0.499346	 1.909553	 -0.446588	 -0.694942	 0.150727	 0.791924	 -0.361802	 0.468228	 2
1463571505.127	 8	 -0.343475	 -0.098569	 -0.841569	 1.914079	 -0.452713	 -0.689332	 0.147513	 0.793459	 -0.362315	 0.466252	 2
1463571505.137	 8	 -0.554769	 -0.786722	 -1.366225	 1.911695	 -0.462534	 -0.679400	 0.140237	 0.793685	 -0.363635	 0.467084	 2
1463571505.147	 8	 -0.659113	 -0.481064	 -1.939049	 1.911652	 -0.477326	 -0.665898	 0.130487	 0.794630	 -0.365704	 0.466687	 2
1463571505.157	 8	 -0.564483	 0.298010	 -2.416480	 1.919889	 -0.497026	 -0.650704	 0.120120	 0.797434	 -0.368616	 0.462377	 2
1463571505.167	 8	 -0.432682	 0.729892	 -2.795151	 1.934431	 -0.520698	 -0.634830	 0.109494	 0.801423	 -0.372530	 0.454921	 2
1463571505.177	 8	 -0.437080	 0.645654	 -3.265898	 1.950138	 -0.548340	 -0.617256	 0.097295	 0.805322	 -0.377593	 0.446559	 2
1463571505.187	 8	 -0.379520	 -0.084371	 -4.028818	 1.962994	 -0.582233	 -0.595694	 0.081202	 0.808102	 -0.384342	 0.438930	 2
1463571505.197	 8	 -0.337685	 -1.055146	 -4.703251	 1.968839	 -0.623202	 -0.570640	 0.060368	 0.808536	 -0.393292	 0.433529	 2
1463571505.207	 8	 -0.492176	 -1.713671	 -4.932910	 1.970776	 -0.666293	 -0.541756	 0.036658	 0.807288	 -0.402345	 0.430188	 2
1463571505.227	 9	 -0.847884	 -2.796239	 -5.343810	 1.967720	 -0.758214	 -0.470103	 -0.019177	 0.799984	 -0.419501	 0.428575	 2
1463571505.237	 9	 -0.924836	 -2.785851	 -5.116036	 1.967663	 -0.802475	 -0.430096	 -0.047757	 0.795000	 -0.426497	 0.428713	 2
1463571505.247	 9	 -0.591020	 -2.033045	 -4.719737	 1.972456	 -0.844187	 -0.392708	 -0.073309	 0.790244	 -0.433292	 0.427080	 2
1463571505.257	 9	 0.305245	 -1.054364	 -4.042740	 1.978233	 -0.883314	 -0.368129	 -0.092627	 0.785590	 -0.442020	 0.422951	 2
1463571505.267	 9	 1.100773	 -0.496728	 -3.239827	 1.978827	 -0.918522	 -0.359777	 -0.105485	 0.780578	 -0.452556	 0.418049	 2
1463571505.277	 9	 1.519302	 -0.375786	 -2.527220	 1.971406	 -0.949017	 -0.364128	 -0.113900	 0.774987	 -0.463553	 0.414175	 2
1463571505.287	 9	 1.650088	 -0.491604	 -1.432767	 1.954315	 -0.971274	 -0.379104	 -0.118302	 0.769137	 -0.473194	 0.412942	 2
1463571505.297	 9	 1.618856	 -0.461964	 -0.732013	 1.931718	 -0.985203	 -0.400598	 -0.119381	 0.763765	 -0.480916	 0.413680	 2
1463571505.307	 9	 1.500639	 -0.258891	 -0.643833	 1.909677	 -0.996506	 -0.423064	 -0.119407	 0.758971	 -0.487924	 0.414289	 2
1463571505.317	 9	 1.212805	 0.090309	 -0.713747	 1.894163	 -1.007306	 -0.441478	 -0.119385	 0.755388	 -0.494250	 0.413343	 2
1463571505.327	 9	 0.980613	 0.387949	 -0.684443	 1.885250	 -1.017159	 -0.455781	 -0.119098	 0.753079	 -0.499760	 0.411009	 2
1463571505.337	 9	 0.940969	 0.496219	 -0.583974	 1.878292	 -1.025863	 -0.469422	 -0.118286	 0.751302	 -0.504840	 0.408276	 2
1463571505.347	 9	 0.977308	 0.703776	 -0.548255	 1.872326	 -1.033998	 -0.484031	 -0.116733	 0.749873	 -0.509953	 0.404983	 2
1463571505.357	 9	 1.087668	 0.871921	 -0.637175	 1.866481	 -1.042864	 -0.500432	 -0.114737	 0.748485	 -0.515604	 0.400946	 2
1463571505.367	 9	 1.266798	 1.030345	 -0.865334	 1.860268	 -1.054062	 -0.519157	 -0.112714	 0.746865	 -0.522324	 0.395811	 2
1463571505.377	 9	 1.408384	 1.001000	 -1.187634	 1.852298	 -1.068508	 -0.539963	 -0.111423	 0.744618	 -0.530204	 0.389889	 2
1463571505.387	 9	 1.464027	 0.744327	 -1.651982	 1.842309	 -1.087157	 -0.560669	 -0.112081	 0.741480	 -0.539010	 0.383554	 2
1463571505.397	 9	 1.449082	 0.270527	 -2.165695	 1.829235	 -1.110710	 -0.579848	 -0.115775	 0.737113	 -0.548518	 0.377343	 2
1463571505.407	 9	 1.304994	 -0.315757	 -2.549308	 1.812976	 -1.137979	 -0.596005	 -0.122776	 0.731587	 -0.558004	 0.371937	 2
1463571505.417	 9	 0.974827	 -0.905711	 -2.487977	 1.795223	 -1.165063	 -0.607148	 -0.132145	 0.725573	 -0.566093	 0.368266	 2
1463571505.427	 9	 0.607412	 -1.352131	 -2.302423	 1.778410	 -1.189455	 -0.611599	 -0.142969	 0.719664	 -0.572021	 0.366654	 2
1463571505.437	 9	 0.415214	 -1.302374	 -2.119107	 1.764574	 -1.211561	 -0.612013	 -0.153752	 0.714290	 -0.576616	 0.365602	 2
1463571505.447	 9	 0.255344	 -0.962330	 -1.933372	 1.756217	 -1.231592	 -0.609685	 -0.163315	 0.709930	 -0.580461	 0.363859	 2
1463571505.457	 9	 0.073754	 -0.636613	 -1.825381	 1.755626	 -1.249903	 -0.602772	 -0.171699	 0.706755	 -0.583614	 0.361125	 2
1463571505.467	 9	 -0.028916	 -0.357446	 -1.944452	 1.762624	 -1.268528	 -0.590932	 -0.179657	 0.704344	 -0.586618	 0.357073	 2
1463571505.477	 9	 -0.118615	 -0.115807	 -2.246230	 1.778324	 -1.289595	 -0.572806	 -0.187935	 0.702332	 -0.589977	 0.351195	 2
1463571505.487	 9	 -0.261251	 -0.072377	 -2.474789	 1.804744	 -1.312812	 -0.544640	 -0.197060	 0.700528	 -0.593345	 0.344049	 2
1463571505.497	 9	 -0.354240	 -0.116657	 -2.458405	 1.841316	 -1.335959	 -0.505866	 -0.206610	 0.698858	 -0.596273	 0.336702	 2
1463571505.507	 9	 -0.282076	 -0.101954	 -2.308624	 1.882891	 -1.357504	 -0.462086	 -0.215640	 0.697135	 -0.598966	 0.329760	 2
1463571505.517	 9	 -0.030949	 -0.155848	 -2.158908	 1.920950	 -1.378002	 -0.421847	 -0.223874	 0.694798	 -0.602061	 0.323509	 2
1463571505.527	 9	 0.159216	 -0.135105	 -1.861957	 1.950974	 -1.396576	 -0.389909	 -0.230835	 0.692010	 -0.605434	 0.318258	 2
1463571505.537	 9	 0.208974	 -0.267959	 -1.535372	 1.974257	 -1.412328	 -0.364026	 -0.236783	 0.689138	 -0.608442	 0.314358	 2
1463571505.547	 9	 0.078242	 -0.513367	 -1.109147	 1.994447	 -1.424065	 -0.338983	 -0.242202	 0.686578	 -0.610242	 0.312334	 2
1463571505.557	 9	 -0.205036	 -0.592836	 -0.595854	 2.017764	 -1.430076	 -0.309462	 -0.246686	 0.685170	 -0.610204	 0.311992	 2
1463571505.567	 9	 -0.448922	 -0.479789	 -0.066192	 2.043920	 -1.430103	 -0.277868	 -0.249548	 0.685328	 -0.608523	 0.312650	 2
1463571505.577	 9	 -0.649671	 -0.242675	 0.429079	 2.067311	 -1.424570	 -0.251087	 -0.250361	 0.687040	 -0.605600	 0.313918	 2
1463571505.587	 9	 -0.965278	 0.147341	 0.842577	 2.094119	 -1.413782	 -0.224287	 -0.249086	 0.690673	 -0.601439	 0.314955	 2
1463571505.597	 9	 -1.290119	 0.666706	 1.195546	 2.128188	 -1.398060	 -0.195368	 -0.245513	 0.696551	 -0.596170	 0.314836	 2
1463571505.607	 9	 -1.451958	 0.899499	 1.550822	 2.158325	 -1.378028	 -0.173360	 -0.240094	 0.703883	 -0.589917	 0.314487	 2
1463571505.617	 9	 -1.591751	 0.972507	 1.734964	 2.183402	 -1.355245	 -0.157482	 -0.233729	 0.711943	 -0.582882	 0.314255	 2
1463571505.627	 9	 -1.546399	 0.683696	 1.674331	 2.202733	 -1.332273	 -0.145534	 -0.227832	 0.719636	 -0.575506	 0.314658	 2
1463571505.637	 9	 -1.800197	 0.494087	 1.679039	 2.222794	 -1.308650	 -0.130322	 -0.222988	 0.727256	 -0.567272	 0.315559	 2
1463571505.647	 9	 -2.180250	 0.413748	 1.740218	 2.247747	 -1.282208	 -0.108873	 -0.218780	 0.735714	 -0.557385	 0.316516	 2
1463571505.657	 9	 -2.529055	 0.578332	 1.854560	 2.275583	 -1.252524	 -0.085041	 -0.214452	 0.745237	 -0.545997	 0.317048	 2
1463571505.667	 9	 -2.851950	 0.930028	 1.821211	 2.309073	 -1.220458	 -0.058506	 -0.209688	 0.755993	 -0.533588	 0.315894	 2
1463571505.677	 9	 -3.149915	 1.095876	 1.837072	 2.345451	 -1.186099	 -0.031054	 -0.204755	 0.767674	 -0.520122	 0.313409	 2
1463571505.687	 9	 -3.461368	 0.794611	 1.968069	 2.377910	 -1.148472	 -0.005573	 -0.200238	 0.779700	 -0.504943	 0.311457	 2
1463571505.697	 9	 -3.742197	 0.208125	 2.087619	 2.402692	 -1.107504	 0.017880	 -0.196981	 0.791438	 -0.487634	 0.311510	 2
1463571505.707	 9	 -3.732574	 -0.225978	 2.070707	 2.419477	 -1.065558	 0.038352	 -0.194852	 0.802270	 -0.469257	 0.313357	 2
1463571505.717	 9	 -3.266926	 -0.247602	 1.917244	 2.429975	 -1.027023	 0.053583	 -0.192933	 0.811591	 -0.452177	 0.315647	 2
1463571505.727	 9	 -2.698288	 -0.053426	 1.643397	 2.437516	 -0.994274	 0.063637	 -0.190608	 0.819398	 -0.437795	 0.317161	 2
1463571505.747	 9	 -2.247828	 0.059523	 1.267509	 2.449163	 -0.940221	 0.078237	 -0.186395	 0.831966	 -0.413949	 0.318960	 2
1463571505.757	 10	 -2.165657	 0.561048	 0.938942	 2.461431	 -0.916788	 0.088315	 -0.184779	 0.838065	 -0.403554	 0.317251	 2
1463571505.767	 10	 -1.872576	 1.107475	 0.727257	 2.479095	 -0.896656	 0.098351	 -0.182691	 0.844223	 -0.394993	 0.312878	 2
1463571505.777	 10	 -1.520013	 1.524574	 0.599111	 2.499161	 -0.880110	 0.105738	 -0.179670	 0.850147	 -0.388541	 0.306602	 2
1463571505.787	 10	 -1.472062	 1.657170	 0.423011	 2.521474	 -0.865613	 0.113435	 -0.176772	 0.855860	 -0.383077	 0.299178	 2
1463571505.797	 10	 -1.540674	 1.650475	 0.352140	 2.544684	 -0.850999	 0.122167	 -0.174292	 0.861534	 -0.377443	 0.291409	 2
1463571505.807	 10	 -1.518322	 1.445902	 0.311674	 2.566317	 -0.836486	 0.130953	 -0.172308	 0.866845	 -0.371673	 0.284162	 2
1463571505.817	 10	 -1.332822	 1.242729	 0.236763	 2.584926	 -0.823358	 0.138680	 -0.170730	 0.871446	 -0.366379	 0.277850	 2
1463571505.827	 10	 -1.056795	 1.054775	 0.097258	 2.601012	 -0.813019	 0.145675	 -0.169714	 0.875129	 -0.362192	 0.272332	 2
1463571505.837	 10	 -0.701893	 0.863256	 -0.062149	 2.614520	 -0.806233	 0.151691	 -0.169188	 0.877789	 -0.359498	 0.267626	 2
1463571505.847	 10	 -0.371182	 0.631323	 -0.084239	 2.624601	 -0.802839	 0.156146	 -0.168984	 0.879423	 -0.358241	 0.264051	 2
1463571505.857	 10	 0.052873	 0.513910	 -0.116734	 2.631262	 -0.802774	 0.157880	 -0.168547	 0.880165	 -0.358546	 0.261433	 2
1463571505.867	 10	 0.563093	 0.329313	 -0.138880	 2.634075	 -0.807277	 0.156562	 -0.167913	 0.879750	 -0.360971	 0.259894	 2
1463571505.877	 10	 0.956453	 0.207177	 -0.101877	 2.632961	 -0.815417	 0.151853	 -0.166863	 0.878378	 -0.365128	 0.259405	 2
1463571505.887	 10	 1.225477	 0.208676	 -0.079693	 2.629659	 -0.825957	 0.144602	 -0.165355	 0.876432	 -0.370497	 0.259337	 2
1463571505.897	 10	 1.478070	 0.327385	 -0.034960	 2.625434	 -0.838516	 0.134922	 -0.163193	 0.874129	 -0.376991	 0.259122	 2
1463571505.907	 10	 1.750201	 0.483542	 0.048319	 2.620191	 -0.852978	 0.121998	 -0.160055	 0.871524	 -0.384649	 0.258599	 2
1463571505.917	 10	 1.993847	 0.667796	 0.181133	 2.613677	 -0.869019	 0.105236	 -0.155734	 0.868672	 -0.393376	 0.257705	 2
1463571505.927	 10	 2.203521	 0.853525	 0.356886	 2.605379	 -0.885989	 0.083945	 -0.150007	 0.865663	 -0.402926	 0.256468	 2
1463571505.937	 10	 2.390451	 0.941703	 0.564968	 2.594169	 -0.903438	 0.057635	 -0.142902	 0.862447	 -0.413082	 0.255203	 2
1463571505.947	 10	 2.514974	 0.986957	 0.695394	 2.579284	 -0.921095	 0.026724	 -0.134804	 0.858912	 -0.423629	 0.254239	 2
1463571505.957	 10	 2.366945	 1.116597	 0.619023	 2.565716	 -0.937937	 -0.004121	 -0.126585	 0.855574	 -0.433881	 0.252423	 2
1463571505.967	 10	 2.094691	 0.905553	 0.300766	 2.554149	 -0.953875	 -0.030054	 -0.120113	 0.852258	 -0.443215	 0.250576	 2
1463571505.977	 10	 1.941453	 0.907134	 -0.129518	 2.547738	 -0.970387	 -0.048918	 -0.115727	 0.848959	 -0.452167	 0.247831	 2
1463571505.987	 10	 1.903801	 0.891052	 -0.455463	 2.545579	 -0.988312	 -0.062382	 -0.112946	 0.845499	 -0.461225	 0.244225	 2
1463571505.997	 10	 2.092016	 0.449895	 -0.639190	 2.541715	 -1.008404	 -0.074158	 -0.111634	 0.841187	 -0.470813	 0.241407	 2
1463571506.007	 10	 2.724690	 -0.721871	 -0.631089	 2.522856	 -1.032949	 -0.091761	 -0.112199	 0.834308	 -0.482022	 0.242893	 2
1463571506.017	 10	 3.408062	 -2.092988	 -0.518709	 2.478929	 -1.062352	 -0.122069	 -0.114743	 0.823849	 -0.495213	 0.250740	 2
1463571506.027	 10	 2.997036	 -2.967686	 -0.594676	 2.420973	 -1.090783	 -0.156120	 -0.119950	 0.811853	 -0.507469	 0.262643	 2
1463571506.037	 10	 0.687413	 -2.028164	 -0.159768	 2.383747	 -1.102921	 -0.170674	 -0.125659	 0.804979	 -0.511850	 0.272448	 2
1463571506.047	 10	 -1.899446	 -0.356455	 0.807656	 2.386970	 -1.089437	 -0.159526	 -0.126948	 0.807795	 -0.505303	 0.275717	 2
1463571506.057	 10	 -2.515396	 -0.832861	 1.597250	 2.392608	 -1.061489	 -0.145663	 -0.126261	 0.814004	 -0.492802	 0.280361	 2
1463571506.067	 10	 -1.883968	 0.236074	 1.853218	 2.393517	 -1.033912	 -0.144070	 -0.121872	 0.820120	 -0.481732	 0.283696	 2
1463571506.077	 10	 -1.130748	 0.682374	 1.807117	 2.392036	 -1.011914	 -0.152748	 -0.114787	 0.825160	 -0.474122	 0.284857	 2
1463571506.087	 10	 -0.631006	 0.584628	 1.730450	 2.386778	 -0.994604	 -0.166986	 -0.107052	 0.828835	 -0.468947	 0.285762	 2
1463571506.097	 10	 -0.291137	 -0.136913	 1.371207	 2.374938	 -0.981662	 -0.181884	 -0.101282	 0.830565	 -0.465300	 0.288790	 2
1463571506.107	 10	 -0.016155	 -1.000939	 0.698915	 2.358551	 -0.974989	 -0.192143	 -0.099583	 0.830034	 -0.463312	 0.294056	 2
1463571506.117	 10	 0.121799	 -1.606293	 0.146410	 2.339949	 -0.973785	 -0.196661	 -0.101787	 0.827734	 -0.462570	 0.300875	 2
1463571506.127	 10	 0.134590	 -1.647313	 -0.077893	 2.322151	 -0.975027	 -0.197986	 -0.105597	 0.824849	 -0.462339	 0.307758	 2
1463571506.137	 10	 0.060377	 -1.325812	 -0.067861	 2.308061	 -0.976207	 -0.197939	 -0.109105	 0.822428	 -0.462040	 0.313414	 2
1463571506.147	 10	 0.203810	 -1.054786	 0.256338	 2.293595	 -0.975891	 -0.201832	 -0.110784	 0.820418	 -0.461736	 0.318499	 2
1463571506.157	 10	 0.723814	 -0.449956	 0.416238	 2.277024	 -0.976736	 -0.214246	 -0.109703	 0.818284	 -0.463140	 0.322301	 2
1463571506.167	 10	 1.075607	 0.334305	 0.464169	 2.262581	 -0.979774	 -0.233342	 -0.105891	 0.816402	 -0.466618	 0.323329	 2
1463571506.187	 11	 1.053100	 1.114008	 0.319216	 2.247588	 -0.987545	 -0.273986	 -0.094515	 0.814573	 -0.475361	 0.318699	 2
1463571506.197	 11	 0.396778	 1.140330	 0.017170	 2.250403	 -0.990633	 -0.284155	 -0.090375	 0.814916	 -0.478271	 0.314644	 2
1463571506.207	 11	 -1.082856	 1.428397	 -0.457517	 2.275540	 -0.988713	 -0.270141	 -0.089685	 0.818558	 -0.476490	 0.308022	 2
1463571506.217	 11	 -1.653904	 0.868332	 -0.625081	 2.310911	 -0.982696	 -0.241099	 -0.091980	 0.823774	 -0.471351	 0.301269	 2
1463571506.227	 11	 -1.286993	 -0.137343	 -0.554505	 2.333005	 -0.977245	 -0.215609	 -0.096234	 0.826950	 -0.466433	 0.298886	 2
1463571506.237	 11	 -0.685047	 -0.815462	 -0.540478	 2.340750	 -0.975373	 -0.198220	 -0.101263	 0.827619	 -0.463473	 0.299975	 2
1463571506.247	 11	 -0.296709	 -1.341596	 -0.481612	 2.337834	 -0.976360	 -0.187111	 -0.106721	 0.826406	 -0.462036	 0.303623	 2
1463571506.257	 11	 -0.076192	 -1.796205	 -0.307648	 2.325946	 -0.978047	 -0.181106	 -0.112268	 0.823919	 -0.461132	 0.309695	 2
1463571506.267	 11	 0.149096	 -2.092796	 -0.195136	 2.306871	 -0.980237	 -0.179634	 -0.117697	 0.820408	 -0.460668	 0.317590	 2
1463571506.277	 11	 0.427595	 -2.116868	 -0.175403	 2.283208	 -0.983947	 -0.182398	 -0.122761	 0.816032	 -0.461143	 0.326142	 2
1463571506.287	 11	 0.643478	 -1.798643	 -0.206295	 2.259334	 -0.989262	 -0.188309	 -0.126958	 0.811418	 -0.462692	 0.333765	 2
1463571506.297	 11	 0.785919	 -1.201636	 -0.251005	 2.238969	 -0.995872	 -0.196347	 -0.129815	 0.807215	 -0.465281	 0.339214	 2
1463571506.307	 11	 0.859619	 -0.474647	 -0.292841	 2.224705	 -1.003267	 -0.205445	 -0.131059	 0.803939	 -0.468722	 0.341768	 2
1463571506.317	 11	 0.982823	 0.157163	 -0.386085	 2.216366	 -1.011821	 -0.215484	 -0.130843	 0.801507	 -0.473132	 0.341486	 2
1463571506.327	 11	 1.408543	 0.340307	 -0.625752	 2.208870	 -1.023797	 -0.228422	 -0.130069	 0.798742	 -0.479348	 0.339587	 2
1463571506.337	 11	 2.095457	 -0.060410	 -1.044714	 2.191889	 -1.042865	 -0.248467	 -0.130431	 0.793448	 -0.488722	 0.338496	 2
1463571506.347	 11	 2.009993	 0.014718	 -1.425880	 2.175504	 -1.065685	 -0.267247	 -0.132217	 0.787448	 -0.499154	 0.336585	 2
1463571506.357	 11	 1.650103	 -0.327940	 -1.888476	 2.165368	 -1.090009	 -0.276540	 -0.136701	 0.781564	 -0.508783	 0.334082	 2
1463571506.367	 11	 1.345823	 -1.018190	 -2.446446	 2.158946	 -1.117121	 -0.274118	 -0.145530	 0.774857	 -0.517558	 0.332493	 2
1463571506.377	 11	 1.085434	 -1.162605	 -2.812145	 2.159374	 -1.146245	 -0.260743	 -0.157241	 0.767866	 -0.525624	 0.330722	 2
1463571506.387	 11	 0.997150	 -0.816114	 -2.881689	 2.168035	 -1.175775	 -0.241293	 -0.169032	 0.761337	 -0.533468	 0.327422	 2
1463571506.397	 11	 1.061060	 -0.306659	 -2.711246	 2.181400	 -1.204427	 -0.222085	 -0.179024	 0.755412	 -0.541512	 0.322595	 2
1463571506.407	 11	 1.182183	 0.270248	 -2.456478	 2.196907	 -1.231646	 -0.206942	 -0.186320	 0.750174	 -0.549992	 0.316279	 2
1463571506.417	 11	 1.300438	 0.664458	 -2.169281	 2.211626	 -1.257233	 -0.197607	 -0.191075	 0.745450	 -0.558809	 0.309076	 2
1463571506.427	 11	 1.344934	 0.619278	 -1.928161	 2.222310	 -1.281150	 -0.193353	 -0.194541	 0.740777	 -0.567458	 0.302316	 2
1463571506.437	 11	 1.266875	 0.174398	 -1.706745	 2.226924	 -1.302993	 -0.191683	 -0.198247	 0.735807	 -0.575165	 0.297442	 2
1463571506.447	 11	 1.151973	 -0.420072	 -1.448033	 2.223857	 -1.322190	 -0.192072	 -0.202843	 0.730485	 -0.581455	 0.295222	 2
1463571506.457	 11	 1.124905	 -0.991011	 -1.135513	 2.208427	 -1.338671	 -0.199183	 -0.208086	 0.724688	 -0.586474	 0.295933	 2
1463571506.467	 11	 1.135694	 -1.424054	 -0.859341	 2.178603	 -1.352770	 -0.216179	 -0.213638	 0.718415	 -0.590529	 0.299188	 2
1463571506.477	 11	 1.192606	 -1.753467	 -0.647618	 2.134204	 -1.365074	 -0.244433	 -0.219324	 0.711650	 -0.593966	 0.304394	 2
1463571506.487	 11	 1.251227	 -1.898238	 -0.493874	 2.076270	 -1.375937	 -0.284396	 -0.224885	 0.704490	 -0.597077	 0.310836	 2
1463571506.497	 11	 1.323051	 -1.922113	 -0.383883	 2.006381	 -1.385476	 -0.336059	 -0.229999	 0.697118	 -0.600103	 0.317810	 2
1463571506.507	 11	 1.397512	 -2.012401	 -0.337412	 1.924130	 -1.393961	 -0.399512	 -0.234937	 0.689377	 -0.603136	 0.325255	 2
1463571506.517	 11	 1.416062	 -2.122263	 -0.372700	 1.832078	 -1.401676	 -0.471689	 -0.240170	 0.681218	 -0.606095	 0.333031	 2
1463571506.527	 11	 1.341644	 -2.194119	 -0.484626	 1.736086	 -1.408986	 -0.546905	 -0.246021	 0.672850	 -0.608827	 0.340699	 2
1463571506.537	 11	 1.186363	 -2.152469	 -0.670460	 1.642388	 -1.416593	 -0.619808	 -0.252598	 0.664596	 -0.611296	 0.347597	 2
1463571506.547	 11	 0.978212	 -1.972691	 -0.897180	 1.555346	 -1.425295	 -0.687318	 -0.259781	 0.656806	 -0.613579	 0.353045	 2
1463571506.557	 11	 0.785817	 -1.655450	 -1.082258	 1.475186	 -1.435229	 -0.750698	 -0.267055	 0.649793	 -0.615848	 0.356626	 2
1463571506.567	 11	 0.647466	 -1.271743	 -1.173402	 1.398446	 -1.445787	 -0.814290	 -0.273805	 0.643692	 -0.618256	 0.358401	 2
1463571506.577	 11	 0.617134	 -0.903743	 -1.186766	 1.317671	 -1.456086	 -0.885630	 -0.279583	 0.638358	 -0.620982	 0.358767	 2
1463571506.587	 11	 0.681998	 -0.537736	 -1.143425	 1.223209	 -1.465187	 -0.974352	 -0.284028	 0.633541	 -0.624277	 0.358094	 2
1463571506.597	 11	 0.751884	 -0.275653	 -1.055269	 1.112431	 -1.472228	 -1.082380	 -0.287152	 0.629104	 -0.628057	 0.356815	 2
1463571506.607	 11	 0.793346	 -0.167619	 -0.954443	 0.989689	 -1.476857	 -1.203823	 -0.289417	 0.624893	 -0.631989	 0.355438	 2
1463571506.617	 11	 0.846029	 -0.159681	 -0.865303	 0.859574	 -1.478916	 -1.332921	 -0.291194	 0.620693	 -0.635921	 0.354330	 2
1463571506.627	 11	 0.885086	 -0.290275	 -0.817834	 0.726307	 -1.478648	 -1.464286	 -0.292982	 0.616250	 -0.639742	 0.353734	 2
1463571506.637	 11	 0.838897	 -0.603698	 -0.789441	 0.597325	 -1.476780	 -1.588661	 -0.295561	 0.611419	 -0.643026	 0.354018	 2
1463571506.647	 11	 0.675706	 -1.092008	 -0.724355	 0.481743	 -1.474397	 -1.695118	 -0.299640	 0.606274	 -0.645123	 0.355618	 2
1463571506.657	 11	 0.419168	 -1.503098	 -0.608713	 0.386739	 -1.472695	 -1.776415	 -0.305264	 0.601214	 -0.645610	 0.358528	 2
1463571506.667	 11	 -0.046324	 -1.835158	 -0.533147	 0.313775	 -1.473776	 -1.832079	 -0.312411	 0.596934	 -0.644136	 0.362158	 2
1463571506.677	 11	 -0.585092	 -1.878649	 -0.441468	 0.260547	 -1.479478	 -1.866519	 -0.320729	 0.594202	 -0.640641	 0.365562	 2
1463571506.697	 12	 -1.059368	 -1.481226	 0.049150	 0.244940	 -1.497989	 -1.848757	 -0.335638	 0.593348	 -0.630339	 0.371428	 2
1463571506.707	 12	 -1.288190	 -1.176080	 0.381171	 0.325655	 -1.508961	 -1.755216	 -0.341007	 0.595349	 -0.624004	 0.374024	 2
1463571506.717	 12	 -1.478052	 -0.777269	 0.738237	 0.526596	 -1.519438	 -1.545211	 -0.344476	 0.599288	 -0.616992	 0.376180	 2
1463571506.727	 12	 -1.532092	 -0.502584	 1.047137	 0.877365	 -1.524835	 -1.188411	 -0.346132	 0.604574	 -0.609607	 0.378236	 2
1463571506.747	 13	 -2.043412	 -0.300288	 1.309254	 1.671498	 -1.510269	 -0.385956	 -0.347510	 0.618286	 -0.592635	 0.381763	 2
1463571506.757	 13	 -2.509475	 -0.164478	 1.221855	 1.959443	 -1.492123	 -0.095235	 -0.348783	 0.627089	 -0.582436	 0.381938	 2
1463571506.767	 13	 -2.883527	 0.319302	 1.048434	 2.176669	 -1.469031	 0.121182	 -0.350200	 0.637406	 -0.571785	 0.379652	 2
1463571506.777	 13	 -2.914568	 1.251764	 0.991304	 2.329735	 -1.442797	 0.265244	 -0.349721	 0.649320	 -0.562230	 0.374134	 2
1463571506.787	 13	 -2.625555	 2.442180	 1.140545	 2.427352	 -1.415648	 0.342247	 -0.345189	 0.662740	 -0.555034	 0.365456	 2
1463571506.797	 13	 -2.186185	 3.533880	 1.378148	 2.485910	 -1.389514	 0.368379	 -0.335861	 0.677237	 -0.550545	 0.354187	 2
1463571506.807	 13	 -1.739236	 4.214845	 1.593746	 2.519591	 -1.365498	 0.361161	 -0.322589	 0.691936	 -0.548254	 0.341435	 2
1463571506.817	 13	 -1.450895	 4.374485	 1.723810	 2.539650	 -1.343426	 0.336948	 -0.307227	 0.706052	 -0.547029	 0.328421	 2
1463571506.827	 13	 -1.409823	 3.884256	 1.900070	 2.549536	 -1.321435	 0.305513	 -0.291856	 0.719174	 -0.545107	 0.316967	 2
1463571506.837	 13	 -1.601896	 3.014353	 2.133444	 2.549652	 -1.297068	 0.272113	 -0.277944	 0.731377	 -0.540888	 0.308668	 2
1463571506.847	 13	 -1.938855	 2.262372	 2.289245	 2.545663	 -1.269125	 0.242568	 -0.265901	 0.743134	 -0.533936	 0.303252	 2
1463571506.857	 13	 -2.279551	 1.759176	 2.283266	 2.544127	 -1.238012	 0.221260	 -0.255659	 0.754772	 -0.524674	 0.299459	 2
1463571506.867	 13	 -2.450742	 1.380651	 2.084068	 2.547412	 -1.205942	 0.209068	 -0.247282	 0.765951	 -0.514130	 0.296380	 2
1463571506.877	 13	 -2.425271	 0.934783	 1.771692	 2.553453	 -1.175325	 0.204235	 -0.241057	 0.775982	 -0.503262	 0.294059	 2
1463571506.887	 13	 -2.278148	 0.336875	 1.369449	 2.559564	 -1.147838	 0.205475	 -0.237462	 0.784252	 -0.492645	 0.293022	 2
1463571506.897	 13	 -2.100682	 -0.361343	 0.934037	 2.564167	 -1.124183	 0.212670	 -0.236974	 0.790435	 -0.482444	 0.293776	 2
1463571506.907	 13	 -1.901559	 -0.843056	 0.588908	 2.567006	 -1.104167	 0.224088	 -0.238975	 0.794801	 -0.472838	 0.295984	 2
1463571506.917	 13	 -1.666855	 -1.106102	 0.344620	 2.568245	 -1.087502	 0.237266	 -0.242411	 0.797767	 -0.464109	 0.299013	 2
1463571506.927	 13	 -1.410111	 -1.307841	 0.203024	 2.567013	 -1.073845	 0.250125	 -0.246594	 0.799555	 -0.456328	 0.302768	 2
1463571506.937	 13	 -1.143202	 -1.493829	 0.184049	 2.561769	 -1.062736	 0.260684	 -0.251000	 0.800303	 -0.449417	 0.307471	 2
1463571506.947	 13	 -0.902069	 -1.601125	 0.299251	 2.551462	 -1.053288	 0.267013	 -0.254967	 0.800321	 -0.443169	 0.313176	 2
1463571506.957	 13	 -0.724859	 -1.547926	 0.519881	 2.536599	 -1.044369	 0.267992	 -0.257789	 0.800111	 -0.437366	 0.319497	 2
1463571506.967	 13	 -0.630250	 -1.375224	 0.759395	 2.518987	 -1.035002	 0.264082	 -0.259129	 0.800136	 -0.431786	 0.325876	 2
1463571506.977	 13	 -0.458368	 -1.027965	 0.900745	 2.500988	 -1.025745	 0.256236	 -0.258894	 0.800505	 -0.426857	 0.331601	 2
1463571506.987	 13	 -0.209188	 -0.526135	 0.974651	 2.484666	 -1.017807	 0.244787	 -0.256913	 0.801221	 -0.423329	 0.335907	 2
1463571506.997	 13	 -0.008045	 -0.007321	 1.024621	 2.471002	 -1.011109	 0.230291	 -0.253221	 0.802406	 -0.421220	 0.338522	 2
1463571507.007	 13	 0.134953	 0.483308	 0.977851	 2.461292	 -1.005686	 0.214517	 -0.248285	 0.804054	 -0.420401	 0.339286	 2
1463571507.017	 13	 0.215558	 0.937364	 0.849219	 2.456775	 -1.001663	 0.199440	 -0.242673	 0.806107	 -0.420714	 0.338084	 2
1463571507.027	 13	 0.278467	 1.312310	 0.658192	 2.457984	 -0.999183	 0.186148	 -0.236743	 0.808497	 -0.422055	 0.334895	 2
1463571507.037	 13	 0.341476	 1.533654	 0.406051	 2.463948	 -0.998733	 0.175606	 -0.231157	 0.810829	 -0.424317	 0.330269	 2
1463571507.047	 13	 0.431771	 1.676048	 0.131624	 2.474026	 -1.000665	 0.168024	 -0.226175	 0.812886	 -0.427521	 0.324481	 2
1463571507.057	 13	 0.555869	 1.744955	 -0.142717	 2.487229	 -1.005246	 0.163166	 -0.221926	 0.814458	 -0.431703	 0.317867	 2
1463571507.067	 13	 0.693864	 1.785395	 -0.376944	 2.502826	 -1.012442	 0.160529	 -0.218328	 0.815475	 -0.436856	 0.310629	 2
1463571507.077	 13	 0.855527	 1.621707	 -0.589830	 2.518878	 -1.022169	 0.159700	 -0.215593	 0.815679	 -0.442809	 0.303492	 2
1463571507.087	 13	 1.128538	 1.292970	 -0.783906	 2.532687	 -1.035009	 0.159650	 -0.213940	 0.814624	 -0.449685	 0.297323	 2
1463571507.097	 13	 1.558899	 0.780270	 -0.908592	 2.540251	 -1.051879	 0.157796	 -0.213324	 0.811765	 -0.457825	 0.293132	 2
1463571507.107	 13	 2.111407	 0.095337	 -0.974130	 2.537218	 -1.073529	 0.151100	 -0.213675	 0.806601	 -0.467491	 0.291874	 2
1463571507.117	 13	 2.600065	 -0.940933	 -1.112734	 2.519842	 -1.100125	 0.138927	 -0.215850	 0.798573	 -0.478384	 0.294685	 2
1463571507.127	 13	 2.291086	 -1.968333	 -1.377518	 2.494757	 -1.127513	 0.130317	 -0.221649	 0.788673	 -0.488095	 0.301049	 2
1463571507.137	 13	 0.868334	 -2.096375	 -1.275732	 2.479240	 -1.145945	 0.136856	 -0.230197	 0.780719	 -0.492792	 0.307640	 2
1463571507.147	 13	 -1.009413	 -1.444478	 -0.581887	 2.485142	 -1.146008	 0.160724	 -0.238061	 0.778822	 -0.489815	 0.311199	 2
1463571507.157	 13	 -1.357310	 -1.095109	 0.079837	 2.492683	 -1.135620	 0.181996	 -0.243348	 0.780207	 -0.483195	 0.313976	 2
1463571507.167	 13	 -0.745175	 -0.468987	 0.572716	 2.490228	 -1.125500	 0.186544	 -0.244592	 0.781948	 -0.478067	 0.316517	 2
1463571507.177	 13	 -0.145499	 0.385573	 0.881320	 2.482128	 -1.118302	 0.175491	 -0.241384	 0.783902	 -0.475906	 0.317405	 2
1463571507.187	 13	 0.100509	 0.511353	 0.871823	 2.472334	 -1.113274	 0.158519	 -0.236465	 0.785687	 -0.475384	 0.317476	 2
1463571507.197	 13	 0.004322	 -0.220810	 0.631380	 2.460812	 -1.109305	 0.145680	 -0.233673	 0.786389	 -0.474461	 0.319180	 2
1463571507.207	 13	 -0.264085	 -1.166215	 0.542856	 2.445354	 -1.104299	 0.138920	 -0.234044	 0.785980	 -0.471709	 0.323958	 2
1463571507.217	 13	 -0.386367	 -1.746619	 0.538519	 2.425713	 -1.097938	 0.135148	 -0.236346	 0.784829	 -0.467440	 0.331185	 2
1463571507.227	 13	 -0.242172	 -1.914305	 0.500533	 2.403138	 -1.092375	 0.131072	 -0.239248	 0.782935	 -0.463191	 0.339451	 2
1463571507.237	 13	 -0.060466	 -1.879515	 0.531248	 2.378186	 -1.088089	 0.124296	 -0.241752	 0.780536	 -0.459627	 0.347939	 2
1463571507.247	 13	 0.071983	 -1.459286	 0.599017	 2.353835	 -1.084276	 0.114887	 -0.243102	 0.778342	 -0.456800	 0.355555	 2
1463571507.257	 13	 0.311724	 -0.482949	 0.688078	 2.334254	 -1.081234	 0.101181	 -0.241772	 0.777247	 -0.455663	 0.360283	 2
1463571507.277	 13	 0.423501	 0.788141	 0.450610	 2.317747	 -1.078290	 0.069981	 -0.232936	 0.778694	 -0.458150	 0.359826	 2
1463571507.267	 13	 0.453132	 0.538741	 0.684631	 2.322397	 -1.079118	 0.084366	 -0.237604	 0.777640	 -0.456433	 0.361234	 2
1463571507.287	 13	 0.010778	 -0.433226	 0.090071	 2.312991	 -1.078028	 0.064857	 -0.231988	 0.778496	 -0.458417	 0.360527	 2
1463571507.297	 13	 -1.115426	 -1.961358	 -0.326793	 2.309976	 -1.074250	 0.080475	 -0.238128	 0.777022	 -0.453729	 0.365597	 2
1463571507.307	 13	 -2.098300	 -0.778154	 -0.658927	 2.330232	 -1.065542	 0.118057	 -0.246792	 0.778283	 -0.445828	 0.366888	 2
1463571507.317	 13	 -1.803462	 1.912821	 -0.827225	 2.377699	 -1.057555	 0.157773	 -0.250587	 0.783897	 -0.441309	 0.357712	 2
1463571507.327	 13	 -1.072568	 3.107517	 -0.935443	 2.433633	 -1.054392	 0.188500	 -0.249911	 0.790630	 -0.441632	 0.342651	 2
1463571507.337	 13	 -0.517998	 2.802777	 -0.933515	 2.483296	 -1.055375	 0.211556	 -0.248174	 0.795840	 -0.444357	 0.328018	 2
1463571507.347	 13	 -0.044020	 1.166297	 -0.831373	 2.513730	 -1.059157	 0.227555	 -0.248180	 0.797824	 -0.447117	 0.319328	 2
1463571507.357	 13	 0.473468	 -0.918572	 -0.795596	 2.517708	 -1.066640	 0.236825	 -0.251758	 0.795394	 -0.449250	 0.319596	 2
1463571507.367	 13	 0.981224	 -2.365134	 -0.744203	 2.498870	 -1.078018	 0.238933	 -0.258019	 0.789156	 -0.451230	 0.327186	 2
1463571507.387	 14	 2.022696	 -2.372554	 -0.759735	 2.430691	 -1.111998	 0.219930	 -0.269956	 0.771312	 -0.459372	 0.348109	 2
1463571507.397	 14	 2.790919	 -2.054659	 -0.906278	 2.386833	 -1.136919	 0.194732	 -0.273588	 0.760437	 -0.467896	 0.357714	 2
1463571507.407	 14	 3.467938	 -1.998737	 -1.134396	 2.330857	 -1.168201	 0.155534	 -0.276367	 0.747390	 -0.479669	 0.367351	 2
1463571507.417	 14	 3.180879	 -1.858686	 -1.297919	 2.271915	 -1.199765	 0.112290	 -0.279456	 0.734063	 -0.491689	 0.375896	 2
1463571507.427	 14	 2.131774	 -1.970527	 -1.450755	 2.226139	 -1.225899	 0.083886	 -0.284766	 0.722449	 -0.500452	 0.382783	 2
1463571507.437	 14	 1.251432	 -2.430228	 -1.690361	 2.197877	 -1.247534	 0.078470	 -0.293652	 0.712017	 -0.505398	 0.389068	 2
1463571507.447	 14	 1.034375	 -2.350216	 -1.891288	 2.180577	 -1.268655	 0.085706	 -0.304281	 0.701868	 -0.509094	 0.394484	 2
1463571507.457	 14	 1.331758	 -1.693191	 -1.957038	 2.164240	 -1.291785	 0.088279	 -0.313409	 0.691940	 -0.514401	 0.397977	 2
1463571507.467	 14	 1.602529	 -1.116105	 -1.910329	 2.143469	 -1.316339	 0.079526	 -0.320128	 0.682436	 -0.521590	 0.399679	 2
1463571507.477	 14	 1.699334	 -0.996907	 -1.861037	 2.115779	 -1.341170	 0.061312	 -0.325731	 0.672976	 -0.529440	 0.400869	 2
1463571507.487	 14	 1.614425	 -1.205486	 -1.764189	 2.080950	 -1.364922	 0.037304	 -0.331447	 0.663365	 -0.536659	 0.402600	 2
1463571507.497	 14	 1.482481	 -1.427784	 -1.671322	 2.039801	 -1.386983	 0.009434	 -0.337690	 0.653662	 -0.542751	 0.405108	 2
1463571507.507	 14	 1.382073	 -1.534165	 -1.568058	 1.991417	 -1.407421	 -0.024288	 -0.344141	 0.644030	 -0.547965	 0.408077	 2
1463571507.517	 14	 1.290947	 -1.493700	 -1.451786	 1.934818	 -1.426132	 -0.066297	 -0.350346	 0.634761	 -0.552572	 0.411097	 2
1463571507.527	 14	 1.254712	 -1.365029	 -1.323448	 1.865710	 -1.443049	 -0.121872	 -0.355914	 0.625971	 -0.556864	 0.413990	 2
1463571507.537	 14	 1.227458	 -1.155437	 -1.179514	 1.779841	 -1.457910	 -0.196178	 -0.360514	 0.617833	 -0.561059	 0.416563	 2
1463571507.547	 14	 1.195699	 -0.993713	 -1.038117	 1.673617	 -1.470308	 -0.292669	 -0.364154	 0.610361	 -0.565124	 0.418910	 2
1463571507.557	 14	 1.123802	 -0.853092	 -1.036183	 1.549628	 -1.481094	 -0.408325	 -0.367398	 0.603383	 -0.569131	 0.420759	 2
1463571507.567	 14	 1.115696	 -0.749999	 -1.050074	 1.400104	 -1.490477	 -0.550648	 -0.370399	 0.596649	 -0.573252	 0.422133	 2
1463571507.577	 14	 1.128660	 -0.647464	 -1.132362	 1.213280	 -1.498239	 -0.731211	 -0.373248	 0.589916	 -0.577672	 0.423060	 2
1463571507.587	 14	 1.111614	 -0.526095	 -1.269633	 0.984033	 -1.504183	 -0.955515	 -0.376092	 0.583204	 -0.582533	 0.423182	 2
1463571507.597	 14	 1.049012	 -0.579919	 -1.383625	 0.716675	 -1.507372	 -1.217854	 -0.379400	 0.576334	 -0.587454	 0.422839	 2
1463571507.607	 14	 0.926546	 -0.720222	 -1.420101	 0.440571	 -1.507079	 -1.487711	 -0.383427	 0.569374	 -0.591897	 0.422439	 2
1463571507.627	 15	 0.669316	 -0.911293	 -1.471861	 -0.041581	 -1.497688	 -1.952784	 -0.393787	 0.555375	 -0.598787	 0.421835	 2
1463571507.637	 15	 0.529944	 -0.841567	 -1.446552	 -0.227480	 -1.490082	 -2.130662	 -0.399170	 0.548988	 -0.601725	 0.420954	 2
1463571507.647	 15	 0.396893	 -0.814189	 -1.391851	 -0.377848	 -1.481826	 -2.273309	 -0.404574	 0.543164	 -0.604173	 0.419842	 2
1463571507.657	 15	 0.362394	 -0.889592	 -1.390121	 -0.504037	 -1.472600	 -2.391481	 -0.410156	 0.537447	 -0.606329	 0.418674	 2
1463571507.667	 15	 0.570997	 -1.736412	 -1.331608	 -0.603652	 -1.461246	 -2.477106	 -0.417104	 0.530113	 -0.607502	 0.419459	 2
1463571507.677	 15	 0.810965	 -1.681661	 -1.164798	 -0.666558	 -1.447995	 -2.522960	 -0.423993	 0.521626	 -0.608380	 0.421914	 2
1463571507.687	 15	 0.951062	 -1.827051	 -0.916916	 -0.697870	 -1.434529	 -2.536370	 -0.430036	 0.512861	 -0.609038	 0.425577	 2
1463571507.697	 15	 0.803619	 -1.768227	 -0.491977	 -0.710170	 -1.424109	 -2.530469	 -0.435299	 0.505075	 -0.608579	 0.430169	 2
1463571507.707	 15	 0.675575	 -1.228607	 -0.053142	 -0.702153	 -1.417668	 -2.508518	 -0.438365	 0.499611	 -0.607719	 0.434629	 2
1463571507.717	 15	 0.550582	 -0.640763	 0.290198	 -0.675513	 -1.414509	 -2.473729	 -0.438907	 0.496615	 -0.607014	 0.438484	 2
1463571507.727	 15	 0.386237	 -0.387548	 0.527387	 -0.639384	 -1.413990	 -2.432853	 -0.438075	 0.495411	 -0.606110	 0.441915	 2
1463571507.737	 15	 0.166594	 -0.501493	 0.712616	 -0.601090	 -1.416043	 -2.389465	 -0.437308	 0.495179	 -0.604185	 0.445556	 2
1463571507.747	 15	 -0.065187	 -0.738449	 0.943699	 -0.560157	 -1.420960	 -2.341168	 -0.437193	 0.495612	 -0.600700	 0.449879	 2
1463571507.757	 15	 -0.233372	 -0.906955	 1.252667	 -0.507248	 -1.428608	 -2.278899	 -0.437341	 0.496789	 -0.595665	 0.455101	 2
1463571507.767	 15	 -0.310992	 -0.959109	 1.655715	 -0.426439	 -1.438227	 -2.187684	 -0.436996	 0.498861	 -0.589294	 0.461416	 2
1463571507.777	 15	 -0.395182	 -0.867253	 2.114515	 -0.299459	 -1.448806	 -2.050617	 -0.435480	 0.502216	 -0.581759	 0.468713	 2
1463571507.787	 15	 -0.673922	 -0.581564	 2.529919	 -0.113169	 -1.459582	 -1.856259	 -0.432685	 0.507588	 -0.573071	 0.476159	 2
1463571507.807	 16	 -1.161932	 0.160629	 3.183729	 0.476608	 -1.469795	 -1.261854	 -0.422817	 0.525766	 -0.553080	 0.488773	 2
1463571507.817	 16	 -1.520822	 0.823859	 3.121619	 0.804869	 -1.461842	 -0.937867	 -0.416129	 0.537724	 -0.542841	 0.492963	 2
1463571507.827	 16	 -1.869182	 1.389787	 3.139510	 1.098546	 -1.446900	 -0.655113	 -0.408688	 0.552147	 -0.532894	 0.494096	 2
1463571507.837	 16	 -1.933430	 1.702250	 3.520257	 1.332608	 -1.421482	 -0.435353	 -0.399590	 0.568136	 -0.522385	 0.494635	 2
1463571507.857	 16	 -2.085909	 1.751972	 4.301120	 1.622624	 -1.344070	 -0.177114	 -0.376805	 0.603192	 -0.497375	 0.496785	 2
1463571507.867	 17	 -1.827014	 1.631109	 4.605746	 1.698062	 -1.297234	 -0.116386	 -0.363658	 0.620401	 -0.483306	 0.499270	 2
1463571507.877	 17	 -1.109607	 1.810529	 4.996567	 1.734757	 -1.247008	 -0.096219	 -0.347460	 0.636583	 -0.470029	 0.503097	 2
1463571507.887	 17	 -0.191129	 2.381041	 5.571522	 1.743464	 -1.192856	 -0.110460	 -0.325939	 0.652276	 -0.458677	 0.507854	 2
1463571507.897	 17	 0.572529	 3.286132	 5.727830	 1.742029	 -1.137057	 -0.145481	 -0.298985	 0.668142	 -0.450216	 0.511370	 2
1463571507.907	 17	 0.900681	 3.833247	 5.478545	 1.743415	 -1.083849	 -0.185497	 -0.269759	 0.683679	 -0.444161	 0.512381	 2
1463571507.917	 17	 0.891874	 4.222604	 5.485441	 1.751717	 -1.031791	 -0.223327	 -0.239470	 0.699166	 -0.438619	 0.511307	 2
1463571507.927	 17	 0.799061	 4.275656	 5.430258	 1.765852	 -0.979578	 -0.257316	 -0.208737	 0.714454	 -0.432340	 0.508986	 2
1463571507.937	 17	 0.876091	 4.050637	 4.939374	 1.780821	 -0.931467	 -0.289416	 -0.179404	 0.728018	 -0.426489	 0.505876	 2
1463571507.947	 17	 1.007324	 3.652287	 4.329172	 1.793878	 -0.889957	 -0.320489	 -0.152613	 0.739146	 -0.421914	 0.502355	 2
1463571507.957	 17	 1.120463	 3.573247	 3.889423	 1.806227	 -0.853625	 -0.351176	 -0.127508	 0.748597	 -0.418534	 0.498170	 2
1463571507.967	 17	 0.630300	 2.918868	 3.509256	 1.819252	 -0.820500	 -0.376221	 -0.105233	 0.756811	 -0.414539	 0.494288	 2
1463571507.977	 17	 -0.266327	 2.138487	 3.042997	 1.834457	 -0.789799	 -0.386543	 -0.088808	 0.764100	 -0.407541	 0.492112	 2
1463571507.987	 17	 -0.478804	 2.019039	 2.619562	 1.851845	 -0.762218	 -0.390698	 -0.075329	 0.771126	 -0.399907	 0.489658	 2
1463571507.997	 17	 -0.189586	 1.775147	 2.105340	 1.867070	 -0.739985	 -0.395558	 -0.063722	 0.777008	 -0.393970	 0.486811	 2
1463571508.007	 17	 0.463704	 1.281804	 1.660231	 1.874092	 -0.723946	 -0.406257	 -0.053362	 0.780406	 -0.391208	 0.484847	 2
1463571508.017	 17	 1.154685	 0.818495	 1.265163	 1.871525	 -0.713908	 -0.424201	 -0.043842	 0.781037	 -0.392005	 0.484139	 2
1463571508.027	 17	 1.615049	 0.513665	 0.923669	 1.862326	 -0.708739	 -0.447254	 -0.035095	 0.779660	 -0.395619	 0.484133	 2
1463571508.037	 17	 1.748725	 0.358060	 0.640761	 1.850213	 -0.706839	 -0.471821	 -0.027364	 0.777246	 -0.400728	 0.484311	 2
1463571508.047	 17	 1.594073	 0.298737	 0.464639	 1.838716	 -0.706479	 -0.494408	 -0.020808	 0.774758	 -0.405937	 0.484286	 2
1463571508.057	 17	 1.397372	 0.002551	 0.462530	 1.826776	 -0.705907	 -0.514266	 -0.015387	 0.772079	 -0.410450	 0.484962	 2
1463571508.067	 17	 1.183687	 -0.506259	 0.467116	 1.811834	 -0.704317	 -0.531585	 -0.011298	 0.768653	 -0.414035	 0.487463	 2
1463571508.077	 17	 1.009232	 -1.156775	 0.306981	 1.792693	 -0.703321	 -0.545982	 -0.009443	 0.764093	 -0.417137	 0.492006	 2
1463571508.087	 17	 0.855360	 -1.745637	 0.150437	 1.768638	 -0.703353	 -0.558043	 -0.009897	 0.758192	 -0.420018	 0.498630	 2
1463571508.097	 17	 0.555832	 -1.974893	 0.242567	 1.743946	 -0.702576	 -0.566705	 -0.011571	 0.752069	 -0.421815	 0.506290	 2
1463571508.107	 17	 0.222967	 -2.208901	 0.545956	 1.719177	 -0.698482	 -0.571652	 -0.013595	 0.745938	 -0.421646	 0.515370	 2
1463571508.117	 17	 -0.123724	 -2.714674	 0.915153	 1.693012	 -0.690315	 -0.572611	 -0.016021	 0.739421	 -0.419184	 0.526578	 2
1463571508.137	 18	 -0.942794	 -3.800120	 1.532458	 1.632236	 -0.662626	 -0.559955	 -0.023802	 0.723628	 -0.406749	 0.557092	 2
1463571508.147	 18	 -1.401668	 -4.359411	 1.663403	 1.599470	 -0.645744	 -0.544777	 -0.029994	 0.714527	 -0.396963	 0.575302	 2
1463571508.157	 18	 -1.827645	 -4.896988	 1.721793	 1.564377	 -0.628416	 -0.523479	 -0.038320	 0.704227	 -0.384991	 0.595297	 2
1463571508.167	 18	 -2.098128	 -5.395517	 1.654497	 1.526553	 -0.612162	 -0.497968	 -0.048585	 0.692489	 -0.371661	 0.616415	 2
1463571508.177	 18	 -2.347036	 -5.952570	 1.445789	 1.484890	 -0.598599	 -0.469076	 -0.061169	 0.678835	 -0.357508	 0.638458	 2
1463571508.187	 18	 -2.700668	 -6.497973	 1.188010	 1.439540	 -0.588967	 -0.436205	 -0.076584	 0.663114	 -0.342503	 0.661140	 2
1463571508.197	 18	 -3.074713	 -6.832837	 0.914250	 1.392589	 -0.583898	 -0.399034	 -0.094702	 0.645820	 -0.326565	 0.683596	 2
1463571508.207	 18	 -3.368514	 -7.258249	 0.799878	 1.343562	 -0.582584	 -0.358341	 -0.114945	 0.626679	 -0.309494	 0.705885	 2
1463571508.217	 18	 -3.532060	 -7.619779	 0.893857	 1.291906	 -0.583007	 -0.315195	 -0.136157	 0.605437	 -0.290893	 0.728209	 2
1463571508.227	 18	 -3.581193	 -7.826397	 1.128961	 1.238745	 -0.583668	 -0.270517	 -0.157154	 0.582490	 -0.270652	 0.750170	 2
1463571508.237	 18	 -3.466489	 -8.121051	 1.610142	 1.183565	 -0.582249	 -0.224910	 -0.176749	 0.557725	 -0.248322	 0.772035	 2
1463571508.247	 18	 -2.858024	 -8.638156	 2.269331	 1.122340	 -0.575333	 -0.181582	 -0.192946	 0.529986	 -0.223972	 0.794811	 2
1463571508.257	 18	 -1.973063	 -9.329708	 2.891451	 1.051612	 -0.561268	 -0.143107	 -0.204460	 0.498168	 -0.198072	 0.819019	 2
1463571508.267	 18	 -0.868959	 -9.228589	 3.201442	 0.974065	 -0.540538	 -0.112168	 -0.210294	 0.463533	 -0.172495	 0.843302	 2
1463571508.277	 18	 -1.335743	 -6.148118	 3.194737	 0.918329	 -0.520703	 -0.080771	 -0.213278	 0.437231	 -0.148968	 0.860901	 2
1463571508.287	 18	 -2.116669	 -2.712424	 3.204731	 0.904802	 -0.508047	 -0.039564	 -0.217606	 0.427487	 -0.127049	 0.868194	 2
1463571508.297	 18	 -1.380475	 -1.580021	 3.161965	 0.904717	 -0.493052	 -0.002681	 -0.218922	 0.424167	 -0.107835	 0.872082	 2
1463571508.307	 18	 -0.321651	 -1.192778	 3.015669	 0.904079	 -0.472525	 0.023723	 -0.215582	 0.422139	 -0.091862	 0.875719	 2
1463571508.317	 18	 0.043059	 -0.446145	 2.867037	 0.906400	 -0.449714	 0.043739	 -0.209744	 0.422337	 -0.078436	 0.878343	 2
1463571508.327	 18	 0.122276	 -0.004265	 2.672228	 0.913278	 -0.427641	 0.061404	 -0.203591	 0.424843	 -0.066595	 0.879559	 2
1463571508.337	 18	 0.328780	 -0.172265	 2.469569	 0.918038	 -0.405993	 0.075791	 -0.197048	 0.426812	 -0.055994	 0.880834	 2
1463571508.347	 18	 0.488404	 -0.516974	 2.227306	 0.918071	 -0.385017	 0.086979	 -0.190261	 0.427031	 -0.046436	 0.882774	 2
1463571508.357	 18	 0.560576	 -0.808600	 1.936208	 0.913753	 -0.365770	 0.095436	 -0.183720	 0.425511	 -0.038045	 0.885291	 2
1463571508.367	 18	 0.585870	 -0.961981	 1.769368	 0.906842	 -0.348021	 0.102352	 -0.177505	 0.422902	 -0.030450	 0.888098	 2
1463571508.377	 18	 0.710685	 -1.008825	 1.813673	 0.898911	 -0.329839	 0.108528	 -0.170895	 0.419929	 -0.023036	 0.891024	 2
1463571508.387	 18	 1.014280	 -1.067822	 2.014041	 0.890048	 -0.308774	 0.113809	 -0.162764	 0.416777	 -0.015366	 0.894186	 2
1463571508.397	 18	 1.425930	 -1.135081	 2.292258	 0.880032	 -0.283242	 0.117830	 -0.152311	 0.413439	 -0.007279	 0.897673	 2
1463571508.407	 18	 1.835549	 -1.200036	 2.593961	 0.868987	 -0.252779	 0.120787	 -0.139337	 0.409931	 0.001346	 0.901410	 2
1463571508.417	 18	 2.177345	 -1.313318	 2.804149	 0.856701	 -0.218171	 0.122872	 -0.124198	 0.406043	 0.010382	 0.905316	 2
1463571508.427	 18	 2.439782	 -1.560825	 2.807021	 0.841938	 -0.181269	 0.123653	 -0.107596	 0.401086	 0.019245	 0.909496	 2
1463571508.437	 18	 2.579904	 -1.777531	 2.607685	 0.824454	 -0.144364	 0.122656	 -0.090445	 0.394806	 0.027169	 0.913898	 2
1463571508.447	 18	 2.583837	 -1.848632	 2.338417	 0.805760	 -0.109103	 0.120300	 -0.073602	 0.387763	 0.033880	 0.918191	 2
1463571508.457	 18	 2.528765	 -1.822227	 2.144107	 0.787222	 -0.075652	 0.117427	 -0.057354	 0.380541	 0.039675	 0.922130	 2
1463571508.467	 18	 2.454160	 -1.792135	 1.863676	 0.769008	 -0.044408	 0.113878	 -0.041889	 0.373228	 0.044426	 0.925728	 2
1463571508.477	 18	 2.357867	 -1.762606	 1.497101	 0.751190	 -0.016195	 0.109027	 -0.027508	 0.365859	 0.047720	 0.929039	 2
1463571508.487	 18	 2.332036	 -1.775409	 1.188136	 0.733488	 0.009483	 0.102479	 -0.013945	 0.358330	 0.049509	 0.932177	 2
1463571508.497	 18	 2.332510	 -1.840813	 1.116117	 0.715398	 0.034329	 0.095356	 -0.000625	 0.350437	 0.050639	 0.935216	 2
1463571508.507	 18	 2.326356	 -1.831906	 1.168476	 0.697264	 0.059562	 0.089058	 0.012757	 0.342368	 0.051980	 0.938040	 2
1463571508.517	 18	 2.318272	 -1.734046	 1.166259	 0.680116	 0.084897	 0.083338	 0.026089	 0.334619	 0.053378	 0.940479	 2
1463571508.527	 18	 2.380076	 -1.728066	 1.135936	 0.663447	 0.110461	 0.077551	 0.039548	 0.326955	 0.054561	 0.942634	 2
1463571508.537	 18	 2.543469	 -1.678771	 1.106196	 0.647312	 0.137015	 0.071100	 0.053581	 0.319395	 0.055375	 0.944484	 2
1463571508.547	 18	 2.774141	 -1.638025	 1.098172	 0.632005	 0.165383	 0.063663	 0.068611	 0.312049	 0.055803	 0.945941	 2
1463571508.557	 18	 2.980906	 -1.619076	 1.008090	 0.617298	 0.195232	 0.054787	 0.084540	 0.304756	 0.055566	 0.947042	 2
1463571508.567	 18	 3.101069	 -1.599114	 0.876141	 0.603498	 0.225641	 0.044363	 0.100919	 0.297613	 0.054493	 0.947772	 2
1463571508.577	 18	 3.106995	 -1.604214	 0.762005	 0.590146	 0.255825	 0.033060	 0.117267	 0.290412	 0.052778	 0.948222	 2
1463571508.587	 18	 3.008435	 -1.640471	 0.709238	 0.576897	 0.285116	 0.021913	 0.133113	 0.283055	 0.050810	 0.948462	 2
1463571508.597	 18	 2.844193	 -1.680929	 0.783829	 0.562979	 0.313517	 0.012294	 0.148284	 0.275298	 0.049199	 0.948579	 2
1463571508.607	 18	 2.655539	 -1.677843	 0.839854	 0.548624	 0.340841	 0.004684	 0.162630	 0.267342	 0.048163	 0.948557	 2
1463571508.617	 18	 2.494101	 -1.738012	 0.837502	 0.533587	 0.366886	 -0.001520	 0.176159	 0.259082	 0.047371	 0.948473	 2
1463571508.627	 18	 2.363785	 -1.758942	 0.832048	 0.517952	 0.391739	 -0.006755	 0.188977	 0.250557	 0.046638	 0.948332	 2
1463571508.637	 18	 2.284990	 -1.748901	 0.864800	 0.502028	 0.416002	 -0.010816	 0.201344	 0.241947	 0.046167	 0.948046	 2
1463571508.647	 18	 2.241310	 -1.738095	 0.870610	 0.486006	 0.439954	 -0.014136	 0.213450	 0.233317	 0.045808	 0.947578	 2
1463571508.657	 18	 2.166773	 -1.698562	 0.865232	 0.470040	 0.463375	 -0.016772	 0.225200	 0.224760	 0.045531	 0.946940	 2
1463571508.667	 18	 2.032542	 -1.645022	 0.860504	 0.454270	 0.485724	 -0.018469	 0.236313	 0.216406	 0.045418	 0.946183	 2
1463571508.677	 18	 1.884119	 -1.658452	 0.855277	 0.437976	 0.506749	 -0.019111	 0.246684	 0.207958	 0.045425	 0.945430	 2
1463571508.687	 18	 1.730963	 -1.541073	 0.845980	 0.421999	 0.526356	 -0.018725	 0.256263	 0.199835	 0.045643	 0.944623	 2
1463571508.697	 18	 1.594038	 -1.379046	 0.840153	 0.407153	 0.544640	 -0.017384	 0.265095	 0.192426	 0.046177	 0.943697	 2
1463571508.707	 18	 1.484417	 -1.289608	 0.808901	 0.393032	 0.561744	 -0.015435	 0.273298	 0.185499	 0.046849	 0.942711	 2
1463571508.717	 18	 1.383151	 -1.215288	 0.749726	 0.379554	 0.577658	 -0.013298	 0.280912	 0.178962	 0.047470	 0.941705	 2
1463571508.727	 18	 1.323192	 -1.191216	 0.671606	 0.366581	 0.592620	 -0.011408	 0.288092	 0.172682	 0.047855	 0.940688	 2
1463571508.737	 18	 1.304450	 -1.249195	 0.589166	 0.353537	 0.606998	 -0.010084	 0.295046	 0.166327	 0.047817	 0.939679	 2
1463571508.747	 18	 1.311133	 -1.360310	 0.523062	 0.339787	 0.621121	 -0.009333	 0.301941	 0.159582	 0.047289	 0.938685	 2
1463571508.757	 18	 1.338328	 -1.441533	 0.480505	 0.325340	 0.635294	 -0.008974	 0.308896	 0.152467	 0.046376	 0.937649	 2
1463571508.767	 18	 1.361492	 -1.483295	 0.451139	 0.310514	 0.649617	 -0.008838	 0.315933	 0.145154	 0.045210	 0.936522	 2
1463571508.777	 18	 1.356052	 -1.481360	 0.422429	 0.295637	 0.663873	 -0.008789	 0.322930	 0.137823	 0.043885	 0.935305	 2
1463571508.787	 18	 1.293656	 -1.392624	 0.460034	 0.281024	 0.677726	 -0.008085	 0.329670	 0.130754	 0.042779	 0.934019	 2
1463571508.797	 18	 1.213286	 -1.234990	 0.457937	 0.267336	 0.690850	 -0.006639	 0.335991	 0.124284	 0.042029	 0.932683	 2
1463571508.807	 18	 1.116878	 -1.022530	 0.382953	 0.255758	 0.702932	 -0.005380	 0.341784	 0.118816	 0.041401	 0.931318	 2
1463571508.817	 18	 0.989365	 -0.828190	 0.289953	 0.246624	 0.713612	 -0.004753	 0.346904	 0.114429	 0.040752	 0.930002	 2
1463571508.827	 18	 0.847860	 -0.706786	 0.253947	 0.238964	 0.722805	 -0.004223	 0.351300	 0.110756	 0.040186	 0.928820	 2
1463571508.837	 18	 0.742179	 -0.663299	 0.194524	 0.231991	 0.730744	 -0.003828	 0.355102	 0.107417	 0.039576	 0.927792	 2
1463571508.847	 18	 0.687368	 -0.652239	 0.084265	 0.225887	 0.737785	 -0.004462	 0.358519	 0.104322	 0.038571	 0.926873	 2
1463571508.857	 18	 0.682395	 -0.706228	 -0.029165	 0.220424	 0.744418	 -0.006550	 0.361801	 0.101273	 0.036968	 0.926001	 2
1463571508.867	 18	 0.706209	 -0.799366	 -0.102711	 0.214853	 0.751048	 -0.009765	 0.365128	 0.097967	 0.034808	 0.925134	 2
1463571508.877	 18	 0.755774	 -0.880726	 -0.155056	 0.208976	 0.758009	 -0.013806	 0.368638	 0.094354	 0.032211	 0.924211	 2
1463571508.887	 18	 0.797350	 -0.852456	 -0.199917	 0.203644	 0.765337	 -0.018619	 0.372325	 0.090832	 0.029361	 0.923180	 2
1463571508.897	 18	 0.791435	 -0.770357	 -0.174589	 0.199028	 0.772773	 -0.023380	 0.376029	 0.087636	 0.026662	 0.922069	 2
1463571508.907	 18	 0.668805	 -0.612878	 -0.068677	 0.194748	 0.779541	 -0.026683	 0.379342	 0.084875	 0.024656	 0.921025	 2
1463571508.917	 18	 0.403520	 -0.411121	 0.071927	 0.190690	 0.784283	 -0.027437	 0.381603	 0.082747	 0.023760	 0.920308	 2
1463571508.927	 18	 0.099172	 -0.281071	 0.135470	 0.186718	 0.786236	 -0.026182	 0.382497	 0.081112	 0.023669	 0.920085	 2
1463571508.937	 18	 -0.185522	 -0.178569	 0.074957	 0.183460	 0.785264	 -0.024475	 0.382020	 0.079962	 0.023788	 0.920381	 2
1463571508.947	 18	 -0.365921	 -0.070570	 -0.065279	 0.182219	 0.781966	 -0.024070	 0.380502	 0.079544	 0.023591	 0.921051	 2
1463571508.957	 18	 -0.406591	 -0.008449	 -0.168792	 0.182679	 0.777712	 -0.025031	 0.378576	 0.079671	 0.023046	 0.921847	 2
1463571508.977	 19	 -0.074852	 0.056903	 -0.274719	 0.218742	 0.746273	 -0.052482	 0.364902	 0.092099	 0.015490	 0.926350	 2
1463571508.987	 19	 0.208287	 0.064073	 -0.198251	 0.221675	 0.747101	 -0.055865	 0.365419	 0.092813	 0.014505	 0.926091	 2
1463571508.997	 19	 0.495036	 0.075135	 -0.023728	 0.223892	 0.751081	 -0.058099	 0.367344	 0.093297	 0.014104	 0.925286	 2
1463571509.007	 19	 0.707632	 0.162281	 0.199042	 0.225342	 0.757868	 -0.058241	 0.370470	 0.093710	 0.014695	 0.923988	 2
1463571509.017	 19	 0.753961	 0.275795	 0.459680	 0.246411	 0.767127	 -0.069568	 0.375129	 0.100980	 0.013957	 0.921350	 2
1463571509.027	 19	 0.624432	 0.461747	 0.675691	 0.246120	 0.775214	 -0.063313	 0.378525	 0.101714	 0.017291	 0.919823	 2
1463571509.037	 19	 0.339628	 0.508160	 0.654090	 0.245860	 0.780851	 -0.055563	 0.380714	 0.102857	 0.021155	 0.918711	 2
1463571509.047	 19	 0.025643	 0.332719	 0.534760	 0.244480	 0.783262	 -0.048199	 0.381454	 0.103542	 0.024422	 0.918246	 2
1463571509.057	 19	 -0.280255	 0.091057	 0.380639	 0.241466	 0.782240	 -0.041715	 0.380689	 0.103427	 0.026764	 0.918511	 2
1463571509.067	 20	 -0.471088	 -0.186081	 0.220923	 0.236798	 0.778660	 -0.036742	 0.378855	 0.102341	 0.027952	 0.919355	 2
1463571509.087	 20	 -0.490842	 -0.601086	 0.039251	 0.223367	 0.769114	 -0.031023	 0.374369	 0.097517	 0.027517	 0.921727	 2
