% Gyrometer data recorded with 'snsrlog'
% 
% 
% Label description:
% 	 0: Default Label
% 	 1: still_drop
% 	 2: walk_drop
% 	 3: other
% 	 4: dtw_same
% 	 5: dtw_diff
% 	 6: delete
% 
% Column description:
% 	 1: Seconds.milliseconds since 1970
% 	 2: Number of skipped measurements
% 	 3: Gyro X
% 	 4: Gyro Y
% 	 5: Gyro Z
% 	 6: Roll of the device
% 	 7: Pitch of the device
% 	 8: Yaw of the device
% 	 9: Quaternion X
% 	 10: Quaternion Y
% 	 11: Quaternion Z
% 	 12: Quaternion W
% 	 13: Label used for the current sample
% 
% 
1461766140.618	 0	 -0.054036	 0.001264	 -0.005705	 -0.652286	 -1.094381	 -0.406516	 -0.537949	 -0.168489	 -0.000035	 0.825968	 5
1461766140.628	 0	 -0.060153	 0.004781	 -0.003153	 -0.657340	 -1.096860	 -0.411219	 -0.539284	 -0.168902	 -0.000158	 0.825012	 5
1461766140.638	 0	 -0.055254	 0.007121	 -0.009366	 -0.660472	 -1.098603	 -0.414257	 -0.540200	 -0.169085	 -0.000242	 0.824375	 5
1461766140.647	 0	 -0.062586	 0.015327	 -0.009243	 -0.661180	 -1.099034	 -0.415192	 -0.540442	 -0.169053	 -0.000356	 0.824223	 5
1461766140.657	 0	 -0.060140	 0.022365	 -0.015392	 -0.663214	 -1.100554	 -0.417395	 -0.541201	 -0.169042	 -0.000429	 0.823727	 5
1461766140.666	 0	 -0.060284	 0.033017	 -0.005338	 -0.664902	 -1.102424	 -0.419377	 -0.542073	 -0.168888	 -0.000438	 0.823185	 5
1461766140.676	 0	 -0.070026	 0.035323	 -0.005264	 -0.667232	 -1.103938	 -0.421982	 -0.542862	 -0.168886	 -0.000594	 0.822665	 5
1461766140.686	 0	 -0.073762	 0.047091	 -0.002635	 -0.669160	 -1.105662	 -0.424273	 -0.543703	 -0.168766	 -0.000687	 0.822135	 5
1461766140.695	 0	 -0.089660	 0.063503	 -0.001137	 -0.670272	 -1.107134	 -0.426020	 -0.544402	 -0.168498	 -0.000825	 0.821727	 5
1461766140.705	 0	 -0.080072	 0.087109	 0.001547	 -0.670460	 -1.107763	 -0.427079	 -0.544726	 -0.168181	 -0.001089	 0.821576	 5
1461766140.715	 0	 -0.069232	 0.103651	 0.002915	 -0.670196	 -1.109067	 -0.427870	 -0.545280	 -0.167635	 -0.001239	 0.821320	 5
1461766140.724	 0	 -0.067980	 0.103627	 -0.002057	 -0.669984	 -1.110147	 -0.428774	 -0.545759	 -0.167118	 -0.001463	 0.821107	 5
1461766140.734	 0	 -0.060728	 0.098989	 0.004077	 -0.669946	 -1.111237	 -0.429725	 -0.546246	 -0.166658	 -0.001658	 0.820876	 5
1461766140.743	 0	 -0.043725	 0.110796	 -0.003333	 -0.670314	 -1.112482	 -0.431114	 -0.546827	 -0.166217	 -0.001891	 0.820579	 5
1461766140.753	 0	 -0.020655	 0.117946	 -0.007091	 -0.669981	 -1.113567	 -0.431899	 -0.547296	 -0.165680	 -0.002098	 0.820374	 5
1461766140.762	 0	 -0.012077	 0.112071	 -0.012166	 -0.669225	 -1.113574	 -0.432301	 -0.547331	 -0.165259	 -0.002469	 0.820434	 5
1461766140.772	 0	 -0.002380	 0.109780	 -0.009735	 -0.667864	 -1.114528	 -0.432065	 -0.547666	 -0.164602	 -0.002564	 0.820342	 5
1461766140.782	 0	 -0.009650	 0.090950	 -0.003659	 -0.666259	 -1.115541	 -0.431484	 -0.547994	 -0.163930	 -0.002573	 0.820258	 5
1461766140.792	 0	 -0.007145	 0.070962	 -0.002612	 -0.664477	 -1.116432	 -0.430554	 -0.548248	 -0.163303	 -0.002512	 0.820213	 5
1461766140.801	 0	 -0.008343	 0.050995	 0.004674	 -0.662761	 -1.117504	 -0.429508	 -0.548561	 -0.162704	 -0.002352	 0.820124	 5
1461766140.811	 0	 0.000155	 0.036952	 0.010732	 -0.661272	 -1.118702	 -0.428499	 -0.548924	 -0.162167	 -0.002121	 0.819987	 5
1461766140.820	 0	 -0.002303	 0.018184	 0.024215	 -0.660707	 -1.118823	 -0.428160	 -0.548941	 -0.162008	 -0.002114	 0.820007	 5
1461766140.830	 0	 -0.003408	 -0.005378	 0.021518	 -0.659869	 -1.119936	 -0.427328	 -0.549289	 -0.161705	 -0.001795	 0.819835	 5
1461766140.839	 0	 0.003829	 -0.022918	 0.034992	 -0.659045	 -1.120864	 -0.426274	 -0.549550	 -0.161500	 -0.001415	 0.819702	 5
1461766140.849	 0	 0.000254	 -0.038264	 0.031144	 -0.659146	 -1.121978	 -0.425950	 -0.549940	 -0.161442	 -0.001047	 0.819452	 5
1461766140.859	 0	 0.007708	 -0.067692	 0.025841	 -0.659357	 -1.122619	 -0.425534	 -0.550145	 -0.161535	 -0.000698	 0.819296	 5
1461766140.868	 0	 -0.000832	 -0.082964	 0.038149	 -0.659606	 -1.122806	 -0.424939	 -0.550167	 -0.161769	 -0.000350	 0.819235	 5
1461766140.878	 0	 -0.003275	 -0.087671	 0.040606	 -0.660020	 -1.123399	 -0.424449	 -0.550349	 -0.161973	 0.000075	 0.819073	 5
1461766140.887	 0	 -0.004360	 -0.103036	 0.031758	 -0.660737	 -1.123935	 -0.424116	 -0.550522	 -0.162268	 0.000509	 0.818898	 5
1461766140.897	 0	 -0.008038	 -0.107740	 0.036689	 -0.661933	 -1.124282	 -0.424209	 -0.550658	 -0.162674	 0.000865	 0.818726	 5
1461766140.907	 0	 0.001799	 -0.119513	 0.029057	 -0.662848	 -1.124503	 -0.423897	 -0.550715	 -0.163097	 0.001286	 0.818603	 5
1461766140.916	 0	 0.008950	 -0.098269	 0.032967	 -0.663552	 -1.124668	 -0.423498	 -0.550743	 -0.163467	 0.001674	 0.818509	 5
1461766140.926	 0	 0.006452	 -0.087687	 0.034313	 -0.664507	 -1.124706	 -0.423462	 -0.550753	 -0.163861	 0.001959	 0.818423	 5
1461766140.936	 0	 0.016221	 -0.071252	 0.019513	 -0.665088	 -1.124616	 -0.423232	 -0.550701	 -0.164178	 0.002196	 0.818395	 5
1461766140.945	 0	 0.007635	 -0.057158	 0.020946	 -0.665229	 -1.124639	 -0.422735	 -0.550668	 -0.164368	 0.002442	 0.818378	 5
1461766140.955	 0	 0.015990	 -0.034740	 0.024842	 -0.665995	 -1.124582	 -0.422932	 -0.550662	 -0.164637	 0.002562	 0.818327	 5
1461766140.964	 0	 0.022073	 -0.025347	 0.017440	 -0.666408	 -1.124557	 -0.422957	 -0.550654	 -0.164803	 0.002661	 0.818299	 5
1461766140.974	 0	 0.019579	 -0.013592	 0.017563	 -0.666393	 -1.124471	 -0.422692	 -0.550600	 -0.164885	 0.002749	 0.818318	 5
1461766140.983	 0	 0.005031	 -0.004302	 0.009012	 -0.666558	 -1.124242	 -0.422717	 -0.550517	 -0.164984	 0.002742	 0.818354	 5
1461766140.993	 0	 -0.007151	 0.010921	 0.005491	 -0.666602	 -1.124132	 -0.422796	 -0.550483	 -0.164999	 0.002701	 0.818375	 5
1461766141.003	 0	 -0.008338	 0.019113	 -0.001874	 -0.666542	 -1.124150	 -0.422912	 -0.550499	 -0.164939	 0.002640	 0.818376	 5
1461766141.012	 0	 -0.013241	 0.030854	 -0.002972	 -0.666565	 -1.124209	 -0.423222	 -0.550546	 -0.164854	 0.002531	 0.818362	 5
1461766141.022	 0	 0.001402	 0.025016	 -0.006834	 -0.666508	 -1.124206	 -0.423443	 -0.550563	 -0.164770	 0.002424	 0.818367	 5
1461766141.032	 0	 0.000139	 0.021521	 -0.000625	 -0.665950	 -1.124452	 -0.423154	 -0.550632	 -0.164580	 0.002435	 0.818359	 5
1461766141.041	 0	 0.000130	 0.016839	 0.003066	 -0.665460	 -1.124525	 -0.422846	 -0.550635	 -0.164451	 0.002439	 0.818383	 5
1461766141.051	 0	 -0.003643	 0.022772	 0.013110	 -0.664891	 -1.124835	 -0.422471	 -0.550720	 -0.164269	 0.002494	 0.818362	 5
1461766141.060	 0	 -0.007268	 0.023924	 0.010671	 -0.664218	 -1.125003	 -0.422018	 -0.550746	 -0.164090	 0.002526	 0.818380	 5
1461766141.070	 0	 -0.010821	 0.014467	 0.005637	 -0.663643	 -1.125189	 -0.421617	 -0.550783	 -0.163934	 0.002567	 0.818387	 5
1461766141.080	 0	 -0.013170	 0.005016	 0.000605	 -0.663376	 -1.125453	 -0.421471	 -0.550870	 -0.163821	 0.002602	 0.818351	 5
1461766141.089	 0	 -0.014400	 0.007360	 -0.000589	 -0.663276	 -1.125734	 -0.421466	 -0.550975	 -0.163734	 0.002629	 0.818298	 5
1461766141.099	 0	 -0.002265	 -0.004303	 0.007926	 -0.663275	 -1.125794	 -0.421456	 -0.550996	 -0.163726	 0.002645	 0.818285	 5
1461766141.108	 0	 0.013641	 -0.005486	 -0.005822	 -0.663287	 -1.125871	 -0.421410	 -0.551021	 -0.163731	 0.002681	 0.818267	 5
1461766141.118	 0	 0.008681	 -0.005469	 0.001677	 -0.663419	 -1.126115	 -0.421456	 -0.551116	 -0.163731	 0.002744	 0.818203	 5
1461766141.128	 0	 0.017160	 -0.004263	 0.000418	 -0.663512	 -1.126294	 -0.421475	 -0.551184	 -0.163733	 0.002796	 0.818156	 5
1461766141.137	 0	 0.034227	 -0.015970	 -0.002258	 -0.663390	 -1.126310	 -0.421175	 -0.551165	 -0.163763	 0.002888	 0.818163	 5
1461766141.147	 0	 0.035415	 -0.030033	 0.006323	 -0.662854	 -1.126354	 -0.420362	 -0.551116	 -0.163761	 0.003081	 0.818196	 5
1461766141.156	 0	 0.033045	 -0.051199	 0.009884	 -0.662173	 -1.126399	 -0.419227	 -0.551041	 -0.163787	 0.003366	 0.818240	 5
1461766141.166	 0	 0.028246	 -0.064173	 0.009772	 -0.662227	 -1.126272	 -0.418648	 -0.550946	 -0.163990	 0.003594	 0.818262	 5
1461766141.176	 0	 0.017419	 -0.091270	 0.012074	 -0.661922	 -1.126374	 -0.417537	 -0.550894	 -0.164154	 0.003984	 0.818263	 5
1461766141.185	 0	 0.028518	 -0.108921	 0.001939	 -0.662041	 -1.126412	 -0.416669	 -0.550836	 -0.164436	 0.004379	 0.818243	 5
1461766141.195	 0	 0.023671	 -0.112462	 0.001966	 -0.662302	 -1.126413	 -0.415827	 -0.550767	 -0.164774	 0.004795	 0.818219	 5
1461766141.204	 0	 0.020144	 -0.127783	 -0.000639	 -0.662664	 -1.126261	 -0.415065	 -0.550646	 -0.165157	 0.005178	 0.818221	 5
1461766141.214	 0	 0.022472	 -0.124176	 0.009340	 -0.663341	 -1.126185	 -0.414498	 -0.550569	 -0.165603	 0.005583	 0.818180	 5
1461766141.224	 0	 0.034572	 -0.119392	 0.011828	 -0.663898	 -1.126114	 -0.413818	 -0.550485	 -0.166031	 0.006001	 0.818147	 5
1461766141.233	 0	 0.028388	 -0.108776	 0.019436	 -0.664076	 -1.125988	 -0.412857	 -0.550357	 -0.166389	 0.006419	 0.818157	 5
1461766141.243	 0	 0.028462	 -0.124080	 0.019275	 -0.664510	 -1.125896	 -0.412055	 -0.550255	 -0.166802	 0.006850	 0.818138	 5
1461766141.253	 0	 0.033372	 -0.131116	 0.019176	 -0.664957	 -1.125701	 -0.411187	 -0.550108	 -0.167257	 0.007291	 0.818140	 5
1461766141.262	 0	 0.026266	 -0.139482	 0.002980	 -0.665644	 -1.125567	 -0.410500	 -0.549998	 -0.167749	 0.007737	 0.818109	 5
1461766141.272	 0	 0.020232	 -0.143057	 0.000488	 -0.666611	 -1.125385	 -0.410080	 -0.549890	 -0.168290	 0.008140	 0.818066	 5
1461766141.281	 0	 0.017845	 -0.146625	 -0.003269	 -0.667913	 -1.125241	 -0.409972	 -0.549822	 -0.168877	 0.008515	 0.817988	 5
1461766141.291	 0	 -0.000512	 -0.119657	 -0.004171	 -0.669590	 -1.125125	 -0.410384	 -0.549806	 -0.169468	 0.008786	 0.817873	 5
1461766141.301	 0	 -0.005555	 -0.093766	 0.002281	 -0.671325	 -1.124967	 -0.411091	 -0.549800	 -0.170010	 0.008944	 0.817763	 5
1461766141.310	 0	 -0.006784	 -0.084376	 -0.001342	 -0.672278	 -1.125028	 -0.411242	 -0.549831	 -0.170348	 0.009156	 0.817670	 5
1461766141.320	 0	 0.002843	 -0.057281	 -0.003641	 -0.673307	 -1.124737	 -0.411632	 -0.549751	 -0.170710	 0.009225	 0.817647	 5
1461766141.329	 0	 0.005316	 -0.056107	 -0.006147	 -0.673920	 -1.124508	 -0.411700	 -0.549669	 -0.170981	 0.009322	 0.817645	 5
1461766141.339	 0	 0.017388	 -0.038379	 -0.004781	 -0.674176	 -1.124333	 -0.411564	 -0.549591	 -0.171152	 0.009415	 0.817660	 5
1461766141.349	 0	 0.012700	 -0.044365	 -0.019712	 -0.674289	 -1.124104	 -0.411294	 -0.549482	 -0.171311	 0.009514	 0.817699	 5
1461766141.358	 0	 0.032072	 -0.040696	 -0.013534	 -0.674292	 -1.123913	 -0.410957	 -0.549381	 -0.171436	 0.009616	 0.817739	 5
1461766141.368	 0	 0.037032	 -0.044275	 -0.025996	 -0.674484	 -1.123709	 -0.410733	 -0.549285	 -0.171611	 0.009722	 0.817766	 5
1461766141.377	 0	 0.026033	 -0.056019	 -0.012396	 -0.674852	 -1.123388	 -0.410562	 -0.549149	 -0.171862	 0.009833	 0.817803	 5
1461766141.387	 0	 0.039401	 -0.070065	 -0.008867	 -0.675338	 -1.123297	 -0.410353	 -0.549095	 -0.172133	 0.010035	 0.817780	 5
1461766141.397	 0	 0.033196	 -0.067656	 0.002437	 -0.675043	 -1.123307	 -0.409421	 -0.549020	 -0.172267	 0.010336	 0.817799	 5
1461766141.406	 0	 0.014893	 -0.064185	 0.005108	 -0.675037	 -1.123544	 -0.408780	 -0.549053	 -0.172401	 0.010641	 0.817744	 5
1461766141.416	 0	 0.007461	 -0.061771	 0.018883	 -0.674932	 -1.123755	 -0.408075	 -0.549071	 -0.172516	 0.010940	 0.817704	 5
1461766141.426	 0	 -0.002115	 -0.079495	 0.012575	 -0.674905	 -1.123974	 -0.407369	 -0.549092	 -0.172662	 0.011263	 0.817654	 5
1461766141.435	 0	 -0.003348	 -0.071275	 0.010182	 -0.675497	 -1.124090	 -0.407240	 -0.549121	 -0.172920	 0.011500	 0.817577	 5
1461766141.445	 0	 -0.000864	 -0.072464	 0.003984	 -0.675785	 -1.124323	 -0.406874	 -0.549175	 -0.173100	 0.011773	 0.817499	 5
1461766141.455	 0	 0.005185	 -0.074768	 0.006445	 -0.676194	 -1.124498	 -0.406560	 -0.549210	 -0.173324	 0.012046	 0.817424	 5
1461766141.464	 0	 0.014886	 -0.078238	 0.007647	 -0.676424	 -1.124699	 -0.406035	 -0.549239	 -0.173528	 0.012362	 0.817357	 5
1461766141.474	 0	 0.031876	 -0.086384	 0.008779	 -0.676616	 -1.124910	 -0.405353	 -0.549257	 -0.173759	 0.012733	 0.817290	 5
1461766141.483	 0	 0.033086	 -0.085200	 0.008785	 -0.676847	 -1.124730	 -0.404696	 -0.549131	 -0.174064	 0.013031	 0.817305	 5
1461766141.493	 0	 0.029277	 -0.080447	 0.018845	 -0.676938	 -1.124948	 -0.403951	 -0.549147	 -0.174269	 0.013402	 0.817244	 5
1461766141.502	 0	 0.023172	 -0.080469	 0.017700	 -0.676782	 -1.125252	 -0.403007	 -0.549179	 -0.174414	 0.013801	 0.817185	 5
1461766141.512	 0	 0.029141	 -0.087392	 0.032583	 -0.676166	 -1.125507	 -0.401543	 -0.549151	 -0.174522	 0.014278	 0.817173	 5
1461766141.522	 0	 0.014557	 -0.088622	 0.031478	 -0.675633	 -1.125855	 -0.400150	 -0.549163	 -0.174629	 0.014767	 0.817133	 5
1461766141.531	 0	 0.016870	 -0.099101	 0.046345	 -0.675226	 -1.126391	 -0.398792	 -0.549247	 -0.174746	 0.015310	 0.817041	 5
1461766141.541	 0	 0.013287	 -0.109721	 0.045009	 -0.675351	 -1.126560	 -0.397782	 -0.549221	 -0.175047	 0.015788	 0.816985	 5
1461766141.550	 0	 -0.001331	 -0.113288	 0.047607	 -0.675148	 -1.127148	 -0.396456	 -0.549327	 -0.175231	 0.016384	 0.816863	 5
1461766141.560	 0	 0.001164	 -0.116853	 0.037681	 -0.675240	 -1.127716	 -0.395404	 -0.549446	 -0.175463	 0.016945	 0.816722	 5
1461766141.570	 0	 0.001121	 -0.130887	 0.051232	 -0.675334	 -1.128040	 -0.394263	 -0.549466	 -0.175762	 0.017497	 0.816633	 5
1461766141.579	 0	 0.012071	 -0.121473	 0.041364	 -0.675682	 -1.128444	 -0.393328	 -0.549531	 -0.176095	 0.018050	 0.816505	 5
1461766141.589	 0	 0.003487	 -0.116791	 0.043964	 -0.676109	 -1.128856	 -0.392510	 -0.549609	 -0.176425	 0.018578	 0.816369	 5
1461766141.599	 0	 -0.003934	 -0.116745	 0.057678	 -0.676345	 -1.129238	 -0.391541	 -0.549664	 -0.176725	 0.019110	 0.816255	 5
1461766141.608	 0	 -0.000184	 -0.130872	 0.053793	 -0.676601	 -1.129602	 -0.390520	 -0.549707	 -0.177051	 0.019665	 0.816142	 5
1461766141.618	 0	 0.005846	 -0.136678	 0.062400	 -0.676869	 -1.129884	 -0.389376	 -0.549709	 -0.177428	 0.020258	 0.816045	 5
1461766141.628	 0	 0.021644	 -0.141305	 0.064738	 -0.677203	 -1.130103	 -0.388205	 -0.549683	 -0.177850	 0.020868	 0.815955	 5
1461766141.637	 0	 0.032595	 -0.131908	 0.056038	 -0.677652	 -1.130150	 -0.387180	 -0.549605	 -0.178307	 0.021419	 0.815894	 5
1461766141.647	 0	 0.052187	 -0.130783	 0.036009	 -0.678338	 -1.129942	 -0.386397	 -0.549450	 -0.178836	 0.021888	 0.815870	 5
1461766141.656	 0	 0.059492	 -0.124955	 0.027248	 -0.679430	 -1.129576	 -0.386032	 -0.549268	 -0.179442	 0.022268	 0.815849	 5
1461766141.666	 0	 0.069225	 -0.108521	 0.017332	 -0.680226	 -1.128884	 -0.385503	 -0.548953	 -0.180025	 0.022574	 0.815924	 5
1461766141.675	 0	 0.077854	 -0.115619	 0.008443	 -0.680774	 -1.128191	 -0.384769	 -0.548621	 -0.180564	 0.022894	 0.816019	 5
1461766141.685	 0	 0.059608	 -0.116868	 0.011007	 -0.680836	 -1.127783	 -0.383627	 -0.548365	 -0.180969	 0.023301	 0.816090	 5
1461766141.695	 0	 0.051151	 -0.139256	 0.018203	 -0.681749	 -1.127253	 -0.383068	 -0.548105	 -0.181582	 0.023681	 0.816118	 5
1461766141.704	 0	 0.039129	 -0.154641	 0.014354	 -0.682336	 -1.126890	 -0.382143	 -0.547878	 -0.182134	 0.024151	 0.816133	 5
1461766141.714	 0	 0.030637	 -0.154677	 0.015610	 -0.683269	 -1.126604	 -0.381534	 -0.547705	 -0.182728	 0.024602	 0.816103	 5
1461766141.723	 0	 0.022268	 -0.161807	 0.010569	 -0.684257	 -1.126190	 -0.380920	 -0.547481	 -0.183367	 0.025046	 0.816096	 5
1461766141.733	 0	 0.003995	 -0.158340	 0.016847	 -0.685909	 -1.125986	 -0.380945	 -0.547386	 -0.184068	 0.025449	 0.815990	 5
1461766141.743	 0	 0.000284	 -0.136045	 0.013273	 -0.687929	 -1.125789	 -0.381496	 -0.547338	 -0.184773	 0.025740	 0.815854	 5
1461766141.752	 0	 -0.011975	 -0.112598	 0.013467	 -0.689861	 -1.125658	 -0.382189	 -0.547328	 -0.185393	 0.025962	 0.815713	 5
1461766141.762	 0	 -0.009638	 -0.084361	 0.008781	 -0.690740	 -1.125747	 -0.382146	 -0.547346	 -0.185749	 0.026237	 0.815611	 5
1461766141.772	 0	 -0.026713	 -0.049228	 -0.000847	 -0.692595	 -1.125464	 -0.383402	 -0.547333	 -0.186208	 0.026179	 0.815517	 5
1461766141.781	 0	 -0.023056	 -0.030440	 -0.006999	 -0.694117	 -1.125160	 -0.384556	 -0.547307	 -0.186563	 0.026067	 0.815457	 5
1461766141.791	 0	 -0.013287	 -0.024570	 -0.013287	 -0.695344	 -1.124919	 -0.385523	 -0.547291	 -0.186838	 0.025963	 0.815408	 5
1461766141.800	 0	 -0.010764	 -0.002350	 -0.035513	 -0.696646	 -1.124597	 -0.386760	 -0.547270	 -0.187084	 0.025754	 0.815372	 5
1461766141.810	 0	 -0.001046	 0.010606	 -0.039224	 -0.697634	 -1.124108	 -0.387848	 -0.547177	 -0.187270	 0.025488	 0.815400	 5
1461766141.820	 0	 -0.001134	 0.020053	 -0.034154	 -0.697956	 -1.123913	 -0.388406	 -0.547152	 -0.187281	 0.025311	 0.815420	 5
1461766141.829	 0	 -0.003664	 0.032999	 -0.029099	 -0.698680	 -1.123559	 -0.389419	 -0.547106	 -0.187358	 0.025029	 0.815442	 5
1461766141.839	 0	 -0.030372	 0.044598	 -0.035110	 -0.699291	 -1.123269	 -0.390504	 -0.547092	 -0.187358	 0.024698	 0.815461	 5
1461766141.849	 0	 -0.035322	 0.051695	 -0.023886	 -0.699912	 -1.123028	 -0.391674	 -0.547105	 -0.187332	 0.024346	 0.815470	 5
1461766141.858	 0	 -0.055835	 0.036282	 -0.026461	 -0.700509	 -1.122997	 -0.392754	 -0.547187	 -0.187285	 0.024063	 0.815433	 5
1461766141.868	 0	 -0.063070	 0.025678	 -0.022827	 -0.701257	 -1.123132	 -0.393946	 -0.547340	 -0.187241	 0.023807	 0.815349	 5
1461766141.877	 0	 -0.070241	 0.016216	 -0.025404	 -0.702208	 -1.123241	 -0.395216	 -0.547488	 -0.187263	 0.023570	 0.815251	 5
1461766141.887	 0	 -0.061581	 0.006766	 -0.037972	 -0.703513	 -1.123467	 -0.396780	 -0.547703	 -0.187329	 0.023334	 0.815098	 5
1461766141.896	 0	 -0.060186	 -0.005080	 -0.050556	 -0.705208	 -1.123468	 -0.398586	 -0.547853	 -0.187525	 0.023062	 0.814960	 5
1461766141.906	 0	 -0.051835	 0.007949	 -0.040569	 -0.706989	 -1.123535	 -0.400522	 -0.548039	 -0.187709	 0.022774	 0.814801	 5
1461766141.916	 0	 -0.051797	 0.021997	 -0.051647	 -0.708569	 -1.123441	 -0.402399	 -0.548163	 -0.187854	 0.022424	 0.814694	 5
1461766141.925	 0	 -0.054344	 0.033770	 -0.045361	 -0.710245	 -1.123375	 -0.404501	 -0.548317	 -0.187971	 0.022015	 0.814574	 5
1461766141.935	 0	 -0.043484	 0.047922	 -0.045331	 -0.711736	 -1.123280	 -0.406492	 -0.548453	 -0.188049	 0.021594	 0.814476	 5
1461766141.945	 0	 -0.038710	 0.057353	 -0.042822	 -0.712930	 -1.123236	 -0.408263	 -0.548590	 -0.188057	 0.021192	 0.814392	 5
1461766141.954	 0	 -0.037659	 0.089152	 -0.041252	 -0.713285	 -1.123267	 -0.409538	 -0.548718	 -0.187846	 0.020776	 0.814365	 5
1461766141.964	 0	 -0.032774	 0.089095	 -0.050008	 -0.714180	 -1.123295	 -0.411352	 -0.548889	 -0.187708	 0.020289	 0.814294	 5
1461766141.973	 0	 -0.020576	 0.104332	 -0.067339	 -0.714978	 -1.123107	 -0.413233	 -0.548988	 -0.187549	 0.019705	 0.814278	 5
1461766141.983	 0	 -0.019399	 0.100797	 -0.066145	 -0.715639	 -1.122948	 -0.414962	 -0.549086	 -0.187371	 0.019151	 0.814267	 5
1461766141.993	 0	 -0.018295	 0.102026	 -0.058643	 -0.715789	 -1.122928	 -0.416243	 -0.549197	 -0.187084	 0.018667	 0.814269	 5
1461766142.002	 0	 -0.024389	 0.106696	 -0.062236	 -0.715755	 -1.122930	 -0.417378	 -0.549304	 -0.186758	 0.018196	 0.814282	 5
1461766142.012	 0	 -0.028132	 0.107909	 -0.055914	 -0.715561	 -1.123073	 -0.418372	 -0.549451	 -0.186382	 0.017766	 0.814279	 5
1461766142.021	 0	 -0.034335	 0.098579	 -0.036101	 -0.715647	 -1.123067	 -0.419549	 -0.549557	 -0.186094	 0.017309	 0.814283	 5
1461766142.031	 0	 -0.041627	 0.085643	 -0.032372	 -0.715226	 -1.123505	 -0.420181	 -0.549781	 -0.185673	 0.017023	 0.814234	 5
1461766142.041	 0	 -0.038022	 0.064616	 -0.015103	 -0.714437	 -1.123914	 -0.420255	 -0.549945	 -0.185260	 0.016856	 0.814220	 5
1461766142.050	 0	 -0.045208	 0.038737	 -0.012742	 -0.713901	 -1.124454	 -0.420311	 -0.550154	 -0.184933	 0.016792	 0.814155	 5
1461766142.060	 0	 -0.036627	 0.020002	 -0.010374	 -0.713361	 -1.124987	 -0.420190	 -0.550343	 -0.184653	 0.016797	 0.814090	 5
1461766142.070	 0	 -0.027964	 0.000023	 -0.017975	 -0.713097	 -1.125439	 -0.420115	 -0.550505	 -0.184488	 0.016844	 0.814017	 5
1461766142.079	 0	 -0.015803	 -0.003450	 -0.021705	 -0.713140	 -1.125817	 -0.420250	 -0.550657	 -0.184403	 0.016875	 0.813934	 5
1461766142.089	 0	 -0.015914	 0.003621	 -0.020332	 -0.713637	 -1.126171	 -0.420813	 -0.550834	 -0.184389	 0.016853	 0.813817	 5
1461766142.098	 0	 -0.007577	 0.016684	 -0.007811	 -0.713806	 -1.126135	 -0.421122	 -0.550848	 -0.184379	 0.016767	 0.813812	 5
1461766142.108	 0	 -0.002716	 0.023689	 -0.020152	 -0.714116	 -1.126398	 -0.421636	 -0.550990	 -0.184317	 0.016694	 0.813731	 5
1461766142.118	 0	 0.009219	 0.029718	 -0.006409	 -0.713853	 -1.126739	 -0.421679	 -0.551121	 -0.184139	 0.016672	 0.813683	 5
1461766142.127	 0	 0.013995	 0.022722	 -0.000219	 -0.713299	 -1.127040	 -0.421370	 -0.551208	 -0.183947	 0.016704	 0.813667	 5
1461766142.137	 0	 0.010254	 0.011022	 0.012185	 -0.712433	 -1.127339	 -0.420652	 -0.551259	 -0.183740	 0.016816	 0.813677	 5
1461766142.146	 0	 0.016424	 -0.013640	 0.013218	 -0.711658	 -1.127579	 -0.419783	 -0.551275	 -0.183622	 0.017003	 0.813689	 5
1461766142.156	 0	 0.026326	 -0.053602	 0.011603	 -0.710961	 -1.127795	 -0.418702	 -0.551261	 -0.183600	 0.017293	 0.813698	 5
1461766142.166	 0	 0.028875	 -0.075965	 0.010114	 -0.711188	 -1.127634	 -0.418207	 -0.551154	 -0.183856	 0.017525	 0.813707	 5
1461766142.175	 0	 0.035146	 -0.107735	 0.003615	 -0.711073	 -1.127699	 -0.417153	 -0.551082	 -0.184089	 0.017936	 0.813694	 5
1461766142.185	 0	 0.043672	 -0.121773	 0.007240	 -0.711039	 -1.127742	 -0.415951	 -0.550988	 -0.184398	 0.018423	 0.813677	 5
1461766142.194	 0	 0.057025	 -0.134608	 0.013314	 -0.710999	 -1.127656	 -0.414582	 -0.550830	 -0.184774	 0.018952	 0.813687	 5
1461766142.204	 0	 0.060673	 -0.147530	 0.015664	 -0.711473	 -1.127489	 -0.413539	 -0.550667	 -0.185283	 0.019475	 0.813668	 5
1461766142.214	 0	 0.059489	 -0.153443	 0.013122	 -0.712071	 -1.127215	 -0.412536	 -0.550467	 -0.185850	 0.019994	 0.813662	 5
1461766142.223	 0	 0.048460	 -0.153452	 0.023078	 -0.712861	 -1.126869	 -0.411706	 -0.550254	 -0.186459	 0.020481	 0.813655	 5
1461766142.233	 0	 0.034976	 -0.140530	 0.029494	 -0.713366	 -1.126763	 -0.410750	 -0.550121	 -0.186945	 0.020988	 0.813620	 5
1461766142.242	 0	 0.033924	 -0.150022	 0.018192	 -0.714057	 -1.126518	 -0.409895	 -0.549943	 -0.187504	 0.021478	 0.813599	 5
1461766142.252	 0	 0.009533	 -0.147748	 0.026990	 -0.715156	 -1.126439	 -0.409504	 -0.549866	 -0.188072	 0.021924	 0.813508	 5
1461766142.262	 0	 0.005838	 -0.140700	 0.030740	 -0.716411	 -1.126334	 -0.409265	 -0.549790	 -0.188666	 0.022346	 0.813410	 5
1461766142.271	 0	 0.003617	 -0.143172	 0.014495	 -0.717725	 -1.126037	 -0.409155	 -0.549656	 -0.189282	 0.022694	 0.813349	 5
1461766142.281	 0	 -0.002528	 -0.124375	 0.017098	 -0.719342	 -1.125722	 -0.409463	 -0.549550	 -0.189910	 0.022951	 0.813266	 5
1461766142.291	 0	 0.009685	 -0.104402	 0.004710	 -0.720810	 -1.125257	 -0.409800	 -0.549394	 -0.190494	 0.023126	 0.813230	 5
1461766142.300	 0	 0.002381	 -0.086814	 0.002342	 -0.722066	 -1.124815	 -0.410141	 -0.549249	 -0.190987	 0.023245	 0.813209	 5
1461766142.310	 0	 0.013187	 -0.057338	 0.001354	 -0.722572	 -1.124720	 -0.409984	 -0.549193	 -0.191253	 0.023429	 0.813179	 5
1461766142.319	 0	 0.005925	 -0.039774	 -0.004757	 -0.723494	 -1.124125	 -0.410420	 -0.549005	 -0.191611	 0.023388	 0.813223	 5
1461766142.329	 0	 -0.001383	 -0.019814	 -0.004631	 -0.724237	 -1.123490	 -0.410900	 -0.548809	 -0.191891	 0.023271	 0.813293	 5
1461766142.339	 0	 0.008443	 -0.011600	 -0.014624	 -0.724791	 -1.122953	 -0.411336	 -0.548647	 -0.192090	 0.023140	 0.813359	 5
1461766142.348	 0	 0.018157	 -0.009164	 -0.008490	 -0.724951	 -1.122422	 -0.411402	 -0.548455	 -0.192228	 0.023051	 0.813458	 5
1461766142.358	 0	 0.026717	 -0.015021	 -0.009857	 -0.725017	 -1.122077	 -0.411289	 -0.548317	 -0.192346	 0.023047	 0.813523	 5
1461766142.367	 0	 0.034098	 -0.005634	 -0.022227	 -0.724781	 -1.121602	 -0.410971	 -0.548114	 -0.192420	 0.023018	 0.813644	 5
1461766142.377	 0	 0.043857	 -0.019693	 -0.018695	 -0.724666	 -1.121181	 -0.410664	 -0.547931	 -0.192530	 0.023028	 0.813741	 5
1461766142.387	 0	 0.038943	 -0.030234	 -0.005135	 -0.724581	 -1.120758	 -0.410263	 -0.547737	 -0.192678	 0.023084	 0.813834	 5
1461766142.396	 0	 0.032796	 -0.016135	 -0.003738	 -0.724532	 -1.120404	 -0.409963	 -0.547578	 -0.192801	 0.023123	 0.813911	 5
1461766142.406	 0	 0.030406	 -0.027911	 -0.001385	 -0.724545	 -1.120121	 -0.409677	 -0.547446	 -0.192934	 0.023187	 0.813966	 5
1461766142.415	 0	 0.007409	 -0.039815	 -0.005124	 -0.724795	 -1.119989	 -0.409582	 -0.547386	 -0.193084	 0.023268	 0.813969	 5
1461766142.425	 0	 0.009835	 -0.040986	 -0.005154	 -0.725284	 -1.119926	 -0.409675	 -0.547366	 -0.193269	 0.023352	 0.813936	 5
1461766142.435	 0	 0.013556	 -0.060968	 -0.002897	 -0.725672	 -1.119789	 -0.409499	 -0.547294	 -0.193499	 0.023503	 0.813926	 5
1461766142.444	 0	 -0.002234	 -0.065735	 -0.000382	 -0.726160	 -1.119735	 -0.409372	 -0.547256	 -0.193741	 0.023677	 0.813889	 5
1461766142.454	 0	 0.008766	 -0.076284	 -0.001787	 -0.726758	 -1.119726	 -0.409285	 -0.547237	 -0.194010	 0.023874	 0.813832	 5
1461766142.464	 0	 0.009979	 -0.070424	 -0.006696	 -0.727553	 -1.119707	 -0.409364	 -0.547228	 -0.194315	 0.024056	 0.813759	 5
1461766142.473	 0	 -0.002270	 -0.055157	 -0.002757	 -0.728151	 -1.119606	 -0.409398	 -0.547187	 -0.194567	 0.024186	 0.813723	 5
1461766142.483	 0	 -0.004800	 -0.041036	 -0.000129	 -0.728830	 -1.119620	 -0.409625	 -0.547206	 -0.194778	 0.024282	 0.813657	 5
1461766142.493	 0	 0.001341	 -0.043398	 -0.006397	 -0.729359	 -1.119603	 -0.409725	 -0.547203	 -0.194969	 0.024383	 0.813610	 5
1461766142.502	 0	 0.001234	 -0.023388	 -0.004973	 -0.729858	 -1.119489	 -0.409949	 -0.547177	 -0.195131	 0.024405	 0.813588	 5
1461766142.512	 0	 0.003637	 -0.012782	 -0.006110	 -0.729922	 -1.119432	 -0.409901	 -0.547150	 -0.195180	 0.024431	 0.813594	 5
1461766142.521	 0	 0.004911	 -0.012821	 -0.013571	 -0.730212	 -1.119341	 -0.410049	 -0.547127	 -0.195273	 0.024432	 0.813587	 5
1461766142.531	 0	 0.006017	 -0.001006	 -0.007240	 -0.730254	 -1.119217	 -0.410051	 -0.547082	 -0.195311	 0.024418	 0.813609	 5
1461766142.540	 0	 -0.007428	 0.014228	 -0.007029	 -0.730480	 -1.119126	 -0.410400	 -0.547080	 -0.195323	 0.024320	 0.813610	 5
1461766142.550	 0	 -0.011245	 0.031928	 0.003116	 -0.730419	 -1.119199	 -0.410624	 -0.547129	 -0.195225	 0.024227	 0.813603	 5
1461766142.560	 0	 -0.027117	 0.041291	 0.007011	 -0.730271	 -1.119351	 -0.410864	 -0.547210	 -0.195072	 0.024119	 0.813588	 5
1461766142.569	 0	 -0.020982	 0.048326	 -0.001675	 -0.730277	 -1.119364	 -0.411358	 -0.547263	 -0.194937	 0.023922	 0.813591	 5
1461766142.579	 0	 -0.019662	 0.029479	 -0.004364	 -0.730328	 -1.119516	 -0.411775	 -0.547359	 -0.194818	 0.023797	 0.813559	 5
1461766142.588	 0	 -0.012382	 0.027189	 -0.000682	 -0.730075	 -1.119616	 -0.411810	 -0.547402	 -0.194687	 0.023733	 0.813563	 5
1461766142.598	 0	 -0.014716	 0.009536	 -0.000818	 -0.729701	 -1.119805	 -0.411631	 -0.547459	 -0.194552	 0.023741	 0.813557	 5
1461766142.608	 0	 -0.007373	 -0.001025	 -0.000966	 -0.729787	 -1.119840	 -0.411766	 -0.547484	 -0.194544	 0.023717	 0.813543	 5
1461766142.617	 0	 -0.006143	 0.001336	 -0.000970	 -0.729909	 -1.119730	 -0.411884	 -0.547453	 -0.194580	 0.023680	 0.813556	 5
1461766142.627	 0	 -0.001243	 -0.004534	 -0.002298	 -0.729998	 -1.119715	 -0.411941	 -0.547452	 -0.194603	 0.023678	 0.813551	 5
1461766142.636	 0	 0.006029	 -0.003324	 -0.001101	 -0.730155	 -1.119615	 -0.412092	 -0.547428	 -0.194643	 0.023640	 0.813559	 5
1461766142.646	 0	 0.008428	 -0.004470	 0.003815	 -0.730342	 -1.119494	 -0.412184	 -0.547391	 -0.194715	 0.023630	 0.813567	 5
1461766142.656	 0	 0.002292	 0.002560	 0.006356	 -0.730641	 -1.119363	 -0.412438	 -0.547363	 -0.194790	 0.023582	 0.813569	 5
1461766142.665	 0	 0.001106	 -0.003333	 0.007510	 -0.730735	 -1.119281	 -0.412528	 -0.547341	 -0.194818	 0.023555	 0.813578	 5
1461766142.675	 0	 0.012554	 0.001519	 0.002746	 -0.730670	 -1.119091	 -0.412441	 -0.547263	 -0.194848	 0.023535	 0.813623	 5
1461766142.685	 0	 0.005351	 -0.003271	 -0.004730	 -0.730830	 -1.118908	 -0.412578	 -0.547208	 -0.194908	 0.023487	 0.813648	 5
1461766142.694	 0	 0.012591	 0.001493	 -0.000995	 -0.730846	 -1.118689	 -0.412557	 -0.547125	 -0.194958	 0.023456	 0.813693	 5
1461766142.704	 0	 0.008911	 0.008539	 -0.000903	 -0.730643	 -1.118598	 -0.412396	 -0.547078	 -0.194935	 0.023447	 0.813730	 5
1461766142.713	 0	 -0.003267	 0.007325	 0.002868	 -0.730753	 -1.118524	 -0.412536	 -0.547063	 -0.194954	 0.023406	 0.813736	 5
1461766142.723	 0	 0.010042	 0.019170	 0.004164	 -0.730224	 -1.118298	 -0.412171	 -0.546951	 -0.194879	 0.023365	 0.813831	 5
1461766142.733	 0	 -0.002133	 0.028516	 0.001838	 -0.729942	 -1.118248	 -0.412083	 -0.546927	 -0.194796	 0.023314	 0.813869	 5
1461766142.742	 0	 0.008729	 0.040356	 0.004392	 -0.729457	 -1.118214	 -0.411949	 -0.546907	 -0.194642	 0.023229	 0.813921	 5
1461766142.752	 0	 0.012458	 0.034452	 -0.001899	 -0.728876	 -1.118144	 -0.411711	 -0.546865	 -0.194482	 0.023153	 0.813990	 5
1461766142.761	 0	 0.014880	 0.036820	 -0.001884	 -0.728159	 -1.117998	 -0.411341	 -0.546783	 -0.194317	 0.023078	 0.814086	 5
1461766142.771	 0	 0.017234	 0.043924	 0.003149	 -0.727456	 -1.117910	 -0.410997	 -0.546726	 -0.194140	 0.023009	 0.814169	 5
1461766142.781	 0	 0.018527	 0.039186	 -0.003118	 -0.726817	 -1.117790	 -0.410723	 -0.546662	 -0.193976	 0.022922	 0.814253	 5
1461766142.790	 0	 0.018542	 0.034486	 -0.001921	 -0.726094	 -1.117638	 -0.410385	 -0.546581	 -0.193800	 0.022832	 0.814352	 5
1461766142.800	 0	 0.020985	 0.028629	 0.000494	 -0.725207	 -1.117504	 -0.409806	 -0.546486	 -0.193620	 0.022799	 0.814460	 5
1461766142.809	 0	 0.014985	 0.015647	 -0.000846	 -0.724496	 -1.117465	 -0.409273	 -0.546428	 -0.193483	 0.022814	 0.814531	 5
1461766142.819	 0	 0.018552	 0.016895	 0.007851	 -0.723821	 -1.117392	 -0.408742	 -0.546358	 -0.193366	 0.022831	 0.814605	 5
1461766142.829	 0	 0.018608	 0.007472	 0.006516	 -0.723173	 -1.117388	 -0.408173	 -0.546309	 -0.193258	 0.022885	 0.814662	 5
1461766142.838	 0	 0.010056	 0.002767	 0.013970	 -0.722764	 -1.117490	 -0.407744	 -0.546310	 -0.193191	 0.022968	 0.814675	 5
1461766142.848	 0	 0.007619	 -0.001943	 0.016415	 -0.722784	 -1.117588	 -0.407679	 -0.546339	 -0.193200	 0.023019	 0.814652	 5
1461766142.858	 0	 -0.004640	 0.015673	 0.019146	 -0.722385	 -1.117759	 -0.407372	 -0.546377	 -0.193092	 0.023069	 0.814650	 5
1461766142.867	 0	 -0.005777	 0.021469	 0.005543	 -0.722368	 -1.117968	 -0.407547	 -0.546471	 -0.193001	 0.023034	 0.814610	 5
1461766142.877	 0	 -0.004639	 0.015648	 0.016652	 -0.722605	 -1.118123	 -0.407846	 -0.546555	 -0.192990	 0.023008	 0.814557	 5
1461766142.886	 0	 -0.010728	 0.020309	 0.014243	 -0.722778	 -1.118358	 -0.408125	 -0.546667	 -0.192943	 0.022988	 0.814494	 5
1461766142.896	 0	 -0.015563	 0.014397	 0.014201	 -0.722800	 -1.118541	 -0.408297	 -0.546751	 -0.192874	 0.022960	 0.814455	 5
1461766142.906	 0	 -0.004638	 0.020317	 0.011717	 -0.722878	 -1.118684	 -0.408498	 -0.546822	 -0.192825	 0.022927	 0.814419	 5
1461766142.915	 0	 -0.008133	 0.003765	 0.002862	 -0.723013	 -1.118783	 -0.408661	 -0.546872	 -0.192819	 0.022918	 0.814387	 5
1461766142.925	 0	 -0.010524	 0.010766	 -0.005747	 -0.723098	 -1.118870	 -0.408851	 -0.546922	 -0.192787	 0.022881	 0.814362	 5
1461766142.935	 0	 0.000429	 0.011981	 -0.008275	 -0.723069	 -1.118873	 -0.408952	 -0.546933	 -0.192747	 0.022832	 0.814366	 5
1461766142.944	 0	 0.015084	 0.001440	 -0.010942	 -0.723052	 -1.118796	 -0.408979	 -0.546907	 -0.192746	 0.022802	 0.814384	 5
1461766142.954	 0	 0.009000	 -0.005621	 -0.006011	 -0.722869	 -1.118678	 -0.408752	 -0.546844	 -0.192753	 0.022821	 0.814424	 5
1461766142.963	 0	 0.017438	 0.003854	 -0.003464	 -0.722626	 -1.118634	 -0.408504	 -0.546807	 -0.192730	 0.022846	 0.814454	 5
1461766142.973	 0	 0.015013	 -0.004376	 0.000194	 -0.722362	 -1.118592	 -0.408200	 -0.546765	 -0.192713	 0.022890	 0.814485	 5
1461766142.982	 0	 0.012594	 -0.002047	 -0.002256	 -0.722200	 -1.118480	 -0.407994	 -0.546706	 -0.192722	 0.022907	 0.814522	 5
1461766142.992	 0	 0.022306	 -0.004341	 0.000157	 -0.721951	 -1.118359	 -0.407671	 -0.546632	 -0.192730	 0.022947	 0.814568	 5
1461766143.002	 0	 0.018709	 -0.005565	 -0.004810	 -0.721867	 -1.118176	 -0.407500	 -0.546550	 -0.192774	 0.022958	 0.814613	 5
1461766143.011	 0	 0.013927	 -0.020894	 -0.004952	 -0.721991	 -1.117914	 -0.407428	 -0.546444	 -0.192890	 0.022969	 0.814656	 5
1461766143.021	 0	 0.024812	 -0.013763	 -0.002449	 -0.721843	 -1.117656	 -0.407086	 -0.546318	 -0.192967	 0.023017	 0.814721	 5
1461766143.031	 0	 0.017674	 -0.033847	 -0.008836	 -0.721831	 -1.117438	 -0.406782	 -0.546208	 -0.193082	 0.023095	 0.814765	 5
1461766143.040	 0	 0.020082	 -0.034990	 -0.005134	 -0.721973	 -1.117203	 -0.406610	 -0.546103	 -0.193228	 0.023158	 0.814800	 5
1461766143.050	 0	 0.015317	 -0.052680	 -0.006538	 -0.722343	 -1.117021	 -0.406472	 -0.546018	 -0.193448	 0.023279	 0.814801	 5
1461766143.059	 0	 0.020102	 -0.031482	 -0.008833	 -0.722668	 -1.116659	 -0.406413	 -0.545875	 -0.193658	 0.023321	 0.814846	 5
1461766143.069	 0	 0.021196	 -0.026705	 0.002383	 -0.723145	 -1.116418	 -0.406517	 -0.545790	 -0.193866	 0.023361	 0.814852	 5
1461766143.079	 0	 0.006656	 -0.026807	 -0.002523	 -0.723467	 -1.116212	 -0.406568	 -0.545715	 -0.194018	 0.023388	 0.814865	 5
1461766143.088	 0	 0.013910	 -0.011491	 -0.006134	 -0.723733	 -1.115964	 -0.406670	 -0.545630	 -0.194141	 0.023370	 0.814893	 5
1461766143.098	 0	 0.014944	 0.017963	 -0.002110	 -0.723960	 -1.115872	 -0.406907	 -0.545617	 -0.194185	 0.023317	 0.814893	 5
1461766143.108	 0	 0.019856	 0.027339	 -0.013217	 -0.723549	 -1.115686	 -0.406767	 -0.545539	 -0.194088	 0.023225	 0.814971	 5
1461766143.117	 0	 0.030752	 0.034452	 -0.013198	 -0.723307	 -1.115486	 -0.406806	 -0.545472	 -0.194013	 0.023104	 0.815037	 5
1461766143.127	 0	 0.041632	 0.048624	 -0.014347	 -0.722603	 -1.115121	 -0.406492	 -0.545314	 -0.193874	 0.022968	 0.815179	 5
1461766143.136	 0	 0.045289	 0.050970	 -0.018071	 -0.722116	 -1.114776	 -0.406443	 -0.545188	 -0.193748	 0.022787	 0.815299	 5
1461766143.146	 0	 0.051214	 0.061651	 -0.008041	 -0.721270	 -1.114667	 -0.406081	 -0.545122	 -0.193521	 0.022683	 0.815400	 5
1461766143.155	 0	 0.050024	 0.058100	 -0.010543	 -0.720129	 -1.114585	 -0.405454	 -0.545044	 -0.193241	 0.022612	 0.815521	 5
1461766143.165	 0	 0.042832	 0.032175	 -0.009516	 -0.719053	 -1.114666	 -0.404716	 -0.545015	 -0.192989	 0.022635	 0.815599	 5
1461766143.175	 0	 0.040420	 0.012198	 -0.002235	 -0.718014	 -1.114775	 -0.403814	 -0.544980	 -0.192792	 0.022741	 0.815666	 5
1461766143.184	 0	 0.038040	 -0.013676	 0.003741	 -0.717465	 -1.115064	 -0.403148	 -0.545029	 -0.192701	 0.022920	 0.815650	 5
1461766143.194	 0	 0.053891	 -0.042988	 0.010834	 -0.716929	 -1.115397	 -0.402171	 -0.545064	 -0.192692	 0.023237	 0.815619	 5
1461766143.204	 0	 0.045369	 -0.064139	 0.024322	 -0.716542	 -1.115163	 -0.401111	 -0.544880	 -0.192863	 0.023518	 0.815694	 5
1461766143.213	 0	 0.033176	 -0.072394	 0.031766	 -0.716308	 -1.115478	 -0.400098	 -0.544902	 -0.192990	 0.023929	 0.815637	 5
1461766143.223	 0	 0.011406	 -0.096041	 0.031642	 -0.716176	 -1.115790	 -0.399047	 -0.544918	 -0.193169	 0.024382	 0.815571	 5
1461766143.233	 0	 0.001731	 -0.106679	 0.031593	 -0.716334	 -1.116208	 -0.398163	 -0.544986	 -0.193404	 0.024868	 0.815455	 5
1461766143.242	 0	 -0.018872	 -0.131451	 0.038905	 -0.716672	 -1.116669	 -0.397289	 -0.545068	 -0.193701	 0.025406	 0.815313	 5
1461766143.252	 0	 -0.029748	 -0.131532	 0.032762	 -0.717050	 -1.117185	 -0.396449	 -0.545173	 -0.193997	 0.025952	 0.815155	 5
1461766143.261	 0	 -0.010280	 -0.130273	 0.030198	 -0.717625	 -1.117450	 -0.395786	 -0.545199	 -0.194367	 0.026430	 0.815034	 5
1461766143.271	 0	 -0.006651	 -0.126723	 0.030217	 -0.718554	 -1.117712	 -0.395464	 -0.545253	 -0.194789	 0.026866	 0.814883	 5
1461766143.280	 0	 -0.000638	 -0.109039	 0.029132	 -0.718874	 -1.117767	 -0.394675	 -0.545192	 -0.195125	 0.027285	 0.814830	 5
1461766143.290	 0	 0.012692	 -0.083135	 0.019391	 -0.719347	 -1.117769	 -0.394245	 -0.545144	 -0.195435	 0.027589	 0.814777	 5
1461766143.300	 0	 0.036913	 -0.080615	 0.027987	 -0.719615	 -1.117622	 -0.393632	 -0.545026	 -0.195736	 0.027884	 0.814774	 5
1461766143.309	 0	 0.040447	 -0.054706	 0.026993	 -0.719410	 -1.117455	 -0.392701	 -0.544876	 -0.195934	 0.028174	 0.814817	 5
1461766143.319	 0	 0.025783	 -0.028906	 0.022363	 -0.719041	 -1.117323	 -0.391921	 -0.544756	 -0.196019	 0.028366	 0.814870	 5
1461766143.329	 0	 0.020919	 -0.019540	 0.017515	 -0.718679	 -1.117290	 -0.391310	 -0.544689	 -0.196043	 0.028510	 0.814904	 5
1461766143.338	 0	 0.023387	 -0.012510	 0.010112	 -0.718375	 -1.116954	 -0.390799	 -0.544518	 -0.196115	 0.028570	 0.814999	 5
1461766143.348	 0	 0.023414	 -0.017221	 0.010054	 -0.718188	 -1.116689	 -0.390400	 -0.544383	 -0.196192	 0.028630	 0.815068	 5
1461766143.358	 0	 0.018528	 -0.011359	 0.010132	 -0.718146	 -1.116474	 -0.390172	 -0.544282	 -0.196273	 0.028670	 0.815115	 5
1461766143.367	 0	 0.013646	 -0.006675	 0.010198	 -0.718115	 -1.116290	 -0.389982	 -0.544195	 -0.196343	 0.028703	 0.815155	 5
1461766143.377	 0	 0.016014	 0.010978	 0.007878	 -0.717898	 -1.116096	 -0.389793	 -0.544108	 -0.196339	 0.028684	 0.815215	 5
1461766143.386	 0	 0.025625	 0.027528	 0.011731	 -0.717218	 -1.116036	 -0.389279	 -0.544045	 -0.196211	 0.028697	 0.815287	 5
1461766143.396	 0	 0.024368	 0.040453	 0.009376	 -0.716806	 -1.115798	 -0.389126	 -0.543947	 -0.196125	 0.028601	 0.815376	 5
1461766143.405	 0	 0.027968	 0.044023	 0.013117	 -0.715998	 -1.115566	 -0.388659	 -0.543827	 -0.195962	 0.028527	 0.815499	 5
1461766143.415	 0	 0.026866	 0.033388	 0.006800	 -0.714866	 -1.115338	 -0.387841	 -0.543678	 -0.195761	 0.028508	 0.815647	 5
1461766143.425	 0	 0.024397	 0.036925	 0.009340	 -0.713811	 -1.115290	 -0.387120	 -0.543605	 -0.195534	 0.028506	 0.815750	 5
1461766143.434	 0	 0.032991	 0.019311	 0.009123	 -0.712598	 -1.115232	 -0.386084	 -0.543499	 -0.195331	 0.028588	 0.815866	 5
1461766143.444	 0	 0.033078	 0.012211	 0.002836	 -0.711979	 -1.115005	 -0.385556	 -0.543372	 -0.195259	 0.028591	 0.815968	 5
1461766143.453	 0	 0.024631	 0.001569	 0.001531	 -0.711474	 -1.114938	 -0.385041	 -0.543303	 -0.195205	 0.028651	 0.816024	 5
1461766143.463	 0	 0.019690	 -0.006613	 0.015142	 -0.710911	 -1.114914	 -0.384382	 -0.543238	 -0.195158	 0.028763	 0.816075	 5
1461766143.473	 0	 0.018491	 -0.011327	 0.015104	 -0.710596	 -1.115042	 -0.383895	 -0.543243	 -0.195141	 0.028901	 0.816071	 5
1461766143.483	 0	 -0.003384	 -0.023169	 0.021305	 -0.710579	 -1.115230	 -0.383647	 -0.543289	 -0.195170	 0.029033	 0.816028	 5
1461766143.492	 0	 0.005009	 -0.023055	 0.033695	 -0.710291	 -1.115542	 -0.383102	 -0.543357	 -0.195148	 0.029237	 0.815982	 5
1461766143.506	 0	 0.002743	 -0.024352	 0.015059	 -0.710029	 -1.115701	 -0.382550	 -0.543366	 -0.195165	 0.029422	 0.815965	 5
1461766143.516	 0	 0.001441	 -0.016088	 0.020124	 -0.709895	 -1.115882	 -0.382233	 -0.543404	 -0.195167	 0.029550	 0.815934	 5
1461766143.526	 0	 0.004003	 -0.013817	 0.003983	 -0.709717	 -1.115840	 -0.381927	 -0.543362	 -0.195184	 0.029618	 0.815956	 5
1461766143.535	 0	 0.005209	 -0.012625	 0.005230	 -0.709490	 -1.115737	 -0.381588	 -0.543294	 -0.195200	 0.029675	 0.815995	 5
1461766143.545	 0	 -0.004563	 -0.009117	 0.009044	 -0.709464	 -1.115823	 -0.381450	 -0.543312	 -0.195213	 0.029741	 0.815977	 5
1461766143.554	 0	 0.003863	 -0.007848	 0.017713	 -0.709289	 -1.115933	 -0.381171	 -0.543329	 -0.195199	 0.029828	 0.815966	 5
1461766143.564	 0	 0.005086	 0.006235	 0.009160	 -0.708860	 -1.115966	 -0.380772	 -0.543309	 -0.195127	 0.029880	 0.815995	 5
1461766143.574	 0	 -0.003567	 0.010983	 0.022923	 -0.708644	 -1.116222	 -0.380592	 -0.543390	 -0.195046	 0.029944	 0.815958	 5
1461766143.583	 0	 -0.003500	 0.012108	 0.014236	 -0.708459	 -1.116345	 -0.380517	 -0.543431	 -0.194970	 0.029948	 0.815949	 5
1461766143.593	 0	 -0.004722	 0.009763	 0.016700	 -0.708112	 -1.116388	 -0.380266	 -0.543428	 -0.194889	 0.029964	 0.815970	 5
1461766143.602	 0	 -0.007141	 0.026175	 0.006942	 -0.707745	 -1.116340	 -0.380104	 -0.543400	 -0.194792	 0.029922	 0.816013	 5
1461766143.612	 0	 -0.009535	 0.024963	 0.003210	 -0.707718	 -1.116395	 -0.380308	 -0.543441	 -0.194716	 0.029841	 0.816007	 5
1461766143.622	 0	 0.002614	 0.029713	 0.000712	 -0.707597	 -1.116431	 -0.380436	 -0.543468	 -0.194626	 0.029763	 0.816013	 5
1461766143.631	 0	 0.002594	 0.042634	 -0.004122	 -0.707288	 -1.116395	 -0.380504	 -0.543466	 -0.194488	 0.029645	 0.816052	 5
1461766143.641	 0	 0.000185	 0.048471	 -0.010261	 -0.707002	 -1.116408	 -0.380681	 -0.543492	 -0.194321	 0.029497	 0.816079	 5
1461766143.650	 0	 0.013654	 0.052063	 -0.012781	 -0.706618	 -1.116285	 -0.380792	 -0.543463	 -0.194154	 0.029324	 0.816145	 5
1461766143.660	 0	 0.005053	 0.049741	 -0.000338	 -0.706108	 -1.116142	 -0.380748	 -0.543413	 -0.193982	 0.029176	 0.816225	 5
1461766143.670	 0	 0.011032	 0.065088	 0.002278	 -0.705513	 -1.116121	 -0.380706	 -0.543409	 -0.193754	 0.029028	 0.816286	 5
1461766143.679	 0	 0.012283	 0.058032	 0.002200	 -0.704536	 -1.116028	 -0.380308	 -0.543350	 -0.193478	 0.028907	 0.816395	 5
1461766143.689	 0	 0.003839	 0.046222	 0.002123	 -0.703500	 -1.115979	 -0.379772	 -0.543295	 -0.193209	 0.028835	 0.816498	 5
1461766143.699	 0	 -0.004622	 0.034416	 0.003284	 -0.703179	 -1.116034	 -0.379783	 -0.543321	 -0.193066	 0.028754	 0.816517	 5
1461766143.708	 0	 -0.000845	 0.023790	 -0.005538	 -0.702390	 -1.115983	 -0.379325	 -0.543269	 -0.192877	 0.028717	 0.816598	 5
1461766143.718	 0	 -0.020310	 0.030756	 -0.006607	 -0.701983	 -1.116068	 -0.379284	 -0.543303	 -0.192708	 0.028639	 0.816618	 5
1461766143.727	 0	 -0.016654	 0.013167	 0.001891	 -0.701844	 -1.116228	 -0.379375	 -0.543374	 -0.192600	 0.028595	 0.816598	 5
1461766143.737	 0	 -0.019027	 0.011941	 -0.004321	 -0.702023	 -1.116371	 -0.379704	 -0.543456	 -0.192560	 0.028536	 0.816555	 5
1461766143.747	 0	 -0.003340	 0.021479	 0.003158	 -0.701891	 -1.116541	 -0.379751	 -0.543526	 -0.192465	 0.028513	 0.816531	 5
1461766143.756	 0	 0.000289	 0.022680	 0.004393	 -0.701542	 -1.116552	 -0.379629	 -0.543524	 -0.192354	 0.028470	 0.816561	 5
1461766143.766	 0	 0.004005	 0.012087	 0.001779	 -0.701459	 -1.116622	 -0.379652	 -0.543553	 -0.192303	 0.028452	 0.816554	 5
1461766143.775	 0	 0.008799	 0.021543	 0.004339	 -0.701088	 -1.116563	 -0.379431	 -0.543515	 -0.192221	 0.028430	 0.816599	 5
1461766143.785	 0	 0.010046	 0.025041	 -0.001846	 -0.701199	 -1.116553	 -0.379686	 -0.543534	 -0.192199	 0.028354	 0.816594	 5
1461766143.795	 0	 0.013756	 0.015625	 -0.004449	 -0.701183	 -1.116507	 -0.379795	 -0.543528	 -0.192170	 0.028297	 0.816607	 5
1461766143.804	 0	 0.004019	 0.015585	 -0.003157	 -0.701126	 -1.116550	 -0.379868	 -0.543552	 -0.192120	 0.028260	 0.816604	 5
1461766143.814	 0	 0.008894	 0.014424	 -0.004433	 -0.700949	 -1.116601	 -0.379826	 -0.543569	 -0.192050	 0.028238	 0.816610	 5
1461766143.823	 0	 0.005284	 0.006165	 -0.004500	 -0.700885	 -1.116632	 -0.379830	 -0.543582	 -0.192018	 0.028225	 0.816609	 5
1461766143.833	 0	 -0.008098	 0.008455	 -0.004407	 -0.700981	 -1.116690	 -0.379979	 -0.543617	 -0.192008	 0.028202	 0.816590	 5
1461766143.843	 0	 -0.004507	 0.013204	 -0.000649	 -0.700979	 -1.116747	 -0.380123	 -0.543652	 -0.191958	 0.028153	 0.816580	 5
1461766143.852	 0	 -0.017931	 0.015524	 0.004414	 -0.700992	 -1.116938	 -0.380272	 -0.543737	 -0.191891	 0.028132	 0.816539	 5
1461766143.862	 0	 -0.019080	 0.010829	 0.001873	 -0.701009	 -1.117104	 -0.380431	 -0.543815	 -0.191828	 0.028103	 0.816503	 5
1461766143.872	 0	 -0.016620	 0.002608	 0.003019	 -0.700920	 -1.117263	 -0.380434	 -0.543876	 -0.191764	 0.028108	 0.816478	 5
1461766143.881	 0	 -0.011790	 0.007349	 0.004291	 -0.700556	 -1.117449	 -0.380196	 -0.543927	 -0.191650	 0.028141	 0.816469	 5
1461766143.891	 0	 -0.008208	 0.015624	 0.006849	 -0.700187	 -1.117749	 -0.379990	 -0.544025	 -0.191506	 0.028182	 0.816436	 5
1461766143.901	 0	 -0.004505	 0.014427	 0.000607	 -0.700067	 -1.117932	 -0.380001	 -0.544096	 -0.191424	 0.028180	 0.816408	 5
1461766143.910	 0	 -0.006967	 0.009742	 0.006783	 -0.699929	 -1.118008	 -0.379970	 -0.544123	 -0.191364	 0.028169	 0.816404	 5
1461766143.920	 0	 0.002750	 0.010966	 0.006747	 -0.699751	 -1.118082	 -0.379891	 -0.544146	 -0.191301	 0.028167	 0.816404	 5
1461766143.929	 0	 0.003914	 0.009831	 0.012943	 -0.699511	 -1.118271	 -0.379729	 -0.544205	 -0.191215	 0.028204	 0.816384	 5
1461766143.939	 0	 -0.002168	 0.021537	 0.006883	 -0.699423	 -1.118382	 -0.379752	 -0.544250	 -0.191155	 0.028191	 0.816368	 5
1461766143.949	 0	 -0.003364	 0.019169	 0.005623	 -0.699300	 -1.118543	 -0.379791	 -0.544315	 -0.191067	 0.028172	 0.816346	 5
1461766143.958	 0	 -0.015461	 0.014380	 0.001907	 -0.699163	 -1.118629	 -0.379820	 -0.544352	 -0.190989	 0.028140	 0.816340	 5
1461766143.968	 0	 -0.006837	 0.001435	 -0.004484	 -0.699229	 -1.118691	 -0.379958	 -0.544388	 -0.190969	 0.028113	 0.816323	 5
1461766143.977	 0	 -0.003079	 -0.017399	 -0.007185	 -0.699507	 -1.118675	 -0.380131	 -0.544394	 -0.191038	 0.028115	 0.816302	 5
1461766143.987	 0	 0.006631	 -0.019692	 -0.004769	 -0.699618	 -1.118789	 -0.380055	 -0.544428	 -0.191085	 0.028198	 0.816266	 5
1461766143.996	 0	 0.005356	 -0.021920	 -0.004827	 -0.699225	 -1.118801	 -0.379535	 -0.544388	 -0.191064	 0.028305	 0.816293	 5
1461766144.006	 0	 0.014997	 -0.013603	 0.000182	 -0.699195	 -1.118698	 -0.379343	 -0.544332	 -0.191121	 0.028356	 0.816316	 5
1461766144.016	 0	 0.001571	 -0.012453	 0.006472	 -0.699130	 -1.118572	 -0.379121	 -0.544265	 -0.191176	 0.028405	 0.816346	 5
1461766144.026	 0	 -0.003346	 0.001644	 0.005401	 -0.699122	 -1.118532	 -0.379105	 -0.544248	 -0.191183	 0.028402	 0.816356	 5
1461766144.035	 0	 -0.004537	 0.001624	 0.002921	 -0.698906	 -1.118441	 -0.378919	 -0.544200	 -0.191161	 0.028402	 0.816393	 5
1461766144.045	 0	 -0.005759	 -0.012458	 0.011478	 -0.698959	 -1.118544	 -0.378857	 -0.544231	 -0.191182	 0.028461	 0.816365	 5
1461766144.054	 0	 0.000389	 -0.011302	 0.002762	 -0.698836	 -1.118513	 -0.378616	 -0.544198	 -0.191203	 0.028520	 0.816380	 5
1461766144.064	 0	 0.000405	 -0.007791	 -0.000927	 -0.698578	 -1.118551	 -0.378306	 -0.544187	 -0.191175	 0.028583	 0.816392	 5
1461766144.073	 0	 0.016226	 -0.014773	 0.000161	 -0.698741	 -1.118456	 -0.378333	 -0.544151	 -0.191250	 0.028599	 0.816397	 5
1461766144.083	 0	 0.008925	 -0.019496	 0.003874	 -0.698895	 -1.118310	 -0.378294	 -0.544091	 -0.191348	 0.028630	 0.816414	 5
1461766144.093	 0	 0.008850	 -0.004192	 0.004032	 -0.699134	 -1.118251	 -0.378388	 -0.544074	 -0.191430	 0.028645	 0.816405	 5
1461766144.102	 0	 0.015005	 -0.011256	 -0.001044	 -0.699238	 -1.118066	 -0.378375	 -0.544002	 -0.191506	 0.028643	 0.816435	 5
1461766144.112	 0	 0.011359	 -0.008927	 -0.002245	 -0.699243	 -1.117842	 -0.378272	 -0.543909	 -0.191572	 0.028644	 0.816482	 5
1461766144.121	 0	 -0.000828	 -0.001921	 -0.002111	 -0.699295	 -1.117805	 -0.378298	 -0.543896	 -0.191593	 0.028641	 0.816485	 5
1461766144.131	 0	 0.000280	 0.020452	 -0.001883	 -0.699220	 -1.117769	 -0.378377	 -0.543892	 -0.191546	 0.028581	 0.816501	 5
1461766144.141	 0	 -0.000852	 0.005134	 -0.003282	 -0.699322	 -1.117674	 -0.378534	 -0.543870	 -0.191561	 0.028527	 0.816515	 5
1461766144.150	 0	 0.011105	 0.006595	 0.001555	 -0.699206	 -1.117573	 -0.378489	 -0.543829	 -0.191543	 0.028494	 0.816547	 5
1461766144.160	 0	 0.017215	 0.004255	 -0.000985	 -0.698970	 -1.117459	 -0.378286	 -0.543771	 -0.191520	 0.028492	 0.816592	 5
1461766144.169	 0	 0.019646	 0.001919	 0.000221	 -0.698679	 -1.117311	 -0.378008	 -0.543693	 -0.191501	 0.028498	 0.816648	 5
1461766144.179	 0	 0.015912	 0.011350	 0.005310	 -0.698011	 -1.117255	 -0.377430	 -0.543626	 -0.191395	 0.028542	 0.816715	 5
1461766144.189	 0	 0.017147	 0.018383	 -0.000835	 -0.697604	 -1.117113	 -0.377148	 -0.543552	 -0.191328	 0.028520	 0.816781	 5
1461766144.198	 0	 0.015951	 0.014846	 -0.000865	 -0.696886	 -1.116907	 -0.376579	 -0.543430	 -0.191223	 0.028518	 0.816887	 5
1461766144.208	 0	 0.030679	 -0.003956	 -0.007346	 -0.696448	 -1.116749	 -0.376197	 -0.543341	 -0.191174	 0.028525	 0.816957	 5
1461766144.217	 0	 0.036754	 -0.019180	 0.001164	 -0.695902	 -1.116580	 -0.375477	 -0.543217	 -0.191174	 0.028639	 0.817036	 5
1461766144.227	 0	 0.030666	 -0.021548	 0.003656	 -0.695580	 -1.116511	 -0.374922	 -0.543142	 -0.191205	 0.028765	 0.817074	 5
1461766144.237	 0	 0.023395	 -0.036850	 0.009748	 -0.695195	 -1.116472	 -0.374171	 -0.543061	 -0.191258	 0.028960	 0.817108	 5
1461766144.246	 0	 0.004045	 -0.049915	 0.005981	 -0.695349	 -1.116490	 -0.373876	 -0.543038	 -0.191398	 0.029126	 0.817085	 5
1461766144.256	 0	 0.004097	 -0.045257	 -0.002668	 -0.695696	 -1.116457	 -0.373766	 -0.543010	 -0.191575	 0.029259	 0.817058	 5
1461766144.266	 0	 -0.014198	 -0.038258	 0.001223	 -0.696335	 -1.116451	 -0.374011	 -0.543022	 -0.191771	 0.029331	 0.817001	 5
1461766144.275	 0	 -0.008038	 -0.046500	 -0.003866	 -0.697115	 -1.116458	 -0.374363	 -0.543047	 -0.191992	 0.029401	 0.816930	 5
1461766144.285	 0	 -0.004492	 -0.037028	 0.002427	 -0.697683	 -1.116469	 -0.374564	 -0.543062	 -0.192168	 0.029475	 0.816876	 5
1461766144.294	 0	 0.001561	 -0.032291	 0.002445	 -0.698184	 -1.116467	 -0.374680	 -0.543065	 -0.192341	 0.029563	 0.816830	 5
1461766144.304	 0	 0.014840	 -0.018085	 0.005013	 -0.698136	 -1.116383	 -0.374445	 -0.543011	 -0.192399	 0.029630	 0.816850	 5
1461766144.314	 0	 0.013469	 -0.003859	 -0.003629	 -0.698462	 -1.116235	 -0.374645	 -0.542970	 -0.192502	 0.029609	 0.816853	 5
1461766144.323	 0	 0.025616	 0.004416	 -0.007333	 -0.698483	 -1.115814	 -0.374647	 -0.542812	 -0.192579	 0.029534	 0.816943	 5
1461766144.333	 0	 0.031676	 0.023229	 -0.015867	 -0.698476	 -1.115420	 -0.374784	 -0.542678	 -0.192604	 0.029402	 0.817031	 5
1461766144.342	 0	 0.031624	 0.018571	 -0.007220	 -0.698130	 -1.114961	 -0.374568	 -0.542490	 -0.192595	 0.029310	 0.817161	 5
1461766144.352	 0	 0.018238	 0.026734	 -0.009551	 -0.697503	 -1.114750	 -0.374196	 -0.542384	 -0.192475	 0.029252	 0.817262	 5
1461766144.362	 0	 0.013363	 0.023201	 -0.005836	 -0.697202	 -1.114594	 -0.374101	 -0.542321	 -0.192402	 0.029179	 0.817323	 5
1461766144.371	 0	 0.026824	 0.002082	 -0.004881	 -0.696566	 -1.114376	 -0.373546	 -0.542195	 -0.192329	 0.029193	 0.817424	 5
1461766144.381	 0	 0.008647	 -0.010946	 -0.003682	 -0.696185	 -1.114290	 -0.373086	 -0.542124	 -0.192312	 0.029261	 0.817472	 5
1461766144.390	 0	 0.011176	 -0.020389	 -0.010003	 -0.696067	 -1.114270	 -0.372815	 -0.542092	 -0.192340	 0.029336	 0.817484	 5
1461766144.400	 0	 0.007511	 -0.032126	 -0.001407	 -0.695980	 -1.114390	 -0.372488	 -0.542107	 -0.192374	 0.029469	 0.817462	 5
1461766144.410	 0	 -0.005850	 -0.035714	 -0.000134	 -0.696181	 -1.114413	 -0.372383	 -0.542103	 -0.192481	 0.029571	 0.817436	 5
1461766144.419	 0	 0.003849	 -0.030958	 -0.000132	 -0.696398	 -1.114442	 -0.372272	 -0.542100	 -0.192594	 0.029680	 0.817407	 5
1461766144.429	 0	 0.003838	 -0.028604	 -0.000107	 -0.696577	 -1.114405	 -0.372143	 -0.542071	 -0.192709	 0.029775	 0.817396	 5
1461766144.439	 0	 0.014754	 -0.028537	 0.002325	 -0.696591	 -1.114382	 -0.371880	 -0.542037	 -0.192789	 0.029881	 0.817396	 5
1461766144.448	 0	 0.026958	 -0.039074	 0.002153	 -0.696662	 -1.114247	 -0.371578	 -0.541956	 -0.192922	 0.029999	 0.817413	 5
1461766144.458	 0	 0.018373	 -0.041414	 -0.004126	 -0.696592	 -1.114099	 -0.371121	 -0.541857	 -0.193041	 0.030139	 0.817446	 5
1461766144.467	 0	 0.028120	 -0.046076	 -0.004222	 -0.696523	 -1.113874	 -0.370585	 -0.541722	 -0.193195	 0.030297	 0.817493	 5
1461766144.477	 0	 0.026833	 -0.044861	 0.003252	 -0.696612	 -1.113748	 -0.370202	 -0.541636	 -0.193356	 0.030454	 0.817506	 5
1461766144.487	 0	 0.020716	 -0.031955	 0.000932	 -0.696820	 -1.113549	 -0.370048	 -0.541544	 -0.193515	 0.030536	 0.817527	 5
1461766144.496	 0	 0.026795	 -0.038968	 0.004554	 -0.697007	 -1.113238	 -0.369836	 -0.541403	 -0.193699	 0.030615	 0.817573	 5
1461766144.506	 0	 0.015761	 -0.019007	 0.004817	 -0.697034	 -1.113056	 -0.369624	 -0.541314	 -0.193797	 0.030674	 0.817607	 5
1461766144.515	 0	 0.015769	 -0.009625	 -0.001298	 -0.696994	 -1.112945	 -0.369451	 -0.541256	 -0.193845	 0.030713	 0.817632	 5
1461766144.525	 0	 0.012091	 -0.004926	 0.000012	 -0.696924	 -1.112767	 -0.369301	 -0.541176	 -0.193886	 0.030722	 0.817675	 5
1461766144.535	 0	 0.013356	 -0.006127	 -0.004978	 -0.696815	 -1.112532	 -0.369134	 -0.541073	 -0.193925	 0.030717	 0.817734	 5
1461766144.544	 0	 0.019449	 -0.007283	 -0.006264	 -0.696820	 -1.112320	 -0.369061	 -0.540986	 -0.193981	 0.030708	 0.817779	 5
1461766144.554	 0	 0.009705	 -0.004967	 -0.004947	 -0.696630	 -1.112175	 -0.368813	 -0.540911	 -0.193994	 0.030731	 0.817825	 5
1461766144.564	 0	 0.012162	 -0.003800	 -0.008675	 -0.696638	 -1.112030	 -0.368784	 -0.540853	 -0.194028	 0.030718	 0.817855	 5
1461766144.573	 0	 0.010908	 -0.000259	 -0.006146	 -0.696467	 -1.111933	 -0.368595	 -0.540801	 -0.194025	 0.030730	 0.817890	 5
1461766144.583	 0	 0.006092	 -0.007354	 -0.007439	 -0.696531	 -1.111850	 -0.368613	 -0.540771	 -0.194060	 0.030725	 0.817902	 5
1461766144.592	 0	 -0.001212	 -0.017939	 -0.000057	 -0.696547	 -1.111857	 -0.368518	 -0.540764	 -0.194091	 0.030769	 0.817898	 5
1461766144.602	 0	 0.001204	 -0.008532	 -0.003699	 -0.696841	 -1.111890	 -0.368694	 -0.540789	 -0.194158	 0.030783	 0.817865	 5
1461766144.612	 0	 -0.004997	 -0.004969	 -0.003719	 -0.697208	 -1.111952	 -0.368986	 -0.540835	 -0.194219	 0.030774	 0.817820	 5
1461766144.621	 0	 -0.017164	 -0.000326	 -0.004852	 -0.697691	 -1.112119	 -0.369469	 -0.540937	 -0.194259	 0.030739	 0.817744	 5
1461766144.631	 0	 -0.017118	 0.000814	 -0.011053	 -0.698341	 -1.112296	 -0.370120	 -0.541057	 -0.194320	 0.030682	 0.817653	 5
1461766144.640	 0	 -0.012345	 0.012631	 -0.007226	 -0.698531	 -1.112338	 -0.370405	 -0.541097	 -0.194314	 0.030625	 0.817630	 5
1461766144.650	 0	 -0.020927	 0.025547	 -0.005806	 -0.699082	 -1.112472	 -0.371160	 -0.541212	 -0.194313	 0.030490	 0.817558	 5
1461766144.660	 0	 -0.012427	 0.026764	 -0.005837	 -0.699433	 -1.112556	 -0.371779	 -0.541299	 -0.194275	 0.030348	 0.817515	 5
1461766144.669	 0	 -0.017304	 0.023231	 -0.002122	 -0.699531	 -1.112648	 -0.372137	 -0.541367	 -0.194204	 0.030246	 0.817492	 5
1461766144.679	 0	 -0.012375	 0.016169	 -0.005948	 -0.699348	 -1.112645	 -0.372173	 -0.541372	 -0.194120	 0.030181	 0.817510	 5
1461766144.688	 0	 -0.011123	 0.009112	 -0.006027	 -0.699038	 -1.112668	 -0.372058	 -0.541374	 -0.194020	 0.030149	 0.817534	 5
1461766144.698	 0	 -0.012232	 -0.008566	 -0.008689	 -0.698978	 -1.112815	 -0.372030	 -0.541427	 -0.193979	 0.030171	 0.817507	 5
1461766144.708	 0	 -0.023168	 -0.010965	 -0.007417	 -0.699399	 -1.112899	 -0.372383	 -0.541487	 -0.194042	 0.030157	 0.817454	 5
1461766144.717	 0	 -0.001260	 -0.013230	 -0.010035	 -0.699625	 -1.112886	 -0.372538	 -0.541493	 -0.194095	 0.030153	 0.817437	 5
1461766144.727	 0	 -0.001206	 -0.013266	 -0.016248	 -0.699902	 -1.112832	 -0.372727	 -0.541488	 -0.194166	 0.030140	 0.817424	 5
1461766144.737	 0	 0.002364	 -0.006155	 -0.011222	 -0.700020	 -1.112651	 -0.372807	 -0.541426	 -0.194221	 0.030105	 0.817453	 5
1461766144.746	 0	 0.006008	 -0.016697	 -0.005137	 -0.700145	 -1.112580	 -0.372804	 -0.541397	 -0.194285	 0.030127	 0.817457	 5
1461766144.756	 0	 0.006007	 -0.019044	 -0.003919	 -0.700242	 -1.112606	 -0.372748	 -0.541399	 -0.194336	 0.030181	 0.817441	 5
1461766144.765	 0	 0.002330	 -0.021386	 0.001046	 -0.700387	 -1.112614	 -0.372643	 -0.541390	 -0.194422	 0.030264	 0.817423	 5
1461766144.775	 0	 0.002248	 -0.026080	 -0.000325	 -0.700605	 -1.112580	 -0.372639	 -0.541374	 -0.194518	 0.030319	 0.817409	 5
1461766144.785	 0	 -0.001359	 -0.031991	 -0.001611	 -0.700801	 -1.112706	 -0.372588	 -0.541413	 -0.194591	 0.030416	 0.817362	 5
1461766144.794	 0	 -0.009761	 -0.042664	 -0.007893	 -0.701401	 -1.112627	 -0.372811	 -0.541396	 -0.194789	 0.030473	 0.817324	 5
1461766144.804	 0	 0.002380	 -0.035557	 -0.010366	 -0.701996	 -1.112438	 -0.373074	 -0.541342	 -0.194992	 0.030491	 0.817311	 5
1461766144.813	 0	 0.000021	 -0.039137	 -0.016605	 -0.702610	 -1.112227	 -0.373359	 -0.541281	 -0.195199	 0.030500	 0.817301	 5
1461766144.823	 0	 0.009747	 -0.033226	 -0.020320	 -0.703018	 -1.112025	 -0.373473	 -0.541210	 -0.195368	 0.030526	 0.817307	 5
1461766144.833	 0	 0.009584	 -0.019033	 -0.008988	 -0.703237	 -1.111726	 -0.373499	 -0.541097	 -0.195500	 0.030517	 0.817351	 5
1461766144.842	 0	 0.001075	 -0.004990	 -0.016254	 -0.703389	 -1.111474	 -0.373607	 -0.541011	 -0.195574	 0.030467	 0.817392	 5
1461766144.852	 0	 0.003375	 0.002151	 -0.005009	 -0.703409	 -1.111401	 -0.373646	 -0.540987	 -0.195583	 0.030442	 0.817406	 5
1461766144.862	 0	 0.004520	 0.015115	 -0.003636	 -0.702911	 -1.111132	 -0.373298	 -0.540860	 -0.195518	 0.030399	 0.817508	 5
1461766144.871	 0	 0.016719	 0.010450	 -0.006231	 -0.702533	 -1.110865	 -0.373009	 -0.540737	 -0.195485	 0.030364	 0.817598	 5
1461766144.881	 0	 0.013070	 0.013958	 -0.007418	 -0.701738	 -1.110566	 -0.372389	 -0.540576	 -0.195376	 0.030346	 0.817731	 5
1461766144.890	 0	 0.025307	 0.005746	 -0.012535	 -0.701350	 -1.110311	 -0.372094	 -0.540458	 -0.195339	 0.030314	 0.817820	 5
1461766144.900	 0	 0.026583	 -0.000156	 -0.016330	 -0.701091	 -1.110007	 -0.371821	 -0.540321	 -0.195356	 0.030298	 0.817907	 5
1461766144.909	 0	 0.025263	 0.008123	 -0.008782	 -0.700990	 -1.109814	 -0.371744	 -0.540242	 -0.195367	 0.030265	 0.817957	 5
1461766144.919	 0	 0.012905	 0.019889	 -0.006177	 -0.701156	 -1.109689	 -0.372032	 -0.540221	 -0.195378	 0.030169	 0.817972	 5
1461766144.929	 0	 0.017777	 0.019905	 -0.007444	 -0.700868	 -1.109534	 -0.371931	 -0.540157	 -0.195313	 0.030103	 0.818032	 5
1461766144.938	 0	 0.000726	 0.033929	 -0.010940	 -0.700880	 -1.109404	 -0.372235	 -0.540138	 -0.195256	 0.029957	 0.818064	 5
1461766144.948	 0	 0.003113	 0.036317	 -0.007199	 -0.700374	 -1.109349	 -0.372105	 -0.540112	 -0.195094	 0.029864	 0.818123	 5
1461766144.958	 0	 -0.006448	 0.018561	 -0.016033	 -0.700246	 -1.109339	 -0.372237	 -0.540123	 -0.195007	 0.029773	 0.818140	 5
1461766144.967	 0	 0.005672	 0.013947	 -0.009928	 -0.699964	 -1.109364	 -0.372146	 -0.540128	 -0.194912	 0.029739	 0.818161	 5
1461766144.977	 0	 0.008148	 0.006888	 -0.011256	 -0.699736	 -1.109302	 -0.372061	 -0.540100	 -0.194852	 0.029700	 0.818195	 5
1461766144.986	 0	 0.003359	 0.000950	 -0.016264	 -0.699711	 -1.109074	 -0.372120	 -0.540020	 -0.194863	 0.029627	 0.818247	 5
1461766144.996	 0	 0.009385	 -0.003679	 -0.007646	 -0.699579	 -1.108817	 -0.371951	 -0.539909	 -0.194896	 0.029611	 0.818313	 5
1461766145.006	 0	 -0.002773	 -0.002560	 -0.007573	 -0.699712	 -1.108781	 -0.372079	 -0.539906	 -0.194922	 0.029588	 0.818310	 5
1461766145.015	 0	 -0.002864	 -0.001323	 0.002381	 -0.699473	 -1.108735	 -0.371877	 -0.539873	 -0.194886	 0.029597	 0.818340	 5
1461766145.025	 0	 -0.003966	 -0.002580	 -0.010051	 -0.699634	 -1.108743	 -0.372049	 -0.539890	 -0.194905	 0.029572	 0.818325	 5
1461766145.034	 0	 -0.003939	 -0.001424	 -0.013767	 -0.699861	 -1.108678	 -0.372297	 -0.539886	 -0.194941	 0.029519	 0.818321	 5
1461766145.044	 0	 -0.010043	 -0.000262	 -0.011240	 -0.700300	 -1.108566	 -0.372749	 -0.539882	 -0.195017	 0.029432	 0.818309	 5
1461766145.054	 0	 0.000843	 0.010385	 -0.011185	 -0.700836	 -1.108400	 -0.373361	 -0.539872	 -0.195098	 0.029295	 0.818301	 5
1461766145.063	 0	 -0.008890	 0.032640	 -0.022088	 -0.701262	 -1.108148	 -0.374057	 -0.539838	 -0.195125	 0.029077	 0.818325	 5
1461766145.073	 0	 -0.001754	 0.037436	 -0.023378	 -0.701489	 -1.107869	 -0.374674	 -0.539791	 -0.195097	 0.028833	 0.818371	 5
1461766145.083	 0	 0.001783	 0.044568	 -0.014624	 -0.701310	 -1.107767	 -0.374945	 -0.539782	 -0.194967	 0.028655	 0.818415	 5
1461766145.092	 0	 0.003149	 0.044470	 -0.032028	 -0.701492	 -1.107438	 -0.375597	 -0.539719	 -0.194920	 0.028375	 0.818477	 5
1461766145.102	 0	 0.004419	 0.042092	 -0.037031	 -0.701644	 -1.107049	 -0.376223	 -0.539632	 -0.194877	 0.028086	 0.818555	 5
1461766145.111	 0	 -0.005218	 0.029081	 -0.039604	 -0.701944	 -1.106673	 -0.376857	 -0.539548	 -0.194890	 0.027836	 0.818615	 5
1461766145.121	 0	 -0.000304	 0.033762	 -0.048278	 -0.702267	 -1.106346	 -0.377590	 -0.539492	 -0.194878	 0.027561	 0.818664	 5
1461766145.131	 0	 0.002138	 0.031419	 -0.048316	 -0.702758	 -1.105997	 -0.378469	 -0.539440	 -0.194899	 0.027267	 0.818704	 5
1461766145.140	 0	 -0.010054	 0.034908	 -0.045733	 -0.703276	 -1.105742	 -0.379412	 -0.539429	 -0.194899	 0.026972	 0.818721	 5
1461766145.150	 0	 -0.010101	 0.033766	 -0.039533	 -0.703754	 -1.105478	 -0.380311	 -0.539412	 -0.194895	 0.026683	 0.818742	 5
1461766145.159	 0	 -0.018611	 0.027861	 -0.035826	 -0.704501	 -1.105223	 -0.381390	 -0.539411	 -0.194952	 0.026394	 0.818739	 5
1461766145.169	 0	 -0.014991	 0.029071	 -0.033347	 -0.704808	 -1.105007	 -0.382075	 -0.539393	 -0.194928	 0.026155	 0.818764	 5
1461766145.179	 0	 -0.038014	 0.019528	 -0.035816	 -0.705396	 -1.104980	 -0.383012	 -0.539466	 -0.194921	 0.025925	 0.818725	 5
1461766145.188	 0	 -0.047715	 0.026509	 -0.041907	 -0.706041	 -1.104920	 -0.384063	 -0.539538	 -0.194911	 0.025658	 0.818688	 5
1461766145.198	 0	 -0.058503	 0.024007	 -0.058032	 -0.707285	 -1.105025	 -0.385719	 -0.539723	 -0.194956	 0.025335	 0.818566	 5
1461766145.208	 0	 -0.050048	 0.024084	 -0.051862	 -0.708415	 -1.104910	 -0.387219	 -0.539812	 -0.195033	 0.025004	 0.818499	 5
1461766145.217	 0	 -0.048832	 0.024090	 -0.051868	 -0.709603	 -1.104850	 -0.388787	 -0.539927	 -0.195106	 0.024672	 0.818415	 5
1461766145.227	 0	 -0.040389	 0.031217	 -0.048109	 -0.710481	 -1.104699	 -0.390102	 -0.539988	 -0.195135	 0.024342	 0.818378	 5
1461766145.236	 0	 -0.039161	 0.046468	 -0.057897	 -0.711283	 -1.104451	 -0.391471	 -0.540020	 -0.195135	 0.023950	 0.818369	 5
1461766145.246	 0	 -0.043055	 0.061857	 -0.054041	 -0.712237	 -1.104138	 -0.393114	 -0.540052	 -0.195134	 0.023475	 0.818362	 5
1461766145.255	 0	 -0.046742	 0.074775	 -0.056373	 -0.712927	 -1.104143	 -0.394647	 -0.540195	 -0.195002	 0.023035	 0.818311	 5
1461766145.265	 0	 -0.055149	 0.085227	 -0.073618	 -0.713998	 -1.103849	 -0.396710	 -0.540274	 -0.194932	 0.022423	 0.818292	 5
1461766145.275	 0	 -0.074622	 0.095715	 -0.075898	 -0.715254	 -1.103554	 -0.399054	 -0.540379	 -0.194863	 0.021746	 0.818258	 5
1461766145.284	 0	 -0.078275	 0.103916	 -0.079522	 -0.716625	 -1.103432	 -0.401622	 -0.540569	 -0.194750	 0.021042	 0.818178	 5
1461766145.294	 0	 -0.089219	 0.116777	 -0.085546	 -0.717570	 -1.103214	 -0.403970	 -0.540707	 -0.194539	 0.020294	 0.818156	 5
1461766145.304	 0	 -0.114738	 0.116656	 -0.085421	 -0.718829	 -1.103235	 -0.406694	 -0.540967	 -0.194314	 0.019524	 0.818056	 5
1461766145.313	 0	 -0.108594	 0.114294	 -0.091690	 -0.720120	 -1.103120	 -0.409425	 -0.541177	 -0.194122	 0.018734	 0.817981	 5
1461766145.323	 0	 -0.117117	 0.127174	 -0.096485	 -0.721498	 -1.102915	 -0.412342	 -0.541371	 -0.193932	 0.017874	 0.817917	 5
1461766145.333	 0	 -0.114813	 0.149569	 -0.093778	 -0.722861	 -1.102782	 -0.415435	 -0.541610	 -0.193675	 0.016952	 0.817840	 5
1461766145.342	 0	 -0.114758	 0.164786	 -0.108530	 -0.724225	 -1.102933	 -0.418693	 -0.541969	 -0.193324	 0.016019	 0.817703	 5
1461766145.352	 0	 -0.114762	 0.185910	 -0.119493	 -0.725716	 -1.102584	 -0.422305	 -0.542178	 -0.193015	 0.014877	 0.817660	 5
1461766145.361	 0	 -0.122071	 0.203491	 -0.126730	 -0.727138	 -1.102223	 -0.426079	 -0.542398	 -0.192636	 0.013648	 0.817624	 5
1461766145.371	 0	 -0.128037	 0.203388	 -0.139130	 -0.728459	 -1.101686	 -0.429804	 -0.542549	 -0.192260	 0.012376	 0.817633	 5
1461766145.380	 0	 -0.133040	 0.205777	 -0.136621	 -0.729923	 -1.101320	 -0.433681	 -0.542778	 -0.191871	 0.011115	 0.817590	 5
1461766145.390	 0	 -0.136671	 0.201058	 -0.135412	 -0.731596	 -1.100914	 -0.437721	 -0.543007	 -0.191531	 0.009836	 0.817535	 5
1461766145.400	 0	 -0.132874	 0.185719	 -0.144292	 -0.733532	 -1.100546	 -0.441947	 -0.543267	 -0.191240	 0.008559	 0.817444	 5
1461766145.409	 0	 -0.145070	 0.205638	 -0.150234	 -0.735524	 -1.100616	 -0.446329	 -0.543704	 -0.190850	 0.007324	 0.817257	 5
1461766145.419	 0	 -0.162094	 0.227858	 -0.161101	 -0.737815	 -1.100362	 -0.451269	 -0.544074	 -0.190489	 0.005877	 0.817107	 5
1461766145.428	 0	 -0.179096	 0.230116	 -0.163481	 -0.740523	 -1.100099	 -0.456690	 -0.544487	 -0.190168	 0.004345	 0.816916	 5
1461766145.438	 0	 -0.180322	 0.234811	 -0.164671	 -0.743215	 -1.099912	 -0.462125	 -0.544930	 -0.189821	 0.002820	 0.816708	 5
1461766145.448	 0	 -0.174250	 0.255964	 -0.175665	 -0.745842	 -1.099749	 -0.467683	 -0.545395	 -0.189408	 0.001233	 0.816497	 5
1461766145.457	 0	 -0.168293	 0.265462	 -0.166900	 -0.748074	 -1.099596	 -0.472980	 -0.545839	 -0.188903	 -0.000352	 0.816318	 5
1461766145.467	 0	 -0.167047	 0.270139	 -0.173072	 -0.750362	 -1.099419	 -0.478371	 -0.546285	 -0.188398	 -0.001964	 0.816134	 5
1461766145.477	 0	 -0.162176	 0.274850	 -0.176775	 -0.752257	 -1.099381	 -0.483431	 -0.546750	 -0.187796	 -0.003519	 0.815957	 5
1461766145.486	 0	 -0.166906	 0.287644	 -0.198985	 -0.754570	 -1.098987	 -0.489039	 -0.547138	 -0.187279	 -0.005257	 0.815806	 5
1461766145.496	 0	 -0.169401	 0.312318	 -0.204928	 -0.756641	 -1.098522	 -0.494656	 -0.547502	 -0.186676	 -0.007080	 0.815686	 5
1461766145.505	 0	 -0.162234	 0.340600	 -0.205912	 -0.758465	 -1.098025	 -0.500284	 -0.547854	 -0.185973	 -0.008981	 0.815591	 5
1461766145.515	 0	 -0.178051	 0.371045	 -0.220426	 -0.760186	 -1.097588	 -0.506133	 -0.548248	 -0.185156	 -0.010988	 0.815488	 5
1461766145.525	 0	 -0.190423	 0.412206	 -0.217448	 -0.761744	 -1.097299	 -0.512221	 -0.548716	 -0.184178	 -0.013105	 0.815363	 5
1461766145.534	 0	 -0.193048	 0.434621	 -0.207260	 -0.763005	 -1.097260	 -0.518254	 -0.549265	 -0.183043	 -0.015226	 0.815212	 5
1461766145.544	 0	 -0.191983	 0.459372	 -0.203280	 -0.763772	 -1.097079	 -0.524042	 -0.549735	 -0.181801	 -0.017414	 0.815130	 5
1461766145.553	 0	 -0.200713	 0.478255	 -0.204292	 -0.764371	 -1.096936	 -0.529893	 -0.550219	 -0.180465	 -0.019664	 0.815049	 5
1461766145.563	 0	 -0.201951	 0.490001	 -0.207891	 -0.764875	 -1.096791	 -0.535806	 -0.550704	 -0.179071	 -0.021967	 0.814970	 5
1461766145.573	 0	 -0.201818	 0.478177	 -0.216714	 -0.765390	 -1.096617	 -0.541687	 -0.551172	 -0.177696	 -0.024259	 0.814889	 5
1461766145.582	 0	 -0.200493	 0.466374	 -0.223056	 -0.766497	 -1.096587	 -0.547979	 -0.551733	 -0.176418	 -0.026524	 0.814717	 5
1461766145.592	 0	 -0.207736	 0.460438	 -0.225567	 -0.768062	 -1.096594	 -0.554627	 -0.552342	 -0.175219	 -0.028798	 0.814486	 5
1461766145.601	 0	 -0.212618	 0.451039	 -0.218186	 -0.769959	 -1.096674	 -0.561546	 -0.553002	 -0.174063	 -0.031074	 0.814202	 5
1461766145.611	 0	 -0.207734	 0.432269	 -0.210952	 -0.772173	 -1.096971	 -0.568544	 -0.553750	 -0.172967	 -0.033244	 0.813842	 5
1461766145.621	 0	 -0.209145	 0.426531	 -0.184912	 -0.773361	 -1.097094	 -0.574467	 -0.554324	 -0.171785	 -0.035297	 0.813615	 5
1461766145.630	 0	 -0.205368	 0.402986	 -0.187662	 -0.775473	 -1.097598	 -0.581031	 -0.555101	 -0.170719	 -0.037268	 0.813221	 5
1461766145.640	 0	 -0.218857	 0.413560	 -0.180028	 -0.778001	 -1.098293	 -0.588043	 -0.555989	 -0.169654	 -0.039260	 0.812744	 5
1461766145.650	 0	 -0.226122	 0.400596	 -0.176400	 -0.780414	 -1.098948	 -0.594919	 -0.556847	 -0.168584	 -0.041235	 0.812281	 5
1461766145.659	 0	 -0.214019	 0.397165	 -0.169042	 -0.782504	 -1.099480	 -0.601377	 -0.557619	 -0.167521	 -0.043155	 0.811872	 5
1461766145.669	 0	 -0.221338	 0.388932	 -0.161636	 -0.784514	 -1.100049	 -0.607690	 -0.558387	 -0.166454	 -0.045026	 0.811461	 5
1461766145.678	 0	 -0.215400	 0.394919	 -0.149178	 -0.786418	 -1.100783	 -0.613898	 -0.559200	 -0.165335	 -0.046845	 0.811028	 5
1461766145.688	 0	 -0.213889	 0.371255	 -0.170556	 -0.787888	 -1.101108	 -0.619632	 -0.559819	 -0.164257	 -0.048684	 0.810711	 5
1461766145.698	 0	 -0.202979	 0.351366	 -0.169567	 -0.790043	 -1.101515	 -0.625779	 -0.560516	 -0.163321	 -0.050478	 0.810309	 5
1461766145.707	 0	 -0.200453	 0.346616	 -0.178328	 -0.792567	 -1.101833	 -0.632157	 -0.561209	 -0.162485	 -0.052280	 0.809883	 5
1461766145.717	 0	 -0.197980	 0.339555	 -0.179657	 -0.795072	 -1.102060	 -0.638453	 -0.561863	 -0.161682	 -0.054073	 0.809472	 5
1461766145.727	 0	 -0.199295	 0.341962	 -0.169686	 -0.797600	 -1.102399	 -0.644798	 -0.562560	 -0.160846	 -0.055851	 0.809034	 5
1461766145.736	 0	 -0.216498	 0.358433	 -0.157003	 -0.800169	 -1.102771	 -0.651272	 -0.563278	 -0.159981	 -0.057659	 0.808578	 5
1461766145.746	 0	 -0.231260	 0.387816	 -0.152895	 -0.802992	 -1.103354	 -0.658218	 -0.564112	 -0.159034	 -0.059534	 0.808048	 5
1461766145.755	 0	 -0.236161	 0.404243	 -0.157671	 -0.805654	 -1.103839	 -0.665259	 -0.564915	 -0.158013	 -0.061512	 0.807539	 5
1461766145.765	 0	 -0.248438	 0.425390	 -0.154903	 -0.807074	 -1.104387	 -0.671370	 -0.565624	 -0.156736	 -0.063447	 0.807142	 5
1461766145.774	 0	 -0.253311	 0.440626	 -0.162176	 -0.809407	 -1.104901	 -0.678476	 -0.566426	 -0.155549	 -0.065532	 0.806642	 5
1461766145.784	 0	 -0.264287	 0.454677	 -0.165703	 -0.811818	 -1.105415	 -0.685821	 -0.567247	 -0.154322	 -0.067687	 0.806123	 5
1461766145.794	 0	 -0.270348	 0.433515	 -0.155955	 -0.814229	 -1.106133	 -0.693080	 -0.568127	 -0.153068	 -0.069755	 0.805566	 5
1461766145.803	 0	 -0.270329	 0.433500	 -0.158441	 -0.816551	 -1.106881	 -0.700211	 -0.569001	 -0.151803	 -0.071786	 0.805010	 5
1461766145.813	 0	 -0.258192	 0.430047	 -0.154811	 -0.818507	 -1.107589	 -0.706944	 -0.569814	 -0.150508	 -0.073767	 0.804498	 5
1461766145.823	 0	 -0.259552	 0.424272	 -0.134984	 -0.820148	 -1.108423	 -0.713280	 -0.570625	 -0.149167	 -0.075645	 0.803999	 5
1461766145.832	 0	 -0.265509	 0.401867	 -0.136431	 -0.821717	 -1.109150	 -0.719423	 -0.571380	 -0.147873	 -0.077489	 0.803526	 5
1461766145.842	 0	 -0.246013	 0.386669	 -0.134203	 -0.823804	 -1.109924	 -0.725850	 -0.572188	 -0.146691	 -0.079284	 0.802992	 5
1461766145.851	 0	 -0.238819	 0.384422	 -0.121838	 -0.825641	 -1.110730	 -0.731931	 -0.572969	 -0.145495	 -0.081002	 0.802481	 5
1461766145.861	 0	 -0.229090	 0.389154	 -0.125566	 -0.827787	 -1.111438	 -0.738296	 -0.573748	 -0.144363	 -0.082765	 0.801949	 5
1461766145.871	 0	 -0.211926	 0.379742	 -0.138176	 -0.829937	 -1.111948	 -0.744578	 -0.574455	 -0.143299	 -0.084540	 0.801449	 5
1461766145.880	 0	 -0.207028	 0.369176	 -0.137070	 -0.832294	 -1.112482	 -0.750924	 -0.575181	 -0.142290	 -0.086273	 0.800923	 5
1461766145.890	 0	 -0.194845	 0.364516	 -0.138423	 -0.834303	 -1.112920	 -0.756897	 -0.575833	 -0.141270	 -0.087977	 0.800449	 5
1461766145.899	 0	 -0.207060	 0.359807	 -0.128471	 -0.835445	 -1.113263	 -0.762037	 -0.576355	 -0.140163	 -0.089619	 0.800086	 5
1461766145.909	 0	 -0.206966	 0.342140	 -0.129900	 -0.837438	 -1.113841	 -0.767826	 -0.577035	 -0.139149	 -0.091215	 0.799593	 5
1461766145.919	 0	 -0.210687	 0.317532	 -0.107773	 -0.839287	 -1.114516	 -0.773244	 -0.577710	 -0.138159	 -0.092677	 0.799108	 5
1461766145.928	 0	 -0.215527	 0.310451	 -0.106581	 -0.841400	 -1.115174	 -0.778833	 -0.578403	 -0.137225	 -0.094134	 0.798598	 5
1461766145.938	 0	 -0.208141	 0.295166	 -0.109263	 -0.843583	 -1.115775	 -0.784358	 -0.579075	 -0.136349	 -0.095556	 0.798092	 5
1461766145.947	 0	 -0.194777	 0.287018	 -0.104447	 -0.845416	 -1.116165	 -0.789425	 -0.579630	 -0.135516	 -0.096947	 0.797662	 5
1461766145.957	 0	 -0.192302	 0.282305	 -0.106995	 -0.847280	 -1.116563	 -0.794442	 -0.580186	 -0.134705	 -0.098306	 0.797230	 5
1461766145.967	 0	 -0.186242	 0.283518	 -0.105770	 -0.848702	 -1.117002	 -0.799038	 -0.580702	 -0.133828	 -0.099614	 0.796839	 5
1461766145.976	 0	 -0.177882	 0.309473	 -0.103056	 -0.850215	 -1.117304	 -0.803843	 -0.581193	 -0.132959	 -0.101011	 0.796450	 5
1461766145.986	 0	 -0.178003	 0.336542	 -0.104016	 -0.851772	 -1.117540	 -0.808925	 -0.581683	 -0.132042	 -0.102521	 0.796052	 5
1461766145.996	 0	 -0.175704	 0.343682	 -0.092772	 -0.852911	 -1.117787	 -0.813741	 -0.582135	 -0.131031	 -0.104043	 0.795691	 5
1461766146.005	 0	 -0.180539	 0.344813	 -0.096466	 -0.854042	 -1.118047	 -0.818582	 -0.582591	 -0.130005	 -0.105572	 0.795324	 5
1461766146.015	 0	 -0.169630	 0.348404	 -0.095242	 -0.854921	 -1.118254	 -0.823192	 -0.583001	 -0.128959	 -0.107096	 0.794991	 5
1461766146.024	 0	 -0.167187	 0.341366	 -0.092843	 -0.855647	 -1.118581	 -0.827620	 -0.583425	 -0.127872	 -0.108560	 0.794656	 5
1461766146.034	 0	 -0.159824	 0.335485	 -0.097912	 -0.856080	 -1.118890	 -0.831717	 -0.583805	 -0.126770	 -0.109981	 0.794359	 5
1461766146.044	 0	 -0.161040	 0.333131	 -0.096689	 -0.856995	 -1.119241	 -0.836209	 -0.584247	 -0.125731	 -0.111407	 0.794000	 5
1461766146.053	 0	 -0.153777	 0.316757	 -0.084472	 -0.857830	 -1.119552	 -0.840441	 -0.584655	 -0.124746	 -0.112762	 0.793664	 5
1461766146.063	 0	 -0.137931	 0.313277	 -0.088317	 -0.858965	 -1.119884	 -0.844877	 -0.585096	 -0.123813	 -0.114104	 0.793293	 5
1461766146.072	 0	 -0.144092	 0.319169	 -0.082012	 -0.860215	 -1.120264	 -0.849473	 -0.585568	 -0.122865	 -0.115461	 0.792896	 5
1461766146.082	 0	 -0.134416	 0.321591	 -0.078309	 -0.861249	 -1.120626	 -0.853826	 -0.586004	 -0.121906	 -0.116789	 0.792526	 5
1461766146.092	 0	 -0.132182	 0.324080	 -0.057172	 -0.861899	 -1.121104	 -0.857785	 -0.586428	 -0.120879	 -0.118043	 0.792184	 5
1461766146.101	 0	 -0.126006	 0.320517	 -0.067180	 -0.862371	 -1.121639	 -0.861576	 -0.586847	 -0.119814	 -0.119266	 0.791853	 5
1461766146.111	 0	 -0.122349	 0.318180	 -0.067223	 -0.862039	 -1.121935	 -0.864614	 -0.587097	 -0.118713	 -0.120488	 0.791648	 5
1461766146.121	 0	 -0.104097	 0.304168	 -0.062491	 -0.862396	 -1.122380	 -0.868089	 -0.587459	 -0.117717	 -0.121642	 0.791352	 5
1461766146.130	 0	 -0.099175	 0.284198	 -0.058996	 -0.863065	 -1.122880	 -0.871678	 -0.587861	 -0.116796	 -0.122734	 0.791021	 5
1461766146.140	 0	 -0.095470	 0.266569	 -0.056713	 -0.863784	 -1.123473	 -0.875129	 -0.588285	 -0.115909	 -0.123732	 0.790681	 5
1461766146.149	 0	 -0.073493	 0.236093	 -0.052171	 -0.863942	 -1.124065	 -0.877824	 -0.588628	 -0.115022	 -0.124595	 0.790419	 5
1461766146.159	 0	 -0.058788	 0.190315	 -0.041538	 -0.864198	 -1.124838	 -0.880129	 -0.589008	 -0.114241	 -0.125226	 0.790150	 5
1461766146.169	 0	 -0.064873	 0.169167	 -0.029300	 -0.864420	 -1.125618	 -0.882117	 -0.589369	 -0.113536	 -0.125741	 0.789900	 5
1461766146.178	 0	 -0.059991	 0.151575	 -0.022054	 -0.864104	 -1.125807	 -0.883431	 -0.589480	 -0.112974	 -0.126303	 0.789808	 5
1461766146.188	 0	 -0.072218	 0.135137	 -0.004766	 -0.864625	 -1.126817	 -0.885372	 -0.589925	 -0.112339	 -0.126649	 0.789511	 5
1461766146.198	 0	 -0.076963	 0.108044	 -0.003781	 -0.865198	 -1.127754	 -0.887143	 -0.590340	 -0.111794	 -0.126932	 0.789233	 5
1461766146.207	 0	 -0.089152	 0.095101	 0.007329	 -0.865908	 -1.128773	 -0.888871	 -0.590786	 -0.111293	 -0.127135	 0.788938	 5
1461766146.217	 0	 -0.078194	 0.072844	 0.016984	 -0.866236	 -1.129839	 -0.890060	 -0.591190	 -0.110787	 -0.127225	 0.788692	 5
1461766146.226	 0	 -0.081686	 0.038694	 0.017889	 -0.866536	 -1.130825	 -0.890976	 -0.591553	 -0.110372	 -0.127236	 0.788476	 5
1461766146.236	 0	 -0.085220	 0.019826	 0.015226	 -0.867360	 -1.131763	 -0.892148	 -0.591949	 -0.110100	 -0.127206	 0.788222	 5
1461766146.245	 0	 -0.079106	 0.018655	 0.011456	 -0.868327	 -1.132352	 -0.893426	 -0.592255	 -0.109945	 -0.127267	 0.788003	 5
1461766146.255	 0	 -0.063255	 0.018694	 0.005166	 -0.869257	 -1.133082	 -0.894616	 -0.592596	 -0.109763	 -0.127267	 0.787772	 5
1461766146.265	 0	 -0.059781	 0.029386	 0.018929	 -0.870319	 -1.133847	 -0.895976	 -0.592965	 -0.109574	 -0.127285	 0.787518	 5
1461766146.274	 0	 -0.046394	 0.029434	 0.016376	 -0.871626	 -1.134302	 -0.897511	 -0.593267	 -0.109512	 -0.127380	 0.787284	 5
1461766146.284	 0	 -0.052634	 0.051809	 0.022853	 -0.872530	 -1.134861	 -0.898825	 -0.593561	 -0.109328	 -0.127481	 0.787072	 5
1461766146.293	 0	 -0.051449	 0.057700	 0.022908	 -0.873106	 -1.135354	 -0.899930	 -0.593803	 -0.109094	 -0.127613	 0.786900	 5
1461766146.303	 0	 -0.069716	 0.069371	 0.020637	 -0.873872	 -1.136009	 -0.901382	 -0.594124	 -0.108788	 -0.127782	 0.786672	 5
1461766146.313	 0	 -0.067218	 0.068160	 0.013156	 -0.874840	 -1.136663	 -0.903059	 -0.594469	 -0.108495	 -0.127979	 0.786420	 5
1461766146.322	 0	 -0.068310	 0.066896	 -0.000519	 -0.875264	 -1.137064	 -0.904222	 -0.594677	 -0.108207	 -0.128203	 0.786266	 5
1461766146.332	 0	 -0.086476	 0.062070	 -0.005448	 -0.876520	 -1.137647	 -0.906160	 -0.595033	 -0.107967	 -0.128436	 0.785991	 5
1461766146.342	 0	 -0.076833	 0.056303	 0.006867	 -0.877527	 -1.138165	 -0.907814	 -0.595339	 -0.107731	 -0.128648	 0.785758	 5
1461766146.351	 0	 -0.089116	 0.061027	 0.019402	 -0.878558	 -1.138666	 -0.909514	 -0.595643	 -0.107495	 -0.128874	 0.785522	 5
1461766146.361	 0	 -0.086668	 0.057506	 0.019353	 -0.879178	 -1.139342	 -0.910801	 -0.595950	 -0.107172	 -0.129014	 0.785311	 5
1461766146.371	 0	 -0.080528	 0.039891	 0.021623	 -0.879602	 -1.140074	 -0.911791	 -0.596243	 -0.106845	 -0.129079	 0.785122	 5
1461766146.380	 0	 -0.081736	 0.034014	 0.024054	 -0.879927	 -1.140833	 -0.912581	 -0.596527	 -0.106531	 -0.129089	 0.784947	 5
1461766146.390	 0	 -0.069446	 0.023418	 0.013941	 -0.880754	 -1.141398	 -0.913739	 -0.596807	 -0.106358	 -0.129145	 0.784749	 5
1461766146.399	 0	 -0.062197	 0.025830	 0.017658	 -0.881133	 -1.141919	 -0.914474	 -0.597022	 -0.106146	 -0.129180	 0.784609	 5
1461766146.409	 0	 -0.059818	 0.041131	 0.015321	 -0.881638	 -1.142296	 -0.915373	 -0.597212	 -0.105973	 -0.129281	 0.784471	 5
1461766146.418	 0	 -0.058775	 0.043601	 0.033979	 -0.881933	 -1.142842	 -0.916134	 -0.597430	 -0.105713	 -0.129344	 0.784330	 5
1461766146.428	 0	 -0.066073	 0.049438	 0.031591	 -0.881885	 -1.143355	 -0.916638	 -0.597602	 -0.105404	 -0.129418	 0.784228	 5
1461766146.438	 0	 -0.056272	 0.044740	 0.025281	 -0.881197	 -1.143875	 -0.916527	 -0.597702	 -0.105026	 -0.129440	 0.784198	 5
1461766146.447	 0	 -0.047711	 0.031839	 0.026347	 -0.880407	 -1.144429	 -0.916176	 -0.597793	 -0.104671	 -0.129390	 0.784185	 5
1461766146.457	 0	 -0.027056	 0.015515	 0.036014	 -0.879569	 -1.145012	 -0.915595	 -0.597878	 -0.104358	 -0.129255	 0.784184	 5
1461766146.467	 0	 -0.024513	 -0.003324	 0.033319	 -0.879594	 -1.145421	 -0.915643	 -0.598001	 -0.104242	 -0.129157	 0.784122	 5
1461766146.476	 0	 0.007098	 -0.007874	 0.034356	 -0.878541	 -1.145641	 -0.914560	 -0.597940	 -0.104093	 -0.128988	 0.784216	 5
1461766146.486	 0	 0.027839	 -0.024257	 0.034081	 -0.877502	 -1.145774	 -0.913292	 -0.597846	 -0.104029	 -0.128765	 0.784333	 5
1461766146.495	 0	 0.058163	 -0.032287	 0.045028	 -0.876655	 -1.145949	 -0.911990	 -0.597775	 -0.104038	 -0.128461	 0.784436	 5
1461766146.505	 0	 0.059316	 -0.039279	 0.056133	 -0.875539	 -1.146162	 -0.910343	 -0.597679	 -0.104035	 -0.128091	 0.784569	 5
1461766146.515	 0	 0.069024	 -0.049784	 0.063430	 -0.874135	 -1.146310	 -0.908290	 -0.597526	 -0.104058	 -0.127666	 0.784752	 5
1461766146.524	 0	 0.058121	 -0.043995	 0.056090	 -0.873155	 -1.146437	 -0.906635	 -0.597414	 -0.104134	 -0.127275	 0.784891	 5
1461766146.534	 0	 0.059309	 -0.040450	 0.057363	 -0.871881	 -1.146521	 -0.904840	 -0.597265	 -0.104146	 -0.126929	 0.785059	 5
1461766146.543	 0	 0.042400	 -0.040605	 0.045021	 -0.871043	 -1.146617	 -0.903442	 -0.597167	 -0.104209	 -0.126605	 0.785178	 5
1461766146.553	 0	 0.037622	 -0.051245	 0.041205	 -0.870500	 -1.146659	 -0.902304	 -0.597085	 -0.104325	 -0.126309	 0.785272	 5
1461766146.563	 0	 0.024319	 -0.058395	 0.037470	 -0.870203	 -1.146810	 -0.901359	 -0.597061	 -0.104450	 -0.125986	 0.785325	 5
1461766146.572	 0	 0.029065	 -0.060639	 0.052333	 -0.869582	 -1.146872	 -0.900070	 -0.596973	 -0.104574	 -0.125649	 0.785430	 5
1461766146.582	 0	 0.024298	 -0.071286	 0.047274	 -0.868952	 -1.146988	 -0.898669	 -0.596894	 -0.104713	 -0.125256	 0.785534	 5
1461766146.592	 0	 0.009764	 -0.074909	 0.043582	 -0.868516	 -1.147190	 -0.897484	 -0.596864	 -0.104841	 -0.124867	 0.785601	 5
1461766146.601	 0	 0.013513	 -0.098430	 0.044560	 -0.868516	 -1.147445	 -0.896490	 -0.596887	 -0.105070	 -0.124408	 0.785626	 5
1461766146.611	 0	 0.015832	 -0.097167	 0.056986	 -0.868224	 -1.147695	 -0.895190	 -0.596874	 -0.105276	 -0.123919	 0.785686	 5
1461766146.620	 0	 0.002310	 -0.076003	 0.063488	 -0.867773	 -1.147926	 -0.893908	 -0.596847	 -0.105420	 -0.123488	 0.785755	 5
1461766146.630	 0	 0.003469	 -0.059530	 0.061168	 -0.867324	 -1.148014	 -0.892757	 -0.596784	 -0.105563	 -0.123146	 0.785837	 5
1461766146.640	 0	 0.013106	 -0.021878	 0.050329	 -0.867006	 -1.148053	 -0.892025	 -0.596737	 -0.105646	 -0.122943	 0.785893	 5
1461766146.649	 0	 0.013164	 -0.000796	 0.031912	 -0.866330	 -1.148228	 -0.891239	 -0.596706	 -0.105568	 -0.122789	 0.785952	 5
1461766146.659	 0	 0.033795	 0.014577	 0.026998	 -0.865236	 -1.147927	 -0.890180	 -0.596494	 -0.105535	 -0.122780	 0.786119	 5
1461766146.668	 0	 0.042248	 0.024044	 0.028296	 -0.863642	 -1.147606	 -0.888717	 -0.596224	 -0.105430	 -0.122765	 0.786340	 5
1461766146.678	 0	 0.050616	 0.035897	 0.022208	 -0.862218	 -1.147299	 -0.887503	 -0.595982	 -0.105314	 -0.122793	 0.786534	 5
1461766146.688	 0	 0.061507	 0.030114	 0.030790	 -0.860649	 -1.147002	 -0.886085	 -0.595723	 -0.105198	 -0.122781	 0.786748	 5
1461766146.697	 0	 0.054231	 0.018336	 0.035672	 -0.859015	 -1.146726	 -0.884523	 -0.595459	 -0.105094	 -0.122726	 0.786970	 5
1461766146.707	 0	 0.048275	 0.008838	 0.026905	 -0.857689	 -1.146630	 -0.883180	 -0.595279	 -0.104997	 -0.122617	 0.787137	 5
1461766146.716	 0	 0.041079	 -0.006516	 0.024295	 -0.856565	 -1.146485	 -0.881969	 -0.595103	 -0.104954	 -0.122514	 0.787291	 5
1461766146.726	 0	 0.021729	 -0.039528	 0.031501	 -0.855646	 -1.146488	 -0.880717	 -0.594982	 -0.104963	 -0.122293	 0.787416	 5
1461766146.736	 0	 0.009621	 -0.044309	 0.029028	 -0.855136	 -1.146545	 -0.879752	 -0.594917	 -0.105034	 -0.122050	 0.787493	 5
1461766146.745	 0	 0.012152	 -0.058447	 0.025139	 -0.855110	 -1.146662	 -0.879145	 -0.594918	 -0.105174	 -0.121788	 0.787514	 5
1461766146.755	 0	 0.019553	 -0.063180	 0.015112	 -0.855136	 -1.146560	 -0.878525	 -0.594857	 -0.105396	 -0.121563	 0.787565	 5
1461766146.764	 0	 0.031713	 -0.071341	 0.018692	 -0.855457	 -1.146471	 -0.878069	 -0.594826	 -0.105681	 -0.121311	 0.787589	 5
1461766146.774	 0	 0.031704	 -0.078376	 0.023589	 -0.855510	 -1.146463	 -0.877296	 -0.594786	 -0.105934	 -0.120993	 0.787635	 5
1461766146.784	 0	 0.036468	 -0.055992	 0.022557	 -0.855110	 -1.146416	 -0.876231	 -0.594691	 -0.106106	 -0.120705	 0.787727	 5
1461766146.793	 0	 0.038828	 -0.050064	 0.027577	 -0.854558	 -1.146193	 -0.875101	 -0.594531	 -0.106283	 -0.120483	 0.787858	 5
1461766146.803	 0	 0.038829	 -0.032464	 0.017820	 -0.853984	 -1.146006	 -0.874107	 -0.594388	 -0.106402	 -0.120311	 0.787976	 5
1461766146.812	 0	 0.038993	 -0.041962	 0.004052	 -0.853444	 -1.145688	 -0.873128	 -0.594208	 -0.106563	 -0.120169	 0.788112	 5
1461766146.822	 0	 0.040088	 -0.032487	 0.012844	 -0.852862	 -1.145541	 -0.872152	 -0.594077	 -0.106663	 -0.119995	 0.788223	 5
1461766146.832	 0	 0.041372	 -0.044260	 0.011472	 -0.851892	 -1.145405	 -0.870756	 -0.593904	 -0.106731	 -0.119769	 0.788379	 5
1461766146.841	 0	 0.049742	 -0.033566	 0.021484	 -0.850896	 -1.145339	 -0.869328	 -0.593749	 -0.106780	 -0.119519	 0.788528	 5
1461766146.851	 0	 0.042508	 -0.045373	 0.021396	 -0.850314	 -1.145229	 -0.868266	 -0.593624	 -0.106894	 -0.119302	 0.788639	 5
1461766146.860	 0	 0.046087	 -0.055870	 0.034937	 -0.849409	 -1.145328	 -0.866729	 -0.593518	 -0.106968	 -0.118938	 0.788764	 5
1461766146.870	 0	 0.047406	 -0.064149	 0.027390	 -0.848742	 -1.145399	 -0.865363	 -0.593426	 -0.107091	 -0.118579	 0.788870	 5
1461766146.880	 0	 0.054693	 -0.069979	 0.031021	 -0.848136	 -1.145455	 -0.863967	 -0.593332	 -0.107252	 -0.118194	 0.788977	 5
1461766146.889	 0	 0.057270	 -0.080628	 0.019715	 -0.847668	 -1.145464	 -0.862632	 -0.593236	 -0.107461	 -0.117803	 0.789079	 5
1461766146.899	 0	 0.058426	 -0.081756	 0.027154	 -0.847157	 -1.145462	 -0.861182	 -0.593127	 -0.107690	 -0.117383	 0.789192	 5
1461766146.909	 0	 0.056152	 -0.107690	 0.023166	 -0.846824	 -1.145404	 -0.859765	 -0.593014	 -0.107993	 -0.116938	 0.789302	 5
1461766146.918	 0	 0.057435	 -0.117116	 0.020576	 -0.846717	 -1.145188	 -0.858406	 -0.592869	 -0.108410	 -0.116489	 0.789420	 5
1461766146.928	 0	 0.050123	 -0.126525	 0.027970	 -0.846708	 -1.145166	 -0.857097	 -0.592791	 -0.108801	 -0.115981	 0.789500	 5
1461766146.937	 0	 0.037992	 -0.131293	 0.027981	 -0.847149	 -1.145176	 -0.856166	 -0.592768	 -0.109248	 -0.115480	 0.789528	 5
1461766146.947	 0	 0.030688	 -0.126626	 0.026823	 -0.847606	 -1.145187	 -0.855306	 -0.592751	 -0.109680	 -0.115002	 0.789551	 5
1461766146.957	 0	 0.025657	 -0.111279	 0.038191	 -0.848068	 -1.145143	 -0.854563	 -0.592723	 -0.110095	 -0.114584	 0.789575	 5
1461766146.966	 0	 0.021996	 -0.094859	 0.030925	 -0.848340	 -1.145035	 -0.853789	 -0.592664	 -0.110459	 -0.114226	 0.789621	 5
1461766146.976	 0	 0.023155	 -0.063133	 0.020068	 -0.848388	 -1.144830	 -0.853080	 -0.592565	 -0.110742	 -0.113984	 0.789690	 5
1461766146.985	 0	 0.015790	 -0.050210	 0.021483	 -0.848285	 -1.144869	 -0.852412	 -0.592534	 -0.110889	 -0.113741	 0.789728	 5
1461766146.995	 0	 0.024340	 -0.030252	 0.005496	 -0.848328	 -1.144668	 -0.852016	 -0.592454	 -0.111075	 -0.113624	 0.789779	 5
1461766147.005	 0	 0.038789	 -0.021875	 0.016693	 -0.847543	 -1.144402	 -0.850947	 -0.592269	 -0.111151	 -0.113504	 0.789924	 5
1461766147.014	 0	 0.037640	 -0.026619	 0.011679	 -0.846643	 -1.144148	 -0.849772	 -0.592076	 -0.111209	 -0.113372	 0.790080	 5
1461766147.024	 0	 0.024148	 -0.020730	 0.022991	 -0.845820	 -1.144105	 -0.848705	 -0.591957	 -0.111211	 -0.113205	 0.790192	 5
1461766147.033	 0	 0.016953	 -0.036083	 0.020382	 -0.845193	 -1.144005	 -0.847734	 -0.591837	 -0.111277	 -0.113033	 0.790297	 5
1461766147.043	 0	 0.020531	 -0.041886	 0.031486	 -0.844804	 -1.144067	 -0.846908	 -0.591788	 -0.111351	 -0.112805	 0.790356	 5
1461766147.053	 0	 0.007239	 -0.044348	 0.024071	 -0.844430	 -1.144126	 -0.846050	 -0.591737	 -0.111442	 -0.112562	 0.790416	 5
1461766147.062	 0	 0.000042	 -0.055007	 0.019026	 -0.844388	 -1.144167	 -0.845474	 -0.591715	 -0.111585	 -0.112336	 0.790445	 5
1461766147.072	 0	 0.009829	 -0.057352	 0.012740	 -0.844566	 -1.144122	 -0.845085	 -0.591689	 -0.111782	 -0.112141	 0.790464	 5
1461766147.082	 0	 0.011084	 -0.067935	 0.013865	 -0.845158	 -1.144202	 -0.844987	 -0.591741	 -0.112025	 -0.111907	 0.790424	 5
1461766147.091	 0	 0.028151	 -0.063196	 0.005131	 -0.845492	 -1.144092	 -0.844649	 -0.591708	 -0.112285	 -0.111703	 0.790441	 5
1461766147.101	 0	 0.036737	 -0.077290	 0.003698	 -0.845594	 -1.143909	 -0.843976	 -0.591620	 -0.112572	 -0.111454	 0.790501	 5
1461766147.111	 0	 0.042733	 -0.078380	 0.013596	 -0.845648	 -1.143708	 -0.843202	 -0.591518	 -0.112874	 -0.111184	 0.790572	 5
1461766147.120	 0	 0.039112	 -0.087801	 0.016000	 -0.845603	 -1.143442	 -0.842248	 -0.591381	 -0.113207	 -0.110889	 0.790668	 5
1461766147.130	 0	 0.031588	 -0.061863	 0.028733	 -0.845552	 -1.143289	 -0.841426	 -0.591285	 -0.113469	 -0.110618	 0.790741	 5
1461766147.139	 0	 0.017102	 -0.061999	 0.017620	 -0.845745	 -1.143036	 -0.840971	 -0.591192	 -0.113746	 -0.110446	 0.790794	 5
1461766147.149	 0	 0.005018	 -0.063278	 0.010212	 -0.845996	 -1.143086	 -0.840598	 -0.591200	 -0.113942	 -0.110212	 0.790792	 5
1461766147.158	 0	 0.007608	 -0.073935	 -0.002339	 -0.846678	 -1.142763	 -0.840572	 -0.591138	 -0.114303	 -0.110084	 0.790805	 5
1461766147.168	 0	 0.004008	 -0.076328	 -0.006073	 -0.846870	 -1.142539	 -0.840065	 -0.591051	 -0.114586	 -0.109884	 0.790857	 5
1461766147.178	 0	 -0.015540	 -0.063441	 -0.000870	 -0.847163	 -1.142481	 -0.839766	 -0.591032	 -0.114805	 -0.109694	 0.790865	 5
1461766147.187	 0	 -0.009540	 -0.056319	 0.004144	 -0.847747	 -1.142413	 -0.839819	 -0.591047	 -0.115038	 -0.109560	 0.790839	 5
1461766147.197	 0	 -0.008450	 -0.045667	 0.012946	 -0.848285	 -1.142339	 -0.839890	 -0.591058	 -0.115249	 -0.109448	 0.790816	 5
1461766147.207	 0	 -0.007300	 -0.023322	 0.008205	 -0.848590	 -1.142456	 -0.839903	 -0.591111	 -0.115335	 -0.109334	 0.790779	 5
1461766147.216	 0	 0.009566	 -0.007885	 0.016978	 -0.848554	 -1.142381	 -0.839742	 -0.591077	 -0.115388	 -0.109300	 0.790802	 5
1461766147.226	 0	 0.009687	 -0.015007	 0.006962	 -0.848297	 -1.142205	 -0.839351	 -0.590986	 -0.115448	 -0.109267	 0.790865	 5
1461766147.236	 0	 0.003587	 -0.005632	 0.004606	 -0.847976	 -1.142119	 -0.838972	 -0.590921	 -0.115455	 -0.109234	 0.790918	 5
1461766147.245	 0	 0.020762	 -0.023261	 -0.004362	 -0.847607	 -1.142027	 -0.838440	 -0.590842	 -0.115490	 -0.109156	 0.790982	 5
1461766147.255	 0	 0.018393	 -0.031528	 -0.006921	 -0.847409	 -1.141820	 -0.837948	 -0.590740	 -0.115610	 -0.109073	 0.791053	 5
1461766147.264	 0	 0.006297	 -0.038664	 -0.009421	 -0.847709	 -1.141566	 -0.837856	 -0.590673	 -0.115821	 -0.109014	 0.791080	 5
1461766147.274	 0	 -0.002349	 -0.021009	 -0.002981	 -0.848115	 -1.141374	 -0.838008	 -0.590646	 -0.115986	 -0.109004	 0.791077	 5
1461766147.283	 0	 -0.001166	 -0.018634	 -0.000477	 -0.848336	 -1.141411	 -0.838060	 -0.590672	 -0.116049	 -0.108949	 0.791056	 5
1461766147.293	 0	 -0.008510	 -0.020980	 0.006990	 -0.848514	 -1.141433	 -0.838078	 -0.590689	 -0.116108	 -0.108898	 0.791041	 5
1461766147.303	 0	 -0.012138	 -0.009276	 -0.001567	 -0.848715	 -1.141511	 -0.838186	 -0.590730	 -0.116136	 -0.108862	 0.791012	 5
1461766147.312	 0	 0.006185	 -0.017467	 -0.007957	 -0.848963	 -1.141467	 -0.838291	 -0.590736	 -0.116214	 -0.108842	 0.790998	 5
1461766147.322	 0	 0.012259	 -0.027996	 -0.001885	 -0.849211	 -1.141336	 -0.838258	 -0.590708	 -0.116356	 -0.108789	 0.791006	 5
1461766147.332	 0	 0.003745	 -0.022165	 -0.004267	 -0.849405	 -1.141236	 -0.838229	 -0.590686	 -0.116467	 -0.108746	 0.791012	 5
1461766147.341	 0	 0.004849	 -0.010350	 0.002064	 -0.849729	 -1.141212	 -0.838398	 -0.590707	 -0.116551	 -0.108723	 0.790987	 5
1461766147.351	 0	 -0.001272	 -0.003309	 0.003410	 -0.849862	 -1.141167	 -0.838486	 -0.590705	 -0.116589	 -0.108731	 0.790982	 5
1461766147.360	 0	 -0.004910	 -0.011545	 0.007069	 -0.849939	 -1.141253	 -0.838474	 -0.590735	 -0.116601	 -0.108681	 0.790964	 5
1461766147.370	 0	 -0.006082	 -0.009233	 0.000886	 -0.850069	 -1.141159	 -0.838511	 -0.590716	 -0.116666	 -0.108681	 0.790969	 5
1461766147.379	 0	 -0.013363	 -0.009275	 -0.000320	 -0.850093	 -1.141169	 -0.838501	 -0.590719	 -0.116676	 -0.108667	 0.790967	 5
1461766147.389	 0	 -0.004874	 -0.013913	 0.004560	 -0.849629	 -1.141245	 -0.837964	 -0.590686	 -0.116632	 -0.108572	 0.791012	 5
1461766147.399	 0	 -0.006086	 -0.005707	 -0.000318	 -0.849494	 -1.141277	 -0.837796	 -0.590678	 -0.116620	 -0.108538	 0.791024	 5
1461766147.408	 0	 0.004782	 -0.004433	 0.007096	 -0.849156	 -1.141269	 -0.837418	 -0.590636	 -0.116599	 -0.108491	 0.791065	 5
1461766147.418	 0	 0.012024	 0.003850	 0.008389	 -0.848760	 -1.141201	 -0.837008	 -0.590570	 -0.116581	 -0.108462	 0.791121	 5
1461766147.428	 0	 -0.003834	 0.007336	 0.013476	 -0.848166	 -1.141331	 -0.836497	 -0.590547	 -0.116464	 -0.108402	 0.791163	 5
1461766147.437	 0	 0.016887	 -0.000821	 0.010801	 -0.847860	 -1.141319	 -0.836151	 -0.590507	 -0.116448	 -0.108359	 0.791202	 5
1461766147.447	 0	 0.003547	 -0.006771	 0.010807	 -0.847420	 -1.141413	 -0.835626	 -0.590481	 -0.116405	 -0.108257	 0.791241	 5
1461766147.456	 0	 0.010776	 -0.011387	 0.020663	 -0.846965	 -1.141619	 -0.835034	 -0.590485	 -0.116347	 -0.108104	 0.791268	 5
1461766147.466	 0	 0.009713	 -0.020883	 0.008144	 -0.846548	 -1.141714	 -0.834407	 -0.590455	 -0.116342	 -0.107954	 0.791311	 5
1461766147.476	 0	 0.001119	 -0.016171	 0.015692	 -0.846715	 -1.141820	 -0.834331	 -0.590492	 -0.116404	 -0.107847	 0.791289	 5
1461766147.485	 0	 -0.003720	 -0.020903	 0.015667	 -0.846689	 -1.141921	 -0.834081	 -0.590507	 -0.116441	 -0.107730	 0.791288	 5
1461766147.495	 0	 -0.004929	 -0.019739	 0.014442	 -0.846672	 -1.141985	 -0.833866	 -0.590513	 -0.116482	 -0.107634	 0.791291	 5
1461766147.505	 0	 0.005960	 -0.016133	 0.018153	 -0.846152	 -1.142005	 -0.833172	 -0.590451	 -0.116475	 -0.107508	 0.791355	 5
1461766147.514	 0	 0.004822	 -0.023231	 0.013115	 -0.845911	 -1.142014	 -0.832764	 -0.590417	 -0.116498	 -0.107415	 0.791390	 5
1461766147.524	 0	 0.012099	 -0.022012	 0.014334	 -0.845412	 -1.142012	 -0.832016	 -0.590346	 -0.116522	 -0.107267	 0.791460	 5
1461766147.533	 0	 0.009678	 -0.014988	 0.009449	 -0.844936	 -1.141937	 -0.831335	 -0.590258	 -0.116554	 -0.107157	 0.791535	 5
1461766147.543	 0	 0.010853	 -0.019647	 0.016849	 -0.844493	 -1.141859	 -0.830727	 -0.590175	 -0.116578	 -0.107067	 0.791606	 5
1461766147.552	 0	 0.015640	 -0.004320	 0.016986	 -0.844052	 -1.141877	 -0.830166	 -0.590124	 -0.116565	 -0.106971	 0.791659	 5
1461766147.562	 0	 0.026516	 -0.006571	 0.025605	 -0.843258	 -1.141710	 -0.829278	 -0.589979	 -0.116555	 -0.106896	 0.791779	 5
1461766147.572	 0	 0.030250	 0.003947	 0.009543	 -0.842836	 -1.141498	 -0.828753	 -0.589860	 -0.116597	 -0.106867	 0.791864	 5
1461766147.581	 0	 0.019283	 -0.003125	 0.016978	 -0.842341	 -1.141320	 -0.828186	 -0.589746	 -0.116613	 -0.106835	 0.791951	 5
1461766147.591	 0	 0.016862	 -0.000797	 0.014529	 -0.842052	 -1.141199	 -0.827845	 -0.589674	 -0.116630	 -0.106816	 0.792005	 5
1461766147.601	 0	 0.015739	 -0.002039	 0.004580	 -0.841782	 -1.141012	 -0.827512	 -0.589582	 -0.116670	 -0.106811	 0.792068	 5
1461766147.610	 0	 0.015782	 -0.004416	 0.000826	 -0.841923	 -1.140818	 -0.827539	 -0.589532	 -0.116767	 -0.106830	 0.792089	 5
1461766147.620	 0	 0.001174	 0.004918	 -0.001488	 -0.841867	 -1.140797	 -0.827512	 -0.589521	 -0.116759	 -0.106841	 0.792097	 5
1461766147.629	 0	 0.004860	 -0.005653	 -0.000375	 -0.842101	 -1.140669	 -0.827709	 -0.589506	 -0.116826	 -0.106883	 0.792093	 5
1461766147.639	 0	 -0.003632	 -0.017437	 0.004514	 -0.842204	 -1.140624	 -0.827653	 -0.589494	 -0.116895	 -0.106842	 0.792097	 5
1461766147.649	 0	 -0.009704	 -0.009254	 -0.000340	 -0.842149	 -1.140618	 -0.827521	 -0.589481	 -0.116913	 -0.106808	 0.792108	 5
1461766147.658	 0	 -0.018383	 0.010770	 0.008610	 -0.842200	 -1.140723	 -0.827655	 -0.589524	 -0.116867	 -0.106819	 0.792081	 5
1461766147.668	 0	 -0.008607	 0.013127	 0.001130	 -0.842138	 -1.140718	 -0.827749	 -0.589525	 -0.116816	 -0.106876	 0.792081	 5
1461766147.677	 0	 0.016915	 0.010902	 0.002222	 -0.841809	 -1.140598	 -0.827528	 -0.589457	 -0.116781	 -0.106916	 0.792131	 5
1461766147.687	 0	 0.004800	 0.009644	 -0.001458	 -0.841327	 -1.140551	 -0.827146	 -0.589395	 -0.116715	 -0.106919	 0.792186	 5
1461766147.697	 0	 0.016788	 0.014450	 -0.002640	 -0.840999	 -1.140423	 -0.826937	 -0.589326	 -0.116679	 -0.106966	 0.792237	 5
1461766147.706	 0	 0.026522	 0.016836	 -0.005148	 -0.840302	 -1.140236	 -0.826381	 -0.589199	 -0.116615	 -0.106999	 0.792337	 5
1461766147.716	 0	 0.026517	 0.013319	 -0.002700	 -0.839887	 -1.140129	 -0.826050	 -0.589124	 -0.116575	 -0.107017	 0.792395	 5
1461766147.725	 0	 0.025338	 0.014460	 -0.007653	 -0.839606	 -1.139965	 -0.825872	 -0.589048	 -0.116558	 -0.107071	 0.792447	 5
1461766147.735	 0	 0.016837	 0.008548	 -0.005186	 -0.839297	 -1.139840	 -0.825648	 -0.588980	 -0.116534	 -0.107106	 0.792496	 5
1461766147.745	 0	 0.021667	 0.001552	 0.002172	 -0.839120	 -1.139876	 -0.825447	 -0.588970	 -0.116513	 -0.107069	 0.792512	 5
1461766147.754	 0	 0.010738	 -0.011414	 0.008304	 -0.838947	 -1.139967	 -0.825182	 -0.588974	 -0.116500	 -0.106991	 0.792522	 5
1461766147.764	 0	 0.014517	 -0.027915	 0.001900	 -0.838917	 -1.139897	 -0.824865	 -0.588932	 -0.116599	 -0.106893	 0.792552	 5
1461766147.774	 0	 0.008609	 -0.058568	 -0.000876	 -0.839455	 -1.139995	 -0.824872	 -0.588991	 -0.116785	 -0.106712	 0.792504	 5
1461766147.783	 0	 0.005062	 -0.068040	 -0.007169	 -0.839868	 -1.139963	 -0.824661	 -0.588991	 -0.117019	 -0.106515	 0.792497	 5
1461766147.793	 0	 0.011210	 -0.078621	 -0.009795	 -0.840570	 -1.140067	 -0.824623	 -0.589058	 -0.117282	 -0.106267	 0.792441	 5
1461766147.802	 0	 0.019742	 -0.087984	 -0.007450	 -0.840866	 -1.139915	 -0.824136	 -0.588998	 -0.117581	 -0.106025	 0.792474	 5
1461766147.812	 0	 0.003868	 -0.085660	 0.000109	 -0.841391	 -1.139831	 -0.823828	 -0.588982	 -0.117902	 -0.105770	 0.792472	 5
1461766147.822	 0	 0.012287	 -0.078519	 0.006354	 -0.841969	 -1.139832	 -0.823633	 -0.589002	 -0.118188	 -0.105522	 0.792448	 5
1461766147.831	 0	 0.020832	 -0.077330	 0.001354	 -0.842305	 -1.139683	 -0.823162	 -0.588946	 -0.118498	 -0.105275	 0.792476	 5
1461766147.841	 0	 0.020798	 -0.070267	 0.001428	 -0.842422	 -1.139552	 -0.822566	 -0.588876	 -0.118753	 -0.105038	 0.792521	 5
1461766147.851	 0	 0.024494	 -0.073803	 -0.002355	 -0.842515	 -1.139258	 -0.821936	 -0.588753	 -0.119050	 -0.104836	 0.792595	 5
1461766147.860	 0	 0.011033	 -0.065589	 0.004010	 -0.842936	 -1.139122	 -0.821637	 -0.588715	 -0.119340	 -0.104628	 0.792607	 5
1461766147.870	 0	 0.017121	 -0.067915	 0.003956	 -0.843255	 -1.138999	 -0.821275	 -0.588672	 -0.119604	 -0.104423	 0.792626	 5
1461766147.879	 0	 0.013490	 -0.064422	 0.000283	 -0.843646	 -1.138907	 -0.820999	 -0.588648	 -0.119863	 -0.104222	 0.792631	 5
1461766147.889	 0	 0.012212	 -0.049131	 -0.000794	 -0.844179	 -1.138680	 -0.820993	 -0.588605	 -0.120134	 -0.104121	 0.792635	 5
1461766147.898	 0	 0.020729	 -0.046751	 -0.003298	 -0.844827	 -1.138418	 -0.821102	 -0.588565	 -0.120426	 -0.104041	 0.792632	 5
1461766147.908	 0	 0.019461	 -0.033815	 -0.004400	 -0.845268	 -1.138244	 -0.821115	 -0.588535	 -0.120641	 -0.103960	 0.792632	 5
1461766147.918	 0	 0.020608	 -0.024377	 -0.001822	 -0.845618	 -1.138154	 -0.821089	 -0.588524	 -0.120810	 -0.103870	 0.792626	 5
1461766147.927	 0	 0.024306	 -0.019702	 -0.010489	 -0.845553	 -1.137949	 -0.820815	 -0.588441	 -0.120917	 -0.103833	 0.792676	 5
1461766147.937	 0	 0.027909	 -0.017308	 -0.006755	 -0.845395	 -1.137653	 -0.820469	 -0.588320	 -0.121032	 -0.103819	 0.792750	 5
1461766147.947	 0	 0.031485	 -0.016069	 0.000695	 -0.845101	 -1.137497	 -0.819983	 -0.588227	 -0.121098	 -0.103752	 0.792817	 5
1461766147.956	 0	 0.033924	 -0.011371	 -0.002995	 -0.844726	 -1.137312	 -0.819473	 -0.588120	 -0.121146	 -0.103708	 0.792895	 5
1461766147.966	 0	 0.031521	 -0.012574	 -0.005480	 -0.844377	 -1.137048	 -0.818954	 -0.587989	 -0.121228	 -0.103672	 0.792985	 5
1461766147.975	 0	 0.018082	 -0.004375	 -0.001600	 -0.843739	 -1.136820	 -0.818267	 -0.587844	 -0.121234	 -0.103646	 0.793095	 5
1461766147.985	 0	 0.016966	 -0.016182	 -0.006687	 -0.843692	 -1.136651	 -0.818087	 -0.587778	 -0.121311	 -0.103632	 0.793133	 5
1461766147.995	 0	 0.018205	 -0.020885	 -0.006741	 -0.842965	 -1.136604	 -0.817233	 -0.587675	 -0.121286	 -0.103518	 0.793229	 5
1461766148.004	 0	 0.015648	 -0.033763	 0.000652	 -0.842344	 -1.136648	 -0.816360	 -0.587603	 -0.121285	 -0.103343	 0.793305	 5
1461766148.014	 0	 0.024199	 -0.058393	 0.009050	 -0.841780	 -1.136689	 -0.815317	 -0.587523	 -0.121358	 -0.103085	 0.793387	 5
1461766148.023	 0	 0.026694	 -0.058425	 0.001584	 -0.841568	 -1.136743	 -0.814503	 -0.587480	 -0.121499	 -0.102811	 0.793433	 5
1461766148.033	 0	 0.026679	 -0.061935	 0.005275	 -0.841561	 -1.136761	 -0.813873	 -0.587447	 -0.121677	 -0.102558	 0.793463	 5
1461766148.043	 0	 0.022866	 -0.055970	 0.021509	 -0.841514	 -1.136737	 -0.813221	 -0.587397	 -0.121855	 -0.102319	 0.793503	 5
1461766148.052	 0	 0.029111	 -0.068965	 0.008916	 -0.841819	 -1.136704	 -0.812795	 -0.587376	 -0.122110	 -0.102069	 0.793511	 5
1461766148.062	 0	 0.013189	 -0.052529	 0.014139	 -0.842091	 -1.136733	 -0.812481	 -0.587380	 -0.122303	 -0.101857	 0.793506	 5
1461766148.072	 0	 0.001053	 -0.056119	 0.014162	 -0.842579	 -1.136861	 -0.812399	 -0.587439	 -0.122488	 -0.101649	 0.793460	 5
1461766148.081	 0	 -0.000048	 -0.062070	 0.004165	 -0.842936	 -1.136913	 -0.812183	 -0.587461	 -0.122680	 -0.101445	 0.793441	 5
1461766148.091	 0	 -0.008632	 -0.052670	 0.008034	 -0.843301	 -1.136953	 -0.812011	 -0.587481	 -0.122865	 -0.101259	 0.793421	 5
1461766148.100	 0	 -0.002656	 -0.056093	 0.021636	 -0.843564	 -1.136937	 -0.811744	 -0.587473	 -0.123052	 -0.101080	 0.793421	 5
1461766148.110	 0	 0.003485	 -0.033812	 0.001958	 -0.843596	 -1.136845	 -0.811408	 -0.587425	 -0.123187	 -0.100961	 0.793450	 5
1461766148.120	 0	 0.017928	 -0.026606	 0.014386	 -0.843551	 -1.136841	 -0.811033	 -0.587399	 -0.123280	 -0.100826	 0.793473	 5
1461766148.129	 0	 0.017966	 -0.025458	 0.009427	 -0.843152	 -1.136661	 -0.810367	 -0.587282	 -0.123363	 -0.100726	 0.793559	 5
1461766148.139	 0	 0.027511	 -0.021770	 0.028056	 -0.842418	 -1.136520	 -0.809377	 -0.587140	 -0.123398	 -0.100584	 0.793677	 5
1461766148.148	 0	 0.031140	 -0.010005	 0.016991	 -0.841757	 -1.136299	 -0.808508	 -0.586984	 -0.123447	 -0.100489	 0.793796	 5
1461766148.158	 0	 0.033581	 -0.005307	 0.013300	 -0.841046	 -1.136058	 -0.807660	 -0.586822	 -0.123474	 -0.100423	 0.793921	 5
1461766148.168	 0	 0.027547	 -0.003017	 0.007142	 -0.840379	 -1.135874	 -0.806930	 -0.586686	 -0.123470	 -0.100376	 0.794027	 5
1461766148.177	 0	 0.020352	 -0.003118	 -0.004006	 -0.839926	 -1.135685	 -0.806439	 -0.586574	 -0.123481	 -0.100362	 0.794110	 5
1461766148.187	 0	 0.015434	 -0.008969	 0.005897	 -0.839550	 -1.135558	 -0.805967	 -0.586486	 -0.123503	 -0.100317	 0.794177	 5
1461766148.196	 0	 0.011734	 -0.006602	 0.010911	 -0.839312	 -1.135530	 -0.805628	 -0.586445	 -0.123514	 -0.100259	 0.794213	 5
1461766148.206	 0	 0.005679	 -0.006646	 0.008455	 -0.839123	 -1.135499	 -0.805343	 -0.586408	 -0.123531	 -0.100209	 0.794244	 5
1461766148.216	 0	 0.011773	 -0.010149	 0.008389	 -0.838715	 -1.135575	 -0.804819	 -0.586379	 -0.123503	 -0.100101	 0.794283	 5
1461766148.225	 0	 0.008129	 -0.017208	 0.012061	 -0.838461	 -1.135579	 -0.804408	 -0.586342	 -0.123522	 -0.100012	 0.794319	 5
1461766148.235	 0	 0.013030	 -0.007825	 0.002195	 -0.838307	 -1.135562	 -0.804112	 -0.586311	 -0.123551	 -0.099944	 0.794346	 5
1461766148.244	 0	 0.022759	 -0.013651	 0.004570	 -0.838082	 -1.135504	 -0.803733	 -0.586258	 -0.123588	 -0.099874	 0.794388	 5
1461766148.254	 0	 0.021556	 -0.018358	 0.005769	 -0.837903	 -1.135444	 -0.803329	 -0.586206	 -0.123650	 -0.099781	 0.794429	 5
1461766148.264	 0	 0.032444	 -0.012405	 0.008262	 -0.837502	 -1.135325	 -0.802755	 -0.586113	 -0.123689	 -0.099701	 0.794501	 5
1461766148.274	 0	 0.036121	 -0.010062	 0.003298	 -0.837058	 -1.135148	 -0.802106	 -0.585996	 -0.123747	 -0.099618	 0.794589	 5
1461766148.283	 0	 0.030161	 -0.027772	 -0.000585	 -0.836985	 -1.134992	 -0.801740	 -0.585921	 -0.123865	 -0.099533	 0.794637	 5
1461766148.293	 0	 0.024125	 -0.036042	 -0.000641	 -0.836649	 -1.134859	 -0.801088	 -0.585822	 -0.123956	 -0.099406	 0.794711	 5
1461766148.302	 0	 0.011915	 -0.024327	 -0.000456	 -0.836646	 -1.134817	 -0.800807	 -0.585791	 -0.124047	 -0.099307	 0.794732	 5
1461766148.312	 0	 -0.002711	 -0.024368	 0.004587	 -0.836687	 -1.134818	 -0.800609	 -0.585781	 -0.124121	 -0.099215	 0.794739	 5
1461766148.321	 0	 0.005779	 -0.024311	 -0.002914	 -0.836824	 -1.134803	 -0.800521	 -0.585778	 -0.124205	 -0.099144	 0.794737	 5
1461766148.331	 0	 -0.003998	 -0.017280	 -0.000306	 -0.836945	 -1.134856	 -0.800522	 -0.585801	 -0.124240	 -0.099096	 0.794721	 5
1461766148.341	 0	 0.000792	 -0.011341	 0.004702	 -0.836896	 -1.134844	 -0.800345	 -0.585784	 -0.124275	 -0.099043	 0.794735	 5
1461766148.350	 0	 0.011834	 -0.021921	 -0.001676	 -0.836933	 -1.134795	 -0.800168	 -0.585759	 -0.124354	 -0.098974	 0.794749	 5
1461766148.360	 0	 0.017844	 -0.012459	 0.000877	 -0.836947	 -1.134717	 -0.799983	 -0.585724	 -0.124433	 -0.098916	 0.794770	 5
1461766148.370	 0	 0.020341	 -0.021880	 -0.001719	 -0.836960	 -1.134626	 -0.799786	 -0.585684	 -0.124519	 -0.098857	 0.794793	 5
1461766148.379	 0	 0.017866	 -0.017168	 0.000828	 -0.836780	 -1.134511	 -0.799393	 -0.585614	 -0.124591	 -0.098783	 0.794843	 5
1461766148.389	 0	 0.020315	 -0.027730	 0.004433	 -0.836717	 -1.134444	 -0.799028	 -0.585568	 -0.124690	 -0.098673	 0.794875	 5
1461766148.399	 0	 0.016658	 -0.025393	 0.004476	 -0.836720	 -1.134393	 -0.798763	 -0.585535	 -0.124782	 -0.098580	 0.794896	 5
1461766148.408	 0	 0.004499	 -0.026621	 0.005766	 -0.836937	 -1.134383	 -0.798673	 -0.585537	 -0.124897	 -0.098483	 0.794889	 5
1461766148.418	 0	 0.005784	 -0.027837	 -0.001708	 -0.837380	 -1.134314	 -0.798814	 -0.585546	 -0.125049	 -0.098427	 0.794865	 5
1461766148.427	 0	 -0.002826	 -0.019593	 0.005876	 -0.837654	 -1.134308	 -0.798896	 -0.585563	 -0.125135	 -0.098381	 0.794845	 5
1461766148.437	 0	 -0.012463	 -0.019698	 -0.004018	 -0.838075	 -1.134292	 -0.799136	 -0.585594	 -0.125236	 -0.098357	 0.794809	 5
1461766148.446	 0	 0.004562	 -0.019624	 -0.005345	 -0.838302	 -1.134208	 -0.799176	 -0.585581	 -0.125336	 -0.098327	 0.794806	 5
1461766148.456	 0	 0.034909	 -0.025321	 0.001898	 -0.838106	 -1.134019	 -0.798697	 -0.585483	 -0.125446	 -0.098242	 0.794872	 5
1461766148.466	 0	 0.030071	 -0.034748	 0.004309	 -0.838055	 -1.133940	 -0.798282	 -0.585430	 -0.125566	 -0.098113	 0.794908	 5
1461766148.475	 0	 0.039719	 -0.026459	 -0.000634	 -0.837654	 -1.133682	 -0.797541	 -0.585282	 -0.125688	 -0.098001	 0.795011	 5
1461766148.485	 0	 0.036016	 -0.019399	 0.001943	 -0.837621	 -1.133537	 -0.797184	 -0.585213	 -0.125816	 -0.097906	 0.795054	 5
1461766148.494	 0	 0.023854	 -0.008891	 -0.002856	 -0.837356	 -1.133389	 -0.796791	 -0.585129	 -0.125863	 -0.097864	 0.795113	 5
1461766148.504	 0	 0.020123	 -0.006502	 0.005886	 -0.836792	 -1.133420	 -0.796124	 -0.585069	 -0.125826	 -0.097756	 0.795177	 5
1461766148.514	 0	 0.015354	 -0.012455	 -0.001606	 -0.836406	 -1.133431	 -0.795633	 -0.585023	 -0.125813	 -0.097671	 0.795223	 5
1461766148.523	 0	 0.010496	 -0.024214	 0.004508	 -0.836075	 -1.133489	 -0.795069	 -0.584990	 -0.125832	 -0.097529	 0.795262	 5
1461766148.533	 0	 0.016620	 -0.040645	 0.008033	 -0.836060	 -1.133444	 -0.794696	 -0.584951	 -0.125947	 -0.097396	 0.795288	 5
1461766148.542	 0	 0.022735	 -0.041815	 0.004264	 -0.835574	 -1.133429	 -0.793811	 -0.584867	 -0.126016	 -0.097191	 0.795364	 5
1461766148.552	 0	 0.017901	 -0.040682	 0.000573	 -0.834969	 -1.133363	 -0.792845	 -0.584756	 -0.126074	 -0.097000	 0.795460	 5
1461766148.562	 0	 0.016616	 -0.041814	 0.009267	 -0.834981	 -1.133489	 -0.792423	 -0.584770	 -0.126171	 -0.096797	 0.795459	 5
1461766148.571	 0	 0.009284	 -0.033608	 0.009390	 -0.835064	 -1.133576	 -0.792134	 -0.584783	 -0.126267	 -0.096635	 0.795454	 5
1461766148.581	 0	 0.019072	 -0.040648	 0.005539	 -0.835314	 -1.133557	 -0.791967	 -0.584778	 -0.126420	 -0.096501	 0.795450	 5
1461766148.591	 0	 0.010447	 -0.042955	 0.020468	 -0.835556	 -1.133664	 -0.791734	 -0.584809	 -0.126557	 -0.096310	 0.795428	 5
1461766148.600	 0	 0.010554	 -0.045376	 0.009259	 -0.835785	 -1.133669	 -0.791503	 -0.584807	 -0.126715	 -0.096150	 0.795424	 5
1461766148.610	 0	 0.000820	 -0.040726	 -0.000598	 -0.836164	 -1.133664	 -0.791489	 -0.584822	 -0.126871	 -0.096035	 0.795402	 5
1461766148.619	 0	 -0.006449	 -0.045470	 -0.000611	 -0.836791	 -1.133727	 -0.791660	 -0.584883	 -0.127054	 -0.095904	 0.795344	 5
1461766148.629	 0	 -0.001633	 -0.038376	 0.000681	 -0.837328	 -1.133753	 -0.791798	 -0.584926	 -0.127221	 -0.095795	 0.795299	 5
1461766148.639	 0	 -0.007815	 -0.040679	 0.014355	 -0.837719	 -1.133799	 -0.791804	 -0.584959	 -0.127363	 -0.095671	 0.795266	 5
1461766148.648	 0	 -0.013877	 -0.054798	 0.020450	 -0.837921	 -1.133982	 -0.791521	 -0.585008	 -0.127481	 -0.095453	 0.795237	 5
1461766148.658	 0	 -0.005276	 -0.063035	 0.014109	 -0.838217	 -1.134114	 -0.791256	 -0.585047	 -0.127643	 -0.095228	 0.795210	 5
1461766148.667	 0	 -0.017488	 -0.044279	 0.010639	 -0.838829	 -1.134268	 -0.791378	 -0.585132	 -0.127812	 -0.095059	 0.795141	 5
1461766148.677	 0	 -0.010282	 -0.021891	 0.008352	 -0.839090	 -1.134407	 -0.791398	 -0.585189	 -0.127876	 -0.094955	 0.795101	 5
1461766148.687	 0	 0.004360	 -0.023035	 0.002054	 -0.839325	 -1.134358	 -0.791404	 -0.585186	 -0.127979	 -0.094901	 0.795093	 5
1461766148.696	 0	 0.014086	 -0.014777	 -0.002879	 -0.839225	 -1.134178	 -0.791129	 -0.585107	 -0.128066	 -0.094866	 0.795141	 5
1461766148.706	 0	 0.012853	 -0.008904	 -0.004054	 -0.839300	 -1.134060	 -0.791074	 -0.585070	 -0.128141	 -0.094853	 0.795158	 5
1461766148.715	 0	 0.027414	 -0.004125	 -0.004077	 -0.839123	 -1.133817	 -0.790781	 -0.584967	 -0.128217	 -0.094849	 0.795222	 5
1461766148.725	 0	 0.017592	 0.007630	 0.001065	 -0.838788	 -1.133722	 -0.790458	 -0.584900	 -0.128202	 -0.094843	 0.795274	 5
1461766148.735	 0	 0.009102	 0.004058	 0.001071	 -0.838299	 -1.133607	 -0.790040	 -0.584814	 -0.128158	 -0.094849	 0.795344	 5
1461766148.744	 0	 0.011609	 0.001671	 -0.006422	 -0.838164	 -1.133508	 -0.789914	 -0.584769	 -0.128165	 -0.094863	 0.795374	 5
1461766148.754	 0	 -0.001843	 -0.005375	 0.007239	 -0.838000	 -1.133492	 -0.789690	 -0.584741	 -0.128170	 -0.094826	 0.795398	 5
1461766148.763	 0	 0.000713	 -0.028793	 -0.004241	 -0.837962	 -1.133487	 -0.789478	 -0.584724	 -0.128218	 -0.094754	 0.795411	 5
1461766148.773	 0	 -0.010170	 -0.053523	 0.003010	 -0.838211	 -1.133638	 -0.789320	 -0.584773	 -0.128326	 -0.094580	 0.795379	 5
1461766148.783	 0	 -0.005337	 -0.047614	 0.003048	 -0.838652	 -1.133756	 -0.789295	 -0.584830	 -0.128479	 -0.094412	 0.795333	 5
1461766148.792	 0	 -0.006585	 -0.045250	 0.005564	 -0.839131	 -1.133833	 -0.789318	 -0.584878	 -0.128644	 -0.094261	 0.795288	 5
1461766148.802	 0	 0.001967	 -0.052281	 0.004205	 -0.839445	 -1.133875	 -0.789166	 -0.584896	 -0.128802	 -0.094098	 0.795268	 5
1461766148.812	 0	 0.008103	 -0.055813	 -0.000832	 -0.839845	 -1.133848	 -0.789016	 -0.584897	 -0.129012	 -0.093929	 0.795254	 5
1461766148.821	 0	 0.008068	 -0.044054	 -0.003194	 -0.840048	 -1.133708	 -0.788769	 -0.584846	 -0.129200	 -0.093807	 0.795275	 5
1461766148.831	 0	 0.011701	 -0.034641	 -0.006841	 -0.840071	 -1.133498	 -0.788440	 -0.584760	 -0.129358	 -0.093722	 0.795323	 5
1461766148.841	 0	 0.005553	 -0.024059	 -0.004214	 -0.840039	 -1.133377	 -0.788176	 -0.584704	 -0.129452	 -0.093657	 0.795357	 5
1461766148.850	 0	 -0.002970	 -0.022915	 -0.002917	 -0.840067	 -1.133169	 -0.788022	 -0.584630	 -0.129560	 -0.093640	 0.795395	 5
1461766148.860	 0	 0.016284	 -0.007437	 0.010815	 -0.839839	 -1.133032	 -0.787661	 -0.584553	 -0.129609	 -0.093598	 0.795449	 5
1461766148.869	 0	 -0.004348	 -0.006380	 0.007202	 -0.839677	 -1.132949	 -0.787422	 -0.584504	 -0.129635	 -0.093571	 0.795484	 5
1461766148.879	 0	 0.012701	 -0.013363	 0.007043	 -0.839377	 -1.132826	 -0.786997	 -0.584424	 -0.129671	 -0.093521	 0.795543	 5
1461766148.889	 0	 0.017591	 -0.016879	 0.005739	 -0.838899	 -1.132629	 -0.786362	 -0.584298	 -0.129715	 -0.093458	 0.795635	 5
1461766148.898	 0	 0.020139	 -0.016948	 -0.007942	 -0.838876	 -1.132480	 -0.786157	 -0.584237	 -0.129802	 -0.093420	 0.795670	 5
1461766148.908	 0	 0.016437	 -0.005192	 -0.007801	 -0.838732	 -1.132260	 -0.785938	 -0.584147	 -0.129864	 -0.093431	 0.795725	 5
1461766148.917	 0	 0.010300	 0.015940	 -0.012519	 -0.839098	 -1.132177	 -0.786347	 -0.584165	 -0.129911	 -0.093508	 0.795695	 5
1461766148.927	 0	 0.018658	 0.012702	 -0.005186	 -0.839162	 -1.132047	 -0.786517	 -0.584138	 -0.129919	 -0.093590	 0.795704	 5
1461766148.937	 0	 0.014926	 0.015090	 0.003554	 -0.839013	 -1.131876	 -0.786453	 -0.584073	 -0.129921	 -0.093651	 0.795744	 5
1461766148.946	 0	 0.010101	 0.000962	 0.007158	 -0.838526	 -1.131826	 -0.785987	 -0.584004	 -0.129876	 -0.093620	 0.795806	 5
1461766148.956	 0	 0.004043	 -0.007292	 0.009588	 -0.837751	 -1.131890	 -0.785197	 -0.583937	 -0.129782	 -0.093516	 0.795883	 5
1461766148.965	 0	 0.004120	 -0.012038	 0.003325	 -0.837675	 -1.131911	 -0.785011	 -0.583928	 -0.129801	 -0.093459	 0.795893	 5
1461766148.975	 0	 0.021229	 -0.022581	 -0.001841	 -0.836995	 -1.131803	 -0.784200	 -0.583809	 -0.129794	 -0.093362	 0.795992	 5
1461766148.985	 0	 0.007893	 -0.017972	 -0.007937	 -0.836799	 -1.131629	 -0.783830	 -0.583721	 -0.129867	 -0.093316	 0.796050	 5
1461766148.994	 0	 0.005347	 -0.009691	 0.000859	 -0.836901	 -1.131563	 -0.783820	 -0.583705	 -0.129927	 -0.093298	 0.796055	 5
1461766149.004	 0	 0.023657	 -0.010834	 -0.007942	 -0.836662	 -1.131363	 -0.783488	 -0.583609	 -0.129978	 -0.093287	 0.796118	 5
1461766149.013	 0	 0.016265	 0.003281	 -0.004029	 -0.836383	 -1.131192	 -0.783181	 -0.583522	 -0.129999	 -0.093289	 0.796178	 5
1461766149.023	 0	 0.023550	 -0.008413	 0.003267	 -0.835998	 -1.131152	 -0.782715	 -0.583461	 -0.129991	 -0.093226	 0.796231	 5
1461766149.033	 0	 0.027277	 -0.011971	 -0.004244	 -0.835813	 -1.131089	 -0.782356	 -0.583410	 -0.130038	 -0.093153	 0.796270	 5
1461766149.042	 0	 0.029732	 -0.023710	 -0.000651	 -0.835622	 -1.130884	 -0.781886	 -0.583305	 -0.130150	 -0.093073	 0.796337	 5
1461766149.052	 0	 0.023665	 -0.021399	 -0.003081	 -0.835445	 -1.130717	 -0.781463	 -0.583217	 -0.130244	 -0.092998	 0.796395	 5
1461766149.061	 0	 0.015164	 -0.024965	 -0.001834	 -0.835629	 -1.130664	 -0.781354	 -0.583202	 -0.130362	 -0.092914	 0.796397	 5
1461766149.071	 0	 0.012753	 -0.037897	 0.003013	 -0.835804	 -1.130618	 -0.781156	 -0.583182	 -0.130501	 -0.092796	 0.796402	 5
1461766149.081	 0	 -0.003209	 -0.036534	 0.008027	 -0.836056	 -1.130693	 -0.781039	 -0.583210	 -0.130617	 -0.092657	 0.796379	 5
1461766149.090	 0	 -0.009256	 -0.044796	 0.009213	 -0.836138	 -1.130712	 -0.780751	 -0.583201	 -0.130729	 -0.092514	 0.796384	 5
1461766149.100	 0	 -0.005522	 -0.047184	 0.000472	 -0.836265	 -1.130671	 -0.780501	 -0.583178	 -0.130863	 -0.092387	 0.796394	 5
1461766149.110	 0	 0.001662	 -0.029475	 0.003107	 -0.836551	 -1.130698	 -0.780448	 -0.583196	 -0.130986	 -0.092276	 0.796373	 5
1461766149.119	 0	 0.007771	 -0.029468	 -0.000651	 -0.836461	 -1.130633	 -0.780113	 -0.583149	 -0.131063	 -0.092185	 0.796405	 5
1461766149.129	 0	 0.035685	 -0.023441	 0.000514	 -0.836008	 -1.130418	 -0.779380	 -0.583013	 -0.131150	 -0.092080	 0.796503	 5
1461766149.138	 0	 0.041652	 -0.018645	 0.010475	 -0.835639	 -1.130188	 -0.778739	 -0.582881	 -0.131246	 -0.091990	 0.796594	 5
1461766149.148	 0	 0.055161	 -0.023370	 -0.003310	 -0.835187	 -1.129882	 -0.777985	 -0.582714	 -0.131362	 -0.091898	 0.796708	 5
1461766149.158	 0	 0.051472	 -0.025706	 0.002896	 -0.834883	 -1.129600	 -0.777364	 -0.582570	 -0.131491	 -0.091810	 0.796802	 5
1461766149.167	 0	 0.039435	 -0.041098	 -0.002174	 -0.834765	 -1.129518	 -0.776823	 -0.582503	 -0.131622	 -0.091650	 0.796848	 5
1461766149.177	 0	 0.038232	 -0.048153	 0.000243	 -0.834774	 -1.129339	 -0.776300	 -0.582412	 -0.131822	 -0.091483	 0.796900	 5
1461766149.186	 0	 0.018874	 -0.075294	 0.005026	 -0.835340	 -1.129270	 -0.776150	 -0.582407	 -0.132108	 -0.091276	 0.796881	 5
1461766149.196	 0	 0.005515	 -0.068323	 0.000196	 -0.835817	 -1.129201	 -0.775945	 -0.582393	 -0.132375	 -0.091073	 0.796870	 5
1461766149.206	 0	 -0.016334	 -0.084873	 0.006344	 -0.836883	 -1.129249	 -0.776229	 -0.582475	 -0.132705	 -0.090864	 0.796778	 5
1461766149.215	 0	 -0.028522	 -0.073173	 0.004043	 -0.838007	 -1.129295	 -0.776608	 -0.582566	 -0.133031	 -0.090676	 0.796679	 5
1461766149.225	 0	 -0.035908	 -0.066074	 -0.002107	 -0.839032	 -1.129346	 -0.777041	 -0.582658	 -0.133300	 -0.090537	 0.796583	 5
1461766149.234	 0	 -0.029956	 -0.040145	 -0.001865	 -0.840038	 -1.129421	 -0.777631	 -0.582766	 -0.133511	 -0.090459	 0.796477	 5
1461766149.244	 0	 -0.016654	 -0.013049	 -0.009104	 -0.840781	 -1.129319	 -0.778225	 -0.582807	 -0.133659	 -0.090505	 0.796417	 5
1461766149.254	 0	 0.003994	 0.011699	 -0.021374	 -0.841063	 -1.129004	 -0.778594	 -0.582745	 -0.133742	 -0.090650	 0.796432	 5
1461766149.263	 0	 0.028243	 0.023587	 -0.021372	 -0.840908	 -1.128612	 -0.778591	 -0.582615	 -0.133778	 -0.090792	 0.796505	 5
1461766149.273	 0	 0.052521	 0.029590	 -0.021431	 -0.840198	 -1.128144	 -0.778133	 -0.582404	 -0.133744	 -0.090934	 0.796649	 5
1461766149.283	 0	 0.065865	 0.021456	 -0.014129	 -0.839460	 -1.127606	 -0.777509	 -0.582159	 -0.133764	 -0.091037	 0.796813	 5
1461766149.292	 0	 0.050020	 0.028452	 -0.012733	 -0.838478	 -1.127272	 -0.776707	 -0.581955	 -0.133689	 -0.091087	 0.796968	 5
1461766149.302	 0	 0.043889	 0.033154	 -0.008925	 -0.837724	 -1.126994	 -0.776182	 -0.581798	 -0.133610	 -0.091167	 0.797088	 5
1461766149.311	 0	 0.024441	 0.040103	 -0.012482	 -0.837014	 -1.126888	 -0.775795	 -0.581706	 -0.133466	 -0.091246	 0.797170	 5
1461766149.321	 0	 -0.001118	 0.038833	 -0.007396	 -0.836523	 -1.127024	 -0.775689	 -0.581719	 -0.133267	 -0.091312	 0.797185	 5
1461766149.331	 0	 0.001358	 0.029426	 -0.007507	 -0.836315	 -1.126974	 -0.775809	 -0.581702	 -0.133162	 -0.091433	 0.797202	 5
1461766149.340	 0	 0.001533	 -0.004721	 -0.009106	 -0.836206	 -1.127265	 -0.775764	 -0.581786	 -0.133060	 -0.091374	 0.797164	 5
1461766149.350	 0	 0.021031	 -0.026959	 -0.003222	 -0.835922	 -1.127543	 -0.775290	 -0.581830	 -0.133016	 -0.091198	 0.797160	 5
1461766149.359	 0	 0.027309	 -0.062270	 -0.007348	 -0.835619	 -1.127848	 -0.774496	 -0.581860	 -0.133051	 -0.090893	 0.797167	 5
1461766149.369	 0	 0.041887	 -0.083318	 0.004785	 -0.835144	 -1.127993	 -0.773239	 -0.581800	 -0.133192	 -0.090493	 0.797232	 5
1461766149.379	 0	 0.050392	 -0.096183	 0.012065	 -0.834627	 -1.128063	 -0.771738	 -0.581699	 -0.133405	 -0.090028	 0.797323	 5
1461766149.388	 0	 0.049139	 -0.094989	 0.015813	 -0.834359	 -1.128057	 -0.770478	 -0.581601	 -0.133666	 -0.089605	 0.797398	 5
1461766149.398	 0	 0.052764	 -0.097303	 0.019499	 -0.833849	 -1.127981	 -0.768988	 -0.581455	 -0.133915	 -0.089178	 0.797512	 5
1461766149.407	 0	 0.038276	 -0.112692	 0.016925	 -0.834029	 -1.127819	 -0.768026	 -0.581347	 -0.134306	 -0.088783	 0.797569	 5
1461766149.417	 0	 0.046800	 -0.136131	 0.027821	 -0.833919	 -1.127920	 -0.766595	 -0.581278	 -0.134653	 -0.088219	 0.797623	 5
1461766149.427	 0	 0.043186	 -0.151423	 0.032650	 -0.833714	 -1.128055	 -0.764921	 -0.581199	 -0.135025	 -0.087577	 0.797688	 5
1461766149.436	 0	 0.062780	 -0.169032	 0.024914	 -0.833404	 -1.128159	 -0.762969	 -0.581086	 -0.135443	 -0.086863	 0.797777	 5
1461766149.446	 0	 0.061573	 -0.179604	 0.029781	 -0.833297	 -1.128100	 -0.761067	 -0.580934	 -0.135967	 -0.086149	 0.797877	 5
1461766149.456	 0	 0.070024	 -0.170138	 0.031080	 -0.833526	 -1.127928	 -0.759471	 -0.580780	 -0.136564	 -0.085490	 0.797958	 5
1461766149.465	 0	 0.088094	 -0.157035	 0.042310	 -0.833356	 -1.127753	 -0.757549	 -0.580586	 -0.137097	 -0.084816	 0.798080	 5
1461766149.475	 0	 0.072301	 -0.158288	 0.042376	 -0.833226	 -1.127562	 -0.755690	 -0.580391	 -0.137631	 -0.084159	 0.798198	 5
1461766149.484	 0	 0.078404	 -0.159451	 0.039848	 -0.833198	 -1.127402	 -0.753941	 -0.580219	 -0.138166	 -0.083509	 0.798300	 5
1461766149.494	 0	 0.082062	 -0.164135	 0.041024	 -0.832696	 -1.127183	 -0.751724	 -0.579974	 -0.138662	 -0.082824	 0.798463	 5
1461766149.504	 0	 0.078195	 -0.163736	 0.045938	 -0.832318	 -1.126921	 -0.749593	 -0.579727	 -0.139192	 -0.082148	 0.798620	 5
1461766149.513	 0	 0.090444	 -0.161396	 0.033476	 -0.832069	 -1.126562	 -0.747615	 -0.579464	 -0.139753	 -0.081519	 0.798778	 5
1461766149.523	 0	 0.090481	 -0.177849	 0.038274	 -0.831630	 -1.126202	 -0.745318	 -0.579170	 -0.140330	 -0.080818	 0.798961	 5
1461766149.532	 0	 0.094117	 -0.177824	 0.039498	 -0.831322	 -1.125846	 -0.743090	 -0.578886	 -0.140937	 -0.080105	 0.799131	 5
1461766149.542	 0	 0.091724	 -0.176687	 0.034552	 -0.830951	 -1.125456	 -0.740834	 -0.578587	 -0.141536	 -0.079408	 0.799312	 5
1461766149.552	 0	 0.090387	 -0.164876	 0.042137	 -0.830592	 -1.125170	 -0.738692	 -0.578328	 -0.142081	 -0.078726	 0.799469	 5
1461766149.561	 0	 0.091593	 -0.164863	 0.043375	 -0.829896	 -1.124763	 -0.736220	 -0.577994	 -0.142615	 -0.078039	 0.799683	 5
1461766149.571	 0	 0.087881	 -0.162489	 0.049630	 -0.829701	 -1.124620	 -0.734244	 -0.577799	 -0.143142	 -0.077341	 0.799798	 5
1461766149.580	 0	 0.109819	 -0.157735	 0.039630	 -0.829241	 -1.124341	 -0.732030	 -0.577533	 -0.143664	 -0.076657	 0.799963	 5
