% Gyrometer data recorded with 'snsrlog'
% 
% 
% Label description:
% 	 0: Default Label
% 	 1: still_drop
% 	 2: walk_drop
% 	 3: other
% 	 4: dtw_same
% 	 5: dtw_diff
% 	 6: delete
% 	 7: steal
% 
% Column description:
% 	 1: Seconds.milliseconds since 1970
% 	 2: Number of skipped measurements
% 	 3: Gyro X
% 	 4: Gyro Y
% 	 5: Gyro Z
% 	 6: Roll of the device
% 	 7: Pitch of the device
% 	 8: Yaw of the device
% 	 9: Quaternion X
% 	 10: Quaternion Y
% 	 11: Quaternion Z
% 	 12: Quaternion W
% 	 13: Label used for the current sample
% 
% 
1463571731.470	 0	 -1.408540	 1.224896	 -0.544061	 0.185565	 0.596005	 0.155508	 0.284586	 0.111006	 0.101053	 0.946825	 2
1463571731.480	 0	 -1.449485	 1.243283	 -0.665030	 0.200259	 0.580723	 0.151296	 0.276811	 0.117033	 0.100587	 0.948452	 2
1463571731.490	 0	 -1.552110	 1.274897	 -0.746972	 0.215517	 0.564314	 0.146564	 0.268507	 0.123287	 0.099778	 0.950131	 2
1463571731.500	 0	 -1.659197	 1.242905	 -0.801757	 0.230595	 0.546644	 0.141749	 0.259622	 0.129482	 0.098709	 0.951886	 2
1463571731.510	 0	 -1.730072	 1.167441	 -0.823157	 0.244819	 0.528044	 0.137178	 0.250325	 0.135347	 0.097455	 0.953688	 2
1463571731.520	 0	 -1.728332	 1.072869	 -0.810198	 0.257827	 0.509225	 0.133060	 0.240957	 0.140743	 0.096112	 0.955455	 2
1463571731.530	 0	 -1.643109	 1.013295	 -0.777390	 0.269837	 0.491054	 0.129376	 0.231921	 0.145772	 0.094761	 0.957070	 2
1463571731.540	 0	 -1.477263	 1.055778	 -0.718756	 0.281730	 0.474398	 0.126072	 0.223595	 0.150853	 0.093550	 0.958383	 2
1463571731.550	 0	 -1.249659	 1.277979	 -0.639803	 0.295158	 0.459975	 0.123162	 0.216249	 0.156778	 0.092728	 0.959197	 2
1463571731.560	 0	 -0.995866	 1.656160	 -0.601192	 0.311959	 0.448058	 0.120247	 0.209965	 0.164379	 0.092324	 0.959359	 2
1463571731.570	 0	 -0.830585	 2.120130	 -0.648405	 0.333562	 0.437875	 0.116636	 0.204370	 0.174254	 0.092099	 0.958846	 2
1463571731.580	 0	 -0.844518	 2.427804	 -0.760523	 0.359068	 0.427618	 0.112180	 0.198662	 0.185934	 0.091734	 0.957887	 2
1463571731.590	 0	 -1.126819	 2.466613	 -0.949541	 0.385707	 0.414701	 0.107164	 0.191717	 0.198107	 0.090838	 0.956947	 2
1463571731.600	 0	 -1.552288	 2.704667	 -1.148247	 0.414018	 0.397069	 0.102244	 0.182473	 0.211097	 0.089512	 0.956101	 2
1463571731.610	 0	 -1.767093	 2.967142	 -1.267563	 0.444779	 0.376159	 0.097821	 0.171557	 0.225329	 0.088035	 0.955011	 2
1463571731.620	 0	 -1.787893	 3.105274	 -1.294872	 0.476904	 0.354392	 0.093957	 0.160175	 0.240288	 0.086507	 0.953479	 2
1463571731.630	 0	 -1.704770	 3.314493	 -1.304307	 0.510506	 0.332989	 0.090502	 0.148929	 0.255998	 0.084966	 0.951350	 2
1463571731.640	 0	 -1.571928	 3.934736	 -1.375361	 0.549257	 0.312310	 0.086749	 0.137936	 0.274128	 0.083364	 0.948092	 2
1463571731.650	 0	 -1.440632	 4.741642	 -1.520334	 0.596062	 0.291901	 0.082061	 0.126988	 0.295975	 0.081462	 0.943206	 2
1463571731.660	 0	 -1.294941	 5.424139	 -1.654867	 0.650278	 0.271597	 0.076425	 0.116103	 0.321170	 0.079083	 0.936545	 2
1463571731.670	 0	 -1.119962	 5.897755	 -1.689291	 0.711048	 0.251442	 0.070056	 0.105383	 0.349239	 0.076191	 0.927966	 2
1463571731.680	 0	 -0.996217	 6.255493	 -1.588990	 0.774020	 0.232970	 0.064871	 0.095413	 0.378157	 0.073669	 0.917860	 2
1463571731.690	 0	 -0.949235	 6.363843	 -1.442381	 0.838385	 0.215670	 0.061452	 0.085830	 0.407488	 0.071684	 0.906338	 2
1463571731.700	 0	 -0.802962	 6.050532	 -1.320810	 0.900400	 0.199866	 0.059254	 0.076960	 0.435446	 0.069932	 0.894189	 2
1463571731.710	 0	 -0.429596	 5.409615	 -1.402497	 0.956945	 0.185739	 0.055286	 0.069619	 0.460540	 0.067112	 0.882356	 2
1463571731.720	 0	 0.058638	 4.905801	 -1.745020	 1.008532	 0.171653	 0.046574	 0.063822	 0.483004	 0.061718	 0.871106	 2
1463571731.730	 0	 0.543888	 4.799763	 -2.237285	 1.058964	 0.155702	 0.031963	 0.059067	 0.504565	 0.053027	 0.859717	 2
1463571731.740	 0	 1.010455	 5.043600	 -2.744249	 1.111547	 0.136659	 0.011607	 0.054945	 0.526697	 0.040940	 0.847287	 2
1463571731.750	 0	 1.447147	 5.607761	 -3.092372	 1.169122	 0.114864	 -0.013369	 0.051551	 0.550591	 0.026110	 0.832772	 2
1463571731.760	 0	 1.761392	 6.378236	 -3.346919	 1.233824	 0.090340	 -0.041160	 0.048717	 0.577049	 0.009349	 0.815202	 2
1463571731.770	 0	 1.875782	 6.847349	 -3.585478	 1.303571	 0.062235	 -0.069484	 0.045780	 0.605088	 -0.008739	 0.794793	 2
1463571731.780	 0	 1.782153	 6.896814	 -3.842116	 1.373841	 0.029670	 -0.095843	 0.041832	 0.632812	 -0.027638	 0.772681	 2
1463571731.790	 0	 1.612994	 6.567656	 -4.126133	 1.440853	 -0.007606	 -0.118733	 0.036288	 0.658708	 -0.047093	 0.750046	 2
1463571731.800	 0	 1.559701	 5.897959	 -4.388750	 1.501131	 -0.049180	 -0.138543	 0.029257	 0.681455	 -0.067333	 0.728168	 2
1463571731.810	 0	 1.721268	 4.881528	 -4.417733	 1.551335	 -0.092659	 -0.157207	 0.021959	 0.699878	 -0.088329	 0.708439	 2
1463571731.820	 0	 2.007243	 3.790982	 -4.203363	 1.589702	 -0.135375	 -0.176609	 0.015615	 0.713528	 -0.109714	 0.691807	 2
1463571731.830	 0	 2.371168	 2.792917	 -3.818290	 1.616672	 -0.175296	 -0.198352	 0.011161	 0.722810	 -0.131116	 0.678403	 2
1463571731.840	 0	 2.712623	 2.089895	 -3.530457	 1.634272	 -0.212580	 -0.223118	 0.008573	 0.728649	 -0.152631	 0.667609	 2
1463571731.850	 0	 2.960041	 1.727351	 -3.410225	 1.646040	 -0.248848	 -0.250432	 0.007130	 0.732378	 -0.174550	 0.658106	 2
1463571731.860	 0	 3.083491	 1.625139	 -3.374949	 1.654763	 -0.284950	 -0.279268	 0.006255	 0.734986	 -0.196757	 0.648879	 2
1463571731.870	 0	 3.118277	 1.821274	 -3.448030	 1.663541	 -0.321795	 -0.308589	 0.005497	 0.737495	 -0.219183	 0.638772	 2
1463571731.880	 0	 3.165956	 2.289418	 -3.553863	 1.675222	 -0.360019	 -0.338166	 0.004907	 0.740779	 -0.241936	 0.626650	 2
1463571731.890	 0	 3.339438	 2.891774	 -3.581741	 1.691207	 -0.399267	 -0.369003	 0.005264	 0.745190	 -0.265157	 0.611846	 2
1463571731.900	 0	 3.645772	 3.287126	 -3.500797	 1.709586	 -0.438851	 -0.402690	 0.007274	 0.750043	 -0.289019	 0.594853	 2
1463571731.910	 0	 3.992431	 3.307776	 -3.300063	 1.726178	 -0.477791	 -0.440284	 0.011097	 0.754049	 -0.313393	 0.577124	 2
1463571731.920	 0	 4.246192	 3.016638	 -3.010831	 1.737488	 -0.514999	 -0.481719	 0.016412	 0.756261	 -0.337793	 0.560086	 2
1463571731.930	 0	 4.283650	 2.530771	 -2.674634	 1.741925	 -0.549432	 -0.525385	 0.022464	 0.756380	 -0.361378	 0.544784	 2
1463571731.940	 0	 4.106091	 1.922278	 -2.321720	 1.739309	 -0.580228	 -0.569109	 0.028429	 0.754537	 -0.383320	 0.531914	 2
1463571731.950	 0	 3.781841	 1.243726	 -2.008680	 1.730014	 -0.607101	 -0.611039	 0.033559	 0.750987	 -0.403147	 0.521886	 2
1463571731.960	 0	 3.395260	 0.523445	 -1.755168	 1.714426	 -0.630327	 -0.650066	 0.037269	 0.745940	 -0.420803	 0.514888	 2
1463571731.970	 0	 2.991545	 -0.164206	 -1.555556	 1.693192	 -0.650326	 -0.685621	 0.039242	 0.739625	 -0.436396	 0.510856	 2
1463571731.980	 0	 2.609824	 -0.701003	 -1.371785	 1.667812	 -0.667391	 -0.717631	 0.039631	 0.732441	 -0.450075	 0.509305	 2
1463571731.990	 0	 2.290839	 -1.067738	 -1.178452	 1.639938	 -0.681590	 -0.746494	 0.038935	 0.724782	 -0.462010	 0.509629	 2
1463571732.000	 0	 2.069457	 -1.344235	 -0.969142	 1.610263	 -0.692957	 -0.773169	 0.037682	 0.716769	 -0.472508	 0.511427	 2
1463571732.010	 0	 1.883605	 -1.592851	 -0.714054	 1.578940	 -0.701237	 -0.797998	 0.036159	 0.708381	 -0.481650	 0.514686	 2
1463571732.020	 0	 1.808396	 -1.744516	 -0.391885	 1.546351	 -0.705843	 -0.821898	 0.035027	 0.699623	 -0.489586	 0.519237	 2
1463571732.030	 0	 1.815936	 -1.788873	 -0.052385	 1.513018	 -0.706452	 -0.845769	 0.034888	 0.690522	 -0.496549	 0.524787	 2
1463571732.040	 0	 1.789484	 -1.760082	 0.240132	 1.480151	 -0.703415	 -0.869180	 0.035806	 0.681323	 -0.502588	 0.530964	 2
1463571732.050	 0	 1.675570	 -1.687720	 0.492251	 1.449127	 -0.697330	 -0.890807	 0.037511	 0.672365	 -0.507536	 0.537518	 2
1463571732.060	 0	 1.460116	 -1.620620	 0.711101	 1.421004	 -0.688740	 -0.909267	 0.039674	 0.663942	 -0.511158	 0.544357	 2
1463571732.070	 0	 1.073755	 -1.576509	 0.917371	 1.396760	 -0.678306	 -0.922479	 0.041687	 0.656390	 -0.513005	 0.551580	 2
1463571732.080	 0	 0.616067	 -1.487588	 1.114020	 1.377479	 -0.666473	 -0.929154	 0.043323	 0.650093	 -0.512744	 0.559103	 2
1463571732.090	 0	 0.192246	 -1.409823	 1.252720	 1.362860	 -0.653925	 -0.929725	 0.044454	 0.645056	 -0.510574	 0.566781	 2
1463571732.100	 0	 -0.133475	 -1.325106	 1.362921	 1.351953	 -0.640998	 -0.925461	 0.045152	 0.641060	 -0.506877	 0.574525	 2
1463571732.110	 0	 -0.350358	 -1.241788	 1.471095	 1.343864	 -0.627600	 -0.917839	 0.045708	 0.637850	 -0.502024	 0.582262	 2
1463571732.130	 1	 -0.775064	 -1.406052	 1.674693	 1.330979	 -0.598716	 -0.895237	 0.046233	 0.632264	 -0.489470	 0.598769	 2
1463571732.140	 1	 -1.540435	 -1.751835	 1.496960	 1.325542	 -0.586790	 -0.875250	 0.043124	 0.630116	 -0.480972	 0.608079	 2
1463571732.150	 1	 -2.131961	 -1.883368	 1.306918	 1.321900	 -0.578761	 -0.847779	 0.036663	 0.628926	 -0.470859	 0.617576	 2
1463571732.160	 1	 -1.933359	 -1.748949	 1.442857	 1.318918	 -0.570387	 -0.820288	 0.030525	 0.627840	 -0.460485	 0.626768	 2
1463571732.170	 1	 -1.251221	 -1.406247	 1.895187	 1.315458	 -0.556859	 -0.798573	 0.028107	 0.626101	 -0.450613	 0.635732	 2
1463571732.180	 1	 -0.581278	 -0.942186	 2.357279	 1.312721	 -0.536949	 -0.783590	 0.030450	 0.624036	 -0.441276	 0.644149	 2
1463571732.190	 1	 -0.205667	 -0.609412	 2.490325	 1.311253	 -0.513598	 -0.773033	 0.035809	 0.622056	 -0.432429	 0.651743	 2
1463571732.200	 1	 -0.202852	 -0.662674	 2.187129	 1.309155	 -0.491998	 -0.764441	 0.040995	 0.619940	 -0.424546	 0.658600	 2
1463571732.210	 1	 -0.626284	 -0.865068	 1.680563	 1.305997	 -0.475768	 -0.753619	 0.043228	 0.617905	 -0.417152	 0.665063	 2
1463571732.220	 1	 -1.162657	 -1.004592	 1.144659	 1.303024	 -0.466215	 -0.738756	 0.041710	 0.616512	 -0.409948	 0.670906	 2
1463571732.230	 1	 -1.626107	 -1.076366	 0.886915	 1.300963	 -0.461323	 -0.719617	 0.037286	 0.615839	 -0.402355	 0.676360	 2
1463571732.240	 1	 -1.718751	 -1.064133	 0.923006	 1.299710	 -0.457288	 -0.698362	 0.032056	 0.615500	 -0.394171	 0.681734	 2
1463571732.250	 1	 -1.397218	 -0.982422	 1.173552	 1.297992	 -0.450693	 -0.679005	 0.028328	 0.614762	 -0.385943	 0.687250	 2
1463571732.260	 1	 -0.911582	 -0.600387	 1.543764	 1.297513	 -0.439507	 -0.663700	 0.027884	 0.614085	 -0.377882	 0.692334	 2
1463571732.270	 1	 -0.613859	 -0.174734	 1.839283	 1.299960	 -0.424191	 -0.651356	 0.030510	 0.614130	 -0.369701	 0.696587	 2
1463571732.280	 1	 -0.649173	 -0.013641	 1.892246	 1.304419	 -0.407547	 -0.639307	 0.034096	 0.614816	 -0.361175	 0.700280	 2
1463571732.290	 1	 -0.900800	 -0.001779	 1.666474	 1.309857	 -0.392966	 -0.625671	 0.036535	 0.616038	 -0.352522	 0.703484	 2
1463571732.300	 1	 -1.170881	 -0.127343	 1.256273	 1.314743	 -0.382600	 -0.610354	 0.036688	 0.617396	 -0.344319	 0.706343	 2
1463571732.310	 1	 -1.243296	 -0.290841	 0.682002	 1.317671	 -0.377525	 -0.595128	 0.034453	 0.618398	 -0.337537	 0.708849	 2
1463571732.320	 1	 -1.153521	 -0.114419	 -0.033330	 1.320494	 -0.379045	 -0.582384	 0.030391	 0.619692	 -0.333376	 0.709872	 2
1463571732.330	 1	 -0.999772	 0.701278	 -0.716627	 1.328436	 -0.386933	 -0.573014	 0.025743	 0.623066	 -0.332058	 0.707717	 2
1463571732.340	 1	 -1.061542	 2.236174	 -1.166479	 1.349800	 -0.399763	 -0.564867	 0.021784	 0.631321	 -0.332408	 0.700332	 2
1463571732.350	 1	 -1.102247	 3.455209	 -1.310382	 1.385447	 -0.414626	 -0.555872	 0.019161	 0.644434	 -0.333017	 0.688067	 2
1463571732.360	 1	 -0.950229	 3.981485	 -1.278033	 1.427640	 -0.429008	 -0.547462	 0.018027	 0.659398	 -0.333825	 0.673373	 2
1463571732.370	 1	 -0.827770	 4.331449	 -1.223620	 1.473233	 -0.442269	 -0.539786	 0.018164	 0.675020	 -0.334708	 0.657259	 2
1463571732.380	 1	 -0.881698	 5.196681	 -1.320610	 1.527126	 -0.455801	 -0.531165	 0.019319	 0.692840	 -0.335456	 0.638020	 2
1463571732.390	 1	 -0.725064	 5.169426	 -1.348871	 1.583232	 -0.469413	 -0.522629	 0.020905	 0.710710	 -0.336410	 0.617481	 2
1463571732.400	 1	 -0.181813	 4.167919	 -1.219043	 1.629818	 -0.481940	 -0.518299	 0.022854	 0.724991	 -0.338552	 0.599373	 2
1463571732.410	 1	 0.424663	 3.157200	 -1.013112	 1.662568	 -0.492741	 -0.520634	 0.025591	 0.734654	 -0.342334	 0.585181	 2
1463571732.420	 1	 0.769377	 2.655684	 -0.950440	 1.686834	 -0.502973	 -0.527425	 0.028833	 0.741544	 -0.347310	 0.573286	 2
1463571732.430	 1	 0.866535	 2.513297	 -1.038938	 1.708095	 -0.514087	 -0.535680	 0.031922	 0.747375	 -0.352981	 0.561975	 2
1463571732.440	 1	 0.657860	 2.494934	 -1.161986	 1.729958	 -0.526361	 -0.542163	 0.034193	 0.753226	 -0.358479	 0.550431	 2
1463571732.450	 1	 0.049368	 2.392117	 -1.359074	 1.754096	 -0.539547	 -0.542083	 0.034211	 0.759618	 -0.362433	 0.538936	 2
1463571732.460	 1	 -0.548569	 2.529312	 -1.601979	 1.783225	 -0.553855	 -0.533754	 0.031719	 0.767236	 -0.364546	 0.526734	 2
1463571732.470	 1	 -0.791816	 2.657740	 -1.737216	 1.816716	 -0.568809	 -0.520451	 0.027967	 0.775742	 -0.365684	 0.513534	 2
1463571732.480	 1	 -0.658436	 2.608814	 -1.683413	 1.850255	 -0.583483	 -0.506979	 0.024296	 0.783906	 -0.366909	 0.500279	 2
1463571732.490	 1	 -0.387449	 2.578188	 -1.397235	 1.881850	 -0.596336	 -0.496586	 0.022093	 0.791284	 -0.368485	 0.487443	 2
1463571732.500	 1	 -0.329797	 2.786512	 -1.100583	 1.913596	 -0.606345	 -0.488385	 0.021698	 0.798519	 -0.369723	 0.474554	 2
1463571732.510	 1	 -0.559917	 2.954157	 -0.663254	 1.948096	 -0.611996	 -0.479379	 0.022801	 0.806383	 -0.369268	 0.461376	 2
1463571732.520	 1	 -0.836111	 2.775899	 -0.129627	 1.982163	 -0.611428	 -0.469527	 0.025238	 0.814293	 -0.366407	 0.449484	 2
1463571732.530	 1	 -1.077107	 2.328950	 0.180581	 2.012742	 -0.606072	 -0.458857	 0.027941	 0.821572	 -0.361638	 0.439837	 2
1463571732.540	 1	 -1.207201	 1.973435	 0.091013	 2.040061	 -0.599578	 -0.446667	 0.029598	 0.828130	 -0.356139	 0.431845	 2
1463571732.550	 1	 -1.157554	 1.956720	 -0.286855	 2.067226	 -0.595756	 -0.432998	 0.029749	 0.834406	 -0.351350	 0.423597	 2
1463571732.560	 1	 -1.019971	 1.985867	 -0.611773	 2.095073	 -0.595303	 -0.418624	 0.028717	 0.840484	 -0.347756	 0.414521	 2
1463571732.570	 1	 -0.820880	 1.975995	 -0.719109	 2.122417	 -0.596900	 -0.405196	 0.027381	 0.846152	 -0.345247	 0.405069	 2
1463571732.580	 1	 -0.583109	 2.088637	 -0.637001	 2.149155	 -0.599121	 -0.394246	 0.026780	 0.851471	 -0.343574	 0.395267	 2
1463571732.590	 1	 -0.333752	 2.228211	 -0.356513	 2.174973	 -0.600552	 -0.387317	 0.027898	 0.856483	 -0.342442	 0.385217	 2
1463571732.600	 1	 -0.077179	 2.419857	 0.067210	 2.199592	 -0.600091	 -0.385584	 0.031474	 0.861228	 -0.341561	 0.375009	 2
1463571732.610	 1	 0.190472	 2.653332	 0.543448	 2.223123	 -0.597454	 -0.389872	 0.037962	 0.865736	 -0.340874	 0.364506	 2
1463571732.620	 1	 0.423500	 2.879724	 0.909082	 2.245958	 -0.593180	 -0.399548	 0.047038	 0.870007	 -0.340379	 0.353578	 2
1463571732.630	 1	 0.569652	 2.886415	 1.157260	 2.267402	 -0.588062	 -0.412982	 0.057705	 0.873836	 -0.340053	 0.342703	 2
1463571732.640	 1	 0.759172	 3.031471	 1.143105	 2.288670	 -0.583745	 -0.428478	 0.069070	 0.877302	 -0.340209	 0.331404	 2
1463571732.650	 1	 1.189838	 2.932516	 0.871994	 2.309200	 -0.583767	 -0.445570	 0.080077	 0.880003	 -0.342234	 0.319464	 2
1463571732.660	 1	 1.745652	 2.274297	 0.531709	 2.323240	 -0.590133	 -0.464761	 0.089565	 0.880849	 -0.347290	 0.308986	 2
1463571732.670	 1	 2.127431	 1.382504	 0.179043	 2.327922	 -0.602250	 -0.485022	 0.096687	 0.879573	 -0.355165	 0.301430	 2
1463571732.680	 1	 2.212468	 0.693745	 -0.162756	 2.325565	 -0.617977	 -0.503923	 0.101150	 0.876911	 -0.364555	 0.296472	 2
1463571732.690	 1	 2.161721	 0.313548	 -0.397123	 2.319688	 -0.635381	 -0.520614	 0.103558	 0.873645	 -0.374391	 0.293004	 2
1463571732.700	 1	 2.114653	 0.113299	 -0.456127	 2.311826	 -0.653105	 -0.536317	 0.104985	 0.870080	 -0.384229	 0.290355	 2
1463571732.710	 1	 2.106185	 0.114504	 -0.440056	 2.302954	 -0.670528	 -0.552276	 0.106276	 0.866360	 -0.393952	 0.287972	 2
1463571732.720	 1	 2.285439	 0.626066	 -0.518920	 2.296747	 -0.688969	 -0.569443	 0.108270	 0.862838	 -0.404016	 0.283828	 2
1463571732.730	 1	 2.538053	 1.646947	 -0.735430	 2.298545	 -0.710519	 -0.587806	 0.111613	 0.860034	 -0.414903	 0.275210	 2
1463571732.740	 1	 2.617032	 2.910213	 -0.891687	 2.312671	 -0.734395	 -0.605943	 0.116907	 0.858537	 -0.425777	 0.260691	 2
1463571732.750	 1	 2.307324	 3.321613	 -0.900083	 2.334906	 -0.757528	 -0.621470	 0.123107	 0.858014	 -0.435315	 0.243223	 2
1463571732.760	 1	 1.636762	 3.007592	 -0.620069	 2.358306	 -0.775294	 -0.632626	 0.129047	 0.858133	 -0.441981	 0.227171	 2
1463571732.770	 1	 0.859372	 2.643066	 -0.307621	 2.380953	 -0.785552	 -0.639167	 0.134617	 0.859041	 -0.445154	 0.213926	 2
1463571732.780	 1	 0.109391	 2.349380	 0.104363	 2.403237	 -0.787700	 -0.641886	 0.140278	 0.860929	 -0.444736	 0.203306	 2
1463571732.790	 1	 -0.454864	 1.952936	 0.648060	 2.422161	 -0.781917	 -0.644169	 0.146685	 0.863333	 -0.441362	 0.195806	 2
1463571732.800	 1	 -0.865969	 1.704662	 1.152369	 2.436919	 -0.769259	 -0.648115	 0.154275	 0.865942	 -0.435690	 0.191094	 2
1463571732.810	 1	 -0.975449	 1.592947	 1.396342	 2.449258	 -0.753151	 -0.653782	 0.162723	 0.868507	 -0.428919	 0.187736	 2
1463571732.820	 1	 -0.762679	 1.266506	 1.347756	 2.457918	 -0.737894	 -0.661175	 0.170893	 0.870400	 -0.422859	 0.185443	 2
1463571732.830	 1	 -0.456413	 0.300702	 0.878890	 2.459625	 -0.727388	 -0.667269	 0.176036	 0.871171	 -0.419113	 0.185519	 2
1463571732.840	 1	 -0.317352	 -0.751348	 0.329680	 2.453290	 -0.721880	 -0.669157	 0.176652	 0.870996	 -0.417664	 0.188989	 2
1463571732.850	 1	 -0.388827	 -1.351468	 -0.025918	 2.442662	 -0.718823	 -0.666604	 0.173948	 0.870520	 -0.417140	 0.194763	 2
1463571732.860	 1	 -0.633003	 -1.328237	 -0.001195	 2.432230	 -0.714749	 -0.661365	 0.170336	 0.870357	 -0.415906	 0.201211	 2
1463571732.870	 1	 -0.894566	 -0.340632	 0.412065	 2.428583	 -0.706564	 -0.657067	 0.169405	 0.871182	 -0.412537	 0.205322	 2
1463571732.880	 1	 -0.996205	 0.940090	 0.975866	 2.435185	 -0.693636	 -0.656917	 0.173359	 0.873159	 -0.406815	 0.205039	 2
1463571732.890	 1	 -0.769364	 1.062496	 1.519635	 2.442304	 -0.678138	 -0.663556	 0.180867	 0.874799	 -0.400671	 0.203658	 2
1463571732.900	 1	 -0.364932	 -0.065301	 1.778454	 2.437050	 -0.663405	 -0.676662	 0.188558	 0.874414	 -0.396605	 0.206278	 2
1463571732.910	 1	 0.238466	 -1.724657	 1.711932	 2.413117	 -0.652462	 -0.693895	 0.193601	 0.871193	 -0.396350	 0.215520	 2
1463571732.920	 1	 0.821897	 -2.233626	 1.430346	 2.379163	 -0.647362	 -0.713819	 0.196583	 0.865898	 -0.399858	 0.227353	 2
1463571732.930	 1	 0.716372	 -0.790172	 0.820160	 2.356577	 -0.646066	 -0.729687	 0.199186	 0.861818	 -0.403418	 0.234196	 2
1463571732.940	 1	 0.551274	 1.149066	 0.205514	 2.359466	 -0.647592	 -0.737615	 0.202846	 0.861247	 -0.404641	 0.231024	 2
1463571732.950	 1	 0.903250	 1.364918	 -0.100350	 2.369192	 -0.653619	 -0.744399	 0.206409	 0.861221	 -0.406749	 0.224162	 2
1463571732.960	 1	 0.898854	 0.880147	 -0.362737	 2.376124	 -0.662378	 -0.750003	 0.208311	 0.860753	 -0.410033	 0.218138	 2
1463571732.970	 1	 0.360231	 -0.105824	 -0.727449	 2.378573	 -0.670532	 -0.748777	 0.206497	 0.860520	 -0.412791	 0.215565	 2
1463571732.980	 1	 -0.358835	 -1.640482	 -0.999778	 2.372837	 -0.675709	 -0.738429	 0.199720	 0.860540	 -0.414245	 0.219052	 2
1463571732.990	 1	 -0.795544	 -3.364470	 -1.159093	 2.353724	 -0.678525	 -0.721792	 0.187976	 0.859782	 -0.415313	 0.230118	 2
1463571733.000	 1	 -0.885914	 -4.539390	 -1.289680	 2.320899	 -0.682636	 -0.703732	 0.172456	 0.857166	 -0.417694	 0.247096	 2
1463571733.010	 1	 -0.501008	 -4.802479	 -1.332781	 2.283754	 -0.688297	 -0.686223	 0.155865	 0.853397	 -0.420657	 0.265458	 2
1463571733.020	 1	 0.150881	 -4.026076	 -1.220407	 2.247224	 -0.699452	 -0.676196	 0.141194	 0.848277	 -0.426209	 0.280777	 2
1463571733.030	 1	 0.537221	 -3.383550	 -0.903392	 2.214293	 -0.710127	 -0.672843	 0.130084	 0.842948	 -0.431938	 0.293167	 2
1463571733.040	 1	 0.571598	 -2.999915	 -0.495133	 2.182602	 -0.718504	 -0.674383	 0.121731	 0.837474	 -0.437243	 0.304363	 2
1463571733.050	 1	 0.535517	 -3.140917	 -0.006946	 2.148652	 -0.722616	 -0.679307	 0.115264	 0.831608	 -0.441509	 0.316563	 2
1463571733.060	 1	 0.620662	 -3.629812	 0.517448	 2.107409	 -0.722458	 -0.688717	 0.110058	 0.824405	 -0.445301	 0.331586	 2
1463571733.070	 1	 0.742793	 -3.920350	 0.982616	 2.059399	 -0.718325	 -0.702742	 0.106209	 0.815736	 -0.448840	 0.349053	 2
1463571733.080	 1	 0.502173	 -3.334952	 1.235284	 2.015012	 -0.710366	 -0.716671	 0.104123	 0.807502	 -0.450940	 0.365720	 2
1463571733.090	 1	 0.449428	 -3.263032	 1.304616	 1.974839	 -0.700877	 -0.728958	 0.102737	 0.799799	 -0.452128	 0.381243	 2
1463571733.100	 1	 0.620392	 -3.819397	 1.213747	 1.929435	 -0.692285	 -0.742218	 0.100269	 0.790597	 -0.454191	 0.398262	 2
1463571733.110	 1	 0.655164	 -4.228052	 1.049774	 1.879387	 -0.684560	 -0.755293	 0.096356	 0.779974	 -0.456835	 0.416722	 2
1463571733.120	 1	 -0.603841	 -2.395389	 0.550229	 1.849068	 -0.678120	 -0.755359	 0.091461	 0.773689	 -0.456244	 0.429978	 2
1463571733.130	 1	 -0.804283	 -1.995865	 0.121927	 1.836444	 -0.673593	 -0.745353	 0.086145	 0.771476	 -0.453217	 0.438176	 2
1463571733.140	 1	 -0.058479	 -3.031746	 -0.299195	 1.810704	 -0.674858	 -0.741728	 0.078515	 0.765898	 -0.453866	 0.448600	 2
1463571733.150	 1	 0.415520	 -3.105229	 -0.706864	 1.777840	 -0.681437	 -0.743930	 0.069751	 0.758264	 -0.457595	 0.459105	 2
1463571733.160	 1	 0.836622	 -2.631837	 -1.111115	 1.745926	 -0.692752	 -0.750695	 0.061260	 0.750522	 -0.463590	 0.466956	 2
1463571733.170	 1	 1.310423	 -2.127276	 -1.449458	 1.715338	 -0.708122	 -0.763251	 0.053703	 0.742846	 -0.471891	 0.471820	 2
1463571733.180	 1	 1.729728	 -1.645884	 -1.777950	 1.685467	 -0.727040	 -0.781835	 0.047090	 0.735205	 -0.482377	 0.473887	 2
1463571733.190	 1	 1.988330	 -1.236866	 -2.178188	 1.656521	 -0.749593	 -0.805069	 0.040844	 0.727782	 -0.494654	 0.473267	 2
1463571733.200	 1	 2.094960	 -1.054909	 -2.417220	 1.627533	 -0.774753	 -0.831370	 0.034437	 0.720469	 -0.507981	 0.470844	 2
1463571733.210	 1	 2.069190	 -1.067774	 -2.441628	 1.597078	 -0.800069	 -0.859425	 0.027835	 0.713007	 -0.521355	 0.468013	 2
1463571733.220	 1	 1.934270	 -1.014600	 -2.350434	 1.566127	 -0.824007	 -0.887761	 0.021290	 0.705663	 -0.534023	 0.465194	 2
1463571733.230	 1	 1.628838	 -0.907777	 -2.263651	 1.537317	 -0.846555	 -0.913948	 0.014695	 0.699067	 -0.545430	 0.462163	 2
1463571733.240	 1	 1.323127	 -0.675091	 -2.127736	 1.512764	 -0.867563	 -0.936735	 0.008344	 0.693669	 -0.555315	 0.458671	 2
1463571733.250	 1	 1.092815	 -0.623616	 -1.869468	 1.491256	 -0.886146	 -0.956690	 0.002524	 0.689108	 -0.563728	 0.455340	 2
1463571733.260	 1	 0.953113	 -0.861346	 -1.561393	 1.469344	 -0.901535	 -0.974684	 -0.003091	 0.684524	 -0.570818	 0.453413	 2
1463571733.270	 1	 0.882526	 -1.297809	 -1.349556	 1.444122	 -0.914408	 -0.991711	 -0.009216	 0.679240	 -0.577001	 0.453452	 2
1463571733.280	 1	 0.903794	 -1.671128	 -1.193351	 1.414288	 -0.925306	 -1.009175	 -0.015958	 0.672949	 -0.582713	 0.455336	 2
1463571733.290	 1	 0.920126	 -1.656878	 -1.128349	 1.382590	 -0.934946	 -1.027638	 -0.022614	 0.666283	 -0.588237	 0.457747	 2
1463571733.300	 1	 0.826929	 -1.265318	 -1.145209	 1.354231	 -0.944348	 -1.045725	 -0.028481	 0.660455	 -0.593504	 0.459065	 2
1463571733.310	 1	 0.703786	 -0.869569	 -1.183085	 1.330981	 -0.954157	 -1.062577	 -0.033517	 0.655894	 -0.598473	 0.458813	 2
1463571733.320	 1	 0.592352	 -0.743690	 -1.176680	 1.310716	 -0.964043	 -1.078065	 -0.038232	 0.652091	 -0.603055	 0.457865	 2
1463571733.330	 1	 0.507480	 -0.864681	 -1.174935	 1.290479	 -0.973952	 -1.092605	 -0.043338	 0.648363	 -0.607293	 0.457101	 2
1463571733.340	 1	 0.392317	 -1.086506	 -1.156813	 1.269175	 -0.983888	 -1.105857	 -0.049272	 0.644450	 -0.611082	 0.456985	 2
1463571733.350	 1	 0.244586	 -1.241922	 -1.087698	 1.247835	 -0.993562	 -1.116945	 -0.055884	 0.640531	 -0.614206	 0.457546	 2
1463571733.360	 1	 0.127108	 -1.342972	 -0.989566	 1.227267	 -1.002660	 -1.125705	 -0.062843	 0.636740	 -0.616621	 0.458684	 2
1463571733.370	 1	 0.063178	 -1.393219	 -0.904216	 1.207212	 -1.011050	 -1.133064	 -0.069866	 0.633013	 -0.618533	 0.460251	 2
1463571733.380	 1	 -0.047332	 -1.371997	 -0.809269	 1.188708	 -1.018882	 -1.138596	 -0.076809	 0.629565	 -0.619911	 0.462016	 2
1463571733.390	 1	 -0.238313	 -1.331462	 -0.577024	 1.174076	 -1.025549	 -1.139932	 -0.083449	 0.626768	 -0.620267	 0.464184	 2
1463571733.400	 1	 -0.527901	 -1.085959	 -0.427275	 1.166373	 -1.031503	 -1.135351	 -0.089526	 0.625261	 -0.619417	 0.466215	 2
1463571733.410	 1	 -0.810847	 -0.738812	 -0.338451	 1.167289	 -1.037720	 -1.124694	 -0.094933	 0.625475	 -0.617543	 0.467343	 2
1463571733.420	 1	 -0.968385	 -0.461512	 -0.297198	 1.174757	 -1.044204	 -1.109976	 -0.099700	 0.626992	 -0.615072	 0.467577	 2
1463571733.430	 1	 -1.052985	 -0.342814	 -0.244184	 1.185917	 -1.050548	 -1.092893	 -0.104048	 0.629172	 -0.612260	 0.467391	 2
1463571733.440	 1	 -1.210604	 -0.116276	 -0.162903	 1.201794	 -1.056541	 -1.072412	 -0.107932	 0.632173	 -0.608924	 0.466819	 2
1463571733.450	 1	 -1.467314	 0.354249	 -0.063568	 1.226868	 -1.062290	 -1.046249	 -0.110801	 0.636898	 -0.604818	 0.465058	 2
1463571733.460	 1	 -1.732184	 0.890863	 0.052440	 1.263034	 -1.067392	 -1.013546	 -0.112305	 0.643677	 -0.599854	 0.461782	 2
1463571733.480	 2	 -2.426587	 2.145194	 0.257732	 1.373823	 -1.074685	 -0.924754	 -0.111198	 0.664121	 -0.586812	 0.449699	 2
1463571733.490	 2	 -2.813954	 3.002973	 0.318111	 1.452268	 -1.075905	 -0.867194	 -0.108111	 0.678403	 -0.578513	 0.439777	 2
1463571733.500	 2	 -2.804800	 3.842930	 0.281086	 1.541658	 -1.075130	 -0.806971	 -0.102840	 0.694619	 -0.570030	 0.426608	 2
1463571733.510	 2	 -2.217324	 4.536574	 0.395396	 1.629300	 -1.071201	 -0.756998	 -0.094204	 0.710726	 -0.563034	 0.411081	 2
1463571733.520	 2	 -1.328522	 5.007711	 0.601997	 1.705604	 -1.064311	 -0.725921	 -0.081637	 0.725213	 -0.558509	 0.394295	 2
1463571733.530	 2	 -0.526234	 5.214459	 0.835666	 1.767546	 -1.055497	 -0.714240	 -0.065745	 0.737458	 -0.556329	 0.377269	 2
1463571733.540	 2	 -0.069508	 5.256145	 1.048427	 1.818965	 -1.045422	 -0.715552	 -0.047727	 0.747876	 -0.555391	 0.360478	 2
1463571733.550	 2	 -0.078433	 5.024533	 1.226463	 1.865295	 -1.033918	 -0.720995	 -0.029200	 0.757215	 -0.554128	 0.344550	 2
1463571733.560	 2	 -0.562593	 4.513361	 1.382589	 1.911368	 -1.019840	 -0.721508	 -0.011924	 0.766348	 -0.550756	 0.330509	 2
1463571733.570	 2	 -1.450504	 3.887776	 1.584862	 1.961094	 -1.001127	 -0.710625	 0.003139	 0.776268	 -0.543680	 0.319077	 2
1463571733.580	 2	 -2.451504	 3.175225	 1.629578	 2.015204	 -0.977265	 -0.686020	 0.015082	 0.787400	 -0.532344	 0.310457	 2
1463571733.590	 2	 -3.275266	 2.364420	 1.543944	 2.070168	 -0.949221	 -0.650405	 0.023327	 0.799302	 -0.517437	 0.304682	 2
1463571733.600	 2	 -3.772802	 1.293885	 1.414686	 2.119165	 -0.918317	 -0.609172	 0.027620	 0.810859	 -0.500265	 0.302457	 2
1463571733.610	 2	 -3.857874	 -0.136121	 1.309399	 2.153742	 -0.886300	 -0.568134	 0.027793	 0.820524	 -0.482441	 0.305318	 2
1463571733.620	 2	 -3.563933	 -1.545842	 1.221250	 2.169473	 -0.855622	 -0.531769	 0.024392	 0.827151	 -0.465625	 0.313720	 2
1463571733.630	 2	 -3.010392	 -2.718729	 1.189530	 2.166758	 -0.827941	 -0.502669	 0.018702	 0.830350	 -0.450875	 0.326925	 2
1463571733.640	 2	 -2.382049	 -3.384782	 1.118178	 2.149914	 -0.804394	 -0.481167	 0.011979	 0.830446	 -0.438699	 0.343160	 2
1463571733.650	 2	 -2.272079	 -3.289051	 1.016864	 2.129423	 -0.783496	 -0.462101	 0.004957	 0.829291	 -0.427670	 0.359653	 2
1463571733.660	 2	 -2.576831	 -2.040719	 0.992766	 2.121379	 -0.761958	 -0.439630	 -0.000538	 0.830216	 -0.415518	 0.371600	 2
1463571733.670	 2	 -2.644199	 -0.848110	 1.153657	 2.125689	 -0.738621	 -0.416696	 -0.003233	 0.833526	 -0.402399	 0.378547	 2
1463571733.680	 2	 -2.314911	 0.057141	 1.303092	 2.136484	 -0.715008	 -0.398320	 -0.002800	 0.838066	 -0.389878	 0.381619	 2
1463571733.690	 2	 -1.756721	 0.504490	 1.322644	 2.148165	 -0.693576	 -0.386705	 -0.000074	 0.842531	 -0.379353	 0.382404	 2
1463571733.700	 2	 -1.150538	 0.797860	 1.248690	 2.158551	 -0.675786	 -0.381719	 0.004172	 0.846342	 -0.371420	 0.381753	 2
1463571733.710	 2	 -0.612937	 1.079316	 1.117671	 2.168456	 -0.662102	 -0.382098	 0.009516	 0.849597	 -0.366057	 0.379602	 2
1463571733.720	 2	 -0.213585	 1.256776	 0.963441	 2.178218	 -0.652132	 -0.386117	 0.015433	 0.852394	 -0.362799	 0.376248	 2
1463571733.730	 2	 0.071923	 1.286679	 0.802435	 2.187360	 -0.645270	 -0.392217	 0.021350	 0.854711	 -0.361123	 0.372295	 2
1463571733.750	 3	 0.551634	 1.326521	 0.623844	 2.203229	 -0.638808	 -0.409707	 0.033256	 0.858002	 -0.361541	 0.363339	 2
1463571733.760	 3	 0.759554	 1.315045	 0.592085	 2.209561	 -0.638180	 -0.421228	 0.039498	 0.858994	 -0.363254	 0.358632	 2
1463571733.770	 3	 0.927464	 1.220482	 0.526863	 2.214367	 -0.639125	 -0.434159	 0.045705	 0.859488	 -0.365833	 0.354060	 2
1463571733.780	 3	 1.049222	 1.102377	 0.423457	 2.217536	 -0.641656	 -0.447726	 0.051516	 0.859485	 -0.369153	 0.349797	 2
1463571733.790	 3	 1.135824	 1.022446	 0.289804	 2.219822	 -0.645794	 -0.461275	 0.056779	 0.859141	 -0.373094	 0.345620	 2
1463571733.800	 3	 1.245776	 0.932725	 0.135608	 2.221274	 -0.651747	 -0.474746	 0.061419	 0.858457	 -0.377725	 0.341472	 2
1463571733.810	 3	 1.425880	 0.790619	 -0.027147	 2.221085	 -0.659969	 -0.488672	 0.065394	 0.857243	 -0.383341	 0.337500	 2
1463571733.820	 3	 1.703411	 0.500284	 -0.203852	 2.217529	 -0.671058	 -0.503912	 0.068572	 0.855136	 -0.390371	 0.334141	 2
1463571733.830	 3	 2.151970	 0.041415	 -0.378287	 2.207755	 -0.685873	 -0.522148	 0.070837	 0.851535	 -0.399509	 0.332058	 2
1463571733.840	 3	 2.636682	 -0.455763	 -0.540603	 2.189666	 -0.704787	 -0.544966	 0.072202	 0.846013	 -0.411198	 0.331610	 2
1463571733.850	 3	 2.740520	 -0.523852	 -0.647651	 2.167809	 -0.725619	 -0.570068	 0.072984	 0.839614	 -0.424003	 0.331577	 2
1463571733.860	 3	 2.368365	 -0.057553	 -0.591047	 2.150097	 -0.744566	 -0.593375	 0.074074	 0.834147	 -0.435518	 0.330206	 2
1463571733.870	 3	 1.593043	 0.973972	 -0.342362	 2.144767	 -0.757910	 -0.611046	 0.076796	 0.831430	 -0.443481	 0.325809	 2
1463571733.880	 3	 0.556417	 2.577558	 0.071655	 2.160506	 -0.762642	 -0.620099	 0.082836	 0.833174	 -0.446023	 0.316263	 2
1463571733.890	 3	 0.012410	 2.577322	 0.405710	 2.184804	 -0.760552	 -0.623995	 0.090409	 0.836973	 -0.444814	 0.305685	 2
1463571733.900	 3	 -0.169081	 1.229880	 0.646272	 2.198678	 -0.754981	 -0.627247	 0.096258	 0.839430	 -0.442615	 0.300305	 2
1463571733.910	 3	 -0.298883	 -0.138841	 0.760425	 2.198271	 -0.747402	 -0.630285	 0.099350	 0.839903	 -0.440300	 0.301378	 2
1463571733.920	 3	 -0.416881	 -0.912032	 0.720154	 2.189698	 -0.739138	 -0.631828	 0.100199	 0.839248	 -0.437918	 0.306352	 2
1463571733.930	 3	 -0.434457	 -1.197433	 0.664363	 2.177977	 -0.731110	 -0.632208	 0.099837	 0.838094	 -0.435610	 0.312848	 2
1463571733.940	 3	 -0.275108	 -1.150884	 0.694316	 2.165083	 -0.723610	 -0.633737	 0.099595	 0.836593	 -0.433741	 0.319470	 2
1463571733.950	 3	 0.083841	 -0.857210	 0.708844	 2.152420	 -0.717604	 -0.638811	 0.100523	 0.834771	 -0.432995	 0.324912	 2
1463571733.960	 3	 0.416556	 -0.610988	 0.622977	 2.140127	 -0.714096	 -0.647375	 0.102344	 0.832592	 -0.433742	 0.328915	 2
1463571733.970	 3	 0.443770	 -0.482503	 0.604752	 2.129022	 -0.711421	 -0.656612	 0.104477	 0.830472	 -0.434874	 0.332091	 2
1463571733.980	 3	 0.469669	 -0.506311	 0.705552	 2.117709	 -0.708042	 -0.666391	 0.106966	 0.828302	 -0.435889	 0.335373	 2
1463571733.990	 3	 0.569024	 -0.544367	 0.777871	 2.104990	 -0.704292	 -0.677735	 0.109886	 0.825789	 -0.437151	 0.338964	 2
1463571734.000	 3	 0.442453	 -0.682251	 0.779821	 2.091680	 -0.700058	 -0.688526	 0.112566	 0.823183	 -0.438228	 0.343008	 2
1463571734.010	 3	 -0.041853	 -1.072421	 0.754829	 2.078234	 -0.693903	 -0.694482	 0.113749	 0.820881	 -0.437848	 0.348575	 2
1463571734.020	 3	 -0.693569	 -1.313341	 0.856312	 2.065995	 -0.684198	 -0.693499	 0.113343	 0.819316	 -0.434958	 0.355930	 2
1463571734.030	 3	 -0.961137	 -1.122392	 0.972323	 2.057071	 -0.671357	 -0.688763	 0.113023	 0.818647	 -0.430097	 0.363401	 2
1463571734.040	 3	 -0.649538	 -0.762865	 0.808828	 2.050635	 -0.660164	 -0.685213	 0.113298	 0.818221	 -0.425868	 0.369209	 2
1463571734.050	 3	 0.234658	 0.411731	 0.630880	 2.048523	 -0.654228	 -0.689085	 0.116082	 0.817887	 -0.424612	 0.370527	 2
1463571734.060	 3	 0.416859	 2.647829	 0.318649	 2.065143	 -0.652639	 -0.696611	 0.123132	 0.820556	 -0.424436	 0.362464	 2
1463571734.070	 3	 -0.175277	 3.398342	 -0.268170	 2.099017	 -0.653471	 -0.695689	 0.129697	 0.826595	 -0.422427	 0.348531	 2
1463571734.080	 3	 -0.655418	 2.209524	 -0.714146	 2.131236	 -0.656056	 -0.685734	 0.131662	 0.832628	 -0.419551	 0.336709	 2
1463571734.090	 3	 -1.216255	 0.164892	 -0.845522	 2.148187	 -0.657177	 -0.668802	 0.127844	 0.836500	 -0.416026	 0.332936	 2
1463571734.100	 3	 -1.661531	 -1.212538	 -0.886436	 2.152857	 -0.655923	 -0.646062	 0.119611	 0.838765	 -0.411472	 0.335943	 2
1463571734.110	 3	 -1.514547	 -2.207188	 -0.851143	 2.147242	 -0.654365	 -0.623178	 0.109264	 0.839221	 -0.407328	 0.343299	 2
1463571734.120	 3	 -0.666266	 -2.845404	 -0.661973	 2.128970	 -0.655533	 -0.608584	 0.099129	 0.836721	 -0.406171	 0.353690	 2
1463571734.130	 3	 0.551677	 -2.982336	 -0.425529	 2.099462	 -0.660853	 -0.608097	 0.091505	 0.831098	 -0.409455	 0.365034	 2
1463571734.140	 3	 1.565996	 -2.753619	 -0.303275	 2.063263	 -0.670219	 -0.620898	 0.086789	 0.823244	 -0.416845	 0.375469	 2
1463571734.150	 3	 2.134451	 -2.175399	 -0.273003	 2.026378	 -0.681876	 -0.642370	 0.084566	 0.814646	 -0.426648	 0.383629	 2
1463571734.160	 3	 2.437685	 -1.405679	 -0.343084	 1.993897	 -0.694814	 -0.668343	 0.084392	 0.806585	 -0.437525	 0.388420	 2
1463571734.170	 3	 2.805465	 -0.885836	 -0.523694	 1.964565	 -0.709900	 -0.698451	 0.085580	 0.798855	 -0.449733	 0.390188	 2
1463571734.180	 3	 3.083124	 -0.660633	 -0.743563	 1.935141	 -0.727498	 -0.732440	 0.087144	 0.790866	 -0.463412	 0.390109	 2
1463571734.190	 3	 3.091221	 -0.567606	 -0.965512	 1.905596	 -0.746673	 -0.767646	 0.088235	 0.782813	 -0.477659	 0.388923	 2
1463571734.200	 3	 2.773972	 -0.673554	 -1.183283	 1.876944	 -0.766484	 -0.800264	 0.087887	 0.775131	 -0.491331	 0.387351	 2
1463571734.210	 3	 2.154304	 -0.908010	 -1.350591	 1.850217	 -0.785723	 -0.826117	 0.085184	 0.768259	 -0.503195	 0.386415	 2
1463571734.220	 3	 1.420154	 -0.994155	 -1.499536	 1.828673	 -0.804126	 -0.842640	 0.080189	 0.762910	 -0.512571	 0.385758	 2
1463571734.230	 3	 0.806884	 -1.112816	 -1.536865	 1.812174	 -0.821336	 -0.850466	 0.073384	 0.758971	 -0.519547	 0.385549	 2
1463571734.240	 3	 0.434491	 -1.144327	 -1.485957	 1.799102	 -0.837145	 -0.852655	 0.065686	 0.755948	 -0.524782	 0.385786	 2
1463571734.250	 3	 0.302340	 -0.961361	 -1.389317	 1.788913	 -0.851652	 -0.852648	 0.058280	 0.753576	 -0.529037	 0.385806	 2
1463571734.260	 3	 0.394603	 -0.715223	 -1.290845	 1.780328	 -0.865273	 -0.853753	 0.051965	 0.751490	 -0.533140	 0.385129	 2
1463571734.270	 3	 0.632873	 -0.522590	 -1.178156	 1.770985	 -0.878253	 -0.858560	 0.047007	 0.749182	 -0.537729	 0.383880	 2
1463571734.280	 3	 0.899589	 -0.420340	 -1.050570	 1.759149	 -0.890497	 -0.868198	 0.043373	 0.746330	 -0.543028	 0.382401	 2
1463571734.290	 3	 1.087823	 -0.445449	 -0.917091	 1.744075	 -0.901725	 -0.881950	 0.040652	 0.742844	 -0.548830	 0.381202	 2
1463571734.300	 3	 1.174249	 -0.556451	 -0.788853	 1.725933	 -0.911712	 -0.898318	 0.038371	 0.738810	 -0.554788	 0.380655	 2
1463571734.310	 3	 1.161098	 -0.725758	 -0.674146	 1.705410	 -0.920333	 -0.915622	 0.036117	 0.734391	 -0.560548	 0.380987	 2
1463571734.320	 3	 1.111228	 -0.967455	 -0.583240	 1.682606	 -0.927705	 -0.932900	 0.033513	 0.729611	 -0.565970	 0.382391	 2
1463571734.330	 3	 1.073668	 -1.282846	 -0.529362	 1.656822	 -0.934169	 -0.950039	 0.030197	 0.724312	 -0.571136	 0.385052	 2
1463571734.340	 3	 1.049804	 -1.607035	 -0.509790	 1.627757	 -0.940038	 -0.967177	 0.026012	 0.718409	 -0.576145	 0.388934	 2
1463571734.350	 3	 1.016145	 -1.953687	 -0.511657	 1.595299	 -0.945562	 -0.984260	 0.020801	 0.711855	 -0.581029	 0.393999	 2
1463571734.360	 3	 0.924167	 -2.211963	 -0.523917	 1.560429	 -0.950837	 -1.000575	 0.014548	 0.704824	 -0.585637	 0.400051	 2
1463571734.370	 3	 0.778488	 -2.307429	 -0.546984	 1.525814	 -0.956007	 -1.014929	 0.007569	 0.697836	 -0.589715	 0.406454	 2
1463571734.380	 3	 0.641706	 -2.298927	 -0.603265	 1.492668	 -0.961448	 -1.027261	 0.000093	 0.691133	 -0.593300	 0.412711	 2
1463571734.390	 3	 0.529717	 -2.208852	 -0.694173	 1.461413	 -0.967593	 -1.038092	 -0.007702	 0.684819	 -0.596564	 0.418419	 2
1463571734.400	 3	 0.413834	 -2.028453	 -0.798061	 1.432755	 -0.974711	 -1.047612	 -0.015620	 0.679066	 -0.599587	 0.423227	 2
1463571734.410	 3	 0.283459	 -1.751239	 -0.905177	 1.407899	 -0.982910	 -1.055577	 -0.023398	 0.674152	 -0.602345	 0.426794	 2
1463571734.420	 3	 0.197125	 -1.406142	 -1.019514	 1.387135	 -0.992303	 -1.062511	 -0.030790	 0.670167	 -0.604981	 0.428865	 2
1463571734.430	 3	 0.176056	 -1.069372	 -1.082274	 1.369752	 -1.002456	 -1.069540	 -0.037458	 0.666975	 -0.607683	 0.429490	 2
1463571734.440	 3	 0.150585	 -0.850931	 -1.037389	 1.354908	 -1.012472	 -1.076497	 -0.043369	 0.664362	 -0.610291	 0.429287	 2
1463571734.450	 3	 0.134590	 -0.712895	 -0.929389	 1.341776	 -1.021444	 -1.083037	 -0.048542	 0.662099	 -0.612613	 0.428921	 2
1463571734.460	 3	 0.117473	 -0.545428	 -0.870131	 1.330597	 -1.029749	 -1.089328	 -0.052977	 0.660251	 -0.614770	 0.428159	 2
1463571734.470	 3	 0.061002	 -0.571464	 -0.816593	 1.320505	 -1.037605	 -1.094689	 -0.057237	 0.658617	 -0.616640	 0.427438	 2
1463571734.480	 3	 0.016040	 -0.852966	 -0.785782	 1.308999	 -1.045200	 -1.099155	 -0.062147	 0.656666	 -0.618189	 0.427517	 2
1463571734.490	 3	 -0.079630	 -1.522149	 -0.701652	 1.293222	 -1.052434	 -1.102126	 -0.068751	 0.653750	 -0.619172	 0.429546	 2
1463571734.500	 3	 -0.214130	 -2.355413	 -0.525990	 1.272004	 -1.058415	 -1.101888	 -0.077633	 0.649474	 -0.619029	 0.434696	 2
1463571734.510	 3	 -0.430168	 -2.777261	 -0.410800	 1.248866	 -1.063712	 -1.097434	 -0.088214	 0.644509	 -0.617676	 0.441931	 2
1463571734.520	 3	 -0.747724	 -2.825058	 -0.236892	 1.230258	 -1.068605	 -1.086406	 -0.099330	 0.640117	 -0.614865	 0.449805	 2
1463571734.530	 3	 -1.117202	 -2.702428	 0.096786	 1.220454	 -1.071971	 -1.066365	 -0.110002	 0.637026	 -0.610158	 0.458044	 2
1463571734.540	 3	 -1.583985	 -2.352267	 0.380141	 1.223128	 -1.074016	 -1.035301	 -0.119850	 0.635961	 -0.603357	 0.465994	 2
1463571734.550	 3	 -2.095995	 -1.546455	 0.557291	 1.242791	 -1.075669	 -0.992704	 -0.128152	 0.637998	 -0.594778	 0.471989	 2
1463571734.560	 3	 -2.495429	 -0.366904	 0.690044	 1.282392	 -1.076740	 -0.940086	 -0.133739	 0.643954	 -0.585056	 0.474495	 2
1463571734.570	 3	 -2.578239	 0.758406	 0.804615	 1.337182	 -1.075881	 -0.883383	 -0.135913	 0.653110	 -0.575185	 0.473431	 2
1463571734.580	 3	 -2.381790	 1.664175	 0.825188	 1.399040	 -1.072712	 -0.829608	 -0.134798	 0.664081	 -0.566173	 0.469334	 2
1463571734.590	 3	 -2.136734	 2.332887	 0.736556	 1.462310	 -1.068210	 -0.782253	 -0.131231	 0.675797	 -0.558515	 0.462751	 2
1463571734.600	 3	 -2.159331	 3.083957	 0.603061	 1.530575	 -1.063459	 -0.737184	 -0.125963	 0.688742	 -0.551616	 0.453308	 2
1463571734.620	 4	 -1.657918	 4.680674	 0.545345	 1.681010	 -1.052390	 -0.658658	 -0.108697	 0.717938	 -0.540613	 0.424839	 2
1463571734.630	 4	 -1.091066	 5.283944	 0.948881	 1.751484	 -1.042386	 -0.636699	 -0.094384	 0.732388	 -0.537032	 0.407795	 2
1463571734.640	 4	 -0.665166	 5.550205	 1.463479	 1.814297	 -1.027783	 -0.627715	 -0.076223	 0.745976	 -0.533930	 0.390676	 2
1463571734.650	 4	 -0.497058	 5.456713	 1.985501	 1.869372	 -1.008513	 -0.627650	 -0.055597	 0.758498	 -0.530238	 0.374748	 2
1463571734.660	 4	 -0.622631	 4.980207	 2.373295	 1.917769	 -0.984970	 -0.631050	 -0.034371	 0.769951	 -0.524991	 0.361080	 2
1463571734.670	 4	 -0.980415	 4.127116	 2.511284	 1.960182	 -0.958583	 -0.632378	 -0.014948	 0.780293	 -0.517688	 0.350598	 2
1463571734.680	 4	 -1.368022	 3.146792	 2.546035	 1.996366	 -0.930221	 -0.629626	 0.001523	 0.789535	 -0.508400	 0.343746	 2
1463571734.690	 4	 -1.673614	 2.144856	 2.567082	 2.024945	 -0.900199	 -0.623785	 0.014983	 0.797553	 -0.497561	 0.340761	 2
1463571734.700	 4	 -1.857757	 1.135858	 2.543310	 2.044708	 -0.869209	 -0.616163	 0.025520	 0.804131	 -0.485778	 0.341676	 2
1463571734.710	 4	 -1.896940	 0.207315	 2.379410	 2.055427	 -0.838877	 -0.607638	 0.033103	 0.809060	 -0.473886	 0.346061	 2
1463571734.720	 4	 -1.739246	 -0.478330	 2.056191	 2.058510	 -0.811583	 -0.599106	 0.037921	 0.812308	 -0.462956	 0.352688	 2
1463571734.730	 4	 -1.524486	 -1.083083	 1.764135	 2.054709	 -0.788029	 -0.591392	 0.040419	 0.813893	 -0.453466	 0.360988	 2
1463571734.740	 4	 -1.371206	 -1.428720	 1.537906	 2.045887	 -0.767446	 -0.584310	 0.041251	 0.814185	 -0.445147	 0.370466	 2
1463571734.750	 4	 -1.599140	 -1.177338	 1.350392	 2.039930	 -0.748165	 -0.574436	 0.041268	 0.814851	 -0.436631	 0.379035	 2
1463571734.760	 4	 -2.030622	 -0.494961	 1.259251	 2.043482	 -0.728057	 -0.559084	 0.041339	 0.817445	 -0.426480	 0.384953	 2
1463571734.770	 4	 -2.326283	 0.220239	 1.202404	 2.056673	 -0.706808	 -0.539764	 0.042029	 0.822064	 -0.414813	 0.387781	 2
1463571734.780	 4	 -2.325077	 0.698885	 1.205781	 2.075111	 -0.685124	 -0.520315	 0.043647	 0.827755	 -0.402693	 0.388271	 2
1463571734.790	 4	 -2.051884	 0.881391	 1.256258	 2.093630	 -0.663813	 -0.504346	 0.046368	 0.833367	 -0.391230	 0.387670	 2
1463571734.800	 4	 -1.620946	 0.837592	 1.257427	 2.108772	 -0.644158	 -0.493548	 0.049940	 0.838072	 -0.381335	 0.386943	 2
1463571734.810	 4	 -1.119995	 0.780169	 1.168335	 2.120000	 -0.627457	 -0.487935	 0.054034	 0.841647	 -0.373568	 0.386210	 2
1463571734.820	 4	 -0.624074	 0.823494	 1.036529	 2.128577	 -0.614468	 -0.487065	 0.058599	 0.844280	 -0.368151	 0.384997	 2
1463571734.830	 4	 -0.200033	 0.973727	 0.951106	 2.136056	 -0.604670	 -0.490221	 0.063806	 0.846321	 -0.364731	 0.382937	 2
1463571734.840	 4	 0.115719	 1.198057	 0.919537	 2.143781	 -0.597127	 -0.496725	 0.069883	 0.848104	 -0.362779	 0.379773	 2
1463571734.860	 5	 0.431799	 1.523158	 0.850535	 2.161945	 -0.586086	 -0.515266	 0.083830	 0.851543	 -0.361250	 0.370602	 2
1463571734.870	 5	 0.478478	 1.543611	 0.756532	 2.171918	 -0.582234	 -0.525190	 0.090821	 0.853196	 -0.361132	 0.365229	 2
1463571734.880	 5	 0.514913	 1.475407	 0.606373	 2.181751	 -0.579798	 -0.534573	 0.097207	 0.854693	 -0.361415	 0.359763	 2
1463571734.890	 5	 0.590110	 1.292948	 0.410052	 2.190424	 -0.579313	 -0.543302	 0.102629	 0.855837	 -0.362350	 0.354560	 2
1463571734.900	 5	 0.692786	 1.100431	 0.157978	 2.197387	 -0.581340	 -0.551371	 0.106852	 0.856512	 -0.364202	 0.349753	 2
1463571734.910	 5	 0.808895	 0.872277	 -0.162753	 2.202942	 -0.586567	 -0.558316	 0.109566	 0.856767	 -0.367161	 0.345165	 2
1463571734.920	 5	 0.989575	 0.520659	 -0.469209	 2.205615	 -0.595316	 -0.564611	 0.110625	 0.856311	 -0.371522	 0.341270	 2
1463571734.930	 5	 1.294633	 0.005411	 -0.702601	 2.203013	 -0.607668	 -0.571827	 0.110209	 0.854650	 -0.377713	 0.338763	 2
1463571734.940	 5	 1.693602	 -0.912585	 -0.994912	 2.191269	 -0.624431	 -0.580977	 0.107741	 0.851025	 -0.386393	 0.338893	 2
1463571734.950	 5	 2.053208	 -2.058899	 -1.253836	 2.166560	 -0.645524	 -0.592602	 0.102541	 0.844749	 -0.397735	 0.343062	 2
1463571734.960	 5	 2.017862	 -2.682776	 -1.350989	 2.133053	 -0.668062	 -0.605142	 0.095253	 0.836764	 -0.410021	 0.350195	 2
1463571734.970	 5	 1.225132	 -2.119660	 -1.167259	 2.104634	 -0.686180	 -0.613015	 0.087866	 0.830131	 -0.419380	 0.356766	 2
1463571734.980	 5	 0.087381	 -0.333940	 -0.905202	 2.097440	 -0.696486	 -0.610854	 0.082700	 0.828219	 -0.423051	 0.358109	 2
1463571734.990	 5	 -0.552950	 1.604327	 -0.526692	 2.115587	 -0.699539	 -0.601615	 0.081886	 0.831599	 -0.421777	 0.351912	 2
1463571735.000	 5	 -0.341176	 1.208251	 -0.205033	 2.134349	 -0.699683	 -0.594835	 0.082971	 0.835139	 -0.419874	 0.345492	 2
1463571735.010	 5	 0.171605	 -0.089495	 0.129062	 2.136079	 -0.699503	 -0.595669	 0.083729	 0.835417	 -0.419879	 0.344630	 2
1463571735.020	 5	 0.486815	 -0.853694	 0.330228	 2.124692	 -0.699343	 -0.602458	 0.084208	 0.833172	 -0.421474	 0.347984	 2
1463571735.030	 5	 0.434998	 -1.088717	 0.460647	 2.108863	 -0.698115	 -0.610543	 0.084552	 0.830147	 -0.423110	 0.353108	 2
1463571735.040	 5	 0.267608	 -0.930996	 0.581871	 2.094467	 -0.694877	 -0.617663	 0.085321	 0.827513	 -0.423812	 0.358227	 2
1463571735.050	 5	 0.230726	 -0.651822	 0.637013	 2.083015	 -0.690567	 -0.624257	 0.086782	 0.825457	 -0.423936	 0.362447	 2
1463571735.060	 5	 0.351207	 -0.459572	 0.649476	 2.073200	 -0.686425	 -0.631932	 0.088991	 0.823601	 -0.424276	 0.365722	 2
1463571735.070	 5	 0.498474	 -0.444189	 0.630219	 2.063016	 -0.683034	 -0.641058	 0.091510	 0.821528	 -0.425198	 0.368679	 2
1463571735.080	 5	 0.697438	 -0.525996	 0.576569	 2.051115	 -0.680773	 -0.651999	 0.094086	 0.818950	 -0.426972	 0.371704	 2
1463571735.090	 5	 0.748008	 -0.562131	 0.454295	 2.038278	 -0.679947	 -0.663465	 0.096255	 0.816055	 -0.429432	 0.374671	 2
1463571735.100	 5	 0.489015	 -0.493288	 0.456125	 2.027411	 -0.678452	 -0.672604	 0.098060	 0.813646	 -0.431155	 0.377453	 2
1463571735.110	 5	 -0.063154	 -0.591597	 0.463215	 2.019637	 -0.674676	 -0.676285	 0.098948	 0.812180	 -0.430920	 0.380632	 2
1463571735.120	 5	 -0.736030	 -0.923694	 0.449997	 2.013778	 -0.668122	 -0.672104	 0.097851	 0.811580	 -0.428128	 0.385318	 2
1463571735.130	 5	 -1.020013	 -0.949436	 0.452230	 2.009501	 -0.659834	 -0.663250	 0.095703	 0.811569	 -0.423728	 0.390706	 2
1463571735.140	 5	 -0.663926	 -0.527544	 0.399767	 2.007156	 -0.652716	 -0.656358	 0.094436	 0.811766	 -0.419997	 0.394615	 2
1463571735.150	 5	 0.146816	 0.298729	 0.413186	 2.007077	 -0.648777	 -0.657799	 0.096124	 0.811860	 -0.418905	 0.395173	 2
1463571735.160	 5	 0.337425	 1.462832	 0.267824	 2.015306	 -0.647351	 -0.663513	 0.100575	 0.813261	 -0.419122	 0.390933	 2
1463571735.170	 5	 0.012805	 1.773440	 -0.151699	 2.032510	 -0.648080	 -0.664503	 0.104376	 0.816508	 -0.418690	 0.383562	 2
1463571735.180	 5	 -0.502247	 0.844512	 -0.560848	 2.047927	 -0.650668	 -0.657829	 0.104148	 0.819667	 -0.417533	 0.378107	 2
1463571735.190	 5	 -1.110402	 -0.582164	 -0.711641	 2.054673	 -0.652330	 -0.642979	 0.099000	 0.821611	 -0.414977	 0.378084	 2
1463571735.200	 5	 -1.325782	 -1.794058	 -0.566507	 2.050686	 -0.651788	 -0.624788	 0.090851	 0.821745	 -0.411508	 0.383592	 2
1463571735.210	 5	 -1.048800	 -2.662195	 -0.193323	 2.034622	 -0.649189	 -0.610272	 0.082323	 0.819394	 -0.408448	 0.393684	 2
1463571735.220	 5	 -0.218025	 -2.950337	 0.008849	 2.008760	 -0.647271	 -0.604948	 0.075409	 0.814537	 -0.407717	 0.405720	 2
1463571735.230	 5	 0.901913	 -2.705997	 -0.164887	 1.976735	 -0.650851	 -0.611678	 0.070556	 0.807527	 -0.411536	 0.416606	 2
1463571735.240	 5	 1.547816	 -2.096140	 -0.287398	 1.944774	 -0.658755	 -0.626967	 0.067762	 0.799905	 -0.418602	 0.424656	 2
1463571735.250	 5	 1.818357	 -1.335107	 -0.248568	 1.917380	 -0.667377	 -0.646710	 0.067271	 0.793018	 -0.426677	 0.429586	 2
1463571735.260	 5	 2.028920	 -0.750221	 -0.323825	 1.894535	 -0.676647	 -0.669321	 0.068478	 0.786971	 -0.435411	 0.431746	 2
1463571735.270	 5	 2.195849	 -0.477831	 -0.534831	 1.873742	 -0.687840	 -0.693907	 0.070110	 0.781238	 -0.445093	 0.432022	 2
1463571735.280	 5	 2.193252	 -0.358451	 -0.793743	 1.854045	 -0.701175	 -0.718679	 0.071180	 0.775697	 -0.455389	 0.431102	 2
1463571735.290	 5	 1.970411	 -0.309817	 -1.070580	 1.836424	 -0.716334	 -0.740955	 0.070978	 0.770687	 -0.465534	 0.429280	 2
1463571735.300	 5	 1.582336	 -0.471105	 -1.321288	 1.820687	 -0.732832	 -0.758468	 0.068778	 0.766274	 -0.474867	 0.427312	 2
1463571735.310	 5	 1.094022	 -0.892253	 -1.512792	 1.805333	 -0.750032	 -0.769732	 0.063906	 0.762190	 -0.482920	 0.426346	 2
1463571735.320	 5	 0.607950	 -1.361718	 -1.619505	 1.789557	 -0.767232	 -0.774494	 0.056334	 0.758245	 -0.489455	 0.426994	 2
1463571735.330	 5	 0.261703	 -1.667215	 -1.645977	 1.773670	 -0.784014	 -0.774297	 0.046897	 0.754410	 -0.494663	 0.428923	 2
1463571735.340	 5	 0.099149	 -1.781250	 -1.596598	 1.757926	 -0.800086	 -0.771633	 0.036721	 0.750635	 -0.498982	 0.431526	 2
1463571735.350	 5	 0.116840	 -1.731677	 -1.500372	 1.742231	 -0.815288	 -0.769133	 0.026840	 0.746837	 -0.502943	 0.434238	 2
1463571735.360	 5	 0.271649	 -1.599308	 -1.371531	 1.725906	 -0.829511	 -0.769079	 0.017974	 0.742856	 -0.507031	 0.436762	 2
1463571735.370	 5	 0.490927	 -1.396736	 -1.215954	 1.708689	 -0.842563	 -0.772740	 0.010581	 0.738668	 -0.511488	 0.438905	 2
1463571735.380	 5	 0.731574	 -1.203670	 -1.042533	 1.690231	 -0.854198	 -0.780717	 0.004855	 0.734239	 -0.516401	 0.440681	 2
1463571735.390	 5	 0.918311	 -1.123223	 -0.873954	 1.669916	 -0.864240	 -0.792552	 0.000503	 0.729467	 -0.521646	 0.442451	 2
1463571735.400	 5	 1.008311	 -1.152363	 -0.749249	 1.647649	 -0.872852	 -0.806793	 -0.003109	 0.724334	 -0.526967	 0.444563	 2
1463571735.410	 5	 1.013408	 -1.260371	 -0.681024	 1.623689	 -0.880448	 -0.821943	 -0.006612	 0.718881	 -0.532154	 0.447190	 2
1463571735.420	 5	 0.975617	 -1.370726	 -0.660406	 1.598571	 -0.887463	 -0.837052	 -0.010363	 0.713204	 -0.537112	 0.450271	 2
1463571735.430	 5	 0.929175	 -1.473884	 -0.678009	 1.572584	 -0.894327	 -0.851849	 -0.014533	 0.707353	 -0.541881	 0.453658	 2
1463571735.440	 5	 0.900786	 -1.581471	 -0.711801	 1.545590	 -0.901250	 -0.866524	 -0.019166	 0.701293	 -0.546544	 0.457287	 2
1463571735.450	 5	 0.875018	 -1.619640	 -0.705538	 1.517741	 -0.908046	 -0.881233	 -0.024105	 0.695057	 -0.551086	 0.461106	 2
1463571735.460	 5	 0.904237	 -1.750630	 -0.716603	 1.488587	 -0.914485	 -0.896562	 -0.029192	 0.688545	 -0.555585	 0.465166	 2
1463571735.470	 5	 0.903245	 -1.881077	 -0.811595	 1.457134	 -0.921421	 -0.912732	 -0.034950	 0.681533	 -0.560240	 0.469492	 2
1463571735.480	 5	 0.823095	 -1.842030	 -0.886203	 1.425929	 -0.928958	 -0.928538	 -0.041131	 0.674608	 -0.564806	 0.473505	 2
1463571735.490	 5	 0.732727	 -1.709333	 -0.957719	 1.396411	 -0.937024	 -0.943545	 -0.047440	 0.668114	 -0.569179	 0.476873	 2
1463571735.500	 5	 0.642651	 -1.489639	 -1.059335	 1.369277	 -0.945910	 -0.957926	 -0.053708	 0.662245	 -0.573466	 0.479254	 2
1463571735.510	 5	 0.544640	 -1.148616	 -1.153359	 1.345709	 -0.955795	 -0.971652	 -0.059653	 0.657309	 -0.577717	 0.480238	 2
1463571735.520	 5	 0.446992	 -0.778464	 -1.190629	 1.326544	 -0.966206	 -0.984441	 -0.064917	 0.653494	 -0.581827	 0.479801	 2
1463571735.530	 5	 0.382123	 -0.497535	 -1.198107	 1.310966	 -0.976811	 -0.996528	 -0.069505	 0.650596	 -0.585796	 0.478264	 2
1463571735.540	 5	 0.375096	 -0.407078	 -1.194007	 1.296731	 -0.987363	 -1.008686	 -0.073709	 0.648088	 -0.589713	 0.476222	 2
1463571735.550	 5	 0.365258	 -0.497106	 -1.145734	 1.281538	 -0.997519	 -1.021127	 -0.078006	 0.645414	 -0.593500	 0.474462	 2
1463571735.560	 5	 0.338565	 -0.605664	 -1.019686	 1.265955	 -1.006553	 -1.032937	 -0.082249	 0.642636	 -0.596869	 0.473288	 2
1463571735.570	 5	 0.303925	 -0.766737	 -0.951609	 1.249155	 -1.014777	 -1.044163	 -0.086784	 0.639564	 -0.599853	 0.472867	 2
1463571735.580	 5	 0.247684	 -0.976722	 -0.890193	 1.231187	 -1.022489	 -1.054513	 -0.091802	 0.636203	 -0.602425	 0.473183	 2
1463571735.590	 5	 0.148200	 -1.321509	 -0.808340	 1.211457	 -1.029697	 -1.063219	 -0.097726	 0.632364	 -0.604375	 0.474653	 2
1463571735.600	 5	 -0.051746	 -1.776994	 -0.631790	 1.190632	 -1.036047	 -1.068156	 -0.104880	 0.628049	 -0.605183	 0.477816	 2
1463571735.610	 5	 -0.324643	 -1.863178	 -0.453299	 1.172680	 -1.041562	 -1.067213	 -0.112704	 0.624045	 -0.604550	 0.482063	 2
1463571735.620	 5	 -0.712308	 -1.581348	 -0.320475	 1.163256	 -1.047223	 -1.058856	 -0.120310	 0.621645	 -0.602548	 0.485819	 2
1463571735.630	 5	 -1.083245	 -1.186486	 -0.140918	 1.165084	 -1.052898	 -1.041942	 -0.127184	 0.621395	 -0.599112	 0.488628	 2
1463571735.640	 5	 -1.366588	 -0.779067	 0.045454	 1.177342	 -1.057956	 -1.017657	 -0.133013	 0.623100	 -0.594493	 0.490542	 2
1463571735.650	 5	 -1.614894	 -0.176114	 0.222683	 1.200833	 -1.062095	 -0.986805	 -0.137283	 0.626977	 -0.588970	 0.491088	 2
1463571735.660	 5	 -1.790681	 0.662575	 0.375896	 1.237025	 -1.064952	 -0.950447	 -0.139224	 0.633440	 -0.582905	 0.489482	 2
1463571735.670	 5	 -1.782804	 1.555761	 0.491780	 1.283808	 -1.066036	 -0.912315	 -0.138228	 0.642221	 -0.577003	 0.485296	 2
1463571735.680	 5	 -1.690599	 2.269649	 0.557303	 1.337399	 -1.065173	 -0.875118	 -0.134558	 0.652597	 -0.571561	 0.478884	 2
1463571735.690	 5	 -1.633905	 2.756560	 0.549617	 1.394754	 -1.063076	 -0.839780	 -0.129092	 0.663899	 -0.566604	 0.470674	 2
1463571735.700	 5	 -1.937964	 3.289779	 0.475163	 1.460021	 -1.060758	 -0.800981	 -0.122846	 0.676700	 -0.561258	 0.460407	 2
1463571735.710	 5	 -2.177054	 4.003777	 0.422074	 1.537016	 -1.058096	 -0.756529	 -0.115610	 0.691629	 -0.555222	 0.447227	 2
1463571735.720	 5	 -1.786043	 4.426972	 0.563288	 1.614442	 -1.052803	 -0.717653	 -0.105968	 0.706805	 -0.549786	 0.432358	 2
1463571735.730	 5	 -1.165673	 4.561641	 0.757372	 1.681602	 -1.044854	 -0.692519	 -0.093841	 0.720382	 -0.545897	 0.417420	 2
1463571735.740	 5	 -0.809968	 4.384058	 1.053167	 1.738656	 -1.033939	 -0.678022	 -0.079964	 0.732345	 -0.542630	 0.403520	 2
1463571735.750	 5	 -0.804703	 3.909564	 1.331133	 1.787693	 -1.020048	 -0.667932	 -0.065928	 0.742942	 -0.538722	 0.391751	 2
1463571735.760	 5	 -1.126970	 3.257095	 1.575124	 1.832251	 -1.002851	 -0.655793	 -0.053070	 0.752797	 -0.532938	 0.382697	 2
1463571735.770	 5	 -1.481431	 2.590687	 1.790491	 1.872887	 -0.982265	 -0.640090	 -0.041867	 0.762121	 -0.524999	 0.376555	 2
1463571735.780	 5	 -1.707119	 2.080208	 1.999792	 1.908861	 -0.958537	 -0.623123	 -0.031779	 0.770906	 -0.515400	 0.372903	 2
1463571735.790	 5	 -1.874967	 1.669069	 2.144503	 1.940208	 -0.932349	 -0.606273	 -0.022483	 0.779155	 -0.504604	 0.371195	 2
1463571735.800	 5	 -2.025042	 1.321532	 2.120195	 1.967903	 -0.905054	 -0.589095	 -0.014284	 0.786914	 -0.492979	 0.370857	 2
1463571735.810	 5	 -2.237129	 0.914031	 1.868861	 1.993227	 -0.878558	 -0.569675	 -0.008148	 0.794211	 -0.480834	 0.371433	 2
1463571735.820	 5	 -2.491127	 0.586264	 1.449178	 2.018122	 -0.854187	 -0.545728	 -0.004886	 0.801270	 -0.468255	 0.372396	 2
1463571735.830	 5	 -2.612454	 0.290367	 1.077661	 2.041998	 -0.832243	 -0.518557	 -0.004203	 0.807953	 -0.455659	 0.373589	 2
1463571735.840	 5	 -2.587116	 -0.011446	 0.829507	 2.063064	 -0.812377	 -0.490728	 -0.005337	 0.813942	 -0.443471	 0.375238	 2
1463571735.850	 5	 -2.460996	 -0.321143	 0.708293	 2.079697	 -0.793965	 -0.464198	 -0.007597	 0.818974	 -0.431881	 0.377761	 2
1463571735.860	 5	 -2.177334	 -0.587905	 0.704407	 2.090688	 -0.776769	 -0.441233	 -0.010139	 0.822829	 -0.421258	 0.381303	 2
1463571735.870	 5	 -1.735788	 -0.751011	 0.831199	 2.095186	 -0.760688	 -0.424392	 -0.011937	 0.825346	 -0.412075	 0.385818	 2
1463571735.880	 5	 -1.426000	 -0.659786	 1.069147	 2.095552	 -0.744566	 -0.413718	 -0.012075	 0.827084	 -0.403961	 0.390643	 2
1463571735.890	 5	 -1.396981	 -0.401491	 1.351594	 2.095847	 -0.726460	 -0.406126	 -0.010454	 0.829001	 -0.395637	 0.395119	 2
1463571735.900	 5	 -1.364364	 0.062088	 1.489909	 2.099229	 -0.706838	 -0.400077	 -0.007218	 0.831650	 -0.386993	 0.398174	 2
1463571735.910	 5	 -1.193397	 0.415070	 1.393655	 2.105594	 -0.688169	 -0.395536	 -0.003074	 0.834761	 -0.378951	 0.399449	 2
1463571735.920	 5	 -0.902795	 0.509900	 1.094660	 2.112523	 -0.673057	 -0.392470	 0.000824	 0.837606	 -0.372512	 0.399561	 2
1463571735.930	 5	 -0.607874	 0.379317	 0.807384	 2.117708	 -0.662026	 -0.390870	 0.003928	 0.839690	 -0.367906	 0.399437	 2
1463571735.940	 5	 -0.359422	 0.309859	 0.570107	 2.121059	 -0.654507	 -0.390449	 0.006278	 0.841062	 -0.364885	 0.399292	 2
1463571735.950	 5	 -0.142817	 0.436763	 0.410603	 2.124536	 -0.649678	 -0.391291	 0.008491	 0.842198	 -0.363154	 0.398433	 2
1463571735.960	 5	 0.053818	 0.580100	 0.308977	 2.128663	 -0.646919	 -0.393548	 0.010888	 0.843261	 -0.362504	 0.396717	 2
1463571735.970	 5	 0.242981	 0.682332	 0.256059	 2.132895	 -0.645670	 -0.397393	 0.013593	 0.844188	 -0.362749	 0.394430	 2
1463571735.980	 5	 0.416056	 0.800280	 0.163994	 2.137458	 -0.646052	 -0.402661	 0.016550	 0.845010	 -0.363899	 0.391486	 2
1463571735.990	 5	 0.572429	 0.870618	 -0.046668	 2.142572	 -0.648812	 -0.408386	 0.019211	 0.845705	 -0.366051	 0.387842	 2
1463571736.000	 5	 0.736489	 0.842378	 -0.354233	 2.147821	 -0.654889	 -0.413859	 0.020970	 0.846106	 -0.369434	 0.383645	 2
1463571736.010	 5	 0.892384	 0.682142	 -0.680007	 2.152138	 -0.664573	 -0.418728	 0.021414	 0.845979	 -0.374105	 0.379351	 2
1463571736.020	 5	 1.071409	 0.416811	 -0.968593	 2.154147	 -0.677720	 -0.423339	 0.020465	 0.845061	 -0.380083	 0.375486	 2
1463571736.030	 5	 1.260906	 0.080438	 -1.222762	 2.152770	 -0.694081	 -0.428187	 0.018164	 0.843161	 -0.387357	 0.372429	 2
1463571736.040	 5	 1.465054	 -0.317666	 -1.476566	 2.147150	 -0.713653	 -0.433517	 0.014403	 0.840110	 -0.395943	 0.370455	 2
1463571736.050	 5	 1.538077	 -0.591932	 -1.573541	 2.137808	 -0.735158	 -0.439503	 0.009614	 0.836124	 -0.405328	 0.369478	 2
1463571736.060	 5	 1.169526	 -0.379929	 -1.381851	 2.130128	 -0.754308	 -0.443815	 0.004972	 0.832658	 -0.413404	 0.368448	 2
1463571736.070	 5	 0.427368	 0.696817	 -0.897500	 2.133947	 -0.766352	 -0.443635	 0.002622	 0.832045	 -0.417900	 0.364764	 2
1463571736.090	 6	 -0.336371	 2.303976	 -0.027549	 2.182417	 -0.767251	 -0.434725	 0.008783	 0.840584	 -0.416520	 0.346197	 2
1463571736.100	 6	 -0.170945	 1.492073	 0.135044	 2.200583	 -0.765432	 -0.433058	 0.012301	 0.843918	 -0.415439	 0.339207	 2
1463571736.110	 6	 -0.087278	 0.194324	 0.441968	 2.204501	 -0.761921	 -0.435038	 0.014795	 0.844979	 -0.414393	 0.337744	 2
1463571736.120	 6	 -0.115009	 -0.793997	 0.545984	 2.196490	 -0.756890	 -0.438170	 0.015675	 0.844177	 -0.413044	 0.341342	 2
1463571736.130	 6	 -0.004879	 -1.270052	 0.358350	 2.182657	 -0.753249	 -0.441060	 0.014926	 0.842186	 -0.412247	 0.347206	 2
1463571736.140	 6	 0.217421	 -1.033900	 0.159314	 2.169033	 -0.752492	 -0.444381	 0.013700	 0.839864	 -0.412635	 0.352381	 2
1463571736.150	 6	 0.433205	 -0.515670	 0.134548	 2.158958	 -0.753574	 -0.449773	 0.013609	 0.837926	 -0.414070	 0.355304	 2
1463571736.160	 6	 0.533149	 -0.219609	 0.227022	 2.151200	 -0.754710	 -0.457135	 0.014796	 0.836369	 -0.415867	 0.356822	 2
1463571736.170	 6	 0.597339	 -0.096302	 0.389606	 2.143600	 -0.755030	 -0.466396	 0.017001	 0.834903	 -0.417703	 0.358010	 2
1463571736.180	 6	 0.640071	 -0.070155	 0.638866	 2.135000	 -0.753626	 -0.477992	 0.020396	 0.833399	 -0.419336	 0.359425	 2
1463571736.190	 6	 0.407549	 -0.331824	 0.981631	 2.124312	 -0.748655	 -0.490036	 0.024447	 0.831842	 -0.419771	 0.362262	 2
1463571736.200	 6	 -0.003239	 -0.811169	 1.302608	 2.110732	 -0.738693	 -0.500023	 0.028343	 0.830204	 -0.418068	 0.367664	 2
1463571736.210	 6	 -0.608394	 -1.278433	 1.304594	 2.096401	 -0.724969	 -0.503855	 0.030560	 0.828762	 -0.413904	 0.375372	 2
1463571736.220	 6	 -0.823217	 -1.498436	 0.947387	 2.083395	 -0.711760	 -0.501412	 0.030379	 0.827504	 -0.408748	 0.383719	 2
1463571736.230	 6	 -0.322343	 -1.268119	 0.496483	 2.070890	 -0.704151	 -0.499685	 0.029154	 0.825761	 -0.405787	 0.390648	 2
1463571736.240	 6	 0.307849	 0.105260	 0.347109	 2.064712	 -0.701788	 -0.503953	 0.030299	 0.824685	 -0.405843	 0.392770	 2
1463571736.250	 6	 0.372505	 2.420334	 0.170923	 2.079690	 -0.701540	 -0.509967	 0.035892	 0.827520	 -0.406673	 0.385407	 2
1463571736.260	 6	 0.016068	 2.425935	 -0.373724	 2.105457	 -0.704071	 -0.509920	 0.040443	 0.832200	 -0.407113	 0.374255	 2
1463571736.270	 6	 -0.565593	 0.797780	 -0.869797	 2.124421	 -0.708478	 -0.500027	 0.039027	 0.835524	 -0.406552	 0.367548	 2
1463571736.280	 6	 -0.991085	 -0.903108	 -0.919222	 2.130289	 -0.711574	 -0.483371	 0.032456	 0.836616	 -0.404551	 0.367911	 2
1463571736.290	 6	 -0.918028	 -2.236394	 -0.823557	 2.122062	 -0.713702	 -0.466495	 0.023196	 0.835123	 -0.402339	 0.374373	 2
1463571736.300	 6	 -0.412934	 -3.063494	 -0.566013	 2.099978	 -0.716251	 -0.455884	 0.013677	 0.830784	 -0.401488	 0.385252	 2
1463571736.310	 6	 0.262194	 -3.065320	 -0.397129	 2.068313	 -0.721816	 -0.455241	 0.005567	 0.824064	 -0.403594	 0.397492	 2
1463571736.320	 6	 0.963077	 -2.525270	 -0.296959	 2.036601	 -0.728334	 -0.462585	 0.000387	 0.817064	 -0.407522	 0.407838	 2
1463571736.330	 6	 1.594823	 -1.747511	 -0.152410	 2.006193	 -0.736298	 -0.478974	 -0.001392	 0.810096	 -0.413774	 0.415372	 2
1463571736.340	 6	 2.079688	 -1.042261	 -0.092518	 1.978044	 -0.745235	 -0.502789	 -0.000192	 0.803459	 -0.421915	 0.420049	 2
1463571736.350	 6	 2.316783	 -0.492517	 -0.163005	 1.952757	 -0.755240	 -0.530819	 0.002745	 0.797302	 -0.431318	 0.422217	 2
1463571736.360	 6	 2.212531	 -0.206899	 -0.419485	 1.931351	 -0.766621	 -0.558178	 0.005604	 0.791846	 -0.441021	 0.422433	 2
1463571736.370	 6	 1.827797	 -0.431042	 -0.829605	 1.912648	 -0.780085	 -0.580114	 0.006084	 0.786838	 -0.450204	 0.422096	 2
1463571736.380	 6	 1.304385	 -1.109879	 -1.222499	 1.893456	 -0.795453	 -0.594168	 0.002598	 0.781645	 -0.458251	 0.423120	 2
1463571736.390	 6	 0.820709	 -1.815794	 -1.520073	 1.872392	 -0.812145	 -0.600530	 -0.004884	 0.775984	 -0.464959	 0.426190	 2
1463571736.400	 6	 0.513748	 -2.258682	 -1.702701	 1.849895	 -0.829750	 -0.601639	 -0.015157	 0.769907	 -0.470646	 0.430705	 2
1463571736.410	 6	 0.425587	 -2.350297	 -1.758206	 1.826892	 -0.847790	 -0.600973	 -0.026492	 0.763608	 -0.475859	 0.435614	 2
1463571736.420	 6	 0.535652	 -2.145951	 -1.695449	 1.804017	 -0.865664	 -0.601996	 -0.037222	 0.757305	 -0.481161	 0.439986	 2
1463571736.430	 6	 0.772659	 -1.819921	 -1.521825	 1.780858	 -0.882511	 -0.607407	 -0.046166	 0.751063	 -0.486900	 0.443510	 2
1463571736.440	 6	 1.025398	 -1.559817	 -1.339360	 1.756326	 -0.897967	 -0.618126	 -0.053160	 0.744751	 -0.493184	 0.446419	 2
1463571736.450	 6	 1.184898	 -1.378186	 -1.163203	 1.730331	 -0.911837	 -0.633146	 -0.058577	 0.738379	 -0.499762	 0.449003	 2
1463571736.460	 6	 1.253259	 -1.282486	 -0.992385	 1.703258	 -0.923873	 -0.650861	 -0.062858	 0.732019	 -0.506253	 0.451558	 2
1463571736.470	 6	 1.247431	 -1.282480	 -0.847391	 1.675223	 -0.934111	 -0.669901	 -0.066489	 0.725648	 -0.512403	 0.454376	 2
1463571736.480	 6	 1.181502	 -1.338801	 -0.720515	 1.646626	 -0.942681	 -0.688998	 -0.069865	 0.719289	 -0.518007	 0.457614	 2
1463571736.490	 6	 1.070292	 -1.472805	 -0.617415	 1.617564	 -0.949747	 -0.707120	 -0.073365	 0.712895	 -0.522906	 0.461483	 2
1463571736.500	 6	 0.934423	 -1.599560	 -0.551334	 1.588483	 -0.955721	 -0.723517	 -0.077254	 0.706494	 -0.527066	 0.465939	 2
1463571736.510	 6	 0.812598	 -1.687032	 -0.489273	 1.559880	 -0.960792	 -0.738117	 -0.081462	 0.700169	 -0.530544	 0.470797	 2
1463571736.520	 6	 0.716409	 -1.752391	 -0.447479	 1.531724	 -0.965162	 -0.751247	 -0.085924	 0.693901	 -0.533470	 0.475951	 2
1463571736.530	 6	 0.647054	 -1.762712	 -0.432051	 1.504160	 -0.969149	 -0.763294	 -0.090558	 0.687717	 -0.536016	 0.481176	 2
1463571736.540	 6	 0.600181	 -1.741336	 -0.436772	 1.477290	 -0.972994	 -0.774696	 -0.095259	 0.681653	 -0.538348	 0.486269	 2
1463571736.550	 6	 0.587129	 -1.757562	 -0.479440	 1.450474	 -0.976997	 -0.785956	 -0.100126	 0.675570	 -0.540617	 0.491236	 2
1463571736.560	 6	 0.601202	 -1.744585	 -0.444272	 1.423191	 -0.980731	 -0.797696	 -0.104936	 0.669382	 -0.542863	 0.496201	 2
1463571736.570	 6	 0.578131	 -1.686837	 -0.410495	 1.396509	 -0.983865	 -0.809326	 -0.109473	 0.663324	 -0.544936	 0.501061	 2
1463571736.580	 6	 0.526085	 -1.617697	 -0.430714	 1.370932	 -0.987041	 -0.820378	 -0.113985	 0.657491	 -0.546879	 0.505605	 2
1463571736.590	 6	 0.425065	 -1.504969	 -0.473547	 1.347373	 -0.990600	 -0.830193	 -0.118553	 0.652085	 -0.548639	 0.509633	 2
1463571736.600	 6	 0.298510	 -1.342466	 -0.556194	 1.326675	 -0.995006	 -0.838342	 -0.123245	 0.647308	 -0.550235	 0.512879	 2
1463571736.610	 6	 0.159379	 -1.113075	 -0.660490	 1.309556	 -1.000648	 -0.844745	 -0.128020	 0.643356	 -0.551754	 0.515045	 2
1463571736.620	 6	 0.026788	 -0.864473	 -0.752941	 1.296344	 -1.007543	 -0.849425	 -0.132772	 0.640326	 -0.553227	 0.516037	 2
1463571736.630	 6	 -0.070658	 -0.642467	 -0.832091	 1.286586	 -1.015501	 -0.852739	 -0.137427	 0.638123	 -0.554696	 0.515970	 2
1463571736.640	 6	 -0.064110	 -0.551536	 -0.903773	 1.278007	 -1.024215	 -0.856244	 -0.141994	 0.636262	 -0.556364	 0.515236	 2
1463571736.650	 6	 0.002895	 -0.756544	 -0.986197	 1.266747	 -1.033441	 -0.861367	 -0.147003	 0.633851	 -0.558279	 0.514731	 2
1463571736.660	 6	 0.084377	 -1.235379	 -1.128845	 1.248897	 -1.043601	 -0.869294	 -0.153351	 0.629999	 -0.560480	 0.515215	 2
1463571736.670	 6	 0.066583	 -1.728739	 -1.261172	 1.224627	 -1.054944	 -0.878960	 -0.161455	 0.624699	 -0.562662	 0.516812	 2
1463571736.680	 6	 -0.002496	 -2.160016	 -1.213428	 1.195954	 -1.066574	 -0.887999	 -0.171168	 0.618271	 -0.564166	 0.519768	 2
1463571736.690	 6	 0.023452	 -2.399905	 -0.842869	 1.165578	 -1.075359	 -0.895848	 -0.180697	 0.611260	 -0.564637	 0.524303	 2
1463571736.700	 6	 -0.031873	 -2.346002	 -0.326057	 1.138419	 -1.079534	 -0.899620	 -0.188819	 0.604575	 -0.563612	 0.530262	 2
1463571736.710	 6	 -0.263408	 -2.031527	 0.117980	 1.120700	 -1.080271	 -0.895699	 -0.195265	 0.599498	 -0.560948	 0.536481	 2
1463571736.720	 6	 -0.515010	 -1.654396	 0.540393	 1.114434	 -1.078394	 -0.882962	 -0.200098	 0.596486	 -0.556683	 0.542466	 2
1463571736.730	 6	 -0.617741	 -1.206082	 1.012263	 1.118522	 -1.073044	 -0.863268	 -0.202761	 0.595451	 -0.551114	 0.548270	 2
1463571736.740	 6	 -0.519207	 -0.619058	 1.479408	 1.130539	 -1.063110	 -0.840678	 -0.202347	 0.596207	 -0.544915	 0.553770	 2
1463571736.750	 6	 -0.399299	 0.063915	 1.839618	 1.149247	 -1.048952	 -0.817906	 -0.198595	 0.598813	 -0.538648	 0.558427	 2
1463571736.760	 6	 -0.275525	 0.795709	 2.040385	 1.173899	 -1.031802	 -0.796494	 -0.191788	 0.603334	 -0.532703	 0.561634	 2
1463571736.770	 6	 -0.094637	 1.336767	 2.069422	 1.200706	 -1.013184	 -0.779283	 -0.182706	 0.609032	 -0.527628	 0.563301	 2
1463571736.780	 6	 -0.144169	 1.825934	 2.183113	 1.231125	 -0.993406	 -0.763410	 -0.171963	 0.616034	 -0.522732	 0.563632	 2
1463571736.790	 6	 -0.331490	 2.279427	 2.308330	 1.267770	 -0.972700	 -0.745492	 -0.160058	 0.624795	 -0.517225	 0.562575	 2
1463571736.800	 6	 -0.311643	 2.549252	 2.417244	 1.306799	 -0.950671	 -0.728232	 -0.147067	 0.634468	 -0.511375	 0.560639	 2
1463571736.810	 6	 -0.177335	 2.870909	 2.533104	 1.345685	 -0.926932	 -0.714528	 -0.132589	 0.644533	 -0.505658	 0.557949	 2
1463571736.820	 6	 -0.077609	 3.259199	 2.729818	 1.385731	 -0.900970	 -0.703981	 -0.116219	 0.655265	 -0.499865	 0.554307	 2
1463571736.830	 6	 0.028108	 3.525456	 2.967974	 1.426121	 -0.872236	 -0.696482	 -0.097996	 0.666361	 -0.493689	 0.550119	 2
1463571736.840	 6	 0.137980	 3.641927	 3.086401	 1.465693	 -0.841718	 -0.692238	 -0.078503	 0.677416	 -0.487255	 0.545461	 2
1463571736.850	 6	 0.394842	 3.526698	 3.140643	 1.500655	 -0.810303	 -0.692967	 -0.058365	 0.687343	 -0.481086	 0.541027	 2
1463571736.860	 6	 0.608008	 3.430684	 3.186919	 1.531338	 -0.778276	 -0.698582	 -0.037553	 0.696092	 -0.475324	 0.536761	 2
1463571736.870	 6	 0.587699	 3.163014	 3.228301	 1.558633	 -0.745867	 -0.705746	 -0.017038	 0.703735	 -0.469239	 0.533180	 2
1463571736.880	 6	 0.450923	 2.855520	 3.011347	 1.583629	 -0.715048	 -0.712352	 0.002017	 0.710521	 -0.462894	 0.529986	 2
1463571736.890	 6	 0.335994	 2.598612	 2.592178	 1.606703	 -0.688103	 -0.717883	 0.018734	 0.716599	 -0.456885	 0.526680	 2
1463571736.900	 6	 0.339914	 2.225190	 2.141049	 1.626408	 -0.665766	 -0.723452	 0.032968	 0.721644	 -0.451867	 0.523412	 2
1463571736.910	 6	 0.427897	 1.715052	 1.791295	 1.640971	 -0.647330	 -0.730008	 0.044969	 0.725220	 -0.448072	 0.520831	 2
1463571736.920	 6	 0.482857	 1.113377	 1.565670	 1.649080	 -0.631663	 -0.737423	 0.054842	 0.727014	 -0.445312	 0.519750	 2
1463571736.930	 6	 0.470180	 0.723829	 1.523788	 1.652913	 -0.616837	 -0.744712	 0.063410	 0.727622	 -0.442820	 0.520054	 2
1463571736.940	 6	 0.465062	 0.315437	 1.526427	 1.653034	 -0.601951	 -0.751961	 0.071150	 0.727180	 -0.440396	 0.521726	 2
1463571736.950	 6	 0.395176	 -0.168971	 1.434070	 1.648968	 -0.587737	 -0.758405	 0.077446	 0.725601	 -0.438112	 0.524942	 2
1463571736.960	 6	 0.219478	 -0.682892	 1.335965	 1.641032	 -0.574367	 -0.762843	 0.081887	 0.723017	 -0.435723	 0.529799	 2
1463571736.970	 6	 -0.081143	 -1.405183	 1.200772	 1.628494	 -0.562020	 -0.763777	 0.083733	 0.719296	 -0.432921	 0.536826	 2
1463571736.980	 6	 -0.442198	 -2.477554	 1.313303	 1.608395	 -0.549563	 -0.760352	 0.082471	 0.713601	 -0.429242	 0.547470	 2
1463571736.990	 6	 -0.860811	 -3.043989	 1.648457	 1.582955	 -0.533401	 -0.752097	 0.079742	 0.706312	 -0.423361	 0.561721	 2
1463571737.000	 6	 -1.271631	 -2.685412	 1.501901	 1.561755	 -0.517820	 -0.738477	 0.075977	 0.700214	 -0.415878	 0.575303	 2
1463571737.010	 6	 -1.414862	 -2.351308	 1.315486	 1.545582	 -0.504552	 -0.722190	 0.071657	 0.695579	 -0.407966	 0.587026	 2
1463571737.020	 6	 -1.334190	 -2.290286	 1.402744	 1.530328	 -0.491378	 -0.706162	 0.067712	 0.691072	 -0.399996	 0.598196	 2
1463571737.030	 6	 -1.149387	 -2.445506	 1.633092	 1.513094	 -0.476283	 -0.691782	 0.064764	 0.685696	 -0.391925	 0.609935	 2
1463571737.040	 6	 -0.947815	 -2.670926	 1.870102	 1.492601	 -0.458830	 -0.679230	 0.062814	 0.678996	 -0.383749	 0.622700	 2
1463571737.050	 6	 -0.704161	 -2.907058	 1.967031	 1.468719	 -0.440188	 -0.668801	 0.061552	 0.670908	 -0.375931	 0.636214	 2
1463571737.060	 6	 -0.496210	 -3.297925	 2.125710	 1.440388	 -0.420148	 -0.660247	 0.060808	 0.661012	 -0.368414	 0.650873	 2
1463571737.070	 6	 -0.419974	 -3.726136	 2.214849	 1.407473	 -0.398977	 -0.652123	 0.060027	 0.649217	 -0.360846	 0.666861	 2
1463571737.080	 6	 -0.629618	 -4.271223	 2.205208	 1.370004	 -0.378179	 -0.641855	 0.057887	 0.635588	 -0.352782	 0.684267	 2
1463571737.090	 6	 -1.083030	 -4.611848	 1.838298	 1.329967	 -0.361338	 -0.627316	 0.052782	 0.621016	 -0.344313	 0.702141	 2
1463571737.100	 6	 -1.715258	 -5.120701	 1.521470	 1.287200	 -0.350005	 -0.606984	 0.043684	 0.605532	 -0.335120	 0.720498	 2
1463571737.110	 6	 -2.416516	 -5.673030	 1.341257	 1.241067	 -0.343634	 -0.579884	 0.030500	 0.588762	 -0.324438	 0.739709	 2
1463571737.120	 6	 -3.090135	 -6.277308	 1.195489	 1.191126	 -0.342163	 -0.546158	 0.013370	 0.570312	 -0.311971	 0.759763	 2
1463571737.130	 6	 -3.661183	 -6.831044	 1.020524	 1.137163	 -0.346401	 -0.507382	 -0.007459	 0.549852	 -0.298149	 0.780201	 2
1463571737.140	 6	 -4.230868	 -7.047153	 1.056512	 1.081989	 -0.355388	 -0.463523	 -0.031041	 0.528130	 -0.282387	 0.800233	 2
1463571737.150	 6	 -4.584578	 -5.907050	 1.194894	 1.035383	 -0.367365	 -0.415531	 -0.054941	 0.508826	 -0.264675	 0.817328	 2
1463571737.160	 6	 -4.583162	 -4.487047	 1.207030	 1.005959	 -0.381260	 -0.366409	 -0.077005	 0.495629	 -0.246534	 0.829242	 2
1463571737.170	 6	 -4.196687	 -4.057997	 1.273735	 0.982155	 -0.394283	 -0.320037	 -0.096830	 0.484055	 -0.228971	 0.838980	 2
1463571737.180	 6	 -3.612246	 -3.848763	 1.468825	 0.959691	 -0.403880	 -0.277648	 -0.113624	 0.472531	 -0.211958	 0.847867	 2
1463571737.190	 6	 -2.954697	 -3.592366	 1.743649	 0.938149	 -0.408469	 -0.239408	 -0.126754	 0.461102	 -0.195336	 0.856249	 2
1463571737.200	 6	 -2.249445	 -3.193447	 2.037503	 0.918675	 -0.407300	 -0.205400	 -0.135814	 0.450490	 -0.179188	 0.864005	 2
1463571737.210	 6	 -1.506729	 -2.778615	 2.340770	 0.901574	 -0.399823	 -0.175732	 -0.140585	 0.441035	 -0.163597	 0.871183	 2
1463571737.220	 6	 -0.720667	 -2.418432	 2.605850	 0.886075	 -0.385740	 -0.150690	 -0.141009	 0.432578	 -0.148681	 0.878001	 2
1463571737.230	 6	 0.085469	 -2.014384	 2.767784	 0.872160	 -0.365420	 -0.130982	 -0.137155	 0.425246	 -0.134914	 0.884394	 2
1463571737.240	 6	 0.837931	 -1.630788	 2.874575	 0.859885	 -0.339472	 -0.116625	 -0.129345	 0.419079	 -0.122504	 0.890301	 2
1463571737.250	 6	 1.474517	 -1.371358	 2.972694	 0.848819	 -0.308551	 -0.106719	 -0.118131	 0.413781	 -0.111212	 0.895802	 2
1463571737.260	 6	 1.991977	 -1.238280	 3.052556	 0.838008	 -0.273449	 -0.100265	 -0.104155	 0.408787	 -0.100733	 0.901054	 2
1463571737.270	 6	 2.299323	 -1.093828	 3.149275	 0.827803	 -0.235310	 -0.095656	 -0.088253	 0.404085	 -0.090626	 0.905932	 2
1463571737.280	 6	 2.424836	 -0.860136	 3.304892	 0.819615	 -0.195072	 -0.090992	 -0.071191	 0.400191	 -0.080276	 0.910129	 2
1463571737.290	 6	 2.528457	 -0.733880	 3.450108	 0.813001	 -0.153047	 -0.085672	 -0.053272	 0.396886	 -0.069418	 0.913688	 2
1463571737.300	 6	 2.731509	 -0.897224	 3.447886	 0.805259	 -0.109566	 -0.081137	 -0.034468	 0.392972	 -0.058696	 0.917028	 2
1463571737.310	 6	 2.953991	 -1.320338	 3.272556	 0.793428	 -0.065468	 -0.078744	 -0.014962	 0.387071	 -0.048921	 0.920629	 2
1463571737.320	 6	 3.063686	 -1.753949	 2.924390	 0.776907	 -0.022602	 -0.078928	 0.004492	 0.378851	 -0.040789	 0.924547	 2
1463571737.330	 7	 3.036959	 -2.123570	 2.544969	 0.756600	 0.017671	 -0.081130	 0.023181	 0.368690	 -0.034425	 0.928626	 2
1463571737.350	 7	 2.678816	 -2.779949	 2.089031	 0.705806	 0.089518	 -0.086056	 0.056800	 0.343152	 -0.024873	 0.937231	 2
1463571737.360	 7	 2.476112	 -2.925655	 2.008442	 0.676883	 0.121867	 -0.086525	 0.071720	 0.328607	 -0.020521	 0.941516	 2
1463571737.370	 7	 2.373090	 -2.941158	 1.882369	 0.647360	 0.152530	 -0.086086	 0.085814	 0.313731	 -0.016466	 0.945483	 2
1463571737.380	 7	 2.354685	 -2.822423	 1.674745	 0.618805	 0.181734	 -0.086076	 0.099400	 0.299234	 -0.013208	 0.948896	 2
1463571737.390	 7	 2.421780	 -2.684729	 1.476144	 0.591869	 0.210132	 -0.087230	 0.112864	 0.285376	 -0.010920	 0.951684	 2
1463571737.400	 7	 2.538928	 -2.693945	 1.426013	 0.565429	 0.238935	 -0.089043	 0.126666	 0.271607	 -0.009220	 0.953992	 2
1463571737.410	 7	 2.654377	 -2.706583	 1.489902	 0.538541	 0.269018	 -0.090286	 0.141037	 0.257523	 -0.007469	 0.955895	 2
1463571737.420	 7	 2.765902	 -2.555134	 1.444516	 0.512914	 0.300052	 -0.091389	 0.155881	 0.243940	 -0.005816	 0.957163	 2
1463571737.430	 7	 2.884550	 -2.350558	 1.249286	 0.489571	 0.331353	 -0.093754	 0.171028	 0.231269	 -0.004916	 0.957726	 2
1463571737.440	 7	 3.008170	 -2.212039	 1.040610	 0.468703	 0.362795	 -0.098110	 0.186461	 0.219523	 -0.005071	 0.957609	 2
1463571737.460	 7	 3.013745	 -1.908098	 1.008219	 0.431244	 0.426201	 -0.107683	 0.217548	 0.197694	 -0.006196	 0.955799	 2
1463571737.450	 7	 3.070191	 -2.117089	 0.958889	 0.449174	 0.394528	 -0.103329	 0.202088	 0.208227	 -0.005779	 0.956958	 2
1463571737.470	 7	 2.837105	 -1.682219	 1.137619	 0.414727	 0.457059	 -0.109655	 0.232348	 0.188078	 -0.005661	 0.954258	 2
1463571737.480	 7	 2.596861	 -1.546950	 1.213441	 0.398724	 0.486228	 -0.109072	 0.246085	 0.179072	 -0.004255	 0.952553	 2
1463571737.490	 7	 2.340967	 -1.473029	 1.183318	 0.382778	 0.513018	 -0.106901	 0.258547	 0.170429	 -0.002542	 0.950842	 2
1463571737.500	 7	 2.107154	 -1.412427	 1.085737	 0.367114	 0.537201	 -0.104090	 0.269726	 0.162171	 -0.000939	 0.949183	 2
1463571737.510	 7	 1.945455	 -1.418236	 0.952804	 0.351615	 0.559211	 -0.101413	 0.279894	 0.154123	 0.000242	 0.947579	 2
1463571737.520	 7	 1.866523	 -1.493687	 0.783333	 0.335964	 0.579704	 -0.099690	 0.289420	 0.145980	 0.000652	 0.946005	 2
1463571737.540	 8	 1.898130	 -1.517546	 0.439661	 0.305997	 0.618765	 -0.101078	 0.307863	 0.129780	 -0.001214	 0.942537	 2
1463571737.550	 8	 1.962354	 -1.399279	 0.347481	 0.293305	 0.638436	 -0.103862	 0.317239	 0.122443	 -0.002960	 0.940403	 2
1463571737.570	 9	 1.880404	 -1.050997	 0.527286	 0.271727	 0.678095	 -0.107324	 0.335901	 0.109877	 -0.005134	 0.935452	 2
1463571737.580	 9	 1.690839	 -0.931800	 0.753856	 0.260419	 0.696733	 -0.104570	 0.344389	 0.104187	 -0.004443	 0.933018	 2
1463571737.590	 9	 1.448525	 -0.902912	 0.972584	 0.247019	 0.713666	 -0.097862	 0.351879	 0.098342	 -0.002499	 0.930862	 2
1463571737.600	 9	 1.170421	 -0.942449	 1.128107	 0.230966	 0.728314	 -0.087621	 0.358165	 0.092072	 0.000348	 0.929107	 2
1463571737.610	 9	 0.900270	 -1.015758	 1.176671	 0.212583	 0.740318	 -0.075088	 0.363181	 0.085334	 0.003558	 0.927796	 2
1463571737.620	 9	 0.685429	 -1.031564	 1.110185	 0.193394	 0.749796	 -0.062007	 0.367077	 0.078500	 0.006625	 0.926849	 2
1463571737.630	 9	 0.552686	 -0.999237	 0.967764	 0.175042	 0.757346	 -0.049940	 0.370186	 0.071997	 0.009194	 0.926118	 2
1463571737.640	 9	 0.493599	 -0.953380	 0.814170	 0.158098	 0.763701	 -0.039398	 0.372846	 0.065948	 0.011199	 0.925479	 2
1463571737.650	 9	 0.531378	 -0.885054	 0.571483	 0.143778	 0.769766	 -0.031733	 0.375490	 0.060623	 0.012297	 0.924760	 2
1463571737.660	 9	 0.625500	 -0.841539	 0.303562	 0.132529	 0.776215	 -0.027815	 0.378423	 0.056034	 0.012212	 0.923855	 2
1463571737.670	 9	 0.710465	 -0.820385	 0.175127	 0.123240	 0.783312	 -0.026303	 0.381711	 0.051902	 0.011372	 0.922753	 2
1463571737.680	 9	 0.767046	 -0.840548	 0.204289	 0.113911	 0.791028	 -0.024909	 0.385282	 0.047735	 0.010456	 0.921504	 2
1463571737.690	 9	 0.774969	 -0.838696	 0.316142	 0.103438	 0.799055	 -0.022049	 0.388964	 0.043339	 0.009965	 0.920179	 2
1463571737.700	 9	 0.725668	 -0.761073	 0.439856	 0.092125	 0.806835	 -0.017238	 0.392498	 0.038969	 0.010157	 0.918871	 2
1463571737.710	 9	 0.620200	 -0.610867	 0.576458	 0.080537	 0.813773	 -0.010230	 0.395615	 0.034948	 0.011238	 0.917682	 2
1463571737.720	 9	 0.482910	 -0.439130	 0.735919	 0.068767	 0.819466	 -0.000710	 0.398140	 0.031390	 0.013369	 0.916690	 2
1463571737.730	 9	 0.356967	 -0.310314	 0.847987	 0.056740	 0.823817	 0.011088	 0.400047	 0.028212	 0.016435	 0.915913	 2
1463571737.740	 9	 0.304786	 -0.228765	 0.778860	 0.045699	 0.827348	 0.022749	 0.401607	 0.025490	 0.019596	 0.915247	 2
1463571737.750	 9	 0.328816	 -0.149630	 0.554511	 0.037410	 0.830784	 0.031681	 0.403156	 0.023502	 0.022037	 0.914564	 2
1463571737.760	 9	 0.408291	 -0.072850	 0.321132	 0.032546	 0.834777	 0.037034	 0.404976	 0.022378	 0.023519	 0.913751	 2
1463571737.770	 9	 0.525147	 -0.063615	 0.175257	 0.029811	 0.839787	 0.039901	 0.407265	 0.021739	 0.024289	 0.912728	 2
1463571737.780	 9	 0.638806	 -0.102867	 0.088641	 0.027873	 0.845931	 0.041236	 0.410078	 0.021167	 0.024517	 0.911475	 2
1463571737.790	 9	 0.698355	 -0.110808	 0.044352	 0.026393	 0.852819	 0.041747	 0.413228	 0.020644	 0.024458	 0.910065	 2
1463571737.800	 9	 0.678032	 -0.118216	 0.041263	 0.024981	 0.859723	 0.042073	 0.416381	 0.020117	 0.024324	 0.908642	 2
1463571737.810	 9	 0.569281	 -0.125097	 0.075185	 0.023152	 0.865748	 0.042837	 0.419132	 0.019489	 0.024295	 0.907391	 2
1463571737.820	 9	 0.395547	 -0.119981	 0.123638	 0.020732	 0.870174	 0.044420	 0.421154	 0.018758	 0.024506	 0.906464	 2
1463571737.830	 9	 0.242646	 -0.208648	 0.155052	 0.017255	 0.872960	 0.046681	 0.422439	 0.017682	 0.024796	 0.905880	 2
1463571737.840	 9	 0.153375	 -0.322481	 0.115336	 0.012754	 0.874701	 0.048645	 0.423267	 0.016075	 0.024730	 0.905525	 2
1463571737.850	 9	 0.126166	 -0.377143	 0.046856	 0.008365	 0.875998	 0.049639	 0.423900	 0.014312	 0.024247	 0.905271	 2
1463571737.870	 10	 0.233814	 -0.470514	 -0.162969	 0.015193	 0.842825	 0.036901	 0.408841	 0.014477	 0.019942	 0.912273	 2
1463571737.880	 10	 0.321795	 -0.469741	 -0.314001	 0.013660	 0.845811	 0.032617	 0.410246	 0.012920	 0.017674	 0.911712	 2
1463571737.890	 10	 0.328193	 -0.413880	 -0.381745	 0.013606	 0.849090	 0.026957	 0.411776	 0.011750	 0.015083	 0.911085	 2
1463571737.900	 10	 0.221873	 -0.326378	 -0.385335	 0.014844	 0.851715	 0.020818	 0.412998	 0.011058	 0.012545	 0.910578	 2
1463571737.910	 10	 0.007989	 -0.212855	 -0.364298	 0.016661	 0.852322	 0.015178	 0.413294	 0.010722	 0.010354	 0.910475	 2
1463571737.920	 10	 -0.257039	 -0.090601	 -0.333143	 0.019307	 0.850373	 0.010057	 0.412422	 0.010868	 0.008563	 0.910888	 2
1463571737.930	 10	 -0.505036	 0.029413	 -0.310683	 0.022770	 0.845849	 0.005427	 0.410373	 0.011495	 0.007147	 0.911817	 2
1463571737.940	 10	 -0.656013	 0.140543	 -0.300875	 0.027145	 0.839509	 0.001119	 0.407492	 0.012622	 0.006042	 0.913102	 2
1463571737.950	 10	 -0.630280	 0.170231	 -0.305136	 0.040975	 0.827844	 -0.009762	 0.402206	 0.016793	 0.003772	 0.915388	 2
1463571737.960	 10	 -0.420445	 0.127771	 -0.355318	 0.045852	 0.822875	 -0.014448	 0.399963	 0.018122	 0.002548	 0.916348	 2
1463571737.970	 10	 -0.089302	 0.022105	 -0.418867	 0.050623	 0.820915	 -0.020272	 0.399116	 0.019162	 0.000807	 0.916700	 2
1463571737.980	 10	 0.275189	 -0.072629	 -0.428251	 0.054838	 0.822520	 -0.026733	 0.399914	 0.019786	 -0.001288	 0.916338	 2
1463571737.990	 10	 0.578522	 -0.073050	 -0.363753	 0.058477	 0.827406	 -0.032777	 0.402216	 0.020179	 -0.003248	 0.915317	 2
1463571738.000	 10	 0.780417	 -0.096476	 -0.285797	 0.061474	 0.834558	 -0.037969	 0.405543	 0.020400	 -0.004894	 0.913835	 2
1463571738.010	 10	 0.856350	 -0.147017	 -0.184615	 0.062997	 0.842897	 -0.041895	 0.409392	 0.020167	 -0.006223	 0.912114	 2
1463571738.020	 10	 0.737262	 -0.122679	 -0.103419	 0.063616	 0.850590	 -0.044484	 0.412923	 0.019791	 -0.007130	 0.910523	 2
1463571738.030	 10	 0.430429	 -0.057584	 -0.051117	 0.063962	 0.855717	 -0.045937	 0.415270	 0.019561	 -0.007622	 0.909456	 2
1463571738.040	 10	 0.021977	 -0.007385	 -0.040699	 0.064355	 0.856937	 -0.046686	 0.415833	 0.019563	 -0.007857	 0.909197	 2
