% Gyrometer data recorded with 'snsrlog'
% 
% 
% Label description:
% 	 0: Default Label
% 	 1: still_drop
% 	 2: walk_drop
% 	 3: other
% 	 4: dtw_same
% 	 5: dtw_diff
% 	 6: delete
% 
% Column description:
% 	 1: Seconds.milliseconds since 1970
% 	 2: Number of skipped measurements
% 	 3: Gyro X
% 	 4: Gyro Y
% 	 5: Gyro Z
% 	 6: Roll of the device
% 	 7: Pitch of the device
% 	 8: Yaw of the device
% 	 9: Quaternion X
% 	 10: Quaternion Y
% 	 11: Quaternion Z
% 	 12: Quaternion W
% 	 13: Label used for the current sample
% 
% 
1462070102.183	 0	 0.133768	 0.730787	 -0.436442	 0.394136	 0.818407	 -0.147419	 0.402347	 0.150408	 0.011436	 0.902975	 1
1462070102.194	 0	 0.186781	 0.866918	 -0.416453	 0.407328	 0.818352	 -0.154089	 0.402757	 0.155022	 0.011075	 0.902016	 1
1462070102.204	 0	 0.244047	 0.998790	 -0.395475	 0.421901	 0.818842	 -0.160816	 0.403425	 0.160198	 0.011034	 0.900813	 1
1462070102.214	 0	 0.214586	 1.101924	 -0.412377	 0.437648	 0.819266	 -0.167618	 0.404079	 0.165878	 0.011200	 0.899488	 1
1462070102.224	 0	 0.107125	 1.236745	 -0.491185	 0.454836	 0.818482	 -0.174605	 0.404226	 0.172255	 0.011441	 0.898219	 1
1462070102.234	 0	 0.060524	 1.237697	 -0.671950	 0.473580	 0.816281	 -0.183218	 0.403907	 0.179116	 0.011093	 0.897025	 1
1462070102.244	 0	 0.004133	 1.144490	 -0.787428	 0.492546	 0.812938	 -0.193258	 0.403255	 0.185889	 0.009994	 0.895952	 1
1462070102.254	 0	 -0.104759	 1.176371	 -0.835209	 0.511349	 0.808281	 -0.203201	 0.402068	 0.192739	 0.008710	 0.895052	 1
1462070102.264	 0	 -0.148420	 1.234663	 -0.881180	 0.530695	 0.802698	 -0.213063	 0.400519	 0.199951	 0.007413	 0.894175	 1
1462070102.274	 0	 -0.131188	 1.291842	 -0.909573	 0.550676	 0.796857	 -0.223174	 0.398938	 0.207443	 0.006055	 0.893185	 1
1462070102.284	 0	 -0.069610	 1.435378	 -0.891722	 0.571909	 0.791317	 -0.233360	 0.397552	 0.215465	 0.004917	 0.891910	 1
1462070102.294	 0	 0.062591	 1.559019	 -0.802198	 0.594337	 0.786967	 -0.243398	 0.396722	 0.223932	 0.004230	 0.890196	 1
1462070102.304	 0	 0.243999	 1.624730	 -0.614526	 0.617084	 0.784787	 -0.252760	 0.396804	 0.232429	 0.004233	 0.887978	 1
1462070102.314	 0	 0.440271	 1.601681	 -0.340417	 0.638856	 0.785530	 -0.260739	 0.398014	 0.240410	 0.005145	 0.885303	 1
1462070102.324	 0	 0.613881	 1.510755	 -0.048624	 0.658654	 0.789364	 -0.266995	 0.400350	 0.247457	 0.006983	 0.882290	 1
1462070102.334	 0	 0.742356	 1.401465	 0.185839	 0.676342	 0.795779	 -0.271796	 0.403594	 0.253503	 0.009541	 0.879066	 1
1462070102.344	 0	 0.834750	 1.205297	 0.305772	 0.692004	 0.803896	 -0.276010	 0.407464	 0.258514	 0.012313	 0.875781	 1
1462070102.354	 0	 0.813721	 1.085887	 0.257950	 0.706385	 0.812039	 -0.280640	 0.411378	 0.262821	 0.014712	 0.872626	 1
1462070102.364	 0	 0.664891	 1.097027	 0.120801	 0.720941	 0.818412	 -0.285655	 0.414580	 0.267303	 0.016712	 0.869709	 1
1462070102.374	 0	 0.498053	 1.136933	 -0.016990	 0.735950	 0.822527	 -0.290719	 0.416834	 0.272225	 0.018408	 0.867067	 1
1462070102.384	 0	 0.377080	 1.153464	 -0.133017	 0.751212	 0.824788	 -0.295888	 0.418329	 0.277449	 0.019791	 0.864657	 1
1462070102.394	 0	 0.311018	 1.246639	 -0.217901	 0.767359	 0.825789	 -0.301311	 0.419334	 0.283148	 0.021027	 0.862290	 1
1462070102.404	 0	 0.285100	 1.442124	 -0.258487	 0.785382	 0.826093	 -0.306951	 0.420070	 0.289681	 0.022441	 0.859722	 1
1462070102.414	 0	 0.306556	 1.702554	 -0.271171	 0.806078	 0.826266	 -0.312872	 0.420767	 0.297293	 0.024286	 0.856728	 1
1462070102.424	 0	 0.378264	 1.995698	 -0.298909	 0.830272	 0.826587	 -0.319649	 0.421611	 0.306161	 0.026552	 0.853114	 1
1462070102.434	 0	 0.496774	 2.269449	 -0.342156	 0.858476	 0.827202	 -0.328037	 0.422770	 0.316299	 0.029069	 0.848749	 1
1462070102.444	 0	 0.623517	 2.494113	 -0.404048	 0.890516	 0.828044	 -0.338424	 0.424288	 0.327527	 0.031645	 0.843626	 1
1462070102.454	 0	 0.708331	 2.691978	 -0.511653	 0.926127	 0.828489	 -0.350859	 0.425951	 0.339784	 0.034089	 0.837825	 1
1462070102.464	 0	 0.763940	 2.842820	 -0.662072	 0.964814	 0.827841	 -0.365263	 0.427517	 0.352961	 0.036179	 0.831468	 1
1462070102.474	 0	 0.815161	 2.975530	 -0.821148	 1.006179	 0.825757	 -0.381500	 0.428885	 0.366962	 0.037800	 0.824602	 1
1462070102.484	 0	 0.868572	 3.114661	 -0.973788	 1.050112	 0.822161	 -0.399404	 0.430055	 0.381775	 0.038969	 0.817179	 1
1462070102.494	 0	 0.895384	 3.241364	 -1.091142	 1.096032	 0.817058	 -0.418311	 0.430969	 0.397295	 0.039817	 0.809220	 1
1462070102.504	 0	 0.891223	 3.332258	 -1.172324	 1.142986	 0.810584	 -0.437339	 0.431565	 0.413291	 0.040509	 0.800812	 1
1462070102.514	 0	 0.865531	 3.383859	 -1.253683	 1.190141	 0.802680	 -0.455952	 0.431757	 0.429558	 0.041035	 0.792074	 1
1462070102.523	 0	 0.813014	 3.408911	 -1.340386	 1.236839	 0.793216	 -0.473650	 0.431424	 0.445974	 0.041374	 0.783114	 1
1462070102.533	 0	 0.755016	 3.433715	 -1.463278	 1.282860	 0.781965	 -0.490224	 0.430463	 0.462555	 0.041450	 0.773968	 1
1462070102.544	 0	 0.683122	 3.450083	 -1.581865	 1.327985	 0.768799	 -0.505436	 0.428792	 0.479304	 0.041217	 0.764661	 1
1462070102.563	 1	 0.546679	 3.468860	 -1.834154	 1.414441	 0.737376	 -0.530751	 0.423322	 0.512995	 0.039985	 0.745678	 1
1462070102.574	 1	 0.450112	 3.484014	 -1.983445	 1.455763	 0.718771	 -0.540574	 0.419330	 0.530066	 0.038878	 0.735990	 1
1462070102.583	 1	 0.338926	 3.422986	 -2.230301	 1.495139	 0.697584	 -0.548100	 0.414190	 0.547250	 0.037164	 0.726349	 1
1462070102.593	 1	 0.183143	 3.185512	 -2.479477	 1.530669	 0.673547	 -0.552803	 0.407691	 0.564013	 0.034491	 0.717278	 1
1462070102.604	 1	 -0.011419	 2.816738	 -2.663460	 1.560614	 0.647371	 -0.554103	 0.399855	 0.579702	 0.030928	 0.709299	 1
1462070102.614	 1	 -0.176975	 2.407105	 -2.750026	 1.584666	 0.620000	 -0.552332	 0.390976	 0.593955	 0.026632	 0.702600	 1
1462070102.624	 1	 -0.340807	 2.038730	 -2.720054	 1.603360	 0.592751	 -0.547899	 0.381462	 0.606620	 0.022070	 0.697145	 1
1462070102.634	 1	 -0.444950	 1.839650	 -2.641068	 1.618707	 0.566345	 -0.541550	 0.371656	 0.618126	 0.017674	 0.692445	 1
1462070102.644	 1	 -0.464329	 1.726567	 -2.549230	 1.632473	 0.540918	 -0.534457	 0.361903	 0.628844	 0.013450	 0.688041	 1
1462070102.654	 1	 -0.423420	 1.721823	 -2.453712	 1.646067	 0.516494	 -0.527429	 0.352446	 0.639122	 0.009402	 0.683532	 1
1462070102.664	 1	 -0.328522	 1.866748	 -2.377520	 1.661243	 0.492947	 -0.521131	 0.343464	 0.649475	 0.005569	 0.678369	 1
1462070102.674	 1	 -0.190926	 2.101201	 -2.405312	 1.679199	 0.469377	 -0.515892	 0.334825	 0.660407	 0.001697	 0.672125	 1
1462070102.684	 1	 -0.002487	 2.329541	 -2.522062	 1.700288	 0.444731	 -0.512032	 0.326369	 0.672137	 -0.002679	 0.664611	 1
1462070102.693	 1	 0.142140	 2.357723	 -2.683989	 1.722759	 0.418408	 -0.509173	 0.317841	 0.684206	 -0.007976	 0.656336	 1
1462070102.704	 1	 0.171718	 2.185375	 -2.824399	 1.743904	 0.390573	 -0.506105	 0.308891	 0.695861	 -0.014175	 0.648200	 1
1462070102.714	 1	 0.110677	 1.964951	 -2.884536	 1.762542	 0.362068	 -0.501851	 0.299399	 0.706731	 -0.020816	 0.640670	 1
1462070102.724	 1	 0.031980	 1.772877	 -2.855797	 1.778831	 0.333861	 -0.496327	 0.289575	 0.716738	 -0.027459	 0.633782	 1
1462070102.734	 1	 -0.044375	 1.590662	 -2.786487	 1.793139	 0.306521	 -0.489753	 0.279631	 0.725896	 -0.033878	 0.627482	 1
1462070102.744	 1	 -0.116535	 1.400920	 -2.726876	 1.805453	 0.280054	 -0.482262	 0.269587	 0.734199	 -0.040087	 0.621826	 1
1462070102.754	 1	 -0.164195	 1.226844	 -2.697174	 1.815962	 0.254179	 -0.474049	 0.259413	 0.741731	 -0.046206	 0.616771	 1
1462070102.764	 1	 -0.177829	 1.083024	 -2.734629	 1.825063	 0.228259	 -0.465369	 0.249012	 0.748665	 -0.052486	 0.612160	 1
1462070102.774	 1	 -0.173479	 0.955737	 -2.831770	 1.833004	 0.201581	 -0.456292	 0.238202	 0.755144	 -0.059179	 0.607878	 1
1462070102.784	 1	 -0.149846	 0.820091	 -2.900381	 1.839816	 0.174150	 -0.447036	 0.227055	 0.761137	 -0.066331	 0.603918	 1
1462070102.793	 1	 -0.113124	 0.694412	 -2.909331	 1.845623	 0.146449	 -0.437921	 0.215825	 0.766588	 -0.073818	 0.600261	 1
1462070102.803	 1	 -0.077480	 0.537082	 -2.883395	 1.850273	 0.118878	 -0.429111	 0.204679	 0.771401	 -0.081531	 0.596992	 1
1462070102.814	 1	 -0.062350	 0.316108	 -2.841887	 1.853115	 0.091643	 -0.420522	 0.193609	 0.775386	 -0.089403	 0.594390	 1
1462070102.823	 1	 -0.052405	 0.088044	 -2.753506	 1.853890	 0.065113	 -0.412203	 0.182713	 0.778450	 -0.097297	 0.592592	 1
1462070102.833	 1	 -0.003569	 -0.070734	 -2.628583	 1.853117	 0.039634	 -0.404602	 0.172277	 0.780707	 -0.105129	 0.591409	 1
1462070102.844	 1	 0.083985	 -0.129959	 -2.546767	 1.851733	 0.014845	 -0.398057	 0.162374	 0.782462	 -0.113038	 0.590432	 1
1462070102.854	 1	 0.207053	 -0.097006	 -2.499573	 1.850599	 -0.009766	 -0.392775	 0.152985	 0.784010	 -0.121212	 0.589264	 1
1462070102.864	 1	 0.404386	 0.052870	 -2.432753	 1.850758	 -0.034285	 -0.389361	 0.144401	 0.785638	 -0.129786	 0.587433	 1
1462070102.874	 1	 0.701645	 0.282357	 -2.344403	 1.853019	 -0.058762	 -0.388762	 0.137057	 0.787541	 -0.139012	 0.584526	 1
1462070102.883	 1	 1.076595	 0.477903	 -2.214759	 1.857124	 -0.083106	 -0.391875	 0.131356	 0.789604	 -0.149141	 0.580541	 1
1462070102.893	 1	 1.441830	 0.587862	 -2.011224	 1.862111	 -0.106775	 -0.399004	 0.127539	 0.791531	 -0.160104	 0.575829	 1
1462070102.904	 1	 1.693567	 0.570928	 -1.751396	 1.866713	 -0.128912	 -0.409519	 0.125530	 0.792995	 -0.171441	 0.570973	 1
1462070102.913	 1	 1.798737	 0.418785	 -1.422275	 1.869587	 -0.148590	 -0.422206	 0.124993	 0.793686	 -0.182507	 0.566684	 1
1462070102.923	 1	 1.795915	 0.200147	 -1.066189	 1.869985	 -0.164859	 -0.436229	 0.125779	 0.793444	 -0.192738	 0.563452	 1
1462070102.933	 1	 1.721113	 -0.064493	 -0.775982	 1.867636	 -0.178135	 -0.450613	 0.127315	 0.792292	 -0.202047	 0.561464	 1
1462070102.943	 1	 1.493858	 -0.327358	 -0.449260	 1.862437	 -0.187762	 -0.464241	 0.129310	 0.790262	 -0.209894	 0.560989	 1
1462070102.953	 1	 1.121146	 -0.404963	 -0.154718	 1.856340	 -0.193370	 -0.475510	 0.131435	 0.787997	 -0.215593	 0.561520	 1
1462070102.963	 1	 0.736542	 -0.432194	 0.041280	 1.850551	 -0.195693	 -0.483622	 0.133301	 0.785911	 -0.219138	 0.562631	 1
1462070102.973	 1	 0.427120	 -0.512382	 0.151936	 1.844615	 -0.195826	 -0.488872	 0.134669	 0.783891	 -0.221065	 0.564366	 1
1462070102.983	 1	 0.213806	 -0.544230	 0.220640	 1.838578	 -0.194550	 -0.491985	 0.135603	 0.781929	 -0.221872	 0.566544	 1
1462070102.994	 1	 0.120396	 -0.481885	 0.273190	 1.833171	 -0.192407	 -0.494015	 0.136445	 0.780178	 -0.222010	 0.568698	 1
1462070103.003	 1	 0.146960	 -0.352640	 0.359422	 1.828849	 -0.189525	 -0.496213	 0.137696	 0.778688	 -0.221849	 0.570498	 1
1462070103.013	 1	 0.243494	 -0.137091	 0.494874	 1.826267	 -0.185639	 -0.499538	 0.139884	 0.777568	 -0.221521	 0.571620	 1
1462070103.023	 1	 0.332827	 0.131695	 0.635146	 1.826060	 -0.180613	 -0.504157	 0.143183	 0.776978	 -0.220972	 0.571817	 1
1462070103.033	 1	 0.426159	 0.335654	 0.784372	 1.827888	 -0.174404	 -0.510056	 0.147560	 0.776809	 -0.220197	 0.571233	 1
1462070103.043	 1	 0.437091	 0.521514	 0.897912	 1.831524	 -0.167099	 -0.516641	 0.152727	 0.777027	 -0.219062	 0.570013	 1
1462070103.054	 1	 0.363363	 0.669018	 0.968135	 1.836867	 -0.158909	 -0.522920	 0.158217	 0.777677	 -0.217354	 0.568280	 1
1462070103.063	 1	 0.245570	 0.763361	 1.023326	 1.843466	 -0.149920	 -0.528337	 0.163731	 0.778674	 -0.214972	 0.566256	 1
1462070103.073	 1	 0.111722	 0.850284	 1.075392	 1.851086	 -0.140092	 -0.532686	 0.169164	 0.779965	 -0.211849	 0.564055	 1
1462070103.084	 1	 -0.011294	 0.975428	 1.122389	 1.860077	 -0.129482	 -0.536001	 0.174539	 0.781648	 -0.207981	 0.561522	 1
1462070103.093	 1	 -0.098236	 1.061069	 1.163376	 1.870211	 -0.118215	 -0.538627	 0.179913	 0.783634	 -0.203519	 0.558685	 1
1462070103.103	 1	 -0.180556	 1.003045	 1.195526	 1.880258	 -0.106404	 -0.540679	 0.185162	 0.785574	 -0.198645	 0.555993	 1
1462070103.113	 1	 -0.295516	 0.819550	 1.219332	 1.888832	 -0.094046	 -0.541901	 0.190046	 0.787110	 -0.193418	 0.554012	 1
1462070103.124	 1	 -0.419287	 0.577587	 1.243736	 1.895218	 -0.081085	 -0.542128	 0.194454	 0.788063	 -0.187852	 0.553042	 1
1462070103.134	 1	 -0.545458	 0.277152	 1.270815	 1.898833	 -0.067473	 -0.541323	 0.198346	 0.788280	 -0.181989	 0.553312	 1
1462070103.143	 1	 -0.710958	 0.012968	 1.294310	 1.899685	 -0.053130	 -0.539159	 0.201637	 0.787788	 -0.175720	 0.554846	 1
1462070103.153	 1	 -0.884496	 -0.147998	 1.320967	 1.898729	 -0.037973	 -0.535425	 0.204374	 0.786866	 -0.168866	 0.557277	 1
1462070103.163	 1	 -1.037427	 -0.232503	 1.339630	 1.896723	 -0.022103	 -0.530225	 0.206648	 0.785717	 -0.161416	 0.560259	 1
1462070103.173	 1	 -1.131369	 -0.227012	 1.325579	 1.894466	 -0.005935	 -0.523930	 0.208565	 0.784552	 -0.153552	 0.563383	 1
1462070103.183	 1	 -1.152510	 -0.145386	 1.279629	 1.892765	 0.009969	 -0.517127	 0.210259	 0.783582	 -0.145572	 0.566215	 1
1462070103.193	 1	 -1.177994	 -0.056502	 1.206075	 1.891861	 0.025290	 -0.509899	 0.211683	 0.782897	 -0.137596	 0.568621	 1
1462070103.203	 1	 -1.146944	 0.012135	 1.149958	 1.891583	 0.039989	 -0.502527	 0.212918	 0.782430	 -0.129739	 0.570646	 1
1462070103.213	 1	 -1.100145	 0.044404	 1.072050	 1.891631	 0.053871	 -0.495526	 0.214084	 0.782060	 -0.122256	 0.572366	 1
1462070103.223	 1	 -1.277598	 0.130842	 0.893219	 1.892117	 0.066668	 -0.486923	 0.214340	 0.782060	 -0.114680	 0.573837	 1
1462070103.233	 1	 -1.571030	 0.303654	 0.698085	 1.893876	 0.078470	 -0.475059	 0.213102	 0.782843	 -0.106408	 0.574823	 1
1462070103.243	 1	 -1.907877	 0.467719	 0.599165	 1.896811	 0.090204	 -0.459662	 0.210500	 0.784330	 -0.097006	 0.575418	 1
1462070103.253	 1	 -2.109371	 0.852339	 0.461687	 1.902535	 0.101599	 -0.441613	 0.206851	 0.786903	 -0.086671	 0.574878	 1
1462070103.263	 1	 -1.978480	 1.075718	 0.370970	 1.910962	 0.111971	 -0.423584	 0.202966	 0.790305	 -0.076475	 0.573040	 1
1462070103.273	 1	 -1.518426	 1.128341	 0.333350	 1.920476	 0.120769	 -0.409098	 0.200001	 0.793757	 -0.067831	 0.570393	 1
1462070103.283	 1	 -0.905761	 1.212161	 0.259521	 1.931242	 0.127085	 -0.400073	 0.198491	 0.797198	 -0.061636	 0.566813	 1
1462070103.293	 1	 -0.407498	 1.249530	 0.187321	 1.943174	 0.130794	 -0.395927	 0.198199	 0.800674	 -0.057773	 0.562406	 1
1462070103.303	 1	 -0.184323	 1.203781	 0.275542	 1.955179	 0.133853	 -0.394736	 0.198884	 0.803904	 -0.054998	 0.557816	 1
1462070103.313	 1	 -0.239505	 1.085352	 0.495530	 1.966371	 0.138445	 -0.394464	 0.200298	 0.806664	 -0.051923	 0.553605	 1
1462070103.323	 1	 -0.496056	 0.835405	 0.685144	 1.975285	 0.146034	 -0.393073	 0.201965	 0.808635	 -0.047520	 0.550510	 1
1462070103.333	 1	 -0.791443	 0.410994	 0.708279	 1.979930	 0.155444	 -0.389225	 0.202985	 0.809510	 -0.042109	 0.549288	 1
1462070103.343	 1	 -0.931498	 0.006356	 0.587433	 1.980023	 0.164782	 -0.383300	 0.203034	 0.809341	 -0.036614	 0.549913	 1
1462070103.353	 1	 -0.895972	 -0.255412	 0.438679	 1.976919	 0.172772	 -0.376713	 0.202412	 0.808464	 -0.031813	 0.551728	 1
1462070103.363	 1	 -0.785395	 -0.429244	 0.273037	 1.971864	 0.178865	 -0.370387	 0.201383	 0.807175	 -0.028058	 0.554190	 1
1462070103.373	 1	 -0.744703	 -0.477444	 0.096383	 1.966015	 0.183064	 -0.363927	 0.199809	 0.805832	 -0.025119	 0.556849	 1
1462070103.383	 1	 -0.791506	 -0.507439	 -0.098523	 1.959651	 0.185584	 -0.356438	 0.197386	 0.804579	 -0.022623	 0.559624	 1
1462070103.393	 1	 -0.853222	 -0.552103	 -0.268923	 1.952683	 0.186612	 -0.347650	 0.194053	 0.803395	 -0.020417	 0.562568	 1
1462070103.403	 1	 -0.852154	 -0.706943	 -0.353503	 1.944301	 0.186621	 -0.338271	 0.190210	 0.801931	 -0.018572	 0.566024	 1
1462070103.413	 1	 -0.805447	 -0.954113	 -0.391379	 1.933713	 0.185996	 -0.329106	 0.186275	 0.799838	 -0.017220	 0.570319	 1
1462070103.423	 1	 -0.757458	 -1.152388	 -0.433075	 1.920986	 0.184726	 -0.320283	 0.182298	 0.797112	 -0.016384	 0.575423	 1
1462070103.433	 1	 -0.729858	 -1.159061	 -0.462153	 1.907676	 0.182902	 -0.311673	 0.178260	 0.794190	 -0.015836	 0.580719	 1
1462070103.443	 1	 -0.707832	 -0.992331	 -0.488504	 1.895706	 0.180674	 -0.303251	 0.174203	 0.791623	 -0.015337	 0.585450	 1
1462070103.453	 1	 -0.692040	 -0.787312	 -0.517640	 1.885826	 0.177972	 -0.294886	 0.170057	 0.789656	 -0.014819	 0.589326	 1
1462070103.463	 1	 -0.678239	 -0.569376	 -0.526390	 1.878180	 0.175091	 -0.286667	 0.165938	 0.788311	 -0.014192	 0.592308	 1
1462070103.473	 1	 -0.652612	 -0.519862	 -0.581572	 1.871617	 0.171672	 -0.278557	 0.161717	 0.787288	 -0.013694	 0.594843	 1
1462070103.483	 1	 -0.601402	 -0.675932	 -0.668731	 1.864014	 0.167322	 -0.270671	 0.157307	 0.785973	 -0.013690	 0.597757	 1
1462070103.493	 1	 -0.546061	 -0.838589	 -0.782632	 1.854666	 0.161673	 -0.263055	 0.152607	 0.784169	 -0.014385	 0.601318	 1
1462070103.503	 1	 -0.492810	 -0.780943	 -0.878478	 1.845420	 0.154866	 -0.255742	 0.147677	 0.782407	 -0.015583	 0.604804	 1
1462070103.513	 1	 -0.449499	 -0.583800	 -0.955887	 1.838009	 0.147043	 -0.248737	 0.142566	 0.781199	 -0.017100	 0.607544	 1
1462070103.523	 1	 -0.454170	 -0.419132	 -0.984155	 1.832460	 0.138755	 -0.241772	 0.137333	 0.780539	 -0.018649	 0.609550	 1
1462070103.533	 1	 -0.503787	 -0.315721	 -0.971037	 1.828088	 0.130573	 -0.234465	 0.131995	 0.780209	 -0.019946	 0.611109	 1
1462070103.543	 1	 -0.530008	 -0.262087	 -0.919153	 1.824429	 0.122873	 -0.226927	 0.126706	 0.780039	 -0.020915	 0.612411	 1
1462070103.553	 1	 -0.437990	 -0.281954	 -0.834879	 1.820894	 0.115744	 -0.220208	 0.121900	 0.779783	 -0.021884	 0.613677	 1
1462070103.563	 1	 -0.277807	 -0.328625	 -0.752512	 1.817144	 0.109047	 -0.215173	 0.117871	 0.779304	 -0.023197	 0.615024	 1
1462070103.573	 1	 -0.106733	 -0.315878	 -0.685674	 1.813578	 0.102598	 -0.212016	 0.114641	 0.778734	 -0.024967	 0.616285	 1
1462070103.583	 1	 0.010079	 -0.280531	 -0.604299	 1.810535	 0.096551	 -0.210386	 0.112128	 0.778202	 -0.027010	 0.617332	 1
1462070103.593	 1	 0.017085	 -0.220405	 -0.523868	 1.808049	 0.091219	 -0.209320	 0.110052	 0.777764	 -0.028909	 0.618172	 1
1462070103.603	 1	 -0.052693	 -0.127269	 -0.469106	 1.806413	 0.086630	 -0.207868	 0.108061	 0.777564	 -0.030347	 0.618705	 1
1462070103.613	 1	 -0.132468	 -0.087543	 -0.449924	 1.805296	 0.082490	 -0.205710	 0.105937	 0.777535	 -0.031360	 0.619058	 1
1462070103.623	 1	 -0.187843	 -0.052368	 -0.461903	 1.804443	 0.078456	 -0.202929	 0.103607	 0.777607	 -0.032122	 0.619323	 1
1462070103.633	 1	 -0.205818	 0.020747	 -0.506894	 1.804205	 0.074125	 -0.199790	 0.101055	 0.777893	 -0.032857	 0.619347	 1
1462070103.643	 1	 -0.174968	 0.056332	 -0.573975	 1.804520	 0.069128	 -0.196686	 0.098319	 0.778369	 -0.033835	 0.619137	 1
1462070103.653	 1	 -0.093125	 0.038649	 -0.630376	 1.804892	 0.056904	 -0.194120	 0.093573	 0.779127	 -0.037806	 0.618689	 1
1462070103.663	 1	 0.011487	 0.076358	 -0.668238	 1.805450	 0.050514	 -0.192458	 0.090973	 0.779634	 -0.039767	 0.618315	 1
1462070103.673	 1	 0.104530	 0.126010	 -0.677112	 1.806563	 0.043730	 -0.191697	 0.088615	 0.780276	 -0.042137	 0.617691	 1
1462070103.683	 1	 0.160182	 0.136681	 -0.649787	 1.807920	 0.036986	 -0.191593	 0.086532	 0.780952	 -0.044686	 0.616952	 1
1462070103.693	 1	 0.183700	 0.110342	 -0.608712	 1.810610	 0.028796	 -0.191920	 0.084209	 0.782062	 -0.047880	 0.615626	 1
1462070103.713	 2	 0.182983	 0.140506	 -0.556203	 1.812855	 0.016738	 -0.192733	 0.080886	 0.783129	 -0.052764	 0.614314	 1
1462070103.723	 2	 0.194345	 0.249285	 -0.511593	 1.815057	 0.011194	 -0.193320	 0.079477	 0.783961	 -0.055030	 0.613237	 1
1462070103.733	 2	 0.226167	 0.365719	 -0.429789	 1.818466	 0.006263	 -0.194324	 0.078458	 0.785121	 -0.057138	 0.611690	 1
1462070103.743	 2	 0.225178	 0.506994	 -0.309100	 1.823065	 0.002416	 -0.195740	 0.077973	 0.786588	 -0.058903	 0.609697	 1
1462070103.753	 2	 0.129401	 0.759613	 -0.272877	 1.830122	 -0.000675	 -0.196498	 0.077542	 0.788798	 -0.060076	 0.606775	 1
1462070103.763	 2	 0.024512	 0.888896	 -0.234525	 1.838705	 -0.003191	 -0.196375	 0.076991	 0.791473	 -0.060702	 0.603290	 1
1462070103.773	 2	 -0.243145	 1.154554	 -0.229723	 1.849623	 -0.004984	 -0.194104	 0.075882	 0.794893	 -0.060312	 0.598958	 1
1462070103.783	 2	 -0.447477	 1.198355	 -0.139078	 1.861699	 -0.005425	 -0.189746	 0.074373	 0.798671	 -0.058735	 0.594259	 1
1462070103.793	 2	 -0.512380	 0.964973	 -0.081001	 1.872106	 -0.004769	 -0.184644	 0.072826	 0.801923	 -0.056578	 0.590267	 1
1462070103.803	 2	 -0.495502	 0.550492	 -0.175595	 1.878726	 -0.004659	 -0.179458	 0.070961	 0.804056	 -0.054769	 0.587758	 1
1462070103.813	 2	 -0.494347	 0.252569	 -0.337176	 1.881858	 -0.005974	 -0.173835	 0.068397	 0.805204	 -0.053538	 0.586602	 1
1462070103.823	 2	 -0.481011	 0.254740	 -0.474810	 1.885613	 -0.011268	 -0.167855	 0.064536	 0.806627	 -0.053793	 0.585060	 1
1462070103.833	 2	 -0.487809	 0.473205	 -0.565440	 1.889806	 -0.014941	 -0.161561	 0.061032	 0.808128	 -0.053305	 0.583406	 1
1462070103.843	 2	 -0.531634	 0.725058	 -0.613871	 1.896560	 -0.019028	 -0.154735	 0.057258	 0.810376	 -0.052771	 0.580713	 1
1462070103.853	 2	 -0.621497	 0.950410	 -0.668543	 1.905722	 -0.023270	 -0.146968	 0.053115	 0.813316	 -0.051990	 0.577055	 1
1462070103.863	 2	 -0.736136	 1.126912	 -0.723459	 1.917150	 -0.027779	 -0.137908	 0.048417	 0.816900	 -0.050931	 0.572483	 1
1462070103.873	 2	 -0.796779	 1.201242	 -0.764870	 1.929359	 -0.032139	 -0.127925	 0.043391	 0.820665	 -0.049588	 0.567598	 1
1462070103.883	 2	 -0.792889	 1.153853	 -0.837693	 1.941409	 -0.036934	 -0.117553	 0.038061	 0.824331	 -0.048381	 0.562752	 1
1462070103.893	 2	 -0.735230	 1.009449	 -0.926931	 1.952355	 -0.042606	 -0.107214	 0.032459	 0.827624	 -0.047629	 0.558316	 1
1462070103.903	 2	 -0.638282	 0.769667	 -0.952388	 1.961118	 -0.048958	 -0.097462	 0.026851	 0.830237	 -0.047414	 0.554740	 1
1462070103.913	 2	 -0.509199	 0.482559	 -0.891172	 1.967109	 -0.055294	 -0.088941	 0.021693	 0.832012	 -0.047612	 0.552285	 1
1462070103.923	 2	 -0.362715	 0.199153	 -0.752272	 1.970203	 -0.061034	 -0.082185	 0.017366	 0.832930	 -0.048103	 0.551010	 1
1462070103.933	 2	 -0.223434	 -0.057383	 -0.577890	 1.970537	 -0.065756	 -0.077392	 0.014072	 0.833049	 -0.048744	 0.550867	 1
1462070103.943	 2	 -0.102014	 -0.252198	 -0.404923	 1.968168	 -0.071094	 -0.074461	 0.011316	 0.832395	 -0.050170	 0.551791	 1
1462070103.953	 2	 -0.001869	 -0.437335	 -0.227404	 1.964358	 -0.073506	 -0.073188	 0.010021	 0.831337	 -0.050839	 0.553347	 1
1462070103.963	 2	 0.052214	 -0.657451	 -0.051941	 1.958382	 -0.074546	 -0.073192	 0.009580	 0.829675	 -0.051301	 0.555802	 1
1462070103.973	 2	 0.054110	 -0.865625	 0.135811	 1.950123	 -0.073937	 -0.074057	 0.009897	 0.827371	 -0.051331	 0.559217	 1
1462070103.983	 2	 0.041590	 -0.897757	 0.246461	 1.941163	 -0.072050	 -0.075341	 0.010730	 0.824860	 -0.050959	 0.562934	 1
1462070103.993	 2	 -0.024710	 -0.956862	 0.282724	 1.931625	 -0.069392	 -0.076274	 0.011627	 0.822171	 -0.050183	 0.566905	 1
1462070104.003	 2	 -0.046176	 -0.939094	 0.230854	 1.922111	 -0.066943	 -0.076722	 0.012273	 0.819469	 -0.049364	 0.570861	 1
1462070104.013	 2	 0.041012	 -0.986327	 0.206208	 1.912334	 -0.065020	 -0.077560	 0.012928	 0.816668	 -0.048881	 0.574888	 1
1462070104.023	 2	 0.140738	 -0.899281	 0.223202	 1.902901	 -0.063343	 -0.079396	 0.013932	 0.813938	 -0.048792	 0.578731	 1
1462070104.033	 2	 0.174966	 -0.676911	 0.247354	 1.895387	 -0.061627	 -0.081802	 0.015226	 0.811743	 -0.048848	 0.581770	 1
1462070104.043	 2	 0.127128	 -0.437238	 0.277711	 1.890316	 -0.059509	 -0.084023	 0.016623	 0.810248	 -0.048678	 0.583826	 1
1462070104.053	 2	 0.024481	 -0.239226	 0.261264	 1.887385	 -0.057104	 -0.085342	 0.017791	 0.809378	 -0.048117	 0.585043	 1
1462070104.063	 2	 -0.044472	 -0.106461	 0.207680	 1.885991	 -0.054882	 -0.085730	 0.018567	 0.808964	 -0.047345	 0.585654	 1
1462070104.073	 2	 -0.052677	 0.029142	 0.130147	 1.885941	 -0.053271	 -0.085683	 0.019020	 0.808947	 -0.046682	 0.585716	 1
1462070104.083	 2	 -0.018592	 0.097467	 0.032436	 1.886849	 -0.052636	 -0.085572	 0.019183	 0.809213	 -0.046384	 0.585368	 1
1462070104.093	 2	 0.023521	 0.060449	 -0.068457	 1.887562	 -0.053095	 -0.085569	 0.019063	 0.809422	 -0.046562	 0.585068	 1
1462070104.103	 2	 0.041367	 0.064078	 -0.147445	 1.888169	 -0.054458	 -0.085524	 0.018659	 0.809603	 -0.047094	 0.584789	 1
1462070104.113	 2	 0.047811	 0.096824	 -0.175972	 1.889040	 -0.056238	 -0.085453	 0.018129	 0.809860	 -0.047784	 0.584392	 1
1462070104.123	 2	 0.029798	 0.130853	 -0.184025	 1.890297	 -0.058081	 -0.085230	 0.017529	 0.810231	 -0.048453	 0.583841	 1
1462070104.133	 2	 -0.000039	 0.147892	 -0.193198	 1.891759	 -0.059925	 -0.084702	 0.016811	 0.810663	 -0.049033	 0.583214	 1
1462070104.143	 2	 -0.055209	 0.200309	 -0.174112	 1.893671	 -0.061505	 -0.083742	 0.016007	 0.811228	 -0.049377	 0.582422	 1
1462070104.153	 2	 -0.121042	 0.253829	 -0.153857	 1.896206	 -0.062661	 -0.082225	 0.015116	 0.811977	 -0.049384	 0.581400	 1
1462070104.163	 2	 -0.144478	 0.234993	 -0.120790	 1.898745	 -0.063454	 -0.080468	 0.014234	 0.812726	 -0.049176	 0.580392	 1
1462070104.173	 2	 -0.133894	 0.169423	 -0.065007	 1.900734	 -0.063745	 -0.078917	 0.013567	 0.813313	 -0.048831	 0.579614	 1
1462070104.183	 2	 -0.089559	 0.047145	 -0.042018	 1.901607	 -0.063844	 -0.077789	 0.013101	 0.813574	 -0.048538	 0.579284	 1
1462070104.193	 2	 -0.024937	 -0.032995	 -0.066773	 1.901459	 -0.064251	 -0.077205	 0.012742	 0.813534	 -0.048535	 0.579348	 1
1462070104.203	 2	 0.030269	 -0.026295	 -0.147124	 1.901138	 -0.065473	 -0.076976	 0.012285	 0.813440	 -0.048967	 0.579453	 1
1462070104.213	 2	 0.043101	 0.059128	 -0.242359	 1.901513	 -0.067731	 -0.076656	 0.011508	 0.813545	 -0.049789	 0.579252	 1
1462070104.223	 2	 0.017777	 0.129322	 -0.253209	 1.902692	 -0.070215	 -0.076072	 0.010578	 0.813882	 -0.050622	 0.578724	 1
1462070104.233	 2	 -0.021302	 0.197662	 -0.231983	 1.904566	 -0.072421	 -0.075183	 0.009623	 0.814421	 -0.051252	 0.577927	 1
1462070104.243	 2	 -0.053924	 0.265027	 -0.195902	 1.907132	 -0.074216	 -0.074062	 0.008713	 0.815160	 -0.051646	 0.576864	 1
1462070104.253	 2	 -0.081284	 0.301660	 -0.142035	 1.910196	 -0.075449	 -0.072831	 0.007934	 0.816042	 -0.051781	 0.575614	 1
1462070104.263	 2	 -0.110038	 0.265999	 -0.084565	 1.913065	 -0.076031	 -0.071527	 0.007307	 0.816869	 -0.051632	 0.574462	 1
1462070104.273	 2	 -0.131557	 0.183470	 -0.028699	 1.913245	 -0.080271	 -0.070347	 0.005607	 0.816900	 -0.053021	 0.574310	 1
1462070104.283	 2	 -0.109850	 0.031337	 -0.024975	 1.914075	 -0.080091	 -0.069141	 0.005189	 0.817143	 -0.052599	 0.574007	 1
1462070104.293	 2	 -0.046588	 -0.109437	 -0.051348	 1.913360	 -0.080283	 -0.068402	 0.004813	 0.816938	 -0.052467	 0.574314	 1
1462070104.303	 2	 0.040543	 -0.165210	 -0.080336	 1.911796	 -0.081053	 -0.068321	 0.004516	 0.816483	 -0.052761	 0.574935	 1
1462070104.313	 2	 0.109888	 -0.160141	 -0.092758	 1.915682	 -0.092229	 -0.068431	 0.001447	 0.817511	 -0.057343	 0.573049	 1
1462070104.323	 2	 0.132479	 -0.122972	 -0.091543	 1.914241	 -0.093527	 -0.069342	 0.001404	 0.817085	 -0.058134	 0.573577	 1
1462070104.333	 2	 0.114702	 -0.057933	 -0.076928	 1.913398	 -0.094700	 -0.070212	 0.001396	 0.816832	 -0.058863	 0.573863	 1
1462070104.343	 2	 0.084172	 0.009348	 -0.051524	 1.913294	 -0.095579	 -0.070884	 0.001415	 0.816794	 -0.059414	 0.573861	 1
1462070104.353	 2	 0.063266	 0.046136	 0.011804	 1.922218	 -0.098886	 -0.070673	 0.000646	 0.819314	 -0.060698	 0.570123	 1
1462070104.363	 2	 0.047644	 0.072191	 0.078259	 1.922816	 -0.098486	 -0.071376	 0.001067	 0.819488	 -0.060735	 0.569868	 1
1462070104.373	 2	 0.025454	 0.064220	 0.143390	 1.923443	 -0.097401	 -0.072105	 0.001695	 0.819677	 -0.060499	 0.569620	 1
1462070104.383	 2	 0.007499	 0.050902	 0.206302	 1.923914	 -0.095645	 -0.072875	 0.002528	 0.819827	 -0.059999	 0.569454	 1
1462070104.393	 2	 0.023610	 0.029952	 0.257064	 1.925093	 -0.097976	 -0.073796	 0.002274	 0.820139	 -0.061213	 0.568876	 1
1462070104.403	 2	 0.066141	 0.012674	 0.238415	 1.925113	 -0.095837	 -0.075185	 0.003456	 0.820163	 -0.060733	 0.568887	 1
1462070104.413	 2	 0.085329	 0.069521	 0.165240	 1.925455	 -0.094385	 -0.076621	 0.004470	 0.820270	 -0.060547	 0.568746	 1
1462070104.423	 2	 0.050098	 0.183483	 0.025926	 1.926896	 -0.093958	 -0.077449	 0.004975	 0.820681	 -0.060604	 0.568142	 1
1462070104.433	 2	 -0.042569	 0.378124	 -0.164709	 1.938489	 -0.120313	 -0.075972	 -0.002745	 0.823666	 -0.070984	 0.562609	 1
1462070104.443	 2	 -0.006449	 0.282989	 -0.362009	 1.941817	 -0.123170	 -0.074612	 -0.003995	 0.824557	 -0.071781	 0.561193	 1
1462070104.453	 2	 0.076374	 0.024865	 -0.429078	 1.942915	 -0.127318	 -0.073604	 -0.005542	 0.824799	 -0.073206	 0.560640	 1
1462070104.463	 2	 0.081461	 -0.268579	 -0.411603	 1.941060	 -0.131496	 -0.072901	 -0.007081	 0.824208	 -0.074719	 0.561292	 1
1462070104.473	 2	 0.027178	 -0.424055	 -0.459471	 1.937201	 -0.135760	 -0.071686	 -0.008933	 0.823045	 -0.076113	 0.562783	 1
1462070104.483	 2	 -0.001162	 -0.226976	 -0.574624	 1.934504	 -0.140853	 -0.069747	 -0.011279	 0.822181	 -0.077641	 0.563793	 1
1462070104.493	 2	 0.005268	 0.106103	 -0.695209	 1.935082	 -0.147079	 -0.067389	 -0.013993	 0.822205	 -0.079531	 0.563434	 1
1462070104.503	 2	 0.021834	 0.305314	 -0.791550	 1.938179	 -0.154351	 -0.064761	 -0.017010	 0.822899	 -0.081796	 0.562012	 1
1462070104.513	 2	 0.048450	 0.290358	 -0.789789	 1.941604	 -0.161937	 -0.062223	 -0.020057	 0.823657	 -0.084228	 0.560439	 1
1462070104.523	 2	 0.082171	 0.113381	 -0.687285	 1.943622	 -0.168885	 -0.060295	 -0.022724	 0.824025	 -0.086562	 0.559441	 1
1462070104.533	 2	 0.109216	 -0.158976	 -0.539782	 1.942914	 -0.174635	 -0.059130	 -0.024856	 0.823658	 -0.088587	 0.559574	 1
1462070104.543	 2	 0.158846	 -0.392067	 -0.395308	 1.939570	 -0.179180	 -0.058928	 -0.026372	 0.822590	 -0.090352	 0.560791	 1
1462070104.553	 2	 0.200150	 -0.565699	 -0.268326	 1.934194	 -0.182641	 -0.059665	 -0.027293	 0.820990	 -0.091904	 0.562835	 1
1462070104.563	 2	 0.223707	 -0.639438	 -0.160510	 1.927645	 -0.185182	 -0.061087	 -0.027736	 0.819089	 -0.093252	 0.565357	 1
1462070104.573	 2	 0.210472	 -0.584462	 -0.065030	 1.921249	 -0.186744	 -0.062832	 -0.027768	 0.817255	 -0.094294	 0.567831	 1
1462070104.583	 2	 0.130443	 -0.397738	 -0.015702	 1.916473	 -0.187503	 -0.064233	 -0.027640	 0.815894	 -0.094935	 0.569684	 1
1462070104.593	 2	 0.038516	 -0.191232	 -0.030033	 1.914040	 -0.187909	 -0.064718	 -0.027674	 0.815195	 -0.095205	 0.570637	 1
1462070104.603	 2	 0.016158	 -0.111985	 -0.111164	 1.912793	 -0.188811	 -0.064583	 -0.028049	 0.814811	 -0.095515	 0.571115	 1
1462070104.613	 2	 0.033982	 -0.125267	 -0.175389	 1.911658	 -0.190433	 -0.064306	 -0.028683	 0.814435	 -0.096077	 0.571525	 1
1462070104.623	 2	 0.046504	 -0.174326	 -0.188743	 1.910090	 -0.192362	 -0.064085	 -0.029405	 0.813927	 -0.096773	 0.572096	 1
1462070104.633	 2	 0.025472	 -0.156827	 -0.130846	 1.908433	 -0.193908	 -0.063902	 -0.030006	 0.813403	 -0.097322	 0.572716	 1
1462070104.643	 2	 -0.041562	 -0.018305	 0.023430	 1.907931	 -0.194003	 -0.063606	 -0.030179	 0.813252	 -0.097269	 0.572930	 1
1462070104.653	 2	 -0.045004	 0.067566	 0.129770	 1.908528	 -0.192716	 -0.063516	 -0.029815	 0.813460	 -0.096731	 0.572745	 1
1462070104.663	 2	 0.007337	 -0.048320	 0.011002	 1.908335	 -0.192260	 -0.063623	 -0.029648	 0.813421	 -0.096574	 0.572836	 1
1462070104.673	 2	 0.029510	 -0.058307	 -0.037243	 1.907636	 -0.192617	 -0.063791	 -0.029717	 0.813212	 -0.096756	 0.573098	 1
1462070104.683	 2	 0.034052	 -0.023026	 -0.010310	 1.907324	 -0.192957	 -0.064019	 -0.029738	 0.813116	 -0.096954	 0.573200	 1
1462070104.693	 2	 0.030875	 -0.035626	 0.010915	 1.906939	 -0.192976	 -0.064363	 -0.029622	 0.813010	 -0.097055	 0.573339	 1
1462070104.703	 2	 0.014781	 -0.050481	 0.006640	 1.907788	 -0.193535	 -0.064305	 -0.029766	 0.813236	 -0.097277	 0.572974	 1
1462070104.713	 2	 0.020111	 -0.052617	 0.007639	 1.907230	 -0.193521	 -0.064498	 -0.029710	 0.813079	 -0.097319	 0.573192	 1
1462070104.723	 2	 0.042523	 -0.054788	 0.010621	 1.906628	 -0.193547	 -0.064890	 -0.029588	 0.812912	 -0.097433	 0.573416	 1
1462070104.733	 2	 0.062782	 -0.065424	 0.018872	 1.905884	 -0.193578	 -0.065499	 -0.029386	 0.812706	 -0.097609	 0.573688	 1
1462070104.743	 2	 0.081972	 -0.074945	 0.026082	 1.908265	 -0.192203	 -0.065699	 -0.028791	 0.813432	 -0.097144	 0.572767	 1
1462070104.753	 2	 0.088399	 -0.082302	 0.040878	 1.907273	 -0.192142	 -0.066669	 -0.028428	 0.813164	 -0.097383	 0.573126	 1
1462070104.763	 2	 0.087412	 -0.077936	 0.055848	 1.906274	 -0.191937	 -0.067679	 -0.028006	 0.812898	 -0.097576	 0.573491	 1
1462070104.773	 2	 0.080039	 -0.068248	 0.068792	 1.905373	 -0.191586	 -0.068683	 -0.027540	 0.812664	 -0.097709	 0.573822	 1
1462070104.783	 2	 0.066259	 -0.052202	 0.074420	 1.904962	 -0.188965	 -0.069538	 -0.026454	 0.812633	 -0.096889	 0.574057	 1
1462070104.793	 2	 0.052470	 -0.037246	 0.077877	 1.904409	 -0.188422	 -0.070329	 -0.026002	 0.812500	 -0.096890	 0.574265	 1
1462070104.803	 2	 0.040753	 -0.031900	 0.076963	 1.903952	 -0.187834	 -0.071010	 -0.025577	 0.812394	 -0.096841	 0.574442	 1
1462070104.813	 2	 0.033287	 -0.026598	 0.071749	 1.903557	 -0.187256	 -0.071589	 -0.025193	 0.812304	 -0.096769	 0.574599	 1
1462070104.823	 2	 0.024800	 -0.009589	 0.065623	 1.903673	 -0.184179	 -0.072007	 -0.024126	 0.812426	 -0.095646	 0.574659	 1
1462070104.833	 2	 0.030157	 0.002034	 0.057158	 1.903582	 -0.183705	 -0.072475	 -0.023802	 0.812418	 -0.095588	 0.574694	 1
1462070104.843	 2	 0.036586	 0.013661	 0.049750	 1.903600	 -0.183333	 -0.072977	 -0.023490	 0.812440	 -0.095582	 0.574677	 1
1462070104.853	 2	 0.044032	 0.016760	 0.040122	 1.903659	 -0.183070	 -0.073520	 -0.023190	 0.812470	 -0.095633	 0.574639	 1
1462070104.863	 2	 0.051489	 0.019903	 0.033710	 1.904794	 -0.181421	 -0.073928	 -0.022492	 0.812844	 -0.095096	 0.574226	 1
1462070104.873	 2	 0.057879	 0.023043	 0.027302	 1.905643	 -0.180284	 -0.074434	 -0.021917	 0.813123	 -0.094791	 0.573904	 1
1462070104.883	 2	 0.062084	 0.027148	 0.007068	 1.906242	 -0.179403	 -0.074974	 -0.021413	 0.813323	 -0.094596	 0.573671	 1
1462070104.893	 2	 0.063182	 0.027219	 0.015602	 1.906938	 -0.178286	 -0.075547	 -0.020824	 0.813558	 -0.094315	 0.573407	 1
1462070104.903	 2	 0.052488	 0.020896	 0.017774	 1.907680	 -0.177748	 -0.076030	 -0.020437	 0.813789	 -0.094243	 0.573104	 1
1462070104.913	 2	 0.042965	 0.011238	 0.020182	 1.908126	 -0.177167	 -0.076456	 -0.020074	 0.813935	 -0.094135	 0.572927	 1
1462070104.923	 2	 0.035541	 0.022951	 0.018229	 1.908648	 -0.176505	 -0.076808	 -0.019715	 0.814105	 -0.093973	 0.572725	 1
1462070104.933	 2	 0.028036	 0.022912	 0.009776	 1.908801	 -0.175820	 -0.077147	 -0.019372	 0.814169	 -0.093794	 0.572675	 1
1462070104.943	 2	 0.010911	 0.019711	 0.001378	 1.908939	 -0.175038	 -0.077316	 -0.019070	 0.814230	 -0.093527	 0.572642	 1
1462070104.953	 2	 -0.001958	 0.011201	 -0.003911	 1.908923	 -0.174478	 -0.077351	 -0.018896	 0.814239	 -0.093310	 0.572670	 1
1462070104.963	 2	 -0.012648	 0.010149	 -0.007020	 1.909264	 -0.174014	 -0.077187	 -0.018812	 0.814346	 -0.093078	 0.572558	 1
1462070104.973	 2	 -0.005187	 0.010117	 -0.009213	 1.909822	 -0.173669	 -0.077010	 -0.018759	 0.814513	 -0.092893	 0.572353	 1
1462070104.983	 2	 -0.000917	 0.008009	 -0.006069	 1.910520	 -0.173287	 -0.076865	 -0.018675	 0.814720	 -0.092703	 0.572091	 1
1462070104.993	 2	 -0.000940	 0.001648	 -0.003993	 1.910971	 -0.172969	 -0.076764	 -0.018604	 0.814856	 -0.092549	 0.571925	 1
1462070105.003	 2	 0.001183	 -0.001536	 -0.002974	 1.911375	 -0.172751	 -0.076689	 -0.018552	 0.814976	 -0.092443	 0.571773	 1
1462070105.013	 2	 0.005448	 -0.004712	 0.000159	 1.911655	 -0.172442	 -0.076670	 -0.018458	 0.815063	 -0.092315	 0.571672	 1
1462070105.023	 2	 0.005442	 -0.005773	 0.000152	 1.911797	 -0.172199	 -0.076685	 -0.018375	 0.815110	 -0.092222	 0.571623	 1
1462070105.033	 2	 0.005441	 -0.006826	 0.001211	 1.911911	 -0.171974	 -0.076713	 -0.018294	 0.815148	 -0.092140	 0.571584	 1
1462070105.043	 2	 0.007574	 -0.006830	 0.001194	 1.912029	 -0.171771	 -0.076745	 -0.018216	 0.815187	 -0.092068	 0.571543	 1
1462070105.053	 2	 0.006484	 -0.008975	 -0.002011	 1.912076	 -0.171585	 -0.076787	 -0.018144	 0.815206	 -0.092004	 0.571529	 1
1462070105.063	 2	 0.005410	 -0.011089	 -0.000954	 1.912142	 -0.171450	 -0.076814	 -0.018091	 0.815228	 -0.091958	 0.571507	 1
1462070105.073	 2	 0.004338	 -0.011091	 -0.002007	 1.912135	 -0.171189	 -0.076825	 -0.018011	 0.815232	 -0.091855	 0.571520	 1
1462070105.083	 2	 0.001135	 -0.012136	 -0.000921	 1.912119	 -0.171020	 -0.076821	 -0.017965	 0.815232	 -0.091785	 0.571533	 1
1462070105.093	 2	 0.001149	 -0.009999	 0.000166	 1.912168	 -0.170861	 -0.076805	 -0.017923	 0.815249	 -0.091717	 0.571520	 1
1462070105.103	 2	 -0.000986	 -0.008934	 -0.000868	 1.912230	 -0.170590	 -0.076779	 -0.017853	 0.815273	 -0.091600	 0.571507	 1
1462070105.113	 2	 -0.000986	 -0.007877	 -0.001922	 1.912237	 -0.170391	 -0.076759	 -0.017803	 0.815280	 -0.091513	 0.571513	 1
1462070105.123	 2	 -0.003115	 -0.006805	 -0.001891	 1.912270	 -0.170202	 -0.076705	 -0.017769	 0.815293	 -0.091422	 0.571510	 1
1462070105.133	 2	 -0.000961	 -0.001499	 -0.002924	 1.912399	 -0.170043	 -0.076656	 -0.017737	 0.815333	 -0.091345	 0.571466	 1
1462070105.143	 2	 -0.003101	 -0.002555	 -0.002913	 1.912458	 -0.169877	 -0.076610	 -0.017706	 0.815354	 -0.091264	 0.571451	 1
1462070105.153	 2	 -0.002028	 0.000618	 -0.005021	 1.912491	 -0.169675	 -0.076577	 -0.017659	 0.815368	 -0.091173	 0.571447	 1
1462070105.163	 2	 -0.002028	 0.001675	 -0.006075	 1.912534	 -0.169569	 -0.076535	 -0.017644	 0.815382	 -0.091118	 0.571435	 1
1462070105.173	 2	 -0.002023	 0.002739	 -0.006062	 1.912596	 -0.169434	 -0.076490	 -0.017620	 0.815402	 -0.091052	 0.571418	 1
1462070105.183	 2	 -0.004158	 0.002746	 -0.006042	 1.912696	 -0.169339	 -0.076425	 -0.017615	 0.815433	 -0.090995	 0.571383	 1
1462070105.193	 2	 -0.004150	 0.002762	 -0.003909	 1.912768	 -0.169243	 -0.076370	 -0.017606	 0.815455	 -0.090941	 0.571360	 1
1462070105.203	 2	 -0.002010	 0.005932	 -0.006028	 1.912882	 -0.169192	 -0.076315	 -0.017609	 0.815488	 -0.090906	 0.571319	 1
1462070105.213	 2	 -0.004140	 0.007004	 -0.005998	 1.913026	 -0.169119	 -0.076246	 -0.017609	 0.815531	 -0.090858	 0.571266	 1
1462070105.223	 2	 -0.004159	 0.003806	 -0.007092	 1.913143	 -0.169083	 -0.076174	 -0.017623	 0.815564	 -0.090823	 0.571223	 1
1462070105.233	 2	 -0.005231	 0.003802	 -0.008147	 1.913251	 -0.169070	 -0.076098	 -0.017645	 0.815595	 -0.090798	 0.571183	 1
1462070105.243	 2	 -0.005233	 0.002747	 -0.007090	 1.913310	 -0.168992	 -0.076026	 -0.017650	 0.815613	 -0.090746	 0.571165	 1
1462070105.253	 2	 -0.006299	 0.003807	 -0.008135	 1.913397	 -0.168961	 -0.075932	 -0.017676	 0.815637	 -0.090707	 0.571135	 1
1462070105.263	 2	 -0.004156	 0.004873	 -0.007077	 1.913568	 -0.168907	 -0.075845	 -0.017687	 0.815687	 -0.090662	 0.571072	 1
1462070105.273	 2	 -0.005220	 0.004886	 -0.006000	 1.913699	 -0.168821	 -0.075766	 -0.017689	 0.815726	 -0.090606	 0.571025	 1
1462070105.283	 2	 -0.007355	 0.004893	 -0.005980	 1.913833	 -0.168783	 -0.075667	 -0.017712	 0.815764	 -0.090563	 0.570976	 1
1462070105.293	 2	 -0.007369	 0.002758	 -0.007064	 1.913892	 -0.168726	 -0.075572	 -0.017732	 0.815781	 -0.090513	 0.570959	 1
1462070105.303	 2	 -0.006303	 0.002756	 -0.007072	 1.913995	 -0.168676	 -0.075473	 -0.017753	 0.815811	 -0.090465	 0.570923	 1
1462070105.313	 2	 -0.007361	 0.003831	 -0.005986	 1.914069	 -0.168613	 -0.075378	 -0.017771	 0.815833	 -0.090414	 0.570900	 1
1462070105.323	 2	 -0.006300	 0.001710	 -0.004948	 1.914172	 -0.168578	 -0.075289	 -0.017792	 0.815862	 -0.090375	 0.570863	 1
1462070105.333	 2	 -0.005224	 0.002779	 -0.003881	 1.914304	 -0.168519	 -0.075204	 -0.017804	 0.815900	 -0.090328	 0.570816	 1
1462070105.343	 2	 -0.004148	 0.004906	 -0.003869	 1.914480	 -0.168439	 -0.075126	 -0.017804	 0.815952	 -0.090275	 0.570750	 1
1462070105.353	 2	 -0.005211	 0.004916	 -0.002792	 1.914526	 -0.168378	 -0.075072	 -0.017807	 0.815966	 -0.090235	 0.570736	 1
1462070105.363	 2	 -0.006283	 0.004911	 -0.003847	 1.914549	 -0.168283	 -0.075007	 -0.017805	 0.815974	 -0.090178	 0.570734	 1
1462070105.373	 2	 -0.007347	 0.003867	 -0.001715	 1.914675	 -0.168195	 -0.074926	 -0.017807	 0.816011	 -0.090120	 0.570690	 1
1462070105.383	 2	 -0.007354	 0.000692	 0.000388	 1.914725	 -0.168114	 -0.074851	 -0.017812	 0.816027	 -0.090066	 0.570676	 1
1462070105.393	 2	 -0.008431	 -0.000376	 -0.000677	 1.914770	 -0.168007	 -0.074774	 -0.017811	 0.816042	 -0.090002	 0.570665	 1
1462070105.403	 2	 -0.010565	 0.000687	 -0.001713	 1.914793	 -0.167916	 -0.074675	 -0.017824	 0.816050	 -0.089936	 0.570663	 1
1462070105.413	 2	 -0.012709	 -0.000378	 -0.002769	 1.914809	 -0.167826	 -0.074558	 -0.017845	 0.816055	 -0.089867	 0.570666	 1
1462070105.423	 2	 -0.008436	 0.000674	 -0.002795	 1.914890	 -0.167721	 -0.074442	 -0.017859	 0.816080	 -0.089792	 0.570642	 1
1462070105.433	 2	 -0.007384	 -0.001463	 -0.003889	 1.914978	 -0.167677	 -0.074348	 -0.017880	 0.816105	 -0.089748	 0.570612	 1
1462070105.443	 2	 -0.005264	 -0.002547	 -0.006048	 1.915061	 -0.167653	 -0.074262	 -0.017905	 0.816129	 -0.089714	 0.570583	 1
1462070105.453	 2	 -0.004193	 -0.002541	 -0.004990	 1.915095	 -0.167599	 -0.074203	 -0.017912	 0.816139	 -0.089676	 0.570574	 1
1462070105.463	 2	 -0.006323	 -0.002528	 -0.003905	 1.915073	 -0.167573	 -0.074143	 -0.017930	 0.816133	 -0.089648	 0.570587	 1
1462070105.473	 2	 -0.005256	 -0.001475	 -0.004969	 1.915060	 -0.167543	 -0.074084	 -0.017946	 0.816129	 -0.089618	 0.570596	 1
1462070105.483	 2	 -0.003094	 0.001733	 -0.001760	 1.915081	 -0.167517	 -0.074039	 -0.017956	 0.816136	 -0.089595	 0.570590	 1
1462070105.493	 2	 -0.005248	 -0.001459	 -0.002836	 1.915129	 -0.167478	 -0.073977	 -0.017967	 0.816150	 -0.089562	 0.570575	 1
1462070105.503	 2	 -0.006321	 -0.003575	 -0.001780	 1.915125	 -0.167427	 -0.073899	 -0.017985	 0.816149	 -0.089519	 0.570582	 1
1462070105.513	 2	 -0.004201	 -0.004660	 -0.003939	 1.915144	 -0.167388	 -0.073828	 -0.018002	 0.816155	 -0.089483	 0.570579	 1
1462070105.523	 2	 -0.002058	 -0.003592	 -0.002881	 1.915225	 -0.167367	 -0.073770	 -0.018016	 0.816178	 -0.089459	 0.570549	 1
1462070105.533	 2	 -0.000992	 -0.004651	 -0.001834	 1.915204	 -0.167346	 -0.073745	 -0.018021	 0.816172	 -0.089443	 0.570560	 1
1462070105.543	 2	 -0.002055	 -0.004640	 -0.000758	 1.915153	 -0.167321	 -0.073728	 -0.018023	 0.816158	 -0.089428	 0.570583	 1
1462070105.553	 2	 -0.002054	 -0.002529	 -0.002869	 1.915089	 -0.167284	 -0.073711	 -0.018022	 0.816140	 -0.089407	 0.570611	 1
1462070105.563	 2	 -0.000982	 -0.001469	 -0.002868	 1.915077	 -0.167251	 -0.073693	 -0.018021	 0.816137	 -0.089389	 0.570618	 1
1462070105.573	 2	 -0.003121	 -0.002526	 -0.002858	 1.915062	 -0.167223	 -0.073658	 -0.018027	 0.816133	 -0.089367	 0.570627	 1
1462070105.583	 2	 -0.003122	 -0.002526	 -0.002858	 1.915044	 -0.167219	 -0.073623	 -0.018042	 0.816128	 -0.089355	 0.570636	 1
1462070105.593	 2	 -0.003104	 -0.001439	 0.000351	 1.915059	 -0.167161	 -0.073582	 -0.018041	 0.816133	 -0.089320	 0.570634	 1
1462070105.603	 2	 -0.005243	 -0.000384	 -0.001751	 1.915037	 -0.167062	 -0.073533	 -0.018033	 0.816129	 -0.089266	 0.570649	 1
1462070105.613	 2	 -0.005247	 -0.000392	 -0.002815	 1.915034	 -0.167011	 -0.073485	 -0.018038	 0.816129	 -0.089232	 0.570654	 1
1462070105.623	 2	 -0.005233	 0.001743	 -0.001729	 1.915063	 -0.166965	 -0.073423	 -0.018049	 0.816138	 -0.089195	 0.570647	 1
1462070105.633	 2	 -0.007372	 0.001741	 -0.002775	 1.915039	 -0.166909	 -0.073358	 -0.018060	 0.816132	 -0.089154	 0.570662	 1
1462070105.643	 2	 -0.007367	 0.002804	 -0.002764	 1.915065	 -0.166861	 -0.073282	 -0.018076	 0.816139	 -0.089113	 0.570656	 1
1462070105.653	 2	 -0.007376	 0.002789	 -0.004895	 1.915131	 -0.166823	 -0.073191	 -0.018100	 0.816158	 -0.089072	 0.570635	 1
1462070105.663	 2	 -0.006300	 0.003857	 -0.003828	 1.915184	 -0.166797	 -0.073113	 -0.018122	 0.816173	 -0.089039	 0.570618	 1
1462070105.673	 2	 -0.007371	 0.004908	 -0.005939	 1.915206	 -0.166779	 -0.073029	 -0.018150	 0.816179	 -0.089008	 0.570613	 1
1462070105.683	 2	 -0.006304	 0.004906	 -0.005948	 1.915327	 -0.166771	 -0.072935	 -0.018181	 0.816213	 -0.088979	 0.570568	 1
1462070105.693	 2	 -0.004166	 0.004908	 -0.004900	 1.915417	 -0.166765	 -0.072868	 -0.018202	 0.816238	 -0.088959	 0.570535	 1
1462070105.703	 2	 -0.003095	 0.005969	 -0.004898	 1.915515	 -0.166735	 -0.072811	 -0.018212	 0.816266	 -0.088931	 0.570499	 1
1462070105.713	 2	 -0.004163	 0.004916	 -0.003832	 1.915557	 -0.166728	 -0.072763	 -0.018228	 0.816278	 -0.088915	 0.570484	 1
1462070105.723	 2	 -0.003091	 0.005976	 -0.003831	 1.915628	 -0.166718	 -0.072718	 -0.018240	 0.816298	 -0.088899	 0.570457	 1
1462070105.733	 2	 -0.005231	 0.004920	 -0.003821	 1.915739	 -0.166706	 -0.072657	 -0.018257	 0.816330	 -0.088877	 0.570415	 1
1462070105.743	 2	 -0.005220	 0.008102	 -0.004857	 1.915792	 -0.166688	 -0.072601	 -0.018272	 0.816345	 -0.088855	 0.570397	 1
1462070105.753	 2	 -0.004154	 0.007043	 -0.003809	 1.915881	 -0.166666	 -0.072545	 -0.018285	 0.816370	 -0.088831	 0.570363	 1
1462070105.763	 2	 -0.005242	 0.002792	 -0.003838	 1.915928	 -0.166641	 -0.072487	 -0.018299	 0.816384	 -0.088804	 0.570348	 1
1462070105.773	 2	 -0.005242	 0.002792	 -0.003836	 1.915965	 -0.166585	 -0.072421	 -0.018308	 0.816395	 -0.088763	 0.570338	 1
1462070105.783	 2	 -0.005242	 0.003848	 -0.004891	 1.916006	 -0.166561	 -0.072353	 -0.018328	 0.816406	 -0.088735	 0.570325	 1
1462070105.793	 2	 -0.006316	 0.000674	 -0.002780	 1.915991	 -0.166573	 -0.072293	 -0.018356	 0.816401	 -0.088722	 0.570333	 1
1462070105.803	 2	 -0.006317	 -0.000382	 -0.001723	 1.916002	 -0.166531	 -0.072230	 -0.018369	 0.816405	 -0.088687	 0.570334	 1
1462070105.813	 2	 -0.006308	 0.000689	 -0.000647	 1.916011	 -0.166510	 -0.072161	 -0.018391	 0.816407	 -0.088659	 0.570334	 1
1462070105.823	 2	 -0.007384	 0.000676	 -0.002768	 1.915999	 -0.166447	 -0.072090	 -0.018402	 0.816405	 -0.088613	 0.570344	 1
1462070105.833	 2	 -0.008460	 0.000664	 -0.004889	 1.915985	 -0.166388	 -0.072007	 -0.018420	 0.816402	 -0.088565	 0.570356	 1
1462070105.843	 2	 -0.006331	 -0.000406	 -0.004916	 1.916004	 -0.166369	 -0.071928	 -0.018446	 0.816407	 -0.088535	 0.570352	 1
1462070105.853	 2	 -0.004188	 0.000659	 -0.003858	 1.916012	 -0.166366	 -0.071873	 -0.018467	 0.816408	 -0.088518	 0.570351	 1
1462070105.863	 2	 -0.004189	 -0.000398	 -0.002802	 1.916010	 -0.166367	 -0.071821	 -0.018489	 0.816407	 -0.088504	 0.570355	 1
1462070105.873	 2	 -0.003118	 -0.000393	 -0.001744	 1.916019	 -0.166333	 -0.071780	 -0.018495	 0.816410	 -0.088479	 0.570354	 1
1462070105.883	 2	 -0.004199	 -0.001468	 -0.003876	 1.916059	 -0.166311	 -0.071727	 -0.018509	 0.816422	 -0.088455	 0.570341	 1
1462070105.893	 2	 -0.003130	 -0.003575	 -0.000706	 1.916052	 -0.166247	 -0.071693	 -0.018505	 0.816421	 -0.088419	 0.570348	 1
1462070105.903	 2	 -0.004197	 -0.003573	 -0.000696	 1.915987	 -0.166218	 -0.071653	 -0.018516	 0.816403	 -0.088395	 0.570377	 1
1462070105.913	 2	 -0.004184	 -0.001438	 0.000391	 1.915973	 -0.166130	 -0.071619	 -0.018505	 0.816401	 -0.088349	 0.570388	 1
1462070105.923	 2	 -0.005136	 -0.002621	 -0.001588	 1.915960	 -0.166084	 -0.071566	 -0.018514	 0.816397	 -0.088316	 0.570397	 1
1462070105.933	 2	 -0.005140	 -0.002629	 -0.002654	 1.915914	 -0.166079	 -0.071511	 -0.018537	 0.816384	 -0.088298	 0.570418	 1
1462070105.943	 2	 -0.003001	 -0.001572	 -0.002662	 1.915904	 -0.166055	 -0.071474	 -0.018545	 0.816381	 -0.088277	 0.570425	 1
1462070105.953	 2	 -0.004064	 -0.001561	 -0.001586	 1.915890	 -0.166043	 -0.071430	 -0.018561	 0.816377	 -0.088260	 0.570433	 1
1462070105.963	 2	 -0.004042	 0.001602	 -0.003661	 1.915913	 -0.165988	 -0.071369	 -0.018569	 0.816384	 -0.088220	 0.570429	 1
1462070105.973	 2	 -0.004049	 -0.001574	 -0.001558	 1.915908	 -0.165968	 -0.071325	 -0.018581	 0.816383	 -0.088199	 0.570434	 1
1462070105.983	 2	 -0.005121	 -0.002635	 -0.001558	 1.915875	 -0.165931	 -0.071277	 -0.018591	 0.816374	 -0.088170	 0.570451	 1
1462070105.993	 2	 -0.004048	 -0.000520	 -0.002613	 1.915785	 -0.165910	 -0.071242	 -0.018604	 0.816349	 -0.088151	 0.570490	 1
1462070106.003	 2	 -0.004053	 -0.000529	 -0.003678	 1.915733	 -0.165876	 -0.071201	 -0.018613	 0.816334	 -0.088125	 0.570514	 1
1462070106.013	 2	 -0.004053	 -0.000529	 -0.003678	 1.915750	 -0.165887	 -0.071143	 -0.018639	 0.816338	 -0.088113	 0.570509	 1
1462070106.023	 2	 -0.004048	 0.000534	 -0.003667	 1.915722	 -0.165864	 -0.071098	 -0.018652	 0.816330	 -0.088090	 0.570523	 1
1462070106.033	 2	 -0.005111	 0.001602	 -0.003647	 1.915768	 -0.165835	 -0.071038	 -0.018666	 0.816344	 -0.088062	 0.570508	 1
1462070106.043	 2	 -0.006174	 0.000556	 -0.001516	 1.915768	 -0.165822	 -0.070980	 -0.018686	 0.816343	 -0.088040	 0.570511	 1
1462070106.053	 2	 -0.008312	 0.001610	 -0.003619	 1.915777	 -0.165823	 -0.070900	 -0.018719	 0.816345	 -0.088018	 0.570511	 1
1462070106.063	 2	 -0.007241	 0.001615	 -0.002562	 1.915811	 -0.165787	 -0.070820	 -0.018739	 0.816355	 -0.087981	 0.570502	 1
1462070106.073	 2	 -0.008308	 0.001617	 -0.002552	 1.915789	 -0.165744	 -0.070744	 -0.018759	 0.816349	 -0.087941	 0.570516	 1
1462070106.083	 2	 -0.008295	 0.002695	 -0.000409	 1.915804	 -0.165680	 -0.070670	 -0.018770	 0.816354	 -0.087894	 0.570516	 1
1462070106.093	 2	 -0.007233	 0.002685	 -0.001484	 1.915865	 -0.165641	 -0.070587	 -0.018790	 0.816372	 -0.087855	 0.570496	 1
1462070106.103	 2	 -0.006166	 0.002681	 -0.001493	 1.915884	 -0.165601	 -0.070528	 -0.018802	 0.816378	 -0.087822	 0.570492	 1
1462070106.113	 2	 -0.007172	 0.001568	 -0.002471	 1.915878	 -0.165572	 -0.070468	 -0.018818	 0.816376	 -0.087794	 0.570498	 1
1462070106.123	 2	 -0.007173	 0.001568	 -0.002470	 1.915903	 -0.165554	 -0.070399	 -0.018840	 0.816383	 -0.087767	 0.570492	 1
1462070106.133	 2	 -0.006104	 0.003676	 -0.004591	 1.915934	 -0.165533	 -0.070326	 -0.018862	 0.816391	 -0.087738	 0.570483	 1
1462070106.143	 2	 -0.005034	 0.002624	 -0.002478	 1.915939	 -0.165534	 -0.070278	 -0.018882	 0.816392	 -0.087725	 0.570484	 1
1462070106.153	 2	 -0.007178	 0.000503	 -0.002478	 1.915961	 -0.165453	 -0.070207	 -0.018887	 0.816400	 -0.087671	 0.570481	 1
1462070106.163	 2	 -0.005044	 0.000497	 -0.002496	 1.916010	 -0.165440	 -0.070143	 -0.018907	 0.816414	 -0.087649	 0.570464	 1
1462070106.173	 2	 -0.005040	 0.001562	 -0.002486	 1.916064	 -0.165405	 -0.070077	 -0.018921	 0.816429	 -0.087616	 0.570446	 1
1462070106.183	 2	 -0.005049	 0.000490	 -0.003560	 1.916061	 -0.165375	 -0.070011	 -0.018940	 0.816429	 -0.087585	 0.570451	 1
1462070106.193	 2	 -0.005045	 0.000498	 -0.002494	 1.916089	 -0.165328	 -0.069952	 -0.018950	 0.816437	 -0.087549	 0.570444	 1
1462070106.203	 2	 -0.005046	 0.000497	 -0.002493	 1.916067	 -0.165303	 -0.069901	 -0.018964	 0.816431	 -0.087524	 0.570457	 1
1462070106.213	 2	 -0.005046	 0.000496	 -0.002492	 1.916043	 -0.165268	 -0.069845	 -0.018978	 0.816424	 -0.087494	 0.570470	 1
1462070106.223	 2	 -0.006109	 0.000507	 -0.001417	 1.916054	 -0.165264	 -0.069775	 -0.019005	 0.816427	 -0.087472	 0.570469	 1
1462070106.233	 2	 -0.006099	 0.002634	 -0.001397	 1.916092	 -0.165229	 -0.069712	 -0.019019	 0.816438	 -0.087441	 0.570457	 1
1462070106.243	 2	 -0.008244	 -0.000543	 -0.000342	 1.916110	 -0.165191	 -0.069639	 -0.019037	 0.816443	 -0.087404	 0.570455	 1
1462070106.253	 2	 -0.007182	 -0.001610	 -0.000361	 1.916098	 -0.165132	 -0.069560	 -0.019052	 0.816440	 -0.087358	 0.570465	 1
1462070106.263	 2	 -0.008162	 0.001550	 0.000063	 1.916095	 -0.165092	 -0.069487	 -0.019071	 0.816440	 -0.087321	 0.570471	 1
1462070106.273	 2	 -0.009239	 -0.000574	 0.000054	 1.916115	 -0.165026	 -0.069410	 -0.019083	 0.816446	 -0.087272	 0.570469	 1
1462070106.283	 2	 -0.009240	 -0.001630	 0.001110	 1.916126	 -0.164936	 -0.069326	 -0.019090	 0.816451	 -0.087212	 0.570471	 1
1462070106.293	 2	 -0.007110	 -0.000588	 -0.001030	 1.916126	 -0.164883	 -0.069256	 -0.019104	 0.816451	 -0.087170	 0.570477	 1
1462070106.303	 2	 -0.009239	 0.001538	 -0.002056	 1.916152	 -0.164840	 -0.069165	 -0.019127	 0.816459	 -0.087127	 0.570471	 1
1462070106.313	 2	 -0.006056	 -0.000615	 -0.004235	 1.916130	 -0.164787	 -0.069091	 -0.019143	 0.816453	 -0.087084	 0.570486	 1
1462070106.323	 2	 -0.003917	 0.000442	 -0.004243	 1.916132	 -0.164786	 -0.069036	 -0.019166	 0.816453	 -0.087068	 0.570487	 1
1462070106.333	 2	 -0.003909	 0.000457	 -0.002111	 1.916117	 -0.164790	 -0.068991	 -0.019186	 0.816449	 -0.087057	 0.570495	 1
1462070106.343	 2	 -0.003927	 -0.001686	 -0.004262	 1.916110	 -0.164793	 -0.068946	 -0.019205	 0.816446	 -0.087045	 0.570500	 1
1462070106.353	 2	 -0.003923	 -0.001679	 -0.003196	 1.916084	 -0.164799	 -0.068908	 -0.019223	 0.816438	 -0.087036	 0.570512	 1
1462070106.363	 2	 -0.003920	 -0.002727	 -0.001075	 1.916072	 -0.164808	 -0.068864	 -0.019245	 0.816434	 -0.087027	 0.570518	 1
1462070106.373	 2	 -0.002867	 -0.004865	 -0.002169	 1.916023	 -0.164810	 -0.068832	 -0.019260	 0.816420	 -0.087018	 0.570540	 1
1462070106.383	 2	 -0.002877	 -0.006993	 -0.002189	 1.915945	 -0.164790	 -0.068796	 -0.019273	 0.816398	 -0.087000	 0.570574	 1
1462070106.393	 2	 -0.002872	 -0.005930	 -0.002178	 1.915851	 -0.164745	 -0.068767	 -0.019276	 0.816372	 -0.086972	 0.570615	 1
1462070106.403	 2	 -0.000710	 -0.002723	 0.001031	 1.915812	 -0.164710	 -0.068757	 -0.019271	 0.816361	 -0.086954	 0.570633	 1
1462070106.413	 2	 -0.003921	 -0.003785	 -0.000017	 1.915714	 -0.164680	 -0.068738	 -0.019275	 0.816334	 -0.086936	 0.570675	 1
1462070106.423	 2	 -0.003854	 -0.003842	 -0.002793	 1.915665	 -0.164651	 -0.068696	 -0.019286	 0.816320	 -0.086911	 0.570698	 1
1462070106.433	 2	 -0.003834	 0.000413	 -0.002753	 1.915675	 -0.164617	 -0.068654	 -0.019293	 0.816323	 -0.086886	 0.570697	 1
1462070106.443	 2	 -0.004911	 -0.000656	 -0.003819	 1.915655	 -0.164633	 -0.068603	 -0.019319	 0.816317	 -0.086878	 0.570706	 1
1462070106.453	 2	 -0.005968	 0.001475	 -0.003790	 1.915663	 -0.164630	 -0.068545	 -0.019342	 0.816318	 -0.086860	 0.570706	 1
1462070106.463	 2	 -0.004896	 0.001479	 -0.002733	 1.915672	 -0.164607	 -0.068486	 -0.019359	 0.816321	 -0.086834	 0.570706	 1
1462070106.473	 2	 -0.005955	 0.001497	 -0.000591	 1.915695	 -0.164575	 -0.068423	 -0.019374	 0.816328	 -0.086803	 0.570700	 1
1462070106.483	 2	 -0.005964	 0.001481	 -0.002723	 1.915691	 -0.164566	 -0.068370	 -0.019393	 0.816326	 -0.086784	 0.570705	 1
1462070106.493	 2	 -0.003820	 0.003602	 -0.002721	 1.915694	 -0.164539	 -0.068326	 -0.019404	 0.816327	 -0.086761	 0.570706	 1
1462070106.503	 2	 -0.002743	 0.004669	 -0.001655	 1.915705	 -0.164555	 -0.068295	 -0.019420	 0.816330	 -0.086759	 0.570702	 1
1462070106.513	 2	 -0.008080	 0.002573	 0.000504	 1.915693	 -0.164522	 -0.068237	 -0.019435	 0.816327	 -0.086728	 0.570711	 1
1462070106.523	 2	 -0.005949	 0.004670	 -0.002692	 1.915685	 -0.164509	 -0.068175	 -0.019457	 0.816324	 -0.086705	 0.570718	 1
1462070106.533	 2	 -0.005943	 0.006789	 -0.003738	 1.915754	 -0.164508	 -0.068107	 -0.019481	 0.816343	 -0.086686	 0.570692	 1
1462070106.543	 2	 -0.005944	 0.005733	 -0.002682	 1.915842	 -0.164493	 -0.068036	 -0.019502	 0.816368	 -0.086661	 0.570660	 1
1462070106.553	 2	 -0.007021	 0.004665	 -0.003748	 1.915895	 -0.164474	 -0.067957	 -0.019527	 0.816383	 -0.086631	 0.570643	 1
1462070106.563	 2	 -0.002748	 0.004660	 -0.002719	 1.915951	 -0.164457	 -0.067908	 -0.019539	 0.816399	 -0.086611	 0.570623	 1
1462070106.573	 2	 -0.001691	 0.002529	 -0.002748	 1.915947	 -0.164477	 -0.067882	 -0.019556	 0.816397	 -0.086611	 0.570624	 1
1462070106.583	 2	 -0.001602	 0.005694	 -0.002597	 1.916017	 -0.164465	 -0.067856	 -0.019560	 0.816417	 -0.086600	 0.570598	 1
1462070106.593	 2	 -0.005861	 0.007833	 -0.002540	 1.916027	 -0.164446	 -0.067808	 -0.019574	 0.816420	 -0.086579	 0.570596	 1
1462070106.603	 2	 -0.004808	 0.005694	 -0.003634	 1.916083	 -0.164404	 -0.067750	 -0.019583	 0.816436	 -0.086545	 0.570577	 1
1462070106.613	 2	 -0.003742	 0.004635	 -0.002587	 1.916121	 -0.164383	 -0.067705	 -0.019593	 0.816447	 -0.086524	 0.570565	 1
1462070106.623	 2	 -0.003762	 0.001436	 -0.003682	 1.916181	 -0.164379	 -0.067648	 -0.019613	 0.816464	 -0.086507	 0.570543	 1
1462070106.633	 2	 -0.003762	 0.001436	 -0.003681	 1.916150	 -0.164387	 -0.067609	 -0.019632	 0.816454	 -0.086499	 0.570557	 1
1462070106.643	 2	 -0.000543	 0.002513	 -0.000502	 1.916211	 -0.164379	 -0.067588	 -0.019636	 0.816472	 -0.086490	 0.570533	 1
1462070106.653	 2	 -0.006957	 -0.000651	 0.000590	 1.916224	 -0.164354	 -0.067537	 -0.019649	 0.816475	 -0.086466	 0.570531	 1
1462070106.663	 2	 -0.003769	 -0.001740	 -0.001578	 1.916186	 -0.164288	 -0.067482	 -0.019654	 0.816466	 -0.086423	 0.570551	 1
1462070106.673	 2	 -0.005883	 0.002521	 -0.001520	 1.916222	 -0.164253	 -0.067427	 -0.019665	 0.816476	 -0.086393	 0.570540	 1
1462070106.683	 2	 -0.005898	 0.000386	 -0.002605	 1.916216	 -0.164244	 -0.067362	 -0.019690	 0.816474	 -0.086371	 0.570546	 1
1462070106.693	 2	 -0.004835	 0.000374	 -0.003680	 1.916208	 -0.164229	 -0.067298	 -0.019712	 0.816472	 -0.086346	 0.570552	 1
1462070106.703	 2	 -0.004826	 0.001446	 -0.002604	 1.916255	 -0.164213	 -0.067232	 -0.019732	 0.816485	 -0.086321	 0.570537	 1
1462070106.713	 2	 -0.002696	 0.001432	 -0.003688	 1.916284	 -0.164213	 -0.067186	 -0.019750	 0.816492	 -0.086308	 0.570527	 1
1462070106.723	 2	 -0.002693	 0.000383	 -0.001565	 1.916295	 -0.164187	 -0.067156	 -0.019754	 0.816496	 -0.086290	 0.570525	 1
1462070106.733	 2	 -0.002694	 -0.000673	 -0.000509	 1.916286	 -0.164155	 -0.067128	 -0.019756	 0.816494	 -0.086269	 0.570531	 1
1462070106.743	 2	 -0.001641	 -0.002811	 -0.001604	 1.916280	 -0.164149	 -0.067101	 -0.019766	 0.816492	 -0.086258	 0.570535	 1
1462070106.753	 2	 -0.003680	 -0.000702	 -0.001140	 1.916264	 -0.164149	 -0.067067	 -0.019780	 0.816487	 -0.086249	 0.570543	 1
1462070106.763	 2	 -0.003680	 -0.000702	 -0.001140	 1.916207	 -0.164158	 -0.067036	 -0.019798	 0.816470	 -0.086243	 0.570567	 1
1462070106.773	 2	 -0.005809	 0.000367	 -0.001111	 1.916160	 -0.164152	 -0.066994	 -0.019816	 0.816457	 -0.086228	 0.570588	 1
1462070106.783	 2	 -0.003684	 0.000344	 -0.003261	 1.916111	 -0.164140	 -0.066955	 -0.019830	 0.816443	 -0.086211	 0.570610	 1
1462070106.793	 2	 -0.004742	 0.001419	 -0.002176	 1.916129	 -0.164126	 -0.066903	 -0.019847	 0.816447	 -0.086191	 0.570606	 1
1462070106.803	 2	 -0.004743	 0.000363	 -0.001120	 1.916142	 -0.164128	 -0.066863	 -0.019863	 0.816451	 -0.086180	 0.570602	 1
1462070106.813	 2	 -0.002608	 0.000356	 -0.001139	 1.916174	 -0.164125	 -0.066829	 -0.019874	 0.816459	 -0.086170	 0.570591	 1
1462070106.823	 2	 -0.003681	 -0.000704	 -0.001139	 1.916155	 -0.164072	 -0.066788	 -0.019877	 0.816455	 -0.086137	 0.570602	 1
1462070106.833	 2	 -0.003681	 -0.000705	 -0.001138	 1.916137	 -0.164042	 -0.066749	 -0.019885	 0.816450	 -0.086113	 0.570612	 1
1462070106.843	 2	 -0.004734	 0.001434	 -0.000043	 1.916155	 -0.164001	 -0.066703	 -0.019891	 0.816456	 -0.086083	 0.570608	 1
1462070106.853	 2	 -0.004737	 0.002481	 -0.002164	 1.916142	 -0.163977	 -0.066658	 -0.019904	 0.816452	 -0.086061	 0.570616	 1
1462070106.863	 2	 -0.003660	 0.004604	 -0.002154	 1.916113	 -0.163965	 -0.066617	 -0.019918	 0.816444	 -0.086044	 0.570631	 1
1462070106.873	 2	 -0.006866	 0.004606	 -0.003191	 1.916158	 -0.163945	 -0.066558	 -0.019934	 0.816457	 -0.086019	 0.570615	 1
1462070106.883	 2	 -0.004728	 0.003551	 -0.001088	 1.916166	 -0.163937	 -0.066507	 -0.019952	 0.816459	 -0.086002	 0.570615	 1
1462070106.893	 2	 -0.005795	 0.004610	 -0.002134	 1.916215	 -0.163930	 -0.066452	 -0.019971	 0.816472	 -0.085983	 0.570597	 1
1462070106.903	 2	 -0.004655	 0.004588	 -0.002030	 1.916273	 -0.163898	 -0.066394	 -0.019983	 0.816489	 -0.085955	 0.570577	 1
1462070106.913	 2	 -0.005726	 0.004584	 -0.003086	 1.916315	 -0.163875	 -0.066346	 -0.019994	 0.816501	 -0.085932	 0.570563	 1
1462070106.923	 2	 -0.006798	 0.004578	 -0.004142	 1.916326	 -0.163856	 -0.066277	 -0.020016	 0.816504	 -0.085904	 0.570562	 1
1462070106.933	 2	 -0.005720	 0.006702	 -0.004132	 1.916359	 -0.163857	 -0.066215	 -0.020040	 0.816513	 -0.085888	 0.570551	 1
1462070106.943	 2	 -0.004664	 0.003515	 -0.003105	 1.916400	 -0.163889	 -0.066154	 -0.020072	 0.816523	 -0.085884	 0.570536	 1
1462070106.953	 2	 -0.004659	 0.004579	 -0.003095	 1.916495	 -0.163859	 -0.066088	 -0.020087	 0.816550	 -0.085854	 0.570501	 1
1462070106.963	 2	 -0.005737	 0.002455	 -0.003104	 1.916549	 -0.163813	 -0.066028	 -0.020096	 0.816566	 -0.085818	 0.570483	 1
1462070106.973	 2	 -0.004660	 0.003523	 -0.002038	 1.916554	 -0.163830	 -0.065980	 -0.020120	 0.816567	 -0.085812	 0.570483	 1
1462070106.983	 2	 -0.004671	 0.001396	 -0.002058	 1.916604	 -0.163808	 -0.065928	 -0.020133	 0.816581	 -0.085788	 0.570465	 1
1462070106.993	 2	 -0.004666	 0.002459	 -0.002047	 1.916629	 -0.163795	 -0.065881	 -0.020147	 0.816588	 -0.085770	 0.570458	 1
1462070107.003	 2	 -0.004671	 0.001396	 -0.002057	 1.916662	 -0.163758	 -0.065829	 -0.020156	 0.816598	 -0.085740	 0.570448	 1
1462070107.013	 2	 -0.003605	 0.000336	 -0.001010	 1.916654	 -0.163767	 -0.065790	 -0.020175	 0.816595	 -0.085733	 0.570452	 1
1462070107.023	 2	 -0.003605	 0.000336	 -0.001010	 1.916636	 -0.163749	 -0.065751	 -0.020187	 0.816590	 -0.085714	 0.570462	 1
1462070107.033	 2	 -0.003595	 0.002463	 -0.000990	 1.916637	 -0.163707	 -0.065713	 -0.020190	 0.816590	 -0.085686	 0.570465	 1
1462070107.043	 2	 -0.004676	 0.001387	 -0.003122	 1.916644	 -0.163704	 -0.065663	 -0.020209	 0.816592	 -0.085671	 0.570464	 1
1462070107.053	 2	 -0.004671	 0.001394	 -0.002056	 1.916638	 -0.163705	 -0.065609	 -0.020232	 0.816590	 -0.085656	 0.570469	 1
1462070107.063	 2	 -0.003604	 0.001391	 -0.002065	 1.916644	 -0.163698	 -0.065567	 -0.020247	 0.816591	 -0.085641	 0.570469	 1
1462070107.073	 2	 -0.004590	 0.000322	 -0.000660	 1.916653	 -0.163681	 -0.065533	 -0.020255	 0.816594	 -0.085624	 0.570467	 1
1462070107.083	 2	 -0.002455	 0.001371	 -0.001735	 1.916667	 -0.163691	 -0.065495	 -0.020273	 0.816597	 -0.085618	 0.570462	 1
1462070107.093	 2	 -0.003522	 0.001374	 -0.001726	 1.916654	 -0.163688	 -0.065460	 -0.020287	 0.816593	 -0.085606	 0.570469	 1
1462070107.103	 2	 -0.003527	 0.000311	 -0.001735	 1.916681	 -0.163663	 -0.065418	 -0.020296	 0.816601	 -0.085585	 0.570461	 1
1462070107.113	 2	 -0.004600	 -0.000750	 -0.001735	 1.916690	 -0.163633	 -0.065370	 -0.020307	 0.816604	 -0.085559	 0.570461	 1
1462070107.123	 2	 -0.003538	 -0.001817	 -0.001754	 1.916660	 -0.163612	 -0.065329	 -0.020319	 0.816595	 -0.085538	 0.570475	 1
1462070107.133	 2	 -0.002471	 -0.001821	 -0.001763	 1.916614	 -0.163620	 -0.065301	 -0.020335	 0.816582	 -0.085533	 0.570495	 1
1462070107.143	 2	 -0.002465	 -0.000757	 -0.001754	 1.916591	 -0.163623	 -0.065273	 -0.020348	 0.816575	 -0.085526	 0.570506	 1
1462070107.153	 2	 -0.004596	 -0.000743	 -0.000669	 1.916571	 -0.163576	 -0.065232	 -0.020352	 0.816570	 -0.085495	 0.570517	 1
1462070107.163	 2	 -0.004591	 0.000320	 -0.000659	 1.916541	 -0.163574	 -0.065187	 -0.020371	 0.816561	 -0.085481	 0.570531	 1
1462070107.173	 2	 -0.005658	 0.000323	 -0.000649	 1.916519	 -0.163549	 -0.065126	 -0.020390	 0.816555	 -0.085454	 0.570544	 1
1462070107.183	 2	 -0.006715	 0.002452	 -0.000620	 1.916498	 -0.163536	 -0.065068	 -0.020410	 0.816548	 -0.085431	 0.570556	 1
1462070107.193	 2	 -0.006709	 0.004572	 -0.001666	 1.916549	 -0.163506	 -0.064999	 -0.020428	 0.816563	 -0.085400	 0.570539	 1
1462070107.203	 2	 -0.004581	 0.002446	 -0.000639	 1.916569	 -0.163518	 -0.064950	 -0.020450	 0.816568	 -0.085391	 0.570532	 1
1462070107.213	 2	 -0.005638	 0.004576	 -0.000610	 1.916597	 -0.163497	 -0.064892	 -0.020467	 0.816576	 -0.085366	 0.570524	 1
1462070107.223	 2	 -0.003439	 0.002429	 -0.000382	 1.916597	 -0.163468	 -0.064863	 -0.020470	 0.816576	 -0.085346	 0.570526	 1
1462070107.233	 2	 -0.004500	 0.004551	 -0.001418	 1.916641	 -0.163461	 -0.064819	 -0.020484	 0.816589	 -0.085331	 0.570510	 1
1462070107.243	 2	 -0.003442	 0.003476	 -0.002503	 1.916651	 -0.163446	 -0.064781	 -0.020495	 0.816591	 -0.085314	 0.570509	 1
1462070107.253	 2	 -0.004509	 0.004535	 -0.003550	 1.916667	 -0.163446	 -0.064735	 -0.020513	 0.816595	 -0.085301	 0.570504	 1
1462070107.263	 2	 -0.005581	 0.003474	 -0.003550	 1.916656	 -0.163476	 -0.064677	 -0.020546	 0.816591	 -0.085297	 0.570510	 1
1462070107.273	 2	 -0.005566	 0.005609	 -0.002465	 1.916715	 -0.163468	 -0.064622	 -0.020564	 0.816607	 -0.085279	 0.570489	 1
1462070107.283	 2	 -0.002380	 0.002408	 -0.002522	 1.916740	 -0.163489	 -0.064588	 -0.020583	 0.816614	 -0.085278	 0.570479	 1
1462070107.293	 2	 -0.001324	 -0.000778	 -0.001495	 1.916763	 -0.163495	 -0.064561	 -0.020594	 0.816620	 -0.085273	 0.570471	 1
1462070107.303	 2	 -0.001334	 -0.002906	 -0.001515	 1.916754	 -0.163532	 -0.064540	 -0.020614	 0.816616	 -0.085282	 0.570474	 1
1462070107.313	 2	 -0.001331	 -0.003954	 0.000606	 1.916729	 -0.163544	 -0.064531	 -0.020622	 0.816609	 -0.085284	 0.570484	 1
1462070107.323	 2	 -0.001336	 -0.005018	 0.000596	 1.916643	 -0.163548	 -0.064520	 -0.020631	 0.816584	 -0.085282	 0.570519	 1
1462070107.333	 2	 -0.003465	 -0.003948	 0.000625	 1.916582	 -0.163523	 -0.064498	 -0.020636	 0.816567	 -0.085264	 0.570546	 1
1462070107.343	 2	 -0.004517	 -0.000754	 0.000664	 1.916526	 -0.163535	 -0.064462	 -0.020656	 0.816550	 -0.085258	 0.570570	 1
1462070107.353	 2	 -0.001324	 -0.000779	 -0.001495	 1.916543	 -0.163491	 -0.064437	 -0.020653	 0.816556	 -0.085234	 0.570566	 1
1462070107.363	 2	 -0.000252	 0.000281	 -0.001495	 1.916491	 -0.163507	 -0.064436	 -0.020660	 0.816541	 -0.085239	 0.570587	 1
1462070107.373	 2	 -0.002400	 -0.000792	 -0.003617	 1.916481	 -0.163514	 -0.064405	 -0.020676	 0.816537	 -0.085233	 0.570592	 1
1462070107.383	 2	 -0.002392	 -0.000777	 -0.001486	 1.916454	 -0.163532	 -0.064372	 -0.020695	 0.816529	 -0.085231	 0.570603	 1
1462070107.393	 2	 -0.001329	 -0.001844	 -0.001505	 1.916421	 -0.163574	 -0.064358	 -0.020714	 0.816518	 -0.085243	 0.570616	 1
1462070107.403	 2	 -0.003375	 -0.001854	 -0.001212	 1.916390	 -0.163598	 -0.064338	 -0.020731	 0.816508	 -0.085247	 0.570629	 1
1462070107.413	 2	 -0.002298	 -0.000786	 -0.000146	 1.916368	 -0.163603	 -0.064330	 -0.020736	 0.816502	 -0.085247	 0.570638	 1
1462070107.423	 2	 -0.001231	 -0.000789	 -0.000155	 1.916345	 -0.163603	 -0.064316	 -0.020743	 0.816495	 -0.085242	 0.570648	 1
1462070107.433	 2	 -0.004422	 0.001347	 -0.000107	 1.916298	 -0.163592	 -0.064287	 -0.020754	 0.816482	 -0.085229	 0.570668	 1
1462070107.443	 2	 -0.004416	 0.004523	 -0.002209	 1.916330	 -0.163596	 -0.064236	 -0.020774	 0.816490	 -0.085217	 0.570658	 1
1462070107.453	 2	 -0.005488	 0.003462	 -0.002210	 1.916356	 -0.163613	 -0.064184	 -0.020799	 0.816497	 -0.085209	 0.570648	 1
1462070107.463	 2	 -0.006550	 0.004529	 -0.002191	 1.916408	 -0.163623	 -0.064123	 -0.020825	 0.816511	 -0.085196	 0.570629	 1
1462070107.473	 2	 -0.004421	 0.003458	 -0.002219	 1.916433	 -0.163616	 -0.064072	 -0.020843	 0.816518	 -0.085179	 0.570622	 1
1462070107.483	 2	 -0.005483	 0.004525	 -0.002200	 1.916502	 -0.163602	 -0.064014	 -0.020859	 0.816537	 -0.085157	 0.570597	 1
1462070107.493	 2	 -0.003349	 0.004519	 -0.002218	 1.916540	 -0.163558	 -0.063969	 -0.020864	 0.816549	 -0.085127	 0.570584	 1
1462070107.503	 2	 -0.003346	 0.003470	 -0.000096	 1.916582	 -0.163550	 -0.063934	 -0.020874	 0.816560	 -0.085114	 0.570569	 1
1462070107.513	 2	 -0.003350	 0.003462	 -0.001162	 1.916578	 -0.163542	 -0.063905	 -0.020884	 0.816559	 -0.085103	 0.570572	 1
1462070107.523	 2	 -0.004422	 0.002401	 -0.001162	 1.916554	 -0.163512	 -0.063870	 -0.020890	 0.816553	 -0.085081	 0.570584	 1
1462070107.533	 2	 -0.004416	 0.005576	 -0.003264	 1.916568	 -0.163487	 -0.063823	 -0.020902	 0.816557	 -0.085057	 0.570582	 1
1462070107.543	 2	 -0.003280	 0.006617	 -0.004143	 1.916649	 -0.163472	 -0.063774	 -0.020914	 0.816580	 -0.085038	 0.570551	 1
1462070107.553	 2	 -0.003286	 0.004497	 -0.003097	 1.916696	 -0.163472	 -0.063734	 -0.020928	 0.816593	 -0.085027	 0.570534	 1
1462070107.563	 2	 -0.003296	 0.002369	 -0.003117	 1.916707	 -0.163487	 -0.063703	 -0.020945	 0.816595	 -0.085024	 0.570530	 1
1462070107.573	 2	 -0.002220	 0.002381	 -0.000995	 1.916703	 -0.163494	 -0.063678	 -0.020957	 0.816594	 -0.085020	 0.570533	 1
1462070107.583	 2	 -0.005423	 0.001334	 0.000089	 1.916692	 -0.163490	 -0.063635	 -0.020974	 0.816590	 -0.085006	 0.570539	 1
1462070107.593	 2	 -0.006485	 0.001345	 0.001164	 1.916641	 -0.163478	 -0.063597	 -0.020988	 0.816576	 -0.084990	 0.570562	 1
1462070107.603	 2	 -0.006480	 0.002408	 0.001174	 1.916654	 -0.163434	 -0.063541	 -0.020998	 0.816580	 -0.084956	 0.570560	 1
1462070107.613	 2	 -0.004364	 0.001314	 -0.002052	 1.916647	 -0.163439	 -0.063492	 -0.021019	 0.816577	 -0.084944	 0.570565	 1
1462070107.623	 2	 -0.006503	 0.001313	 -0.003099	 1.916662	 -0.163436	 -0.063428	 -0.021044	 0.816581	 -0.084924	 0.570562	 1
1462070107.633	 2	 -0.004368	 0.001307	 -0.003117	 1.916677	 -0.163435	 -0.063371	 -0.021067	 0.816584	 -0.084908	 0.570559	 1
1462070107.643	 2	 -0.004373	 0.000243	 -0.003127	 1.916678	 -0.163432	 -0.063325	 -0.021085	 0.816584	 -0.084894	 0.570560	 1
1462070107.653	 2	 -0.004365	 0.000258	 -0.000996	 1.916681	 -0.163437	 -0.063286	 -0.021102	 0.816585	 -0.084885	 0.570560	 1
1462070107.663	 2	 -0.001169	 -0.000816	 -0.001033	 1.916665	 -0.163410	 -0.063264	 -0.021104	 0.816580	 -0.084867	 0.570569	 1
1462070107.673	 2	 -0.001160	 -0.000800	 0.001099	 1.916638	 -0.163394	 -0.063258	 -0.021102	 0.816573	 -0.084859	 0.570581	 1
1462070107.683	 2	 -0.002237	 -0.001869	 0.000032	 1.916616	 -0.163376	 -0.063238	 -0.021106	 0.816567	 -0.084845	 0.570591	 1
1462070107.693	 2	 -0.003300	 -0.001858	 0.001108	 1.916550	 -0.163350	 -0.063223	 -0.021108	 0.816549	 -0.084830	 0.570620	 1
1462070107.703	 2	 -0.003224	 -0.001882	 0.000234	 1.916489	 -0.163332	 -0.063198	 -0.021115	 0.816531	 -0.084815	 0.570646	 1
1462070107.713	 2	 -0.004282	 0.000248	 0.000262	 1.916478	 -0.163333	 -0.063164	 -0.021130	 0.816528	 -0.084805	 0.570652	 1
1462070107.723	 2	 -0.004278	 -0.000800	 0.002384	 1.916445	 -0.163314	 -0.063129	 -0.021140	 0.816518	 -0.084787	 0.570668	 1
1462070107.733	 2	 -0.004291	 -0.000824	 -0.000813	 1.916438	 -0.163301	 -0.063089	 -0.021153	 0.816517	 -0.084770	 0.570673	 1
1462070107.743	 2	 -0.004287	 -0.000816	 0.000252	 1.916447	 -0.163294	 -0.063047	 -0.021168	 0.816519	 -0.084756	 0.570671	 1
1462070107.753	 2	 -0.002157	 -0.000831	 -0.000832	 1.916425	 -0.163323	 -0.063025	 -0.021186	 0.816511	 -0.084761	 0.570680	 1
1462070107.763	 2	 -0.003224	 -0.000827	 -0.000823	 1.916418	 -0.163336	 -0.062993	 -0.021203	 0.816509	 -0.084757	 0.570684	 1
1462070107.773	 2	 -0.002156	 0.000225	 -0.001889	 1.916389	 -0.163351	 -0.062963	 -0.021221	 0.816500	 -0.084754	 0.570697	 1
1462070107.783	 2	 -0.003209	 0.001307	 0.000262	 1.916368	 -0.163366	 -0.062938	 -0.021237	 0.816493	 -0.084753	 0.570705	 1
1462070107.793	 2	 -0.004286	 0.000238	 -0.000804	 1.916348	 -0.163374	 -0.062907	 -0.021252	 0.816487	 -0.084747	 0.570715	 1
1462070107.803	 2	 -0.004281	 0.000245	 0.000261	 1.916300	 -0.163360	 -0.062875	 -0.021264	 0.816473	 -0.084732	 0.570736	 1
1462070107.813	 2	 -0.005344	 0.001312	 0.000281	 1.916289	 -0.163323	 -0.062827	 -0.021273	 0.816471	 -0.084703	 0.570744	 1
1462070107.823	 2	 -0.005338	 0.003431	 -0.000765	 1.916308	 -0.163269	 -0.062777	 -0.021277	 0.816477	 -0.084667	 0.570740	 1
1462070107.833	 2	 -0.005324	 0.005566	 0.000321	 1.916365	 -0.163222	 -0.062721	 -0.021284	 0.816494	 -0.084633	 0.570721	 1
1462070107.843	 2	 -0.005334	 0.003439	 0.000301	 1.916353	 -0.163203	 -0.062680	 -0.021296	 0.816490	 -0.084613	 0.570728	 1
1462070107.853	 2	 -0.005338	 0.003430	 -0.000765	 1.916352	 -0.163186	 -0.062629	 -0.021312	 0.816490	 -0.084592	 0.570732	 1
1462070107.863	 2	 -0.006324	 0.004480	 -0.000608	 1.916357	 -0.163212	 -0.062579	 -0.021339	 0.816490	 -0.084588	 0.570731	 1
1462070107.873	 2	 -0.005252	 0.005541	 -0.000607	 1.916381	 -0.163183	 -0.062528	 -0.021351	 0.816497	 -0.084561	 0.570724	 1
1462070107.883	 2	 -0.004194	 0.004466	 -0.001692	 1.916448	 -0.163178	 -0.062474	 -0.021368	 0.816516	 -0.084545	 0.570699	 1
1462070107.893	 2	 -0.004194	 0.004466	 -0.001692	 1.916482	 -0.163184	 -0.062428	 -0.021388	 0.816525	 -0.084535	 0.570687	 1
1462070107.903	 2	 -0.004195	 0.003410	 -0.000636	 1.916519	 -0.163173	 -0.062388	 -0.021399	 0.816535	 -0.084519	 0.570674	 1
1462070107.913	 2	 -0.003132	 0.003399	 -0.001711	 1.916575	 -0.163176	 -0.062345	 -0.021415	 0.816551	 -0.084509	 0.570653	 1
1462070107.923	 2	 -0.003133	 0.002343	 -0.000655	 1.916608	 -0.163189	 -0.062318	 -0.021429	 0.816560	 -0.084507	 0.570640	 1
1462070107.933	 2	 -0.002066	 0.002339	 -0.000664	 1.916602	 -0.163177	 -0.062294	 -0.021435	 0.816558	 -0.084495	 0.570644	 1
1462070107.943	 2	 -0.004201	 0.001289	 0.000410	 1.916591	 -0.163157	 -0.062260	 -0.021444	 0.816555	 -0.084477	 0.570651	 1
1462070107.953	 2	 -0.004200	 0.002345	 -0.000646	 1.916579	 -0.163161	 -0.062231	 -0.021457	 0.816551	 -0.084470	 0.570657	 1
1462070107.963	 2	 -0.005272	 0.001284	 -0.000646	 1.916559	 -0.163161	 -0.062188	 -0.021476	 0.816545	 -0.084458	 0.570667	 1
1462070107.973	 2	 -0.003138	 0.001278	 -0.000665	 1.916566	 -0.163163	 -0.062152	 -0.021491	 0.816546	 -0.084448	 0.570665	 1
1462070107.983	 2	 -0.004206	 0.000225	 0.000400	 1.916565	 -0.163149	 -0.062115	 -0.021502	 0.816546	 -0.084432	 0.570668	 1
1462070107.993	 2	 -0.004205	 0.001280	 -0.000656	 1.916541	 -0.163165	 -0.062085	 -0.021520	 0.816538	 -0.084430	 0.570678	 1
1462070108.003	 2	 -0.003139	 0.000221	 0.000390	 1.916513	 -0.163176	 -0.062061	 -0.021534	 0.816530	 -0.084427	 0.570690	 1
1462070108.013	 2	 -0.005277	 0.000219	 -0.000657	 1.916493	 -0.163172	 -0.062020	 -0.021550	 0.816524	 -0.084414	 0.570700	 1
1462070108.023	 2	 -0.005206	 -0.000853	 0.000506	 1.916458	 -0.163149	 -0.061978	 -0.021562	 0.816514	 -0.084392	 0.570717	 1
1462070108.033	 2	 -0.005200	 0.001266	 -0.000540	 1.916437	 -0.163131	 -0.061939	 -0.021574	 0.816508	 -0.084373	 0.570728	 1
1462070108.043	 2	 -0.005202	 -0.000846	 0.001572	 1.916408	 -0.163114	 -0.061898	 -0.021587	 0.816500	 -0.084354	 0.570742	 1
1462070108.053	 2	 -0.004134	 0.000207	 0.000507	 1.916429	 -0.163090	 -0.061858	 -0.021595	 0.816506	 -0.084333	 0.570736	 1
1462070108.063	 2	 -0.004143	 -0.000864	 -0.000569	 1.916423	 -0.163093	 -0.061820	 -0.021612	 0.816504	 -0.084323	 0.570740	 1
1462070108.073	 2	 -0.004125	 0.001278	 0.001582	 1.916391	 -0.163065	 -0.061795	 -0.021616	 0.816495	 -0.084304	 0.570755	 1
1462070108.083	 2	 -0.005200	 0.001265	 -0.000540	 1.916361	 -0.163038	 -0.061759	 -0.021624	 0.816487	 -0.084283	 0.570770	 1
1462070108.093	 2	 -0.005205	 0.000201	 -0.000550	 1.916355	 -0.163046	 -0.061708	 -0.021648	 0.816484	 -0.084272	 0.570774	 1
1462070108.103	 2	 -0.005210	 0.000193	 -0.001615	 1.916349	 -0.163040	 -0.061658	 -0.021666	 0.816482	 -0.084255	 0.570779	 1
1462070108.113	 2	 -0.006260	 0.005499	 -0.003688	 1.916409	 -0.163055	 -0.061586	 -0.021697	 0.816498	 -0.084241	 0.570757	 1
1462070108.123	 2	 -0.000924	 0.006539	 -0.004791	 1.916480	 -0.163084	 -0.061558	 -0.021714	 0.816517	 -0.084246	 0.570728	 1
1462070108.133	 2	 -0.002021	 0.000160	 -0.004841	 1.916483	 -0.163120	 -0.061518	 -0.021741	 0.816517	 -0.084249	 0.570727	 1
1462070108.143	 2	 -0.000936	 0.001244	 -0.001643	 1.916540	 -0.163124	 -0.061495	 -0.021749	 0.816533	 -0.084245	 0.570705	 1
1462070108.153	 2	 -0.003100	 -0.004076	 -0.002739	 1.916452	 -0.163153	 -0.061477	 -0.021768	 0.816507	 -0.084250	 0.570740	 1
1462070108.163	 2	 -0.002004	 0.001247	 -0.001634	 1.916461	 -0.163189	 -0.061449	 -0.021790	 0.816508	 -0.084257	 0.570737	 1
1462070108.173	 2	 0.000130	 0.000184	 -0.000596	 1.916399	 -0.163177	 -0.061454	 -0.021787	 0.816491	 -0.084253	 0.570762	 1
1462070108.183	 2	 -0.003091	 -0.003006	 -0.001664	 1.916371	 -0.163180	 -0.061428	 -0.021799	 0.816482	 -0.084247	 0.570775	 1
1462070108.193	 2	 -0.001939	 -0.001964	 -0.001559	 1.916319	 -0.163210	 -0.061394	 -0.021824	 0.816467	 -0.084249	 0.570796	 1
1462070108.203	 2	 0.000181	 -0.003049	 -0.003719	 1.916247	 -0.163244	 -0.061393	 -0.021837	 0.816445	 -0.084261	 0.570825	 1
1462070108.213	 2	 -0.005125	 0.002293	 -0.002557	 1.916270	 -0.163233	 -0.061348	 -0.021852	 0.816452	 -0.084244	 0.570817	 1
1462070108.223	 2	 -0.010491	 -0.004074	 -0.002570	 1.916160	 -0.163239	 -0.061272	 -0.021889	 0.816419	 -0.084224	 0.570865	 1
1462070108.233	 2	 -0.007300	 -0.007268	 -0.001561	 1.916058	 -0.163245	 -0.061187	 -0.021930	 0.816389	 -0.084201	 0.570910	 1
1462070108.243	 2	 0.000178	 -0.007274	 0.000505	 1.916036	 -0.163239	 -0.061165	 -0.021938	 0.816382	 -0.084192	 0.570920	 1
1462070108.253	 2	 0.002291	 -0.012591	 0.001503	 1.915989	 -0.163244	 -0.061176	 -0.021937	 0.816369	 -0.084196	 0.570939	 1
1462070108.263	 2	 0.013871	 -0.052984	 0.009552	 1.915579	 -0.163214	 -0.061297	 -0.021896	 0.816254	 -0.084214	 0.571102	 1
1462070108.273	 2	 0.018176	 -0.039222	 0.002182	 1.915229	 -0.163263	 -0.061460	 -0.021858	 0.816155	 -0.084277	 0.571237	 1
1462070108.283	 2	 0.018297	 -0.008422	 -0.003926	 1.915021	 -0.163269	 -0.061631	 -0.021799	 0.816097	 -0.084326	 0.571314	 1
1462070108.293	 2	 0.009740	 -0.012653	 -0.003891	 1.914743	 -0.163351	 -0.061771	 -0.021777	 0.816017	 -0.084396	 0.571418	 1
1462070108.303	 2	 0.005448	 -0.014791	 -0.007071	 1.914462	 -0.163461	 -0.061811	 -0.021805	 0.815935	 -0.084449	 0.571527	 1
1462070108.313	 2	 0.014011	 -0.009498	 -0.007096	 1.914405	 -0.163552	 -0.061890	 -0.021801	 0.815917	 -0.084508	 0.571544	 1
1462070108.323	 2	 0.032052	 -0.033986	 -0.003219	 1.914133	 -0.163756	 -0.062139	 -0.021770	 0.815837	 -0.084660	 0.571637	 1
1462070108.333	 2	 0.036304	 -0.039301	 -0.001175	 1.913775	 -0.163975	 -0.062455	 -0.021719	 0.815733	 -0.084835	 0.571762	 1
1462070108.343	 2	 0.032077	 -0.044623	 -0.001107	 1.913218	 -0.164099	 -0.062780	 -0.021646	 0.815574	 -0.084972	 0.571971	 1
1462070108.353	 2	 0.026685	 -0.057364	 -0.000113	 1.912457	 -0.164241	 -0.063078	 -0.021597	 0.815356	 -0.085107	 0.572263	 1
1462070108.363	 2	 0.060613	 -0.106373	 0.002333	 1.911321	 -0.164450	 -0.063574	 -0.021504	 0.815031	 -0.085321	 0.572698	 1
1462070108.373	 2	 0.059684	 -0.082923	 0.008952	 1.910260	 -0.164728	 -0.064213	 -0.021369	 0.814727	 -0.085606	 0.573092	 1
1462070108.383	 2	 0.030978	 -0.053115	 0.000955	 1.909808	 -0.164688	 -0.064556	 -0.021237	 0.814602	 -0.085683	 0.573263	 1
1462070108.393	 2	 0.005379	 -0.047742	 -0.001968	 1.909439	 -0.164535	 -0.064632	 -0.021178	 0.814501	 -0.085639	 0.573416	 1
1462070108.403	 2	 0.010723	 -0.046686	 -0.000939	 1.908950	 -0.164476	 -0.064712	 -0.021149	 0.814363	 -0.085633	 0.573613	 1
1462070108.413	 2	 0.018201	 -0.042478	 -0.004162	 1.908468	 -0.164536	 -0.064869	 -0.021123	 0.814225	 -0.085697	 0.573801	 1
1462070108.423	 2	 0.020312	 -0.044635	 -0.007397	 1.907941	 -0.164638	 -0.065044	 -0.021104	 0.814073	 -0.085783	 0.574004	 1
1462070108.433	 2	 0.021348	 -0.052076	 -0.006410	 1.907406	 -0.164787	 -0.065231	 -0.021094	 0.813918	 -0.085891	 0.574208	 1
1462070108.443	 2	 0.022408	 -0.055255	 -0.004317	 1.906768	 -0.164941	 -0.065437	 -0.021082	 0.813733	 -0.086006	 0.574454	 1
1462070108.453	 2	 0.022338	 -0.070148	 -0.004455	 1.905977	 -0.165087	 -0.065647	 -0.021073	 0.813505	 -0.086118	 0.574761	 1
1462070108.463	 2	 0.079494	 -0.168188	 -0.006932	 1.904147	 -0.165476	 -0.066255	 -0.021018	 0.812975	 -0.086431	 0.575464	 1
1462070108.473	 2	 0.079575	 -0.158558	 0.001681	 1.901614	 -0.166039	 -0.067190	 -0.020911	 0.812242	 -0.086902	 0.576432	 1
1462070108.483	 2	 0.028553	 -0.093713	 -0.023912	 1.900601	 -0.165918	 -0.067515	 -0.020788	 0.811956	 -0.086935	 0.576833	 1
1462070108.493	 2	 0.004059	 -0.089329	 -0.016198	 1.900036	 -0.166120	 -0.067458	 -0.020894	 0.811788	 -0.086995	 0.577058	 1
1462070108.503	 2	 0.029499	 -0.145740	 -0.009411	 1.899078	 -0.166294	 -0.067558	 -0.020946	 0.811509	 -0.087084	 0.577435	 1
1462070108.513	 2	 0.052897	 -0.172318	 0.001860	 1.897082	 -0.166605	 -0.068069	 -0.020916	 0.810930	 -0.087337	 0.578211	 1
1462070108.523	 2	 0.049805	 -0.145748	 -0.002129	 1.895488	 -0.166821	 -0.068568	 -0.020847	 0.810469	 -0.087551	 0.578827	 1
1462070108.533	 2	 0.033945	 -0.107468	 -0.010159	 1.894454	 -0.166697	 -0.068891	 -0.020725	 0.810175	 -0.087584	 0.579237	 1
1462070108.543	 2	 0.013851	 -0.062787	 -0.017027	 1.893853	 -0.166734	 -0.068987	 -0.020723	 0.810002	 -0.087621	 0.579474	 1
1462070108.553	 2	 0.017109	 -0.050040	 -0.018003	 1.893321	 -0.167004	 -0.069076	 -0.020789	 0.809842	 -0.087750	 0.579676	 1
1462070108.563	 2	 0.018179	 -0.046876	 -0.021180	 1.892784	 -0.167273	 -0.069203	 -0.020840	 0.809681	 -0.087889	 0.579877	 1
1462070108.573	 2	 0.008507	 -0.057515	 -0.025458	 1.892130	 -0.167528	 -0.069250	 -0.020924	 0.809486	 -0.087999	 0.580130	 1
1462070108.583	 2	 -0.002205	 -0.067049	 -0.024388	 1.891448	 -0.167760	 -0.069180	 -0.021050	 0.809282	 -0.088065	 0.580400	 1
1462070108.593	 2	 -0.008609	 -0.068086	 -0.023276	 1.890748	 -0.168006	 -0.069041	 -0.021210	 0.809071	 -0.088116	 0.580680	 1
1462070108.603	 2	 -0.010742	 -0.065969	 -0.025369	 1.890053	 -0.168203	 -0.068874	 -0.021365	 0.808863	 -0.088140	 0.580961	 1
1462070108.613	 2	 -0.008573	 -0.060642	 -0.023207	 1.889428	 -0.168399	 -0.068718	 -0.021514	 0.808675	 -0.088167	 0.581213	 1
1462070108.623	 2	 -0.004305	 -0.060654	 -0.023244	 1.888853	 -0.168588	 -0.068587	 -0.021647	 0.808502	 -0.088198	 0.581444	 1
1462070108.633	 2	 -0.001187	 -0.075578	 -0.026608	 1.888220	 -0.168836	 -0.068471	 -0.021795	 0.808311	 -0.088258	 0.581696	 1
1462070108.643	 2	 0.000864	 -0.094715	 -0.024673	 1.887432	 -0.169118	 -0.068379	 -0.021949	 0.808074	 -0.088336	 0.582007	 1
1462070108.653	 2	 0.006164	 -0.103232	 -0.023732	 1.886499	 -0.169355	 -0.068334	 -0.022078	 0.807796	 -0.088408	 0.582377	 1
1462070108.663	 2	 0.010507	 -0.100086	 -0.025805	 1.885512	 -0.169604	 -0.068337	 -0.022194	 0.807502	 -0.088498	 0.582766	 1
1462070108.673	 2	 0.019101	 -0.087355	 -0.026828	 1.884623	 -0.169911	 -0.068412	 -0.022293	 0.807236	 -0.088633	 0.583110	 1
1462070108.683	 2	 0.022312	 -0.085237	 -0.026836	 1.883740	 -0.170229	 -0.068549	 -0.022370	 0.806973	 -0.088791	 0.583447	 1
1462070108.693	 2	 0.020033	 -0.113966	 -0.029214	 1.882548	 -0.170508	 -0.068686	 -0.022450	 0.806620	 -0.088930	 0.583911	 1
1462070108.703	 2	 0.017723	 -0.149078	 -0.031652	 1.880930	 -0.170824	 -0.068788	 -0.022574	 0.806140	 -0.089069	 0.584547	 1
1462070108.713	 2	 0.024069	 -0.162910	 -0.029705	 1.879191	 -0.171178	 -0.068927	 -0.022700	 0.805625	 -0.089231	 0.585227	 1
1462070108.723	 2	 0.088765	 -0.247140	 -0.031052	 1.876085	 -0.171743	 -0.069616	 -0.022728	 0.804709	 -0.089624	 0.586425	 1
1462070108.733	 2	 0.109181	 -0.230074	 -0.016151	 1.873534	 -0.172337	 -0.070616	 -0.022617	 0.803957	 -0.090127	 0.587382	 1
1462070108.743	 2	 0.103027	 -0.164221	 -0.031470	 1.871919	 -0.172762	 -0.071491	 -0.022464	 0.803482	 -0.090535	 0.587975	 1
1462070108.753	 2	 0.084077	 -0.103585	 -0.038201	 1.871148	 -0.173407	 -0.072158	 -0.022422	 0.803248	 -0.090981	 0.588228	 1
1462070108.763	 2	 0.062910	 -0.078945	 -0.022869	 1.870845	 -0.174113	 -0.072624	 -0.022458	 0.803147	 -0.091397	 0.588301	 1
1462070108.773	 2	 0.061798	 -0.099057	 -0.010258	 1.869989	 -0.174472	 -0.073153	 -0.022392	 0.802892	 -0.091686	 0.588606	 1
1462070108.783	 2	 0.055269	 -0.124575	 -0.011504	 1.868596	 -0.174680	 -0.073702	 -0.022297	 0.802483	 -0.091916	 0.589131	 1
1462070108.793	 2	 0.048879	 -0.119261	 -0.014596	 1.867171	 -0.174958	 -0.074159	 -0.022262	 0.802061	 -0.092145	 0.589670	 1
1462070108.803	 2	 0.061863	 -0.079960	 -0.016475	 1.866119	 -0.175295	 -0.074681	 -0.022202	 0.801749	 -0.092422	 0.590054	 1
1462070108.813	 2	 0.074878	 -0.029004	 -0.024640	 1.865515	 -0.175669	 -0.075337	 -0.022078	 0.801569	 -0.092758	 0.590251	 1
1462070108.823	 2	 0.081326	 -0.019593	 -0.041595	 1.865040	 -0.176147	 -0.076050	 -0.021956	 0.801425	 -0.093154	 0.590388	 1
1462070108.833	 2	 0.061917	 -0.048371	 -0.057680	 1.864460	 -0.176768	 -0.076561	 -0.021964	 0.801244	 -0.093546	 0.590571	 1
1462070108.843	 2	 0.053168	 -0.081419	 -0.071765	 1.863642	 -0.177530	 -0.076886	 -0.022099	 0.800988	 -0.093937	 0.590851	 1
1462070108.853	 2	 0.059330	 -0.124054	 -0.081807	 1.862560	 -0.178431	 -0.077207	 -0.022290	 0.800650	 -0.094378	 0.591232	 1
1462070108.863	 2	 0.047351	 -0.170851	 -0.086401	 1.860999	 -0.179339	 -0.077435	 -0.022544	 0.800169	 -0.094790	 0.591808	 1
1462070108.873	 2	 0.061170	 -0.185751	 -0.082397	 1.859347	 -0.180319	 -0.077675	 -0.022819	 0.799659	 -0.095232	 0.592416	 1
1462070108.883	 2	 0.104033	 -0.152864	 -0.077137	 1.857998	 -0.181416	 -0.078273	 -0.022973	 0.799239	 -0.095830	 0.592880	 1
1462070108.893	 2	 0.156650	 -0.090208	 -0.069551	 1.857097	 -0.182495	 -0.079400	 -0.022889	 0.798958	 -0.096583	 0.593139	 1
1462070108.903	 2	 0.178328	 -0.063300	 -0.017270	 1.856402	 -0.183637	 -0.080984	 -0.022632	 0.798742	 -0.097498	 0.593290	 1
1462070108.913	 2	 0.200801	 -0.047435	 -0.020515	 1.855630	 -0.184321	 -0.082810	 -0.022146	 0.798516	 -0.098303	 0.593479	 1
1462070108.923	 2	 0.211520	 -0.011527	 -0.051180	 1.854999	 -0.185120	 -0.084744	 -0.021644	 0.798331	 -0.099187	 0.593600	 1
1462070108.933	 2	 0.208397	 0.024475	 -0.074264	 1.854469	 -0.186347	 -0.086666	 -0.021272	 0.798164	 -0.100239	 0.593661	 1
1462070108.943	 2	 0.178503	 0.015043	 -0.066632	 1.853919	 -0.187617	 -0.088391	 -0.020992	 0.797989	 -0.101249	 0.593736	 1
1462070108.953	 2	 0.125012	 -0.033551	 -0.042106	 1.853117	 -0.188561	 -0.089671	 -0.020806	 0.797741	 -0.101994	 0.593947	 1
1462070108.963	 2	 0.087481	 -0.071733	 -0.042135	 1.852040	 -0.189323	 -0.090542	 -0.020743	 0.797412	 -0.102544	 0.594297	 1
1462070108.973	 2	 0.065010	 -0.073888	 -0.054749	 1.850841	 -0.190062	 -0.091133	 -0.020790	 0.797044	 -0.103000	 0.594710	 1
1462070108.983	 2	 0.042721	 -0.044079	 -0.059607	 1.849932	 -0.190801	 -0.091502	 -0.020913	 0.796759	 -0.103393	 0.595019	 1
1462070108.993	 2	 0.030247	 0.001793	 -0.045134	 1.849791	 -0.191359	 -0.091693	 -0.021012	 0.796706	 -0.103669	 0.595039	 1
1462070109.003	 2	 0.023959	 0.018893	 -0.036394	 1.849961	 -0.191817	 -0.091818	 -0.021091	 0.796746	 -0.103889	 0.594943	 1
1462070109.013	 2	 0.029286	 -0.003283	 -0.012134	 1.849884	 -0.192094	 -0.092076	 -0.021076	 0.796719	 -0.104075	 0.594948	 1
1462070109.023	 2	 0.008099	 0.003385	 0.019017	 1.849568	 -0.192458	 -0.092297	 -0.021114	 0.796619	 -0.104281	 0.595045	 1
1462070109.033	 2	 -0.006784	 -0.005958	 0.044638	 1.849538	 -0.192076	 -0.092393	 -0.020962	 0.796620	 -0.104158	 0.595070	 1
1462070109.043	 2	 -0.003860	 -0.073957	 0.055703	 1.848997	 -0.191542	 -0.092463	 -0.020802	 0.796473	 -0.103962	 0.595307	 1
1462070109.053	 2	 0.027811	 -0.149542	 0.058987	 1.847617	 -0.191019	 -0.092814	 -0.020576	 0.796078	 -0.103846	 0.595863	 1
1462070109.063	 2	 0.078610	 -0.233772	 0.051358	 1.845218	 -0.191781	 -0.093629	 -0.020607	 0.795353	 -0.104365	 0.596739	 1
1462070109.073	 2	 0.102849	 -0.289234	 0.039974	 1.842223	 -0.191644	 -0.094728	 -0.020285	 0.794473	 -0.104609	 0.597878	 1
1462070109.083	 2	 0.099535	 -0.303137	 0.028150	 1.839026	 -0.191610	 -0.095801	 -0.020016	 0.793528	 -0.104884	 0.599093	 1
1462070109.093	 2	 0.114196	 -0.339540	 0.001039	 1.835516	 -0.191808	 -0.096913	 -0.019820	 0.792482	 -0.105260	 0.600417	 1
1462070109.103	 2	 0.119151	 -0.388754	 -0.036771	 1.831657	 -0.193376	 -0.097992	 -0.020073	 0.791296	 -0.106163	 0.601812	 1
1462070109.113	 2	 0.101826	 -0.438718	 -0.040282	 1.827188	 -0.194044	 -0.098942	 -0.020140	 0.789944	 -0.106666	 0.603495	 1
1462070109.123	 2	 0.054845	 -0.435464	 -0.050500	 1.822651	 -0.194646	 -0.099506	 -0.020343	 0.788564	 -0.107026	 0.605225	 1
1462070109.133	 2	 0.017751	 -0.350529	 -0.086689	 1.818890	 -0.195459	 -0.099542	 -0.020780	 0.787406	 -0.107316	 0.606665	 1
1462070109.143	 2	 0.049196	 -0.216852	 -0.120895	 1.816775	 -0.197511	 -0.099527	 -0.021531	 0.786716	 -0.108091	 0.607397	 1
1462070109.153	 2	 0.160807	 -0.042068	 -0.179848	 1.815743	 -0.199410	 -0.100400	 -0.021828	 0.786367	 -0.109086	 0.607660	 1
1462070109.163	 2	 0.302318	 0.136899	 -0.230571	 1.816235	 -0.202189	 -0.102510	 -0.021827	 0.786473	 -0.110816	 0.607210	 1
1462070109.173	 2	 0.417055	 0.255665	 -0.233662	 1.817894	 -0.205416	 -0.105790	 -0.021436	 0.786934	 -0.113088	 0.606207	 1
1462070109.183	 2	 0.474859	 0.297991	 -0.240174	 1.819753	 -0.209909	 -0.109844	 -0.021114	 0.787430	 -0.116088	 0.605005	 1
1462070109.193	 2	 0.495768	 0.213836	 -0.249665	 1.821288	 -0.213534	 -0.114104	 -0.020458	 0.787849	 -0.118806	 0.603954	 1
1462070109.203	 2	 0.493669	 -0.002093	 -0.252722	 1.820970	 -0.217204	 -0.118355	 -0.019929	 0.787706	 -0.121518	 0.603619	 1
1462070109.213	 2	 0.492906	 -0.390304	 -0.252064	 1.817195	 -0.220882	 -0.122613	 -0.019615	 0.786517	 -0.124199	 0.604633	 1
1462070109.223	 2	 0.474972	 -0.806057	 -0.242988	 1.809224	 -0.224421	 -0.126786	 -0.019569	 0.784056	 -0.126760	 0.607293	 1
1462070109.233	 2	 0.499510	 -1.070647	 -0.198770	 1.798058	 -0.227629	 -0.131143	 -0.019574	 0.780619	 -0.129219	 0.611190	 1
1462070109.243	 2	 0.584867	 -1.139469	 -0.121287	 1.785548	 -0.230224	 -0.136485	 -0.019122	 0.776773	 -0.131734	 0.615553	 1
1462070109.253	 2	 0.570921	 -1.180687	 -0.090642	 1.772589	 -0.232375	 -0.142146	 -0.018468	 0.772773	 -0.134183	 0.620061	 1
1462070109.263	 2	 0.451131	 -1.246199	 -0.079551	 1.759235	 -0.234127	 -0.146863	 -0.018110	 0.768622	 -0.136195	 0.624775	 1
1462070109.273	 2	 0.310328	 -1.253053	 -0.054942	 1.745871	 -0.235349	 -0.150243	 -0.018120	 0.764436	 -0.137595	 0.629585	 1
1462070109.283	 2	 0.201091	 -1.122849	 -0.037859	 1.733683	 -0.236153	 -0.152442	 -0.018383	 0.760589	 -0.138481	 0.634027	 1
1462070109.293	 2	 0.152680	 -0.779989	 -0.005471	 1.724540	 -0.236554	 -0.154050	 -0.018537	 0.757690	 -0.139057	 0.637359	 1
1462070109.303	 2	 0.156141	 -0.321166	 0.052056	 1.719773	 -0.236426	 -0.155648	 -0.018222	 0.756186	 -0.139476	 0.639060	 1
1462070109.313	 2	 0.163738	 0.114205	 0.104001	 1.719460	 -0.235770	 -0.157452	 -0.017348	 0.756114	 -0.139805	 0.639097	 1
1462070109.323	 2	 0.205313	 0.303640	 0.136308	 1.721976	 -0.234720	 -0.159550	 -0.016036	 0.756955	 -0.140105	 0.638070	 1
1462070109.333	 2	 0.263717	 0.047926	 0.098250	 1.722515	 -0.234007	 -0.162252	 -0.014743	 0.757160	 -0.140706	 0.637725	 1
1462070109.343	 2	 0.363778	 -0.162499	 0.015489	 1.720640	 -0.234120	 -0.165727	 -0.013597	 0.756585	 -0.141843	 0.638181	 1
1462070109.353	 2	 0.510119	 -0.509260	 -0.075339	 1.715340	 -0.235354	 -0.170429	 -0.012602	 0.754901	 -0.143769	 0.639762	 1
1462070109.363	 2	 0.582231	 -0.781133	 -0.136048	 1.706792	 -0.237341	 -0.176108	 -0.011734	 0.752164	 -0.146273	 0.642430	 1
1462070109.373	 2	 0.499339	 -0.881320	 -0.198072	 1.696870	 -0.239871	 -0.181259	 -0.011368	 0.748960	 -0.148806	 0.645590	 1
1462070109.383	 2	 0.318082	 -0.856243	 -0.186669	 1.687409	 -0.242246	 -0.184757	 -0.011558	 0.745883	 -0.150754	 0.648689	 1
1462070109.393	 2	 0.171907	 -0.911654	 -0.113440	 1.678060	 -0.243804	 -0.186690	 -0.012065	 0.742833	 -0.151895	 0.651906	 1
1462070109.403	 2	 0.088248	 -1.070345	 -0.029993	 1.667543	 -0.244407	 -0.187701	 -0.012692	 0.739393	 -0.152380	 0.655681	 1
1462070109.413	 2	 0.134926	 -1.154291	 -0.000274	 1.655817	 -0.244542	 -0.188864	 -0.013203	 0.735542	 -0.152735	 0.659906	 1
1462070109.423	 2	 0.299443	 -1.057443	 -0.072211	 1.644286	 -0.245205	 -0.191431	 -0.013370	 0.731734	 -0.153746	 0.663889	 1
1462070109.433	 2	 0.471180	 -0.927330	 -0.247280	 1.633674	 -0.247492	 -0.195749	 -0.013397	 0.728204	 -0.155928	 0.667252	 1
1462070109.443	 2	 0.536687	 -0.903406	 -0.441597	 1.623372	 -0.251740	 -0.200947	 -0.013779	 0.724747	 -0.159103	 0.670253	 1
1462070109.453	 2	 0.539710	 -0.997417	 -0.643927	 1.612369	 -0.257905	 -0.206216	 -0.014889	 0.721021	 -0.162968	 0.673312	 1
1462070109.463	 2	 0.547820	 -1.149892	 -0.839385	 1.599847	 -0.265970	 -0.211567	 -0.016801	 0.716750	 -0.167497	 0.676707	 1
1462070109.473	 2	 0.548714	 -1.231234	 -1.055434	 1.586243	 -0.276129	 -0.217032	 -0.019557	 0.712073	 -0.172753	 0.680239	 1
1462070109.483	 2	 0.600106	 -1.332140	 -1.162331	 1.571646	 -0.287610	 -0.222933	 -0.022787	 0.707028	 -0.178560	 0.683893	 1
1462070109.493	 2	 0.850238	 -1.675542	 -1.187954	 1.553496	 -0.299385	 -0.231148	 -0.025723	 0.700766	 -0.185164	 0.688462	 1
1462070109.503	 2	 1.383075	 -2.220125	 -1.268001	 1.528621	 -0.311464	 -0.244462	 -0.027771	 0.692215	 -0.193486	 0.694716	 1
1462070109.513	 2	 1.606490	 -2.424495	 -1.199376	 1.499408	 -0.322843	 -0.261757	 -0.028852	 0.682163	 -0.202856	 0.701905	 1
1462070109.523	 2	 1.489026	 -2.585626	 -1.026133	 1.468493	 -0.332184	 -0.278869	 -0.029698	 0.671451	 -0.211453	 0.709619	 1
1462070109.533	 2	 1.202716	 -2.782540	 -0.868806	 1.436377	 -0.339679	 -0.293449	 -0.031090	 0.660193	 -0.218530	 0.717930	 1
1462070109.543	 2	 0.838156	 -3.029414	 -0.738972	 1.402985	 -0.345871	 -0.304491	 -0.033510	 0.648313	 -0.223886	 0.726940	 1
1462070109.553	 2	 0.447440	 -3.132906	 -0.648075	 1.369391	 -0.351475	 -0.311472	 -0.037205	 0.636166	 -0.227531	 0.736300	 1
1462070109.563	 2	 0.095425	 -2.951456	 -0.555929	 1.338139	 -0.356752	 -0.314681	 -0.041811	 0.624683	 -0.229652	 0.745173	 1
1462070109.573	 2	 -0.135599	 -2.694761	 -0.452413	 1.310501	 -0.361636	 -0.314988	 -0.046809	 0.614369	 -0.230560	 0.753128	 1
1462070109.583	 2	 -0.123675	 -2.507987	 -0.359123	 1.285079	 -0.365659	 -0.314632	 -0.051442	 0.604770	 -0.230936	 0.760444	 1
1462070109.593	 2	 -0.045247	 -2.238538	 -0.278432	 1.261734	 -0.368709	 -0.314988	 -0.055250	 0.595890	 -0.231295	 0.767049	 1
1462070109.603	 2	 -0.102249	 -1.615599	 -0.054724	 1.244213	 -0.370127	 -0.314477	 -0.057995	 0.589147	 -0.230990	 0.772131	 1
1462070109.613	 2	 -0.101332	 -0.987028	 0.235676	 1.233327	 -0.368947	 -0.312864	 -0.059246	 0.584876	 -0.229728	 0.775651	 1
1462070109.623	 2	 -0.125501	 -0.265687	 0.548473	 1.229820	 -0.364897	 -0.310018	 -0.058840	 0.583389	 -0.227430	 0.777477	 1
1462070109.633	 2	 -0.193307	 0.501338	 0.836496	 1.234515	 -0.358240	 -0.305534	 -0.056926	 0.585016	 -0.224028	 0.777385	 1
1462070109.643	 2	 -0.243687	 1.178435	 1.051059	 1.246746	 -0.349509	 -0.299699	 -0.053758	 0.589518	 -0.219726	 0.775435	 1
1462070109.653	 2	 -0.252823	 1.637675	 1.160922	 1.264227	 -0.339450	 -0.293409	 -0.049681	 0.596026	 -0.214969	 0.772057	 1
1462070109.663	 2	 -0.318283	 1.743539	 1.212568	 1.283890	 -0.328841	 -0.286714	 -0.045364	 0.603350	 -0.209882	 0.768024	 1
1462070109.673	 2	 -0.522061	 1.253177	 1.271593	 1.300737	 -0.318031	 -0.278369	 -0.041861	 0.609543	 -0.203970	 0.764919	 1
1462070109.683	 2	 -0.733782	 0.207659	 1.334048	 1.308879	 -0.307101	 -0.267778	 -0.039960	 0.612367	 -0.196931	 0.764609	 1
1462070109.693	 2	 -0.797404	 -0.886176	 1.393698	 1.306147	 -0.295848	 -0.256018	 -0.039376	 0.611021	 -0.189106	 0.767686	 1
1462070109.703	 2	 -0.703867	 -1.720719	 1.485300	 1.294096	 -0.283752	 -0.244557	 -0.039185	 0.606082	 -0.180946	 0.773556	 1
1462070109.713	 2	 -0.513475	 -2.207319	 1.635781	 1.275825	 -0.270042	 -0.234244	 -0.038442	 0.598693	 -0.172634	 0.781208	 1
1462070109.723	 2	 -0.272700	 -2.220529	 1.817939	 1.255660	 -0.254131	 -0.225407	 -0.036379	 0.590492	 -0.164249	 0.789315	 1
1462070109.733	 2	 0.061176	 -1.891007	 1.925740	 1.237431	 -0.236322	 -0.218909	 -0.032544	 0.582989	 -0.156329	 0.796634	 1
1462070109.743	 2	 0.320122	 -1.374322	 2.291718	 1.223340	 -0.214809	 -0.213993	 -0.026290	 0.577034	 -0.148131	 0.802744	 1
1462070109.753	 2	 0.387818	 -0.643598	 2.615526	 1.216116	 -0.189587	 -0.208659	 -0.018038	 0.573708	 -0.138869	 0.807000	 1
1462070109.763	 2	 0.419756	 -0.089682	 2.744030	 1.215056	 -0.162665	 -0.202965	 -0.008722	 0.572783	 -0.129044	 0.809439	 1
1462070109.773	 2	 0.428128	 0.051125	 2.803885	 1.216306	 -0.135027	 -0.197222	 0.001025	 0.572733	 -0.118973	 0.811062	 1
1462070109.783	 2	 0.444848	 -0.097199	 2.890817	 1.216531	 -0.106618	 -0.191347	 0.010984	 0.572200	 -0.108592	 0.812818	 1
1462070109.793	 2	 0.500823	 -0.298778	 2.983307	 1.214566	 -0.077178	 -0.185582	 0.021290	 0.570696	 -0.097955	 0.815020	 1
1462070109.803	 2	 0.433191	 -0.610211	 2.984195	 1.209709	 -0.047571	 -0.179342	 0.031423	 0.567949	 -0.087112	 0.817837	 1
1462070109.813	 2	 0.357668	 -0.939258	 2.899727	 1.201325	 -0.018930	 -0.172396	 0.040877	 0.563738	 -0.076349	 0.821401	 1
1462070109.823	 2	 0.320892	 -1.145498	 2.752119	 1.190332	 0.008274	 -0.165243	 0.049682	 0.558446	 -0.066025	 0.825415	 1
1462070109.833	 2	 0.282781	 -1.161529	 2.579648	 1.178459	 0.033638	 -0.158063	 0.057806	 0.552804	 -0.056309	 0.829395	 1
1462070109.843	 2	 0.277206	 -0.922749	 2.504118	 1.168170	 0.057877	 -0.150854	 0.065605	 0.547819	 -0.046926	 0.832699	 1
1462070109.853	 2	 0.324802	 -0.609767	 2.562035	 1.160840	 0.082450	 -0.143662	 0.073698	 0.544023	 -0.037423	 0.834989	 1
1462070109.863	 2	 0.355649	 -0.488944	 2.662007	 1.155104	 0.108000	 -0.136223	 0.082219	 0.540837	 -0.027537	 0.836646	 1
1462070109.873	 2	 0.429860	 -0.617647	 2.691070	 1.148495	 0.134251	 -0.128967	 0.091124	 0.537225	 -0.017621	 0.838317	 1
1462070109.883	 2	 0.509433	 -0.866358	 2.600671	 1.139527	 0.160198	 -0.122468	 0.100153	 0.532573	 -0.008282	 0.840397	 1
1462070109.893	 2	 0.570850	 -1.067589	 2.450122	 1.128328	 0.185141	 -0.116910	 0.109085	 0.526947	 0.000186	 0.842868	 1
1462070109.903	 2	 0.553974	 -1.101805	 2.271969	 1.116298	 0.208430	 -0.111845	 0.117542	 0.520988	 0.007855	 0.845395	 1
1462070109.913	 2	 0.509965	 -1.047305	 2.142836	 1.104584	 0.230202	 -0.106737	 0.125433	 0.515211	 0.015056	 0.847701	 1
1462070109.923	 2	 0.506593	 -1.170810	 1.977589	 1.092172	 0.250525	 -0.101878	 0.132863	 0.509173	 0.021629	 0.850072	 1
1462070109.933	 2	 0.561390	 -1.333400	 1.726210	 1.078228	 0.268925	 -0.098182	 0.139869	 0.502483	 0.027008	 0.852770	 1
1462070109.943	 2	 0.720183	 -1.355173	 1.428343	 1.064314	 0.285354	 -0.096834	 0.146694	 0.495719	 0.030782	 0.855451	 1
1462070109.953	 2	 0.943977	 -1.395238	 1.127608	 1.051047	 0.300167	 -0.098760	 0.153671	 0.489037	 0.032699	 0.857997	 1
1462070109.963	 2	 1.170056	 -1.461399	 0.895885	 1.038249	 0.313958	 -0.103851	 0.160989	 0.482314	 0.032946	 0.860448	 1
1462070109.973	 2	 1.426708	 -1.448359	 0.744565	 1.025999	 0.327624	 -0.111931	 0.168951	 0.475516	 0.031830	 0.862744	 1
1462070109.983	 2	 1.696404	 -1.172529	 0.609432	 1.017305	 0.341609	 -0.123112	 0.177699	 0.469873	 0.029674	 0.864154	 1
1462070109.993	 2	 1.886128	 -1.126051	 0.495242	 1.010819	 0.355818	 -0.136831	 0.187060	 0.464823	 0.026612	 0.865008	 1
1462070110.003	 2	 1.937137	 -1.317205	 0.391880	 1.003594	 0.369644	 -0.151943	 0.196537	 0.459218	 0.022731	 0.866011	 1
1462070110.013	 2	 1.798244	 -1.563672	 0.375875	 0.993879	 0.382788	 -0.166467	 0.205551	 0.452510	 0.018628	 0.867546	 1
1462070110.023	 2	 1.495581	 -1.716876	 0.394137	 0.981528	 0.394740	 -0.178363	 0.213420	 0.444910	 0.015024	 0.869644	 1
1462070110.033	 2	 1.180130	 -1.779323	 0.308910	 0.967440	 0.404591	 -0.187589	 0.219755	 0.436931	 0.011810	 0.872158	 1
1462070110.043	 2	 0.943706	 -1.751210	 0.130050	 0.952876	 0.411760	 -0.195363	 0.224579	 0.429075	 0.008473	 0.874864	 1
1462070110.063	 3	 0.819581	 -1.277102	 -0.249197	 0.929784	 0.419599	 -0.211728	 0.231453	 0.416370	 0.000467	 0.879241	 1
1462070110.073	 3	 0.857472	 -1.106458	 -0.316148	 0.922282	 0.422245	 -0.221153	 0.234535	 0.411723	 -0.003953	 0.880603	 1
1462070110.083	 3	 0.909786	 -1.141368	 -0.268969	 0.915069	 0.425390	 -0.230874	 0.237855	 0.407096	 -0.008377	 0.881832	 1
1462070110.093	 3	 0.980138	 -1.279861	 -0.124861	 0.906581	 0.429986	 -0.240347	 0.241704	 0.401765	 -0.012543	 0.883180	 1
1462070110.103	 3	 1.072613	 -1.491699	 0.034358	 0.896045	 0.436473	 -0.249428	 0.246231	 0.395351	 -0.016396	 0.884759	 1
1462070110.113	 3	 1.154073	 -1.748418	 0.160217	 0.883006	 0.444600	 -0.258294	 0.251349	 0.387642	 -0.020150	 0.886652	 1
1462070110.123	 3	 1.182335	 -1.998363	 0.318576	 0.867119	 0.454372	 -0.266288	 0.256924	 0.378552	 -0.023587	 0.888894	 1
1462070110.133	 3	 1.154614	 -2.223727	 0.324180	 0.848703	 0.464499	 -0.273707	 0.262454	 0.368313	 -0.027108	 0.891475	 1
1462070110.143	 3	 1.047095	 -2.298682	 0.211448	 0.829046	 0.473513	 -0.280861	 0.267373	 0.357615	 -0.031005	 0.894238	 1
1462070110.153	 3	 0.898544	 -2.240640	 0.088588	 0.809546	 0.480762	 -0.287662	 0.271399	 0.347171	 -0.035177	 0.896983	 1
1462070110.163	 3	 0.751683	 -2.084458	 0.006059	 0.791156	 0.486421	 -0.293834	 0.274578	 0.337441	 -0.039310	 0.899553	 1
1462070110.183	 4	 0.553958	 -1.780899	 -0.160983	 0.758827	 0.493882	 -0.305122	 0.278996	 0.320463	 -0.047397	 0.904001	 1
1462070110.193	 4	 0.517689	 -1.769167	 -0.171216	 0.743809	 0.496510	 -0.310675	 0.280657	 0.312592	 -0.051503	 0.906016	 1
1462070110.203	 4	 0.419376	 -1.904096	 -0.043724	 0.727173	 0.499343	 -0.314855	 0.282103	 0.304135	 -0.055202	 0.908225	 1
1462070110.213	 4	 0.244662	 -1.930454	 0.064128	 0.708767	 0.501800	 -0.316670	 0.282937	 0.295228	 -0.058169	 0.910716	 1
1462070110.223	 4	 0.174684	 -1.927313	 0.175606	 0.689548	 0.504106	 -0.316736	 0.283397	 0.286192	 -0.060500	 0.913302	 1
1462070110.233	 4	 0.211131	 -2.003048	 0.306739	 0.669322	 0.507414	 -0.315747	 0.284106	 0.276710	 -0.062329	 0.915877	 1
1462070110.243	 4	 0.134719	 -2.169547	 0.343156	 0.646902	 0.510799	 -0.313718	 0.284632	 0.266336	 -0.064000	 0.918669	 1
1462070110.253	 4	 0.027002	 -2.053117	 0.221549	 0.625017	 0.512711	 -0.311734	 0.284518	 0.256339	 -0.065880	 0.921412	 1
1462070110.263	 4	 0.008363	 -1.885417	 0.165721	 0.604987	 0.513771	 -0.310142	 0.284125	 0.247209	 -0.067820	 0.923884	 1
1462070110.273	 4	 0.028678	 -1.844280	 0.126494	 0.585974	 0.514763	 -0.308996	 0.283779	 0.238471	 -0.069832	 0.926134	 1
1462070110.283	 4	 -0.070911	 -1.811921	 0.001902	 0.567444	 0.514639	 -0.308433	 0.282999	 0.229973	 -0.072216	 0.928337	 1
1462070110.293	 4	 -0.223502	 -1.755561	 -0.061257	 0.549467	 0.512780	 -0.307807	 0.281423	 0.221904	 -0.074741	 0.930577	 1
1462070110.303	 4	 -0.340470	 -1.704893	 -0.015005	 0.531544	 0.509900	 -0.306289	 0.279266	 0.214068	 -0.076967	 0.932878	 1
1462070110.313	 4	 -0.346201	 -1.504528	 0.185141	 0.514228	 0.507475	 -0.302981	 0.277138	 0.206692	 -0.078176	 0.935073	 1
1462070110.323	 4	 -0.186675	 -1.135324	 0.414195	 0.499509	 0.507137	 -0.298099	 0.275912	 0.200513	 -0.077973	 0.936796	 1
1462070110.333	 4	 0.104487	 -0.670923	 0.623805	 0.488840	 0.510089	 -0.292443	 0.276296	 0.196000	 -0.076397	 0.937768	 1
1462070110.343	 4	 0.444620	 -0.169973	 0.759791	 0.483181	 0.516664	 -0.286945	 0.278573	 0.193466	 -0.073729	 0.937834	 1
1462070110.353	 4	 0.779985	 0.278415	 0.832450	 0.482632	 0.526643	 -0.282343	 0.282699	 0.192886	 -0.070331	 0.936979	 1
1462070110.363	 4	 1.064905	 0.508319	 0.823582	 0.485711	 0.539364	 -0.279187	 0.288342	 0.193546	 -0.066731	 0.935385	 1
1462070110.373	 4	 1.181497	 0.428499	 0.717380	 0.489707	 0.553178	 -0.277847	 0.294671	 0.194267	 -0.063681	 0.933474	 1
1462070110.383	 4	 1.095186	 0.137235	 0.558754	 0.491864	 0.565929	 -0.277868	 0.300569	 0.194023	 -0.061659	 0.931779	 1
1462070110.393	 4	 0.916914	 -0.187838	 0.394220	 0.491272	 0.576480	 -0.278728	 0.305446	 0.192578	 -0.060729	 0.930553	 1
1462070110.403	 4	 0.673640	 -0.525202	 0.268504	 0.487438	 0.584388	 -0.279751	 0.309029	 0.189855	 -0.060733	 0.929929	 1
1462070110.413	 4	 0.432615	 -0.841275	 0.146165	 0.480236	 0.589562	 -0.280608	 0.311245	 0.185860	 -0.061559	 0.929943	 1
1462070110.433	 5	 0.078772	 -1.239603	 -0.070811	 0.459398	 0.593149	 -0.282857	 0.312422	 0.175458	 -0.065388	 0.931306	 1
1462070110.443	 5	 -0.084096	 -1.352098	 -0.102412	 0.446575	 0.592328	 -0.283695	 0.311692	 0.169433	 -0.067883	 0.932487	 1
1462070110.453	 5	 -0.238988	 -1.408864	 -0.072816	 0.432548	 0.590147	 -0.283575	 0.310199	 0.163119	 -0.070276	 0.933932	 1
1462070110.463	 5	 -0.342199	 -1.416445	 0.013273	 0.417536	 0.587177	 -0.282104	 0.308184	 0.156616	 -0.072266	 0.935559	 1
1462070110.473	 5	 -0.371189	 -1.314566	 0.116786	 0.402553	 0.584155	 -0.279346	 0.306036	 0.150311	 -0.073627	 0.937191	 1
1462070110.483	 5	 -0.322894	 -1.139339	 0.245888	 0.388539	 0.581836	 -0.275434	 0.304160	 0.144551	 -0.074191	 0.938663	 1
1462070110.493	 5	 -0.201837	 -0.944990	 0.401178	 0.375836	 0.580995	 -0.270352	 0.302940	 0.139433	 -0.073825	 0.939859	 1
1462070110.503	 5	 -0.046805	 -0.766875	 0.531508	 0.364426	 0.582018	 -0.264362	 0.302586	 0.134884	 -0.072627	 0.940730	 1
1462070110.513	 5	 0.092096	 -0.543593	 0.577139	 0.355004	 0.584583	 -0.258203	 0.303028	 0.131161	 -0.070890	 0.941247	 1
1462070110.523	 5	 0.210486	 -0.304859	 0.545291	 0.348306	 0.588212	 -0.252669	 0.304119	 0.128540	 -0.068935	 0.941402	 1
1462070110.533	 5	 0.306131	 -0.104628	 0.474915	 0.344342	 0.592558	 -0.248244	 0.305720	 0.126985	 -0.067024	 0.941232	 1
1462070110.543	 5	 0.363001	 0.025469	 0.397830	 0.342452	 0.597269	 -0.244927	 0.307635	 0.126214	 -0.065287	 0.940834	 1
1462070110.553	 5	 0.372392	 0.042982	 0.323308	 0.341608	 0.601934	 -0.242563	 0.309624	 0.125799	 -0.063847	 0.940336	 1
1462070110.563	 5	 0.308582	 -0.100725	 0.280961	 0.339912	 0.606003	 -0.240582	 0.311334	 0.124976	 -0.062780	 0.939952	 1
1462070110.573	 5	 0.185898	 -0.316293	 0.278958	 0.335981	 0.608991	 -0.238279	 0.312455	 0.123246	 -0.062020	 0.939859	 1
1462070110.583	 5	 0.033573	 -0.502867	 0.303061	 0.329608	 0.610641	 -0.235153	 0.312834	 0.120607	 -0.061389	 0.940117	 1
1462070110.593	 5	 -0.103683	 -0.671326	 0.337858	 0.320967	 0.611006	 -0.231061	 0.312496	 0.117155	 -0.060781	 0.940705	 1
1462070110.603	 5	 -0.203572	 -0.821939	 0.355444	 0.310367	 0.610383	 -0.226296	 0.311611	 0.112958	 -0.060250	 0.941546	 1
1462070110.613	 5	 -0.289311	 -0.937291	 0.400945	 0.298191	 0.608992	 -0.220882	 0.310299	 0.108170	 -0.059716	 0.942575	 1
1462070110.623	 5	 -0.360689	 -0.987476	 0.491690	 0.284557	 0.607028	 -0.214171	 0.308624	 0.102921	 -0.058827	 0.943768	 1
1462070110.633	 5	 -0.389180	 -0.933027	 0.508431	 0.270880	 0.604733	 -0.206907	 0.306787	 0.097742	 -0.057688	 0.944987	 1
1462070110.643	 5	 -0.367543	 -0.797583	 0.421044	 0.258883	 0.602276	 -0.200462	 0.304985	 0.093222	 -0.056667	 0.946088	 1
1462070110.653	 5	 -0.323643	 -0.675124	 0.312028	 0.249067	 0.599887	 -0.195517	 0.303360	 0.089485	 -0.055998	 0.947011	 1
1462070110.663	 5	 -0.311467	 -0.592116	 0.323352	 0.240320	 0.597603	 -0.190888	 0.301840	 0.086187	 -0.055293	 0.947844	 1
1462070110.673	 5	 -0.279914	 -0.494096	 0.359160	 0.232323	 0.595610	 -0.185911	 0.300471	 0.083268	 -0.054277	 0.948598	 1
1462070110.683	 5	 -0.196329	 -0.369281	 0.297779	 0.225853	 0.594193	 -0.181558	 0.299451	 0.080937	 -0.053278	 0.949179	 1
1462070110.693	 5	 -0.083966	 -0.212982	 0.189548	 0.221718	 0.593569	 -0.178701	 0.298933	 0.079438	 -0.052582	 0.949507	 1
1462070110.703	 5	 0.036133	 -0.042514	 0.131471	 0.219969	 0.593940	 -0.177072	 0.298997	 0.078830	 -0.052046	 0.949567	 1
1462070110.713	 5	 0.151034	 0.086040	 0.158311	 0.219750	 0.595454	 -0.175647	 0.299650	 0.078851	 -0.051304	 0.949400	 1
1462070110.723	 5	 0.247656	 0.166947	 0.207248	 0.220280	 0.598072	 -0.173933	 0.300831	 0.079209	 -0.050240	 0.949054	 1
1462070110.733	 5	 0.288543	 0.154779	 0.305894	 0.220593	 0.601460	 -0.171477	 0.302339	 0.079535	 -0.048808	 0.948622	 1
1462070110.743	 5	 0.275989	 0.104658	 0.429166	 0.219408	 0.605060	 -0.167427	 0.303847	 0.079384	 -0.046834	 0.948252	 1
1462070110.753	 5	 0.264166	 0.078178	 0.439680	 0.217657	 0.608626	 -0.162836	 0.305306	 0.079055	 -0.044695	 0.947914	 1
1462070110.763	 5	 0.238004	 0.030859	 0.357404	 0.215844	 0.611859	 -0.158946	 0.306636	 0.078616	 -0.042924	 0.947603	 1
1462070110.773	 5	 0.171377	 -0.009857	 0.289396	 0.214060	 0.614368	 -0.155823	 0.307659	 0.078116	 -0.041561	 0.947374	 1
1462070110.783	 5	 0.087684	 -0.102177	 0.285003	 0.211527	 0.616031	 -0.152726	 0.308270	 0.077306	 -0.040381	 0.947292	 1
1462070110.793	 5	 0.014547	 -0.233754	 0.298270	 0.207513	 0.616964	 -0.149257	 0.308497	 0.075892	 -0.039300	 0.947378	 1
1462070110.803	 5	 -0.049002	 -0.342191	 0.279696	 0.202298	 0.617225	 -0.145734	 0.308387	 0.073951	 -0.038419	 0.947604	 1
1462070110.813	 5	 -0.110333	 -0.407248	 0.230600	 0.196530	 0.616775	 -0.142572	 0.307949	 0.071727	 -0.037836	 0.947940	 1
1462070110.823	 5	 -0.169237	 -0.410619	 0.182056	 0.190846	 0.615619	 -0.139877	 0.307201	 0.069502	 -0.037498	 0.948362	 1
1462070110.833	 5	 -0.207623	 -0.374612	 0.146500	 0.183335	 0.615428	 -0.136225	 0.306847	 0.066510	 -0.036929	 0.948714	 1
1462070110.843	 5	 -0.210572	 -0.305603	 0.127984	 0.178898	 0.613571	 -0.134179	 0.305821	 0.064803	 -0.036737	 0.949170	 1
1462070110.853	 5	 -0.163207	 -0.217475	 0.126261	 0.175414	 0.612040	 -0.132270	 0.304972	 0.063509	 -0.036443	 0.949542	 1
1462070110.863	 5	 -0.084853	 -0.124090	 0.128579	 0.172912	 0.611220	 -0.130507	 0.304483	 0.062626	 -0.036029	 0.949774	 1
1462070110.873	 5	 0.004268	 -0.013706	 0.134163	 0.169190	 0.611513	 -0.127513	 0.304462	 0.061301	 -0.035159	 0.949899	 1
1462070110.883	 5	 0.090135	 0.080789	 0.146018	 0.168868	 0.612435	 -0.125936	 0.304845	 0.061350	 -0.034413	 0.949801	 1
1462070110.893	 5	 0.154647	 0.168997	 0.162264	 0.169392	 0.614087	 -0.124316	 0.305586	 0.061775	 -0.033482	 0.949568	 1
1462070110.903	 5	 0.197936	 0.281742	 0.179988	 0.170915	 0.616234	 -0.122580	 0.306573	 0.062673	 -0.032318	 0.949232	 1
1462070110.913	 5	 0.255979	 0.366676	 0.183473	 0.171226	 0.618820	 -0.119601	 0.307707	 0.063171	 -0.030728	 0.948884	 1
1462070110.923	 5	 0.314866	 0.415359	 0.173821	 0.174404	 0.622082	 -0.118106	 0.309249	 0.064774	 -0.029365	 0.948318	 1
1462070110.933	 5	 0.366044	 0.419344	 0.157426	 0.177928	 0.625852	 -0.116915	 0.311041	 0.066473	 -0.028063	 0.947653	 1
1462070110.943	 5	 0.405290	 0.392434	 0.129124	 0.181462	 0.630006	 -0.116124	 0.313024	 0.068099	 -0.026923	 0.946918	 1
1462070110.953	 5	 0.424156	 0.362221	 0.078586	 0.183071	 0.633460	 -0.114779	 0.314629	 0.068928	 -0.025854	 0.946356	 1
1462070110.963	 5	 0.420692	 0.353320	 0.023114	 0.186920	 0.637688	 -0.115302	 0.316689	 0.070490	 -0.025271	 0.945569	 1
1462070110.973	 5	 0.392814	 0.357379	 -0.014973	 0.191091	 0.641612	 -0.116320	 0.318625	 0.072134	 -0.024878	 0.944805	 1
1462070110.983	 5	 0.364861	 0.330724	 -0.035227	 0.195246	 0.645197	 -0.117584	 0.320409	 0.073741	 -0.024615	 0.944084	 1
1462070110.993	 5	 0.333646	 0.279705	 -0.041821	 0.196888	 0.648643	 -0.117662	 0.322052	 0.074354	 -0.024196	 0.943487	 1
1462070111.003	 5	 0.307723	 0.215941	 -0.044319	 0.198907	 0.651532	 -0.118310	 0.323457	 0.075076	 -0.024014	 0.942954	 1
1462070111.013	 5	 0.285022	 0.156424	 -0.046806	 0.200530	 0.654241	 -0.119078	 0.324778	 0.075598	 -0.023959	 0.942460	 1
1462070111.023	 5	 0.260225	 0.098094	 -0.049175	 0.202442	 0.656762	 -0.120352	 0.326032	 0.076179	 -0.024105	 0.941976	 1
1462070111.033	 5	 0.235365	 0.034325	 -0.052749	 0.203717	 0.659026	 -0.121607	 0.327157	 0.076473	 -0.024357	 0.941556	 1
1462070111.043	 5	 0.204118	 -0.025179	 -0.057293	 0.204364	 0.660990	 -0.122847	 0.328132	 0.076486	 -0.024721	 0.941206	 1
1462070111.053	 5	 0.178347	 -0.064415	 -0.051035	 0.203510	 0.663501	 -0.123367	 0.329318	 0.075885	 -0.024960	 0.940834	 1
1462070111.063	 5	 0.154820	 -0.079198	 -0.045639	 0.203340	 0.664970	 -0.124357	 0.330041	 0.075574	 -0.025369	 0.940594	 1
1462070111.073	 5	 0.143121	 -0.072765	 -0.043345	 0.203164	 0.666303	 -0.125277	 0.330698	 0.075278	 -0.025753	 0.940377	 1
1462070111.083	 5	 0.144289	 -0.056767	 -0.036812	 0.203083	 0.667633	 -0.126125	 0.331351	 0.075039	 -0.026088	 0.940157	 1
1462070111.093	 5	 0.153012	 -0.029046	 -0.023834	 0.202728	 0.670488	 -0.126577	 0.332699	 0.074665	 -0.026194	 0.939708	 1
1462070111.103	 5	 0.170179	 -0.014168	 -0.018516	 0.202973	 0.672074	 -0.127242	 0.333469	 0.074596	 -0.026373	 0.939435	 1
1462070111.113	 5	 0.175611	 0.001810	 -0.013086	 0.203331	 0.673765	 -0.127873	 0.334288	 0.074580	 -0.026511	 0.939142	 1
1462070111.123	 5	 0.171443	 0.022040	 -0.011796	 0.203878	 0.675441	 -0.128464	 0.335100	 0.074659	 -0.026599	 0.938843	 1
1462070111.133	 5	 0.159809	 0.042294	 -0.010434	 0.204853	 0.678562	 -0.129186	 0.336598	 0.074848	 -0.026592	 0.938292	 1
1462070111.143	 5	 0.134348	 0.073224	 -0.008858	 0.205813	 0.679921	 -0.129668	 0.337263	 0.075153	 -0.026576	 0.938029	 1
1462070111.153	 5	 0.106805	 0.109526	 -0.000820	 0.207028	 0.681021	 -0.130012	 0.337806	 0.075612	 -0.026467	 0.937800	 1
1462070111.163	 5	 0.088878	 0.144766	 0.011387	 0.208471	 0.681948	 -0.130157	 0.338263	 0.076220	 -0.026236	 0.937593	 1
1462070111.173	 5	 0.077346	 0.182079	 0.018237	 0.210745	 0.684601	 -0.130498	 0.339543	 0.077101	 -0.025851	 0.937069	 1
1462070111.183	 5	 0.072147	 0.204486	 0.025951	 0.212678	 0.685367	 -0.130396	 0.339921	 0.077986	 -0.025429	 0.936870	 1
1462070111.193	 5	 0.059334	 0.195020	 0.035566	 0.214516	 0.686049	 -0.130145	 0.340252	 0.078857	 -0.024957	 0.936690	 1
1462070111.203	 5	 0.035710	 0.157916	 0.042887	 0.215944	 0.686545	 -0.129732	 0.340484	 0.079572	 -0.024490	 0.936557	 1
1462070111.213	 5	 0.010874	 0.097356	 0.041474	 0.217388	 0.687172	 -0.129644	 0.340790	 0.080233	 -0.024164	 0.936398	 1
1462070111.223	 5	 -0.017199	 0.030412	 0.038964	 0.217537	 0.687157	 -0.129122	 0.340764	 0.080392	 -0.023895	 0.936400	 1
1462070111.233	 5	 -0.038868	 -0.039710	 0.040631	 0.217048	 0.686661	 -0.128590	 0.340506	 0.080278	 -0.023760	 0.936508	 1
1462070111.243	 5	 -0.051924	 -0.096016	 0.044484	 0.215694	 0.686245	 -0.127856	 0.340267	 0.079789	 -0.023673	 0.936639	 1
1462070111.253	 5	 -0.060505	 -0.109780	 0.049761	 0.213788	 0.686175	 -0.126881	 0.340173	 0.079066	 -0.023544	 0.936737	 1
1462070111.263	 5	 -0.058254	 -0.086381	 0.051028	 0.211600	 0.686216	 -0.125603	 0.340116	 0.078256	 -0.023315	 0.936832	 1
1462070111.273	 5	 -0.043101	 -0.037539	 0.046026	 0.209767	 0.686461	 -0.124325	 0.340159	 0.077604	 -0.023013	 0.936878	 1
1462070111.283	 5	 -0.023646	 0.021896	 0.036821	 0.208779	 0.686900	 -0.123318	 0.340314	 0.077291	 -0.022684	 0.936855	 1
1462070111.293	 5	 -0.002029	 0.079269	 0.037170	 0.208823	 0.687491	 -0.122636	 0.340564	 0.077401	 -0.022322	 0.936764	 1
1462070111.303	 5	 0.017428	 0.123947	 0.045945	 0.209452	 0.688271	 -0.122003	 0.340910	 0.077767	 -0.021872	 0.936619	 1
1462070111.313	 5	 0.022904	 0.145273	 0.055689	 0.210208	 0.688945	 -0.121216	 0.341201	 0.078224	 -0.021335	 0.936487	 1
1462070111.323	 5	 0.018596	 0.132558	 0.060938	 0.210735	 0.689325	 -0.120251	 0.341346	 0.078618	 -0.020770	 0.936414	 1
1462070111.333	 5	 0.002395	 0.096401	 0.055414	 0.210920	 0.689344	 -0.119267	 0.341318	 0.078872	 -0.020277	 0.936413	 1
1462070111.343	 5	 -0.011797	 0.041030	 0.041167	 0.210603	 0.689103	 -0.118363	 0.341167	 0.078889	 -0.019922	 0.936475	 1
1462070111.363	 6	 -0.043043	 -0.033235	 0.054603	 0.209216	 0.688594	 -0.116839	 0.340856	 0.078522	 -0.019475	 0.936628	 1
1462070111.373	 6	 -0.047206	 -0.024598	 0.070708	 0.208198	 0.688599	 -0.115795	 0.340808	 0.078223	 -0.019159	 0.936677	 1
1462070111.383	 6	 -0.043755	 0.022240	 0.077510	 0.207429	 0.688783	 -0.114601	 0.340839	 0.078058	 -0.018720	 0.936688	 1
1462070111.393	 6	 -0.025323	 0.083869	 0.076860	 0.207086	 0.689105	 -0.113319	 0.340936	 0.078102	 -0.018160	 0.936660	 1
1462070111.403	 6	 0.001527	 0.125224	 0.070618	 0.207262	 0.689360	 -0.112139	 0.341011	 0.078374	 -0.017562	 0.936622	 1
1462070111.413	 6	 0.032529	 0.142102	 0.064111	 0.207686	 0.689831	 -0.111072	 0.341192	 0.078734	 -0.016963	 0.936537	 1
1462070111.423	 6	 0.051700	 0.136701	 0.060698	 0.208195	 0.690482	 -0.110110	 0.341462	 0.079108	 -0.016388	 0.936417	 1
1462070111.433	 6	 0.053672	 0.102656	 0.060364	 0.208523	 0.691120	 -0.109231	 0.341727	 0.079385	 -0.015883	 0.936306	 1
1462070111.443	 6	 0.041658	 0.043140	 0.062046	 0.208549	 0.691476	 -0.108480	 0.341863	 0.079510	 -0.015507	 0.936252	 1
1462070111.453	 6	 0.024279	 -0.021685	 0.062660	 0.207845	 0.691758	 -0.107644	 0.341956	 0.079311	 -0.015219	 0.936239	 1
1462070111.463	 6	 0.009169	 -0.060966	 0.066690	 0.206701	 0.692106	 -0.106783	 0.342076	 0.078908	 -0.014992	 0.936233	 1
1462070111.473	 6	 -0.004733	 -0.067307	 0.066753	 0.205314	 0.692495	 -0.105819	 0.342209	 0.078407	 -0.014755	 0.936231	 1
1462070111.483	 6	 -0.015300	 -0.042834	 0.063877	 0.204046	 0.692872	 -0.104819	 0.342337	 0.077969	 -0.014483	 0.936225	 1
1462070111.493	 6	 -0.020481	 -0.009853	 0.063165	 0.203187	 0.693194	 -0.103873	 0.342444	 0.077715	 -0.014169	 0.936211	 1
1462070111.503	 6	 -0.020325	 0.019952	 0.066640	 0.202528	 0.693605	 -0.102847	 0.342591	 0.077566	 -0.013778	 0.936176	 1
1462070111.513	 6	 -0.021280	 0.043355	 0.066868	 0.201981	 0.693895	 -0.101715	 0.342679	 0.077492	 -0.013326	 0.936156	 1
1462070111.523	 6	 -0.021241	 0.060294	 0.056370	 0.201598	 0.694088	 -0.100623	 0.342724	 0.077491	 -0.012870	 0.936146	 1
1462070111.533	 6	 -0.031959	 0.065512	 0.038395	 0.201435	 0.693939	 -0.099736	 0.342619	 0.077573	 -0.012491	 0.936183	 1
1462070111.543	 6	 -0.044919	 0.047343	 0.021287	 0.201479	 0.693511	 -0.099176	 0.342398	 0.077707	 -0.012245	 0.936256	 1
1462070111.553	 6	 -0.051558	 0.001594	 0.016655	 0.201357	 0.692764	 -0.098796	 0.342034	 0.077745	 -0.012129	 0.936387	 1
1462070111.563	 6	 -0.057115	 -0.048352	 0.020500	 0.200754	 0.691914	 -0.098413	 0.341619	 0.077562	 -0.012100	 0.936555	 1
1462070111.573	 6	 -0.053028	 -0.088761	 0.023284	 0.199749	 0.691035	 -0.098025	 0.341187	 0.077193	 -0.012139	 0.936742	 1
1462070111.583	 6	 -0.046671	 -0.102569	 0.028428	 0.198523	 0.690389	 -0.097617	 0.340863	 0.076714	 -0.012192	 0.936899	 1
1462070111.593	 6	 -0.036975	 -0.083452	 0.028522	 0.197271	 0.690069	 -0.097116	 0.340687	 0.076225	 -0.012188	 0.937002	 1
1462070111.603	 6	 -0.026130	 -0.045208	 0.026653	 0.196364	 0.689997	 -0.096645	 0.340630	 0.075883	 -0.012126	 0.937052	 1
1462070111.613	 6	 -0.011023	 -0.011207	 0.027904	 0.196004	 0.690039	 -0.096293	 0.340634	 0.075773	 -0.012020	 0.937061	 1
1462070111.623	 6	 0.007274	 0.015384	 0.035452	 0.195893	 0.690247	 -0.095915	 0.340716	 0.075777	 -0.011851	 0.937033	 1
1462070111.633	 6	 0.027666	 0.033460	 0.042904	 0.195885	 0.690665	 -0.095438	 0.340893	 0.075838	 -0.011606	 0.936966	 1
1462070111.643	 6	 0.039464	 0.044077	 0.045032	 0.195965	 0.691195	 -0.094946	 0.341122	 0.075939	 -0.011333	 0.936878	 1
1462070111.653	 6	 0.041640	 0.048363	 0.050382	 0.196046	 0.691884	 -0.094383	 0.341423	 0.076047	 -0.011018	 0.936764	 1
1462070111.663	 6	 0.036351	 0.052680	 0.056864	 0.196177	 0.692608	 -0.093786	 0.341739	 0.076182	 -0.010678	 0.936641	 1
1462070111.673	 6	 0.019315	 0.050689	 0.068717	 0.196309	 0.693241	 -0.093082	 0.342008	 0.076340	 -0.010291	 0.936535	 1
1462070111.683	 6	 0.002216	 0.039094	 0.076220	 0.196166	 0.693743	 -0.092162	 0.342206	 0.076411	 -0.009858	 0.936461	 1
1462070111.693	 6	 -0.018156	 0.016833	 0.078322	 0.195706	 0.693900	 -0.091107	 0.342237	 0.076370	 -0.009434	 0.936457	 1
1462070111.703	 6	 -0.040725	 -0.012913	 0.073978	 0.195006	 0.693706	 -0.090070	 0.342104	 0.076227	 -0.009079	 0.936521	 1
1462070111.713	 6	 -0.057990	 -0.051170	 0.071641	 0.193866	 0.693303	 -0.088983	 0.341869	 0.075894	 -0.008786	 0.936637	 1
1462070111.723	 6	 -0.068862	 -0.091573	 0.069228	 0.192345	 0.692723	 -0.087919	 0.341552	 0.075385	 -0.008578	 0.936796	 1
