% Gyrometer data recorded with 'snsrlog'
% 
% 
% Label description:
% 	 0: Default Label
% 	 1: still_drop
% 	 2: walk_drop
% 	 3: other
% 	 4: dtw_same
% 	 5: dtw_diff
% 	 6: delete
% 	 7: steal
% 
% Column description:
% 	 1: Seconds.milliseconds since 1970
% 	 2: Number of skipped measurements
% 	 3: Gyro X
% 	 4: Gyro Y
% 	 5: Gyro Z
% 	 6: Roll of the device
% 	 7: Pitch of the device
% 	 8: Yaw of the device
% 	 9: Quaternion X
% 	 10: Quaternion Y
% 	 11: Quaternion Z
% 	 12: Quaternion W
% 	 13: Label used for the current sample
% 
% 
1463624278.098	 0	 -1.204510	 0.347288	 -1.070817	 0.384874	 0.725068	 -0.275104	 0.369330	 0.129401	 -0.058654	 0.918374	 1
1463624278.118	 1	 -1.268111	 0.305020	 -0.911858	 0.399099	 0.694560	 -0.286447	 0.356777	 0.136871	 -0.064776	 0.921836	 1
1463624278.128	 1	 -1.312488	 0.332318	 -0.832351	 0.404572	 0.679279	 -0.290016	 0.350302	 0.140286	 -0.067238	 0.923627	 1
1463624278.138	 1	 -1.402503	 0.419256	 -0.760418	 0.409849	 0.663552	 -0.292171	 0.343517	 0.143924	 -0.069172	 0.925471	 1
1463624278.148	 1	 -1.494503	 0.540215	 -0.691348	 0.415402	 0.647215	 -0.292910	 0.336355	 0.148007	 -0.070513	 0.927355	 1
1463624278.158	 1	 -1.558837	 0.640912	 -0.618445	 0.421229	 0.630520	 -0.292339	 0.328928	 0.152475	 -0.071281	 0.929235	 1
1463624278.168	 1	 -1.640110	 0.751395	 -0.522923	 0.427287	 0.613549	 -0.290348	 0.321255	 0.157304	 -0.071421	 0.931101	 1
1463624278.178	 1	 -1.748952	 0.892862	 -0.419411	 0.433640	 0.596041	 -0.286514	 0.313175	 0.162597	 -0.070759	 0.932993	 1
1463624278.188	 1	 -1.836466	 1.058490	 -0.348899	 0.440890	 0.578051	 -0.281246	 0.304752	 0.168544	 -0.069387	 0.934829	 1
1463624278.208	 2	 -1.897935	 1.309188	 -0.270362	 0.458521	 0.541359	 -0.268088	 0.287320	 0.182219	 -0.065187	 0.938080	 1
1463624278.218	 2	 -1.844333	 1.364308	 -0.274579	 0.468577	 0.523525	 -0.261256	 0.278778	 0.189545	 -0.062817	 0.939367	 1
1463624278.228	 2	 -1.822074	 1.367131	 -0.316311	 0.479102	 0.505926	 -0.254805	 0.270344	 0.196963	 -0.060601	 0.940451	 1
1463624278.238	 2	 -1.873007	 1.278348	 -0.406218	 0.489264	 0.487717	 -0.248806	 0.261613	 0.204150	 -0.058799	 0.941501	 1
1463624278.248	 2	 -1.960001	 1.230147	 -0.487973	 0.499061	 0.468455	 -0.243114	 0.252371	 0.211162	 -0.057402	 0.942563	 1
1463624278.258	 2	 -2.068357	 1.160883	 -0.549488	 0.508290	 0.447996	 -0.237353	 0.242506	 0.217958	 -0.056278	 0.943673	 1
1463624278.268	 2	 -2.146558	 1.162680	 -0.626591	 0.517393	 0.426473	 -0.231623	 0.232103	 0.224712	 -0.055403	 0.944756	 1
1463624278.278	 2	 -2.176324	 1.307441	 -0.769928	 0.528063	 0.404026	 -0.226682	 0.221362	 0.232121	 -0.054932	 0.945569	 1
1463624278.288	 2	 -2.168830	 1.692182	 -0.952922	 0.542427	 0.380703	 -0.223154	 0.210445	 0.241129	 -0.054965	 0.945806	 1
1463624278.298	 2	 -2.114772	 2.420552	 -1.105414	 0.563841	 0.356945	 -0.220892	 0.199656	 0.253319	 -0.055101	 0.944950	 1
1463624278.308	 2	 -1.995857	 3.293645	 -1.221953	 0.594167	 0.333409	 -0.219726	 0.189359	 0.269538	 -0.055104	 0.942579	 1
1463624278.318	 2	 -1.751747	 4.240798	 -1.342091	 0.634249	 0.310966	 -0.219973	 0.180062	 0.290062	 -0.055035	 0.938303	 1
1463624278.328	 2	 -1.389811	 5.091557	 -1.506782	 0.683939	 0.290256	 -0.222558	 0.172251	 0.314636	 -0.055322	 0.931812	 1
1463624278.338	 2	 -1.009207	 5.640961	 -1.713889	 0.740974	 0.270587	 -0.228228	 0.165763	 0.342111	 -0.056652	 0.923186	 1
1463624278.348	 2	 -0.762371	 5.919208	 -1.964969	 0.801770	 0.251524	 -0.236467	 0.160347	 0.370826	 -0.059143	 0.912841	 1
1463624278.358	 2	 -0.746497	 5.895891	 -2.240291	 0.863220	 0.230515	 -0.245901	 0.154632	 0.399611	 -0.062909	 0.901356	 1
1463624278.378	 3	 -1.091288	 5.203727	 -2.785137	 0.976434	 0.177816	 -0.262104	 0.138797	 0.452946	 -0.073664	 0.877581	 1
1463624278.388	 3	 -1.151328	 4.829394	 -2.947962	 1.026565	 0.147116	 -0.268224	 0.128926	 0.476754	 -0.080402	 0.865806	 1
1463624278.398	 3	 -1.070221	 4.701738	 -3.064958	 1.074416	 0.115302	 -0.273822	 0.118768	 0.499352	 -0.087854	 0.853712	 1
1463624278.408	 3	 -0.818647	 4.941806	 -3.152308	 1.123617	 0.083334	 -0.280132	 0.109215	 0.522121	 -0.096074	 0.840376	 1
1463624278.418	 3	 -0.374748	 5.465224	 -3.249352	 1.177391	 0.051892	 -0.288782	 0.101223	 0.546209	 -0.105372	 0.824807	 1
1463624278.428	 3	 0.184886	 6.129424	 -3.392988	 1.237429	 0.020671	 -0.301089	 0.095304	 0.572135	 -0.116242	 0.806267	 1
1463624278.448	 4	 1.349823	 7.110707	 -3.860803	 1.373266	 -0.045526	 -0.338325	 0.089348	 0.627690	 -0.144394	 0.759719	 1
1463624278.458	 4	 1.751328	 7.066922	 -4.016045	 1.442788	 -0.082146	 -0.361216	 0.088201	 0.654680	 -0.161443	 0.733178	 1
1463624278.468	 4	 1.996295	 6.774461	 -4.059267	 1.508999	 -0.120665	 -0.384505	 0.087507	 0.679476	 -0.179501	 0.705999	 1
1463624278.478	 4	 2.179048	 6.374047	 -4.053926	 1.570581	 -0.160542	 -0.407304	 0.087001	 0.701658	 -0.198087	 0.678873	 1
1463624278.488	 4	 2.366064	 5.909285	 -3.973552	 1.626804	 -0.201203	 -0.429707	 0.086724	 0.721043	 -0.217036	 0.652281	 1
1463624278.498	 4	 2.562485	 5.517776	 -3.761490	 1.677952	 -0.241324	 -0.452173	 0.087170	 0.737785	 -0.235975	 0.626411	 1
1463624278.508	 4	 2.783952	 5.233609	 -3.550779	 1.724921	 -0.280558	 -0.475296	 0.088625	 0.752265	 -0.254852	 0.601077	 1
1463624278.518	 4	 3.037903	 5.108370	 -3.411343	 1.769058	 -0.319671	 -0.499600	 0.091089	 0.764981	 -0.273953	 0.575722	 1
1463624278.528	 4	 3.309916	 4.975555	 -3.282793	 1.810558	 -0.359069	 -0.525514	 0.094553	 0.776030	 -0.293448	 0.550204	 1
1463624278.538	 4	 3.555743	 4.744758	 -3.182636	 1.848460	 -0.399003	 -0.553069	 0.098736	 0.785201	 -0.313390	 0.524879	 1
1463624278.548	 4	 3.739929	 4.372420	 -3.118430	 1.881490	 -0.439711	 -0.581860	 0.103095	 0.792269	 -0.333746	 0.500295	 1
1463624278.558	 4	 3.850570	 3.812933	 -3.077706	 1.908031	 -0.481164	 -0.611375	 0.106999	 0.796998	 -0.354414	 0.477217	 1
1463624278.568	 4	 3.857634	 3.026035	 -3.050986	 1.926150	 -0.523037	 -0.640956	 0.109709	 0.799167	 -0.375208	 0.456635	 1
1463624278.578	 4	 3.749754	 2.067272	 -3.009943	 1.934324	 -0.564645	 -0.669883	 0.110560	 0.798728	 -0.395813	 0.439479	 1
1463624278.588	 4	 3.553353	 1.085668	 -2.927843	 1.932217	 -0.605042	 -0.697747	 0.109284	 0.795910	 -0.415846	 0.426212	 1
1463624278.598	 4	 3.303386	 0.224939	 -2.772746	 1.920865	 -0.643172	 -0.724541	 0.106117	 0.791175	 -0.434906	 0.416699	 1
1463624278.608	 4	 3.040568	 -0.460959	 -2.567951	 1.901922	 -0.678258	 -0.750500	 0.101535	 0.785026	 -0.452717	 0.410454	 1
1463624278.618	 4	 2.786225	 -0.960523	 -2.331654	 1.877160	 -0.709899	 -0.775935	 0.096053	 0.777909	 -0.469152	 0.406851	 1
1463624278.628	 4	 2.536245	 -1.212292	 -2.097353	 1.848994	 -0.738017	 -0.800852	 0.090207	 0.770355	 -0.484123	 0.405019	 1
1463624278.638	 4	 2.295691	 -1.250522	 -1.893119	 1.820014	 -0.762911	 -0.825017	 0.084457	 0.762895	 -0.497626	 0.404014	 1
1463624278.648	 4	 2.051475	 -1.172699	 -1.673919	 1.791923	 -0.784677	 -0.848097	 0.079134	 0.755869	 -0.509632	 0.403330	 1
1463624278.658	 4	 1.838653	 -1.027726	 -1.422394	 1.765614	 -0.803107	 -0.870033	 0.074596	 0.749437	 -0.520131	 0.402794	 1
1463624278.668	 4	 1.714515	 -0.875433	 -1.152390	 1.740812	 -0.818271	 -0.891659	 0.071148	 0.743478	 -0.529417	 0.402363	 1
1463624278.678	 4	 1.639512	 -0.750619	 -0.838307	 1.716863	 -0.829991	 -0.913665	 0.068993	 0.737803	 -0.537694	 0.402208	 1
1463624278.688	 4	 1.461696	 -0.786449	 -0.424642	 1.693469	 -0.837322	 -0.934947	 0.068013	 0.732348	 -0.544603	 0.403049	 1
1463624278.698	 4	 1.176433	 -0.971975	 -0.016764	 1.670598	 -0.839838	 -0.953324	 0.067605	 0.727109	 -0.549702	 0.405673	 1
1463624278.708	 4	 0.932392	 -1.196303	 0.337107	 1.647996	 -0.838217	 -0.968399	 0.067390	 0.721975	 -0.553158	 0.410154	 1
1463624278.718	 4	 0.715951	 -1.410434	 0.641807	 1.625502	 -0.833058	 -0.980404	 0.067258	 0.716844	 -0.555210	 0.416357	 1
1463624278.728	 4	 0.561790	 -1.524927	 0.924510	 1.603582	 -0.824792	 -0.989713	 0.067366	 0.711748	 -0.556040	 0.423906	 1
1463624278.738	 4	 0.463625	 -1.562748	 1.242610	 1.582528	 -0.813293	 -0.997243	 0.068206	 0.706667	 -0.555813	 0.432483	 1
1463624278.748	 4	 0.352812	 -1.565445	 1.559016	 1.562864	 -0.798474	 -1.002801	 0.069916	 0.701672	 -0.554457	 0.441978	 1
1463624278.758	 4	 0.190312	 -1.629234	 1.786257	 1.544704	 -0.781141	 -1.005649	 0.072014	 0.696815	 -0.551967	 0.452323	 1
1463624278.768	 4	 0.048052	 -1.663325	 2.014185	 1.527991	 -0.761545	 -1.005856	 0.074444	 0.692078	 -0.548377	 0.463431	 1
1463624278.778	 4	 -0.147157	 -1.737473	 2.123903	 1.512666	 -0.740488	 -1.003192	 0.076843	 0.687498	 -0.543763	 0.475146	 1
1463624278.788	 4	 -0.590470	 -1.834867	 1.861481	 1.499893	 -0.721451	 -0.995338	 0.077503	 0.683664	 -0.538219	 0.486741	 1
1463624278.798	 4	 -1.230859	 -2.258654	 1.538056	 1.488812	 -0.706226	 -0.979684	 0.074665	 0.680641	 -0.531441	 0.498722	 1
1463624278.808	 4	 -1.798083	 -2.710212	 1.667750	 1.477791	 -0.691767	 -0.955957	 0.068914	 0.677857	 -0.522626	 0.512468	 1
1463624278.818	 4	 -1.683321	 -2.392445	 1.972385	 1.468445	 -0.674444	 -0.931137	 0.064370	 0.675245	 -0.512584	 0.526459	 1
1463624278.828	 4	 -1.310646	 -1.672524	 2.249740	 1.462634	 -0.654274	 -0.910525	 0.063272	 0.673177	 -0.502653	 0.538673	 1
1463624278.838	 4	 -1.094135	 -1.009737	 2.505542	 1.461400	 -0.631160	 -0.893082	 0.065509	 0.672039	 -0.492545	 0.549064	 1
1463624278.848	 4	 -1.135572	 -0.480270	 2.459673	 1.465127	 -0.607500	 -0.876237	 0.069364	 0.672226	 -0.482104	 0.557563	 1
1463624278.858	 4	 -1.257677	 -0.027465	 2.077012	 1.473587	 -0.587089	 -0.858716	 0.072899	 0.674006	 -0.471895	 0.563664	 1
1463624278.868	 4	 -1.122265	 0.456820	 1.739295	 1.485629	 -0.570089	 -0.842757	 0.076478	 0.677012	 -0.462670	 0.567223	 1
1463624278.878	 4	 -0.755116	 1.068142	 1.559542	 1.500860	 -0.554858	 -0.831189	 0.081534	 0.680922	 -0.454875	 0.568143	 1
1463624278.888	 4	 -0.253754	 1.775459	 1.471169	 1.519711	 -0.540193	 -0.825633	 0.089147	 0.685680	 -0.448647	 0.566226	 1
1463624278.898	 4	 0.191665	 2.475795	 1.277707	 1.542549	 -0.526826	 -0.826055	 0.099137	 0.691350	 -0.444108	 0.561226	 1
1463624278.908	 4	 0.515352	 2.938208	 1.079894	 1.568531	 -0.515528	 -0.830902	 0.110540	 0.697707	 -0.441009	 0.553622	 1
1463624278.918	 4	 0.737601	 3.107836	 0.947383	 1.595442	 -0.505854	 -0.838968	 0.122648	 0.704085	 -0.438960	 0.544550	 1
1463624278.928	 4	 0.807855	 2.937703	 0.835415	 1.620883	 -0.497498	 -0.848443	 0.134440	 0.709876	 -0.437518	 0.535331	 1
1463624278.938	 4	 0.786800	 2.611738	 0.757961	 1.643342	 -0.490264	 -0.857946	 0.145186	 0.714768	 -0.436397	 0.526864	 1
1463624278.948	 4	 0.696680	 2.112700	 0.693354	 1.661757	 -0.483787	 -0.866902	 0.154584	 0.718547	 -0.435481	 0.519760	 1
1463624278.958	 4	 0.341488	 1.303838	 0.624974	 1.674284	 -0.477805	 -0.872514	 0.161319	 0.721001	 -0.434195	 0.515372	 1
1463624278.968	 4	 0.009760	 0.500154	 0.546846	 1.680498	 -0.472293	 -0.874146	 0.165081	 0.722147	 -0.432486	 0.514011	 1
1463624278.978	 4	 -0.181007	 -0.144713	 0.572348	 1.680874	 -0.466564	 -0.873226	 0.166724	 0.721984	 -0.430525	 0.515355	 1
1463624278.988	 4	 -0.290457	 -0.546016	 0.630315	 1.677260	 -0.460131	 -0.870951	 0.167255	 0.720854	 -0.428335	 0.518578	 1
1463624278.998	 4	 -0.274099	 -0.671796	 0.599161	 1.671776	 -0.453753	 -0.868545	 0.167329	 0.719239	 -0.426279	 0.522478	 1
1463624279.008	 4	 -0.221484	 -0.601766	 0.597223	 1.666363	 -0.447647	 -0.866561	 0.167491	 0.717605	 -0.424404	 0.526186	 1
1463624279.018	 4	 -0.115723	 -0.416453	 0.673695	 1.662046	 -0.441004	 -0.865631	 0.168451	 0.716119	 -0.422553	 0.529383	 1
1463624279.028	 4	 0.008746	 -0.095192	 0.731021	 1.660046	 -0.433847	 -0.866088	 0.170571	 0.715082	 -0.420723	 0.531560	 1
1463624279.038	 4	 0.186667	 0.216592	 0.822962	 1.660507	 -0.426032	 -0.868378	 0.174083	 0.714483	 -0.418972	 0.532608	 1
1463624279.048	 4	 0.393776	 0.384675	 0.911182	 1.662145	 -0.417435	 -0.873034	 0.178939	 0.713915	 -0.417509	 0.532909	 1
1463624279.058	 4	 0.454779	 0.449137	 0.878212	 1.664155	 -0.408967	 -0.878858	 0.184236	 0.713319	 -0.416354	 0.532806	 1
1463624279.068	 4	 0.367641	 0.422817	 0.733782	 1.666484	 -0.401579	 -0.883961	 0.188977	 0.712922	 -0.415288	 0.532509	 1
1463624279.078	 4	 0.214838	 0.392498	 0.451337	 1.669230	 -0.396570	 -0.887237	 0.192362	 0.712966	 -0.414398	 0.531931	 1
1463624279.088	 4	 0.188302	 0.289837	 0.071202	 1.671593	 -0.395115	 -0.889415	 0.194106	 0.713274	 -0.414312	 0.530951	 1
1463624279.098	 4	 0.201966	 0.206284	 -0.151373	 1.672990	 -0.396388	 -0.891454	 0.194705	 0.713542	 -0.415099	 0.529755	 1
1463624279.118	 4	 0.198693	 0.565404	 -0.058479	 1.679003	 -0.399501	 -0.895450	 0.196363	 0.714974	 -0.416500	 0.526101	 1
1463624279.108	 4	 0.199149	 0.305060	 -0.171745	 1.674896	 -0.398391	 -0.893421	 0.195147	 0.714006	 -0.416034	 0.528232	 1
1463624279.128	 4	 0.218180	 0.953562	 0.087775	 1.686675	 -0.399248	 -0.897782	 0.198878	 0.716736	 -0.416277	 0.522924	 1
1463624279.138	 4	 0.263000	 1.301070	 0.212115	 1.697699	 -0.397702	 -0.900727	 0.202730	 0.719196	 -0.415470	 0.518693	 1
1463624279.148	 4	 0.324198	 1.543924	 0.285249	 1.711045	 -0.395496	 -0.904456	 0.207554	 0.722094	 -0.414394	 0.513594	 1
1463624279.158	 4	 0.267484	 1.947338	 0.304417	 1.727968	 -0.392837	 -0.908066	 0.213212	 0.725839	 -0.412721	 0.507306	 1
1463624279.168	 4	 0.102434	 2.342686	 0.194430	 1.749757	 -0.390845	 -0.910048	 0.219048	 0.730965	 -0.410250	 0.499403	 1
1463624279.178	 4	 -0.077725	 2.516501	 0.036686	 1.774738	 -0.390025	 -0.909838	 0.224333	 0.737113	 -0.407172	 0.490459	 1
1463624279.188	 4	 -0.175844	 2.412674	 -0.093449	 1.800012	 -0.390309	 -0.908002	 0.228690	 0.743481	 -0.403954	 0.481413	 1
1463624279.198	 4	 -0.142326	 2.172232	 -0.235593	 1.823183	 -0.391840	 -0.905829	 0.232076	 0.749357	 -0.401257	 0.472862	 1
1463624279.208	 4	 0.003300	 1.975850	 -0.416670	 1.843880	 -0.395298	 -0.904382	 0.234631	 0.754586	 -0.399623	 0.464596	 1
1463624279.218	 4	 0.201127	 2.020458	 -0.638590	 1.863900	 -0.401309	 -0.904176	 0.236752	 0.759561	 -0.399180	 0.455708	 1
1463624279.228	 4	 0.402000	 2.241760	 -0.840775	 1.885272	 -0.409918	 -0.905248	 0.238879	 0.764711	 -0.399712	 0.445403	 1
1463624279.238	 4	 0.611244	 2.637607	 -1.023293	 1.909102	 -0.421164	 -0.907782	 0.241327	 0.770198	 -0.401132	 0.433186	 1
1463624279.248	 4	 0.776992	 3.295394	 -1.183808	 1.938911	 -0.434505	 -0.911077	 0.244732	 0.776734	 -0.402659	 0.417919	 1
1463624279.258	 4	 0.766257	 3.955964	 -1.178632	 1.975606	 -0.448371	 -0.914140	 0.249378	 0.784390	 -0.403418	 0.399746	 1
1463624279.268	 4	 0.653085	 3.656724	 -0.835124	 2.013114	 -0.459820	 -0.916634	 0.254730	 0.791771	 -0.403072	 0.381766	 1
1463624279.278	 4	 0.862950	 0.914245	 -0.085530	 2.026760	 -0.465767	 -0.923311	 0.258496	 0.793657	 -0.404617	 0.373596	 1
1463624279.288	 4	 0.676896	 -0.736187	 0.172501	 2.018611	 -0.467727	 -0.931717	 0.259632	 0.791098	 -0.407914	 0.374648	 1
1463624279.298	 4	 0.239005	 -1.084239	 -0.039011	 2.006652	 -0.468934	 -0.935391	 0.258302	 0.788407	 -0.410563	 0.378328	 1
1463624279.308	 4	 -0.051168	 -1.231554	 -0.376768	 1.995254	 -0.471600	 -0.934088	 0.254701	 0.786488	 -0.412676	 0.382443	 1
1463624279.318	 4	 -0.126247	 -1.349948	 -0.598911	 1.982953	 -0.477291	 -0.930740	 0.249241	 0.784721	 -0.415490	 0.386600	 1
1463624279.328	 4	 -0.063960	 -1.548548	 -0.533093	 1.969623	 -0.482166	 -0.927269	 0.243722	 0.782708	 -0.418082	 0.391376	 1
1463624279.338	 4	 0.181443	 -1.795048	 -0.251899	 1.952413	 -0.485621	 -0.927014	 0.239022	 0.779455	 -0.421252	 0.397322	 1
1463624279.348	 4	 0.516405	 -2.039851	 0.006150	 1.930528	 -0.487640	 -0.931321	 0.235479	 0.774626	 -0.425373	 0.404428	 1
1463624279.358	 4	 0.875473	 -2.244395	 0.105565	 1.904585	 -0.489447	 -0.940025	 0.232753	 0.768379	 -0.430771	 0.412137	 1
1463624279.368	 4	 1.272494	 -2.426696	 0.060978	 1.874559	 -0.492361	 -0.952938	 0.230302	 0.760758	 -0.437859	 0.420105	 1
1463624279.378	 4	 1.613183	 -2.216319	 -0.124407	 1.843704	 -0.497386	 -0.969439	 0.228203	 0.752569	 -0.446451	 0.426901	 1
1463624279.388	 4	 1.594571	 -1.681776	 -0.340950	 1.817218	 -0.504407	 -0.986620	 0.226512	 0.745299	 -0.455278	 0.431212	 1
1463624279.398	 4	 1.006201	 -1.024272	 -0.405378	 1.799434	 -0.511080	 -0.998663	 0.224838	 0.740468	 -0.461874	 0.433392	 1
1463624279.408	 4	 0.242201	 -0.418157	 -0.293970	 1.791879	 -0.515279	 -1.002639	 0.223247	 0.738625	 -0.464817	 0.434211	 1
1463624279.418	 4	 -0.384153	 -0.126546	 -0.082242	 1.791717	 -0.516097	 -0.999602	 0.221831	 0.738975	 -0.464414	 0.434771	 1
1463624279.428	 4	 -0.787820	 -0.292479	 0.046554	 1.793223	 -0.514291	 -0.991811	 0.219865	 0.740061	 -0.462020	 0.436471	 1
1463624279.438	 4	 -1.009142	 -0.550770	 -0.019999	 1.793645	 -0.512123	 -0.981045	 0.216653	 0.741208	 -0.458977	 0.439332	 1
1463624279.448	 4	 -1.052451	 -0.794135	 -0.156173	 1.792205	 -0.510986	 -0.968955	 0.212196	 0.742125	 -0.456127	 0.442913	 1
1463624279.458	 4	 -1.030143	 -0.927081	 -0.292956	 1.789158	 -0.511244	 -0.956749	 0.206891	 0.742739	 -0.453809	 0.446757	 1
1463624279.468	 4	 -1.005409	 -0.945620	 -0.492642	 1.785776	 -0.513328	 -0.944312	 0.200849	 0.743355	 -0.451987	 0.450324	 1
1463624279.478	 4	 -0.884198	 -0.826572	 -0.747306	 1.783045	 -0.518042	 -0.932302	 0.194279	 0.744154	 -0.450957	 0.452912	 1
1463624279.488	 4	 -0.679510	 -0.619814	 -1.046644	 1.781597	 -0.525959	 -0.921668	 0.187487	 0.745204	 -0.451058	 0.453945	 1
1463624279.498	 4	 -0.417247	 -0.383793	 -1.394170	 1.781576	 -0.537708	 -0.912989	 0.180519	 0.746500	 -0.452614	 0.453092	 1
1463624279.508	 4	 -0.144391	 -0.155327	 -1.752515	 1.782808	 -0.553525	 -0.906485	 0.173340	 0.747968	 -0.455768	 0.450303	 1
1463624279.518	 4	 0.065785	 0.123397	 -2.099190	 1.785830	 -0.573230	 -0.901683	 0.165959	 0.749729	 -0.460313	 0.445506	 1
1463624279.528	 4	 0.151222	 0.614485	 -2.399107	 1.793134	 -0.596279	 -0.897211	 0.158625	 0.752374	 -0.465581	 0.438185	 1
1463624279.538	 4	 0.263325	 1.006350	 -2.584011	 1.804897	 -0.621564	 -0.892902	 0.151708	 0.755828	 -0.471228	 0.428547	 1
1463624279.548	 4	 0.456305	 1.033934	 -2.662169	 1.817062	 -0.648278	 -0.889982	 0.145006	 0.759036	 -0.477606	 0.418006	 1
1463624279.558	 4	 0.602384	 0.945760	 -2.588592	 1.827472	 -0.675045	 -0.888734	 0.138555	 0.761510	 -0.484494	 0.407641	 1
1463624279.568	 4	 0.688724	 0.972570	 -2.377008	 1.836916	 -0.700284	 -0.888941	 0.132955	 0.763460	 -0.491290	 0.397600	 1
1463624279.578	 4	 0.808467	 1.048371	 -2.142878	 1.845826	 -0.723541	 -0.891053	 0.128622	 0.765000	 -0.497897	 0.387724	 1
1463624279.588	 4	 0.904632	 1.131440	 -1.942578	 1.854212	 -0.745130	 -0.895135	 0.125481	 0.766173	 -0.504396	 0.377913	 1
1463624279.598	 4	 0.933601	 1.085240	 -1.848408	 1.861786	 -0.765679	 -0.900059	 0.122822	 0.767026	 -0.510753	 0.368398	 1
1463624279.608	 4	 0.906205	 1.058540	 -1.727987	 1.868844	 -0.785202	 -0.905219	 0.120479	 0.767677	 -0.516835	 0.359220	 1
1463624279.618	 4	 0.823629	 0.896710	 -1.637118	 1.875138	 -0.803501	 -0.909715	 0.118094	 0.768158	 -0.522444	 0.350771	 1
1463624279.628	 4	 0.753715	 0.548109	 -1.629095	 1.878960	 -0.821325	 -0.913281	 0.114872	 0.768192	 -0.527854	 0.343591	 1
1463624279.638	 4	 0.675054	 0.208643	 -1.684863	 1.880054	 -0.839598	 -0.915643	 0.110330	 0.767753	 -0.533292	 0.337613	 1
1463624279.648	 4	 0.609852	 0.051696	 -1.793398	 1.880122	 -0.858298	 -0.916543	 0.104812	 0.767149	 -0.538606	 0.332267	 1
1463624279.658	 4	 0.551614	 0.028613	 -1.919931	 1.880891	 -0.878008	 -0.915962	 0.098588	 0.766634	 -0.543868	 0.326743	 1
1463624279.678	 5	 0.504212	 0.168195	 -2.198523	 1.886548	 -0.921250	 -0.910974	 0.084598	 0.765997	 -0.554501	 0.314038	 1
1463624279.688	 5	 0.466102	 0.349185	 -2.336122	 1.893304	 -0.944635	 -0.906412	 0.077366	 0.766085	 -0.559774	 0.306239	 1
1463624279.698	 5	 0.422132	 0.399538	 -2.450373	 1.902538	 -0.968939	 -0.899974	 0.069857	 0.766367	 -0.564929	 0.297753	 1
1463624279.708	 5	 0.471201	 0.307787	 -2.615781	 1.912145	 -0.994704	 -0.892439	 0.061625	 0.766409	 -0.570335	 0.289029	 1
1463624279.718	 5	 0.516852	 0.194563	 -2.810135	 1.921645	 -1.022392	 -0.883835	 0.052408	 0.766056	 -0.576145	 0.280122	 1
1463624279.728	 5	 0.532526	 0.104451	 -3.056236	 1.932191	 -1.052267	 -0.873067	 0.042053	 0.765408	 -0.582258	 0.270847	 1
1463624279.738	 5	 0.538538	 0.016372	 -3.319285	 1.944704	 -1.084614	 -0.859179	 0.030405	 0.764466	 -0.588645	 0.261081	 1
1463624279.748	 5	 0.538129	 -0.051954	 -3.356343	 1.959160	 -1.117804	 -0.842608	 0.018167	 0.763240	 -0.595009	 0.251197	 1
1463624279.758	 5	 0.509614	 -0.091399	 -3.233900	 1.974989	 -1.150056	 -0.824158	 0.006055	 0.761760	 -0.601052	 0.241707	 1
1463624279.768	 5	 0.468192	 0.002758	 -3.026971	 1.993460	 -1.180269	 -0.803858	 -0.005183	 0.760295	 -0.606540	 0.232452	 1
1463624279.778	 5	 0.432899	 -0.117661	 -2.633452	 2.011656	 -1.207049	 -0.783517	 -0.015326	 0.758732	 -0.611344	 0.224387	 1
1463624279.788	 5	 0.405879	 -0.300970	 -1.962427	 2.024152	 -1.228144	 -0.767378	 -0.023806	 0.756975	 -0.615242	 0.218857	 1
1463624279.798	 5	 0.386597	 -0.328978	 -1.139751	 2.027820	 -1.242035	 -0.760093	 -0.029483	 0.755228	 -0.618164	 0.215951	 1
1463624279.808	 5	 0.316772	 -0.458771	 -0.293070	 2.021449	 -1.248006	 -0.762435	 -0.032313	 0.753683	 -0.619886	 0.216009	 1
1463624279.818	 5	 0.365630	 -0.853887	 0.388113	 2.001631	 -1.247359	 -0.775598	 -0.033316	 0.751836	 -0.620826	 0.219563	 1
1463624279.828	 5	 0.472886	 -1.215798	 0.685422	 1.970461	 -1.243278	 -0.796292	 -0.034013	 0.749287	 -0.621573	 0.225965	 1
1463624279.838	 5	 0.605266	 -1.124351	 0.589202	 1.936315	 -1.239586	 -0.820075	 -0.034620	 0.746269	 -0.622805	 0.232375	 1
1463624279.848	 5	 0.635362	 -0.883623	 0.356712	 1.905397	 -1.237847	 -0.842749	 -0.035280	 0.743249	 -0.624513	 0.237317	 1
1463624279.858	 5	 0.581591	 -0.611272	 0.197719	 1.880108	 -1.237577	 -0.862352	 -0.035831	 0.740607	 -0.626343	 0.240647	 1
1463624279.868	 5	 0.469327	 -0.407982	 0.171812	 1.860226	 -1.237418	 -0.878562	 -0.036021	 0.738512	 -0.627910	 0.242963	 1
1463624279.878	 5	 0.261442	 -0.137207	 0.172945	 1.847915	 -1.236627	 -0.889378	 -0.035645	 0.737289	 -0.628833	 0.244341	 1
1463624279.888	 5	 0.028547	 0.068471	 0.134256	 1.844706	 -1.235450	 -0.893060	 -0.034918	 0.737082	 -0.628971	 0.244716	 1
1463624279.898	 5	 -0.150663	 0.143266	 0.077756	 1.916354	 -1.243240	 -0.826305	 -0.039648	 0.743584	 -0.624040	 0.236823	 1
1463624279.908	 5	 -0.278006	 0.101877	 0.039046	 1.923973	 -1.241954	 -0.819518	 -0.039401	 0.744512	 -0.623081	 0.236473	 1
1463624279.918	 5	 -0.353173	 -0.004196	 0.048306	 1.933056	 -1.240360	 -0.810193	 -0.039557	 0.745605	 -0.621773	 0.236445	 1
1463624279.928	 5	 -0.370960	 -0.176266	 0.073503	 1.941103	 -1.238418	 -0.800297	 -0.040156	 0.746612	 -0.620288	 0.237065	 1
1463624279.938	 5	 -0.341657	 -0.329321	 0.105818	 1.927404	 -1.247245	 -0.809528	 -0.043678	 0.744035	 -0.623241	 0.236801	 1
1463624279.948	 5	 -0.282289	 -0.441986	 0.140489	 1.930124	 -1.244964	 -0.802260	 -0.044836	 0.744493	 -0.621886	 0.238699	 1
1463624279.958	 5	 -0.225965	 -0.514284	 0.167035	 1.930066	 -1.242617	 -0.797049	 -0.046075	 0.744674	 -0.620689	 0.241003	 1
1463624279.968	 5	 -0.180108	 -0.536619	 0.185612	 1.928087	 -1.240249	 -0.793493	 -0.047287	 0.744661	 -0.619635	 0.243511	 1
1463624279.978	 5	 -0.145877	 -0.523934	 0.189643	 1.920715	 -1.242772	 -0.795212	 -0.049707	 0.743474	 -0.620280	 0.245008	 1
1463624279.988	 5	 -0.117962	 -0.484692	 0.185502	 1.917292	 -1.240585	 -0.793574	 -0.050704	 0.743294	 -0.619462	 0.247407	 1
1463624279.998	 5	 -0.093195	 -0.426365	 0.171974	 1.913891	 -1.238594	 -0.792500	 -0.051544	 0.743100	 -0.618758	 0.249566	 1
1463624280.008	 5	 -0.069448	 -0.351077	 0.150087	 1.910730	 -1.236878	 -0.791918	 -0.052209	 0.742909	 -0.618188	 0.251405	 1
1463624280.018	 5	 -0.051041	 -0.275767	 0.127091	 1.909581	 -1.242958	 -0.790201	 -0.055076	 0.741939	 -0.619412	 0.250643	 1
1463624280.028	 5	 -0.027370	 -0.215378	 0.104000	 1.907149	 -1.241810	 -0.790338	 -0.055424	 0.741785	 -0.619085	 0.251828	 1
1463624280.038	 5	 -0.002621	 -0.158137	 0.087265	 1.904791	 -1.240929	 -0.791008	 -0.055633	 0.741619	 -0.618892	 0.252744	 1
1463624280.048	 5	 0.017822	 -0.112568	 0.073630	 1.899079	 -1.242671	 -0.795364	 -0.056327	 0.740797	 -0.619701	 0.253018	 1
1463624280.058	 5	 0.028605	 -0.081816	 0.065296	 1.896812	 -1.242130	 -0.796816	 -0.056323	 0.740619	 -0.619692	 0.253562	 1
1463624280.068	 5	 0.028737	 -0.054161	 0.065552	 1.894788	 -1.241608	 -0.798315	 -0.056233	 0.740470	 -0.619700	 0.253995	 1
1463624280.078	 5	 0.020340	 -0.028578	 0.070115	 1.892156	 -1.242014	 -0.800619	 -0.056323	 0.740150	 -0.620016	 0.254140	 1
1463624280.088	 5	 0.011911	 -0.009376	 0.074630	 1.890947	 -1.241356	 -0.801752	 -0.056073	 0.740110	 -0.619970	 0.254423	 1
1463624280.098	 5	 0.003454	 -0.000769	 0.084354	 1.889967	 -1.242390	 -0.802757	 -0.056327	 0.739885	 -0.620315	 0.254179	 1
1463624280.108	 5	 -0.002924	 -0.001760	 0.091860	 1.889177	 -1.241539	 -0.803584	 -0.056001	 0.739913	 -0.620196	 0.254458	 1
1463624280.118	 5	 -0.005076	 -0.011279	 0.098152	 1.887686	 -1.243288	 -0.804997	 -0.056486	 0.739547	 -0.620748	 0.254071	 1
1463624280.128	 5	 -0.001939	 -0.028276	 0.102230	 1.886614	 -1.242311	 -0.805876	 -0.056189	 0.739556	 -0.620598	 0.254475	 1
1463624280.138	 5	 0.007542	 -0.053837	 0.100802	 1.884814	 -1.244675	 -0.807249	 -0.056978	 0.739075	 -0.621278	 0.254037	 1
1463624280.148	 5	 0.010688	 -0.064491	 0.099609	 1.883009	 -1.243758	 -0.808507	 -0.056788	 0.738994	 -0.621172	 0.254575	 1
1463624280.158	 5	 0.014913	 -0.067743	 0.092042	 1.881892	 -1.245896	 -0.809035	 -0.057608	 0.738605	 -0.621708	 0.254211	 1
1463624280.168	 5	 0.015922	 -0.071014	 0.081345	 1.880029	 -1.245153	 -0.810286	 -0.057493	 0.738495	 -0.621640	 0.254723	 1
1463624280.178	 5	 0.009495	 -0.072081	 0.077099	 1.880212	 -1.246528	 -0.809560	 -0.058134	 0.738329	 -0.621874	 0.254486	 1
1463624280.188	 5	 -0.004413	 -0.074213	 0.070806	 1.878851	 -1.245830	 -0.810218	 -0.058096	 0.738260	 -0.621755	 0.254985	 1
1463624280.198	 5	 -0.016243	 -0.086975	 0.064366	 1.881505	 -1.247138	 -0.806942	 -0.058890	 0.738342	 -0.621721	 0.254647	 1
1463624280.208	 5	 -0.022726	 -0.090256	 0.048380	 1.882346	 -1.248289	 -0.805269	 -0.059606	 0.738258	 -0.621803	 0.254527	 1
1463624280.218	 5	 -0.030202	 -0.084963	 0.041018	 1.883502	 -1.248855	 -0.803310	 -0.060146	 0.738276	 -0.621721	 0.254547	 1
1463624280.228	 5	 -0.029185	 -0.094544	 0.039842	 1.883750	 -1.249238	 -0.802143	 -0.060619	 0.738225	 -0.621670	 0.254709	 1
1463624280.238	 5	 -0.032348	 -0.084977	 0.037821	 1.883057	 -1.249231	 -0.801921	 -0.060914	 0.738131	 -0.621619	 0.255035	 1
1463624280.248	 5	 -0.035545	 -0.086018	 0.039972	 1.882016	 -1.248738	 -0.802036	 -0.061041	 0.738063	 -0.621486	 0.255525	 1
1463624280.258	 5	 -0.031269	 -0.087085	 0.042058	 1.880017	 -1.248261	 -0.803051	 -0.061139	 0.737897	 -0.621443	 0.256084	 1
1463624280.268	 5	 -0.030179	 -0.091280	 0.051606	 1.877205	 -1.247557	 -0.804811	 -0.061143	 0.737677	 -0.621418	 0.256776	 1
1463624280.278	 5	 -0.022685	 -0.089168	 0.053695	 1.873950	 -1.246940	 -0.807026	 -0.061145	 0.737402	 -0.621459	 0.257465	 1
1463624280.288	 5	 -0.010889	 -0.082790	 0.058983	 1.870432	 -1.246317	 -0.809573	 -0.061104	 0.737102	 -0.621535	 0.258150	 1
1463624280.298	 5	 0.000918	 -0.072172	 0.062178	 1.867148	 -1.245751	 -0.812022	 -0.061044	 0.736820	 -0.621620	 0.258762	 1
1463624280.308	 5	 0.020140	 -0.064835	 0.055684	 1.864007	 -1.245401	 -0.814459	 -0.061013	 0.736530	 -0.621759	 0.259263	 1
1463624280.318	 5	 0.024507	 -0.039368	 0.049483	 1.861692	 -1.245421	 -0.816349	 -0.061042	 0.736285	 -0.621938	 0.259521	 1
1463624280.328	 5	 0.021348	 -0.031894	 0.051704	 1.861186	 -1.245401	 -0.816621	 -0.061093	 0.736230	 -0.621953	 0.259629	 1
1463624280.338	 5	 0.014961	 -0.024455	 0.047556	 1.861297	 -1.245525	 -0.816361	 -0.061194	 0.736222	 -0.621952	 0.259633	 1
1463624280.348	 5	 0.003171	 -0.022383	 0.033802	 1.863541	 -1.246313	 -0.814078	 -0.061585	 0.736349	 -0.621906	 0.259289	 1
1463624280.358	 5	 -0.010770	 -0.025622	 0.021096	 1.864167	 -1.246518	 -0.813254	 -0.061758	 0.736380	 -0.621865	 0.259256	 1
1463624280.368	 5	 -0.019394	 -0.036303	 0.011474	 1.863924	 -1.246730	 -0.813127	 -0.061947	 0.736320	 -0.621890	 0.259324	 1
1463624280.378	 5	 -0.019427	 -0.036365	 0.002946	 1.863831	 -1.246734	 -0.812785	 -0.062103	 0.736296	 -0.621844	 0.259463	 1
1463624280.388	 5	 -0.022584	 -0.034167	 0.011518	 1.863816	 -1.246677	 -0.812424	 -0.062223	 0.736290	 -0.621783	 0.259597	 1
1463624280.398	 5	 -0.017248	 -0.039466	 0.016750	 1.862881	 -1.246653	 -0.812903	 -0.062330	 0.736187	 -0.621811	 0.259800	 1
1463624280.408	 5	 -0.009780	 -0.038442	 0.014561	 1.862214	 -1.246629	 -0.813138	 -0.062443	 0.736110	 -0.621815	 0.259979	 1
1463624280.418	 5	 -0.002289	 -0.034210	 0.014533	 1.861684	 -1.246620	 -0.813309	 -0.062542	 0.736047	 -0.621819	 0.260124	 1
1463624280.428	 5	 0.000940	 -0.026789	 0.012440	 1.861171	 -1.246625	 -0.813533	 -0.062620	 0.735987	 -0.621833	 0.260241	 1
1463624280.438	 5	 -0.002253	 -0.022549	 0.009308	 1.860732	 -1.246649	 -0.813732	 -0.062692	 0.735933	 -0.621851	 0.260334	 1
1463624280.448	 5	 -0.003289	 -0.018277	 0.011486	 1.859980	 -1.246726	 -0.814260	 -0.062755	 0.735843	 -0.621914	 0.260424	 1
1463624280.458	 5	 0.000966	 -0.018324	 0.007186	 1.858828	 -1.246679	 -0.815189	 -0.062757	 0.735728	 -0.621987	 0.260573	 1
1463624280.468	 5	 0.005254	 -0.014093	 0.006124	 1.857509	 -1.246615	 -0.816319	 -0.062731	 0.735599	 -0.622079	 0.260725	 1
1463624280.478	 5	 0.010623	 -0.009842	 0.008249	 1.856030	 -1.246596	 -0.817652	 -0.062695	 0.735450	 -0.622202	 0.260859	 1
1463624280.488	 5	 0.017053	 -0.005601	 0.009300	 1.854700	 -1.246545	 -0.818898	 -0.062635	 0.735321	 -0.622311	 0.260976	 1
1463624280.498	 5	 0.021347	 -0.003466	 0.012482	 1.853286	 -1.246415	 -0.820273	 -0.062528	 0.735195	 -0.622417	 0.261106	 1
1463624280.508	 5	 0.021395	 0.002946	 0.016807	 1.852365	 -1.246204	 -0.821244	 -0.062391	 0.735130	 -0.622467	 0.261203	 1
1463624280.518	 5	 0.018233	 0.009353	 0.019026	 1.851506	 -1.246058	 -0.822206	 -0.062258	 0.735065	 -0.622532	 0.261262	 1
1463624280.528	 5	 0.013983	 0.010452	 0.022270	 1.850932	 -1.245906	 -0.822910	 -0.062131	 0.735029	 -0.622572	 0.261298	 1
1463624280.538	 5	 0.009738	 0.012615	 0.025522	 1.850493	 -1.245835	 -0.823491	 -0.062031	 0.734998	 -0.622618	 0.261299	 1
1463624280.548	 5	 0.010801	 0.012605	 0.024443	 1.850174	 -1.245844	 -0.823962	 -0.061960	 0.734970	 -0.622672	 0.261267	 1
1463624280.558	 5	 0.010808	 0.014724	 0.023392	 1.849710	 -1.245903	 -0.824584	 -0.061895	 0.734922	 -0.622752	 0.261226	 1
1463624280.568	 5	 0.009740	 0.014718	 0.022329	 1.849010	 -1.246012	 -0.825439	 -0.061833	 0.734844	 -0.622867	 0.261186	 1
1463624280.578	 5	 0.012940	 0.014700	 0.021229	 1.848266	 -1.246172	 -0.826335	 -0.061786	 0.734756	 -0.622997	 0.261133	 1
1463624280.588	 5	 0.017198	 0.014664	 0.017986	 1.847621	 -1.246440	 -0.827152	 -0.061772	 0.734667	 -0.623144	 0.261038	 1
1463624280.598	 5	 0.020393	 0.015695	 0.014762	 1.846993	 -1.246739	 -0.827969	 -0.061763	 0.734575	 -0.623299	 0.260927	 1
1463624280.608	 5	 0.024681	 0.022041	 0.011580	 1.846439	 -1.246978	 -0.828771	 -0.061717	 0.734501	 -0.623440	 0.260810	 1
1463624280.618	 5	 0.024681	 0.022041	 0.011576	 1.845851	 -1.247137	 -0.829623	 -0.061638	 0.734432	 -0.623569	 0.260715	 1
1463624280.628	 5	 0.024667	 0.018850	 0.011545	 1.845075	 -1.247166	 -0.830632	 -0.061518	 0.734359	 -0.623683	 0.260676	 1
1463624280.638	 5	 0.022550	 0.018887	 0.015826	 1.844503	 -1.247160	 -0.831432	 -0.061401	 0.734309	 -0.623769	 0.260639	 1
1463624280.648	 5	 0.020422	 0.019957	 0.015852	 1.843929	 -1.247160	 -0.832238	 -0.061285	 0.734259	 -0.623856	 0.260598	 1
1463624280.658	 5	 0.017235	 0.022102	 0.016963	 1.843506	 -1.247156	 -0.832915	 -0.061166	 0.734225	 -0.623930	 0.260543	 1
1463624280.668	 5	 0.014065	 0.027437	 0.018104	 1.842996	 -1.247149	 -0.833703	 -0.061034	 0.734184	 -0.624016	 0.260487	 1
1463624280.678	 5	 0.011952	 0.030641	 0.019215	 1.842494	 -1.247118	 -0.834512	 -0.060884	 0.734146	 -0.624099	 0.260427	 1
1463624280.688	 5	 0.010878	 0.028515	 0.019202	 1.841930	 -1.247106	 -0.835370	 -0.060741	 0.734101	 -0.624191	 0.260370	 1
1463624280.698	 5	 0.013029	 0.029587	 0.021321	 1.841331	 -1.247138	 -0.836268	 -0.060609	 0.734046	 -0.624297	 0.260301	 1
1463624280.708	 5	 0.016241	 0.031705	 0.021308	 1.841086	 -1.247172	 -0.836857	 -0.060480	 0.734028	 -0.624374	 0.260197	 1
1463624280.728	 6	 0.011952	 0.028511	 0.019171	 1.840373	 -1.247426	 -0.838235	 -0.060278	 0.733949	 -0.624588	 0.259954	 1
1463624280.738	 6	 0.007657	 0.024253	 0.017029	 1.840170	 -1.247645	 -0.838710	 -0.060237	 0.733912	 -0.624692	 0.259816	 1
1463624280.748	 6	 0.005528	 0.019950	 0.014958	 1.839995	 -1.247904	 -0.839103	 -0.060230	 0.733872	 -0.624796	 0.259681	 1
1463624280.758	 6	 0.004425	 0.014612	 0.011713	 1.839655	 -1.248212	 -0.839599	 -0.060253	 0.733808	 -0.624919	 0.259561	 1
1463624280.768	 6	 0.004395	 0.010333	 0.008469	 1.839258	 -1.248608	 -0.840107	 -0.060317	 0.733728	 -0.625060	 0.259432	 1
1463624280.778	 6	 0.007576	 0.007116	 0.006273	 1.838660	 -1.248957	 -0.840773	 -0.060371	 0.733631	 -0.625207	 0.259340	 1
1463624280.788	 6	 0.011827	 0.003904	 0.005135	 1.838093	 -1.249270	 -0.841385	 -0.060423	 0.733541	 -0.625338	 0.259265	 1
1463624280.798	 6	 0.013939	 -0.000365	 0.004007	 1.837470	 -1.249539	 -0.842021	 -0.060471	 0.733450	 -0.625462	 0.259215	 1
1463624280.808	 6	 0.012881	 0.000710	 0.005089	 1.837186	 -1.249667	 -0.842346	 -0.060482	 0.733408	 -0.625523	 0.259181	 1
1463624280.818	 6	 0.010755	 0.000732	 0.007238	 1.836923	 -1.249686	 -0.842648	 -0.060459	 0.733381	 -0.625559	 0.259177	 1
1463624280.828	 6	 0.005421	 -0.001356	 0.010462	 1.836888	 -1.249637	 -0.842702	 -0.060435	 0.733384	 -0.625554	 0.259187	 1
1463624280.838	 6	 0.001131	 -0.005597	 0.010458	 1.837004	 -1.249594	 -0.842564	 -0.060435	 0.733400	 -0.625530	 0.259201	 1
1463624280.848	 6	 -0.003153	 -0.008775	 0.010464	 1.837002	 -1.249545	 -0.842492	 -0.060447	 0.733403	 -0.625510	 0.259238	 1
1463624280.858	 6	 -0.005287	 -0.008768	 0.010481	 1.837001	 -1.249524	 -0.842398	 -0.060475	 0.733402	 -0.625493	 0.259274	 1
1463624280.868	 6	 -0.003149	 -0.005607	 0.007292	 1.836774	 -1.249578	 -0.842545	 -0.060509	 0.733371	 -0.625517	 0.259295	 1
1463624280.878	 6	 0.000070	 -0.001371	 0.006236	 1.836498	 -1.249630	 -0.842786	 -0.060524	 0.733337	 -0.625552	 0.259306	 1
1463624280.888	 6	 0.003294	 0.003930	 0.005190	 1.836117	 -1.249689	 -0.843189	 -0.060514	 0.733293	 -0.625605	 0.259302	 1
1463624280.898	 6	 0.007597	 0.008194	 0.008388	 1.835711	 -1.249717	 -0.843674	 -0.060472	 0.733252	 -0.625662	 0.259291	 1
1463624280.908	 6	 0.008674	 0.009262	 0.009453	 1.835356	 -1.249772	 -0.844139	 -0.060430	 0.733214	 -0.625724	 0.259260	 1
1463624280.918	 6	 0.007608	 0.008209	 0.010515	 1.834964	 -1.249826	 -0.844627	 -0.060391	 0.733172	 -0.625787	 0.259235	 1
1463624280.928	 6	 0.002262	 0.005042	 0.011595	 1.834809	 -1.249919	 -0.844850	 -0.060388	 0.733148	 -0.625832	 0.259194	 1
1463624280.938	 6	 -0.002006	 0.003999	 0.012684	 1.834817	 -1.249960	 -0.844892	 -0.060383	 0.733146	 -0.625846	 0.259167	 1
1463624280.948	 6	 -0.004154	 0.001870	 0.011613	 1.834909	 -1.250049	 -0.844831	 -0.060405	 0.733146	 -0.625861	 0.259126	 1
1463624280.958	 6	 -0.003101	 -0.000268	 0.010513	 1.835033	 -1.250186	 -0.844718	 -0.060452	 0.733143	 -0.625880	 0.259075	 1
1463624280.968	 6	 -0.003124	 -0.002418	 0.007291	 1.835218	 -1.250367	 -0.844525	 -0.060522	 0.733141	 -0.625901	 0.259014	 1
1463624280.978	 6	 -0.008493	 -0.006679	 0.004095	 1.835608	 -1.250563	 -0.844081	 -0.060626	 0.733157	 -0.625899	 0.258953	 1
1463624280.988	 6	 -0.017083	 -0.015186	 0.000888	 1.836018	 -1.250738	 -0.843520	 -0.060759	 0.733173	 -0.625877	 0.258927	 1
1463624280.998	 6	 -0.022448	 -0.021552	 0.000872	 1.836340	 -1.250865	 -0.842960	 -0.060904	 0.733184	 -0.625842	 0.258947	 1
1463624281.008	 6	 -0.024582	 -0.024714	 0.004057	 1.836457	 -1.250884	 -0.842546	 -0.061025	 0.733184	 -0.625797	 0.259028	 1
1463624281.018	 6	 -0.022454	 -0.025793	 0.002961	 1.836404	 -1.250909	 -0.842284	 -0.061146	 0.733167	 -0.625767	 0.259122	 1
1463624281.038	 7	 -0.011795	 -0.031139	 0.003881	 1.835432	 -1.250979	 -0.842566	 -0.061369	 0.733041	 -0.625789	 0.259369	 1
1463624281.048	 7	 -0.005400	 -0.033286	 0.003804	 1.834950	 -1.251020	 -0.842700	 -0.061484	 0.732978	 -0.625801	 0.259492	 1
1463624281.058	 7	 -0.004326	 -0.031170	 0.002746	 1.834607	 -1.251096	 -0.842714	 -0.061611	 0.732926	 -0.625809	 0.259591	 1
1463624281.068	 7	 -0.005392	 -0.027999	 -0.000414	 1.834652	 -1.251166	 -0.842388	 -0.061738	 0.732914	 -0.625783	 0.259656	 1
1463624281.078	 7	 -0.005388	 -0.025878	 -0.001462	 1.834999	 -1.251204	 -0.841789	 -0.061861	 0.732936	 -0.625724	 0.259705	 1
1463624281.088	 7	 -0.008590	 -0.022700	 -0.004602	 1.835435	 -1.251180	 -0.841137	 -0.061956	 0.732975	 -0.625648	 0.259756	 1
1463624281.098	 7	 -0.012845	 -0.019495	 -0.004534	 1.835898	 -1.251145	 -0.840473	 -0.062044	 0.733019	 -0.625568	 0.259805	 1
1463624281.108	 7	 -0.019221	 -0.016262	 -0.001250	 1.836388	 -1.251066	 -0.839793	 -0.062114	 0.733070	 -0.625478	 0.259861	 1
1463624281.118	 7	 -0.019213	 -0.016246	 0.000881	 1.836899	 -1.250994	 -0.839099	 -0.062186	 0.733123	 -0.625387	 0.259911	 1
1463624281.128	 7	 -0.018137	 -0.016234	 0.003002	 1.837224	 -1.250983	 -0.838582	 -0.062270	 0.733150	 -0.625328	 0.259957	 1
1463624281.138	 7	 -0.016000	 -0.015185	 0.001926	 1.837348	 -1.251016	 -0.838272	 -0.062356	 0.733153	 -0.625299	 0.259999	 1
1463624281.148	 7	 -0.013859	 -0.014129	 0.001915	 1.837297	 -1.251062	 -0.838135	 -0.062437	 0.733137	 -0.625290	 0.260047	 1
1463624281.158	 7	 -0.011729	 -0.016255	 0.002940	 1.837258	 -1.251126	 -0.837990	 -0.062522	 0.733120	 -0.625284	 0.260088	 1
1463624281.168	 7	 -0.010675	 -0.020506	 0.003955	 1.837144	 -1.251185	 -0.837878	 -0.062618	 0.733095	 -0.625279	 0.260148	 1
1463624281.178	 7	 -0.009620	 -0.021589	 0.001802	 1.837019	 -1.251232	 -0.837764	 -0.062714	 0.733070	 -0.625270	 0.260215	 1
1463624281.188	 7	 -0.010682	 -0.021578	 0.002876	 1.836942	 -1.251274	 -0.837603	 -0.062810	 0.733051	 -0.625256	 0.260281	 1
1463624281.198	 7	 -0.011758	 -0.023702	 0.002864	 1.836905	 -1.251280	 -0.837386	 -0.062903	 0.733038	 -0.625228	 0.260361	 1
1463624281.208	 7	 -0.011762	 -0.024766	 0.002853	 1.836884	 -1.251267	 -0.837144	 -0.062995	 0.733029	 -0.625193	 0.260448	 1
1463624281.218	 7	 -0.010681	 -0.022634	 0.003930	 1.837051	 -1.251196	 -0.836737	 -0.063069	 0.733046	 -0.625130	 0.260535	 1
1463624281.228	 7	 -0.010667	 -0.020499	 0.005015	 1.837155	 -1.251129	 -0.836404	 -0.063137	 0.733057	 -0.625075	 0.260621	 1
1463624281.238	 7	 -0.010663	 -0.019435	 0.005024	 1.837390	 -1.251041	 -0.835970	 -0.063194	 0.733084	 -0.625006	 0.260696	 1
1463624281.248	 7	 -0.009593	 -0.018374	 0.005025	 1.837689	 -1.250949	 -0.835480	 -0.063251	 0.733118	 -0.624931	 0.260766	 1
1463624281.258	 7	 -0.010665	 -0.018379	 0.003969	 1.837912	 -1.250860	 -0.835070	 -0.063303	 0.733144	 -0.624865	 0.260839	 1
1463624281.268	 7	 -0.010655	 -0.016251	 0.003988	 1.838016	 -1.250799	 -0.834777	 -0.063359	 0.733155	 -0.624816	 0.260910	 1
1463624281.278	 7	 -0.008510	 -0.014131	 0.003991	 1.837943	 -1.250680	 -0.834683	 -0.063378	 0.733156	 -0.624775	 0.261001	 1
1463624281.288	 7	 -0.006352	 -0.010931	 0.006134	 1.837894	 -1.250584	 -0.834599	 -0.063393	 0.733158	 -0.624741	 0.261074	 1
1463624281.298	 7	 -0.004186	 -0.004556	 0.006175	 1.837769	 -1.250486	 -0.834645	 -0.063384	 0.733154	 -0.624722	 0.261134	 1
1463624281.308	 7	 0.000101	 -0.002426	 0.008291	 1.837680	 -1.250364	 -0.834705	 -0.063351	 0.733158	 -0.624699	 0.261183	 1
1463624281.318	 7	 -0.000938	 0.000791	 0.011527	 1.837568	 -1.250246	 -0.834816	 -0.063308	 0.733160	 -0.624684	 0.261224	 1
1463624281.328	 7	 -0.004145	 0.000793	 0.010490	 1.837705	 -1.250117	 -0.834691	 -0.063270	 0.733189	 -0.624643	 0.261251	 1
1463624281.338	 7	 -0.006270	 0.001871	 0.011585	 1.837785	 -1.249947	 -0.834630	 -0.063213	 0.733216	 -0.624600	 0.261291	 1
1463624281.348	 7	 -0.011605	 0.002943	 0.010576	 1.838007	 -1.249793	 -0.834424	 -0.063170	 0.733256	 -0.624546	 0.261319	 1
1463624281.358	 7	 -0.011595	 0.006126	 0.009539	 1.838501	 -1.249695	 -0.833976	 -0.063149	 0.733318	 -0.624481	 0.261306	 1
1463624281.368	 7	 -0.011585	 0.008254	 0.009556	 1.838866	 -1.249670	 -0.833674	 -0.063137	 0.733359	 -0.624448	 0.261274	 1
1463624281.378	 7	 -0.010517	 0.007194	 0.010601	 1.839019	 -1.249640	 -0.833571	 -0.063118	 0.733379	 -0.624432	 0.261259	 1
1463624281.388	 7	 -0.006240	 0.008244	 0.010571	 1.838928	 -1.249653	 -0.833722	 -0.063095	 0.733370	 -0.624452	 0.261241	 1
1463624281.398	 7	 -0.003036	 0.010346	 0.008428	 1.838931	 -1.249707	 -0.833814	 -0.063078	 0.733367	 -0.624476	 0.261195	 1
1463624281.408	 7	 -0.004116	 0.008214	 0.007349	 1.838958	 -1.249749	 -0.833868	 -0.063063	 0.733368	 -0.624493	 0.261156	 1
1463624281.418	 7	 -0.007329	 0.006088	 0.006288	 1.838883	 -1.249817	 -0.833994	 -0.063062	 0.733354	 -0.624523	 0.261124	 1
1463624281.428	 7	 -0.006270	 0.003957	 0.006257	 1.838929	 -1.249841	 -0.833977	 -0.063061	 0.733357	 -0.624527	 0.261106	 1
1463624281.438	 7	 -0.000922	 0.005011	 0.007284	 1.838673	 -1.249856	 -0.834261	 -0.063042	 0.733331	 -0.624560	 0.261107	 1
1463624281.448	 7	 0.005510	 0.009262	 0.009398	 1.838471	 -1.249844	 -0.834550	 -0.062995	 0.733315	 -0.624588	 0.261094	 1
1463624281.458	 7	 0.009787	 0.008208	 0.012548	 1.838127	 -1.249784	 -0.835002	 -0.062918	 0.733291	 -0.624623	 0.261096	 1
1463624281.468	 7	 0.008707	 0.005029	 0.013593	 1.838038	 -1.249686	 -0.835184	 -0.062848	 0.733296	 -0.624622	 0.261101	 1
1463624281.478	 7	 0.004421	 0.000795	 0.014655	 1.838003	 -1.249594	 -0.835258	 -0.062802	 0.733304	 -0.624610	 0.261118	 1
1463624281.488	 7	 -0.001963	 0.004013	 0.015805	 1.838055	 -1.249500	 -0.835243	 -0.062761	 0.733321	 -0.624589	 0.261131	 1
1463624281.498	 7	 -0.003009	 0.009327	 0.014796	 1.838097	 -1.249400	 -0.835287	 -0.062700	 0.733339	 -0.624574	 0.261131	 1
1463624281.508	 7	 0.001300	 0.017824	 0.014836	 1.838254	 -1.249340	 -0.835294	 -0.062629	 0.733367	 -0.624566	 0.261089	 1
1463624281.518	 7	 0.005573	 0.022035	 0.010572	 1.838173	 -1.249359	 -0.835595	 -0.062550	 0.733364	 -0.624607	 0.261019	 1
1463624281.528	 7	 0.010911	 0.024131	 0.008408	 1.838108	 -1.249520	 -0.835925	 -0.062501	 0.733347	 -0.624684	 0.260893	 1
1463624281.538	 7	 0.007706	 0.023085	 0.009492	 1.838342	 -1.249432	 -0.835963	 -0.062386	 0.733389	 -0.624677	 0.260820	 1
1463624281.548	 7	 0.001286	 0.019914	 0.009517	 1.838663	 -1.249361	 -0.835876	 -0.062295	 0.733436	 -0.624660	 0.260751	 1
1463624281.558	 7	 -0.007268	 0.015693	 0.010616	 1.839030	 -1.249321	 -0.835674	 -0.062241	 0.733482	 -0.624636	 0.260691	 1
1463624281.568	 7	 -0.012598	 0.014660	 0.012780	 1.839306	 -1.249319	 -0.835525	 -0.062209	 0.733514	 -0.624625	 0.260637	 1
1463624281.578	 7	 -0.012603	 0.013588	 0.011700	 1.839399	 -1.249397	 -0.835543	 -0.062199	 0.733518	 -0.624647	 0.260575	 1
1463624281.588	 7	 -0.004056	 0.015681	 0.010575	 1.839216	 -1.249489	 -0.835852	 -0.062172	 0.733493	 -0.624702	 0.260518	 1
1463624281.598	 7	 0.006639	 0.017790	 0.012629	 1.838687	 -1.249574	 -0.836539	 -0.062112	 0.733436	 -0.624794	 0.260472	 1
1463624281.608	 7	 0.004478	 0.007198	 0.017875	 1.838233	 -1.249564	 -0.837096	 -0.062047	 0.733395	 -0.624851	 0.260468	 1
1463624281.618	 7	 -0.003027	 -0.003394	 0.021036	 1.837841	 -1.249535	 -0.837481	 -0.062018	 0.733359	 -0.624882	 0.260500	 1
1463624281.628	 7	 -0.018028	 -0.019282	 0.024213	 1.837768	 -1.249383	 -0.837376	 -0.062031	 0.733364	 -0.624832	 0.260604	 1
1463624281.638	 7	 -0.024486	 -0.034131	 0.027326	 1.837648	 -1.249200	 -0.837146	 -0.062095	 0.733361	 -0.624758	 0.260774	 1
1463624281.648	 7	 -0.018286	 -0.078818	 0.027919	 1.836836	 -1.249046	 -0.837311	 -0.062239	 0.733278	 -0.624720	 0.261065	 1
1463624281.658	 7	 -0.016467	 -0.138462	 0.017754	 1.835082	 -1.248964	 -0.837741	 -0.062603	 0.733071	 -0.624703	 0.261598	 1
1463624281.668	 7	 -0.038956	 -0.162807	 0.025183	 1.833353	 -1.248734	 -0.837807	 -0.063045	 0.732873	 -0.624606	 0.262278	 1
1463624281.678	 7	 -0.088076	 -0.182763	 0.040345	 1.832892	 -1.248252	 -0.836371	 -0.063561	 0.732820	 -0.624296	 0.263037	 1
1463624281.688	 7	 -0.183622	 -0.296372	 0.029455	 1.833419	 -1.247895	 -0.832950	 -0.064536	 0.732820	 -0.623783	 0.264016	 1
1463624281.698	 7	 -0.275774	 -0.350531	 0.003092	 1.839476	 -1.247658	 -0.823229	 -0.066136	 0.733330	 -0.622642	 0.264894	 1
1463624281.708	 7	 -0.412192	 -0.422565	 0.134698	 1.845567	 -1.245825	 -0.812505	 -0.067594	 0.733993	 -0.621006	 0.266527	 1
1463624281.718	 7	 -0.466433	 -0.355638	 0.101689	 1.853736	 -1.243339	 -0.799865	 -0.068917	 0.734947	 -0.619025	 0.268162	 1
1463624281.728	 7	 -0.468524	 -0.214251	 -0.055776	 1.864614	 -1.242163	 -0.785732	 -0.070383	 0.736058	 -0.617232	 0.268867	 1
1463624281.738	 7	 -0.468717	 -0.175555	 -0.147077	 1.878947	 -1.242130	 -0.768946	 -0.072139	 0.737391	 -0.615479	 0.268769	 1
1463624281.748	 7	 -0.470021	 -0.224489	 -0.148587	 1.891252	 -1.242135	 -0.753686	 -0.073989	 0.738487	 -0.613878	 0.268918	 1
1463624281.758	 7	 -0.441131	 -0.262396	 -0.084180	 1.902336	 -1.241651	 -0.739342	 -0.075743	 0.739506	 -0.612244	 0.269354	 1
1463624281.768	 7	 -0.338506	 -0.269798	 -0.035022	 1.910132	 -1.240868	 -0.728235	 -0.077229	 0.740240	 -0.610849	 0.270082	 1
1463624281.778	 7	 -0.242235	 -0.251767	 -0.002657	 1.913494	 -1.240374	 -0.721743	 -0.078457	 0.740510	 -0.609977	 0.270955	 1
1463624281.788	 7	 -0.125540	 -0.157580	 -0.020914	 1.916028	 -1.239977	 -0.717147	 -0.079266	 0.740728	 -0.609354	 0.271527	 1
1463624281.798	 7	 -0.029275	 -0.059395	 -0.082653	 1.917277	 -1.240417	 -0.714947	 -0.079833	 0.740749	 -0.609216	 0.271614	 1
1463624281.808	 7	 0.043397	 0.004908	 -0.132767	 1.917687	 -1.241657	 -0.714409	 -0.080282	 0.740608	 -0.609474	 0.271287	 1
1463624281.818	 7	 0.110720	 0.042818	 -0.157523	 1.915895	 -1.244088	 -0.716558	 -0.080768	 0.740108	 -0.610308	 0.270631	 1
1463624281.828	 7	 0.153426	 0.058545	 -0.171603	 1.914113	 -1.246160	 -0.719029	 -0.081025	 0.739675	 -0.611092	 0.269969	 1
1463624281.838	 7	 0.167252	 0.064747	 -0.190850	 1.911947	 -1.248463	 -0.721979	 -0.081294	 0.739178	 -0.611980	 0.269235	 1
1463624281.848	 7	 0.158732	 0.075347	 -0.199203	 1.910104	 -1.250866	 -0.724672	 -0.081593	 0.738702	 -0.612867	 0.268431	 1
1463624281.858	 7	 0.142766	 0.081810	 -0.194744	 1.909875	 -1.253251	 -0.725937	 -0.081920	 0.738388	 -0.613622	 0.267470	 1
1463624281.868	 7	 0.147614	 -0.028758	 -0.186224	 1.907646	 -1.255521	 -0.728259	 -0.082437	 0.737867	 -0.614405	 0.266953	 1
1463624281.878	 7	 0.175963	 0.043959	 -0.120782	 1.904230	 -1.257418	 -0.731993	 -0.082688	 0.737299	 -0.615231	 0.266540	 1
1463624281.888	 7	 0.139627	 0.186157	 -0.033882	 1.901831	 -1.258422	 -0.736117	 -0.082213	 0.737010	 -0.615928	 0.265877	 1
1463624281.898	 7	 0.068733	 0.268695	 0.025058	 1.904102	 -1.258167	 -0.736631	 -0.081246	 0.737368	 -0.616026	 0.264952	 1
1463624281.908	 7	 0.016768	 0.286310	 0.086423	 1.905404	 -1.257591	 -0.738258	 -0.080069	 0.737686	 -0.616152	 0.264131	 1
1463624281.918	 7	 -0.007774	 0.238936	 0.143747	 1.906745	 -1.256351	 -0.739521	 -0.078812	 0.738085	 -0.616067	 0.263592	 1
1463624281.928	 7	 -0.000517	 0.159439	 0.184508	 1.906886	 -1.254684	 -0.741255	 -0.077620	 0.738402	 -0.615891	 0.263469	 1
1463624281.938	 7	 0.023911	 0.112747	 0.209452	 1.904036	 -1.252307	 -0.745376	 -0.076250	 0.738512	 -0.615740	 0.263913	 1
1463624281.948	 7	 0.043162	 0.130835	 0.214917	 1.902051	 -1.250402	 -0.748761	 -0.075028	 0.738637	 -0.615645	 0.264135	 1
1463624281.958	 7	 0.055045	 0.181678	 0.190775	 1.900301	 -1.248693	 -0.752369	 -0.073710	 0.738771	 -0.615638	 0.264148	 1
1463624281.968	 7	 0.053076	 0.254745	 0.145644	 1.899598	 -1.247375	 -0.755589	 -0.072332	 0.738972	 -0.615715	 0.263785	 1
1463624281.988	 8	 0.047721	 0.346466	 0.031437	 1.902137	 -1.246526	 -0.759762	 -0.069747	 0.739568	 -0.616147	 0.261799	 1
1463624281.998	 8	 0.041183	 0.347294	 -0.003669	 1.904386	 -1.246637	 -0.761082	 -0.068600	 0.739892	 -0.616424	 0.260529	 1
1463624282.008	 8	 0.033397	 0.301401	 -0.028541	 1.906787	 -1.246963	 -0.761874	 -0.067667	 0.740188	 -0.616688	 0.259305	 1
1463624282.018	 8	 0.013892	 0.250301	 -0.042696	 1.908686	 -1.247200	 -0.762579	 -0.066893	 0.740425	 -0.616901	 0.258319	 1
1463624282.038	 8	 -0.012182	 0.133544	 -0.020109	 1.913239	 -1.247806	 -0.761583	 -0.066043	 0.740897	 -0.617073	 0.256770	 1
1463624282.048	 9	 -0.004886	 0.077317	 0.002751	 1.914355	 -1.247810	 -0.761344	 -0.065788	 0.741032	 -0.617080	 0.256429	 1
1463624282.058	 9	 0.003604	 0.053996	 0.017394	 1.913045	 -1.247123	 -0.763148	 -0.065314	 0.741016	 -0.617100	 0.256550	 1
1463624282.068	 9	 0.021617	 0.024182	 0.020157	 1.912746	 -1.246983	 -0.763814	 -0.065116	 0.741018	 -0.617141	 0.256495	 1
1463624282.078	 9	 0.059952	 0.012321	 0.013318	 1.911321	 -1.246991	 -0.765448	 -0.064953	 0.740887	 -0.617306	 0.256516	 1
1463624282.088	 9	 0.094106	 0.037538	 -0.015520	 1.909273	 -1.247356	 -0.767932	 -0.064777	 0.740656	 -0.617647	 0.256406	 1
1463624282.108	 10	 0.142365	 0.117963	 -0.052510	 1.905026	 -1.249822	 -0.774226	 -0.064518	 0.739990	 -0.618915	 0.255338	 1
1463624282.118	 10	 0.139310	 0.169070	 -0.050782	 1.904098	 -1.250888	 -0.776948	 -0.064127	 0.739818	 -0.619489	 0.254538	 1
1463624282.128	 10	 0.117218	 0.228782	 -0.039376	 1.904687	 -1.251552	 -0.778742	 -0.063485	 0.739863	 -0.619896	 0.253577	 1
1463624282.138	 10	 0.075923	 0.286455	 -0.023558	 1.907104	 -1.251828	 -0.779271	 -0.062625	 0.740149	 -0.620106	 0.252441	 1
1463624282.148	 10	 0.031422	 0.335673	 -0.001397	 1.909211	 -1.252034	 -0.780479	 -0.061587	 0.740425	 -0.620373	 0.251228	 1
1463624282.158	 10	 -0.004884	 0.332575	 -0.003241	 1.912515	 -1.252053	 -0.780546	 -0.060544	 0.740838	 -0.620487	 0.249978	 1
1463624282.168	 10	 -0.019980	 0.312302	 -0.018219	 1.916351	 -1.252122	 -0.779845	 -0.059634	 0.741286	 -0.620532	 0.248755	 1
1463624282.178	 10	 -0.016826	 0.309049	 -0.025749	 1.921402	 -1.252879	 -0.777910	 -0.059017	 0.741754	 -0.620625	 0.247270	 1
1463624282.188	 10	 -0.009409	 0.306822	 -0.036492	 1.925164	 -1.253156	 -0.777190	 -0.058201	 0.742159	 -0.620714	 0.246020	 1
1463624282.198	 10	 -0.006167	 0.321649	 -0.043843	 1.928937	 -1.253541	 -0.776519	 -0.057396	 0.742551	 -0.620835	 0.244719	 1
1463624282.208	 10	 0.003440	 0.330060	 -0.053440	 1.932907	 -1.253994	 -0.775910	 -0.056528	 0.742956	 -0.620985	 0.243307	 1
1463624282.218	 10	 0.033986	 0.259633	 -0.072484	 1.934752	 -1.255094	 -0.776782	 -0.055965	 0.743055	 -0.621412	 0.242042	 1
1463624282.228	 10	 0.041352	 0.229897	 -0.063233	 1.936650	 -1.255860	 -0.777247	 -0.055435	 0.743192	 -0.621709	 0.240978	 1
1463624282.238	 10	 0.038154	 0.223587	 -0.054738	 1.938433	 -1.256522	 -0.777746	 -0.054897	 0.743329	 -0.621981	 0.239975	 1
1463624282.248	 10	 0.037065	 0.216167	 -0.051600	 1.940112	 -1.257137	 -0.778264	 -0.054369	 0.743460	 -0.622240	 0.239017	 1
1463624282.258	 10	 0.041361	 0.217257	 -0.046301	 1.941573	 -1.257911	 -0.778995	 -0.053877	 0.743547	 -0.622557	 0.238030	 1
1463624282.268	 10	 0.048755	 0.205495	 -0.051810	 1.942982	 -1.258893	 -0.779724	 -0.053465	 0.743598	 -0.622923	 0.237003	 1
1463624282.278	 10	 0.057097	 0.180003	 -0.049616	 1.943934	 -1.260149	 -0.780697	 -0.053188	 0.743563	 -0.623371	 0.235994	 1
1463624282.288	 10	 0.070859	 0.153392	 -0.046793	 1.943911	 -1.261306	 -0.782382	 -0.052920	 0.743445	 -0.623853	 0.235152	 1
1463624282.298	 10	 0.079295	 0.129981	 -0.044957	 1.943167	 -1.262323	 -0.784564	 -0.052649	 0.743275	 -0.624338	 0.234462	 1
1463624282.308	 10	 0.075014	 0.116259	 -0.032262	 1.942448	 -1.263182	 -0.786549	 -0.052397	 0.743124	 -0.624762	 0.233867	 1
1463624282.318	 10	 0.046298	 0.117579	 -0.008556	 1.942908	 -1.263658	 -0.787371	 -0.052092	 0.743134	 -0.624986	 0.233305	 1
1463624282.328	 10	 0.016493	 0.113593	 0.016178	 1.943940	 -1.263682	 -0.787546	 -0.051712	 0.743255	 -0.625039	 0.232861	 1
1463624282.338	 10	 0.000611	 0.121257	 0.039837	 1.945460	 -1.263087	 -0.787265	 -0.051161	 0.743507	 -0.624900	 0.232551	 1
1463624282.348	 10	 -0.001372	 0.132094	 0.066604	 1.947018	 -1.262121	 -0.787092	 -0.050446	 0.743817	 -0.624683	 0.232297	 1
1463624282.358	 10	 0.008119	 0.087578	 0.091691	 1.947378	 -1.260970	 -0.787857	 -0.049700	 0.744037	 -0.624499	 0.232249	 1
1463624282.368	 10	 0.026329	 -0.155775	 0.128700	 1.943360	 -1.260058	 -0.790865	 -0.049559	 0.743770	 -0.624527	 0.233061	 1
1463624282.378	 10	 -0.045084	 -0.152246	 0.146399	 1.941049	 -1.259119	 -0.791563	 -0.049735	 0.743645	 -0.624322	 0.233967	 1
1463624282.388	 10	 -0.053103	 -0.025790	 0.127394	 1.941470	 -1.257709	 -0.790619	 -0.049525	 0.743863	 -0.623878	 0.234502	 1
1463624282.398	 10	 -0.004880	 0.027156	 0.114683	 1.940386	 -1.256267	 -0.791916	 -0.048942	 0.743963	 -0.623652	 0.234907	 1
1463624282.408	 10	 0.034504	 -0.000573	 0.120480	 1.936785	 -1.255209	 -0.795632	 -0.048361	 0.743773	 -0.623743	 0.235386	 1
1463624282.418	 10	 0.059979	 -0.053573	 0.141343	 1.931903	 -1.254827	 -0.800193	 -0.048071	 0.743359	 -0.624070	 0.235887	 1
1463624282.428	 10	 0.092913	 -0.084535	 0.138622	 1.926250	 -1.255005	 -0.805216	 -0.048024	 0.742789	 -0.624571	 0.236369	 1
1463624282.438	 10	 0.124740	 -0.083915	 0.090391	 1.920944	 -1.254424	 -0.809906	 -0.047762	 0.742349	 -0.624860	 0.237039	 1
1463624282.448	 10	 0.152238	 -0.096046	 0.042079	 1.915257	 -1.254428	 -0.814925	 -0.047678	 0.741793	 -0.625320	 0.237579	 1
1463624282.458	 10	 0.153153	 -0.105815	 0.015336	 1.909562	 -1.254738	 -0.819816	 -0.047742	 0.741193	 -0.625839	 0.238072	 1
1463624282.468	 10	 0.154107	 -0.109186	 -0.009228	 1.905021	 -1.256075	 -0.823548	 -0.048196	 0.740574	 -0.626489	 0.238201	 1
1463624282.478	 10	 0.143382	 -0.094487	 -0.039905	 1.900087	 -1.256867	 -0.827698	 -0.048453	 0.739987	 -0.627049	 0.238498	 1
1463624282.488	 10	 0.125202	 -0.085014	 -0.060974	 1.896013	 -1.257819	 -0.831065	 -0.048782	 0.739465	 -0.627572	 0.238674	 1
1463624282.498	 10	 0.105994	 -0.089172	 -0.055517	 1.892470	 -1.258728	 -0.833874	 -0.049140	 0.738999	 -0.628030	 0.238839	 1
1463624282.508	 10	 0.079421	 -0.095218	 -0.020172	 1.890746	 -1.259218	 -0.834849	 -0.049475	 0.738757	 -0.628217	 0.239027	 1
1463624282.518	 10	 0.052892	 -0.105412	 0.030055	 1.887792	 -1.259242	 -0.836877	 -0.049661	 0.738451	 -0.628392	 0.239474	 1
1463624282.528	 10	 0.024215	 -0.123006	 0.085560	 1.884991	 -1.258659	 -0.838582	 -0.049729	 0.738228	 -0.628393	 0.240142	 1
1463624282.538	 10	 -0.003372	 -0.143726	 0.150619	 1.882242	 -1.257397	 -0.840010	 -0.049669	 0.738085	 -0.628209	 0.241075	 1
1463624282.548	 10	 -0.027782	 -0.160277	 0.205038	 1.879804	 -1.255004	 -0.840956	 -0.049333	 0.738099	 -0.627718	 0.242375	 1
1463624282.558	 10	 -0.046911	 -0.179056	 0.247660	 1.877128	 -1.252605	 -0.841948	 -0.049051	 0.738083	 -0.627227	 0.243751	 1
1463624282.568	 10	 -0.048006	 -0.209683	 0.277226	 1.873936	 -1.249872	 -0.843136	 -0.048751	 0.738042	 -0.626673	 0.245354	 1
1463624282.578	 10	 -0.051291	 -0.263604	 0.320449	 1.870257	 -1.246775	 -0.844409	 -0.048455	 0.737980	 -0.626037	 0.247217	 1
1463624282.588	 10	 -0.035189	 -0.270867	 0.352212	 1.865203	 -1.243535	 -0.846836	 -0.048116	 0.737782	 -0.625482	 0.249268	 1
1463624282.598	 10	 -0.038384	 -0.267682	 0.350138	 1.860609	 -1.240088	 -0.848857	 -0.047713	 0.737645	 -0.624845	 0.251339	 1
1463624282.608	 10	 -0.031852	 -0.261141	 0.374654	 1.855925	 -1.236484	 -0.851016	 -0.047234	 0.737506	 -0.624194	 0.253447	 1
1463624282.618	 10	 -0.018755	 -0.223743	 0.403664	 1.851018	 -1.232609	 -0.853731	 -0.046529	 0.737370	 -0.623552	 0.255545	 1
1463624282.628	 10	 -0.014952	 -0.137248	 0.452395	 1.846414	 -1.228370	 -0.856899	 -0.045442	 0.737309	 -0.622901	 0.257499	 1
1463624282.638	 10	 -0.020234	 0.016650	 0.551923	 1.842666	 -1.223265	 -0.860587	 -0.043615	 0.737446	 -0.622150	 0.259232	 1
1463624282.648	 10	 -0.024204	 0.196296	 0.682587	 1.840053	 -1.216955	 -0.864987	 -0.040781	 0.737851	 -0.621254	 0.260682	 1
1463624282.658	 10	 -0.037860	 0.381097	 0.786738	 1.838783	 -1.209472	 -0.869881	 -0.036965	 0.738537	 -0.620194	 0.261833	 1
1463624282.668	 10	 -0.007254	 0.424504	 0.917965	 1.837449	 -1.200952	 -0.875886	 -0.032419	 0.739306	 -0.619049	 0.262972	 1
1463624282.678	 10	 0.057800	 0.318784	 1.032582	 1.833147	 -1.191255	 -0.884219	 -0.027542	 0.739788	 -0.617911	 0.264843	 1
1463624282.688	 10	 0.098463	 0.141882	 1.001807	 1.826524	 -1.181692	 -0.893485	 -0.023065	 0.739897	 -0.616924	 0.267255	 1
1463624282.698	 10	 0.091814	 -0.108288	 0.968629	 1.817973	 -1.172486	 -0.902262	 -0.019464	 0.739642	 -0.615967	 0.270436	 1
1463624282.708	 10	 0.038398	 -0.349545	 0.972178	 1.808397	 -1.163233	 -0.909508	 -0.016713	 0.739167	 -0.614823	 0.274491	 1
1463624282.718	 10	 -0.045330	 -0.509415	 1.039629	 1.798725	 -1.153269	 -0.914828	 -0.014454	 0.738651	 -0.613293	 0.279389	 1
1463624282.728	 10	 -0.151635	 -0.510466	 1.144989	 1.790749	 -1.142104	 -0.917910	 -0.012087	 0.738378	 -0.611224	 0.284707	 1
1463624282.738	 10	 -0.239127	 -0.381704	 1.265249	 1.785470	 -1.129552	 -0.919133	 -0.009109	 0.738516	 -0.608611	 0.290007	 1
1463624282.748	 10	 -0.272503	 -0.315884	 1.343374	 1.781717	 -1.116048	 -0.919629	 -0.005607	 0.738883	 -0.605685	 0.295239	 1
1463624282.758	 10	 -0.290320	 -0.269899	 1.370601	 1.778913	 -1.102054	 -0.919670	 -0.001813	 0.739370	 -0.602572	 0.300392	 1
1463624282.768	 10	 -0.271080	 -0.244591	 1.348288	 1.776234	 -1.088240	 -0.919867	 0.002025	 0.739816	 -0.599506	 0.305387	 1
1463624282.778	 10	 -0.249702	 -0.237209	 1.348171	 1.773450	 -1.074528	 -0.920305	 0.005895	 0.740191	 -0.596484	 0.310306	 1
1463624282.788	 10	 -0.186624	 -0.200278	 1.333044	 1.770091	 -1.061023	 -0.921734	 0.009901	 0.740410	 -0.593654	 0.315072	 1
1463624282.798	 10	 -0.154153	 -0.118348	 1.350576	 1.766743	 -1.047550	 -0.923898	 0.014183	 0.740569	 -0.590942	 0.319599	 1
1463624282.808	 10	 -0.145012	 -0.011829	 1.376000	 1.764393	 -1.033796	 -0.926306	 0.018951	 0.740844	 -0.588192	 0.323759	 1
1463624282.818	 10	 -0.160527	 -0.120387	 1.360205	 1.761811	 -1.020087	 -0.928439	 0.023542	 0.741027	 -0.585404	 0.328066	 1
1463624282.828	 10	 -0.266610	 -0.588716	 1.270444	 1.757002	 -1.006909	 -0.928724	 0.026630	 0.740787	 -0.582455	 0.333575	 1
1463624282.838	 10	 -0.396232	 -0.835813	 1.171223	 1.751305	 -0.994534	 -0.926031	 0.028104	 0.740353	 -0.579195	 0.340031	 1
1463624282.848	 10	 -0.446188	 -1.032321	 1.186881	 1.744863	 -0.982157	 -0.922047	 0.028903	 0.739760	 -0.575702	 0.347113	 1
1463624282.858	 10	 -0.529852	 -1.136188	 1.203695	 1.737789	 -0.969458	 -0.916850	 0.029200	 0.739030	 -0.571899	 0.354841	 1
1463624282.868	 10	 -0.575447	 -0.903705	 1.270201	 1.733348	 -0.956308	 -0.910455	 0.029978	 0.738752	 -0.567697	 0.362032	 1
1463624282.878	 10	 -0.465223	 -0.604339	 1.528876	 1.730284	 -0.941114	 -0.905918	 0.032531	 0.738717	 -0.563277	 0.368725	 1
1463624282.888	 10	 -0.223353	 -0.458446	 1.797766	 1.725570	 -0.923554	 -0.905750	 0.037039	 0.738313	 -0.559086	 0.375427	 1
1463624282.898	 10	 -0.052625	 -0.319959	 1.896684	 1.719481	 -0.904781	 -0.908990	 0.042848	 0.737515	 -0.555260	 0.381997	 1
1463624282.908	 10	 0.015295	 -0.311355	 1.790662	 1.713052	 -0.886734	 -0.913291	 0.048729	 0.736494	 -0.551833	 0.388178	 1
1463624282.918	 10	 0.022348	 -0.321623	 1.697784	 1.706870	 -0.869790	 -0.917305	 0.054221	 0.735396	 -0.548631	 0.394026	 1
1463624282.928	 10	 0.010371	 -0.546457	 1.636113	 1.699326	 -0.853440	 -0.920916	 0.059009	 0.733927	 -0.545551	 0.400304	 1
1463624282.938	 10	 -0.079579	 -0.775405	 1.562294	 1.690471	 -0.837664	 -0.923113	 0.062750	 0.732127	 -0.542388	 0.407269	 1
1463624282.948	 10	 -0.200088	 -1.109892	 1.442997	 1.680402	 -0.822827	 -0.923090	 0.065058	 0.730046	 -0.539055	 0.414995	 1
1463624282.958	 10	 -0.289844	 -1.744126	 1.362207	 1.666101	 -0.808840	 -0.921235	 0.065308	 0.727036	 -0.535690	 0.424488	 1
1463624282.968	 10	 -0.347725	 -2.629509	 1.275606	 1.644405	 -0.795602	 -0.918128	 0.062928	 0.722340	 -0.532472	 0.436737	 1
1463624282.978	 10	 -0.490974	 -3.498811	 1.171780	 1.615274	 -0.783425	 -0.912725	 0.057465	 0.715855	 -0.529189	 0.451894	 1
1463624282.988	 10	 -0.594489	 -3.923127	 1.138891	 1.582083	 -0.771868	 -0.905080	 0.050030	 0.708196	 -0.525547	 0.468781	 1
1463624282.998	 10	 -0.596755	 -3.844443	 1.281390	 1.549035	 -0.759578	 -0.896679	 0.042764	 0.700201	 -0.521398	 0.485832	 1
1463624283.008	 10	 -0.487614	 -3.755831	 1.517863	 1.516839	 -0.745139	 -0.888733	 0.036800	 0.691973	 -0.516698	 0.502834	 1
1463624283.018	 10	 -0.322401	 -3.668268	 1.632342	 1.484243	 -0.729308	 -0.882286	 0.031914	 0.683193	 -0.511955	 0.519741	 1
1463624283.028	 10	 -0.153281	 -3.518103	 1.581110	 1.451780	 -0.713552	 -0.877526	 0.027770	 0.674051	 -0.507595	 0.535940	 1
1463624283.038	 10	 -0.078447	 -3.356744	 1.422096	 1.420315	 -0.699154	 -0.873810	 0.023872	 0.664875	 -0.503761	 0.550995	 1
1463624283.048	 10	 -0.180893	 -3.397395	 1.201997	 1.389448	 -0.686959	 -0.869227	 0.019145	 0.655675	 -0.500122	 0.565333	 1
1463624283.058	 10	 -0.367940	 -3.464694	 0.939756	 1.359081	 -0.677741	 -0.862714	 0.012917	 0.646518	 -0.496502	 0.579080	 1
1463624283.068	 10	 -0.651128	 -3.606755	 0.742668	 1.329342	 -0.671362	 -0.853298	 0.004956	 0.637467	 -0.492516	 0.592486	 1
1463624283.078	 10	 -0.990285	 -3.909801	 0.617041	 1.299322	 -0.667441	 -0.840038	 -0.005099	 0.628228	 -0.487719	 0.606164	 1
1463624283.088	 10	 -1.221678	 -4.283849	 0.570813	 1.267578	 -0.665233	 -0.823631	 -0.017057	 0.618261	 -0.482056	 0.620551	 1
1463624283.098	 10	 -1.260646	 -4.650471	 0.599713	 1.232849	 -0.663623	 -0.806046	 -0.030133	 0.607042	 -0.475799	 0.635773	 1
1463624283.108	 10	 -1.177711	 -5.008569	 0.679854	 1.194259	 -0.661667	 -0.788829	 -0.043650	 0.594173	 -0.469160	 0.651876	 1
1463624283.118	 10	 -1.015337	 -5.483979	 0.748620	 1.150553	 -0.659061	 -0.772873	 -0.057471	 0.579162	 -0.462288	 0.668998	 1
1463624283.128	 10	 -0.965727	 -5.810956	 0.999862	 1.102425	 -0.654848	 -0.757044	 -0.071321	 0.562039	 -0.454597	 0.687289	 1
1463624283.138	 10	 -1.491412	 -5.105093	 1.615295	 1.063168	 -0.648435	 -0.733770	 -0.083975	 0.547017	 -0.443834	 0.704792	 1
1463624283.148	 10	 -1.944843	 -4.495971	 2.266500	 1.037277	 -0.639282	 -0.700394	 -0.094888	 0.535656	 -0.429181	 0.721022	 1
1463624283.158	 10	 -2.021029	 -4.595799	 2.549727	 1.014067	 -0.628380	 -0.662900	 -0.105178	 0.524595	 -0.412449	 0.737308	 1
1463624283.168	 10	 -1.923334	 -4.978522	 2.613524	 0.987310	 -0.617051	 -0.625342	 -0.115561	 0.511837	 -0.394995	 0.754087	 1
1463624283.178	 10	 -1.764206	 -5.260147	 2.709699	 0.956020	 -0.604971	 -0.588740	 -0.125718	 0.496981	 -0.377061	 0.771382	 1
1463624283.188	 10	 -1.737630	 -4.909610	 2.804385	 0.926485	 -0.592742	 -0.551919	 -0.134941	 0.482389	 -0.358693	 0.787675	 1
1463624283.198	 10	 -1.727783	 -4.238000	 2.873429	 0.903061	 -0.580677	 -0.514494	 -0.142742	 0.469858	 -0.340144	 0.801972	 1
1463624283.208	 10	 -1.660117	 -3.506103	 2.919084	 0.886504	 -0.568553	 -0.477194	 -0.148889	 0.459883	 -0.321808	 0.814112	 1
1463624283.218	 10	 -1.449234	 -2.976526	 2.990384	 0.874836	 -0.555279	 -0.441053	 -0.153156	 0.451824	 -0.303852	 0.824665	 1
1463624283.228	 10	 -1.126031	 -2.615340	 3.060206	 0.865494	 -0.539821	 -0.407162	 -0.155349	 0.444776	 -0.286408	 0.834273	 1
1463624283.238	 10	 -0.673126	 -2.286007	 3.043340	 0.857096	 -0.521839	 -0.377118	 -0.155226	 0.438351	 -0.270022	 0.843114	 1
1463624283.248	 10	 -0.129127	 -2.044649	 2.958786	 0.848244	 -0.501146	 -0.352276	 -0.152635	 0.432101	 -0.255178	 0.851396	 1
1463624283.258	 10	 0.455071	 -1.835685	 2.823489	 0.838317	 -0.477756	 -0.333326	 -0.147535	 0.425810	 -0.242194	 0.859221	 1
1463624283.268	 10	 1.042457	 -1.649954	 2.712461	 0.827260	 -0.451475	 -0.320167	 -0.139886	 0.419399	 -0.231068	 0.866686	 1
1463624283.278	 10	 1.542969	 -1.423802	 2.713405	 0.816139	 -0.421977	 -0.311356	 -0.129741	 0.413151	 -0.221266	 0.873794	 1
1463624283.288	 10	 1.952421	 -1.142302	 2.829694	 0.806503	 -0.388933	 -0.305025	 -0.117188	 0.407548	 -0.212053	 0.880457	 1
1463624283.298	 10	 2.269942	 -0.901940	 2.955991	 0.798715	 -0.352615	 -0.300157	 -0.102543	 0.402657	 -0.203047	 0.886637	 1
1463624283.308	 10	 2.443549	 -0.799898	 3.017243	 0.791815	 -0.314294	 -0.296092	 -0.086632	 0.398026	 -0.194113	 0.892407	 1
1463624283.318	 10	 2.549352	 -0.543860	 3.019771	 0.786676	 -0.275070	 -0.292567	 -0.069940	 0.394058	 -0.185346	 0.897482	 1
1463624283.328	 10	 2.612335	 -0.301645	 3.005490	 0.783887	 -0.235419	 -0.289568	 -0.052666	 0.391032	 -0.176805	 0.901699	 1
1463624283.338	 10	 2.596929	 -0.165533	 2.995167	 0.782555	 -0.195816	 -0.286639	 -0.035227	 0.388558	 -0.168300	 0.905239	 1
1463624283.348	 10	 2.500997	 -0.120756	 2.970840	 0.781903	 -0.156872	 -0.283280	 -0.018089	 0.386319	 -0.159674	 0.908259	 1
1463624283.358	 10	 2.358595	 -0.157045	 2.896074	 0.780975	 -0.119317	 -0.279419	 -0.001686	 0.383938	 -0.151018	 0.910924	 1
1463624283.368	 10	 2.188184	 -0.213760	 2.779796	 0.779447	 -0.083688	 -0.275126	 0.013725	 0.381320	 -0.142479	 0.913294	 1
1463624283.378	 10	 2.008855	 -0.347065	 2.658620	 0.776682	 -0.050198	 -0.270384	 0.028003	 0.378211	 -0.134122	 0.915524	 1
1463624283.388	 10	 1.837861	 -0.539815	 2.557067	 0.771966	 -0.018713	 -0.265075	 0.041156	 0.374297	 -0.125914	 0.917798	 1
1463624283.398	 10	 1.674185	 -0.764496	 2.455154	 0.764935	 0.010848	 -0.259157	 0.053214	 0.369426	 -0.117871	 0.920217	 1
1463624283.408	 10	 1.539063	 -1.044567	 2.353543	 0.755076	 0.038621	 -0.252749	 0.064259	 0.363363	 -0.110079	 0.922887	 1
1463624283.418	 10	 1.439896	 -1.407589	 2.267899	 0.741602	 0.064896	 -0.245938	 0.074433	 0.355728	 -0.102596	 0.925954	 1
1463624283.428	 10	 1.382514	 -1.769379	 2.222402	 0.724215	 0.090185	 -0.238680	 0.083987	 0.346350	 -0.095368	 0.929458	 1
1463624283.438	 10	 1.347165	 -2.012933	 2.209785	 0.703797	 0.114912	 -0.230801	 0.093169	 0.335616	 -0.088249	 0.933217	 1
1463624283.448	 10	 1.334946	 -2.097075	 2.188859	 0.681879	 0.139206	 -0.222374	 0.102151	 0.324231	 -0.081207	 0.936934	 1
1463624283.458	 10	 1.350958	 -2.067587	 2.154890	 0.659761	 0.163196	 -0.213687	 0.111102	 0.312788	 -0.074303	 0.940372	 1
1463624283.468	 10	 1.383259	 -1.969094	 2.109697	 0.638285	 0.186964	 -0.204971	 0.120126	 0.301676	 -0.067582	 0.943395	 1
1463624283.478	 10	 1.418724	 -1.881224	 2.067576	 0.617570	 0.210577	 -0.196279	 0.129254	 0.290954	 -0.061047	 0.945998	 1
1463624283.488	 10	 1.445593	 -1.819797	 2.042335	 0.597276	 0.234082	 -0.187455	 0.138463	 0.280478	 -0.054630	 0.948249	 1
1463624283.498	 10	 1.465985	 -1.761649	 2.002200	 0.577336	 0.257400	 -0.178521	 0.147711	 0.270229	 -0.048356	 0.950168	 1
1463624283.508	 10	 1.481879	 -1.713395	 1.916183	 0.557774	 0.280279	 -0.169783	 0.156913	 0.260220	 -0.042400	 0.951770	 1
1463624283.518	 10	 1.534881	 -1.687835	 1.795529	 0.538547	 0.302766	 -0.161771	 0.166145	 0.250383	 -0.037007	 0.953066	 1
1463624283.528	 10	 1.636834	 -1.679542	 1.660432	 0.519635	 0.325200	 -0.154924	 0.175600	 0.240648	 -0.032337	 0.954048	 1
1463624283.538	 10	 1.772795	 -1.704294	 1.528995	 0.500874	 0.347984	 -0.149487	 0.185474	 0.230880	 -0.028469	 0.954716	 1
1463624283.548	 10	 1.914183	 -1.726788	 1.417781	 0.482206	 0.371373	 -0.145366	 0.195849	 0.221030	 -0.025340	 0.955064	 1
1463624283.558	 10	 2.031159	 -1.737369	 1.326074	 0.463701	 0.395358	 -0.142265	 0.206669	 0.211149	 -0.022811	 0.955083	 1
1463624283.568	 10	 2.100317	 -1.717916	 1.249983	 0.445506	 0.419529	 -0.139846	 0.217685	 0.201356	 -0.020757	 0.954797	 1
1463624283.578	 10	 2.125892	 -1.670607	 1.184120	 0.427852	 0.443549	 -0.137771	 0.228692	 0.191812	 -0.019028	 0.954225	 1
1463624283.588	 10	 2.119492	 -1.616834	 1.117497	 0.411677	 0.463769	 -0.136285	 0.237983	 0.183138	 -0.018007	 0.953677	 1
1463624283.598	 10	 2.093783	 -1.572647	 1.040329	 0.395160	 0.487010	 -0.134637	 0.248694	 0.174171	 -0.016792	 0.952646	 1
1463624283.608	 10	 2.043620	 -1.510297	 0.964609	 0.379235	 0.509638	 -0.133157	 0.259139	 0.165524	 -0.015821	 0.951419	 1
1463624283.618	 10	 1.968992	 -1.448782	 0.910412	 0.363816	 0.531522	 -0.131577	 0.269227	 0.157196	 -0.014976	 0.950043	 1
1463624283.638	 11	 1.764545	 -1.342974	 0.898256	 0.333652	 0.572272	 -0.126623	 0.287850	 0.141373	 -0.013080	 0.947093	 1
1463624283.648	 11	 1.669664	 -1.325648	 0.902440	 0.318299	 0.591197	 -0.122864	 0.296396	 0.133661	 -0.011909	 0.945591	 1
1463624283.658	 11	 1.573573	 -1.306469	 0.868285	 0.302793	 0.609094	 -0.118631	 0.304439	 0.126053	 -0.010761	 0.944093	 1
1463624283.668	 11	 1.475236	 -1.271669	 0.787401	 0.287575	 0.625797	 -0.114479	 0.311942	 0.118684	 -0.009833	 0.942608	 1
1463624283.678	 11	 1.402354	 -1.240391	 0.671093	 0.273031	 0.641367	 -0.110982	 0.318965	 0.111635	 -0.009313	 0.941123	 1
1463624283.698	 12	 1.288188	 -1.106099	 0.516670	 0.246776	 0.670005	 -0.106144	 0.331978	 0.098762	 -0.009311	 0.938056	 1
1463624283.708	 12	 1.255280	 -1.017108	 0.454904	 0.235108	 0.683381	 -0.104095	 0.338066	 0.093042	 -0.009432	 0.936464	 1
1463624283.718	 12	 1.244883	 -0.896366	 0.380449	 0.224957	 0.696434	 -0.102777	 0.344038	 0.087949	 -0.009729	 0.934777	 1
1463624283.728	 12	 1.240223	 -0.729571	 0.352201	 0.216600	 0.709316	 -0.101782	 0.349944	 0.083669	 -0.009937	 0.932974	 1
1463624283.738	 12	 1.258920	 -0.602078	 0.340435	 0.209678	 0.722276	 -0.100835	 0.355886	 0.080063	 -0.009958	 0.931040	 1
1463624283.748	 12	 1.299705	 -0.522687	 0.304583	 0.203894	 0.735525	 -0.100251	 0.361971	 0.076926	 -0.009968	 0.928957	 1
1463624283.758	 12	 1.350881	 -0.493398	 0.257516	 0.198946	 0.749172	 -0.100296	 0.368254	 0.074056	 -0.010130	 0.926716	 1
1463624283.768	 12	 1.395548	 -0.509647	 0.207200	 0.194437	 0.763181	 -0.101056	 0.374716	 0.071249	 -0.010552	 0.924338	 1
1463624283.778	 12	 1.402688	 -0.540848	 0.161020	 0.190073	 0.777291	 -0.102453	 0.381227	 0.068386	 -0.011260	 0.921880	 1
1463624283.788	 12	 1.358802	 -0.554668	 0.144221	 0.185676	 0.791040	 -0.104051	 0.387559	 0.065483	 -0.012111	 0.919437	 1
1463624283.798	 12	 1.285203	 -0.565986	 0.167138	 0.180897	 0.804146	 -0.105223	 0.393559	 0.062512	 -0.012898	 0.917081	 1
1463624283.808	 12	 1.234177	 -0.560205	 0.210267	 0.175487	 0.816755	 -0.105562	 0.399285	 0.059443	 -0.013480	 0.914798	 1
1463624283.818	 12	 1.199250	 -0.516343	 0.231228	 0.170008	 0.829037	 -0.105304	 0.404829	 0.056484	 -0.013850	 0.912541	 1
1463624283.828	 12	 1.176098	 -0.440814	 0.223607	 0.165106	 0.841062	 -0.104903	 0.410242	 0.053841	 -0.014079	 0.910277	 1
1463624283.838	 12	 1.138000	 -0.380016	 0.231964	 0.160771	 0.852771	 -0.104345	 0.415499	 0.051512	 -0.014161	 0.908024	 1
1463624283.848	 12	 1.122878	 -0.389792	 0.197901	 0.156598	 0.864212	 -0.103874	 0.420626	 0.049260	 -0.014285	 0.905783	 1
1463624283.858	 12	 1.092295	 -0.476392	 0.123823	 0.152398	 0.875342	 -0.104309	 0.425621	 0.046825	 -0.014860	 0.903567	 1
1463624283.868	 12	 0.965629	 -0.599686	 0.084346	 0.147493	 0.885389	 -0.105262	 0.430122	 0.044011	 -0.015887	 0.901557	 1
1463624283.878	 12	 0.757823	 -0.756551	 0.076169	 0.140797	 0.893560	 -0.105903	 0.433747	 0.040536	 -0.017264	 0.899957	 1
1463624283.888	 12	 0.505535	 -0.855727	 0.084903	 0.132439	 0.899306	 -0.105873	 0.436246	 0.036562	 -0.018827	 0.898887	 1
1463624283.898	 12	 0.276050	 -0.901533	 0.129106	 0.122555	 0.902727	 -0.104665	 0.437661	 0.032257	 -0.020306	 0.898332	 1
1463624283.908	 12	 0.135292	 -0.881942	 0.133711	 0.112200	 0.904520	 -0.102803	 0.438327	 0.027949	 -0.021670	 0.898120	 1
1463624283.918	 12	 0.087428	 -0.821408	 0.101652	 0.102511	 0.905573	 -0.101162	 0.438669	 0.023922	 -0.023020	 0.898035	 1
1463624283.928	 12	 0.121854	 -0.718721	 0.049020	 0.094389	 0.906708	 -0.100321	 0.439072	 0.020422	 -0.024388	 0.897889	 1
1463624283.938	 12	 0.195881	 -0.601176	 0.007904	 0.088075	 0.908492	 -0.100319	 0.439792	 0.017530	 -0.025718	 0.897560	 1
1463624283.948	 12	 0.256173	 -0.475958	 -0.007442	 0.083324	 0.910896	 -0.100718	 0.440809	 0.015234	 -0.026870	 0.897070	 1
1463624283.958	 12	 0.287572	 -0.367673	 -0.022694	 0.079941	 0.913697	 -0.101398	 0.442021	 0.013479	 -0.027839	 0.896471	 1
1463624283.968	 12	 0.265357	 -0.312419	 -0.039039	 0.077455	 0.916410	 -0.102323	 0.443205	 0.012075	 -0.028726	 0.895879	 1
1463624283.978	 12	 0.182025	 -0.320779	 -0.052246	 0.075124	 0.918438	 -0.103373	 0.444083	 0.010734	 -0.029655	 0.895430	 1
1463624283.988	 12	 0.049581	 -0.333255	 -0.066129	 0.072734	 0.919248	 -0.104526	 0.444415	 0.009383	 -0.030680	 0.895247	 1
1463624283.998	 12	 -0.095416	 -0.309381	 -0.059316	 0.070317	 0.918586	 -0.105479	 0.444086	 0.008110	 -0.031661	 0.895388	 1
1463624284.008	 12	 -0.193180	 -0.248234	 -0.026989	 0.068006	 0.916844	 -0.105916	 0.443272	 0.007032	 -0.032417	 0.895773	 1
1463624284.018	 12	 -0.225540	 -0.139271	 0.025464	 0.065937	 0.914624	 -0.105433	 0.442243	 0.006281	 -0.032718	 0.896276	 1
1463624284.038	 13	 -0.092513	 0.153532	 0.121883	 0.064354	 0.911613	 -0.102437	 0.440861	 0.006325	 -0.031803	 0.896990	 1
1463624284.048	 13	 0.022363	 0.265168	 0.162420	 0.064774	 0.911652	 -0.099923	 0.440876	 0.007066	 -0.030582	 0.897019	 1
1463624284.058	 13	 0.118534	 0.295696	 0.157604	 0.065695	 0.912728	 -0.097368	 0.441362	 0.008011	 -0.029205	 0.896818	 1
1463624284.068	 13	 0.145790	 0.233565	 0.107763	 0.066806	 0.914253	 -0.095545	 0.442053	 0.008868	 -0.028104	 0.896505	 1
1463624284.078	 13	 0.089477	 0.108865	 0.049542	 0.067511	 0.915377	 -0.094625	 0.442562	 0.009355	 -0.027507	 0.896267	 1
1463624284.088	 13	 -0.023474	 -0.031628	 -0.009399	 0.067488	 0.915446	 -0.094558	 0.442592	 0.009357	 -0.027480	 0.896253	 1
1463624284.098	 13	 -0.139578	 -0.159372	 -0.071398	 0.067238	 0.913333	 -0.095672	 0.441648	 0.009060	 -0.028089	 0.896703	 1
1463624284.108	 13	 -0.217013	 -0.245646	 -0.119486	 0.066187	 0.911252	 -0.097226	 0.440708	 0.008306	 -0.029071	 0.897141	 1
1463624284.118	 13	 -0.241716	 -0.264843	 -0.136502	 0.065066	 0.908779	 -0.099147	 0.439591	 0.007453	 -0.030242	 0.897658	 1
1463624284.128	 13	 -0.214805	 -0.226538	 -0.123590	 0.064128	 0.906451	 -0.100992	 0.438540	 0.006695	 -0.031336	 0.898140	 1
1463624284.138	 13	 -0.145942	 -0.137111	 -0.086065	 0.066989	 0.905858	 -0.105053	 0.438333	 0.007108	 -0.032548	 0.898195	 1
1463624284.148	 13	 -0.051205	 -0.014622	 -0.023936	 0.066975	 0.905073	 -0.105634	 0.437983	 0.006999	 -0.032833	 0.898356	 1
1463624284.158	 13	 0.054301	 0.114339	 0.055212	 0.067380	 0.905369	 -0.105109	 0.438121	 0.007287	 -0.032500	 0.898299	 1
1463624284.168	 13	 0.165179	 0.229643	 0.159764	 0.067839	 0.906833	 -0.103107	 0.438777	 0.007886	 -0.031462	 0.898011	 1
1463624284.178	 13	 0.261809	 0.281067	 0.247852	 0.071450	 0.910889	 -0.102504	 0.440647	 0.009515	 -0.030288	 0.897119	 1
1463624284.188	 13	 0.315119	 0.236534	 0.288538	 0.070619	 0.914137	 -0.098256	 0.442068	 0.009981	 -0.028479	 0.896474	 1
1463624284.198	 13	 0.303991	 0.150324	 0.276109	 0.068964	 0.917431	 -0.093992	 0.443497	 0.010087	 -0.026849	 0.895817	 1
1463624284.208	 13	 0.243668	 0.068284	 0.232175	 0.066880	 0.920184	 -0.090263	 0.444682	 0.009905	 -0.025572	 0.895269	 1
1463624284.218	 13	 0.180442	 0.046896	 0.190969	 0.063667	 0.922816	 -0.086220	 0.445799	 0.009296	 -0.024413	 0.894752	 1
1463624284.228	 13	 0.089559	 0.067925	 0.121627	 0.060654	 0.924379	 -0.082456	 0.446444	 0.008748	 -0.023365	 0.894464	 1
1463624284.238	 13	 0.036645	 0.019485	 0.021464	 0.058435	 0.924923	 -0.080179	 0.446652	 0.008250	 -0.022830	 0.894379	 1
1463624284.248	 13	 -0.024368	 0.039355	 -0.049219	 0.057739	 0.924976	 -0.079593	 0.446665	 0.008068	 -0.022723	 0.894376	 1
1463624284.258	 13	 -0.076546	 0.097712	 -0.089786	 0.059590	 0.924281	 -0.080881	 0.446381	 0.008626	 -0.022901	 0.894508	 1
1463624284.268	 13	 -0.099757	 0.166804	 -0.104927	 0.062357	 0.923265	 -0.082499	 0.445966	 0.009528	 -0.023030	 0.894703	 1
1463624284.278	 13	 -0.095068	 0.250860	 -0.098857	 0.065885	 0.922235	 -0.084051	 0.445554	 0.010787	 -0.022963	 0.894895	 1
