% Gyrometer data recorded with 'snsrlog'
% 
% 
% Label description:
% 	 0: Default Label
% 	 1: still_drop
% 	 2: walk_drop
% 	 3: other
% 	 4: dtw_same
% 	 5: dtw_diff
% 	 6: delete
% 
% Column description:
% 	 1: Seconds.milliseconds since 1970
% 	 2: Number of skipped measurements
% 	 3: Gyro X
% 	 4: Gyro Y
% 	 5: Gyro Z
% 	 6: Roll of the device
% 	 7: Pitch of the device
% 	 8: Yaw of the device
% 	 9: Quaternion X
% 	 10: Quaternion Y
% 	 11: Quaternion Z
% 	 12: Quaternion W
% 	 13: Label used for the current sample
% 
% 
1462068099.118	 0	 -0.109693	 -0.212563	 -0.070931	 0.160492	 0.647152	 -0.060072	 0.319075	 0.066448	 -0.002905	 0.945393	 1
1462068099.128	 0	 -0.129899	 -0.216753	 -0.071853	 0.159319	 0.648913	 -0.061082	 0.319938	 0.065684	 -0.003495	 0.945152	 1
1462068099.148	 1	 -0.114494	 -0.154914	 -0.046897	 0.156815	 0.648313	 -0.062424	 0.319693	 0.064302	 -0.004555	 0.945326	 1
1462068099.158	 1	 -0.074636	 -0.097441	 -0.026461	 0.156096	 0.647913	 -0.062802	 0.319515	 0.063913	 -0.004865	 0.945411	 1
1462068099.168	 1	 -0.029630	 -0.061400	 -0.023310	 0.155049	 0.647542	 -0.062716	 0.319334	 0.063442	 -0.005007	 0.945503	 1
1462068099.178	 1	 0.005647	 -0.030814	 -0.041435	 0.154107	 0.647252	 -0.062677	 0.319194	 0.063011	 -0.005151	 0.945578	 1
1462068099.188	 1	 0.033522	 0.026300	 -0.069901	 0.153678	 0.646921	 -0.062867	 0.319042	 0.062787	 -0.005324	 0.945643	 1
1462068099.198	 1	 0.059150	 0.063173	 -0.102794	 0.153795	 0.646872	 -0.063414	 0.319037	 0.062756	 -0.005566	 0.945646	 1
1462068099.208	 1	 0.058055	 0.094762	 -0.147252	 0.155756	 0.647234	 -0.065191	 0.319269	 0.063390	 -0.006078	 0.945522	 1
1462068099.218	 1	 0.051480	 0.109232	 -0.207809	 0.158328	 0.647478	 -0.067688	 0.319472	 0.064200	 -0.006837	 0.945394	 1
1462068099.228	 1	 0.043801	 0.102548	 -0.252566	 0.161255	 0.647535	 -0.070777	 0.319610	 0.065088	 -0.007827	 0.945279	 1
1462068099.238	 1	 0.029659	 0.070541	 -0.269790	 0.163708	 0.646693	 -0.073931	 0.319326	 0.065769	 -0.008963	 0.945317	 1
1462068099.248	 1	 -0.000137	 0.063401	 -0.239755	 0.166207	 0.646367	 -0.077065	 0.319288	 0.066460	 -0.010060	 0.945271	 1
1462068099.258	 1	 -0.029643	 0.073658	 -0.157339	 0.168240	 0.645829	 -0.079220	 0.319117	 0.067094	 -0.010779	 0.945276	 1
1462068099.268	 1	 -0.036221	 0.144894	 -0.017004	 0.169839	 0.645377	 -0.079863	 0.318934	 0.067761	 -0.010849	 0.945289	 1
1462068099.278	 1	 -0.026354	 0.288543	 0.129130	 0.173464	 0.646045	 -0.079802	 0.319266	 0.069463	 -0.010210	 0.945061	 1
1462068099.288	 1	 -0.032630	 0.426759	 0.265823	 0.175684	 0.646116	 -0.076847	 0.319206	 0.070981	 -0.008456	 0.944986	 1
1462068099.298	 1	 0.005185	 0.423273	 0.386958	 0.177363	 0.646683	 -0.072435	 0.319321	 0.072461	 -0.006076	 0.944853	 1
1462068099.308	 1	 0.065014	 0.397914	 0.434160	 0.178128	 0.647949	 -0.067150	 0.319727	 0.073628	 -0.003397	 0.944639	 1
1462068099.318	 1	 0.096996	 0.512699	 0.288940	 0.180647	 0.649442	 -0.063332	 0.320291	 0.075384	 -0.001120	 0.944314	 1
1462068099.328	 1	 0.081831	 0.536590	 0.204034	 0.184494	 0.650694	 -0.060813	 0.320785	 0.077567	 0.000746	 0.943970	 1
1462068099.338	 1	 0.079625	 0.536465	 0.185934	 0.188550	 0.651814	 -0.058673	 0.321225	 0.079792	 0.002461	 0.943632	 1
1462068099.348	 1	 0.072186	 0.533382	 0.197693	 0.192560	 0.652910	 -0.056460	 0.321645	 0.082008	 0.004204	 0.943293	 1
1462068099.358	 1	 0.096108	 0.458632	 0.198765	 0.196033	 0.654153	 -0.054199	 0.322128	 0.083974	 0.005892	 0.942946	 1
1462068099.368	 1	 0.089339	 0.356756	 0.227718	 0.198350	 0.655508	 -0.051782	 0.322655	 0.085417	 0.007473	 0.942625	 1
1462068099.378	 1	 0.047711	 0.287265	 0.308431	 0.199296	 0.656642	 -0.048340	 0.323037	 0.086387	 0.009306	 0.942389	 1
1462068099.388	 1	 -0.033700	 0.199424	 0.336033	 0.199007	 0.657219	 -0.044186	 0.323130	 0.086907	 0.011246	 0.942289	 1
1462068099.398	 1	 -0.190284	 0.093022	 0.267131	 0.197747	 0.656360	 -0.040242	 0.322562	 0.086972	 0.012858	 0.942457	 1
1462068099.418	 2	 -0.603524	 0.031742	 0.010113	 0.195867	 0.647903	 -0.035344	 0.318378	 0.087078	 0.014447	 0.943845	 1
1462068099.428	 2	 -0.764492	 -0.064312	 -0.100219	 0.194972	 0.640641	 -0.034492	 0.314922	 0.086963	 0.014352	 0.945016	 1
1462068099.438	 2	 -0.909902	 -0.063331	 -0.170349	 0.194112	 0.631758	 -0.034297	 0.310724	 0.086794	 0.013876	 0.946427	 1
1462068099.448	 2	 -0.980790	 0.067691	 -0.171710	 0.194307	 0.621910	 -0.034120	 0.306056	 0.087140	 0.013510	 0.947921	 1
1462068099.458	 2	 -0.932809	 0.232859	 -0.109843	 0.195823	 0.612326	 -0.033407	 0.301474	 0.088186	 0.013610	 0.949290	 1
1462068099.468	 2	 -0.789791	 0.373602	 -0.004268	 0.198302	 0.604123	 -0.031823	 0.297494	 0.089785	 0.014328	 0.950384	 1
1462068099.478	 2	 -0.602864	 0.525044	 0.127668	 0.201658	 0.597932	 -0.029152	 0.294407	 0.091912	 0.015786	 0.951119	 1
1462068099.488	 2	 -0.419072	 0.679780	 0.272452	 0.205862	 0.593863	 -0.025236	 0.292255	 0.094573	 0.018059	 0.951481	 1
1462068099.498	 2	 -0.275675	 0.865498	 0.420006	 0.211078	 0.591642	 -0.019951	 0.290894	 0.097871	 0.021220	 0.951500	 1
1462068099.508	 2	 -0.180208	 1.076835	 0.560757	 0.217574	 0.590807	 -0.013227	 0.290086	 0.101953	 0.025318	 0.951218	 1
1462068099.518	 2	 -0.116203	 1.277117	 0.651597	 0.225512	 0.590921	 -0.005452	 0.289624	 0.106852	 0.030171	 0.950679	 1
1462068099.538	 3	 0.011945	 1.723665	 0.680215	 0.247531	 0.593292	 0.010843	 0.289434	 0.119629	 0.041230	 0.948798	 1
1462068099.548	 3	 0.126830	 1.919676	 0.622422	 0.262247	 0.595829	 0.018023	 0.289869	 0.127606	 0.046917	 0.947360	 1
1462068099.558	 3	 0.266787	 2.045038	 0.512596	 0.279286	 0.599496	 0.023612	 0.290815	 0.136426	 0.052267	 0.945560	 1
1462068099.568	 3	 0.409400	 2.107187	 0.340345	 0.298414	 0.604184	 0.026823	 0.292282	 0.145855	 0.056885	 0.943431	 1
1462068099.578	 3	 0.531416	 2.144561	 0.116886	 0.319679	 0.609496	 0.026994	 0.294152	 0.155810	 0.060462	 0.941032	 1
1462068099.598	 4	 0.693133	 2.205580	 -0.349692	 0.368694	 0.620425	 0.017650	 0.298537	 0.177197	 0.064215	 0.935603	 1
1462068099.608	 4	 0.692432	 2.257034	 -0.587938	 0.396498	 0.624924	 0.008432	 0.300588	 0.188685	 0.064477	 0.932677	 1
1462068099.618	 4	 0.631044	 2.353212	 -0.843357	 0.426793	 0.627766	 -0.003583	 0.302111	 0.200892	 0.063723	 0.929683	 1
1462068099.628	 4	 0.530267	 2.489750	 -1.122571	 0.459954	 0.628284	 -0.018269	 0.302833	 0.214042	 0.061976	 0.926627	 1
1462068099.638	 4	 0.434921	 2.663353	 -1.421736	 0.496304	 0.626156	 -0.035620	 0.302668	 0.228320	 0.059210	 0.923448	 1
1462068099.648	 4	 0.361035	 2.878229	 -1.740953	 0.536244	 0.621256	 -0.055695	 0.301645	 0.243938	 0.055380	 0.920021	 1
1462068099.658	 4	 0.306522	 3.149237	 -2.085395	 0.580227	 0.613380	 -0.078545	 0.299773	 0.261144	 0.050430	 0.916186	 1
1462068099.668	 4	 0.259912	 3.524345	 -2.444924	 0.629020	 0.602228	 -0.104008	 0.297012	 0.280372	 0.044418	 0.911703	 1
1462068099.678	 4	 0.236950	 3.962964	 -2.837106	 0.683199	 0.587444	 -0.131957	 0.293336	 0.301965	 0.037315	 0.906300	 1
1462068099.688	 4	 0.256260	 4.344819	 -3.266420	 0.742405	 0.568681	 -0.162404	 0.288798	 0.325820	 0.028868	 0.899780	 1
1462068099.698	 4	 0.319531	 4.560483	 -3.714716	 0.804946	 0.545662	 -0.195226	 0.283509	 0.351249	 0.018690	 0.892131	 1
1462068099.708	 4	 0.392701	 4.597558	 -4.145576	 0.868455	 0.518179	 -0.229853	 0.277525	 0.377332	 0.006516	 0.883492	 1
1462068099.718	 4	 0.400520	 4.728043	 -4.482277	 0.932073	 0.486179	 -0.264683	 0.270704	 0.403949	 -0.007204	 0.873781	 1
1462068099.728	 4	 0.352228	 4.876379	 -4.726667	 0.995524	 0.449914	 -0.297881	 0.262892	 0.431193	 -0.021773	 0.862836	 1
1462068099.738	 4	 0.301529	 4.911397	 -4.904948	 1.057387	 0.409930	 -0.328541	 0.254138	 0.458460	 -0.036968	 0.850801	 1
1462068099.748	 4	 0.244578	 4.898199	 -4.987705	 1.116859	 0.367098	 -0.356007	 0.244590	 0.485315	 -0.052463	 0.837791	 1
1462068099.758	 4	 0.190620	 4.957204	 -4.939792	 1.174193	 0.322757	 -0.379695	 0.234546	 0.511681	 -0.067661	 0.823767	 1
1462068099.768	 4	 0.208142	 5.159200	 -4.798450	 1.231172	 0.278387	 -0.399856	 0.224589	 0.537965	 -0.082055	 0.808344	 1
1462068099.778	 4	 0.277853	 5.347151	 -4.666220	 1.288678	 0.234421	 -0.417248	 0.215022	 0.564249	 -0.095730	 0.791343	 1
1462068099.788	 4	 0.410028	 5.390602	 -4.487918	 1.345778	 0.191476	 -0.432598	 0.206160	 0.589894	 -0.108878	 0.773091	 1
1462068099.798	 4	 0.565251	 5.373099	 -4.345554	 1.401945	 0.149595	 -0.446528	 0.198095	 0.614550	 -0.121735	 0.753835	 1
1462068099.808	 4	 0.735791	 5.293137	 -4.303021	 1.456798	 0.107939	 -0.459547	 0.190588	 0.638069	 -0.134749	 0.733749	 1
1462068099.818	 4	 0.941904	 5.147457	 -4.361591	 1.509750	 0.065465	 -0.472228	 0.183375	 0.660253	 -0.148489	 0.713015	 1
1462068099.828	 4	 1.165707	 4.973487	 -4.500510	 1.560495	 0.021292	 -0.484904	 0.176224	 0.681026	 -0.163358	 0.691711	 1
1462068099.838	 4	 1.377127	 4.728787	 -4.717781	 1.608423	 -0.025467	 -0.497511	 0.168757	 0.700231	 -0.179658	 0.670015	 1
1462068099.848	 4	 1.553386	 4.315744	 -4.989599	 1.652142	 -0.075466	 -0.509658	 0.160473	 0.717468	 -0.197572	 0.648423	 1
1462068099.858	 4	 1.715860	 3.671084	 -5.232546	 1.689399	 -0.128654	 -0.521197	 0.151032	 0.732027	 -0.217166	 0.627826	 1
1462068099.868	 4	 1.790951	 2.906695	 -5.301061	 1.718781	 -0.183497	 -0.531901	 0.140524	 0.743464	 -0.237835	 0.609056	 1
1462068099.878	 4	 1.698322	 1.970596	 -5.208784	 1.739076	 -0.237986	 -0.540936	 0.128886	 0.751513	 -0.258564	 0.593095	 1
1462068099.888	 4	 1.406047	 0.884133	 -4.958435	 1.749089	 -0.290084	 -0.547124	 0.115857	 0.756007	 -0.278219	 0.581054	 1
1462068099.898	 4	 1.004881	 -0.282224	 -4.622620	 1.748426	 -0.338387	 -0.549790	 0.101255	 0.757024	 -0.295983	 0.573633	 1
1462068099.908	 4	 0.581885	 -1.324089	 -4.288653	 1.737818	 -0.382593	 -0.548979	 0.085044	 0.754905	 -0.311572	 0.570797	 1
1462068099.918	 4	 0.230308	 -1.881585	 -4.013681	 1.721584	 -0.423358	 -0.545275	 0.067754	 0.750924	 -0.325051	 0.570845	 1
1462068099.928	 4	 0.060668	 -2.078206	 -3.768909	 1.703252	 -0.461365	 -0.540284	 0.050303	 0.746056	 -0.336926	 0.572146	 1
1462068099.938	 4	 0.086414	 -1.974870	 -3.589123	 1.685017	 -0.497470	 -0.536031	 0.033551	 0.740914	 -0.348004	 0.573423	 1
1462068099.948	 4	 0.261498	 -1.586493	 -3.496444	 1.668943	 -0.532615	 -0.534160	 0.018182	 0.736123	 -0.359071	 0.573463	 1
1462068099.958	 4	 0.554361	 -1.036414	 -3.498138	 1.656224	 -0.567816	 -0.535953	 0.004576	 0.732084	 -0.370874	 0.571389	 1
1462068099.968	 4	 0.951556	 -0.491313	 -3.557273	 1.646255	 -0.603787	 -0.542675	 -0.007122	 0.728682	 -0.384041	 0.566995	 1
1462068099.978	 4	 1.434970	 -0.033335	 -3.568944	 1.637252	 -0.640354	 -0.555667	 -0.016691	 0.725497	 -0.398875	 0.560601	 1
1462068099.988	 4	 1.939611	 0.357475	 -3.410847	 1.627516	 -0.676013	 -0.575854	 -0.023636	 0.722186	 -0.415098	 0.552795	 1
1462068099.998	 4	 2.412099	 0.697803	 -3.077145	 1.615938	 -0.708843	 -0.603587	 -0.027450	 0.718592	 -0.432151	 0.544167	 1
1462068100.008	 4	 2.794922	 0.957154	 -2.652826	 1.601956	 -0.737464	 -0.638253	 -0.028064	 0.714662	 -0.449423	 0.535247	 1
1462068100.018	 4	 3.035600	 1.161705	 -2.216055	 1.585783	 -0.761402	 -0.678288	 -0.025883	 0.710460	 -0.466380	 0.526370	 1
1462068100.028	 4	 3.100121	 1.344492	 -1.771559	 1.568848	 -0.780433	 -0.721261	 -0.021387	 0.706293	 -0.482409	 0.517662	 1
1462068100.038	 4	 2.988233	 1.453388	 -1.320885	 1.552598	 -0.794468	 -0.764362	 -0.015165	 0.702421	 -0.496882	 0.509395	 1
1462068100.048	 4	 2.698678	 1.450089	 -0.866512	 1.538393	 -0.803575	 -0.804610	 -0.007885	 0.699066	 -0.509198	 0.501957	 1
1462068100.058	 4	 2.212230	 1.338838	 -0.417823	 1.527452	 -0.807960	 -0.838707	 -0.000371	 0.696441	 -0.518717	 0.495886	 1
1462068100.068	 4	 1.617231	 1.097865	 -0.007764	 1.520648	 -0.808210	 -0.864383	 0.006694	 0.694724	 -0.525124	 0.491487	 1
1462068100.078	 4	 0.958770	 0.572684	 0.345850	 1.516214	 -0.805005	 -0.880438	 0.012250	 0.693501	 -0.528356	 0.489639	 1
1462068100.088	 4	 0.284760	 -0.015772	 0.621209	 1.513165	 -0.799192	 -0.886469	 0.015626	 0.692585	 -0.528546	 0.490633	 1
1462068100.098	 4	 -0.326256	 -0.536868	 0.824175	 1.511339	 -0.791524	 -0.883268	 0.016796	 0.691981	 -0.526043	 0.494124	 1
1462068100.108	 4	 -0.824119	 -0.992857	 0.957487	 1.510145	 -0.782708	 -0.872474	 0.015926	 0.691562	 -0.521368	 0.499663	 1
1462068100.118	 4	 -1.189288	 -1.358938	 1.075560	 1.508923	 -0.772944	 -0.856074	 0.013459	 0.691149	 -0.515004	 0.506856	 1
1462068100.128	 4	 -1.410926	 -1.603212	 1.181793	 1.507284	 -0.762271	 -0.836135	 0.010003	 0.690614	 -0.507428	 0.515238	 1
1462068100.138	 4	 -1.497232	 -1.649113	 1.270575	 1.505487	 -0.750752	 -0.814682	 0.006306	 0.690001	 -0.499130	 0.524146	 1
1462068100.148	 4	 -1.476953	 -1.464801	 1.321139	 1.504724	 -0.738646	 -0.793306	 0.003121	 0.689624	 -0.490566	 0.532685	 1
1462068100.158	 4	 -1.372715	 -1.090674	 1.326910	 1.506158	 -0.726311	 -0.773316	 0.001037	 0.689821	 -0.482180	 0.540045	 1
1462068100.168	 4	 -1.215706	 -0.597728	 1.312012	 1.510639	 -0.713972	 -0.755529	 0.000428	 0.690855	 -0.474273	 0.545695	 1
1462068100.178	 4	 -1.041269	 -0.041976	 1.311401	 1.518690	 -0.701497	 -0.740313	 0.001559	 0.692896	 -0.466935	 0.549421	 1
1462068100.188	 4	 -0.888193	 0.506426	 1.315172	 1.530631	 -0.688801	 -0.727494	 0.004441	 0.696046	 -0.460104	 0.551184	 1
1462068100.198	 4	 -0.765414	 0.975072	 1.308872	 1.546038	 -0.675948	 -0.716721	 0.008799	 0.700190	 -0.453689	 0.551201	 1
1462068100.208	 4	 -0.717050	 1.320198	 1.253045	 1.564372	 -0.663356	 -0.707244	 0.014078	 0.705174	 -0.447579	 0.549731	 1
1462068100.218	 4	 -0.740228	 1.485312	 1.132221	 1.584522	 -0.651662	 -0.698053	 0.019432	 0.710689	 -0.441667	 0.547242	 1
1462068100.228	 4	 -0.760066	 1.508482	 0.946101	 1.605171	 -0.641527	 -0.688861	 0.024232	 0.716366	 -0.436083	 0.544118	 1
1462068100.238	 4	 -0.719889	 1.386588	 0.727201	 1.624589	 -0.633392	 -0.680160	 0.028138	 0.721718	 -0.431135	 0.540790	 1
1462068100.248	 4	 -0.611521	 1.220008	 0.533936	 1.641598	 -0.627223	 -0.672680	 0.031205	 0.726405	 -0.427067	 0.537564	 1
1462068100.258	 4	 -0.482098	 1.134924	 0.440362	 1.656539	 -0.622285	 -0.666802	 0.033932	 0.730507	 -0.423789	 0.534426	 1
1462068100.268	 4	 -0.360363	 1.131546	 0.463783	 1.670290	 -0.617428	 -0.662542	 0.036927	 0.734256	 -0.420957	 0.531319	 1
1462068100.278	 4	 -0.268072	 1.152246	 0.568683	 1.683395	 -0.611760	 -0.659738	 0.040560	 0.737798	 -0.418247	 0.528279	 1
1462068100.288	 4	 -0.227030	 1.137196	 0.709932	 1.695887	 -0.604788	 -0.657882	 0.044819	 0.741153	 -0.415361	 0.525507	 1
1462068100.298	 4	 -0.252246	 1.124279	 0.825134	 1.708110	 -0.596514	 -0.656224	 0.049495	 0.744427	 -0.412086	 0.523033	 1
1462068100.308	 4	 -0.349168	 1.106982	 0.894025	 1.720540	 -0.587357	 -0.653913	 0.054221	 0.747764	 -0.408307	 0.520763	 1
1462068100.318	 4	 -0.502975	 1.052356	 0.925763	 1.733293	 -0.577523	 -0.650170	 0.058651	 0.751220	 -0.403877	 0.518759	 1
1462068100.328	 4	 -0.665159	 0.876947	 0.872255	 1.745601	 -0.567685	 -0.644586	 0.062242	 0.754615	 -0.398925	 0.517243	 1
1462068100.338	 4	 -0.766145	 0.614678	 0.746000	 1.756162	 -0.558670	 -0.637563	 0.064616	 0.757606	 -0.393873	 0.516451	 1
1462068100.348	 4	 -0.806392	 0.338362	 0.613756	 1.764339	 -0.550833	 -0.629756	 0.065794	 0.760010	 -0.389043	 0.516432	 1
1462068100.358	 4	 -0.839100	 0.058986	 0.502733	 1.769957	 -0.544023	 -0.621446	 0.065916	 0.761772	 -0.384479	 0.517237	 1
1462068100.368	 4	 -0.945480	 -0.224463	 0.386985	 1.773283	 -0.538121	 -0.611994	 0.064848	 0.762979	 -0.379975	 0.518919	 1
1462068100.378	 4	 -1.132539	 -0.454176	 0.315070	 1.775157	 -0.532719	 -0.600420	 0.062520	 0.763872	 -0.375113	 0.521422	 1
1462068100.388	 4	 -1.311655	 -0.615567	 0.281024	 1.776303	 -0.527300	 -0.586723	 0.059238	 0.764633	 -0.369687	 0.524556	 1
1462068100.398	 4	 -1.480942	 -0.716473	 0.231468	 1.777187	 -0.521972	 -0.571038	 0.055109	 0.765364	 -0.363745	 0.528082	 1
1462068100.408	 4	 -1.657123	 -0.696100	 0.183101	 1.778891	 -0.516748	 -0.553323	 0.050305	 0.766342	 -0.357241	 0.531572	 1
1462068100.418	 4	 -1.793218	 -0.567195	 0.156709	 1.782383	 -0.511509	 -0.533900	 0.045148	 0.767807	 -0.350196	 0.534600	 1
1462068100.428	 4	 -1.843510	 -0.394527	 0.186464	 1.787786	 -0.505886	 -0.513801	 0.040149	 0.769773	 -0.342765	 0.536982	 1
1462068100.438	 4	 -1.825361	 -0.211257	 0.239168	 1.794799	 -0.499671	 -0.493937	 0.035653	 0.772151	 -0.335135	 0.538699	 1
1462068100.448	 4	 -1.716924	 -0.085959	 0.254310	 1.802571	 -0.493253	 -0.475182	 0.031715	 0.774697	 -0.327700	 0.539862	 1
1462068100.458	 4	 -1.528198	 0.061706	 0.306264	 1.810632	 -0.486790	 -0.458588	 0.028614	 0.777275	 -0.320814	 0.540466	 1
1462068100.468	 4	 -1.263067	 0.165130	 0.301720	 1.818510	 -0.480503	 -0.444748	 0.026443	 0.779752	 -0.314725	 0.540589	 1
1462068100.478	 4	 -0.873723	 0.196365	 0.219754	 1.825009	 -0.475797	 -0.434796	 0.025037	 0.781760	 -0.310264	 0.540334	 1
1462068100.488	 4	 -0.527869	 0.232427	 0.198961	 1.829979	 -0.472290	 -0.428749	 0.024526	 0.783272	 -0.307305	 0.539858	 1
1462068100.498	 4	 -0.306785	 0.283777	 0.182593	 1.834176	 -0.469576	 -0.425486	 0.024728	 0.784520	 -0.305391	 0.539123	 1
1462068100.508	 4	 -0.235172	 0.312243	 0.176905	 1.838195	 -0.467227	 -0.423359	 0.025229	 0.785694	 -0.303916	 0.538222	 1
1462068100.518	 4	 -0.291471	 0.311828	 0.243469	 1.842362	 -0.464405	 -0.421101	 0.025840	 0.786923	 -0.302229	 0.537348	 1
1462068100.528	 4	 -0.436939	 0.208308	 0.283206	 1.846311	 -0.460624	 -0.417689	 0.026250	 0.788134	 -0.299881	 0.536868	 1
1462068100.538	 4	 -0.688155	 -0.063629	 0.229574	 1.849069	 -0.456573	 -0.411818	 0.025586	 0.789066	 -0.296786	 0.537251	 1
1462068100.558	 5	 -1.486639	 -0.986718	 -0.075805	 1.847906	 -0.448841	 -0.387309	 0.018107	 0.789247	 -0.287339	 0.542399	 1
1462068100.568	 5	 -1.921076	 -1.673526	 -0.358709	 1.841657	 -0.446673	 -0.367084	 0.009908	 0.787755	 -0.281069	 0.548037	 1
1462068100.578	 5	 -2.250465	 -2.269110	 -0.633153	 1.831123	 -0.446430	 -0.342144	 -0.001285	 0.784910	 -0.274121	 0.555673	 1
1462068100.588	 5	 -2.368631	 -2.680030	 -0.877876	 1.817147	 -0.448449	 -0.314594	 -0.014584	 0.780810	 -0.267095	 0.564610	 1
1462068100.598	 5	 -2.255988	 -2.842391	 -1.074336	 1.800928	 -0.453032	 -0.287102	 -0.028848	 0.775703	 -0.260782	 0.573973	 1
1462068100.608	 5	 -1.950667	 -2.733418	 -1.177228	 1.784163	 -0.459851	 -0.262132	 -0.042800	 0.770094	 -0.255763	 0.582845	 1
1462068100.618	 5	 -1.524292	 -2.404791	 -1.155501	 1.768371	 -0.467947	 -0.241575	 -0.055249	 0.764554	 -0.252304	 0.590549	 1
1462068100.628	 5	 -1.024915	 -1.807914	 -1.074366	 1.755678	 -0.476538	 -0.226389	 -0.065362	 0.759870	 -0.250541	 0.596284	 1
1462068100.638	 5	 -0.594172	 -0.526543	 -1.085376	 1.750937	 -0.485848	 -0.216691	 -0.072604	 0.757592	 -0.250856	 0.598209	 1
1462068100.648	 5	 -0.257880	 0.426348	 -1.110344	 1.756283	 -0.496056	 -0.210492	 -0.077531	 0.758345	 -0.252906	 0.595769	 1
1462068100.658	 5	 0.177500	 0.771785	 -1.260128	 1.764165	 -0.507924	 -0.208656	 -0.080984	 0.759865	 -0.256981	 0.591614	 1
1462068100.678	 6	 1.026284	 1.563170	 -2.377074	 1.785835	 -0.548488	 -0.215284	 -0.088305	 0.763704	 -0.274580	 0.577550	 1
1462068100.698	 6	 1.628226	 2.552745	 -3.542251	 1.822337	 -0.615590	 -0.231047	 -0.097617	 0.769464	 -0.305126	 0.552535	 1
1462068100.708	 7	 1.822118	 2.671961	 -4.037350	 1.843617	 -0.658491	 -0.239765	 -0.103848	 0.771862	 -0.324145	 0.537005	 1
1462068100.718	 7	 1.878384	 2.855802	 -4.330284	 1.866798	 -0.705070	 -0.247489	 -0.110813	 0.773818	 -0.344296	 0.519987	 1
1462068100.728	 7	 1.782179	 3.279357	 -4.336163	 1.894692	 -0.752035	 -0.252874	 -0.117461	 0.776155	 -0.364233	 0.501120	 1
1462068100.738	 7	 1.499541	 3.662917	 -4.212899	 1.929829	 -0.797306	 -0.253862	 -0.123386	 0.779433	 -0.382953	 0.480216	 1
1462068100.748	 7	 1.139312	 3.749190	 -4.195104	 1.971703	 -0.840735	 -0.247829	 -0.129527	 0.783170	 -0.399942	 0.458164	 1
1462068100.758	 7	 0.840580	 3.678667	 -4.360484	 2.019733	 -0.883760	 -0.233296	 -0.136864	 0.786704	 -0.415614	 0.435466	 1
1462068100.768	 7	 0.303277	 3.639230	 -4.442500	 2.076867	 -0.925304	 -0.207035	 -0.145655	 0.790312	 -0.429432	 0.412042	 1
1462068100.778	 7	 -0.678904	 3.192362	 -4.273979	 2.146133	 -0.960264	 -0.163059	 -0.156324	 0.794692	 -0.438991	 0.388992	 1
1462068100.798	 8	 -1.642461	 -1.284729	 -2.953732	 2.257745	 -0.998306	 -0.042094	 -0.187974	 0.797773	 -0.440502	 0.366308	 1
1462068100.808	 8	 -0.924394	 -2.359329	 -1.979890	 2.271619	 -1.008201	 0.000416	 -0.203709	 0.794026	 -0.437962	 0.369072	 1
1462068100.818	 8	 -0.152595	 -2.140403	 -1.106385	 2.266686	 -1.016077	 0.021181	 -0.214453	 0.789200	 -0.436711	 0.374775	 1
1462068100.828	 8	 0.344857	 -1.300072	 -0.454913	 2.254591	 -1.022284	 0.024925	 -0.219708	 0.785130	 -0.437150	 0.379736	 1
1462068100.838	 8	 0.421815	 -0.511116	 -0.017674	 2.243459	 -1.025859	 0.019884	 -0.220832	 0.782766	 -0.438295	 0.382634	 1
1462068100.848	 8	 0.173380	 -0.206647	 0.213264	 2.235989	 -1.026061	 0.014168	 -0.220272	 0.781919	 -0.438646	 0.384282	 1
1462068100.858	 8	 -0.095958	 -0.123472	 0.280329	 2.232286	 -1.023714	 0.011458	 -0.219579	 0.782024	 -0.437840	 0.385382	 1
1462068100.878	 8	 -0.226397	 0.008277	 0.062078	 2.233316	 -1.018296	 0.013927	 -0.219290	 0.783148	 -0.435349	 0.386086	 1
1462068100.888	 9	 -0.125471	 0.149514	 -0.220980	 2.237969	 -1.018468	 0.017980	 -0.219897	 0.783562	 -0.435146	 0.385128	 1
1462068100.898	 9	 0.027077	 0.137534	 -0.490991	 2.243932	 -1.021775	 0.023245	 -0.221282	 0.783394	 -0.436094	 0.383601	 1
1462068100.908	 9	 0.114151	 0.164964	 -0.633241	 2.250421	 -1.027104	 0.029082	 -0.223138	 0.782797	 -0.437800	 0.381797	 1
1462068100.918	 9	 0.126295	 0.267950	 -0.653703	 2.258099	 -1.032971	 0.035216	 -0.224929	 0.782249	 -0.439808	 0.379556	 1
1462068100.938	 9	 0.111554	 0.266246	 -0.601368	 2.274399	 -1.043925	 0.047267	 -0.228003	 0.781455	 -0.443711	 0.374783	 1
1462068100.948	 10	 0.091876	 0.163166	 -0.596828	 2.281745	 -1.049128	 0.053511	 -0.229723	 0.780910	 -0.445444	 0.372810	 1
1462068100.958	 10	 0.030358	 -0.013051	 -0.564861	 2.280183	 -1.055129	 0.053525	 -0.231122	 0.779219	 -0.447636	 0.372857	 1
1462068100.978	 11	 -0.050223	 -0.435428	 -0.467908	 2.287166	 -1.062077	 0.067826	 -0.236321	 0.777217	 -0.448534	 0.372697	 1
1462068100.988	 11	 -0.032946	 -0.593114	 -0.498302	 2.287839	 -1.065504	 0.075000	 -0.239538	 0.775677	 -0.448632	 0.373733	 1
1462068100.998	 11	 -0.027132	 -0.663799	 -0.562954	 2.288063	 -1.069358	 0.082728	 -0.243132	 0.773868	 -0.448737	 0.375034	 1
1462068101.008	 11	 -0.037232	 -0.672865	 -0.626889	 2.289186	 -1.073744	 0.091668	 -0.247070	 0.771931	 -0.448931	 0.376218	 1
1462068101.018	 11	 -0.033093	 -0.663621	 -0.670535	 2.291089	 -1.078487	 0.101404	 -0.251182	 0.769930	 -0.449211	 0.377259	 1
1462068101.028	 11	 -0.016083	 -0.641644	 -0.713109	 2.293560	 -1.083621	 0.111551	 -0.255370	 0.767862	 -0.449639	 0.378153	 1
1462068101.038	 11	 -0.007599	 -0.593259	 -0.784139	 2.297224	 -1.089287	 0.122555	 -0.259680	 0.765747	 -0.450272	 0.378752	 1
1462068101.048	 11	 -0.018337	 -0.518479	 -0.889926	 2.303139	 -1.095609	 0.135282	 -0.264217	 0.763634	 -0.451139	 0.378849	 1
1462068101.058	 11	 -0.033415	 -0.441706	 -1.015906	 2.311918	 -1.102694	 0.150306	 -0.269063	 0.761518	 -0.452274	 0.378344	 1
1462068101.068	 11	 -0.038988	 -0.378851	 -1.150624	 2.323693	 -1.110626	 0.167880	 -0.274273	 0.759344	 -0.453702	 0.377261	 1
1462068101.078	 11	 -0.028514	 -0.302262	 -1.291749	 2.338583	 -1.119502	 0.188067	 -0.279828	 0.757068	 -0.455495	 0.375590	 1
1462068101.088	 11	 -0.002093	 -0.220558	 -1.454281	 2.357017	 -1.129493	 0.211168	 -0.285731	 0.754646	 -0.457758	 0.373262	 1
1462068101.098	 11	 0.027565	 -0.113490	 -1.637919	 2.379734	 -1.140758	 0.237813	 -0.292018	 0.752032	 -0.460586	 0.370180	 1
1462068101.108	 11	 0.064975	 0.049954	 -1.817904	 2.407829	 -1.153197	 0.268531	 -0.298550	 0.749311	 -0.464060	 0.366127	 1
1462068101.118	 11	 0.143015	 0.223967	 -1.990684	 2.441541	 -1.166912	 0.303330	 -0.305195	 0.746417	 -0.468327	 0.361092	 1
1462068101.128	 11	 0.256159	 0.361817	 -2.149184	 2.480660	 -1.181951	 0.342151	 -0.311874	 0.743221	 -0.473458	 0.355239	 1
1462068101.138	 11	 0.395601	 0.402941	 -2.288565	 2.524546	 -1.198282	 0.385107	 -0.318647	 0.739517	 -0.479389	 0.348950	 1
1462068101.148	 11	 0.512214	 0.328432	 -2.395784	 2.572607	 -1.215559	 0.432738	 -0.325693	 0.735140	 -0.485848	 0.342702	 1
1462068101.158	 11	 0.600708	 0.137335	 -2.458015	 2.624216	 -1.233151	 0.485555	 -0.333192	 0.730026	 -0.492438	 0.336972	 1
1462068101.168	 11	 0.677211	 -0.124839	 -2.499489	 2.678920	 -1.250671	 0.543969	 -0.341284	 0.724103	 -0.498892	 0.332125	 1
1462068101.178	 11	 0.768669	 -0.399682	 -2.522026	 2.736916	 -1.268013	 0.608359	 -0.349961	 0.717339	 -0.505161	 0.328277	 1
1462068101.188	 11	 0.843332	 -0.631788	 -2.524836	 2.798595	 -1.284946	 0.678906	 -0.359092	 0.709808	 -0.511203	 0.325418	 1
1462068101.198	 11	 0.915562	 -0.629448	 -2.612836	 2.869002	 -1.301333	 0.758896	 -0.368440	 0.701744	 -0.517368	 0.322704	 1
1462068101.208	 11	 0.969397	 -0.222931	 -2.707572	 2.955025	 -1.316834	 0.851527	 -0.377166	 0.693676	 -0.524388	 0.318711	 1
1462068101.218	 11	 0.922366	 0.245977	 -2.746495	 3.058614	 -1.329854	 0.956932	 -0.384737	 0.686204	 -0.532214	 0.312810	 1
1462068101.228	 11	 0.803540	 0.659726	 -2.793833	 -3.104096	 -1.338873	 1.075174	 -0.391484	 0.679400	 -0.540449	 0.305076	 1
1462068101.238	 11	 0.652314	 1.090625	 -2.689391	 -2.975205	 -1.342987	 1.197456	 -0.397000	 0.673612	 -0.548822	 0.295689	 1
1462068101.248	 11	 0.424224	 1.475131	 -2.267114	 -2.855998	 -1.342392	 1.305602	 -0.400502	 0.669495	 -0.556709	 0.285392	 1
1462068101.258	 11	 0.103891	 1.702821	 -1.506580	 -2.767715	 -1.338633	 1.379242	 -0.401318	 0.667861	 -0.563065	 0.275433	 1
1462068101.268	 11	 -0.233394	 1.672605	 -0.676893	 -2.719423	 -1.333852	 1.411441	 -0.399650	 0.668836	 -0.567147	 0.266987	 1
1462068101.278	 11	 -0.513976	 1.407672	 -0.070497	 -2.704627	 -1.328931	 1.411384	 -0.396706	 0.671661	 -0.568871	 0.260540	 1
1462068101.288	 11	 -0.709797	 1.009741	 0.270681	 -2.711983	 -1.323722	 1.392318	 -0.393724	 0.675391	 -0.568570	 0.256039	 1
1462068101.298	 11	 -0.787061	 0.582291	 0.402728	 -2.731171	 -1.318192	 1.365412	 -0.391465	 0.679221	 -0.566807	 0.253268	 1
1462068101.308	 11	 -0.721810	 0.183068	 0.378195	 -2.753373	 -1.312834	 1.339578	 -0.390282	 0.682454	 -0.564313	 0.251967	 1
1462068101.318	 11	 -0.522189	 -0.140792	 0.240223	 -2.771881	 -1.308486	 1.321113	 -0.390241	 0.684550	 -0.561849	 0.251852	 1
1462068101.328	 11	 -0.243184	 -0.325997	 0.041036	 -2.782100	 -1.305870	 1.313541	 -0.391141	 0.685244	 -0.560088	 0.252489	 1
1462068101.338	 11	 0.029478	 -0.354125	 -0.060716	 -2.784575	 -1.305375	 1.314653	 -0.392333	 0.684808	 -0.559326	 0.253509	 1
1462068101.348	 11	 0.226236	 -0.279108	 -0.050007	 -2.783271	 -1.306904	 1.319153	 -0.393143	 0.683795	 -0.559433	 0.254752	 1
1462068101.358	 11	 0.286744	 -0.144008	 -0.022633	 -2.780435	 -1.309441	 1.323944	 -0.393378	 0.682726	 -0.560076	 0.255841	 1
1462068101.368	 11	 0.230795	 -0.014087	 -0.023069	 -2.776753	 -1.311701	 1.328214	 -0.393258	 0.681923	 -0.560871	 0.256422	 1
1462068101.378	 11	 0.113862	 0.081987	 -0.022222	 -2.773317	 -1.312970	 1.331137	 -0.392983	 0.681546	 -0.561517	 0.256431	 1
1462068101.388	 11	 -0.011790	 0.129250	 -0.008965	 -2.771385	 -1.313096	 1.331876	 -0.392662	 0.681625	 -0.561836	 0.256016	 1
1462068101.398	 11	 -0.101426	 0.115814	 0.008743	 -2.771424	 -1.312349	 1.330579	 -0.392412	 0.682017	 -0.561792	 0.255452	 1
1462068101.408	 11	 -0.146287	 0.084239	 0.036549	 -2.773409	 -1.311164	 1.327572	 -0.392231	 0.682580	 -0.561463	 0.254949	 1
1462068101.418	 11	 -0.147377	 0.063095	 0.054534	 -2.792152	 -1.310477	 1.308554	 -0.391153	 0.684044	 -0.560032	 0.255827	 1
1462068101.428	 11	 -0.111140	 0.054469	 0.053073	 -2.795095	 -1.309521	 1.304928	 -0.390962	 0.684565	 -0.559655	 0.255551	 1
1462068101.438	 11	 -0.056829	 0.045665	 0.034400	 -2.796937	 -1.308988	 1.302525	 -0.390781	 0.684904	 -0.559453	 0.255361	 1
1462068101.448	 11	 -0.010043	 0.026239	 0.014628	 -2.797531	 -1.308856	 1.301583	 -0.390655	 0.685038	 -0.559420	 0.255265	 1
1462068101.458	 11	 0.013225	 -0.004782	 -0.000800	 -2.793195	 -1.308636	 1.305754	 -0.390922	 0.684820	 -0.559674	 0.254885	 1
1462068101.468	 11	 0.012062	 -0.012332	 -0.015781	 -2.792724	 -1.308719	 1.306364	 -0.390980	 0.684744	 -0.559711	 0.254917	 1
1462068101.478	 11	 0.005700	 0.007796	 -0.029393	 -2.791744	 -1.308701	 1.307375	 -0.391056	 0.684675	 -0.559769	 0.254860	 1
1462068101.488	 11	 0.001558	 0.051272	 -0.049202	 -2.789738	 -1.308582	 1.309036	 -0.391091	 0.684629	 -0.559917	 0.254605	 1
1462068101.498	 11	 -0.001548	 0.086280	 -0.064859	 -2.781955	 -1.307253	 1.315938	 -0.391591	 0.684526	 -0.560195	 0.253500	 1
1462068101.508	 11	 0.000562	 0.087283	 -0.072328	 -2.778627	 -1.306988	 1.318453	 -0.391583	 0.684505	 -0.560456	 0.252991	 1
1462068101.518	 11	 0.031382	 0.053255	 -0.061247	 -2.761374	 -1.305386	 1.334675	 -0.392681	 0.683804	 -0.561356	 0.251183	 1
1462068101.528	 11	 0.065398	 0.002297	 -0.034308	 -2.759009	 -1.305769	 1.336970	 -0.392708	 0.683579	 -0.561636	 0.251129	 1
1462068101.538	 11	 0.078100	 -0.028438	 -0.018793	 -2.741471	 -1.303219	 1.354259	 -0.394313	 0.682842	 -0.562241	 0.249258	 1
1462068101.548	 11	 0.057876	 -0.016684	 -0.019574	 -2.740147	 -1.303740	 1.355837	 -0.394351	 0.682601	 -0.562443	 0.249402	 1
1462068101.558	 11	 0.023699	 -0.010266	 -0.030983	 -2.729766	 -1.302085	 1.366067	 -0.395333	 0.682171	 -0.562783	 0.248254	 1
1462068101.568	 11	 -0.015748	 0.011010	 -0.046428	 -2.728407	 -1.301874	 1.367413	 -0.395463	 0.682112	 -0.562829	 0.248106	 1
1462068101.578	 11	 -0.047793	 0.021583	 -0.067366	 -2.725938	 -1.301747	 1.369714	 -0.395584	 0.681985	 -0.562999	 0.247875	 1
1462068101.588	 11	 -0.077650	 0.045967	 -0.090326	 -2.723797	 -1.300760	 1.371525	 -0.395847	 0.682067	 -0.562940	 0.247363	 1
1462068101.598	 11	 -0.110644	 0.084161	 -0.115231	 -2.727459	 -1.300449	 1.367436	 -0.395561	 0.682478	 -0.562639	 0.247370	 1
1462068101.608	 11	 -0.147862	 0.134072	 -0.141087	 -2.723826	 -1.298644	 1.369964	 -0.395854	 0.682746	 -0.562573	 0.246310	 1
1462068101.618	 11	 -0.194499	 0.208595	 -0.149531	 -2.732547	 -1.296837	 1.359924	 -0.395327	 0.683981	 -0.561607	 0.245936	 1
1462068101.628	 11	 -0.248443	 0.302423	 -0.139662	 -2.728461	 -1.294111	 1.361277	 -0.395321	 0.684700	 -0.561527	 0.244118	 1
1462068101.638	 11	 -0.304506	 0.394175	 -0.123399	 -2.724737	 -1.290935	 1.361273	 -0.395066	 0.685716	 -0.561424	 0.241907	 1
1462068101.648	 11	 -0.345792	 0.456062	 -0.112872	 -2.721453	 -1.287397	 1.360084	 -0.394619	 0.686970	 -0.561279	 0.239405	 1
1462068101.658	 11	 -0.367133	 0.477222	 -0.136986	 -2.722303	 -1.283479	 1.354618	 -0.393953	 0.688635	 -0.560722	 0.237011	 1
1462068101.668	 11	 -0.449081	 0.277859	 -0.381121	 -2.715237	 -1.278289	 1.358495	 -0.394600	 0.689609	 -0.560278	 0.234133	 1
1462068101.678	 11	 -0.493972	 0.155713	 -0.522547	 -2.705342	 -1.271831	 1.366916	 -0.396348	 0.690204	 -0.559546	 0.231161	 1
1462068101.688	 11	 -0.557004	 -0.021211	 -0.598248	 -2.695568	 -1.264463	 1.376869	 -0.398904	 0.690585	 -0.558407	 0.228365	 1
1462068101.698	 11	 -0.650989	 -0.218090	 -0.651484	 -2.687849	 -1.256102	 1.386696	 -0.402256	 0.690864	 -0.556649	 0.225917	 1
1462068101.708	 11	 -0.777830	 -0.370173	 -0.700820	 -2.682388	 -1.246302	 1.396072	 -0.406461	 0.691151	 -0.554146	 0.223656	 1
1462068101.718	 11	 -0.756175	 -0.223268	 -0.528054	 -2.679949	 -1.236758	 1.401663	 -0.410137	 0.691779	 -0.551537	 0.221441	 1
1462068101.728	 11	 -0.593950	 0.206005	 -0.228124	 -2.679332	 -1.229703	 1.401350	 -0.411642	 0.693004	 -0.549859	 0.218977	 1
1462068101.738	 11	 -0.464152	 0.600880	 0.008888	 -2.679262	 -1.225116	 1.396006	 -0.410926	 0.694818	 -0.549252	 0.216078	 1
1462068101.748	 11	 -0.389784	 0.874936	 0.136550	 -2.678895	 -1.221980	 1.387750	 -0.408740	 0.697033	 -0.549386	 0.212724	 1
1462068101.758	 11	 -0.340683	 1.077105	 0.167845	 -2.676982	 -1.219563	 1.378820	 -0.405702	 0.699427	 -0.550076	 0.208864	 1
1462068101.768	 11	 -0.307129	 1.224439	 0.111373	 -2.672076	 -1.217353	 1.371366	 -0.402292	 0.701782	 -0.551249	 0.204421	 1
1462068101.778	 11	 -0.326474	 1.297009	 -0.009280	 -2.663719	 -1.214637	 1.366595	 -0.398988	 0.704001	 -0.552680	 0.199340	 1
1462068101.788	 11	 -0.408026	 1.320689	 -0.150096	 -2.652644	 -1.210691	 1.364376	 -0.396132	 0.706132	 -0.554048	 0.193620	 1
1462068101.798	 11	 -0.526705	 1.352266	 -0.243622	 -2.640166	 -1.205256	 1.363369	 -0.393684	 0.708335	 -0.555162	 0.187268	 1
1462068101.808	 11	 -0.638433	 1.382709	 -0.197604	 -2.629179	 -1.198848	 1.360398	 -0.391197	 0.710874	 -0.555890	 0.180581	 1
1462068101.818	 11	 -0.696711	 1.356218	 -0.060925	 -2.621907	 -1.192401	 1.353511	 -0.388353	 0.713800	 -0.556203	 0.174099	 1
1462068101.828	 11	 -0.691451	 1.216871	 0.085873	 -2.619095	 -1.186610	 1.342994	 -0.385270	 0.716914	 -0.556098	 0.168396	 1
1462068101.838	 11	 -0.624821	 1.015229	 0.174007	 -2.619664	 -1.181798	 1.330859	 -0.382278	 0.719894	 -0.555697	 0.163760	 1
1462068101.848	 11	 -0.498622	 0.833101	 0.190397	 -2.621353	 -1.178120	 1.319550	 -0.379588	 0.722448	 -0.555289	 0.160112	 1
1462068101.858	 11	 -0.344560	 0.715426	 0.159185	 -2.622076	 -1.175630	 1.310755	 -0.377226	 0.724421	 -0.555167	 0.157179	 1
1462068101.868	 11	 -0.183942	 0.665497	 0.085916	 -2.620225	 -1.174220	 1.305460	 -0.375142	 0.725769	 -0.555539	 0.154613	 1
1462068101.878	 11	 -0.030870	 0.643923	 -0.040312	 -2.614444	 -1.173599	 1.304691	 -0.373410	 0.726447	 -0.556508	 0.152114	 1
1462068101.888	 11	 0.103942	 0.633788	 -0.209971	 -2.603824	 -1.173380	 1.309320	 -0.372187	 0.726417	 -0.558078	 0.149480	 1
1462068101.898	 11	 0.207862	 0.645989	 -0.391942	 -2.588106	 -1.173149	 1.319428	 -0.371520	 0.725734	 -0.560190	 0.146529	 1
1462068101.908	 11	 0.232657	 0.759203	 -0.463576	 -2.568715	 -1.172711	 1.332713	 -0.371005	 0.724732	 -0.562710	 0.143093	 1
1462068101.918	 11	 0.185815	 0.939693	 -0.380491	 -2.549023	 -1.172096	 1.344262	 -0.369793	 0.724064	 -0.565381	 0.139027	 1
1462068101.928	 11	 0.120474	 1.057374	 -0.312749	 -2.530596	 -1.171438	 1.353123	 -0.367952	 0.723776	 -0.568002	 0.134662	 1
1462068101.938	 11	 0.002380	 1.203896	 -0.395619	 -2.511384	 -1.169576	 1.361294	 -0.365932	 0.723778	 -0.570511	 0.129449	 1
1462068101.948	 11	 -0.116092	 1.294900	 -0.507777	 -2.490750	 -1.165994	 1.369845	 -0.364086	 0.723951	 -0.572832	 0.123290	 1
1462068101.958	 11	 -0.202614	 1.257044	 -0.482863	 -2.471424	 -1.161463	 1.376987	 -0.362348	 0.724336	 -0.574784	 0.116893	 1
1462068101.968	 11	 -0.252926	 1.037574	 -0.260657	 -2.457956	 -1.157533	 1.379620	 -0.360494	 0.725066	 -0.576098	 0.111509	 1
1462068101.978	 11	 -0.327029	 0.696338	 0.027766	 -2.453806	 -1.154904	 1.375623	 -0.358564	 0.726299	 -0.576417	 0.108006	 1
1462068101.988	 11	 -0.420446	 0.423511	 0.208286	 -2.457602	 -1.152886	 1.366141	 -0.356758	 0.728013	 -0.575746	 0.106008	 1
1462068101.998	 11	 -0.464707	 0.202332	 0.344096	 -2.466980	 -1.151295	 1.353100	 -0.355130	 0.730017	 -0.574367	 0.105168	 1
1462068102.008	 11	 -0.456599	 0.067607	 0.396060	 -2.479322	 -1.150101	 1.338540	 -0.353667	 0.732086	 -0.572642	 0.105126	 1
1462068102.018	 11	 -0.427254	 0.013824	 0.324964	 -2.491164	 -1.148767	 1.325322	 -0.352562	 0.733955	 -0.570902	 0.105269	 1
1462068102.028	 11	 -0.399255	 0.036416	 0.384619	 -2.502608	 -1.147656	 1.312464	 -0.351392	 0.735751	 -0.569274	 0.105462	 1
1462068102.038	 11	 -0.383706	 0.059619	 0.510460	 -2.515862	 -1.147412	 1.297334	 -0.349649	 0.737732	 -0.567686	 0.105968	 1
1462068102.048	 11	 -0.355979	 0.109065	 0.446733	 -2.528227	 -1.147197	 1.282770	 -0.347831	 0.739643	 -0.566245	 0.106341	 1
1462068102.058	 11	 -0.287576	 0.299916	 0.245418	 -2.535118	 -1.146393	 1.272545	 -0.346200	 0.741159	 -0.565372	 0.105754	 1
1462068102.068	 11	 -0.199593	 0.555710	 0.060524	 -2.534818	 -1.145148	 1.267449	 -0.344543	 0.742221	 -0.565348	 0.103825	 1
1462068102.078	 11	 -0.130876	 0.707061	 -0.014335	 -2.529813	 -1.143933	 1.265514	 -0.342717	 0.742972	 -0.565973	 0.101052	 1
1462068102.088	 11	 -0.112526	 0.735857	 0.003891	 -2.523845	 -1.142991	 1.263982	 -0.340698	 0.743656	 -0.566810	 0.098114	 1
1462068102.098	 11	 -0.124694	 0.646537	 0.002100	 -2.518724	 -1.142042	 1.262201	 -0.338826	 0.744332	 -0.567505	 0.095417	 1
1462068102.108	 11	 -0.135975	 0.514705	 0.005235	 -2.514977	 -1.140957	 1.260301	 -0.337333	 0.744972	 -0.567931	 0.093153	 1
1462068102.118	 11	 -0.133067	 0.391843	 0.077604	 -2.513517	 -1.140205	 1.257270	 -0.335981	 0.745648	 -0.568110	 0.091521	 1
1462068102.128	 11	 -0.106598	 0.307025	 0.125609	 -2.513821	 -1.139959	 1.253370	 -0.334676	 0.746321	 -0.568169	 0.090452	 1
1462068102.138	 11	 -0.044848	 0.273889	 0.127960	 -2.514102	 -1.140227	 1.249982	 -0.333423	 0.746838	 -0.568348	 0.089675	 1
1462068102.148	 11	 0.020094	 0.269200	 0.094312	 -2.513184	 -1.140876	 1.248030	 -0.332267	 0.747119	 -0.568767	 0.088973	 1
1462068102.158	 11	 0.073158	 0.264291	 0.025596	 -2.510553	 -1.141635	 1.247992	 -0.331310	 0.747141	 -0.569415	 0.088208	 1
1462068102.168	 11	 0.108992	 0.245443	 -0.065481	 -2.505969	 -1.142191	 1.250256	 -0.330707	 0.746894	 -0.570227	 0.087309	 1
1462068102.178	 11	 0.122464	 0.205660	 -0.119257	 -2.500309	 -1.142520	 1.254095	 -0.330440	 0.746463	 -0.571086	 0.086391	 1
1462068102.188	 11	 0.097560	 0.151301	 -0.145124	 -2.494857	 -1.142528	 1.258284	 -0.330444	 0.746004	 -0.571809	 0.085556	 1
1462068102.198	 11	 0.056800	 0.126846	 -0.162044	 -2.493599	 -1.139599	 1.258946	 -0.331089	 0.746323	 -0.571192	 0.084385	 1
1462068102.208	 11	 0.015190	 0.110114	 -0.139456	 -2.489595	 -1.138933	 1.262084	 -0.331289	 0.746056	 -0.571543	 0.083584	 1
1462068102.218	 11	 -0.012650	 0.092099	 -0.141513	 -2.486316	 -1.138035	 1.264616	 -0.331530	 0.745886	 -0.571738	 0.082811	 1
1462068102.228	 11	 -0.009617	 0.066476	 -0.153501	 -2.483188	 -1.137033	 1.267277	 -0.331888	 0.745700	 -0.571876	 0.082099	 1
1462068102.238	 11	 -0.006485	 0.069475	 -0.178019	 -2.477226	 -1.137182	 1.272654	 -0.332147	 0.745032	 -0.572686	 0.081461	 1
1462068102.248	 11	 -0.005031	 0.165078	 -0.194194	 -2.472701	 -1.135959	 1.276151	 -0.332474	 0.744784	 -0.572969	 0.080401	 1
1462068102.258	 11	 0.011598	 0.289533	 -0.185720	 -2.466761	 -1.134809	 1.279773	 -0.332423	 0.744557	 -0.573505	 0.078873	 1
1462068102.268	 11	 0.037526	 0.224652	 -0.028817	 -2.462726	 -1.134687	 1.281510	 -0.331944	 0.744442	 -0.574075	 0.077831	 1
1462068102.278	 11	 0.026024	 0.055515	 -0.036685	 -2.460809	 -1.134753	 1.282466	 -0.331732	 0.744350	 -0.574374	 0.077413	 1
1462068102.288	 11	 0.057633	 -0.215095	 -0.086372	 -2.460418	 -1.134654	 1.284477	 -0.332394	 0.744043	 -0.574334	 0.077814	 1
1462068102.298	 11	 0.116785	 -0.547371	 -0.118716	 -2.466130	 -1.137605	 1.284132	 -0.333126	 0.743522	 -0.574179	 0.080753	 1
1462068102.308	 11	 0.144164	 -0.856915	 -0.112243	 -2.470136	 -1.137978	 1.288355	 -0.335746	 0.742606	 -0.573434	 0.083569	 1
1462068102.318	 11	 0.141332	 -1.019511	 -0.094547	 -2.476395	 -1.138479	 1.292343	 -0.338887	 0.741606	 -0.572341	 0.087189	 1
1462068102.328	 11	 0.135837	 -1.072508	 -0.071546	 -2.483886	 -1.139085	 1.295809	 -0.342153	 0.740609	 -0.571071	 0.091143	 1
1462068102.338	 11	 0.127434	 -1.057475	 -0.055348	 -2.491538	 -1.139645	 1.299084	 -0.345401	 0.739621	 -0.569752	 0.095082	 1
1462068102.348	 11	 0.063810	 -0.967974	 -0.059290	 -2.499372	 -1.139980	 1.301401	 -0.348398	 0.738799	 -0.568371	 0.098741	 1
1462068102.358	 11	 0.002754	 -0.772243	 -0.080384	 -2.506179	 -1.139661	 1.303044	 -0.351020	 0.738210	 -0.567013	 0.101622	 1
1462068102.368	 11	 -0.005553	 -0.468277	 -0.114785	 -2.509877	 -1.138980	 1.305004	 -0.352968	 0.737760	 -0.566080	 0.103331	 1
1462068102.378	 11	 -0.006613	 -0.224766	 -0.125312	 -2.512498	 -1.134724	 1.305551	 -0.355014	 0.738056	 -0.564449	 0.103135	 1
1462068102.388	 11	 -0.029264	 -0.055534	 -0.118211	 -2.511663	 -1.133837	 1.307526	 -0.355736	 0.737857	 -0.564258	 0.103109	 1
1462068102.398	 11	 -0.089380	 0.090401	 -0.112067	 -2.510051	 -1.132588	 1.308707	 -0.356041	 0.737883	 -0.564149	 0.102460	 1
1462068102.408	 11	 -0.150616	 0.183520	 -0.056313	 -2.508828	 -1.131038	 1.308215	 -0.355916	 0.738223	 -0.563977	 0.101390	 1
1462068102.418	 11	 -0.163225	 0.159658	 0.023558	 -2.518542	 -1.130424	 1.297450	 -0.354833	 0.739718	 -0.562633	 0.101757	 1
1462068102.428	 11	 -0.156986	 0.078146	 0.079231	 -2.520679	 -1.129526	 1.293988	 -0.354384	 0.740336	 -0.562186	 0.101298	 1
1462068102.438	 11	 -0.153965	 0.008212	 0.116921	 -2.524193	 -1.128898	 1.289823	 -0.353990	 0.740975	 -0.561604	 0.101236	 1
1462068102.448	 11	 -0.160433	 -0.026684	 0.142231	 -2.528664	 -1.128374	 1.285084	 -0.353622	 0.741653	 -0.560910	 0.101403	 1
1462068102.458	 11	 -0.149876	 -0.087029	 0.185275	 -2.534478	 -1.128038	 1.279475	 -0.353255	 0.742392	 -0.560075	 0.101885	 1
1462068102.468	 11	 -0.131959	 -0.168684	 0.225924	 -2.541344	 -1.128143	 1.273520	 -0.352938	 0.743079	 -0.559197	 0.102801	 1
1462068102.478	 11	 -0.117220	 -0.249236	 0.270874	 -2.549609	 -1.128591	 1.266926	 -0.352684	 0.743755	 -0.558204	 0.104167	 1
1462068102.488	 11	 -0.109684	 -0.279718	 0.323813	 -2.559137	 -1.129389	 1.259446	 -0.352358	 0.744466	 -0.557142	 0.105866	 1
1462068102.498	 11	 -0.106359	 -0.273174	 0.346194	 -2.563489	 -1.130011	 1.256514	 -0.352324	 0.744666	 -0.556706	 0.106856	 1
1462068102.508	 11	 -0.104153	 -0.240361	 0.325164	 -2.573137	 -1.130953	 1.248628	 -0.351836	 0.745405	 -0.555700	 0.108539	 1
1462068102.518	 11	 -0.125561	 -0.190853	 0.250142	 -2.581418	 -1.131380	 1.241719	 -0.351454	 0.746107	 -0.554743	 0.109835	 1
1462068102.528	 11	 -0.120403	 -0.150066	 0.156690	 -2.587655	 -1.131293	 1.236578	 -0.351285	 0.746679	 -0.553906	 0.110712	 1
1462068102.538	 11	 -0.117732	 -0.180549	 0.058275	 -2.582271	 -1.129664	 1.242412	 -0.352369	 0.746182	 -0.554063	 0.109837	 1
1462068102.548	 11	 -0.113063	 -0.261914	 -0.012863	 -2.586021	 -1.128713	 1.240918	 -0.353082	 0.746373	 -0.553210	 0.110541	 1
1462068102.558	 11	 -0.092520	 -0.385749	 -0.067483	 -2.589642	 -1.127587	 1.240812	 -0.354317	 0.746351	 -0.552251	 0.111530	 1
1462068102.568	 11	 -0.070952	 -0.541297	 -0.094696	 -2.593876	 -1.126471	 1.241663	 -0.356073	 0.746121	 -0.551129	 0.113015	 1
1462068102.578	 11	 -0.058885	 -0.695570	 -0.097315	 -2.597409	 -1.125048	 1.244637	 -0.358499	 0.745591	 -0.549917	 0.114730	 1
1462068102.588	 11	 -0.044455	 -0.812533	 -0.086806	 -2.604179	 -1.124162	 1.245842	 -0.361022	 0.745108	 -0.548373	 0.117323	 1
1462068102.598	 11	 -0.016995	 -0.885893	 -0.071741	 -2.611795	 -1.123569	 1.247054	 -0.363701	 0.744521	 -0.546749	 0.120315	 1
1462068102.608	 11	 0.004219	 -0.926261	 -0.056315	 -2.619906	 -1.123271	 1.248241	 -0.366428	 0.743853	 -0.545109	 0.123570	 1
1462068102.618	 11	 0.024535	 -0.930468	 -0.041612	 -2.627887	 -1.123301	 1.249647	 -0.369116	 0.743090	 -0.543562	 0.126928	 1
1462068102.628	 11	 0.044925	 -0.913449	 -0.033105	 -2.636025	 -1.123479	 1.250810	 -0.371714	 0.742325	 -0.542032	 0.130318	 1
1462068102.638	 11	 0.068547	 -0.884784	 -0.030912	 -2.643743	 -1.123869	 1.252149	 -0.374207	 0.741509	 -0.540619	 0.133658	 1
1462068102.648	 11	 0.093292	 -0.844423	 -0.028621	 -2.650907	 -1.124490	 1.253691	 -0.376567	 0.740642	 -0.539353	 0.136911	 1
1462068102.658	 11	 0.111746	 -0.785914	 -0.019711	 -2.657456	 -1.125338	 1.255323	 -0.378736	 0.739754	 -0.538253	 0.140023	 1
1462068102.668	 11	 0.121751	 -0.711401	 -0.007381	 -2.663396	 -1.126348	 1.256829	 -0.380654	 0.738896	 -0.537317	 0.142919	 1
1462068102.678	 11	 0.124227	 -0.647518	 0.002784	 -2.668835	 -1.127447	 1.258146	 -0.382344	 0.738086	 -0.536509	 0.145603	 1
1462068102.688	 11	 0.122385	 -0.593203	 0.011831	 -2.673895	 -1.128582	 1.259257	 -0.383847	 0.737329	 -0.535793	 0.148099	 1
1462068102.698	 11	 0.114157	 -0.538838	 0.025198	 -2.678716	 -1.129712	 1.260025	 -0.385158	 0.736649	 -0.535143	 0.150411	 1
1462068102.708	 11	 0.113414	 -0.481304	 0.038529	 -2.683272	 -1.130890	 1.260461	 -0.386264	 0.736038	 -0.534581	 0.152548	 1
1462068102.718	 11	 0.117986	 -0.417497	 0.039083	 -2.687290	 -1.132110	 1.260822	 -0.387189	 0.735471	 -0.534138	 0.154478	 1
1462068102.728	 11	 0.127942	 -0.340965	 0.036511	 -2.690430	 -1.133409	 1.261330	 -0.387914	 0.734927	 -0.533875	 0.156146	 1
1462068102.738	 11	 0.130356	 -0.275086	 0.028577	 -2.692700	 -1.134713	 1.262031	 -0.388477	 0.734410	 -0.533766	 0.157546	 1
1462068102.748	 11	 0.125229	 -0.224076	 0.020570	 -2.694319	 -1.135953	 1.262850	 -0.388925	 0.733929	 -0.533755	 0.158720	 1
1462068102.758	 11	 0.116894	 -0.181504	 0.021039	 -2.695544	 -1.137116	 1.263623	 -0.389267	 0.733499	 -0.533800	 0.159714	 1
1462068102.768	 11	 0.107526	 -0.133595	 0.023698	 -2.696415	 -1.138207	 1.264270	 -0.389486	 0.733132	 -0.533901	 0.160523	 1
1462068102.778	 11	 0.103485	 -0.092045	 0.031580	 -2.697025	 -1.139269	 1.264717	 -0.389568	 0.732829	 -0.534061	 0.161175	 1
1462068102.788	 11	 0.102633	 -0.054744	 0.041526	 -2.697461	 -1.140359	 1.264946	 -0.389517	 0.732577	 -0.534281	 0.161712	 1
1462068102.798	 11	 0.112463	 -0.020620	 0.057744	 -2.697776	 -1.141579	 1.264919	 -0.389310	 0.732365	 -0.534583	 0.162175	 1
1462068102.808	 11	 0.128738	 0.025163	 0.070818	 -2.697824	 -1.142995	 1.264725	 -0.388926	 0.732175	 -0.535008	 0.162552	 1
1462068102.818	 11	 0.149336	 0.080521	 0.086074	 -2.697442	 -1.144648	 1.264424	 -0.388332	 0.732003	 -0.535595	 0.162812	 1
1462068102.828	 11	 0.166698	 0.134770	 0.093888	 -2.696534	 -1.146512	 1.264087	 -0.387535	 0.731847	 -0.536349	 0.162930	 1
1462068102.838	 11	 0.180710	 0.161344	 0.097211	 -2.695196	 -1.148527	 1.263838	 -0.386619	 0.731684	 -0.537223	 0.162959	 1
1462068102.848	 11	 0.190389	 0.176214	 0.098331	 -2.693606	 -1.150657	 1.263684	 -0.385642	 0.731505	 -0.538170	 0.162955	 1
1462068102.858	 11	 0.192552	 0.180478	 0.100483	 -2.691975	 -1.152827	 1.263513	 -0.384636	 0.731326	 -0.539136	 0.162942	 1
1462068102.868	 11	 0.179777	 0.183724	 0.102749	 -2.688615	 -1.155219	 1.264852	 -0.383662	 0.730961	 -0.540375	 0.162770	 1
1462068102.878	 11	 0.157372	 0.184855	 0.102955	 -2.687254	 -1.157132	 1.264326	 -0.382656	 0.730869	 -0.541238	 0.162687	 1
1462068102.888	 11	 0.123221	 0.187061	 0.100075	 -2.686146	 -1.158771	 1.263506	 -0.381673	 0.730854	 -0.541996	 0.162536	 1
1462068102.898	 11	 0.082626	 0.184993	 0.091883	 -2.685304	 -1.160022	 1.262395	 -0.380746	 0.730935	 -0.542613	 0.162290	 1
1462068102.908	 11	 0.038714	 0.165855	 0.075035	 -2.684716	 -1.160815	 1.261158	 -0.379949	 0.731091	 -0.543057	 0.161970	 1
1462068102.918	 11	 -0.001089	 0.114778	 0.055723	 -2.684584	 -1.161148	 1.259889	 -0.379371	 0.731289	 -0.543282	 0.161674	 1
1462068102.928	 11	 -0.023910	 0.044504	 0.036084	 -2.684987	 -1.161151	 1.258761	 -0.379067	 0.731470	 -0.543297	 0.161516	 1
1462068102.938	 11	 -0.030738	 -0.034281	 0.022621	 -2.685964	 -1.160991	 1.257866	 -0.379043	 0.731587	 -0.543137	 0.161584	 1
1462068102.948	 11	 -0.018273	 -0.101369	 0.016559	 -2.687424	 -1.160874	 1.257211	 -0.379227	 0.731611	 -0.542879	 0.161906	 1
1462068102.958	 11	 -0.000372	 -0.149312	 0.012760	 -2.689140	 -1.160892	 1.256858	 -0.379559	 0.731536	 -0.542588	 0.162443	 1
1462068102.968	 11	 0.011226	 -0.178074	 0.011326	 -2.691006	 -1.161026	 1.256688	 -0.379972	 0.731395	 -0.542287	 0.163118	 1
1462068102.978	 11	 0.025008	 -0.190933	 0.003626	 -2.692785	 -1.161245	 1.256807	 -0.380447	 0.731192	 -0.542003	 0.163864	 1
1462068102.988	 11	 0.028215	 -0.183551	 -0.003794	 -2.694313	 -1.161492	 1.257183	 -0.380941	 0.730955	 -0.541754	 0.164596	 1
1462068102.998	 11	 0.033625	 -0.163396	 -0.008982	 -2.695521	 -1.161751	 1.257716	 -0.381403	 0.730712	 -0.541556	 0.165256	 1
1462068103.008	 11	 0.034882	 -0.119820	 -0.012851	 -2.696236	 -1.162014	 1.258363	 -0.381772	 0.730486	 -0.541443	 0.165769	 1
1462068103.018	 11	 0.032988	 -0.072994	 -0.009190	 -2.698041	 -1.162852	 1.257577	 -0.381779	 0.730350	 -0.541410	 0.166457	 1
1462068103.028	 11	 0.030011	 -0.028287	 -0.005551	 -2.698014	 -1.163108	 1.258041	 -0.381882	 0.730222	 -0.541452	 0.166647	 1
1462068103.038	 11	 0.021682	 0.010076	 0.001274	 -2.697758	 -1.163314	 1.258315	 -0.381865	 0.730158	 -0.541539	 0.166687	 1
1462068103.048	 11	 0.015443	 0.047308	 0.009134	 -2.697335	 -1.163501	 1.258347	 -0.381718	 0.730157	 -0.541672	 0.166596	 1
1462068103.058	 11	 0.001677	 0.066508	 0.012657	 -2.701983	 -1.164633	 1.253479	 -0.380937	 0.730512	 -0.541525	 0.167301	 1
1462068103.068	 11	 -0.002585	 0.064424	 0.016938	 -2.701672	 -1.164680	 1.253106	 -0.380705	 0.730601	 -0.541630	 0.167099	 1
1462068103.078	 11	 -0.007901	 0.062367	 0.024425	 -2.701579	 -1.164713	 1.252522	 -0.380459	 0.730715	 -0.541706	 0.166917	 1
1462068103.088	 11	 -0.011064	 0.062446	 0.034045	 -2.701720	 -1.164751	 1.251690	 -0.380185	 0.730855	 -0.541760	 0.166754	 1
1462068103.098	 11	 -0.010004	 0.056100	 0.040390	 -2.706066	 -1.165157	 1.247007	 -0.379556	 0.731315	 -0.541445	 0.167191	 1
1462068103.108	 11	 -0.006791	 0.055057	 0.044616	 -2.706518	 -1.165272	 1.245910	 -0.379251	 0.731466	 -0.541485	 0.167092	 1
1462068103.118	 11	 -0.000416	 0.051824	 0.041333	 -2.706922	 -1.165430	 1.244895	 -0.378953	 0.731599	 -0.541540	 0.167010	 1
1462068103.128	 11	 0.007009	 0.048556	 0.033778	 -2.707148	 -1.165621	 1.244115	 -0.378685	 0.731696	 -0.541619	 0.166936	 1
1462068103.138	 11	 0.014417	 0.046330	 0.021949	 -2.703787	 -1.164853	 1.246703	 -0.378898	 0.731613	 -0.541812	 0.166188	 1
1462068103.148	 11	 0.020746	 0.038795	 0.012232	 -2.703487	 -1.165087	 1.246578	 -0.378717	 0.731623	 -0.541949	 0.166111	 1
1462068103.158	 11	 0.028135	 0.028082	 0.004608	 -2.703060	 -1.165356	 1.246709	 -0.378587	 0.731589	 -0.542099	 0.166068	 1
1462068103.168	 11	 0.029164	 0.022737	 0.001352	 -2.702568	 -1.165629	 1.246979	 -0.378490	 0.731534	 -0.542250	 0.166039	 1
1462068103.178	 11	 0.028055	 0.014234	 0.001275	 -2.700788	 -1.165562	 1.248501	 -0.378579	 0.731404	 -0.542441	 0.165782	 1
1462068103.188	 11	 0.023745	 0.003626	 0.003345	 -2.700527	 -1.165803	 1.248711	 -0.378529	 0.731346	 -0.542544	 0.165812	 1
1462068103.198	 11	 0.017317	 -0.005890	 0.008641	 -2.700520	 -1.166014	 1.248766	 -0.378499	 0.731302	 -0.542603	 0.165885	 1
1462068103.208	 11	 0.009880	 -0.002646	 0.012999	 -2.700710	 -1.166164	 1.248611	 -0.378459	 0.731291	 -0.542624	 0.165956	 1
1462068103.218	 11	 0.000320	 0.002736	 0.018472	 -2.703269	 -1.166418	 1.246193	 -0.378210	 0.731494	 -0.542416	 0.166308	 1
1462068103.228	 11	 -0.009222	 0.011313	 0.023964	 -2.703726	 -1.166456	 1.245597	 -0.378107	 0.731562	 -0.542390	 0.166325	 1
1462068103.238	 11	 -0.012373	 0.016687	 0.030436	 -2.704308	 -1.166473	 1.244793	 -0.377968	 0.731663	 -0.542352	 0.166325	 1
1462068103.248	 11	 -0.015550	 0.019903	 0.032625	 -2.704948	 -1.166472	 1.243893	 -0.377812	 0.731780	 -0.542306	 0.166314	 1
1462068103.258	 11	 -0.019804	 0.020985	 0.033743	 -2.706099	 -1.167028	 1.242484	 -0.377481	 0.731858	 -0.542371	 0.166512	 1
1462068103.268	 11	 -0.017673	 0.023082	 0.030547	 -2.706718	 -1.167001	 1.241565	 -0.377319	 0.731984	 -0.542322	 0.166482	 1
1462068103.278	 11	 -0.015546	 0.023053	 0.027330	 -2.706591	 -1.167414	 1.241348	 -0.377109	 0.731967	 -0.542487	 0.166494	 1
1462068103.288	 11	 -0.012341	 0.027260	 0.022010	 -2.705978	 -1.167721	 1.241568	 -0.376953	 0.731926	 -0.542676	 0.166417	 1
1462068103.298	 11	 -0.010201	 0.032534	 0.016708	 -2.705293	 -1.167748	 1.241825	 -0.376855	 0.731930	 -0.542791	 0.166244	 1
1462068103.308	 11	 -0.003814	 0.034598	 0.010273	 -2.704476	 -1.167599	 1.242199	 -0.376805	 0.731952	 -0.542870	 0.166004	 1
1462068103.318	 11	 0.001480	 0.028185	 0.008033	 -2.704086	 -1.167305	 1.242245	 -0.376783	 0.732024	 -0.542852	 0.165790	 1
1462068103.328	 11	 0.002501	 0.018617	 0.009000	 -2.704359	 -1.166950	 1.241772	 -0.376766	 0.732150	 -0.542735	 0.165660	 1
1462068103.338	 11	 0.004597	 0.009061	 0.012091	 -2.705118	 -1.166684	 1.240946	 -0.376731	 0.732286	 -0.542581	 0.165638	 1
1462068103.348	 11	 0.005634	 0.000571	 0.015202	 -2.706073	 -1.166641	 1.240008	 -0.376656	 0.732391	 -0.542466	 0.165720	 1
1462068103.358	 11	 0.006680	 -0.003688	 0.015156	 -2.706990	 -1.166754	 1.239146	 -0.376563	 0.732459	 -0.542399	 0.165855	 1
1462068103.368	 11	 0.007788	 0.003760	 0.016285	 -2.707724	 -1.167113	 1.238422	 -0.376415	 0.732474	 -0.542427	 0.166030	 1
1462068103.378	 11	 0.003577	 0.016529	 0.015377	 -2.708114	 -1.167376	 1.237894	 -0.376267	 0.732497	 -0.542476	 0.166104	 1
1462068103.388	 11	 0.001500	 0.027178	 0.016562	 -2.708410	 -1.167730	 1.237345	 -0.376065	 0.732517	 -0.542572	 0.166164	 1
1462068103.398	 11	 -0.000596	 0.034629	 0.016653	 -2.708763	 -1.168121	 1.236654	 -0.375818	 0.732552	 -0.542679	 0.166218	 1
1462068103.408	 11	 -0.002673	 0.042109	 0.021009	 -2.709398	 -1.168682	 1.235622	 -0.375484	 0.732599	 -0.542812	 0.166330	 1
1462068103.418	 11	 -0.001605	 0.042105	 0.021002	 -2.709805	 -1.168887	 1.234775	 -0.375237	 0.732690	 -0.542868	 0.166307	 1
1462068103.428	 11	 -0.003780	 0.032546	 0.022000	 -2.710234	 -1.169046	 1.233973	 -0.375023	 0.732777	 -0.542901	 0.166292	 1
1462068103.438	 11	 0.000427	 0.019768	 0.021846	 -2.710924	 -1.169106	 1.233047	 -0.374858	 0.732884	 -0.542867	 0.166310	 1
1462068103.448	 11	 0.000377	 0.008083	 0.023870	 -2.711648	 -1.169074	 1.232201	 -0.374751	 0.732988	 -0.542792	 0.166336	 1
1462068103.458	 11	 -0.000723	 0.001704	 0.023822	 -2.712590	 -1.168982	 1.231216	 -0.374667	 0.733109	 -0.542670	 0.166389	 1
1462068103.468	 11	 -0.002865	 -0.001466	 0.025944	 -2.713633	 -1.169035	 1.230174	 -0.374556	 0.733209	 -0.542577	 0.166503	 1
1462068103.478	 11	 -0.002881	 -0.005714	 0.026973	 -2.714640	 -1.169178	 1.229192	 -0.374436	 0.733284	 -0.542513	 0.166646	 1
1462068103.488	 11	 -0.000756	 -0.009960	 0.029047	 -2.715352	 -1.169452	 1.228516	 -0.374320	 0.733305	 -0.542518	 0.166802	 1
1462068103.498	 11	 -0.000763	 -0.011032	 0.027971	 -2.715865	 -1.169770	 1.228043	 -0.374213	 0.733297	 -0.542557	 0.166951	 1
1462068103.508	 11	 -0.000753	 -0.008912	 0.026925	 -2.716199	 -1.170174	 1.227724	 -0.374094	 0.733260	 -0.542642	 0.167101	 1
1462068103.518	 11	 -0.001803	 -0.002550	 0.023796	 -2.716786	 -1.170263	 1.227142	 -0.374020	 0.733305	 -0.542607	 0.167184	 1
1462068103.528	 11	 -0.004964	 0.009129	 0.019669	 -2.716792	 -1.170479	 1.227007	 -0.373923	 0.733293	 -0.542682	 0.167210	 1
1462068103.538	 11	 -0.008146	 0.015498	 0.016557	 -2.716580	 -1.170552	 1.226996	 -0.373845	 0.733300	 -0.542745	 0.167150	 1
1462068103.548	 11	 -0.008174	 0.011228	 0.014385	 -2.716615	 -1.170572	 1.226780	 -0.373771	 0.733334	 -0.542762	 0.167110	 1
1462068103.558	 11	 -0.011458	 -0.002620	 0.010020	 -2.716676	 -1.170476	 1.226654	 -0.373763	 0.733369	 -0.542732	 0.167071	 1
1462068103.568	 11	 -0.011560	 -0.021781	 0.007710	 -2.717056	 -1.170225	 1.226413	 -0.373835	 0.733425	 -0.542606	 0.167074	 1
1462068103.578	 11	 -0.012689	 -0.033486	 0.006544	 -2.717600	 -1.169966	 1.226156	 -0.373947	 0.733471	 -0.542449	 0.167131	 1
1462068103.588	 11	 -0.011653	 -0.039871	 0.006474	 -2.718117	 -1.169816	 1.225998	 -0.374063	 0.733483	 -0.542320	 0.167235	 1
1462068103.598	 11	 -0.009508	 -0.038806	 0.007531	 -2.718585	 -1.169811	 1.225885	 -0.374150	 0.733466	 -0.542240	 0.167375	 1
1462068103.608	 11	 -0.009495	 -0.034566	 0.005437	 -2.718796	 -1.169863	 1.225981	 -0.374230	 0.733422	 -0.542209	 0.167493	 1
1462068103.618	 11	 -0.010573	 -0.035642	 0.003305	 -2.718951	 -1.169945	 1.226138	 -0.374311	 0.733365	 -0.542191	 0.167615	 1
1462068103.628	 11	 -0.010569	 -0.033529	 0.001191	 -2.718962	 -1.170001	 1.226414	 -0.374403	 0.733303	 -0.542182	 0.167710	 1
1462068103.638	 11	 -0.008444	 -0.032503	 -0.003081	 -2.719032	 -1.170072	 1.226636	 -0.374487	 0.733244	 -0.542172	 0.167816	 1
1462068103.648	 11	 -0.008433	 -0.029320	 -0.004117	 -2.719357	 -1.170004	 1.226614	 -0.374583	 0.733232	 -0.542093	 0.167910	 1
1462068103.658	 11	 -0.005213	 -0.025075	 -0.004105	 -2.719800	 -1.169876	 1.226458	 -0.374674	 0.733246	 -0.541985	 0.167994	 1
1462068103.668	 11	 -0.006267	 -0.022937	 -0.003009	 -2.720329	 -1.169735	 1.226185	 -0.374750	 0.733277	 -0.541866	 0.168074	 1
1462068103.678	 11	 -0.003095	 -0.026161	 -0.006264	 -2.720741	 -1.169558	 1.226050	 -0.374852	 0.733298	 -0.541747	 0.168139	 1
1462068103.688	 11	 -0.004179	 -0.029350	 -0.006283	 -2.721301	 -1.169411	 1.225814	 -0.374950	 0.733320	 -0.541618	 0.168239	 1
1462068103.698	 11	 -0.000988	 -0.031487	 -0.006329	 -2.721689	 -1.169377	 1.225767	 -0.375046	 0.733302	 -0.541539	 0.168359	 1
1462068103.708	 11	 0.001165	 -0.029351	 -0.004195	 -2.722181	 -1.169456	 1.225613	 -0.375105	 0.733276	 -0.541483	 0.168520	 1
1462068103.718	 11	 0.004445	 -0.016567	 0.000160	 -2.722528	 -1.169616	 1.225493	 -0.375118	 0.733242	 -0.541476	 0.168660	 1
1462068103.728	 11	 0.003447	 -0.005897	 0.004533	 -2.722780	 -1.169820	 1.225334	 -0.375082	 0.733215	 -0.541504	 0.168766	 1
1462068103.738	 11	 0.002445	 0.005821	 0.006785	 -2.723186	 -1.170015	 1.224920	 -0.374996	 0.733225	 -0.541521	 0.168858	 1
1462068103.748	 11	 0.001421	 0.010117	 0.012164	 -2.723540	 -1.170231	 1.224467	 -0.374878	 0.733243	 -0.541558	 0.168926	 1
1462068103.758	 11	 0.002498	 0.011184	 0.013233	 -2.724054	 -1.170425	 1.223850	 -0.374746	 0.733282	 -0.541572	 0.169002	 1
1462068103.768	 11	 0.005669	 0.003736	 0.014204	 -2.724520	 -1.170605	 1.223323	 -0.374639	 0.733311	 -0.541584	 0.169081	 1
1462068103.778	 11	 0.007791	 -0.000510	 0.016279	 -2.725054	 -1.170770	 1.222779	 -0.374547	 0.733339	 -0.541579	 0.169175	 1
1462068103.788	 11	 0.004550	 -0.007954	 0.015173	 -2.725606	 -1.170882	 1.222275	 -0.374486	 0.733368	 -0.541552	 0.169273	 1
1462068103.798	 11	 0.002371	 -0.015410	 0.012992	 -2.726198	 -1.170936	 1.221814	 -0.374465	 0.733394	 -0.541497	 0.169380	 1
1462068103.808	 11	 0.000232	 -0.015411	 0.011945	 -2.726815	 -1.170988	 1.221358	 -0.374453	 0.733419	 -0.541436	 0.169498	 1
1462068103.818	 11	 -0.000825	 -0.013281	 0.011976	 -2.727463	 -1.171081	 1.220847	 -0.374421	 0.733443	 -0.541385	 0.169623	 1
1462068103.828	 11	 -0.000802	 -0.011132	 0.015194	 -2.728085	 -1.171217	 1.220330	 -0.374369	 0.733464	 -0.541354	 0.169749	 1
1462068103.838	 11	 0.000266	 -0.011135	 0.015186	 -2.728673	 -1.171363	 1.219838	 -0.374314	 0.733481	 -0.541330	 0.169872	 1
1462068103.848	 11	 0.001342	 -0.011123	 0.017310	 -2.729305	 -1.171535	 1.219292	 -0.374246	 0.733500	 -0.541310	 0.170004	 1
1462068103.858	 11	 0.003478	 -0.012186	 0.018348	 -2.729815	 -1.171790	 1.218876	 -0.374174	 0.733490	 -0.541327	 0.170151	 1
1462068103.868	 11	 0.004557	 -0.009006	 0.017302	 -2.730132	 -1.171985	 1.218621	 -0.374123	 0.733477	 -0.541348	 0.170252	 1
1462068103.878	 11	 0.004569	 -0.005822	 0.016265	 -2.730335	 -1.172130	 1.218453	 -0.374084	 0.733466	 -0.541368	 0.170322	 1
1462068103.888	 11	 0.001395	 0.001618	 0.014230	 -2.730483	 -1.172264	 1.218278	 -0.374030	 0.733463	 -0.541396	 0.170366	 1
1462068103.898	 11	 -0.000697	 0.012245	 0.012216	 -2.730571	 -1.172325	 1.218064	 -0.373961	 0.733485	 -0.541416	 0.170357	 1
1462068103.908	 11	 -0.001735	 0.017574	 0.013340	 -2.730819	 -1.172324	 1.217630	 -0.373870	 0.733545	 -0.541406	 0.170331	 1
1462068103.918	 11	 0.000390	 0.017552	 0.011190	 -2.730959	 -1.172349	 1.217288	 -0.373777	 0.733592	 -0.541417	 0.170297	 1
1462068103.928	 11	 0.003572	 0.013288	 0.011123	 -2.731065	 -1.172471	 1.217024	 -0.373681	 0.733612	 -0.541456	 0.170298	 1
1462068103.938	 11	 0.007829	 0.007979	 0.014235	 -2.731219	 -1.172703	 1.216758	 -0.373573	 0.733608	 -0.541520	 0.170347	 1
1462068103.948	 11	 0.011028	 0.009018	 0.012086	 -2.731341	 -1.172941	 1.216544	 -0.373474	 0.733596	 -0.541588	 0.170401	 1
1462068103.958	 11	 0.012123	 0.015389	 0.011070	 -2.731236	 -1.173184	 1.216490	 -0.373371	 0.733573	 -0.541686	 0.170415	 1
1462068103.968	 11	 0.010011	 0.020706	 0.010071	 -2.730888	 -1.173410	 1.216611	 -0.373270	 0.733541	 -0.541808	 0.170383	 1
1462068103.978	 11	 0.007889	 0.024952	 0.007997	 -2.730596	 -1.173544	 1.216648	 -0.373175	 0.733535	 -0.541900	 0.170324	 1
1462068103.988	 11	 0.004684	 0.026010	 0.005902	 -2.730234	 -1.173607	 1.216729	 -0.373093	 0.733540	 -0.541980	 0.170231	 1
1462068103.998	 11	 -0.001738	 0.023887	 0.003806	 -2.729973	 -1.173553	 1.216735	 -0.373036	 0.733571	 -0.542012	 0.170122	 1
1462068104.008	 11	 -0.004975	 0.017507	 0.002708	 -2.729818	 -1.173419	 1.216681	 -0.373004	 0.733617	 -0.542005	 0.170013	 1
1462068104.018	 11	 -0.008220	 0.009007	 0.002657	 -2.729980	 -1.173209	 1.216400	 -0.372992	 0.733692	 -0.541935	 0.169937	 1
1462068104.028	 11	 -0.009334	 -0.000563	 0.002578	 -2.730279	 -1.173001	 1.216073	 -0.373000	 0.733764	 -0.541844	 0.169900	 1
1462068104.038	 11	 -0.010459	 -0.012261	 0.002479	 -2.730750	 -1.172837	 1.215700	 -0.373028	 0.733822	 -0.541738	 0.169926	 1
1462068104.048	 11	 -0.011587	 -0.023966	 0.001315	 -2.731329	 -1.172693	 1.215349	 -0.373088	 0.733863	 -0.541617	 0.170004	 1
1462068104.058	 11	 -0.010556	 -0.032472	 0.002295	 -2.732128	 -1.172652	 1.214883	 -0.373142	 0.733889	 -0.541495	 0.170159	 1
1462068104.068	 11	 -0.009515	 -0.034644	 0.004378	 -2.732830	 -1.172667	 1.214533	 -0.373201	 0.733892	 -0.541398	 0.170326	 1
1462068104.078	 11	 -0.011613	 -0.028248	 0.005524	 -2.733527	 -1.172768	 1.214134	 -0.373221	 0.733890	 -0.541333	 0.170502	 1
1462068104.088	 11	 -0.010505	 -0.021855	 0.007706	 -2.734088	 -1.172842	 1.213793	 -0.373230	 0.733893	 -0.541280	 0.170636	 1
1462068104.098	 11	 -0.012583	 -0.011204	 0.008889	 -2.734451	 -1.172875	 1.213535	 -0.373227	 0.733904	 -0.541244	 0.170709	 1
1462068104.108	 11	 -0.012563	 -0.006949	 0.008929	 -2.734792	 -1.172827	 1.213233	 -0.373219	 0.733940	 -0.541192	 0.170739	 1
1462068104.118	 11	 -0.014678	 -0.002688	 0.008986	 -2.735138	 -1.172643	 1.212885	 -0.373226	 0.734007	 -0.541101	 0.170720	 1
1462068104.128	 11	 -0.014723	 -0.009093	 0.005729	 -2.735508	 -1.172376	 1.212566	 -0.373269	 0.734082	 -0.540978	 0.170695	 1
1462068104.138	 11	 -0.014795	 -0.021873	 0.003478	 -2.735963	 -1.172055	 1.212276	 -0.373357	 0.734153	 -0.540820	 0.170695	 1
1462068104.148	 11	 -0.011651	 -0.033583	 0.003341	 -2.736546	 -1.171790	 1.211999	 -0.373472	 0.734202	 -0.540655	 0.170760	 1
1462068104.158	 11	 -0.011687	 -0.038917	 0.001160	 -2.737194	 -1.171553	 1.211739	 -0.373604	 0.734236	 -0.540484	 0.170862	 1
1462068104.168	 11	 -0.008475	 -0.035743	 0.000096	 -2.737750	 -1.171438	 1.211551	 -0.373711	 0.734244	 -0.540361	 0.170983	 1
1462068104.178	 11	 -0.006296	 -0.028289	 0.002279	 -2.738227	 -1.171448	 1.211381	 -0.373776	 0.734233	 -0.540289	 0.171115	 1
1462068104.188	 11	 -0.006274	 -0.021922	 0.000207	 -2.738630	 -1.171399	 1.211218	 -0.373836	 0.734238	 -0.540213	 0.171205	 1
1462068104.198	 11	 -0.009463	 -0.016618	 -0.002913	 -2.738969	 -1.171352	 1.211055	 -0.373878	 0.734248	 -0.540149	 0.171273	 1
1462068104.208	 11	 -0.009466	 -0.019786	 0.000256	 -2.739284	 -1.171286	 1.210921	 -0.373928	 0.734257	 -0.540082	 0.171334	 1
1462068104.218	 11	 -0.007365	 -0.025126	 -0.001944	 -2.739587	 -1.171203	 1.210848	 -0.374002	 0.734259	 -0.540006	 0.171402	 1
1462068104.228	 11	 -0.006332	 -0.030463	 -0.004134	 -2.739799	 -1.171117	 1.210923	 -0.374106	 0.734242	 -0.539934	 0.171477	 1
1462068104.238	 11	 -0.005279	 -0.032602	 -0.005229	 -2.740022	 -1.171038	 1.211026	 -0.374221	 0.734218	 -0.539859	 0.171564	 1
1462068104.248	 11	 -0.005260	 -0.029403	 -0.004134	 -2.740293	 -1.170951	 1.211067	 -0.374329	 0.734202	 -0.539779	 0.171651	 1
1462068104.258	 11	 -0.002038	 -0.024102	 -0.005178	 -2.740452	 -1.170922	 1.211172	 -0.374417	 0.734174	 -0.539731	 0.171729	 1
1462068104.268	 11	 -0.000951	 -0.020907	 -0.004092	 -2.740697	 -1.170960	 1.211156	 -0.374469	 0.734149	 -0.539698	 0.171825	 1
1462068104.278	 11	 -0.002003	 -0.018769	 -0.002996	 -2.740979	 -1.171018	 1.211083	 -0.374505	 0.734128	 -0.539670	 0.171925	 1
1462068104.288	 11	 -0.000930	 -0.017709	 -0.002994	 -2.741262	 -1.171078	 1.210998	 -0.374537	 0.734109	 -0.539642	 0.172023	 1
1462068104.298	 11	 -0.000926	 -0.017702	 -0.001927	 -2.741682	 -1.171094	 1.210785	 -0.374568	 0.734110	 -0.539587	 0.172124	 1
1462068104.308	 11	 -0.000919	 -0.019799	 0.002319	 -2.742287	 -1.171163	 1.210395	 -0.374573	 0.734119	 -0.539528	 0.172260	 1
1462068104.318	 11	 -0.000940	 -0.020892	 0.002290	 -2.742903	 -1.171180	 1.210011	 -0.374595	 0.734135	 -0.539451	 0.172387	 1
1462068104.328	 11	 -0.003076	 -0.021943	 0.003366	 -2.743607	 -1.171134	 1.209549	 -0.374625	 0.734169	 -0.539345	 0.172508	 1
1462068104.338	 11	 -0.004154	 -0.024067	 0.003357	 -2.744310	 -1.171031	 1.209096	 -0.374671	 0.734211	 -0.539221	 0.172616	 1
1462068104.348	 11	 -0.003095	 -0.027247	 0.005450	 -2.744990	 -1.170934	 1.208687	 -0.374726	 0.734246	 -0.539099	 0.172728	 1
1462068104.358	 11	 0.001168	 -0.027268	 0.004347	 -2.745539	 -1.170878	 1.208421	 -0.374788	 0.734259	 -0.539002	 0.172843	 1
1462068104.368	 11	 0.005446	 -0.024097	 0.003274	 -2.745927	 -1.170836	 1.208300	 -0.374858	 0.734255	 -0.538927	 0.172941	 1
1462068104.378	 11	 0.005468	 -0.016675	 0.000145	 -2.746039	 -1.170852	 1.208371	 -0.374911	 0.734229	 -0.538905	 0.173006	 1
1462068104.388	 11	 0.005509	 -0.008165	 0.000223	 -2.746083	 -1.170901	 1.208431	 -0.374934	 0.734206	 -0.538906	 0.173051	 1
1462068104.398	 11	 0.005544	 -0.000720	 0.000293	 -2.746195	 -1.170969	 1.208358	 -0.374922	 0.734198	 -0.538912	 0.173092	 1
1462068104.408	 11	 0.006622	 0.002459	 -0.000752	 -2.746383	 -1.171036	 1.208182	 -0.374893	 0.734203	 -0.538913	 0.173132	 1
1462068104.418	 11	 0.002368	 0.005663	 -0.000684	 -2.746563	 -1.171068	 1.207976	 -0.374859	 0.734220	 -0.538906	 0.173151	 1
1462068104.428	 11	 0.001319	 0.007808	 0.001478	 -2.746873	 -1.171082	 1.207623	 -0.374810	 0.734257	 -0.538883	 0.173174	 1
1462068104.438	 11	 -0.000838	 0.001447	 0.003571	 -2.747315	 -1.171079	 1.207177	 -0.374766	 0.734303	 -0.538838	 0.173215	 1
1462068104.448	 11	 -0.002986	 -0.003842	 0.006739	 -2.747843	 -1.171090	 1.206687	 -0.374726	 0.734347	 -0.538785	 0.173280	 1
1462068104.458	 11	 -0.004072	 -0.005982	 0.004598	 -2.748194	 -1.171028	 1.206393	 -0.374726	 0.734382	 -0.538726	 0.173313	 1
1462068104.468	 11	 -0.007259	 -0.002782	 0.004655	 -2.748527	 -1.170921	 1.206094	 -0.374729	 0.734429	 -0.538657	 0.173325	 1
1462068104.478	 11	 -0.008328	 -0.002779	 0.004664	 -2.748758	 -1.170754	 1.205873	 -0.374747	 0.734480	 -0.538581	 0.173304	 1
1462068104.488	 11	 -0.007286	 -0.004883	 0.002474	 -2.748838	 -1.170598	 1.205813	 -0.374781	 0.734511	 -0.538524	 0.173274	 1
1462068104.498	 11	 -0.003044	 -0.011271	 0.003443	 -2.748986	 -1.170508	 1.205749	 -0.374818	 0.734526	 -0.538474	 0.173287	 1
1462068104.508	 11	 0.000107	 -0.020861	 0.002261	 -2.749259	 -1.170472	 1.205657	 -0.374865	 0.734526	 -0.538420	 0.173352	 1
1462068104.518	 11	 0.001164	 -0.022991	 0.002231	 -2.749465	 -1.170486	 1.205679	 -0.374925	 0.734502	 -0.538384	 0.173437	 1
1462068104.528	 11	 -0.000930	 -0.013420	 0.001273	 -2.749688	 -1.170440	 1.205621	 -0.374975	 0.734502	 -0.538333	 0.173491	 1
1462068104.538	 11	 -0.004090	 -0.003845	 0.000324	 -2.749804	 -1.170405	 1.205562	 -0.374992	 0.734509	 -0.538305	 0.173508	 1
1462068104.548	 11	 -0.006189	 0.002551	 0.001468	 -2.750002	 -1.170449	 1.205359	 -0.374961	 0.734522	 -0.538300	 0.173538	 1
1462068104.558	 11	 -0.005107	 0.004682	 0.002546	 -2.750338	 -1.170529	 1.205000	 -0.374902	 0.734546	 -0.538292	 0.173587	 1
1462068104.568	 11	 -0.004031	 0.004694	 0.004669	 -2.750736	 -1.170593	 1.204567	 -0.374836	 0.734581	 -0.538275	 0.173634	 1
1462068104.578	 11	 -0.001892	 0.004694	 0.005718	 -2.751104	 -1.170685	 1.204162	 -0.374766	 0.734609	 -0.538269	 0.173686	 1
1462068104.588	 11	 -0.000839	 0.002556	 0.004624	 -2.751337	 -1.170775	 1.203898	 -0.374712	 0.734622	 -0.538276	 0.173726	 1
1462068104.598	 11	 -0.001899	 0.005735	 0.002531	 -2.751321	 -1.170828	 1.203855	 -0.374680	 0.734622	 -0.538299	 0.173722	 1
1462068104.608	 11	 -0.001872	 0.012109	 0.001524	 -2.751187	 -1.170875	 1.203876	 -0.374641	 0.734621	 -0.538337	 0.173692	 1
1462068104.618	 11	 0.000279	 0.016350	 0.000479	 -2.750933	 -1.170929	 1.203972	 -0.374596	 0.734616	 -0.538392	 0.173639	 1
1462068104.628	 11	 -0.000758	 0.022735	 0.000548	 -2.750702	 -1.170925	 1.203983	 -0.374539	 0.734635	 -0.538434	 0.173556	 1
1462068104.638	 11	 0.001391	 0.024863	 0.001614	 -2.750435	 -1.170945	 1.204001	 -0.374469	 0.734651	 -0.538488	 0.173469	 1
1462068104.648	 11	 0.001416	 0.029126	 0.002719	 -2.750164	 -1.170979	 1.203991	 -0.374385	 0.734670	 -0.538550	 0.173376	 1
1462068104.658	 11	 0.001435	 0.031269	 0.004871	 -2.749863	 -1.171049	 1.203969	 -0.374281	 0.734688	 -0.538630	 0.173279	 1
1462068104.668	 11	 0.000366	 0.032364	 0.004841	 -2.749545	 -1.171070	 1.203943	 -0.374181	 0.734716	 -0.538698	 0.173161	 1
1462068104.677	 11	 -0.001790	 0.027060	 0.005875	 -2.749292	 -1.171016	 1.203891	 -0.374106	 0.734758	 -0.538733	 0.173039	 1
1462068104.687	 11	 -0.001849	 0.016408	 0.003645	 -2.749191	 -1.170986	 1.203791	 -0.374048	 0.734791	 -0.538752	 0.172966	 1
1462068104.698	 11	 -0.000808	 0.011087	 0.003586	 -2.749017	 -1.170978	 1.203820	 -0.374014	 0.734802	 -0.538779	 0.172908	 1
1462068104.708	 11	 0.001311	 0.006833	 0.004593	 -2.748868	 -1.170969	 1.203871	 -0.373994	 0.734806	 -0.538800	 0.172865	 1
1462068104.718	 11	 0.002353	 0.002568	 0.003478	 -2.748760	 -1.170990	 1.203928	 -0.373982	 0.734802	 -0.538822	 0.172846	 1
1462068104.728	 11	 0.001277	 0.001500	 0.002411	 -2.748795	 -1.171015	 1.203882	 -0.373969	 0.734803	 -0.538827	 0.172853	 1
1462068104.738	 11	 0.001278	 0.003611	 0.000299	 -2.748817	 -1.170976	 1.203837	 -0.373967	 0.734816	 -0.538815	 0.172839	 1
1462068104.748	 11	 -0.000817	 0.011071	 0.001453	 -2.748818	 -1.170973	 1.203746	 -0.373934	 0.734833	 -0.538821	 0.172814	 1
1462068104.758	 11	 -0.005054	 0.019578	 -0.000562	 -2.748773	 -1.170940	 1.203620	 -0.373883	 0.734867	 -0.538831	 0.172754	 1
1462068104.768	 11	 -0.006135	 0.017446	 -0.001638	 -2.748587	 -1.170889	 1.203615	 -0.373842	 0.734893	 -0.538850	 0.172670	 1
1462068104.778	 11	 -0.004046	 0.007866	 -0.001746	 -2.748434	 -1.170914	 1.203659	 -0.373811	 0.734893	 -0.538883	 0.172633	 1
1462068104.788	 11	 -0.004069	 0.003604	 -0.002850	 -2.748381	 -1.170988	 1.203674	 -0.373787	 0.734882	 -0.538914	 0.172638	 1
1462068104.798	 11	 -0.000867	 0.003594	 -0.002878	 -2.748251	 -1.171006	 1.203774	 -0.373784	 0.734871	 -0.538935	 0.172622	 1
1462068104.808	 11	 -0.002992	 0.004672	 -0.001784	 -2.748126	 -1.170977	 1.203845	 -0.373783	 0.734874	 -0.538943	 0.172587	 1
1462068104.818	 11	 -0.000870	 0.003674	 -0.003994	 -2.747907	 -1.171019	 1.204024	 -0.373781	 0.734852	 -0.538982	 0.172566	 1
1462068104.828	 11	 0.000204	 0.005791	 -0.005049	 -2.747652	 -1.171038	 1.204228	 -0.373783	 0.734833	 -0.539018	 0.172533	 1
1462068104.838	 11	 0.000218	 0.007926	 -0.003964	 -2.747469	 -1.171038	 1.204340	 -0.373774	 0.734828	 -0.539042	 0.172496	 1
1462068104.848	 11	 0.001312	 0.013241	 -0.003924	 -2.747213	 -1.171166	 1.204477	 -0.373728	 0.734801	 -0.539117	 0.172474	 1
1462068104.858	 11	 0.000260	 0.015379	 -0.002829	 -2.747004	 -1.171249	 1.204538	 -0.373675	 0.734793	 -0.539177	 0.172437	 1
1462068104.868	 11	 0.000255	 0.014316	 -0.002838	 -2.746756	 -1.171334	 1.204638	 -0.373627	 0.734781	 -0.539240	 0.172396	 1
1462068104.878	 11	 0.003427	 0.006868	 -0.001869	 -2.746575	 -1.171470	 1.204743	 -0.373586	 0.734753	 -0.539307	 0.172395	 1
1462068104.888	 11	 0.000194	 -0.000561	 -0.000844	 -2.746530	 -1.171531	 1.204779	 -0.373574	 0.734739	 -0.539331	 0.172405	 1
1462068104.898	 11	 -0.003027	 -0.004806	 -0.000855	 -2.746611	 -1.171565	 1.204738	 -0.373573	 0.734734	 -0.539329	 0.172434	 1
1462068104.907	 11	 -0.003037	 -0.006933	 -0.000875	 -2.746713	 -1.171590	 1.204703	 -0.373582	 0.734727	 -0.539321	 0.172468	 1
1462068104.918	 11	 -0.005171	 -0.006927	 -0.000856	 -2.746915	 -1.171548	 1.204581	 -0.373601	 0.734740	 -0.539281	 0.172499	 1
1462068104.928	 11	 -0.005146	 -0.000553	 -0.001862	 -2.747039	 -1.171448	 1.204479	 -0.373619	 0.734766	 -0.539236	 0.172489	 1
1462068104.938	 11	 -0.002982	 0.004766	 -0.000765	 -2.747116	 -1.171393	 1.204373	 -0.373613	 0.734789	 -0.539214	 0.172473	 1
1462068104.948	 11	 -0.002986	 0.004759	 -0.001831	 -2.747117	 -1.171368	 1.204328	 -0.373602	 0.734802	 -0.539210	 0.172454	 1
1462068104.958	 11	 -0.000853	 0.002640	 0.000263	 -2.747138	 -1.171422	 1.204276	 -0.373577	 0.734800	 -0.539227	 0.172463	 1
1462068104.968	 11	 0.002356	 0.001689	 0.001238	 -2.747058	 -1.171499	 1.204328	 -0.373558	 0.734784	 -0.539261	 0.172469	 1
1462068104.978	 11	 0.000247	 0.007013	 0.001306	 -2.747006	 -1.171599	 1.204321	 -0.373519	 0.734772	 -0.539302	 0.172475	 1
1462068104.988	 11	 0.002392	 0.008078	 0.002363	 -2.746963	 -1.171723	 1.204285	 -0.373467	 0.734760	 -0.539351	 0.172485	 1
1462068104.998	 11	 -0.000804	 0.009151	 0.002401	 -2.746960	 -1.171800	 1.204199	 -0.373417	 0.734763	 -0.539383	 0.172481	 1
1462068105.008	 11	 -0.002928	 0.011285	 0.002440	 -2.746834	 -1.171857	 1.204192	 -0.373368	 0.734765	 -0.539424	 0.172449	 1
1462068105.018	 11	 -0.005061	 0.012348	 0.001402	 -2.746677	 -1.171868	 1.204207	 -0.373329	 0.734774	 -0.539456	 0.172398	 1
1462068105.028	 11	 -0.007198	 0.013402	 -0.000701	 -2.746492	 -1.171858	 1.204252	 -0.373297	 0.734783	 -0.539483	 0.172340	 1
1462068105.038	 11	 -0.008260	 0.014469	 -0.000683	 -2.746215	 -1.171807	 1.204370	 -0.373277	 0.734794	 -0.539509	 0.172255	 1
1462068105.048	 11	 -0.007189	 0.013418	 0.001430	 -2.746092	 -1.171742	 1.204346	 -0.373250	 0.734820	 -0.539514	 0.172186	 1
1462068105.058	 11	 -0.007210	 0.008107	 0.002446	 -2.746100	 -1.171683	 1.204233	 -0.373224	 0.734851	 -0.539504	 0.172142	 1
1462068105.068	 11	 -0.004020	 0.003859	 0.004510	 -2.746084	 -1.171636	 1.204185	 -0.373212	 0.734870	 -0.539497	 0.172110	 1
1462068105.078	 11	 -0.000828	 0.002778	 0.003405	 -2.745892	 -1.171615	 1.204322	 -0.373215	 0.734865	 -0.539515	 0.172071	 1
1462068105.088	 11	 0.004507	 0.002762	 0.003358	 -2.745734	 -1.171612	 1.204431	 -0.373213	 0.734858	 -0.539534	 0.172041	 1
1462068105.098	 11	 0.005565	 0.001688	 0.002273	 -2.745593	 -1.171675	 1.204536	 -0.373200	 0.734840	 -0.539571	 0.172035	 1
1462068105.108	 11	 0.005551	 -0.000447	 0.001187	 -2.745368	 -1.171752	 1.204747	 -0.373200	 0.734806	 -0.539618	 0.172031	 1
1462068105.118	 11	 0.005549	 -0.001392	 -0.001011	 -2.745111	 -1.171836	 1.205009	 -0.373208	 0.734764	 -0.539669	 0.172030	 1
1462068105.128	 11	 0.003426	 0.001798	 -0.002029	 -2.744823	 -1.171865	 1.205273	 -0.373221	 0.734735	 -0.539709	 0.172004	 1
1462068105.138	 11	 0.000277	 0.014556	 -0.004015	 -2.744527	 -1.171886	 1.205460	 -0.373205	 0.734722	 -0.539754	 0.171952	 1
1462068105.147	 11	 0.001345	 0.014553	 -0.004024	 -2.744214	 -1.171892	 1.205641	 -0.373186	 0.734714	 -0.539799	 0.171887	 1
1462068105.158	 11	 0.000282	 0.015620	 -0.004005	 -2.744034	 -1.171809	 1.205680	 -0.373170	 0.734737	 -0.539804	 0.171808	 1
1462068105.168	 11	 -0.003998	 0.013505	 -0.003987	 -2.743969	 -1.171702	 1.205631	 -0.373158	 0.734770	 -0.539788	 0.171742	 1
1462068105.178	 11	 -0.002972	 0.004992	 -0.004075	 -2.743978	 -1.171563	 1.205573	 -0.373170	 0.734805	 -0.539749	 0.171691	 1
1462068105.188	 11	 -0.004086	 -0.004578	 -0.004155	 -2.743985	 -1.171402	 1.205567	 -0.373205	 0.734834	 -0.539699	 0.171647	 1
1462068105.198	 11	 -0.000901	 -0.007778	 -0.004213	 -2.743903	 -1.171269	 1.205716	 -0.373267	 0.734836	 -0.539660	 0.171621	 1
1462068105.207	 11	 0.000172	 -0.005662	 -0.005269	 -2.743651	 -1.171184	 1.206016	 -0.373328	 0.734817	 -0.539656	 0.171585	 1
1462068105.218	 11	 -0.000870	 -0.000340	 -0.005211	 -2.743350	 -1.171149	 1.206335	 -0.373372	 0.734790	 -0.539674	 0.171551	 1
1462068105.228	 11	 -0.001926	 0.002847	 -0.006239	 -2.742901	 -1.171105	 1.206746	 -0.373412	 0.734759	 -0.539709	 0.171485	 1
1462068105.237	 11	 -0.001936	 -0.000336	 -0.005203	 -2.742619	 -1.171112	 1.207013	 -0.373432	 0.734732	 -0.539741	 0.171456	 1
1462068105.248	 11	 -0.008348	 -0.001388	 -0.006223	 -2.742458	 -1.171072	 1.207200	 -0.373466	 0.734718	 -0.539743	 0.171436	 1
1462068105.258	 11	 -0.010477	 -0.000318	 -0.006195	 -2.742370	 -1.170944	 1.207277	 -0.373499	 0.734734	 -0.539714	 0.171389	 1
1462068105.267	 11	 -0.008336	 0.002851	 -0.008316	 -2.742280	 -1.170838	 1.207347	 -0.373524	 0.734747	 -0.539692	 0.171345	 1
1462068105.278	 11	 -0.010509	 -0.008813	 -0.004142	 -2.742379	 -1.170732	 1.207304	 -0.373559	 0.734765	 -0.539645	 0.171341	 1
1462068105.287	 11	 -0.008435	 -0.020527	 -0.005334	 -2.742659	 -1.170659	 1.207211	 -0.373616	 0.734771	 -0.539578	 0.171398	 1
1462068105.297	 11	 -0.010526	 -0.013996	 -0.006385	 -2.742864	 -1.170580	 1.207190	 -0.373681	 0.734772	 -0.539517	 0.171446	 1
1462068105.307	 11	 -0.007360	 -0.021451	 -0.006481	 -2.743032	 -1.170530	 1.207223	 -0.373750	 0.734760	 -0.539468	 0.171503	 1
1462068105.317	 11	 -0.001999	 -0.017205	 -0.005422	 -2.743200	 -1.170529	 1.207231	 -0.373798	 0.734744	 -0.539436	 0.171566	 1
1462068105.327	 11	 -0.006152	 0.006216	 -0.004102	 -2.743234	 -1.170564	 1.207196	 -0.373787	 0.734742	 -0.539443	 0.171579	 1
1462068105.338	 11	 0.000220	 -0.001241	 -0.003161	 -2.743206	 -1.170619	 1.207242	 -0.373784	 0.734726	 -0.539461	 0.171596	 1
1462068105.347	 11	 -0.001882	 0.006203	 -0.004139	 -2.743031	 -1.170638	 1.207376	 -0.373782	 0.734712	 -0.539488	 0.171574	 1
1462068105.357	 11	 -0.001882	 0.005147	 -0.003083	 -2.742852	 -1.170677	 1.207464	 -0.373757	 0.734705	 -0.539526	 0.171542	 1
1462068105.367	 11	 -0.002919	 0.010476	 -0.001959	 -2.742537	 -1.170731	 1.207677	 -0.373738	 0.734682	 -0.539583	 0.171499	 1
1462068105.377	 11	 -0.001851	 0.011529	 -0.003024	 -2.742305	 -1.170780	 1.207787	 -0.373705	 0.734673	 -0.539632	 0.171457	 1
1462068105.387	 11	 -0.000782	 0.012582	 -0.004089	 -2.742219	 -1.170827	 1.207760	 -0.373662	 0.734677	 -0.539665	 0.171431	 1
1462068105.397	 11	 -0.002923	 0.009412	 -0.001968	 -2.742132	 -1.170798	 1.207744	 -0.373639	 0.734693	 -0.539673	 0.171387	 1
1462068105.407	 11	 -0.002916	 0.008372	 0.001220	 -2.742186	 -1.170760	 1.207606	 -0.373611	 0.734720	 -0.539663	 0.171359	 1
1462068105.417	 11	 -0.003974	 0.009446	 0.002305	 -2.742273	 -1.170698	 1.207422	 -0.373581	 0.734758	 -0.539644	 0.171324	 1
1462068105.427	 11	 -0.006090	 0.011595	 0.004475	 -2.742301	 -1.170693	 1.207270	 -0.373534	 0.734785	 -0.539650	 0.171292	 1
1462068105.437	 11	 -0.007137	 0.015853	 0.004524	 -2.742204	 -1.170612	 1.207192	 -0.373497	 0.734822	 -0.539650	 0.171213	 1
1462068105.447	 11	 -0.009259	 0.015908	 0.003423	 -2.742034	 -1.170548	 1.207173	 -0.373458	 0.734852	 -0.539664	 0.171128	 1
1462068105.457	 11	 -0.009284	 0.010590	 0.003373	 -2.741812	 -1.170494	 1.207244	 -0.373436	 0.734867	 -0.539683	 0.171050	 1
1462068105.467	 11	 -0.008241	 0.006325	 0.002258	 -2.741552	 -1.170417	 1.207392	 -0.373438	 0.734875	 -0.539695	 0.170973	 1
1462068105.477	 11	 -0.007182	 0.006307	 0.000116	 -2.741312	 -1.170342	 1.207542	 -0.373445	 0.734881	 -0.539705	 0.170905	 1
1462068105.487	 11	 -0.006135	 0.003105	 -0.000989	 -2.741106	 -1.170255	 1.207686	 -0.373461	 0.734887	 -0.539704	 0.170844	 1
1462068105.497	 11	 -0.006168	 -0.001173	 -0.004227	 -2.740888	 -1.170124	 1.207888	 -0.373506	 0.734891	 -0.539688	 0.170782	 1
1462068105.507	 11	 -0.005111	 -0.002247	 -0.005312	 -2.740830	 -1.169993	 1.207971	 -0.373550	 0.734903	 -0.539652	 0.170747	 1
1462068105.517	 11	 -0.004046	 -0.004363	 -0.003209	 -2.740923	 -1.169903	 1.207929	 -0.373579	 0.734919	 -0.539611	 0.170744	 1
1462068105.527	 11	 -0.004056	 -0.006490	 -0.003228	 -2.741100	 -1.169827	 1.207824	 -0.373605	 0.734936	 -0.539563	 0.170760	 1
1462068105.537	 11	 -0.004054	 -0.008595	 -0.000050	 -2.741341	 -1.169811	 1.207673	 -0.373618	 0.734947	 -0.539526	 0.170804	 1
1462068105.547	 11	 -0.005111	 -0.006464	 -0.000021	 -2.741620	 -1.169762	 1.207473	 -0.373631	 0.734969	 -0.539476	 0.170839	 1
1462068105.557	 11	 -0.005091	 -0.003266	 0.001075	 -2.741765	 -1.169756	 1.207364	 -0.373631	 0.734978	 -0.539456	 0.170861	 1
1462068105.567	 11	 -0.007184	 0.006306	 0.000116	 -2.741870	 -1.169712	 1.207224	 -0.373618	 0.735003	 -0.539435	 0.170849	 1
1462068105.577	 11	 -0.006092	 0.011621	 0.000156	 -2.741788	 -1.169694	 1.207192	 -0.373588	 0.735019	 -0.539448	 0.170806	 1
1462068105.587	 11	 -0.006077	 0.013756	 0.001242	 -2.741751	 -1.169690	 1.207085	 -0.373540	 0.735043	 -0.539463	 0.170762	 1
1462068105.597	 11	 -0.007127	 0.011757	 0.003313	 -2.741838	 -1.169650	 1.206872	 -0.373494	 0.735082	 -0.539452	 0.170726	 1
1462068105.607	 11	 -0.005019	 0.006432	 0.003246	 -2.741969	 -1.169553	 1.206668	 -0.373475	 0.735127	 -0.539416	 0.170692	 1
1462068105.617	 11	 -0.003984	 -0.001009	 0.004233	 -2.742205	 -1.169470	 1.206423	 -0.373467	 0.735167	 -0.539367	 0.170689	 1
1462068105.627	 11	 -0.005055	 0.000042	 0.002120	 -2.742344	 -1.169335	 1.206278	 -0.373482	 0.735206	 -0.539312	 0.170664	 1
1462068105.637	 11	 -0.005065	 -0.001029	 0.001045	 -2.742382	 -1.169230	 1.206234	 -0.373499	 0.735229	 -0.539277	 0.170637	 1
1462068105.647	 11	 -0.004007	 -0.002104	 -0.000040	 -2.742490	 -1.169184	 1.206152	 -0.373508	 0.735243	 -0.539250	 0.170642	 1
1462068105.657	 11	 -0.004016	 -0.003175	 -0.001116	 -2.742345	 -1.169196	 1.206306	 -0.373523	 0.735225	 -0.539267	 0.170633	 1
1462068105.667	 11	 -0.001877	 -0.003174	 -0.000069	 -2.742260	 -1.169234	 1.206417	 -0.373533	 0.735204	 -0.539285	 0.170643	 1
1462068105.677	 11	 -0.002947	 -0.002122	 -0.002182	 -2.742198	 -1.169231	 1.206493	 -0.373544	 0.735196	 -0.539290	 0.170640	 1
1462068105.687	 11	 -0.000808	 -0.001065	 -0.002191	 -2.742029	 -1.169239	 1.206668	 -0.373561	 0.735177	 -0.539309	 0.170627	 1
1462068105.697	 11	 -0.000808	 -0.001065	 -0.002191	 -2.741895	 -1.169192	 1.206806	 -0.373586	 0.735171	 -0.539308	 0.170602	 1
1462068105.707	 11	 -0.001920	 -0.008523	 -0.004383	 -2.741971	 -1.169085	 1.206801	 -0.373629	 0.735184	 -0.539261	 0.170599	 1
1462068105.717	 11	 -0.001963	 -0.019145	 -0.002350	 -2.742217	 -1.168986	 1.206734	 -0.373692	 0.735193	 -0.539191	 0.170644	 1
1462068105.727	 11	 -0.003080	 -0.028722	 -0.003494	 -2.742677	 -1.168870	 1.206562	 -0.373779	 0.735206	 -0.539084	 0.170735	 1
1462068105.737	 11	 -0.006279	 -0.029761	 -0.001344	 -2.743140	 -1.168773	 1.206414	 -0.373871	 0.735211	 -0.538981	 0.170838	 1
1462068105.747	 11	 -0.006248	 -0.022324	 -0.002340	 -2.743602	 -1.168748	 1.206208	 -0.373925	 0.735215	 -0.538904	 0.170945	 1
1462068105.757	 11	 -0.005129	 -0.015851	 -0.002338	 -2.743763	 -1.168798	 1.206221	 -0.373962	 0.735190	 -0.538888	 0.171021	 1
1462068105.767	 11	 -0.006157	 -0.009451	 -0.000138	 -2.744043	 -1.168861	 1.206058	 -0.373964	 0.735185	 -0.538869	 0.171098	 1
1462068105.777	 11	 -0.008242	 -0.000920	 0.002092	 -2.744318	 -1.168913	 1.205819	 -0.373938	 0.735197	 -0.538854	 0.171149	 1
1462068105.787	 11	 -0.008213	 0.003350	 0.004264	 -2.744541	 -1.168922	 1.205565	 -0.373903	 0.735224	 -0.538837	 0.171165	 1
1462068105.797	 11	 -0.008197	 0.006541	 0.004293	 -2.744689	 -1.168884	 1.205352	 -0.373873	 0.735258	 -0.538816	 0.171152	 1
1462068105.807	 11	 -0.006099	 -0.000911	 0.004206	 -2.744873	 -1.168798	 1.205147	 -0.373866	 0.735295	 -0.538772	 0.171140	 1
1462068105.817	 11	 -0.003996	 -0.007300	 0.004128	 -2.745078	 -1.168725	 1.204983	 -0.373878	 0.735321	 -0.538726	 0.171152	 1
1462068105.827	 11	 -0.001873	 -0.011545	 0.006201	 -2.745258	 -1.168686	 1.204890	 -0.373900	 0.735330	 -0.538688	 0.171182	 1
1462068105.837	 11	 0.002376	 -0.014757	 0.005068	 -2.745449	 -1.168752	 1.204823	 -0.373913	 0.735315	 -0.538678	 0.171252	 1
1462068105.847	 11	 0.002392	 -0.010510	 0.004042	 -2.745535	 -1.168817	 1.204844	 -0.373929	 0.735292	 -0.538681	 0.171307	 1
1462068105.857	 11	 0.002428	 -0.003064	 0.004110	 -2.745471	 -1.168872	 1.204935	 -0.373933	 0.735271	 -0.538701	 0.171324	 1
1462068105.867	 11	 -0.000748	 0.002264	 0.004187	 -2.745452	 -1.168928	 1.204927	 -0.373913	 0.735264	 -0.538723	 0.171330	 1
1462068105.877	 11	 0.001382	 0.001194	 0.004159	 -2.745327	 -1.168992	 1.205015	 -0.373897	 0.735247	 -0.538758	 0.171326	 1
1462068105.887	 11	 0.000305	 -0.000930	 0.004148	 -2.745269	 -1.169045	 1.205056	 -0.373885	 0.735235	 -0.538782	 0.171330	 1
1462068105.897	 11	 -0.000797	 -0.006261	 0.001976	 -2.745329	 -1.168996	 1.205038	 -0.373905	 0.735242	 -0.538757	 0.171334	 1
1462068105.907	 11	 -0.000812	 -0.009452	 0.001946	 -2.745384	 -1.168937	 1.205062	 -0.373942	 0.735243	 -0.538727	 0.171344	 1
1462068105.917	 11	 -0.001884	 -0.008400	 -0.000167	 -2.745480	 -1.168831	 1.205056	 -0.373989	 0.735255	 -0.538677	 0.171348	 1
1462068105.927	 11	 -0.003984	 -0.005128	 -0.001228	 -2.745432	 -1.168748	 1.205151	 -0.374029	 0.735255	 -0.538652	 0.171333	 1
1462068105.937	 11	 -0.002931	 -0.006210	 -0.003379	 -2.745401	 -1.168677	 1.205238	 -0.374069	 0.735254	 -0.538629	 0.171326	 1
1462068105.947	 11	 -0.002932	 -0.008322	 -0.001267	 -2.745399	 -1.168692	 1.205317	 -0.374094	 0.735237	 -0.538627	 0.171350	 1
1462068105.957	 11	 -0.003985	 -0.007240	 0.000883	 -2.745425	 -1.168735	 1.205355	 -0.374106	 0.735220	 -0.538632	 0.171382	 1
1462068105.967	 11	 -0.005029	 -0.005086	 0.004110	 -2.745665	 -1.168772	 1.205163	 -0.374091	 0.735229	 -0.538615	 0.171429	 1
1462068105.977	 11	 -0.005048	 -0.008285	 0.003015	 -2.745859	 -1.168793	 1.205025	 -0.374088	 0.735235	 -0.538597	 0.171469	 1
1462068105.987	 11	 -0.004009	 -0.011502	 -0.000221	 -2.745975	 -1.168782	 1.205009	 -0.374116	 0.735230	 -0.538573	 0.171504	 1
1462068105.997	 11	 -0.005080	 -0.011507	 -0.001278	 -2.746045	 -1.168713	 1.205052	 -0.374165	 0.735228	 -0.538536	 0.171522	 1
1462068106.007	 11	 -0.002970	 -0.014720	 -0.003458	 -2.746093	 -1.168682	 1.205140	 -0.374218	 0.735213	 -0.538509	 0.171555	 1
1462068106.017	 11	 0.000226	 -0.016849	 -0.002440	 -2.746140	 -1.168629	 1.205254	 -0.374284	 0.735197	 -0.538475	 0.171588	 1
1462068106.027	 11	 0.004484	 -0.018989	 -0.002497	 -2.746187	 -1.168642	 1.205396	 -0.374346	 0.735164	 -0.538458	 0.171647	 1
1462068106.037	 11	 0.004485	 -0.016877	 -0.004609	 -2.746204	 -1.168641	 1.205563	 -0.374412	 0.735131	 -0.538440	 0.171698	 1
1462068106.047	 11	 0.001281	 -0.015819	 -0.006703	 -2.746141	 -1.168646	 1.205793	 -0.374479	 0.735093	 -0.538433	 0.171739	 1
1462068106.057	 11	 -0.000842	 -0.011574	 -0.008777	 -2.746085	 -1.168646	 1.205996	 -0.374538	 0.735059	 -0.538426	 0.171772	 1
1462068106.067	 11	 -0.001884	 -0.007308	 -0.007662	 -2.746114	 -1.168633	 1.206074	 -0.374578	 0.735045	 -0.538410	 0.171800	 1
1462068106.077	 11	 -0.000809	 -0.007297	 -0.005539	 -2.746389	 -1.168660	 1.205903	 -0.374583	 0.735048	 -0.538382	 0.171863	 1
1462068106.087	 11	 0.003477	 -0.011479	 -0.002450	 -2.746762	 -1.168706	 1.205666	 -0.374586	 0.735053	 -0.538346	 0.171949	 1
1462068106.097	 11	 0.002393	 -0.015723	 -0.001413	 -2.747198	 -1.168723	 1.205415	 -0.374607	 0.735059	 -0.538291	 0.172047	 1
1462068106.107	 11	 0.001321	 -0.015728	 -0.002469	 -2.747642	 -1.168730	 1.205169	 -0.374635	 0.735066	 -0.538231	 0.172145	 1
1462068106.117	 11	 0.001327	 -0.013609	 -0.003514	 -2.747890	 -1.168715	 1.205088	 -0.374675	 0.735062	 -0.538187	 0.172210	 1
1462068106.127	 11	 0.000299	 -0.006153	 -0.002370	 -2.748169	 -1.168713	 1.204916	 -0.374687	 0.735071	 -0.538150	 0.172267	 1
1462068106.137	 11	 -0.002848	 0.003445	 -0.000121	 -2.748322	 -1.168721	 1.204769	 -0.374673	 0.735084	 -0.538136	 0.172285	 1
1462068106.147	 11	 -0.006010	 0.010908	 0.001042	 -2.748514	 -1.168709	 1.204498	 -0.374627	 0.735120	 -0.538120	 0.172279	 1
1462068106.157	 11	 -0.005991	 0.013050	 0.003194	 -2.748712	 -1.168760	 1.204181	 -0.374553	 0.735153	 -0.538126	 0.172281	 1
1462068106.167	 11	 -0.002790	 0.011985	 0.004223	 -2.748774	 -1.168847	 1.203995	 -0.374482	 0.735167	 -0.538156	 0.172278	 1
1462068106.177	 11	 -0.000675	 0.008779	 0.003109	 -2.748865	 -1.168929	 1.203811	 -0.374421	 0.735180	 -0.538180	 0.172284	 1
1462068106.187	 11	 -0.001732	 0.010910	 0.003139	 -2.748899	 -1.168948	 1.203666	 -0.374372	 0.735200	 -0.538193	 0.172263	 1
1462068106.197	 11	 -0.002813	 0.008778	 0.002062	 -2.748898	 -1.168918	 1.203566	 -0.374342	 0.735224	 -0.538192	 0.172228	 1
1462068106.207	 11	 -0.004959	 0.005601	 0.003117	 -2.748922	 -1.168848	 1.203470	 -0.374329	 0.735253	 -0.538174	 0.172191	 1
1462068106.217	 11	 -0.006040	 0.004525	 0.000985	 -2.749034	 -1.168770	 1.203313	 -0.374319	 0.735286	 -0.538143	 0.172169	 1
1462068106.227	 11	 -0.006032	 0.004540	 0.003116	 -2.749069	 -1.168723	 1.203229	 -0.374307	 0.735307	 -0.538129	 0.172146	 1
1462068106.237	 11	 -0.003896	 0.005590	 0.002041	 -2.748958	 -1.168680	 1.203276	 -0.374304	 0.735316	 -0.538133	 0.172106	 1
1462068106.247	 11	 -0.001780	 0.003441	 -0.000129	 -2.748768	 -1.168698	 1.203404	 -0.374296	 0.735305	 -0.538163	 0.172075	 1
1462068106.257	 11	 0.001466	 0.006672	 -0.000157	 -2.748618	 -1.168719	 1.203497	 -0.374285	 0.735297	 -0.538189	 0.172051	 1
1462068106.267	 11	 0.003615	 0.009857	 -0.000146	 -2.748458	 -1.168771	 1.203569	 -0.374257	 0.735288	 -0.538229	 0.172026	 1
1462068106.277	 11	 0.004702	 0.013052	 0.000940	 -2.748330	 -1.168836	 1.203580	 -0.374213	 0.735285	 -0.538272	 0.172000	 1
1462068106.287	 11	 0.003635	 0.013055	 0.000949	 -2.748253	 -1.168916	 1.203533	 -0.374157	 0.735286	 -0.538315	 0.171981	 1
1462068106.297	 11	 0.001491	 0.011990	 -0.000108	 -2.748106	 -1.168936	 1.203566	 -0.374125	 0.735289	 -0.538346	 0.171941	 1
1462068106.307	 11	 -0.000663	 0.008798	 -0.001185	 -2.747903	 -1.168943	 1.203667	 -0.374106	 0.735287	 -0.538377	 0.171896	 1
1462068106.317	 11	 -0.004917	 0.010946	 -0.000062	 -2.747802	 -1.168944	 1.203656	 -0.374075	 0.735297	 -0.538397	 0.171856	 1
1462068106.327	 11	 -0.007040	 0.014135	 -0.001079	 -2.747628	 -1.168904	 1.203683	 -0.374047	 0.735314	 -0.538415	 0.171788	 1
1462068106.337	 11	 -0.009153	 0.019452	 -0.002077	 -2.747436	 -1.168810	 1.203693	 -0.374019	 0.735345	 -0.538421	 0.171694	 1
1462068106.347	 11	 -0.015543	 0.025823	 -0.006226	 -2.747077	 -1.168586	 1.203795	 -0.374009	 0.735397	 -0.538411	 0.171528	 1
1462068106.357	 11	 -0.018724	 0.031143	 -0.007215	 -2.746619	 -1.168293	 1.203929	 -0.374000	 0.735463	 -0.538396	 0.171315	 1
1462068106.367	 11	 -0.017715	 0.021544	 -0.010511	 -2.746148	 -1.168108	 1.204144	 -0.373993	 0.735495	 -0.538409	 0.171148	 1
1462068106.377	 11	 -0.010301	 0.008765	 -0.009629	 -2.745717	 -1.167939	 1.204452	 -0.374028	 0.735504	 -0.538411	 0.171026	 1
1462068106.387	 11	 -0.008187	 0.004504	 -0.009688	 -2.745454	 -1.167873	 1.204671	 -0.374052	 0.735498	 -0.538421	 0.170970	 1
1462068106.397	 11	 -0.006048	 0.004506	 -0.008641	 -2.745089	 -1.167778	 1.204999	 -0.374095	 0.735484	 -0.538432	 0.170898	 1
1462068106.407	 11	 -0.003839	 0.013054	 -0.007538	 -2.744667	 -1.167711	 1.205315	 -0.374113	 0.735473	 -0.538464	 0.170809	 1
1462068106.417	 11	 -0.001670	 0.019438	 -0.006432	 -2.744163	 -1.167708	 1.205639	 -0.374097	 0.735456	 -0.538529	 0.170710	 1
1462068106.427	 11	 -0.001664	 0.020501	 -0.006422	 -2.743719	 -1.167703	 1.205874	 -0.374065	 0.735451	 -0.538591	 0.170609	 1
1462068106.437	 11	 -0.000588	 0.020514	 -0.004300	 -2.743427	 -1.167730	 1.205969	 -0.374015	 0.735453	 -0.538646	 0.170535	 1
1462068106.447	 11	 0.000467	 0.016271	 -0.002217	 -2.743205	 -1.167764	 1.206021	 -0.373967	 0.735456	 -0.538693	 0.170476	 1
1462068106.457	 11	 -0.001666	 0.017333	 -0.003254	 -2.743009	 -1.167768	 1.206055	 -0.373926	 0.735466	 -0.538728	 0.170415	 1
1462068106.467	 11	 -0.002758	 0.012018	 -0.003294	 -2.742777	 -1.167754	 1.206155	 -0.373903	 0.735469	 -0.538759	 0.170353	 1
1462068106.477	 11	 -0.001728	 0.007729	 -0.007606	 -2.742592	 -1.167788	 1.206273	 -0.373889	 0.735457	 -0.538794	 0.170326	 1
1462068106.487	 11	 -0.002815	 0.003478	 -0.007636	 -2.742458	 -1.167791	 1.206382	 -0.373892	 0.735448	 -0.538810	 0.170307	 1
1462068106.497	 11	 -0.003873	 0.004552	 -0.006550	 -2.742300	 -1.167805	 1.206515	 -0.373896	 0.735434	 -0.538833	 0.170288	 1
1462068106.507	 11	 -0.004909	 0.010938	 -0.006482	 -2.741988	 -1.167817	 1.206726	 -0.373886	 0.735419	 -0.538877	 0.170233	 1
1462068106.517	 11	 -0.007027	 0.014135	 -0.006434	 -2.741664	 -1.167800	 1.206909	 -0.373870	 0.735415	 -0.538917	 0.170159	 1
1462068106.527	 11	 -0.008088	 0.016258	 -0.007471	 -2.741268	 -1.167707	 1.207137	 -0.373868	 0.735423	 -0.538943	 0.170049	 1
1462068106.537	 11	 -0.010202	 0.021575	 -0.008469	 -2.740849	 -1.167590	 1.207357	 -0.373862	 0.735438	 -0.538967	 0.169922	 1
1462068106.547	 11	 -0.011274	 0.020515	 -0.008470	 -2.740407	 -1.167451	 1.207584	 -0.373857	 0.735457	 -0.538988	 0.169782	 1
1462068106.557	 11	 -0.007015	 0.018374	 -0.008527	 -2.740087	 -1.167360	 1.207721	 -0.373841	 0.735475	 -0.539008	 0.169676	 1
1462068106.567	 11	 -0.003801	 0.010984	 -0.005449	 -2.739857	 -1.167323	 1.207824	 -0.373826	 0.735481	 -0.539031	 0.169609	 1
1462068106.577	 11	 -0.001713	 -0.000708	 -0.003444	 -2.739875	 -1.167347	 1.207798	 -0.373815	 0.735481	 -0.539037	 0.169615	 1
1462068106.587	 11	 -0.000644	 -0.003871	 0.000781	 -2.740005	 -1.167328	 1.207712	 -0.373823	 0.735489	 -0.539014	 0.169635	 1
1462068106.597	 11	 -0.003823	 -0.001711	 0.004026	 -2.740272	 -1.167368	 1.207482	 -0.373802	 0.735502	 -0.538996	 0.169682	 1
1462068106.607	 11	 -0.004889	 -0.000652	 0.002980	 -2.740412	 -1.167414	 1.207337	 -0.373776	 0.735509	 -0.538996	 0.169707	 1
1462068106.617	 11	 -0.005959	 0.000399	 0.000867	 -2.740501	 -1.167434	 1.207236	 -0.373758	 0.735517	 -0.538995	 0.169718	 1
1462068106.627	 11	 -0.004895	 0.001444	 -0.001263	 -2.740610	 -1.167411	 1.207119	 -0.373750	 0.735534	 -0.538977	 0.169720	 1
1462068106.637	 11	 -0.002760	 0.002493	 -0.002338	 -2.740569	 -1.167402	 1.207134	 -0.373746	 0.735536	 -0.538981	 0.169707	 1
1462068106.647	 11	 -0.004879	 0.005691	 -0.002290	 -2.740530	 -1.167313	 1.207122	 -0.373751	 0.735557	 -0.538962	 0.169664	 1
1462068106.657	 11	 -0.004878	 0.007802	 -0.004402	 -2.740451	 -1.167219	 1.207127	 -0.373752	 0.735579	 -0.538948	 0.169611	 1
1462068106.667	 11	 -0.003792	 0.010998	 -0.003315	 -2.740414	 -1.167113	 1.207071	 -0.373745	 0.735611	 -0.538927	 0.169553	 1
1462068106.677	 11	 -0.005921	 0.013123	 -0.004343	 -2.740347	 -1.166978	 1.207025	 -0.373740	 0.735650	 -0.538902	 0.169478	 1
1462068106.687	 11	 -0.004847	 0.011024	 -0.000108	 -2.740400	 -1.166942	 1.206856	 -0.373700	 0.735683	 -0.538895	 0.169442	 1
1462068106.697	 11	 -0.003808	 0.002534	 0.003001	 -2.740570	 -1.166945	 1.206644	 -0.373667	 0.735708	 -0.538883	 0.169448	 1
1462068106.707	 11	 -0.002754	 -0.003820	 0.007196	 -2.740847	 -1.166983	 1.206391	 -0.373641	 0.735725	 -0.538864	 0.169493	 1
1462068106.717	 11	 -0.003798	 -0.001667	 0.010423	 -2.741078	 -1.166977	 1.206163	 -0.373620	 0.735749	 -0.538838	 0.169514	 1
1462068106.727	 11	 -0.004835	 0.004719	 0.010490	 -2.741017	 -1.166975	 1.206143	 -0.373597	 0.735758	 -0.538851	 0.169486	 1
1462068106.737	 11	 -0.009068	 0.006876	 0.007330	 -2.740835	 -1.166944	 1.206209	 -0.373579	 0.735767	 -0.538869	 0.169428	 1
1462068106.747	 11	 -0.009086	 0.005789	 0.004122	 -2.740467	 -1.166840	 1.206462	 -0.373596	 0.735769	 -0.538885	 0.169332	 1
1462068106.757	 11	 -0.008047	 0.002572	 0.000885	 -2.740158	 -1.166734	 1.206701	 -0.373624	 0.735769	 -0.538890	 0.169254	 1
1462068106.767	 11	 -0.007012	 -0.000653	 -0.003418	 -2.739832	 -1.166585	 1.207001	 -0.373680	 0.735766	 -0.538880	 0.169173	 1
1462068106.777	 11	 -0.003829	 -0.001749	 -0.006654	 -2.739648	 -1.166428	 1.207200	 -0.373738	 0.735772	 -0.538850	 0.169116	 1
1462068106.787	 11	 -0.005994	 -0.008124	 -0.006695	 -2.739507	 -1.166335	 1.207409	 -0.373798	 0.735761	 -0.538830	 0.169094	 1
1462068106.797	 11	 -0.002813	 -0.012389	 -0.006762	 -2.739466	 -1.166304	 1.207572	 -0.373853	 0.735740	 -0.538814	 0.169114	 1
1462068106.807	 11	 -0.006038	 -0.015586	 -0.008895	 -2.739480	 -1.166251	 1.207716	 -0.373922	 0.735721	 -0.538784	 0.169144	 1
1462068106.817	 11	 -0.004951	 -0.013446	 -0.006753	 -2.739623	 -1.166246	 1.207731	 -0.373967	 0.735707	 -0.538754	 0.169199	 1
1462068106.827	 11	 -0.007045	 -0.004931	 -0.006655	 -2.739829	 -1.166288	 1.207617	 -0.373971	 0.735703	 -0.538738	 0.169255	 1
1462068106.837	 11	 -0.004870	 0.002516	 -0.005538	 -2.740048	 -1.166327	 1.207426	 -0.373952	 0.735714	 -0.538725	 0.169295	 1
1462068106.847	 11	 -0.008023	 0.011050	 -0.003299	 -2.740147	 -1.166301	 1.207251	 -0.373920	 0.735743	 -0.538713	 0.169278	 1
1462068106.857	 11	 -0.011200	 0.015321	 -0.002165	 -2.740243	 -1.166189	 1.207022	 -0.373886	 0.735797	 -0.538680	 0.169220	 1
1462068106.867	 11	 -0.016531	 0.016401	 -0.002108	 -2.740265	 -1.166066	 1.206842	 -0.373853	 0.735850	 -0.538654	 0.169146	 1
1462068106.877	 11	 -0.015468	 0.015334	 -0.002127	 -2.740162	 -1.165939	 1.206778	 -0.373830	 0.735893	 -0.538640	 0.169056	 1
1462068106.887	 11	 -0.013314	 0.018526	 -0.001051	 -2.739924	 -1.165881	 1.206815	 -0.373792	 0.735917	 -0.538663	 0.168961	 1
1462068106.897	 11	 -0.012198	 0.021742	 -0.002113	 -2.739621	 -1.165813	 1.206881	 -0.373750	 0.735941	 -0.538694	 0.168849	 1
1462068106.907	 11	 -0.009008	 0.018550	 -0.001105	 -2.739353	 -1.165752	 1.206936	 -0.373712	 0.735964	 -0.538721	 0.168749	 1
1462068106.917	 11	 -0.009048	 0.010040	 -0.001184	 -2.739219	 -1.165689	 1.206939	 -0.373691	 0.735986	 -0.538726	 0.168683	 1
1462068106.927	 11	 -0.004810	 0.003645	 -0.001280	 -2.739205	 -1.165639	 1.206902	 -0.373684	 0.736003	 -0.538717	 0.168654	 1
1462068106.937	 11	 -0.002705	 -0.001687	 -0.002414	 -2.739278	 -1.165615	 1.206842	 -0.373687	 0.736012	 -0.538701	 0.168658	 1
1462068106.947	 11	 -0.003777	 -0.002748	 -0.002414	 -2.739295	 -1.165632	 1.206863	 -0.373696	 0.736004	 -0.538701	 0.168674	 1
1462068106.957	 11	 -0.001622	 0.002556	 -0.003449	 -2.739250	 -1.165593	 1.206905	 -0.373707	 0.736007	 -0.538694	 0.168658	 1
1462068106.967	 11	 -0.004826	 0.004670	 -0.006599	 -2.739132	 -1.165534	 1.206992	 -0.373721	 0.736011	 -0.538690	 0.168622	 1
1462068106.977	 11	 -0.009094	 0.005739	 -0.007618	 -2.739071	 -1.165417	 1.207013	 -0.373738	 0.736033	 -0.538664	 0.168572	 1
1462068106.987	 11	 -0.011209	 0.008944	 -0.006504	 -2.738968	 -1.165303	 1.207038	 -0.373745	 0.736056	 -0.538647	 0.168509	 1
1462068106.997	 11	 -0.013337	 0.012126	 -0.008587	 -2.738757	 -1.165117	 1.207139	 -0.373767	 0.736088	 -0.538621	 0.168407	 1
1462068107.007	 11	 -0.015461	 0.014259	 -0.008549	 -2.738573	 -1.164906	 1.207196	 -0.373785	 0.736129	 -0.538586	 0.168297	 1
1462068107.017	 11	 -0.014375	 0.017455	 -0.007463	 -2.738473	 -1.164722	 1.207147	 -0.373781	 0.736179	 -0.538552	 0.168195	 1
1462068107.027	 11	 -0.015447	 0.017450	 -0.008519	 -2.738440	 -1.164525	 1.207024	 -0.373770	 0.736239	 -0.538509	 0.168096	 1
1462068107.037	 11	 -0.019676	 0.019612	 -0.009538	 -2.738508	 -1.164254	 1.206783	 -0.373760	 0.736326	 -0.538433	 0.167980	 1
1462068107.047	 11	 -0.026099	 0.016432	 -0.010577	 -2.738444	 -1.163935	 1.206675	 -0.373774	 0.736407	 -0.538357	 0.167839	 1
1462068107.057	 11	 -0.029319	 0.015355	 -0.013757	 -2.738345	 -1.163537	 1.206636	 -0.373821	 0.736492	 -0.538257	 0.167682	 1
1462068107.067	 11	 -0.034640	 0.023834	 -0.020026	 -2.738064	 -1.163060	 1.206722	 -0.373882	 0.736582	 -0.538157	 0.167469	 1
1462068107.077	 11	 -0.042092	 0.037599	 -0.031557	 -2.737272	 -1.162435	 1.207178	 -0.373976	 0.736672	 -0.538075	 0.167126	 1
1462068107.087	 11	 -0.050646	 0.049194	 -0.049494	 -2.735991	 -1.161702	 1.208005	 -0.374099	 0.736752	 -0.538022	 0.166674	 1
1462068107.097	 11	 -0.062380	 0.072437	 -0.075821	 -2.734073	 -1.160757	 1.209334	 -0.374282	 0.736826	 -0.537981	 0.166062	 1
1462068107.107	 11	 -0.079470	 0.109369	 -0.123290	 -2.730759	 -1.159281	 1.211738	 -0.374605	 0.736904	 -0.537953	 0.165076	 1
1462068107.117	 11	 -0.098606	 0.155959	 -0.159995	 -2.725830	 -1.157493	 1.215371	 -0.375017	 0.736935	 -0.538033	 0.163737	 1
1462068107.127	 11	 -0.123936	 0.243018	 -0.192006	 -2.719951	 -1.155265	 1.219196	 -0.375344	 0.737074	 -0.538148	 0.161974	 1
1462068107.137	 11	 -0.123910	 0.265209	 -0.212050	 -2.713540	 -1.153285	 1.223201	 -0.375541	 0.737170	 -0.538430	 0.160131	 1
1462068107.147	 11	 -0.090720	 0.282175	 -0.205787	 -2.706871	 -1.151884	 1.227373	 -0.375600	 0.737151	 -0.538928	 0.158400	 1
1462068107.157	 11	 -0.045579	 0.319524	 -0.170660	 -2.700938	 -1.151251	 1.230562	 -0.375319	 0.737124	 -0.539600	 0.156893	 1
1462068107.167	 11	 -0.041428	 0.464649	 -0.103262	 -2.697375	 -1.150357	 1.230155	 -0.374412	 0.737625	 -0.540032	 0.155214	 1
1462068107.177	 11	 0.021745	 0.268881	 -0.086450	 -2.692351	 -1.150043	 1.232072	 -0.373833	 0.737705	 -0.540729	 0.153790	 1
1462068107.187	 11	 0.077978	 0.228053	 -0.120358	 -2.687234	 -1.150133	 1.235325	 -0.373628	 0.737475	 -0.541463	 0.152809	 1
1462068107.197	 11	 0.092609	 0.378018	 -0.118031	 -2.680503	 -1.150435	 1.238919	 -0.373059	 0.737268	 -0.542536	 0.151388	 1
1462068107.207	 11	 0.083776	 0.331111	 -0.136510	 -2.672914	 -1.150348	 1.243238	 -0.372611	 0.737047	 -0.543600	 0.149738	 1
1462068107.217	 11	 0.085565	 0.274591	 -0.156236	 -2.666230	 -1.150420	 1.247477	 -0.372337	 0.736745	 -0.544550	 0.148449	 1
1462068107.227	 11	 0.078259	 0.316035	 -0.164313	 -2.659117	 -1.150373	 1.251941	 -0.372054	 0.736447	 -0.545530	 0.147033	 1
1462068107.237	 11	 0.075233	 0.340617	 -0.149137	 -2.651924	 -1.150321	 1.256125	 -0.371643	 0.736203	 -0.546546	 0.145512	 1
1462068107.247	 11	 0.068874	 0.337553	 -0.134188	 -2.645676	 -1.150304	 1.259351	 -0.371125	 0.736059	 -0.547468	 0.144089	 1
1462068107.257	 11	 0.060208	 0.296219	 -0.117445	 -2.639553	 -1.150279	 1.262681	 -0.370679	 0.735884	 -0.548358	 0.142741	 1
1462068107.267	 11	 0.044984	 0.218770	 -0.096718	 -2.634600	 -1.150211	 1.265484	 -0.370368	 0.735728	 -0.549056	 0.141668	 1
1462068107.277	 11	 0.033068	 0.141505	 -0.049374	 -2.631390	 -1.150221	 1.267237	 -0.370128	 0.735628	 -0.549530	 0.140971	 1
1462068107.287	 11	 0.004197	 0.086649	 0.001529	 -2.632360	 -1.150703	 1.265504	 -0.369641	 0.735808	 -0.549611	 0.140994	 1
1462068107.297	 11	 -0.037688	 0.015639	 0.019351	 -2.632635	 -1.150545	 1.264817	 -0.369502	 0.735940	 -0.549563	 0.140860	 1
1462068107.307	 11	 -0.064699	 -0.053427	 0.017878	 -2.634059	 -1.150114	 1.263678	 -0.369578	 0.736114	 -0.549256	 0.140944	 1
1462068107.317	 11	 -0.058378	 -0.054649	 -0.001372	 -2.635375	 -1.149604	 1.262875	 -0.369767	 0.736247	 -0.548923	 0.141058	 1
1462068107.327	 11	 -0.059265	 0.004735	 -0.026392	 -2.635254	 -1.148776	 1.263050	 -0.369997	 0.736347	 -0.548694	 0.140817	 1
1462068107.337	 11	 -0.069756	 0.047274	 -0.031233	 -2.634955	 -1.148032	 1.262947	 -0.370055	 0.736499	 -0.548543	 0.140459	 1
1462068107.347	 11	 -0.090902	 0.054022	 0.010578	 -2.635262	 -1.147281	 1.262026	 -0.369980	 0.736761	 -0.548334	 0.140098	 1
1462068107.357	 11	 -0.120495	 0.055684	 0.081192	 -2.637199	 -1.146552	 1.259309	 -0.369685	 0.737237	 -0.547956	 0.139853	 1
1462068107.367	 11	 -0.117717	 0.009324	 0.287487	 -2.640185	 -1.146421	 1.255299	 -0.369055	 0.737789	 -0.547647	 0.139817	 1
1462068107.377	 11	 -0.148401	 -0.009088	 0.376041	 -2.649167	 -1.146965	 1.245596	 -0.367802	 0.738863	 -0.546831	 0.140637	 1
1462068107.387	 11	 -0.132387	 0.040439	 0.318811	 -2.656855	 -1.147310	 1.236852	 -0.366588	 0.739873	 -0.546137	 0.141190	 1
1462068107.397	 11	 -0.120571	 0.097486	 0.270214	 -2.662805	 -1.147521	 1.229396	 -0.365403	 0.740784	 -0.545637	 0.141419	 1
1462068107.407	 11	 -0.112098	 0.108944	 0.240406	 -2.668151	 -1.147607	 1.222405	 -0.364250	 0.741668	 -0.545182	 0.141518	 1
1462068107.417	 11	 -0.088782	 0.105420	 0.203935	 -2.672248	 -1.147722	 1.216755	 -0.363244	 0.742387	 -0.544871	 0.141531	 1
1462068107.427	 11	 -0.076034	 0.079970	 0.219573	 -2.676333	 -1.147992	 1.211311	 -0.362273	 0.743042	 -0.544596	 0.141643	 1
1462068107.437	 11	 -0.076933	 0.014898	 0.339407	 -2.682777	 -1.148653	 1.203865	 -0.361107	 0.743823	 -0.544158	 0.142198	 1
1462068107.447	 11	 -0.089479	 -0.076333	 0.513446	 -2.690879	 -1.149679	 1.195096	 -0.359814	 0.744656	 -0.543634	 0.143117	 1
1462068107.457	 11	 -0.097650	 -0.160003	 0.705641	 -2.706418	 -1.151585	 1.179565	 -0.357817	 0.746002	 -0.542549	 0.145221	 1
1462068107.467	 11	 -0.084392	 -0.215111	 0.885127	 -2.726721	 -1.154284	 1.159689	 -0.355300	 0.747588	 -0.541224	 0.148157	 1
1462068107.477	 11	 -0.057053	 -0.162322	 0.988759	 -2.749263	 -1.157476	 1.136995	 -0.352211	 0.749343	 -0.539940	 0.151317	 1
1462068107.487	 11	 -0.008555	 -0.065641	 0.993500	 -2.771624	 -1.160995	 1.113601	 -0.348726	 0.751082	 -0.538934	 0.154321	 1
1462068107.497	 11	 0.046984	 0.019693	 0.903220	 -2.791445	 -1.164571	 1.091988	 -0.345205	 0.752607	 -0.538338	 0.156871	 1
1462068107.507	 11	 0.108532	 0.030482	 0.802603	 -2.808625	 -1.168232	 1.072945	 -0.341923	 0.753803	 -0.538093	 0.159139	 1
1462068107.517	 11	 0.165463	 -0.043709	 0.715090	 -2.824140	 -1.172023	 1.056337	 -0.339089	 0.754627	 -0.538040	 0.161460	 1
1462068107.527	 11	 0.202231	 -0.159815	 0.706230	 -2.839918	 -1.176006	 1.040629	 -0.336637	 0.755181	 -0.537987	 0.164157	 1
1462068107.537	 11	 0.227453	 -0.354709	 0.827826	 -2.859641	 -1.180414	 1.022518	 -0.334271	 0.755659	 -0.537671	 0.167785	 1
1462068107.547	 11	 0.233267	 -0.638400	 1.016973	 -2.886483	 -1.185262	 0.999608	 -0.331938	 0.756147	 -0.536809	 0.172901	 1
1462068107.557	 11	 0.216690	 -0.940970	 1.233849	 -2.922292	 -1.190184	 0.970329	 -0.329601	 0.756742	 -0.535175	 0.179699	 1
1462068107.567	 11	 0.213168	 -1.185131	 1.443694	 -2.966897	 -1.194983	 0.934504	 -0.327160	 0.757422	 -0.532840	 0.188043	 1
1462068107.577	 11	 0.242199	 -1.301871	 1.637389	 -3.018975	 -1.199638	 0.892320	 -0.324310	 0.758162	 -0.530102	 0.197499	 1
1462068107.587	 11	 0.321862	 -1.298736	 1.808313	 -3.076872	 -1.204264	 0.844292	 -0.320768	 0.758896	 -0.527332	 0.207620	 1
1462068107.597	 11	 0.429164	 -1.106241	 1.995678	 -3.139200	 -1.208942	 0.790062	 -0.316017	 0.759696	 -0.524935	 0.217804	 1
1462068107.607	 11	 0.537213	 -0.771091	 2.201417	 3.077781	 -1.213379	 0.728533	 -0.309531	 0.760765	 -0.523132	 0.227509	 1
1462068107.617	 11	 0.652982	 -0.402820	 2.430843	 3.007670	 -1.217245	 0.659014	 -0.301077	 0.762180	 -0.522004	 0.236529	 1
1462068107.627	 11	 0.763367	 -0.109490	 2.737419	 2.931245	 -1.219952	 0.579447	 -0.290504	 0.763980	 -0.521357	 0.245213	 1
1462068107.637	 11	 0.812414	 0.048121	 3.077371	 2.846704	 -1.220288	 0.489254	 -0.278012	 0.766150	 -0.520734	 0.254086	 1
1462068107.647	 11	 0.713120	 0.075571	 3.302301	 2.757108	 -1.216472	 0.392974	 -0.264337	 0.768726	 -0.519491	 0.263279	 1
1462068107.657	 11	 0.477898	 -0.044760	 3.334136	 2.670097	 -1.207554	 0.300115	 -0.250780	 0.771608	 -0.517104	 0.272642	 1
1462068107.667	 11	 0.160159	 -0.248612	 3.109065	 2.593456	 -1.194143	 0.220087	 -0.238677	 0.774594	 -0.513385	 0.281910	 1
1462068107.677	 11	 -0.164117	 -0.313492	 2.684979	 2.533635	 -1.178130	 0.158816	 -0.228704	 0.777649	 -0.508700	 0.290139	 1
1462068107.687	 11	 -0.419084	 -0.450385	 2.332092	 2.488935	 -1.161046	 0.114693	 -0.220926	 0.780668	 -0.503299	 0.297387	 1
1462068107.697	 11	 -0.479387	 -0.442754	 2.186679	 2.451831	 -1.143497	 0.079104	 -0.214090	 0.783584	 -0.497600	 0.304228	 1
1462068107.707	 11	 -0.453907	 -0.335511	 2.025459	 2.420918	 -1.126580	 0.049007	 -0.207602	 0.786352	 -0.492224	 0.310269	 1
1462068107.717	 11	 -0.337424	 -0.211127	 1.917961	 2.393920	 -1.110834	 0.021716	 -0.201141	 0.788858	 -0.487481	 0.315606	 1
1462068107.727	 11	 -0.266040	 -0.048273	 1.963616	 2.368844	 -1.095424	 -0.005328	 -0.194123	 0.791303	 -0.483203	 0.320423	 1
1462068107.737	 11	 -0.336005	 0.166673	 2.095183	 2.346575	 -1.078755	 -0.031788	 -0.186228	 0.794187	 -0.478775	 0.324594	 1
1462068107.747	 11	 -0.443395	 0.646100	 2.162393	 2.329626	 -1.060263	 -0.056889	 -0.177068	 0.797971	 -0.474047	 0.327366	 1
1462068107.757	 11	 -0.495661	 0.929787	 2.100477	 2.319734	 -1.041582	 -0.078604	 -0.167360	 0.802408	 -0.469407	 0.328313	 1
1462068107.767	 11	 -0.411817	 0.715694	 2.238435	 2.308028	 -1.022437	 -0.101383	 -0.157391	 0.806501	 -0.464674	 0.329942	 1
1462068107.777	 11	 -0.408775	 0.383402	 2.324841	 2.293011	 -1.002561	 -0.124721	 -0.147639	 0.809983	 -0.459587	 0.333031	 1
1462068107.787	 11	 -0.378408	 -0.073113	 2.452483	 2.273792	 -0.981704	 -0.148155	 -0.138407	 0.812678	 -0.453964	 0.338105	 1
1462068107.797	 11	 -0.176432	 -0.538937	 2.539111	 2.248790	 -0.960718	 -0.173442	 -0.129465	 0.814199	 -0.448410	 0.345324	 1
1462068107.807	 11	 0.102277	 -1.146303	 2.499059	 2.216526	 -0.941146	 -0.200639	 -0.121410	 0.813906	 -0.443548	 0.355080	 1
1462068107.817	 11	 0.098967	 -1.518384	 2.376261	 2.181955	 -0.922258	 -0.225950	 -0.114533	 0.812515	 -0.438803	 0.366269	 1
1462068107.827	 11	 0.012974	 -1.912412	 2.420236	 2.146199	 -0.902701	 -0.248216	 -0.108753	 0.810388	 -0.433497	 0.378847	 1
1462068107.837	 11	 -0.181033	 -2.346784	 2.723757	 2.107877	 -0.879438	 -0.268796	 -0.103046	 0.807765	 -0.426658	 0.393522	 1
1462068107.847	 11	 -0.296904	 -3.124213	 2.686625	 2.065970	 -0.854470	 -0.285885	 -0.098743	 0.803901	 -0.418648	 0.410763	 1
1462068107.857	 11	 -0.371635	 -3.572747	 2.406003	 2.022039	 -0.830785	 -0.298029	 -0.096803	 0.798532	 -0.410297	 0.429688	 1
1462068107.867	 11	 -0.431373	 -3.911562	 2.007973	 1.978495	 -0.809926	 -0.305429	 -0.097071	 0.792010	 -0.402191	 0.448931	 1
1462068107.877	 11	 -0.523801	 -4.581393	 1.564516	 1.932838	 -0.792396	 -0.307917	 -0.100291	 0.783764	 -0.394186	 0.469333	 1
1462068107.887	 11	 -0.499073	 -5.152865	 0.945104	 1.883700	 -0.780266	 -0.306190	 -0.107067	 0.773257	 -0.386913	 0.490825	 1
1462068107.897	 11	 -0.329343	 -4.920056	 0.410780	 1.835078	 -0.774092	 -0.303375	 -0.115655	 0.761588	 -0.381344	 0.511063	 1
1462068107.907	 11	 -0.231972	 -4.656075	 -0.107703	 1.790753	 -0.773203	 -0.300066	 -0.125044	 0.749960	 -0.377511	 0.528592	 1
1462068107.917	 11	 0.083971	 -4.581848	 -0.450807	 1.745299	 -0.777016	 -0.298838	 -0.135248	 0.737295	 -0.375505	 0.545069	 1
1462068107.927	 11	 0.271242	 -4.974443	 -0.392146	 1.695310	 -0.781614	 -0.301164	 -0.145239	 0.723174	 -0.374152	 0.562082	 1
1462068107.937	 11	 0.297223	 -4.633590	 -0.166456	 1.644892	 -0.784060	 -0.305188	 -0.154009	 0.708864	 -0.372309	 0.578946	 1
1462068107.947	 11	 0.227947	 -4.368889	 0.079604	 1.598178	 -0.784074	 -0.308655	 -0.161462	 0.695430	 -0.369647	 0.594701	 1
1462068107.957	 11	 0.068060	 -4.073163	 0.313953	 1.555561	 -0.781474	 -0.310283	 -0.167846	 0.682950	 -0.365840	 0.609564	 1
1462068107.967	 11	 -0.140448	 -3.851142	 0.485159	 1.517544	 -0.777071	 -0.308849	 -0.173702	 0.671456	 -0.360846	 0.623510	 1
1462068107.977	 11	 -0.388512	 -3.668150	 0.685122	 1.484027	 -0.770996	 -0.303707	 -0.179256	 0.660901	 -0.354501	 0.636715	 1
1462068107.987	 11	 -0.661169	 -3.532625	 0.929619	 1.454923	 -0.763003	 -0.294281	 -0.184580	 0.651267	 -0.346531	 0.649382	 1
1462068107.997	 11	 -0.780082	 -3.168769	 1.188758	 1.430753	 -0.752784	 -0.281823	 -0.189037	 0.642908	 -0.337292	 0.661187	 1
1462068108.007	 11	 -0.812489	 -2.723848	 1.367965	 1.411711	 -0.740894	 -0.268229	 -0.192199	 0.636093	 -0.327596	 0.671659	 1
1462068108.017	 11	 -0.746877	 -2.290050	 1.519571	 1.396716	 -0.727521	 -0.254705	 -0.193975	 0.630633	 -0.317818	 0.680932	 1
1462068108.027	 11	 -0.695025	 -1.730524	 1.549905	 1.386435	 -0.713514	 -0.241791	 -0.194457	 0.626806	 -0.308464	 0.688586	 1
1462068108.037	 11	 -0.707923	 -1.197422	 1.430284	 1.381470	 -0.700422	 -0.229124	 -0.194310	 0.624739	 -0.299915	 0.694259	 1
1462068108.047	 11	 -0.723952	 -0.884400	 1.321431	 1.380028	 -0.688596	 -0.216615	 -0.194025	 0.623819	 -0.292074	 0.698496	 1
1462068108.057	 11	 -0.715194	 -0.850280	 1.336593	 1.379291	 -0.676985	 -0.204267	 -0.193654	 0.623151	 -0.284373	 0.702362	 1
1462068108.067	 11	 -0.619579	 -0.926382	 1.587638	 1.377653	 -0.663478	 -0.192452	 -0.192525	 0.622352	 -0.276187	 0.706635	 1
1462068108.077	 11	 -0.458188	 -1.024643	 2.036136	 1.374186	 -0.645557	 -0.181524	 -0.189696	 0.621287	 -0.266824	 0.711915	 1
1462068108.087	 11	 -0.236252	 -0.911815	 2.430651	 1.370228	 -0.623252	 -0.172218	 -0.184742	 0.620472	 -0.256678	 0.717635	 1
1462068108.097	 11	 0.013212	 -0.821608	 2.797006	 1.366020	 -0.596828	 -0.164991	 -0.177569	 0.619978	 -0.246017	 0.723583	 1
1462068108.107	 11	 0.186815	 -0.916764	 3.091957	 1.360376	 -0.566924	 -0.159287	 -0.168709	 0.619225	 -0.234730	 0.730068	 1
1462068108.117	 11	 0.280953	 -1.240185	 3.265044	 1.351603	 -0.534814	 -0.154195	 -0.159076	 0.617377	 -0.222749	 0.737511	 1
1462068108.127	 11	 0.436530	 -2.050395	 3.363792	 1.335432	 -0.501385	 -0.149955	 -0.149318	 0.612745	 -0.210156	 0.747049	 1
1462068108.137	 11	 0.626340	 -2.832081	 3.449719	 1.310401	 -0.466707	 -0.146798	 -0.139392	 0.604653	 -0.197092	 0.759025	 1
1462068108.147	 11	 0.830620	 -3.425165	 3.443492	 1.278420	 -0.431385	 -0.144676	 -0.129202	 0.593629	 -0.184006	 0.772692	 1
1462068108.157	 11	 1.046564	 -3.748502	 3.384250	 1.242009	 -0.395991	 -0.143634	 -0.118631	 0.580494	 -0.171376	 0.787137	 1
1462068108.167	 11	 1.329535	 -3.912293	 3.352552	 1.203150	 -0.360150	 -0.143977	 -0.107230	 0.565969	 -0.159440	 0.801723	 1
1462068108.177	 11	 1.713064	 -4.024266	 3.320461	 1.162348	 -0.323214	 -0.146439	 -0.094488	 0.550239	 -0.148448	 0.816255	 1
1462068108.187	 11	 2.135650	 -4.195129	 3.250180	 1.119445	 -0.285053	 -0.151487	 -0.080254	 0.533169	 -0.138676	 0.830698	 1
1462068108.197	 11	 2.535634	 -4.601253	 3.142737	 1.072476	 -0.245634	 -0.158950	 -0.064724	 0.513818	 -0.130126	 0.845499	 1
1462068108.207	 11	 2.419273	 -4.020301	 2.979699	 1.028150	 -0.207024	 -0.165850	 -0.049151	 0.494869	 -0.122372	 0.858903	 1
1462068108.217	 11	 1.680045	 -1.938582	 3.006572	 1.003140	 -0.171845	 -0.165906	 -0.035297	 0.483616	 -0.113503	 0.867171	 1
1462068108.227	 11	 1.639588	 -0.830874	 3.057731	 0.993827	 -0.137541	 -0.162692	 -0.021561	 0.478923	 -0.103910	 0.871419	 1
1462068108.237	 11	 2.002469	 -1.068775	 2.812561	 0.984170	 -0.102886	 -0.162817	 -0.006800	 0.473962	 -0.095789	 0.875293	 1
1462068108.247	 11	 2.250698	 -1.425287	 2.591799	 0.970270	 -0.068800	 -0.166287	 0.008385	 0.466968	 -0.089404	 0.879703	 1
1462068108.257	 11	 2.438151	 -1.453922	 2.532349	 0.955493	 -0.034241	 -0.171445	 0.024212	 0.459325	 -0.083862	 0.883969	 1
1462068108.267	 11	 2.527011	 -1.572652	 2.476116	 0.940056	 0.000611	 -0.177291	 0.040367	 0.451109	 -0.078791	 0.888067	 1
1462068108.277	 11	 2.580460	 -1.741191	 2.430387	 0.923140	 0.035531	 -0.183348	 0.056602	 0.441958	 -0.074075	 0.892178	 1
1462068108.287	 11	 2.553399	 -1.808238	 2.414012	 0.905595	 0.070260	 -0.188977	 0.072693	 0.432283	 -0.069491	 0.896113	 1
1462068108.297	 11	 2.577760	 -1.904603	 2.482177	 0.887037	 0.105520	 -0.193546	 0.088815	 0.421916	 -0.064628	 0.899957	 1
1462068108.307	 11	 2.640520	 -1.820795	 2.331073	 0.869171	 0.140654	 -0.198590	 0.105058	 0.411607	 -0.060255	 0.903279	 1
1462068108.317	 11	 2.576438	 -1.599257	 2.054462	 0.853523	 0.173703	 -0.204569	 0.120655	 0.402147	 -0.056881	 0.905806	 1
1462068108.327	 11	 2.451163	 -1.531104	 1.868613	 0.839412	 0.204385	 -0.210620	 0.135255	 0.393328	 -0.054151	 0.907781	 1
1462068108.337	 11	 2.351663	 -1.751491	 1.798154	 0.823739	 0.233796	 -0.216124	 0.149136	 0.383745	 -0.051740	 0.909847	 1
1462068108.347	 11	 2.131765	 -1.964849	 1.768242	 0.805499	 0.261761	 -0.220052	 0.162008	 0.373064	 -0.049311	 0.912220	 1
1462068108.357	 11	 1.884842	 -2.063987	 1.784390	 0.785366	 0.288023	 -0.221522	 0.173639	 0.361731	 -0.046482	 0.914790	 1
1462068108.367	 11	 1.630084	 -2.197511	 1.749129	 0.763656	 0.312269	 -0.220759	 0.183971	 0.349949	 -0.043389	 0.917501	 1
1462068108.377	 11	 1.467735	 -2.365837	 1.645597	 0.739595	 0.334604	 -0.218639	 0.193221	 0.337313	 -0.040480	 0.920460	 1
1462068108.387	 11	 1.361547	 -2.316942	 1.451941	 0.715500	 0.354816	 -0.216507	 0.201577	 0.324794	 -0.038178	 0.923265	 1
1462068108.397	 11	 1.301589	 -2.196910	 1.259611	 0.692739	 0.373134	 -0.214975	 0.209252	 0.312952	 -0.036552	 0.925710	 1
1462068108.407	 11	 1.309790	 -2.324967	 1.057984	 0.669775	 0.390153	 -0.214607	 0.216551	 0.300968	 -0.035887	 0.928028	 1
1462068108.417	 11	 1.217280	 -2.420932	 0.987555	 0.645719	 0.405875	 -0.214388	 0.223286	 0.288536	 -0.035799	 0.930381	 1
1462068108.427	 11	 1.087238	 -2.451908	 1.062994	 0.620938	 0.419385	 -0.212621	 0.228795	 0.276094	 -0.035589	 0.932823	 1
1462068108.437	 11	 1.004545	 -2.610775	 1.119732	 0.597165	 0.423048	 -0.210396	 0.229752	 0.264949	 -0.036703	 0.935772	 1
1462068108.447	 11	 0.996929	 -2.859704	 1.110011	 0.567952	 0.435206	 -0.206385	 0.234321	 0.250764	 -0.036387	 0.938556	 1
1462068108.457	 11	 1.034496	 -2.982627	 1.041395	 0.536695	 0.449217	 -0.202373	 0.239765	 0.235463	 -0.036201	 0.941148	 1
1462068108.467	 11	 1.093099	 -2.919693	 0.943420	 0.505820	 0.463252	 -0.199024	 0.245353	 0.220254	 -0.036462	 0.943377	 1
1462068108.477	 11	 1.150094	 -2.718715	 0.813705	 0.476993	 0.477273	 -0.196653	 0.251112	 0.205890	 -0.037114	 0.945079	 1
1462068108.487	 11	 1.189275	 -2.428514	 0.660463	 0.451442	 0.490971	 -0.195572	 0.256926	 0.192937	 -0.038169	 0.946207	 1
1462068108.497	 11	 1.192439	 -2.079725	 0.504883	 0.429833	 0.504097	 -0.195770	 0.262668	 0.181727	 -0.039532	 0.946793	 1
1462068108.507	 11	 1.147907	 -1.672205	 0.361987	 0.412693	 0.516311	 -0.197046	 0.268156	 0.172556	 -0.041034	 0.946907	 1
1462068108.517	 11	 1.108536	 -1.305090	 0.222934	 0.399988	 0.527564	 -0.199392	 0.273357	 0.165406	 -0.042632	 0.946625	 1
1462068108.527	 11	 1.101522	 -1.101778	 0.095930	 0.390344	 0.538237	 -0.202976	 0.278433	 0.159567	 -0.044514	 0.946061	 1
1462068108.537	 11	 1.064497	 -0.949232	 -0.003576	 0.382818	 0.548277	 -0.207504	 0.283311	 0.154629	 -0.046653	 0.945330	 1
1462068108.547	 11	 0.993219	 -0.849497	 -0.065973	 0.376769	 0.557464	 -0.212490	 0.287838	 0.150368	 -0.048914	 0.944535	 1
1462068108.557	 11	 0.956938	 -0.835676	 -0.081515	 0.371056	 0.566160	 -0.217531	 0.292126	 0.146278	 -0.051223	 0.943738	 1
1462068108.567	 11	 0.905045	 -0.762042	 -0.068655	 0.365787	 0.574484	 -0.222288	 0.296210	 0.142448	 -0.053388	 0.942930	 1
1462068108.577	 11	 0.821449	 -0.654004	 -0.017896	 0.361125	 0.582246	 -0.226232	 0.299975	 0.139056	 -0.055151	 0.942145	 1
1462068108.587	 11	 0.745379	 -0.561704	 0.065689	 0.356802	 0.589556	 -0.228959	 0.303441	 0.136030	 -0.056349	 0.941405	 1
1462068108.597	 11	 0.660587	 -0.500294	 0.139470	 0.352501	 0.596385	 -0.230446	 0.306593	 0.133237	 -0.057020	 0.940743	 1
1462068108.607	 11	 0.543639	 -0.468571	 0.213255	 0.347864	 0.602441	 -0.230620	 0.309284	 0.130547	 -0.057214	 0.940227	 1
1462068108.617	 11	 0.414567	 -0.513436	 0.281105	 0.342220	 0.607536	 -0.229418	 0.311410	 0.127676	 -0.057024	 0.939931	 1
1462068108.627	 11	 0.299766	 -0.666061	 0.308394	 0.334765	 0.611627	 -0.227241	 0.312959	 0.124191	 -0.056769	 0.939899	 1
