% Gyrometer data recorded with 'snsrlog'
% 
% 
% Label description:
% 	 0: Default Label
% 	 1: still_drop
% 	 2: walk_drop
% 	 3: other
% 	 4: dtw_same
% 	 5: dtw_diff
% 	 6: delete
% 
% Column description:
% 	 1: Seconds.milliseconds since 1970
% 	 2: Number of skipped measurements
% 	 3: Gyro X
% 	 4: Gyro Y
% 	 5: Gyro Z
% 	 6: Roll of the device
% 	 7: Pitch of the device
% 	 8: Yaw of the device
% 	 9: Quaternion X
% 	 10: Quaternion Y
% 	 11: Quaternion Z
% 	 12: Quaternion W
% 	 13: Label used for the current sample
% 
% 
1462092166.981	 0	 -0.514972	 0.445118	 -1.154860	 0.259399	 0.442886	 -0.215596	 0.230104	 0.102013	 -0.075839	 0.964828	 2
1462092166.991	 0	 -0.678639	 0.338385	 -1.125652	 0.267469	 0.433851	 -0.225901	 0.226623	 0.105340	 -0.080571	 0.964911	 2
1462092167.001	 0	 -0.936026	 0.220673	 -1.034983	 0.273572	 0.422648	 -0.234597	 0.221971	 0.108092	 -0.084952	 0.965313	 2
1462092167.011	 0	 -1.192170	 0.101158	 -0.899579	 0.277514	 0.409215	 -0.241063	 0.216054	 0.110248	 -0.088702	 0.966074	 2
1462092167.021	 0	 -1.359872	 -0.033609	 -0.777876	 0.279261	 0.394256	 -0.245524	 0.209201	 0.111705	 -0.091860	 0.967119	 2
1462092167.031	 0	 -1.403890	 -0.132028	 -0.727252	 0.279413	 0.378775	 -0.248978	 0.201962	 0.112556	 -0.094747	 0.968280	 2
1462092167.041	 0	 -1.331938	 -0.020696	 -0.746026	 0.280083	 0.363693	 -0.252583	 0.194941	 0.113634	 -0.097624	 0.969306	 2
1462092167.051	 0	 -1.160123	 0.240145	 -0.787725	 0.283312	 0.349936	 -0.256959	 0.188726	 0.115801	 -0.100532	 0.969983	 2
1462092167.061	 0	 -0.981846	 0.528492	 -0.847343	 0.289694	 0.337775	 -0.262357	 0.183508	 0.119309	 -0.103538	 0.970242	 2
1462092167.081	 1	 -0.917740	 0.867819	 -0.963043	 0.309374	 0.314950	 -0.275262	 0.174364	 0.129467	 -0.109948	 0.969921	 2
1462092167.091	 1	 -0.993679	 0.869841	 -1.008191	 0.320220	 0.302615	 -0.282050	 0.169478	 0.135125	 -0.113383	 0.969620	 2
1462092167.101	 1	 -1.099921	 0.762573	 -1.029579	 0.330053	 0.289184	 -0.288642	 0.164033	 0.140433	 -0.116961	 0.969377	 2
1462092167.111	 1	 -1.270159	 0.752395	 -0.888577	 0.339001	 0.274511	 -0.293620	 0.157858	 0.145578	 -0.119998	 0.969272	 2
1462092167.121	 1	 -1.313268	 0.797980	 -0.780135	 0.347643	 0.259535	 -0.296842	 0.151412	 0.150760	 -0.122290	 0.969222	 2
1462092167.131	 1	 -1.316583	 0.806221	 -0.818397	 0.356416	 0.244401	 -0.299933	 0.144907	 0.156046	 -0.124577	 0.969088	 2
1462092167.141	 1	 -1.298585	 1.015581	 -0.834724	 0.366687	 0.229238	 -0.303262	 0.138519	 0.162058	 -0.126933	 0.968730	 2
1462092167.151	 1	 -1.251406	 1.216031	 -0.748008	 0.379055	 0.214640	 -0.305915	 0.132507	 0.169096	 -0.128828	 0.968117	 2
1462092167.161	 1	 -1.197731	 1.237538	 -0.693921	 0.391841	 0.200785	 -0.307915	 0.126846	 0.176323	 -0.130379	 0.967379	 2
1462092167.171	 1	 -1.161255	 1.251489	 -0.662136	 0.404613	 0.187404	 -0.309592	 0.121404	 0.183524	 -0.131796	 0.966545	 2
1462092167.181	 1	 -1.151318	 1.280534	 -0.612927	 0.417565	 0.174362	 -0.310750	 0.116107	 0.190813	 -0.132986	 0.965621	 2
1462092167.191	 1	 -1.163744	 1.338203	 -0.585639	 0.430829	 0.161351	 -0.311363	 0.110808	 0.198274	 -0.133960	 0.964606	 2
1462092167.201	 1	 -1.135311	 1.493323	 -0.597232	 0.445405	 0.148450	 -0.311859	 0.105654	 0.206354	 -0.134866	 0.963362	 2
1462092167.211	 1	 -1.006286	 1.728795	 -0.634532	 0.462164	 0.136328	 -0.312904	 0.101094	 0.215378	 -0.135912	 0.961728	 2
1462092167.231	 2	 -0.544330	 2.689278	 -0.735127	 0.508629	 0.116993	 -0.318598	 0.095705	 0.238996	 -0.138739	 0.956281	 2
1462092167.241	 2	 -0.389982	 3.317134	 -0.774324	 0.540690	 0.109517	 -0.323122	 0.094951	 0.254707	 -0.140358	 0.952055	 2
1462092167.251	 2	 -0.314628	 3.967324	 -0.845665	 0.579308	 0.102337	 -0.328390	 0.094982	 0.273398	 -0.142032	 0.946604	 2
1462092167.261	 2	 -0.250872	 4.488272	 -0.996974	 0.623622	 0.094755	 -0.334772	 0.095500	 0.294646	 -0.144068	 0.939845	 2
1462092167.271	 2	 -0.150538	 4.906478	 -1.220963	 0.672408	 0.086324	 -0.342977	 0.096381	 0.317813	 -0.146919	 0.931730	 2
1462092167.281	 2	 -0.024946	 5.334521	 -1.545265	 0.725804	 0.076090	 -0.353821	 0.097433	 0.342937	 -0.151117	 0.921989	 2
1462092167.291	 2	 0.068646	 5.866016	 -1.989820	 0.783997	 0.063630	 -0.367795	 0.098726	 0.370029	 -0.156959	 0.910327	 2
1462092167.301	 2	 0.123394	 6.541146	 -2.443358	 0.848580	 0.047381	 -0.384619	 0.099850	 0.399845	 -0.164558	 0.896144	 2
1462092167.311	 2	 0.170796	 7.217579	 -2.866979	 0.919813	 0.027049	 -0.403345	 0.100775	 0.432401	 -0.173597	 0.879055	 2
1462092167.321	 2	 0.214460	 7.790761	 -3.303251	 0.996629	 0.002118	 -0.423373	 0.101330	 0.467081	 -0.184063	 0.858888	 2
1462092167.331	 2	 0.178286	 8.255044	 -3.828300	 1.077844	 -0.028657	 -0.443775	 0.100936	 0.503284	 -0.196032	 0.835517	 2
1462092167.341	 2	 0.086624	 8.430737	 -4.277750	 1.161112	 -0.065736	 -0.462977	 0.099025	 0.539875	 -0.209277	 0.809279	 2
1462092167.351	 2	 0.001708	 8.119147	 -4.598573	 1.241936	 -0.107854	 -0.479536	 0.095385	 0.574768	 -0.223327	 0.781453	 2
1462092167.361	 2	 -0.032098	 7.440407	 -4.780445	 1.316447	 -0.153368	 -0.492979	 0.090048	 0.606267	 -0.237903	 0.753481	 2
1462092167.371	 2	 0.041556	 6.562517	 -4.807374	 1.382460	 -0.200249	 -0.503815	 0.083516	 0.633469	 -0.252787	 0.726526	 2
1462092167.381	 2	 0.278356	 5.543667	 -4.699551	 1.438299	 -0.246650	 -0.513663	 0.076547	 0.655808	 -0.268038	 0.701578	 2
1462092167.391	 2	 0.655492	 4.480036	 -4.403661	 1.482866	 -0.290718	 -0.524490	 0.070064	 0.673071	 -0.283658	 0.679414	 2
1462092167.401	 2	 1.060654	 3.538980	 -3.913971	 1.516415	 -0.330319	 -0.537613	 0.065048	 0.685610	 -0.299198	 0.660446	 2
1462092167.411	 2	 1.309859	 3.020620	 -3.426450	 1.542532	 -0.365265	 -0.552552	 0.061686	 0.694980	 -0.314130	 0.643833	 2
1462092167.421	 2	 1.427458	 2.881292	 -2.938520	 1.565650	 -0.395593	 -0.568214	 0.060112	 0.702860	 -0.327876	 0.628388	 2
1462092167.431	 2	 1.506537	 3.064395	 -2.591132	 1.589292	 -0.422325	 -0.584224	 0.060329	 0.710489	 -0.340492	 0.612887	 2
1462092167.441	 2	 1.583337	 3.434946	 -2.503092	 1.615729	 -0.447893	 -0.600608	 0.061878	 0.718620	 -0.352651	 0.596149	 2
1462092167.451	 2	 1.585651	 3.789404	 -2.610653	 1.645706	 -0.474548	 -0.616639	 0.063900	 0.727463	 -0.364799	 0.577613	 2
1462092167.461	 2	 1.488436	 3.919205	 -2.790844	 1.678027	 -0.503252	 -0.630919	 0.065397	 0.736615	 -0.376878	 0.557750	 2
1462092167.471	 2	 1.353943	 3.796340	 -2.920839	 1.710633	 -0.533688	 -0.642652	 0.065820	 0.745431	 -0.388682	 0.537519	 2
1462092167.481	 2	 1.273345	 3.435092	 -2.901118	 1.740992	 -0.564493	 -0.652276	 0.065264	 0.753186	 -0.400042	 0.518090	 2
1462092167.491	 2	 1.259994	 2.907066	 -2.678908	 1.766597	 -0.593801	 -0.661114	 0.064257	 0.759273	 -0.410821	 0.500602	 2
1462092167.501	 2	 1.259954	 2.337738	 -2.280281	 1.786219	 -0.619751	 -0.670191	 0.063427	 0.763531	 -0.420715	 0.485794	 2
1462092167.511	 2	 1.241053	 1.772260	 -1.798326	 1.799547	 -0.641251	 -0.680017	 0.063134	 0.766075	 -0.429494	 0.474002	 2
1462092167.521	 2	 1.181723	 1.216616	 -1.296742	 1.806701	 -0.657829	 -0.690566	 0.063440	 0.767105	 -0.436997	 0.465359	 2
1462092167.531	 2	 1.043265	 0.685170	 -0.863519	 1.808408	 -0.669762	 -0.701064	 0.064040	 0.766919	 -0.443127	 0.459753	 2
1462092167.541	 2	 0.815003	 0.193763	 -0.518666	 1.805855	 -0.677637	 -0.710156	 0.064445	 0.765877	 -0.447754	 0.456942	 2
1462092167.551	 2	 0.478734	 -0.248170	 -0.288580	 1.800646	 -0.682205	 -0.716194	 0.064124	 0.764400	 -0.450717	 0.456546	 2
1462092167.561	 2	 0.251997	 -0.644728	 -0.210364	 1.793209	 -0.685049	 -0.719324	 0.062727	 0.762544	 -0.452546	 0.458032	 2
1462092167.571	 2	 0.127646	 -0.977373	 -0.224100	 1.783323	 -0.687489	 -0.720646	 0.060204	 0.760186	 -0.453902	 0.460940	 2
1462092167.581	 2	 0.090287	 -1.169025	 -0.267123	 1.771724	 -0.690216	 -0.721160	 0.056880	 0.757438	 -0.455190	 0.464601	 2
1462092167.591	 2	 0.171072	 -1.284783	 -0.210287	 1.758343	 -0.692773	 -0.722423	 0.053474	 0.754238	 -0.456626	 0.468784	 2
1462092167.601	 2	 0.291981	 -1.357317	 -0.043624	 1.742906	 -0.694131	 -0.725555	 0.050676	 0.750499	 -0.458172	 0.473563	 2
1462092167.611	 2	 0.396408	 -1.357023	 0.185674	 1.726080	 -0.693492	 -0.730594	 0.048913	 0.746375	 -0.459601	 0.478851	 2
1462092167.621	 2	 0.418040	 -1.295572	 0.454630	 1.709059	 -0.690274	 -0.736670	 0.048330	 0.742159	 -0.460537	 0.484531	 2
1462092167.631	 2	 0.449456	 -1.171610	 0.694241	 1.692726	 -0.684513	 -0.743382	 0.048983	 0.738048	 -0.460901	 0.490363	 2
1462092167.641	 2	 0.484164	 -0.956808	 0.848341	 1.677974	 -0.676964	 -0.750679	 0.050817	 0.734241	 -0.460902	 0.495861	 2
1462092167.651	 2	 0.470880	 -0.685920	 0.943699	 1.665915	 -0.668256	 -0.757940	 0.053653	 0.731023	 -0.460545	 0.500624	 2
1462092167.661	 2	 0.433848	 -0.441816	 1.002778	 1.656770	 -0.658800	 -0.764681	 0.057230	 0.728474	 -0.459814	 0.504601	 2
1462092167.671	 2	 0.388029	 -0.240318	 1.049814	 1.650166	 -0.648786	 -0.770774	 0.061350	 0.726515	 -0.458725	 0.507920	 2
1462092167.681	 2	 0.363635	 -0.027137	 1.103167	 1.645963	 -0.638201	 -0.776411	 0.066056	 0.725117	 -0.457311	 0.510597	 2
1462092167.691	 2	 0.355110	 0.167821	 1.143423	 1.643959	 -0.627163	 -0.781844	 0.071346	 0.724226	 -0.455657	 0.512624	 2
1462092167.701	 2	 0.353710	 0.295698	 1.176598	 1.643548	 -0.615756	 -0.787261	 0.077118	 0.723686	 -0.453842	 0.514158	 2
1462092167.711	 2	 0.191328	 0.290588	 1.139597	 1.644172	 -0.604435	 -0.791305	 0.082595	 0.723421	 -0.451652	 0.515606	 2
1462092167.721	 2	 -0.196537	 0.276084	 1.036262	 1.646972	 -0.593730	 -0.791246	 0.086859	 0.723875	 -0.448473	 0.517043	 2
1462092167.731	 2	 -0.909580	 0.343232	 0.914138	 1.654443	 -0.583853	 -0.783555	 0.089102	 0.725889	 -0.443319	 0.518279	 2
1462092167.741	 2	 -1.539559	 0.626704	 1.028838	 1.668352	 -0.572750	 -0.767970	 0.090249	 0.729920	 -0.435420	 0.519115	 2
1462092167.751	 2	 -1.767470	 1.016976	 1.219896	 1.687841	 -0.559204	 -0.748918	 0.092022	 0.735545	 -0.425560	 0.519041	 2
1462092167.761	 2	 -1.503166	 1.290440	 1.342702	 1.708762	 -0.544136	 -0.732379	 0.095337	 0.741447	 -0.415709	 0.518028	 2
1462092167.771	 2	 -1.132222	 1.418105	 1.350252	 1.728866	 -0.528913	 -0.720592	 0.100107	 0.746947	 -0.406951	 0.516178	 2
1462092167.781	 2	 -0.802131	 1.160796	 1.202172	 1.745538	 -0.515153	 -0.712890	 0.105081	 0.751401	 -0.399762	 0.514340	 2
1462092167.791	 2	 -0.337244	 0.255696	 1.101244	 1.752035	 -0.503367	 -0.709927	 0.109083	 0.753025	 -0.394882	 0.514901	 2
1462092167.801	 2	 0.046883	 -0.486323	 1.162400	 1.747687	 -0.492051	 -0.711942	 0.112653	 0.751569	 -0.392008	 0.518443	 2
1462092167.811	 2	 0.088110	 -0.569406	 1.162334	 1.740262	 -0.480722	 -0.715237	 0.116117	 0.749191	 -0.389653	 0.522877	 2
1462092167.821	 2	 0.058935	 -0.207574	 1.178744	 1.735846	 -0.469276	 -0.718109	 0.120058	 0.747567	 -0.386994	 0.526275	 2
1462092167.831	 2	 0.093596	 0.293796	 1.249185	 1.736054	 -0.457285	 -0.721301	 0.125191	 0.747081	 -0.383968	 0.527983	 2
1462092167.841	 2	 0.282491	 0.920164	 1.311986	 1.741476	 -0.444847	 -0.726132	 0.132067	 0.747809	 -0.380882	 0.527512	 2
1462092167.851	 2	 0.666129	 1.689260	 1.334986	 1.752729	 -0.432717	 -0.734783	 0.141354	 0.749764	 -0.378451	 0.524069	 2
1462092167.861	 2	 1.312961	 2.378832	 1.351757	 1.768668	 -0.421666	 -0.749789	 0.153535	 0.752402	 -0.377574	 0.517451	 2
1462092167.871	 2	 2.049162	 2.949545	 1.441248	 1.787339	 -0.411659	 -0.773063	 0.168999	 0.754912	 -0.378749	 0.508032	 2
1462092167.881	 2	 2.334294	 3.503392	 1.369316	 1.810096	 -0.403152	 -0.800856	 0.186484	 0.757782	 -0.380895	 0.495892	 2
1462092167.891	 2	 2.406749	 3.347081	 1.257457	 1.833736	 -0.396803	 -0.829239	 0.203723	 0.760499	 -0.383430	 0.482824	 2
1462092167.901	 2	 2.647570	 2.013702	 1.408145	 1.845646	 -0.390483	 -0.860339	 0.219753	 0.759733	 -0.387511	 0.473655	 2
1462092167.911	 2	 1.751790	 0.955758	 0.947823	 1.848114	 -0.385419	 -0.884928	 0.231082	 0.757263	 -0.391356	 0.469035	 2
1462092167.921	 2	 1.217502	 0.331414	 0.438296	 1.847487	 -0.383817	 -0.899546	 0.236967	 0.755312	 -0.394323	 0.466755	 2
1462092167.931	 2	 1.667400	 -0.218708	 0.440983	 1.840002	 -0.383862	 -0.916811	 0.241972	 0.751502	 -0.399261	 0.466139	 2
1462092167.941	 2	 1.705202	 -0.188473	 0.518736	 1.830348	 -0.383573	 -0.936291	 0.247415	 0.746850	 -0.404887	 0.465905	 2
1462092167.951	 2	 1.459099	 0.102811	 0.545970	 1.824324	 -0.382180	 -0.953635	 0.253070	 0.743181	 -0.409232	 0.464937	 2
1462092167.961	 2	 1.360584	 0.064527	 0.507039	 1.819374	 -0.380546	 -0.969314	 0.258358	 0.739908	 -0.412988	 0.463927	 2
1462092167.971	 2	 1.387855	 -0.011285	 0.477320	 1.813537	 -0.379220	 -0.985011	 0.263341	 0.736407	 -0.416970	 0.463133	 2
1462092167.981	 2	 1.272972	 -0.148241	 0.465323	 1.806939	 -0.377782	 -0.999946	 0.267878	 0.732782	 -0.420855	 0.462767	 2
1462092167.991	 2	 0.920450	 -0.476687	 0.498374	 1.798784	 -0.375426	 -1.011863	 0.271223	 0.729093	 -0.423985	 0.463787	 2
1462092168.001	 2	 0.463665	 -0.980190	 0.550955	 1.787622	 -0.371455	 -1.019167	 0.272711	 0.725160	 -0.425983	 0.467235	 2
1462092168.011	 2	 0.097656	 -1.501752	 0.642010	 1.772710	 -0.365825	 -1.022421	 0.272423	 0.720710	 -0.427063	 0.473265	 2
1462092168.021	 2	 -0.169327	 -1.910118	 0.542485	 1.754479	 -0.359787	 -1.022528	 0.270418	 0.715788	 -0.427733	 0.481213	 2
1462092168.031	 2	 -0.431467	 -2.131693	 0.096151	 1.734827	 -0.357001	 -1.019129	 0.265859	 0.711210	 -0.428705	 0.489604	 2
1462092168.041	 2	 -0.746608	 -2.231196	 -0.405071	 1.715306	 -0.358769	 -1.011614	 0.258450	 0.707547	 -0.429936	 0.497731	 2
1462092168.051	 2	 -0.940283	 -2.163909	 -0.884483	 1.697171	 -0.365101	 -1.000949	 0.248778	 0.704965	 -0.431437	 0.504972	 2
1462092168.061	 2	 -0.987971	 -1.880386	 -1.406850	 1.681907	 -0.376592	 -0.988863	 0.237548	 0.703653	 -0.433600	 0.510328	 2
1462092168.071	 2	 -0.921848	 -1.447256	 -1.933080	 1.670799	 -0.393529	 -0.976729	 0.225392	 0.703776	 -0.436719	 0.513005	 2
1462092168.081	 2	 -0.825429	 -0.977610	 -2.398484	 1.664470	 -0.415504	 -0.965122	 0.212754	 0.705354	 -0.440793	 0.512750	 2
1462092168.091	 2	 -0.708959	 -0.685586	 -2.709049	 1.661513	 -0.441143	 -0.954349	 0.199876	 0.707820	 -0.445706	 0.510281	 2
1462092168.101	 2	 -0.518821	 -0.565600	 -2.806573	 1.659660	 -0.468474	 -0.945218	 0.187196	 0.710317	 -0.451353	 0.506644	 2
1462092168.111	 2	 -0.241240	 -0.605215	 -2.730492	 1.656686	 -0.495655	 -0.938962	 0.175265	 0.712048	 -0.457721	 0.502754	 2
1462092168.121	 2	 0.003579	 -0.590376	 -2.638698	 1.652178	 -0.522120	 -0.935818	 0.164264	 0.712915	 -0.464707	 0.498816	 2
1462092168.131	 2	 0.269204	 -0.697837	 -2.536500	 1.645658	 -0.547799	 -0.935777	 0.154094	 0.712867	 -0.472291	 0.494992	 2
1462092168.141	 2	 0.560628	 -1.035801	 -2.382318	 1.634247	 -0.572390	 -0.939573	 0.144413	 0.711193	 -0.480738	 0.492179	 2
1462092168.151	 2	 0.761128	 -1.418174	 -2.228824	 1.616900	 -0.595199	 -0.946712	 0.134964	 0.707719	 -0.489746	 0.490987	 2
1462092168.161	 2	 0.837917	 -1.532198	 -2.374431	 1.596618	 -0.618749	 -0.955754	 0.125044	 0.703477	 -0.499353	 0.490031	 2
1462092168.171	 2	 0.740275	 -1.414770	 -2.647455	 1.576652	 -0.644589	 -0.964876	 0.114247	 0.699491	 -0.509241	 0.488194	 2
1462092168.181	 2	 0.477509	 -1.145544	 -3.028468	 1.560158	 -0.673851	 -0.971960	 0.102249	 0.696699	 -0.518949	 0.484611	 2
1462092168.191	 2	 0.100154	 -0.915737	 -3.465317	 1.550504	 -0.705244	 -0.973899	 0.089354	 0.695910	 -0.527274	 0.479278	 2
1462092168.201	 2	 -0.328732	 -0.775970	 -3.872708	 1.546789	 -0.740070	 -0.970009	 0.074706	 0.696818	 -0.534516	 0.472394	 2
1462092168.211	 2	 -0.706444	 -0.722924	 -4.191801	 1.550139	 -0.775283	 -0.958896	 0.059254	 0.699366	 -0.539774	 0.464780	 2
1462092168.221	 2	 -0.989299	 -0.778973	 -4.408330	 1.551979	 -0.817874	 -0.946284	 0.040230	 0.701391	 -0.546333	 0.456019	 2
1462092168.231	 2	 -1.158504	 -0.811189	 -4.519058	 1.556004	 -0.862541	 -0.930268	 0.019855	 0.703416	 -0.552474	 0.446748	 2
1462092168.241	 2	 -1.194536	 -0.739976	 -4.540460	 1.562695	 -0.907699	 -0.911945	 -0.000760	 0.705341	 -0.558188	 0.436944	 2
1462092168.251	 2	 -1.063652	 -0.611514	 -4.520152	 1.571338	 -0.952683	 -0.893353	 -0.020820	 0.706911	 -0.563871	 0.426488	 2
1462092168.261	 2	 -0.708032	 -0.638458	 -4.425447	 1.577881	 -0.996904	 -0.878187	 -0.039929	 0.707339	 -0.570150	 0.415940	 2
1462092168.281	 3	 0.602334	 -0.690303	 -3.858629	 1.559288	 -1.078912	 -0.881544	 -0.073045	 0.701389	 -0.586929	 0.397783	 2
1462092168.291	 4	 1.161845	 0.017621	 -3.546776	 1.535605	 -1.114870	 -0.906107	 -0.084202	 0.696537	 -0.597595	 0.388105	 2
1462092168.311	 4	 1.737607	 1.011364	 -2.975557	 1.472035	 -1.176546	 -0.992816	 -0.095648	 0.686960	 -0.621228	 0.364710	 2
1462092168.321	 4	 1.744834	 0.728124	 -2.430453	 1.429346	 -1.200008	 -1.047727	 -0.098714	 0.681699	 -0.632259	 0.354670	 2
1462092168.331	 4	 1.630311	 0.126787	 -1.798792	 1.380274	 -1.216608	 -1.103185	 -0.101557	 0.675904	 -0.641497	 0.348312	 2
1462092168.341	 4	 1.413724	 -0.427157	 -1.126367	 1.330228	 -1.226115	 -1.153299	 -0.104315	 0.669974	 -0.648548	 0.345888	 2
1462092168.351	 4	 1.207679	 -0.943404	 -0.531485	 1.283500	 -1.229306	 -1.194314	 -0.107016	 0.664154	 -0.653442	 0.347076	 2
1462092168.361	 4	 1.188882	 -1.566518	 -0.223785	 1.235421	 -1.228348	 -1.230421	 -0.110483	 0.657674	 -0.657071	 0.351449	 2
1462092168.371	 4	 1.288703	 -2.126244	 -0.220271	 1.180307	 -1.225787	 -1.267676	 -0.115515	 0.649837	 -0.660439	 0.358034	 2
1462092168.381	 4	 0.658653	 -2.137818	 -0.310811	 1.130598	 -1.224674	 -1.297230	 -0.122000	 0.642522	 -0.662788	 0.364681	 2
1462092168.391	 4	 -2.169024	 -1.047906	 -0.173736	 1.151542	 -1.232581	 -1.260386	 -0.129860	 0.644671	 -0.657618	 0.367523	 2
1462092168.401	 4	 -3.636532	 0.314501	 -0.483996	 1.239371	 -1.248490	 -1.167286	 -0.137353	 0.655439	 -0.647262	 0.364125	 2
1462092168.411	 4	 -3.805854	 1.702845	 -1.239083	 1.357793	 -1.268744	 -1.057116	 -0.143259	 0.669353	 -0.637486	 0.353631	 2
1462092168.421	 4	 -4.129238	 2.739960	 -1.942809	 1.507188	 -1.291998	 -0.927599	 -0.148196	 0.685048	 -0.628897	 0.336505	 2
1462092168.431	 4	 -5.193956	 2.628000	 -2.264967	 1.716720	 -1.312039	 -0.738680	 -0.155349	 0.703186	 -0.617473	 0.316423	 2
1462092168.441	 4	 -5.441559	 1.610902	 -2.404430	 1.963236	 -1.320439	 -0.503672	 -0.166408	 0.720891	 -0.603172	 0.298007	 2
1462092168.451	 4	 -4.277445	 0.399600	 -2.353365	 2.173729	 -1.319115	 -0.293413	 -0.179779	 0.733681	 -0.590326	 0.284442	 2
1462092168.461	 4	 -2.656475	 0.089116	 -2.272318	 2.322235	 -1.317873	 -0.140946	 -0.192207	 0.740590	 -0.582391	 0.274598	 2
1462092168.471	 4	 -1.602434	 0.688104	 -2.262067	 2.440405	 -1.320251	 -0.024291	 -0.201587	 0.744367	 -0.579166	 0.264286	 2
1462092168.481	 4	 -1.144320	 1.359559	 -2.179875	 2.551143	 -1.323737	 0.077424	 -0.207894	 0.747231	 -0.578679	 0.252104	 2
1462092168.491	 4	 -0.913465	 1.215046	 -1.921053	 2.652350	 -1.325724	 0.168220	 -0.212759	 0.749543	 -0.578907	 0.240386	 2
1462092168.501	 4	 -0.749866	 0.195971	 -1.434249	 2.727365	 -1.325486	 0.240552	 -0.218175	 0.750706	 -0.578332	 0.233181	 2
1462092168.511	 4	 -0.691619	 -0.867599	 -0.819050	 2.767423	 -1.322798	 0.288385	 -0.224471	 0.750901	 -0.576150	 0.231971	 2
1462092168.521	 4	 -0.835129	 -1.313273	 -0.147320	 2.777708	 -1.316617	 0.311800	 -0.230148	 0.751349	 -0.572161	 0.234816	 2
1462092168.531	 4	 -1.120846	 -1.369207	 0.530340	 2.765448	 -1.305558	 0.313179	 -0.233875	 0.753133	 -0.566223	 0.239762	 2
1462092168.541	 4	 -1.369648	 -1.689492	 1.143405	 2.734925	 -1.289619	 0.297891	 -0.236185	 0.756072	 -0.558197	 0.246958	 2
1462092168.551	 4	 -1.683982	 -2.320053	 1.478121	 2.692168	 -1.269245	 0.275791	 -0.238766	 0.759437	 -0.547816	 0.257184	 2
1462092168.561	 4	 -1.888036	 -2.904765	 1.579967	 2.647852	 -1.245579	 0.258338	 -0.242809	 0.762706	 -0.535339	 0.269695	 2
1462092168.571	 4	 -1.770784	 -2.990772	 1.647421	 2.602605	 -1.221698	 0.242313	 -0.247019	 0.765350	 -0.522449	 0.283317	 2
1462092168.581	 4	 -1.435903	 -2.277700	 1.552024	 2.563387	 -1.200318	 0.227207	 -0.249642	 0.767647	 -0.511176	 0.295120	 2
1462092168.591	 4	 -1.097256	 -0.933369	 1.385734	 2.537135	 -1.182630	 0.212889	 -0.249193	 0.770465	 -0.502921	 0.302254	 2
1462092168.601	 4	 -0.982825	 0.607381	 1.227487	 2.528189	 -1.167227	 0.200771	 -0.245257	 0.774858	 -0.497435	 0.303320	 2
1462092168.611	 4	 -1.077514	 1.912790	 1.092318	 2.536867	 -1.152229	 0.192670	 -0.238469	 0.781229	 -0.493626	 0.298576	 2
1462092168.621	 4	 -1.283860	 2.832587	 0.977980	 2.559885	 -1.136424	 0.189132	 -0.229874	 0.789284	 -0.490398	 0.289307	 2
1462092168.631	 4	 -1.474519	 3.444017	 0.880885	 2.593059	 -1.119472	 0.189239	 -0.220231	 0.798488	 -0.487147	 0.276772	 2
1462092168.641	 4	 -1.447708	 3.736101	 0.835410	 2.630201	 -1.102535	 0.189582	 -0.209882	 0.807927	 -0.484071	 0.262447	 2
1462092168.651	 4	 -1.259084	 3.699216	 0.812109	 2.665558	 -1.087110	 0.187423	 -0.199234	 0.816686	 -0.481513	 0.247940	 2
1462092168.661	 4	 -0.988834	 3.366012	 0.734183	 2.696347	 -1.074240	 0.183037	 -0.189081	 0.824151	 -0.479611	 0.234512	 2
1462092168.671	 4	 -0.640862	 2.833125	 0.579120	 2.721393	 -1.064995	 0.177672	 -0.180219	 0.829880	 -0.478623	 0.223024	 2
1462092168.681	 4	 -0.271089	 2.221035	 0.364513	 2.740805	 -1.059994	 0.172731	 -0.173188	 0.833711	 -0.478753	 0.213840	 2
1462092168.691	 4	 0.071158	 1.673750	 0.128367	 2.755837	 -1.059174	 0.169302	 -0.168103	 0.835792	 -0.480047	 0.206755	 2
1462092168.701	 4	 0.335240	 1.270512	 -0.075917	 2.768099	 -1.061830	 0.167748	 -0.164663	 0.836497	 -0.482357	 0.201223	 2
1462092168.711	 4	 0.533967	 1.006019	 -0.241038	 2.779000	 -1.067113	 0.168044	 -0.162453	 0.836209	 -0.485470	 0.196679	 2
1462092168.721	 4	 0.682251	 0.871741	 -0.364010	 2.789563	 -1.074349	 0.169886	 -0.161047	 0.835231	 -0.489224	 0.192646	 2
1462092168.741	 5	 0.992333	 0.936424	 -0.559011	 2.814358	 -1.093979	 0.177533	 -0.159092	 0.831859	 -0.498818	 0.184067	 2
1462092168.751	 5	 1.229397	 0.946552	 -0.533271	 2.826770	 -1.106762	 0.180877	 -0.157938	 0.829359	 -0.504902	 0.179701	 2
1462092168.761	 5	 1.561474	 1.084942	 -0.382470	 2.836288	 -1.122053	 0.179956	 -0.155775	 0.826208	 -0.512172	 0.175483	 2
1462092168.771	 5	 2.082175	 1.572049	 -0.175713	 2.842821	 -1.141254	 0.171445	 -0.151347	 0.822251	 -0.521459	 0.170523	 2
1462092168.781	 5	 2.757478	 2.372523	 -0.108067	 2.849880	 -1.166253	 0.155520	 -0.143943	 0.817169	 -0.533719	 0.163275	 2
1462092168.791	 5	 3.386947	 2.945799	 -0.294722	 2.861441	 -1.198094	 0.137190	 -0.134591	 0.810465	 -0.549117	 0.153305	 2
1462092168.801	 5	 3.064298	 1.984188	 -0.586485	 2.874903	 -1.230683	 0.126486	 -0.127740	 0.802859	 -0.564108	 0.144505	 2
1462092168.811	 5	 -0.101078	 1.354491	 -0.404920	 2.895501	 -1.240065	 0.134614	 -0.125479	 0.801081	 -0.568645	 0.138448	 2
1462092168.821	 5	 -1.362921	 1.884100	 -0.337848	 2.930618	 -1.228950	 0.152555	 -0.122445	 0.805546	 -0.565102	 0.129471	 2
1462092168.831	 5	 -0.994375	 1.223045	 -0.265145	 2.959590	 -1.218397	 0.167878	 -0.120290	 0.809478	 -0.561588	 0.122041	 2
1462092168.841	 5	 -0.289690	 0.040221	 0.153610	 2.964215	 -1.213715	 0.169303	 -0.119512	 0.811015	 -0.559862	 0.120526	 2
1462092168.851	 5	 0.384062	 -0.736845	 0.631829	 2.943663	 -1.214940	 0.153494	 -0.118877	 0.810348	 -0.560107	 0.124438	 2
1462092168.861	 5	 0.876700	 -1.234445	 0.854180	 2.906341	 -1.220681	 0.125619	 -0.118209	 0.807964	 -0.562027	 0.131704	 2
1462092168.871	 5	 1.068513	 -1.706524	 0.807618	 2.860721	 -1.228682	 0.093980	 -0.118601	 0.804426	 -0.564742	 0.141064	 2
1462092168.881	 5	 0.791362	 -2.107449	 0.556912	 2.815897	 -1.235259	 0.067924	 -0.121151	 0.800815	 -0.566625	 0.151504	 2
1462092168.891	 5	 0.321737	 -1.806726	 0.182256	 2.784542	 -1.238433	 0.055359	 -0.125206	 0.798231	 -0.566952	 0.160361	 2
1462092168.901	 5	 0.079982	 -0.462383	 -0.216645	 2.778018	 -1.239974	 0.057475	 -0.127999	 0.797126	 -0.566987	 0.163500	 2
1462092168.911	 5	 -0.025859	 0.859057	 -0.492249	 2.795951	 -1.241576	 0.070158	 -0.128068	 0.797302	 -0.567753	 0.159888	 2
1462092168.921	 5	 -0.351364	 0.836778	 -0.469372	 2.821286	 -1.240787	 0.087170	 -0.127618	 0.798435	 -0.567717	 0.154635	 2
1462092168.931	 5	 -0.791886	 0.012255	 -0.238741	 2.837880	 -1.235224	 0.102190	 -0.128645	 0.800356	 -0.565380	 0.152402	 2
1462092168.941	 5	 -1.254968	 -0.752368	 -0.117130	 2.845153	 -1.224780	 0.116205	 -0.131742	 0.803010	 -0.560545	 0.153651	 2
1462092168.951	 5	 -1.684059	 -0.777636	 -0.108301	 2.852177	 -1.209878	 0.132389	 -0.135670	 0.806732	 -0.553690	 0.155578	 2
1462092168.961	 5	 -1.548993	 0.233637	 -0.084080	 2.865206	 -1.194330	 0.147800	 -0.137720	 0.811095	 -0.547009	 0.154723	 2
1462092168.971	 5	 -0.595296	 3.226789	 0.029256	 2.894631	 -1.186214	 0.153477	 -0.131726	 0.815195	 -0.545222	 0.144355	 2
1462092168.981	 5	 -0.297412	 5.053472	 -0.225978	 2.947172	 -1.183390	 0.159079	 -0.119601	 0.819165	 -0.546979	 0.124411	 2
1462092168.991	 5	 -0.554277	 4.803301	 -0.653440	 3.011718	 -1.179648	 0.174943	 -0.108402	 0.822963	 -0.548209	 0.102210	 2
1462092169.001	 5	 -0.995032	 3.126298	 -1.081921	 3.073054	 -1.171687	 0.202643	 -0.103078	 0.826570	 -0.546856	 0.084295	 2
1462092169.011	 5	 -1.022007	 1.574997	 -1.462743	 3.125448	 -1.161809	 0.238549	 -0.103868	 0.829473	 -0.544061	 0.071999	 2
1462092169.021	 5	 -0.780848	 0.197232	 -1.710036	 -3.114729	 -1.153233	 0.279638	 -0.109569	 0.831077	 -0.541391	 0.064823	 2
1462092169.031	 5	 -0.420454	 -0.947654	 -1.771786	 -3.082718	 -1.147230	 0.322347	 -0.118968	 0.831263	 -0.539374	 0.062647	 2
1462092169.041	 5	 0.416473	 -1.128712	 -1.760509	 -3.055190	 -1.147613	 0.365283	 -0.129342	 0.829359	 -0.539894	 0.062834	 2
1462092169.051	 5	 1.676898	 -0.340809	 -1.869662	 -3.016491	 -1.159162	 0.413893	 -0.138076	 0.824273	 -0.545686	 0.061126	 2
1462092169.061	 5	 2.727271	 0.656652	 -1.913222	 -2.958752	 -1.180876	 0.472095	 -0.144041	 0.816175	 -0.556762	 0.055919	 2
1462092169.071	 5	 3.293558	 1.358023	 -1.768814	 -2.884214	 -1.207996	 0.539250	 -0.147176	 0.806189	 -0.571028	 0.048218	 2
1462092169.081	 5	 3.460859	 1.702449	 -1.433482	 -2.799914	 -1.236336	 0.611578	 -0.147806	 0.795484	 -0.586322	 0.039809	 2
1462092169.091	 5	 3.499622	 1.893482	 -1.035578	 -2.710064	 -1.264389	 0.686765	 -0.146182	 0.784616	 -0.601667	 0.031699	 2
1462092169.101	 5	 3.584107	 2.069317	 -0.661661	 -2.613025	 -1.292501	 0.766927	 -0.142438	 0.773514	 -0.617095	 0.024083	 2
1462092169.111	 5	 3.736758	 2.057182	 -0.366821	 -2.503456	 -1.320994	 0.858842	 -0.137214	 0.761875	 -0.632786	 0.017319	 2
1462092169.121	 5	 3.816007	 1.531606	 -0.209340	 -2.376519	 -1.348569	 0.971901	 -0.132397	 0.749642	 -0.648342	 0.012691	 2
1462092169.131	 5	 3.603936	 0.439055	 -0.179293	 -2.235688	 -1.371937	 1.108301	 -0.130415	 0.737519	 -0.662510	 0.011751	 2
1462092169.141	 5	 3.072190	 -0.936067	 -0.230089	 -2.096919	 -1.388265	 1.255615	 -0.132958	 0.726568	 -0.673934	 0.015304	 2
1462092169.151	 5	 2.351494	 -2.071549	 -0.312181	 -1.981898	 -1.397118	 1.390962	 -0.139946	 0.717596	 -0.681880	 0.022606	 2
1462092169.161	 5	 1.652843	 -2.606156	 -0.394202	 -1.901498	 -1.400219	 1.498059	 -0.149635	 0.710753	 -0.686616	 0.031607	 2
1462092169.171	 5	 1.105286	 -2.578372	 -0.450990	 -1.851956	 -1.399735	 1.574848	 -0.159956	 0.705713	 -0.689028	 0.040302	 2
1462092169.181	 5	 0.786414	 -2.264041	 -0.501774	 -1.820857	 -1.397254	 1.630302	 -0.169604	 0.701854	 -0.690195	 0.047600	 2
1462092169.191	 5	 0.636893	 -1.781201	 -0.567385	 -1.796111	 -1.393493	 1.674842	 -0.177955	 0.698595	 -0.691007	 0.052977	 2
1462092169.201	 5	 0.559312	 -1.192323	 -0.648623	 -1.771207	 -1.388572	 1.713809	 -0.184632	 0.695664	 -0.691972	 0.056011	 2
1462092169.211	 5	 0.506550	 -0.566113	 -0.705216	 -1.744383	 -1.382724	 1.748446	 -0.189393	 0.693020	 -0.693289	 0.056602	 2
1462092169.221	 5	 0.482545	 0.013511	 -0.720929	 -1.714981	 -1.376406	 1.779686	 -0.192181	 0.690612	 -0.695051	 0.055014	 2
1462092169.231	 5	 0.523139	 0.507684	 -0.760380	 -1.681250	 -1.369627	 1.810102	 -0.193265	 0.688231	 -0.697373	 0.051551	 2
1462092169.241	 5	 0.718775	 0.840784	 -0.801615	 -1.638654	 -1.362311	 1.845753	 -0.193139	 0.685357	 -0.700568	 0.046773	 2
1462092169.251	 5	 1.104743	 0.989646	 -0.798261	 -1.581240	 -1.354677	 1.894640	 -0.192280	 0.681284	 -0.705087	 0.041626	 2
1462092169.261	 5	 1.534150	 1.004942	 -0.715531	 -1.508095	 -1.346877	 1.959275	 -0.190953	 0.675707	 -0.711050	 0.036953	 2
1462092169.271	 5	 1.863218	 0.960380	 -0.567472	 -1.424334	 -1.338975	 2.035260	 -0.189199	 0.668909	 -0.718096	 0.033214	 2
1462092169.281	 5	 2.107867	 0.892663	 -0.419960	 -1.335190	 -1.330606	 2.117565	 -0.187096	 0.661233	 -0.725836	 0.030464	 2
1462092169.291	 5	 2.381992	 0.739762	 -0.273497	 -1.241938	 -1.321196	 2.205621	 -0.184913	 0.652624	 -0.734202	 0.028919	 2
1462092169.301	 5	 2.642818	 0.521685	 -0.173353	 -1.146866	 -1.309896	 2.297860	 -0.183022	 0.643001	 -0.743122	 0.028692	 2
1462092169.311	 5	 2.850515	 0.182027	 -0.139954	 -1.055369	 -1.295904	 2.389855	 -0.182034	 0.632428	 -0.752336	 0.029824	 2
1462092169.321	 5	 2.943837	 -0.364146	 -0.176756	 -0.974983	 -1.279041	 2.475789	 -0.182899	 0.621161	 -0.761347	 0.032541	 2
1462092169.331	 5	 2.849993	 -1.163425	 -0.284624	 -0.913856	 -1.260032	 2.549698	 -0.186796	 0.609701	 -0.769410	 0.037152	 2
1462092169.341	 5	 2.387231	 -2.283372	 -0.466867	 -0.882016	 -1.240981	 2.604151	 -0.195220	 0.599137	 -0.775238	 0.043939	 2
1462092169.351	 5	 1.691575	 -3.251417	 -0.623288	 -0.882184	 -1.224541	 2.636254	 -0.208357	 0.590556	 -0.777861	 0.052579	 2
1462092169.361	 5	 1.083618	 -3.528138	 -0.747395	 -0.903309	 -1.211276	 2.651002	 -0.223701	 0.584008	 -0.777896	 0.061399	 2
1462092169.371	 5	 0.574462	 -3.430901	 -0.891264	 -0.937106	 -1.200239	 2.651905	 -0.239431	 0.579188	 -0.776184	 0.068940	 2
1462092169.381	 5	 0.273971	 -3.247829	 -0.994586	 -0.977397	 -1.190393	 2.644008	 -0.254880	 0.575522	 -0.773416	 0.075094	 2
1462092169.391	 5	 0.377355	 -3.002846	 -1.050758	 -1.015344	 -1.179930	 2.636177	 -0.269582	 0.571728	 -0.770716	 0.080309	 2
1462092169.401	 5	 0.839891	 -2.681928	 -1.050733	 -1.041421	 -1.167220	 2.637912	 -0.282941	 0.566380	 -0.769360	 0.085111	 2
1462092169.411	 5	 1.229537	 -2.265598	 -0.976714	 -1.053686	 -1.152799	 2.650368	 -0.294367	 0.559471	 -0.769619	 0.089590	 2
1462092169.421	 5	 1.208993	 -2.049141	 -0.763500	 -1.059498	 -1.139466	 2.666820	 -0.304105	 0.552481	 -0.770350	 0.094051	 2
1462092169.431	 5	 0.637344	 -2.305177	 -0.367639	 -1.071219	 -1.131324	 2.678242	 -0.313526	 0.547532	 -0.769417	 0.099538	 2
1462092169.441	 5	 -0.470095	 -2.916023	 0.164937	 -1.101661	 -1.132319	 2.675071	 -0.324116	 0.546785	 -0.764555	 0.106914	 2
1462092169.451	 5	 -1.826708	 -3.171015	 0.680614	 -1.157137	 -1.143691	 2.648703	 -0.335396	 0.551593	 -0.754967	 0.115235	 2
1462092169.461	 5	 -3.051026	 -2.635043	 1.053291	 -1.235250	 -1.162793	 2.594047	 -0.344878	 0.561901	 -0.741920	 0.121991	 2
1462092169.471	 5	 -3.936270	 -1.546261	 1.233126	 -1.331096	 -1.184915	 2.510099	 -0.350537	 0.576581	 -0.727337	 0.125136	 2
1462092169.481	 5	 -4.450864	 -0.214356	 1.208436	 -1.439219	 -1.204925	 2.399818	 -0.351665	 0.594022	 -0.712893	 0.123504	 2
1462092169.491	 5	 -4.622707	 0.936745	 1.176947	 -1.552679	 -1.220137	 2.271563	 -0.348525	 0.612714	 -0.699486	 0.117605	 2
1462092169.501	 5	 -4.679714	 1.980248	 1.167970	 -1.666294	 -1.230016	 2.132582	 -0.341577	 0.631870	 -0.687274	 0.108261	 2
1462092169.511	 5	 -4.757068	 3.023681	 1.141051	 -1.776626	 -1.234248	 1.986364	 -0.330902	 0.651345	 -0.676138	 0.095349	 2
1462092169.521	 5	 -4.902333	 3.976447	 1.051000	 -1.881008	 -1.232267	 1.836010	 -0.316868	 0.671031	 -0.665672	 0.078694	 2
1462092169.531	 5	 -5.096241	 4.664777	 0.850204	 -1.977245	 -1.222995	 1.685966	 -0.300639	 0.690645	 -0.655133	 0.058534	 2
1462092169.541	 5	 -5.245522	 5.083901	 0.651843	 -2.061826	 -1.206628	 1.542456	 -0.283199	 0.709769	 -0.644012	 0.035700	 2
1462092169.551	 5	 -5.325692	 5.196725	 0.484135	 -2.133256	 -1.184439	 1.409945	 -0.265383	 0.728041	 -0.631978	 0.011446	 2
1462092169.561	 5	 -5.307734	 4.862408	 0.297557	 -2.192567	 -1.157570	 1.291480	 -0.248507	 0.745114	 -0.618780	 -0.012662	 2
1462092169.571	 5	 -4.854978	 3.854345	 0.220289	 -2.241934	 -1.129131	 1.191641	 -0.234382	 0.760246	 -0.604945	 -0.033648	 2
1462092169.581	 5	 -3.670873	 2.228220	 0.423986	 -2.283275	 -1.106389	 1.116056	 -0.224221	 0.772089	 -0.592757	 -0.047354	 2
1462092169.591	 5	 -2.373526	 0.263664	 0.791939	 -2.323976	 -1.093661	 1.061791	 -0.218587	 0.780557	 -0.583374	 -0.051236	 2
1462092169.601	 5	 -1.434275	 -1.631326	 0.928123	 -2.370722	 -1.088748	 1.022374	 -0.217981	 0.786609	 -0.575881	 -0.045736	 2
1462092169.611	 5	 -0.902127	 -2.874720	 0.698767	 -2.420799	 -1.086538	 0.995402	 -0.222237	 0.790880	 -0.569159	 -0.034316	 2
1462092169.621	 5	 -0.645265	 -3.194176	 0.458025	 -2.468503	 -1.084519	 0.977413	 -0.229103	 0.793862	 -0.562895	 -0.021048	 2
1462092169.631	 5	 -0.589853	 -2.665472	 0.346294	 -2.509098	 -1.082030	 0.963536	 -0.235541	 0.796162	 -0.557276	 -0.009451	 2
1462092169.642	 5	 -0.691598	 -1.806053	 0.308283	 -2.541298	 -1.078485	 0.949998	 -0.239885	 0.798417	 -0.552254	 -0.001281	 2
1462092169.652	 5	 -0.923655	 -0.990756	 0.293378	 -2.566523	 -1.072989	 0.934815	 -0.241969	 0.801124	 -0.547395	 0.003243	 2
1462092169.662	 5	 -1.248281	 -0.366435	 0.306277	 -2.587554	 -1.064764	 0.916609	 -0.242169	 0.804646	 -0.542105	 0.004687	 2
1462092169.672	 5	 -1.578108	 0.022112	 0.364987	 -2.607251	 -1.053738	 0.894729	 -0.240974	 0.809099	 -0.535980	 0.004059	 2
1462092169.682	 5	 -1.819974	 0.232130	 0.480952	 -2.627457	 -1.040684	 0.869250	 -0.238683	 0.814347	 -0.529021	 0.002380	 2
1462092169.692	 5	 -1.890618	 0.320360	 0.592161	 -2.648023	 -1.026923	 0.841757	 -0.235575	 0.819971	 -0.521682	 0.000387	 2
1462092169.702	 5	 -1.790301	 0.289491	 0.629368	 -2.667794	 -1.013672	 0.814993	 -0.232219	 0.825424	 -0.514536	 -0.001382	 2
1462092169.712	 5	 -1.582577	 0.199628	 0.641644	 -2.686232	 -1.001883	 0.790564	 -0.228996	 0.830345	 -0.508018	 -0.002560	 2
1462092169.722	 5	 -1.320373	 0.092831	 0.687392	 -2.703714	 -0.992269	 0.768306	 -0.225864	 0.834618	 -0.502384	 -0.002941	 2
1462092169.732	 5	 -1.028333	 -0.008862	 0.715876	 -2.720397	 -0.985218	 0.748188	 -0.222842	 0.838171	 -0.497800	 -0.002448	 2
1462092169.742	 5	 -0.765696	 0.024320	 0.704306	 -2.735074	 -0.980498	 0.730484	 -0.219842	 0.841007	 -0.494342	 -0.001627	 2
1462092169.752	 5	 -0.581434	 0.210659	 0.660740	 -2.746359	 -0.977403	 0.715018	 -0.216619	 0.843274	 -0.491898	 -0.001297	 2
1462092169.762	 5	 -0.491771	 0.493921	 0.597583	 -2.753368	 -0.975033	 0.701454	 -0.212994	 0.845177	 -0.490209	 -0.002126	 2
1462092169.771	 5	 -0.498009	 0.812526	 0.529196	 -2.756259	 -0.972561	 0.689150	 -0.208888	 0.846942	 -0.488914	 -0.004385	 2
1462092169.781	 5	 -0.568358	 1.126952	 0.445342	 -2.755062	 -0.969223	 0.677845	 -0.204326	 0.848731	 -0.487687	 -0.008279	 2
1462092169.792	 5	 -0.615507	 1.351174	 0.398814	 -2.750870	 -0.965164	 0.667134	 -0.199388	 0.850549	 -0.486447	 -0.013422	 2
1462092169.801	 5	 -0.558416	 1.459530	 0.403588	 -2.744969	 -0.961318	 0.656754	 -0.194135	 0.852240	 -0.485419	 -0.019163	 2
1462092169.811	 5	 -0.342863	 1.455709	 0.403807	 -2.737970	 -0.959136	 0.647492	 -0.188827	 0.853456	 -0.485121	 -0.024794	 2
1462092169.822	 5	 -0.025941	 1.547528	 0.286800	 -2.727686	 -0.959407	 0.641564	 -0.183757	 0.853815	 -0.486105	 -0.030574	 2
1462092169.831	 5	 0.406002	 1.869350	 0.105920	 -2.710335	 -0.962656	 0.641166	 -0.178840	 0.852955	 -0.488958	 -0.037481	 2
1462092169.841	 5	 1.062429	 2.749741	 -0.106887	 -2.679220	 -0.970381	 0.648723	 -0.173131	 0.850209	 -0.494894	 -0.047437	 2
1462092169.852	 5	 2.035930	 4.122591	 -0.337056	 -2.625681	 -0.984649	 0.667998	 -0.165413	 0.844522	 -0.505477	 -0.062557	 2
1462092169.862	 5	 3.406845	 5.303307	 -0.501067	 -2.543868	 -1.008034	 0.705013	 -0.155466	 0.834471	 -0.522172	 -0.082620	 2
1462092169.872	 5	 4.448311	 3.230611	 -0.481463	 -2.454145	 -1.038984	 0.761868	 -0.148555	 0.820908	 -0.542658	 -0.097793	 2
1462092169.882	 5	 3.883455	 -3.286797	 -0.069322	 -2.418398	 -1.069545	 0.820325	 -0.155557	 0.809892	 -0.558523	 -0.089048	 2
1462092169.892	 5	 1.198380	 -6.101133	 0.308346	 -2.462673	 -1.084798	 0.840233	 -0.172458	 0.807475	 -0.560728	 -0.061864	 2
1462092169.902	 5	 -0.292707	 -2.383931	 0.129977	 -2.498362	 -1.086030	 0.837986	 -0.181252	 0.808447	 -0.557924	 -0.047777	 2
1462092169.912	 5	 -1.026798	 0.512561	 0.751622	 -2.517826	 -1.082200	 0.817132	 -0.179065	 0.811439	 -0.554375	 -0.046602	 2
1462092169.922	 5	 -1.258922	 1.989275	 1.009312	 -2.529373	 -1.077959	 0.784768	 -0.170008	 0.815288	 -0.551104	 -0.051831	 2
1462092169.932	 5	 -1.074305	 2.196465	 0.761310	 -2.531862	 -1.073388	 0.756636	 -0.160169	 0.818493	 -0.548513	 -0.059578	 2
1462092169.942	 5	 -0.657433	 1.304172	 0.647064	 -2.534045	 -1.070816	 0.736299	 -0.152970	 0.820615	 -0.546799	 -0.064820	 2
1462092169.952	 5	 -0.163853	 0.252194	 0.690529	 -2.542399	 -1.072329	 0.721066	 -0.148686	 0.821760	 -0.546213	 -0.065224	 2
1462092169.962	 5	 0.195143	 -0.270596	 0.612198	 -2.552731	 -1.076908	 0.711486	 -0.146641	 0.821950	 -0.546786	 -0.062615	 2
1462092169.972	 5	 0.382136	 0.019105	 0.596214	 -2.559543	 -1.082980	 0.704936	 -0.144592	 0.821495	 -0.548270	 -0.060323	 2
1462092169.982	 5	 0.717314	 1.133080	 0.636700	 -2.554973	 -1.091575	 0.700975	 -0.139982	 0.820004	 -0.551561	 -0.061474	 2
1462092169.992	 5	 1.369432	 2.552797	 0.579221	 -2.529546	 -1.104818	 0.704706	 -0.131752	 0.816401	 -0.558125	 -0.068026	 2
1462092170.002	 5	 1.852292	 2.920139	 0.535805	 -2.487189	 -1.122298	 0.718949	 -0.121932	 0.810647	 -0.567438	 -0.077442	 2
1462092170.012	 5	 1.013154	 0.609953	 0.779528	 -2.468438	 -1.136980	 0.724886	 -0.115780	 0.806794	 -0.573819	 -0.080062	 2
1462092170.022	 5	 -0.316968	 -1.723034	 0.760874	 -2.494133	 -1.141987	 0.710043	 -0.116071	 0.807680	 -0.573476	 -0.072838	 2
1462092170.032	 5	 -1.493200	 -2.810346	 0.391160	 -2.544222	 -1.134929	 0.683589	 -0.121114	 0.812325	 -0.567155	 -0.061609	 2
1462092170.042	 5	 -2.228861	 -3.071112	 0.069015	 -2.600628	 -1.118219	 0.654866	 -0.128529	 0.819087	 -0.556838	 -0.050084	 2
1462092170.052	 5	 -2.547606	 -2.773251	 -0.199339	 -2.651801	 -1.095937	 0.629780	 -0.136380	 0.826517	 -0.544656	 -0.040249	 2
1462092170.062	 5	 -2.274729	 -1.529074	 -0.416079	 -2.685883	 -1.072716	 0.613703	 -0.142892	 0.833112	 -0.533198	 -0.034733	 2
1462092170.072	 5	 -1.202007	 0.797954	 -0.443198	 -2.688137	 -1.057431	 0.608206	 -0.143747	 0.836706	 -0.527082	 -0.038013	 2
1462092170.082	 5	 -0.001005	 2.163110	 -0.615737	 -2.662459	 -1.052266	 0.615838	 -0.141045	 0.836663	 -0.527094	 -0.047684	 2
1462092170.092	 5	 0.692168	 1.774597	 -0.816159	 -2.625997	 -1.053548	 0.634946	 -0.139159	 0.834109	 -0.530638	 -0.057621	 2
1462092170.102	 5	 0.850503	 0.526300	 -0.846206	 -2.597276	 -1.056357	 0.658418	 -0.140765	 0.831056	 -0.534406	 -0.062780	 2
1462092170.112	 5	 0.859898	 -0.381512	 -0.625596	 -2.580553	 -1.060054	 0.679625	 -0.144375	 0.828312	 -0.537633	 -0.063289	 2
1462092170.122	 5	 0.916233	 -1.129380	 -0.330369	 -2.575260	 -1.065446	 0.696479	 -0.148867	 0.825896	 -0.540514	 -0.059825	 2
1462092170.132	 5	 1.081615	 -1.669475	 -0.233456	 -2.577100	 -1.072914	 0.712153	 -0.154357	 0.823354	 -0.543531	 -0.053255	 2
1462092170.142	 5	 1.723178	 -1.444283	 -0.454362	 -2.571930	 -1.083511	 0.735971	 -0.160612	 0.819358	 -0.548346	 -0.046620	 2
1462092170.152	 5	 2.865440	 -0.695402	 -0.712056	 -2.542531	 -1.101550	 0.778860	 -0.166249	 0.811847	 -0.558066	 -0.042763	 2
1462092170.162	 5	 3.501499	 -0.429546	 -0.754554	 -2.494546	 -1.124616	 0.837480	 -0.171310	 0.801749	 -0.571170	 -0.040188	 2
1462092170.172	 5	 3.579429	 -0.520413	 -0.639910	 -2.439751	 -1.148384	 0.903230	 -0.176102	 0.790900	 -0.584884	 -0.037099	 2
1462092170.182	 5	 3.407317	 -0.668078	 -0.538538	 -2.383938	 -1.170528	 0.971138	 -0.180765	 0.780295	 -0.597802	 -0.033104	 2
1462092170.192	 5	 3.189662	 -0.553469	 -0.662402	 -2.323549	 -1.188965	 1.042936	 -0.185503	 0.770039	 -0.609710	 -0.029698	 2
1462092170.202	 5	 3.109579	 -0.252958	 -0.762287	 -2.254569	 -1.203911	 1.120591	 -0.189812	 0.759785	 -0.621229	 -0.027795	 2
1462092170.212	 5	 3.081872	 -0.007280	 -0.775746	 -2.177391	 -1.216301	 1.203743	 -0.193358	 0.749369	 -0.632715	 -0.027028	 2
1462092170.222	 5	 3.027133	 0.098644	 -0.711404	 -2.095244	 -1.226417	 1.290280	 -0.196231	 0.738932	 -0.644018	 -0.026718	 2
1462092170.232	 5	 2.896325	 0.124104	 -0.626899	 -2.012144	 -1.234318	 1.377148	 -0.198603	 0.728748	 -0.654819	 -0.026367	 2
1462092170.242	 5	 2.696783	 0.060397	 -0.545822	 -1.931923	 -1.239832	 1.461164	 -0.200740	 0.719105	 -0.664775	 -0.025797	 2
1462092170.252	 5	 2.481893	 -0.131598	 -0.414649	 -1.858079	 -1.243615	 1.539964	 -0.202921	 0.710179	 -0.673698	 -0.024494	 2
1462092170.262	 5	 2.256030	 -0.396869	 -0.272339	 -1.792735	 -1.246470	 1.612419	 -0.205396	 0.702058	 -0.681500	 -0.022007	 2
1462092170.272	 5	 1.997076	 -0.635697	 -0.163598	 -1.737019	 -1.248577	 1.677274	 -0.208250	 0.694860	 -0.688084	 -0.018508	 2
1462092170.282	 5	 1.769103	 -0.829211	 -0.100534	 -1.690199	 -1.250014	 1.734886	 -0.211512	 0.688507	 -0.693553	 -0.014287	 2
1462092170.292	 5	 1.587116	 -0.980502	 -0.063056	 -1.650639	 -1.250962	 1.786587	 -0.215150	 0.682824	 -0.698120	 -0.009524	 2
1462092170.302	 5	 1.460953	 -1.041725	 -0.049738	 -1.615946	 -1.251361	 1.833973	 -0.218987	 0.677592	 -0.702063	 -0.004594	 2
1462092170.312	 5	 1.395688	 -1.080855	 -0.045271	 -1.584048	 -1.251303	 1.878825	 -0.222920	 0.672598	 -0.705634	 0.000403	 2
1462092170.322	 5	 1.393286	 -1.146711	 -0.034139	 -1.553333	 -1.250939	 1.923104	 -0.227016	 0.667622	 -0.709023	 0.005643	 2
1462092170.332	 5	 1.404983	 -1.095152	 -0.106233	 -1.522376	 -1.249601	 1.967441	 -0.231202	 0.662499	 -0.712409	 0.010635	 2
1462092170.342	 5	 1.478781	 -1.032855	 -0.139335	 -1.489630	 -1.247313	 2.013002	 -0.235292	 0.657078	 -0.715997	 0.015304	 2
1462092170.352	 5	 1.625171	 -0.958074	 -0.181478	 -1.453159	 -1.244085	 2.061863	 -0.239226	 0.651105	 -0.720029	 0.019802	 2
1462092170.362	 5	 1.801701	 -0.808040	 -0.247696	 -1.411614	 -1.239347	 2.114718	 -0.242851	 0.644385	 -0.724723	 0.023821	 2
1462092170.372	 5	 1.952927	 -0.635229	 -0.263391	 -1.365475	 -1.233347	 2.170796	 -0.245912	 0.637006	 -0.730068	 0.027423	 2
1462092170.382	 5	 2.051896	 -0.414751	 -0.327213	 -1.316556	 -1.225705	 2.227691	 -0.248322	 0.629123	 -0.735951	 0.030279	 2
1462092170.392	 5	 2.113474	 -0.207943	 -0.384442	 -1.266534	 -1.216346	 2.283672	 -0.250102	 0.620854	 -0.742256	 0.032332	 2
1462092170.402	 5	 2.113992	 -0.063593	 -0.425733	 -1.217826	 -1.205565	 2.336719	 -0.251391	 0.612429	 -0.748730	 0.033719	 2
1462092170.412	 5	 2.051301	 -0.016519	 -0.413026	 -1.172441	 -1.194062	 2.385656	 -0.252394	 0.604107	 -0.755076	 0.034822	 2
1462092170.422	 5	 1.863406	 -0.048791	 -0.392507	 -1.133229	 -1.182645	 2.428310	 -0.253384	 0.596329	 -0.760856	 0.035851	 2
1462092170.432	 5	 1.601527	 -0.163731	 -0.361455	 -1.102320	 -1.172006	 2.463176	 -0.254676	 0.589470	 -0.765703	 0.036935	 2
1462092170.442	 5	 1.354280	 -0.371016	 -0.298351	 -1.079476	 -1.162696	 2.491437	 -0.256537	 0.583584	 -0.769506	 0.038463	 2
1462092170.452	 5	 1.081951	 -0.568657	 -0.382014	 -1.065425	 -1.154012	 2.512486	 -0.259371	 0.578561	 -0.772261	 0.040089	 2
1462092170.462	 5	 0.769742	 -0.684820	 -0.393166	 -1.059805	 -1.146406	 2.525871	 -0.262898	 0.574630	 -0.773924	 0.041557	 2
1462092170.472	 5	 0.544587	 -0.784306	 -0.269569	 -1.059398	 -1.140829	 2.534640	 -0.266590	 0.571777	 -0.774677	 0.043314	 2
1462092170.482	 5	 0.554902	 -0.990609	 -0.113845	 -1.060171	 -1.136888	 2.544031	 -0.270506	 0.569291	 -0.774990	 0.046099	 2
1462092170.492	 5	 0.769406	 -1.312681	 0.000655	 -1.059452	 -1.133216	 2.558357	 -0.275160	 0.566221	 -0.775329	 0.050451	 2
1462092170.502	 5	 1.019638	 -1.716009	 0.071458	 -1.057153	 -1.129011	 2.578694	 -0.280984	 0.562146	 -0.775785	 0.056554	 2
1462092170.512	 5	 1.125974	 -2.177482	 -0.013694	 -1.057194	 -1.123709	 2.601439	 -0.288579	 0.557238	 -0.775962	 0.063969	 2
1462092170.522	 5	 0.999180	 -2.720353	 -0.124218	 -1.065132	 -1.117677	 2.621211	 -0.298501	 0.552151	 -0.775119	 0.072228	 2
1462092170.532	 5	 0.688422	 -3.495423	 -0.061581	 -1.084868	 -1.113238	 2.635837	 -0.311150	 0.547748	 -0.772278	 0.082125	 2
1462092170.542	 5	 0.176679	 -4.373892	 0.034882	 -1.120622	 -1.111888	 2.642325	 -0.326980	 0.544712	 -0.766507	 0.094019	 2
1462092170.552	 5	 -0.511304	 -4.892893	 0.202301	 -1.173534	 -1.114603	 2.636860	 -0.345035	 0.543811	 -0.757464	 0.107092	 2
1462092170.562	 5	 -1.304942	 -4.657260	 0.547119	 -1.239178	 -1.122699	 2.616868	 -0.362361	 0.546047	 -0.745772	 0.119798	 2
1462092170.572	 5	 -2.219110	 -3.554002	 0.951151	 -1.313019	 -1.136590	 2.578175	 -0.375626	 0.552522	 -0.732624	 0.129945	 2
1462092170.582	 5	 -3.132870	 -1.853506	 1.285067	 -1.393097	 -1.154622	 2.515485	 -0.382541	 0.563855	 -0.719342	 0.135192	 2
1462092170.592	 5	 -3.866663	 -0.173214	 1.545823	 -1.479347	 -1.174307	 2.427830	 -0.382834	 0.579486	 -0.706680	 0.135045	 2
1462092170.602	 5	 -4.493225	 1.042126	 1.681953	 -1.576343	 -1.192671	 2.314850	 -0.378185	 0.598331	 -0.694258	 0.130315	 2
1462092170.612	 5	 -5.011954	 2.276220	 1.807726	 -1.685386	 -1.207430	 2.177025	 -0.369185	 0.619695	 -0.681878	 0.121339	 2
1462092170.622	 5	 -5.422194	 3.878069	 1.942372	 -1.799653	 -1.217194	 2.018093	 -0.354498	 0.643125	 -0.670238	 0.107246	 2
1462092170.632	 5	 -5.832119	 5.513347	 1.847121	 -1.912528	 -1.219141	 1.843338	 -0.334099	 0.667903	 -0.659346	 0.086869	 2
1462092170.642	 5	 -6.136850	 6.746073	 1.577753	 -2.016036	 -1.211023	 1.663963	 -0.309589	 0.692796	 -0.648484	 0.060471	 2
1462092170.652	 5	 -6.141784	 7.343490	 1.236982	 -2.100943	 -1.193809	 1.495326	 -0.283018	 0.716221	 -0.637199	 0.030079	 2
1462092170.662	 5	 -5.666175	 6.696801	 0.841017	 -2.163940	 -1.170674	 1.352097	 -0.258093	 0.736381	 -0.625405	 -0.000115	 2
1462092170.672	 5	 -4.734938	 4.524914	 0.631520	 -2.214448	 -1.147261	 1.240868	 -0.239357	 0.752349	 -0.613297	 -0.023365	 2
1462092170.682	 5	 -3.751554	 1.530618	 0.556727	 -2.266604	 -1.126993	 1.157984	 -0.229596	 0.764789	 -0.600962	 -0.035046	 2
1462092170.692	 5	 -2.947068	 -1.477215	 0.596337	 -2.330334	 -1.110532	 1.095473	 -0.229022	 0.774906	 -0.588144	 -0.034009	 2
1462092170.702	 5	 -2.366636	 -3.796228	 0.636847	 -2.406722	 -1.097111	 1.046648	 -0.235724	 0.783361	 -0.574703	 -0.022285	 2
1462092170.712	 5	 -2.005687	 -5.061203	 0.588895	 -2.489453	 -1.084961	 1.007612	 -0.246844	 0.790335	 -0.560732	 -0.004149	 2
1462092170.722	 5	 -1.708229	 -5.260658	 0.485333	 -2.569248	 -1.073301	 0.976998	 -0.259487	 0.795772	 -0.546955	 0.015952	 2
1462092170.732	 5	 -1.247095	 -4.307108	 0.455021	 -2.635305	 -1.063820	 0.954242	 -0.270327	 0.799523	 -0.535302	 0.033745	 2
1462092170.742	 5	 -0.771249	 -2.619720	 0.569959	 -2.681836	 -1.058519	 0.936086	 -0.276500	 0.801985	 -0.527473	 0.046255	 2
1462092170.752	 5	 -0.555938	 -0.879110	 0.585347	 -2.708737	 -1.055715	 0.920026	 -0.277666	 0.804045	 -0.523155	 0.052170	 2
1462092170.762	 5	 -0.563222	 0.305644	 0.567659	 -2.721305	 -1.053039	 0.904964	 -0.275392	 0.806281	 -0.520861	 0.052672	 2
1462092170.772	 5	 -0.700530	 0.796691	 0.611791	 -2.728435	 -1.049432	 0.888538	 -0.271287	 0.809000	 -0.519015	 0.050451	 2
1462092170.782	 5	 -0.912867	 0.775222	 0.645413	 -2.736426	 -1.044118	 0.870004	 -0.266820	 0.812275	 -0.516471	 0.047689	 2
1462092170.792	 5	 -1.132089	 0.420902	 0.684524	 -2.748887	 -1.036783	 0.849464	 -0.262982	 0.816066	 -0.512616	 0.045849	 2
1462092170.802	 5	 -1.282560	 -0.078144	 0.740873	 -2.767560	 -1.027920	 0.827171	 -0.260169	 0.820216	 -0.507398	 0.045882	 2
1462092170.812	 5	 -1.379204	 -0.434142	 0.744796	 -2.790527	 -1.017861	 0.804499	 -0.258324	 0.824528	 -0.501166	 0.047491	 2
1462092170.822	 5	 -1.409472	 -0.491699	 0.715748	 -2.813898	 -1.007017	 0.782790	 -0.256908	 0.828838	 -0.494543	 0.049531	 2
1462092170.832	 5	 -1.361631	 -0.286714	 0.694858	 -2.834505	 -0.996099	 0.762510	 -0.255221	 0.833029	 -0.488190	 0.050945	 2
1462092170.842	 5	 -1.270128	 0.112886	 0.688188	 -2.850354	 -0.985769	 0.743504	 -0.252655	 0.837048	 -0.482617	 0.050957	 2
1462092170.852	 5	 -1.141899	 0.621797	 0.663032	 -2.860051	 -0.976376	 0.725960	 -0.248963	 0.840837	 -0.478126	 0.049043	 2
1462092170.862	 5	 -0.972809	 1.212342	 0.618030	 -2.862415	 -0.968333	 0.710247	 -0.244026	 0.844286	 -0.475000	 0.044812	 2
1462092170.872	 5	 -0.752145	 1.651697	 0.572237	 -2.858117	 -0.962172	 0.696465	 -0.238026	 0.847233	 -0.473338	 0.038609	 2
1462092170.882	 5	 -0.491050	 1.787190	 0.588277	 -2.850620	 -0.958455	 0.684005	 -0.231476	 0.849547	 -0.472944	 0.031813	 2
1462092170.892	 5	 -0.201197	 1.654828	 0.639941	 -2.843263	 -0.957659	 0.672167	 -0.224811	 0.851158	 -0.473633	 0.025742	 2
1462092170.902	 5	 0.099401	 1.310784	 0.692739	 -2.838356	 -0.959883	 0.660985	 -0.218580	 0.852024	 -0.475205	 0.021392	 2
1462092170.912	 5	 0.398757	 0.955882	 0.714540	 -2.836384	 -0.965135	 0.650766	 -0.213036	 0.852123	 -0.477640	 0.019033	 2
1462092170.922	 5	 0.701204	 0.657714	 0.640924	 -2.835490	 -0.973072	 0.642853	 -0.208364	 0.851402	 -0.481009	 0.018126	 2
1462092170.932	 5	 1.178330	 0.355259	 0.486880	 -2.834239	 -0.984576	 0.639506	 -0.205060	 0.849468	 -0.485801	 0.018758	 2
1462092170.942	 5	 1.934778	 0.659415	 0.347772	 -2.826224	 -1.002214	 0.642559	 -0.201942	 0.845672	 -0.493652	 0.019140	 2
1462092170.952	 5	 2.909337	 1.522214	 0.184254	 -2.803214	 -1.028047	 0.654595	 -0.197547	 0.839391	 -0.506073	 0.016972	 2
1462092170.962	 5	 4.035635	 2.445041	 -0.000277	 -2.758733	 -1.063339	 0.680095	 -0.191305	 0.829933	 -0.523912	 0.011395	 2
1462092170.972	 5	 4.868330	 2.051398	 -0.264841	 -2.696504	 -1.105581	 0.724466	 -0.185780	 0.817276	 -0.545447	 0.005825	 2
1462092170.982	 5	 4.116449	 -1.484848	 -0.240044	 -2.652027	 -1.144538	 0.777714	 -0.187783	 0.804480	 -0.563415	 0.010671	 2
1462092170.992	 5	 0.148269	 -3.260386	 0.157396	 -2.680207	 -1.153988	 0.786558	 -0.197461	 0.801415	 -0.563951	 0.026506	 2
1462092171.002	 5	 -1.694191	 0.760526	 0.356863	 -2.700417	 -1.142752	 0.766499	 -0.197175	 0.805479	 -0.558227	 0.026625	 2
1462092171.012	 5	 -2.202335	 2.948774	 0.940098	 -2.709476	 -1.126812	 0.728281	 -0.187113	 0.812415	 -0.551997	 0.016422	 2
1462092171.022	 5	 -1.981125	 2.895786	 1.349063	 -2.720809	 -1.113173	 0.682063	 -0.173739	 0.819422	 -0.546195	 0.005687	 2
1462092171.032	 5	 -1.428601	 1.856914	 1.170457	 -2.735081	 -1.103819	 0.642327	 -0.162842	 0.824762	 -0.541524	 -0.000996	 2
1462092171.042	 5	 -0.902490	 1.028447	 0.808598	 -2.747057	 -1.097831	 0.615424	 -0.155915	 0.828225	 -0.538252	 -0.004378	 2
1462092171.052	 5	 -0.455871	 0.840768	 0.629243	 -2.754872	 -1.095150	 0.597158	 -0.150858	 0.830235	 -0.536572	 -0.006511	 2
1462092171.062	 5	 0.016935	 1.260048	 0.410547	 -2.752743	 -1.095963	 0.586809	 -0.145865	 0.830815	 -0.537001	 -0.010034	 2
1462092171.072	 5	 0.427511	 1.751493	 0.291114	 -2.739563	 -1.100242	 0.583300	 -0.140201	 0.830036	 -0.539571	 -0.015725	 2
1462092171.082	 5	 0.795078	 2.196078	 0.146041	 -2.716548	 -1.107418	 0.585639	 -0.133805	 0.828068	 -0.543922	 -0.023401	 2
1462092171.092	 5	 0.960365	 1.975324	 -0.161194	 -2.685683	 -1.115717	 0.596494	 -0.128497	 0.825111	 -0.549248	 -0.031731	 2
1462092171.102	 5	 0.190201	 0.390427	 -0.341890	 -2.667041	 -1.118313	 0.607619	 -0.127511	 0.823520	 -0.551605	 -0.035884	 2
1462092171.112	 5	 -1.011660	 -1.554859	 -0.233359	 -2.679800	 -1.110716	 0.605686	 -0.131519	 0.825505	 -0.547892	 -0.032537	 2
1462092171.122	 5	 -2.088306	 -2.327070	 -0.086227	 -2.715494	 -1.093566	 0.590712	 -0.137843	 0.830737	 -0.538754	 -0.024870	 2
1462092171.132	 5	 -2.531693	 -1.668329	 0.078299	 -2.753621	 -1.070958	 0.569174	 -0.142527	 0.837566	 -0.527091	 -0.018548	 2
1462092171.142	 5	 -2.008483	 0.227225	 0.317324	 -2.775562	 -1.051419	 0.547754	 -0.142111	 0.843525	 -0.517632	 -0.018093	 2
1462092171.152	 5	 -0.915852	 2.598701	 0.414073	 -2.769046	 -1.041775	 0.531620	 -0.134984	 0.846649	 -0.514064	 -0.026529	 2
1462092171.162	 5	 -0.029704	 3.672783	 0.309776	 -2.741054	 -1.040898	 0.523533	 -0.124482	 0.846891	 -0.515395	 -0.040599	 2
1462092171.172	 5	 0.738104	 3.456696	 0.156136	 -2.704436	 -1.046661	 0.524451	 -0.114527	 0.844739	 -0.519887	 -0.054927	 2
1462092171.192	 6	 1.492182	 0.503560	 -0.201901	 -2.646042	 -1.070661	 0.551879	 -0.106804	 0.836374	 -0.533308	 -0.068218	 2
1462092171.202	 6	 1.509781	 -0.651292	 -0.309785	 -2.632024	 -1.082280	 0.572352	 -0.109595	 0.832367	 -0.539192	 -0.066525	 2
1462092171.212	 6	 1.921747	 -1.124498	 -0.276211	 -2.620581	 -1.096412	 0.597131	 -0.114279	 0.827666	 -0.545956	 -0.061974	 2
1462092171.222	 6	 2.720134	 -0.941151	 -0.190866	 -2.602052	 -1.116964	 0.629249	 -0.118657	 0.820967	 -0.555607	 -0.056871	 2
1462092171.232	 6	 3.553576	 -0.762419	 -0.141040	 -2.569259	 -1.144707	 0.674070	 -0.122400	 0.811629	 -0.568823	 -0.052118	 2
1462092171.242	 6	 3.904298	 -0.967729	 -0.002117	 -2.526279	 -1.183362	 0.730454	 -0.124763	 0.799184	 -0.586279	 -0.044913	 2
1462092171.252	 6	 3.731379	 -1.330968	 0.146276	 -2.476997	 -1.218525	 0.795829	 -0.128295	 0.786981	 -0.602356	 -0.037000	 2
1462092171.262	 6	 3.265848	 -1.648372	 0.190002	 -2.429940	 -1.248743	 0.861707	 -0.132585	 0.776059	 -0.615933	 -0.027951	 2
1462092171.272	 6	 2.665885	 -1.900983	 0.167295	 -2.391066	 -1.272140	 0.921688	 -0.137830	 0.767199	 -0.626158	 -0.018294	 2
1462092171.282	 6	 2.282104	 -1.717762	 0.050844	 -2.356038	 -1.289716	 0.977002	 -0.143339	 0.759942	 -0.633918	 -0.009505	 2
1462092171.292	 6	 2.011358	 -1.079825	 -0.090069	 -2.313872	 -1.303705	 1.033869	 -0.147625	 0.753318	 -0.640865	 -0.003410	 2
1462092171.302	 6	 1.732702	 -0.339496	 -0.194790	 -2.264256	 -1.314288	 1.090601	 -0.149950	 0.747395	 -0.647237	 -0.000671	 2
1462092171.312	 6	 1.518496	 0.245513	 -0.278071	 -2.209283	 -1.321941	 1.146212	 -0.150547	 0.742111	 -0.653151	 -0.000751	 2
1462092171.322	 6	 1.375012	 0.654910	 -0.348682	 -2.150227	 -1.327268	 1.201311	 -0.149942	 0.737246	 -0.658769	 -0.002859	 2
1462092171.332	 6	 1.325769	 0.899248	 -0.408859	 -2.087278	 -1.330842	 1.257381	 -0.148607	 0.732528	 -0.664289	 -0.006295	 2
1462092171.342	 6	 1.353458	 0.931753	 -0.462086	 -2.020449	 -1.333109	 1.316527	 -0.147180	 0.727673	 -0.669869	 -0.010216	 2
1462092171.352	 6	 1.380443	 0.803751	 -0.501879	 -1.951715	 -1.334146	 1.378550	 -0.146210	 0.722636	 -0.675445	 -0.013928	 2
1462092171.362	 6	 1.382455	 0.553780	 -0.504223	 -1.884419	 -1.334098	 1.441384	 -0.146032	 0.717528	 -0.680841	 -0.016869	 2
1462092171.372	 6	 1.351444	 0.296632	 -0.482899	 -1.821110	 -1.333190	 1.502847	 -0.146683	 0.712486	 -0.685925	 -0.018818	 2
1462092171.382	 6	 1.310072	 0.117056	 -0.475684	 -1.762283	 -1.331435	 1.561750	 -0.147953	 0.707581	 -0.690679	 -0.020049	 2
1462092171.392	 6	 1.317749	 -0.052193	 -0.491181	 -1.706451	 -1.328769	 1.619332	 -0.149833	 0.702678	 -0.695244	 -0.020727	 2
1462092171.402	 6	 1.386314	 -0.219405	 -0.494399	 -1.651420	 -1.325311	 1.677865	 -0.152330	 0.697554	 -0.699844	 -0.020803	 2
1462092171.412	 6	 1.496443	 -0.418473	 -0.473764	 -1.596139	 -1.321303	 1.738622	 -0.155417	 0.692079	 -0.704605	 -0.020098	 2
1462092171.422	 6	 1.637149	 -0.690009	 -0.460463	 -1.540148	 -1.316619	 1.802866	 -0.159371	 0.686111	 -0.709589	 -0.018332	 2
1462092171.432	 6	 1.710391	 -0.817476	 -0.407933	 -1.484514	 -1.311368	 1.868667	 -0.163824	 0.679786	 -0.714706	 -0.015742	 2
1462092171.442	 6	 1.670838	 -0.690060	 -0.307287	 -1.430820	 -1.306151	 1.931899	 -0.167720	 0.673516	 -0.719776	 -0.013042	 2
1462092171.452	 6	 1.594716	 -0.397672	 -0.205854	 -1.378864	 -1.301207	 1.990717	 -0.170315	 0.667525	 -0.724764	 -0.010912	 2
1462092171.462	 6	 1.581749	 -0.073485	 -0.094016	 -1.326058	 -1.296600	 2.047118	 -0.171354	 0.661690	 -0.729873	 -0.009499	 2
1462092171.472	 6	 1.656870	 0.185237	 -0.027251	 -1.269751	 -1.291820	 2.104337	 -0.171095	 0.655668	 -0.735358	 -0.008659	 2
1462092171.482	 6	 1.763160	 0.327390	 -0.035380	 -1.210334	 -1.285908	 2.163067	 -0.170152	 0.649218	 -0.741280	 -0.008262	 2
1462092171.492	 6	 1.820392	 0.325451	 -0.132881	 -1.151918	 -1.278077	 2.220491	 -0.169305	 0.642380	 -0.747406	 -0.008197	 2
1462092171.502	 6	 1.800753	 0.145635	 -0.296379	 -1.100185	 -1.268001	 2.272492	 -0.169430	 0.635365	 -0.753350	 -0.008258	 2
1462092171.512	 6	 1.698196	 -0.174485	 -0.480710	 -1.059648	 -1.256008	 2.315967	 -0.171208	 0.628458	 -0.758724	 -0.008148	 2
1462092171.522	 6	 1.523911	 -0.557024	 -0.647946	 -1.032596	 -1.242884	 2.349335	 -0.174924	 0.621978	 -0.763208	 -0.007662	 2
1462092171.532	 6	 1.345865	 -0.877471	 -0.761282	 -1.017489	 -1.229368	 2.373848	 -0.180334	 0.616037	 -0.766767	 -0.006756	 2
1462092171.542	 6	 1.132893	 -0.967579	 -0.806094	 -1.010945	 -1.216289	 2.391078	 -0.186533	 0.610764	 -0.769506	 -0.005778	 2
1462092171.552	 6	 0.886552	 -0.737887	 -0.765576	 -1.008782	 -1.204655	 2.402047	 -0.192052	 0.606403	 -0.771597	 -0.005419	 2
1462092171.562	 6	 0.756749	 -0.463853	 -0.723529	 -1.007115	 -1.194316	 2.409430	 -0.196299	 0.602701	 -0.773423	 -0.005914	 2
1462092171.572	 6	 0.832739	 -0.432039	 -0.705776	 -1.003978	 -1.184033	 2.417390	 -0.200101	 0.598909	 -0.775386	 -0.006590	 2
1462092171.592	 7	 1.213286	 -1.022002	 -0.651699	 -0.993150	 -1.161001	 2.445136	 -0.209920	 0.589198	 -0.780226	 -0.005268	 2
1462092171.602	 7	 1.218417	 -1.571438	 -0.587582	 -0.991599	 -1.149221	 2.462582	 -0.217335	 0.583762	 -0.782294	 -0.002072	 2
1462092171.612	 7	 0.988711	 -2.137167	 -0.518375	 -0.998449	 -1.138891	 2.476875	 -0.226689	 0.579011	 -0.783168	 0.002746	 2
1462092171.622	 7	 0.484648	 -2.600150	 -0.325391	 -1.016370	 -1.132352	 2.484739	 -0.237558	 0.576036	 -0.782089	 0.009240	 2
1462092171.632	 7	 -0.232002	 -2.865893	 -0.153234	 -1.047423	 -1.130922	 2.481426	 -0.249069	 0.575804	 -0.778552	 0.016500	 2
1462092171.652	 8	 -1.497697	 -2.711628	 -0.072569	 -1.145975	 -1.139271	 2.435794	 -0.271774	 0.583048	 -0.765052	 0.029812	 2
1462092171.662	 8	 -2.173696	 -2.278522	 -0.169229	 -1.211589	 -1.145549	 2.389992	 -0.281627	 0.590063	 -0.755902	 0.033513	 2
1462092171.672	 8	 -2.878272	 -1.850178	 -0.200674	 -1.289663	 -1.152183	 2.325813	 -0.290001	 0.599591	 -0.745107	 0.034713	 2
1462092171.682	 8	 -3.490501	 -1.572743	 -0.177841	 -1.380727	 -1.158174	 2.244125	 -0.297175	 0.611397	 -0.732613	 0.034050	 2
1462092171.692	 8	 -4.001846	 -1.195445	 -0.130445	 -1.482546	 -1.162118	 2.147456	 -0.303040	 0.625024	 -0.718681	 0.031781	 2
1462092171.702	 8	 -4.494382	 -0.040344	 -0.033344	 -1.587568	 -1.163038	 2.037262	 -0.305252	 0.640427	 -0.704267	 0.026125	 2
1462092171.712	 8	 -4.858800	 1.761433	 0.115552	 -1.684854	 -1.160614	 1.917165	 -0.301006	 0.657334	 -0.690713	 0.014933	 2
1462092171.722	 8	 -5.033079	 3.371239	 0.269533	 -1.768359	 -1.155131	 1.793153	 -0.290097	 0.674887	 -0.678505	 -0.001689	 2
1462092171.732	 8	 -5.075806	 4.138278	 0.423052	 -1.840788	 -1.147012	 1.669916	 -0.275028	 0.692242	 -0.666863	 -0.021310	 2
1462092171.752	 9	 -4.876914	 3.652469	 0.832447	 -1.974893	 -1.127100	 1.434295	 -0.241953	 0.725157	 -0.642068	 -0.057922	 2
1462092171.762	 9	 -4.466835	 2.748771	 0.902531	 -2.038969	 -1.115841	 1.329915	 -0.227671	 0.739805	 -0.629088	 -0.071429	 2
1462092171.772	 9	 -3.804586	 1.561599	 0.851613	 -2.099201	 -1.104446	 1.241808	 -0.217087	 0.752473	 -0.616635	 -0.080122	 2
1462092171.782	 9	 -2.958246	 0.324420	 0.726156	 -2.153760	 -1.094202	 1.173531	 -0.210970	 0.762735	 -0.605595	 -0.083555	 2
1462092171.792	 9	 -2.119617	 -0.652885	 0.499805	 -2.200829	 -1.085591	 1.125347	 -0.209153	 0.770485	 -0.596473	 -0.082635	 2
1462092171.802	 9	 -1.412279	 -1.160952	 0.245925	 -2.238643	 -1.078514	 1.094579	 -0.210476	 0.775920	 -0.589378	 -0.079258	 2
1462092171.812	 9	 -0.903898	 -1.208979	 0.135541	 -2.267188	 -1.073270	 1.076067	 -0.213107	 0.779521	 -0.584198	 -0.075134	 2
1462092171.822	 9	 -0.655747	 -0.943113	 0.230707	 -2.289514	 -1.070215	 1.062208	 -0.215030	 0.782152	 -0.580440	 -0.071341	 2
1462092171.832	 9	 -0.630529	 -0.704874	 0.386174	 -2.309754	 -1.068645	 1.047737	 -0.215643	 0.784592	 -0.577306	 -0.068053	 2
1462092171.842	 9	 -0.811149	 -0.670206	 0.546868	 -2.332708	 -1.067197	 1.029144	 -0.215324	 0.787528	 -0.573792	 -0.064793	 2
1462092171.852	 9	 -1.112853	 -0.765784	 0.738311	 -2.362189	 -1.064870	 1.003931	 -0.214399	 0.791451	 -0.569136	 -0.061009	 2
1462092171.862	 9	 -1.449662	 -0.770369	 0.849909	 -2.397709	 -1.060728	 0.972203	 -0.212904	 0.796433	 -0.563130	 -0.057019	 2
1462092171.872	 9	 -1.738194	 -0.583770	 0.797672	 -2.434665	 -1.053658	 0.937168	 -0.210970	 0.802154	 -0.555997	 -0.053925	 2
1462092171.882	 9	 -1.885366	 -0.311275	 0.767385	 -2.469289	 -1.044187	 0.901612	 -0.208446	 0.808187	 -0.548321	 -0.052232	 2
1462092171.892	 9	 -1.901847	 -0.035097	 0.857490	 -2.501255	 -1.034161	 0.865745	 -0.204877	 0.814253	 -0.540706	 -0.051518	 2
1462092171.902	 9	 -1.831732	 0.237947	 0.990509	 -2.530506	 -1.024749	 0.829608	 -0.200022	 0.820156	 -0.533554	 -0.051523	 2
1462092171.912	 9	 -1.719429	 0.454071	 1.065080	 -2.556654	 -1.016211	 0.794191	 -0.194177	 0.825722	 -0.527031	 -0.052125	 2
1462092171.922	 9	 -1.602263	 0.609219	 1.093214	 -2.579699	 -1.008403	 0.760248	 -0.187739	 0.830884	 -0.521108	 -0.053211	 2
1462092171.932	 9	 -1.479175	 0.689659	 1.088627	 -2.600048	 -1.001246	 0.728152	 -0.181041	 0.835626	 -0.515726	 -0.054587	 2
1462092171.942	 9	 -1.337119	 0.702122	 1.104559	 -2.618510	 -0.994985	 0.697837	 -0.174262	 0.839932	 -0.510901	 -0.055929	 2
1462092171.952	 9	 -1.179862	 0.698139	 1.205466	 -2.636384	 -0.990138	 0.668157	 -0.167200	 0.843840	 -0.506694	 -0.056922	 2
1462092171.962	 9	 -1.020269	 0.770440	 1.266563	 -2.653396	 -0.986820	 0.638851	 -0.159689	 0.847330	 -0.503184	 -0.057766	 2
1462092171.972	 9	 -0.845971	 0.858087	 1.249875	 -2.668039	 -0.984720	 0.611222	 -0.151995	 0.850301	 -0.500419	 -0.058872	 2
1462092171.982	 9	 -0.635687	 0.884982	 1.230176	 -2.680490	 -0.984110	 0.585686	 -0.144333	 0.852679	 -0.498497	 -0.060057	 2
1462092171.992	 9	 -0.392482	 0.848219	 1.245834	 -2.691668	 -0.985480	 0.561959	 -0.136771	 0.854421	 -0.497537	 -0.060958	 2
1462092172.002	 9	 -0.123529	 0.827444	 1.276338	 -2.701977	 -0.989202	 0.539670	 -0.129226	 0.855489	 -0.497655	 -0.061475	 2
1462092172.012	 9	 0.169040	 0.874369	 1.264628	 -2.710455	 -0.995431	 0.519308	 -0.121677	 0.855785	 -0.498992	 -0.061912	 2
1462092172.022	 9	 0.489719	 1.048382	 1.189918	 -2.714997	 -1.004158	 0.502063	 -0.114132	 0.855172	 -0.501694	 -0.062908	 2
1462092172.032	 9	 0.884568	 1.364451	 1.080713	 -2.713194	 -1.015847	 0.489159	 -0.106436	 0.853413	 -0.506080	 -0.065122	 2
1462092172.042	 9	 1.410694	 1.937291	 0.938651	 -2.701202	 -1.031463	 0.482394	 -0.098179	 0.850084	 -0.512719	 -0.069554	 2
1462092172.052	 9	 2.139902	 2.597638	 0.772187	 -2.674808	 -1.052549	 0.484668	 -0.089091	 0.844538	 -0.522407	 -0.076868	 2
1462092172.062	 9	 2.883822	 2.663307	 0.448724	 -2.633266	 -1.079007	 0.501076	 -0.080745	 0.836498	 -0.535166	 -0.085718	 2
1462092172.072	 9	 3.057846	 0.781323	 0.016181	 -2.591523	 -1.106102	 0.532391	 -0.077801	 0.827628	 -0.548530	 -0.089966	 2
1462092172.082	 9	 2.500707	 -1.446609	 -0.309837	 -2.567505	 -1.127482	 0.569794	 -0.082662	 0.820520	 -0.559091	 -0.085623	 2
1462092172.092	 9	 0.379410	 -2.295712	 -0.041354	 -2.575745	 -1.135241	 0.586160	 -0.090226	 0.818496	 -0.562243	 -0.076203	 2
1462092172.102	 9	 -1.259053	 -0.082351	 0.467772	 -2.599781	 -1.128943	 0.567174	 -0.090332	 0.821599	 -0.558130	 -0.072835	 2
1462092172.112	 9	 -1.549014	 1.752336	 0.784717	 -2.614953	 -1.119356	 0.534934	 -0.082969	 0.825645	 -0.552682	 -0.077253	 2
1462092172.122	 9	 -1.160575	 1.884929	 0.892342	 -2.624293	 -1.112636	 0.502824	 -0.073412	 0.828749	 -0.548483	 -0.083380	 2
1462092172.132	 9	 -0.540921	 0.940582	 0.575483	 -2.630953	 -1.109900	 0.481861	 -0.066996	 0.830373	 -0.546312	 -0.086807	 2
1462092172.142	 9	 -0.031477	 -0.303277	 0.272783	 -2.638114	 -1.110192	 0.473776	 -0.065545	 0.830885	 -0.545838	 -0.085993	 2
1462092172.152	 9	 0.376587	 -1.065450	 0.204586	 -2.648623	 -1.113638	 0.472460	 -0.067312	 0.830596	 -0.546760	 -0.081437	 2
1462092172.162	 9	 0.792624	 -0.818266	 0.138253	 -2.654085	 -1.120494	 0.476745	 -0.069487	 0.829119	 -0.549380	 -0.076905	 2
1462092172.172	 9	 1.062316	 -0.172657	 0.100347	 -2.649509	 -1.129834	 0.485548	 -0.070363	 0.826519	 -0.553452	 -0.074872	 2
1462092172.182	 9	 1.294937	 0.429278	 0.184921	 -2.636826	 -1.141452	 0.496415	 -0.069411	 0.823020	 -0.558720	 -0.075180	 2
1462092172.192	 9	 1.298470	 0.631108	 0.297608	 -2.621392	 -1.154365	 0.506354	 -0.066985	 0.819152	 -0.564484	 -0.076564	 2
1462092172.202	 9	 0.648314	 -0.159910	 0.370511	 -2.617593	 -1.163494	 0.509488	 -0.065630	 0.816813	 -0.568138	 -0.075679	 2
1462092172.212	 9	 -0.189384	 -0.972016	 0.539704	 -2.635928	 -1.165980	 0.498505	 -0.065930	 0.817272	 -0.568062	 -0.070889	 2
1462092172.222	 9	 -0.692942	 -0.697335	 0.520000	 -2.661803	 -1.163338	 0.479362	 -0.065862	 0.819408	 -0.565558	 -0.066158	 2
1462092172.232	 9	 -0.930313	 0.377254	 0.471318	 -2.679861	 -1.157691	 0.458939	 -0.063458	 0.821998	 -0.562153	 -0.065391	 2
1462092172.242	 9	 -1.088993	 1.494165	 0.570485	 -2.688895	 -1.150547	 0.435488	 -0.057417	 0.824712	 -0.558345	 -0.069318	 2
1462092172.252	 9	 -0.951057	 2.293931	 0.763235	 -2.691975	 -1.144528	 0.409084	 -0.048258	 0.826960	 -0.554970	 -0.076269	 2
1462092172.262	 9	 -0.349692	 2.970693	 0.901780	 -2.686003	 -1.143635	 0.384634	 -0.036618	 0.827451	 -0.553759	 -0.085642	 2
1462092172.272	 9	 0.477670	 3.037370	 0.897328	 -2.670983	 -1.150100	 0.367424	 -0.024409	 0.825472	 -0.555730	 -0.095732	 2
1462092172.282	 9	 1.222355	 2.124775	 0.316432	 -2.645439	 -1.161787	 0.368785	 -0.016122	 0.821348	 -0.560588	 -0.104249	 2
1462092172.292	 9	 1.406669	 0.491812	 -0.239643	 -2.617543	 -1.173286	 0.389304	 -0.014900	 0.816923	 -0.566303	 -0.108233	 2
1462092172.302	 9	 1.277714	 -0.658148	 -0.172486	 -2.601183	 -1.183483	 0.411548	 -0.017677	 0.813404	 -0.571494	 -0.107031	 2
1462092172.312	 9	 1.273985	 -1.112357	 -0.033868	 -2.594071	 -1.193980	 0.430386	 -0.021549	 0.810322	 -0.576483	 -0.102864	 2
1462092172.322	 9	 1.421100	 -1.163684	 -0.012180	 -2.586524	 -1.205616	 0.450877	 -0.025682	 0.806902	 -0.581915	 -0.098099	 2
1462092172.332	 9	 1.626130	 -1.196730	 0.060331	 -2.577364	 -1.219162	 0.473411	 -0.029725	 0.802894	 -0.588082	 -0.092931	 2
1462092172.342	 9	 1.974921	 -1.178029	 -0.006478	 -2.561264	 -1.235061	 0.503070	 -0.033990	 0.797877	 -0.595417	 -0.087839	 2
1462092172.352	 9	 2.382263	 -1.295620	 -0.216811	 -2.532120	 -1.253097	 0.547012	 -0.039331	 0.791531	 -0.604196	 -0.082935	 2
1462092172.362	 9	 2.628100	 -1.694773	 -0.451805	 -2.490125	 -1.271608	 0.607691	 -0.046748	 0.784222	 -0.613862	 -0.077354	 2
1462092172.372	 9	 2.661769	 -2.111926	 -0.614778	 -2.439344	 -1.288755	 0.681737	 -0.056236	 0.776576	 -0.623525	 -0.070595	 2
1462092172.382	 9	 2.571109	 -2.263246	 -0.691066	 -2.382380	 -1.303581	 0.764256	 -0.066778	 0.768965	 -0.632640	 -0.063243	 2
1462092172.392	 9	 2.489087	 -2.036189	 -0.654135	 -2.319055	 -1.316447	 0.851692	 -0.076833	 0.761375	 -0.641269	 -0.056386	 2
1462092172.402	 9	 2.441794	 -1.526803	 -0.538144	 -2.247953	 -1.328199	 0.942205	 -0.085007	 0.753680	 -0.649728	 -0.050922	 2
1462092172.412	 9	 2.423262	 -1.022868	 -0.428848	 -2.167442	 -1.338977	 1.036754	 -0.091034	 0.745827	 -0.658210	 -0.047072	 2
1462092172.422	 9	 2.404584	 -0.767888	 -0.329329	 -2.078622	 -1.348634	 1.136237	 -0.095581	 0.737860	 -0.666694	 -0.044105	 2
1462092172.432	 9	 2.350033	 -0.839661	 -0.275168	 -1.985298	 -1.356619	 1.240048	 -0.099825	 0.729955	 -0.674924	 -0.040959	 2
1462092172.442	 9	 2.225263	 -1.025609	 -0.300324	 -1.891944	 -1.362061	 1.345554	 -0.104643	 0.722326	 -0.682575	 -0.037223	 2
1462092172.452	 9	 2.041900	 -1.163749	 -0.356498	 -1.803356	 -1.364468	 1.447661	 -0.110132	 0.715177	 -0.689412	 -0.033208	 2
1462092172.462	 9	 1.788476	 -1.343189	 -0.269635	 -1.725913	 -1.364996	 1.539909	 -0.115981	 0.708755	 -0.695265	 -0.028658	 2
1462092172.472	 9	 1.426746	 -1.525539	 -0.041175	 -1.667752	 -1.365930	 1.614520	 -0.121715	 0.703585	 -0.699737	 -0.022843	 2
1462092172.482	 9	 1.063102	 -1.603089	 0.117937	 -1.628445	 -1.367656	 1.670864	 -0.127098	 0.699756	 -0.702797	 -0.016265	 2
1462092172.492	 9	 0.808929	 -1.446791	 0.154643	 -1.602063	 -1.369598	 1.713316	 -0.131960	 0.696929	 -0.704826	 -0.009849	 2
1462092172.502	 9	 0.812327	 -1.322014	 0.055593	 -1.576475	 -1.370642	 1.753097	 -0.136403	 0.694233	 -0.706694	 -0.004341	 2
1462092172.512	 9	 1.075002	 -1.299136	 -0.203330	 -1.540696	 -1.369205	 1.802900	 -0.141477	 0.690631	 -0.709234	 0.000394	 2
1462092172.522	 9	 1.447190	 -1.139349	 -0.458735	 -1.488452	 -1.364451	 1.868475	 -0.147095	 0.685520	 -0.713028	 0.004067	 2
1462092172.532	 9	 1.758735	 -0.822098	 -0.585321	 -1.421877	 -1.356904	 1.945810	 -0.152214	 0.679032	 -0.718127	 0.006408	 2
1462092172.542	 9	 1.935198	 -0.521566	 -0.578733	 -1.348572	 -1.347629	 2.026921	 -0.156247	 0.671712	 -0.724106	 0.007743	 2
1462092172.552	 9	 1.987111	 -0.440325	 -0.501694	 -1.276329	 -1.337502	 2.105646	 -0.159528	 0.664080	 -0.730390	 0.008886	 2
1462092172.562	 9	 1.965654	 -0.552245	 -0.397038	 -1.210268	 -1.327134	 2.178958	 -0.162731	 0.656479	 -0.736506	 0.010630	 2
1462092172.572	 9	 1.939256	 -0.776092	 -0.328551	 -1.151748	 -1.316575	 2.246691	 -0.166367	 0.648966	 -0.742286	 0.013291	 2
1462092172.582	 9	 1.930106	 -1.118663	 -0.344448	 -1.101816	 -1.305254	 2.308977	 -0.171122	 0.641413	 -0.747675	 0.016986	 2
1462092172.592	 9	 1.905622	 -1.470340	 -0.448755	 -1.062144	 -1.292558	 2.364562	 -0.177479	 0.633736	 -0.752607	 0.021503	 2
1462092172.602	 9	 1.790568	 -1.770882	 -0.578441	 -1.034377	 -1.278684	 2.411135	 -0.185374	 0.626139	 -0.756894	 0.026424	 2
1462092172.612	 9	 1.576965	 -1.985508	 -0.633998	 -1.019020	 -1.264859	 2.447510	 -0.194452	 0.619070	 -0.760224	 0.031632	 2
1462092172.622	 9	 1.289153	 -1.948226	 -0.595975	 -1.012792	 -1.252488	 2.474836	 -0.203625	 0.612929	 -0.762564	 0.036763	 2
1462092172.632	 9	 0.950683	 -1.638934	 -0.469719	 -1.011791	 -1.242658	 2.494109	 -0.211570	 0.608094	 -0.764045	 0.041172	 2
1462092172.642	 9	 0.600449	 -1.184304	 -0.253549	 -1.012753	 -1.236407	 2.506925	 -0.217360	 0.604864	 -0.764785	 0.044691	 2
1462092172.652	 9	 0.359176	 -0.697104	 -0.048683	 -1.012288	 -1.233437	 2.515892	 -0.220615	 0.603016	 -0.765163	 0.047189	 2
1462092172.662	 9	 0.253733	 -0.447732	 -0.024130	 -1.010812	 -1.231845	 2.522552	 -0.222442	 0.601841	 -0.765453	 0.048870	 2
1462092172.672	 9	 0.302260	 -0.646968	 -0.197994	 -1.012123	 -1.229107	 2.527324	 -0.225040	 0.600459	 -0.765683	 0.050365	 2
1462092172.682	 9	 0.467340	 -1.103252	 -0.277215	 -1.015888	 -1.224546	 2.533588	 -0.229457	 0.598287	 -0.765915	 0.052684	 2
1462092172.692	 9	 0.624445	 -1.910519	 -0.065482	 -1.020858	 -1.220371	 2.546410	 -0.236186	 0.595404	 -0.765734	 0.057970	 2
1462092172.702	 9	 0.600207	 -2.790935	 0.252660	 -1.029814	 -1.218500	 2.564165	 -0.245330	 0.592424	 -0.764440	 0.066927	 2
1462092172.712	 9	 0.297480	 -3.629506	 0.801689	 -1.045762	 -1.222117	 2.583700	 -0.256335	 0.590479	 -0.761064	 0.080051	 2
1462092172.722	 9	 -0.279367	 -4.220435	 1.361804	 -1.072817	 -1.233442	 2.598380	 -0.268252	 0.590755	 -0.754794	 0.096620	 2
1462092172.732	 9	 -0.979804	 -4.568102	 1.683330	 -1.117000	 -1.251488	 2.599269	 -0.280774	 0.593599	 -0.745386	 0.114918	 2
1462092172.742	 9	 -1.726439	 -4.378747	 1.825879	 -1.182788	 -1.274138	 2.577113	 -0.292894	 0.599093	 -0.733281	 0.132660	 2
1462092172.752	 9	 -2.588372	 -3.474702	 1.914268	 -1.274865	 -1.299875	 2.520222	 -0.302447	 0.607867	 -0.719252	 0.147306	 2
1462092172.762	 9	 -3.517087	 -2.222888	 1.971305	 -1.404931	 -1.326462	 2.411959	 -0.307973	 0.620630	 -0.703786	 0.157021	 2
1462092172.772	 9	 -4.153022	 -1.133467	 2.046662	 -1.581524	 -1.349795	 2.244774	 -0.309659	 0.636622	 -0.687397	 0.162203	 2
1462092172.782	 9	 -4.451565	 -0.113276	 2.245263	 -1.799950	 -1.366310	 2.025249	 -0.307488	 0.654610	 -0.670836	 0.164062	 2
1462092172.792	 9	 -4.461255	 1.210897	 2.531570	 -2.040013	 -1.374113	 1.771513	 -0.300131	 0.673873	 -0.655288	 0.162528	 2
1462092172.802	 9	 -4.404316	 2.655930	 2.790712	 -2.276937	 -1.372283	 1.506447	 -0.286870	 0.694040	 -0.641377	 0.157001	 2
1462092172.812	 9	 -4.318427	 3.522724	 2.965354	 -2.490584	 -1.360782	 1.253870	 -0.269165	 0.714470	 -0.628542	 0.148383	 2
1462092172.822	 9	 -4.226183	 3.230496	 2.892557	 -2.669165	 -1.340310	 1.036386	 -0.251137	 0.733924	 -0.615428	 0.139767	 2
1462092172.832	 9	 -4.037673	 2.261033	 2.604797	 -2.807825	 -1.313092	 0.867561	 -0.236299	 0.751373	 -0.601460	 0.133592	 2
1462092172.842	 9	 -3.714583	 1.166075	 2.226238	 -2.911178	 -1.283037	 0.745281	 -0.225692	 0.766300	 -0.587179	 0.130645	 2
1462092172.852	 9	 -3.405924	 0.008986	 1.781150	 -2.988902	 -1.252503	 0.660643	 -0.219744	 0.778695	 -0.572854	 0.131093	 2
1462092172.862	 9	 -3.210405	 -1.207913	 1.402567	 -3.051935	 -1.222016	 0.603570	 -0.218656	 0.788910	 -0.558126	 0.135298	 2
1462092172.872	 9	 -3.030639	 -2.378080	 1.301655	 -3.111988	 -1.192064	 0.561606	 -0.221333	 0.797372	 -0.542712	 0.143782	 2
1462092172.882	 9	 -2.747516	 -3.253921	 1.348591	 3.108347	 -1.163790	 0.526873	 -0.226334	 0.804111	 -0.526958	 0.156506	 2
1462092172.892	 9	 -2.408061	 -3.712049	 1.378674	 3.045246	 -1.138039	 0.497084	 -0.232139	 0.809214	 -0.511665	 0.171708	 2
1462092172.902	 9	 -1.934943	 -4.346895	 1.148035	 2.982840	 -1.115943	 0.474563	 -0.239588	 0.812096	 -0.497199	 0.189447	 2
1462092172.912	 9	 -1.163410	 -3.564835	 0.476098	 2.935882	 -1.101275	 0.465549	 -0.247816	 0.812433	 -0.486245	 0.205198	 2
1462092172.922	 9	 -0.642669	 -1.791686	 -0.030962	 2.915109	 -1.093883	 0.467776	 -0.253852	 0.811922	 -0.480308	 0.213649	 2
1462092172.932	 9	 -0.375620	 0.051992	 -0.008671	 2.913971	 -1.089641	 0.470604	 -0.255328	 0.812552	 -0.478080	 0.214492	 2
1462092172.942	 9	 0.061064	 0.960442	 0.038611	 2.921521	 -1.088965	 0.470277	 -0.253398	 0.813574	 -0.478791	 0.211296	 2
1462092172.952	 9	 0.597542	 1.267991	 0.131654	 2.930042	 -1.093273	 0.466033	 -0.249560	 0.813872	 -0.482115	 0.207117	 2
1462092172.962	 9	 1.056414	 0.850277	 0.356108	 2.930299	 -1.101996	 0.455239	 -0.244973	 0.812941	 -0.486916	 0.205009	 2
1462092172.972	 9	 1.245804	 0.325836	 0.568060	 2.919540	 -1.112752	 0.438153	 -0.240529	 0.811058	 -0.491868	 0.205906	 2
1462092172.982	 9	 1.315710	 -0.147568	 0.729306	 2.899042	 -1.123802	 0.415770	 -0.236443	 0.808639	 -0.496366	 0.209329	 2
1462092172.992	 9	 1.364009	 -0.442295	 0.880678	 2.870869	 -1.134779	 0.388835	 -0.232592	 0.805839	 -0.500498	 0.214539	 2
1462092173.002	 9	 1.405625	 -0.417286	 1.119279	 2.835807	 -1.145130	 0.355109	 -0.227939	 0.803076	 -0.504442	 0.220572	 2
1462092173.012	 9	 1.485829	 -0.145482	 1.377953	 2.795264	 -1.154794	 0.313154	 -0.221603	 0.800593	 -0.508592	 0.226447	 2
1462092173.022	 9	 1.573172	 0.249938	 1.672891	 2.749910	 -1.163514	 0.262058	 -0.213085	 0.798532	 -0.513127	 0.231609	 2
1462092173.032	 9	 1.604914	 0.785401	 2.043154	 2.699429	 -1.170233	 0.200148	 -0.201765	 0.797188	 -0.517894	 0.235727	 2
1462092173.042	 9	 1.556168	 1.401306	 2.473483	 2.645053	 -1.173571	 0.127536	 -0.187217	 0.796882	 -0.522580	 0.238409	 2
1462092173.052	 9	 1.400961	 1.974925	 2.749810	 2.590484	 -1.172610	 0.048677	 -0.170001	 0.797665	 -0.526741	 0.239530	 2
1462092173.062	 9	 1.293825	 2.620197	 2.952847	 2.540692	 -1.167819	 -0.032112	 -0.150338	 0.799456	 -0.530491	 0.238429	 2
1462092173.072	 9	 1.267448	 3.161264	 3.192580	 2.495006	 -1.159832	 -0.114953	 -0.128229	 0.801863	 -0.533974	 0.235466	 2
1462092173.082	 9	 1.302059	 3.422118	 3.536815	 2.449734	 -1.148650	 -0.201395	 -0.103874	 0.804341	 -0.537114	 0.231850	 2
1462092173.092	 9	 1.368052	 3.461343	 3.985292	 2.401237	 -1.133396	 -0.292811	 -0.077403	 0.806449	 -0.539658	 0.228949	 2
1462092173.102	 9	 1.462562	 3.283943	 4.347309	 2.349710	 -1.114180	 -0.386982	 -0.049524	 0.807725	 -0.541658	 0.227453	 2
1462092173.112	 9	 1.573994	 2.975633	 4.557688	 2.296868	 -1.091760	 -0.480469	 -0.021223	 0.807813	 -0.543305	 0.227611	 2
1462092173.122	 9	 1.711500	 2.498653	 4.546723	 2.244229	 -1.067659	 -0.569939	 0.006239	 0.806425	 -0.544960	 0.229476	 2
1462092173.132	 9	 1.948579	 2.004220	 4.369536	 2.191817	 -1.043718	 -0.654510	 0.031990	 0.803317	 -0.547217	 0.232834	 2
1462092173.142	 9	 2.286313	 1.587089	 4.185798	 2.138691	 -1.021101	 -0.736085	 0.056095	 0.798342	 -0.550697	 0.237143	 2
1462092173.152	 9	 1.959828	 2.312093	 4.148493	 2.094701	 -0.996682	 -0.811347	 0.080697	 0.793305	 -0.553645	 0.240068	 2
1462092173.162	 9	 0.600396	 3.761012	 4.077894	 2.086870	 -0.965692	 -0.862292	 0.107569	 0.792959	 -0.550776	 0.237257	 2
1462092173.172	 9	 -0.393411	 4.417750	 4.037238	 2.103573	 -0.929903	 -0.894517	 0.135146	 0.795980	 -0.542790	 0.231369	 2
1462092173.182	 9	 -1.232694	 4.370986	 3.703066	 2.133669	 -0.891848	 -0.912686	 0.161190	 0.800979	 -0.531014	 0.224666	 2
1462092173.192	 9	 -1.546987	 2.920419	 2.870602	 2.162322	 -0.857596	 -0.919269	 0.180805	 0.806055	 -0.518592	 0.220558	 2
1462092173.202	 9	 -1.387358	 0.522569	 1.844017	 2.173530	 -0.832196	 -0.919455	 0.190660	 0.809000	 -0.509478	 0.222710	 2
1462092173.212	 9	 -1.357797	 -2.036011	 1.040879	 2.164299	 -0.814386	 -0.912959	 0.190506	 0.809706	 -0.503883	 0.232776	 2
1462092173.222	 9	 -1.237517	 -4.186037	 0.291910	 2.135799	 -0.803586	 -0.901226	 0.181538	 0.808003	 -0.501636	 0.250074	 2
1462092173.232	 9	 -1.187431	 -5.286003	 -0.300668	 2.096574	 -0.798751	 -0.885090	 0.166536	 0.804564	 -0.501396	 0.271189	 2
1462092173.242	 9	 -0.850174	 -4.971982	 -0.129095	 2.054605	 -0.796141	 -0.871883	 0.151448	 0.799840	 -0.502045	 0.292011	 2
1462092173.252	 9	 -0.348856	 -3.943638	 0.196904	 2.016135	 -0.792846	 -0.866434	 0.140562	 0.794608	 -0.503002	 0.309563	 2
1462092173.262	 9	 0.128517	 -2.257701	 0.698686	 1.986546	 -0.787865	 -0.869985	 0.135984	 0.789903	 -0.504070	 0.321674	 2
1462092173.272	 9	 0.712774	 -1.072142	 1.030754	 1.964751	 -0.781078	 -0.882574	 0.137465	 0.785747	 -0.505540	 0.328839	 2
1462092173.282	 9	 1.214811	 -1.004220	 1.066448	 1.940874	 -0.775386	 -0.902731	 0.141019	 0.780553	 -0.508839	 0.334565	 2
1462092173.292	 9	 1.115000	 -1.420080	 0.881202	 1.913830	 -0.770557	 -0.922717	 0.143357	 0.774672	 -0.512718	 0.341251	 2
1462092173.302	 9	 0.704807	 -1.718740	 0.598502	 1.887887	 -0.766813	 -0.936298	 0.143087	 0.769282	 -0.515840	 0.348770	 2
1462092173.312	 9	 0.472123	 -1.792660	 0.138365	 1.864584	 -0.765843	 -0.944245	 0.140411	 0.764623	 -0.518617	 0.355911	 2
1462092173.322	 9	 0.393652	 -1.618414	 -0.212098	 1.844192	 -0.768397	 -0.949179	 0.136182	 0.760607	 -0.521624	 0.361717	 2
1462092173.332	 9	 0.381323	 -1.315042	 -0.183589	 1.827535	 -0.771403	 -0.953438	 0.132485	 0.757279	 -0.524345	 0.366112	 2
1462092173.342	 9	 0.504601	 -1.337598	 -0.017548	 1.809945	 -0.773194	 -0.959644	 0.129631	 0.753631	 -0.527126	 0.370640	 2
1462092173.352	 9	 0.511286	 -1.202302	 0.161635	 1.792224	 -0.773150	 -0.966994	 0.127726	 0.749853	 -0.529625	 0.375371	 2
1462092173.362	 9	 0.578996	 -1.157343	 0.228607	 1.775119	 -0.772193	 -0.975173	 0.126557	 0.746098	 -0.532005	 0.379858	 2
1462092173.372	 9	 0.801522	 -1.479319	 0.213016	 1.753845	 -0.771484	 -0.985913	 0.125107	 0.741346	 -0.535214	 0.385098	 2
1462092173.382	 9	 0.903287	 -2.228150	 0.393802	 1.724528	 -0.769673	 -0.999013	 0.122668	 0.734803	 -0.539118	 0.392897	 2
1462092173.392	 9	 0.774961	 -3.065011	 0.516089	 1.687606	 -0.765908	 -1.011154	 0.118378	 0.726627	 -0.542834	 0.404143	 2
1462092173.402	 9	 0.616676	 -3.911417	 0.630022	 1.643745	 -0.760546	 -1.020880	 0.111770	 0.716874	 -0.546077	 0.418807	 2
1462092173.412	 9	 0.606636	 -4.496025	 0.677958	 1.594142	 -0.754117	 -1.029577	 0.103499	 0.705546	 -0.549123	 0.435840	 2
1462092173.422	 9	 0.651684	 -4.878185	 0.651629	 1.540211	 -0.747491	 -1.038332	 0.094032	 0.692780	 -0.552269	 0.454107	 2
1462092173.432	 9	 0.632497	 -5.023438	 0.560920	 1.484632	 -0.741215	 -1.046592	 0.083708	 0.679156	 -0.555326	 0.472602	 2
1462092173.442	 9	 0.502280	 -5.130484	 0.413982	 1.429199	 -0.736148	 -1.053206	 0.072332	 0.665190	 -0.558063	 0.490771	 2
1462092173.452	 9	 0.252438	 -5.321724	 0.341906	 1.374211	 -0.732135	 -1.056657	 0.059568	 0.651012	 -0.559972	 0.508986	 2
1462092173.462	 9	 -0.062878	 -5.796063	 0.511826	 1.318325	 -0.727785	 -1.055590	 0.045187	 0.636162	 -0.560371	 0.528432	 2
1462092173.472	 9	 -0.507617	 -6.340327	 0.960385	 1.261584	 -0.720790	 -1.047493	 0.029411	 0.620342	 -0.558041	 0.550365	 2
1462092173.482	 9	 -1.104617	 -6.591599	 1.416194	 1.207533	 -0.711592	 -1.029989	 0.012560	 0.604395	 -0.552174	 0.574153	 2
1462092173.492	 9	 -1.935724	 -6.333927	 1.705058	 1.162034	 -0.702847	 -1.000973	 -0.005173	 0.590200	 -0.542364	 0.597895	 2
1462092173.502	 9	 -2.613794	 -5.309644	 1.727953	 1.130946	 -0.697256	 -0.961943	 -0.022731	 0.579889	 -0.529397	 0.618830	 2
1462092173.512	 9	 -2.960712	 -4.350940	 1.641845	 1.113351	 -0.694876	 -0.918562	 -0.038893	 0.573465	 -0.515144	 0.635809	 2
1462092173.522	 9	 -2.758337	 -4.095280	 1.777813	 1.099601	 -0.692195	 -0.875506	 -0.053600	 0.567794	 -0.500541	 0.651303	 2
1462092173.532	 9	 -2.211478	 -3.919047	 1.953740	 1.084423	 -0.686033	 -0.836900	 -0.065762	 0.561104	 -0.486368	 0.666546	 2
1462092173.542	 9	 -1.688311	 -3.544005	 2.108276	 1.068720	 -0.676410	 -0.803842	 -0.074845	 0.553854	 -0.473096	 0.681046	 2
1462092173.552	 9	 -1.384448	 -2.885973	 2.330235	 1.056881	 -0.663637	 -0.773563	 -0.080735	 0.547590	 -0.460099	 0.694216	 2
1462092173.562	 9	 -1.144288	 -2.182876	 2.580877	 1.051018	 -0.647691	 -0.744656	 -0.083408	 0.543134	 -0.447036	 0.705838	 2
1462092173.572	 9	 -0.884127	 -1.727970	 2.788537	 1.049063	 -0.628645	 -0.717383	 -0.083381	 0.539903	 -0.433948	 0.716409	 2
1462092173.582	 9	 -0.549256	 -1.683122	 2.948035	 1.046776	 -0.606726	 -0.692767	 -0.081434	 0.536506	 -0.421066	 0.726797	 2
1462092173.592	 9	 -0.094374	 -2.048651	 3.180469	 1.039029	 -0.580690	 -0.671632	 -0.077874	 0.531003	 -0.408276	 0.738432	 2
1462092173.602	 9	 0.220198	 -2.375679	 3.238633	 1.025793	 -0.552145	 -0.653533	 -0.073395	 0.523375	 -0.395768	 0.751039	 2
1462092173.612	 9	 0.339413	 -2.578878	 3.133391	 1.008684	 -0.523496	 -0.637333	 -0.068905	 0.514250	 -0.383700	 0.763920	 2
1462092173.622	 9	 0.302515	 -2.554578	 2.949562	 0.990507	 -0.496562	 -0.621849	 -0.064905	 0.504740	 -0.372114	 0.776245	 2
1462092173.632	 9	 0.228424	 -2.508792	 2.780111	 0.972563	 -0.471791	 -0.606444	 -0.061513	 0.495365	 -0.360913	 0.787764	 2
1462092173.642	 9	 0.253130	 -2.635993	 2.703043	 0.953343	 -0.448120	 -0.591334	 -0.058506	 0.485468	 -0.349948	 0.799021	 2
1462092173.652	 9	 0.379107	 -2.854379	 2.706308	 0.931430	 -0.424268	 -0.576878	 -0.055477	 0.474373	 -0.339107	 0.810493	 2
1462092173.662	 9	 0.705874	 -3.006795	 2.940776	 0.907422	 -0.397783	 -0.563141	 -0.051211	 0.462090	 -0.328020	 0.822346	 2
1462092173.672	 9	 1.155162	 -3.174701	 3.142059	 0.880577	 -0.367070	 -0.550965	 -0.044891	 0.448151	 -0.316788	 0.834740	 2
1462092173.682	 9	 1.542869	 -3.126740	 3.165774	 0.852473	 -0.333520	 -0.540888	 -0.036720	 0.433270	 -0.306015	 0.846926	 2
1462092173.692	 9	 1.792298	 -2.465231	 3.112207	 0.828430	 -0.298662	 -0.532529	 -0.026672	 0.419804	 -0.295965	 0.857588	 2
1462092173.702	 9	 2.143513	 -1.970777	 3.090303	 0.809694	 -0.262159	 -0.526049	 -0.014476	 0.408306	 -0.286645	 0.866551	 2
1462092173.712	 9	 2.696546	 -1.949818	 3.124050	 0.791196	 -0.222026	 -0.522565	 0.000174	 0.396397	 -0.278145	 0.874931	 2
1462092173.722	 9	 3.205578	 -2.147284	 3.086874	 0.770274	 -0.178264	 -0.522252	 0.016908	 0.382807	 -0.270615	 0.883142	 2
1462092173.732	 9	 3.600389	 -2.116881	 3.038957	 0.748560	 -0.131832	 -0.524313	 0.035332	 0.368233	 -0.263957	 0.890776	 2
1462092173.742	 9	 3.851528	 -2.002032	 2.990945	 0.727868	 -0.083488	 -0.527707	 0.055104	 0.353506	 -0.257849	 0.897502	 2
1462092173.752	 9	 3.851281	 -1.789643	 2.944965	 0.709228	 -0.034966	 -0.530920	 0.075262	 0.339316	 -0.251850	 0.903201	 2
1462092173.762	 9	 3.522747	 -1.484879	 2.890978	 0.693368	 0.011649	 -0.532162	 0.094630	 0.326377	 -0.245394	 0.907912	 2
1462092173.772	 9	 2.709455	 -1.066343	 2.636579	 0.681938	 0.051374	 -0.529717	 0.110869	 0.316297	 -0.238332	 0.911516	 2
1462092173.782	 9	 2.203982	 -1.637160	 2.332992	 0.667281	 0.084399	 -0.525325	 0.123450	 0.305621	 -0.231774	 0.915225	 2
1462092173.792	 9	 1.856727	 -2.613574	 2.043437	 0.643068	 0.112729	 -0.520388	 0.132822	 0.291150	 -0.226492	 0.919941	 2
1462092173.802	 9	 1.448625	 -3.327448	 1.705698	 0.610652	 0.135807	 -0.514951	 0.138950	 0.273547	 -0.222579	 0.925378	 2
1462092173.812	 9	 1.107826	 -3.600950	 1.400247	 0.574242	 0.153852	 -0.509316	 0.142457	 0.254682	 -0.219826	 0.930871	 2
1462092173.822	 9	 0.890472	 -3.393001	 1.241013	 0.538490	 0.168517	 -0.503389	 0.144583	 0.236504	 -0.217540	 0.935862	 2
1462092173.832	 9	 0.955100	 -3.011604	 1.206697	 0.506601	 0.182470	 -0.497423	 0.146917	 0.220168	 -0.215180	 0.940021	 2
1462092173.842	 9	 1.234316	 -2.696054	 1.272214	 0.477633	 0.198612	 -0.491728	 0.150724	 0.204863	 -0.212574	 0.943465	 2
1462092173.852	 9	 1.568783	 -2.243139	 1.382224	 0.452967	 0.217925	 -0.486193	 0.156585	 0.191150	 -0.209469	 0.946079	 2
1462092173.862	 9	 1.897423	 -1.945055	 1.552658	 0.431523	 0.240803	 -0.480167	 0.164500	 0.178547	 -0.205612	 0.948043	 2
1462092173.872	 9	 2.137748	 -1.801079	 1.703244	 0.411487	 0.266656	 -0.473261	 0.173971	 0.166334	 -0.201047	 0.949551	 2
1462092173.882	 9	 2.211271	 -1.676183	 1.795421	 0.392170	 0.293873	 -0.465212	 0.184162	 0.154438	 -0.195904	 0.950713	 2
1462092173.892	 9	 2.205179	 -1.653456	 1.846843	 0.372869	 0.321198	 -0.455985	 0.194428	 0.142719	 -0.190375	 0.951623	 2
1462092173.902	 9	 2.184815	 -1.686246	 1.863767	 0.352748	 0.348283	 -0.445788	 0.204554	 0.130826	 -0.184683	 0.952331	 2
1462092173.912	 9	 2.079805	 -1.510795	 1.811877	 0.338388	 0.362307	 -0.436841	 0.209263	 0.123215	 -0.180482	 0.953128	 2
1462092173.922	 9	 1.883516	 -1.169663	 1.693132	 0.321884	 0.386210	 -0.426028	 0.218393	 0.113669	 -0.174739	 0.953336	 2
1462092173.932	 9	 1.664467	 -0.858625	 1.522083	 0.308509	 0.407430	 -0.415653	 0.226651	 0.105981	 -0.169253	 0.953284	 2
1462092173.942	 9	 1.418735	 -0.538027	 1.338566	 0.298441	 0.425695	 -0.406047	 0.233905	 0.100208	 -0.164131	 0.953052	 2
1462092173.952	 9	 1.168716	 -0.223774	 1.158224	 0.291761	 0.440959	 -0.397315	 0.240113	 0.096353	 -0.159365	 0.952714	 2
1462092173.962	 9	 0.953817	 0.032203	 1.022862	 0.288060	 0.453592	 -0.389304	 0.245378	 0.094173	 -0.154856	 0.952334	 2
1462092173.972	 9	 0.794045	 0.173471	 0.931781	 0.286154	 0.464256	 -0.381734	 0.249888	 0.093048	 -0.150528	 0.951966	 2
1462092173.982	 9	 0.681766	 0.183933	 0.862515	 0.284812	 0.473509	 -0.374506	 0.253800	 0.092333	 -0.146429	 0.951640	 2
1462092173.992	 9	 0.628519	 0.037888	 0.795543	 0.282514	 0.481914	 -0.367745	 0.257270	 0.091219	 -0.142757	 0.951373	 2
1462092174.002	 9	 0.606159	 -0.132596	 0.744067	 0.278651	 0.489877	 -0.361457	 0.260453	 0.089370	 -0.139563	 0.951157	 2
1462092174.012	 9	 0.609692	 -0.255208	 0.704527	 0.273569	 0.497665	 -0.355533	 0.263498	 0.086934	 -0.136732	 0.950955	 2
1462092174.022	 9	 0.654046	 -0.313128	 0.655643	 0.267921	 0.505624	 -0.350127	 0.266621	 0.084164	 -0.134227	 0.950691	 2
1462092174.032	 9	 0.720243	 -0.251049	 0.589567	 0.262934	 0.513990	 -0.345525	 0.270026	 0.081579	 -0.132001	 0.950267	 2
1462092174.042	 9	 0.800710	 -0.100765	 0.518859	 0.259732	 0.522905	 -0.341886	 0.273853	 0.079676	 -0.129961	 0.949614	 2
1462092174.052	 9	 0.866282	 0.034880	 0.476920	 0.258318	 0.532368	 -0.338984	 0.278084	 0.078481	 -0.127990	 0.948751	 2
1462092174.062	 9	 0.926115	 0.064360	 0.459621	 0.257684	 0.542356	 -0.336487	 0.282624	 0.077560	 -0.126063	 0.947743	 2
1462092174.072	 9	 0.968552	 0.017385	 0.452420	 0.256825	 0.552792	 -0.334216	 0.287365	 0.076467	 -0.124241	 0.946646	 2
1462092174.082	 9	 0.982139	 -0.050662	 0.461260	 0.255267	 0.563442	 -0.331920	 0.292158	 0.075036	 -0.122495	 0.945520	 2
1462092174.102	 10	 0.935272	 -0.092543	 0.533750	 0.250318	 0.584478	 -0.326036	 0.301455	 0.071564	 -0.118713	 0.943351	 2
1462092174.112	 10	 0.919678	 -0.052730	 0.590742	 0.247433	 0.594832	 -0.322056	 0.305965	 0.069831	 -0.116427	 0.942313	 2
1462092174.122	 10	 0.939973	 0.101029	 0.681520	 0.245155	 0.605475	 -0.317074	 0.310612	 0.068532	 -0.113568	 0.941236	 2
1462092174.132	 10	 1.019528	 0.369527	 0.778178	 0.244684	 0.616965	 -0.311088	 0.315719	 0.068189	 -0.109897	 0.939997	 2
1462092174.142	 10	 1.133353	 0.676106	 0.859972	 0.246775	 0.629721	 -0.304357	 0.321517	 0.069083	 -0.105370	 0.938483	 2
1462092174.152	 10	 1.195443	 0.900713	 0.910547	 0.251003	 0.643431	 -0.297136	 0.327830	 0.071007	 -0.100180	 0.936723	 2
1462092174.162	 10	 1.135940	 0.941427	 0.927430	 0.255848	 0.656952	 -0.289531	 0.334038	 0.073333	 -0.094706	 0.934918	 2
1462092174.172	 10	 0.977999	 0.726943	 0.914020	 0.258912	 0.669177	 -0.281572	 0.339521	 0.075036	 -0.089458	 0.933323	 2
1462092174.182	 10	 0.760296	 0.296634	 0.888465	 0.257811	 0.679369	 -0.273190	 0.343852	 0.075081	 -0.084892	 0.932160	 2
1462092174.192	 10	 0.521991	 -0.215401	 0.878315	 0.251215	 0.687203	 -0.264111	 0.346848	 0.072919	 -0.081163	 0.931554	 2
1462092174.202	 10	 0.336150	 -0.695644	 0.873333	 0.239153	 0.692989	 -0.254288	 0.348684	 0.068542	 -0.078229	 0.931452	 2
1462092174.212	 10	 0.246936	 -1.025374	 0.835871	 0.223225	 0.697489	 -0.244339	 0.349817	 0.062511	 -0.076040	 0.931632	 2
1462092174.222	 10	 0.253647	 -1.139602	 0.780396	 0.205888	 0.701597	 -0.234884	 0.350781	 0.055786	 -0.074383	 0.931830	 2
1462092174.232	 10	 0.344564	 -1.051968	 0.728197	 0.189409	 0.706156	 -0.226171	 0.352052	 0.049318	 -0.072919	 0.931831	 2
1462092174.242	 10	 0.494903	 -0.820830	 0.688540	 0.175369	 0.711893	 -0.218236	 0.354013	 0.043791	 -0.071348	 0.931486	 2
1462092174.252	 10	 0.646835	 -0.490673	 0.663645	 0.164745	 0.719033	 -0.210852	 0.356787	 0.039694	 -0.069382	 0.930760	 2
1462092174.262	 10	 0.748868	 -0.097687	 0.629112	 0.158246	 0.727248	 -0.204015	 0.360230	 0.037384	 -0.066909	 0.929709	 2
1462092174.272	 10	 0.736521	 0.225686	 0.629032	 0.155245	 0.735596	 -0.197219	 0.363861	 0.036715	 -0.063843	 0.928537	 2
1462092174.282	 10	 0.678379	 0.418777	 0.538613	 0.154942	 0.743347	 -0.191123	 0.367314	 0.037231	 -0.060655	 0.927370	 2
1462092174.292	 10	 0.568574	 0.512098	 0.456242	 0.156392	 0.749993	 -0.186001	 0.370322	 0.038464	 -0.057661	 0.926314	 2
1462092174.302	 10	 0.446542	 0.495959	 0.381486	 0.158462	 0.755315	 -0.181603	 0.372744	 0.039936	 -0.054957	 0.925444	 2
1462092174.312	 10	 0.340013	 0.352318	 0.330986	 0.159788	 0.759463	 -0.177763	 0.374610	 0.041033	 -0.052712	 0.924773	 2
1462092174.322	 10	 0.265159	 0.098299	 0.326076	 0.158815	 0.762754	 -0.173934	 0.376019	 0.041120	 -0.050950	 0.924296	 2
1462092174.332	 10	 0.244767	 -0.167414	 0.344031	 0.154941	 0.765714	 -0.169834	 0.377198	 0.039942	 -0.049631	 0.923939	 2
1462092174.342	 10	 0.294045	 -0.375834	 0.370438	 0.148586	 0.769009	 -0.165418	 0.378471	 0.037666	 -0.048625	 0.923567	 2
1462092174.352	 10	 0.372765	 -0.450334	 0.395703	 0.140909	 0.773070	 -0.160748	 0.380067	 0.034800	 -0.047727	 0.923071	 2
1462092174.362	 10	 0.398773	 -0.369549	 0.399426	 0.133575	 0.777555	 -0.155958	 0.381874	 0.032107	 -0.046706	 0.922475	 2
1462092174.372	 10	 0.305547	 -0.217241	 0.390997	 0.127613	 0.781409	 -0.151113	 0.383431	 0.030101	 -0.045440	 0.921960	 2
1462092174.382	 10	 0.114115	 -0.046765	 0.354817	 0.123153	 0.783500	 -0.146160	 0.384218	 0.028899	 -0.043923	 0.921744	 2
1462092174.392	 10	 -0.126664	 0.111787	 0.267799	 0.120981	 0.783209	 -0.142050	 0.383978	 0.028701	 -0.042458	 0.921919	 2
1462092174.402	 10	 -0.335430	 0.252315	 0.201650	 0.120689	 0.780598	 -0.138494	 0.382721	 0.029362	 -0.040982	 0.922487	 2
1462092174.412	 10	 -0.408812	 0.359263	 0.113845	 0.089190	 0.764555	 -0.112913	 0.374404	 0.020268	 -0.035698	 0.926357	 2
1462092174.422	 10	 -0.330794	 0.441493	 0.044656	 0.092540	 0.761023	 -0.111632	 0.372816	 0.022181	 -0.034590	 0.926995	 2
1462092174.432	 10	 -0.110927	 0.480976	 0.004741	 0.097012	 0.759310	 -0.111232	 0.372095	 0.024388	 -0.033627	 0.927265	 2
1462092174.442	 10	 0.182423	 0.463025	 -0.005440	 0.101864	 0.760367	 -0.111444	 0.372667	 0.026561	 -0.032787	 0.927005	 2
1462092174.452	 10	 0.453137	 0.400443	 -0.019037	 0.106572	 0.764227	 -0.112207	 0.374538	 0.028462	 -0.032127	 0.926217	 2
1462092174.462	 10	 0.608330	 0.299752	 -0.054364	 0.110856	 0.769935	 -0.113684	 0.377264	 0.029961	 -0.031802	 0.925075	 2
1462092174.472	 10	 0.616989	 0.152490	 -0.117624	 0.114443	 0.776029	 -0.116057	 0.380166	 0.030943	 -0.031995	 0.923847	 2
1462092174.482	 10	 0.453731	 -0.003948	 -0.195459	 0.117080	 0.780842	 -0.119337	 0.382476	 0.031351	 -0.032825	 0.922850	 2
1462092174.492	 10	 0.140080	 -0.141875	 -0.275009	 0.118774	 0.782772	 -0.123273	 0.383454	 0.031304	 -0.034241	 0.922394	 2
1462092174.502	 10	 -0.243927	 -0.261532	 -0.356974	 0.119578	 0.780927	 -0.127741	 0.382689	 0.030893	 -0.036221	 0.922650	 2
1462092174.512	 10	 -0.651044	 -0.316127	 -0.423212	 0.119861	 0.774979	 -0.132506	 0.380031	 0.030361	 -0.038603	 0.923669	 2
1462092174.522	 10	 -0.978837	 -0.329190	 -0.450321	 0.119831	 0.765451	 -0.137160	 0.375710	 0.029872	 -0.041145	 0.925341	 2
1462092174.532	 10	 -1.110148	 -0.332057	 -0.458797	 0.119693	 0.753991	 -0.141711	 0.370484	 0.029455	 -0.043744	 0.927340	 2
1462092174.542	 10	 -1.050118	 -0.284294	 -0.448218	 0.119679	 0.742771	 -0.146094	 0.365358	 0.029140	 -0.046239	 0.929261	 2
1462092174.552	 10	 -0.830773	 -0.194260	 -0.410922	 0.120332	 0.733392	 -0.150322	 0.361089	 0.029100	 -0.048473	 0.930816	 2
1462092174.562	 10	 -0.523676	 -0.074512	 -0.347470	 0.121867	 0.726963	 -0.154201	 0.358201	 0.029414	 -0.050272	 0.931826	 2
1462092174.572	 10	 -0.214319	 0.062337	 -0.272163	 0.126129	 0.723501	 -0.158733	 0.356770	 0.030755	 -0.051770	 0.932250	 2
1462092174.582	 10	 0.015897	 0.174846	 -0.211306	 0.129563	 0.722862	 -0.161649	 0.356609	 0.031866	 -0.052545	 0.932231	 2
1462092174.592	 10	 0.135803	 0.225807	 -0.175640	 0.133467	 0.723741	 -0.164265	 0.357162	 0.033175	 -0.053028	 0.931946	 2
1462092174.602	 10	 0.146455	 0.210976	 -0.163082	 0.137272	 0.725001	 -0.166713	 0.357889	 0.034447	 -0.053430	 0.931598	 2
1462092174.612	 10	 0.063900	 0.139872	 -0.174748	 0.140499	 0.725650	 -0.169156	 0.358319	 0.035479	 -0.053960	 0.931363	 2
1462092174.622	 10	 -0.083940	 0.020111	 -0.175641	 0.142518	 0.724962	 -0.171411	 0.358096	 0.036052	 -0.054681	 0.931385	 2
1462092174.632	 10	 -0.230781	 -0.117705	 -0.172448	 0.142950	 0.722756	 -0.173319	 0.357119	 0.036028	 -0.055599	 0.931706	 2
1462092174.642	 10	 -0.310995	 -0.168406	 -0.156234	 0.142429	 0.719564	 -0.174895	 0.355652	 0.035673	 -0.056582	 0.932222	 2
1462092174.652	 10	 -0.267163	 -0.181046	 -0.121564	 0.141364	 0.716561	 -0.176068	 0.354249	 0.035129	 -0.057463	 0.932723	 2
1462092174.662	 10	 -0.116263	 -0.123765	 -0.081845	 0.140570	 0.714849	 -0.177002	 0.353448	 0.034685	 -0.058122	 0.933002	 2
1462092174.672	 10	 0.100992	 -0.036807	 -0.029640	 0.140394	 0.715222	 -0.177643	 0.353627	 0.034469	 -0.058434	 0.932923	 2
1462092174.682	 10	 0.319449	 0.059883	 0.045027	 0.140860	 0.717879	 -0.177806	 0.354877	 0.034515	 -0.058299	 0.932455	 2
1462092174.692	 10	 0.488299	 0.255783	 0.140233	 0.142228	 0.722605	 -0.177117	 0.357096	 0.035021	 -0.057505	 0.931638	 2
1462092174.702	 10	 0.517699	 0.576103	 0.175996	 0.146406	 0.727926	 -0.175846	 0.359657	 0.036908	 -0.055903	 0.930677	 2
1462092174.712	 10	 0.519416	 0.720689	 0.167735	 0.152501	 0.733349	 -0.174596	 0.362310	 0.039675	 -0.053949	 0.929649	 2
1462092174.722	 10	 0.456399	 0.753465	 0.115300	 0.159550	 0.738243	 -0.173866	 0.364744	 0.042816	 -0.052075	 0.928664	 2
1462092174.732	 10	 0.351065	 0.643796	 0.056580	 0.166274	 0.742096	 -0.173756	 0.366692	 0.045745	 -0.050588	 0.927839	 2
1462092174.742	 10	 0.231181	 0.387421	 0.001950	 0.171158	 0.744699	 -0.174149	 0.368024	 0.047794	 -0.049731	 0.927255	 2
1462092174.752	 10	 0.158683	 -0.038968	 -0.010979	 0.172294	 0.746372	 -0.174713	 0.368837	 0.048122	 -0.049690	 0.926917	 2
