% Gyrometer data recorded with 'snsrlog'
% 
% 
% Label description:
% 	 0: Default Label
% 	 1: still_drop
% 	 2: walk_drop
% 	 3: other
% 	 4: dtw_same
% 	 5: dtw_diff
% 	 6: delete
% 	 7: steal
% 
% Column description:
% 	 1: Seconds.milliseconds since 1970
% 	 2: Number of skipped measurements
% 	 3: Gyro X
% 	 4: Gyro Y
% 	 5: Gyro Z
% 	 6: Roll of the device
% 	 7: Pitch of the device
% 	 8: Yaw of the device
% 	 9: Quaternion X
% 	 10: Quaternion Y
% 	 11: Quaternion Z
% 	 12: Quaternion W
% 	 13: Label used for the current sample
% 
% 
1463571693.034	 1	 -0.506061	 0.542080	 -0.890792	 0.268366	 0.997674	 -0.212131	 0.483877	 0.066626	 -0.028489	 0.872131	 2
1463571693.044	 1	 -0.833906	 0.567941	 -0.977221	 0.284935	 0.987810	 -0.225107	 0.480337	 0.071520	 -0.031006	 0.873613	 2
1463571693.054	 1	 -1.102501	 0.522047	 -1.107464	 0.301137	 0.974775	 -0.238172	 0.475487	 0.076587	 -0.034033	 0.875722	 2
1463571693.064	 1	 -1.339663	 0.579229	 -1.238087	 0.317685	 0.958882	 -0.251561	 0.469483	 0.082094	 -0.037517	 0.878316	 2
1463571693.074	 1	 -1.466201	 0.735436	 -1.309069	 0.335342	 0.941040	 -0.264679	 0.462712	 0.088469	 -0.040969	 0.881131	 2
1463571693.084	 1	 -1.436991	 0.845739	 -1.340270	 0.353828	 0.922870	 -0.277510	 0.455868	 0.095453	 -0.044307	 0.883805	 2
1463571693.094	 1	 -1.305200	 0.971799	 -1.357297	 0.373421	 0.905496	 -0.290402	 0.449465	 0.102975	 -0.047506	 0.886070	 2
1463571693.104	 1	 -1.112509	 1.105191	 -1.365193	 0.394539	 0.889617	 -0.303687	 0.443846	 0.111063	 -0.050531	 0.887757	 2
1463571693.124	 2	 -0.889624	 1.082117	 -1.376941	 0.438056	 0.861257	 -0.330934	 0.434425	 0.127632	 -0.056636	 0.889819	 2
1463571693.134	 2	 -0.914110	 0.889493	 -1.401967	 0.457433	 0.847068	 -0.344096	 0.429758	 0.135114	 -0.060204	 0.890745	 2
1463571693.144	 2	 -0.957138	 0.624495	 -1.441360	 0.473860	 0.832175	 -0.356869	 0.424761	 0.141550	 -0.064446	 0.891846	 2
1463571693.154	 2	 -0.956588	 0.335848	 -1.497338	 0.487356	 0.816792	 -0.369669	 0.419536	 0.146828	 -0.069500	 0.893085	 2
1463571693.164	 2	 -0.877157	 0.051027	 -1.580613	 0.498448	 0.801484	 -0.383364	 0.414392	 0.150929	 -0.075540	 0.894312	 2
1463571693.174	 2	 -0.763073	 -0.101170	 -1.694927	 0.508641	 0.786521	 -0.398691	 0.409550	 0.154337	 -0.082528	 0.895343	 2
1463571693.184	 3	 -0.641740	 -0.046225	 -1.842547	 0.520149	 0.771805	 -0.416125	 0.405105	 0.157968	 -0.090234	 0.895988	 2
1463571693.204	 3	 -0.472673	 0.487507	 -2.094836	 0.553115	 0.742216	 -0.456278	 0.397378	 0.168963	 -0.106306	 0.895679	 2
1463571693.214	 3	 -0.463132	 0.746599	 -2.150059	 0.574084	 0.726884	 -0.477344	 0.393844	 0.176517	 -0.114136	 0.894819	 2
1463571693.224	 3	 -0.509152	 0.935078	 -2.138313	 0.596263	 0.710901	 -0.497471	 0.390214	 0.185004	 -0.121532	 0.893721	 2
1463571693.244	 4	 -0.641870	 1.120007	 -1.918021	 0.639481	 0.677898	 -0.531376	 0.382405	 0.203156	 -0.134240	 0.891332	 2
1463571693.254	 4	 -0.698459	 1.213799	 -1.767449	 0.659387	 0.661527	 -0.544417	 0.378285	 0.212316	 -0.139318	 0.890176	 2
1463571693.264	 4	 -0.674772	 1.388985	 -1.654120	 0.679655	 0.645724	 -0.555613	 0.374358	 0.221945	 -0.143500	 0.888822	 2
1463571693.274	 4	 -0.574564	 1.561264	 -1.617153	 0.701257	 0.630756	 -0.566420	 0.370949	 0.232137	 -0.147196	 0.887041	 2
1463571693.284	 4	 -0.462820	 1.747905	 -1.648362	 0.724835	 0.616347	 -0.577707	 0.368099	 0.243048	 -0.150720	 0.884711	 2
1463571693.294	 4	 -0.419813	 2.099336	 -1.716873	 0.751685	 0.601784	 -0.589528	 0.365639	 0.255355	 -0.154001	 0.881695	 2
1463571693.304	 4	 -0.332872	 2.158159	 -1.930235	 0.780702	 0.586222	 -0.602775	 0.363290	 0.268548	 -0.157820	 0.878064	 2
1463571693.314	 4	 -0.275825	 2.199120	 -2.125385	 0.810662	 0.569371	 -0.617756	 0.360930	 0.282082	 -0.162607	 0.873910	 2
1463571693.324	 4	 -0.383718	 2.486942	 -2.226212	 0.842432	 0.550806	 -0.632379	 0.358210	 0.296791	 -0.167400	 0.869240	 2
1463571693.334	 4	 -0.569995	 2.872019	 -2.294544	 0.876720	 0.530136	 -0.645093	 0.354818	 0.313317	 -0.171526	 0.864011	 2
1463571693.344	 4	 -0.766858	 3.463791	 -2.318231	 0.914788	 0.507595	 -0.655320	 0.350857	 0.332224	 -0.174515	 0.857946	 2
1463571693.354	 4	 -0.950521	 3.770817	 -2.441666	 0.955904	 0.482901	 -0.663198	 0.346149	 0.353168	 -0.176697	 0.851018	 2
1463571693.364	 4	 -1.077358	 3.925428	 -2.587264	 0.997570	 0.455850	 -0.669478	 0.340501	 0.374935	 -0.178946	 0.843481	 2
1463571693.374	 4	 -1.155743	 3.892093	 -2.668955	 1.038959	 0.427373	 -0.674153	 0.334178	 0.396953	 -0.181219	 0.835412	 2
1463571693.384	 4	 -1.301093	 3.553979	 -2.858410	 1.076464	 0.396700	 -0.677175	 0.326517	 0.417836	 -0.184324	 0.827541	 2
1463571693.394	 4	 -1.487056	 3.418164	 -3.034971	 1.111189	 0.363512	 -0.678195	 0.317382	 0.438137	 -0.188037	 0.819723	 2
1463571693.404	 4	 -1.632630	 3.506371	 -3.250299	 1.145660	 0.327849	 -0.677341	 0.307012	 0.458809	 -0.192029	 0.811396	 2
1463571693.414	 4	 -1.806818	 3.699419	 -3.540070	 1.181317	 0.289064	 -0.674802	 0.295317	 0.480428	 -0.196394	 0.802126	 2
1463571693.424	 4	 -2.010462	 3.973465	 -3.819240	 1.219085	 0.247002	 -0.669958	 0.282162	 0.503349	 -0.200888	 0.791624	 2
1463571693.434	 4	 -2.214983	 4.235205	 -4.035636	 1.259017	 0.202291	 -0.662324	 0.267632	 0.527375	 -0.205257	 0.779820	 2
1463571693.444	 4	 -2.463656	 4.597412	 -4.202754	 1.302261	 0.155568	 -0.650970	 0.251783	 0.552764	 -0.208951	 0.766418	 2
1463571693.454	 4	 -2.564701	 4.565801	 -4.349244	 1.346275	 0.107473	 -0.636679	 0.234734	 0.578120	 -0.212561	 0.751994	 2
1463571693.464	 4	 -2.557011	 4.401846	 -4.367888	 1.389394	 0.059502	 -0.620285	 0.217047	 0.602367	 -0.216227	 0.737083	 2
1463571693.474	 4	 -2.415717	 4.245263	 -4.342866	 1.431510	 0.012627	 -0.602932	 0.199381	 0.625168	 -0.220095	 0.721783	 2
1463571693.484	 4	 -2.118704	 4.458901	 -4.243282	 1.475386	 -0.032408	 -0.586072	 0.182777	 0.647290	 -0.224168	 0.705235	 2
1463571693.494	 4	 -1.640701	 4.939785	 -4.031949	 1.524416	 -0.074478	 -0.571308	 0.168605	 0.669668	 -0.228344	 0.686277	 2
1463571693.504	 4	 -1.010625	 5.247376	 -3.748948	 1.577222	 -0.112949	 -0.560296	 0.157595	 0.691633	 -0.233053	 0.665202	 2
1463571693.514	 4	 -0.306517	 5.376378	 -3.422426	 1.631611	 -0.147816	 -0.554232	 0.150029	 0.712424	 -0.238694	 0.642626	 2
1463571693.524	 4	 0.361310	 5.105127	 -3.156864	 1.683751	 -0.180039	 -0.553441	 0.145355	 0.730971	 -0.245737	 0.619812	 2
1463571693.534	 4	 0.801571	 4.421053	 -3.002935	 1.729282	 -0.211077	 -0.556434	 0.142072	 0.746308	 -0.254296	 0.598476	 2
1463571693.544	 4	 0.830130	 3.421532	 -2.953868	 1.765442	 -0.241698	 -0.559666	 0.138216	 0.758152	 -0.263622	 0.580177	 2
1463571693.554	 4	 0.589370	 2.380963	 -2.953994	 1.791659	 -0.271938	 -0.559988	 0.132359	 0.766806	 -0.272796	 0.565749	 2
1463571693.564	 4	 0.312054	 1.589749	 -3.050598	 1.810318	 -0.302205	 -0.556670	 0.124256	 0.773178	 -0.281582	 0.554498	 2
1463571693.574	 4	 0.059606	 1.084645	 -3.137295	 1.824394	 -0.332745	 -0.549860	 0.114189	 0.778154	 -0.289905	 0.545336	 2
1463571693.584	 4	 -0.105229	 0.755405	 -3.137858	 1.835869	 -0.362943	 -0.540577	 0.102963	 0.782212	 -0.297692	 0.537516	 2
1463571693.594	 4	 -0.219576	 0.606766	 -3.000762	 1.846078	 -0.391775	 -0.529822	 0.091448	 0.785652	 -0.304759	 0.530575	 2
1463571693.604	 4	 -0.229421	 0.769461	 -2.716735	 1.857507	 -0.417963	 -0.518922	 0.080924	 0.789100	 -0.310885	 0.523568	 2
1463571693.614	 4	 -0.072865	 1.084260	 -2.364533	 1.871300	 -0.441112	 -0.509848	 0.072475	 0.792831	 -0.316405	 0.515804	 2
1463571693.624	 4	 0.182992	 1.402029	 -2.002511	 1.887083	 -0.461401	 -0.504015	 0.066568	 0.796759	 -0.321756	 0.507165	 2
1463571693.634	 4	 0.441607	 1.669426	 -1.692137	 1.904183	 -0.479328	 -0.501749	 0.063089	 0.800751	 -0.327186	 0.497761	 2
1463571693.644	 4	 0.647895	 1.785233	 -1.479703	 1.921582	 -0.495738	 -0.502360	 0.061357	 0.804593	 -0.332814	 0.487956	 2
1463571693.654	 4	 0.790019	 1.700804	 -1.331454	 1.937653	 -0.511165	 -0.504983	 0.060598	 0.807927	 -0.338632	 0.478447	 2
1463571693.664	 4	 0.878583	 1.433910	 -1.285684	 1.950859	 -0.526308	 -0.508797	 0.060002	 0.810423	 -0.344716	 0.469877	 2
1463571693.674	 4	 0.903504	 1.000411	 -1.213199	 1.959945	 -0.541185	 -0.513111	 0.059041	 0.811854	 -0.350931	 0.462877	 2
1463571693.684	 4	 0.858181	 0.583277	 -1.112242	 1.964403	 -0.554998	 -0.517437	 0.057615	 0.812194	 -0.356876	 0.457889	 2
1463571693.694	 4	 0.843218	 0.250231	 -0.990516	 1.965386	 -0.567706	 -0.522022	 0.056002	 0.811743	 -0.362551	 0.454416	 2
1463571693.704	 4	 0.724345	 -0.226638	 -0.796753	 1.961708	 -0.578452	 -0.526480	 0.054046	 0.810308	 -0.367584	 0.453168	 2
1463571693.714	 4	 0.642173	 -0.398280	 -0.591942	 1.955543	 -0.586830	 -0.530816	 0.052241	 0.808417	 -0.371770	 0.453344	 2
1463571693.724	 4	 0.727037	 -0.416496	 -0.429789	 1.948318	 -0.593814	 -0.536539	 0.051173	 0.806312	 -0.375774	 0.453912	 2
1463571693.734	 4	 0.800077	 -0.486504	 -0.227516	 1.939315	 -0.599291	 -0.544134	 0.050930	 0.803825	 -0.379693	 0.455088	 2
1463571693.744	 4	 0.809522	 -0.472229	 -0.015379	 1.929493	 -0.602814	 -0.553088	 0.051614	 0.801202	 -0.383238	 0.456661	 2
1463571693.754	 4	 0.491440	 -0.635919	 0.163850	 1.919531	 -0.603744	 -0.560393	 0.052346	 0.798693	 -0.385498	 0.459065	 2
1463571693.764	 4	 0.059006	 -0.780592	 0.279240	 1.910469	 -0.601878	 -0.563343	 0.052331	 0.796603	 -0.385759	 0.462466	 2
1463571693.774	 4	 -0.318788	 -1.032424	 0.306830	 1.901669	 -0.598252	 -0.561884	 0.051141	 0.794737	 -0.384378	 0.466938	 2
1463571693.784	 4	 -0.478726	 -1.267742	 0.352926	 1.891672	 -0.593592	 -0.557943	 0.049063	 0.792663	 -0.382073	 0.472544	 2
1463571693.804	 5	 0.338306	 -0.966660	 0.693921	 1.867965	 -0.583168	 -0.562292	 0.049429	 0.787252	 -0.380072	 0.483049	 2
1463571693.814	 5	 0.523025	 -0.773337	 1.026629	 1.854875	 -0.575572	 -0.571146	 0.052751	 0.784076	 -0.379934	 0.487947	 2
1463571693.824	 5	 0.416313	 -0.571951	 1.326780	 1.843639	 -0.564767	 -0.580456	 0.057601	 0.781341	 -0.378817	 0.492631	 2
1463571693.844	 6	 -0.048554	 -0.201272	 1.800015	 1.829990	 -0.533850	 -0.593233	 0.069631	 0.778120	 -0.371844	 0.501411	 2
1463571693.854	 6	 -0.204844	 0.044717	 1.924096	 1.827949	 -0.515063	 -0.596865	 0.076525	 0.777695	 -0.366397	 0.505062	 2
1463571693.864	 6	 -0.356338	 0.212734	 2.004779	 1.828633	 -0.495040	 -0.599289	 0.083831	 0.777921	 -0.360096	 0.508077	 2
1463571693.874	 6	 -0.728774	 0.208561	 2.012246	 1.831270	 -0.473987	 -0.598258	 0.090444	 0.778712	 -0.352433	 0.511095	 2
1463571693.884	 6	 -1.011044	 0.143033	 1.955477	 1.834933	 -0.452450	 -0.593623	 0.095949	 0.779870	 -0.343566	 0.514353	 2
1463571693.894	 6	 -0.917256	 0.108791	 1.964999	 1.838054	 -0.431082	 -0.588986	 0.101266	 0.780839	 -0.334707	 0.517695	 2
1463571693.904	 6	 -0.555830	 0.148063	 2.099701	 1.839761	 -0.409480	 -0.588055	 0.107833	 0.781188	 -0.326732	 0.520926	 2
1463571693.914	 6	 -0.149718	 0.374486	 2.246413	 1.841305	 -0.387486	 -0.591823	 0.116304	 0.781139	 -0.319805	 0.523469	 2
1463571693.924	 6	 0.202455	 0.808632	 2.268702	 1.845375	 -0.365910	 -0.599620	 0.126591	 0.781390	 -0.313888	 0.524288	 2
1463571693.934	 6	 0.512683	 1.305580	 2.134208	 1.853401	 -0.346205	 -0.610472	 0.138071	 0.782363	 -0.309121	 0.522770	 2
1463571693.944	 6	 0.807399	 1.934230	 1.968035	 1.866537	 -0.329055	 -0.623979	 0.150546	 0.784373	 -0.305494	 0.518428	 2
1463571693.964	 7	 1.523120	 2.677399	 2.069966	 1.904980	 -0.298372	 -0.661860	 0.180344	 0.790081	 -0.300795	 0.502762	 2
1463571693.974	 7	 1.810529	 2.792116	 2.018441	 1.925611	 -0.285133	 -0.686232	 0.196904	 0.792416	 -0.300046	 0.493232	 2
1463571693.984	 7	 1.883824	 2.801829	 1.920908	 1.946609	 -0.273665	 -0.711761	 0.213430	 0.794439	 -0.299883	 0.483099	 2
1463571693.994	 7	 1.764528	 2.721567	 1.805032	 1.967641	 -0.263397	 -0.736182	 0.229153	 0.796291	 -0.299581	 0.472928	 2
1463571694.004	 7	 1.582727	 2.445299	 1.768874	 1.987070	 -0.253605	 -0.758965	 0.243817	 0.797662	 -0.298969	 0.463580	 2
1463571694.014	 7	 1.246827	 1.968352	 1.864345	 2.003113	 -0.242390	 -0.779312	 0.257343	 0.798209	 -0.297446	 0.456248	 2
1463571694.024	 7	 0.992233	 1.183792	 2.107584	 2.012715	 -0.228295	 -0.797968	 0.269944	 0.797132	 -0.295137	 0.452333	 2
1463571694.034	 7	 0.798484	 0.368675	 2.121935	 2.014536	 -0.212611	 -0.815284	 0.281219	 0.794193	 -0.292924	 0.452072	 2
1463571694.044	 7	 0.475850	 -0.400108	 1.873531	 2.009723	 -0.197434	 -0.828910	 0.289880	 0.790143	 -0.291021	 0.454918	 2
1463571694.054	 7	 0.308297	 -1.239377	 1.794708	 1.997308	 -0.182447	 -0.839624	 0.296212	 0.784649	 -0.289704	 0.461147	 2
1463571694.064	 7	 0.521347	 -1.559867	 1.540483	 1.980176	 -0.169472	 -0.850467	 0.301374	 0.778038	 -0.289970	 0.468774	 2
1463571694.074	 7	 1.061673	 -1.317074	 1.065905	 1.963988	 -0.162152	 -0.863794	 0.306115	 0.771589	 -0.292874	 0.474519	 2
1463571694.084	 7	 1.606678	 -0.712029	 0.532843	 1.952399	 -0.161327	 -0.880105	 0.310893	 0.766245	 -0.298239	 0.476725	 2
1463571694.094	 7	 2.155423	 0.153217	 0.094891	 1.948661	 -0.167178	 -0.899870	 0.316322	 0.762782	 -0.305644	 0.474010	 2
1463571694.104	 7	 2.517939	 0.889205	 -0.055953	 1.951846	 -0.176489	 -0.922790	 0.323063	 0.760716	 -0.313878	 0.467356	 2
1463571694.114	 7	 2.417439	 1.339087	 -0.099916	 1.960203	 -0.186618	 -0.945770	 0.330438	 0.759825	 -0.321451	 0.458416	 2
1463571694.124	 7	 1.994038	 1.175422	 -0.106279	 1.969206	 -0.195691	 -0.965178	 0.336879	 0.759465	 -0.327582	 0.449907	 2
1463571694.144	 8	 0.922930	 -0.643577	 -0.276941	 1.965220	 -0.209325	 -0.989002	 0.341654	 0.755789	 -0.338391	 0.444463	 2
1463571694.154	 8	 0.577048	 -1.297107	 -0.335430	 1.952880	 -0.214804	 -0.993842	 0.339925	 0.752724	 -0.343485	 0.447074	 2
1463571694.164	 8	 0.378223	 -1.426486	 -0.802773	 1.938055	 -0.222571	 -0.995362	 0.335852	 0.749869	 -0.349021	 0.450648	 2
1463571694.174	 8	 0.328054	 -1.242880	 -1.024438	 1.925346	 -0.233041	 -0.994952	 0.330630	 0.748048	 -0.354644	 0.453140	 2
1463571694.184	 8	 0.276345	 -1.233063	 -1.158182	 1.913341	 -0.244606	 -0.993913	 0.324931	 0.746567	 -0.360319	 0.455222	 2
1463571694.194	 8	 0.056730	 -1.359440	 -1.220326	 1.900911	 -0.256491	 -0.990898	 0.318262	 0.745307	 -0.365654	 0.457738	 2
1463571694.204	 8	 -0.098021	 -1.740564	 -1.038148	 1.885739	 -0.266679	 -0.986598	 0.311015	 0.743422	 -0.370475	 0.461890	 2
1463571694.214	 8	 -0.104134	 -2.211207	 -0.673720	 1.865691	 -0.273723	 -0.983118	 0.303988	 0.739933	 -0.375095	 0.468395	 2
1463571694.224	 8	 -0.076120	 -2.531370	 -0.225060	 1.841649	 -0.276776	 -0.981282	 0.297897	 0.734808	 -0.379286	 0.476924	 2
1463571694.234	 8	 -0.082776	 -2.995789	 0.264124	 1.812892	 -0.275098	 -0.980888	 0.292764	 0.727771	 -0.382891	 0.487887	 2
1463571694.244	 8	 0.104289	 -3.660821	 0.596286	 1.777045	 -0.270058	 -0.982589	 0.287980	 0.718158	 -0.386895	 0.501626	 2
1463571694.254	 8	 -0.149356	 -3.503395	 0.495514	 1.740510	 -0.264631	 -0.983487	 0.282842	 0.708174	 -0.390620	 0.515661	 2
1463571694.264	 8	 -0.859717	 -2.872264	 0.105747	 1.718516	 -0.263230	 -0.975020	 0.275986	 0.703483	 -0.391051	 0.525379	 2
1463571694.274	 8	 -0.919678	 -2.493004	 -0.126801	 1.695091	 -0.262794	 -0.965230	 0.268107	 0.698554	 -0.391505	 0.535597	 2
1463571694.284	 8	 -0.518365	 -2.057857	 -0.093208	 1.675238	 -0.263322	 -0.958450	 0.261689	 0.694153	 -0.392467	 0.543728	 2
1463571694.294	 8	 0.008110	 -1.469794	 0.103781	 1.659187	 -0.262558	 -0.957351	 0.258396	 0.689824	 -0.394020	 0.549657	 2
1463571694.304	 8	 0.296629	 -0.934601	 0.100920	 1.648078	 -0.261611	 -0.959926	 0.257391	 0.686323	 -0.395876	 0.553167	 2
1463571694.314	 8	 0.281009	 -0.705027	 -0.074790	 1.639802	 -0.262075	 -0.963058	 0.256672	 0.683680	 -0.397947	 0.555283	 2
1463571694.324	 8	 0.043104	 -0.718789	 -0.308380	 1.632545	 -0.264645	 -0.964033	 0.254729	 0.681831	 -0.399917	 0.557033	 2
1463571694.334	 8	 -0.260353	 -0.847069	 -0.520084	 1.624974	 -0.269220	 -0.961868	 0.250993	 0.680517	 -0.401634	 0.559097	 2
1463571694.344	 8	 -0.542103	 -0.949445	 -0.670988	 1.617137	 -0.275366	 -0.956603	 0.245625	 0.679675	 -0.402957	 0.561548	 2
1463571694.354	 8	 -0.729307	 -1.030943	 -0.686088	 1.609082	 -0.281974	 -0.949149	 0.239305	 0.679055	 -0.403789	 0.564422	 2
1463571694.364	 8	 -0.869309	 -1.114206	 -0.637684	 1.600649	 -0.288174	 -0.940217	 0.232527	 0.678410	 -0.404081	 0.567811	 2
1463571694.374	 8	 -0.991960	 -1.123203	 -0.607924	 1.592296	 -0.294077	 -0.930008	 0.225421	 0.677844	 -0.403861	 0.571497	 2
1463571694.384	 8	 -1.103546	 -1.046106	 -0.581723	 1.584925	 -0.299738	 -0.918668	 0.218202	 0.677597	 -0.403085	 0.575129	 2
1463571694.394	 8	 -1.240027	 -0.798916	 -0.577169	 1.579921	 -0.305514	 -0.905924	 0.210937	 0.678127	 -0.401636	 0.578220	 2
1463571694.404	 8	 -1.285948	 -0.334151	 -0.600154	 1.579503	 -0.311176	 -0.892458	 0.204374	 0.679982	 -0.399436	 0.579919	 2
1463571694.414	 8	 -1.348938	 -0.008348	 -0.725531	 1.583022	 -0.318041	 -0.878451	 0.197983	 0.683088	 -0.397036	 0.580135	 2
1463571694.434	 9	 -1.867321	 0.493645	 -1.525260	 1.602261	 -0.341255	 -0.842367	 0.181506	 0.694175	 -0.391663	 0.576001	 2
1463571694.444	 9	 -1.944739	 0.452916	 -1.892653	 1.614206	 -0.358643	 -0.821100	 0.170548	 0.700878	 -0.389721	 0.572538	 2
1463571694.454	 9	 -1.993820	 0.262555	 -2.202002	 1.625421	 -0.378800	 -0.798795	 0.158071	 0.707373	 -0.388528	 0.568931	 2
1463571694.464	 9	 -2.152961	 0.200909	 -2.699967	 1.636762	 -0.403151	 -0.774389	 0.143379	 0.713974	 -0.388167	 0.564810	 2
1463571694.474	 9	 -2.309493	 0.287745	 -3.255190	 1.650313	 -0.432569	 -0.747065	 0.126279	 0.721188	 -0.388587	 0.559412	 2
1463571694.484	 9	 -2.268431	 0.409106	 -3.809680	 1.666879	 -0.467117	 -0.718127	 0.107377	 0.728902	 -0.390240	 0.552163	 2
1463571694.494	 9	 -2.025323	 0.374618	 -4.359919	 1.684138	 -0.506976	 -0.689539	 0.086910	 0.736127	 -0.393955	 0.543473	 2
1463571694.504	 9	 -1.634112	 -0.021191	 -4.808234	 1.698626	 -0.551432	 -0.662966	 0.065102	 0.741657	 -0.400112	 0.534432	 2
1463571694.514	 9	 -1.152018	 -0.491479	 -5.663023	 1.707529	 -0.603466	 -0.639442	 0.040813	 0.744614	 -0.409859	 0.525261	 2
1463571694.524	 9	 -0.802870	 -0.699215	 -6.447068	 1.713706	 -0.664364	 -0.617771	 0.013762	 0.745571	 -0.422983	 0.514801	 2
1463571694.534	 9	 -0.602574	 -0.498996	 -6.769875	 1.721434	 -0.729865	 -0.596650	 -0.014171	 0.745466	 -0.437664	 0.502524	 2
1463571694.544	 9	 -0.513491	 0.033843	 -6.737983	 1.735453	 -0.795817	 -0.574810	 -0.040911	 0.745434	 -0.452436	 0.487808	 2
1463571694.554	 9	 -0.584043	 0.706970	 -6.492374	 1.759266	 -0.859468	 -0.549717	 -0.065496	 0.746235	 -0.466241	 0.470598	 2
1463571694.564	 9	 -0.728511	 1.335343	 -5.995018	 1.794919	 -0.918093	 -0.519092	 -0.087199	 0.748256	 -0.478258	 0.451419	 2
1463571694.574	 9	 -1.471407	 1.819179	 -4.990757	 1.845603	 -0.966613	 -0.477688	 -0.105511	 0.752294	 -0.486434	 0.431628	 2
1463571694.584	 9	 -3.578267	 1.297806	 -3.085537	 1.921469	 -0.991156	 -0.404889	 -0.121913	 0.761063	 -0.483134	 0.415333	 2
1463571694.594	 9	 -3.398296	 0.220488	 -1.091364	 1.985290	 -0.992382	 -0.333449	 -0.134338	 0.769440	 -0.472928	 0.407742	 2
1463571694.604	 9	 -2.361777	 1.251794	 0.444971	 2.029333	 -0.980490	 -0.291249	 -0.137201	 0.777409	 -0.463237	 0.402768	 2
1463571694.614	 9	 -1.692874	 3.052688	 1.475840	 2.070782	 -0.961018	 -0.272639	 -0.129993	 0.787641	 -0.455341	 0.394193	 2
1463571694.624	 9	 -1.319551	 4.361678	 2.022979	 2.115235	 -0.937409	 -0.268113	 -0.115905	 0.799903	 -0.448553	 0.381473	 2
1463571694.634	 9	 -0.964728	 5.031733	 2.163609	 2.160763	 -0.913641	 -0.272463	 -0.098310	 0.812563	 -0.442910	 0.365935	 2
1463571694.654	 10	 -0.314021	 5.485771	 1.823256	 2.250122	 -0.875243	 -0.295886	 -0.060240	 0.835267	 -0.435763	 0.329864	 2
1463571694.664	 10	 -0.187123	 5.058498	 1.769150	 2.290357	 -0.860256	 -0.311187	 -0.041803	 0.844503	 -0.433352	 0.311888	 2
1463571694.674	 10	 -0.162271	 4.346832	 1.617367	 2.324265	 -0.846818	 -0.326364	 -0.025188	 0.852029	 -0.430885	 0.296226	 2
1463571694.684	 10	 -0.206108	 3.481927	 1.280380	 2.352162	 -0.835624	 -0.338608	 -0.011642	 0.857928	 -0.428426	 0.283329	 2
1463571694.694	 10	 -0.576477	 2.394635	 0.945233	 2.374572	 -0.825419	 -0.344870	 -0.002097	 0.862647	 -0.425251	 0.273857	 2
1463571694.704	 10	 -1.598171	 0.859568	 0.787440	 2.390418	 -0.809966	 -0.340133	 0.002271	 0.867166	 -0.418312	 0.270247	 2
1463571694.714	 10	 -2.151439	 -0.131097	 0.502743	 2.401034	 -0.790901	 -0.326290	 0.002176	 0.871499	 -0.408588	 0.271185	 2
1463571694.724	 10	 -2.204065	 -0.571815	 0.135676	 2.409270	 -0.772987	 -0.307752	 -0.000811	 0.875302	 -0.398624	 0.273762	 2
1463571694.734	 10	 -2.069831	 -0.810597	 -0.176786	 2.415934	 -0.757970	 -0.287186	 -0.005671	 0.878409	 -0.389516	 0.276845	 2
1463571694.744	 10	 -1.950905	 -0.861589	 -0.266754	 2.421455	 -0.744928	 -0.266560	 -0.011246	 0.881011	 -0.381165	 0.280012	 2
1463571694.754	 10	 -1.828227	 -0.958163	 0.105361	 2.423526	 -0.731042	 -0.249778	 -0.015696	 0.883221	 -0.372915	 0.283916	 2
1463571694.764	 10	 -1.779456	 -1.024606	 0.642528	 2.420187	 -0.714184	 -0.239388	 -0.017808	 0.885085	 -0.364202	 0.289249	 2
1463571694.774	 10	 -1.797724	 -0.963794	 0.807381	 2.415450	 -0.695558	 -0.231514	 -0.018722	 0.886943	 -0.355024	 0.294853	 2
1463571694.784	 10	 -1.705960	 -0.969356	 0.810793	 2.410406	 -0.677117	 -0.224367	 -0.019375	 0.888653	 -0.345978	 0.300366	 2
1463571694.794	 10	 -1.264413	 -1.045991	 0.835011	 2.402776	 -0.661187	 -0.220205	 -0.019574	 0.889581	 -0.338400	 0.306183	 2
1463571694.804	 10	 -0.550399	 -0.983616	 0.778218	 2.391796	 -0.650349	 -0.221404	 -0.018853	 0.889306	 -0.333799	 0.312022	 2
1463571694.814	 10	 0.014867	 -0.358793	 0.487092	 2.383667	 -0.645619	 -0.225724	 -0.017388	 0.888674	 -0.332363	 0.315423	 2
1463571694.824	 10	 0.352655	 0.527728	 0.110857	 2.384288	 -0.646249	 -0.229949	 -0.015528	 0.888727	 -0.333305	 0.314376	 2
1463571694.834	 10	 0.578508	 1.137628	 -0.175321	 2.392214	 -0.650847	 -0.233468	 -0.013513	 0.889405	 -0.335893	 0.309762	 2
1463571694.844	 10	 0.760072	 1.349314	 -0.391282	 2.403636	 -0.658401	 -0.236430	 -0.011689	 0.890203	 -0.339676	 0.303351	 2
1463571694.854	 10	 0.987905	 1.191771	 -0.610016	 2.414464	 -0.669002	 -0.239016	 -0.010658	 0.890454	 -0.344697	 0.296920	 2
1463571694.864	 10	 1.280851	 1.180470	 -0.729906	 2.423991	 -0.682761	 -0.242497	 -0.009984	 0.890029	 -0.351188	 0.290544	 2
1463571694.884	 11	 1.594769	 1.011313	 -0.755528	 2.438717	 -0.715523	 -0.252977	 -0.008643	 0.887613	 -0.366826	 0.278400	 2
1463571694.894	 11	 1.688321	 0.873303	 -0.681958	 2.443121	 -0.732764	 -0.260099	 -0.007780	 0.885759	 -0.375202	 0.273118	 2
1463571694.904	 11	 1.807022	 0.602568	 -0.567211	 2.443679	 -0.750225	 -0.269393	 -0.006715	 0.883290	 -0.383900	 0.269026	 2
1463571694.914	 11	 1.894952	 0.070901	 -0.366166	 2.437368	 -0.767480	 -0.281568	 -0.005712	 0.879886	 -0.392818	 0.267323	 2
1463571694.924	 11	 1.838009	 -0.436669	 -0.127399	 2.423410	 -0.782746	 -0.296648	 -0.004688	 0.875734	 -0.401213	 0.268508	 2
1463571694.934	 11	 1.666120	 -0.347896	 0.017735	 2.408092	 -0.795595	 -0.312754	 -0.003185	 0.871740	 -0.408699	 0.270231	 2
1463571694.944	 11	 1.302487	 -0.242999	 -0.037805	 2.395912	 -0.806101	 -0.326244	 -0.001854	 0.868501	 -0.414845	 0.271304	 2
1463571694.954	 11	 0.678941	 -0.282878	 -0.068983	 2.387370	 -0.812888	 -0.333997	 -0.001602	 0.866308	 -0.418675	 0.272433	 2
1463571694.964	 11	 -0.588645	 0.410338	 -0.030181	 2.391148	 -0.811462	 -0.331352	 -0.001678	 0.867038	 -0.417735	 0.271552	 2
1463571694.974	 11	 -1.486092	 0.758571	 0.106634	 2.407464	 -0.801244	 -0.318797	 -0.001764	 0.870797	 -0.411849	 0.268494	 2
1463571694.984	 11	 -1.379251	 0.382029	 0.586056	 2.418742	 -0.787332	 -0.309883	 -0.000700	 0.874428	 -0.404893	 0.267278	 2
1463571694.994	 11	 -0.771179	 0.199371	 1.017090	 2.420309	 -0.774189	 -0.310887	 0.002537	 0.876617	 -0.399546	 0.268141	 2
1463571695.004	 11	 -0.068142	 0.257891	 1.157523	 2.415808	 -0.764807	 -0.320509	 0.007639	 0.877372	 -0.396932	 0.269454	 2
1463571695.014	 11	 0.479180	 0.501568	 1.100671	 2.409913	 -0.759999	 -0.335494	 0.013962	 0.877191	 -0.396979	 0.269720	 2
1463571695.024	 11	 0.759841	 0.896003	 0.898337	 2.406552	 -0.758830	 -0.351731	 0.020640	 0.876764	 -0.398705	 0.268127	 2
1463571695.034	 11	 0.917287	 1.254054	 0.615739	 2.407879	 -0.760763	 -0.366978	 0.027212	 0.876487	 -0.401520	 0.264219	 2
1463571695.044	 11	 1.033906	 1.077613	 0.092990	 2.411358	 -0.766555	 -0.378804	 0.031962	 0.875956	 -0.405411	 0.259465	 2
1463571695.054	 11	 1.098875	 0.472768	 -0.565450	 2.413049	 -0.777153	 -0.385128	 0.033002	 0.874574	 -0.410566	 0.255865	 2
1463571695.064	 11	 1.122754	 -0.068780	 -1.165393	 2.414338	 -0.792674	 -0.384270	 0.029859	 0.872517	 -0.416812	 0.253162	 2
1463571695.074	 11	 1.230504	 -0.328564	 -0.865006	 2.410880	 -0.808107	 -0.385034	 0.026442	 0.869796	 -0.423270	 0.252186	 2
1463571695.084	 11	 1.729217	 -0.353110	 0.057636	 2.397607	 -0.821152	 -0.398407	 0.026826	 0.865997	 -0.430434	 0.253092	 2
1463571695.094	 11	 2.096901	 -0.378958	 1.041090	 2.372320	 -0.830379	 -0.427754	 0.032125	 0.860981	 -0.438247	 0.256161	 2
1463571695.104	 11	 1.645680	 0.241011	 1.429134	 2.346949	 -0.833747	 -0.461730	 0.040404	 0.856613	 -0.444415	 0.258992	 2
1463571695.114	 11	 0.765578	 1.911507	 0.867238	 2.346321	 -0.832882	 -0.482675	 0.049420	 0.856183	 -0.446781	 0.254745	 2
1463571695.124	 11	 0.056675	 3.284244	 0.235003	 2.370937	 -0.832054	 -0.489416	 0.057986	 0.859180	 -0.446634	 0.242829	 2
1463571695.134	 11	 -1.372417	 4.808928	 -0.269116	 2.423452	 -0.825810	 -0.478008	 0.066010	 0.866548	 -0.441200	 0.223786	 2
1463571695.144	 11	 -2.269104	 5.498085	 -0.346552	 2.495420	 -0.811548	 -0.453994	 0.073969	 0.877113	 -0.430355	 0.199991	 2
1463571695.154	 11	 -1.346788	 4.220645	 0.166412	 2.551908	 -0.797698	 -0.440091	 0.082330	 0.885115	 -0.421089	 0.180213	 2
1463571695.164	 11	 0.595368	 1.828964	 0.563143	 2.571534	 -0.795906	 -0.446818	 0.089741	 0.886819	 -0.420084	 0.170375	 2
1463571695.174	 11	 1.811705	 -0.169638	 0.457220	 2.560860	 -0.806564	 -0.465410	 0.093903	 0.883432	 -0.426604	 0.169526	 2
1463571695.184	 11	 1.393623	 -0.873789	 0.282721	 2.542586	 -0.817247	 -0.481072	 0.095018	 0.879502	 -0.433228	 0.172516	 2
1463571695.194	 11	 1.097836	 -1.249536	 0.416086	 2.520572	 -0.824723	 -0.495160	 0.095060	 0.875772	 -0.438572	 0.177881	 2
1463571695.204	 11	 1.066325	 -1.724988	 0.840372	 2.491398	 -0.828871	 -0.513149	 0.095715	 0.871642	 -0.443282	 0.185958	 2
1463571695.214	 11	 1.259344	 -2.116850	 1.002370	 2.454225	 -0.832119	 -0.535664	 0.096579	 0.866533	 -0.448523	 0.196520	 2
1463571695.224	 11	 1.363943	 -1.709209	 0.789968	 2.418660	 -0.837002	 -0.558540	 0.097438	 0.861160	 -0.454474	 0.205823	 2
1463571695.234	 11	 1.002708	 -0.987303	 0.604797	 2.393589	 -0.840956	 -0.576868	 0.098752	 0.857105	 -0.459153	 0.211657	 2
1463571695.244	 11	 0.572466	 -0.932579	 0.497147	 2.375167	 -0.842197	 -0.589415	 0.099610	 0.854346	 -0.461886	 0.216409	 2
1463571695.254	 11	 0.457627	 -1.385460	 0.334068	 2.355913	 -0.842827	 -0.598518	 0.098897	 0.851699	 -0.464081	 0.222389	 2
1463571695.264	 11	 0.459446	 -2.000123	 -0.090512	 2.333590	 -0.845865	 -0.603869	 0.095292	 0.848526	 -0.466918	 0.230023	 2
1463571695.274	 11	 0.355117	 -2.607997	 -0.648391	 2.309654	 -0.852188	 -0.602869	 0.087809	 0.844965	 -0.470265	 0.239111	 2
1463571695.284	 11	 0.361217	 -2.926509	 -1.153382	 2.285978	 -0.862222	 -0.596320	 0.077112	 0.841083	 -0.474168	 0.248592	 2
1463571695.294	 11	 0.580468	 -3.030327	 -1.447210	 2.261797	 -0.876156	 -0.588477	 0.064741	 0.836530	 -0.479157	 0.257750	 2
1463571695.304	 11	 0.899326	 -2.814616	 -1.492741	 2.236488	 -0.892895	 -0.583779	 0.052621	 0.831203	 -0.485370	 0.265984	 2
1463571695.314	 11	 1.144259	 -2.284263	 -1.447308	 2.212497	 -0.911135	 -0.583449	 0.042114	 0.825615	 -0.492437	 0.272199	 2
1463571695.324	 11	 1.267687	 -1.727971	 -1.394181	 2.191563	 -0.929822	 -0.586331	 0.033411	 0.820240	 -0.499834	 0.276147	 2
1463571695.334	 11	 1.400419	 -1.041668	 -1.302624	 2.174467	 -0.948518	 -0.592267	 0.026765	 0.815308	 -0.507424	 0.277628	 2
1463571695.344	 11	 1.571772	 -0.325580	 -1.195139	 2.161236	 -0.967210	 -0.602326	 0.022642	 0.810855	 -0.515394	 0.276352	 2
1463571695.354	 11	 1.659559	 0.017208	 -1.264120	 2.150697	 -0.986548	 -0.614793	 0.019894	 0.806671	 -0.523752	 0.273073	 2
1463571695.364	 11	 1.567394	 -0.489924	 -1.565384	 2.139230	 -1.007659	 -0.624689	 0.015275	 0.802156	 -0.532217	 0.270293	 2
1463571695.374	 11	 1.183927	 -1.713584	 -2.080729	 2.124307	 -1.031010	 -0.625734	 0.005468	 0.796904	 -0.540076	 0.270613	 2
1463571695.384	 11	 0.849938	 -2.537355	 -2.436122	 2.108115	 -1.055999	 -0.617113	 -0.009073	 0.791151	 -0.546942	 0.273590	 2
1463571695.394	 11	 0.608050	 -2.751823	 -2.627849	 2.094204	 -1.081650	 -0.601821	 -0.025859	 0.785341	 -0.552876	 0.277306	 2
1463571695.404	 11	 0.424044	 -2.696220	 -2.807975	 2.085807	 -1.107934	 -0.580742	 -0.043551	 0.779786	 -0.558077	 0.280334	 2
1463571695.414	 11	 0.422057	 -2.517736	 -2.983213	 2.082719	 -1.135549	 -0.555582	 -0.061630	 0.774255	 -0.563110	 0.282201	 2
1463571695.424	 11	 0.678853	 -2.070328	 -3.077204	 2.082476	 -1.165175	 -0.531741	 -0.078808	 0.768370	 -0.568978	 0.282242	 2
1463571695.434	 11	 1.068415	 -1.410732	 -3.044617	 2.082536	 -1.196602	 -0.514558	 -0.093687	 0.762050	 -0.576305	 0.279957	 2
1463571695.444	 11	 1.488733	 -0.661058	 -2.898489	 2.080054	 -1.229023	 -0.508086	 -0.105395	 0.755375	 -0.585219	 0.275352	 2
1463571695.454	 11	 1.782854	 0.155808	 -2.631271	 2.073797	 -1.261045	 -0.514100	 -0.113401	 0.748740	 -0.595341	 0.268512	 2
1463571695.464	 11	 1.850627	 0.941333	 -2.084210	 2.063094	 -1.289582	 -0.533209	 -0.117039	 0.742891	 -0.605643	 0.260021	 2
1463571695.474	 11	 1.608540	 1.193671	 -1.266577	 2.045761	 -1.310562	 -0.563507	 -0.116736	 0.738381	 -0.614500	 0.252101	 2
1463571695.484	 11	 1.119341	 0.392896	 -0.421423	 2.020265	 -1.321674	 -0.596118	 -0.115637	 0.734976	 -0.620172	 0.248644	 2
1463571695.494	 11	 0.920227	 -0.234019	 0.169173	 1.984191	 -1.325246	 -0.632488	 -0.114520	 0.731924	 -0.623580	 0.249642	 2
1463571695.504	 11	 0.846346	 -0.708602	 0.403065	 1.940883	 -1.325244	 -0.670834	 -0.114045	 0.728668	 -0.625928	 0.253478	 2
1463571695.514	 11	 0.788379	 -1.159147	 0.584820	 1.893414	 -1.322968	 -0.709089	 -0.114338	 0.725130	 -0.627568	 0.259369	 2
1463571695.524	 11	 0.766815	 -1.838407	 1.068937	 1.837780	 -1.316389	 -0.749538	 -0.115154	 0.721067	 -0.628194	 0.268653	 2
1463571695.534	 11	 0.777968	 -2.678711	 1.652519	 1.771536	 -1.303332	 -0.792346	 -0.116419	 0.716097	 -0.627422	 0.282830	 2
1463571695.544	 11	 0.765164	 -3.253026	 1.798625	 1.702823	 -1.286988	 -0.831331	 -0.118690	 0.710172	 -0.625750	 0.300010	 2
1463571695.554	 11	 0.655892	 -3.497941	 1.715233	 1.639754	 -1.270312	 -0.860891	 -0.122327	 0.703728	 -0.623363	 0.318154	 2
1463571695.564	 11	 0.660849	 -2.797748	 1.324176	 1.586925	 -1.256176	 -0.884456	 -0.125661	 0.697642	 -0.621415	 0.333688	 2
1463571695.574	 11	 0.491778	 -1.749376	 0.768418	 1.550188	 -1.247129	 -0.902276	 -0.127722	 0.693116	 -0.620581	 0.343739	 2
1463571695.584	 11	 -0.109893	 -1.636336	 0.419810	 1.532860	 -1.242189	 -0.903666	 -0.130877	 0.690472	 -0.618895	 0.350841	 2
1463571695.594	 11	 -0.723071	 -2.260475	 0.199794	 1.529262	 -1.239998	 -0.885462	 -0.137494	 0.688732	 -0.615067	 0.358379	 2
1463571695.604	 11	 -1.039582	 -3.449303	 0.111555	 1.526943	 -1.239124	 -0.855026	 -0.148359	 0.686187	 -0.609223	 0.368762	 2
1463571695.614	 11	 -1.206566	 -4.127258	 -0.015862	 1.519815	 -1.239414	 -0.819718	 -0.162697	 0.682085	 -0.602093	 0.381804	 2
1463571695.624	 11	 -1.754095	 -3.339647	 -0.162565	 1.530696	 -1.241609	 -0.770396	 -0.177004	 0.679845	 -0.593863	 0.392182	 2
1463571695.634	 11	 -2.086183	 -2.532149	 0.172898	 1.562796	 -1.241519	 -0.707666	 -0.188851	 0.680472	 -0.584361	 0.399769	 2
1463571695.644	 11	 -2.224584	 -1.809673	 0.742483	 1.606266	 -1.235217	 -0.640752	 -0.196950	 0.683410	 -0.573771	 0.406137	 2
1463571695.654	 11	 -2.313825	 -1.114458	 1.092905	 1.656062	 -1.223549	 -0.574085	 -0.201816	 0.688303	 -0.562488	 0.411238	 2
1463571695.664	 11	 -2.322184	 -0.157313	 1.075240	 1.711188	 -1.210118	 -0.511018	 -0.203966	 0.695046	 -0.551802	 0.413307	 2
1463571695.674	 11	 -2.329184	 0.650789	 1.039124	 1.770692	 -1.195879	 -0.452164	 -0.203863	 0.703418	 -0.541980	 0.412189	 2
1463571695.684	 11	 -2.400951	 1.476552	 1.065551	 1.834930	 -1.180185	 -0.396631	 -0.201605	 0.713483	 -0.532689	 0.408093	 2
1463571695.694	 11	 -2.506980	 2.192546	 1.194634	 1.903383	 -1.161844	 -0.344456	 -0.197083	 0.725308	 -0.523463	 0.401339	 2
1463571695.704	 11	 -2.462587	 2.850012	 1.380479	 1.971607	 -1.140454	 -0.299149	 -0.190178	 0.738388	 -0.514301	 0.392568	 2
1463571695.714	 11	 -2.208695	 3.408520	 1.498568	 2.035235	 -1.117575	 -0.265006	 -0.180787	 0.751918	 -0.505991	 0.381980	 2
1463571695.724	 11	 -1.732156	 3.803273	 1.712310	 2.089603	 -1.094210	 -0.245765	 -0.168686	 0.765035	 -0.499062	 0.370409	 2
1463571695.734	 11	 -1.204952	 4.097742	 1.904429	 2.133356	 -1.071408	 -0.241867	 -0.153930	 0.777183	 -0.493792	 0.358414	 2
1463571695.744	 11	 -0.826695	 4.186082	 1.919009	 2.169722	 -1.050308	 -0.247791	 -0.137804	 0.788156	 -0.489850	 0.346220	 2
1463571695.754	 11	 -0.535066	 4.036192	 1.901221	 2.200469	 -1.031287	 -0.259795	 -0.121237	 0.797847	 -0.486892	 0.334183	 2
1463571695.764	 11	 -0.496623	 3.175288	 1.855573	 2.222724	 -1.013443	 -0.273865	 -0.106218	 0.805716	 -0.483842	 0.324711	 2
1463571695.774	 11	 -0.853382	 2.027201	 1.795774	 2.237713	 -0.994603	 -0.283561	 -0.094524	 0.812141	 -0.479089	 0.319320	 2
1463571695.784	 11	 -1.411344	 0.945975	 1.780979	 2.247920	 -0.972738	 -0.285753	 -0.086401	 0.817877	 -0.471626	 0.318091	 2
1463571695.794	 11	 -1.923624	 0.077077	 1.730460	 2.255010	 -0.947790	 -0.280477	 -0.081462	 0.823263	 -0.461546	 0.320277	 2
1463571695.804	 11	 -2.157877	 -0.563842	 1.549619	 2.259379	 -0.921951	 -0.269975	 -0.079191	 0.828081	 -0.450044	 0.324765	 2
1463571695.814	 11	 -2.092729	 -1.034784	 1.315531	 2.259847	 -0.897853	 -0.257527	 -0.079044	 0.831804	 -0.438616	 0.330863	 2
1463571695.824	 11	 -1.863119	 -1.282614	 1.114060	 2.256770	 -0.876657	 -0.245614	 -0.080098	 0.834382	 -0.428161	 0.337741	 2
1463571695.834	 11	 -1.600144	 -1.341443	 1.028093	 2.250853	 -0.858094	 -0.235827	 -0.081424	 0.836040	 -0.418902	 0.344861	 2
1463571695.844	 11	 -1.432988	 -1.219435	 1.053351	 2.243688	 -0.840812	 -0.228427	 -0.082253	 0.837284	 -0.410447	 0.351744	 2
1463571695.854	 11	 -1.445712	 -0.793576	 1.105384	 2.239476	 -0.823311	 -0.221823	 -0.082059	 0.839039	 -0.402114	 0.357189	 2
1463571695.864	 11	 -1.472748	 -0.419087	 1.108039	 2.239372	 -0.805499	 -0.215072	 -0.081026	 0.841512	 -0.393750	 0.360906	 2
1463571695.874	 11	 -1.413440	 -0.257864	 1.070655	 2.241208	 -0.788104	 -0.208573	 -0.079614	 0.844235	 -0.385627	 0.363623	 2
1463571695.884	 11	 -1.278181	 -0.239772	 0.980122	 2.242752	 -0.772054	 -0.202907	 -0.078222	 0.846695	 -0.378142	 0.366058	 2
1463571695.894	 11	 -1.102169	 -0.139184	 0.842042	 2.244417	 -0.758018	 -0.198046	 -0.076923	 0.848877	 -0.371592	 0.367982	 2
1463571695.904	 11	 -0.907790	 0.034519	 0.673575	 2.247088	 -0.746445	 -0.193956	 -0.075660	 0.850891	 -0.366202	 0.368992	 2
1463571695.914	 11	 -0.723530	 0.269362	 0.571843	 2.251276	 -0.737074	 -0.190802	 -0.074219	 0.852890	 -0.361927	 0.368890	 2
1463571695.924	 11	 -0.555453	 0.573358	 0.612642	 2.256999	 -0.728661	 -0.189634	 -0.071879	 0.855096	 -0.358451	 0.367637	 2
1463571695.934	 11	 -0.313632	 0.868902	 0.691087	 2.263757	 -0.721071	 -0.191448	 -0.068273	 0.857465	 -0.355880	 0.365297	 2
1463571695.944	 11	 -0.025202	 1.118336	 0.736724	 2.271114	 -0.714887	 -0.196611	 -0.063435	 0.859834	 -0.354495	 0.361933	 2
1463571695.954	 11	 0.281738	 1.214598	 0.788236	 2.277305	 -0.710265	 -0.205330	 -0.057606	 0.861849	 -0.354331	 0.358257	 2
1463571695.964	 11	 0.532463	 1.254882	 0.724613	 2.282549	 -0.707696	 -0.216512	 -0.051310	 0.863437	 -0.355397	 0.354312	 2
1463571695.974	 11	 0.700509	 1.244925	 0.593035	 2.287187	 -0.707298	 -0.228510	 -0.045216	 0.864597	 -0.357456	 0.350217	 2
1463571695.984	 11	 0.804681	 1.302926	 0.420014	 2.292376	 -0.708933	 -0.240290	 -0.039535	 0.865530	 -0.360295	 0.345661	 2
1463571695.994	 11	 0.909619	 1.340344	 0.195638	 2.298607	 -0.712867	 -0.251215	 -0.034504	 0.866275	 -0.363919	 0.340500	 2
1463571696.004	 11	 1.063392	 1.358175	 -0.069844	 2.305550	 -0.719715	 -0.261285	 -0.030306	 0.866690	 -0.368574	 0.334789	 2
1463571696.014	 11	 1.226486	 1.312195	 -0.330672	 2.312661	 -0.729670	 -0.270600	 -0.027028	 0.866653	 -0.374345	 0.328706	 2
1463571696.024	 11	 1.441705	 1.209871	 -0.566900	 2.318963	 -0.742778	 -0.279653	 -0.024643	 0.865993	 -0.381319	 0.322560	 2
1463571696.034	 11	 1.712520	 1.124444	 -0.797060	 2.323906	 -0.759396	 -0.289174	 -0.023018	 0.864566	 -0.389744	 0.316379	 2
1463571696.044	 11	 1.966361	 1.035031	 -0.997268	 2.327336	 -0.779371	 -0.299440	 -0.022046	 0.862354	 -0.399579	 0.310155	 2
1463571696.054	 11	 2.104781	 1.074131	 -1.122804	 2.330153	 -0.801646	 -0.310218	 -0.021451	 0.859627	 -0.410338	 0.303651	 2
1463571696.064	 11	 1.901636	 1.456470	 -1.135595	 2.336747	 -0.823601	 -0.319623	 -0.020584	 0.857396	 -0.420706	 0.295728	 2
1463571696.084	 12	 -0.256691	 2.190538	 -0.517408	 2.381704	 -0.844537	 -0.316031	 -0.016799	 0.860475	 -0.429095	 0.274186	 2
1463571696.094	 12	 -0.792313	 0.852704	 0.024739	 2.400168	 -0.840127	 -0.307588	 -0.015631	 0.863626	 -0.426301	 0.268651	 2
1463571696.104	 12	 -0.691240	 -0.232713	 0.431538	 2.402867	 -0.832284	 -0.303893	 -0.015149	 0.865231	 -0.422610	 0.269346	 2
1463571696.114	 12	 -0.285007	 -0.680432	 0.603949	 2.395160	 -0.825505	 -0.306212	 -0.014463	 0.865289	 -0.420085	 0.273121	 2
1463571696.124	 12	 0.057039	 -0.833161	 0.654969	 2.382246	 -0.820992	 -0.312966	 -0.013371	 0.864269	 -0.419077	 0.277912	 2
1463571696.134	 12	 0.117799	 -0.943130	 0.768519	 2.366448	 -0.816753	 -0.321929	 -0.011967	 0.862766	 -0.418504	 0.283453	 2
1463571696.144	 12	 0.044966	 -0.882410	 0.898675	 2.350391	 -0.811075	 -0.331540	 -0.010030	 0.861383	 -0.417484	 0.289180	 2
1463571696.154	 12	 0.002377	 -0.706179	 0.982750	 2.335738	 -0.804228	 -0.341390	 -0.007430	 0.860305	 -0.416085	 0.294436	 2
1463571696.164	 12	 0.039460	 -0.525573	 0.969187	 2.322926	 -0.797282	 -0.351325	 -0.004360	 0.859441	 -0.414719	 0.298914	 2
1463571696.174	 12	 0.218185	 -0.334309	 0.869229	 2.311656	 -0.791787	 -0.361698	 -0.001069	 0.858540	 -0.414054	 0.302436	 2
1463571696.184	 12	 0.492090	 -0.069143	 0.731828	 2.301818	 -0.788977	 -0.373568	 0.002593	 0.857432	 -0.414734	 0.304629	 2
1463571696.194	 12	 0.542766	 0.145712	 0.606561	 2.294530	 -0.787883	 -0.385301	 0.006345	 0.856444	 -0.416104	 0.305486	 2
1463571696.204	 12	 0.427629	 0.132554	 0.652203	 2.288455	 -0.786212	 -0.396097	 0.010070	 0.855695	 -0.417115	 0.306104	 2
1463571696.214	 12	 0.109477	 -0.246208	 0.800655	 2.280532	 -0.781792	 -0.405402	 0.013382	 0.855007	 -0.416840	 0.308266	 2
1463571696.224	 12	 -0.221056	 -0.607118	 0.766070	 2.271227	 -0.774780	 -0.410946	 0.015393	 0.854431	 -0.414997	 0.312233	 2
1463571696.234	 12	 -0.163283	 -0.422485	 0.582908	 2.263739	 -0.768621	 -0.414414	 0.016722	 0.854008	 -0.413171	 0.315723	 2
1463571696.244	 12	 0.058575	 0.843305	 0.392392	 2.265141	 -0.765372	 -0.418497	 0.019495	 0.854598	 -0.412521	 0.314815	 2
1463571696.254	 12	 -0.340684	 3.284717	 0.143619	 2.292232	 -0.762382	 -0.418301	 0.025661	 0.859164	 -0.411001	 0.303738	 2
1463571696.264	 12	 -0.678436	 4.166848	 -0.231037	 2.338294	 -0.759162	 -0.410697	 0.032511	 0.866478	 -0.407920	 0.285939	 2
1463571696.274	 12	 -0.893153	 3.073551	 -0.598518	 2.382544	 -0.758051	 -0.397086	 0.035813	 0.873003	 -0.404821	 0.269634	 2
1463571696.284	 12	 -1.391282	 1.179067	 -0.973103	 2.413296	 -0.754740	 -0.376486	 0.033643	 0.877891	 -0.400191	 0.260812	 2
1463571696.294	 12	 -1.693971	 -0.539791	 -1.250771	 2.430591	 -0.750191	 -0.349349	 0.026018	 0.881179	 -0.394510	 0.259244	 2
1463571696.304	 12	 -1.424670	 -2.008664	 -1.292363	 2.432371	 -0.747021	 -0.322209	 0.015000	 0.882141	 -0.389610	 0.264209	 2
1463571696.314	 12	 -0.520561	 -2.845561	 -1.051174	 2.418140	 -0.748492	 -0.303679	 0.003793	 0.880102	 -0.387803	 0.273888	 2
1463571696.324	 12	 0.645640	 -2.855861	 -0.826956	 2.392852	 -0.756932	 -0.298131	 -0.005175	 0.875348	 -0.390556	 0.284965	 2
1463571696.334	 12	 1.617894	 -2.275972	 -0.696805	 2.364339	 -0.772092	 -0.304180	 -0.011138	 0.869043	 -0.397611	 0.294188	 2
1463571696.344	 12	 2.295433	 -1.828404	 -0.452348	 2.333645	 -0.790744	 -0.320513	 -0.014046	 0.861854	 -0.407496	 0.301591	 2
1463571696.354	 12	 2.865725	 -1.653375	 -0.286228	 2.298280	 -0.811612	 -0.346273	 -0.014730	 0.853610	 -0.419578	 0.308361	 2
1463571696.364	 12	 3.066280	 -1.675194	 -0.279645	 2.258664	 -0.833463	 -0.377749	 -0.014644	 0.844517	 -0.432814	 0.315037	 2
1463571696.374	 12	 2.831766	 -1.893022	 -0.491717	 2.217660	 -0.854858	 -0.408190	 -0.015813	 0.835182	 -0.445588	 0.321981	 2
1463571696.384	 12	 2.239606	 -2.327119	 -0.750646	 2.177451	 -0.874568	 -0.432027	 -0.019728	 0.826092	 -0.456519	 0.329807	 2
1463571696.394	 12	 1.383858	 -2.772041	 -0.995658	 2.140804	 -0.891271	 -0.444881	 -0.027043	 0.817820	 -0.464372	 0.338818	 2
1463571696.404	 12	 0.587496	 -2.878612	 -1.199671	 2.111428	 -0.905133	 -0.445647	 -0.037128	 0.810894	 -0.469031	 0.347969	 2
1463571696.414	 12	 0.104821	 -2.593230	 -1.348414	 2.090907	 -0.917502	 -0.437653	 -0.048394	 0.805413	 -0.471591	 0.355766	 2
1463571696.424	 12	 -0.006018	 -2.013009	 -1.463547	 2.078505	 -0.930007	 -0.425942	 -0.059301	 0.801129	 -0.473579	 0.361106	 2
1463571696.434	 12	 0.151187	 -1.189823	 -1.553174	 2.073313	 -0.943901	 -0.414917	 -0.068584	 0.797852	 -0.476306	 0.363127	 2
1463571696.444	 12	 0.457217	 -0.292370	 -1.608236	 2.074373	 -0.959700	 -0.407299	 -0.075499	 0.795449	 -0.480506	 0.361491	 2
1463571696.454	 12	 0.830927	 0.425552	 -1.605875	 2.078964	 -0.977366	 -0.404934	 -0.079930	 0.793511	 -0.486435	 0.356836	 2
1463571696.464	 12	 1.169083	 0.809917	 -1.560481	 2.083570	 -0.996394	 -0.408218	 -0.082435	 0.791507	 -0.493823	 0.350515	 2
1463571696.474	 12	 1.436301	 0.867905	 -1.522835	 2.085271	 -1.016496	 -0.416536	 -0.083928	 0.788960	 -0.502279	 0.343822	 2
1463571696.484	 12	 1.583899	 0.658398	 -1.459992	 2.082119	 -1.037003	 -0.428699	 -0.085257	 0.785632	 -0.511225	 0.337879	 2
1463571696.494	 12	 1.564074	 0.232547	 -1.377456	 2.073498	 -1.056909	 -0.442699	 -0.087189	 0.781547	 -0.519912	 0.333578	 2
1463571696.504	 12	 1.413552	 -0.305608	 -1.287366	 2.059915	 -1.075368	 -0.456297	 -0.090314	 0.776871	 -0.527692	 0.331446	 2
1463571696.514	 12	 1.209837	 -0.820110	 -1.183803	 2.042393	 -1.091933	 -0.468244	 -0.094759	 0.771808	 -0.534260	 0.331512	 2
1463571696.524	 12	 1.010140	 -1.165475	 -1.075505	 2.022505	 -1.106519	 -0.478267	 -0.100187	 0.766610	 -0.539626	 0.333281	 2
1463571696.534	 12	 0.888458	 -1.266397	 -0.961348	 2.001820	 -1.119358	 -0.487339	 -0.105843	 0.761533	 -0.544115	 0.335862	 2
1463571696.544	 12	 0.868873	 -1.196541	 -0.869938	 1.980638	 -1.131018	 -0.497276	 -0.111093	 0.756624	 -0.548243	 0.338539	 2
1463571696.554	 12	 0.922940	 -1.078364	 -0.832007	 1.958576	 -1.142256	 -0.509393	 -0.115759	 0.751775	 -0.552455	 0.340922	 2
1463571696.564	 12	 1.003388	 -0.982951	 -0.842477	 1.935056	 -1.153643	 -0.524175	 -0.119998	 0.746841	 -0.556974	 0.342943	 2
1463571696.574	 12	 1.086619	 -0.944192	 -0.890801	 1.909504	 -1.165536	 -0.541690	 -0.124078	 0.741690	 -0.561869	 0.344679	 2
1463571696.584	 12	 1.149247	 -0.956583	 -0.960736	 1.881646	 -1.178089	 -0.561602	 -0.128287	 0.736253	 -0.567086	 0.346246	 2
1463571696.594	 12	 1.183982	 -1.000793	 -1.029658	 1.851317	 -1.191209	 -0.583674	 -0.132774	 0.730523	 -0.572516	 0.347753	 2
1463571696.604	 12	 1.166531	 -1.026733	 -1.093693	 1.819291	 -1.204688	 -0.607070	 -0.137593	 0.724631	 -0.577977	 0.349171	 2
1463571696.614	 12	 1.081234	 -0.974675	 -1.136163	 1.787641	 -1.218207	 -0.630270	 -0.142611	 0.718896	 -0.583243	 0.350256	 2
1463571696.624	 12	 0.933632	 -0.814735	 -1.140850	 1.758942	 -1.231346	 -0.651615	 -0.147517	 0.713707	 -0.588104	 0.350707	 2
1463571696.634	 12	 0.746009	 -0.551428	 -1.134634	 1.735924	 -1.243933	 -0.669383	 -0.152010	 0.709424	 -0.592452	 0.350160	 2
1463571696.644	 12	 0.550905	 -0.301826	 -1.114627	 1.719839	 -1.255932	 -0.682559	 -0.155993	 0.706158	 -0.596249	 0.348559	 2
1463571696.654	 12	 0.416181	 -0.158665	 -1.081214	 1.709064	 -1.267352	 -0.691919	 -0.159615	 0.703644	 -0.599565	 0.346309	 2
1463571696.664	 12	 0.334232	 -0.132714	 -1.055747	 1.700999	 -1.278338	 -0.698956	 -0.163138	 0.701500	 -0.602523	 0.343874	 2
1463571696.674	 12	 0.299036	 -0.151553	 -1.027906	 1.693795	 -1.288984	 -0.704964	 -0.166677	 0.699484	 -0.605239	 0.341505	 2
1463571696.684	 12	 0.342436	 -0.257773	 -0.990905	 1.684344	 -1.299307	 -0.712468	 -0.170295	 0.697274	 -0.607891	 0.339523	 2
1463571696.694	 12	 0.467106	 -0.572548	 -0.933105	 1.667453	 -1.309193	 -0.725040	 -0.174311	 0.694331	 -0.610595	 0.338664	 2
1463571696.704	 12	 0.569305	 -1.130784	 -0.869915	 1.639645	 -1.318480	 -0.743629	 -0.179458	 0.690204	 -0.613125	 0.339839	 2
1463571696.714	 12	 0.601721	 -1.720153	 -0.874615	 1.601991	 -1.327496	 -0.766210	 -0.186277	 0.684878	 -0.615231	 0.343124	 2
1463571696.724	 12	 0.497198	 -2.189701	 -0.838642	 1.559653	 -1.336048	 -0.788363	 -0.194663	 0.678830	 -0.616534	 0.348111	 2
1463571696.734	 12	 0.208616	 -2.411112	 -0.686851	 1.522379	 -1.343372	 -0.802157	 -0.204003	 0.672998	 -0.616453	 0.354177	 2
1463571696.744	 12	 -0.247371	 -2.197667	 -0.478400	 1.503884	 -1.348736	 -0.797767	 -0.213020	 0.668775	 -0.614593	 0.360053	 2
1463571696.754	 12	 -0.746234	 -1.592513	 -0.245681	 1.513018	 -1.352188	 -0.770340	 -0.220570	 0.667148	 -0.611169	 0.364327	 2
1463571696.764	 12	 -1.179650	 -0.881464	 -0.050914	 1.551118	 -1.353558	 -0.720533	 -0.226069	 0.668410	 -0.606557	 0.366346	 2
1463571696.774	 12	 -1.428711	 -0.243144	 0.162887	 1.609412	 -1.352392	 -0.656768	 -0.229446	 0.671965	 -0.601295	 0.366417	 2
1463571696.784	 12	 -1.450005	 0.256324	 0.388333	 1.674588	 -1.347995	 -0.591438	 -0.230547	 0.676974	 -0.595930	 0.365268	 2
1463571696.794	 12	 -1.373013	 0.565006	 0.598358	 1.736353	 -1.340771	 -0.533192	 -0.229764	 0.682639	 -0.590789	 0.363567	 2
1463571696.804	 12	 -1.348871	 0.733634	 0.834185	 1.792347	 -1.330553	 -0.482800	 -0.227493	 0.688760	 -0.585556	 0.361913	 2
1463571696.814	 12	 -1.486286	 0.832387	 1.049453	 1.845986	 -1.317368	 -0.435888	 -0.224264	 0.695536	 -0.579712	 0.360375	 2
1463571696.824	 12	 -2.137134	 0.696379	 1.244626	 1.908468	 -1.300117	 -0.378913	 -0.221392	 0.703759	 -0.571643	 0.359072	 2
1463571696.834	 12	 -3.024221	 0.702532	 1.441046	 1.988344	 -1.276784	 -0.302743	 -0.219655	 0.714500	 -0.559861	 0.357487	 2
1463571696.844	 12	 -2.949843	 1.224070	 1.815071	 2.061501	 -1.248096	 -0.237220	 -0.215972	 0.726690	 -0.547021	 0.355028	 2
1463571696.854	 12	 -1.926223	 2.026223	 2.254849	 2.104988	 -1.218501	 -0.210551	 -0.207072	 0.738216	 -0.537033	 0.351787	 2
1463571696.864	 12	 -0.714200	 2.802690	 2.602157	 2.119710	 -1.191699	 -0.222694	 -0.192510	 0.747989	 -0.531477	 0.347828	 2
1463571696.874	 12	 0.130445	 3.372174	 2.859082	 2.117964	 -1.167626	 -0.259880	 -0.173426	 0.756296	 -0.529474	 0.342924	 2
1463571696.884	 12	 0.192364	 3.352880	 3.156777	 2.111300	 -1.142533	 -0.304270	 -0.152364	 0.763959	 -0.527899	 0.338341	 2
1463571696.894	 12	 -0.485037	 2.799772	 3.611543	 2.108012	 -1.110960	 -0.340617	 -0.131592	 0.772166	 -0.523002	 0.336024	 2
1463571696.904	 12	 -1.365374	 2.335691	 3.647928	 2.115115	 -1.073586	 -0.360176	 -0.112937	 0.781500	 -0.513868	 0.335324	 2
1463571696.914	 12	 -1.990400	 1.920008	 3.421429	 2.130905	 -1.034202	 -0.365181	 -0.097237	 0.791418	 -0.501791	 0.335274	 2
1463571696.924	 12	 -2.340685	 1.604567	 3.195602	 2.150172	 -0.994618	 -0.362286	 -0.083932	 0.801312	 -0.488084	 0.335601	 2
1463571696.934	 12	 -2.631567	 1.207107	 2.977021	 2.169780	 -0.955177	 -0.354431	 -0.072852	 0.810852	 -0.473188	 0.336608	 2
1463571696.944	 12	 -2.898650	 0.729134	 2.665827	 2.188429	 -0.916396	 -0.341770	 -0.064444	 0.819813	 -0.457283	 0.338594	 2
1463571696.954	 12	 -3.065262	 0.323914	 2.307543	 2.205880	 -0.879236	 -0.324846	 -0.058797	 0.828077	 -0.440851	 0.341295	 2
1463571696.964	 12	 -3.069427	 -0.115096	 2.048776	 2.219897	 -0.843907	 -0.306383	 -0.055308	 0.835339	 -0.424430	 0.344978	 2
1463571696.974	 12	 -2.889683	 -0.732036	 1.821924	 2.227293	 -0.811082	 -0.288693	 -0.053720	 0.841006	 -0.408666	 0.350451	 2
1463571696.984	 12	 -2.609164	 -1.447384	 1.559173	 2.226155	 -0.781874	 -0.272520	 -0.054166	 0.844568	 -0.394160	 0.358342	 2
1463571696.994	 12	 -2.361681	 -2.014039	 1.400407	 2.217455	 -0.755830	 -0.257821	 -0.056176	 0.846211	 -0.380814	 0.368446	 2
1463571697.004	 12	 -2.166080	 -2.135145	 1.352815	 2.204924	 -0.731701	 -0.244740	 -0.058565	 0.846748	 -0.368289	 0.379409	 2
1463571697.014	 12	 -1.895032	 -1.686035	 1.352503	 2.193694	 -0.709190	 -0.234098	 -0.059939	 0.847214	 -0.356809	 0.389002	 2
1463571697.024	 12	 -1.534189	 -0.993495	 1.369660	 2.186452	 -0.688622	 -0.227123	 -0.059413	 0.848185	 -0.346877	 0.395889	 2
1463571697.034	 12	 -1.118674	 -0.230014	 1.364621	 2.183944	 -0.670380	 -0.224419	 -0.056755	 0.849844	 -0.338837	 0.399667	 2
1463571697.044	 12	 -0.743183	 0.471444	 1.297538	 2.186346	 -0.654809	 -0.225422	 -0.052306	 0.852205	 -0.332740	 0.400368	 2
1463571697.054	 12	 -0.455927	 1.050573	 1.192784	 2.193356	 -0.641835	 -0.228971	 -0.046625	 0.855198	 -0.328298	 0.398350	 2
1463571697.064	 12	 -0.236891	 1.450952	 1.051791	 2.203995	 -0.631328	 -0.234020	 -0.040304	 0.858609	 -0.325200	 0.394222	 2
1463571697.074	 12	 -0.057430	 1.625794	 0.887728	 2.216519	 -0.623279	 -0.239869	 -0.033919	 0.862068	 -0.323247	 0.388844	 2
1463571697.084	 12	 0.135368	 1.565697	 0.598800	 2.228983	 -0.618370	 -0.245787	 -0.028241	 0.865107	 -0.322544	 0.383090	 2
1463571697.094	 12	 0.327821	 1.458404	 0.548166	 2.239890	 -0.615852	 -0.252609	 -0.022962	 0.867544	 -0.322932	 0.377565	 2
1463571697.104	 12	 0.451676	 1.436013	 0.590576	 2.249289	 -0.613905	 -0.261159	 -0.017296	 0.869604	 -0.323817	 0.372335	 2
1463571697.114	 12	 0.573997	 1.470775	 0.447022	 2.258772	 -0.613485	 -0.270098	 -0.011774	 0.871466	 -0.325362	 0.366807	 2
1463571697.124	 12	 0.734013	 1.447173	 0.190692	 2.268425	 -0.615915	 -0.278627	 -0.007010	 0.873000	 -0.327975	 0.360906	 2
1463571697.134	 12	 0.926755	 1.362720	 -0.083541	 2.277608	 -0.621694	 -0.286719	 -0.003220	 0.874037	 -0.331867	 0.354842	 2
1463571697.144	 12	 1.162959	 1.233323	 -0.377755	 2.285716	 -0.631155	 -0.294590	 -0.000471	 0.874432	 -0.337219	 0.348788	 2
1463571697.154	 12	 1.437855	 0.980051	 -0.724615	 2.291662	 -0.644943	 -0.302202	 0.000898	 0.873915	 -0.344295	 0.343122	 2
1463571697.164	 12	 1.733804	 0.662918	 -1.069055	 2.294569	 -0.663297	 -0.309679	 0.000724	 0.872297	 -0.353210	 0.338143	 2
1463571697.174	 12	 1.932660	 0.307092	 -1.361853	 2.294031	 -0.685548	 -0.316900	 -0.001014	 0.869566	 -0.363641	 0.334095	 2
1463571697.184	 12	 1.823395	 0.138112	 -1.534062	 2.292156	 -0.709210	 -0.322291	 -0.004125	 0.866352	 -0.374274	 0.330659	 2
1463571697.194	 12	 1.239927	 0.638749	 -1.521126	 2.296310	 -0.730063	 -0.322886	 -0.007578	 0.864377	 -0.382922	 0.325831	 2
1463571697.204	 12	 0.465596	 1.859768	 -1.248305	 2.315393	 -0.744411	 -0.317379	 -0.009340	 0.865519	 -0.387989	 0.316629	 2
1463571697.214	 12	 -0.035721	 2.155383	 -0.727492	 2.342464	 -0.751095	 -0.309886	 -0.008716	 0.868780	 -0.389693	 0.305425	 2
1463571697.224	 12	 -0.133633	 1.102175	 -0.213151	 2.359534	 -0.752574	 -0.305350	 -0.007662	 0.871132	 -0.389690	 0.298683	 2
1463571697.234	 12	 0.044926	 0.119998	 0.234433	 2.362085	 -0.751610	 -0.306523	 -0.006461	 0.871653	 -0.389474	 0.297473	 2
1463571697.244	 12	 0.245509	 -0.417236	 0.593244	 2.354363	 -0.749402	 -0.313407	 -0.004521	 0.870827	 -0.389566	 0.299795	 2
1463571697.254	 12	 0.357454	 -0.788769	 0.739084	 2.340498	 -0.746672	 -0.323563	 -0.002247	 0.869127	 -0.389950	 0.304224	 2
1463571697.264	 12	 0.299158	 -1.117590	 0.692836	 2.323327	 -0.743748	 -0.333467	 -0.000689	 0.866892	 -0.390258	 0.310156	 2
1463571697.274	 12	 0.087649	 -1.319644	 0.611799	 2.305743	 -0.740094	 -0.340662	 -0.000228	 0.864620	 -0.389890	 0.316888	 2
1463571697.284	 12	 -0.028145	 -1.419407	 0.594827	 2.288145	 -0.735567	 -0.345906	 -0.000410	 0.862387	 -0.388887	 0.324123	 2
1463571697.294	 12	 0.050415	 -1.279252	 0.593316	 2.271230	 -0.731189	 -0.351309	 -0.000404	 0.860171	 -0.387997	 0.331003	 2
1463571697.304	 12	 0.170484	 -0.951889	 0.610237	 2.256409	 -0.727501	 -0.357959	 0.000405	 0.858155	 -0.387621	 0.336631	 2
1463571697.324	 13	 0.097530	 -0.353228	 1.146127	 2.233320	 -0.714954	 -0.375990	 0.006532	 0.855686	 -0.385708	 0.344947	 2
1463571697.334	 13	 -0.122635	 -0.453355	 1.183348	 2.223202	 -0.705092	 -0.385059	 0.010759	 0.855017	 -0.383393	 0.349057	 2
1463571697.344	 13	 -0.230465	 -0.484587	 0.939937	 2.214803	 -0.695697	 -0.390671	 0.013758	 0.854546	 -0.380691	 0.353040	 2
1463571697.354	 13	 -0.091026	 -0.578279	 0.690598	 2.206362	 -0.688917	 -0.395146	 0.015671	 0.853743	 -0.378853	 0.356858	 2
1463571697.364	 13	 -0.134328	 0.222687	 0.389357	 2.203767	 -0.684507	 -0.397769	 0.017349	 0.853722	 -0.377593	 0.358163	 2
1463571697.374	 13	 -0.476458	 2.515570	 -0.077644	 2.225301	 -0.681781	 -0.394072	 0.020466	 0.857858	 -0.375648	 0.350071	 2
1463571697.384	 13	 -0.558874	 3.534549	 -0.544906	 2.265289	 -0.681687	 -0.384915	 0.024033	 0.864815	 -0.373598	 0.334578	 2
1463571697.394	 13	 -0.579502	 2.832364	 -0.874187	 2.303676	 -0.684049	 -0.372706	 0.025370	 0.870980	 -0.372089	 0.319844	 2
1463571697.404	 13	 -0.809256	 1.594467	 -1.093660	 2.333230	 -0.686591	 -0.356371	 0.023179	 0.875531	 -0.370208	 0.309604	 2
1463571697.414	 13	 -0.677831	 0.092924	 -1.149276	 2.349048	 -0.689616	 -0.339147	 0.017924	 0.877773	 -0.368654	 0.305429	 2
1463571697.424	 13	 -0.160822	 -1.379611	 -1.155756	 2.347306	 -0.695739	 -0.325653	 0.010427	 0.876840	 -0.369151	 0.307847	 2
1463571697.434	 13	 0.525659	 -2.190428	 -0.926285	 2.330548	 -0.705327	 -0.319946	 0.002844	 0.873038	 -0.372306	 0.314936	 2
1463571697.444	 13	 1.135309	 -2.113813	 -0.675097	 2.306768	 -0.717439	 -0.322974	 -0.002848	 0.867701	 -0.377790	 0.323051	 2
1463571697.454	 13	 1.631199	 -1.636606	 -0.523636	 2.282343	 -0.731613	 -0.333217	 -0.006138	 0.861924	 -0.385199	 0.329654	 2
1463571697.474	 14	 2.546079	 -1.116023	 -0.527823	 2.231896	 -0.767332	 -0.371244	 -0.007885	 0.849059	 -0.405674	 0.338328	 2
1463571697.484	 14	 2.625508	 -0.950922	 -0.609042	 2.204578	 -0.787890	 -0.395876	 -0.007920	 0.841895	 -0.417782	 0.341479	 2
1463571697.494	 14	 2.181686	 -0.729016	 -0.841844	 2.182142	 -0.807695	 -0.416391	 -0.008835	 0.835629	 -0.428798	 0.343189	 2
1463571697.504	 14	 1.530147	 -0.791234	 -1.177794	 2.166362	 -0.826315	 -0.427714	 -0.012108	 0.830608	 -0.437696	 0.344043	 2
1463571697.514	 14	 0.970470	 -1.084329	 -1.486851	 2.154925	 -0.844168	 -0.429582	 -0.018291	 0.826348	 -0.444602	 0.345171	 2
1463571697.524	 14	 0.662055	 -1.325624	 -1.737931	 2.145785	 -0.862165	 -0.424794	 -0.026812	 0.822338	 -0.450337	 0.346752	 2
1463571697.534	 14	 0.633155	 -1.395121	 -1.946149	 2.137799	 -0.881476	 -0.417038	 -0.036652	 0.818205	 -0.455967	 0.348269	 2
1463571697.544	 14	 0.868809	 -1.241144	 -2.178039	 2.130639	 -0.903668	 -0.409680	 -0.046888	 0.813690	 -0.462640	 0.348819	 2
1463571697.554	 14	 1.261006	 -0.891381	 -2.188856	 2.122993	 -0.928459	 -0.406838	 -0.056085	 0.808689	 -0.470924	 0.348005	 2
1463571697.564	 14	 1.605564	 -0.541835	 -2.102277	 2.114094	 -0.954541	 -0.410159	 -0.063482	 0.803348	 -0.480571	 0.345911	 2
1463571697.574	 14	 1.871758	 -0.332090	 -1.965160	 2.102635	 -0.981033	 -0.419476	 -0.069307	 0.797632	 -0.491145	 0.343156	 2
1463571697.584	 14	 2.071988	 -0.159750	 -1.732963	 2.087472	 -1.006667	 -0.435195	 -0.073451	 0.791624	 -0.502179	 0.340223	 2
1463571697.594	 14	 2.195457	 -0.147158	 -1.560202	 2.067842	 -1.031183	 -0.456617	 -0.076423	 0.785276	 -0.513398	 0.337526	 2
1463571697.604	 14	 2.150704	 -0.251300	 -1.419035	 2.044289	 -1.054201	 -0.481308	 -0.079034	 0.778696	 -0.524261	 0.335465	 2
1463571697.614	 14	 1.944606	 -0.410169	 -1.263117	 2.018734	 -1.074758	 -0.506338	 -0.081699	 0.772265	 -0.534053	 0.334246	 2
1463571697.624	 14	 1.722301	 -0.603098	 -1.116968	 1.991945	 -1.092692	 -0.530358	 -0.084667	 0.766079	 -0.542573	 0.334018	 2
1463571697.634	 14	 1.550407	 -0.727169	 -0.988734	 1.964156	 -1.108333	 -0.553645	 -0.087816	 0.760127	 -0.550033	 0.334604	 2
1463571697.644	 14	 1.463116	 -0.765537	 -0.888149	 1.935369	 -1.122260	 -0.577232	 -0.090887	 0.754353	 -0.556818	 0.335626	 2
1463571697.654	 14	 1.433437	 -0.775628	 -0.825105	 1.905155	 -1.135057	 -0.602114	 -0.093779	 0.748639	 -0.563275	 0.336847	 2
1463571697.664	 14	 1.425827	 -0.820149	 -0.807335	 1.873071	 -1.147204	 -0.628566	 -0.096663	 0.742858	 -0.569577	 0.338232	 2
1463571697.674	 14	 1.376148	 -0.943395	 -0.809115	 1.838952	 -1.158912	 -0.655971	 -0.099891	 0.736924	 -0.575671	 0.339953	 2
1463571697.684	 14	 1.184495	 -1.097933	 -0.783306	 1.805044	 -1.169653	 -0.681287	 -0.103768	 0.731128	 -0.581017	 0.342204	 2
1463571697.694	 14	 0.948606	 -1.095215	 -0.797213	 1.774538	 -1.179525	 -0.702329	 -0.108142	 0.725870	 -0.585449	 0.344482	 2
1463571697.704	 14	 0.784843	 -0.924961	 -0.852820	 1.748989	 -1.189331	 -0.719401	 -0.112631	 0.721324	 -0.589321	 0.345987	 2
1463571697.714	 14	 0.741247	 -0.663204	 -0.855334	 1.726709	 -1.199033	 -0.735485	 -0.116593	 0.717363	 -0.593066	 0.346510	 2
1463571697.724	 14	 0.785540	 -0.372541	 -0.796529	 1.705444	 -1.208188	 -0.753496	 -0.119487	 0.713815	 -0.596973	 0.346143	 2
1463571697.734	 14	 0.814467	 -0.193326	 -0.711984	 1.684124	 -1.216495	 -0.773838	 -0.121387	 0.710550	 -0.600996	 0.345236	 2
1463571697.744	 14	 0.808462	 -0.235821	 -0.560989	 1.661638	 -1.223282	 -0.795529	 -0.122750	 0.707375	 -0.604774	 0.344675	 2
1463571697.754	 14	 0.788583	 -0.509038	 -0.404559	 1.636289	 -1.228323	 -0.817923	 -0.124240	 0.703956	 -0.608078	 0.345329	 2
1463571697.764	 14	 0.762754	 -0.908840	 -0.252454	 1.606990	 -1.231605	 -0.840449	 -0.126383	 0.700034	 -0.610772	 0.347761	 2
1463571697.774	 14	 0.753140	 -1.223951	 -0.148726	 1.574118	 -1.233459	 -0.863054	 -0.129193	 0.695600	 -0.612962	 0.351750	 2
1463571697.784	 14	 0.735468	 -1.384212	 -0.108499	 1.539349	 -1.234529	 -0.885549	 -0.132442	 0.690849	 -0.614856	 0.356567	 2
1463571697.794	 14	 0.628740	 -1.397628	 -0.094905	 1.506258	 -1.235174	 -0.905769	 -0.135893	 0.686230	 -0.616371	 0.361535	 2
1463571697.804	 14	 0.384388	 -1.381041	 -0.106478	 1.479224	 -1.235858	 -0.919762	 -0.139686	 0.682245	 -0.617160	 0.366255	 2
1463571697.814	 14	 0.025522	 -1.442747	 -0.107125	 1.461285	 -1.236819	 -0.923700	 -0.144223	 0.679181	 -0.616756	 0.370844	 2
1463571697.824	 14	 -0.331140	 -1.534912	 -0.053721	 1.452984	 -1.237820	 -0.916476	 -0.149587	 0.677063	 -0.614946	 0.375568	 2
1463571697.834	 14	 -0.575223	 -1.601143	 0.101258	 1.452237	 -1.237874	 -0.900459	 -0.155252	 0.675699	 -0.611868	 0.380717	 2
1463571697.844	 14	 -0.735448	 -1.615879	 0.350839	 1.457064	 -1.235865	 -0.878272	 -0.160554	 0.674960	 -0.607690	 0.386478	 2
1463571697.854	 14	 -0.905062	 -1.605945	 0.625243	 1.467022	 -1.231272	 -0.850655	 -0.165223	 0.674872	 -0.602398	 0.392894	 2
1463571697.864	 14	 -1.146728	 -1.485196	 0.898109	 1.484145	 -1.224061	 -0.816229	 -0.169158	 0.675781	 -0.595817	 0.399633	 2
1463571697.874	 14	 -1.347688	 -1.128253	 1.197330	 1.509556	 -1.213834	 -0.776107	 -0.171613	 0.678127	 -0.588103	 0.405991	 2
1463571697.884	 14	 -1.557828	 -0.715677	 1.537648	 1.542357	 -1.200111	 -0.732293	 -0.172150	 0.682066	 -0.579371	 0.411680	 2
1463571697.894	 14	 -1.811806	 -0.214549	 1.751281	 1.583391	 -1.183015	 -0.684412	 -0.170880	 0.687882	 -0.569484	 0.416301	 2
1463571697.904	 14	 -1.819062	 0.257933	 1.781319	 1.627067	 -1.164691	 -0.638569	 -0.168199	 0.694851	 -0.559565	 0.419260	 2
1463571697.914	 14	 -1.678125	 0.887721	 1.856292	 1.669697	 -1.145047	 -0.599808	 -0.163390	 0.702633	 -0.550316	 0.420431	 2
1463571697.924	 14	 -1.701247	 1.572287	 1.938533	 1.714551	 -1.123981	 -0.565845	 -0.156297	 0.711704	 -0.541477	 0.419346	 2
1463571697.934	 14	 -1.785795	 2.106210	 2.049748	 1.762943	 -1.101128	 -0.533969	 -0.147452	 0.722131	 -0.532414	 0.416318	 2
1463571697.944	 14	 -1.587315	 2.646047	 2.210776	 1.810096	 -1.076400	 -0.508992	 -0.136397	 0.733232	 -0.523660	 0.411760	 2
1463571697.954	 14	 -0.910902	 3.383153	 2.633787	 1.849884	 -1.049380	 -0.499983	 -0.121147	 0.744267	 -0.516484	 0.405753	 2
1463571697.964	 14	 0.059857	 4.209561	 3.170169	 1.877900	 -1.019715	 -0.513868	 -0.099823	 0.754439	 -0.511901	 0.398514	 2
1463571697.974	 14	 0.715089	 5.032440	 3.532349	 1.900778	 -0.988812	 -0.544153	 -0.073248	 0.763996	 -0.509402	 0.389172	 2
1463571697.984	 14	 0.967518	 5.376170	 3.806185	 1.922839	 -0.956608	 -0.581959	 -0.043516	 0.772958	 -0.507338	 0.378485	 2
1463571697.994	 14	 0.879321	 4.986241	 3.827837	 1.943730	 -0.923956	 -0.619629	 -0.013899	 0.780767	 -0.504473	 0.368397	 2
1463571698.004	 14	 0.658644	 4.089726	 3.607198	 1.960945	 -0.892550	 -0.652637	 0.012657	 0.786863	 -0.500598	 0.360677	 2
1463571698.014	 14	 0.351085	 3.128340	 3.352607	 1.973821	 -0.862736	 -0.679609	 0.035295	 0.791385	 -0.495805	 0.355866	 2
1463571698.024	 14	 0.016516	 2.229533	 3.209673	 1.982802	 -0.833502	 -0.700378	 0.054332	 0.794768	 -0.489931	 0.354061	 2
1463571698.034	 14	 -0.155856	 1.806515	 3.034584	 1.989489	 -0.804674	 -0.716888	 0.070972	 0.797439	 -0.483345	 0.354164	 2
1463571698.044	 14	 -0.088762	 1.691301	 2.867735	 1.995643	 -0.777802	 -0.732243	 0.086420	 0.799601	 -0.477087	 0.354340	 2
1463571698.064	 15	 0.305302	 1.903661	 2.684034	 2.007634	 -0.728438	 -0.767281	 0.117607	 0.802509	 -0.466482	 0.352904	 2
1463571698.074	 15	 0.590606	 2.124942	 2.513087	 2.014699	 -0.707505	 -0.787915	 0.133566	 0.803340	 -0.462754	 0.350234	 2
1463571698.084	 15	 0.905460	 2.338155	 2.268270	 2.022831	 -0.690000	 -0.810842	 0.149674	 0.803764	 -0.460376	 0.345853	 2
1463571698.094	 15	 1.225898	 2.486594	 1.893845	 2.031822	 -0.677165	 -0.835449	 0.165292	 0.803761	 -0.459637	 0.339676	 2
1463571698.104	 15	 1.465997	 2.559853	 1.533274	 2.041458	 -0.669080	 -0.860930	 0.180039	 0.803391	 -0.460412	 0.331918	 2
1463571698.114	 15	 1.622437	 2.326961	 1.162057	 2.050073	 -0.665158	 -0.886157	 0.193262	 0.802537	 -0.462450	 0.323611	 2
1463571698.124	 15	 1.725826	 1.653294	 0.855409	 2.053148	 -0.664836	 -0.910890	 0.203979	 0.800579	 -0.465999	 0.316718	 2
1463571698.134	 15	 1.516960	 1.003457	 0.628436	 2.051172	 -0.666235	 -0.932785	 0.211873	 0.797970	 -0.470099	 0.312027	 2
1463571698.144	 15	 1.222611	 0.456840	 0.520402	 2.046117	 -0.667279	 -0.950599	 0.217481	 0.795258	 -0.473746	 0.309567	 2
1463571698.154	 15	 1.059918	 -0.181017	 0.350690	 2.036901	 -0.668690	 -0.965273	 0.220713	 0.792210	 -0.477474	 0.309365	 2
1463571698.164	 15	 0.969469	 -0.887159	 0.180779	 2.021989	 -0.671127	 -0.977894	 0.221428	 0.788483	 -0.481848	 0.311588	 2
1463571698.174	 15	 0.816279	 -1.730683	 -0.038889	 2.000682	 -0.674569	 -0.987951	 0.219228	 0.784016	 -0.486841	 0.316613	 2
1463571698.184	 15	 0.574125	 -2.546351	 -0.120039	 1.972757	 -0.678306	 -0.994903	 0.214016	 0.778786	 -0.492118	 0.324822	 2
1463571698.194	 15	 0.236917	 -3.284020	 -0.044036	 1.939660	 -0.680078	 -0.998331	 0.206637	 0.772963	 -0.496695	 0.336338	 2
1463571698.204	 15	 -0.056428	 -3.864670	 0.141755	 1.902086	 -0.679329	 -0.998851	 0.197698	 0.766447	 -0.500363	 0.350871	 2
1463571698.214	 15	 -0.212670	 -4.457458	 0.469052	 1.859648	 -0.675147	 -0.998081	 0.188047	 0.758827	 -0.503115	 0.368369	 2
1463571698.224	 15	 -0.367798	 -5.033293	 0.787970	 1.811585	 -0.667374	 -0.996497	 0.177780	 0.749698	 -0.505023	 0.388972	 2
1463571698.234	 15	 -0.559591	 -5.372621	 0.998569	 1.761033	 -0.657024	 -0.992666	 0.166901	 0.739599	 -0.505764	 0.411509	 2
1463571698.244	 15	 -0.809541	 -5.602192	 1.213893	 1.709600	 -0.644408	 -0.985904	 0.155551	 0.728773	 -0.505084	 0.435413	 2
1463571698.254	 15	 -1.083258	 -5.590909	 1.338944	 1.659914	 -0.630126	 -0.975132	 0.143906	 0.717806	 -0.502630	 0.459793	 2
1463571698.264	 15	 -1.219004	 -5.360140	 1.279393	 1.613584	 -0.616374	 -0.961524	 0.132130	 0.707102	 -0.499060	 0.483206	 2
1463571698.274	 15	 -1.351094	 -5.069506	 1.262998	 1.571159	 -0.603522	 -0.945854	 0.120532	 0.696865	 -0.494595	 0.505200	 2
1463571698.284	 15	 -1.726219	 -4.880994	 1.439606	 1.533115	 -0.590085	 -0.926100	 0.109061	 0.687353	 -0.488304	 0.526508	 2
1463571698.294	 15	 -2.208120	 -4.724965	 1.640289	 1.499844	 -0.575187	 -0.899950	 0.097379	 0.678804	 -0.479278	 0.547755	 2
1463571698.304	 15	 -2.464652	 -4.556414	 1.605723	 1.470098	 -0.561107	 -0.869787	 0.085221	 0.670955	 -0.468713	 0.568212	 2
1463571698.314	 15	 -2.566526	 -4.420096	 1.588695	 1.442361	 -0.548285	 -0.837892	 0.072831	 0.663356	 -0.457399	 0.587742	 2
1463571698.324	 15	 -2.573707	 -4.253112	 1.732058	 1.416187	 -0.535231	 -0.805338	 0.061000	 0.655782	 -0.445302	 0.606577	 2
1463571698.334	 15	 -2.511788	 -4.020552	 1.999058	 1.391782	 -0.520446	 -0.772735	 0.050525	 0.648232	 -0.432256	 0.624817	 2
1463571698.344	 15	 -2.377684	 -3.726851	 2.366179	 1.369529	 -0.502748	 -0.740614	 0.042103	 0.640812	 -0.418166	 0.642436	 2
1463571698.354	 15	 -2.195290	 -3.432808	 2.800027	 1.349240	 -0.481153	 -0.709331	 0.036173	 0.633477	 -0.402950	 0.659568	 2
1463571698.364	 15	 -2.010816	 -3.115672	 3.192507	 1.331009	 -0.455688	 -0.678952	 0.032758	 0.626335	 -0.386675	 0.676102	 2
1463571698.374	 15	 -1.838451	 -2.785465	 3.475443	 1.314910	 -0.427241	 -0.649478	 0.031510	 0.619541	 -0.369595	 0.691792	 2
1463571698.384	 15	 -1.536440	 -2.545038	 3.457998	 1.299693	 -0.397746	 -0.622590	 0.031937	 0.612809	 -0.352850	 0.706358	 2
1463571698.394	 15	 -1.407283	 -2.332526	 3.481232	 1.285328	 -0.368484	 -0.597553	 0.033272	 0.606252	 -0.336574	 0.719771	 2
1463571698.404	 15	 -1.300327	 -2.332575	 3.810687	 1.270699	 -0.336736	 -0.572535	 0.035822	 0.599342	 -0.319460	 0.733111	 2
1463571698.414	 15	 -1.164205	 -2.287782	 4.175475	 1.255526	 -0.301423	 -0.547443	 0.039975	 0.591908	 -0.301199	 0.746543	 2
1463571698.424	 15	 -0.975805	 -2.173569	 4.454126	 1.240395	 -0.263058	 -0.522797	 0.045802	 0.584184	 -0.282120	 0.759631	 2
1463571698.434	 15	 -0.703873	 -2.128495	 4.619503	 1.224690	 -0.222372	 -0.499557	 0.053225	 0.575956	 -0.262824	 0.772247	 2
1463571698.444	 15	 -0.355157	 -2.226980	 4.673101	 1.206900	 -0.180193	 -0.478764	 0.062036	 0.566634	 -0.244038	 0.784553	 2
1463571698.454	 15	 0.052032	 -2.400907	 4.760659	 1.186240	 -0.136327	 -0.460715	 0.072341	 0.555817	 -0.225953	 0.796730	 2
1463571698.464	 15	 0.508174	 -2.612131	 4.858101	 1.162359	 -0.090200	 -0.445590	 0.084433	 0.543223	 -0.208631	 0.808859	 2
1463571698.474	 15	 0.951531	 -2.774776	 4.902818	 1.135801	 -0.042079	 -0.433222	 0.098251	 0.528990	 -0.192196	 0.820717	 2
1463571698.484	 15	 1.329080	 -2.800549	 4.874778	 1.107921	 0.007329	 -0.423174	 0.113525	 0.513670	 -0.176718	 0.831881	 2
1463571698.494	 15	 1.638864	 -2.663817	 4.788093	 1.080633	 0.057261	 -0.414996	 0.129953	 0.498110	 -0.162183	 0.841841	 2
1463571698.504	 15	 1.915257	 -2.543365	 4.642929	 1.054416	 0.107194	 -0.408588	 0.147259	 0.482560	 -0.148684	 0.850496	 2
1463571698.514	 15	 2.142399	 -2.401973	 4.432312	 1.029388	 0.156478	 -0.403922	 0.165093	 0.467141	 -0.136376	 0.857861	 2
1463571698.524	 15	 2.328063	 -2.188497	 4.171570	 1.006450	 0.204541	 -0.401058	 0.183201	 0.452306	 -0.125335	 0.863799	 2
1463571698.534	 15	 2.477299	 -2.008919	 3.915093	 0.985688	 0.251181	 -0.399903	 0.201389	 0.438136	 -0.115522	 0.868409	 2
1463571698.544	 15	 2.925627	 -2.310378	 4.033078	 0.963861	 0.299590	 -0.400671	 0.220794	 0.422819	 -0.106572	 0.872420	 2
1463571698.554	 15	 3.155103	 -2.063351	 4.016327	 0.942867	 0.350874	 -0.402950	 0.241844	 0.407029	 -0.097884	 0.875361	 2
1463571698.564	 15	 2.802059	 -1.414686	 3.561831	 0.927621	 0.397746	 -0.404462	 0.261175	 0.394115	 -0.089514	 0.876612	 2
1463571698.574	 15	 2.630516	 -1.002439	 3.139789	 0.917622	 0.439565	 -0.406290	 0.278653	 0.383904	 -0.081964	 0.876500	 2
1463571698.584	 15	 2.520046	 -1.099959	 2.847825	 0.908256	 0.478287	 -0.408929	 0.294964	 0.374097	 -0.075525	 0.875982	 2
1463571698.604	 16	 2.047228	 -1.837914	 2.096910	 0.880572	 0.543745	 -0.414575	 0.322217	 0.351760	 -0.067341	 0.876303	 2
1463571698.614	 16	 1.784814	 -2.380379	 1.694486	 0.859800	 0.569345	 -0.417700	 0.332676	 0.338384	 -0.066378	 0.877734	 2
1463571698.624	 16	 1.490294	 -2.894617	 1.504691	 0.833112	 0.591229	 -0.419542	 0.341176	 0.323100	 -0.066878	 0.880189	 2
1463571698.634	 16	 1.226450	 -3.312597	 1.400785	 0.800699	 0.610458	 -0.419094	 0.348020	 0.306026	 -0.068154	 0.883507	 2
1463571698.644	 16	 0.979584	 -3.510584	 1.279596	 0.764541	 0.627074	 -0.416729	 0.353376	 0.287971	 -0.070010	 0.887297	 2
1463571698.654	 16	 0.824598	 -3.459961	 1.157788	 0.727527	 0.641417	 -0.413119	 0.357599	 0.270052	 -0.072124	 0.891063	 2
1463571698.664	 16	 0.785132	 -3.157343	 1.071423	 0.692684	 0.654494	 -0.409197	 0.361354	 0.253310	 -0.074128	 0.894294	 2
1463571698.674	 16	 0.842049	 -2.595159	 1.030331	 0.662914	 0.667413	 -0.405486	 0.365286	 0.238808	 -0.075486	 0.896571	 2
1463571698.684	 16	 0.983867	 -1.945674	 1.035140	 0.639917	 0.681150	 -0.402320	 0.369918	 0.227130	 -0.075829	 0.897676	 2
1463571698.694	 16	 1.174200	 -1.480858	 1.114543	 0.622268	 0.696689	 -0.399486	 0.375588	 0.217554	 -0.075125	 0.897753	 2
1463571698.704	 16	 1.271891	 -1.190278	 1.183539	 0.607806	 0.713711	 -0.396495	 0.382017	 0.209254	 -0.073599	 0.897139	 2
1463571698.714	 16	 1.201268	 -1.040850	 1.227109	 0.594369	 0.730718	 -0.392366	 0.388382	 0.201664	 -0.071464	 0.896317	 2
1463571698.724	 16	 1.049750	 -1.048805	 1.242210	 0.580116	 0.746657	 -0.386586	 0.394129	 0.194215	 -0.069019	 0.895645	 2
1463571698.734	 16	 0.862341	 -1.191802	 1.247839	 0.563393	 0.761058	 -0.378968	 0.399001	 0.186282	 -0.066587	 0.895357	 2
1463571698.744	 16	 0.663586	 -1.304526	 1.316730	 0.543659	 0.773964	 -0.368857	 0.402969	 0.177756	 -0.063978	 0.895503	 2
1463571698.754	 16	 0.453329	 -1.531555	 1.312185	 0.520200	 0.785011	 -0.356478	 0.405912	 0.168320	 -0.061491	 0.896171	 2
1463571698.764	 16	 0.285890	 -1.650913	 1.212350	 0.494534	 0.793873	 -0.343283	 0.407882	 0.158386	 -0.059499	 0.897221	 2
1463571698.774	 16	 0.194321	 -1.682786	 1.033803	 0.468959	 0.800755	 -0.330968	 0.409167	 0.148590	 -0.058231	 0.898394	 2
1463571698.784	 16	 0.185784	 -1.749022	 0.843555	 0.444180	 0.806345	 -0.320641	 0.410138	 0.138917	 -0.057917	 0.899519	 2
1463571698.794	 16	 0.224678	 -1.740718	 0.684495	 0.420841	 0.811285	 -0.312454	 0.411067	 0.129540	 -0.058394	 0.900463	 2
1463571698.804	 16	 0.291932	 -1.635425	 0.564458	 0.399544	 0.816155	 -0.306121	 0.412177	 0.120720	 -0.059329	 0.901120	 2
1463571698.814	 16	 0.393856	 -1.430165	 0.456773	 0.381439	 0.821384	 -0.301640	 0.413669	 0.112931	 -0.060433	 0.901373	 2
1463571698.824	 16	 0.477795	 -1.255149	 0.424632	 0.366021	 0.827228	 -0.298267	 0.415583	 0.106074	 -0.061446	 0.901257	 2
1463571698.834	 16	 0.504354	 -1.098496	 0.477015	 0.351814	 0.833543	 -0.294469	 0.417727	 0.099819	 -0.062000	 0.900942	 2
1463571698.844	 16	 0.488225	 -0.935395	 0.521304	 0.338599	 0.839929	 -0.289762	 0.419900	 0.094215	 -0.061965	 0.900537	 2
1463571698.854	 16	 0.453445	 -0.843814	 0.522459	 0.326111	 0.846003	 -0.284585	 0.421953	 0.089088	 -0.061634	 0.900123	 2
1463571698.864	 16	 0.450376	 -0.803494	 0.507940	 0.314059	 0.851876	 -0.279351	 0.423944	 0.084210	 -0.061237	 0.899683	 2
1463571698.874	 16	 0.496300	 -0.754002	 0.457910	 0.302871	 0.857900	 -0.274724	 0.426069	 0.079598	 -0.060947	 0.899119	 2
1463571698.884	 16	 0.587503	 -0.586763	 0.383003	 0.293941	 0.864450	 -0.271361	 0.428555	 0.075702	 -0.060721	 0.898289	 2
1463571698.894	 16	 0.740350	 -0.237903	 0.297526	 0.289337	 0.872050	 -0.269729	 0.431703	 0.073296	 -0.060270	 0.897010	 2
1463571698.904	 16	 0.926631	 0.171601	 0.228309	 0.290282	 0.881186	 -0.270009	 0.435760	 0.072831	 -0.059340	 0.895147	 2
1463571698.914	 16	 1.064381	 0.441132	 0.197644	 0.295421	 0.891678	 -0.271654	 0.440572	 0.073809	 -0.057964	 0.892798	 2
1463571698.924	 16	 1.089327	 0.499784	 0.228880	 0.301817	 0.902739	 -0.273480	 0.445656	 0.075233	 -0.056304	 0.890259	 2
1463571698.934	 16	 1.024957	 0.374926	 0.292225	 0.306620	 0.913525	 -0.274268	 0.450516	 0.076183	 -0.054531	 0.887839	 2
1463571698.944	 16	 0.932909	 0.080670	 0.305208	 0.308197	 0.923581	 -0.274228	 0.454922	 0.075944	 -0.053172	 0.885692	 2
1463571698.954	 16	 0.787067	 -0.246909	 0.248010	 0.306497	 0.932272	 -0.274178	 0.458639	 0.074384	 -0.052687	 0.883935	 2
1463571698.964	 16	 0.613505	 -0.539559	 0.156209	 0.302147	 0.939084	 -0.274610	 0.461484	 0.071722	 -0.053214	 0.882642	 2
1463571698.974	 16	 0.465878	 -0.767394	 0.066911	 0.294337	 0.942712	 -0.274440	 0.462835	 0.067975	 -0.054594	 0.882147	 2
1463571698.984	 16	 0.379627	 -0.845713	 -0.060958	 0.287933	 0.946447	 -0.276858	 0.464350	 0.064243	 -0.056790	 0.881491	 2
1463571698.994	 16	 0.333927	 -0.722916	 -0.159599	 0.283482	 0.949344	 -0.280805	 0.465594	 0.061094	 -0.059292	 0.880894	 2
1463571699.004	 16	 0.300783	 -0.463696	 -0.214450	 0.282074	 0.951742	 -0.285628	 0.466731	 0.059125	 -0.061518	 0.880274	 2
1463571699.014	 16	 0.255377	 -0.116209	 -0.255434	 0.235335	 0.957017	 -0.250965	 0.466719	 0.046162	 -0.056698	 0.881378	 2
1463571699.024	 16	 0.177122	 0.278473	 -0.275592	 0.241570	 0.958293	 -0.256374	 0.467577	 0.047540	 -0.057520	 0.880797	 2
1463571699.034	 16	 0.079296	 0.572381	 -0.266677	 0.250781	 0.958667	 -0.261411	 0.468127	 0.050385	 -0.057552	 0.880344	 2
1463571699.044	 16	 -0.075663	 0.734656	 -0.245699	 0.261122	 0.957700	 -0.265484	 0.468112	 0.054067	 -0.057008	 0.880170	 2
1463571699.054	 16	 -0.222658	 0.771432	 -0.220652	 0.272686	 0.952380	 -0.269617	 0.466258	 0.058667	 -0.056599	 0.880885	 2
1463571699.064	 16	 -0.305134	 0.680434	 -0.188807	 0.281340	 0.949062	 -0.271519	 0.465125	 0.062337	 -0.055726	 0.881288	 2
1463571699.074	 16	 -0.326345	 0.473173	 -0.177762	 0.287763	 0.945444	 -0.272877	 0.463783	 0.065185	 -0.055169	 0.881823	 2
1463571699.084	 16	 -0.263707	 0.177312	 -0.176798	 0.291530	 0.942204	 -0.274387	 0.462537	 0.066797	 -0.055269	 0.882351	 2
1463571699.094	 16	 -0.102735	 -0.078484	 -0.184842	 0.293107	 0.940258	 -0.276596	 0.461814	 0.067163	 -0.056064	 0.882652	 2
1463571699.104	 16	 0.123852	 -0.203830	 -0.217823	 0.294287	 0.940273	 -0.280308	 0.461978	 0.066826	 -0.057428	 0.882504	 2
1463571699.114	 16	 0.348040	 -0.174812	 -0.232294	 0.296583	 0.942424	 -0.285519	 0.463147	 0.066428	 -0.058988	 0.881818	 2
1463571699.124	 16	 0.503694	 -0.004888	 -0.204358	 0.300785	 0.946294	 -0.291371	 0.465134	 0.066547	 -0.060212	 0.880679	 2
1463571699.134	 16	 0.539431	 0.262570	 -0.122249	 0.306906	 0.950999	 -0.296532	 0.467515	 0.067573	 -0.060587	 0.879314	 2
1463571699.144	 16	 0.446001	 0.498697	 -0.012662	 0.313964	 0.955416	 -0.299723	 0.469731	 0.069484	 -0.059887	 0.878031	 2
1463571699.154	 16	 0.241945	 0.593616	 0.086983	 0.320215	 0.958448	 -0.300290	 0.471233	 0.071786	 -0.058352	 0.877144	 2
1463571699.164	 16	 -0.028033	 0.539600	 0.155974	 0.324106	 0.959280	 -0.298171	 0.471623	 0.073907	 -0.056419	 0.876885	 2
1463571699.174	 16	 -0.288020	 0.373597	 0.186534	 0.324828	 0.957730	 -0.293919	 0.470822	 0.075382	 -0.054546	 0.877308	 2
1463571699.184	 16	 -0.485335	 0.175248	 0.182143	 0.322598	 0.954135	 -0.288447	 0.469015	 0.076049	 -0.053041	 0.878310	 2
1463571699.194	 16	 -0.573733	 0.002009	 0.164249	 0.318309	 0.949350	 -0.282654	 0.466629	 0.075991	 -0.051988	 0.879647	 2
1463571699.204	 16	 -0.530654	 -0.129046	 0.149865	 0.312925	 0.944602	 -0.277236	 0.464243	 0.075342	 -0.051334	 0.881003	 2
1463571699.214	 16	 -0.386796	 -0.191007	 0.170417	 0.307189	 0.941027	 -0.272394	 0.462374	 0.074275	 -0.050882	 0.882103	 2
1463571699.224	 16	 -0.200619	 -0.159028	 0.255420	 0.301375	 0.939336	 -0.267356	 0.461311	 0.073031	 -0.050166	 0.882804	 2
1463571699.234	 16	 0.020361	 0.006902	 0.345630	 0.296623	 0.939963	 -0.261990	 0.461269	 0.072113	 -0.048833	 0.882975	 2
1463571699.244	 16	 0.195854	 0.227471	 0.471914	 0.293243	 0.942726	 -0.255647	 0.462157	 0.071837	 -0.046555	 0.882657	 2
1463571699.254	 16	 0.293134	 0.380222	 0.601446	 0.290219	 0.947001	 -0.247647	 0.463652	 0.071978	 -0.043330	 0.882025	 2
1463571699.264	 16	 0.305655	 0.469128	 0.692754	 0.286952	 0.951851	 -0.238084	 0.465338	 0.072342	 -0.039432	 0.881290	 2
1463571699.274	 16	 0.279151	 0.457925	 0.750432	 0.282759	 0.956684	 -0.227212	 0.466958	 0.072626	 -0.035190	 0.880589	 2
1463571699.284	 16	 0.221062	 0.345480	 0.768009	 0.277024	 0.961082	 -0.215559	 0.468345	 0.072473	 -0.031021	 0.880022	 2
1463571699.294	 16	 0.151732	 0.155056	 0.734868	 0.269414	 0.964724	 -0.203777	 0.469388	 0.071605	 -0.027316	 0.879660	 2
1463571699.304	 16	 0.087481	 -0.065375	 0.672628	 0.260082	 0.967519	 -0.192556	 0.470083	 0.069930	 -0.024346	 0.879511	 2
1463571699.314	 16	 0.061724	 -0.257309	 0.595397	 0.249522	 0.969693	 -0.182319	 0.470552	 0.067540	 -0.022159	 0.879504	 2
1463571699.324	 16	 0.087546	 -0.365445	 0.507839	 0.238824	 0.971733	 -0.173549	 0.471034	 0.064763	 -0.020670	 0.879492	 2
1463571699.334	 16	 0.150275	 -0.350235	 0.430700	 0.229273	 0.974056	 -0.166357	 0.471721	 0.062109	 -0.019593	 0.879340	 2
1463571699.344	 16	 0.227442	 -0.264447	 0.411642	 0.221132	 0.977012	 -0.160006	 0.472736	 0.059846	 -0.018521	 0.878974	 2
1463571699.354	 16	 0.296502	 -0.137742	 0.454835	 0.213923	 0.980697	 -0.153395	 0.474081	 0.058023	 -0.017080	 0.878401	 2
1463571699.364	 16	 0.346665	 0.016960	 0.541099	 0.207155	 0.985062	 -0.145520	 0.475702	 0.056671	 -0.014951	 0.877652	 2
1463571699.374	 16	 0.369801	 0.105733	 0.618458	 0.200274	 0.989866	 -0.136176	 0.477484	 0.055616	 -0.012198	 0.876794	 2
1463571699.384	 16	 0.348515	 0.090082	 0.651537	 0.192649	 0.994645	 -0.125868	 0.479238	 0.054493	 -0.009225	 0.875943	 2
1463571699.394	 16	 0.276521	 -0.003400	 0.638505	 0.183906	 0.998773	 -0.115230	 0.480715	 0.053016	 -0.006437	 0.875249	 2
1463571699.404	 16	 0.162425	 -0.133485	 0.547698	 0.174677	 1.001678	 -0.105388	 0.481698	 0.051215	 -0.004199	 0.874830	 2
1463571699.414	 16	 0.074467	 -0.355318	 0.429165	 0.164880	 1.003391	 -0.097296	 0.482223	 0.048807	 -0.002937	 0.874683	 2
1463571699.424	 16	 0.015645	 -0.513379	 0.316302	 0.154815	 1.004222	 -0.091056	 0.482424	 0.045876	 -0.002596	 0.874732	 2
1463571699.434	 16	 0.009549	 -0.595938	 0.222865	 0.145278	 1.004656	 -0.086593	 0.482501	 0.042766	 -0.002926	 0.874846	 2
1463571699.444	 16	 0.059148	 -0.639276	 0.133572	 0.136654	 1.005304	 -0.083832	 0.482712	 0.039636	 -0.003773	 0.874874	 2
