% Gyrometer data recorded with 'snsrlog'
% 
% 
% Label description:
% 	 0: Default Label
% 	 1: still_drop
% 	 2: walk_drop
% 	 3: other
% 	 4: dtw_same
% 	 5: dtw_diff
% 	 6: delete
% 	 7: steal
% 
% Column description:
% 	 1: Seconds.milliseconds since 1970
% 	 2: Number of skipped measurements
% 	 3: Gyro X
% 	 4: Gyro Y
% 	 5: Gyro Z
% 	 6: Roll of the device
% 	 7: Pitch of the device
% 	 8: Yaw of the device
% 	 9: Quaternion X
% 	 10: Quaternion Y
% 	 11: Quaternion Z
% 	 12: Quaternion W
% 	 13: Label used for the current sample
% 
% 
1463624292.465	 0	 -0.396300	 1.990545	 -1.824126	 0.243321	 0.714116	 0.079814	 0.342123	 0.127457	 0.079488	 0.927571	 1
1463624292.475	 0	 -0.452730	 2.003772	 -2.076097	 0.279312	 0.704744	 0.055365	 0.338018	 0.140059	 0.073749	 0.927733	 1
1463624292.485	 0	 -0.673150	 1.886309	 -2.082731	 0.313809	 0.692813	 0.031588	 0.332986	 0.152257	 0.067720	 0.928090	 1
1463624292.495	 0	 -0.971145	 1.856138	 -2.110259	 0.346352	 0.677519	 0.009696	 0.326555	 0.164104	 0.061765	 0.928772	 1
1463624292.515	 1	 -1.467935	 1.900869	 -2.302683	 0.407499	 0.637099	 -0.030438	 0.309600	 0.187473	 0.049211	 0.930903	 1
1463624292.525	 1	 -1.630039	 2.239857	 -2.410022	 0.439869	 0.612779	 -0.049172	 0.299377	 0.200706	 0.042909	 0.931799	 1
1463624292.535	 1	 -1.732200	 2.776018	 -2.437182	 0.475975	 0.586669	 -0.066495	 0.288343	 0.216212	 0.037203	 0.932055	 1
1463624292.545	 1	 -1.741866	 3.398626	 -2.386543	 0.516652	 0.559886	 -0.081760	 0.276944	 0.234395	 0.032551	 0.931290	 1
1463624292.555	 1	 -1.644736	 4.003140	 -2.294370	 0.562105	 0.533624	 -0.094992	 0.265730	 0.255224	 0.029046	 0.929196	 1
1463624292.565	 1	 -1.480410	 4.360811	 -2.186963	 0.610799	 0.508687	 -0.106536	 0.255120	 0.277812	 0.026400	 0.925763	 1
1463624292.575	 1	 -1.301787	 4.361027	 -2.085137	 0.659464	 0.485344	 -0.116776	 0.245306	 0.300500	 0.024080	 0.921382	 1
1463624292.585	 1	 -1.129519	 4.160110	 -2.001114	 0.705850	 0.463511	 -0.126091	 0.236296	 0.322155	 0.021692	 0.916466	 1
1463624292.595	 1	 -0.985487	 3.867699	 -1.931551	 0.749148	 0.442951	 -0.134743	 0.228004	 0.342367	 0.019067	 0.911282	 1
1463624292.605	 1	 -0.909172	 3.481810	 -1.872927	 0.788223	 0.423197	 -0.142597	 0.220174	 0.360655	 0.016132	 0.906196	 1
1463624292.615	 1	 -0.909691	 3.134112	 -1.859105	 0.823133	 0.403524	 -0.149522	 0.212423	 0.377118	 0.012878	 0.901384	 1
1463624292.625	 1	 -0.938135	 3.026425	 -1.906754	 0.855832	 0.383226	 -0.155674	 0.204424	 0.392674	 0.009338	 0.896622	 1
1463624292.635	 1	 -0.909174	 3.177400	 -2.049479	 0.889348	 0.361927	 -0.161944	 0.196167	 0.408611	 0.005341	 0.891362	 1
1463624292.645	 1	 -0.790838	 3.563665	 -2.270725	 0.926489	 0.339404	 -0.169523	 0.187834	 0.426062	 0.000548	 0.884980	 1
1463624292.665	 2	 -0.469661	 4.482710	 -2.568712	 1.016054	 0.291887	 -0.188869	 0.171876	 0.467157	 -0.011082	 0.867237	 1
1463624292.675	 2	 -0.414414	 4.600207	 -2.770594	 1.064890	 0.266340	 -0.199360	 0.163899	 0.489265	 -0.017912	 0.856409	 1
1463624292.695	 3	 -0.644533	 3.548122	 -3.034163	 1.150308	 0.208686	 -0.216839	 0.145424	 0.528372	 -0.033980	 0.835775	 1
1463624292.705	 3	 -0.884389	 2.733797	 -3.075888	 1.180543	 0.177264	 -0.221436	 0.134345	 0.542882	 -0.042470	 0.827905	 1
1463624292.715	 3	 -1.104615	 2.004539	 -3.112730	 1.202568	 0.144554	 -0.223134	 0.121997	 0.554087	 -0.050971	 0.821892	 1
1463624292.725	 3	 -1.174515	 1.567555	 -3.265394	 1.219155	 0.110291	 -0.223481	 0.108652	 0.563047	 -0.059926	 0.817057	 1
1463624292.735	 3	 -0.909234	 1.416407	 -3.467342	 1.233791	 0.074811	 -0.225745	 0.095423	 0.570987	 -0.070311	 0.812358	 1
1463624292.745	 3	 -0.555042	 1.504807	 -3.600693	 1.248670	 0.038890	 -0.231196	 0.083081	 0.578727	 -0.082274	 0.807096	 1
1463624292.755	 3	 -0.203545	 2.021914	 -3.578691	 1.267523	 0.003809	 -0.239539	 0.072279	 0.587753	 -0.095160	 0.800166	 1
1463624292.765	 3	 0.124544	 2.871042	 -3.395664	 1.293784	 -0.029109	 -0.249826	 0.063560	 0.599397	 -0.108110	 0.790567	 1
1463624292.775	 3	 0.491039	 3.842880	 -3.154966	 1.329250	 -0.059162	 -0.261916	 0.057422	 0.614256	 -0.120829	 0.777684	 1
1463624292.785	 3	 0.937672	 4.723454	 -2.987600	 1.373295	 -0.086864	 -0.276578	 0.054048	 0.631933	 -0.133771	 0.761476	 1
1463624292.795	 3	 1.425331	 5.340434	 -2.925356	 1.423593	 -0.113566	 -0.294533	 0.053185	 0.651389	 -0.147596	 0.742347	 1
1463624292.805	 3	 1.884988	 5.508159	 -2.930995	 1.475808	 -0.140467	 -0.315864	 0.054270	 0.670894	 -0.162701	 0.721446	 1
1463624292.815	 3	 2.229817	 5.358880	 -2.989740	 1.526214	 -0.168601	 -0.339648	 0.056423	 0.689093	 -0.179067	 0.699931	 1
1463624292.825	 3	 2.507903	 5.105405	 -3.070189	 1.573288	 -0.198615	 -0.365119	 0.059045	 0.705503	 -0.196608	 0.678325	 1
1463624292.835	 3	 2.742279	 4.835267	 -3.119505	 1.616610	 -0.230336	 -0.391801	 0.061967	 0.720038	 -0.215065	 0.656851	 1
1463624292.845	 3	 2.991718	 4.614868	 -3.197266	 1.656428	 -0.263937	 -0.419755	 0.065130	 0.732831	 -0.234468	 0.635407	 1
1463624292.855	 3	 3.242371	 4.414767	 -3.262058	 1.692911	 -0.299568	 -0.449181	 0.068527	 0.743974	 -0.254876	 0.613877	 1
1463624292.865	 3	 3.410020	 4.188974	 -3.236844	 1.725853	 -0.336418	 -0.479631	 0.072169	 0.753446	 -0.275817	 0.592483	 1
1463624292.875	 3	 3.433691	 3.913150	 -3.128777	 1.755218	 -0.373337	 -0.509949	 0.075887	 0.761324	 -0.296507	 0.571586	 1
1463624292.885	 3	 3.589959	 3.480475	 -3.036114	 1.779309	 -0.410253	 -0.541072	 0.079665	 0.767181	 -0.317236	 0.551768	 1
1463624292.895	 3	 3.777361	 2.875283	 -2.960248	 1.795950	 -0.447377	 -0.574108	 0.083323	 0.770519	 -0.338433	 0.533686	 1
1463624292.905	 3	 3.856035	 2.074667	 -2.889516	 1.803311	 -0.484439	 -0.608599	 0.086201	 0.771055	 -0.359926	 0.518167	 1
1463624292.915	 3	 3.806482	 1.193983	 -2.765126	 1.800516	 -0.520462	 -0.643749	 0.087828	 0.768806	 -0.381202	 0.505874	 1
1463624292.925	 3	 3.642904	 0.353998	 -2.647889	 1.788228	 -0.554732	 -0.678717	 0.087922	 0.764170	 -0.401799	 0.496861	 1
1463624292.935	 3	 3.370444	 -0.494163	 -2.528715	 1.767142	 -0.586888	 -0.712522	 0.086103	 0.757501	 -0.421355	 0.491161	 1
1463624292.945	 3	 3.002608	 -1.225888	 -2.378852	 1.738690	 -0.616301	 -0.744142	 0.082300	 0.749271	 -0.439392	 0.488624	 1
1463624292.955	 3	 2.611682	 -1.728187	 -2.134997	 1.705439	 -0.642169	 -0.773141	 0.077089	 0.740139	 -0.455503	 0.488639	 1
1463624292.975	 4	 2.043271	 -2.118260	 -1.301317	 1.633159	 -0.679298	 -0.825014	 0.066510	 0.720986	 -0.481266	 0.494104	 1
1463624292.985	 4	 1.943614	 -2.144364	 -0.834954	 1.596079	 -0.689621	 -0.849729	 0.062762	 0.711205	 -0.491323	 0.498849	 1
1463624292.995	 4	 1.966691	 -2.062197	 -0.495478	 1.559005	 -0.695463	 -0.875078	 0.060469	 0.701297	 -0.500301	 0.504207	 1
1463624293.005	 4	 1.960378	 -1.995754	 -0.282718	 1.522383	 -0.698150	 -0.900857	 0.059252	 0.691342	 -0.508586	 0.509781	 1
1463624293.015	 4	 1.883178	 -1.952071	 -0.156945	 1.486718	 -0.698741	 -0.925830	 0.058474	 0.681492	 -0.516175	 0.515474	 1
1463624293.025	 4	 1.763279	 -1.932538	 -0.005447	 1.452291	 -0.697406	 -0.949156	 0.057907	 0.671815	 -0.522925	 0.521403	 1
1463624293.035	 4	 1.656991	 -1.788218	 0.199322	 1.420767	 -0.693122	 -0.970363	 0.058263	 0.662658	 -0.528480	 0.527445	 1
1463624293.045	 4	 1.361507	 -1.720870	 0.419937	 1.392108	 -0.687124	 -0.988179	 0.058733	 0.654101	 -0.532798	 0.533694	 1
1463624293.055	 4	 0.889012	 -1.596865	 0.608516	 1.368572	 -0.679680	 -0.999697	 0.058951	 0.646852	 -0.535079	 0.540183	 1
1463624293.065	 4	 0.213074	 -1.583167	 0.757341	 1.350905	 -0.671795	 -1.002670	 0.058115	 0.641295	 -0.534840	 0.547092	 1
1463624293.075	 4	 -0.435900	 -1.523688	 0.923409	 1.339118	 -0.663922	 -0.996588	 0.055966	 0.637534	 -0.531952	 0.554478	 1
1463624293.085	 4	 -0.727139	 -1.292067	 1.211593	 1.332753	 -0.654493	 -0.984889	 0.054088	 0.635246	 -0.527000	 0.561969	 1
1463624293.095	 4	 -0.663956	 -0.832606	 1.527587	 1.330815	 -0.642060	 -0.972090	 0.054184	 0.633946	 -0.520952	 0.569022	 1
1463624293.105	 4	 -0.437344	 -0.288989	 1.781126	 1.333233	 -0.626461	 -0.961035	 0.057165	 0.633568	 -0.514557	 0.574938	 1
1463624293.115	 4	 -0.294041	 0.188484	 1.826952	 1.339100	 -0.609415	 -0.951990	 0.062197	 0.634023	 -0.508243	 0.579513	 1
1463624293.125	 4	 -0.348677	 0.519201	 1.649325	 1.348424	 -0.593516	 -0.943496	 0.067812	 0.635601	 -0.502108	 0.582495	 1
1463624293.135	 4	 -0.505838	 0.740585	 1.313841	 1.360329	 -0.580793	 -0.934419	 0.072647	 0.638273	 -0.496289	 0.583976	 1
1463624293.145	 4	 -0.562527	 0.977778	 0.998945	 1.374489	 -0.571478	 -0.925295	 0.076691	 0.641943	 -0.491035	 0.583877	 1
1463624293.155	 4	 -0.452287	 1.366975	 0.885439	 1.391101	 -0.563536	 -0.917616	 0.081223	 0.646418	 -0.486344	 0.582251	 1
1463624293.165	 4	 -0.190444	 1.922288	 0.859551	 1.411436	 -0.555461	 -0.912807	 0.087565	 0.651857	 -0.482222	 0.578685	 1
1463624293.175	 4	 0.191063	 2.528121	 0.808578	 1.435342	 -0.547190	 -0.912480	 0.096232	 0.658087	 -0.479072	 0.572845	 1
1463624293.185	 4	 0.540671	 3.066770	 0.867032	 1.462653	 -0.538312	 -0.916564	 0.107330	 0.664941	 -0.476694	 0.564887	 1
1463624293.195	 4	 0.833009	 3.355437	 1.044089	 1.491755	 -0.527683	 -0.924288	 0.120647	 0.671814	 -0.474566	 0.555784	 1
1463624293.205	 4	 1.099113	 3.391199	 1.096459	 1.520215	 -0.516010	 -0.935370	 0.135268	 0.678022	 -0.472845	 0.546266	 1
1463624293.215	 4	 1.168872	 3.275002	 0.795291	 1.546890	 -0.506657	 -0.948432	 0.149292	 0.683565	 -0.472071	 0.536283	 1
1463624293.225	 4	 1.020315	 3.130914	 0.373202	 1.572863	 -0.501816	 -0.960473	 0.161230	 0.689138	 -0.471984	 0.525666	 1
1463624293.235	 4	 0.913144	 2.776438	 0.142763	 1.596562	 -0.500107	 -0.971170	 0.171109	 0.694280	 -0.472346	 0.515350	 1
1463624293.245	 4	 0.808163	 2.319767	 0.047772	 1.616185	 -0.499714	 -0.980737	 0.179212	 0.698424	 -0.472966	 0.506350	 1
1463624293.255	 4	 0.715482	 2.110662	 0.069014	 1.633703	 -0.499570	 -0.989148	 0.186349	 0.702043	 -0.473439	 0.498262	 1
1463624293.265	 4	 0.693649	 1.906318	 0.188800	 1.649429	 -0.498500	 -0.997272	 0.193288	 0.705079	 -0.473665	 0.491066	 1
1463624293.275	 4	 0.523360	 1.522046	 0.224009	 1.662477	 -0.496780	 -1.003964	 0.199310	 0.707473	 -0.473548	 0.485293	 1
1463624293.285	 4	 0.318307	 1.199858	 0.299531	 1.673097	 -0.494412	 -1.008492	 0.204206	 0.709398	 -0.472920	 0.481041	 1
1463624293.295	 4	 0.157459	 0.857269	 0.513027	 1.681379	 -0.490091	 -1.011251	 0.208557	 0.710766	 -0.471533	 0.478511	 1
1463624293.305	 4	 0.005616	 0.566121	 0.783409	 1.686926	 -0.483063	 -1.012580	 0.212627	 0.711404	 -0.469315	 0.477952	 1
1463624293.315	 4	 -0.102310	 0.552299	 1.033609	 1.692012	 -0.473328	 -1.013008	 0.217132	 0.711805	 -0.466149	 0.478427	 1
1463624293.325	 4	 -0.084155	 0.758606	 1.329521	 1.698759	 -0.460747	 -1.013641	 0.222994	 0.712339	 -0.462014	 0.478946	 1
1463624293.335	 4	 0.029747	 0.791328	 1.487632	 1.705826	 -0.446223	 -1.015789	 0.230057	 0.712596	 -0.457600	 0.479461	 1
1463624293.345	 4	 0.119080	 0.712472	 1.503173	 1.711670	 -0.431435	 -1.019304	 0.237370	 0.712339	 -0.453522	 0.480153	 1
1463624293.355	 4	 0.126368	 0.664840	 1.244752	 1.716998	 -0.418529	 -1.022761	 0.243910	 0.712083	 -0.449986	 0.480582	 1
1463624293.365	 4	 -0.012515	 0.612419	 1.000348	 1.722397	 -0.408207	 -1.024793	 0.249110	 0.712215	 -0.446810	 0.480681	 1
1463624293.375	 4	 -0.303386	 0.435195	 0.791276	 1.727696	 -0.399451	 -1.023734	 0.252671	 0.712836	 -0.443331	 0.481123	 1
1463624293.385	 4	 -0.527023	 0.282033	 0.554133	 1.732377	 -0.392622	 -1.019699	 0.254409	 0.713859	 -0.439757	 0.481971	 1
1463624293.395	 4	 -0.707992	 0.127657	 0.313410	 1.736547	 -0.387906	 -1.013297	 0.254513	 0.715256	 -0.436285	 0.483000	 1
1463624293.405	 4	 -0.936793	 -0.119028	 0.231043	 1.739390	 -0.384095	 -1.004402	 0.253138	 0.716733	 -0.432635	 0.484811	 1
1463624293.415	 4	 -1.194172	 -0.405273	 0.255133	 1.740344	 -0.379736	 -0.992832	 0.250556	 0.718039	 -0.428393	 0.487976	 1
1463624293.425	 4	 -1.435266	 -0.594049	 0.233094	 1.739988	 -0.375019	 -0.978700	 0.246878	 0.719300	 -0.423550	 0.492203	 1
1463624293.435	 4	 -1.591810	 -0.630782	 0.091303	 1.739585	 -0.371039	 -0.962385	 0.242166	 0.720857	 -0.418354	 0.496690	 1
1463624293.445	 4	 -1.683688	 -0.465141	 -0.131231	 1.740827	 -0.368942	 -0.944697	 0.236697	 0.723110	 -0.413154	 0.500391	 1
1463624293.455	 4	 -1.775641	 -0.175208	 -0.520999	 1.745228	 -0.369951	 -0.925444	 0.230306	 0.726542	 -0.408125	 0.502524	 1
1463624293.465	 4	 -1.851573	 0.269715	 -1.091709	 1.754410	 -0.375979	 -0.904272	 0.222558	 0.731699	 -0.403648	 0.502149	 1
1463624293.475	 4	 -1.929264	 0.839757	 -1.716660	 1.770240	 -0.387680	 -0.880809	 0.213444	 0.739021	 -0.399746	 0.498490	 1
1463624293.485	 4	 -1.802186	 1.122315	 -2.301306	 1.790419	 -0.404980	 -0.856305	 0.202958	 0.747614	 -0.397105	 0.492127	 1
1463624293.495	 4	 -1.480570	 1.378512	 -2.775987	 1.812987	 -0.427320	 -0.832934	 0.191714	 0.756556	 -0.396405	 0.483458	 1
1463624293.505	 4	 -0.998991	 1.526476	 -3.150754	 1.836854	 -0.454121	 -0.812287	 0.180340	 0.765257	 -0.398014	 0.472699	 1
1463624293.515	 4	 -0.297382	 1.410675	 -3.433944	 1.858077	 -0.483198	 -0.796872	 0.169760	 0.772421	 -0.402142	 0.461334	 1
1463624293.525	 5	 0.564642	 1.200128	 -3.519056	 1.875139	 -0.516343	 -0.788531	 0.159903	 0.777644	 -0.409799	 0.449183	 1
1463624293.545	 5	 2.726331	 0.442455	 -2.991798	 1.876789	 -0.588602	 -0.809562	 0.146399	 0.777072	 -0.437837	 0.427814	 1
1463624293.555	 5	 3.226734	 0.532553	 -3.125339	 1.867409	 -0.627312	 -0.835086	 0.142293	 0.773350	 -0.456161	 0.416653	 1
1463624293.565	 5	 2.089922	 -0.791204	 -3.231138	 1.852418	 -0.665242	 -0.853347	 0.134067	 0.768995	 -0.472641	 0.409003	 1
1463624293.575	 5	 0.860886	 -0.476085	 -3.244187	 1.840025	 -0.702180	 -0.858293	 0.121396	 0.766026	 -0.485513	 0.403417	 1
1463624293.585	 5	 0.219575	 0.889383	 -3.238687	 1.850198	 -0.734303	 -0.851188	 0.111032	 0.768133	 -0.493002	 0.393183	 1
1463624293.595	 5	 -0.073834	 1.825005	 -3.259399	 1.875430	 -0.765418	 -0.838154	 0.102510	 0.773069	 -0.498343	 0.378829	 1
1463624293.605	 5	 -0.105106	 2.158441	 -3.199538	 1.907525	 -0.795669	 -0.822411	 0.095063	 0.778827	 -0.502861	 0.362660	 1
1463624293.615	 5	 0.072992	 2.092153	 -2.881977	 1.939504	 -0.823687	 -0.807697	 0.088832	 0.783940	 -0.507226	 0.346797	 1
1463624293.625	 5	 0.392915	 1.609954	 -2.365960	 1.964135	 -0.848031	 -0.798141	 0.084017	 0.787211	 -0.511936	 0.333408	 1
1463624293.635	 5	 0.661208	 0.881643	 -1.928519	 1.977621	 -0.869019	 -0.794557	 0.079804	 0.788262	 -0.517190	 0.323711	 1
1463624293.655	 6	 0.624132	 0.114921	 -1.484513	 1.983118	 -0.904526	 -0.793714	 0.070333	 0.786697	 -0.527600	 0.312729	 1
1463624293.665	 6	 0.515692	 0.202281	 -1.215250	 1.985158	 -0.918511	 -0.793380	 0.066579	 0.785976	 -0.531675	 0.308431	 1
1463624293.675	 6	 0.411945	 0.288290	 -0.837332	 1.987492	 -0.928849	 -0.793758	 0.064273	 0.785519	 -0.534746	 0.304755	 1
1463624293.685	 6	 0.276425	 0.377995	 -0.402618	 1.990053	 -0.934831	 -0.795051	 0.063688	 0.785390	 -0.536643	 0.301861	 1
1463624293.695	 6	 0.106066	 0.325247	 0.027877	 1.992133	 -0.936142	 -0.796825	 0.064554	 0.785541	 -0.537234	 0.300229	 1
1463624293.705	 6	 -0.095132	 0.167508	 0.341495	 1.993067	 -0.933427	 -0.798154	 0.066133	 0.785856	 -0.536594	 0.300207	 1
1463624293.715	 6	 -0.246669	 0.122610	 0.395684	 1.994985	 -0.928910	 -0.797404	 0.067692	 0.786528	 -0.535070	 0.300819	 1
1463624293.725	 6	 0.001935	 0.214596	 0.273945	 1.996008	 -0.925696	 -0.798309	 0.069274	 0.786905	 -0.534209	 0.301003	 1
1463624293.745	 7	 0.633895	 0.369339	 -0.131910	 1.992564	 -0.929635	 -0.810639	 0.072030	 0.785647	 -0.537351	 0.298035	 1
1463624293.755	 7	 1.001969	 0.781100	 -0.109968	 1.988739	 -0.934321	 -0.823738	 0.074743	 0.784241	 -0.540817	 0.294782	 1
1463624293.765	 7	 1.297087	 1.194479	 -0.187558	 1.985231	 -0.940800	 -0.841728	 0.078899	 0.782554	 -0.545471	 0.289560	 1
1463624293.775	 7	 1.474615	 1.409763	 -0.349096	 1.982419	 -0.949322	 -0.862077	 0.083520	 0.780705	 -0.550951	 0.282803	 1
1463624293.785	 8	 1.592293	 1.442688	 -0.606919	 1.979730	 -0.960510	 -0.883142	 0.087610	 0.778631	 -0.557174	 0.274982	 1
1463624293.805	 8	 1.685549	 1.571985	 -0.926256	 1.973527	 -0.989294	 -0.926254	 0.093841	 0.773844	 -0.571123	 0.257252	 1
1463624293.815	 8	 1.755805	 1.481826	 -0.863761	 1.969577	 -1.004052	 -0.949273	 0.097075	 0.771241	 -0.578159	 0.247984	 1
1463624293.825	 8	 1.948866	 0.927990	 -1.036855	 1.958315	 -1.020371	 -0.975333	 0.098787	 0.767509	 -0.586135	 0.240037	 1
1463624293.835	 8	 1.991909	 0.236564	 -1.469969	 1.939982	 -1.040232	 -1.001597	 0.097228	 0.762789	 -0.595134	 0.233484	 1
1463624293.845	 8	 1.874492	 -0.753168	 -2.182625	 1.915704	 -1.065569	 -1.023989	 0.090455	 0.757391	 -0.604967	 0.228453	 1
1463624293.865	 9	 0.540592	 -2.409518	 -4.229491	 1.874918	 -1.138693	 -1.025092	 0.054882	 0.748125	 -0.623145	 0.221330	 1
1463624293.875	 9	 -0.461722	 -2.234800	 -5.034446	 1.891102	 -1.184243	 -0.982176	 0.029214	 0.747326	 -0.628084	 0.214850	 1
1463624293.885	 10	 -1.126944	 -1.806465	 -5.637481	 1.945549	 -1.232372	 -0.904321	 0.001998	 0.748839	 -0.630374	 0.204610	 1
1463624293.905	 10	 -0.940311	 -0.186275	 -6.251764	 2.193883	 -1.329956	 -0.626270	 -0.052178	 0.752908	 -0.632970	 0.172498	 1
1463624293.915	 10	 -0.558998	 0.342057	 -5.990122	 2.397951	 -1.371361	 -0.419985	 -0.074681	 0.753213	 -0.635589	 0.152050	 1
1463624293.925	 10	 -0.381405	 0.309479	 -5.570995	 2.664139	 -1.400777	 -0.152614	 -0.095328	 0.752365	 -0.638197	 0.132534	 1
1463624293.935	 10	 -0.243668	 0.275122	 -4.973556	 2.969305	 -1.414697	 0.153799	 -0.113920	 0.750736	 -0.640474	 0.114939	 1
1463624293.945	 10	 -0.100243	 0.343499	 -4.140742	 -3.032506	 -1.414710	 0.435327	 -0.129305	 0.748695	 -0.642498	 0.099661	 1
1463624293.955	 10	 -0.045254	 0.373373	 -3.226519	 -2.819918	 -1.406859	 0.646824	 -0.141021	 0.746679	 -0.644201	 0.087115	 1
1463624293.965	 10	 0.159049	 0.789302	 -2.256715	 -2.674532	 -1.398233	 0.787271	 -0.148069	 0.744805	 -0.646128	 0.076550	 1
1463624293.975	 10	 0.291524	 0.787610	 -1.410603	 -2.579955	 -1.392630	 0.875074	 -0.151329	 0.743034	 -0.648309	 0.068523	 1
1463624293.985	 10	 0.275198	 0.696051	 -0.843262	 -2.520156	 -1.389588	 0.928739	 -0.152548	 0.741614	 -0.650206	 0.063006	 1
1463624293.995	 10	 0.393082	 1.155850	 -0.458467	 -2.473974	 -1.389101	 0.965231	 -0.151149	 0.740341	 -0.652476	 0.057655	 1
1463624294.005	 10	 0.467301	 1.589575	 -0.020246	 -2.437527	 -1.391816	 0.987117	 -0.146634	 0.739152	 -0.655320	 0.052049	 1
1463624294.015	 10	 0.356405	 1.695169	 0.415467	 -2.419319	 -1.396824	 0.988510	 -0.139866	 0.738495	 -0.657907	 0.047126	 1
1463624294.025	 10	 0.127162	 1.664394	 0.772076	 -2.425426	 -1.402813	 0.965284	 -0.131741	 0.738718	 -0.659592	 0.043337	 1
1463624294.035	 10	 -0.170898	 1.447460	 0.950634	 -2.456006	 -1.408061	 0.918845	 -0.123327	 0.739929	 -0.660030	 0.040694	 1
1463624294.045	 10	 -0.504852	 0.691068	 0.793034	 -2.504081	 -1.409710	 0.861382	 -0.117485	 0.742052	 -0.658756	 0.039973	 1
1463624294.055	 10	 -0.496556	 0.546139	 0.904584	 -2.560113	 -1.410389	 0.799014	 -0.112583	 0.744352	 -0.656985	 0.040440	 1
1463624294.065	 10	 -0.328833	 0.608015	 1.144561	 -2.624224	 -1.412862	 0.728099	 -0.106669	 0.746303	 -0.655685	 0.041601	 1
1463624294.075	 10	 -0.140123	 0.666018	 1.299059	 -2.694596	 -1.417099	 0.650242	 -0.099834	 0.747702	 -0.655063	 0.043212	 1
1463624294.085	 10	 -0.030837	 0.700231	 1.367701	 -2.770623	 -1.422016	 0.566353	 -0.092516	 0.748676	 -0.654902	 0.045040	 1
1463624294.095	 10	 -0.027362	 0.741843	 1.387241	 -2.852314	 -1.426298	 0.476330	 -0.084930	 0.749529	 -0.654831	 0.046798	 1
1463624294.105	 10	 -0.079888	 0.737351	 1.333303	 -2.937578	 -1.428949	 0.382871	 -0.077486	 0.750477	 -0.654544	 0.048498	 1
1463624294.115	 10	 -0.192790	 0.712942	 1.148616	 -3.014940	 -1.429398	 0.297257	 -0.070602	 0.751608	 -0.653943	 0.049586	 1
1463624294.125	 10	 -0.376285	 0.451358	 0.936759	 -3.080481	 -1.426997	 0.225819	 -0.065279	 0.753165	 -0.652615	 0.050754	 1
1463624294.145	 11	 -0.266581	 0.401431	 0.403524	 3.124564	 -1.420180	 0.139363	 -0.058332	 0.756049	 -0.649847	 0.051828	 1
1463624294.155	 11	 -0.104337	 0.477112	 0.052179	 3.120113	 -1.418700	 0.130216	 -0.056346	 0.756679	 -0.649393	 0.050507	 1
1463624294.165	 11	 0.051644	 0.542524	 -0.251246	 3.137203	 -1.418868	 0.142174	 -0.055316	 0.756711	 -0.649639	 0.047928	 1
1463624294.175	 11	 0.170508	 0.582104	 -0.465066	 -3.112804	 -1.420251	 0.169924	 -0.054991	 0.756263	 -0.650436	 0.044442	 1
1463624294.185	 11	 0.238150	 0.567006	 -0.612870	 -3.067853	 -1.422200	 0.209577	 -0.055267	 0.755493	 -0.651567	 0.040446	 1
1463624294.195	 11	 0.252573	 0.513299	 -0.679573	 -3.016252	 -1.424034	 0.256422	 -0.056022	 0.754590	 -0.652790	 0.036351	 1
1463624294.205	 11	 0.246164	 0.500655	 -0.665780	 -2.963410	 -1.425464	 0.304795	 -0.056894	 0.753676	 -0.653980	 0.032339	 1
1463624294.215	 11	 0.251111	 0.575685	 -0.584127	 -2.913654	 -1.426677	 0.349508	 -0.057339	 0.752772	 -0.655166	 0.028348	 1
1463624294.225	 11	 0.274621	 0.713642	 -0.471143	 -2.868683	 -1.428026	 0.388110	 -0.056971	 0.751841	 -0.656432	 0.024236	 1
1463624294.235	 11	 0.295983	 0.845254	 -0.353936	 -2.828947	 -1.429715	 0.420021	 -0.055702	 0.750863	 -0.657801	 0.019999	 1
1463624294.245	 11	 0.291436	 0.915242	 -0.238143	 -2.795218	 -1.431648	 0.444959	 -0.053702	 0.749898	 -0.659181	 0.015810	 1
1463624294.255	 11	 0.232952	 0.869397	 -0.130418	 -2.769491	 -1.433448	 0.461994	 -0.051350	 0.749090	 -0.660365	 0.012042	 1
1463624294.265	 11	 0.163519	 0.777737	 -0.037945	 -2.752628	 -1.434901	 0.470938	 -0.048918	 0.748522	 -0.661243	 0.008895	 1
1463624294.275	 11	 0.113268	 0.707062	 0.022583	 -2.742594	 -1.436090	 0.473769	 -0.046484	 0.748141	 -0.661881	 0.006255	 1
1463624294.285	 11	 0.088700	 0.681785	 0.047074	 -2.735973	 -1.437125	 0.473541	 -0.044053	 0.747856	 -0.662386	 0.003859	 1
1463624294.295	 11	 0.065139	 0.671157	 0.038654	 -2.729983	 -1.437948	 0.472793	 -0.041665	 0.747637	 -0.662797	 0.001496	 1
1463624294.305	 11	 0.022137	 0.617986	 0.022548	 -2.724396	 -1.438370	 0.472019	 -0.039460	 0.747529	 -0.663055	 -0.000785	 1
1463624294.315	 11	 -0.040209	 0.532993	 0.010576	 -2.720498	 -1.438204	 0.470356	 -0.037572	 0.747607	 -0.663072	 -0.002819	 1
1463624294.325	 11	 -0.149931	 0.383048	 -0.030363	 -2.718617	 -1.437071	 0.467917	 -0.036208	 0.747982	 -0.662715	 -0.004503	 1
1463624294.335	 11	 -0.366511	 0.038252	 -0.143591	 -2.718870	 -1.433832	 0.466273	 -0.036166	 0.748967	 -0.661598	 -0.005447	 1
1463624294.345	 11	 -0.594976	 -0.343684	 -0.249600	 -2.722511	 -1.427936	 0.465201	 -0.037856	 0.750729	 -0.659503	 -0.005331	 1
1463624294.355	 11	 -0.658404	 -0.448737	 -0.241499	 -2.729247	 -1.420925	 0.462874	 -0.040246	 0.752847	 -0.656948	 -0.004621	 1
1463624294.365	 11	 -0.561126	 -0.283338	 -0.127836	 -2.738237	 -1.414853	 0.457173	 -0.041941	 0.754762	 -0.654645	 -0.004007	 1
1463624294.375	 11	 -0.445622	 -0.099910	 -0.014165	 -2.748822	 -1.410373	 0.447854	 -0.042529	 0.756292	 -0.652840	 -0.003709	 1
1463624294.385	 11	 -0.419004	 -0.118026	 -0.008170	 -2.759461	 -1.406484	 0.438069	 -0.042843	 0.757662	 -0.651230	 -0.003428	 1
1463624294.395	 11	 -0.446190	 -0.383374	 -0.089269	 -2.768463	 -1.402139	 0.432028	 -0.044081	 0.759086	 -0.649491	 -0.002588	 1
1463624294.405	 11	 -0.411191	 -0.623070	 -0.128040	 -2.776410	 -1.397758	 0.429827	 -0.046419	 0.760432	 -0.647756	 -0.000888	 1
1463624294.415	 11	 -0.381304	 -0.629472	 -0.118768	 -2.784008	 -1.393721	 0.428621	 -0.048961	 0.761648	 -0.646138	 0.001061	 1
1463624294.425	 11	 -0.388812	 -0.450427	 -0.072275	 -2.791960	 -1.389818	 0.425690	 -0.050929	 0.762861	 -0.644548	 0.002619	 1
1463624294.435	 11	 -0.421121	 -0.123261	 0.002457	 -2.800742	 -1.385883	 0.418916	 -0.051683	 0.764180	 -0.642921	 0.003268	 1
1463624294.445	 11	 -0.480779	 0.278521	 0.088779	 -2.810393	 -1.381731	 0.407312	 -0.050873	 0.765686	 -0.641194	 0.002693	 1
1463624294.455	 11	 -0.568203	 0.680348	 0.170014	 -2.820879	 -1.377050	 0.390695	 -0.048439	 0.767472	 -0.639249	 0.000803	 1
1463624294.465	 11	 -0.671957	 1.022588	 0.241245	 -2.832233	 -1.371601	 0.369520	 -0.044572	 0.769582	 -0.636986	 -0.002249	 1
1463624294.475	 11	 -0.748241	 1.319954	 0.295833	 -2.843595	 -1.365473	 0.345190	 -0.039500	 0.771938	 -0.634438	 -0.006309	 1
1463624294.485	 11	 -0.769375	 1.577521	 0.311203	 -2.852987	 -1.359013	 0.320105	 -0.033471	 0.774361	 -0.631757	 -0.011323	 1
1463624294.495	 11	 -0.715205	 1.786572	 0.266849	 -2.857463	 -1.352761	 0.297723	 -0.026845	 0.776594	 -0.629191	 -0.017290	 1
1463624294.505	 11	 -0.569741	 1.908011	 0.204898	 -2.855619	 -1.347502	 0.280300	 -0.020016	 0.778347	 -0.627056	 -0.024003	 1
1463624294.515	 11	 -0.328863	 1.857196	 0.188473	 -2.849615	 -1.344267	 0.267147	 -0.013330	 0.779338	 -0.625705	 -0.030775	 1
1463624294.525	 11	 -0.054480	 1.637449	 0.210683	 -2.842580	 -1.343687	 0.256925	 -0.007203	 0.779445	 -0.625350	 -0.036769	 1
1463624294.535	 11	 0.171467	 1.329569	 0.233561	 -2.836342	 -1.345499	 0.248839	 -0.001925	 0.778801	 -0.625890	 -0.041556	 1
1463624294.545	 11	 0.292790	 1.017702	 0.250917	 -2.832156	 -1.348844	 0.241977	 0.002381	 0.777711	 -0.627004	 -0.045018	 1
1463624294.555	 11	 0.244986	 0.867618	 0.215833	 -2.829336	 -1.352064	 0.235666	 0.006030	 0.776668	 -0.628065	 -0.047791	 1
1463624294.565	 11	 0.133337	 0.784490	 0.147822	 -2.826054	 -1.354121	 0.230814	 0.009143	 0.775952	 -0.628709	 -0.050397	 1
1463624294.585	 12	 -0.086745	 0.837243	 0.293042	 -2.828942	 -1.355150	 0.211584	 0.015792	 0.775599	 -0.628607	 -0.055228	 1
1463624294.595	 12	 -0.103778	 0.946864	 0.442351	 -2.838885	 -1.355393	 0.192038	 0.020269	 0.775629	 -0.628238	 -0.057492	 1
1463624294.605	 12	 -0.070879	 1.092838	 0.491382	 -2.850933	 -1.356048	 0.168893	 0.025518	 0.775519	 -0.627945	 -0.060036	 1
1463624294.615	 12	 -0.002493	 1.188756	 0.398958	 -2.858377	 -1.357061	 0.149304	 0.030856	 0.775164	 -0.627831	 -0.063224	 1
1463624294.625	 12	 0.075826	 1.181017	 0.243668	 -2.858325	 -1.358392	 0.137185	 0.035670	 0.774553	 -0.627943	 -0.066953	 1
1463624294.635	 12	 0.133441	 1.050240	 0.126847	 -2.852562	 -1.359987	 0.131941	 0.039631	 0.773767	 -0.628262	 -0.070718	 1
1463624294.645	 12	 0.151236	 0.808251	 0.058363	 -2.844859	 -1.361606	 0.130846	 0.042599	 0.772969	 -0.628680	 -0.073926	 1
1463624294.655	 12	 0.130575	 0.440821	 0.129728	 -2.842333	 -1.363235	 0.127904	 0.044657	 0.772310	 -0.629135	 -0.075710	 1
1463624294.665	 12	 0.061048	 -0.083011	 0.174484	 -2.848354	 -1.364520	 0.121178	 0.045458	 0.771991	 -0.629505	 -0.075412	 1
1463624294.675	 12	 -0.050744	 -0.650067	 0.108366	 -2.859699	 -1.364692	 0.114798	 0.044362	 0.772216	 -0.629588	 -0.073029	 1
1463624294.685	 12	 -0.172884	 -1.123712	 0.012301	 -2.873304	 -1.363422	 0.111289	 0.041346	 0.773016	 -0.629271	 -0.068960	 1
1463624294.695	 12	 -0.315206	 -1.377963	 -0.051706	 -2.888240	 -1.360644	 0.109599	 0.037116	 0.774337	 -0.628445	 -0.063886	 1
1463624294.705	 12	 -0.469200	 -1.422385	 -0.079554	 -2.903913	 -1.356270	 0.108131	 0.032483	 0.776141	 -0.626996	 -0.058531	 1
1463624294.715	 12	 -0.571949	 -1.346877	 0.024356	 -2.922480	 -1.350855	 0.103106	 0.028295	 0.778253	 -0.625054	 -0.053193	 1
1463624294.725	 12	 -0.617381	 -1.242748	 0.284701	 -2.950119	 -1.345345	 0.087822	 0.025326	 0.780442	 -0.622909	 -0.047469	 1
1463624294.735	 12	 -0.654128	 -1.014998	 0.435281	 -2.983169	 -1.339697	 0.064995	 0.023712	 0.782641	 -0.620609	 -0.041888	 1
1463624294.745	 12	 -0.659051	 -0.667477	 0.394862	 -3.011792	 -1.333752	 0.043352	 0.023111	 0.784789	 -0.618192	 -0.037570	 1
1463624294.755	 12	 -0.586177	 -0.344630	 0.356732	 -3.033673	 -1.328120	 0.025155	 0.023348	 0.786706	 -0.615908	 -0.034729	 1
1463624294.765	 12	 -0.432370	 -0.087711	 0.353521	 -3.051109	 -1.323740	 0.008715	 0.024362	 0.788151	 -0.614114	 -0.033001	 1
1463624294.775	 12	 -0.228565	 0.120160	 0.349202	 -3.065130	 -1.321226	 -0.006486	 0.026012	 0.788959	 -0.613052	 -0.032169	 1
1463624294.785	 12	 0.003499	 0.258506	 0.306905	 -3.075487	 -1.320902	 -0.019532	 0.027980	 0.789049	 -0.612854	 -0.032084	 1
1463624294.795	 12	 0.218030	 0.313821	 0.248000	 -3.082389	 -1.322732	 -0.029790	 0.029925	 0.788450	 -0.613510	 -0.032499	 1
1463624294.805	 12	 0.373689	 0.300443	 0.226271	 -3.087428	 -1.326238	 -0.038172	 0.031701	 0.787326	 -0.614833	 -0.033080	 1
1463624294.825	 13	 0.431795	 0.177768	 0.493195	 -3.113356	 -1.335566	 -0.069471	 0.036003	 0.784341	 -0.618426	 -0.032582	 1
1463624294.835	 13	 0.262452	 0.065161	 0.443531	 -3.131847	 -1.338761	 -0.089466	 0.038088	 0.783277	 -0.619701	 -0.031565	 1
1463624294.845	 13	 0.074104	 -0.103791	 0.243236	 3.138203	 -1.339933	 -0.102400	 0.039064	 0.782868	 -0.620213	 -0.030452	 1
1463624294.855	 13	 0.049675	 -0.339466	 -0.001957	 -3.080129	 -1.362524	 -0.036518	 0.033524	 0.775929	 -0.628936	 -0.035357	 1
1463624294.865	 13	 0.156051	 -0.474145	 -0.197039	 -3.076928	 -1.363709	 -0.028597	 0.031467	 0.775629	 -0.629481	 -0.034102	 1
1463624294.885	 14	 0.177988	 -0.295976	 -0.259518	 -3.058491	 -1.367155	 -0.002035	 0.027023	 0.774622	 -0.630993	 -0.032848	 1
1463624294.895	 14	 0.125033	 -0.220219	 -0.247694	 -3.047992	 -1.368314	 0.011080	 0.025279	 0.774255	 -0.631519	 -0.032757	 1
1463624294.905	 14	 0.067505	 -0.238852	 -0.200473	 -3.039519	 -1.368931	 0.022081	 0.023710	 0.774057	 -0.631833	 -0.032550	 1
1463624294.925	 15	 -0.077974	 -0.429914	 -0.059238	 -3.036188	 -1.368272	 0.032584	 0.020681	 0.774329	 -0.631707	 -0.030536	 1
1463624294.935	 15	 -0.143367	 -0.542036	 -0.000029	 -3.041266	 -1.366980	 0.032663	 0.019014	 0.774812	 -0.631259	 -0.028574	 1
1463624294.945	 15	 -0.186244	 -0.615015	 0.039098	 -3.049607	 -1.365242	 0.030272	 0.017268	 0.775452	 -0.630629	 -0.026132	 1
1463624294.955	 15	 -0.201310	 -0.641562	 0.038982	 -3.058789	 -1.363295	 0.027401	 0.015447	 0.776155	 -0.629914	 -0.023513	 1
1463624294.965	 15	 -0.194998	 -0.626984	 -0.001436	 -3.066373	 -1.361328	 0.026126	 0.013516	 0.776848	 -0.629192	 -0.021005	 1
1463624294.975	 15	 -0.174779	 -0.594457	 -0.054598	 -3.071060	 -1.359491	 0.027491	 0.011478	 0.777480	 -0.628522	 -0.018785	 1
1463624294.985	 15	 -0.117072	 -0.570227	 -0.063401	 -3.074251	 -1.358109	 0.030102	 0.009436	 0.777956	 -0.628025	 -0.016746	 1
1463624294.995	 15	 -0.031568	 -0.579731	 -0.019472	 -3.078631	 -1.357554	 0.031497	 0.007508	 0.778170	 -0.627838	 -0.014614	 1
1463624295.005	 15	 0.047418	 -0.638985	 0.054958	 -3.086372	 -1.357866	 0.029924	 0.005695	 0.778119	 -0.627975	 -0.012091	 1
1463624295.015	 15	 0.110043	 -0.773703	 0.129894	 -3.098726	 -1.358878	 0.024803	 0.003821	 0.777854	 -0.628371	 -0.008880	 1
1463624295.025	 15	 0.149053	 -0.922310	 0.186789	 -3.115533	 -1.360348	 0.016697	 0.001704	 0.777439	 -0.628938	 -0.004879	 1
1463624295.035	 15	 0.153154	 -0.980624	 0.213920	 -3.134968	 -1.361919	 0.006770	 -0.000545	 0.776967	 -0.629540	 -0.000443	 1
1463624295.045	 15	 0.134170	 -0.930597	 0.211354	 3.128608	 -1.363306	 -0.003594	 -0.002695	 0.776522	 -0.630072	 0.003909	 1
1463624295.055	 15	 0.121678	 -0.842467	 0.185638	 3.110636	 -1.364517	 -0.013112	 -0.004671	 0.776105	 -0.630537	 0.007879	 1
1463624295.065	 15	 0.103775	 -0.758671	 0.146060	 3.102909	 -1.365923	 -0.013400	 -0.007009	 0.775626	 -0.631061	 0.010775	 1
1463624295.075	 15	 0.103744	 -0.726037	 0.099470	 3.089958	 -1.366893	 -0.019149	 -0.008879	 0.775263	 -0.631421	 0.013972	 1
1463624295.085	 15	 0.148386	 -0.712784	 0.038456	 3.079829	 -1.368206	 -0.022199	 -0.010914	 0.774786	 -0.631903	 0.016916	 1
1463624295.095	 15	 0.217632	 -0.700552	 -0.006795	 3.072029	 -1.370200	 -0.022975	 -0.013112	 0.774089	 -0.632635	 0.019662	 1
1463624295.105	 15	 0.257149	 -0.681630	 -0.021893	 3.069313	 -1.373286	 -0.018906	 -0.015599	 0.773055	 -0.633767	 0.021954	 1
1463624295.115	 15	 0.250919	 -0.660206	 -0.003522	 3.062154	 -1.375842	 -0.019415	 -0.017718	 0.772167	 -0.634700	 0.024518	 1
1463624295.125	 15	 0.223543	 -0.610947	 0.031280	 3.053735	 -1.378129	 -0.021612	 -0.019588	 0.771353	 -0.635531	 0.027029	 1
1463624295.135	 15	 0.178354	 -0.493552	 0.067936	 3.044547	 -1.379975	 -0.025619	 -0.021004	 0.770678	 -0.636205	 0.029262	 1
1463624295.145	 15	 0.119255	 -0.382462	 0.107856	 3.039086	 -1.377718	 -0.027201	 -0.022077	 0.771330	 -0.635301	 0.030912	 1
1463624295.155	 15	 0.052346	 -0.342665	 0.141848	 3.028414	 -1.378264	 -0.034523	 -0.022658	 0.771069	 -0.635508	 0.032688	 1
1463624295.165	 15	 -0.011706	 -0.367824	 0.166684	 3.016593	 -1.378110	 -0.042911	 -0.023176	 0.771015	 -0.635455	 0.034584	 1
1463624295.175	 15	 -0.048409	 -0.473928	 0.187331	 3.003204	 -1.377461	 -0.052044	 -0.023887	 0.771089	 -0.635211	 0.036864	 1
1463624295.185	 15	 -0.054223	 -0.594992	 0.210768	 2.987593	 -1.376616	 -0.062167	 -0.024909	 0.771180	 -0.634890	 0.039698	 1
1463624295.195	 15	 -0.037304	 -0.646993	 0.233583	 2.970196	 -1.375834	 -0.073386	 -0.026072	 0.771211	 -0.634599	 0.042876	 1
1463624295.205	 15	 -0.020122	 -0.645795	 0.259023	 2.951406	 -1.375140	 -0.085936	 -0.027160	 0.771178	 -0.634363	 0.046170	 1
1463624295.225	 16	 -0.002631	 -0.600802	 0.310446	 2.910621	 -1.373724	 -0.114961	 -0.028822	 0.771018	 -0.633968	 0.052766	 1
1463624295.235	 16	 0.004929	 -0.593278	 0.324305	 2.888975	 -1.372978	 -0.130964	 -0.029464	 0.770894	 -0.633805	 0.056084	 1
1463624295.245	 16	 0.010253	 -0.575390	 0.299913	 2.868224	 -1.372266	 -0.146208	 -0.030113	 0.770744	 -0.633665	 0.059300	 1
1463624295.255	 16	 0.018675	 -0.558752	 0.250969	 2.849771	 -1.371693	 -0.159297	 -0.030871	 0.770559	 -0.633565	 0.062306	 1
1463624295.265	 16	 0.026023	 -0.533687	 0.190390	 2.834266	 -1.371320	 -0.169591	 -0.031786	 0.770341	 -0.633508	 0.065048	 1
1463624295.275	 16	 0.033482	 -0.486276	 0.131083	 2.821978	 -1.371171	 -0.177028	 -0.032801	 0.770100	 -0.633500	 0.067436	 1
1463624295.285	 16	 0.044275	 -0.423875	 0.081346	 2.866154	 -1.379133	 -0.129577	 -0.037680	 0.768268	 -0.635714	 0.064896	 1
1463624295.295	 16	 0.053015	 -0.351826	 0.046770	 2.859003	 -1.379464	 -0.133090	 -0.038628	 0.767997	 -0.635819	 0.066503	 1
1463624295.305	 16	 0.053203	 -0.289271	 0.019641	 2.853903	 -1.379906	 -0.135193	 -0.039476	 0.767730	 -0.635957	 0.067761	 1
1463624295.315	 16	 0.041497	 -0.262814	 -0.003458	 2.850427	 -1.380332	 -0.136019	 -0.040297	 0.767496	 -0.636076	 0.068802	 1
1463624295.325	 16	 0.027510	 -0.277750	 -0.018474	 2.880295	 -1.385258	 -0.104004	 -0.043418	 0.766304	 -0.637476	 0.067213	 1
1463624295.335	 16	 0.018759	 -0.318183	 -0.024102	 2.878169	 -1.385518	 -0.103033	 -0.044484	 0.766129	 -0.637495	 0.068321	 1
1463624295.345	 16	 0.015428	 -0.337389	 -0.033844	 2.876132	 -1.385778	 -0.101691	 -0.045666	 0.765947	 -0.637501	 0.069514	 1
1463624295.355	 16	 -0.002829	 -0.360743	 -0.034968	 2.874435	 -1.385887	 -0.099823	 -0.046929	 0.765810	 -0.637437	 0.070752	 1
1463624295.365	 16	 -0.010330	 -0.377659	 -0.025510	 2.889191	 -1.388645	 -0.081575	 -0.049383	 0.765026	 -0.638193	 0.070762	 1
1463624295.375	 16	 -0.015555	 -0.360578	 -0.020010	 2.900664	 -1.390572	 -0.066642	 -0.051545	 0.764447	 -0.638684	 0.071039	 1
1463624295.385	 16	 -0.016463	 -0.329705	 -0.016517	 2.898422	 -1.390465	 -0.065478	 -0.052699	 0.764371	 -0.638543	 0.072273	 1
1463624295.405	 17	 -0.009590	 -0.242404	 -0.001910	 2.894319	 -1.390216	 -0.064089	 -0.054526	 0.764262	 -0.638288	 0.074298	 1
1463624295.415	 17	 -0.016820	 -0.197672	 0.002806	 2.902461	 -1.392153	 -0.054033	 -0.055876	 0.763673	 -0.638874	 0.074301	 1
1463624295.425	 17	 -0.024210	 -0.194342	 0.018888	 2.899985	 -1.391891	 -0.054580	 -0.056443	 0.763679	 -0.638725	 0.075085	 1
1463624295.435	 17	 -0.020937	 -0.188949	 0.030633	 2.896873	 -1.391610	 -0.055806	 -0.056953	 0.763686	 -0.638577	 0.075895	 1
1463624295.445	 17	 0.012085	 -0.227116	 0.060897	 2.891855	 -1.391488	 -0.058706	 -0.057441	 0.763615	 -0.638498	 0.076892	 1
1463624295.455	 17	 0.037878	 -0.188922	 0.057809	 2.893333	 -1.393874	 -0.055395	 -0.058368	 0.762821	 -0.639318	 0.077264	 1
1463624295.465	 17	 0.029441	 -0.164463	 0.053847	 2.888351	 -1.394059	 -0.058758	 -0.058688	 0.762667	 -0.639373	 0.078080	 1
1463624295.475	 17	 0.004812	 -0.180360	 0.051782	 2.883617	 -1.394030	 -0.061789	 -0.059044	 0.762580	 -0.639342	 0.078918	 1
1463624295.485	 17	 -0.009174	 -0.206905	 0.051627	 2.889935	 -1.396216	 -0.053679	 -0.060241	 0.761894	 -0.640038	 0.078990	 1
1463624295.495	 17	 -0.011331	 -0.210116	 0.047328	 2.894804	 -1.397817	 -0.046876	 -0.061362	 0.761371	 -0.640523	 0.079235	 1
1463624295.505	 17	 -0.003780	 -0.189962	 0.042100	 2.899733	 -1.398829	 -0.040166	 -0.062391	 0.761037	 -0.640793	 0.079460	 1
1463624295.525	 18	 0.019609	 -0.237676	 0.071254	 2.904537	 -1.402204	 -0.031713	 -0.064238	 0.759884	 -0.641887	 0.080192	 1
1463624295.535	 18	 0.039880	 -0.233543	 0.062576	 2.902165	 -1.403863	 -0.031785	 -0.065056	 0.759261	 -0.642441	 0.080996	 1
1463624295.545	 18	 0.020781	 -0.196376	 0.046023	 2.903527	 -1.404458	 -0.028517	 -0.065889	 0.759019	 -0.642578	 0.081502	 1
1463624295.555	 18	 -0.005967	 -0.219624	 0.055618	 2.904339	 -1.404877	 -0.025732	 -0.066705	 0.758826	 -0.642649	 0.082070	 1
1463624295.565	 18	 -0.013549	 -0.247232	 0.058612	 2.903235	 -1.405674	 -0.024516	 -0.067561	 0.758484	 -0.642864	 0.082846	 1
1463624295.575	 18	 -0.010388	 -0.248373	 0.048971	 2.902905	 -1.406078	 -0.022470	 -0.068463	 0.758272	 -0.642920	 0.083611	 1
1463624295.585	 18	 -0.006106	 -0.239928	 0.041541	 2.902795	 -1.406480	 -0.020257	 -0.069357	 0.758062	 -0.642975	 0.084347	 1
1463624295.595	 18	 -0.003906	 -0.224000	 0.038461	 2.903318	 -1.406876	 -0.017549	 -0.070234	 0.757863	 -0.643029	 0.085003	 1
1463624295.605	 18	 -0.004867	 -0.200609	 0.036546	 2.903285	 -1.407213	 -0.015597	 -0.071001	 0.757684	 -0.643072	 0.085630	 1
1463624295.615	 18	 -0.001520	 -0.167666	 0.033618	 2.903251	 -1.407464	 -0.013952	 -0.071646	 0.757544	 -0.643095	 0.086161	 1
1463624295.625	 18	 -0.000325	 -0.135804	 0.027501	 2.904106	 -1.407708	 -0.011741	 -0.072220	 0.757422	 -0.643123	 0.086538	 1
1463624295.635	 18	 0.002987	 -0.109250	 0.023446	 2.905688	 -1.408019	 -0.009073	 -0.072736	 0.757294	 -0.643182	 0.086784	 1
1463624295.645	 18	 0.004123	 -0.088040	 0.015099	 2.907706	 -1.408301	 -0.006195	 -0.073190	 0.757186	 -0.643237	 0.086935	 1
1463624295.655	 18	 0.002030	 -0.074250	 0.008843	 2.909870	 -1.408582	 -0.003313	 -0.073597	 0.757085	 -0.643298	 0.087031	 1
1463624295.665	 18	 0.006321	 -0.068950	 0.007782	 2.911880	 -1.408908	 -0.000672	 -0.073965	 0.756970	 -0.643380	 0.087108	 1
1463624295.675	 18	 0.001049	 -0.050897	 0.001594	 2.913637	 -1.409384	 0.001610	 -0.074284	 0.756809	 -0.643526	 0.087160	 1
1463624295.685	 18	 -0.011848	 -0.073171	 0.004689	 2.916008	 -1.409549	 0.004595	 -0.074658	 0.756748	 -0.643547	 0.087217	 1
1463624295.695	 18	 -0.011912	 -0.089109	 0.006665	 2.917830	 -1.409879	 0.007241	 -0.075087	 0.756622	 -0.643624	 0.087368	 1
1463624295.705	 18	 -0.006608	 -0.093402	 0.003374	 2.920027	 -1.410093	 0.010318	 -0.075552	 0.756533	 -0.643654	 0.087519	 1
1463624295.715	 18	 -0.001334	 -0.104076	 0.000025	 2.921763	 -1.410372	 0.013022	 -0.076027	 0.756417	 -0.643706	 0.087724	 1
1463624295.725	 18	 0.000736	 -0.114749	 -0.004362	 2.923488	 -1.410739	 0.015836	 -0.076551	 0.756267	 -0.643788	 0.087965	 1
1463624295.735	 18	 0.002837	 -0.121143	 -0.005512	 2.925234	 -1.411028	 0.018747	 -0.077100	 0.756139	 -0.643836	 0.088233	 1
1463624295.745	 18	 0.024005	 -0.186906	 0.027789	 2.925037	 -1.411475	 0.020131	 -0.077704	 0.755932	 -0.643936	 0.088739	 1
1463624295.755	 18	 0.063576	 -0.168950	 0.026543	 2.920823	 -1.412547	 0.017713	 -0.078189	 0.755492	 -0.644286	 0.089518	 1
1463624295.765	 18	 0.048870	 -0.107362	 0.009137	 2.919773	 -1.412982	 0.017823	 -0.078586	 0.755300	 -0.644404	 0.089936	 1
1463624295.775	 18	 0.006218	 -0.093460	 0.002174	 2.921005	 -1.412976	 0.019959	 -0.078995	 0.755274	 -0.644354	 0.090159	 1
1463624295.785	 18	 -0.007621	 -0.089139	 0.005527	 2.922343	 -1.413041	 0.022202	 -0.079413	 0.755225	 -0.644330	 0.090374	 1
1463624295.795	 18	 -0.008549	 -0.057248	 0.002630	 2.924063	 -1.413032	 0.024538	 -0.079741	 0.755212	 -0.644290	 0.090478	 1
1463624295.805	 18	 -0.008532	 -0.053000	 0.001600	 2.925730	 -1.413096	 0.026707	 -0.080025	 0.755180	 -0.644283	 0.090545	 1
1463624295.815	 18	 -0.011714	 -0.051903	 0.004831	 2.926973	 -1.413264	 0.028451	 -0.080289	 0.755112	 -0.644317	 0.090633	 1
1463624295.825	 18	 -0.009564	 -0.049774	 0.005894	 2.928010	 -1.413375	 0.029959	 -0.080529	 0.755063	 -0.644332	 0.090724	 1
1463624295.835	 18	 -0.004244	 -0.050876	 0.002637	 2.928764	 -1.413606	 0.031198	 -0.080762	 0.754972	 -0.644394	 0.090832	 1
1463624295.855	 19	 0.003298	 -0.040230	 0.006927	 2.929976	 -1.414180	 0.033264	 -0.081171	 0.754758	 -0.644567	 0.091024	 1
1463624295.875	 20	 0.003387	 -0.024259	 0.009200	 2.930640	 -1.414757	 0.034508	 -0.081447	 0.754551	 -0.644755	 0.091158	 1
1463624295.885	 20	 0.005594	 -0.009374	 0.009317	 2.931045	 -1.414989	 0.035022	 -0.081518	 0.754474	 -0.644836	 0.091165	 1
1463624295.895	 20	 0.003502	 -0.000858	 0.009411	 2.931678	 -1.415206	 0.035661	 -0.081562	 0.754406	 -0.644915	 0.091126	 1
1463624295.905	 20	 0.003490	 -0.001937	 0.007267	 2.932420	 -1.415483	 0.036390	 -0.081608	 0.754320	 -0.645017	 0.091074	 1
1463624295.915	 20	 0.002432	 0.000186	 0.006227	 2.933054	 -1.415767	 0.037010	 -0.081646	 0.754232	 -0.645122	 0.091027	 1
1463624295.925	 20	 0.000315	 -0.000832	 0.011563	 2.933521	 -1.415903	 0.037454	 -0.081668	 0.754191	 -0.645172	 0.090990	 1
1463624295.935	 20	 0.002471	 -0.001855	 0.017927	 2.933319	 -1.416051	 0.037242	 -0.081658	 0.754143	 -0.645229	 0.090994	 1
1463624295.945	 20	 0.005657	 -0.006112	 0.018923	 2.933064	 -1.416200	 0.037011	 -0.081658	 0.754092	 -0.645286	 0.091012	 1
1463624295.965	 21	 0.009828	 -0.030557	 0.022917	 2.932127	 -1.416478	 0.036436	 -0.081753	 0.753983	 -0.645379	 0.091172	 1
1463624295.975	 21	 0.007692	 -0.032662	 0.025044	 2.931781	 -1.416584	 0.036383	 -0.081848	 0.753935	 -0.645408	 0.091283	 1
1463624295.985	 21	 0.004502	 -0.028412	 0.022977	 2.931422	 -1.416611	 0.036288	 -0.081929	 0.753913	 -0.645407	 0.091387	 1
1463624295.995	 21	 0.002387	 -0.019935	 0.017742	 2.931575	 -1.416632	 0.036628	 -0.082008	 0.753900	 -0.645406	 0.091438	 1
1463624296.005	 21	 0.000275	 -0.008289	 0.009339	 2.932310	 -1.416691	 0.037455	 -0.082085	 0.753880	 -0.645421	 0.091426	 1
1463624296.015	 21	 -0.002879	 0.005518	 0.005229	 2.933483	 -1.416664	 0.038572	 -0.082127	 0.753897	 -0.645407	 0.091345	 1
1463624296.025	 21	 -0.006015	 0.017244	 0.007493	 2.935117	 -1.416706	 0.040034	 -0.082152	 0.753898	 -0.645424	 0.091200	 1
1463624296.035	 21	 -0.007059	 0.019398	 0.010718	 2.935182	 -1.416706	 0.039901	 -0.082081	 0.753906	 -0.645433	 0.091133	 1
1463624296.055	 22	 -0.002793	 0.011993	 0.018070	 2.934649	 -1.416816	 0.039035	 -0.081930	 0.753882	 -0.645492	 0.091051	 1
1463624296.065	 22	 -0.004924	 0.008840	 0.022319	 2.934476	 -1.416907	 0.038736	 -0.081876	 0.753857	 -0.645533	 0.091017	 1
1463624296.075	 22	 -0.008147	 0.004588	 0.021239	 2.934373	 -1.417004	 0.038553	 -0.081843	 0.753828	 -0.645573	 0.090995	 1
1463624296.085	 22	 -0.010268	 0.008834	 0.019162	 2.934792	 -1.417050	 0.038859	 -0.081825	 0.753820	 -0.645594	 0.090934	 1
1463624296.095	 22	 -0.012404	 0.008833	 0.018111	 2.935092	 -1.417132	 0.039044	 -0.081801	 0.753799	 -0.645629	 0.090879	 1
1463624296.105	 22	 -0.013491	 0.006686	 0.014900	 2.935580	 -1.417271	 0.039435	 -0.081795	 0.753760	 -0.645684	 0.090817	 1
1463624296.115	 22	 -0.012460	 0.000286	 0.012697	 2.935930	 -1.417392	 0.039745	 -0.081803	 0.753724	 -0.645730	 0.090783	 1
1463624296.125	 22	 -0.005001	 -0.001871	 0.011542	 2.936372	 -1.417569	 0.040186	 -0.081832	 0.753669	 -0.645795	 0.090754	 1
1463624296.135	 22	 0.000338	 0.000225	 0.009381	 2.936906	 -1.417722	 0.040708	 -0.081861	 0.753622	 -0.645851	 0.090717	 1
1463624296.145	 22	 0.005694	 0.003408	 0.010427	 2.937308	 -1.417829	 0.041060	 -0.081868	 0.753591	 -0.645892	 0.090677	 1
1463624296.155	 22	 0.009975	 0.004475	 0.012529	 2.937684	 -1.417888	 0.041363	 -0.081862	 0.753576	 -0.645916	 0.090631	 1
1463624296.165	 22	 0.007825	 0.001291	 0.012515	 2.937834	 -1.417916	 0.041462	 -0.081852	 0.753570	 -0.645928	 0.090606	 1
1463624296.175	 22	 0.002444	 -0.006154	 0.010359	 2.938131	 -1.417895	 0.041781	 -0.081876	 0.753577	 -0.645918	 0.090598	 1
1463624296.185	 22	 -0.007181	 -0.010380	 0.010401	 2.938500	 -1.417764	 0.042230	 -0.081921	 0.753618	 -0.645863	 0.090607	 1
1463624296.195	 22	 -0.015742	 -0.012504	 0.007256	 2.939108	 -1.417628	 0.042941	 -0.081989	 0.753661	 -0.645804	 0.090611	 1
1463624296.205	 22	 -0.019994	 -0.008244	 0.006265	 2.939793	 -1.417482	 0.043712	 -0.082053	 0.753708	 -0.645742	 0.090605	 1
1463624296.215	 22	 -0.016755	 -0.001864	 0.007359	 2.940253	 -1.417497	 0.044194	 -0.082087	 0.753704	 -0.645745	 0.090587	 1
1463624296.225	 22	 -0.011413	 -0.000816	 0.007320	 2.940677	 -1.417510	 0.044614	 -0.082109	 0.753701	 -0.645748	 0.090563	 1
1463624296.235	 22	 -0.002863	 0.002342	 0.006207	 2.941200	 -1.417590	 0.045105	 -0.082127	 0.753679	 -0.645778	 0.090522	 1
1463624296.245	 22	 0.002480	 0.003390	 0.006167	 2.941779	 -1.417740	 0.045639	 -0.082146	 0.753634	 -0.645834	 0.090473	 1
1463624296.255	 22	 0.001425	 0.002361	 0.010428	 2.942199	 -1.417792	 0.046023	 -0.082157	 0.753621	 -0.645854	 0.090437	 1
1463624296.265	 22	 0.000353	 0.001301	 0.010424	 2.942628	 -1.417863	 0.046414	 -0.082168	 0.753601	 -0.645880	 0.090400	 1
1463624296.275	 22	 -0.001802	 -0.002947	 0.010401	 2.943105	 -1.417827	 0.046888	 -0.082191	 0.753615	 -0.645865	 0.090375	 1
1463624296.285	 22	 -0.005048	 -0.011454	 0.009282	 2.943452	 -1.417793	 0.047305	 -0.082235	 0.753625	 -0.645847	 0.090379	 1
1463624296.295	 22	 -0.009332	 -0.014632	 0.009287	 2.943821	 -1.417707	 0.047787	 -0.082295	 0.753649	 -0.645808	 0.090398	 1
1463624296.305	 22	 -0.009348	 -0.018879	 0.010311	 2.944142	 -1.417647	 0.048274	 -0.082373	 0.753663	 -0.645777	 0.090435	 1
1463624296.315	 22	 -0.011457	 -0.014609	 0.011432	 2.944464	 -1.417565	 0.048739	 -0.082442	 0.753685	 -0.645738	 0.090466	 1
1463624296.325	 22	 -0.009296	 -0.008241	 0.010404	 2.944534	 -1.417525	 0.048887	 -0.082474	 0.753695	 -0.645719	 0.090488	 1
1463624296.335	 22	 -0.003960	 -0.008257	 0.010356	 2.944504	 -1.417520	 0.048924	 -0.082498	 0.753694	 -0.645714	 0.090512	 1
1463624296.345	 22	 -0.002889	 -0.009308	 0.012466	 2.944254	 -1.417537	 0.048740	 -0.082510	 0.753685	 -0.645719	 0.090546	 1
1463624296.365	 23	 -0.004052	 -0.030570	 0.013340	 2.943848	 -1.417530	 0.048769	 -0.082651	 0.753668	 -0.645698	 0.090709	 1
1463624296.375	 23	 -0.005133	 -0.033758	 0.013318	 2.943599	 -1.417532	 0.048832	 -0.082756	 0.753653	 -0.645686	 0.090823	 1
1463624296.385	 23	 -0.006194	 -0.031634	 0.012279	 2.943409	 -1.417502	 0.048945	 -0.082858	 0.753649	 -0.645661	 0.090932	 1
1463624296.395	 23	 -0.006167	 -0.024204	 0.010213	 2.943667	 -1.417455	 0.049446	 -0.082963	 0.753656	 -0.645631	 0.090997	 1
1463624296.405	 23	 -0.006131	 -0.015702	 0.009224	 2.943887	 -1.417408	 0.049817	 -0.083030	 0.753665	 -0.645606	 0.091035	 1
1463624296.415	 23	 -0.008253	 -0.010400	 0.006092	 2.944325	 -1.417335	 0.050354	 -0.083089	 0.753687	 -0.645572	 0.091045	 1
1463624296.425	 23	 -0.008244	 -0.009328	 0.007165	 2.944605	 -1.417276	 0.050716	 -0.083133	 0.753704	 -0.645545	 0.091058	 1
1463624296.435	 23	 -0.009310	 -0.010381	 0.008229	 2.944646	 -1.417271	 0.050845	 -0.083169	 0.753702	 -0.645539	 0.091084	 1
1463624296.445	 23	 -0.011444	 -0.012486	 0.010357	 2.944704	 -1.417269	 0.051004	 -0.083210	 0.753698	 -0.645533	 0.091114	 1
1463624296.455	 23	 -0.008230	 -0.010368	 0.010347	 2.944808	 -1.417313	 0.051207	 -0.083254	 0.753681	 -0.645545	 0.091139	 1
1463624296.465	 23	 -0.008218	 -0.009296	 0.011419	 2.944848	 -1.417403	 0.051329	 -0.083290	 0.753648	 -0.645575	 0.091161	 1
1463624296.475	 23	 -0.007133	 -0.006108	 0.011437	 2.945029	 -1.417507	 0.051565	 -0.083323	 0.753613	 -0.645611	 0.091167	 1
1463624296.485	 23	 -0.006051	 -0.001872	 0.009332	 2.945355	 -1.417647	 0.051899	 -0.083348	 0.753568	 -0.645662	 0.091149	 1
1463624296.495	 23	 -0.003917	 -0.000830	 0.007189	 2.945703	 -1.417800	 0.052241	 -0.083368	 0.753520	 -0.645719	 0.091124	 1
1463624296.505	 23	 0.000347	 0.000198	 0.003961	 2.946244	 -1.418005	 0.052766	 -0.083398	 0.753456	 -0.645796	 0.091086	 1
1463624296.515	 23	 0.003545	 0.001230	 0.000743	 2.946902	 -1.418287	 0.053407	 -0.083434	 0.753368	 -0.645901	 0.091039	 1
1463624296.525	 23	 0.006739	 0.000149	 -0.000364	 2.947549	 -1.418486	 0.054043	 -0.083471	 0.753306	 -0.645974	 0.090996	 1
1463624296.535	 23	 0.004600	 -0.001964	 0.000699	 2.948130	 -1.418636	 0.054623	 -0.083506	 0.753260	 -0.646028	 0.090962	 1
1463624296.545	 23	 0.004584	 -0.006211	 0.001723	 2.948664	 -1.418695	 0.055193	 -0.083550	 0.753241	 -0.646047	 0.090944	 1
1463624296.555	 23	 0.005650	 -0.007270	 0.002769	 2.948790	 -1.418729	 0.055383	 -0.083581	 0.753227	 -0.646057	 0.090957	 1
1463624296.565	 23	 0.007781	 -0.010444	 0.005916	 2.948982	 -1.418755	 0.055661	 -0.083625	 0.753216	 -0.646062	 0.090974	 1
1463624296.575	 23	 0.008825	 -0.015757	 0.006922	 2.948930	 -1.418749	 0.055737	 -0.083670	 0.753212	 -0.646054	 0.091018	 1
1463624296.585	 23	 0.007725	 -0.023192	 0.007927	 2.948604	 -1.418724	 0.055614	 -0.083728	 0.753211	 -0.646036	 0.091101	 1
1463624296.605	 24	 -0.000824	 -0.026342	 0.010101	 2.947840	 -1.418499	 0.055360	 -0.083873	 0.753260	 -0.645931	 0.091312	 1
1463624296.615	 24	 -0.008265	 -0.018881	 0.009169	 2.947660	 -1.418330	 0.055377	 -0.083933	 0.753306	 -0.645859	 0.091389	 1
1463624296.625	 24	 -0.014594	 -0.003963	 0.010427	 2.947694	 -1.418102	 0.055481	 -0.083955	 0.753377	 -0.645769	 0.091414	 1
1463624296.635	 24	 -0.016660	 0.010935	 0.010582	 2.947809	 -1.417830	 0.055512	 -0.083922	 0.753469	 -0.645670	 0.091387	 1
1463624296.645	 24	 -0.013416	 0.020491	 0.009575	 2.948228	 -1.417713	 0.055734	 -0.083867	 0.753517	 -0.645633	 0.091303	 1
1463624296.655	 24	 -0.008069	 0.022602	 0.009546	 2.948613	 -1.417715	 0.055880	 -0.083798	 0.753528	 -0.645643	 0.091205	 1
1463624296.665	 24	 -0.001669	 0.020464	 0.010534	 2.948714	 -1.417820	 0.055753	 -0.083720	 0.753504	 -0.645693	 0.091124	 1
1463624296.675	 24	 0.003653	 0.017257	 0.010456	 2.948906	 -1.417947	 0.055751	 -0.083661	 0.753472	 -0.645749	 0.091048	 1
1463624296.685	 24	 0.005777	 0.014068	 0.011470	 2.949097	 -1.418068	 0.055781	 -0.083614	 0.753440	 -0.645801	 0.090984	 1
1463624296.695	 24	 0.004691	 0.010873	 0.010382	 2.949390	 -1.418135	 0.055936	 -0.083580	 0.753425	 -0.645832	 0.090922	 1
1463624296.705	 24	 0.001466	 0.008732	 0.007189	 2.950030	 -1.418164	 0.056469	 -0.083574	 0.753422	 -0.645845	 0.090852	 1
1463624296.715	 24	 -0.002783	 0.013000	 0.007263	 2.950793	 -1.418117	 0.057095	 -0.083563	 0.753446	 -0.645831	 0.090768	 1
1463624296.725	 24	 -0.007068	 0.010878	 0.006212	 2.951501	 -1.417981	 0.057669	 -0.083547	 0.753498	 -0.645783	 0.090689	 1
1463624296.735	 24	 -0.012430	 0.004520	 0.007263	 2.952198	 -1.417874	 0.058286	 -0.083551	 0.753539	 -0.645744	 0.090628	 1
1463624296.745	 24	 -0.014624	 -0.007181	 0.006105	 2.952758	 -1.417760	 0.058875	 -0.083589	 0.753577	 -0.645697	 0.090609	 1
1463624296.755	 24	 -0.014677	 -0.016770	 0.003882	 2.953217	 -1.417686	 0.059465	 -0.083662	 0.753597	 -0.645662	 0.090628	 1
1463624296.765	 24	 -0.012549	 -0.022106	 0.003804	 2.953553	 -1.417666	 0.060014	 -0.083760	 0.753595	 -0.645643	 0.090679	 1
1463624296.775	 24	 -0.006140	 -0.021062	 0.003757	 2.953568	 -1.417702	 0.060239	 -0.083840	 0.753575	 -0.645647	 0.090745	 1
1463624296.785	 24	 -0.001833	 -0.016789	 0.008021	 2.953441	 -1.417761	 0.060281	 -0.083898	 0.753548	 -0.645663	 0.090806	 1
1463624296.795	 24	 -0.001797	 -0.010399	 0.009144	 2.953388	 -1.417816	 0.060336	 -0.083938	 0.753526	 -0.645679	 0.090842	 1
1463624296.805	 24	 0.000353	 -0.006158	 0.008098	 2.953262	 -1.417835	 0.060265	 -0.083952	 0.753517	 -0.645684	 0.090866	 1
1463624296.815	 24	 -0.004967	 -0.002951	 0.008173	 2.953218	 -1.417776	 0.060238	 -0.083955	 0.753535	 -0.645661	 0.090876	 1
1463624296.825	 24	 -0.007086	 0.000246	 0.008219	 2.953322	 -1.417719	 0.060339	 -0.083958	 0.753554	 -0.645639	 0.090870	 1
1463624296.835	 24	 -0.009223	 0.002357	 0.005059	 2.953530	 -1.417655	 0.060520	 -0.083957	 0.753577	 -0.645615	 0.090851	 1
1463624296.846	 24	 -0.008135	 0.006609	 0.005088	 2.953810	 -1.417627	 0.060731	 -0.083945	 0.753590	 -0.645607	 0.090814	 1
1463624296.855	 24	 -0.003849	 0.010843	 0.004023	 2.953957	 -1.417657	 0.060774	 -0.083915	 0.753585	 -0.645622	 0.090772	 1
1463624296.865	 24	 -0.004906	 0.010862	 0.006163	 2.954136	 -1.417690	 0.060843	 -0.083884	 0.753579	 -0.645640	 0.090726	 1
1463624296.876	 24	 -0.002783	 0.006616	 0.008236	 2.954086	 -1.417736	 0.060707	 -0.083850	 0.753568	 -0.645661	 0.090701	 1
1463624296.885	 24	 -0.000658	 0.003426	 0.009252	 2.953989	 -1.417805	 0.060553	 -0.083826	 0.753547	 -0.645690	 0.090686	 1
1463624296.895	 24	 -0.002793	 0.001321	 0.011381	 2.953859	 -1.417831	 0.060390	 -0.083807	 0.753540	 -0.645702	 0.090682	 1
1463624296.906	 24	 -0.003882	 -0.001882	 0.009227	 2.953837	 -1.417899	 0.060358	 -0.083804	 0.753518	 -0.645728	 0.090679	 1
1463624296.915	 24	 -0.004968	 -0.005077	 0.008139	 2.954065	 -1.417902	 0.060608	 -0.083824	 0.753517	 -0.645727	 0.090673	 1
1463624296.925	 24	 -0.009261	 -0.009327	 0.007069	 2.954441	 -1.417876	 0.061053	 -0.083870	 0.753524	 -0.645713	 0.090676	 1
1463624296.936	 24	 -0.010336	 -0.010395	 0.006001	 2.954743	 -1.417869	 0.061448	 -0.083921	 0.753523	 -0.645705	 0.090690	 1
1463624296.946	 24	 -0.009252	 -0.007207	 0.006020	 2.954998	 -1.417902	 0.061771	 -0.083961	 0.753511	 -0.645714	 0.090698	 1
1463624296.956	 24	 -0.002827	 -0.002971	 0.006001	 2.955146	 -1.417973	 0.061950	 -0.083982	 0.753487	 -0.645739	 0.090698	 1
1463624296.966	 24	 0.004669	 0.002325	 0.005984	 2.955093	 -1.418072	 0.061879	 -0.083975	 0.753455	 -0.645777	 0.090693	 1
1463624296.975	 24	 0.010009	 0.001261	 0.008058	 2.954846	 -1.418185	 0.061603	 -0.083954	 0.753419	 -0.645822	 0.090695	 1
1463624296.985	 24	 0.008945	 0.000216	 0.010189	 2.954327	 -1.418236	 0.061060	 -0.083918	 0.753402	 -0.645844	 0.090714	 1
1463624296.996	 24	 0.005746	 -0.000823	 0.012338	 2.953940	 -1.418229	 0.060661	 -0.083893	 0.753403	 -0.645843	 0.090732	 1
1463624297.005	 24	 0.000392	 -0.005054	 0.013411	 2.953286	 -1.418121	 0.060030	 -0.083863	 0.753435	 -0.645804	 0.090776	 1
1463624297.015	 24	 -0.006009	 -0.006083	 0.015588	 2.952659	 -1.417982	 0.059443	 -0.083841	 0.753476	 -0.645751	 0.090826	 1
1463624297.026	 24	 -0.011360	 -0.008202	 0.014547	 2.952356	 -1.417803	 0.059201	 -0.083843	 0.753531	 -0.645682	 0.090865	 1
1463624297.036	 24	 -0.012426	 -0.007142	 0.013500	 2.951942	 -1.417670	 0.058850	 -0.083841	 0.753570	 -0.645630	 0.090910	 1
1463624297.046	 24	 -0.009210	 -0.005017	 0.014556	 2.951614	 -1.417620	 0.058557	 -0.083835	 0.753584	 -0.645611	 0.090940	 1
1463624297.056	 24	 -0.003845	 0.001342	 0.013501	 2.951307	 -1.417700	 0.058237	 -0.083816	 0.753557	 -0.645643	 0.090951	 1
1463624297.065	 24	 0.000450	 0.006647	 0.013512	 2.950775	 -1.417788	 0.057641	 -0.083765	 0.753529	 -0.645681	 0.090957	 1
1463624297.085	 25	 0.006854	 0.005573	 0.014508	 2.950142	 -1.417992	 0.056838	 -0.083673	 0.753468	 -0.645768	 0.090932	 1
1463624297.105	 26	 0.001554	 0.013035	 0.014620	 2.949873	 -1.418121	 0.056317	 -0.083567	 0.753435	 -0.645829	 0.090863	 1
1463624297.115	 26	 -0.005921	 0.011994	 0.014673	 2.949833	 -1.418094	 0.056123	 -0.083506	 0.753451	 -0.645826	 0.090816	 1
1463624297.125	 26	 -0.011261	 0.010946	 0.014708	 2.949819	 -1.418031	 0.055982	 -0.083455	 0.753476	 -0.645808	 0.090777	 1
1463624297.135	 26	 -0.009158	 0.007718	 0.010395	 2.950139	 -1.417990	 0.056196	 -0.083432	 0.753495	 -0.645796	 0.090727	 1
1463624297.145	 26	 -0.001690	 0.007688	 0.009261	 2.950409	 -1.418093	 0.056380	 -0.083417	 0.753466	 -0.645838	 0.090682	 1
1463624297.155	 26	 0.004710	 0.007662	 0.008137	 2.950759	 -1.418229	 0.056638	 -0.083404	 0.753427	 -0.645893	 0.090631	 1
1463624297.165	 26	 0.008975	 0.007641	 0.007032	 2.951046	 -1.418389	 0.056838	 -0.083392	 0.753380	 -0.645956	 0.090584	 1
1463624297.175	 26	 0.010046	 0.006590	 0.009142	 2.951112	 -1.418513	 0.056823	 -0.083368	 0.753343	 -0.646007	 0.090552	 1
1463624297.185	 26	 0.012182	 0.005536	 0.011242	 2.951613	 -1.418549	 0.057244	 -0.083366	 0.753337	 -0.646022	 0.090498	 1
1463624297.195	 26	 0.012162	 -0.000823	 0.014380	 2.951213	 -1.418517	 0.056819	 -0.083334	 0.753346	 -0.646013	 0.090512	 1
1463624297.205	 26	 0.006801	 -0.010344	 0.015375	 2.950737	 -1.418459	 0.056401	 -0.083328	 0.753361	 -0.645989	 0.090557	 1
1463624297.215	 26	 0.001413	 -0.020965	 0.015322	 2.950308	 -1.418342	 0.056140	 -0.083365	 0.753391	 -0.645939	 0.090637	 1
1463624297.225	 26	 -0.006078	 -0.024141	 0.014291	 2.949718	 -1.418204	 0.055773	 -0.083414	 0.753424	 -0.645879	 0.090744	 1
1463624297.235	 26	 -0.013508	 -0.016665	 0.015490	 2.949211	 -1.418081	 0.055443	 -0.083450	 0.753455	 -0.645826	 0.090831	 1
1463624297.245	 26	 -0.013452	 -0.004965	 0.015597	 2.948853	 -1.417976	 0.055156	 -0.083455	 0.753485	 -0.645785	 0.090875	 1
1463624297.255	 26	 -0.010202	 0.007767	 0.012488	 2.948807	 -1.417925	 0.055048	 -0.083428	 0.753504	 -0.645768	 0.090859	 1
1463624297.265	 26	 -0.004819	 0.017324	 0.012528	 2.948958	 -1.418008	 0.055042	 -0.083379	 0.753484	 -0.645806	 0.090798	 1
1463624297.275	 26	 0.000553	 0.023698	 0.013605	 2.948954	 -1.418090	 0.054799	 -0.083291	 0.753467	 -0.645848	 0.090720	 1
1463624297.285	 26	 0.010157	 0.022613	 0.014575	 2.948885	 -1.418231	 0.054474	 -0.083194	 0.753432	 -0.645914	 0.090638	 1
1463624297.295	 26	 0.012261	 0.016225	 0.014496	 2.948631	 -1.418347	 0.054028	 -0.083112	 0.753401	 -0.645967	 0.090587	 1
1463624297.306	 26	 0.010078	 0.007707	 0.012302	 2.948828	 -1.418446	 0.054109	 -0.083081	 0.753374	 -0.646009	 0.090537	 1
1463624297.316	 26	 -0.001706	 -0.000775	 0.011258	 2.949034	 -1.418423	 0.054282	 -0.083079	 0.753384	 -0.646001	 0.090515	 1
1463624297.325	 26	 -0.010281	 -0.005034	 0.007028	 2.949587	 -1.418323	 0.054863	 -0.083117	 0.753417	 -0.645960	 0.090497	 1
1463624297.335	 26	 -0.014579	 -0.010347	 0.005948	 2.950208	 -1.418251	 0.055569	 -0.083180	 0.753439	 -0.645927	 0.090493	 1
1463624297.345	 26	 -0.014598	 -0.014602	 0.005906	 2.950705	 -1.418176	 0.056180	 -0.083248	 0.753461	 -0.645891	 0.090504	 1
1463624297.356	 26	 -0.012505	 -0.021013	 0.002629	 2.951218	 -1.418221	 0.056871	 -0.083344	 0.753441	 -0.645898	 0.090533	 1
1463624297.366	 26	 -0.011485	 -0.030597	 0.001463	 2.951541	 -1.418290	 0.057472	 -0.083468	 0.753408	 -0.645911	 0.090604	 1
1463624297.376	 26	 -0.009408	 -0.041255	 -0.000787	 2.951874	 -1.418370	 0.058191	 -0.083633	 0.753367	 -0.645922	 0.090709	 1
1463624297.386	 26	 -0.005132	 -0.043340	 -0.000895	 2.951987	 -1.418455	 0.058723	 -0.083799	 0.753322	 -0.645935	 0.090837	 1
1463624297.395	 26	 -0.002981	 -0.040156	 -0.000884	 2.951819	 -1.418545	 0.058965	 -0.083947	 0.753275	 -0.645951	 0.090977	 1
1463624297.405	 26	 -0.001861	 -0.032682	 0.003438	 2.951383	 -1.418569	 0.058875	 -0.084055	 0.753251	 -0.645946	 0.091111	 1
1463624297.416	 26	 -0.000769	 -0.028423	 0.004534	 2.950894	 -1.418562	 0.058677	 -0.084138	 0.753240	 -0.645932	 0.091231	 1
1463624297.426	 26	 -0.000750	 -0.025225	 0.005629	 2.950332	 -1.418569	 0.058362	 -0.084201	 0.753225	 -0.645925	 0.091341	 1
1463624297.436	 26	 -0.002864	 -0.022019	 0.006742	 2.949982	 -1.418589	 0.058241	 -0.084269	 0.753208	 -0.645923	 0.091434	 1
1463624297.446	 26	 -0.008173	 -0.015629	 0.005782	 2.949749	 -1.418554	 0.058174	 -0.084318	 0.753211	 -0.645904	 0.091501	 1
1463624297.456	 26	 -0.008141	 -0.008191	 0.004784	 2.949567	 -1.418564	 0.058081	 -0.084342	 0.753203	 -0.645904	 0.091539	 1
1463624297.466	 26	 -0.008105	 -0.000746	 0.004853	 2.949309	 -1.418529	 0.057844	 -0.084335	 0.753213	 -0.645890	 0.091560	 1
1463624297.476	 26	 -0.003812	 0.001392	 0.008033	 2.948835	 -1.418563	 0.057357	 -0.084306	 0.753201	 -0.645906	 0.091581	 1
1463624297.486	 26	 0.001523	 -0.000736	 0.010098	 2.948463	 -1.418627	 0.056971	 -0.084282	 0.753179	 -0.645932	 0.091595	 1
1463624297.496	 26	 0.004701	 -0.005008	 0.008963	 2.948083	 -1.418730	 0.056619	 -0.084275	 0.753143	 -0.645971	 0.091622	 1
1463624297.506	 26	 0.006809	 -0.011388	 0.009950	 2.947931	 -1.418818	 0.056548	 -0.084300	 0.753110	 -0.646001	 0.091655	 1
1463624297.526	 27	 -0.004976	 -0.016710	 0.004671	 2.948213	 -1.418827	 0.057121	 -0.084425	 0.753096	 -0.645990	 0.091733	 1
1463624297.546	 27	 -0.011351	 -0.011341	 0.000450	 2.949020	 -1.418696	 0.058215	 -0.084573	 0.753130	 -0.645924	 0.091786	 1
1463624297.536	 27	 -0.010296	 -0.015583	 0.002534	 2.948547	 -1.418767	 0.057619	 -0.084503	 0.753110	 -0.645959	 0.091770	 1
1463624297.556	 27	 -0.009192	 -0.007085	 0.001536	 2.949070	 -1.418656	 0.058336	 -0.084601	 0.753140	 -0.645906	 0.091806	 1
1463624297.566	 27	 -0.001703	 -0.006020	 0.004678	 2.948996	 -1.418724	 0.058323	 -0.084622	 0.753115	 -0.645929	 0.091829	 1
1463624297.576	 27	 0.005767	 -0.006043	 0.004612	 2.948612	 -1.418813	 0.058000	 -0.084626	 0.753082	 -0.645962	 0.091867	 1
1463624297.586	 27	 0.008977	 -0.006037	 0.006716	 2.947971	 -1.418879	 0.057419	 -0.084617	 0.753056	 -0.645986	 0.091920	 1
1463624297.595	 27	 0.004717	 -0.004953	 0.007829	 2.947407	 -1.418866	 0.056898	 -0.084602	 0.753056	 -0.645981	 0.091964	 1
1463624297.606	 27	 -0.001682	 -0.004926	 0.008951	 2.946882	 -1.418799	 0.056409	 -0.084586	 0.753075	 -0.645956	 0.092005	 1
1463624297.616	 27	 -0.004874	 -0.003845	 0.010054	 2.946706	 -1.418730	 0.056255	 -0.084583	 0.753095	 -0.645930	 0.092023	 1
1463624297.626	 27	 -0.008056	 0.000419	 0.010120	 2.946446	 -1.418632	 0.055991	 -0.084564	 0.753126	 -0.645894	 0.092038	 1
1463624297.636	 27	 -0.006973	 0.003607	 0.010140	 2.946258	 -1.418585	 0.055761	 -0.084537	 0.753143	 -0.645878	 0.092035	 1
1463624297.646	 27	 -0.000554	 0.006779	 0.010112	 2.946145	 -1.418627	 0.055582	 -0.084508	 0.753131	 -0.645898	 0.092019	 1
1463624297.656	 27	 0.006936	 0.011012	 0.010085	 2.946026	 -1.418712	 0.055350	 -0.084461	 0.753108	 -0.645936	 0.091987	 1
1463624297.666	 27	 0.011222	 0.016302	 0.007964	 2.946145	 -1.418875	 0.055306	 -0.084411	 0.753062	 -0.646005	 0.091925	 1
1463624297.676	 27	 0.010168	 0.017384	 0.010114	 2.946021	 -1.418948	 0.055005	 -0.084339	 0.753046	 -0.646041	 0.091872	 1
1463624297.686	 27	 0.005917	 0.015386	 0.011118	 2.945920	 -1.418944	 0.054730	 -0.084269	 0.753054	 -0.646048	 0.091822	 1
1463624297.696	 27	 0.000570	 0.012219	 0.012200	 2.945590	 -1.418909	 0.054260	 -0.084197	 0.753070	 -0.646042	 0.091795	 1
1463624297.706	 27	 -0.004811	 0.002662	 0.012157	 2.945497	 -1.418861	 0.054109	 -0.084169	 0.753088	 -0.646027	 0.091782	 1
1463624297.716	 27	 -0.008035	 0.000521	 0.008967	 2.945796	 -1.418806	 0.054382	 -0.084173	 0.753108	 -0.646006	 0.091759	 1
1463624297.726	 27	 -0.009096	 0.002644	 0.007928	 2.946132	 -1.418775	 0.054684	 -0.084178	 0.753120	 -0.645995	 0.091731	 1
1463624297.736	 27	 -0.006944	 0.007941	 0.005826	 2.946355	 -1.418840	 0.054835	 -0.084165	 0.753103	 -0.646022	 0.091694	 1
1463624297.756	 28	 0.002721	 0.020669	 0.004792	 2.947291	 -1.419165	 0.055405	 -0.084086	 0.753016	 -0.646158	 0.091519	 1
1463624297.766	 28	 0.008043	 0.018518	 0.003659	 2.947701	 -1.419363	 0.055603	 -0.084033	 0.752963	 -0.646241	 0.091424	 1
1463624297.776	 28	 0.011231	 0.015317	 0.003600	 2.948055	 -1.419582	 0.055781	 -0.083992	 0.752900	 -0.646330	 0.091344	 1
1463624297.786	 28	 0.010162	 0.013209	 0.005720	 2.948113	 -1.419729	 0.055693	 -0.083944	 0.752859	 -0.646393	 0.091291	 1
1463624297.796	 28	 0.004806	 0.008970	 0.005726	 2.948465	 -1.419793	 0.055925	 -0.083920	 0.752844	 -0.646421	 0.091232	 1
1463624297.806	 28	 -0.000538	 0.008971	 0.003640	 2.949079	 -1.419781	 0.056436	 -0.083914	 0.752854	 -0.646419	 0.091166	 1
1463624297.816	 28	 -0.006907	 0.015380	 0.004819	 2.949859	 -1.419721	 0.057077	 -0.083901	 0.752883	 -0.646399	 0.091081	 1
1463624297.836	 29	 -0.002459	 0.049436	 0.009358	 2.951361	 -1.419637	 0.057810	 -0.083689	 0.752948	 -0.646398	 0.090754	 1
1463624297.846	 29	 0.006132	 0.052910	 0.012414	 2.951433	 -1.419743	 0.057353	 -0.083497	 0.752936	 -0.646461	 0.090577	 1
1463624297.856	 29	 0.011483	 0.049757	 0.019799	 2.950367	 -1.419855	 0.055758	 -0.083244	 0.752917	 -0.646531	 0.090460	 1
1463624297.866	 29	 0.014704	 0.046618	 0.028268	 2.948561	 -1.420033	 0.053462	 -0.082968	 0.752873	 -0.646627	 0.090394	 1
1463624297.876	 29	 0.021200	 0.063640	 0.031567	 2.946985	 -1.420143	 0.051286	 -0.082662	 0.752856	 -0.646702	 0.090282	 1
1463624297.886	 29	 0.020297	 0.108233	 0.020265	 2.947266	 -1.420192	 0.050568	 -0.082302	 0.752883	 -0.646765	 0.089943	 1
1463624297.896	 29	 0.016163	 0.151725	 0.002586	 2.949384	 -1.420318	 0.051253	 -0.081878	 0.752908	 -0.646869	 0.089364	 1
1463624297.906	 29	 0.017407	 0.200550	 -0.010828	 2.952920	 -1.420522	 0.052887	 -0.081355	 0.752933	 -0.647017	 0.088557	 1
1463624297.916	 29	 0.017434	 0.212197	 -0.018182	 2.956846	 -1.420890	 0.054712	 -0.080782	 0.752912	 -0.647235	 0.087662	 1
1463624297.926	 29	 0.012164	 0.236584	 -0.030700	 2.961929	 -1.421090	 0.057504	 -0.080193	 0.752956	 -0.647394	 0.086649	 1
1463624297.936	 29	 0.018528	 0.235440	 -0.039294	 2.967597	 -1.421436	 0.060816	 -0.079613	 0.752955	 -0.647608	 0.085581	 1
1463624297.956	 30	 0.035323	 0.176880	 -0.041054	 2.977923	 -1.422473	 0.067152	 -0.078676	 0.752803	 -0.648141	 0.083730	 1
1463624297.966	 30	 0.046940	 0.146037	 -0.036114	 2.981094	 -1.423343	 0.068813	 -0.078290	 0.752586	 -0.648525	 0.083064	 1
1463624297.976	 30	 0.054275	 0.115184	 -0.034333	 2.983541	 -1.424236	 0.070049	 -0.077978	 0.752348	 -0.648907	 0.082533	 1
1463624297.986	 30	 0.064777	 0.078987	 -0.034761	 2.985750	 -1.425140	 0.071396	 -0.077784	 0.752091	 -0.649279	 0.082127	 1
1463624297.996	 30	 0.070981	 0.044861	 -0.044725	 2.988475	 -1.426084	 0.073625	 -0.077753	 0.751808	 -0.649651	 0.081816	 1
1463624298.006	 30	 0.067645	 0.023536	 -0.053421	 2.991631	 -1.426921	 0.076545	 -0.077839	 0.751549	 -0.649970	 0.081570	 1
1463624298.016	 30	 0.018106	 0.152412	 -0.048593	 2.996923	 -1.426497	 0.080669	 -0.077663	 0.751742	 -0.649848	 0.080925	 1
1463624298.026	 30	 -0.035516	 0.109990	 -0.069955	 3.003564	 -1.425715	 0.085996	 -0.077498	 0.752059	 -0.649596	 0.080164	 1
1463624298.036	 30	 -0.059851	 -0.041242	 -0.107387	 3.010758	 -1.425720	 0.093289	 -0.077904	 0.752062	 -0.649586	 0.079828	 1
1463624298.046	 30	 -0.017716	 -0.122518	 -0.151142	 3.020048	 -1.426101	 0.103776	 -0.078832	 0.751897	 -0.649675	 0.079741	 1
1463624298.056	 30	 0.034412	 -0.117695	 -0.198449	 3.034095	 -1.426718	 0.119140	 -0.080046	 0.751644	 -0.649855	 0.079454	 1
1463624298.066	 30	 0.058710	 -0.140360	 -0.234046	 3.051125	 -1.427676	 0.137578	 -0.081437	 0.751261	 -0.650174	 0.079055	 1
1463624298.076	 30	 0.064832	 -0.178856	 -0.260039	 3.068552	 -1.428854	 0.156938	 -0.083029	 0.750767	 -0.650571	 0.078824	 1
1463624298.086	 30	 0.088655	 -0.088669	 -0.280723	 3.087116	 -1.429966	 0.176848	 -0.084444	 0.750298	 -0.650985	 0.078359	 1
1463624298.096	 30	 0.111588	 0.012390	 -0.269325	 3.106073	 -1.431155	 0.196105	 -0.085466	 0.749830	 -0.651487	 0.077553	 1
1463624298.106	 30	 0.121638	 0.096475	 -0.256907	 3.125201	 -1.432411	 0.214656	 -0.086149	 0.749360	 -0.652065	 0.076472	 1
1463624298.116	 30	 0.121957	 0.158214	 -0.249941	 -3.138445	 -1.433652	 0.232918	 -0.086573	 0.748907	 -0.652682	 0.075162	 1
1463624298.126	 30	 0.116662	 0.161467	 -0.243465	 -3.122053	 -1.434791	 0.247873	 -0.086772	 0.748499	 -0.653261	 0.073961	 1
1463624298.136	 30	 0.113364	 0.129667	 -0.229878	 -3.103266	 -1.435867	 0.265440	 -0.087154	 0.748074	 -0.653835	 0.072730	 1
1463624298.146	 30	 0.103670	 0.089461	 -0.204589	 -3.086326	 -1.436831	 0.281525	 -0.087577	 0.747670	 -0.654352	 0.071713	 1
1463624298.156	 30	 0.073697	 0.038765	 -0.167498	 -3.072284	 -1.437547	 0.295175	 -0.088041	 0.747340	 -0.654747	 0.070977	 1
1463624298.166	 30	 0.051382	 0.031717	 -0.139748	 -3.066595	 -1.437585	 0.300751	 -0.088260	 0.747283	 -0.654815	 0.070680	 1
1463624298.176	 30	 0.081724	 0.152676	 -0.167663	 -3.052383	 -1.438272	 0.313855	 -0.088455	 0.746982	 -0.655236	 0.069711	 1
1463624298.186	 30	 -0.001105	 0.190571	 -0.109038	 -3.041019	 -1.438385	 0.323464	 -0.088312	 0.746913	 -0.655448	 0.068624	 1
1463624298.196	 30	 -0.065182	 0.136894	 -0.056757	 -3.034752	 -1.437757	 0.328160	 -0.088058	 0.747122	 -0.655333	 0.067773	 1
1463624298.206	 30	 -0.070741	 0.072173	 -0.037062	 -3.031066	 -1.437473	 0.331053	 -0.087953	 0.747210	 -0.655293	 0.067322	 1
1463624298.216	 30	 -0.038853	 0.075013	 -0.072483	 -3.026201	 -1.436913	 0.335199	 -0.087950	 0.747371	 -0.655162	 0.066817	 1
1463624298.226	 30	 0.016396	 0.064919	 -0.122083	 -3.017416	 -1.436807	 0.343375	 -0.088135	 0.747337	 -0.655238	 0.066204	 1
1463624298.236	 30	 0.036541	 0.078331	 -0.171159	 -3.004597	 -1.436930	 0.355578	 -0.088484	 0.747181	 -0.655447	 0.065423	 1
1463624298.246	 30	 0.036438	 0.071810	 -0.190404	 -2.987997	 -1.437361	 0.371535	 -0.088966	 0.746875	 -0.655823	 0.064494	 1
1463624298.256	 30	 0.021515	 0.060285	 -0.172263	 -2.973923	 -1.437350	 0.385127	 -0.089426	 0.746723	 -0.656011	 0.063695	 1
1463624298.266	 30	 -0.003816	 0.093560	 -0.140826	 -2.962221	 -1.437067	 0.396018	 -0.089681	 0.746695	 -0.656088	 0.062870	 1
1463624298.276	 30	 0.022966	 0.085233	 -0.104901	 -2.952791	 -1.437036	 0.404705	 -0.089834	 0.746610	 -0.656228	 0.062197	 1
1463624298.286	 30	 0.048822	 0.109852	 -0.072921	 -2.947715	 -1.437415	 0.408801	 -0.089658	 0.746464	 -0.656466	 0.061686	 1
1463624298.296	 30	 0.064006	 0.134503	 -0.040851	 -2.941942	 -1.437936	 0.413339	 -0.089403	 0.746275	 -0.656773	 0.061078	 1
1463624298.306	 30	 0.045049	 0.157160	 -0.004239	 -2.938648	 -1.438401	 0.415131	 -0.088941	 0.746150	 -0.657032	 0.060489	 1
1463624298.316	 30	 0.016453	 0.173456	 0.031332	 -2.938270	 -1.438676	 0.413802	 -0.088292	 0.746134	 -0.657188	 0.059941	 1
1463624298.326	 30	 -0.014363	 0.179067	 0.059369	 -2.946774	 -1.438310	 0.403528	 -0.087290	 0.746445	 -0.656990	 0.059699	 1
1463624298.336	 30	 -0.041019	 0.168641	 0.077622	 -2.950957	 -1.438105	 0.397575	 -0.086462	 0.746644	 -0.656912	 0.059284	 1
1463624298.346	 30	 -0.067686	 0.161360	 0.089510	 -2.956556	 -1.437666	 0.390277	 -0.085620	 0.746931	 -0.656728	 0.058932	 1
1463624298.356	 30	 -0.092207	 0.155151	 0.103525	 -2.966935	 -1.436856	 0.378283	 -0.084624	 0.747391	 -0.656345	 0.058791	 1
1463624298.366	 30	 -0.100688	 0.161605	 0.110053	 -2.974619	 -1.436061	 0.368926	 -0.083720	 0.747811	 -0.656008	 0.058516	 1
1463624298.376	 30	 -0.098444	 0.194487	 0.098616	 -2.981333	 -1.435245	 0.360274	 -0.082759	 0.748234	 -0.655683	 0.058112	 1
1463624298.386	 30	 -0.087731	 0.215621	 0.083799	 -2.986651	 -1.434491	 0.352772	 -0.081761	 0.748627	 -0.655406	 0.057574	 1
1463624298.406	 31	 -0.084448	 0.258998	 0.053264	 -2.991142	 -1.432869	 0.343328	 -0.079833	 0.749397	 -0.654899	 0.056017	 1
1463624298.416	 31	 -0.090793	 0.267557	 0.057662	 -2.993321	 -1.432069	 0.338423	 -0.078774	 0.749785	 -0.654656	 0.055157	 1
1463624298.426	 31	 -0.097459	 0.212265	 0.057206	 -2.996154	 -1.431202	 0.333241	 -0.077830	 0.750186	 -0.654369	 0.054449	 1
1463624298.436	 31	 -0.100022	 0.129244	 0.047930	 -2.999203	 -1.430290	 0.328659	 -0.077181	 0.750571	 -0.654040	 0.054016	 1
1463624298.446	 31	 -0.100340	 0.068560	 0.039909	 -3.003559	 -1.429414	 0.323460	 -0.076723	 0.750932	 -0.653691	 0.053878	 1
1463624298.456	 31	 -0.104664	 0.051601	 0.046184	 -3.007063	 -1.428443	 0.319372	 -0.076409	 0.751304	 -0.653309	 0.053779	 1
1463624298.466	 31	 -0.102388	 0.064505	 0.066533	 -3.011553	 -1.427507	 0.314239	 -0.076017	 0.751677	 -0.652930	 0.053714	 1
1463624298.476	 31	 -0.104236	 0.094557	 0.103065	 -3.018025	 -1.426596	 0.306820	 -0.075408	 0.752075	 -0.652548	 0.053654	 1
1463624298.486	 31	 -0.117871	 0.104517	 0.151243	 -3.032992	 -1.425715	 0.290760	 -0.074311	 0.752555	 -0.652093	 0.053979	 1
1463624298.496	 31	 -0.125293	 0.046624	 0.231774	 -3.052452	 -1.424963	 0.270542	 -0.073091	 0.753012	 -0.651646	 0.054662	 1
1463624298.516	 32	 -0.105166	 -0.167787	 0.447027	 -3.107802	 -1.424171	 0.216301	 -0.070724	 0.753662	 -0.650884	 0.057805	 1
1463624298.526	 32	 -0.102257	 -0.308577	 0.540546	 3.135709	 -1.423449	 0.178994	 -0.069594	 0.754031	 -0.650324	 0.060595	 1
1463624298.546	 33	 -0.096000	 -0.451219	 0.673451	 3.046566	 -1.420885	 0.097474	 -0.067828	 0.754810	 -0.648906	 0.067699	 1
1463624298.556	 33	 -0.116369	 -0.339722	 0.786571	 2.993934	 -1.418878	 0.048073	 -0.066221	 0.755287	 -0.648101	 0.071563	 1
1463624298.566	 33	 -0.164468	 -0.196480	 0.866123	 2.939495	 -1.415932	 -0.004705	 -0.063821	 0.755963	 -0.647151	 0.075113	 1
1463624298.576	 33	 -0.237085	 -0.086862	 0.992469	 2.882805	 -1.411619	 -0.060981	 -0.060650	 0.756925	 -0.645923	 0.078551	 1
1463624298.586	 33	 -0.283958	 0.008158	 1.169613	 2.821585	 -1.405765	 -0.122882	 -0.056544	 0.758139	 -0.644423	 0.082146	 1
1463624298.596	 33	 -0.270248	 0.066701	 1.327771	 2.756557	 -1.398704	 -0.189356	 -0.051604	 0.759401	 -0.642842	 0.086031	 1
1463624298.606	 33	 -0.215944	 0.155783	 1.460281	 2.690064	 -1.390818	 -0.258262	 -0.045866	 0.760546	 -0.641374	 0.090030	 1
1463624298.616	 33	 -0.148935	 0.189810	 1.632668	 2.620698	 -1.381919	 -0.330703	 -0.039301	 0.761500	 -0.640050	 0.094384	 1
1463624298.636	 34	 -0.073367	 -0.072291	 1.893880	 2.477981	 -1.360172	 -0.477701	 -0.025119	 0.762705	 -0.637602	 0.105423	 1
1463624298.646	 34	 -0.123513	 -0.295507	 1.893305	 2.412618	 -1.347145	 -0.542152	 -0.018702	 0.763127	 -0.636126	 0.112386	 1
1463624298.666	 35	 -0.261827	 -0.797877	 1.789653	 2.305355	 -1.318256	 -0.640358	 -0.008660	 0.763978	 -0.632253	 0.128526	 1
1463624298.676	 35	 -0.340262	 -1.047302	 1.683570	 2.262419	 -1.303226	 -0.674551	 -0.005452	 0.764384	 -0.629863	 0.137695	 1
1463624298.686	 35	 -0.431515	 -1.285112	 1.560655	 2.226338	 -1.288231	 -0.699326	 -0.003504	 0.764834	 -0.627137	 0.147366	 1
1463624298.696	 35	 -0.510096	 -1.524255	 1.405644	 2.195835	 -1.273693	 -0.715842	 -0.002930	 0.765271	 -0.624135	 0.157501	 1
1463624298.706	 35	 -0.548727	 -1.665660	 1.251195	 2.169989	 -1.260107	 -0.725728	 -0.003570	 0.765634	 -0.621005	 0.167764	 1
1463624298.716	 35	 -0.534702	 -1.811828	 1.194293	 2.146044	 -1.247013	 -0.732504	 -0.004846	 0.765847	 -0.617820	 0.178194	 1
1463624298.726	 35	 -0.351444	 -1.822391	 1.131851	 2.119456	 -1.235137	 -0.740941	 -0.006545	 0.765411	 -0.615174	 0.188851	 1
1463624298.736	 35	 -0.124251	 -1.564029	 1.064068	 2.092144	 -1.224935	 -0.752695	 -0.007585	 0.764437	 -0.613376	 0.198364	 1
1463624298.756	 36	 0.163117	 -1.123891	 1.153054	 2.035282	 -1.206443	 -0.786475	 -0.006799	 0.761425	 -0.611639	 0.214669	 1
1463624298.766	 36	 0.205809	 -1.032131	 1.303633	 2.005993	 -1.195947	 -0.806602	 -0.005002	 0.759706	 -0.610984	 0.222531	 1
1463624298.776	 36	 0.280984	 -1.050473	 1.444554	 1.975499	 -1.184083	 -0.828347	 -0.002501	 0.757789	 -0.610328	 0.230759	 1
1463624298.786	 36	 0.485557	 -1.411071	 1.522547	 1.939225	 -1.171757	 -0.853540	 -0.000270	 0.754960	 -0.610168	 0.240271	 1
1463624298.796	 36	 0.694562	 -2.031672	 1.682276	 1.893534	 -1.158659	 -0.882943	 0.000947	 0.750681	 -0.610608	 0.252258	 1
1463624298.806	 36	 0.808532	 -2.536276	 1.959016	 1.840215	 -1.142925	 -0.914875	 0.001636	 0.745130	 -0.611118	 0.267045	 1
1463624298.816	 36	 0.900023	 -2.898755	 2.318271	 1.782634	 -1.123447	 -0.947482	 0.002513	 0.738559	 -0.611343	 0.284225	 1
1463624298.826	 36	 0.589893	 -3.044893	 2.867413	 1.727711	 -1.098108	 -0.974737	 0.004238	 0.731817	 -0.610072	 0.303708	 1
1463624298.836	 36	 -0.275893	 -2.822168	 3.602808	 1.691407	 -1.064262	 -0.983260	 0.007818	 0.727410	 -0.604547	 0.324557	 1
1463624298.846	 36	 -0.804755	 -2.303952	 4.447793	 1.670748	 -1.021414	 -0.978605	 0.014609	 0.725147	 -0.595026	 0.346254	 1
1463624298.856	 36	 -0.713191	 -1.541126	 5.101012	 1.658480	 -0.971322	 -0.972819	 0.026129	 0.723893	 -0.583524	 0.367145	 1
1463624298.866	 36	 -0.135629	 -1.009352	 5.330070	 1.645369	 -0.918213	 -0.975049	 0.041467	 0.721735	 -0.572635	 0.386612	 1
1463624298.876	 36	 0.413714	 -0.643563	 5.099552	 1.630337	 -0.866730	 -0.985157	 0.058648	 0.718206	 -0.563616	 0.403829	 1
1463624298.886	 36	 0.700224	 -0.586193	 4.620129	 1.614471	 -0.819599	 -0.998605	 0.075370	 0.713596	 -0.556360	 0.419003	 1
1463624298.896	 36	 0.667263	 -0.882556	 3.927045	 1.597950	 -0.778771	 -1.010655	 0.089281	 0.708302	 -0.550403	 0.432891	 1
1463624298.906	 36	 0.401013	 -1.314387	 3.232599	 1.580863	 -0.744893	 -1.018102	 0.099039	 0.702774	 -0.545177	 0.446186	 1
1463624298.916	 36	 0.209237	 -2.149495	 2.691485	 1.559533	 -0.716768	 -1.021420	 0.104252	 0.696337	 -0.540645	 0.460379	 1
1463624298.926	 36	 0.122450	 -2.808242	 2.312028	 1.531704	 -0.692739	 -1.022561	 0.105607	 0.688339	 -0.536957	 0.476145	 1
1463624298.936	 36	 0.069410	 -3.346724	 1.956844	 1.500327	 -0.672150	 -1.022033	 0.104330	 0.679388	 -0.533882	 0.492460	 1
1463624298.946	 36	 0.207519	 -3.950744	 1.441652	 1.461951	 -0.656319	 -1.022378	 0.099884	 0.668575	 -0.532456	 0.509432	 1
1463624298.956	 36	 0.200544	 -4.085339	 0.919303	 1.420372	 -0.645643	 -1.023463	 0.093040	 0.656884	 -0.532460	 0.525674	 1
1463624298.966	 36	 -0.035097	 -3.401139	 0.425747	 1.384519	 -0.640190	 -1.022681	 0.085233	 0.646893	 -0.532717	 0.538960	 1
1463624298.976	 36	 -0.256629	 -2.232882	 -0.046375	 1.361132	 -0.639930	 -1.019948	 0.078219	 0.640630	 -0.532878	 0.547281	 1
1463624298.986	 36	 -0.351067	 -1.660261	 -0.322652	 1.345430	 -0.643306	 -1.016659	 0.071730	 0.636755	 -0.533235	 0.552321	 1
1463624298.996	 36	 -0.416182	 -1.468356	 -0.286194	 1.332819	 -0.647241	 -1.012657	 0.065630	 0.633769	 -0.533334	 0.556403	 1
1463624299.006	 36	 -0.413432	 -1.475682	 -0.122159	 1.320978	 -0.649826	 -1.008034	 0.060044	 0.630852	 -0.532918	 0.560730	 1
1463624299.016	 36	 -0.499080	 -1.617232	 -0.022549	 1.308563	 -0.651462	 -1.002568	 0.054404	 0.627668	 -0.532049	 0.565682	 1
1463624299.026	 36	 -0.743108	 -1.863511	 0.091321	 1.295725	 -0.652675	 -0.994067	 0.047877	 0.624351	 -0.530192	 0.571656	 1
1463624299.036	 36	 -0.964496	 -2.198016	 0.368299	 1.281999	 -0.652497	 -0.982048	 0.040575	 0.620650	 -0.527004	 0.579149	 1
1463624299.046	 36	 -1.129319	 -2.608603	 0.736799	 1.266326	 -0.649462	 -0.966556	 0.032831	 0.616072	 -0.522195	 0.588804	 1
1463624299.056	 36	 -1.232251	 -2.937127	 1.006408	 1.248591	 -0.644201	 -0.948442	 0.024689	 0.610568	 -0.516075	 0.600220	 1
1463624299.066	 36	 -1.232464	 -3.190592	 1.254505	 1.228995	 -0.637024	 -0.929025	 0.016540	 0.604156	 -0.509040	 0.612862	 1
1463624299.076	 36	 -1.147890	 -3.367509	 1.532418	 1.207531	 -0.627341	 -0.909079	 0.008895	 0.596729	 -0.501184	 0.626618	 1
1463624299.086	 36	 -1.014672	 -3.573849	 1.732899	 1.183693	 -0.615448	 -0.889499	 0.001831	 0.588112	 -0.492824	 0.641284	 1
1463624299.096	 36	 -0.941033	 -3.671070	 1.849652	 1.158163	 -0.602366	 -0.870149	 -0.004882	 0.578580	 -0.484103	 0.656404	 1
1463624299.106	 36	 -0.996443	 -3.492720	 1.927463	 1.133983	 -0.588977	 -0.849920	 -0.011152	 0.569200	 -0.474826	 0.671139	 1
1463624299.116	 36	 -1.117587	 -3.203728	 1.982364	 1.113319	 -0.575939	 -0.827981	 -0.016971	 0.560799	 -0.464849	 0.684932	 1
1463624299.126	 36	 -1.174151	 -3.038185	 2.053671	 1.095156	 -0.563023	 -0.804765	 -0.022389	 0.553069	 -0.454273	 0.698033	 1
1463624299.136	 36	 -1.148972	 -3.013908	 2.184767	 1.077581	 -0.549419	 -0.780917	 -0.027343	 0.545309	 -0.443152	 0.710990	 1
1463624299.146	 36	 -1.094871	 -3.026428	 2.386674	 1.059977	 -0.534314	 -0.756479	 -0.031614	 0.537239	 -0.431341	 0.724099	 1
1463624299.156	 36	 -1.047074	 -3.070383	 2.651224	 1.042177	 -0.517172	 -0.731038	 -0.035101	 0.528749	 -0.418579	 0.737552	 1
1463624299.166	 36	 -1.006508	 -3.129699	 2.994560	 1.024133	 -0.497431	 -0.704037	 -0.037683	 0.519768	 -0.404536	 0.751513	 1
1463624299.176	 36	 -0.996556	 -3.154577	 3.381113	 1.006258	 -0.474802	 -0.674899	 -0.039254	 0.510429	 -0.388918	 0.765940	 1
1463624299.186	 36	 -1.196178	 -3.017364	 3.741159	 0.990096	 -0.450175	 -0.642168	 -0.040210	 0.501405	 -0.371315	 0.780449	 1
1463624299.196	 36	 -1.576517	 -2.730547	 3.831334	 0.978001	 -0.426477	 -0.605109	 -0.041544	 0.493917	 -0.351977	 0.793998	 1
1463624299.206	 36	 -1.742646	 -2.579688	 3.740397	 0.967356	 -0.405153	 -0.566395	 -0.043733	 0.487154	 -0.332152	 0.806501	 1
1463624299.216	 36	 -1.553842	 -2.302180	 3.657141	 0.957913	 -0.384146	 -0.529202	 -0.045210	 0.480940	 -0.312741	 0.817830	 1
1463624299.226	 36	 -1.204831	 -1.921561	 3.483924	 0.949820	 -0.362880	 -0.495906	 -0.045191	 0.475382	 -0.294665	 0.827733	 1
1463624299.236	 36	 -0.803302	 -1.485849	 3.302237	 0.943796	 -0.341020	 -0.467255	 -0.043321	 0.470805	 -0.278255	 0.836086	 1
1463624299.246	 36	 -0.418815	 -1.367261	 3.237113	 0.938107	 -0.317856	 -0.442731	 -0.039722	 0.466449	 -0.263175	 0.843556	 1
1463624299.256	 36	 -0.099318	 -1.607697	 3.357854	 0.929406	 -0.292182	 -0.420555	 -0.034720	 0.460780	 -0.248411	 0.851333	 1
1463624299.266	 36	 0.113578	 -1.892957	 3.561169	 0.917038	 -0.263816	 -0.399139	 -0.028613	 0.453448	 -0.233286	 0.859735	 1
1463624299.276	 36	 0.217234	 -1.994236	 3.717057	 0.902609	 -0.233515	 -0.377375	 -0.021719	 0.445145	 -0.217546	 0.868359	 1
1463624299.286	 36	 0.327639	 -2.098954	 3.694872	 0.886565	 -0.202708	 -0.355959	 -0.014413	 0.436147	 -0.201821	 0.876833	 1
1463624299.296	 36	 0.480430	 -2.153725	 3.537431	 0.868774	 -0.172340	 -0.336119	 -0.006835	 0.426444	 -0.186882	 0.884971	 1
1463624299.306	 36	 0.635632	 -2.168985	 3.402717	 0.849948	 -0.142462	 -0.318043	 0.001100	 0.416330	 -0.172874	 0.892627	 1
1463624299.316	 36	 0.825711	 -2.009035	 3.242686	 0.831458	 -0.112792	 -0.301765	 0.009628	 0.406385	 -0.159794	 0.899569	 1
1463624299.326	 36	 0.996856	 -1.745190	 3.028367	 0.814688	 -0.083668	 -0.287768	 0.018754	 0.397241	 -0.147938	 0.905518	 1
1463624299.336	 36	 1.070213	 -1.440276	 2.864307	 0.800369	 -0.055413	 -0.275336	 0.028171	 0.389256	 -0.137033	 0.910444	 1
1463624299.346	 36	 1.087487	 -1.110080	 2.790494	 0.788937	 -0.027797	 -0.263426	 0.037749	 0.382637	 -0.126530	 0.914415	 1
1463624299.356	 36	 1.078189	 -0.795427	 2.762596	 0.780393	 -0.000599	 -0.251484	 0.047428	 0.377402	 -0.116097	 0.917518	 1
1463624299.376	 36	 1.151210	 -0.481805	 2.772339	 0.768516	 0.053967	 -0.227354	 0.067358	 0.369479	 -0.095073	 0.921905	 1
1463624299.366	 36	 1.087780	 -0.578426	 2.769861	 0.773995	 0.026521	 -0.239347	 0.057246	 0.373211	 -0.105581	 0.919940	 1
1463624299.386	 36	 1.225788	 -0.494901	 2.756647	 0.762861	 0.081811	 -0.215802	 0.077789	 0.365686	 -0.084735	 0.923603	 1
1463624299.396	 36	 1.237337	 -0.525860	 2.745601	 0.756643	 0.109700	 -0.204373	 0.088301	 0.361685	 -0.074509	 0.925114	 1
1463624299.406	 36	 1.206499	 -0.729971	 2.747167	 0.748530	 0.137345	 -0.192553	 0.098633	 0.356898	 -0.064293	 0.926694	 1
1463624299.416	 36	 1.119371	 -1.072448	 2.712766	 0.736834	 0.164214	 -0.180104	 0.108480	 0.350591	 -0.054196	 0.928645	 1
1463624299.426	 36	 0.944722	 -1.397822	 2.654773	 0.721258	 0.189397	 -0.166614	 0.117398	 0.342701	 -0.044259	 0.931029	 1
1463624299.446	 37	 0.687029	 -1.934380	 2.628578	 0.679974	 0.234840	 -0.135564	 0.132622	 0.322938	 -0.024436	 0.936763	 1
1463624299.456	 37	 0.703953	 -2.187610	 2.622877	 0.654599	 0.256547	 -0.118735	 0.139836	 0.311097	 -0.014668	 0.939920	 1
1463624299.466	 37	 0.790461	 -2.352070	 2.566239	 0.626995	 0.278129	 -0.102003	 0.147259	 0.298291	 -0.005334	 0.943032	 1
1463624299.476	 37	 0.917722	 -2.407674	 2.430328	 0.598511	 0.299566	 -0.086237	 0.155024	 0.285091	 0.003224	 0.945875	 1
1463624299.486	 37	 1.071686	 -2.406368	 2.232899	 0.570155	 0.320776	 -0.072204	 0.163177	 0.271910	 0.010691	 0.948327	 1
1463624299.506	 38	 1.432809	 -2.412648	 1.806588	 0.514800	 0.363176	 -0.050682	 0.180930	 0.245876	 0.021857	 0.952014	 1
1463624299.516	 38	 1.599801	 -2.383562	 1.631684	 0.488146	 0.384608	 -0.043016	 0.190515	 0.233159	 0.025691	 0.953248	 1
1463624299.526	 38	 1.734072	 -2.314713	 1.500062	 0.462720	 0.405918	 -0.036838	 0.200301	 0.220943	 0.028653	 0.954066	 1
1463624299.546	 39	 1.799443	 -2.051840	 1.255746	 0.415335	 0.449832	 -0.026830	 0.220909	 0.198040	 0.033183	 0.954400	 1
1463624299.556	 39	 1.727179	 -1.896067	 1.146986	 0.394098	 0.470513	 -0.022495	 0.230708	 0.187801	 0.034905	 0.954089	 1
1463624299.566	 39	 1.627972	 -1.809236	 1.053805	 0.373859	 0.489865	 -0.018219	 0.239899	 0.178118	 0.036380	 0.953624	 1
1463624299.576	 39	 1.545571	 -1.766176	 0.945149	 0.354178	 0.507942	 -0.014200	 0.248524	 0.168754	 0.037496	 0.953075	 1
1463624299.586	 39	 1.502455	 -1.745740	 0.812495	 0.335073	 0.525024	 -0.010904	 0.256748	 0.159644	 0.038082	 0.952441	 1
1463624299.596	 39	 1.491119	 -1.752185	 0.652669	 0.316523	 0.541386	 -0.008803	 0.264723	 0.150699	 0.037954	 0.951720	 1
1463624299.606	 39	 1.490364	 -1.753552	 0.464023	 0.298748	 0.557151	 -0.008359	 0.272520	 0.141944	 0.036949	 0.950905	 1
1463624299.616	 39	 1.484341	 -1.728419	 0.260749	 0.282192	 0.572286	 -0.009863	 0.280111	 0.133531	 0.035009	 0.949990	 1
1463624299.626	 39	 1.457229	 -1.665856	 0.077190	 0.267192	 0.586721	 -0.013226	 0.287431	 0.125610	 0.032242	 0.948981	 1
1463624299.636	 39	 1.414521	 -1.561375	 -0.052555	 0.253938	 0.600430	 -0.017929	 0.294417	 0.118330	 0.028951	 0.947881	 1
1463624299.646	 39	 1.380619	 -1.438505	 -0.136377	 0.242416	 0.613593	 -0.023472	 0.301122	 0.111739	 0.025408	 0.946675	 1
1463624299.656	 39	 1.355554	 -1.290865	 -0.174218	 0.232546	 0.626428	 -0.029401	 0.307627	 0.105856	 0.021851	 0.945348	 1
1463624299.666	 39	 1.342704	 -1.074907	 -0.173163	 0.224708	 0.639123	 -0.035300	 0.314000	 0.100915	 0.018566	 0.943862	 1
1463624299.686	 40	 1.431462	 -0.600654	 -0.153536	 0.216100	 0.665391	 -0.046748	 0.326981	 0.094310	 0.013249	 0.940220	 1
1463624299.696	 40	 1.533524	 -0.471067	 -0.136167	 0.214807	 0.679811	 -0.052625	 0.334021	 0.092308	 0.011066	 0.937969	 1
1463624299.706	 40	 1.615889	 -0.443542	 -0.120641	 0.214141	 0.695161	 -0.058589	 0.341471	 0.090513	 0.009005	 0.935481	 1
1463624299.716	 40	 1.641413	 -0.473301	 -0.107286	 0.213376	 0.710944	 -0.064560	 0.349096	 0.088608	 0.006957	 0.932863	 1
1463624299.726	 40	 1.599352	 -0.580483	 -0.090865	 0.211672	 0.726518	 -0.070303	 0.356586	 0.086266	 0.004845	 0.930258	 1
1463624299.746	 41	 1.309381	 -0.738150	 -0.096202	 0.204743	 0.754224	 -0.080801	 0.369848	 0.080139	 0.000246	 0.925630	 1
1463624299.756	 41	 1.146250	 -0.711046	 -0.091332	 0.200666	 0.765635	 -0.085367	 0.375283	 0.076971	 -0.002002	 0.923707	 1
1463624299.766	 41	 1.026147	 -0.629669	 -0.065016	 0.196858	 0.775813	 -0.089268	 0.380104	 0.074083	 -0.003970	 0.921963	 1
1463624299.776	 41	 0.969174	 -0.526027	 -0.023057	 0.193564	 0.785352	 -0.092402	 0.384588	 0.071591	 -0.005532	 0.920291	 1
1463624299.786	 41	 0.969853	 -0.418083	 0.008683	 0.190931	 0.794829	 -0.095001	 0.389012	 0.069499	 -0.006732	 0.918583	 1
1463624299.796	 41	 1.009970	 -0.307387	 0.036008	 0.189243	 0.804697	 -0.097309	 0.393596	 0.067873	 -0.007599	 0.916743	 1
1463624299.806	 41	 1.044569	 -0.240239	 0.069371	 0.188128	 0.815000	 -0.099265	 0.398356	 0.066553	 -0.008170	 0.914777	 1
1463624299.816	 41	 1.058574	 -0.238986	 0.101233	 0.186903	 0.825546	 -0.100807	 0.403200	 0.065247	 -0.008563	 0.912743	 1
1463624299.826	 41	 1.049836	 -0.302595	 0.126296	 0.184914	 0.836115	 -0.101944	 0.408026	 0.063668	 -0.008929	 0.910704	 1
1463624299.836	 41	 1.005792	 -0.394732	 0.163123	 0.181605	 0.846413	 -0.102481	 0.412692	 0.061622	 -0.009316	 0.908736	 1
1463624299.846	 41	 0.926609	 -0.477138	 0.207808	 0.176760	 0.856078	 -0.102115	 0.417027	 0.059096	 -0.009660	 0.906920	 1
1463624299.856	 41	 0.846465	 -0.531931	 0.246363	 0.170568	 0.865028	 -0.100831	 0.420998	 0.056192	 -0.009929	 0.905265	 1
1463624299.866	 41	 0.753922	 -0.498424	 0.282651	 0.163806	 0.873149	 -0.098679	 0.424564	 0.053263	 -0.009993	 0.903775	 1
1463624299.876	 41	 0.662588	 -0.429866	 0.312860	 0.157016	 0.880389	 -0.095646	 0.427709	 0.050562	 -0.009733	 0.902449	 1
1463624299.886	 41	 0.567795	 -0.419762	 0.347883	 0.149903	 0.886773	 -0.091863	 0.430451	 0.047927	 -0.009269	 0.901293	 1
1463624299.896	 41	 0.479440	 -0.369543	 0.343791	 0.142680	 0.892203	 -0.087484	 0.432754	 0.045424	 -0.008624	 0.900325	 1
1463624299.906	 41	 0.390660	 -0.368600	 0.291285	 0.135991	 0.896736	 -0.083599	 0.434675	 0.043101	 -0.008143	 0.899519	 1
1463624299.916	 41	 0.285754	 -0.396298	 0.242915	 0.129461	 0.900161	 -0.080195	 0.436113	 0.040794	 -0.007901	 0.898932	 1
1463624299.926	 41	 0.232117	 -0.407192	 0.185730	 0.123177	 0.902832	 -0.077494	 0.437232	 0.038476	 -0.007961	 0.898490	 1
1463624299.936	 41	 0.166068	 -0.273921	 0.056456	 0.119192	 0.904749	 -0.076317	 0.438053	 0.036885	 -0.008236	 0.898155	 1
1463624299.946	 41	 0.156049	 -0.243010	 -0.084915	 0.117662	 0.906236	 -0.077485	 0.438733	 0.035897	 -0.009043	 0.897855	 1
1463624299.956	 41	 0.146247	 -0.211705	 -0.171931	 0.117585	 0.907537	 -0.080215	 0.439364	 0.035224	 -0.010240	 0.897560	 1
1463624299.966	 41	 0.141948	 -0.167458	 -0.232230	 0.118807	 0.908682	 -0.084028	 0.439950	 0.034898	 -0.011642	 0.897268	 1
1463624299.976	 41	 0.131334	 -0.136742	 -0.254233	 0.120778	 0.909717	 -0.088347	 0.440501	 0.034798	 -0.013108	 0.896982	 1
1463624299.986	 41	 0.114281	 -0.142980	 -0.241354	 0.122726	 0.910600	 -0.092564	 0.440982	 0.034712	 -0.014537	 0.896726	 1
1463624299.996	 41	 0.112027	 -0.188534	 -0.217245	 0.124007	 0.911427	 -0.096396	 0.441428	 0.034412	 -0.015941	 0.896495	 1
