% Gyrometer data recorded with 'snsrlog'
% 
% 
% Label description:
% 	 0: Default Label
% 	 1: still_drop
% 	 2: walk_drop
% 	 3: other
% 	 4: dtw_same
% 	 5: dtw_diff
% 	 6: delete
% 	 7: steal
% 
% Column description:
% 	 1: Seconds.milliseconds since 1970
% 	 2: Number of skipped measurements
% 	 3: Gyro X
% 	 4: Gyro Y
% 	 5: Gyro Z
% 	 6: Roll of the device
% 	 7: Pitch of the device
% 	 8: Yaw of the device
% 	 9: Quaternion X
% 	 10: Quaternion Y
% 	 11: Quaternion Z
% 	 12: Quaternion W
% 	 13: Label used for the current sample
% 
% 
1463630328.118	 0	 -0.873586	 1.111413	 -1.819124	 0.468497	 0.443382	 0.019013	 0.211712	 0.228455	 0.060055	 0.948356	 2
1463630328.128	 0	 -1.251311	 0.441415	 -1.814610	 0.479525	 0.424824	 0.007020	 0.203972	 0.232852	 0.053396	 0.949381	 2
1463630328.138	 0	 -1.587966	 0.124266	 -1.830616	 0.485257	 0.402972	 -0.002961	 0.194612	 0.235107	 0.046673	 0.951143	 2
1463630328.148	 0	 -1.735315	 0.404825	 -1.911984	 0.491845	 0.378989	 -0.012275	 0.184159	 0.237967	 0.040010	 0.952815	 2
1463630328.158	 0	 -1.631599	 1.004551	 -2.037330	 0.503878	 0.354731	 -0.022621	 0.173631	 0.243423	 0.033198	 0.953675	 2
1463630328.168	 0	 -1.391494	 2.242007	 -2.167520	 0.526778	 0.331561	 -0.034711	 0.163763	 0.253981	 0.026431	 0.952878	 2
1463630328.178	 0	 -1.108017	 3.668283	 -2.349619	 0.564565	 0.309497	 -0.049117	 0.154745	 0.271502	 0.019618	 0.949714	 2
1463630328.188	 0	 -0.900505	 5.111124	 -2.331605	 0.616309	 0.288606	 -0.064074	 0.146572	 0.295605	 0.013388	 0.943904	 2
1463630328.198	 0	 -0.767028	 6.581753	 -2.178402	 0.682275	 0.268833	 -0.077476	 0.139035	 0.326402	 0.008634	 0.934910	 2
1463630328.208	 0	 -0.621649	 7.619591	 -2.006949	 0.759169	 0.250377	 -0.088933	 0.132201	 0.362116	 0.005256	 0.922696	 2
1463630328.218	 0	 -0.490643	 8.088533	 -1.822547	 0.841487	 0.233345	 -0.098494	 0.126096	 0.399940	 0.002860	 0.907821	 2
1463630328.228	 0	 -0.368297	 8.043028	 -1.594896	 0.924038	 0.217990	 -0.106152	 0.120745	 0.437321	 0.001214	 0.891162	 2
1463630328.238	 0	 -0.220988	 7.596788	 -1.323233	 1.002568	 0.205095	 -0.112085	 0.116408	 0.472248	 0.000252	 0.873745	 2
1463630328.248	 0	 0.027287	 6.929283	 -1.162150	 1.074679	 0.194592	 -0.117868	 0.113313	 0.503632	 -0.000724	 0.856455	 2
1463630328.258	 0	 0.457276	 6.486389	 -1.194528	 1.141934	 0.185564	 -0.126274	 0.111750	 0.532131	 -0.002886	 0.839250	 2
1463630328.268	 0	 1.083104	 6.470815	 -1.329079	 1.208925	 0.177120	 -0.139952	 0.112175	 0.559619	 -0.007163	 0.821092	 2
1463630328.278	 0	 1.829702	 6.674376	 -1.410420	 1.278553	 0.169144	 -0.160273	 0.115162	 0.587148	 -0.013778	 0.801127	 2
1463630328.288	 0	 2.561964	 6.956054	 -1.432293	 1.351850	 0.161347	 -0.187316	 0.120910	 0.614972	 -0.022526	 0.778898	 2
1463630328.298	 0	 3.141363	 7.021714	 -1.530513	 1.427280	 0.152015	 -0.220023	 0.128718	 0.642452	 -0.033354	 0.754702	 2
1463630328.308	 0	 3.435766	 6.545545	 -1.806080	 1.499441	 0.138493	 -0.255828	 0.136945	 0.667787	 -0.046375	 0.730175	 2
1463630328.318	 0	 3.428711	 5.717460	 -2.330619	 1.563310	 0.118018	 -0.291377	 0.143504	 0.689703	 -0.061753	 0.707039	 2
1463630328.328	 0	 3.149366	 4.960530	 -2.980016	 1.618003	 0.089197	 -0.323294	 0.146715	 0.708502	 -0.079136	 0.685738	 2
1463630328.338	 0	 2.619046	 4.478870	 -3.465868	 1.665641	 0.053711	 -0.348525	 0.146020	 0.725232	 -0.097042	 0.665808	 2
1463630328.348	 0	 2.033845	 4.126958	 -3.682529	 1.708366	 0.015069	 -0.365900	 0.142045	 0.740529	 -0.113909	 0.646888	 2
1463630328.358	 0	 1.626343	 3.816648	 -3.810826	 1.747213	 -0.024947	 -0.376886	 0.135738	 0.754519	 -0.129662	 0.628859	 2
1463630328.368	 0	 1.439512	 3.646399	 -3.896044	 1.783650	 -0.065843	 -0.383850	 0.128073	 0.767459	 -0.144869	 0.611242	 2
1463630328.378	 0	 1.433242	 3.669857	 -3.890442	 1.819778	 -0.107051	 -0.388819	 0.120069	 0.779799	 -0.159854	 0.593248	 2
1463630328.388	 0	 1.543524	 3.649104	 -3.774362	 1.855889	 -0.147755	 -0.393376	 0.112593	 0.791463	 -0.174770	 0.574773	 2
1463630328.398	 0	 1.679149	 3.343247	 -3.655826	 1.889429	 -0.187795	 -0.398197	 0.105710	 0.801689	 -0.189862	 0.556841	 2
1463630328.408	 0	 1.788787	 3.024132	 -3.616054	 1.919369	 -0.227780	 -0.403093	 0.099005	 0.810287	 -0.205309	 0.539890	 2
1463630328.418	 0	 1.890615	 2.693877	 -3.648789	 1.946067	 -0.268377	 -0.407811	 0.092143	 0.817442	 -0.221235	 0.523787	 2
1463630328.428	 0	 1.948319	 2.166059	 -3.808739	 1.968033	 -0.310500	 -0.411749	 0.084375	 0.822841	 -0.237867	 0.509149	 2
1463630328.438	 0	 1.926968	 1.507735	 -4.103500	 1.984131	 -0.355090	 -0.413782	 0.074723	 0.826269	 -0.255290	 0.496511	 2
1463630328.448	 0	 1.799571	 0.816314	 -4.458395	 1.994402	 -0.402480	 -0.412751	 0.062478	 0.827767	 -0.273285	 0.486018	 2
1463630328.468	 1	 0.968766	 -0.436780	 -5.255749	 2.002958	 -0.503440	 -0.394009	 0.027998	 0.826227	 -0.307912	 0.470909	 2
1463630328.478	 1	 0.455793	 -0.813775	 -5.528692	 2.006102	 -0.555546	 -0.373389	 0.005602	 0.824078	 -0.323161	 0.465222	 2
1463630328.488	 1	 0.107355	 -0.947657	 -5.504523	 2.011043	 -0.606433	 -0.347364	 -0.018263	 0.821433	 -0.336692	 0.459948	 2
1463630328.498	 1	 -0.101961	 -0.850649	 -5.119189	 2.019073	 -0.653474	 -0.318861	 -0.041373	 0.818748	 -0.348297	 0.454565	 2
1463630328.508	 1	 -0.164474	 -0.885846	 -4.425161	 2.027638	 -0.694272	 -0.291235	 -0.062113	 0.815871	 -0.357859	 0.449926	 2
1463630328.518	 1	 0.059200	 -0.769866	 -3.595800	 2.034299	 -0.728201	 -0.268730	 -0.079073	 0.812769	 -0.365999	 0.446317	 2
1463630328.528	 1	 0.424265	 -0.777435	 -3.025669	 2.036776	 -0.757841	 -0.253542	 -0.092560	 0.809074	 -0.374008	 0.443791	 2
1463630328.538	 1	 0.776255	 -0.703203	 -2.620922	 2.035357	 -0.785245	 -0.245240	 -0.103338	 0.804828	 -0.382484	 0.441904	 2
1463630328.548	 1	 0.954603	 -0.742676	 -2.272206	 2.030432	 -0.810423	 -0.242040	 -0.112140	 0.800184	 -0.390990	 0.440746	 2
1463630328.558	 1	 0.930220	 -0.883612	 -2.063350	 2.022770	 -0.833477	 -0.240928	 -0.120118	 0.795226	 -0.398908	 0.440522	 2
1463630328.568	 1	 0.841338	 -1.002015	 -1.999732	 2.014061	 -0.855329	 -0.239553	 -0.128139	 0.790095	 -0.406154	 0.440873	 2
1463630328.578	 1	 0.734120	 -1.146021	 -1.954311	 2.004665	 -0.876369	 -0.237361	 -0.136454	 0.784788	 -0.412770	 0.441712	 2
1463630328.588	 1	 0.582276	 -1.253691	 -1.902834	 1.995210	 -0.896381	 -0.233660	 -0.145141	 0.779424	 -0.418567	 0.442983	 2
1463630328.598	 1	 0.458572	 -1.329093	 -1.790554	 1.986039	 -0.915034	 -0.228802	 -0.153887	 0.774152	 -0.423536	 0.444550	 2
1463630328.608	 1	 0.386519	 -1.389109	 -1.589056	 1.975969	 -0.931695	 -0.224029	 -0.162285	 0.768910	 -0.427644	 0.446724	 2
1463630328.618	 1	 0.402429	 -1.428521	 -1.297542	 1.964194	 -0.945887	 -0.221078	 -0.169717	 0.763757	 -0.431049	 0.449520	 2
1463630328.628	 1	 0.512026	 -1.522391	 -0.997759	 1.948647	 -0.957600	 -0.221831	 -0.175929	 0.758422	 -0.434002	 0.453307	 2
1463630328.638	 1	 0.615745	 -1.737442	 -0.690527	 1.927956	 -0.966962	 -0.226645	 -0.181147	 0.752623	 -0.436515	 0.458474	 2
1463630328.648	 1	 0.617627	 -2.150214	 -0.262750	 1.900935	 -0.972611	 -0.234748	 -0.185571	 0.746218	 -0.437852	 0.465840	 2
1463630328.658	 1	 0.524974	 -2.728343	 0.204809	 1.867019	 -0.973440	 -0.244573	 -0.189575	 0.739023	 -0.437266	 0.476136	 2
1463630328.668	 1	 0.257361	 -3.430117	 0.565100	 1.827856	 -0.969730	 -0.252729	 -0.194043	 0.730914	 -0.434244	 0.489431	 2
1463630328.678	 1	 -0.253562	 -4.271247	 0.823899	 1.786068	 -0.962016	 -0.253769	 -0.200398	 0.721748	 -0.427861	 0.505822	 2
1463630328.688	 1	 -0.885384	 -4.708002	 1.061935	 1.747317	 -0.950812	 -0.244788	 -0.208433	 0.712440	 -0.417977	 0.523717	 2
1463630328.698	 1	 -1.340343	 -4.760195	 1.307339	 1.713778	 -0.936502	 -0.227173	 -0.217176	 0.703602	 -0.405145	 0.541881	 2
1463630328.708	 1	 -1.401171	 -4.638920	 1.432625	 1.683269	 -0.920736	 -0.206827	 -0.225450	 0.695081	 -0.391158	 0.559491	 2
1463630328.718	 1	 -1.156092	 -4.101976	 1.506894	 1.654634	 -0.904700	 -0.189246	 -0.231961	 0.687071	 -0.377822	 0.575655	 2
1463630328.728	 1	 -0.853543	 -3.361086	 1.567639	 1.629306	 -0.888565	 -0.176172	 -0.235972	 0.680259	 -0.365969	 0.589603	 2
1463630328.738	 1	 -0.485426	 -2.562590	 1.678441	 1.607870	 -0.871836	 -0.168192	 -0.237121	 0.675054	 -0.355812	 0.601227	 2
1463630328.748	 1	 0.014866	 -1.837520	 1.837499	 1.588555	 -0.853870	 -0.167153	 -0.234971	 0.671284	 -0.347609	 0.611011	 2
1463630328.758	 1	 0.448407	 -1.244077	 2.005505	 1.570591	 -0.834272	 -0.172673	 -0.229703	 0.668706	 -0.341134	 0.619432	 2
1463630328.768	 1	 0.644309	 -0.800997	 2.169918	 1.555141	 -0.812917	 -0.181437	 -0.222204	 0.667267	 -0.335523	 0.626741	 2
1463630328.778	 1	 0.587133	 -0.495433	 2.189246	 1.543652	 -0.790782	 -0.189597	 -0.213863	 0.666872	 -0.330029	 0.632949	 2
1463630328.788	 1	 0.438367	 -0.339713	 1.895708	 1.535878	 -0.770776	 -0.195378	 -0.206343	 0.667009	 -0.324903	 0.637935	 2
1463630328.798	 1	 0.453120	 -0.270328	 1.496565	 1.529436	 -0.754742	 -0.200556	 -0.200117	 0.667003	 -0.320982	 0.641896	 2
1463630328.808	 1	 0.547585	 -0.017575	 1.335033	 1.524091	 -0.740932	 -0.206872	 -0.194067	 0.667169	 -0.318252	 0.644934	 2
1463630328.818	 1	 0.653734	 0.605885	 1.256780	 1.523292	 -0.727815	 -0.214491	 -0.187073	 0.668787	 -0.316612	 0.646130	 2
1463630328.838	 2	 1.089879	 1.808446	 1.087257	 1.536588	 -0.704485	 -0.236909	 -0.169272	 0.676991	 -0.317830	 0.641883	 2
1463630328.858	 3	 1.619174	 2.520065	 1.309883	 1.560003	 -0.680422	 -0.273000	 -0.144800	 0.689085	 -0.323686	 0.631999	 2
1463630328.868	 3	 1.792216	 2.873819	 1.467269	 1.573670	 -0.665975	 -0.295439	 -0.129786	 0.695906	 -0.327157	 0.625970	 2
1463630328.878	 3	 1.879913	 3.339650	 1.498550	 1.591479	 -0.651244	 -0.319137	 -0.113462	 0.703811	 -0.330969	 0.618252	 2
1463630328.888	 3	 2.031122	 3.741083	 1.475391	 1.612607	 -0.637019	 -0.344575	 -0.096037	 0.712444	 -0.335361	 0.608879	 2
1463630328.898	 3	 2.251541	 4.159958	 1.392108	 1.636605	 -0.624045	 -0.372634	 -0.077486	 0.721581	 -0.340708	 0.597691	 2
1463630328.908	 3	 2.496009	 4.554665	 1.212473	 1.663203	 -0.613379	 -0.403650	 -0.058034	 0.730999	 -0.347327	 0.584497	 2
1463630328.918	 3	 2.755451	 4.937787	 1.054981	 1.692131	 -0.605442	 -0.437678	 -0.037775	 0.740496	 -0.355248	 0.569243	 2
1463630328.928	 3	 2.913517	 5.244238	 0.990379	 1.723334	 -0.599437	 -0.473980	 -0.016650	 0.749967	 -0.363877	 0.552147	 2
1463630328.938	 3	 2.946781	 5.300359	 0.969296	 1.755512	 -0.594816	 -0.511061	 0.004772	 0.758972	 -0.372513	 0.534016	 2
1463630328.948	 3	 2.866991	 5.062897	 1.045582	 1.786454	 -0.590564	 -0.547671	 0.025933	 0.766942	 -0.380471	 0.516109	 2
1463630328.958	 3	 2.713476	 4.529347	 1.182634	 1.813625	 -0.585663	 -0.583072	 0.046337	 0.773331	 -0.387330	 0.499787	 2
1463630328.968	 3	 2.544625	 3.715853	 1.284177	 1.834374	 -0.579900	 -0.616848	 0.065290	 0.777630	 -0.393143	 0.486279	 2
1463630328.978	 3	 2.376108	 2.781869	 1.344096	 1.847056	 -0.573598	 -0.648898	 0.082238	 0.779608	 -0.398272	 0.476264	 2
1463630328.988	 3	 2.118769	 1.926612	 1.517426	 1.852326	 -0.565551	 -0.678698	 0.097401	 0.779613	 -0.402390	 0.469892	 2
1463630328.998	 3	 1.696783	 1.168128	 1.768759	 1.851915	 -0.554212	 -0.704927	 0.111038	 0.778217	 -0.404778	 0.467122	 2
1463630329.008	 3	 0.959736	 0.458628	 1.900729	 1.848254	 -0.539367	 -0.724065	 0.122325	 0.776241	 -0.404539	 0.467799	 2
1463630329.018	 3	 0.119294	 -0.075306	 1.854053	 1.843856	 -0.522147	 -0.733624	 0.130470	 0.774500	 -0.401356	 0.471212	 2
1463630329.028	 3	 -0.607244	 -0.230641	 1.554126	 1.841485	 -0.505177	 -0.733904	 0.135355	 0.773742	 -0.395947	 0.475635	 2
1463630329.038	 3	 -1.177643	 -0.082307	 1.245007	 1.843797	 -0.489750	 -0.726432	 0.137679	 0.774602	 -0.388854	 0.479405	 2
1463630329.048	 3	 -1.575964	 0.152300	 1.168594	 1.850213	 -0.474357	 -0.713986	 0.138820	 0.776789	 -0.380228	 0.482447	 2
1463630329.058	 3	 -1.944707	 0.471515	 1.184367	 1.861839	 -0.457848	 -0.697684	 0.139699	 0.780502	 -0.369841	 0.484272	 2
1463630329.068	 3	 -2.247876	 0.200345	 1.215390	 1.873072	 -0.439868	 -0.678550	 0.139708	 0.784321	 -0.358180	 0.486857	 2
1463630329.078	 3	 -2.615785	 0.129313	 1.098567	 1.883362	 -0.421420	 -0.656005	 0.138204	 0.788162	 -0.345467	 0.490259	 2
1463630329.088	 3	 -3.062694	 0.115400	 0.906229	 1.895525	 -0.403113	 -0.628651	 0.134911	 0.792804	 -0.331367	 0.493414	 2
1463630329.098	 3	 -3.253441	 0.045981	 0.790010	 1.907948	 -0.384937	 -0.598432	 0.130280	 0.797699	 -0.316461	 0.496544	 2
1463630329.108	 3	 -3.045144	 -0.252346	 0.656463	 1.917052	 -0.367911	 -0.569273	 0.125022	 0.801688	 -0.302334	 0.500261	 2
1463630329.118	 3	 -2.373968	 -0.947613	 0.387301	 1.918171	 -0.354720	 -0.545166	 0.119366	 0.803349	 -0.291285	 0.505504	 2
1463630329.128	 3	 -1.658954	 -1.044248	 -0.035471	 1.913499	 -0.347846	 -0.527130	 0.113457	 0.803170	 -0.284396	 0.511043	 2
1463630329.138	 3	 -0.956450	 -0.119217	 -0.522165	 1.913802	 -0.347780	 -0.514253	 0.108345	 0.803961	 -0.281058	 0.512752	 2
1463630329.148	 3	 -0.046429	 1.333024	 -0.976984	 1.925404	 -0.354967	 -0.508310	 0.105489	 0.807255	 -0.281634	 0.507833	 2
1463630329.158	 3	 0.805420	 2.796926	 -1.313955	 1.949516	 -0.368743	 -0.509504	 0.105423	 0.813219	 -0.285890	 0.495810	 2
1463630329.168	 3	 1.671715	 3.861290	 -1.299870	 1.982330	 -0.386603	 -0.518395	 0.108746	 0.820622	 -0.293122	 0.478365	 2
1463630329.178	 3	 2.637434	 4.609337	 -0.864355	 2.019444	 -0.405714	 -0.537469	 0.116842	 0.828019	 -0.302838	 0.457188	 2
1463630329.188	 3	 3.447112	 4.854592	 -0.158259	 2.055463	 -0.423443	 -0.567686	 0.130154	 0.833932	 -0.314197	 0.434624	 2
1463630329.198	 3	 3.838493	 4.749271	 0.436312	 2.087497	 -0.438894	 -0.605657	 0.147058	 0.837837	 -0.325990	 0.412473	 2
1463630329.208	 3	 3.910036	 4.270570	 0.747766	 2.113869	 -0.452717	 -0.646856	 0.165115	 0.839698	 -0.337549	 0.392053	 2
1463630329.218	 3	 3.763511	 3.709764	 0.796045	 2.134148	 -0.465957	 -0.687726	 0.182358	 0.839816	 -0.348694	 0.373988	 2
1463630329.228	 3	 3.363911	 3.291774	 0.635771	 2.151076	 -0.479045	 -0.724783	 0.197584	 0.839186	 -0.358851	 0.357707	 2
1463630329.238	 3	 2.646622	 3.127160	 0.526448	 2.168485	 -0.490333	 -0.754886	 0.210531	 0.838982	 -0.366620	 0.342600	 2
1463630329.248	 3	 1.770786	 2.385271	 0.682771	 2.184705	 -0.496521	 -0.777478	 0.221460	 0.839171	 -0.371003	 0.330310	 2
1463630329.258	 3	 1.171382	 0.673189	 0.925710	 2.187120	 -0.496863	 -0.795247	 0.229273	 0.837559	 -0.373775	 0.325915	 2
1463630329.268	 3	 0.901985	 -0.259418	 0.841577	 2.179415	 -0.495104	 -0.809923	 0.234400	 0.834624	 -0.376405	 0.326771	 2
1463630329.278	 3	 0.711034	 -0.887575	 0.531521	 2.166902	 -0.494362	 -0.820981	 0.236826	 0.831274	 -0.379419	 0.330058	 2
1463630329.288	 3	 0.495711	 -1.576509	 0.337279	 2.149447	 -0.494321	 -0.828485	 0.236623	 0.827480	 -0.382720	 0.335876	 2
1463630329.298	 3	 0.329759	 -2.367361	 0.335628	 2.125109	 -0.493550	 -0.833974	 0.234406	 0.822693	 -0.386239	 0.345035	 2
1463630329.308	 3	 0.253641	 -2.975872	 0.434007	 2.094343	 -0.491424	 -0.838988	 0.231048	 0.816708	 -0.389931	 0.357152	 2
1463630329.318	 3	 0.121247	 -3.247492	 0.472065	 2.060313	 -0.488118	 -0.843152	 0.226961	 0.810020	 -0.393407	 0.370927	 2
1463630329.328	 3	 -0.124520	 -3.106218	 0.493638	 2.027781	 -0.483534	 -0.845086	 0.222574	 0.803611	 -0.395815	 0.384709	 2
1463630329.338	 3	 -0.457796	 -2.641134	 0.398554	 2.000714	 -0.478016	 -0.843421	 0.218079	 0.798424	 -0.396549	 0.397127	 2
1463630329.348	 3	 -0.858475	 -2.067550	 0.131348	 1.981852	 -0.473099	 -0.836601	 0.213011	 0.795280	 -0.395508	 0.407098	 2
1463630329.358	 3	 -1.278762	 -1.780230	 -0.164996	 1.969191	 -0.469290	 -0.824065	 0.206617	 0.793920	 -0.392943	 0.415447	 2
1463630329.368	 3	 -1.609723	 -1.763524	 -0.488082	 1.959599	 -0.467131	 -0.806476	 0.198378	 0.793650	 -0.389480	 0.423168	 2
1463630329.378	 3	 -1.831256	 -1.850314	 -0.812018	 1.951054	 -0.467267	 -0.784862	 0.188104	 0.793916	 -0.385739	 0.430720	 2
1463630329.388	 3	 -1.927147	 -1.824275	 -1.073119	 1.943332	 -0.469572	 -0.760841	 0.176416	 0.794461	 -0.382028	 0.437908	 2
1463630329.398	 3	 -1.894346	 -1.694124	 -1.299200	 1.937540	 -0.474327	 -0.735741	 0.163954	 0.795370	 -0.378647	 0.443994	 2
1463630329.408	 3	 -1.692453	 -1.736363	 -1.468676	 1.931662	 -0.481360	 -0.711596	 0.151183	 0.796005	 -0.376181	 0.449452	 2
1463630329.418	 3	 -1.325585	 -2.316271	 -1.646723	 1.920238	 -0.491449	 -0.690189	 0.137553	 0.794988	 -0.375696	 0.455988	 2
1463630329.428	 3	 -0.951002	 -2.876777	 -1.786288	 1.901080	 -0.504487	 -0.672386	 0.123007	 0.791722	 -0.377401	 0.464342	 2
1463630329.438	 3	 -0.640076	 -2.904243	 -1.927800	 1.878906	 -0.520219	 -0.657791	 0.108302	 0.787300	 -0.380712	 0.472746	 2
1463630329.448	 3	 -0.379335	 -2.327901	 -1.987588	 1.859718	 -0.537856	 -0.646172	 0.094683	 0.783186	 -0.384969	 0.479013	 2
1463630329.458	 3	 -0.169279	 -1.504908	 -1.935930	 1.847144	 -0.556016	 -0.637335	 0.083193	 0.780353	 -0.389575	 0.482037	 2
1463630329.468	 3	 0.004719	 -0.665581	 -1.846506	 1.841824	 -0.573869	 -0.630946	 0.074122	 0.779053	 -0.394267	 0.481805	 2
1463630329.478	 3	 0.182385	 -0.039136	 -1.924287	 1.842659	 -0.592448	 -0.626424	 0.066750	 0.779054	 -0.399390	 0.478650	 2
1463630329.488	 3	 0.540388	 -0.084446	 -2.014153	 1.843367	 -0.612902	 -0.624883	 0.059930	 0.778789	 -0.405837	 0.474545	 2
1463630329.498	 3	 1.303153	 -0.907034	 -1.910149	 1.832672	 -0.634562	 -0.631559	 0.053567	 0.775486	 -0.414893	 0.472881	 2
1463630329.508	 3	 1.791635	 -1.327437	 -1.750989	 1.810730	 -0.656147	 -0.646757	 0.048016	 0.769312	 -0.426064	 0.473628	 2
1463630329.518	 3	 1.419063	 -1.365770	 -1.467806	 1.787877	 -0.674881	 -0.661879	 0.042900	 0.763048	 -0.436124	 0.475093	 2
1463630329.528	 3	 0.035552	 -1.473623	 -0.913225	 1.771945	 -0.686236	 -0.664312	 0.036669	 0.758907	 -0.440565	 0.478140	 2
1463630329.538	 3	 -1.149604	 -1.786706	 -0.418766	 1.762915	 -0.689458	 -0.651566	 0.028808	 0.756858	 -0.438646	 0.483659	 2
1463630329.548	 3	 -1.644872	 -1.859085	 -0.626148	 1.757856	 -0.691783	 -0.630423	 0.018952	 0.755811	 -0.434283	 0.489683	 2
1463630329.558	 3	 -1.567722	 -1.719205	 -1.252187	 1.755095	 -0.699405	 -0.607080	 0.007054	 0.755028	 -0.430934	 0.494145	 2
1463630329.568	 3	 -1.082814	 -1.586664	 -1.845608	 1.751882	 -0.714032	 -0.587260	 -0.005881	 0.753670	 -0.430590	 0.496527	 2
1463630329.578	 3	 -0.538657	 -1.538703	 -2.198404	 1.745228	 -0.733715	 -0.573431	 -0.018943	 0.751058	 -0.433237	 0.497855	 2
1463630329.588	 3	 -0.111043	 -1.167416	 -2.453389	 1.738289	 -0.756965	 -0.565065	 -0.031193	 0.748077	 -0.438251	 0.497336	 2
1463630329.598	 3	 0.223956	 -0.869258	 -2.563305	 1.731589	 -0.782304	 -0.561278	 -0.042390	 0.744971	 -0.444937	 0.495230	 2
1463630329.608	 3	 0.297983	 -0.808657	 -2.536741	 1.724375	 -0.808005	 -0.559952	 -0.052941	 0.741651	 -0.452202	 0.492610	 2
1463630329.618	 3	 -0.237660	 -0.460366	 -2.392419	 1.723032	 -0.831962	 -0.553738	 -0.063421	 0.739621	 -0.457801	 0.489241	 2
1463630329.628	 3	 -1.138712	 -0.078227	 -2.128432	 1.736906	 -0.852276	 -0.534173	 -0.074121	 0.740896	 -0.459589	 0.484104	 2
1463630329.638	 3	 -1.373636	 -0.457424	 -1.713202	 1.751833	 -0.867741	 -0.509336	 -0.084907	 0.742291	 -0.458856	 0.480880	 2
1463630329.648	 3	 -1.500477	 -0.135499	 -1.519397	 1.770067	 -0.880274	 -0.482199	 -0.094825	 0.744346	 -0.457002	 0.477605	 2
1463630329.658	 3	 -1.450303	 0.559666	 -1.266108	 1.794982	 -0.890298	 -0.454938	 -0.102472	 0.747955	 -0.454870	 0.472394	 2
1463630329.668	 3	 -1.268785	 1.166016	 -0.886898	 1.823991	 -0.896663	 -0.430874	 -0.106887	 0.752833	 -0.452760	 0.465645	 2
1463630329.678	 3	 -1.136382	 1.531159	 -0.495650	 1.854692	 -0.899308	 -0.410420	 -0.108484	 0.758527	 -0.450543	 0.458126	 2
1463630329.688	 3	 -1.437322	 1.575106	 -0.277336	 1.887728	 -0.898493	 -0.388489	 -0.109182	 0.764936	 -0.447089	 0.450626	 2
1463630329.698	 3	 -2.201957	 1.697282	 -0.019088	 1.927765	 -0.892733	 -0.358071	 -0.110327	 0.772933	 -0.440543	 0.443085	 2
1463630329.708	 3	 -2.628838	 1.893246	 0.283800	 1.974649	 -0.881241	 -0.321562	 -0.111097	 0.782725	 -0.431121	 0.434896	 2
1463630329.718	 3	 -2.520304	 1.837346	 0.539184	 2.018693	 -0.866264	 -0.288352	 -0.110754	 0.792451	 -0.421028	 0.427189	 2
1463630329.728	 3	 -2.463669	 2.074408	 0.545160	 2.060846	 -0.850128	 -0.258518	 -0.109684	 0.802037	 -0.411084	 0.419184	 2
1463630329.738	 3	 -2.385500	 2.622655	 0.497358	 2.106725	 -0.833926	 -0.230590	 -0.107583	 0.812400	 -0.401662	 0.408778	 2
1463630329.748	 3	 -2.052119	 2.676229	 0.539716	 2.150476	 -0.818087	 -0.207760	 -0.104417	 0.822390	 -0.393241	 0.397660	 2
1463630329.758	 3	 -1.622792	 2.256216	 0.582160	 2.185860	 -0.803628	 -0.191759	 -0.100792	 0.830718	 -0.386203	 0.388067	 2
1463630329.768	 3	 -1.347552	 1.827467	 0.531012	 2.213366	 -0.790947	 -0.180172	 -0.097510	 0.837366	 -0.380259	 0.380412	 2
1463630329.778	 3	 -1.340893	 1.673074	 0.510334	 2.237775	 -0.778844	 -0.169589	 -0.094706	 0.843311	 -0.374530	 0.373611	 2
1463630329.788	 3	 -1.281014	 1.488576	 0.759616	 2.259019	 -0.765320	 -0.161353	 -0.091359	 0.848930	 -0.368452	 0.367716	 2
1463630329.798	 3	 -1.230416	 1.219448	 0.921864	 2.275159	 -0.750480	 -0.156297	 -0.087456	 0.853901	 -0.362116	 0.363422	 2
1463630329.808	 3	 -1.322374	 1.122545	 0.722465	 2.290921	 -0.736080	 -0.150000	 -0.084357	 0.858636	 -0.355657	 0.359356	 2
1463630329.818	 3	 -1.456696	 0.946384	 0.429977	 2.307399	 -0.722837	 -0.140250	 -0.082973	 0.863139	 -0.349043	 0.355353	 2
1463630329.828	 3	 -1.496390	 0.671242	 0.166650	 2.323005	 -0.711020	 -0.127744	 -0.083340	 0.867124	 -0.342481	 0.351934	 2
1463630329.838	 3	 -1.440373	 0.514198	 -0.052714	 2.337425	 -0.700963	 -0.113824	 -0.084986	 0.870547	 -0.336362	 0.348979	 2
1463630329.848	 3	 -1.279720	 0.555019	 -0.225321	 2.351804	 -0.693015	 -0.099758	 -0.087205	 0.873611	 -0.331128	 0.345766	 2
1463630329.858	 3	 -1.064290	 0.613189	 -0.330034	 2.366165	 -0.687247	 -0.086700	 -0.089479	 0.876356	 -0.327028	 0.342120	 2
1463630329.868	 3	 -0.887609	 0.559097	 -0.384298	 2.379412	 -0.683171	 -0.074896	 -0.091758	 0.878681	 -0.323852	 0.338557	 2
1463630329.878	 3	 -0.776247	 0.443631	 -0.421513	 2.391047	 -0.680179	 -0.063978	 -0.094147	 0.880580	 -0.321250	 0.335430	 2
1463630329.888	 3	 -0.674284	 0.352819	 -0.436035	 2.401162	 -0.677969	 -0.053729	 -0.096655	 0.882112	 -0.319054	 0.332776	 2
1463630329.899	 3	 -0.515091	 0.357963	 -0.395808	 2.410153	 -0.676591	 -0.045041	 -0.098820	 0.883386	 -0.317449	 0.330287	 2
1463630329.909	 3	 -0.346179	 0.339030	 -0.298339	 2.417643	 -0.675853	 -0.038607	 -0.100350	 0.884410	 -0.316439	 0.328047	 2
1463630329.918	 3	 -0.188978	 0.284331	 -0.151010	 2.423001	 -0.675399	 -0.034855	 -0.101086	 0.885167	 -0.315895	 0.326300	 2
1463630329.929	 3	 -0.048997	 0.183020	 0.015219	 2.425673	 -0.674941	 -0.033886	 -0.101016	 0.885623	 -0.315671	 0.325300	 2
1463630329.939	 3	 0.122659	 0.210529	 0.211146	 2.426393	 -0.674454	 -0.036109	 -0.099836	 0.885925	 -0.315853	 0.324663	 2
1463630329.949	 3	 0.311990	 0.190742	 0.345731	 2.425044	 -0.674369	 -0.041391	 -0.097695	 0.885980	 -0.316607	 0.324431	 2
1463630329.959	 3	 0.494786	 0.199207	 0.413493	 2.422193	 -0.675122	 -0.049033	 -0.094890	 0.885772	 -0.318040	 0.324430	 2
1463630329.969	 3	 0.678586	 0.275041	 0.384889	 2.418953	 -0.677233	 -0.058228	 -0.091696	 0.885357	 -0.320308	 0.324249	 2
1463630329.979	 3	 0.877811	 0.453997	 0.356044	 2.416385	 -0.681048	 -0.068732	 -0.088116	 0.884840	 -0.323568	 0.323416	 2
1463630329.989	 3	 1.065606	 0.690489	 0.336360	 2.415104	 -0.686408	 -0.080759	 -0.083932	 0.884345	 -0.327799	 0.321617	 2
1463630329.999	 3	 1.222319	 0.922610	 0.288130	 2.415378	 -0.693240	 -0.093908	 -0.079263	 0.883896	 -0.332900	 0.318783	 2
1463630330.009	 3	 1.360866	 1.172667	 0.212516	 2.417781	 -0.701615	 -0.107615	 -0.074264	 0.883537	 -0.338812	 0.314727	 2
1463630330.018	 3	 1.541097	 1.246790	 0.093337	 2.420676	 -0.711915	 -0.121954	 -0.069236	 0.882937	 -0.345633	 0.310107	 2
1463630330.028	 3	 1.717159	 1.233754	 -0.166232	 2.424315	 -0.725174	 -0.135613	 -0.064893	 0.881918	 -0.353599	 0.304921	 2
1463630330.039	 3	 1.859807	 0.940945	 -0.445166	 2.426284	 -0.741396	 -0.147924	 -0.061958	 0.880078	 -0.362526	 0.300331	 2
1463630330.049	 3	 2.033639	 0.656909	 -0.675264	 2.425775	 -0.760471	 -0.159296	 -0.060405	 0.877322	 -0.372400	 0.296607	 2
1463630330.059	 3	 2.261134	 0.350069	 -0.801597	 2.421669	 -0.782168	 -0.171340	 -0.059743	 0.873561	 -0.383316	 0.293923	 2
1463630330.069	 3	 2.433561	 0.056816	 -0.836734	 2.413094	 -0.805641	 -0.185116	 -0.059607	 0.868830	 -0.395019	 0.292475	 2
1463630330.079	 3	 2.360982	 -0.123139	 -0.894262	 2.401978	 -0.829285	 -0.199174	 -0.060042	 0.863635	 -0.406657	 0.291823	 2
1463630330.089	 3	 1.710875	 0.113379	 -0.955675	 2.395526	 -0.849868	 -0.208105	 -0.061312	 0.859425	 -0.416318	 0.290360	 2
1463630330.099	 3	 0.525409	 0.584817	 -0.666000	 2.400359	 -0.861172	 -0.208059	 -0.062406	 0.858143	 -0.421138	 0.286950	 2
1463630330.109	 3	 -0.474889	 0.715222	 -0.101881	 2.411481	 -0.860907	 -0.202693	 -0.062321	 0.859608	 -0.420610	 0.283334	 2
1463630330.119	 3	 -0.807132	 0.725756	 0.335941	 2.422456	 -0.853573	 -0.197618	 -0.060889	 0.862298	 -0.417183	 0.280522	 2
1463630330.129	 3	 -0.605988	 0.826110	 0.615419	 2.430784	 -0.844846	 -0.197249	 -0.057767	 0.864989	 -0.413734	 0.277995	 2
1463630330.139	 3	 -0.323970	 0.718225	 0.815520	 2.434752	 -0.836909	 -0.202210	 -0.053398	 0.867063	 -0.411207	 0.276152	 2
1463630330.149	 3	 -0.236998	 0.256354	 0.960738	 2.432647	 -0.829017	 -0.210313	 -0.048916	 0.868340	 -0.408962	 0.276303	 2
1463630330.159	 3	 -0.267024	 -0.270725	 1.013646	 2.424770	 -0.820475	 -0.219018	 -0.045212	 0.868900	 -0.406403	 0.278936	 2
1463630330.169	 3	 -0.205090	 -0.514254	 1.043879	 2.413357	 -0.811910	 -0.228151	 -0.041997	 0.868921	 -0.403850	 0.283051	 2
1463630330.179	 3	 -0.046987	 -0.478570	 1.041769	 2.400896	 -0.804236	 -0.238501	 -0.038590	 0.868603	 -0.401868	 0.287301	 2
1463630330.189	 3	 0.138149	 -0.355853	 1.025312	 2.388598	 -0.797913	 -0.250239	 -0.034767	 0.868050	 -0.400704	 0.291062	 2
1463630330.199	 3	 0.322762	 -0.105609	 0.994060	 2.377346	 -0.793026	 -0.263410	 -0.030366	 0.867384	 -0.400416	 0.293921	 2
1463630330.209	 3	 0.376914	 0.342607	 0.929551	 2.370107	 -0.789171	 -0.276778	 -0.025266	 0.867097	 -0.400687	 0.294880	 2
1463630330.219	 3	 0.236660	 0.632890	 1.008077	 2.366913	 -0.784384	 -0.289468	 -0.019459	 0.867492	 -0.400542	 0.294355	 2
1463630330.229	 3	 -0.161494	 0.649519	 1.233377	 2.365515	 -0.775890	 -0.300868	 -0.013101	 0.868640	 -0.398700	 0.293823	 2
1463630330.239	 3	 -0.670318	 0.176165	 1.314400	 2.363412	 -0.762749	 -0.308568	 -0.007544	 0.870275	 -0.394393	 0.294989	 2
1463630330.249	 3	 -0.898581	 -0.475011	 1.041756	 2.358292	 -0.748631	 -0.311190	 -0.004566	 0.871517	 -0.388925	 0.298620	 2
1463630330.259	 3	 -0.599650	 -0.554406	 0.628096	 2.352446	 -0.738474	 -0.311387	 -0.003556	 0.872042	 -0.384734	 0.302506	 2
1463630330.269	 3	 0.075801	 0.073743	 0.399987	 2.348907	 -0.734633	 -0.314570	 -0.002067	 0.872032	 -0.383620	 0.303959	 2
1463630330.279	 3	 0.369929	 1.868678	 0.311815	 2.358312	 -0.734630	 -0.321087	 0.002584	 0.873449	 -0.384599	 0.298603	 2
1463630330.289	 3	 0.252171	 2.966448	 -0.011594	 2.383791	 -0.736134	 -0.324568	 0.008713	 0.876962	 -0.385662	 0.286578	 2
1463630330.299	 3	 0.085453	 2.707440	 -0.301374	 2.413055	 -0.738754	 -0.323420	 0.013348	 0.880704	 -0.386436	 0.273588	 2
1463630330.309	 3	 -0.211179	 1.539976	 -0.515347	 2.435746	 -0.740753	 -0.317486	 0.014738	 0.883516	 -0.386320	 0.264462	 2
1463630330.319	 3	 -0.425698	 0.091842	 -0.679358	 2.446998	 -0.741984	 -0.307484	 0.012260	 0.884886	 -0.385450	 0.261258	 2
1463630330.329	 3	 -0.397494	 -1.144357	 -0.707094	 2.446018	 -0.743273	 -0.296394	 0.006930	 0.884624	 -0.384545	 0.263662	 2
1463630330.349	 3	 0.516534	 -2.791987	 -0.498048	 2.406997	 -0.751795	 -0.286149	 -0.006695	 0.878063	 -0.386748	 0.281756	 2
1463630330.339	 3	 -0.094548	 -2.169764	 -0.596710	 2.432231	 -0.745926	 -0.288209	 0.000176	 0.882409	 -0.384599	 0.270993	 2
1463630330.359	 3	 1.167898	 -3.080718	 -0.595930	 2.374084	 -0.763209	 -0.290018	 -0.013616	 0.871682	 -0.391909	 0.293926	 2
1463630330.369	 3	 1.354505	 -3.159564	 -0.539671	 2.337356	 -0.776694	 -0.297594	 -0.020293	 0.864268	 -0.398304	 0.306565	 2
1463630330.389	 4	 0.794717	 -3.216115	 -0.350946	 2.262613	 -0.796480	 -0.312905	 -0.033010	 0.849672	 -0.407766	 0.332710	 2
1463630330.399	 4	 0.453935	 -3.138785	 -0.531637	 2.229779	 -0.803507	 -0.314556	 -0.040603	 0.843138	 -0.410230	 0.345227	 2
1463630330.409	 4	 0.305567	 -2.933835	 -0.783155	 2.201610	 -0.811259	 -0.312115	 -0.049205	 0.837044	 -0.412213	 0.356392	 2
1463630330.419	 4	 0.310520	 -2.619421	 -0.984899	 2.177765	 -0.820645	 -0.307754	 -0.058157	 0.831292	 -0.414438	 0.365805	 2
1463630330.429	 4	 0.411940	 -2.254964	 -1.140123	 2.157562	 -0.831920	 -0.303294	 -0.066899	 0.825810	 -0.417331	 0.373361	 2
1463630330.439	 4	 0.539358	 -1.835048	 -1.264151	 2.140899	 -0.845030	 -0.299553	 -0.075102	 0.820651	 -0.421050	 0.378957	 2
1463630330.449	 4	 0.670515	 -1.339297	 -1.342743	 2.128170	 -0.859654	 -0.296981	 -0.082418	 0.815986	 -0.425609	 0.382401	 2
1463630330.459	 4	 0.821358	 -0.803723	 -1.348665	 2.119283	 -0.875251	 -0.296298	 -0.088433	 0.811934	 -0.430975	 0.383672	 2
1463630330.469	 4	 1.021488	 -0.246845	 -1.330305	 2.113780	 -0.891669	 -0.298428	 -0.092816	 0.808490	 -0.437275	 0.382779	 2
1463630330.479	 4	 1.252391	 0.271664	 -1.310438	 2.110915	 -0.909110	 -0.303975	 -0.095526	 0.805519	 -0.444675	 0.379840	 2
1463630330.489	 4	 1.477360	 0.641476	 -1.264194	 2.109099	 -0.927354	 -0.313307	 -0.096708	 0.802770	 -0.453072	 0.375412	 2
1463630330.509	 5	 1.750206	 0.809645	 -1.284188	 2.103316	 -0.966302	 -0.340582	 -0.096857	 0.796803	 -0.471984	 0.364630	 2
1463630330.519	 5	 1.670107	 0.534716	 -1.241287	 2.097182	 -0.985714	 -0.355467	 -0.097285	 0.793264	 -0.481315	 0.360004	 2
1463630330.529	 5	 1.480288	 0.068723	 -1.189617	 2.087827	 -1.003776	 -0.368833	 -0.098849	 0.789290	 -0.489622	 0.357100	 2
1463630330.539	 5	 1.259989	 -0.292992	 -1.144171	 2.076577	 -1.020297	 -0.379761	 -0.101552	 0.785117	 -0.496755	 0.355686	 2
1463630330.549	 5	 1.065193	 -0.712977	 -1.056859	 2.062992	 -1.035114	 -0.388641	 -0.105302	 0.780715	 -0.502723	 0.355901	 2
1463630330.559	 5	 0.867241	 -1.145523	 -0.942992	 2.046373	 -1.047974	 -0.395767	 -0.110088	 0.776009	 -0.507460	 0.358016	 2
1463630330.569	 5	 0.713280	 -1.488137	 -0.876631	 2.027644	 -1.059258	 -0.401169	 -0.115754	 0.771083	 -0.511150	 0.361604	 2
1463630330.579	 5	 0.642485	 -1.787891	 -0.879870	 2.006610	 -1.070011	 -0.405577	 -0.122335	 0.765750	 -0.514249	 0.366345	 2
1463630330.589	 5	 0.590448	 -1.975859	 -0.860916	 1.983730	 -1.080406	 -0.409569	 -0.129534	 0.760079	 -0.516926	 0.371871	 2
1463630330.599	 5	 0.579422	 -2.061884	 -0.847766	 1.959452	 -1.090477	 -0.413896	 -0.136960	 0.754182	 -0.519345	 0.377800	 2
1463630330.609	 5	 0.623985	 -2.085682	 -0.884611	 1.933816	 -1.100832	 -0.419301	 -0.144497	 0.748014	 -0.521832	 0.383781	 2
1463630330.629	 6	 0.807434	 -2.007322	 -1.004845	 1.877131	 -1.123793	 -0.436805	 -0.159456	 0.734678	 -0.527953	 0.395079	 2
1463630330.639	 6	 0.806838	 -1.851454	 -1.071598	 1.848102	 -1.136237	 -0.447929	 -0.166724	 0.727896	 -0.531475	 0.399882	 2
1463630330.649	 6	 0.712868	 -1.590996	 -1.126973	 1.822173	 -1.148927	 -0.458170	 -0.173699	 0.721633	 -0.534987	 0.403564	 2
1463630330.659	 6	 0.559335	 -1.290986	 -1.179330	 1.802301	 -1.161596	 -0.465101	 -0.180348	 0.716324	 -0.538209	 0.405816	 2
1463630330.669	 6	 0.389460	 -1.063244	 -1.230085	 1.787611	 -1.174433	 -0.468954	 -0.186825	 0.711774	 -0.541205	 0.406905	 2
1463630330.679	 6	 0.198771	 -0.955574	 -1.273251	 1.778435	 -1.187298	 -0.468345	 -0.193442	 0.707918	 -0.543730	 0.407174	 2
1463630330.689	 6	 0.008799	 -0.935011	 -1.301247	 1.774457	 -1.200088	 -0.462558	 -0.200459	 0.704594	 -0.545631	 0.407002	 2
1463630330.699	 6	 -0.115848	 -0.908955	 -1.278604	 1.774258	 -1.212502	 -0.452845	 -0.207692	 0.701636	 -0.546991	 0.406660	 2
1463630330.709	 6	 -0.128411	 -0.942220	 -1.177557	 1.775107	 -1.224035	 -0.442043	 -0.214721	 0.698836	 -0.547998	 0.406475	 2
1463630330.719	 6	 -0.078228	 -1.068860	 -1.020373	 1.773440	 -1.234243	 -0.432896	 -0.221434	 0.695844	 -0.548708	 0.407048	 2
1463630330.729	 6	 -0.032666	 -1.221432	 -0.920942	 1.768153	 -1.243384	 -0.426003	 -0.228017	 0.692486	 -0.549166	 0.408520	 2
1463630330.739	 6	 -0.140943	 -1.417092	 -0.812047	 1.762287	 -1.251459	 -0.417760	 -0.234890	 0.688986	 -0.548960	 0.410814	 2
1463630330.749	 6	 -0.469896	 -1.619073	 -0.637343	 1.761874	 -1.257483	 -0.401711	 -0.242317	 0.685966	 -0.547215	 0.413870	 2
1463630330.759	 6	 -0.887297	 -1.849036	 -0.397118	 1.770554	 -1.260478	 -0.373783	 -0.250400	 0.683810	 -0.543287	 0.417782	 2
1463630330.769	 6	 -1.339834	 -1.880678	 -0.103585	 1.790000	 -1.259711	 -0.333436	 -0.258710	 0.682898	 -0.537077	 0.422217	 2
1463630330.779	 6	 -1.768192	 -1.552760	 0.208004	 1.822605	 -1.254542	 -0.281799	 -0.266205	 0.684017	 -0.528927	 0.426018	 2
1463630330.789	 6	 -1.999688	 -1.134872	 0.538966	 1.863213	 -1.244931	 -0.226002	 -0.272066	 0.687111	 -0.519602	 0.428804	 2
1463630330.799	 6	 -2.063784	 -0.739884	 0.859731	 1.904525	 -1.231217	 -0.173421	 -0.275970	 0.691661	 -0.509699	 0.430874	 2
1463630330.809	 6	 -2.145850	 -0.364564	 1.247612	 1.943433	 -1.212980	 -0.127027	 -0.277689	 0.697598	 -0.499184	 0.432505	 2
1463630330.819	 6	 -2.316837	 0.137978	 1.396590	 1.984335	 -1.191622	 -0.083286	 -0.277781	 0.705132	 -0.488264	 0.432694	 2
1463630330.829	 6	 -2.518763	 0.977898	 1.415755	 2.031487	 -1.168314	 -0.040363	 -0.276266	 0.714665	 -0.477477	 0.430054	 2
1463630330.839	 6	 -2.595700	 1.865138	 1.410826	 2.084945	 -1.143785	 0.000096	 -0.272859	 0.726214	 -0.467410	 0.423898	 2
1463630330.849	 6	 -2.455290	 2.797323	 1.531249	 2.139842	 -1.118093	 0.032447	 -0.266714	 0.739395	 -0.458563	 0.414583	 2
1463630330.859	 6	 -2.089550	 3.651102	 1.784332	 2.191414	 -1.091630	 0.051558	 -0.256964	 0.753675	 -0.451393	 0.402726	 2
1463630330.869	 6	 -1.624186	 4.272403	 2.139894	 2.235869	 -1.064858	 0.055078	 -0.243356	 0.768319	 -0.445905	 0.389401	 2
1463630330.879	 6	 -1.265028	 4.491413	 2.565110	 2.271667	 -1.037348	 0.044862	 -0.226501	 0.782726	 -0.441248	 0.375947	 2
1463630330.889	 6	 -1.033720	 4.305543	 2.987671	 2.297837	 -1.008449	 0.024322	 -0.207528	 0.796318	 -0.436376	 0.363849	 2
1463630330.899	 6	 -0.911012	 3.812877	 3.300682	 2.314706	 -0.978230	 -0.002736	 -0.187661	 0.808629	 -0.430742	 0.354068	 2
1463630330.909	 6	 -0.923812	 3.070020	 3.379141	 2.323909	 -0.947277	 -0.031348	 -0.168511	 0.819311	 -0.424028	 0.347179	 2
1463630330.919	 6	 -1.090754	 2.206722	 3.213763	 2.328320	 -0.916427	 -0.056056	 -0.151805	 0.828292	 -0.416057	 0.343197	 2
1463630330.929	 6	 -1.302806	 1.392592	 2.917081	 2.329579	 -0.886041	 -0.074774	 -0.138158	 0.835762	 -0.406884	 0.341847	 2
1463630330.939	 6	 -1.528255	 0.629099	 2.411031	 2.329542	 -0.857429	 -0.085436	 -0.128354	 0.841806	 -0.396896	 0.342581	 2
1463630330.949	 6	 -1.716757	 0.036477	 1.868948	 2.329428	 -0.831420	 -0.087826	 -0.122474	 0.846624	 -0.386503	 0.344735	 2
1463630330.959	 6	 -1.826268	 -0.236117	 1.489019	 2.329984	 -0.807602	 -0.084520	 -0.119274	 0.850690	 -0.376020	 0.347433	 2
1463630330.969	 6	 -1.857096	 -0.258838	 1.276989	 2.331769	 -0.785249	 -0.078307	 -0.117370	 0.854447	 -0.365652	 0.349917	 2
1463630330.979	 6	 -1.779101	 -0.138686	 1.156997	 2.334810	 -0.764214	 -0.071473	 -0.115784	 0.858089	 -0.355742	 0.351745	 2
1463630330.989	 6	 -1.575893	 0.020757	 1.078911	 2.338546	 -0.744994	 -0.065738	 -0.113984	 0.861554	 -0.346778	 0.352814	 2
1463630330.999	 6	 -1.292359	 0.212125	 1.035592	 2.342480	 -0.728006	 -0.062293	 -0.111618	 0.864769	 -0.339137	 0.353132	 2
1463630331.009	 6	 -1.025607	 0.411453	 1.056440	 2.346512	 -0.712904	 -0.061681	 -0.108389	 0.867814	 -0.332773	 0.352722	 2
1463630331.019	 6	 -0.830378	 0.584588	 1.103244	 2.350738	 -0.698995	 -0.063548	 -0.104292	 0.870795	 -0.327339	 0.351694	 2
1463630331.029	 6	 -0.692863	 0.739807	 1.149319	 2.355353	 -0.685818	 -0.067289	 -0.099463	 0.873780	 -0.322540	 0.350118	 2
1463630331.039	 6	 -0.573666	 0.887379	 1.160312	 2.360685	 -0.673347	 -0.072385	 -0.094069	 0.876799	 -0.318285	 0.347951	 2
1463630331.049	 6	 -0.450853	 0.948341	 1.109719	 2.366430	 -0.662008	 -0.078260	 -0.088485	 0.879704	 -0.314639	 0.345389	 2
1463630331.059	 6	 -0.282767	 0.918422	 1.012059	 2.371772	 -0.652420	 -0.084772	 -0.083014	 0.882264	 -0.311812	 0.342770	 2
1463630331.069	 6	 -0.081599	 0.906331	 0.892961	 2.376472	 -0.645045	 -0.091936	 -0.077763	 0.884386	 -0.310006	 0.340163	 2
1463630331.079	 6	 0.125341	 0.982540	 0.778897	 2.381330	 -0.640015	 -0.099849	 -0.072586	 0.886199	 -0.309330	 0.337189	 2
1463630331.089	 6	 0.313332	 1.085638	 0.698288	 2.386693	 -0.637046	 -0.108630	 -0.067318	 0.887811	 -0.309692	 0.333692	 2
1463630331.099	 6	 0.474669	 1.175150	 0.640165	 2.392500	 -0.635760	 -0.118287	 -0.061893	 0.889260	 -0.310918	 0.329720	 2
1463630331.109	 6	 0.628364	 1.246448	 0.560624	 2.398679	 -0.636119	 -0.128575	 -0.056417	 0.890528	 -0.312943	 0.325335	 2
1463630331.119	 6	 0.797656	 1.282156	 0.419867	 2.405166	 -0.638629	 -0.139136	 -0.051146	 0.891523	 -0.315922	 0.320569	 2
1463630331.129	 6	 0.948361	 1.251732	 0.245618	 2.411635	 -0.643456	 -0.149441	 -0.046393	 0.892154	 -0.319832	 0.315620	 2
1463630331.139	 6	 1.100887	 1.183809	 0.036900	 2.417814	 -0.650783	 -0.159143	 -0.042383	 0.892347	 -0.324693	 0.310637	 2
1463630331.149	 6	 1.260516	 1.063545	 -0.202208	 2.423408	 -0.660877	 -0.167978	 -0.039330	 0.892011	 -0.330578	 0.305758	 2
1463630331.159	 6	 1.427075	 0.848430	 -0.464640	 2.427714	 -0.673933	 -0.175717	 -0.037486	 0.891003	 -0.337526	 0.301304	 2
1463630331.169	 6	 1.641191	 0.538482	 -0.731566	 2.429600	 -0.690254	 -0.182561	 -0.037020	 0.889106	 -0.345679	 0.297702	 2
1463630331.179	 6	 1.928765	 0.172108	 -0.976210	 2.427919	 -0.710284	 -0.189336	 -0.037875	 0.886082	 -0.355319	 0.295249	 2
1463630331.189	 6	 2.140292	 -0.284179	 -1.183727	 2.421663	 -0.733557	 -0.196314	 -0.040091	 0.881833	 -0.366235	 0.294339	 2
1463630331.199	 6	 1.971132	 -0.720896	 -1.339787	 2.411967	 -0.757554	 -0.201431	 -0.043991	 0.876839	 -0.377028	 0.295073	 2
1463630331.209	 6	 1.243894	 -0.657624	 -1.268921	 2.404654	 -0.777100	 -0.201524	 -0.048919	 0.872690	 -0.385157	 0.296098	 2
1463630331.219	 6	 0.284420	 0.029757	 -1.030360	 2.407774	 -0.788375	 -0.195002	 -0.053221	 0.871172	 -0.389036	 0.294749	 2
1463630331.229	 6	 -0.553953	 0.957965	 -0.680840	 2.423289	 -0.790677	 -0.183289	 -0.055726	 0.872745	 -0.388720	 0.290012	 2
1463630331.239	 6	 -0.634296	 1.300897	 -0.358286	 2.443613	 -0.788524	 -0.172484	 -0.056131	 0.875713	 -0.386824	 0.283449	 2
1463630331.249	 6	 -0.307044	 1.221065	 -0.087978	 2.459876	 -0.786419	 -0.167248	 -0.054926	 0.878199	 -0.385641	 0.277543	 2
1463630331.259	 6	 -0.026496	 0.794187	 0.120891	 2.469073	 -0.785308	 -0.167317	 -0.052936	 0.879654	 -0.385422	 0.273598	 2
1463630331.269	 6	 0.072523	 0.133712	 0.311049	 2.469749	 -0.784123	 -0.170709	 -0.051116	 0.880033	 -0.385394	 0.272766	 2
1463630331.279	 6	 0.066361	 -0.405390	 0.475543	 2.462962	 -0.781930	 -0.176178	 -0.049649	 0.879605	 -0.385031	 0.274919	 2
1463630331.289	 6	 0.102509	 -0.503810	 0.558507	 2.453170	 -0.779156	 -0.182836	 -0.048133	 0.878871	 -0.384525	 0.278227	 2
1463630331.299	 6	 0.278774	 -0.278505	 0.604897	 2.443853	 -0.777127	 -0.191303	 -0.045854	 0.878098	 -0.384623	 0.280904	 2
1463630331.309	 6	 0.380028	 -0.140011	 0.676710	 2.434917	 -0.775700	 -0.201640	 -0.042787	 0.877297	 -0.385274	 0.282989	 2
1463630331.319	 6	 0.414069	 -0.045573	 0.806250	 2.425984	 -0.773663	 -0.213452	 -0.038966	 0.876595	 -0.385903	 0.284854	 2
1463630331.329	 6	 0.625136	 0.037574	 0.917091	 2.415948	 -0.772025	 -0.228039	 -0.034217	 0.875686	 -0.387110	 0.286618	 2
1463630331.339	 6	 0.680466	 0.150832	 1.010384	 2.405599	 -0.770571	 -0.244678	 -0.028674	 0.874686	 -0.388725	 0.288090	 2
1463630331.349	 6	 0.449211	 0.090929	 1.163179	 2.395472	 -0.766868	 -0.261084	 -0.022774	 0.873997	 -0.389409	 0.289777	 2
1463630331.359	 6	 -0.152898	 -0.481021	 1.250491	 2.383474	 -0.758526	 -0.273836	 -0.017931	 0.873619	 -0.387654	 0.293587	 2
1463630331.369	 6	 -0.707935	 -0.995782	 1.029921	 2.371022	 -0.746562	 -0.279111	 -0.015691	 0.873551	 -0.383331	 0.299532	 2
1463630331.379	 6	 -0.700783	 -1.103595	 0.539671	 2.360353	 -0.736566	 -0.278592	 -0.015974	 0.873348	 -0.378993	 0.305568	 2
1463630331.389	 6	 -0.076232	 -0.454504	 0.099047	 2.353777	 -0.733327	 -0.277874	 -0.016884	 0.872784	 -0.377477	 0.308989	 2
1463630331.399	 6	 0.370629	 1.840758	 -0.014574	 2.363714	 -0.735596	 -0.280936	 -0.014120	 0.874014	 -0.378970	 0.303780	 2
1463630331.409	 6	 0.173466	 3.432017	 -0.227189	 2.394719	 -0.738389	 -0.281672	 -0.008456	 0.878224	 -0.380426	 0.289703	 2
1463630331.419	 6	 -0.235589	 3.433841	 -0.580641	 2.433641	 -0.740765	 -0.275529	 -0.004202	 0.883341	 -0.380688	 0.273436	 2
1463630331.429	 6	 -0.511906	 2.726860	 -0.794769	 2.471129	 -0.741941	 -0.263682	 -0.002533	 0.888137	 -0.379676	 0.258944	 2
1463630331.439	 6	 -0.482068	 1.452840	 -0.903868	 2.498250	 -0.743321	 -0.250036	 -0.003699	 0.891354	 -0.378577	 0.249307	 2
1463630331.449	 6	 -0.198405	 0.051245	 -0.902328	 2.510689	 -0.746439	 -0.237728	 -0.007350	 0.892380	 -0.378436	 0.245745	 2
1463630331.459	 6	 0.238469	 -1.312790	 -0.793065	 2.506401	 -0.752325	 -0.229607	 -0.012749	 0.890892	 -0.379956	 0.248560	 2
1463630331.469	 6	 0.870826	 -2.232398	 -0.627014	 2.486982	 -0.761867	 -0.228132	 -0.018699	 0.886928	 -0.383731	 0.256438	 2
1463630331.479	 6	 1.566940	 -2.600474	 -0.648224	 2.458079	 -0.776738	 -0.233288	 -0.024566	 0.880847	 -0.390454	 0.266554	 2
1463630331.489	 6	 2.160401	 -2.768441	 -0.690124	 2.422927	 -0.796637	 -0.244340	 -0.030226	 0.873037	 -0.399889	 0.277456	 2
1463630331.499	 6	 2.393426	 -2.797955	 -0.559207	 2.382911	 -0.818188	 -0.260953	 -0.035164	 0.864177	 -0.410563	 0.288789	 2
1463630331.509	 6	 2.099140	 -2.719827	 -0.318253	 2.341645	 -0.836573	 -0.279771	 -0.039272	 0.855494	 -0.420093	 0.300182	 2
1463630331.519	 6	 1.466814	 -2.650628	 -0.271604	 2.303578	 -0.849647	 -0.294992	 -0.043553	 0.847901	 -0.426895	 0.311333	 2
1463630331.539	 7	 0.536585	 -2.398252	 -0.752473	 2.247012	 -0.868600	 -0.303234	 -0.056372	 0.836025	 -0.434291	 0.330569	 2
1463630331.549	 7	 0.419442	 -2.112750	 -1.030158	 2.228172	 -0.878865	 -0.299278	 -0.064426	 0.831131	 -0.437054	 0.337718	 2
1463630331.559	 7	 0.493820	 -1.767852	 -1.253537	 2.213878	 -0.891242	 -0.293705	 -0.072678	 0.826527	 -0.440398	 0.342959	 2
1463630331.569	 7	 0.663745	 -1.324133	 -1.451251	 2.203736	 -0.906185	 -0.288245	 -0.080588	 0.822141	 -0.444805	 0.346033	 2
1463630331.579	 7	 0.892874	 -0.817447	 -1.595607	 2.197516	 -0.923745	 -0.284193	 -0.087669	 0.817981	 -0.450540	 0.346748	 2
1463630331.589	 7	 1.152123	 -0.353650	 -1.628718	 2.193797	 -0.943275	 -0.283038	 -0.093470	 0.813974	 -0.457574	 0.345449	 2
1463630331.599	 7	 1.401271	 -0.044679	 -1.602434	 2.190552	 -0.964192	 -0.285685	 -0.097954	 0.809918	 -0.465744	 0.342813	 2
1463630331.619	 8	 1.665261	 -0.083743	 -1.455889	 2.177287	 -1.007225	 -0.301293	 -0.104778	 0.800792	 -0.483683	 0.337350	 2
1463630331.629	 8	 1.668393	 -0.371584	 -1.399978	 2.164983	 -1.028329	 -0.312371	 -0.108303	 0.795474	 -0.492581	 0.335941	 2
1463630331.639	 8	 1.574622	 -0.823090	 -1.364996	 2.148144	 -1.048638	 -0.323756	 -0.112793	 0.789549	 -0.500857	 0.336202	 2
1463630331.649	 8	 1.390034	 -1.304052	 -1.322036	 2.127441	 -1.067637	 -0.333910	 -0.118602	 0.783144	 -0.508086	 0.338329	 2
1463630331.659	 8	 1.146159	 -1.717547	 -1.239565	 2.104248	 -1.084692	 -0.341854	 -0.125614	 0.776534	 -0.513951	 0.342156	 2
1463630331.669	 8	 0.953146	 -1.990718	 -1.146640	 2.079520	 -1.099793	 -0.347944	 -0.133409	 0.769878	 -0.518563	 0.347250	 2
1463630331.679	 8	 0.851539	 -2.113151	 -1.057370	 2.053575	 -1.113432	 -0.353585	 -0.141462	 0.763210	 -0.522355	 0.353049	 2
1463630331.689	 8	 0.813245	 -2.148668	 -0.983830	 2.026378	 -1.126056	 -0.359991	 -0.149415	 0.756519	 -0.525692	 0.359169	 2
1463630331.699	 8	 0.798398	 -2.148453	 -0.960252	 1.998222	 -1.138187	 -0.367347	 -0.157259	 0.749776	 -0.528805	 0.365338	 2
1463630331.709	 8	 0.804800	 -2.133712	 -0.978288	 1.969257	 -1.150311	 -0.375672	 -0.165081	 0.742926	 -0.531865	 0.371387	 2
1463630331.719	 8	 0.828249	 -2.096925	 -1.029307	 1.939502	 -1.162796	 -0.385171	 -0.172912	 0.735936	 -0.535023	 0.377161	 2
1463630331.729	 8	 0.812376	 -2.025982	 -1.079665	 1.909602	 -1.175665	 -0.395413	 -0.180758	 0.728899	 -0.538250	 0.382518	 2
1463630331.739	 8	 0.700003	 -1.848197	 -1.102610	 1.882236	 -1.188413	 -0.404465	 -0.188459	 0.722255	 -0.541267	 0.387118	 2
1463630331.749	 8	 0.554117	 -1.562654	 -1.093354	 1.859758	 -1.200642	 -0.410988	 -0.195710	 0.716408	 -0.543949	 0.390610	 2
1463630331.759	 8	 0.444995	 -1.190933	 -1.065499	 1.842901	 -1.212240	 -0.415266	 -0.202127	 0.711549	 -0.546439	 0.392743	 2
1463630331.769	 8	 0.380452	 -0.839817	 -1.074458	 1.830928	 -1.223581	 -0.418189	 -0.207665	 0.707557	 -0.548996	 0.393500	 2
1463630331.779	 8	 0.324804	 -0.603900	 -1.125067	 1.823077	 -1.235188	 -0.419578	 -0.212719	 0.704169	 -0.551690	 0.393108	 2
1463630331.789	 8	 0.264244	 -0.515712	 -1.162086	 1.818239	 -1.247066	 -0.419113	 -0.217687	 0.701119	 -0.554370	 0.392069	 2
1463630331.799	 8	 0.252472	 -0.554754	 -1.123980	 1.813856	 -1.258753	 -0.418060	 -0.222684	 0.698109	 -0.556893	 0.391058	 2
1463630331.809	 8	 0.290851	 -0.655114	 -1.014408	 1.806812	 -1.269506	 -0.418855	 -0.227512	 0.694934	 -0.559186	 0.390662	 2
1463630331.819	 8	 0.359748	 -0.782707	 -0.981026	 1.795810	 -1.279889	 -0.422548	 -0.232354	 0.691382	 -0.561440	 0.390881	 2
1463630331.829	 8	 0.398238	 -1.027160	 -0.941005	 1.780171	 -1.290052	 -0.428864	 -0.237567	 0.687282	 -0.563536	 0.391961	 2
1463630331.839	 8	 0.294292	 -1.426066	 -0.843630	 1.761587	 -1.299259	 -0.434507	 -0.243608	 0.682705	 -0.564810	 0.394409	 2
1463630331.849	 8	 -0.068203	 -1.954450	 -0.665277	 1.746788	 -1.306374	 -0.431002	 -0.251099	 0.678107	 -0.564113	 0.398619	 2
1463630331.869	 9	 -1.147157	 -2.677752	 -0.081773	 1.756171	 -1.310031	 -0.369826	 -0.270198	 0.671382	 -0.553894	 0.411633	 2
1463630331.879	 9	 -1.624058	 -2.495104	 0.271518	 1.784022	 -1.305245	 -0.314408	 -0.279761	 0.670449	 -0.544927	 0.418672	 2
1463630331.889	 9	 -1.989396	 -1.942829	 0.599566	 1.825840	 -1.295789	 -0.249232	 -0.287724	 0.671915	 -0.534446	 0.424396	 2
1463630331.899	 9	 -2.054308	 -1.268114	 0.919744	 1.871951	 -1.282035	 -0.186323	 -0.293069	 0.675533	 -0.523634	 0.428455	 2
1463630331.909	 9	 -1.937688	 -0.730635	 1.162461	 1.912976	 -1.265323	 -0.134503	 -0.295761	 0.680428	 -0.513333	 0.431315	 2
1463630331.919	 9	 -1.908798	 -0.406140	 1.333619	 1.948974	 -1.246483	 -0.091664	 -0.296659	 0.686165	 -0.503322	 0.433403	 2
1463630331.929	 9	 -2.049467	 -0.214677	 1.425084	 1.983966	 -1.225783	 -0.051836	 -0.296820	 0.692673	 -0.492971	 0.434836	 2
1463630331.939	 9	 -2.299884	 0.056503	 1.464958	 2.021896	 -1.203184	 -0.011131	 -0.296662	 0.700236	 -0.481984	 0.435147	 2
1463630331.949	 9	 -2.468744	 0.433714	 1.492319	 2.062720	 -1.178912	 0.029207	 -0.295928	 0.708960	 -0.470683	 0.433890	 2
1463630331.959	 9	 -2.547420	 0.861206	 1.596098	 2.103890	 -1.152854	 0.065837	 -0.294088	 0.718781	 -0.459360	 0.431108	 2
1463630331.969	 9	 -2.460941	 1.401463	 1.769829	 2.142926	 -1.125145	 0.094988	 -0.290364	 0.729642	 -0.448483	 0.426818	 2
1463630331.979	 9	 -2.153487	 2.067571	 2.080290	 2.177275	 -1.096078	 0.112119	 -0.283583	 0.741516	 -0.438716	 0.421027	 2
1463630331.989	 9	 -1.603088	 2.611031	 2.442914	 2.203330	 -1.066797	 0.113421	 -0.273046	 0.753789	 -0.430734	 0.414386	 2
1463630331.999	 9	 -1.000985	 2.809680	 2.798681	 2.218978	 -1.038188	 0.099347	 -0.259154	 0.765586	 -0.424500	 0.408064	 2
1463630332.009	 9	 -0.619047	 2.777611	 3.077485	 2.225627	 -1.010014	 0.074667	 -0.243063	 0.776450	 -0.419209	 0.402876	 2
1463630332.019	 9	 -0.699376	 3.034273	 3.237240	 2.233487	 -0.980703	 0.048378	 -0.225672	 0.787556	 -0.413737	 0.397052	 2
1463630332.029	 9	 -0.954169	 2.770984	 3.347847	 2.242909	 -0.949196	 0.024518	 -0.208307	 0.798687	 -0.406851	 0.391381	 2
1463630332.039	 9	 -1.223438	 2.308570	 3.274483	 2.250980	 -0.915987	 0.004802	 -0.192392	 0.809011	 -0.398102	 0.387301	 2
1463630332.049	 9	 -1.375973	 2.027055	 2.820242	 2.261555	 -0.884657	 -0.008465	 -0.178866	 0.818433	 -0.388897	 0.383319	 2
1463630332.059	 9	 -1.377445	 1.893801	 2.338356	 2.274727	 -0.856978	 -0.016327	 -0.167760	 0.826881	 -0.380182	 0.378929	 2
1463630332.069	 9	 -1.273992	 1.856649	 2.097313	 2.288672	 -0.832255	 -0.022544	 -0.157810	 0.834572	 -0.372259	 0.374178	 2
1463630332.079	 9	 -1.187584	 1.918552	 2.015073	 2.302888	 -0.809025	 -0.029030	 -0.148046	 0.841878	 -0.364864	 0.369051	 2
1463630332.089	 9	 -1.053914	 2.011453	 1.973209	 2.317408	 -0.787038	 -0.036576	 -0.138077	 0.848916	 -0.358047	 0.363426	 2
1463630332.099	 9	 -0.841601	 1.922157	 2.065382	 2.329847	 -0.766091	 -0.046845	 -0.127564	 0.855399	 -0.351866	 0.358066	 2
1463630332.109	 9	 -0.645746	 1.794129	 2.090195	 2.339093	 -0.746197	 -0.059883	 -0.116636	 0.861118	 -0.346289	 0.353490	 2
1463630332.119	 9	 -0.510205	 1.578806	 2.079551	 2.345953	 -0.727544	 -0.074220	 -0.105780	 0.866100	 -0.341224	 0.349638	 2
1463630332.129	 9	 -0.409154	 1.261735	 2.104497	 2.349179	 -0.709543	 -0.089641	 -0.095165	 0.870220	 -0.336358	 0.347167	 2
1463630332.139	 9	 -0.281090	 1.004224	 2.142550	 2.349082	 -0.692157	 -0.106288	 -0.084642	 0.873546	 -0.331772	 0.345948	 2
1463630332.149	 9	 -0.123833	 0.828532	 2.178979	 2.346286	 -0.675521	 -0.124401	 -0.074007	 0.876175	 -0.327640	 0.345678	 2
1463630332.159	 9	 0.093668	 0.751605	 2.219000	 2.341607	 -0.659971	 -0.144349	 -0.063016	 0.878200	 -0.324241	 0.345921	 2
1463630332.169	 9	 0.373448	 0.746899	 2.269809	 2.335380	 -0.645853	 -0.166793	 -0.051392	 0.879639	 -0.321880	 0.346392	 2
1463630332.179	 9	 0.591982	 0.843728	 2.363660	 2.328616	 -0.632665	 -0.191774	 -0.038858	 0.880707	 -0.320398	 0.346686	 2
1463630332.189	 9	 0.779085	 1.064031	 2.457868	 2.322782	 -0.619931	 -0.218917	 -0.025256	 0.881676	 -0.319555	 0.346258	 2
1463630332.199	 9	 1.018040	 1.230661	 2.505297	 2.317785	 -0.608161	 -0.248279	 -0.010691	 0.882435	 -0.319560	 0.345075	 2
1463630332.209	 9	 1.285555	 1.354566	 2.539291	 2.313088	 -0.597822	 -0.279963	 0.004690	 0.882807	 -0.320604	 0.343283	 2
1463630332.219	 9	 1.549466	 1.379683	 2.589449	 2.307780	 -0.588780	 -0.314127	 0.020820	 0.882618	 -0.322651	 0.341245	 2
1463630332.229	 9	 1.819955	 1.523201	 2.542602	 2.302665	 -0.581505	 -0.350303	 0.037503	 0.881933	 -0.325806	 0.338583	 2
1463630332.239	 9	 2.047304	 1.629116	 2.426505	 2.298346	 -0.576482	 -0.387647	 0.054339	 0.880811	 -0.330088	 0.335054	 2
1463630332.249	 9	 2.205113	 1.553718	 2.213409	 2.293921	 -0.573886	 -0.424990	 0.070602	 0.879133	 -0.335365	 0.331165	 2
1463630332.259	 9	 2.277174	 1.228147	 1.934785	 2.287507	 -0.573717	 -0.460983	 0.085353	 0.876687	 -0.341476	 0.327916	 2
1463630332.269	 9	 2.282598	 0.825989	 1.628319	 2.278405	 -0.575714	 -0.494883	 0.098169	 0.873488	 -0.348251	 0.325733	 2
1463630332.279	 9	 2.142124	 0.492298	 1.317366	 2.267353	 -0.579246	 -0.525528	 0.108777	 0.869844	 -0.355238	 0.324568	 2
1463630332.289	 9	 1.983139	 0.281194	 1.036491	 2.255848	 -0.583554	 -0.552556	 0.117448	 0.866146	 -0.362001	 0.323964	 2
1463630332.299	 9	 1.854695	 -0.100511	 0.856075	 2.242483	 -0.588457	 -0.577006	 0.124420	 0.862170	 -0.368721	 0.324389	 2
1463630332.309	 9	 1.523514	 -0.614272	 0.570685	 2.226296	 -0.593360	 -0.597307	 0.128971	 0.857932	 -0.374978	 0.326666	 2
1463630332.319	 9	 0.740821	 -1.274350	 0.166368	 2.209060	 -0.597000	 -0.608581	 0.129664	 0.854142	 -0.379363	 0.331228	 2
1463630332.329	 9	 -0.226642	 -2.183903	 -0.247188	 2.190161	 -0.598277	 -0.607551	 0.125319	 0.850963	 -0.380889	 0.339236	 2
1463630332.339	 9	 -0.872038	 -3.075984	 -0.468351	 2.167317	 -0.597616	 -0.597335	 0.116798	 0.847679	 -0.380255	 0.351007	 2
1463630332.349	 9	 -1.235347	 -3.601628	 -0.498855	 2.140739	 -0.595442	 -0.582284	 0.105946	 0.843882	 -0.378207	 0.365511	 2
1463630332.359	 9	 -1.410102	 -3.697656	 -0.318113	 2.113135	 -0.591357	 -0.565816	 0.094874	 0.839789	 -0.374964	 0.380993	 2
1463630332.369	 9	 -1.533550	 -4.155208	 0.044259	 2.081789	 -0.584676	 -0.550064	 0.084199	 0.834755	 -0.370767	 0.398280	 2
1463630332.379	 9	 -1.583901	 -4.870363	 0.846957	 2.041643	 -0.571504	 -0.536906	 0.074906	 0.827747	 -0.364715	 0.419769	 2
1463630332.389	 9	 -1.355484	 -4.839662	 1.358951	 1.997567	 -0.553799	 -0.528069	 0.068218	 0.819377	 -0.357783	 0.442673	 2
1463630332.399	 9	 -0.791707	 -5.078718	 1.182362	 1.950105	 -0.538409	 -0.523788	 0.062439	 0.809350	 -0.352689	 0.465472	 2
1463630332.409	 9	 -0.231340	 -5.545569	 0.686085	 1.895847	 -0.529584	 -0.523082	 0.055211	 0.796716	 -0.350917	 0.488929	 2
1463630332.419	 9	 0.257619	 -6.109060	 0.328080	 1.835166	 -0.526036	 -0.525947	 0.046760	 0.781537	 -0.351924	 0.512993	 2
1463630332.429	 9	 0.605994	 -6.665298	 0.033181	 1.766491	 -0.526252	 -0.532238	 0.036983	 0.763349	 -0.355091	 0.538369	 2
1463630332.439	 9	 0.752538	 -6.957914	 -0.071000	 1.693364	 -0.528060	 -0.540440	 0.026421	 0.743038	 -0.359112	 0.564123	 2
1463630332.449	 9	 0.730107	 -7.148749	 0.151230	 1.618044	 -0.527949	 -0.549094	 0.016040	 0.721209	 -0.362374	 0.590157	 2
1463630332.459	 9	 0.525077	 -7.324663	 0.596867	 1.541792	 -0.523189	 -0.555863	 0.006283	 0.698140	 -0.363391	 0.616853	 2
1463630332.469	 9	 0.157714	 -7.290655	 1.030950	 1.467447	 -0.513812	 -0.558143	 -0.003001	 0.674588	 -0.361434	 0.643652	 2
1463630332.479	 9	 -0.392888	 -6.849728	 1.329734	 1.399978	 -0.501598	 -0.553359	 -0.012131	 0.652172	 -0.356190	 0.669069	 2
1463630332.489	 9	 -1.009427	 -6.180428	 1.413802	 1.342410	 -0.489589	 -0.540674	 -0.021752	 0.632157	 -0.348145	 0.691882	 2
1463630332.499	 9	 -1.557201	 -5.347034	 1.419932	 1.295951	 -0.479421	 -0.521055	 -0.031880	 0.615291	 -0.337972	 0.711460	 2
1463630332.509	 9	 -1.867435	 -4.564694	 1.375559	 1.259463	 -0.471351	 -0.497033	 -0.042061	 0.601472	 -0.326581	 0.727878	 2
1463630332.519	 9	 -1.852013	 -3.929401	 1.279023	 1.229710	 -0.464993	 -0.472471	 -0.051609	 0.589779	 -0.315254	 0.741696	 2
1463630332.529	 9	 -1.663634	 -3.214336	 1.106055	 1.205672	 -0.460071	 -0.449979	 -0.059928	 0.580034	 -0.304950	 0.752977	 2
1463630332.539	 9	 -1.377902	 -2.351490	 0.817445	 1.188295	 -0.457146	 -0.431286	 -0.066740	 0.572790	 -0.296601	 0.761240	 2
1463630332.549	 9	 -1.015550	 -1.759211	 0.796355	 1.175923	 -0.454144	 -0.416563	 -0.071524	 0.567482	 -0.289809	 0.767372	 2
1463630332.559	 9	 -0.622124	 -1.375584	 1.055480	 1.166361	 -0.447914	 -0.404938	 -0.073625	 0.563239	 -0.283462	 0.772651	 2
1463630332.569	 9	 -0.273755	 -1.053415	 1.328279	 1.158954	 -0.437692	 -0.395762	 -0.073032	 0.559808	 -0.277138	 0.777481	 2
1463630332.579	 9	 -0.019543	 -0.711381	 1.515757	 1.154105	 -0.424541	 -0.388452	 -0.070313	 0.557362	 -0.270900	 0.781676	 2
1463630332.589	 9	 0.154654	 -0.595617	 1.709286	 1.150494	 -0.408913	 -0.382262	 -0.066057	 0.555373	 -0.264523	 0.785637	 2
1463630332.599	 9	 0.142520	 -0.736718	 2.046992	 1.146167	 -0.390395	 -0.375090	 -0.060938	 0.552986	 -0.257010	 0.790214	 2
1463630332.609	 9	 -0.002381	 -0.621101	 2.237969	 1.143070	 -0.370147	 -0.365628	 -0.055535	 0.550963	 -0.248175	 0.794836	 2
1463630332.619	 9	 -0.128614	 -0.387363	 2.151719	 1.142345	 -0.350664	 -0.354938	 -0.050465	 0.549876	 -0.239061	 0.798711	 2
1463630332.629	 9	 -0.212012	 -0.246103	 1.943804	 1.143254	 -0.333297	 -0.344293	 -0.046057	 0.549518	 -0.230483	 0.801740	 2
1463630332.639	 9	 -0.284378	 -0.325497	 1.820067	 1.143708	 -0.317652	 -0.333679	 -0.042406	 0.549046	 -0.222293	 0.804572	 2
1463630332.649	 9	 -0.324800	 -0.525325	 1.821757	 1.142321	 -0.302445	 -0.322748	 -0.039218	 0.547859	 -0.214012	 0.807782	 2
1463630332.659	 9	 -0.321746	 -0.853377	 1.906070	 1.137925	 -0.286711	 -0.311411	 -0.036210	 0.545446	 -0.205345	 0.811795	 2
1463630332.669	 9	 -0.189628	 -1.186140	 1.979624	 1.129881	 -0.269905	 -0.300591	 -0.032926	 0.541532	 -0.196533	 0.816721	 2
1463630332.679	 9	 0.104613	 -1.531136	 2.045258	 1.117716	 -0.251522	 -0.291736	 -0.028759	 0.535902	 -0.188064	 0.822565	 2
1463630332.689	 9	 0.500999	 -1.778030	 2.186584	 1.101889	 -0.230555	 -0.285571	 -0.023007	 0.528671	 -0.180040	 0.829194	 2
1463630332.699	 9	 1.005011	 -1.707410	 2.448228	 1.085129	 -0.205439	 -0.282309	 -0.014681	 0.520858	 -0.172265	 0.835952	 2
1463630332.709	 9	 1.590423	 -1.368824	 2.734038	 1.070490	 -0.175144	 -0.282402	 -0.002974	 0.513628	 -0.164751	 0.842042	 2
1463630332.729	 10	 2.498227	 -0.556979	 3.290016	 1.052315	 -0.099899	 -0.290796	 0.029953	 0.502551	 -0.149944	 0.850919	 2
1463630332.739	 10	 2.725595	 -0.281598	 3.515475	 1.048447	 -0.056538	 -0.296819	 0.049782	 0.498459	 -0.141950	 0.853762	 2
1463630332.749	 10	 2.796933	 -0.201076	 3.647757	 1.046175	 -0.011249	 -0.302874	 0.070545	 0.494567	 -0.133462	 0.855929	 2
1463630332.759	 10	 2.716832	 -0.339096	 3.796377	 1.043222	 0.035082	 -0.307725	 0.091380	 0.489985	 -0.124219	 0.857983	 2
1463630332.769	 10	 2.510682	 -0.554831	 3.737547	 1.038505	 0.080549	 -0.310854	 0.111290	 0.484441	 -0.114549	 0.860122	 2
1463630332.779	 10	 2.243163	 -0.974714	 3.516423	 1.030069	 0.123102	 -0.312442	 0.129372	 0.477316	 -0.105217	 0.862764	 2
1463630332.789	 10	 2.003128	 -1.418352	 3.257536	 1.017034	 0.162192	 -0.312763	 0.145474	 0.468341	 -0.096631	 0.866116	 2
1463630332.799	 10	 1.782683	 -1.808631	 3.030947	 0.999688	 0.198072	 -0.311868	 0.159795	 0.457677	 -0.088820	 0.870120	 2
1463630332.809	 10	 1.567333	 -2.089866	 2.883130	 0.978905	 0.231332	 -0.309338	 0.172586	 0.445735	 -0.081447	 0.874586	 2
1463630332.819	 10	 1.387508	 -2.328466	 2.762045	 0.955162	 0.262427	 -0.305128	 0.184099	 0.432730	 -0.074370	 0.879387	 2
1463630332.829	 10	 1.258141	 -2.537141	 2.681297	 0.928795	 0.291767	 -0.299499	 0.194627	 0.418777	 -0.067594	 0.884408	 2
1463630332.839	 10	 1.205197	 -2.632021	 2.629719	 0.900498	 0.320154	 -0.292622	 0.204611	 0.404114	 -0.060956	 0.889444	 2
1463630332.849	 10	 1.261474	 -2.586301	 2.503894	 0.872252	 0.347627	 -0.285827	 0.214413	 0.389499	 -0.054840	 0.894042	 2
1463630332.859	 10	 1.462167	 -2.502411	 2.419798	 0.844991	 0.375245	 -0.280131	 0.224696	 0.375146	 -0.049365	 0.897964	 2
1463630332.869	 10	 1.762474	 -2.366474	 2.366226	 0.819480	 0.404163	 -0.276294	 0.236084	 0.361195	 -0.044544	 0.901010	 2
1463630332.879	 10	 2.067336	 -2.217377	 2.369222	 0.796158	 0.435021	 -0.274172	 0.248786	 0.347779	 -0.040134	 0.903075	 2
1463630332.889	 10	 2.302931	 -2.109023	 2.445979	 0.774114	 0.468061	 -0.272831	 0.262683	 0.334560	 -0.035779	 0.904316	 2
1463630332.899	 10	 2.409198	 -1.858470	 2.572080	 0.753887	 0.502881	 -0.270784	 0.277336	 0.322019	 -0.030816	 0.904676	 2
1463630332.909	 10	 2.382162	 -1.573613	 2.681542	 0.735555	 0.538500	 -0.266984	 0.292141	 0.310468	 -0.024930	 0.904235	 2
1463630332.919	 10	 2.249696	 -1.413362	 2.725751	 0.717961	 0.573670	 -0.260968	 0.306476	 0.299637	 -0.018293	 0.903303	 2
1463630332.929	 10	 2.033904	 -1.421574	 2.679595	 0.699273	 0.607102	 -0.252711	 0.319782	 0.288899	 -0.011405	 0.902301	 2
1463630332.939	 10	 1.754142	 -1.548474	 2.520985	 0.678265	 0.637535	 -0.242606	 0.331602	 0.277826	 -0.004874	 0.901570	 2
1463630332.949	 10	 1.460825	 -1.737856	 2.247876	 0.654705	 0.663930	 -0.231598	 0.341651	 0.266292	 0.000656	 0.901312	 2
1463630332.959	 10	 1.198238	 -1.916124	 1.906394	 0.629238	 0.685977	 -0.220814	 0.349959	 0.254419	 0.004765	 0.901541	 2
1463630332.979	 11	 0.805186	 -2.067966	 1.196474	 0.577404	 0.717936	 -0.203533	 0.362107	 0.230969	 0.008324	 0.903030	 2
1463630332.989	 11	 0.668751	 -2.055501	 0.953718	 0.552614	 0.729232	 -0.197190	 0.366487	 0.219863	 0.008331	 0.904034	 2
1463630332.999	 11	 0.596961	 -2.025237	 0.844851	 0.528437	 0.738906	 -0.191452	 0.370255	 0.209102	 0.007835	 0.905056	 2
1463630333.009	 11	 0.574896	 -2.002400	 0.904938	 0.503959	 0.748263	 -0.184909	 0.373838	 0.198408	 0.007506	 0.905993	 2
1463630333.019	 11	 0.671328	 -1.980889	 0.976771	 0.478951	 0.758444	 -0.177412	 0.377739	 0.187615	 0.007516	 0.906674	 2
1463630333.029	 11	 0.836085	 -1.888881	 0.970864	 0.454825	 0.769933	 -0.170264	 0.382302	 0.177091	 0.007582	 0.906877	 2
1463630333.039	 11	 0.972037	 -1.724012	 0.880624	 0.433089	 0.782340	 -0.164473	 0.387423	 0.167368	 0.007476	 0.906551	 2
1463630333.049	 11	 0.998109	 -1.537663	 0.774489	 0.414036	 0.794736	 -0.159943	 0.392660	 0.158666	 0.007200	 0.905865	 2
1463630333.059	 11	 0.896284	 -1.325334	 0.679302	 0.397360	 0.806040	 -0.155955	 0.397458	 0.151060	 0.006927	 0.905075	 2
1463630333.069	 11	 0.702771	 -1.091487	 0.580849	 0.382979	 0.815318	 -0.151969	 0.401355	 0.144675	 0.006821	 0.904398	 2
1463630333.079	 11	 0.532475	 -0.885597	 0.449962	 0.371084	 0.822402	 -0.148451	 0.404309	 0.139503	 0.006726	 0.903896	 2
1463630333.089	 11	 0.448260	 -0.786063	 0.354637	 0.361128	 0.828079	 -0.145806	 0.406694	 0.135146	 0.006457	 0.903490	 2
1463630333.099	 11	 0.467043	 -0.824853	 0.293364	 0.351590	 0.833445	 -0.143854	 0.408990	 0.130870	 0.005905	 0.903087	 2
1463630333.109	 11	 0.560280	 -0.878018	 0.186547	 0.342661	 0.839206	 -0.143525	 0.411564	 0.126520	 0.004758	 0.902544	 2
1463630333.119	 11	 0.676174	 -0.874915	 0.074727	 0.335249	 0.845638	 -0.145346	 0.414561	 0.122370	 0.002993	 0.901752	 2
1463630333.129	 11	 0.790204	 -0.869207	 0.027960	 0.329018	 0.852966	 -0.148626	 0.418030	 0.118389	 0.000877	 0.900686	 2
1463630333.139	 11	 0.851232	 -0.873252	 0.082811	 0.322648	 0.861110	 -0.151750	 0.421835	 0.114318	 -0.001142	 0.899436	 2
1463630333.149	 11	 0.868799	 -0.795432	 0.114289	 0.316422	 0.869694	 -0.154355	 0.425789	 0.110389	 -0.002878	 0.898059	 2
1463630333.159	 11	 0.837513	 -0.637952	 0.110698	 0.311481	 0.878103	 -0.156777	 0.429641	 0.107085	 -0.004291	 0.896617	 2
1463630333.169	 11	 0.773061	 -0.524815	 0.138956	 0.307428	 0.886027	 -0.158614	 0.433237	 0.104334	 -0.005306	 0.895205	 2
1463630333.179	 11	 0.686938	 -0.484969	 0.172050	 0.303196	 0.893291	 -0.159506	 0.436482	 0.101753	 -0.006005	 0.893920	 2
1463630333.189	 11	 0.575090	 -0.445255	 0.176590	 0.298763	 0.899591	 -0.159675	 0.439259	 0.099308	 -0.006519	 0.892831	 2
1463630333.199	 11	 0.429111	 -0.421223	 0.204729	 0.293854	 0.904608	 -0.158807	 0.441413	 0.096970	 -0.006795	 0.892023	 2
1463630333.209	 11	 0.298953	 -0.452412	 0.251400	 0.287743	 0.908467	 -0.156672	 0.442991	 0.094460	 -0.006878	 0.891509	 2
1463630333.219	 11	 0.163719	 -0.454641	 0.329291	 0.280061	 0.911234	 -0.152723	 0.444001	 0.091731	 -0.006599	 0.891294	 2
1463630333.229	 11	 0.019219	 -0.392959	 0.416384	 0.271271	 0.912827	 -0.146808	 0.444410	 0.089026	 -0.005791	 0.891370	 2
1463630333.239	 11	 -0.087647	 -0.286584	 0.521684	 0.261706	 0.913504	 -0.138716	 0.444329	 0.086519	 -0.004258	 0.891666	 2
1463630333.249	 11	 -0.104693	 -0.126370	 0.607518	 0.252262	 0.913974	 -0.128950	 0.444105	 0.084450	 -0.001967	 0.891984	 2
1463630333.259	 11	 -0.039527	 0.072691	 0.656762	 0.244184	 0.914982	 -0.118461	 0.444110	 0.083121	 0.000987	 0.892108	 2
1463630333.269	 11	 0.063819	 0.235357	 0.689349	 0.237655	 0.916957	 -0.107723	 0.444549	 0.082492	 0.004456	 0.891937	 2
1463630333.279	 11	 0.161218	 0.287263	 0.699642	 0.232008	 0.919927	 -0.097061	 0.445444	 0.082202	 0.008142	 0.891491	 2
1463630333.289	 11	 0.203526	 0.204200	 0.702763	 0.225913	 0.923460	 -0.086474	 0.446607	 0.081686	 0.011717	 0.890917	 2
1463630333.299	 11	 0.167231	 0.020976	 0.649152	 0.218524	 0.926695	 -0.076327	 0.447678	 0.080525	 0.014774	 0.890439	 2
1463630333.309	 11	 0.060216	 -0.180489	 0.544830	 0.210006	 0.928796	 -0.067326	 0.448319	 0.078666	 0.016990	 0.890243	 2
1463630333.319	 11	 -0.062793	 -0.369228	 0.429043	 0.200682	 0.929401	 -0.059722	 0.448376	 0.076197	 0.018317	 0.890403	 2
1463630333.329	 11	 -0.153450	 -0.511053	 0.342186	 0.190771	 0.928791	 -0.053356	 0.447959	 0.073231	 0.018900	 0.890849	 2
1463630333.339	 11	 -0.218006	 -0.562435	 0.270863	 0.180956	 0.927322	 -0.048019	 0.447208	 0.070099	 0.019013	 0.891476	 2
1463630333.349	 11	 -0.218003	 -0.536067	 0.240202	 0.171701	 0.925580	 -0.043399	 0.446362	 0.067056	 0.018928	 0.892136	 2
1463630333.359	 11	 -0.230700	 -0.314559	 0.273281	 0.163751	 0.923764	 -0.038334	 0.445462	 0.064689	 0.019339	 0.892751	 2
1463630333.369	 11	 -0.144140	 0.008962	 0.187079	 0.160045	 0.922424	 -0.034444	 0.444777	 0.063935	 0.020197	 0.893128	 2
1463630333.379	 11	 -0.055983	 0.196529	 0.127308	 0.159579	 0.921907	 -0.031926	 0.444470	 0.064299	 0.021198	 0.893232	 2
1463630333.389	 11	 -0.012029	 0.288505	 0.068099	 0.161193	 0.921839	 -0.030536	 0.444377	 0.065331	 0.022174	 0.893179	 2
