% Gyrometer data recorded with 'snsrlog'
% 
% 
% Label description:
% 	 0: Default Label
% 	 1: still_drop
% 	 2: walk_drop
% 	 3: other
% 	 4: dtw_same
% 	 5: dtw_diff
% 	 6: delete
% 	 7: steal
% 
% Column description:
% 	 1: Seconds.milliseconds since 1970
% 	 2: Number of skipped measurements
% 	 3: Gyro X
% 	 4: Gyro Y
% 	 5: Gyro Z
% 	 6: Roll of the device
% 	 7: Pitch of the device
% 	 8: Yaw of the device
% 	 9: Quaternion X
% 	 10: Quaternion Y
% 	 11: Quaternion Z
% 	 12: Quaternion W
% 	 13: Label used for the current sample
% 
% 
1463630414.210	 0	 1.269464	 1.198811	 0.538614	 0.082448	 0.143064	 -0.172983	 0.074694	 0.034784	 -0.083155	 0.993124	 2
1463630414.220	 0	 1.627753	 1.764058	 0.601502	 0.098146	 0.159084	 -0.168346	 0.083192	 0.042053	 -0.079823	 0.992441	 2
1463630414.230	 0	 1.704537	 2.063043	 0.501303	 0.117570	 0.176607	 -0.164883	 0.092557	 0.051074	 -0.076722	 0.991433	 2
1463630414.240	 0	 1.475457	 2.186691	 0.445831	 0.138733	 0.192537	 -0.162261	 0.101164	 0.060992	 -0.073832	 0.990250	 2
1463630414.250	 0	 1.035918	 2.266255	 0.386453	 0.160719	 0.204608	 -0.159952	 0.107850	 0.071466	 -0.071045	 0.989047	 2
1463630414.260	 0	 0.425444	 2.369176	 0.252045	 0.183573	 0.210834	 -0.158010	 0.111646	 0.082595	 -0.068540	 0.987935	 2
1463630414.270	 0	 -0.203892	 2.440259	 -0.026373	 0.207665	 0.210420	 -0.157407	 0.112231	 0.094542	 -0.066916	 0.986909	 2
1463630414.280	 0	 -0.599807	 2.541775	 -0.414181	 0.233253	 0.204649	 -0.159322	 0.110342	 0.107313	 -0.066775	 0.985824	 2
1463630414.290	 0	 -0.568471	 2.553277	 -0.868362	 0.260023	 0.196927	 -0.165273	 0.107792	 0.120531	 -0.068748	 0.984442	 2
1463630414.300	 0	 -0.181657	 2.439507	 -1.146689	 0.286676	 0.191135	 -0.175198	 0.106522	 0.133388	 -0.072616	 0.982643	 2
1463630414.310	 0	 0.364643	 2.290286	 -1.262608	 0.312324	 0.189656	 -0.187947	 0.107649	 0.145370	 -0.077616	 0.980436	 2
1463630414.320	 0	 0.691343	 2.168500	 -1.350781	 0.337075	 0.191435	 -0.202825	 0.110637	 0.156577	 -0.083399	 0.977900	 2
1463630414.330	 0	 0.583149	 2.129058	 -1.406691	 0.361418	 0.192627	 -0.218389	 0.113531	 0.167520	 -0.089526	 0.975209	 2
1463630414.340	 1	 0.188721	 1.980361	 -1.390786	 0.384421	 0.190308	 -0.232790	 0.114714	 0.178048	 -0.095451	 0.972640	 2
1463630414.360	 1	 -0.897237	 1.435252	 -1.171119	 0.421022	 0.171648	 -0.252337	 0.109358	 0.195988	 -0.104834	 0.968834	 2
1463630414.370	 1	 -1.292642	 1.266688	 -1.108496	 0.434825	 0.155994	 -0.257590	 0.103074	 0.203495	 -0.108366	 0.967586	 2
1463630414.380	 1	 -1.365905	 1.371972	 -1.139917	 0.448754	 0.138794	 -0.261926	 0.096010	 0.211235	 -0.111713	 0.966272	 2
1463630414.390	 1	 -1.078855	 1.713637	 -1.283115	 0.465702	 0.122803	 -0.267988	 0.089941	 0.220276	 -0.115711	 0.964365	 2
1463630414.400	 1	 -0.593648	 2.210006	 -1.426599	 0.487551	 0.110000	 -0.277113	 0.086122	 0.231325	 -0.120686	 0.961513	 2
1463630414.420	 2	 0.233773	 3.198787	 -1.437392	 0.546655	 0.094986	 -0.302918	 0.085872	 0.259649	 -0.132447	 0.952715	 2
1463630414.430	 2	 0.293740	 3.535051	 -1.246151	 0.584119	 0.089410	 -0.315705	 0.087481	 0.277334	 -0.137683	 0.946824	 2
1463630414.440	 2	 0.104529	 3.875117	 -0.923744	 0.623797	 0.084751	 -0.325083	 0.089402	 0.296025	 -0.141053	 0.940468	 2
1463630414.450	 2	 -0.264740	 4.129766	 -0.425779	 0.665286	 0.079981	 -0.328754	 0.090671	 0.315699	 -0.141665	 0.933833	 2
1463630414.460	 2	 -0.673681	 4.513723	 0.140879	 0.709133	 0.075632	 -0.324989	 0.091115	 0.336629	 -0.138656	 0.926905	 2
1463630414.480	 3	 -1.092939	 5.381140	 0.490448	 0.807993	 0.067485	 -0.304866	 0.090316	 0.383607	 -0.126432	 0.910332	 2
1463630414.490	 3	 -1.000948	 5.880919	 0.218265	 0.865035	 0.062780	 -0.295112	 0.089780	 0.410209	 -0.120404	 0.899539	 2
1463630414.500	 3	 -0.713730	 6.122002	 -0.301018	 0.925482	 0.056553	 -0.289860	 0.089479	 0.437892	 -0.116694	 0.886920	 2
1463630414.510	 3	 -0.220355	 6.140676	 -1.045845	 0.986971	 0.047528	 -0.291823	 0.089558	 0.465490	 -0.116874	 0.872719	 2
1463630414.520	 4	 0.234262	 6.420018	 -1.648294	 1.050669	 0.035295	 -0.300937	 0.090259	 0.493470	 -0.120918	 0.856574	 2
1463630414.540	 4	 0.391116	 6.415649	 -2.186845	 1.181845	 0.002117	 -0.326033	 0.091287	 0.549598	 -0.134192	 0.819513	 2
1463630414.550	 4	 0.094256	 5.926181	 -2.188814	 1.242387	 -0.017761	 -0.335351	 0.090007	 0.575026	 -0.140804	 0.800886	 2
1463630414.560	 4	 -0.209805	 5.270785	 -2.194397	 1.296648	 -0.039102	 -0.340535	 0.086943	 0.597646	 -0.146673	 0.783420	 2
1463630414.570	 4	 -0.431704	 4.588767	 -2.171102	 1.344130	 -0.061153	 -0.342223	 0.082392	 0.617298	 -0.151943	 0.767508	 2
1463630414.580	 4	 -0.551771	 3.933631	 -2.066379	 1.385133	 -0.082767	 -0.341346	 0.076979	 0.634106	 -0.156635	 0.753292	 2
1463630414.590	 4	 -0.583916	 3.324335	 -1.911905	 1.420109	 -0.102963	 -0.338861	 0.071310	 0.648270	 -0.160765	 0.740821	 2
1463630414.600	 4	 -0.517843	 2.753837	 -1.794160	 1.449360	 -0.121712	 -0.335954	 0.065729	 0.659969	 -0.164693	 0.730067	 2
1463630414.610	 4	 -0.355750	 2.244173	 -1.755552	 1.473308	 -0.139647	 -0.333862	 0.060395	 0.669447	 -0.168995	 0.720856	 2
1463630414.620	 4	 -0.128564	 1.793362	 -1.788369	 1.492350	 -0.157489	 -0.333537	 0.055375	 0.676931	 -0.174170	 0.712995	 2
1463630414.630	 4	 0.115606	 1.409825	 -1.924087	 1.507043	 -0.176243	 -0.335465	 0.050502	 0.682706	 -0.180650	 0.706206	 2
1463630414.640	 4	 0.303311	 1.098331	 -2.121523	 1.518021	 -0.196759	 -0.339312	 0.045399	 0.687075	 -0.188532	 0.700230	 2
1463630414.650	 4	 0.428535	 0.858547	 -2.282577	 1.526096	 -0.219022	 -0.344516	 0.039935	 0.690360	 -0.197557	 0.694824	 2
1463630414.660	 4	 0.495670	 0.655882	 -2.335138	 1.531804	 -0.242078	 -0.350448	 0.034264	 0.692750	 -0.207146	 0.689937	 2
1463630414.670	 4	 0.545887	 0.401883	 -2.286783	 1.534893	 -0.264895	 -0.356840	 0.028608	 0.694161	 -0.216842	 0.685785	 2
1463630414.680	 4	 0.594169	 0.147198	 -2.187260	 1.535091	 -0.286807	 -0.363710	 0.023144	 0.694510	 -0.226408	 0.682539	 2
1463630414.690	 4	 0.627965	 -0.021209	 -2.076150	 1.533107	 -0.307597	 -0.370988	 0.017970	 0.694061	 -0.235720	 0.679994	 2
1463630414.700	 4	 0.672943	 -0.086433	 -1.958849	 1.529918	 -0.327198	 -0.378750	 0.013225	 0.693164	 -0.244761	 0.677821	 2
1463630414.710	 4	 0.741792	 -0.065602	 -1.845218	 1.526366	 -0.345592	 -0.387240	 0.009093	 0.692115	 -0.253601	 0.675708	 2
1463630414.720	 4	 0.829980	 -0.010845	 -1.738900	 1.522842	 -0.362851	 -0.396713	 0.005683	 0.691057	 -0.262349	 0.673484	 2
1463630414.730	 4	 0.881767	 -0.045827	 -1.555300	 1.518661	 -0.378452	 -0.406887	 0.002997	 0.689767	 -0.270749	 0.671496	 2
1463630414.740	 4	 0.985632	 0.104070	 -1.376827	 1.515123	 -0.392114	 -0.418013	 0.001397	 0.688685	 -0.278801	 0.669314	 2
1463630414.750	 4	 1.123459	 0.234548	 -1.222277	 1.512292	 -0.404059	 -0.430585	 0.000992	 0.687836	 -0.286752	 0.666824	 2
1463630414.760	 4	 1.210437	 0.222614	 -1.072873	 1.509192	 -0.414457	 -0.444306	 0.001482	 0.686893	 -0.294560	 0.664388	 2
1463630414.770	 4	 1.192377	 0.088895	 -0.892781	 1.504863	 -0.423033	 -0.458109	 0.002455	 0.685533	 -0.301795	 0.662540	 2
1463630414.780	 4	 1.093528	 -0.126094	 -0.805462	 1.498840	 -0.430426	 -0.471009	 0.003258	 0.683609	 -0.308341	 0.661509	 2
1463630414.800	 5	 0.693242	 -0.584344	 -1.090800	 1.482241	 -0.447928	 -0.491860	 0.001344	 0.678337	 -0.320546	 0.661141	 2
1463630414.810	 5	 0.361434	 -1.096250	 -1.267459	 1.470071	 -0.459714	 -0.498109	 -0.002847	 0.674488	 -0.326115	 0.662350	 2
1463630414.820	 5	 -0.093776	 -2.034868	 -1.375609	 1.451462	 -0.473118	 -0.500141	 -0.010182	 0.668513	 -0.330659	 0.666072	 2
1463630414.830	 5	 -0.775835	 -3.395557	 -1.403647	 1.423094	 -0.487858	 -0.495556	 -0.021918	 0.659182	 -0.333138	 0.673808	 2
1463630414.840	 5	 -1.361347	 -4.399539	 -1.191542	 1.386619	 -0.502341	 -0.484104	 -0.037208	 0.646807	 -0.332780	 0.685211	 2
1463630414.850	 5	 -1.575945	 -4.666929	 -0.896945	 1.347553	 -0.514943	 -0.468940	 -0.053366	 0.633096	 -0.330103	 0.698121	 2
1463630414.860	 5	 -1.310739	 -4.090415	 -0.638107	 1.311488	 -0.525133	 -0.455159	 -0.067565	 0.620084	 -0.326882	 0.709986	 2
1463630414.870	 5	 -0.761857	 -3.104169	 -0.377926	 1.282474	 -0.531796	 -0.446413	 -0.077593	 0.609460	 -0.324442	 0.719218	 2
1463630414.880	 5	 -0.142651	 -2.302693	 -0.194679	 1.258759	 -0.534943	 -0.443908	 -0.083438	 0.600819	 -0.323387	 0.726275	 2
1463630414.900	 6	 0.884292	 0.132055	 -0.053073	 1.234693	 -0.532532	 -0.456726	 -0.082562	 0.592548	 -0.326457	 0.731776	 2
1463630414.910	 6	 1.241693	 1.511357	 -0.375868	 1.239766	 -0.531338	 -0.470356	 -0.077204	 0.594925	 -0.331338	 0.728230	 2
1463630414.920	 6	 1.633506	 2.254807	 -0.952136	 1.250647	 -0.533966	 -0.490237	 -0.070489	 0.599651	 -0.339596	 0.721196	 2
1463630414.930	 6	 1.886724	 2.456361	 -1.655869	 1.261823	 -0.542346	 -0.515921	 -0.064154	 0.604700	 -0.351249	 0.711932	 2
1463630414.940	 6	 1.846522	 2.274147	 -2.158122	 1.270457	 -0.556295	 -0.544079	 -0.059581	 0.608960	 -0.364901	 0.701759	 2
1463630414.950	 6	 1.656241	 1.950727	 -2.392877	 1.276214	 -0.573733	 -0.571514	 -0.057005	 0.612229	 -0.378874	 0.691650	 2
1463630414.960	 6	 1.512686	 1.479126	 -2.508986	 1.277715	 -0.593024	 -0.597805	 -0.056236	 0.614044	 -0.392578	 0.682400	 2
1463630414.970	 6	 1.490146	 1.089135	 -2.615798	 1.274519	 -0.613480	 -0.624201	 -0.056794	 0.614340	 -0.406253	 0.674032	 2
1463630414.980	 6	 1.586505	 0.796617	 -2.727001	 1.266730	 -0.634669	 -0.652363	 -0.058072	 0.613252	 -0.420326	 0.666240	 2
1463630414.990	 6	 1.731172	 0.519239	 -2.784130	 1.254065	 -0.655906	 -0.683155	 -0.059694	 0.610754	 -0.434871	 0.659017	 2
1463630415.000	 6	 1.803017	 0.388013	 -2.810489	 1.237742	 -0.676762	 -0.716138	 -0.061461	 0.607276	 -0.449640	 0.652121	 2
1463630415.010	 6	 1.815650	 0.379226	 -2.843719	 1.219702	 -0.697394	 -0.750564	 -0.063292	 0.603474	 -0.464451	 0.645056	 2
1463630415.020	 6	 1.774777	 0.319713	 -2.853509	 1.200174	 -0.717795	 -0.785823	 -0.065345	 0.599430	 -0.479089	 0.637877	 2
1463630415.030	 6	 1.813873	 0.217660	 -2.830287	 1.178346	 -0.737436	 -0.822285	 -0.067528	 0.594890	 -0.493529	 0.630852	 2
1463630415.040	 6	 1.949683	 0.250459	 -2.799191	 1.154140	 -0.755721	 -0.861270	 -0.069279	 0.589858	 -0.508071	 0.623804	 2
1463630415.050	 6	 2.147732	 0.564024	 -2.746841	 1.129577	 -0.772110	 -0.903553	 -0.069683	 0.584952	 -0.522943	 0.616040	 2
1463630415.060	 6	 2.377058	 0.948745	 -2.696233	 1.105841	 -0.786301	 -0.949526	 -0.068203	 0.580486	 -0.538277	 0.607159	 2
1463630415.070	 6	 2.608277	 1.262373	 -2.621790	 1.082425	 -0.798080	 -0.999098	 -0.064917	 0.576211	 -0.554015	 0.597355	 2
1463630415.080	 6	 2.861619	 1.539560	 -2.576654	 1.058846	 -0.807349	 -1.052297	 -0.059925	 0.571886	 -0.570161	 0.586746	 2
1463630415.090	 6	 3.029546	 1.746270	 -2.457893	 1.035455	 -0.813971	 -1.108003	 -0.053417	 0.567462	 -0.586410	 0.575549	 2
1463630415.100	 6	 3.135541	 1.898264	 -2.282617	 1.013008	 -0.817684	 -1.164433	 -0.045587	 0.562957	 -0.602292	 0.564132	 2
1463630415.110	 6	 3.230221	 1.905708	 -2.097929	 0.990975	 -0.818476	 -1.220859	 -0.036799	 0.558082	 -0.617664	 0.552885	 2
1463630415.120	 6	 3.245755	 1.667511	 -1.937203	 0.969354	 -0.815486	 -1.275340	 -0.027281	 0.552551	 -0.632023	 0.542670	 2
1463630415.130	 6	 3.041445	 1.223459	 -1.798873	 0.944895	 -0.812330	 -1.327531	 -0.019561	 0.546030	 -0.645585	 0.533562	 2
1463630415.140	 6	 2.733490	 0.924829	 -1.596475	 0.920710	 -0.808899	 -1.374565	 -0.013389	 0.539368	 -0.657667	 0.525715	 2
1463630415.150	 6	 2.271369	 0.479181	 -1.342947	 0.897950	 -0.805184	 -1.414547	 -0.008831	 0.532902	 -0.667835	 0.519551	 2
1463630415.160	 6	 1.617377	 0.100925	 -1.113766	 0.877645	 -0.803084	 -1.445038	 -0.006794	 0.527329	 -0.675574	 0.515245	 2
1463630415.170	 6	 1.571473	 0.416864	 -0.686253	 0.863228	 -0.799439	 -1.469340	 -0.003971	 0.522903	 -0.681676	 0.511737	 2
1463630415.180	 6	 1.546759	 0.242467	 -0.251763	 0.852001	 -0.791603	 -1.489799	 0.000366	 0.518306	 -0.686711	 0.509692	 2
1463630415.190	 6	 0.797351	 -0.152123	 -0.113558	 0.842542	 -0.785915	 -1.502121	 0.002353	 0.514590	 -0.689743	 0.509359	 2
1463630415.200	 6	 -0.101204	 -0.321374	 0.090922	 0.839182	 -0.785019	 -1.502841	 0.001703	 0.513526	 -0.689913	 0.510204	 2
1463630415.210	 6	 -0.358983	 -0.514838	 0.442002	 0.839373	 -0.784709	 -1.496022	 0.000130	 0.513506	 -0.688164	 0.512583	 2
1463630415.220	 6	 -0.190153	 -0.619503	 0.890375	 0.840219	 -0.780549	 -1.486189	 -0.000593	 0.512769	 -0.685549	 0.516807	 2
1463630415.230	 6	 -0.089919	 -0.497963	 1.263651	 0.843307	 -0.772431	 -1.474110	 0.000325	 0.511722	 -0.682224	 0.522218	 2
1463630415.240	 6	 -0.250251	 -0.447517	 1.408328	 0.849169	 -0.763321	 -1.459276	 0.001855	 0.511212	 -0.678079	 0.528080	 2
1463630415.250	 6	 -0.610452	 -0.668760	 1.261265	 0.855042	 -0.756776	 -1.442053	 0.001840	 0.511327	 -0.673293	 0.534057	 2
1463630415.260	 6	 -0.993519	 -0.899201	 1.009870	 0.859570	 -0.754561	 -1.423028	 -0.000691	 0.512061	 -0.668106	 0.539840	 2
1463630415.270	 6	 -1.240908	 -0.911662	 0.805150	 0.864029	 -0.755853	 -1.403061	 -0.004807	 0.513522	 -0.662747	 0.545013	 2
1463630415.280	 6	 -1.386613	 -0.727905	 0.712210	 0.870415	 -0.759052	 -1.382338	 -0.009227	 0.515871	 -0.657234	 0.549396	 2
1463630415.290	 6	 -1.360646	 -0.428038	 0.714770	 0.879676	 -0.762486	 -1.361481	 -0.012881	 0.519014	 -0.651694	 0.552950	 2
1463630415.300	 6	 -1.229472	 0.048590	 0.932282	 0.893447	 -0.763778	 -1.340406	 -0.014390	 0.522946	 -0.646011	 0.555870	 2
1463630415.310	 6	 -1.164213	 0.620597	 1.368670	 0.914438	 -0.761280	 -1.316939	 -0.012864	 0.528151	 -0.639475	 0.558537	 2
1463630415.320	 6	 -0.994172	 1.033430	 2.044593	 0.942386	 -0.752662	 -1.290066	 -0.007842	 0.534236	 -0.631530	 0.561872	 2
1463630415.330	 7	 -0.662971	 1.341428	 2.849225	 0.974639	 -0.735289	 -1.261067	 0.001113	 0.540182	 -0.622071	 0.566771	 2
1463630415.350	 7	 -0.602486	 2.319765	 4.020549	 1.054418	 -0.678955	 -1.198533	 0.029951	 0.554061	 -0.597974	 0.578400	 2
1463630415.360	 7	 -0.933808	 2.439696	 4.290990	 1.100290	 -0.645615	 -1.163727	 0.046565	 0.562836	 -0.582851	 0.584236	 2
1463630415.370	 7	 -1.286457	 2.235280	 4.413656	 1.144899	 -0.611289	 -1.126743	 0.062031	 0.571831	 -0.565906	 0.590688	 2
1463630415.380	 7	 -1.373150	 2.061254	 4.288097	 1.185952	 -0.576739	 -1.090926	 0.076343	 0.580368	 -0.548341	 0.597216	 2
1463630415.390	 7	 -1.459780	 2.135151	 3.883483	 1.224349	 -0.544541	 -1.058284	 0.089408	 0.588883	 -0.531304	 0.602444	 2
1463630415.400	 7	 -1.528770	 2.013003	 3.585600	 1.260577	 -0.515059	 -1.027940	 0.101034	 0.597462	 -0.514791	 0.606483	 2
1463630415.410	 7	 -1.295778	 1.297639	 3.447957	 1.288175	 -0.485607	 -1.001418	 0.111144	 0.603598	 -0.499255	 0.611606	 2
1463630415.420	 7	 -1.047412	 0.859466	 2.820378	 1.307272	 -0.459799	 -0.980493	 0.119175	 0.607521	 -0.486205	 0.616701	 2
1463630415.430	 7	 -1.013602	 0.603196	 1.962958	 1.321207	 -0.441172	 -0.963513	 0.124305	 0.610631	 -0.475970	 0.620589	 2
1463630415.440	 7	 -1.057831	 0.417559	 0.987509	 1.331847	 -0.431713	 -0.948974	 0.125888	 0.613734	 -0.468633	 0.622789	 2
1463630415.450	 7	 -1.262395	 0.837738	 0.032948	 1.344217	 -0.431882	 -0.935547	 0.124573	 0.618444	 -0.463718	 0.622073	 2
1463630415.460	 7	 -1.804396	 2.127622	 -0.663325	 1.368831	 -0.440552	 -0.918937	 0.121864	 0.628035	 -0.459108	 0.616394	 2
1463630415.470	 7	 -2.254588	 3.707822	 -0.889827	 1.411346	 -0.452706	 -0.897043	 0.120127	 0.643567	 -0.452805	 0.605275	 2
1463630415.480	 7	 -2.315906	 5.478518	 -1.237307	 1.472249	 -0.466969	 -0.872964	 0.120758	 0.664448	 -0.445574	 0.587700	 2
1463630415.490	 7	 -2.003932	 6.069659	 -1.581961	 1.543691	 -0.483414	 -0.850357	 0.123068	 0.687645	 -0.439083	 0.564982	 2
1463630415.500	 7	 -1.403457	 4.587975	 -1.789616	 1.600975	 -0.500761	 -0.832709	 0.123408	 0.705695	 -0.435479	 0.545090	 2
1463630415.510	 7	 -0.712866	 4.470371	 -1.887313	 1.651205	 -0.519023	 -0.821236	 0.124008	 0.720759	 -0.434542	 0.525644	 2
1463630415.520	 7	 0.195908	 3.164218	 -1.525837	 1.688704	 -0.535586	 -0.818963	 0.125789	 0.731272	 -0.436471	 0.508834	 2
1463630415.530	 7	 0.202270	 1.115045	 -0.441897	 1.703148	 -0.543321	 -0.821235	 0.127212	 0.735050	 -0.438423	 0.501303	 2
1463630415.540	 7	 -0.579526	 0.575775	 0.851596	 1.711284	 -0.537630	 -0.817681	 0.129562	 0.737122	 -0.435314	 0.500366	 2
1463630415.550	 7	 -1.016529	 0.477163	 2.182423	 1.720100	 -0.517830	 -0.809883	 0.135098	 0.739170	 -0.426803	 0.503205	 2
1463630415.560	 7	 -0.804776	 1.076689	 2.659357	 1.731632	 -0.490654	 -0.804478	 0.144408	 0.741466	 -0.416305	 0.506029	 2
1463630415.570	 7	 -0.385826	 1.811228	 2.478167	 1.748311	 -0.464849	 -0.803824	 0.155949	 0.744717	 -0.406840	 0.505527	 2
1463630415.590	 8	 0.126418	 2.378991	 2.070803	 1.789625	 -0.421329	 -0.813116	 0.181499	 0.752402	 -0.391777	 0.497453	 2
1463630415.600	 8	 0.073953	 2.293586	 1.859444	 1.810551	 -0.402904	 -0.818873	 0.193466	 0.756172	 -0.385221	 0.492321	 2
1463630415.610	 8	 -0.032676	 2.070849	 1.608912	 1.830216	 -0.386651	 -0.823245	 0.203866	 0.759756	 -0.378960	 0.487441	 2
1463630415.620	 8	 -0.035952	 1.677912	 1.250385	 1.846622	 -0.373533	 -0.826642	 0.212219	 0.762721	 -0.373687	 0.483298	 2
1463630415.630	 8	 0.050610	 1.362044	 0.849163	 1.860123	 -0.364526	 -0.829775	 0.218625	 0.765169	 -0.369945	 0.479438	 2
1463630415.640	 8	 0.240338	 0.592152	 0.361820	 1.867020	 -0.360335	 -0.833112	 0.222424	 0.766231	 -0.368560	 0.477055	 2
1463630415.650	 8	 0.686869	 0.122052	 -0.041841	 1.866816	 -0.361553	 -0.838971	 0.224268	 0.765592	 -0.370392	 0.475796	 2
1463630415.660	 8	 1.190599	 0.023783	 -0.188887	 1.863485	 -0.366275	 -0.849457	 0.226255	 0.763874	 -0.374854	 0.474120	 2
1463630415.680	 9	 1.544174	 -0.096671	 -0.229323	 1.851974	 -0.378460	 -0.878218	 0.231375	 0.758545	 -0.387036	 0.470402	 2
1463630415.690	 9	 1.691232	 -0.138611	 -0.233125	 1.844547	 -0.385234	 -0.894631	 0.234107	 0.755288	 -0.393984	 0.468520	 2
1463630415.700	 9	 1.800617	 -0.017748	 -0.242544	 1.837145	 -0.392267	 -0.912502	 0.237253	 0.751878	 -0.401323	 0.466187	 2
1463630415.710	 9	 1.821891	 0.271877	 -0.335953	 1.832144	 -0.399963	 -0.930645	 0.240726	 0.749030	 -0.408612	 0.462646	 2
1463630415.730	 10	 1.594020	 1.215662	 -0.524484	 1.834195	 -0.418190	 -0.964732	 0.248395	 0.746501	 -0.421931	 0.450567	 2
1463630415.740	 10	 1.129195	 1.738436	 -0.491060	 1.845572	 -0.426421	 -0.976583	 0.252757	 0.748085	 -0.425737	 0.441849	 2
1463630415.750	 10	 0.564596	 1.847353	 -0.366831	 1.861448	 -0.432208	 -0.982751	 0.256723	 0.751136	 -0.426886	 0.433194	 2
1463630415.760	 10	 0.181379	 1.676405	 -0.188169	 1.877892	 -0.435258	 -0.984769	 0.260085	 0.754592	 -0.426158	 0.425836	 2
1463630415.770	 10	 -0.043979	 1.426813	 0.062991	 1.892810	 -0.435276	 -0.984769	 0.263252	 0.757748	 -0.424212	 0.420191	 2
1463630415.780	 10	 -0.088091	 1.137360	 0.317530	 1.904902	 -0.432600	 -0.984764	 0.266588	 0.760124	 -0.421753	 0.416253	 2
1463630415.790	 10	 -0.063308	 0.992200	 0.550431	 1.914556	 -0.427677	 -0.985892	 0.270473	 0.761696	 -0.419105	 0.413539	 2
1463630415.800	 10	 -0.032085	 0.974681	 0.640586	 1.923612	 -0.421634	 -0.987795	 0.274830	 0.762960	 -0.416305	 0.411157	 2
1463630415.810	 10	 0.043365	 0.759990	 0.546276	 1.930853	 -0.416237	 -0.990289	 0.278829	 0.763791	 -0.414058	 0.409186	 2
1463630415.820	 10	 0.050946	 0.319905	 0.290595	 1.934520	 -0.413088	 -0.992240	 0.281230	 0.764085	 -0.412916	 0.408147	 2
1463630415.830	 10	 -0.006363	 -0.336668	 0.076095	 1.932630	 -0.411939	 -0.992798	 0.281379	 0.763554	 -0.412921	 0.409033	 2
1463630415.840	 10	 -0.082065	 -0.688183	 -0.026699	 1.926444	 -0.411905	 -0.992138	 0.279859	 0.762375	 -0.413642	 0.411537	 2
1463630415.850	 10	 -0.557985	 0.457601	 -0.034274	 1.928035	 -0.410771	 -0.988248	 0.279028	 0.763179	 -0.412249	 0.412009	 2
1463630415.860	 10	 -1.202114	 2.144170	 -0.044944	 1.950942	 -0.407405	 -0.976672	 0.280231	 0.769294	 -0.405570	 0.406411	 2
1463630415.870	 10	 -1.145444	 3.020512	 0.554215	 1.983258	 -0.399274	 -0.966496	 0.285044	 0.776800	 -0.396236	 0.397907	 2
1463630415.880	 10	 -0.648522	 2.678824	 0.864306	 2.013497	 -0.388479	 -0.962258	 0.292264	 0.782823	 -0.387357	 0.389517	 2
1463630415.890	 10	 0.167800	 1.036901	 0.647951	 2.027096	 -0.381836	 -0.965427	 0.297913	 0.784663	 -0.383675	 0.385156	 2
1463630415.900	 10	 0.413323	 -0.239475	 0.301418	 2.025292	 -0.380139	 -0.971052	 0.300225	 0.783390	 -0.384442	 0.385188	 2
1463630415.910	 10	 0.191267	 -0.236528	 -0.261475	 2.021464	 -0.382119	 -0.973129	 0.299771	 0.782441	 -0.386099	 0.385813	 2
1463630415.920	 10	 0.018362	 0.206652	 -0.525483	 2.023206	 -0.386970	 -0.971230	 0.298063	 0.783303	 -0.387142	 0.384338	 2
1463630415.930	 10	 -0.044506	 0.434437	 -0.233995	 2.027902	 -0.389638	 -0.969370	 0.297528	 0.784610	 -0.387005	 0.382219	 2
1463630415.940	 10	 0.063755	 0.244294	 -0.156775	 2.031208	 -0.391099	 -0.968893	 0.297590	 0.785381	 -0.386926	 0.380664	 2
1463630415.950	 10	 0.201288	 -0.274645	 -0.380217	 2.029792	 -0.394662	 -0.969045	 0.296422	 0.785257	 -0.388393	 0.380337	 2
1463630415.970	 11	 0.299492	 -0.693891	 -0.951958	 2.017503	 -0.410248	 -0.967287	 0.289126	 0.783889	 -0.395202	 0.381758	 2
1463630415.980	 11	 0.353703	 -0.530993	 -1.200303	 2.012640	 -0.422027	 -0.965274	 0.284169	 0.783768	 -0.399528	 0.381225	 2
1463630415.990	 11	 0.444841	 -0.313254	 -1.351474	 2.009890	 -0.435792	 -0.963249	 0.279058	 0.784105	 -0.404198	 0.379382	 2
1463630416.000	 11	 0.544992	 -0.332824	 -1.369581	 2.007272	 -0.450401	 -0.962039	 0.274034	 0.784347	 -0.409262	 0.377107	 2
1463630416.010	 11	 0.614916	 -0.685982	 -1.346832	 2.001712	 -0.465146	 -0.961772	 0.268704	 0.783875	 -0.414914	 0.375745	 2
1463630416.020	 11	 0.694222	 -1.645394	 -1.466223	 1.988082	 -0.480895	 -0.962124	 0.261592	 0.781810	 -0.422025	 0.377144	 2
1463630416.030	 11	 0.490160	 -3.200280	 -1.826354	 1.960669	 -0.499101	 -0.960140	 0.249804	 0.777465	 -0.431126	 0.383767	 2
1463630416.040	 11	 0.959005	 -3.759370	 -1.879335	 1.922853	 -0.519349	 -0.961274	 0.236106	 0.770671	 -0.442446	 0.393142	 2
1463630416.050	 11	 1.291016	 -3.388901	 -2.287009	 1.884471	 -0.548307	 -0.966909	 0.221014	 0.763423	 -0.457002	 0.399359	 2
1463630416.060	 11	 1.315480	 -2.744844	 -2.789792	 1.848240	 -0.596685	 -0.974814	 0.200780	 0.756949	 -0.476994	 0.398989	 2
1463630416.070	 11	 1.208672	 -2.085982	 -3.058764	 1.822759	 -0.629127	 -0.979994	 0.186453	 0.752344	 -0.489944	 0.398958	 2
1463630416.090	 12	 0.990057	 -2.788065	 -2.721283	 1.769841	 -0.690096	 -0.989970	 0.157420	 0.742606	 -0.513458	 0.400146	 2
1463630416.100	 12	 0.651348	 -2.943896	 -2.639852	 1.738321	 -0.717478	 -0.993229	 0.141497	 0.736747	 -0.523724	 0.403603	 2
1463630416.110	 12	 0.279268	 -2.814555	 -2.701486	 1.710383	 -0.744554	 -0.992653	 0.124924	 0.731815	 -0.532409	 0.406671	 2
1463630416.120	 12	 0.036873	 -3.031169	 -2.749351	 1.683218	 -0.771876	 -0.988982	 0.107117	 0.727133	 -0.540023	 0.410096	 2
1463630416.130	 12	 0.177185	 -2.937854	 -2.731586	 1.654872	 -0.799208	 -0.986803	 0.089317	 0.722011	 -0.547538	 0.413430	 2
1463630416.140	 12	 0.660444	 -2.487538	 -2.773168	 1.625072	 -0.827050	 -0.991751	 0.073284	 0.716236	 -0.556219	 0.415036	 2
1463630416.150	 12	 1.167259	 -1.915882	 -2.939586	 1.594123	 -0.856320	 -1.005736	 0.059390	 0.710010	 -0.566611	 0.413897	 2
1463630416.160	 12	 1.601928	 -1.465402	 -3.124622	 1.560746	 -0.887206	 -1.028750	 0.047094	 0.703284	 -0.578679	 0.410250	 2
1463630416.170	 12	 1.879950	 -1.014050	 -3.252865	 1.525152	 -0.918981	 -1.059650	 0.036196	 0.696312	 -0.591874	 0.404382	 2
1463630416.180	 12	 1.947793	 -0.518921	 -3.149733	 1.489928	 -0.949549	 -1.095719	 0.027195	 0.689747	 -0.605098	 0.396693	 2
1463630416.190	 12	 1.770308	 -0.549763	 -2.927862	 1.454392	 -0.977475	 -1.132774	 0.018975	 0.683499	 -0.617305	 0.389106	 2
1463630416.200	 12	 1.444276	 -0.847167	 -2.710375	 1.418044	 -1.002794	 -1.167107	 0.010149	 0.677473	 -0.627886	 0.382997	 2
1463630416.210	 12	 1.179781	 -0.965255	 -2.527991	 1.381738	 -1.026067	 -1.198490	 0.000765	 0.671794	 -0.636985	 0.378077	 2
1463630416.220	 12	 1.057136	 -0.895327	 -2.321646	 1.346629	 -1.047080	 -1.228770	 -0.008048	 0.666596	 -0.645034	 0.373519	 2
1463630416.230	 12	 1.029872	 -0.760622	 -2.091017	 1.311535	 -1.065501	 -1.259709	 -0.015917	 0.661587	 -0.652428	 0.369307	 2
1463630416.240	 12	 0.983379	 -0.435205	 -1.823275	 1.279292	 -1.080989	 -1.290521	 -0.022018	 0.657200	 -0.659125	 0.364906	 2
1463630416.250	 12	 0.994126	 -0.168656	 -1.583223	 1.249655	 -1.093651	 -1.321385	 -0.026366	 0.653318	 -0.665302	 0.360353	 2
1463630416.260	 12	 1.019184	 0.014458	 -1.402689	 1.221328	 -1.103947	 -1.352905	 -0.029337	 0.649682	 -0.671187	 0.355753	 2
1463630416.270	 12	 0.991440	 0.121931	 -1.260767	 1.194310	 -1.112501	 -1.384198	 -0.031431	 0.646284	 -0.676738	 0.351220	 2
1463630416.280	 12	 0.910818	 0.119810	 -1.141712	 1.168832	 -1.119776	 -1.413980	 -0.033136	 0.643146	 -0.681810	 0.346986	 2
1463630416.290	 12	 0.792057	 -0.014319	 -1.058797	 1.144416	 -1.126323	 -1.441377	 -0.035075	 0.640199	 -0.686311	 0.343354	 2
1463630416.300	 12	 0.677957	 -0.262515	 -1.010022	 1.119760	 -1.132565	 -1.466495	 -0.037797	 0.637250	 -0.690277	 0.340591	 2
1463630416.310	 12	 0.560321	 -0.554544	 -0.993597	 1.094001	 -1.138851	 -1.489601	 -0.041630	 0.634195	 -0.693751	 0.338783	 2
1463630416.320	 12	 0.423838	 -0.813171	 -0.925541	 1.067892	 -1.145042	 -1.510033	 -0.046463	 0.631120	 -0.696636	 0.337976	 2
1463630416.330	 12	 0.303735	 -1.084878	 -0.747975	 1.042602	 -1.150364	 -1.526667	 -0.051950	 0.628054	 -0.698783	 0.338455	 2
1463630416.340	 12	 0.216666	 -1.384185	 -0.549639	 1.018076	 -1.154280	 -1.539214	 -0.057992	 0.624848	 -0.700178	 0.340519	 2
1463630416.350	 12	 0.133372	 -1.763488	 -0.380856	 0.993380	 -1.156989	 -1.548047	 -0.064852	 0.621329	 -0.700872	 0.344273	 2
1463630416.370	 13	 -0.326815	 -2.779473	 -0.306371	 0.941139	 -1.163415	 -1.553291	 -0.083797	 0.613451	 -0.699650	 0.356576	 2
1463630416.380	 13	 -0.870114	 -3.240664	 -0.321918	 0.918889	 -1.170273	 -1.543331	 -0.097032	 0.610170	 -0.696585	 0.364755	 2
1463630416.390	 13	 -1.456203	 -3.296278	 -0.307741	 0.906109	 -1.180846	 -1.521333	 -0.111910	 0.608472	 -0.691432	 0.373041	 2
1463630416.400	 13	 -1.828876	 -2.992256	 -0.188696	 0.905829	 -1.193466	 -1.488339	 -0.126535	 0.608538	 -0.684701	 0.380597	 2
1463630416.410	 13	 -2.096315	 -2.497721	 0.136897	 0.921460	 -1.205480	 -1.443335	 -0.139237	 0.610416	 -0.676688	 0.387425	 2
1463630416.420	 13	 -2.429239	 -1.878385	 0.485537	 0.957553	 -1.216098	 -1.382968	 -0.149448	 0.614592	 -0.667263	 0.393322	 2
1463630416.430	 13	 -2.630892	 -1.167675	 0.727308	 1.013854	 -1.224806	 -1.308759	 -0.156930	 0.621082	 -0.656847	 0.397722	 2
1463630416.440	 13	 -2.585069	 -0.390396	 0.862033	 1.083238	 -1.230725	 -1.229091	 -0.161415	 0.629138	 -0.646575	 0.400089	 2
1463630416.450	 13	 -2.411194	 0.073479	 1.098238	 1.158098	 -1.232103	 -1.149456	 -0.163134	 0.637775	 -0.636745	 0.401481	 2
1463630416.460	 13	 -2.500328	 0.345325	 1.441522	 1.239428	 -1.228430	 -1.066148	 -0.162846	 0.647202	 -0.626356	 0.402851	 2
1463630416.470	 13	 -2.769679	 0.930955	 1.714691	 1.331667	 -1.220175	 -0.975985	 -0.160599	 0.658430	 -0.614795	 0.403368	 2
1463630416.480	 13	 -2.689574	 2.135101	 1.912773	 1.431461	 -1.207025	 -0.888788	 -0.154413	 0.671899	 -0.603338	 0.400863	 2
1463630416.490	 13	 -2.100080	 3.398498	 2.127220	 1.525040	 -1.188523	 -0.821606	 -0.142620	 0.686388	 -0.593830	 0.394838	 2
1463630416.500	 13	 -1.420092	 4.141716	 2.368012	 1.603526	 -1.165582	 -0.779910	 -0.125931	 0.700422	 -0.586517	 0.386714	 2
1463630416.510	 13	 -0.936157	 4.304495	 2.569940	 1.666149	 -1.139732	 -0.758374	 -0.106470	 0.713130	 -0.580516	 0.378300	 2
1463630416.520	 13	 -0.778354	 3.984442	 2.646585	 1.716955	 -1.112597	 -0.747423	 -0.086663	 0.724362	 -0.574697	 0.370828	 2
1463630416.530	 13	 -0.942079	 3.281274	 2.563667	 1.760339	 -1.085573	 -0.737738	 -0.068914	 0.734295	 -0.568052	 0.365212	 2
1463630416.540	 13	 -1.269861	 2.445358	 2.442575	 1.798645	 -1.058913	 -0.724323	 -0.054436	 0.743208	 -0.560010	 0.362033	 2
1463630416.550	 13	 -1.642282	 1.634157	 2.338087	 1.833018	 -1.032268	 -0.705808	 -0.043323	 0.751398	 -0.550411	 0.361348	 2
1463630416.560	 13	 -1.962430	 0.851240	 2.195040	 1.863016	 -1.005563	 -0.682851	 -0.035443	 0.758876	 -0.539431	 0.363132	 2
1463630416.570	 13	 -2.124673	 0.130012	 1.969129	 1.887329	 -0.979929	 -0.657426	 -0.030728	 0.765348	 -0.527799	 0.367050	 2
1463630416.580	 13	 -2.114422	 -0.428095	 1.719787	 1.905312	 -0.956243	 -0.631948	 -0.028600	 0.770606	 -0.516296	 0.372542	 2
1463630416.590	 13	 -1.934090	 -0.695101	 1.494053	 1.917647	 -0.934985	 -0.608698	 -0.028025	 0.774692	 -0.505596	 0.378735	 2
1463630416.600	 13	 -1.589574	 -0.579387	 1.309885	 1.926102	 -0.916495	 -0.590191	 -0.027564	 0.777882	 -0.496402	 0.384350	 2
1463630416.610	 13	 -1.211230	 -0.123041	 1.177617	 1.933805	 -0.900619	 -0.577220	 -0.026007	 0.780769	 -0.488956	 0.388130	 2
1463630416.620	 13	 -0.865116	 0.461485	 1.107571	 1.942959	 -0.886745	 -0.569513	 -0.022702	 0.783824	 -0.483101	 0.389509	 2
1463630416.630	 13	 -0.591565	 0.975581	 1.122762	 1.953912	 -0.873995	 -0.566403	 -0.017551	 0.787174	 -0.478454	 0.388756	 2
1463630416.640	 13	 -0.428425	 1.328822	 1.205626	 1.966184	 -0.861310	 -0.566736	 -0.010799	 0.790785	 -0.474432	 0.386598	 2
1463630416.650	 13	 -0.385960	 1.442010	 1.284111	 1.978929	 -0.848125	 -0.568810	 -0.003150	 0.794507	 -0.470495	 0.383905	 2
1463630416.660	 13	 -0.397906	 1.336219	 1.357834	 1.990644	 -0.834275	 -0.571487	 0.004641	 0.798048	 -0.466358	 0.381586	 2
1463630416.670	 13	 -0.404010	 1.152414	 1.382820	 2.000457	 -0.820033	 -0.574451	 0.012175	 0.801212	 -0.462063	 0.380011	 2
1463630416.680	 13	 -0.347261	 1.001971	 1.340427	 2.008308	 -0.806197	 -0.577875	 0.019290	 0.803913	 -0.457936	 0.379007	 2
1463630416.690	 13	 -0.181280	 0.948912	 1.277740	 2.014303	 -0.793535	 -0.582839	 0.026244	 0.806092	 -0.454467	 0.378135	 2
1463630416.700	 13	 0.030908	 0.975383	 1.200470	 2.018857	 -0.782412	 -0.590013	 0.033314	 0.807783	 -0.451924	 0.377018	 2
1463630416.710	 13	 0.231423	 1.049461	 1.083245	 2.022772	 -0.773180	 -0.599121	 0.040484	 0.809103	 -0.450378	 0.375330	 2
1463630416.720	 13	 0.384627	 1.079799	 0.928724	 2.026381	 -0.766000	 -0.609426	 0.047491	 0.810118	 -0.449745	 0.373072	 2
1463630416.730	 13	 0.468929	 1.028044	 0.719684	 2.029659	 -0.761045	 -0.619773	 0.053816	 0.810845	 -0.449872	 0.370472	 2
1463630416.740	 13	 0.513654	 0.983623	 0.479085	 2.033005	 -0.758437	 -0.629311	 0.059171	 0.811388	 -0.450636	 0.367526	 2
1463630416.750	 13	 0.558531	 0.987983	 0.218689	 2.037013	 -0.758341	 -0.637792	 0.063544	 0.811868	 -0.452031	 0.364006	 2
1463630416.760	 13	 0.633267	 0.998543	 -0.054699	 2.041759	 -0.760983	 -0.645406	 0.066970	 0.812285	 -0.454165	 0.359781	 2
1463630416.770	 13	 0.742270	 1.047176	 -0.344017	 2.047082	 -0.766608	 -0.652505	 0.069492	 0.812580	 -0.457188	 0.354774	 2
1463630416.780	 13	 0.878242	 0.724365	 -0.656210	 2.050727	 -0.775617	 -0.659173	 0.070518	 0.812316	 -0.461328	 0.349780	 2
1463630416.790	 13	 1.162199	 0.320341	 -0.960855	 2.049335	 -0.788456	 -0.666979	 0.069769	 0.810826	 -0.467117	 0.345681	 2
1463630416.800	 13	 1.477052	 0.135296	 -1.270126	 2.043881	 -0.805478	 -0.676968	 0.067743	 0.808230	 -0.474777	 0.341705	 2
1463630416.810	 13	 1.645655	 0.131793	 -1.538068	 2.036822	 -0.825957	 -0.688268	 0.064816	 0.805042	 -0.483766	 0.337160	 2
1463630416.820	 13	 1.504803	 0.278806	 -1.709193	 2.032033	 -0.847920	 -0.697969	 0.061294	 0.802157	 -0.492770	 0.331611	 2
1463630416.830	 13	 0.904760	 0.480211	 -1.752185	 2.034040	 -0.868420	 -0.700885	 0.057109	 0.800674	 -0.499866	 0.325259	 2
1463630416.840	 13	 -0.189482	 1.117872	 -1.531032	 2.050665	 -0.883340	 -0.691130	 0.053129	 0.802282	 -0.502692	 0.317523	 2
1463630416.850	 13	 -1.187413	 1.185424	 -0.833232	 2.080161	 -0.887610	 -0.669619	 0.050674	 0.807058	 -0.499957	 0.310053	 2
1463630416.860	 13	 -1.117628	 0.534474	 -0.221754	 2.101793	 -0.884742	 -0.650380	 0.049061	 0.811166	 -0.495490	 0.306744	 2
1463630416.870	 13	 -0.389496	 0.348392	 0.079245	 2.111720	 -0.881567	 -0.642540	 0.049190	 0.813211	 -0.492970	 0.305365	 2
1463630416.890	 14	 0.579952	 -0.888622	 0.319340	 2.094531	 -0.880595	 -0.656261	 0.050777	 0.810328	 -0.495179	 0.309171	 2
1463630416.900	 14	 0.556179	 -1.367486	 0.276723	 2.073987	 -0.880896	 -0.666253	 0.049637	 0.806842	 -0.497355	 0.314929	 2
1463630416.910	 14	 0.520535	 -1.282915	 0.337503	 2.053311	 -0.880666	 -0.675814	 0.048398	 0.803343	 -0.499306	 0.320923	 2
1463630416.920	 14	 0.500019	 -0.956741	 0.427044	 2.035110	 -0.879341	 -0.685816	 0.048232	 0.800280	 -0.500930	 0.326029	 2
1463630416.930	 14	 0.550235	 -0.597541	 0.552512	 2.019828	 -0.877036	 -0.696747	 0.049425	 0.797712	 -0.502350	 0.329936	 2
1463630416.940	 14	 0.786214	 -0.062817	 0.756862	 2.006266	 -0.873768	 -0.711629	 0.052885	 0.795362	 -0.504115	 0.332371	 2
1463630416.960	 15	 0.677414	 1.010040	 1.107771	 1.993246	 -0.862348	 -0.746779	 0.066889	 0.793038	 -0.506729	 0.331426	 2
1463630416.970	 15	 0.362190	 0.703534	 1.101269	 1.991145	 -0.854063	 -0.760124	 0.074084	 0.792812	 -0.506417	 0.330913	 2
1463630416.980	 15	 -0.210627	 0.484568	 0.888934	 1.992419	 -0.845101	 -0.765263	 0.079081	 0.793438	 -0.504412	 0.331316	 2
1463630417.000	 16	 0.038186	 0.358993	 0.540293	 2.002668	 -0.832557	 -0.763219	 0.084520	 0.796055	 -0.499701	 0.330835	 2
1463630417.010	 16	 0.932263	 2.224952	 0.954861	 2.006977	 -0.827965	 -0.778774	 0.093132	 0.796370	 -0.500612	 0.326358	 2
1463630417.020	 16	 0.242656	 3.891652	 0.533017	 2.034898	 -0.823769	 -0.790180	 0.105884	 0.800536	 -0.499714	 0.313394	 2
1463630417.030	 16	 -0.464079	 4.164429	 -0.125479	 2.081292	 -0.824239	 -0.784547	 0.115040	 0.807884	 -0.496445	 0.296025	 2
1463630417.040	 16	 -0.493566	 3.192785	 -0.215282	 2.121266	 -0.825579	 -0.777270	 0.121611	 0.813985	 -0.493471	 0.281291	 2
1463630417.050	 16	 -0.465242	 1.599673	 -0.326271	 2.147443	 -0.825540	 -0.769044	 0.124706	 0.818120	 -0.490707	 0.272643	 2
1463630417.060	 16	 -0.363623	 -0.033286	 -0.475571	 2.157297	 -0.827001	 -0.760555	 0.123253	 0.819863	 -0.489438	 0.270340	 2
1463630417.070	 16	 0.077916	 -1.367975	 -0.570702	 2.150706	 -0.831294	 -0.755218	 0.118305	 0.818926	 -0.490567	 0.273327	 2
1463630417.080	 16	 1.064832	 -2.303794	 -0.590135	 2.125691	 -0.840393	 -0.760534	 0.111851	 0.814395	 -0.495800	 0.280057	 2
1463630417.090	 16	 2.052829	 -2.656801	 -0.761886	 2.086011	 -0.855874	 -0.778825	 0.105052	 0.806516	 -0.505639	 0.287795	 2
1463630417.100	 16	 2.650427	 -2.812365	 -0.851666	 2.036829	 -0.875155	 -0.806989	 0.098258	 0.796450	 -0.518368	 0.295477	 2
1463630417.110	 16	 2.856819	 -3.067206	 -0.709825	 1.979578	 -0.894072	 -0.842444	 0.091665	 0.784895	 -0.532138	 0.303917	 2
1463630417.120	 16	 2.541058	 -3.679437	 -0.487897	 1.915842	 -0.908811	 -0.878879	 0.084195	 0.772571	 -0.544814	 0.314995	 2
1463630417.130	 16	 1.981165	 -4.123888	 -0.401897	 1.850888	 -0.919324	 -0.909946	 0.074924	 0.760394	 -0.555246	 0.328465	 2
1463630417.140	 16	 1.328821	 -4.184745	 -0.404244	 1.791115	 -0.926906	 -0.932309	 0.064196	 0.749316	 -0.563020	 0.342655	 2
1463630417.150	 16	 0.754472	 -3.964269	 -0.448350	 1.741893	 -0.933124	 -0.944090	 0.052604	 0.740212	 -0.568031	 0.355893	 2
1463630417.170	 17	 0.387163	 -2.916081	 -0.669866	 1.664600	 -0.946009	 -0.956971	 0.030867	 0.725563	 -0.574969	 0.376851	 2
1463630417.180	 17	 0.406152	 -2.129342	 -0.854548	 1.636562	 -0.954310	 -0.962658	 0.021974	 0.720080	 -0.578231	 0.382950	 2
1463630417.190	 17	 0.590590	 -1.223862	 -1.171720	 1.615530	 -0.965523	 -0.970866	 0.014917	 0.715891	 -0.582372	 0.384865	 2
1463630417.200	 17	 0.828663	 -0.600469	 -1.352369	 1.597614	 -0.978979	 -0.983673	 0.009541	 0.712312	 -0.587697	 0.383579	 2
1463630417.210	 17	 1.065818	 -0.273998	 -1.411078	 1.579346	 -0.993129	 -1.001474	 0.005489	 0.708734	 -0.593959	 0.380630	 2
1463630417.220	 17	 1.282847	 -0.103090	 -1.515822	 1.558740	 -1.007957	 -1.024314	 0.002159	 0.704825	 -0.601121	 0.376657	 2
1463630417.230	 17	 1.455364	 -0.098985	 -1.613205	 1.534410	 -1.023544	 -1.051902	 -0.001055	 0.700382	 -0.609077	 0.372142	 2
1463630417.240	 17	 1.521836	 -0.233424	 -1.644876	 1.505875	 -1.039169	 -1.082929	 -0.004570	 0.695367	 -0.617388	 0.367799	 2
1463630417.250	 17	 1.476901	 -0.498007	 -1.627763	 1.473611	 -1.054239	 -1.115301	 -0.008809	 0.689899	 -0.625531	 0.364242	 2
1463630417.260	 17	 1.354656	 -0.879217	 -1.590813	 1.437861	 -1.068578	 -1.147341	 -0.014245	 0.684029	 -0.633164	 0.361946	 2
1463630417.270	 17	 1.203671	 -1.298218	 -1.494232	 1.398959	 -1.081739	 -1.177984	 -0.020986	 0.677786	 -0.640034	 0.361278	 2
1463630417.280	 17	 1.073321	 -1.665965	 -1.364365	 1.357462	 -1.093343	 -1.207011	 -0.028782	 0.671213	 -0.646080	 0.362250	 2
1463630417.290	 17	 1.010535	 -1.945785	 -1.255583	 1.313361	 -1.103415	 -1.235402	 -0.037307	 0.664269	 -0.651507	 0.364547	 2
1463630417.300	 17	 0.984306	 -2.120819	 -1.202629	 1.266758	 -1.112336	 -1.264196	 -0.046320	 0.656968	 -0.656557	 0.367669	 2
1463630417.310	 17	 0.994108	 -2.135253	 -1.135706	 1.218536	 -1.120071	 -1.294011	 -0.055324	 0.649454	 -0.661377	 0.371119	 2
1463630417.320	 17	 1.018636	 -1.966808	 -1.071472	 1.170431	 -1.126453	 -1.324978	 -0.063643	 0.642011	 -0.666067	 0.374333	 2
1463630417.330	 17	 1.037463	 -1.634679	 -1.024849	 1.124256	 -1.131646	 -1.356963	 -0.070777	 0.634970	 -0.670730	 0.376730	 2
1463630417.340	 17	 1.022608	 -1.192990	 -0.990768	 1.081813	 -1.135907	 -1.389357	 -0.076390	 0.628660	 -0.675391	 0.377886	 2
1463630417.350	 17	 0.922512	 -0.709686	 -0.972610	 1.045211	 -1.139796	 -1.420526	 -0.080456	 0.623476	 -0.679893	 0.377557	 2
1463630417.360	 17	 0.759042	 -0.299702	 -0.970569	 1.015334	 -1.143983	 -1.449072	 -0.083295	 0.619605	 -0.684053	 0.375795	 2
1463630417.370	 17	 0.612679	 -0.094113	 -0.986566	 0.990331	 -1.148799	 -1.475086	 -0.085569	 0.616739	 -0.687828	 0.373100	 2
1463630417.380	 17	 0.560063	 -0.143055	 -1.010010	 0.965930	 -1.153924	 -1.500486	 -0.088007	 0.614109	 -0.691399	 0.370260	 2
1463630417.390	 17	 0.463852	 -0.359073	 -1.063404	 0.939926	 -1.159576	 -1.525644	 -0.091326	 0.611367	 -0.694722	 0.367765	 2
1463630417.400	 17	 0.253319	 -0.596092	 -1.125591	 0.913314	 -1.166632	 -1.548703	 -0.096053	 0.608778	 -0.697445	 0.365695	 2
1463630417.420	 18	 0.050553	 -0.874777	 -1.063539	 0.861067	 -1.182802	 -1.588786	 -0.107830	 0.604241	 -0.701267	 0.362616	 2
1463630417.430	 18	 0.056459	 -1.098195	 -0.922857	 0.834062	 -1.189676	 -1.606966	 -0.114206	 0.601666	 -0.702625	 0.362316	 2
1463630417.440	 18	 0.068677	 -1.356594	 -0.763372	 0.806144	 -1.195095	 -1.623068	 -0.121048	 0.598614	 -0.703515	 0.363422	 2
1463630417.450	 18	 -0.014783	 -1.645511	 -0.744019	 0.776956	 -1.200206	 -1.637528	 -0.128742	 0.595234	 -0.703918	 0.365542	 2
1463630417.460	 18	 -0.280119	 -2.018030	 -0.739846	 0.747261	 -1.206833	 -1.648762	 -0.138093	 0.591916	 -0.703415	 0.368473	 2
1463630417.470	 18	 -0.657933	 -2.330004	 -0.645673	 0.720568	 -1.215424	 -1.652819	 -0.149151	 0.589091	 -0.701433	 0.372450	 2
1463630417.480	 18	 -1.124009	 -2.537983	 -0.327018	 0.704966	 -1.225808	 -1.642991	 -0.160969	 0.587624	 -0.697342	 0.377493	 2
1463630417.490	 18	 -1.694080	 -2.564442	 0.193528	 0.708856	 -1.237186	 -1.611549	 -0.172681	 0.588128	 -0.690545	 0.383973	 2
1463630417.500	 18	 -2.347654	 -2.199209	 0.719512	 0.741379	 -1.249638	 -1.552703	 -0.183129	 0.591655	 -0.680888	 0.390896	 2
1463630417.510	 18	 -2.822264	 -1.368282	 1.148089	 0.806901	 -1.261805	 -1.467023	 -0.190757	 0.598693	 -0.669225	 0.396632	 2
1463630417.520	 18	 -2.933720	 -0.309017	 1.383792	 0.899390	 -1.270974	 -1.363948	 -0.194484	 0.608530	 -0.657151	 0.400025	 2
1463630417.530	 18	 -2.659887	 0.571329	 1.303273	 1.001327	 -1.276088	 -1.261316	 -0.194646	 0.619522	 -0.646437	 0.400531	 2
1463630417.540	 18	 -2.511356	 1.086553	 1.276933	 1.104362	 -1.277530	 -1.163771	 -0.192613	 0.630793	 -0.636930	 0.399150	 2
1463630417.550	 18	 -2.623697	 1.658434	 1.331192	 1.215368	 -1.275855	 -1.063549	 -0.188822	 0.643248	 -0.627489	 0.396024	 2
1463630417.560	 18	 -2.584663	 2.737328	 1.547649	 1.335355	 -1.269346	 -0.963539	 -0.181576	 0.657571	 -0.618321	 0.390269	 2
1463630417.570	 18	 -2.087713	 3.914016	 1.941144	 1.450869	 -1.255205	 -0.880400	 -0.168629	 0.673051	 -0.610519	 0.381882	 2
1463630417.580	 18	 -1.434747	 4.797651	 2.466970	 1.548846	 -1.233202	 -0.825675	 -0.149730	 0.688437	 -0.604390	 0.371950	 2
1463630417.590	 18	 -0.939617	 5.004410	 3.017714	 1.625966	 -1.204160	 -0.796786	 -0.126564	 0.702755	 -0.598909	 0.362525	 2
1463630417.600	 18	 -0.783799	 4.516971	 3.331550	 1.685547	 -1.170896	 -0.782985	 -0.102459	 0.715396	 -0.592894	 0.355230	 2
1463630417.610	 18	 -1.000677	 3.538224	 3.359501	 1.733702	 -1.136243	 -0.771900	 -0.080745	 0.726375	 -0.585352	 0.351031	 2
1463630417.620	 18	 -1.424704	 2.456701	 3.211383	 1.775172	 -1.101849	 -0.756007	 -0.063254	 0.736113	 -0.575834	 0.350075	 2
1463630417.630	 18	 -1.856336	 1.618373	 3.009108	 1.812808	 -1.068119	 -0.733910	 -0.049837	 0.745148	 -0.564485	 0.351606	 2
1463630417.640	 18	 -2.156646	 1.014749	 2.811071	 1.846905	 -1.035125	 -0.707946	 -0.039592	 0.753662	 -0.551861	 0.354790	 2
1463630417.650	 18	 -2.272839	 0.491754	 2.659075	 1.875665	 -1.002854	 -0.681455	 -0.031725	 0.761396	 -0.538621	 0.359386	 2
1463630417.660	 18	 -2.187829	 0.022992	 2.586830	 1.896606	 -0.971181	 -0.657838	 -0.025451	 0.767897	 -0.525426	 0.365533	 2
1463630417.671	 18	 -1.920810	 -0.230113	 2.406299	 1.910209	 -0.941426	 -0.639011	 -0.020130	 0.773035	 -0.513176	 0.372373	 2
1463630417.681	 18	 -1.550645	 -0.271355	 2.149041	 1.918195	 -0.915021	 -0.625594	 -0.015337	 0.776894	 -0.502612	 0.378922	 2
1463630417.691	 18	 -1.211527	 -0.112501	 1.898178	 1.923472	 -0.892235	 -0.616827	 -0.010595	 0.779929	 -0.493847	 0.384334	 2
1463630417.701	 18	 -0.972877	 0.149533	 1.754661	 1.928428	 -0.871949	 -0.611455	 -0.005412	 0.782670	 -0.486400	 0.388347	 2
1463630417.711	 18	 -0.838446	 0.416752	 1.697360	 1.934357	 -0.852925	 -0.608228	 0.000426	 0.785465	 -0.479678	 0.391093	 2
1463630417.721	 18	 -0.762519	 0.671832	 1.702270	 1.941765	 -0.834279	 -0.606465	 0.007033	 0.788482	 -0.473274	 0.392756	 2
1463630417.730	 18	 -0.697531	 0.867409	 1.710984	 1.950419	 -0.815749	 -0.605891	 0.014316	 0.791691	 -0.467043	 0.393562	 2
1463630417.740	 18	 -0.604397	 0.979439	 1.650467	 1.959547	 -0.797901	 -0.606514	 0.021928	 0.794884	 -0.461173	 0.393697	 2
1463630417.751	 18	 -0.454142	 1.022898	 1.544053	 1.968251	 -0.781500	 -0.608553	 0.029532	 0.797816	 -0.455979	 0.393319	 2
1463630417.761	 18	 -0.236663	 1.086179	 1.411660	 1.976057	 -0.767027	 -0.612648	 0.037152	 0.800343	 -0.451777	 0.392388	 2
1463630417.771	 18	 0.031051	 1.210617	 1.226110	 1.983331	 -0.755162	 -0.619176	 0.044844	 0.802472	 -0.448885	 0.390552	 2
1463630417.781	 18	 0.279136	 1.273189	 1.008182	 1.990106	 -0.746343	 -0.627799	 0.052373	 0.804183	 -0.447397	 0.387793	 2
1463630417.791	 18	 0.420049	 1.236126	 0.794524	 1.996070	 -0.740212	 -0.637382	 0.059328	 0.805472	 -0.446990	 0.384570	 2
1463630417.800	 18	 0.470511	 1.244085	 0.592729	 2.002209	 -0.736287	 -0.646662	 0.065568	 0.806610	 -0.447234	 0.380871	 2
1463630417.811	 18	 0.476184	 1.262778	 0.386096	 2.009218	 -0.734311	 -0.654987	 0.071061	 0.807778	 -0.447896	 0.376608	 2
1463630417.821	 18	 0.494650	 1.288792	 0.167696	 2.017190	 -0.734388	 -0.662191	 0.075739	 0.809001	 -0.448977	 0.371754	 2
1463630417.841	 19	 0.673187	 1.255449	 -0.250882	 2.034050	 -0.741352	 -0.675445	 0.082936	 0.811119	 -0.453119	 0.360404	 2
1463630417.851	 19	 0.797483	 1.092898	 -0.468761	 2.040884	 -0.748480	 -0.682213	 0.085226	 0.811594	 -0.456480	 0.354510	 2
1463630417.861	 19	 0.937032	 0.821373	 -0.747469	 2.045154	 -0.758558	 -0.689026	 0.086135	 0.811387	 -0.460934	 0.348960	 2
1463630417.871	 19	 1.169422	 0.355717	 -1.065028	 2.044970	 -0.772335	 -0.696363	 0.085188	 0.810106	 -0.466887	 0.344220	 2
1463630417.881	 19	 1.606243	 -0.461304	 -1.351401	 2.035231	 -0.790532	 -0.706860	 0.081988	 0.806738	 -0.475203	 0.341518	 2
1463630417.891	 19	 1.970887	 -1.483913	 -1.563389	 2.012265	 -0.812438	 -0.721809	 0.076200	 0.800697	 -0.485885	 0.342042	 2
1463630417.901	 19	 1.838407	 -2.291911	 -1.715763	 1.979631	 -0.835679	 -0.737295	 0.067563	 0.792935	 -0.497181	 0.345689	 2
1463630417.911	 19	 0.942461	 -1.998611	 -1.673260	 1.952661	 -0.856041	 -0.744258	 0.057494	 0.786650	 -0.505598	 0.349638	 2
1463630417.921	 19	 -0.634005	 0.674168	 -1.147610	 1.959599	 -0.867565	 -0.733659	 0.051631	 0.787342	 -0.507127	 0.346770	 2
1463630417.931	 19	 -1.296372	 1.636177	 -0.319714	 1.991506	 -0.867352	 -0.712912	 0.051551	 0.793367	 -0.502678	 0.339449	 2
1463630417.941	 19	 -0.724286	 0.645882	 0.340717	 2.009574	 -0.861957	 -0.701347	 0.053045	 0.797157	 -0.498529	 0.336446	 2
1463630417.951	 19	 0.018741	 -0.160026	 0.829788	 2.007653	 -0.854691	 -0.703959	 0.055711	 0.797350	 -0.496683	 0.338283	 2
1463630417.961	 19	 0.420406	 -0.603002	 0.921285	 1.994705	 -0.847765	 -0.714585	 0.058742	 0.795380	 -0.496640	 0.342446	 2
1463630417.971	 19	 0.421678	 -1.071370	 0.722947	 1.977050	 -0.842363	 -0.725422	 0.060243	 0.792404	 -0.497318	 0.348054	 2
1463630417.981	 19	 0.247861	 -1.358155	 0.559795	 1.958447	 -0.838098	 -0.732917	 0.059844	 0.789203	 -0.497850	 0.354573	 2
1463630417.991	 19	 0.080157	 -1.395915	 0.565167	 1.940928	 -0.833361	 -0.737631	 0.058760	 0.786233	 -0.497736	 0.361447	 2
1463630418.001	 19	 0.078282	 -1.189984	 0.654492	 1.925290	 -0.827730	 -0.741824	 0.058218	 0.783601	 -0.497214	 0.367910	 2
1463630418.011	 19	 0.268571	 -0.753718	 0.757077	 1.911653	 -0.821523	 -0.748426	 0.059303	 0.781235	 -0.496930	 0.373116	 2
1463630418.021	 19	 0.470180	 -0.130718	 0.800552	 1.901566	 -0.815549	 -0.758260	 0.062464	 0.779364	 -0.497254	 0.376070	 2
1463630418.031	 19	 0.383868	 0.385956	 1.025658	 1.896808	 -0.807869	 -0.768484	 0.067628	 0.778515	 -0.497001	 0.377269	 2
1463630418.041	 19	 0.196160	 0.569851	 1.374311	 1.895836	 -0.796438	 -0.777697	 0.074499	 0.778526	 -0.495306	 0.378178	 2
1463630418.051	 19	 -0.031338	 0.223412	 1.470052	 1.894099	 -0.782531	 -0.784805	 0.081128	 0.778501	 -0.492497	 0.380527	 2
1463630418.061	 19	 -0.251754	 0.007178	 1.043654	 1.892491	 -0.770752	 -0.787376	 0.085370	 0.778538	 -0.489469	 0.383420	 2
1463630418.071	 19	 -0.234867	 0.189388	 0.510190	 1.894506	 -0.763895	 -0.786664	 0.087700	 0.779205	 -0.487149	 0.384491	 2
1463630418.081	 19	 0.252690	 -0.036556	 0.204363	 1.893054	 -0.761732	 -0.789266	 0.089027	 0.778888	 -0.487052	 0.384952	 2
1463630418.091	 19	 0.439136	 0.529314	 -0.009410	 1.891746	 -0.762688	 -0.795365	 0.090787	 0.778329	 -0.488575	 0.383739	 2
1463630418.111	 20	 -0.523744	 2.165208	 -0.682812	 1.934873	 -0.769578	 -0.786742	 0.095828	 0.786568	 -0.487068	 0.367278	 2
1463630418.121	 20	 -0.831167	 1.432722	 -0.906499	 1.961447	 -0.774756	 -0.772442	 0.095089	 0.791842	 -0.484830	 0.359006	 2
1463630418.141	 21	 -0.669750	 -0.954849	 -0.955699	 1.983942	 -0.786083	 -0.739863	 0.084236	 0.796716	 -0.481625	 0.355226	 2
1463630418.151	 21	 -0.091889	 -2.075662	 -0.836874	 1.971608	 -0.793028	 -0.731690	 0.075966	 0.794429	 -0.482891	 0.360455	 2
1463630418.161	 21	 0.659801	 -2.679787	 -0.825594	 1.944589	 -0.802364	 -0.733474	 0.067340	 0.788896	 -0.487155	 0.368495	 2
1463630418.171	 21	 1.364515	 -2.551451	 -0.883824	 1.909762	 -0.814674	 -0.745345	 0.059725	 0.781346	 -0.494307	 0.376287	 2
1463630418.181	 21	 1.935583	 -2.048121	 -0.912888	 1.872664	 -0.828944	 -0.766267	 0.054189	 0.772982	 -0.503644	 0.381975	 2
1463630418.191	 21	 2.342660	 -1.686911	 -0.952504	 1.833979	 -0.844243	 -0.794671	 0.050429	 0.764112	 -0.514568	 0.385758	 2
1463630418.201	 21	 2.411060	 -1.577259	 -1.057590	 1.794026	 -0.860038	 -0.826597	 0.047073	 0.754983	 -0.526136	 0.388543	 2
1463630418.211	 21	 2.111289	 -1.634021	 -1.232425	 1.755268	 -0.876118	 -0.856271	 0.042632	 0.746252	 -0.537079	 0.390943	 2
1463630418.221	 21	 1.663931	 -1.751032	 -1.415061	 1.719425	 -0.892579	 -0.880346	 0.036366	 0.738330	 -0.546704	 0.393270	 2
1463630418.231	 21	 1.232822	 -1.834963	 -1.576216	 1.687102	 -0.909588	 -0.898422	 0.028353	 0.731318	 -0.554942	 0.395487	 2
1463630418.241	 21	 0.897058	 -1.862619	 -1.712099	 1.658052	 -0.927260	 -0.911541	 0.018973	 0.725110	 -0.562026	 0.397470	 2
1463630418.251	 21	 0.763659	 -1.765220	 -1.828331	 1.631309	 -0.945940	 -0.922482	 0.008912	 0.719451	 -0.568597	 0.398760	 2
1463630418.261	 21	 0.797828	 -1.548231	 -1.812754	 1.605379	 -0.964434	 -0.934500	 -0.000640	 0.714039	 -0.575049	 0.399332	 2
1463630418.271	 21	 0.944387	 -1.222344	 -1.841905	 1.579597	 -0.982973	 -0.949861	 -0.009146	 0.708771	 -0.581892	 0.398699	 2
1463630418.281	 21	 1.112383	 -0.901623	 -1.841449	 1.553291	 -1.001349	 -0.969592	 -0.016386	 0.703571	 -0.589275	 0.396829	 2
1463630418.291	 21	 1.264010	 -0.696479	 -1.797134	 1.525478	 -1.019060	 -0.993735	 -0.022488	 0.698299	 -0.597086	 0.394160	 2
1463630418.301	 21	 1.382908	 -0.674935	 -1.711642	 1.494600	 -1.035556	 -1.021953	 -0.027878	 0.692683	 -0.605125	 0.391454	 2
1463630418.311	 21	 1.435827	 -0.669732	 -1.559650	 1.461087	 -1.050142	 -1.053045	 -0.032635	 0.686806	 -0.613054	 0.389099	 2
1463630418.321	 21	 1.449754	 -0.755089	 -1.444397	 1.425057	 -1.062886	 -1.086045	 -0.037103	 0.680668	 -0.620730	 0.387310	 2
1463630418.331	 21	 1.422980	 -0.870123	 -1.331198	 1.386858	 -1.073966	 -1.120014	 -0.041576	 0.674301	 -0.628046	 0.386196	 2
1463630418.341	 21	 1.400091	 -0.914330	 -1.129981	 1.347679	 -1.082723	 -1.154142	 -0.045714	 0.667855	 -0.634841	 0.385820	 2
1463630418.351	 21	 1.410438	 -0.899304	 -0.960475	 1.308219	 -1.089023	 -1.188582	 -0.049183	 0.661396	 -0.641227	 0.385959	 2
1463630418.361	 21	 1.406973	 -1.034748	 -0.865787	 1.267544	 -1.093586	 -1.223297	 -0.052551	 0.654720	 -0.647326	 0.386716	 2
1463630418.371	 21	 1.339482	 -1.345926	 -0.829727	 1.224716	 -1.097166	 -1.257298	 -0.056730	 0.647627	 -0.653032	 0.388472	 2
1463630418.381	 21	 1.151983	 -1.695595	 -0.869716	 1.180477	 -1.100801	 -1.288887	 -0.062408	 0.640272	 -0.658112	 0.391210	 2
1463630418.391	 21	 0.824465	 -1.859833	 -0.916352	 1.138365	 -1.105477	 -1.315495	 -0.069568	 0.633355	 -0.662195	 0.394360	 2
1463630418.401	 21	 0.506683	 -1.796263	 -0.932177	 1.101552	 -1.111312	 -1.336263	 -0.077397	 0.627483	 -0.665191	 0.397235	 2
1463630418.411	 21	 0.353688	 -1.627975	 -0.961252	 1.068928	 -1.117957	 -1.353969	 -0.085188	 0.622499	 -0.667593	 0.399446	 2
1463630418.421	 21	 0.380065	 -1.419983	 -1.016032	 1.037356	 -1.124849	 -1.372659	 -0.092490	 0.617887	 -0.670071	 0.400832	 2
1463630418.431	 21	 0.480246	 -1.181318	 -1.064774	 1.005145	 -1.131457	 -1.394565	 -0.098990	 0.613365	 -0.672990	 0.401334	 2
1463630418.441	 21	 0.528264	 -0.933833	 -1.091665	 0.973031	 -1.137665	 -1.419003	 -0.104623	 0.609054	 -0.676255	 0.400981	 2
1463630418.451	 21	 0.504666	 -0.728526	 -1.097009	 0.942372	 -1.143669	 -1.444224	 -0.109542	 0.605174	 -0.679598	 0.399889	 2
1463630418.461	 21	 0.440867	 -0.684685	 -1.090717	 0.912910	 -1.149662	 -1.469073	 -0.114244	 0.601640	 -0.682783	 0.398480	 2
1463630418.471	 21	 0.342003	 -0.829050	 -1.091200	 0.883284	 -1.155886	 -1.492915	 -0.119459	 0.598181	 -0.685601	 0.397318	 2
1463630418.481	 21	 0.198017	 -1.030773	 -1.099283	 0.853062	 -1.162726	 -1.515161	 -0.125637	 0.594743	 -0.687882	 0.396629	 2
1463630418.491	 21	 0.035577	 -1.095039	 -1.080349	 0.823802	 -1.170316	 -1.535112	 -0.132475	 0.591614	 -0.689562	 0.396165	 2
1463630418.501	 21	 -0.063993	 -0.999547	 -1.006122	 0.797389	 -1.178074	 -1.552601	 -0.139146	 0.589036	 -0.690765	 0.395623	 2
1463630418.511	 21	 -0.071910	 -0.938291	 -0.922353	 0.772974	 -1.185273	 -1.568778	 -0.145332	 0.586759	 -0.691736	 0.395087	 2
1463630418.521	 21	 -0.071201	 -1.080246	 -0.843748	 0.748244	 -1.191717	 -1.584328	 -0.151560	 0.584313	 -0.692483	 0.395062	 2
1463630418.531	 21	 -0.219445	 -1.380004	 -0.732276	 0.723773	 -1.198115	 -1.596658	 -0.158629	 0.581738	 -0.692492	 0.396072	 2
1463630418.541	 21	 -0.543464	 -1.691342	 -0.528791	 0.703868	 -1.205368	 -1.600696	 -0.166809	 0.579623	 -0.691026	 0.398366	 2
1463630418.551	 21	 -0.953835	 -2.030739	 -0.269396	 0.692039	 -1.214048	 -1.592575	 -0.176182	 0.578373	 -0.687577	 0.402097	 2
1463630418.561	 21	 -1.389007	 -2.249432	 0.051021	 0.691409	 -1.224117	 -1.569662	 -0.186450	 0.578242	 -0.681941	 0.407222	 2
1463630418.571	 21	 -1.813326	 -2.044264	 0.450956	 0.708662	 -1.234973	 -1.528839	 -0.196149	 0.580021	 -0.674251	 0.412901	 2
1463630418.581	 21	 -2.125189	 -1.510916	 0.830586	 0.748130	 -1.245413	 -1.469625	 -0.203811	 0.584215	 -0.665070	 0.418134	 2
1463630418.591	 21	 -2.318720	 -0.926468	 1.118005	 0.807940	 -1.254254	 -1.395288	 -0.209051	 0.590552	 -0.655074	 0.422404	 2
1463630418.601	 21	 -2.460207	 -0.331025	 1.329404	 0.885496	 -1.260750	 -1.308767	 -0.211936	 0.598776	 -0.644644	 0.425423	 2
1463630418.611	 21	 -2.573687	 0.180625	 1.437466	 0.976877	 -1.264575	 -1.213498	 -0.212893	 0.608545	 -0.634003	 0.427072	 2
1463630418.621	 21	 -2.728725	 0.574574	 1.431824	 1.078260	 -1.266172	 -1.112242	 -0.212713	 0.619548	 -0.623193	 0.427251	 2
1463630418.631	 21	 -2.766456	 1.169269	 1.435555	 1.187216	 -1.265020	 -1.008411	 -0.211103	 0.631748	 -0.612519	 0.425618	 2
1463630418.641	 21	 -2.381819	 2.284825	 1.567281	 1.296874	 -1.258700	 -0.914079	 -0.205541	 0.645153	 -0.603342	 0.421318	 2
1463630418.651	 21	 -1.603464	 3.508601	 1.821280	 1.394509	 -1.245720	 -0.845189	 -0.193971	 0.659067	 -0.596998	 0.414246	 2
1463630418.661	 21	 -0.772489	 4.220678	 2.228858	 1.471367	 -1.226108	 -0.807054	 -0.176774	 0.672295	 -0.593211	 0.406044	 2
1463630418.671	 21	 -0.182814	 4.372597	 2.735637	 1.528154	 -1.200355	 -0.793047	 -0.155638	 0.684149	 -0.590562	 0.398689	 2
1463630418.681	 21	 -0.052612	 3.984176	 3.199825	 1.572108	 -1.169446	 -0.790013	 -0.132962	 0.694678	 -0.587231	 0.393578	 2
1463630418.691	 21	 -0.383818	 3.227664	 3.466372	 1.610986	 -1.135260	 -0.784986	 -0.111543	 0.704297	 -0.581664	 0.391396	 2
1463630418.701	 21	 -0.953046	 2.398127	 3.540344	 1.649147	 -1.099510	 -0.771457	 -0.093085	 0.713515	 -0.573226	 0.391974	 2
1463630418.711	 21	 -1.430334	 1.710975	 3.485883	 1.686237	 -1.063343	 -0.750641	 -0.077794	 0.722451	 -0.562380	 0.394641	 2
1463630418.721	 22	 -1.618974	 1.179974	 3.373877	 1.718716	 -1.027505	 -0.728152	 -0.064956	 0.730668	 -0.550319	 0.398816	 2
1463630418.741	 22	 -1.477893	 0.637572	 2.996716	 1.765045	 -0.959915	 -0.691609	 -0.043727	 0.743941	 -0.526491	 0.409203	 2
1463630418.751	 22	 -1.326577	 0.627407	 2.683036	 1.782063	 -0.930089	 -0.678284	 -0.034597	 0.749318	 -0.515829	 0.413819	 2
1463630418.761	 22	 -1.184540	 0.705384	 2.346810	 1.797534	 -0.903727	 -0.667400	 -0.026252	 0.754222	 -0.506302	 0.417274	 2
1463630418.771	 22	 -1.047576	 0.797561	 2.059785	 1.812208	 -0.880537	 -0.658486	 -0.018533	 0.758795	 -0.497848	 0.419564	 2
1463630418.781	 22	 -0.910668	 0.839021	 1.819182	 1.825942	 -0.860000	 -0.651447	 -0.011305	 0.763024	 -0.490368	 0.420958	 2
1463630418.791	 22	 -0.766131	 0.898672	 1.596800	 1.838762	 -0.841988	 -0.646129	 -0.004543	 0.766906	 -0.483852	 0.421570	 2
1463630418.801	 22	 -0.633398	 0.918172	 1.406120	 1.850675	 -0.826208	 -0.642452	 0.001849	 0.770452	 -0.478242	 0.421527	 2
1463630418.811	 22	 -0.538237	 0.861453	 1.250228	 1.861329	 -0.812297	 -0.639882	 0.007719	 0.773602	 -0.473352	 0.421211	 2
1463630418.821	 22	 -0.477581	 0.844090	 1.227157	 1.870923	 -0.799262	 -0.638223	 0.013370	 0.776458	 -0.468857	 0.420841	 2
1463630418.831	 22	 -0.369555	 0.954765	 1.425479	 1.879945	 -0.784885	 -0.638591	 0.020046	 0.779244	 -0.464297	 0.420482	 2
1463630418.841	 22	 -0.122334	 1.042844	 1.497683	 1.887436	 -0.770138	 -0.642464	 0.027810	 0.781653	 -0.460302	 0.419962	 2
1463630418.851	 22	 0.200472	 1.201019	 1.439859	 1.893509	 -0.756645	 -0.650365	 0.036418	 0.783567	 -0.457516	 0.418779	 2
1463630418.861	 22	 0.475895	 1.332195	 1.306527	 1.899034	 -0.745259	 -0.661611	 0.045561	 0.785101	 -0.456070	 0.416583	 2
1463630418.871	 22	 0.667348	 1.409564	 1.052994	 1.904130	 -0.736627	 -0.674545	 0.054429	 0.786270	 -0.455831	 0.413564	 2
1463630418.881	 22	 0.751578	 1.483166	 0.676732	 1.910254	 -0.731748	 -0.687360	 0.062349	 0.787389	 -0.456708	 0.409328	 2
1463630418.891	 22	 0.762801	 1.439135	 0.329852	 1.917140	 -0.730451	 -0.698831	 0.068836	 0.788473	 -0.458395	 0.404285	 2
1463630418.901	 22	 0.792449	 1.375527	 0.077482	 1.924019	 -0.731862	 -0.709325	 0.074130	 0.789415	 -0.460713	 0.398838	 2
1463630418.911	 22	 0.861926	 1.352498	 -0.136490	 1.930723	 -0.735589	 -0.719555	 0.078597	 0.790184	 -0.463687	 0.392970	 2
1463630418.921	 22	 0.979227	 1.305770	 -0.372414	 1.936884	 -0.741854	 -0.730024	 0.082288	 0.790682	 -0.467501	 0.386645	 2
1463630418.931	 22	 1.116283	 1.183168	 -0.649715	 1.941662	 -0.751152	 -0.740936	 0.084938	 0.790717	 -0.472379	 0.380014	 2
1463630418.941	 22	 1.239136	 1.012557	 -0.952917	 1.944614	 -0.763709	 -0.752044	 0.086267	 0.790212	 -0.478353	 0.373231	 2
1463630418.951	 22	 1.364699	 0.744032	 -1.263448	 1.944975	 -0.779612	 -0.763311	 0.086032	 0.789031	 -0.485452	 0.366556	 2
1463630418.961	 22	 1.486830	 0.177904	 -1.546878	 1.940164	 -0.798686	 -0.774905	 0.083681	 0.786722	 -0.493727	 0.360969	 2
1463630418.971	 22	 1.686381	 -0.585466	 -1.717715	 1.926446	 -0.820237	 -0.788438	 0.079039	 0.782622	 -0.503336	 0.357644	 2
1463630418.981	 22	 1.379092	 -1.035446	 -1.705371	 1.907708	 -0.841554	 -0.800763	 0.072557	 0.777732	 -0.512648	 0.356455	 2
1463630418.991	 22	 0.397577	 -0.305150	 -1.424655	 1.900079	 -0.858092	 -0.802970	 0.066341	 0.775448	 -0.518184	 0.354633	 2
1463630419.011	 23	 -1.118739	 1.802777	 0.140728	 1.952740	 -0.860673	 -0.774590	 0.068044	 0.785407	 -0.512251	 0.340740	 2
1463630419.021	 23	 -0.739298	 0.852110	 0.614566	 1.970615	 -0.852625	 -0.765391	 0.071389	 0.789284	 -0.507597	 0.338053	 2
1463630419.031	 23	 -0.196391	 0.169147	 0.816636	 1.973733	 -0.844180	 -0.765479	 0.074724	 0.790359	 -0.504880	 0.338888	 2
1463630419.041	 23	 0.167103	 -0.393310	 0.843408	 1.966613	 -0.836735	 -0.771682	 0.077594	 0.789380	 -0.503896	 0.341975	 2
1463630419.051	 23	 0.281029	 -1.010482	 0.704518	 1.952263	 -0.830804	 -0.779586	 0.078869	 0.786951	 -0.503987	 0.347110	 2
1463630419.061	 23	 0.191577	 -1.652431	 0.440343	 1.932970	 -0.826871	 -0.785429	 0.077487	 0.783557	 -0.504563	 0.354191	 2
1463630419.071	 23	 0.003875	 -2.117235	 0.217040	 1.911249	 -0.824583	 -0.787471	 0.073501	 0.779704	 -0.505056	 0.362737	 2
1463630419.081	 23	 -0.017863	 -1.971484	 0.213256	 1.890319	 -0.822587	 -0.788067	 0.069062	 0.775938	 -0.505313	 0.371226	 2
1463630419.091	 23	 0.098994	 -1.479802	 0.301009	 1.872751	 -0.820140	 -0.790248	 0.066228	 0.772684	 -0.505590	 0.378091	 2
1463630419.101	 23	 0.064061	 -1.165289	 0.536576	 1.858094	 -0.815924	 -0.793362	 0.065047	 0.769966	 -0.505423	 0.384016	 2
1463630419.111	 23	 0.091425	 -0.651102	 0.904548	 1.847015	 -0.808321	 -0.797532	 0.066253	 0.767982	 -0.504368	 0.389136	 2
1463630419.121	 23	 0.386026	 0.288956	 1.146264	 1.841013	 -0.798562	 -0.806038	 0.071096	 0.766859	 -0.503390	 0.391754	 2
1463630419.131	 23	 0.477271	 0.864189	 0.865198	 1.841168	 -0.790299	 -0.816268	 0.077679	 0.766768	 -0.502982	 0.391206	 2
1463630419.141	 23	 0.502223	 1.114060	 0.131930	 1.846777	 -0.788716	 -0.824197	 0.082634	 0.767588	 -0.503840	 0.387460	 2
1463630419.151	 23	 0.502646	 -0.011228	 -0.305916	 1.845778	 -0.792203	 -0.830513	 0.083701	 0.767032	 -0.506114	 0.385362	 2
1463630419.161	 23	 -0.231624	 -0.908865	 -0.595631	 1.839046	 -0.797322	 -0.828631	 0.079649	 0.765663	 -0.507504	 0.387113	 2
1463630419.171	 23	 -1.324846	 0.799560	 -0.853708	 1.853860	 -0.801986	 -0.810624	 0.075012	 0.769070	 -0.504810	 0.384801	 2
1463630419.181	 23	 -1.254417	 2.778316	 -1.057587	 1.894367	 -0.807670	 -0.787669	 0.074544	 0.777384	 -0.500628	 0.373483	 2
1463630419.191	 24	 -0.751134	 3.110011	 -1.021581	 1.937621	 -0.814607	 -0.770780	 0.076622	 0.785605	 -0.498013	 0.359079	 2
1463630419.211	 24	 -0.216460	 1.098937	 -0.776378	 1.995544	 -0.826444	 -0.748846	 0.078815	 0.795854	 -0.495645	 0.338735	 2
1463630419.221	 24	 0.366495	 -0.568043	 -0.875832	 1.995788	 -0.835073	 -0.746539	 0.075431	 0.795403	 -0.497989	 0.337121	 2
1463630419.231	 24	 0.886537	 -2.044056	 -0.920739	 1.974863	 -0.846473	 -0.751578	 0.068833	 0.790899	 -0.503189	 0.341380	 2
1463630419.241	 24	 1.217488	 -2.652719	 -0.971914	 1.941351	 -0.859679	 -0.762164	 0.060557	 0.783908	 -0.510173	 0.348633	 2
1463630419.251	 24	 1.519755	 -2.779502	 -1.025817	 1.902038	 -0.874111	 -0.777644	 0.052074	 0.775649	 -0.518332	 0.356356	 2
1463630419.261	 24	 2.046498	 -3.186424	 -1.191922	 1.853666	 -0.890695	 -0.800728	 0.043122	 0.765443	 -0.528427	 0.364694	 2
1463630419.271	 24	 2.465858	 -3.857691	 -1.479984	 1.791885	 -0.910324	 -0.832402	 0.032318	 0.752477	 -0.540819	 0.374497	 2
1463630419.281	 24	 2.120857	 -4.263950	 -1.612894	 1.724888	 -0.930207	 -0.864117	 0.019244	 0.738577	 -0.552805	 0.385410	 2
1463630419.291	 24	 1.244185	 -4.393098	 -1.589411	 1.663803	 -0.947928	 -0.885554	 0.004062	 0.725998	 -0.561595	 0.396891	 2
1463630419.301	 24	 0.484315	 -4.236116	 -1.516323	 1.613158	 -0.963720	 -0.894995	 -0.012289	 0.715492	 -0.566947	 0.408034	 2
1463630419.311	 24	 0.223418	 -3.753832	 -1.410447	 1.570963	 -0.978135	 -0.898948	 -0.027942	 0.706587	 -0.570423	 0.417817	 2
1463630419.331	 24	 0.843822	 -2.202876	 -1.277790	 1.497930	 -1.004241	 -0.919382	 -0.051100	 0.691268	 -0.578512	 0.429955	 2
1463630419.321	 24	 0.430931	 -3.037009	 -1.334179	 1.534538	 -0.991791	 -0.904537	 -0.041247	 0.698842	 -0.573762	 0.425106	 2
1463630419.341	 24	 1.265903	 -1.399049	 -1.289972	 1.461646	 -1.015946	 -0.943411	 -0.057628	 0.684094	 -0.584851	 0.432022	 2
1463630419.351	 24	 1.568619	 -0.767352	 -1.326162	 1.425465	 -1.027081	 -0.975165	 -0.061534	 0.677314	 -0.592535	 0.431696	 2
1463630419.371	 25	 1.685237	 -0.192798	 -1.397501	 1.353869	 -1.048076	 -1.050353	 -0.065567	 0.664812	 -0.609569	 0.426792	 2
1463630419.381	 25	 1.530647	 -0.160440	 -1.397985	 1.319644	 -1.058038	 -1.087893	 -0.067341	 0.659170	 -0.617708	 0.423552	 2
1463630419.391	 25	 1.303179	 -0.226501	 -1.359318	 1.287505	 -1.067665	 -1.122325	 -0.069607	 0.654039	 -0.624998	 0.420434	 2
1463630419.401	 25	 1.084139	 -0.345507	 -1.284980	 1.257363	 -1.076809	 -1.153054	 -0.072473	 0.649348	 -0.631323	 0.417763	 2
1463630419.411	 25	 0.938818	 -0.468795	 -1.184680	 1.228480	 -1.085156	 -1.180843	 -0.075755	 0.644919	 -0.636820	 0.415693	 2
1463630419.421	 25	 0.877890	 -0.592174	 -1.062735	 1.199646	 -1.092296	 -1.207018	 -0.079228	 0.640487	 -0.641722	 0.414357	 2
1463630419.431	 25	 0.870462	 -0.694362	 -0.930401	 1.170258	 -1.097945	 -1.232538	 -0.082657	 0.635908	 -0.646222	 0.413747	 2
1463630419.441	 25	 0.847885	 -0.819028	 -0.823723	 1.140306	 -1.102249	 -1.257348	 -0.086114	 0.631155	 -0.650356	 0.413843	 2
1463630419.451	 25	 0.756630	 -0.999016	 -0.746802	 1.110221	 -1.105758	 -1.280397	 -0.089987	 0.626291	 -0.653986	 0.414685	 2
1463630419.461	 25	 0.586151	 -1.207702	 -0.699301	 1.080896	 -1.109177	 -1.300250	 -0.094678	 0.621488	 -0.656900	 0.416258	 2
1463630419.471	 25	 0.388298	 -1.314402	 -0.679387	 1.053524	 -1.113048	 -1.316311	 -0.100150	 0.617009	 -0.659047	 0.418242	 2
1463630419.481	 25	 0.231763	 -1.244787	 -0.676311	 1.029100	 -1.117546	 -1.329323	 -0.105876	 0.613110	 -0.660631	 0.420063	 2
1463630419.491	 25	 0.176637	 -0.973127	 -0.638133	 1.008294	 -1.122129	 -1.340737	 -0.110964	 0.609936	 -0.661989	 0.421230	 2
1463630419.501	 25	 0.227252	 -0.519354	 -0.524577	 0.991896	 -1.125700	 -1.351804	 -0.114351	 0.607575	 -0.663443	 0.421449	 2
1463630419.511	 25	 0.323145	 -0.050120	 -0.314288	 0.980712	 -1.127155	 -1.362395	 -0.115389	 0.606025	 -0.665043	 0.420876	 2
1463630419.521	 25	 0.407189	 0.339860	 -0.037490	 0.975174	 -1.125880	 -1.371291	 -0.114069	 0.605195	 -0.666589	 0.419985	 2
1463630419.531	 25	 0.437234	 0.607570	 0.223720	 0.975049	 -1.122107	 -1.377492	 -0.110845	 0.604987	 -0.667868	 0.419114	 2
1463630419.541	 25	 0.405498	 0.736645	 0.409574	 0.979290	 -1.116714	 -1.380724	 -0.106466	 0.605285	 -0.668752	 0.418409	 2
1463630419.551	 25	 0.289424	 0.676274	 0.544309	 0.986628	 -1.110660	 -1.380379	 -0.101889	 0.605941	 -0.669025	 0.418162	 2
1463630419.561	 25	 0.127824	 0.480835	 0.662197	 0.996070	 -1.104430	 -1.375794	 -0.097828	 0.606808	 -0.668481	 0.418746	 2
1463630419.571	 25	 -0.023490	 0.236158	 0.741170	 1.006539	 -1.098267	 -1.367403	 -0.094607	 0.607740	 -0.667144	 0.420262	 2
1463630419.581	 25	 -0.118410	 -0.021638	 0.793951	 1.016665	 -1.092165	 -1.356503	 -0.092293	 0.608528	 -0.665215	 0.422688	 2
1463630419.591	 25	 -0.138643	 -0.284953	 0.849228	 1.025038	 -1.085783	 -1.344588	 -0.090776	 0.608901	 -0.662931	 0.426055	 2
1463630419.601	 25	 -0.143957	 -0.586311	 0.944520	 1.031110	 -1.078650	 -1.331944	 -0.089968	 0.608687	 -0.660310	 0.430577	 2
1463630419.611	 25	 -0.203063	 -0.818875	 1.117656	 1.036422	 -1.070421	 -1.317163	 -0.089651	 0.608105	 -0.657094	 0.436347	 2
1463630419.621	 25	 -0.307263	 -0.937034	 1.355129	 1.043508	 -1.060664	 -1.298644	 -0.089315	 0.607594	 -0.652989	 0.443235	 2
1463630419.631	 25	 -0.355864	 -1.023526	 1.581754	 1.052212	 -1.049293	 -1.277047	 -0.088781	 0.607170	 -0.648070	 0.451074	 2
1463630419.641	 25	 -0.419261	 -0.910586	 1.876442	 1.063649	 -1.035474	 -1.252756	 -0.087266	 0.607047	 -0.642360	 0.459622	 2
1463630419.651	 25	 -0.698282	 -0.512576	 2.087201	 1.082565	 -1.020499	 -1.223298	 -0.084519	 0.608449	 -0.635463	 0.467796	 2
1463630419.661	 25	 -0.920303	 0.060060	 2.201039	 1.110094	 -1.005148	 -1.189846	 -0.080213	 0.611905	 -0.627638	 0.474562	 2
1463630419.671	 25	 -0.961742	 0.697963	 2.294729	 1.143946	 -0.988774	 -1.155759	 -0.073910	 0.617045	 -0.619442	 0.479671	 2
1463630419.681	 25	 -0.698543	 1.555210	 2.251389	 1.181438	 -0.971071	 -1.126711	 -0.064647	 0.623455	 -0.612025	 0.482234	 2
1463630419.691	 25	 -0.326910	 2.505060	 2.261255	 1.221239	 -0.951596	 -1.105718	 -0.051720	 0.630824	 -0.605950	 0.481881	 2
1463630419.701	 25	 -0.122639	 3.452567	 2.320515	 1.265719	 -0.930282	 -1.090600	 -0.035049	 0.639547	 -0.600615	 0.478553	 2
1463630419.711	 25	 -0.023649	 4.193491	 2.450176	 1.315273	 -0.907260	 -1.078852	 -0.015374	 0.649560	 -0.595235	 0.472790	 2
1463630419.721	 25	 0.133202	 4.718669	 2.626351	 1.367603	 -0.881940	 -1.070806	 0.006917	 0.660163	 -0.589559	 0.465357	 2
1463630419.731	 25	 0.493756	 4.879393	 2.934844	 1.417662	 -0.853252	 -1.068913	 0.031535	 0.669968	 -0.583817	 0.457500	 2
1463630419.741	 25	 0.921587	 4.777603	 3.297860	 1.461387	 -0.820402	 -1.074909	 0.058209	 0.677777	 -0.578253	 0.450392	 2
1463630419.751	 25	 1.125626	 4.574924	 3.591545	 1.499811	 -0.784303	 -1.085916	 0.085975	 0.683743	 -0.572395	 0.444374	 2
1463630419.761	 25	 1.120100	 4.189876	 3.732954	 1.533787	 -0.746683	 -1.098879	 0.113425	 0.688154	 -0.565960	 0.439622	 2
1463630419.771	 25	 0.981979	 3.683636	 3.682552	 1.563535	 -0.709363	 -1.111448	 0.139174	 0.691286	 -0.558948	 0.436270	 2
1463630419.781	 25	 0.854973	 3.254266	 3.383381	 1.589543	 -0.674692	 -1.123166	 0.162414	 0.693499	 -0.551927	 0.433656	 2
1463630419.791	 25	 0.699436	 2.955195	 3.000409	 1.613274	 -0.643990	 -1.133786	 0.183064	 0.695318	 -0.545213	 0.431003	 2
1463630419.801	 25	 0.537369	 2.655912	 2.585520	 1.635483	 -0.617398	 -1.142646	 0.201104	 0.697073	 -0.538783	 0.428204	 2
1463630419.811	 25	 0.495590	 2.133402	 2.090770	 1.653619	 -0.595681	 -1.150693	 0.215986	 0.698276	 -0.533428	 0.425693	 2
1463630419.821	 25	 0.511775	 1.687256	 1.589833	 1.667111	 -0.579047	 -1.158592	 0.227802	 0.698821	 -0.529571	 0.423449	 2
1463630419.831	 25	 0.538174	 1.310731	 1.159794	 1.676911	 -0.567081	 -1.166401	 0.237024	 0.698919	 -0.527145	 0.421248	 2
1463630419.841	 25	 0.546916	 1.095249	 0.929640	 1.684095	 -0.557998	 -1.174078	 0.244543	 0.698679	 -0.525649	 0.419213	 2
1463630419.851	 25	 0.542022	 1.195188	 0.922086	 1.691635	 -0.549581	 -1.181672	 0.251889	 0.698533	 -0.524210	 0.416902	 2
1463630419.861	 25	 0.561611	 1.427638	 1.010406	 1.701265	 -0.540467	 -1.189538	 0.260077	 0.698669	 -0.522334	 0.413992	 2
1463630419.871	 25	 0.638161	 1.513192	 1.105388	 1.711799	 -0.530592	 -1.198324	 0.269035	 0.698732	 -0.520268	 0.410749	 2
1463630419.881	 25	 0.751981	 1.548927	 1.239016	 1.722061	 -0.519768	 -1.208654	 0.278725	 0.698359	 -0.518234	 0.407479	 2
1463630419.891	 25	 0.846948	 1.449508	 1.354498	 1.731121	 -0.507885	 -1.220333	 0.288865	 0.697353	 -0.516293	 0.404595	 2
1463630419.901	 25	 0.944102	 1.217481	 1.371742	 1.737785	 -0.495842	 -1.233280	 0.298834	 0.695555	 -0.514846	 0.402288	 2
1463630419.911	 25	 0.887426	 0.754856	 1.355142	 1.740572	 -0.483973	 -1.246115	 0.307668	 0.692906	 -0.513961	 0.401330	 2
1463630419.921	 25	 0.545046	 0.081825	 1.395556	 1.738665	 -0.471444	 -1.255888	 0.314402	 0.689622	 -0.513011	 0.402979	 2
1463630419.931	 25	 0.119926	 -0.653156	 1.366840	 1.731740	 -0.458174	 -1.260908	 0.318416	 0.685910	 -0.511724	 0.407772	 2
1463630419.941	 25	 -0.254963	 -1.483937	 1.201443	 1.718946	 -0.445609	 -1.261229	 0.319103	 0.681741	 -0.510612	 0.415545	 2
1463630419.951	 25	 -0.502458	 -2.443012	 1.289527	 1.698210	 -0.432717	 -1.258116	 0.316718	 0.676290	 -0.509962	 0.426919	 2
1463630419.961	 25	 -0.630264	 -2.937446	 1.404338	 1.671784	 -0.418220	 -1.253298	 0.312850	 0.669469	 -0.509395	 0.440969	 2
1463630419.971	 25	 -0.720800	 -3.232836	 1.261697	 1.642711	 -0.404524	 -1.246931	 0.307605	 0.662122	 -0.509023	 0.455926	 2
1463630419.981	 25	 -0.767854	 -3.424452	 0.926740	 1.611830	 -0.393964	 -1.239318	 0.300570	 0.654674	 -0.509316	 0.470805	 2
1463630419.991	 25	 -0.709549	 -3.468392	 0.611424	 1.580129	 -0.386941	 -1.231610	 0.292222	 0.647246	 -0.510437	 0.484905	 2
1463630420.001	 25	 -0.592976	 -3.539810	 0.490379	 1.547561	 -0.381967	 -1.224881	 0.283339	 0.639484	 -0.512258	 0.498369	 2
1463630420.011	 25	 -0.575809	 -3.909648	 0.685020	 1.511948	 -0.376003	 -1.218437	 0.274108	 0.630486	 -0.514163	 0.512825	 2
1463630420.021	 25	 -0.592983	 -4.417874	 0.995906	 1.471703	 -0.367314	 -1.211378	 0.264425	 0.619607	 -0.515699	 0.529359	 2
1463630420.031	 25	 -0.709458	 -5.157724	 1.300172	 1.425130	 -0.355955	 -1.202592	 0.253540	 0.606375	 -0.516748	 0.548632	 2
1463630420.041	 25	 -0.829321	 -5.835689	 1.483547	 1.372193	 -0.343073	 -1.191582	 0.240975	 0.590787	 -0.517322	 0.570333	 2
1463630420.051	 25	 -0.987561	 -6.364781	 1.500251	 1.314146	 -0.330528	 -1.178232	 0.226453	 0.573296	 -0.517488	 0.593513	 2
1463630420.061	 25	 -1.317145	 -6.479329	 1.411465	 1.254488	 -0.320233	 -1.161687	 0.210023	 0.555218	 -0.516822	 0.616861	 2
1463630420.071	 25	 -2.024812	 -5.848482	 1.436285	 1.201347	 -0.313064	 -1.138485	 0.192589	 0.539569	 -0.513426	 0.638881	 2
1463630420.081	 25	 -2.563596	 -5.209204	 1.518331	 1.157004	 -0.308605	 -1.108666	 0.174975	 0.527104	 -0.506939	 0.659210	 2
1463630420.091	 25	 -2.727207	 -4.878562	 1.579318	 1.117408	 -0.305766	 -1.076005	 0.157570	 0.516065	 -0.498758	 0.678299	 2
1463630420.101	 25	 -2.646137	 -4.635447	 1.549967	 1.080173	 -0.304010	 -1.043547	 0.140750	 0.505376	 -0.490048	 0.696159	 2
1463630420.111	 25	 -2.377734	 -4.209401	 1.448216	 1.045767	 -0.303093	 -1.013544	 0.125244	 0.495094	 -0.481600	 0.712220	 2
1463630420.121	 25	 -2.058480	 -3.560970	 1.526073	 1.016760	 -0.301334	 -0.986355	 0.112345	 0.485973	 -0.473225	 0.726132	 2
1463630420.131	 25	 -1.749681	 -3.089272	 1.868818	 0.992427	 -0.296153	 -0.960262	 0.102429	 0.477575	 -0.464042	 0.738983	 2
1463630420.141	 25	 -1.517535	 -2.614908	 2.254885	 0.972596	 -0.286877	 -0.934117	 0.095432	 0.469917	 -0.453626	 0.751195	 2
1463630420.151	 25	 -1.382106	 -2.139372	 2.470218	 0.957399	 -0.274941	 -0.907619	 0.090707	 0.463420	 -0.442178	 0.762557	 2
1463630420.161	 25	 -1.234360	 -1.812216	 2.469844	 0.945423	 -0.262150	 -0.881896	 0.087419	 0.457884	 -0.430549	 0.772869	 2
1463630420.171	 25	 -1.008150	 -1.723301	 2.355731	 0.934055	 -0.249190	 -0.858449	 0.085021	 0.452399	 -0.419595	 0.782334	 2
1463630420.181	 25	 -0.781427	 -1.848399	 2.356856	 0.921157	 -0.235453	 -0.837083	 0.083260	 0.446053	 -0.409255	 0.791590	 2
1463630420.191	 25	 -0.572347	 -2.042140	 2.565320	 0.905914	 -0.219465	 -0.816329	 0.082281	 0.438345	 -0.398740	 0.801305	 2
1463630420.201	 25	 -0.392530	 -2.234671	 2.928585	 0.888503	 -0.200044	 -0.794807	 0.082369	 0.429203	 -0.387283	 0.811796	 2
1463630420.211	 25	 -0.242076	 -2.329163	 3.305807	 0.869694	 -0.177066	 -0.771718	 0.083634	 0.418949	 -0.374502	 0.822943	 2
1463630420.221	 25	 -0.067250	 -2.388189	 3.596820	 0.850012	 -0.151089	 -0.747555	 0.086115	 0.407868	 -0.360673	 0.834352	 2
1463630420.231	 25	 0.118215	 -2.358725	 3.774527	 0.829582	 -0.122770	 -0.722874	 0.089723	 0.396104	 -0.346148	 0.845714	 2
1463630420.241	 25	 0.302492	 -2.237739	 3.812416	 0.809530	 -0.093182	 -0.698643	 0.094412	 0.384270	 -0.331496	 0.856466	 2
1463630420.251	 25	 0.480060	 -2.187937	 3.858227	 0.789473	 -0.062616	 -0.674901	 0.099994	 0.372265	 -0.316831	 0.866624	 2
1463630420.261	 25	 0.750902	 -2.285087	 3.917845	 0.768041	 -0.030368	 -0.651814	 0.106601	 0.359396	 -0.302204	 0.876438	 2
1463630420.271	 25	 1.062130	 -2.603944	 3.928169	 0.743333	 0.003749	 -0.630047	 0.114184	 0.344755	 -0.288036	 0.886082	 2
1463630420.281	 25	 1.292581	 -3.082065	 3.944095	 0.713087	 0.039221	 -0.608791	 0.122123	 0.327420	 -0.274283	 0.895908	 2
1463630420.291	 25	 1.537158	 -3.383669	 3.813399	 0.678783	 0.075282	 -0.588696	 0.130474	 0.308075	 -0.261384	 0.905398	 2
1463630420.301	 25	 1.709697	 -3.522762	 3.623028	 0.642039	 0.111006	 -0.569861	 0.139076	 0.287549	 -0.249522	 0.914173	 2
1463630420.311	 25	 1.828259	 -3.521690	 3.379012	 0.604488	 0.145738	 -0.552273	 0.147811	 0.266677	 -0.238741	 0.921975	 2
1463630420.321	 25	 1.910873	 -3.388091	 3.061939	 0.567614	 0.178900	 -0.536324	 0.156588	 0.246203	 -0.229224	 0.928612	 2
1463630420.331	 25	 1.956629	 -3.104806	 2.691160	 0.533152	 0.210066	 -0.522518	 0.165373	 0.226965	 -0.221119	 0.933940	 2
1463630420.341	 25	 1.952488	 -2.813523	 2.376309	 0.501670	 0.239180	 -0.510617	 0.174062	 0.209265	 -0.214240	 0.938089	 2
1463630420.351	 25	 1.863080	 -2.592446	 2.172387	 0.472463	 0.266258	 -0.499550	 0.182385	 0.192872	 -0.208093	 0.941400	 2
1463630420.361	 25	 1.670447	 -2.425374	 2.106344	 0.444604	 0.291077	 -0.487759	 0.189946	 0.177532	 -0.202009	 0.944243	 2
1463630420.371	 25	 1.431736	 -2.348144	 2.099549	 0.416980	 0.313401	 -0.474294	 0.196438	 0.162856	 -0.195629	 0.946900	 2
1463630420.381	 25	 1.217101	 -2.360412	 2.081054	 0.388669	 0.333246	 -0.459296	 0.201810	 0.148396	 -0.189069	 0.949476	 2
1463630420.391	 25	 1.078120	 -2.358348	 2.016207	 0.359742	 0.350994	 -0.443468	 0.206315	 0.134064	 -0.182579	 0.951907	 2
1463630420.401	 25	 1.037236	 -2.309270	 1.874207	 0.331071	 0.367273	 -0.428002	 0.210408	 0.120064	 -0.176543	 0.954016	 2
1463630420.411	 25	 1.080667	 -2.210860	 1.675447	 0.303546	 0.382781	 -0.413943	 0.214527	 0.106621	 -0.171279	 0.955654	 2
1463630420.421	 25	 1.191333	 -2.105261	 1.468708	 0.277617	 0.398248	 -0.401790	 0.219033	 0.093809	 -0.166903	 0.956749	 2
1463630420.431	 25	 1.350026	 -1.997685	 1.260504	 0.253382	 0.414324	 -0.391738	 0.224198	 0.081577	 -0.163440	 0.957271	 2
1463630420.441	 25	 1.507895	 -1.839052	 1.052773	 0.231749	 0.429842	 -0.384025	 0.229503	 0.070453	 -0.160990	 0.957312	 2
1463630420.451	 25	 1.628590	 -1.666277	 0.873216	 0.212135	 0.447478	 -0.378044	 0.236097	 0.059935	 -0.159114	 0.956739	 2
1463630420.461	 25	 1.696867	 -1.550521	 0.729820	 0.194377	 0.465511	 -0.373497	 0.243110	 0.050154	 -0.157813	 0.955760	 2
1463630420.481	 26	 1.627965	 -1.305888	 0.555780	 0.163013	 0.500630	 -0.366811	 0.257132	 0.032529	 -0.156279	 0.953101	 2
1463630420.491	 26	 1.519169	 -1.092633	 0.585356	 0.149727	 0.516784	 -0.363093	 0.263679	 0.025116	 -0.155270	 0.951701	 2
1463630420.501	 26	 1.445585	 -0.935378	 0.680181	 0.137499	 0.532175	 -0.358016	 0.269947	 0.018509	 -0.153606	 0.950364	 2
1463630420.511	 26	 1.391773	 -0.875055	 0.763275	 0.125327	 0.547087	 -0.351557	 0.276004	 0.012217	 -0.151386	 0.949081	 2
1463630420.521	 26	 1.311945	 -0.866005	 0.805619	 0.112754	 0.561280	 -0.344111	 0.281717	 0.005999	 -0.148872	 0.947859	 2
1463630420.531	 26	 1.194508	 -0.867858	 0.795966	 0.099819	 0.574314	 -0.336195	 0.286892	 -0.000155	 -0.146326	 0.946722	 2
1463630420.541	 26	 1.064039	 -0.871138	 0.730995	 0.086905	 0.585925	 -0.328486	 0.291435	 -0.006146	 -0.144015	 0.945668	 2
1463630420.551	 26	 0.938676	 -0.895939	 0.633805	 0.074138	 0.596110	 -0.321514	 0.295347	 -0.012003	 -0.142160	 0.944678	 2
1463630420.561	 26	 0.846367	 -0.917726	 0.525698	 0.061617	 0.605131	 -0.315544	 0.298750	 -0.017755	 -0.140846	 0.943714	 2
1463630420.571	 26	 0.812989	 -0.899183	 0.429177	 0.049719	 0.613537	 -0.310590	 0.301918	 -0.023282	 -0.139989	 0.942712	 2
1463630420.581	 26	 0.848358	 -0.826251	 0.380523	 0.038761	 0.622064	 -0.306290	 0.305217	 -0.028443	 -0.139339	 0.941604	 2
1463630420.591	 26	 0.910888	 -0.732486	 0.428810	 0.028462	 0.631141	 -0.301608	 0.308838	 -0.033247	 -0.138433	 0.940399	 2
1463630420.601	 26	 0.970478	 -0.659329	 0.567521	 0.017970	 0.640822	 -0.295315	 0.312772	 -0.037900	 -0.136829	 0.939157	 2
1463630420.611	 26	 1.002055	 -0.664607	 0.732390	 0.006273	 0.650869	 -0.286804	 0.316862	 -0.042750	 -0.134417	 0.937925	 2
1463630420.621	 26	 0.975350	 -0.773188	 0.855241	 -0.007512	 0.660733	 -0.276349	 0.320807	 -0.048199	 -0.131493	 0.936734	 2
1463630420.631	 26	 0.865823	 -0.956522	 0.903514	 -0.023728	 0.669577	 -0.264773	 0.324192	 -0.054475	 -0.128526	 0.935635	 2
1463630420.641	 26	 0.702375	 -1.161810	 0.835883	 -0.041873	 0.676746	 -0.253465	 0.326722	 -0.061537	 -0.126094	 0.934648	 2
1463630420.651	 26	 0.510687	 -1.395327	 0.677647	 -0.061273	 0.681921	 -0.243806	 0.328245	 -0.069298	 -0.124714	 0.933756	 2
1463630420.661	 26	 0.367702	 -1.625471	 0.417770	 -0.081138	 0.685565	 -0.237186	 0.328954	 -0.077664	 -0.124877	 0.932825	 2
1463630420.671	 26	 0.282692	 -1.753922	 0.124230	 -0.100296	 0.688384	 -0.234294	 0.329187	 -0.086253	 -0.126684	 0.931744	 2
1463630420.681	 26	 0.259385	 -1.725956	 -0.135353	 -0.117313	 0.691064	 -0.234896	 0.329322	 -0.094398	 -0.129781	 0.930480	 2
1463630420.691	 26	 0.298030	 -1.552719	 -0.284350	 -0.131560	 0.694193	 -0.237716	 0.329709	 -0.101626	 -0.133468	 0.929059	 2
1463630420.701	 26	 0.412548	 -1.212023	 -0.337596	 -0.142339	 0.698413	 -0.241285	 0.330764	 -0.107406	 -0.136954	 0.927525	 2
1463630420.721	 27	 0.691249	 -0.378057	 -0.211831	 -0.152746	 0.710907	 -0.246196	 0.335592	 -0.113595	 -0.141128	 0.924422	 2
1463630420.731	 27	 0.794248	 -0.119179	 -0.112269	 -0.154339	 0.718737	 -0.246412	 0.339110	 -0.114713	 -0.141608	 0.922926	 2
1463630420.741	 27	 0.838785	 -0.020873	 -0.031810	 -0.155369	 0.727027	 -0.245382	 0.342946	 -0.115373	 -0.141427	 0.921453	 2
1463630420.751	 27	 0.807785	 -0.068329	 0.011715	 -0.157050	 0.735125	 -0.243604	 0.346686	 -0.116188	 -0.141015	 0.920013	 2
1463630420.761	 28	 0.705557	 -0.197162	 -0.048277	 -0.159498	 0.742435	 -0.242388	 0.349970	 -0.117410	 -0.140991	 0.918617	 2
1463630420.781	 28	 0.312267	 -0.423422	 -0.460474	 -0.162997	 0.752632	 -0.247666	 0.354121	 -0.120374	 -0.144181	 0.916144	 2
1463630420.791	 28	 0.044652	 -0.387226	 -0.710392	 -0.161158	 0.754827	 -0.256279	 0.354748	 -0.121153	 -0.147829	 0.915217	 2
1463630420.801	 28	 -0.259259	 -0.263594	 -0.798251	 -0.156540	 0.754260	 -0.267341	 0.354163	 -0.120975	 -0.152065	 0.914773	 2
1463630420.811	 28	 -0.505725	 -0.063653	 -0.753746	 -0.149966	 0.750991	 -0.278717	 0.352477	 -0.119817	 -0.156073	 0.914902	 2
1463630420.821	 28	 -0.640743	 0.178980	 -0.643736	 -0.141732	 0.745888	 -0.289033	 0.350159	 -0.117593	 -0.159308	 0.915523	 2
1463630420.841	 29	 -0.485402	 0.304931	 -0.373213	 -0.125503	 0.735533	 -0.303877	 0.345834	 -0.112153	 -0.163242	 0.917155	 2
1463630420.851	 29	 -0.275293	 0.215822	 -0.273738	 -0.076316	 0.722632	 -0.337505	 0.342237	 -0.094508	 -0.170288	 0.919209	 2
1463630420.861	 29	 -0.051326	 0.127391	 -0.204039	 -0.072812	 0.721715	 -0.340541	 0.341970	 -0.093350	 -0.171096	 0.919276	 2
1463630420.871	 29	 0.194768	 0.008857	 -0.169983	 -0.070939	 0.723157	 -0.342748	 0.342693	 -0.092973	 -0.171770	 0.918919	 2
1463630420.881	 29	 0.432107	 -0.116375	 -0.182807	 -0.070501	 0.727028	 -0.344734	 0.344424	 -0.093398	 -0.172553	 0.918082	 2
1463630420.901	 30	 0.694760	 0.150763	 -0.199660	 -0.069361	 0.739920	 -0.349104	 0.350255	 -0.094593	 -0.174166	 0.915445	 2
1463630420.911	 31	 0.445969	 0.759164	 -0.151334	 -0.061960	 0.745245	 -0.350906	 0.353262	 -0.091924	 -0.173601	 0.914669	 2
1463630420.931	 31	 -0.459732	 1.322881	 0.069621	 -0.038236	 0.743360	 -0.351101	 0.354423	 -0.080956	 -0.169531	 0.916018	 2
1463630420.941	 31	 -0.877201	 1.222497	 0.138399	 -0.026426	 0.735528	 -0.349815	 0.351868	 -0.074700	 -0.167045	 0.917990	 2
1463630420.951	 31	 -1.170017	 0.834724	 0.227930	 -0.018593	 0.724432	 -0.347394	 0.347498	 -0.069800	 -0.164848	 0.920434	 2
