% Gyrometer data recorded with 'snsrlog'
% 
% 
% Label description:
% 	 0: Default Label
% 	 1: still_drop
% 	 2: walk_drop
% 	 3: other
% 	 4: dtw_same
% 	 5: dtw_diff
% 	 6: delete
% 	 7: steal
% 
% Column description:
% 	 1: Seconds.milliseconds since 1970
% 	 2: Number of skipped measurements
% 	 3: Gyro X
% 	 4: Gyro Y
% 	 5: Gyro Z
% 	 6: Roll of the device
% 	 7: Pitch of the device
% 	 8: Yaw of the device
% 	 9: Quaternion X
% 	 10: Quaternion Y
% 	 11: Quaternion Z
% 	 12: Quaternion W
% 	 13: Label used for the current sample
% 
% 
1463623587.678	 0	 -1.257499	 4.260995	 -0.064319	 0.276167	 0.451136	 0.099865	 0.214559	 0.145048	 0.078932	 0.962650	 1
1463623587.688	 0	 -1.198090	 4.439446	 -0.365852	 0.319889	 0.438642	 0.100725	 0.206692	 0.166064	 0.083115	 0.960621	 1
1463623587.698	 0	 -1.085461	 4.320293	 -0.617330	 0.364287	 0.426256	 0.099066	 0.198998	 0.187122	 0.085859	 0.958130	 1
1463623587.708	 0	 -0.939035	 3.855753	 -0.815830	 0.405751	 0.414301	 0.095280	 0.191835	 0.206549	 0.087041	 0.955490	 1
1463623587.718	 1	 -0.786620	 3.054232	 -0.986612	 0.440645	 0.402919	 0.089565	 0.185481	 0.222651	 0.086489	 0.953175	 1
1463623587.738	 1	 -0.580750	 2.287529	 -1.174587	 0.495244	 0.381613	 0.074326	 0.174798	 0.247316	 0.081818	 0.949519	 1
1463623587.748	 1	 -0.649068	 2.147617	 -1.281870	 0.520202	 0.370041	 0.065832	 0.169363	 0.258503	 0.078547	 0.947799	 1
1463623587.758	 1	 -0.753028	 2.168204	 -1.418257	 0.544799	 0.356751	 0.057042	 0.163269	 0.269540	 0.074747	 0.946099	 1
1463623587.768	 1	 -0.819818	 2.358585	 -1.569727	 0.570999	 0.341806	 0.047755	 0.156515	 0.281351	 0.070460	 0.944129	 1
1463623587.778	 1	 -0.819080	 2.642528	 -1.721627	 0.599969	 0.325652	 0.037737	 0.149338	 0.294467	 0.065681	 0.941633	 1
1463623587.788	 1	 -0.768509	 2.894101	 -1.916893	 0.631834	 0.308495	 0.026478	 0.141956	 0.308906	 0.060163	 0.938513	 1
1463623587.798	 1	 -0.717482	 3.035952	 -2.135564	 0.665660	 0.290135	 0.013723	 0.134405	 0.324217	 0.053646	 0.934848	 1
1463623587.808	 1	 -0.729048	 3.218727	 -2.309613	 0.701027	 0.270197	 0.000159	 0.126471	 0.340261	 0.046323	 0.930635	 1
1463623587.828	 2	 -0.660195	 4.148028	 -2.468890	 0.782673	 0.226989	 -0.026940	 0.109784	 0.377526	 0.030822	 0.918951	 1
1463623587.838	 2	 -0.505284	 4.844391	 -2.447773	 0.832159	 0.205462	 -0.040286	 0.101880	 0.400076	 0.023114	 0.910509	 1
1463623587.848	 2	 -0.271800	 5.659845	 -2.399587	 0.889384	 0.184984	 -0.053742	 0.094856	 0.425946	 0.015566	 0.899628	 1
1463623587.858	 2	 -0.011033	 6.095986	 -2.285894	 0.951929	 0.166078	 -0.067405	 0.089069	 0.453874	 0.008135	 0.886566	 1
1463623587.868	 2	 0.235187	 6.372773	 -2.152242	 1.017024	 0.148855	 -0.081099	 0.084579	 0.482498	 0.000863	 0.871803	 1
1463623587.878	 2	 0.519217	 6.633580	 -2.153354	 1.084965	 0.132477	 -0.095735	 0.081271	 0.511829	 -0.006757	 0.855208	 1
1463623587.888	 2	 0.785791	 6.527125	 -2.351700	 1.152689	 0.115038	 -0.112381	 0.078680	 0.540496	 -0.015732	 0.837512	 1
1463623587.898	 2	 0.922180	 6.355862	 -2.739221	 1.218595	 0.094032	 -0.130640	 0.075773	 0.567924	 -0.026629	 0.819153	 1
1463623587.908	 2	 0.954452	 6.178541	 -3.270836	 1.282312	 0.067291	 -0.149579	 0.071549	 0.594098	 -0.039783	 0.800216	 1
1463623587.918	 2	 0.919757	 6.071491	 -3.819332	 1.344180	 0.034051	 -0.167963	 0.065495	 0.619221	 -0.055068	 0.780540	 1
1463623587.938	 3	 0.859212	 5.846153	 -4.556277	 1.462530	 -0.048604	 -0.199422	 0.048461	 0.666099	 -0.090220	 0.738799	 1
1463623587.948	 3	 0.920726	 5.851608	 -4.659075	 1.520082	 -0.094155	 -0.212099	 0.038927	 0.687932	 -0.108877	 0.716505	 1
1463623587.958	 3	 1.058207	 5.778111	 -4.618326	 1.576795	 -0.140292	 -0.223405	 0.029760	 0.708579	 -0.127790	 0.693325	 1
1463623587.978	 5	 1.515161	 5.234253	 -4.189337	 1.682850	 -0.229293	 -0.245100	 0.014884	 0.744463	 -0.165581	 0.646635	 1
1463623587.998	 5	 1.992715	 3.650823	 -3.517616	 1.761842	 -0.309901	 -0.270358	 0.005378	 0.768369	 -0.202698	 0.607037	 1
1463623588.008	 5	 2.467460	 2.827008	 -3.112702	 1.786684	 -0.345960	 -0.287656	 0.003242	 0.775081	 -0.221227	 0.591859	 1
1463623588.018	 5	 2.741666	 2.043128	 -3.001953	 1.801408	 -0.381386	 -0.308505	 0.001919	 0.778506	 -0.240481	 0.579736	 1
1463623588.028	 5	 2.841933	 1.459957	 -2.857980	 1.808726	 -0.416177	 -0.331070	 0.000763	 0.779606	 -0.259834	 0.569825	 1
1463623588.038	 5	 2.711989	 0.915962	 -2.684994	 1.809753	 -0.449183	 -0.353455	 -0.000667	 0.778848	 -0.278283	 0.562098	 1
1463623588.058	 6	 2.113408	 0.229653	 -2.379229	 1.801238	 -0.508591	 -0.391837	 -0.005606	 0.774414	 -0.310406	 0.551270	 1
1463623588.068	 6	 1.837459	 0.023711	 -2.289218	 1.794276	 -0.535357	 -0.407201	 -0.009198	 0.771507	 -0.324092	 0.547409	 1
1463623588.078	 6	 1.685481	 -0.115838	 -2.233774	 1.786202	 -0.561012	 -0.421071	 -0.013308	 0.768318	 -0.336815	 0.544119	 1
1463623588.088	 6	 1.653219	 -0.218477	 -2.173700	 1.776751	 -0.585887	 -0.434891	 -0.017543	 0.764781	 -0.349086	 0.541240	 1
1463623588.098	 6	 1.681983	 -0.299848	 -2.089447	 1.765685	 -0.609914	 -0.449614	 -0.021582	 0.760858	 -0.361135	 0.538713	 1
1463623588.108	 6	 1.716216	 -0.372556	 -1.981713	 1.752778	 -0.632850	 -0.465636	 -0.025264	 0.756523	 -0.372978	 0.536584	 1
1463623588.118	 6	 1.683600	 -0.382159	 -1.852561	 1.738888	 -0.654374	 -0.482407	 -0.028559	 0.752034	 -0.384373	 0.534684	 1
1463623588.128	 6	 1.604934	 -0.410902	 -1.741305	 1.724539	 -0.674392	 -0.499201	 -0.031610	 0.747534	 -0.395117	 0.532988	 1
1463623588.138	 6	 1.478194	 -0.402690	 -1.686837	 1.710241	 -0.693415	 -0.515288	 -0.034750	 0.743128	 -0.405204	 0.531378	 1
1463623588.148	 6	 1.393356	 -0.362453	 -1.599397	 1.696573	 -0.711373	 -0.530772	 -0.037780	 0.738974	 -0.414665	 0.529663	 1
1463623588.158	 6	 1.306880	 -0.441351	 -1.514117	 1.682457	 -0.728169	 -0.545892	 -0.040786	 0.734793	 -0.423531	 0.528240	 1
1463623588.168	 6	 1.273157	 -0.597426	 -1.489698	 1.666800	 -0.744328	 -0.560913	 -0.044077	 0.730281	 -0.432018	 0.527359	 1
1463623588.178	 6	 1.298019	 -0.817141	 -1.417355	 1.648291	 -0.759839	 -0.576851	 -0.047583	 0.725119	 -0.440359	 0.527278	 1
1463623588.188	 6	 1.381011	 -0.993934	 -1.269451	 1.626715	 -0.773788	 -0.594400	 -0.050821	 0.719309	 -0.448467	 0.528100	 1
1463623588.208	 7	 1.397553	 -1.684417	 -0.850781	 1.570419	 -0.795129	 -0.634488	 -0.056822	 0.704726	 -0.463479	 0.534153	 1
1463623588.218	 7	 1.042715	 -2.029175	 -0.574867	 1.539135	 -0.801383	 -0.651048	 -0.060528	 0.696652	 -0.468651	 0.539794	 1
1463623588.228	 7	 0.503496	 -2.320235	 -0.302177	 1.509771	 -0.804803	 -0.660580	 -0.065352	 0.688905	 -0.471190	 0.546918	 1
1463623588.238	 7	 -0.073426	 -2.500219	 0.018769	 1.484377	 -0.805413	 -0.661626	 -0.071194	 0.681933	 -0.470764	 0.555230	 1
1463623588.248	 7	 -0.547497	 -2.553233	 0.289910	 1.463691	 -0.803532	 -0.654970	 -0.077621	 0.675923	 -0.467669	 0.564260	 1
1463623588.268	 8	 -0.742062	 -2.004576	 0.628161	 1.434477	 -0.795357	 -0.631688	 -0.089187	 0.666693	 -0.457791	 0.581372	 1
1463623588.278	 8	 -0.535040	 -1.463701	 0.789124	 1.425465	 -0.788761	 -0.621819	 -0.092078	 0.663696	 -0.452895	 0.588145	 1
1463623588.288	 8	 -0.262480	 -0.845242	 0.968357	 1.420102	 -0.780178	 -0.615266	 -0.092272	 0.661916	 -0.448625	 0.593371	 1
1463623588.298	 8	 -0.064151	 -0.364730	 1.161873	 1.417968	 -0.769286	 -0.611468	 -0.089953	 0.661230	 -0.444736	 0.597405	 1
1463623588.308	 8	 0.003509	 0.044650	 1.320694	 1.419362	 -0.756634	 -0.608663	 -0.085862	 0.661650	 -0.440847	 0.600418	 1
1463623588.318	 8	 0.074064	 0.398633	 1.468318	 1.423970	 -0.742376	 -0.606468	 -0.080271	 0.663065	 -0.436839	 0.602555	 1
1463623588.328	 8	 0.182734	 0.723481	 1.573773	 1.431043	 -0.726810	 -0.605534	 -0.073256	 0.665270	 -0.432920	 0.603845	 1
1463623588.338	 8	 0.276211	 1.029990	 1.637626	 1.440261	 -0.710380	 -0.605988	 -0.065023	 0.668156	 -0.429197	 0.604260	 1
1463623588.348	 8	 0.340490	 1.366466	 1.568791	 1.451986	 -0.694144	 -0.607617	 -0.055964	 0.671801	 -0.425855	 0.603489	 1
1463623588.358	 8	 0.407372	 1.776545	 1.530460	 1.466975	 -0.678509	 -0.610401	 -0.046085	 0.676414	 -0.422982	 0.601188	 1
1463623588.368	 8	 0.501500	 1.987390	 1.603008	 1.483891	 -0.662338	 -0.614523	 -0.035193	 0.681571	 -0.420258	 0.598001	 1
1463623588.378	 8	 0.561864	 2.077940	 1.647022	 1.501287	 -0.645534	 -0.619921	 -0.023579	 0.686808	 -0.417578	 0.594447	 1
1463623588.388	 8	 0.561087	 1.962647	 1.588404	 1.517839	 -0.629037	 -0.625605	 -0.012202	 0.691701	 -0.414878	 0.590996	 1
1463623588.398	 8	 0.596477	 1.902924	 1.434071	 1.533274	 -0.614154	 -0.631996	 -0.001434	 0.696182	 -0.412667	 0.587397	 1
1463623588.408	 8	 0.625468	 1.824245	 1.303063	 1.547775	 -0.600613	 -0.639007	 0.008845	 0.700305	 -0.410874	 0.583676	 1
1463623588.418	 8	 0.648508	 1.692797	 1.079961	 1.560734	 -0.589058	 -0.646608	 0.018283	 0.703905	 -0.409703	 0.579937	 1
1463623588.428	 8	 0.547723	 1.679755	 0.707700	 1.573657	 -0.580957	 -0.653524	 0.026236	 0.707465	 -0.409227	 0.575619	 1
1463623588.438	 8	 0.374609	 1.764370	 0.279427	 1.588318	 -0.577155	 -0.658573	 0.032365	 0.711543	 -0.409356	 0.570163	 1
1463623588.448	 8	 0.193351	 1.902448	 -0.113108	 1.605397	 -0.577372	 -0.661393	 0.036794	 0.716337	 -0.409923	 0.563445	 1
1463623588.458	 8	 0.080266	 1.995811	 -0.484271	 1.624649	 -0.581363	 -0.662434	 0.039735	 0.721743	 -0.411025	 0.555488	 1
1463623588.468	 8	 0.097620	 2.052327	 -0.750337	 1.644816	 -0.588338	 -0.662858	 0.041644	 0.727341	 -0.412811	 0.546652	 1
1463623588.478	 8	 0.257096	 2.110878	 -0.971794	 1.664790	 -0.597636	 -0.664500	 0.043209	 0.732753	 -0.415627	 0.537085	 1
1463623588.488	 8	 0.398011	 2.098071	 -1.214002	 1.684258	 -0.609495	 -0.667514	 0.044373	 0.737867	 -0.419591	 0.526808	 1
1463623588.498	 8	 0.450148	 1.810106	 -1.448406	 1.701339	 -0.623824	 -0.670788	 0.044380	 0.742198	 -0.424422	 0.516757	 1
1463623588.508	 8	 0.520960	 1.412502	 -1.687190	 1.714444	 -0.640630	 -0.674138	 0.042822	 0.745353	 -0.430112	 0.507562	 1
1463623588.518	 8	 0.648267	 1.233778	 -1.934021	 1.724470	 -0.660038	 -0.678294	 0.040106	 0.747564	 -0.436851	 0.498699	 1
1463623588.528	 8	 0.795150	 1.382385	 -2.208884	 1.734537	 -0.682376	 -0.683528	 0.036899	 0.749595	 -0.444717	 0.488848	 1
1463623588.538	 8	 0.999132	 1.588747	 -2.416563	 1.745444	 -0.707319	 -0.690435	 0.033729	 0.751599	 -0.453710	 0.477607	 1
1463623588.548	 8	 1.286442	 1.919283	 -2.481001	 1.757135	 -0.733937	 -0.700376	 0.031423	 0.753522	 -0.463830	 0.464843	 1
1463623588.558	 8	 1.504916	 1.892629	 -2.255078	 1.767330	 -0.759529	 -0.713871	 0.030545	 0.754896	 -0.474359	 0.451865	 1
1463623588.568	 8	 1.537169	 1.725302	 -1.995804	 1.774103	 -0.782660	 -0.729284	 0.030453	 0.755416	 -0.484483	 0.440108	 1
1463623588.578	 8	 1.390837	 1.704405	 -2.003251	 1.781130	 -0.805071	 -0.743464	 0.030242	 0.755934	 -0.493958	 0.428549	 1
1463623588.588	 8	 1.182514	 1.549766	 -2.144622	 1.789014	 -0.828212	 -0.754578	 0.028899	 0.756545	 -0.502833	 0.417091	 1
1463623588.598	 8	 0.954008	 1.468117	 -2.349084	 1.798476	 -0.852820	 -0.761761	 0.026052	 0.757342	 -0.511175	 0.405530	 1
1463623588.608	 8	 0.885155	 1.340944	 -2.606517	 1.808906	 -0.879555	 -0.766097	 0.021759	 0.758095	 -0.519452	 0.393685	 1
1463623588.618	 8	 0.861385	 1.084583	 -2.913504	 1.818520	 -0.909179	 -0.768734	 0.015757	 0.758337	 -0.528149	 0.381752	 1
1463623588.628	 8	 0.750471	 0.885028	 -3.195756	 1.828084	 -0.941401	 -0.768208	 0.007788	 0.758178	 -0.536909	 0.369911	 1
1463623588.638	 8	 0.789738	 1.070107	 -3.471474	 1.840161	 -0.976255	 -0.765728	 -0.000991	 0.757977	 -0.545992	 0.356879	 1
1463623588.648	 8	 0.890946	 1.479352	 -3.464284	 1.855629	 -1.012280	 -0.763603	 -0.008947	 0.757875	 -0.555449	 0.342085	 1
1463623588.658	 8	 0.941918	 1.714610	 -3.269636	 1.873596	 -1.046574	 -0.762174	 -0.015237	 0.757890	 -0.564569	 0.326547	 1
1463623588.668	 8	 1.125820	 1.662151	 -3.388959	 1.890618	 -1.081615	 -0.762112	 -0.021341	 0.757240	 -0.574095	 0.310719	 1
1463623588.678	 8	 1.385692	 1.504559	 -3.601577	 1.903732	 -1.119522	 -0.764629	 -0.028328	 0.755290	 -0.584671	 0.294780	 1
1463623588.688	 8	 1.545134	 1.462873	 -3.712061	 1.913996	 -1.159344	 -0.769498	 -0.035731	 0.752339	 -0.595896	 0.278598	 1
1463623588.698	 8	 1.548179	 1.452033	 -3.738833	 1.923965	 -1.199774	 -0.774449	 -0.043273	 0.748885	 -0.607078	 0.262211	 1
1463623588.708	 8	 1.431724	 1.388863	 -3.696842	 1.936267	 -1.239635	 -0.776364	 -0.050950	 0.745322	 -0.617588	 0.245934	 1
1463623588.718	 8	 1.292873	 1.405923	 -3.746636	 1.952644	 -1.279516	 -0.773591	 -0.058957	 0.741641	 -0.627534	 0.229552	 1
1463623588.728	 8	 1.259330	 1.600267	 -4.094106	 1.981546	 -1.321134	 -0.759662	 -0.067405	 0.738096	 -0.637089	 0.211634	 1
1463623588.738	 8	 1.350074	 1.759637	 -4.813868	 2.031628	 -1.368420	 -0.725932	 -0.077513	 0.733950	 -0.647171	 0.190993	 1
1463623588.748	 8	 1.653104	 1.930009	 -5.836987	 2.126886	 -1.424885	 -0.648657	 -0.090262	 0.728167	 -0.658727	 0.166447	 1
1463623588.758	 8	 1.777748	 1.560867	 -6.528924	 2.373257	 -1.486100	 -0.417719	 -0.106487	 0.720469	 -0.670820	 0.139947	 1
1463623588.768	 8	 1.634748	 1.241947	 -6.417675	 -2.991699	 -1.525958	 0.488968	 -0.124255	 0.711843	 -0.681744	 0.114300	 1
1463623588.778	 8	 1.342974	 1.232002	 -5.707562	 -1.993588	 -1.498232	 1.476304	 -0.140271	 0.703703	 -0.690582	 0.090679	 1
1463623588.788	 8	 1.099714	 1.503841	 -4.686319	 -1.715904	 -1.453388	 1.740986	 -0.152305	 0.696615	 -0.697655	 0.069339	 1
1463623588.798	 8	 0.951383	 2.347221	 -2.996472	 -1.599698	 -1.419739	 1.837066	 -0.156665	 0.691108	 -0.703743	 0.050703	 1
1463623588.818	 9	 0.396682	 4.299631	 0.391137	 -1.448219	 -1.403748	 1.916823	 -0.135942	 0.686553	 -0.713944	 0.021182	 1
1463623588.828	 9	 -0.007595	 4.780961	 1.479819	 -1.383815	 -1.415812	 1.934621	 -0.114933	 0.687345	 -0.717116	 0.009577	 1
1463623588.838	 9	 -0.381180	 4.884742	 2.145876	 -1.324898	 -1.436026	 1.944855	 -0.090521	 0.689530	 -0.718578	 -0.000166	 1
1463623588.848	 9	 -0.662771	 4.687578	 2.417196	 -1.272249	 -1.460479	 1.949995	 -0.065230	 0.692498	 -0.718416	 -0.008303	 1
1463623588.858	 9	 -0.846488	 4.250546	 2.358243	 -1.229840	 -1.485725	 1.948683	 -0.041191	 0.695771	 -0.716923	 -0.015103	 1
1463623588.878	 10	 -0.907681	 2.843857	 1.518655	 -1.235890	 -1.527661	 1.874028	 -0.003284	 0.702070	 -0.711637	 -0.025676	 1
1463623588.888	 10	 -0.764173	 1.904950	 0.879869	 -1.345972	 -1.539948	 1.742398	 0.008120	 0.704625	 -0.708920	 -0.029505	 1
1463623588.898	 10	 -0.525210	 0.864514	 0.212663	 -1.521681	 -1.544527	 1.555337	 0.013539	 0.706521	 -0.706834	 -0.032110	 1
1463623588.908	 10	 -0.240140	 -0.171441	 -0.404812	 -1.633493	 -1.541936	 1.442665	 0.012971	 0.707627	 -0.705683	 -0.033285	 1
1463623588.918	 10	 -0.011705	 -0.906124	 -0.861257	 -1.643821	 -1.534301	 1.439883	 0.007625	 0.708006	 -0.705380	 -0.033296	 1
1463623588.928	 10	 0.057269	 -1.093511	 -1.006414	 -1.627304	 -1.524410	 1.467180	 0.000304	 0.708032	 -0.705409	 -0.032996	 1
1463623588.938	 10	 0.028595	 -0.995276	 -0.818742	 -1.620733	 -1.515635	 1.484041	 -0.006443	 0.708050	 -0.705386	 -0.032466	 1
1463623588.948	 11	 -0.000600	 -0.890778	 -0.500984	 -1.623906	 -1.509824	 1.490013	 -0.011726	 0.708152	 -0.705269	 -0.031284	 1
1463623588.968	 11	 -0.019388	 -0.910166	 -0.102405	 -1.641423	 -1.505557	 1.490011	 -0.019406	 0.708466	 -0.704977	 -0.026585	 1
1463623588.978	 11	 -0.029744	 -1.065456	 -0.106958	 -1.654725	 -1.504595	 1.486891	 -0.023327	 0.708681	 -0.704758	 -0.023311	 1
1463623588.988	 11	 -0.029394	 -1.325993	 -0.246868	 -1.668897	 -1.502499	 1.485273	 -0.028485	 0.708894	 -0.704467	 -0.019596	 1
1463623588.998	 11	 -0.049334	 -1.599149	 -0.374997	 -1.684873	 -1.499007	 1.484639	 -0.035113	 0.709119	 -0.704046	 -0.015384	 1
1463623589.008	 11	 -0.110254	 -1.778230	 -0.453933	 -1.707477	 -1.494552	 1.479426	 -0.042782	 0.709478	 -0.703345	 -0.010768	 1
1463623589.018	 11	 -0.204678	 -1.847427	 -0.500648	 -1.738794	 -1.489431	 1.466422	 -0.050965	 0.710069	 -0.702260	 -0.006021	 1
1463623589.028	 11	 -0.330699	 -1.844067	 -0.528296	 -1.780148	 -1.483734	 1.443472	 -0.059302	 0.710998	 -0.700687	 -0.001371	 1
1463623589.038	 11	 -0.478767	 -1.776713	 -0.540235	 -1.831602	 -1.477474	 1.409848	 -0.067504	 0.712361	 -0.698553	 0.003000	 1
1463623589.058	 12	 -0.750006	 -1.477110	 -0.402930	 -1.957812	 -1.464286	 1.315251	 -0.082096	 0.716465	 -0.692694	 0.010669	 1
1463623589.068	 12	 -0.829702	 -1.271856	 -0.291619	 -2.026542	 -1.458062	 1.259419	 -0.087859	 0.719053	 -0.689237	 0.013975	 1
1463623589.078	 12	 -0.875330	 -1.054194	 -0.215659	 -2.093977	 -1.451943	 1.202699	 -0.092573	 0.721839	 -0.685636	 0.016784	 1
1463623589.088	 12	 -0.890120	 -0.824171	 -0.182482	 -2.156220	 -1.445669	 1.148866	 -0.096346	 0.724705	 -0.682029	 0.018906	 1
1463623589.098	 12	 -0.866610	 -0.583926	 -0.191109	 -2.209810	 -1.439111	 1.101350	 -0.099309	 0.727525	 -0.678555	 0.020190	 1
1463623589.108	 12	 -0.821654	 -0.337233	 -0.181745	 -2.253658	 -1.432515	 1.061098	 -0.101421	 0.730208	 -0.675342	 0.020579	 1
1463623589.118	 12	 -0.762866	 -0.139162	 -0.124994	 -2.291124	 -1.426409	 1.025118	 -0.102631	 0.732750	 -0.672405	 0.020386	 1
1463623589.128	 12	 -0.647895	 -0.025244	 -0.063121	 -2.322023	 -1.421270	 0.994347	 -0.103142	 0.734983	 -0.669898	 0.019942	 1
1463623589.138	 12	 -0.499305	 -0.043145	 0.021746	 -2.347943	 -1.417477	 0.968536	 -0.103348	 0.736795	 -0.667878	 0.019796	 1
1463623589.148	 12	 -0.289785	 -0.075802	 0.149641	 -2.369452	 -1.415863	 0.947408	 -0.103164	 0.737993	 -0.666569	 0.020238	 1
1463623589.158	 12	 -0.063586	 -0.147190	 0.223742	 -2.385804	 -1.416449	 0.932169	 -0.102833	 0.738488	 -0.666037	 0.021354	 1
1463623589.168	 12	 0.129138	 -0.250828	 0.237086	 -2.395538	 -1.418677	 0.924586	 -0.102696	 0.738305	 -0.666205	 0.023013	 1
1463623589.178	 12	 0.269481	 -0.333384	 0.203123	 -2.398454	 -1.421875	 0.924818	 -0.102926	 0.737586	 -0.666894	 0.025009	 1
1463623589.188	 12	 0.357675	 -0.372297	 0.152968	 -2.394906	 -1.425492	 0.932123	 -0.103495	 0.736494	 -0.667930	 0.027095	 1
1463623589.198	 12	 0.399417	 -0.308926	 0.108432	 -2.385672	 -1.429153	 0.944804	 -0.104117	 0.735201	 -0.669181	 0.028910	 1
1463623589.208	 12	 0.409689	 -0.158006	 0.096958	 -2.372543	 -1.432788	 0.960081	 -0.104370	 0.733849	 -0.670568	 0.030184	 1
1463623589.218	 12	 0.392461	 0.029284	 0.101979	 -2.293769	 -1.437590	 1.038619	 -0.105298	 0.729964	 -0.674698	 0.029111	 1
1463623589.228	 12	 0.352869	 0.217790	 0.120065	 -2.277002	 -1.440845	 1.053803	 -0.104246	 0.728821	 -0.676097	 0.029066	 1
1463623589.238	 12	 0.299323	 0.393536	 0.132824	 -2.261431	 -1.443854	 1.065976	 -0.102543	 0.727880	 -0.677399	 0.028394	 1
1463623589.248	 12	 0.250964	 0.546851	 0.134672	 -2.246976	 -1.446568	 1.075410	 -0.100286	 0.727128	 -0.678595	 0.027135	 1
1463623589.258	 12	 0.210984	 0.676688	 0.125515	 -2.191455	 -1.445823	 1.124217	 -0.099366	 0.725515	 -0.680595	 0.023332	 1
1463623589.268	 12	 0.175166	 0.778870	 0.121449	 -2.177518	 -1.447880	 1.130661	 -0.096333	 0.725034	 -0.681616	 0.021103	 1
1463623589.288	 13	 0.126528	 0.856811	 0.142847	 -2.153431	 -1.451666	 1.137932	 -0.089592	 0.724341	 -0.683408	 0.016025	 1
1463623589.298	 13	 0.111424	 0.814381	 0.152172	 -2.141463	 -1.453311	 1.141604	 -0.086324	 0.724022	 -0.684222	 0.013458	 1
1463623589.308	 13	 0.103552	 0.721934	 0.160972	 -2.133747	 -1.455208	 1.141844	 -0.083184	 0.723779	 -0.684906	 0.011338	 1
1463623589.328	 14	 0.128729	 0.401729	 0.163102	 -2.120626	 -1.459255	 1.144261	 -0.078307	 0.723153	 -0.686180	 0.008685	 1
1463623589.338	 14	 0.138366	 0.186887	 0.159831	 -2.029732	 -1.453207	 1.232203	 -0.080738	 0.720741	 -0.688474	 0.004158	 1
1463623589.348	 14	 0.145720	 -0.049380	 0.142648	 -2.024069	 -1.455169	 1.237807	 -0.080171	 0.720301	 -0.688997	 0.004689	 1
1463623589.358	 14	 0.133851	 -0.276126	 0.110800	 -2.020070	 -1.456852	 1.244059	 -0.080496	 0.719868	 -0.689402	 0.005955	 1
1463623589.378	 15	 0.014173	 -0.642626	 -0.028056	 -1.984095	 -1.452157	 1.290207	 -0.086226	 0.718564	 -0.690056	 0.007380	 1
1463623589.388	 15	 -0.098633	 -0.743841	 -0.097290	 -1.993814	 -1.451128	 1.287695	 -0.089015	 0.718735	 -0.689494	 0.009663	 1
1463623589.398	 15	 -0.231370	 -0.800082	 -0.132893	 -2.012104	 -1.449156	 1.277217	 -0.092197	 0.719314	 -0.688435	 0.011975	 1
1463623589.408	 15	 -0.365978	 -0.828421	 -0.135182	 -2.039626	 -1.446469	 1.257779	 -0.095540	 0.720339	 -0.686862	 0.014312	 1
1463623589.418	 15	 -0.494016	 -0.837493	 -0.118168	 -2.075349	 -1.442907	 1.230189	 -0.098990	 0.721823	 -0.684761	 0.016570	 1
1463623589.428	 15	 -0.595327	 -0.822306	 -0.118210	 -2.117136	 -1.439032	 1.196398	 -0.102290	 0.723649	 -0.682285	 0.018878	 1
1463623589.438	 15	 -0.652706	 -0.733110	 -0.161643	 -2.158893	 -1.434333	 1.161948	 -0.105485	 0.725678	 -0.679582	 0.020799	 1
1463623589.448	 15	 -0.669144	 -0.556861	 -0.211016	 -2.195964	 -1.428892	 1.130636	 -0.108336	 0.727769	 -0.676855	 0.021969	 1
1463623589.458	 15	 -0.654274	 -0.332592	 -0.226110	 -2.228117	 -1.422977	 1.102116	 -0.110569	 0.729910	 -0.674174	 0.022258	 1
1463623589.468	 15	 -0.631804	 -0.108114	 -0.209296	 -2.253792	 -1.417332	 1.077789	 -0.111974	 0.731915	 -0.671780	 0.021772	 1
1463623589.478	 15	 -0.629694	 0.083582	 -0.174492	 -2.276623	 -1.411894	 1.054299	 -0.112590	 0.733924	 -0.669517	 0.020665	 1
1463623589.488	 15	 -0.650032	 0.235204	 -0.101498	 -2.299445	 -1.406738	 1.029141	 -0.112433	 0.736026	 -0.667276	 0.019154	 1
1463623589.498	 15	 -0.690634	 0.368982	 -0.003981	 -2.324756	 -1.401935	 1.000070	 -0.111484	 0.738304	 -0.664962	 0.017440	 1
1463623589.508	 15	 -0.738705	 0.515438	 0.078798	 -2.352625	 -1.397321	 0.966931	 -0.109733	 0.740788	 -0.662535	 0.015468	 1
1463623589.518	 15	 -0.775203	 0.657342	 0.125198	 -2.381306	 -1.392646	 0.931479	 -0.107298	 0.743434	 -0.660016	 0.013126	 1
1463623589.528	 15	 -0.767149	 0.782809	 0.123098	 -2.407611	 -1.387826	 0.897102	 -0.104402	 0.746090	 -0.657528	 0.010332	 1
1463623589.538	 15	 -0.671639	 0.905817	 0.110622	 -2.428263	 -1.383317	 0.867194	 -0.101136	 0.748493	 -0.655347	 0.007079	 1
1463623589.548	 15	 -0.486438	 1.028650	 0.110153	 -2.440848	 -1.379944	 0.844206	 -0.097468	 0.750332	 -0.653827	 0.003426	 1
1463623589.558	 15	 -0.280335	 1.127423	 0.027214	 -2.442987	 -1.377792	 0.830795	 -0.093654	 0.751443	 -0.653117	 -0.000684	 1
1463623589.568	 15	 -0.150521	 1.232857	 -0.194614	 -2.431576	 -1.375581	 0.830134	 -0.090214	 0.751939	 -0.653005	 -0.005734	 1
1463623589.578	 15	 -0.084926	 1.275919	 -0.389819	 -2.408834	 -1.372490	 0.840340	 -0.087383	 0.752054	 -0.653178	 -0.011722	 1
1463623589.588	 15	 -0.044216	 1.199108	 -0.258734	 -2.386987	 -1.370003	 0.850168	 -0.084562	 0.751999	 -0.653488	 -0.017354	 1
1463623589.598	 15	 -0.041530	 1.063018	 0.042653	 -2.376107	 -1.369467	 0.850019	 -0.081085	 0.752010	 -0.653787	 -0.021631	 1
1463623589.608	 15	 -0.058348	 0.901141	 0.300273	 -2.377014	 -1.370769	 0.839540	 -0.077113	 0.752164	 -0.653994	 -0.024384	 1
1463623589.618	 15	 -0.126988	 0.883678	 0.504269	 -2.388352	 -1.373125	 0.819031	 -0.072517	 0.752576	 -0.653974	 -0.026231	 1
1463623589.628	 15	 -0.235458	 1.072216	 0.645517	 -2.408297	 -1.375804	 0.788365	 -0.066835	 0.753334	 -0.653630	 -0.028086	 1
1463623589.638	 15	 -0.306604	 1.407172	 0.605557	 -2.428946	 -1.377760	 0.753920	 -0.060132	 0.754295	 -0.653037	 -0.031086	 1
1463623589.648	 15	 -0.314578	 1.845660	 0.494604	 -2.442366	 -1.378728	 0.722637	 -0.052482	 0.755178	 -0.652423	 -0.036005	 1
1463623589.658	 15	 -0.235850	 2.203348	 0.276635	 -2.443053	 -1.378888	 0.700259	 -0.044217	 0.755695	 -0.652013	 -0.043007	 1
1463623589.668	 15	 -0.138273	 2.110399	 -0.034151	 -2.428224	 -1.378003	 0.693188	 -0.036912	 0.755697	 -0.651879	 -0.051116	 1
1463623589.678	 15	 -0.250213	 1.248158	 -0.324693	 -2.410502	 -1.374717	 0.695954	 -0.032938	 0.755932	 -0.651273	 -0.057663	 1
1463623589.688	 15	 -0.417224	 0.270848	 -0.371766	 -2.403932	 -1.369380	 0.697535	 -0.032634	 0.756942	 -0.649823	 -0.060862	 1
1463623589.698	 15	 -0.632939	 -0.386449	 -0.163917	 -2.416901	 -1.363625	 0.686797	 -0.034097	 0.758840	 -0.647540	 -0.060748	 1
1463623589.708	 15	 -0.892897	 -0.709517	 0.061281	 -2.449117	 -1.357408	 0.660423	 -0.035873	 0.761715	 -0.644276	 -0.058408	 1
1463623589.718	 15	 -1.076907	 -0.895400	 0.167730	 -2.492140	 -1.350198	 0.625124	 -0.037764	 0.765315	 -0.640201	 -0.054863	 1
1463623589.728	 15	 -1.141334	 -0.995054	 0.186547	 -2.537573	 -1.342111	 0.588523	 -0.039862	 0.769223	 -0.635714	 -0.050748	 1
1463623589.738	 15	 -1.057832	 -0.986385	 0.242386	 -2.580641	 -1.334251	 0.554547	 -0.041912	 0.772955	 -0.631372	 -0.046410	 1
1463623589.748	 15	 -0.816764	 -0.436309	 0.365837	 -2.617402	 -1.328341	 0.523083	 -0.042370	 0.775970	 -0.627864	 -0.043147	 1
1463623589.758	 15	 -0.430551	 0.375759	 0.448898	 -2.641239	 -1.325824	 0.496700	 -0.040026	 0.777687	 -0.625929	 -0.042590	 1
1463623589.768	 15	 -0.002231	 1.014770	 0.591795	 -2.653928	 -1.327467	 0.474591	 -0.035127	 0.777940	 -0.625790	 -0.044303	 1
1463623589.778	 15	 0.376423	 1.317721	 0.720274	 -2.661092	 -1.333259	 0.454222	 -0.028523	 0.776865	 -0.627265	 -0.046973	 1
1463623589.788	 15	 0.716295	 1.274593	 0.630587	 -2.660448	 -1.341937	 0.441473	 -0.022005	 0.774642	 -0.630046	 -0.049871	 1
1463623589.798	 15	 0.987915	 1.010282	 0.533018	 -2.652044	 -1.352695	 0.438976	 -0.016687	 0.771494	 -0.633870	 -0.052231	 1
1463623589.808	 15	 1.121444	 0.631911	 0.478244	 -2.640728	 -1.364698	 0.443047	 -0.012738	 0.767848	 -0.638275	 -0.053399	 1
1463623589.818	 15	 1.141377	 0.160215	 0.415064	 -2.628850	 -1.376728	 0.452327	 -0.010532	 0.764143	 -0.642775	 -0.053045	 1
1463623589.828	 15	 1.070951	 -0.237995	 0.621927	 -2.627111	 -1.388973	 0.455548	 -0.009182	 0.760673	 -0.647089	 -0.050677	 1
1463623589.838	 15	 0.917841	 -0.529503	 0.842226	 -2.645432	 -1.401233	 0.441659	 -0.007862	 0.757720	 -0.650891	 -0.046257	 1
1463623589.848	 15	 0.841095	 -0.637556	 0.724655	 -2.668645	 -1.412388	 0.424454	 -0.007180	 0.755092	 -0.654274	 -0.041360	 1
1463623589.858	 15	 0.757865	 -0.527628	 0.596379	 -2.687409	 -1.422165	 0.411185	 -0.006855	 0.752655	 -0.657329	 -0.037173	 1
1463623589.868	 15	 0.587611	 -0.418677	 0.591415	 -2.709858	 -1.430423	 0.392904	 -0.006178	 0.750666	 -0.659800	 -0.033566	 1
1463623589.878	 15	 0.372550	 -0.454918	 0.493835	 -2.736449	 -1.436468	 0.370506	 -0.005729	 0.749339	 -0.661474	 -0.030165	 1
1463623589.888	 15	 0.149761	 -0.527455	 0.374668	 -2.763154	 -1.439883	 0.348682	 -0.005950	 0.748743	 -0.662286	 -0.026945	 1
1463623589.898	 15	 -0.085216	 -0.662106	 0.485235	 -2.801803	 -1.441205	 0.315999	 -0.006352	 0.748919	 -0.662227	 -0.023139	 1
1463623589.908	 15	 -0.295736	 -0.815968	 0.596475	 -2.857734	 -1.440620	 0.267426	 -0.006720	 0.749841	 -0.661330	 -0.018315	 1
1463623589.918	 15	 -0.396079	 -0.965295	 0.497909	 -2.913193	 -1.438312	 0.220801	 -0.007744	 0.751181	 -0.659920	 -0.013105	 1
1463623589.928	 15	 -0.409663	 -1.199539	 0.311471	 -2.956926	 -1.435047	 0.188180	 -0.010128	 0.752604	 -0.658351	 -0.007649	 1
1463623589.938	 15	 -0.398072	 -1.314610	 0.141909	 -2.987696	 -1.431407	 0.170216	 -0.013701	 0.753963	 -0.656770	 -0.002189	 1
1463623589.948	 15	 -0.381280	 -1.247683	 -0.008953	 -3.006297	 -1.427619	 0.164278	 -0.017768	 0.755233	 -0.655210	 0.002673	 1
1463623589.958	 15	 -0.322483	 -1.165418	 -0.081171	 -3.016026	 -1.424150	 0.166382	 -0.021925	 0.756310	 -0.653810	 0.006856	 1
1463623589.968	 15	 -0.204944	 -1.197124	 -0.005755	 -3.027652	 -1.421733	 0.166546	 -0.025905	 0.757036	 -0.652764	 0.011185	 1
1463623589.978	 15	 -0.017293	 -1.403611	 0.196382	 -3.050508	 -1.421190	 0.156960	 -0.029758	 0.757186	 -0.652308	 0.016684	 1
1463623589.988	 15	 0.217996	 -1.789144	 0.514738	 -3.095386	 -1.423058	 0.128619	 -0.033605	 0.756566	 -0.652593	 0.024494	 1
1463623589.998	 15	 0.417864	 -2.204470	 0.817138	 3.116253	 -1.426856	 0.077550	 -0.037594	 0.755173	 -0.653514	 0.034939	 1
1463623590.008	 15	 0.498487	 -2.488185	 1.033343	 3.020736	 -1.431009	 0.005589	 -0.041722	 0.753271	 -0.654671	 0.047411	 1
1463623590.018	 15	 0.465152	 -2.626685	 1.134658	 2.909576	 -1.433740	 -0.080378	 -0.045903	 0.751250	 -0.655591	 0.060968	 1
1463623590.028	 15	 0.443535	 -2.590211	 1.022215	 2.800081	 -1.435019	 -0.164611	 -0.050309	 0.749160	 -0.656280	 0.074328	 1
1463623590.038	 15	 0.469274	 -2.532942	 0.716650	 2.707129	 -1.436236	 -0.232718	 -0.055480	 0.746838	 -0.657003	 0.086612	 1
1463623590.048	 15	 0.538596	 -2.411786	 0.291934	 2.638325	 -1.439068	 -0.277432	 -0.061794	 0.744119	 -0.658042	 0.097211	 1
1463623590.058	 15	 0.586085	 -2.164032	 -0.137808	 2.596024	 -1.444265	 -0.297556	 -0.068993	 0.741065	 -0.659482	 0.105579	 1
1463623590.068	 15	 0.493373	 -1.960004	 -0.347189	 2.574856	 -1.450412	 -0.298730	 -0.076463	 0.738114	 -0.660883	 0.112138	 1
1463623590.078	 15	 0.253809	 -1.808568	 -0.388456	 2.568956	 -1.455147	 -0.286055	 -0.083796	 0.735846	 -0.661534	 0.117818	 1
1463623590.088	 15	 -0.013251	 -1.608091	 -0.424764	 2.580536	 -1.457835	 -0.257658	 -0.090799	 0.734490	 -0.661253	 0.122574	 1
1463623590.098	 15	 -0.195010	 -1.332242	 -0.300183	 2.599657	 -1.458300	 -0.224369	 -0.096767	 0.733978	 -0.660237	 0.126490	 1
1463623590.108	 15	 -0.349024	 -1.168253	 -0.042599	 2.609814	 -1.456141	 -0.201952	 -0.101361	 0.734186	 -0.658549	 0.130425	 1
1463623590.118	 15	 -0.428668	 -1.024065	 0.154470	 2.608786	 -1.452013	 -0.192440	 -0.104658	 0.734905	 -0.656421	 0.134435	 1
1463623590.128	 15	 -0.444590	 -1.058663	 0.217167	 2.602288	 -1.447121	 -0.188488	 -0.107608	 0.735762	 -0.654089	 0.138714	 1
1463623590.138	 15	 -0.370359	 -1.137768	 0.192338	 2.593467	 -1.442698	 -0.186076	 -0.110801	 0.736369	 -0.651883	 0.143289	 1
1463623590.148	 15	 -0.244852	 -1.150494	 0.101603	 2.584798	 -1.439670	 -0.183221	 -0.114276	 0.736506	 -0.650123	 0.147782	 1
1463623590.158	 15	 -0.123463	 -1.117593	 -0.005724	 2.578305	 -1.438259	 -0.178395	 -0.117976	 0.736171	 -0.648888	 0.151914	 1
1463623590.168	 15	 -0.031941	 -1.083524	 -0.110649	 2.574869	 -1.438274	 -0.170859	 -0.121864	 0.735451	 -0.648108	 0.155620	 1
1463623590.178	 15	 0.004127	 -1.068203	 -0.183292	 2.574959	 -1.439162	 -0.159953	 -0.125959	 0.734510	 -0.647568	 0.159011	 1
1463623590.188	 15	 0.028753	 -1.016458	 -0.224590	 2.577540	 -1.440501	 -0.146907	 -0.130084	 0.733470	 -0.647159	 0.162127	 1
1463623590.198	 15	 0.081685	 -0.876257	 -0.230141	 2.580713	 -1.442298	 -0.134492	 -0.133834	 0.732355	 -0.646989	 0.164771	 1
1463623590.208	 15	 0.146659	 -0.699687	 -0.202419	 2.581824	 -1.444524	 -0.125869	 -0.136906	 0.731174	 -0.647137	 0.166900	 1
1463623590.218	 15	 0.198792	 -0.547397	 -0.154563	 2.579402	 -1.447004	 -0.122451	 -0.139244	 0.729964	 -0.647561	 0.168609	 1
1463623590.228	 15	 0.218711	 -0.457589	 -0.082494	 2.572247	 -1.449367	 -0.124861	 -0.140976	 0.728792	 -0.648099	 0.170167	 1
1463623590.238	 15	 0.199993	 -0.421843	 -0.001001	 2.560124	 -1.451223	 -0.132753	 -0.142267	 0.727738	 -0.648568	 0.171806	 1
1463623590.248	 15	 0.179274	 -0.357380	 0.079712	 2.543761	 -1.452427	 -0.145439	 -0.143118	 0.726858	 -0.648918	 0.173495	 1
1463623590.258	 15	 0.097468	 -0.377566	 0.196404	 2.522777	 -1.452484	 -0.162895	 -0.143593	 0.726261	 -0.648956	 0.175447	 1
1463623590.268	 15	 0.008101	 -0.406331	 0.300294	 2.498645	 -1.451073	 -0.183121	 -0.143876	 0.726013	 -0.648521	 0.177836	 1
1463623590.278	 15	 -0.009197	 -0.269772	 0.350740	 2.473796	 -1.448916	 -0.204963	 -0.143677	 0.726008	 -0.647951	 0.180080	 1
1463623590.288	 15	 -0.069362	 -0.120762	 0.340927	 2.452110	 -1.446322	 -0.225181	 -0.142950	 0.726266	 -0.647345	 0.181790	 1
1463623590.298	 15	 -0.129789	 -0.031278	 0.335891	 2.437787	 -1.443283	 -0.239168	 -0.142006	 0.726849	 -0.646576	 0.182933	 1
1463623590.308	 15	 -0.134083	 -0.065055	 0.369719	 2.423118	 -1.439905	 -0.253481	 -0.140975	 0.727498	 -0.645718	 0.184174	 1
1463623590.318	 15	 -0.087511	 -0.159739	 0.385484	 2.405150	 -1.436568	 -0.270190	 -0.140115	 0.727970	 -0.644890	 0.185861	 1
1463623590.328	 15	 -0.011866	 -0.157022	 0.350747	 2.385681	 -1.433898	 -0.288241	 -0.139342	 0.728172	 -0.644331	 0.187578	 1
1463623590.338	 15	 0.037849	 -0.203311	 0.294463	 2.366434	 -1.431945	 -0.305777	 -0.138797	 0.728126	 -0.644005	 0.189275	 1
1463623590.348	 15	 0.083284	 -0.244339	 0.228674	 2.348037	 -1.430727	 -0.321964	 -0.138597	 0.727837	 -0.643873	 0.190977	 1
1463623590.358	 15	 0.111875	 -0.238499	 0.165600	 2.331303	 -1.430164	 -0.336410	 -0.138620	 0.727388	 -0.643916	 0.192518	 1
1463623590.368	 15	 0.115116	 -0.186768	 0.113831	 2.317227	 -1.430047	 -0.348595	 -0.138698	 0.726905	 -0.644080	 0.193733	 1
1463623590.378	 15	 0.087551	 -0.122033	 0.082700	 2.306587	 -1.430029	 -0.357944	 -0.138725	 0.726526	 -0.644244	 0.194592	 1
1463623590.388	 15	 0.045109	 -0.053977	 0.063453	 2.299739	 -1.429911	 -0.364138	 -0.138657	 0.726319	 -0.644335	 0.195107	 1
1463623590.398	 15	 -0.001625	 0.001397	 0.053718	 2.296457	 -1.429558	 -0.367327	 -0.138483	 0.726314	 -0.644308	 0.195340	 1
1463623590.408	 15	 -0.036643	 0.048257	 0.048064	 2.296071	 -1.429009	 -0.368112	 -0.138209	 0.726476	 -0.644186	 0.195334	 1
1463623590.418	 15	 -0.060073	 0.048412	 0.059993	 2.296867	 -1.428222	 -0.367829	 -0.137892	 0.726743	 -0.643966	 0.195290	 1
1463623590.428	 15	 -0.067598	 0.019862	 0.080042	 2.297150	 -1.427221	 -0.367824	 -0.137596	 0.727036	 -0.643670	 0.195383	 1
1463623590.438	 15	 -0.067692	 -0.014051	 0.096780	 2.296403	 -1.426080	 -0.368528	 -0.137344	 0.727314	 -0.643329	 0.195651	 1
1463623590.448	 15	 -0.062370	 -0.037291	 0.121030	 2.294190	 -1.424794	 -0.370442	 -0.137093	 0.727568	 -0.642960	 0.196092	 1
1463623590.458	 15	 -0.048413	 -0.047763	 0.149579	 2.281830	 -1.425606	 -0.382296	 -0.136928	 0.726953	 -0.643531	 0.196613	 1
1463623590.468	 15	 -0.033376	 -0.053958	 0.181364	 2.275610	 -1.424041	 -0.388053	 -0.136504	 0.727143	 -0.643186	 0.197335	 1
1463623590.478	 15	 -0.023677	 -0.058033	 0.210017	 2.267639	 -1.422319	 -0.395536	 -0.135977	 0.727311	 -0.642849	 0.198176	 1
1463623590.488	 15	 -0.020422	 -0.065326	 0.232302	 2.258461	 -1.420438	 -0.404183	 -0.135374	 0.727470	 -0.642505	 0.199119	 1
1463623590.498	 15	 -0.021512	 -0.078038	 0.237479	 2.258736	 -1.422475	 -0.403371	 -0.136024	 0.726920	 -0.643069	 0.198862	 1
1463623590.508	 15	 -0.022663	 -0.087677	 0.227808	 2.249304	 -1.420540	 -0.412045	 -0.135480	 0.727063	 -0.642700	 0.199902	 1
1463623590.518	 15	 -0.020676	 -0.096386	 0.201065	 2.240878	 -1.418775	 -0.419616	 -0.135043	 0.727178	 -0.642350	 0.200901	 1
1463623590.528	 15	 -0.021929	 -0.100939	 0.159469	 2.234078	 -1.417305	 -0.425475	 -0.134768	 0.727259	 -0.642035	 0.201802	 1
1463623590.538	 15	 -0.027391	 -0.094832	 0.115784	 2.260083	 -1.423420	 -0.398889	 -0.137425	 0.726505	 -0.643006	 0.199620	 1
1463623590.548	 15	 -0.036012	 -0.082305	 0.079739	 2.257219	 -1.422516	 -0.400910	 -0.137415	 0.726590	 -0.642733	 0.200196	 1
1463623590.558	 15	 -0.045638	 -0.066499	 0.055458	 2.256197	 -1.421771	 -0.401234	 -0.137464	 0.726701	 -0.642466	 0.200616	 1
1463623590.568	 15	 -0.049909	 -0.051726	 0.037514	 2.256476	 -1.421136	 -0.400391	 -0.137542	 0.726834	 -0.642205	 0.200915	 1
1463623590.578	 15	 -0.048803	 -0.034794	 0.023744	 2.278675	 -1.425437	 -0.378013	 -0.139463	 0.726390	 -0.642837	 0.199171	 1
1463623590.588	 15	 -0.038070	 -0.009406	 0.008966	 2.280082	 -1.425083	 -0.376453	 -0.139503	 0.726514	 -0.642669	 0.199231	 1
1463623590.598	 15	 -0.022101	 -0.021124	 0.012981	 2.280895	 -1.424822	 -0.375461	 -0.139547	 0.726594	 -0.642546	 0.199306	 1
1463623590.608	 15	 -0.018851	 -0.007337	 0.008818	 2.281317	 -1.424632	 -0.374923	 -0.139567	 0.726648	 -0.642462	 0.199364	 1
1463623590.618	 15	 -0.018896	 -0.024285	 0.017157	 2.294483	 -1.426286	 -0.361701	 -0.140485	 0.726596	 -0.642588	 0.198504	 1
1463623590.628	 15	 -0.017838	 -0.029575	 0.021361	 2.294180	 -1.426008	 -0.361703	 -0.140525	 0.726640	 -0.642479	 0.198667	 1
1463623590.638	 15	 -0.012492	 -0.027464	 0.021334	 2.293721	 -1.425748	 -0.361895	 -0.140549	 0.726676	 -0.642384	 0.198823	 1
1463623590.648	 15	 -0.008237	 -0.025381	 0.015964	 2.305253	 -1.426716	 -0.350228	 -0.141282	 0.726741	 -0.642344	 0.198193	 1
1463623590.658	 15	 -0.008219	 -0.015849	 0.009643	 2.313262	 -1.427236	 -0.342120	 -0.141762	 0.726821	 -0.642274	 0.197788	 1
1463623590.668	 15	 -0.004966	 -0.003098	 0.008655	 2.321415	 -1.427421	 -0.334001	 -0.142132	 0.727000	 -0.642109	 0.197397	 1
1463623590.678	 15	 0.002537	 0.000121	 0.015004	 2.329193	 -1.427218	 -0.326313	 -0.142390	 0.727275	 -0.641839	 0.197074	 1
1463623590.688	 15	 0.004704	 0.006515	 0.017170	 2.333753	 -1.427040	 -0.321872	 -0.142508	 0.727456	 -0.641669	 0.196874	 1
1463623590.698	 15	 -0.000652	 0.001220	 0.018233	 2.332837	 -1.426919	 -0.322825	 -0.142431	 0.727467	 -0.641659	 0.196923	 1
1463623590.708	 15	 -0.009189	 -0.004026	 0.024653	 2.332036	 -1.426707	 -0.323604	 -0.142363	 0.727502	 -0.641610	 0.197003	 1
1463623590.718	 15	 -0.017712	 -0.001866	 0.025813	 2.331576	 -1.426409	 -0.324029	 -0.142298	 0.727568	 -0.641523	 0.197089	 1
1463623590.728	 15	 -0.025163	 0.005590	 0.023809	 2.338232	 -1.425816	 -0.317476	 -0.142432	 0.727919	 -0.641160	 0.196876	 1
1463623590.738	 15	 -0.026201	 0.016202	 0.019647	 2.344387	 -1.425458	 -0.311514	 -0.142561	 0.728198	 -0.640896	 0.196611	 1
1463623590.748	 15	 -0.027234	 0.026822	 0.016547	 2.350809	 -1.425446	 -0.305394	 -0.142730	 0.728396	 -0.640749	 0.196236	 1
1463623590.758	 15	 -0.022935	 0.035306	 0.014449	 2.355995	 -1.425441	 -0.300586	 -0.142819	 0.728562	 -0.640647	 0.195888	 1
1463623590.768	 15	 -0.021838	 0.040631	 0.015545	 2.360896	 -1.425665	 -0.296126	 -0.142916	 0.728661	 -0.640634	 0.195492	 1
1463623590.778	 15	 -0.018634	 0.043791	 0.012341	 2.365008	 -1.425878	 -0.292474	 -0.142969	 0.728742	 -0.640641	 0.195126	 1
1463623590.788	 15	 -0.017584	 0.040591	 0.011229	 2.368063	 -1.426263	 -0.289863	 -0.143013	 0.728746	 -0.640731	 0.194783	 1
1463623590.798	 15	 -0.016521	 0.027744	 0.014313	 2.371481	 -1.426753	 -0.286784	 -0.143130	 0.728721	 -0.640837	 0.194440	 1
1463623590.808	 15	 -0.013364	 0.017107	 0.015244	 2.375132	 -1.427320	 -0.283367	 -0.143309	 0.728673	 -0.640953	 0.194107	 1
1463623590.818	 15	 -0.007007	 0.008565	 0.012969	 2.377851	 -1.427962	 -0.280784	 -0.143496	 0.728570	 -0.641110	 0.193836	 1
1463623590.828	 15	 -0.000625	 0.005341	 0.010744	 2.379890	 -1.428617	 -0.278835	 -0.143671	 0.728444	 -0.641284	 0.193607	 1
1463623590.838	 15	 0.002565	 0.003198	 0.009623	 2.382231	 -1.429317	 -0.276571	 -0.143871	 0.728310	 -0.641464	 0.193362	 1
1463623590.848	 15	 0.004667	 -0.002141	 0.007416	 2.384592	 -1.429934	 -0.274235	 -0.144076	 0.728196	 -0.641613	 0.193148	 1
1463623590.858	 15	 0.001480	 0.003165	 0.004291	 2.386250	 -1.430331	 -0.272621	 -0.144203	 0.728127	 -0.641708	 0.192995	 1
1463623590.868	 15	 -0.002743	 0.012752	 0.004411	 2.389253	 -1.430632	 -0.269751	 -0.144338	 0.728125	 -0.641747	 0.192772	 1
1463623590.878	 15	 -0.005911	 0.019153	 0.005560	 2.392304	 -1.430756	 -0.266904	 -0.144418	 0.728178	 -0.641735	 0.192555	 1
1463623590.888	 15	 -0.009094	 0.022362	 0.006679	 2.395062	 -1.430800	 -0.264392	 -0.144455	 0.728249	 -0.641707	 0.192349	 1
1463623590.898	 15	 -0.009115	 0.017052	 0.007693	 2.397131	 -1.430831	 -0.262533	 -0.144474	 0.728305	 -0.641688	 0.192187	 1
1463623590.908	 15	 -0.009130	 0.013862	 0.007660	 2.398954	 -1.430921	 -0.260868	 -0.144511	 0.728334	 -0.641689	 0.192043	 1
1463623590.918	 15	 -0.010197	 0.011753	 0.009779	 2.399541	 -1.431015	 -0.260403	 -0.144508	 0.728330	 -0.641718	 0.191963	 1
1463623590.928	 15	 -0.010191	 0.012819	 0.009781	 2.403016	 -1.431368	 -0.257089	 -0.144662	 0.728323	 -0.641770	 0.191703	 1
1463623590.938	 15	 -0.009122	 0.014928	 0.007656	 2.405253	 -1.431512	 -0.255016	 -0.144724	 0.728346	 -0.641781	 0.191530	 1
1463623590.948	 15	 -0.006992	 0.015971	 0.005511	 2.408050	 -1.431642	 -0.252398	 -0.144803	 0.728387	 -0.641776	 0.191331	 1
1463623590.958	 15	 -0.005965	 0.007459	 0.005417	 2.410354	 -1.431910	 -0.250210	 -0.144906	 0.728372	 -0.641824	 0.191151	 1
1463623590.968	 15	 -0.000658	 0.002118	 0.004252	 2.411989	 -1.432104	 -0.248625	 -0.144992	 0.728358	 -0.641856	 0.191033	 1
1463623590.978	 15	 0.000385	 -0.001091	 0.002077	 2.414206	 -1.432323	 -0.246427	 -0.145119	 0.728347	 -0.641880	 0.190896	 1
1463623590.988	 15	 0.001441	 -0.004276	 0.003100	 2.415681	 -1.432482	 -0.244938	 -0.145215	 0.728334	 -0.641898	 0.190811	 1
1463623590.998	 15	 0.002512	 -0.006383	 0.006265	 2.416852	 -1.432706	 -0.243733	 -0.145316	 0.728294	 -0.641944	 0.190736	 1
1463623591.008	 15	 0.005732	 -0.004249	 0.008386	 2.417071	 -1.432886	 -0.243474	 -0.145370	 0.728244	 -0.641995	 0.190711	 1
1463623591.018	 15	 0.004657	 -0.004261	 0.006261	 2.417632	 -1.433049	 -0.242889	 -0.145431	 0.728208	 -0.642035	 0.190669	 1
1463623591.028	 15	 0.001447	 -0.003211	 0.003099	 2.418663	 -1.433158	 -0.241837	 -0.145501	 0.728198	 -0.642046	 0.190614	 1
1463623591.038	 15	 -0.000674	 -0.002125	 0.005257	 2.419241	 -1.433188	 -0.241254	 -0.145533	 0.728202	 -0.642043	 0.190586	 1
1463623591.048	 15	 -0.001747	 -0.004241	 0.006312	 2.419382	 -1.433163	 -0.241088	 -0.145544	 0.728211	 -0.642029	 0.190592	 1
1463623591.058	 15	 -0.004968	 -0.008486	 0.006298	 2.419975	 -1.433179	 -0.240435	 -0.145594	 0.728215	 -0.642015	 0.190583	 1
1463623591.068	 15	 -0.006061	 -0.013801	 0.006257	 2.420769	 -1.433164	 -0.239519	 -0.145670	 0.728228	 -0.641981	 0.190590	 1
1463623591.078	 15	 -0.008201	 -0.014858	 0.006263	 2.421749	 -1.433141	 -0.238396	 -0.145761	 0.728246	 -0.641937	 0.190598	 1
1463623591.088	 15	 -0.008195	 -0.012738	 0.005214	 2.423046	 -1.433153	 -0.236973	 -0.145865	 0.728263	 -0.641901	 0.190580	 1
1463623591.098	 15	 -0.006036	 -0.007425	 0.005242	 2.424407	 -1.433223	 -0.235540	 -0.145961	 0.728268	 -0.641887	 0.190534	 1
1463623591.108	 15	 -0.002829	 -0.005315	 0.004165	 2.425324	 -1.433280	 -0.234576	 -0.146028	 0.728268	 -0.641881	 0.190500	 1
1463623591.118	 15	 0.000385	 -0.000029	 0.000988	 2.425696	 -1.433349	 -0.234194	 -0.146059	 0.728255	 -0.641895	 0.190477	 1
1463623591.128	 15	 0.004634	 -0.003241	 -0.000144	 2.425441	 -1.433349	 -0.234423	 -0.146058	 0.728248	 -0.641898	 0.190496	 1
1463623591.138	 15	 0.005686	 -0.006435	 -0.000183	 2.424731	 -1.433370	 -0.235072	 -0.146052	 0.728222	 -0.641915	 0.190543	 1
1463623591.148	 15	 0.006776	 -0.005344	 0.004082	 2.423714	 -1.433338	 -0.236033	 -0.146023	 0.728204	 -0.641922	 0.190609	 1
1463623591.158	 15	 0.003604	 -0.000009	 0.005227	 2.422688	 -1.433266	 -0.237037	 -0.145975	 0.728201	 -0.641918	 0.190672	 1
1463623591.168	 15	 0.004698	 0.003202	 0.008445	 2.421926	 -1.433183	 -0.237825	 -0.145919	 0.728209	 -0.641910	 0.190710	 1
1463623591.178	 15	 0.001522	 0.009586	 0.007467	 2.421508	 -1.433071	 -0.238328	 -0.145851	 0.728238	 -0.641890	 0.190718	 1
1463623591.188	 15	 0.000473	 0.012788	 0.008572	 2.421711	 -1.432948	 -0.238251	 -0.145793	 0.728288	 -0.641856	 0.190688	 1
1463623591.198	 15	 -0.000571	 0.015998	 0.010742	 2.421896	 -1.432838	 -0.238231	 -0.145723	 0.728336	 -0.641830	 0.190645	 1
1463623591.208	 15	 -0.002716	 0.013877	 0.010740	 2.422032	 -1.432782	 -0.238253	 -0.145662	 0.728367	 -0.641824	 0.190597	 1
1463623591.218	 15	 -0.004880	 0.008557	 0.009642	 2.422258	 -1.432739	 -0.238132	 -0.145626	 0.728392	 -0.641814	 0.190560	 1
1463623591.228	 15	 -0.007014	 0.008564	 0.009660	 2.422231	 -1.432700	 -0.238248	 -0.145586	 0.728409	 -0.641810	 0.190539	 1
1463623591.238	 15	 -0.007012	 0.008564	 0.009658	 2.422052	 -1.432734	 -0.238508	 -0.145554	 0.728401	 -0.641833	 0.190515	 1
1463623591.248	 15	 -0.008049	 0.013893	 0.010782	 2.422108	 -1.432724	 -0.238578	 -0.145509	 0.728414	 -0.641841	 0.190474	 1
1463623591.258	 15	 -0.003760	 0.017079	 0.011839	 2.422007	 -1.432736	 -0.238844	 -0.145447	 0.728421	 -0.641863	 0.190424	 1
1463623591.268	 15	 -0.004824	 0.018138	 0.010790	 2.421870	 -1.432789	 -0.239166	 -0.145382	 0.728416	 -0.641901	 0.190362	 1
1463623591.278	 15	 -0.003758	 0.014967	 0.013946	 2.422174	 -1.432880	 -0.239038	 -0.145347	 0.728409	 -0.641942	 0.190278	 1
1463623591.288	 15	 0.001526	 0.006419	 0.010619	 2.422567	 -1.433054	 -0.238747	 -0.145356	 0.728375	 -0.642001	 0.190201	 1
1463623591.298	 15	 0.002562	 0.003195	 0.006314	 2.422959	 -1.433235	 -0.238400	 -0.145387	 0.728334	 -0.642058	 0.190141	 1
1463623591.308	 15	 -0.000634	 0.005324	 0.005293	 2.423400	 -1.433312	 -0.238017	 -0.145397	 0.728326	 -0.642079	 0.190091	 1
1463623591.318	 15	 -0.002758	 0.006402	 0.006386	 2.423420	 -1.433344	 -0.238061	 -0.145381	 0.728322	 -0.642096	 0.190065	 1
1463623591.328	 15	 -0.002739	 0.008545	 0.008537	 2.423087	 -1.433337	 -0.238475	 -0.145335	 0.728323	 -0.642109	 0.190054	 1
1463623591.338	 15	 -0.002724	 0.008568	 0.011733	 2.422709	 -1.433374	 -0.238949	 -0.145290	 0.728310	 -0.642138	 0.190034	 1
1463623591.348	 15	 0.003656	 -0.000986	 0.016916	 2.421861	 -1.433441	 -0.239829	 -0.145254	 0.728274	 -0.642183	 0.190050	 1
1463623591.358	 15	 0.014292	 -0.010575	 0.018864	 2.419988	 -1.433558	 -0.241636	 -0.145217	 0.728194	 -0.642258	 0.190133	 1
1463623591.368	 15	 0.015353	 -0.013754	 0.020955	 2.418482	 -1.433640	 -0.243027	 -0.145208	 0.728128	 -0.642309	 0.190222	 1
1463623591.378	 15	 0.010028	 -0.010555	 0.019965	 2.417060	 -1.433634	 -0.244348	 -0.145183	 0.728090	 -0.642329	 0.190316	 1
1463623591.388	 15	 0.003676	 0.001158	 0.019061	 2.416794	 -1.433605	 -0.244627	 -0.145162	 0.728094	 -0.642326	 0.190328	 1
1463623591.398	 15	 -0.000551	 0.012848	 0.016007	 2.417073	 -1.433531	 -0.244469	 -0.145117	 0.728130	 -0.642307	 0.190289	 1
1463623591.408	 15	 -0.001610	 0.017083	 0.012856	 2.417218	 -1.433552	 -0.244495	 -0.145064	 0.728140	 -0.642327	 0.190224	 1
1463623591.418	 15	 -0.000555	 0.016001	 0.010702	 2.417279	 -1.433662	 -0.244609	 -0.145022	 0.728122	 -0.642379	 0.190148	 1
1463623591.428	 15	 0.002603	 0.007474	 0.009528	 2.416990	 -1.433776	 -0.245002	 -0.144991	 0.728090	 -0.642434	 0.190109	 1
1463623591.438	 15	 0.006844	 0.003191	 0.007318	 2.416349	 -1.433875	 -0.245692	 -0.144963	 0.728051	 -0.642486	 0.190105	 1
1463623591.448	 15	 0.004671	 -0.004256	 0.006201	 2.415627	 -1.433958	 -0.246392	 -0.144954	 0.728009	 -0.642528	 0.190129	 1
1463623591.458	 15	 0.002532	 -0.007425	 0.008322	 2.414688	 -1.434004	 -0.247260	 -0.144947	 0.727969	 -0.642558	 0.190185	 1
1463623591.468	 15	 -0.000653	 -0.003169	 0.007322	 2.414331	 -1.434059	 -0.247579	 -0.144956	 0.727942	 -0.642581	 0.190204	 1
1463623591.478	 15	 -0.000637	 0.000022	 0.007350	 2.414110	 -1.434108	 -0.247800	 -0.144955	 0.727923	 -0.642602	 0.190205	 1
1463623591.488	 15	 0.003633	 0.001066	 0.006256	 2.413740	 -1.434138	 -0.248181	 -0.144940	 0.727907	 -0.642622	 0.190213	 1
1463623591.498	 15	 0.008954	 -0.001085	 0.005123	 2.413398	 -1.434191	 -0.248527	 -0.144933	 0.727884	 -0.642648	 0.190218	 1
1463623591.508	 15	 0.008918	 -0.007475	 0.003999	 2.412984	 -1.434158	 -0.248891	 -0.144928	 0.727881	 -0.642641	 0.190257	 1
1463623591.518	 15	 0.002479	 -0.013846	 0.002930	 2.412876	 -1.434055	 -0.248878	 -0.144949	 0.727899	 -0.642598	 0.190317	 1
1463623591.528	 15	 -0.001826	 -0.020223	 0.001843	 2.412931	 -1.433942	 -0.248635	 -0.145001	 0.727919	 -0.642541	 0.190393	 1
1463623591.538	 15	 -0.005019	 -0.018086	 0.001891	 2.413403	 -1.433813	 -0.247976	 -0.145067	 0.727954	 -0.642469	 0.190454	 1
1463623591.548	 15	 -0.006055	 -0.009589	 -0.000151	 2.413195	 -1.433687	 -0.248060	 -0.145082	 0.727976	 -0.642420	 0.190522	 1
1463623591.558	 15	 -0.003876	 -0.001079	 0.000977	 2.412593	 -1.433585	 -0.248627	 -0.145051	 0.727989	 -0.642396	 0.190575	 1
1463623591.568	 15	 0.003619	 0.003161	 0.002019	 2.411485	 -1.433542	 -0.249744	 -0.144993	 0.727977	 -0.642408	 0.190627	 1
1463623591.578	 15	 0.005744	 0.001027	 0.001983	 2.410515	 -1.433498	 -0.250728	 -0.144939	 0.727969	 -0.642416	 0.190671	 1
1463623591.588	 15	 0.007876	 -0.001092	 0.004077	 2.409439	 -1.433465	 -0.251798	 -0.144890	 0.727953	 -0.642429	 0.190724	 1
1463623591.598	 15	 0.008938	 -0.002159	 0.004060	 2.408384	 -1.433435	 -0.252837	 -0.144845	 0.727936	 -0.642442	 0.190779	 1
1463623591.608	 15	 0.005754	 0.001049	 0.005185	 2.407607	 -1.433310	 -0.253606	 -0.144793	 0.727954	 -0.642417	 0.190835	 1
1463623591.618	 15	 0.002591	 0.007456	 0.007405	 2.406754	 -1.433187	 -0.254520	 -0.144713	 0.727974	 -0.642402	 0.190872	 1
1463623591.628	 15	 0.001569	 0.017032	 0.007505	 2.406035	 -1.433060	 -0.255383	 -0.144608	 0.728004	 -0.642390	 0.190877	 1
1463623591.638	 15	 0.005857	 0.020218	 0.008564	 2.405286	 -1.433022	 -0.256333	 -0.144496	 0.728012	 -0.642413	 0.190851	 1
1463623591.648	 15	 0.009069	 0.022336	 0.008555	 2.404414	 -1.433080	 -0.257439	 -0.144384	 0.727992	 -0.642475	 0.190804	 1
1463623591.658	 15	 0.010148	 0.024460	 0.008565	 2.403454	 -1.433152	 -0.258640	 -0.144268	 0.727967	 -0.642545	 0.190755	 1
1463623591.668	 15	 0.011216	 0.025512	 0.007499	 2.402947	 -1.433229	 -0.259413	 -0.144162	 0.727952	 -0.642608	 0.190679	 1
1463623591.678	 15	 0.008019	 0.026586	 0.007535	 2.402969	 -1.433292	 -0.259664	 -0.144075	 0.727954	 -0.642654	 0.190580	 1
1463623591.688	 15	 0.005891	 0.028712	 0.006506	 2.403101	 -1.433363	 -0.259832	 -0.143984	 0.727959	 -0.642703	 0.190466	 1
1463623591.698	 15	 0.006952	 0.027645	 0.006485	 2.403326	 -1.433423	 -0.259901	 -0.143897	 0.727968	 -0.642746	 0.190353	 1
1463623591.708	 15	 0.005878	 0.026577	 0.005417	 2.402931	 -1.433548	 -0.260571	 -0.143802	 0.727943	 -0.642823	 0.190260	 1
1463623591.718	 15	 0.005867	 0.022338	 0.007508	 2.402562	 -1.433647	 -0.261181	 -0.143716	 0.727923	 -0.642888	 0.190183	 1
1463623591.728	 15	 0.004777	 0.018078	 0.006412	 2.401847	 -1.433734	 -0.262095	 -0.143628	 0.727896	 -0.642952	 0.190135	 1
1463623591.738	 15	 0.004778	 0.015966	 0.008523	 2.400967	 -1.433858	 -0.263138	 -0.143553	 0.727852	 -0.643029	 0.190100	 1
1463623591.748	 15	 0.004792	 0.015989	 0.011719	 2.400313	 -1.433916	 -0.263964	 -0.143473	 0.727832	 -0.643080	 0.190063	 1
1463623591.758	 15	 0.005889	 0.020256	 0.013878	 2.399858	 -1.433999	 -0.264618	 -0.143396	 0.727812	 -0.643137	 0.190004	 1
1463623591.768	 15	 0.008015	 0.020235	 0.011728	 2.398975	 -1.433979	 -0.265703	 -0.143282	 0.727812	 -0.643170	 0.189980	 1
1463623591.778	 15	 0.010151	 0.021284	 0.010650	 2.398698	 -1.434149	 -0.266210	 -0.143216	 0.727773	 -0.643255	 0.189890	 1
1463623591.788	 15	 0.009085	 0.022344	 0.009601	 2.398825	 -1.434262	 -0.266318	 -0.143156	 0.727761	 -0.643312	 0.189790	 1
1463623591.798	 15	 0.005874	 0.021282	 0.008551	 2.398855	 -1.434329	 -0.266509	 -0.143089	 0.727758	 -0.643354	 0.189707	 1
1463623591.808	 15	 0.002677	 0.021300	 0.009642	 2.399002	 -1.434410	 -0.266588	 -0.143027	 0.727755	 -0.643399	 0.189614	 1
1463623591.818	 15	 0.003756	 0.016946	 0.008537	 2.398988	 -1.434529	 -0.266793	 -0.142978	 0.727734	 -0.643457	 0.189534	 1
1463623591.828	 15	 0.004810	 0.016920	 0.005328	 2.399181	 -1.434649	 -0.266774	 -0.142944	 0.727717	 -0.643509	 0.189450	 1
1463623591.838	 15	 0.006965	 0.020112	 0.006403	 2.398745	 -1.434760	 -0.267402	 -0.142875	 0.727689	 -0.643575	 0.189388	 1
1463623591.848	 15	 0.006971	 0.020120	 0.007468	 2.398390	 -1.434873	 -0.267971	 -0.142802	 0.727663	 -0.643641	 0.189315	 1
1463623591.858	 15	 0.006971	 0.019064	 0.008522	 2.397674	 -1.435004	 -0.268884	 -0.142723	 0.727624	 -0.643719	 0.189261	 1
1463623591.868	 15	 0.004819	 0.015871	 0.007444	 2.397342	 -1.435120	 -0.269394	 -0.142665	 0.727595	 -0.643782	 0.189198	 1
1463623591.878	 15	 0.004800	 0.012673	 0.006347	 2.397224	 -1.435261	 -0.269659	 -0.142632	 0.727563	 -0.643846	 0.189132	 1
1463623591.888	 15	 0.006929	 0.013707	 0.003138	 2.396944	 -1.435463	 -0.270080	 -0.142604	 0.727509	 -0.643932	 0.189065	 1
1463623591.898	 15	 0.005873	 0.015837	 0.003165	 2.396994	 -1.435678	 -0.270203	 -0.142582	 0.727461	 -0.644019	 0.188972	 1
1463623591.908	 15	 0.003755	 0.017979	 0.004267	 2.396726	 -1.435869	 -0.270655	 -0.142538	 0.727414	 -0.644106	 0.188892	 1
1463623591.918	 15	 0.003752	 0.016915	 0.004256	 2.396401	 -1.436040	 -0.271152	 -0.142492	 0.727369	 -0.644186	 0.188822	 1
1463623591.928	 15	 0.003783	 0.022241	 0.005369	 2.396278	 -1.436175	 -0.271487	 -0.142434	 0.727343	 -0.644254	 0.188736	 1
1463623591.938	 15	 0.005935	 0.027538	 0.003267	 2.396016	 -1.436289	 -0.272017	 -0.142346	 0.727324	 -0.644323	 0.188642	 1
1463623591.948	 15	 0.010205	 0.028581	 0.002172	 2.396150	 -1.436422	 -0.272179	 -0.142267	 0.727310	 -0.644392	 0.188519	 1
1463623591.958	 15	 0.008026	 0.020070	 0.001045	 2.396471	 -1.436537	 -0.272104	 -0.142211	 0.727302	 -0.644446	 0.188407	 1
1463623591.968	 15	 0.002621	 0.007307	 -0.001160	 2.397155	 -1.436635	 -0.271533	 -0.142216	 0.727298	 -0.644473	 0.188326	 1
1463623591.978	 15	 -0.005945	 -0.001154	 0.002032	 2.398053	 -1.436599	 -0.270643	 -0.142244	 0.727330	 -0.644441	 0.188292	 1
1463623591.988	 15	 -0.007014	 -0.003262	 0.004153	 2.398399	 -1.436509	 -0.270271	 -0.142252	 0.727361	 -0.644401	 0.188301	 1
1463623591.998	 15	 -0.001639	 0.002063	 0.007352	 2.398080	 -1.436542	 -0.270600	 -0.142240	 0.727345	 -0.644420	 0.188306	 1
1463623592.008	 15	 0.006922	 0.004188	 0.010494	 2.396971	 -1.436618	 -0.271749	 -0.142193	 0.727301	 -0.644475	 0.188326	 1
1463623592.018	 15	 0.013321	 0.002049	 0.011484	 2.395417	 -1.436738	 -0.273337	 -0.142138	 0.727233	 -0.644553	 0.188360	 1
1463623592.028	 15	 0.016498	 -0.002223	 0.010350	 2.393951	 -1.436828	 -0.274803	 -0.142093	 0.727174	 -0.644617	 0.188405	 1
1463623592.038	 15	 0.013316	 0.002041	 0.010418	 2.392842	 -1.436777	 -0.275935	 -0.142030	 0.727164	 -0.644628	 0.188452	 1
1463623592.048	 15	 0.009078	 0.010548	 0.008402	 2.392435	 -1.436724	 -0.276436	 -0.141970	 0.727176	 -0.644629	 0.188447	 1
1463623592.058	 15	 0.004843	 0.019062	 0.007453	 2.392701	 -1.436596	 -0.276353	 -0.141892	 0.727232	 -0.644598	 0.188399	 1
1463623592.068	 15	 0.000603	 0.025457	 0.007550	 2.392565	 -1.436415	 -0.276733	 -0.141765	 0.727298	 -0.644564	 0.188356	 1
1463623592.078	 15	 -0.000456	 0.026532	 0.008636	 2.392486	 -1.436266	 -0.277076	 -0.141639	 0.727357	 -0.644542	 0.188299	 1
1463623592.088	 15	 0.000609	 0.024416	 0.010740	 2.391961	 -1.436136	 -0.277854	 -0.141502	 0.727400	 -0.644535	 0.188261	 1
1463623592.098	 15	 0.003801	 0.022279	 0.010693	 2.391062	 -1.436095	 -0.278985	 -0.141373	 0.727407	 -0.644564	 0.188231	 1
1463623592.108	 15	 0.003820	 0.024422	 0.012845	 2.389984	 -1.436056	 -0.280311	 -0.141231	 0.727410	 -0.644600	 0.188202	 1
1463623592.118	 15	 0.001668	 0.023341	 0.009655	 2.389757	 -1.436049	 -0.280784	 -0.141131	 0.727424	 -0.644626	 0.188133	 1
1463623592.128	 15	 -0.001552	 0.020152	 0.008587	 2.389541	 -1.436069	 -0.281211	 -0.141049	 0.727428	 -0.644658	 0.188071	 1
1463623592.138	 15	 -0.002646	 0.014829	 0.007479	 2.389269	 -1.436152	 -0.281648	 -0.140992	 0.727410	 -0.644707	 0.188014	 1
1463623592.148	 15	 -0.002654	 0.013758	 0.006402	 2.389056	 -1.436219	 -0.282001	 -0.140945	 0.727396	 -0.644747	 0.187967	 1
1463623592.158	 15	 0.001620	 0.013753	 0.007430	 2.388775	 -1.436283	 -0.282422	 -0.140894	 0.727381	 -0.644788	 0.187923	 1
1463623592.168	 15	 0.001581	 0.005243	 0.007350	 2.388410	 -1.436346	 -0.282876	 -0.140858	 0.727361	 -0.644825	 0.187898	 1
1463623592.178	 15	 0.002604	 -0.003277	 0.006194	 2.388206	 -1.436447	 -0.283071	 -0.140871	 0.727326	 -0.644863	 0.187893	 1
1463623592.188	 15	 0.001513	 -0.007536	 0.005096	 2.388042	 -1.436517	 -0.283165	 -0.140902	 0.727298	 -0.644883	 0.187910	 1
1463623592.198	 15	 -0.000621	 -0.007530	 0.005115	 2.387651	 -1.436517	 -0.283478	 -0.140914	 0.727283	 -0.644885	 0.187951	 1
1463623592.208	 15	 -0.000580	 0.000980	 0.005193	 2.387469	 -1.436497	 -0.283652	 -0.140906	 0.727284	 -0.644882	 0.187965	 1
1463623592.218	 15	 0.001599	 0.007378	 0.008431	 2.386537	 -1.436536	 -0.284636	 -0.140856	 0.727255	 -0.644922	 0.187980	 1
1463623592.228	 15	 0.002661	 0.005255	 0.009468	 2.385543	 -1.436533	 -0.285689	 -0.140793	 0.727236	 -0.644949	 0.188003	 1
1463623592.238	 15	 0.003738	 0.000966	 0.010470	 2.384439	 -1.436552	 -0.286815	 -0.140743	 0.727206	 -0.644984	 0.188037	 1
1463623592.248	 15	 0.003719	 -0.002233	 0.009375	 2.383292	 -1.436580	 -0.287953	 -0.140704	 0.727171	 -0.645019	 0.188083	 1
1463623592.258	 15	 0.004798	 -0.000109	 0.009385	 2.382355	 -1.436642	 -0.288889	 -0.140677	 0.727131	 -0.645062	 0.188111	 1
1463623592.268	 15	 0.003757	 0.006268	 0.008387	 2.381375	 -1.436625	 -0.289925	 -0.140614	 0.727116	 -0.645085	 0.188136	 1
1463623592.278	 15	 0.003793	 0.013714	 0.008456	 2.380671	 -1.436641	 -0.290749	 -0.140544	 0.727103	 -0.645118	 0.188123	 1
1463623592.288	 15	 0.002755	 0.019043	 0.009580	 2.380406	 -1.436586	 -0.291191	 -0.140459	 0.727125	 -0.645123	 0.188086	 1
1463623592.298	 15	 0.005942	 0.016898	 0.008466	 2.380132	 -1.436585	 -0.291648	 -0.140381	 0.727132	 -0.645147	 0.188039	 1
1463623592.308	 15	 0.003788	 0.012650	 0.008445	 2.379864	 -1.436609	 -0.292068	 -0.140320	 0.727129	 -0.645175	 0.187997	 1
1463623592.318	 15	 0.001628	 0.007338	 0.008413	 2.379906	 -1.436628	 -0.292125	 -0.140288	 0.727132	 -0.645190	 0.187960	 1
1463623592.328	 15	 -0.001570	 0.006300	 0.010561	 2.380391	 -1.436611	 -0.291720	 -0.140276	 0.727154	 -0.645180	 0.187917	 1
1463623592.338	 15	 -0.002637	 0.007359	 0.009511	 2.381248	 -1.436628	 -0.290950	 -0.140283	 0.727175	 -0.645173	 0.187851	 1
1463623592.348	 15	 -0.003701	 0.011586	 0.005295	 2.381972	 -1.436667	 -0.290340	 -0.140278	 0.727190	 -0.645180	 0.187778	 1
1463623592.358	 15	 -0.002643	 0.010512	 0.004208	 2.382469	 -1.436742	 -0.289954	 -0.140272	 0.727188	 -0.645203	 0.187709	 1
1463623592.368	 15	 0.000534	 0.005184	 0.004129	 2.382513	 -1.436837	 -0.289981	 -0.140265	 0.727167	 -0.645240	 0.187668	 1
1463623592.378	 15	 0.000504	 -0.002254	 0.005126	 2.382148	 -1.436860	 -0.290341	 -0.140256	 0.727152	 -0.645255	 0.187681	 1
1463623592.388	 15	 0.000487	 -0.006442	 0.005020	 2.381829	 -1.436843	 -0.290603	 -0.140261	 0.727145	 -0.645252	 0.187715	 1
1463623592.398	 15	 0.000487	 -0.007498	 0.006077	 2.381090	 -1.436838	 -0.291263	 -0.140258	 0.727123	 -0.645260	 0.187772	 1
1463623592.408	 15	 -0.001614	 -0.002158	 0.008276	 2.380856	 -1.436769	 -0.291464	 -0.140248	 0.727135	 -0.645240	 0.187804	 1
1463623592.418	 15	 -0.001584	 0.004224	 0.008335	 2.380630	 -1.436714	 -0.291720	 -0.140218	 0.727147	 -0.645230	 0.187813	 1
1463623592.428	 15	 -0.003702	 0.007421	 0.008383	 2.380366	 -1.436650	 -0.292050	 -0.140171	 0.727164	 -0.645222	 0.187813	 1
1463623592.438	 15	 -0.003711	 0.007406	 0.006251	 2.380348	 -1.436592	 -0.292143	 -0.140133	 0.727185	 -0.645210	 0.187800	 1
1463623592.448	 15	 -0.001572	 0.007407	 0.007298	 2.380307	 -1.436561	 -0.292261	 -0.140097	 0.727198	 -0.645208	 0.187781	 1
1463623592.458	 15	 -0.002625	 0.009545	 0.008392	 2.380193	 -1.436551	 -0.292469	 -0.140057	 0.727204	 -0.645217	 0.187758	 1
1463623592.468	 15	 -0.003691	 0.010604	 0.007344	 2.380333	 -1.436555	 -0.292440	 -0.140023	 0.727215	 -0.645225	 0.187715	 1
1463623592.478	 15	 -0.004756	 0.011664	 0.006296	 2.380702	 -1.436593	 -0.292187	 -0.140002	 0.727221	 -0.645240	 0.187656	 1
1463623592.488	 15	 -0.003686	 0.014828	 0.003117	 2.380991	 -1.436663	 -0.292044	 -0.139974	 0.727218	 -0.645269	 0.187586	 1
1463623592.498	 15	 -0.003674	 0.018012	 0.002080	 2.381587	 -1.436717	 -0.291618	 -0.139946	 0.727229	 -0.645289	 0.187497	 1
1463623592.508	 15	 -0.001558	 0.015862	 -0.000091	 2.382056	 -1.436802	 -0.291315	 -0.139921	 0.727228	 -0.645321	 0.187409	 1
1463623592.518	 15	 -0.002649	 0.011603	 -0.001188	 2.382343	 -1.436855	 -0.291159	 -0.139895	 0.727229	 -0.645344	 0.187347	 1
1463623592.528	 15	 -0.002673	 0.007341	 -0.002294	 2.382744	 -1.436904	 -0.290840	 -0.139890	 0.727230	 -0.645358	 0.187295	 1
1463623592.538	 15	 -0.002673	 0.007341	 -0.002294	 2.383139	 -1.436911	 -0.290522	 -0.139880	 0.727243	 -0.645358	 0.187253	 1
1463623592.548	 15	 -0.002662	 0.010574	 -0.001308	 2.383438	 -1.436926	 -0.290316	 -0.139861	 0.727252	 -0.645365	 0.187208	 1
1463623592.558	 15	 -0.003699	 0.015904	 -0.000184	 2.383952	 -1.436973	 -0.289939	 -0.139841	 0.727261	 -0.645381	 0.187135	 1
1463623592.568	 15	 -0.003704	 0.015896	 -0.001250	 2.384379	 -1.436937	 -0.289669	 -0.139795	 0.727292	 -0.645374	 0.187073	 1
1463623592.578	 15	 -0.003726	 0.013745	 -0.004467	 2.384607	 -1.436980	 -0.289589	 -0.139758	 0.727296	 -0.645397	 0.187008	 1
1463623592.588	 15	 -0.005876	 0.009505	 -0.003421	 2.384754	 -1.436977	 -0.289540	 -0.139728	 0.727307	 -0.645401	 0.186971	 1
1463623592.598	 15	 -0.006917	 0.014826	 -0.003362	 2.385156	 -1.436931	 -0.289268	 -0.139689	 0.727338	 -0.645389	 0.186921	 1
1463623592.608	 15	 -0.005822	 0.018037	 -0.000145	 2.385309	 -1.436912	 -0.289290	 -0.139628	 0.727359	 -0.645395	 0.186861	 1
1463623592.618	 15	 -0.004734	 0.021232	 0.000942	 2.385280	 -1.436914	 -0.289509	 -0.139558	 0.727372	 -0.645414	 0.186801	 1
1463623592.628	 15	 -0.003637	 0.026555	 0.002047	 2.385597	 -1.436948	 -0.289440	 -0.139487	 0.727387	 -0.645441	 0.186702	 1
1463623592.638	 15	 0.000642	 0.028669	 0.002028	 2.386217	 -1.437010	 -0.289105	 -0.139420	 0.727404	 -0.645474	 0.186574	 1
1463623592.648	 15	 0.000624	 0.027583	 -0.001181	 2.386999	 -1.437126	 -0.288615	 -0.139367	 0.727410	 -0.645521	 0.186428	 1
1463623592.658	 15	 -0.001559	 0.019064	 -0.003374	 2.387911	 -1.437210	 -0.287924	 -0.139339	 0.727423	 -0.645547	 0.186305	 1
1463623592.668	 15	 -0.004780	 0.015875	 -0.004442	 2.388717	 -1.437271	 -0.287275	 -0.139326	 0.727435	 -0.645563	 0.186211	 1
1463623592.678	 15	 -0.022473	 0.105324	 0.002938	 2.391901	 -1.437059	 -0.284846	 -0.139144	 0.727622	 -0.645489	 0.185873	 1
1463623592.688	 15	 0.016732	 0.055136	 -0.008527	 2.391689	 -1.437169	 -0.285813	 -0.138880	 0.727639	 -0.645600	 0.185619	 1
1463623592.698	 15	 0.024917	 -0.027787	 0.000223	 2.388054	 -1.437520	 -0.289335	 -0.138835	 0.727447	 -0.645790	 0.185745	 1
1463623592.708	 15	 0.002611	 -0.012632	 0.013227	 2.386700	 -1.437403	 -0.290474	 -0.138837	 0.727433	 -0.645764	 0.185889	 1
1463623592.718	 15	 0.003890	 0.029935	 0.016810	 2.386992	 -1.437076	 -0.290410	 -0.138707	 0.727548	 -0.645671	 0.185860	 1
1463623592.728	 15	 0.009236	 0.032046	 0.016783	 2.385858	 -1.437043	 -0.291897	 -0.138526	 0.727555	 -0.645719	 0.185798	 1
1463623592.738	 15	 0.008094	 0.020311	 0.011355	 2.384334	 -1.437114	 -0.293656	 -0.138391	 0.727515	 -0.645800	 0.185772	 1
1463623592.748	 15	 0.006040	 0.038392	 0.010475	 2.384153	 -1.437086	 -0.294158	 -0.138262	 0.727541	 -0.645825	 0.185681	 1
1463623592.758	 15	 0.011416	 0.046885	 0.010507	 2.383862	 -1.437042	 -0.294935	 -0.138065	 0.727580	 -0.645863	 0.185543	 1
1463623592.768	 15	 0.014573	 0.038358	 0.009334	 2.383059	 -1.437086	 -0.296159	 -0.137888	 0.727578	 -0.645935	 0.185432	 1
1463623592.778	 15	 0.006015	 0.035185	 0.008313	 2.382865	 -1.437056	 -0.296715	 -0.137742	 0.727606	 -0.645964	 0.185328	 1
1463623592.788	 15	 -0.002512	 0.037338	 0.008407	 2.383420	 -1.436971	 -0.296542	 -0.137610	 0.727670	 -0.645958	 0.185197	 1
1463623592.798	 15	 -0.006811	 0.032025	 0.007329	 2.383951	 -1.436892	 -0.296357	 -0.137492	 0.727729	 -0.645952	 0.185077	 1
1463623592.808	 15	 -0.014310	 0.026721	 0.006278	 2.384779	 -1.436799	 -0.295808	 -0.137407	 0.727794	 -0.645927	 0.184969	 1
1463623592.818	 15	 -0.021817	 0.021402	 0.003096	 2.386047	 -1.436747	 -0.294769	 -0.137366	 0.727854	 -0.645901	 0.184852	 1
1463623592.828	 15	 -0.026139	 0.011826	 0.000912	 2.387494	 -1.436684	 -0.293452	 -0.137367	 0.727915	 -0.645858	 0.184762	 1
1463623592.838	 15	 -0.028301	 0.007562	 -0.001242	 2.389056	 -1.436594	 -0.291952	 -0.137392	 0.727982	 -0.645797	 0.184693	 1
1463623592.848	 15	 -0.025070	 0.011823	 0.000900	 2.390438	 -1.436544	 -0.290661	 -0.137407	 0.728035	 -0.645757	 0.184615	 1
1463623592.858	 15	 -0.019752	 0.009664	 -0.001299	 2.392045	 -1.436521	 -0.289159	 -0.137431	 0.728086	 -0.645721	 0.184519	 1
1463623592.868	 15	 -0.017714	 -0.001981	 -0.005830	 2.393543	 -1.436575	 -0.287660	 -0.137502	 0.728106	 -0.645704	 0.184448	 1
1463623592.878	 15	 -0.016679	 -0.006262	 -0.009077	 2.394993	 -1.436655	 -0.286148	 -0.137599	 0.728113	 -0.645690	 0.184395	 1
1463623592.888	 15	 -0.019869	 -0.002014	 -0.011142	 2.396967	 -1.436678	 -0.284143	 -0.137695	 0.728151	 -0.645649	 0.184320	 1
1463623592.898	 15	 -0.025202	 0.001170	 -0.014264	 2.399127	 -1.436628	 -0.281974	 -0.137779	 0.728215	 -0.645581	 0.184242	 1
1463623592.908	 15	 -0.031610	 0.000126	 -0.014219	 2.401699	 -1.436544	 -0.279389	 -0.137875	 0.728297	 -0.645493	 0.184154	 1
1463623592.918	 15	 -0.034787	 0.004398	 -0.013086	 2.404378	 -1.436376	 -0.276724	 -0.137952	 0.728408	 -0.645376	 0.184066	 1
1463623592.928	 15	 -0.045473	 0.002295	 -0.014078	 2.407569	 -1.436140	 -0.273548	 -0.138037	 0.728550	 -0.645226	 0.183968	 1
1463623592.938	 15	 -0.070166	 -0.024262	 -0.019440	 2.412160	 -1.435788	 -0.268761	 -0.138239	 0.728742	 -0.644986	 0.183897	 1
1463623592.948	 15	 -0.097060	 -0.060424	 -0.030200	 2.418404	 -1.435263	 -0.261957	 -0.138614	 0.728996	 -0.644617	 0.183900	 1
1463623592.958	 15	 -0.118579	 -0.090205	 -0.038817	 2.426192	 -1.434597	 -0.253276	 -0.139156	 0.729301	 -0.644137	 0.183964	 1
1463623592.968	 15	 -0.135764	 -0.109330	 -0.043110	 2.435378	 -1.433850	 -0.242964	 -0.139835	 0.729644	 -0.643577	 0.184051	 1
1463623592.978	 15	 -0.145407	 -0.114643	 -0.046274	 2.444678	 -1.433041	 -0.232452	 -0.140545	 0.729998	 -0.642988	 0.184163	 1
1463623592.988	 15	 -0.145447	 -0.127368	 -0.041064	 2.453169	 -1.432170	 -0.222644	 -0.141256	 0.730344	 -0.642387	 0.184346	 1
1463623592.998	 15	 -0.144372	 -0.133684	 -0.031540	 2.460164	 -1.431316	 -0.214240	 -0.141944	 0.730645	 -0.641815	 0.184616	 1
1463623593.008	 15	 -0.147616	 -0.151679	 -0.021022	 2.466037	 -1.430380	 -0.206816	 -0.142625	 0.730935	 -0.641226	 0.184988	 1
1463623593.018	 15	 -0.149550	 -0.142878	 0.018512	 2.469149	 -1.429185	 -0.202142	 -0.143151	 0.731242	 -0.640606	 0.185521	 1
1463623593.028	 15	 -0.150619	 -0.154374	 0.037462	 2.469127	 -1.427809	 -0.200575	 -0.143517	 0.731533	 -0.639985	 0.186228	 1
1463623593.038	 15	 -0.160356	 -0.168296	 0.020364	 2.472757	 -1.426627	 -0.195245	 -0.144124	 0.731837	 -0.639342	 0.186773	 1
1463623593.048	 15	 -0.168013	 -0.197085	 0.007371	 2.478564	 -1.425468	 -0.187493	 -0.144929	 0.732163	 -0.638636	 0.187287	 1
1463623593.058	 15	 -0.190702	 -0.240760	 -0.010958	 2.485523	 -1.424247	 -0.178166	 -0.145940	 0.732500	 -0.637844	 0.187884	 1
1463623593.068	 15	 -0.218540	 -0.248222	 -0.024643	 2.495318	 -1.422710	 -0.165761	 -0.147137	 0.732971	 -0.636859	 0.188456	 1
1463623593.078	 15	 -0.268736	 -0.249189	 -0.031678	 2.508200	 -1.420499	 -0.150359	 -0.148370	 0.733710	 -0.635582	 0.188921	 1
1463623593.088	 15	 -0.313431	 -0.188711	 -0.070163	 2.525203	 -1.418125	 -0.131147	 -0.149697	 0.734600	 -0.634196	 0.189076	 1
1463623593.098	 15	 -0.358013	 -0.150176	 -0.054498	 2.542193	 -1.415405	 -0.112398	 -0.150847	 0.735621	 -0.632732	 0.189094	 1
1463623593.108	 15	 -0.356813	 -0.169972	 0.002855	 2.556665	 -1.412603	 -0.096220	 -0.151873	 0.736619	 -0.631294	 0.189198	 1
1463623593.118	 15	 -0.343146	 -0.229440	 0.021367	 2.564059	 -1.409653	 -0.086481	 -0.152767	 0.737478	 -0.629872	 0.189866	 1
1463623593.128	 15	 -0.306813	 -0.199936	 -0.002123	 2.572415	 -1.407278	 -0.075885	 -0.153762	 0.738187	 -0.628647	 0.190370	 1
1463623593.138	 15	 -0.294224	 -0.239384	 -0.010060	 2.580195	 -1.404793	 -0.065755	 -0.154768	 0.738909	 -0.627379	 0.190934	 1
1463623593.148	 15	 -0.225007	 -0.263054	 -0.019409	 2.586103	 -1.402796	 -0.057075	 -0.155895	 0.739413	 -0.626281	 0.191671	 1
1463623593.158	 15	 -0.159469	 -0.150670	 -0.042381	 2.591373	 -1.401500	 -0.049852	 -0.156771	 0.739752	 -0.625526	 0.192109	 1
1463623593.168	 15	 -0.103086	 0.054304	 -0.061213	 2.598099	 -1.400515	 -0.043051	 -0.157075	 0.740168	 -0.625041	 0.191841	 1
1463623593.178	 15	 -0.129634	 0.068328	 -0.044865	 2.604885	 -1.399674	 -0.036896	 -0.157143	 0.740594	 -0.624676	 0.191331	 1
1463623593.188	 15	 -0.092038	 0.129823	 -0.056343	 2.611754	 -1.399092	 -0.031075	 -0.157092	 0.740972	 -0.624446	 0.190657	 1
1463623593.198	 15	 -0.090944	 0.115106	 -0.031977	 2.617484	 -1.398491	 -0.026480	 -0.156943	 0.741342	 -0.624237	 0.190022	 1
1463623593.208	 15	 -0.111384	 0.077005	 -0.021645	 2.621133	 -1.397685	 -0.023598	 -0.156791	 0.741712	 -0.623952	 0.189639	 1
1463623593.218	 15	 -0.128424	 0.092934	 -0.032006	 2.626871	 -1.396739	 -0.018624	 -0.156751	 0.742159	 -0.623582	 0.189143	 1
1463623593.228	 15	 -0.128451	 0.103431	 -0.051092	 2.633822	 -1.395831	 -0.012638	 -0.156716	 0.742627	 -0.623226	 0.188505	 1
1463623593.238	 15	 -0.094666	 0.039401	 -0.066902	 2.640366	 -1.395207	 -0.006576	 -0.156868	 0.742962	 -0.622937	 0.188015	 1
1463623593.248	 15	 -0.041724	 -0.027955	 -0.093576	 2.648062	 -1.396120	 0.001311	 -0.157486	 0.742781	 -0.623140	 0.187540	 1
1463623593.258	 15	 0.010232	 -0.064570	 -0.134868	 2.653728	 -1.396677	 0.007627	 -0.158118	 0.742640	 -0.623202	 0.187361	 1
1463623593.268	 15	 0.064177	 -0.117270	 -0.193379	 2.660277	 -1.397949	 0.015346	 -0.159057	 0.742243	 -0.623472	 0.187240	 1
1463623593.278	 15	 0.094953	 -0.084984	 -0.275410	 2.669909	 -1.399920	 0.026118	 -0.160220	 0.741666	 -0.623968	 0.186884	 1
1463623593.288	 15	 0.083261	 -0.023703	 -0.336561	 2.688793	 -1.402548	 0.045539	 -0.161740	 0.741033	 -0.624659	 0.185770	 1
1463623593.298	 15	 0.065408	 0.048580	 -0.349588	 2.705989	 -1.404677	 0.062691	 -0.162881	 0.740559	 -0.625263	 0.184631	 1
1463623593.308	 15	 0.057400	 0.151851	 -0.338965	 2.724473	 -1.406629	 0.080171	 -0.163705	 0.740209	 -0.625897	 0.183148	 1
1463623593.318	 15	 0.043985	 0.233918	 -0.321032	 2.743580	 -1.408371	 0.097350	 -0.164189	 0.739985	 -0.626553	 0.181371	 1
1463623593.328	 15	 0.005870	 0.289421	 -0.309521	 2.761609	 -1.409060	 0.112855	 -0.164316	 0.740117	 -0.626894	 0.179529	 1
1463623593.338	 15	 0.022211	 0.315287	 -0.256134	 2.779694	 -1.410195	 0.128049	 -0.164326	 0.740118	 -0.627452	 0.177559	 1
1463623593.348	 15	 0.036017	 0.261390	 -0.204640	 2.794401	 -1.411235	 0.140127	 -0.164227	 0.740089	 -0.627985	 0.175875	 1
1463623593.358	 15	 0.068876	 0.197618	 -0.185271	 2.806308	 -1.412439	 0.150046	 -0.164206	 0.739929	 -0.628549	 0.174551	 1
1463623593.368	 15	 0.091234	 0.171090	 -0.167590	 2.813030	 -1.413935	 0.155160	 -0.164041	 0.739609	 -0.629221	 0.173636	 1
1463623593.378	 15	 0.131781	 0.155144	 -0.149973	 2.821390	 -1.415565	 0.162020	 -0.164004	 0.739241	 -0.629929	 0.172668	 1
1463623593.388	 15	 0.190488	 0.134960	 -0.122962	 2.827283	 -1.417635	 0.166554	 -0.163891	 0.738704	 -0.630804	 0.171877	 1
1463623593.398	 15	 0.238588	 0.121251	 -0.087273	 2.829851	 -1.420091	 0.167909	 -0.163660	 0.738014	 -0.631826	 0.171310	 1
1463623593.408	 15	 0.270641	 0.124376	 -0.083261	 2.830255	 -1.423654	 0.167079	 -0.163338	 0.736955	 -0.633274	 0.170830	 1
1463623593.418	 15	 0.273627	 0.098669	 -0.106973	 2.832125	 -1.426577	 0.167891	 -0.163136	 0.736093	 -0.634458	 0.170343	 1
1463623593.428	 15	 0.256429	 0.098496	 -0.137732	 2.836036	 -1.429458	 0.170874	 -0.163079	 0.735239	 -0.635608	 0.169798	 1
1463623593.438	 15	 0.223319	 0.133340	 -0.186145	 2.844099	 -1.432197	 0.177792	 -0.163134	 0.734460	 -0.636709	 0.168991	 1
1463623593.448	 15	 0.195739	 0.153773	 -0.166530	 2.854594	 -1.433848	 0.186821	 -0.163147	 0.734065	 -0.637425	 0.167991	 1
1463623593.458	 15	 0.165874	 0.150725	 -0.158838	 2.863696	 -1.435966	 0.194497	 -0.163106	 0.733505	 -0.638320	 0.167078	 1
1463623593.468	 15	 0.133993	 0.167932	 -0.145611	 2.873201	 -1.437732	 0.202454	 -0.163021	 0.733066	 -0.639095	 0.166120	 1
1463623593.478	 15	 0.107556	 0.201140	 -0.123757	 2.882313	 -1.439169	 0.209693	 -0.162783	 0.732756	 -0.639778	 0.165089	 1
1463623593.488	 15	 0.087577	 0.219669	 -0.070118	 2.886200	 -1.439848	 0.211479	 -0.162203	 0.732707	 -0.640201	 0.164234	 1
1463623593.498	 15	 0.063379	 0.221424	 0.015370	 2.887624	 -1.440547	 0.210685	 -0.161465	 0.732657	 -0.640644	 0.163457	 1
1463623593.508	 15	 0.041152	 0.198623	 0.088889	 2.883523	 -1.440799	 0.204451	 -0.160499	 0.732741	 -0.640917	 0.162961	 1
1463623593.518	 15	 0.053755	 0.124389	 0.124332	 2.866909	 -1.441473	 0.186371	 -0.159213	 0.732609	 -0.641316	 0.163247	 1
1463623593.528	 15	 0.072729	 0.058535	 0.146867	 2.855678	 -1.441728	 0.174316	 -0.158405	 0.732564	 -0.641504	 0.163491	 1
1463623593.538	 15	 0.092985	 0.043676	 0.159342	 2.842536	 -1.442118	 0.160624	 -0.157617	 0.732442	 -0.641733	 0.163905	 1
1463623593.548	 15	 0.120958	 0.091457	 0.159543	 2.828775	 -1.442704	 0.145987	 -0.156693	 0.732270	 -0.642072	 0.164234	 1
1463623593.558	 15	 0.138298	 0.149885	 0.156736	 2.816606	 -1.443726	 0.132271	 -0.155617	 0.732005	 -0.642629	 0.164256	 1
1463623593.568	 15	 0.118948	 0.135976	 0.137591	 2.804283	 -1.444433	 0.118434	 -0.154544	 0.731832	 -0.643074	 0.164297	 1
1463623593.578	 15	 0.098238	 0.079361	 0.095680	 2.794423	 -1.445051	 0.107518	 -0.153749	 0.731661	 -0.643441	 0.164371	 1
1463623593.588	 15	 0.068823	 0.003486	 0.034482	 2.788816	 -1.445590	 0.101643	 -0.153431	 0.731473	 -0.643694	 0.164511	 1
1463623593.598	 15	 0.033189	 -0.051996	 -0.004097	 2.792227	 -1.445892	 0.105405	 -0.153723	 0.731366	 -0.643758	 0.164463	 1
1463623593.608	 15	 0.004301	 -0.066809	 -0.005049	 2.791738	 -1.446014	 0.105576	 -0.153949	 0.731273	 -0.643752	 0.164692	 1
1463623593.618	 15	 -0.015827	 -0.051718	 0.014451	 2.790795	 -1.445879	 0.105200	 -0.154108	 0.731268	 -0.643660	 0.164921	 1
1463623593.628	 15	 -0.020928	 -0.028077	 0.045622	 2.788217	 -1.445557	 0.102939	 -0.154096	 0.731335	 -0.643529	 0.165148	 1
1463623593.638	 15	 -0.011110	 -0.012961	 0.080851	 2.779327	 -1.445272	 0.094202	 -0.153746	 0.731366	 -0.643461	 0.165600	 1
1463623593.648	 15	 0.001836	 -0.001144	 0.102163	 2.772135	 -1.444911	 0.086991	 -0.153404	 0.731442	 -0.643372	 0.165926	 1
1463623593.658	 15	 0.016847	 0.003158	 0.114862	 2.763466	 -1.444619	 0.078221	 -0.152969	 0.731490	 -0.643329	 0.166289	 1
1463623593.668	 15	 0.030747	 0.005275	 0.119024	 2.754045	 -1.444432	 0.068677	 -0.152497	 0.731495	 -0.643334	 0.166673	 1
1463623593.678	 15	 0.039314	 0.013735	 0.115830	 2.744225	 -1.444585	 0.058700	 -0.152017	 0.731386	 -0.643475	 0.167048	 1
1463623593.688	 15	 0.040299	 0.007257	 0.102972	 2.735413	 -1.444536	 0.049701	 -0.151559	 0.731348	 -0.643541	 0.167377	 1
1463623593.698	 15	 0.036905	 -0.005736	 0.069842	 2.728482	 -1.444570	 0.042751	 -0.151250	 0.731282	 -0.643611	 0.167673	 1
1463623593.708	 15	 0.032492	 -0.005986	 0.033642	 2.724309	 -1.444707	 0.038610	 -0.151088	 0.731201	 -0.643694	 0.167857	 1
1463623593.718	 15	 0.025975	 -0.003007	 0.001748	 2.728254	 -1.445040	 0.042540	 -0.151279	 0.731127	 -0.643785	 0.167660	 1
1463623593.728	 15	 0.015270	 0.001187	 -0.010912	 2.731451	 -1.445163	 0.045715	 -0.151419	 0.731114	 -0.643806	 0.167506	 1
1463623593.738	 15	 0.009997	 0.018191	 -0.014971	 2.732899	 -1.445125	 0.047014	 -0.151425	 0.731149	 -0.643793	 0.167398	 1
1463623593.748	 15	 -0.003930	 -0.009284	 0.004079	 2.732710	 -1.445178	 0.046831	 -0.151423	 0.731130	 -0.643813	 0.167404	 1
1463623593.758	 15	 -0.012531	 -0.034686	 0.017773	 2.730413	 -1.445212	 0.044836	 -0.151435	 0.731078	 -0.643819	 0.167600	 1
1463623593.768	 15	 -0.018902	 -0.035669	 0.026345	 2.727777	 -1.445240	 0.042556	 -0.151452	 0.731020	 -0.643821	 0.167828	 1
1463623593.778	 15	 -0.011417	 -0.036725	 0.030533	 2.724762	 -1.445447	 0.039902	 -0.151468	 0.730901	 -0.643892	 0.168063	 1
1463623593.788	 15	 0.006762	 -0.031445	 0.032553	 2.721836	 -1.445825	 0.037294	 -0.151484	 0.730729	 -0.644029	 0.168269	 1
1463623593.798	 15	 0.023868	 -0.020898	 0.027171	 2.719832	 -1.446327	 0.035487	 -0.151506	 0.730534	 -0.644214	 0.168388	 1
1463623593.808	 15	 0.036698	 -0.007186	 0.016526	 2.719869	 -1.446834	 0.035597	 -0.151571	 0.730364	 -0.644394	 0.168378	 1
1463623593.818	 15	 0.037790	 0.009729	 0.002817	 2.720468	 -1.447239	 0.036106	 -0.151593	 0.730245	 -0.644545	 0.168298	 1
1463623593.828	 15	 0.026013	 0.005479	 -0.001385	 2.721171	 -1.447421	 0.036714	 -0.151601	 0.730198	 -0.644614	 0.168226	 1
1463623593.838	 15	 0.010991	 -0.016767	 0.004935	 2.720052	 -1.447379	 0.035696	 -0.151587	 0.730195	 -0.644600	 0.168309	 1
1463623593.848	 15	 -0.001870	 -0.033701	 0.011284	 2.718910	 -1.447244	 0.034850	 -0.151636	 0.730207	 -0.644535	 0.168461	 1
1463623593.858	 15	 -0.000774	 -0.037938	 0.016409	 2.717580	 -1.447192	 0.033894	 -0.151713	 0.730184	 -0.644495	 0.168642	 1
1463623593.868	 15	 0.001415	 -0.022028	 0.011208	 2.717234	 -1.447242	 0.033796	 -0.151792	 0.730146	 -0.644496	 0.168734	 1
1463623593.878	 15	 0.003582	 -0.009324	 0.003846	 2.716795	 -1.447429	 0.033478	 -0.151831	 0.730073	 -0.644558	 0.168779	 1
1463623593.888	 15	 0.002588	 0.035098	 -0.030898	 2.713785	 -1.447561	 0.030305	 -0.151652	 0.730017	 -0.644646	 0.168847	 1
1463623593.898	 15	 0.039205	 0.106246	 -0.031618	 2.714205	 -1.447840	 0.029864	 -0.151377	 0.729995	 -0.644817	 0.168534	 1
1463623593.908	 15	 0.050297	 0.153371	 0.017747	 2.714509	 -1.448581	 0.028708	 -0.150913	 0.729867	 -0.645209	 0.168002	 1
1463623593.918	 15	 0.031157	 0.163041	 0.023329	 2.715922	 -1.449176	 0.028448	 -0.150406	 0.729812	 -0.645556	 0.167364	 1
1463623593.928	 15	 0.018436	 0.190649	 0.011975	 2.714590	 -1.449244	 0.025300	 -0.149692	 0.729915	 -0.645744	 0.166829	 1
1463623593.938	 15	 0.042208	 0.250167	 0.015521	 2.713847	 -1.449213	 0.022199	 -0.148798	 0.730094	 -0.645935	 0.166101	 1
1463623593.948	 15	 0.070229	 0.294874	 0.031681	 2.711185	 -1.449511	 0.016652	 -0.147656	 0.730188	 -0.646307	 0.165261	 1
1463623593.958	 15	 0.091612	 0.290663	 0.046377	 2.706155	 -1.450150	 0.008663	 -0.146415	 0.730154	 -0.646829	 0.164471	 1
1463623593.968	 15	 0.103166	 0.247056	 0.051199	 2.700850	 -1.451150	 0.000684	 -0.145300	 0.729976	 -0.647462	 0.163754	 1
1463623593.978	 15	 0.102519	 0.117227	 0.041468	 2.696108	 -1.452548	 -0.005661	 -0.144636	 0.729596	 -0.648148	 0.163326	 1
1463623593.988	 15	 0.085997	 0.030925	 0.014161	 2.694432	 -1.453670	 -0.007826	 -0.144484	 0.729252	 -0.648611	 0.163152	 1
1463623593.998	 15	 0.070787	 -0.007484	 -0.008450	 2.696625	 -1.454777	 -0.005707	 -0.144637	 0.728920	 -0.649000	 0.162957	 1
1463623594.008	 15	 0.082197	 -0.055569	 -0.034581	 2.699607	 -1.456079	 -0.002318	 -0.145012	 0.728495	 -0.649414	 0.162875	 1
1463623594.018	 15	 0.092802	 -0.057829	 -0.048554	 2.703918	 -1.457377	 0.002590	 -0.145504	 0.728068	 -0.649800	 0.162805	 1
1463623594.028	 15	 0.088633	 -0.020726	 -0.067359	 2.708776	 -1.458524	 0.007743	 -0.145893	 0.727714	 -0.650153	 0.162630	 1
1463623594.038	 15	 0.085582	 0.017521	 -0.074437	 2.713408	 -1.459412	 0.012307	 -0.146116	 0.727468	 -0.650444	 0.162367	 1
1463623594.048	 15	 0.067910	 0.095408	 -0.047979	 2.715882	 -1.459933	 0.014087	 -0.145999	 0.727369	 -0.650670	 0.162011	 1
1463623594.058	 15	 0.045627	 0.103091	 -0.024262	 2.713353	 -1.459964	 0.010419	 -0.145490	 0.727421	 -0.650794	 0.161735	 1
1463623594.068	 15	 0.022604	 0.010302	 -0.068620	 2.714751	 -1.460528	 0.011512	 -0.145476	 0.727271	 -0.651013	 0.161544	 1
1463623594.078	 15	 0.011520	 -0.074775	 -0.071447	 2.720464	 -1.461091	 0.017827	 -0.145955	 0.727088	 -0.651124	 0.161484	 1
1463623594.088	 15	 0.023118	 -0.124625	 -0.047502	 2.725559	 -1.461574	 0.024051	 -0.146595	 0.726886	 -0.651171	 0.161627	 1
1463623594.098	 15	 0.019877	 -0.116252	 -0.067646	 2.729382	 -1.462233	 0.029143	 -0.147248	 0.726605	 -0.651281	 0.161854	 1
1463623594.108	 15	 0.018980	 -0.070596	 -0.078939	 2.737088	 -1.462785	 0.037675	 -0.147876	 0.726418	 -0.651360	 0.161799	 1
1463623594.118	 15	 0.029686	 -0.065295	 -0.076853	 2.743339	 -1.463481	 0.044578	 -0.148394	 0.726184	 -0.651520	 0.161737	 1
1463623594.128	 15	 0.037192	 -0.069471	 -0.063102	 2.746543	 -1.464200	 0.048517	 -0.148827	 0.725914	 -0.651702	 0.161815	 1
1463623594.138	 15	 0.036200	 -0.066169	 -0.048141	 2.747516	 -1.464716	 0.050189	 -0.149150	 0.725698	 -0.651829	 0.161978	 1
1463623594.148	 15	 0.032118	 -0.043673	 -0.027645	 2.746633	 -1.464929	 0.049842	 -0.149326	 0.725582	 -0.651868	 0.162173	 1
1463623594.158	 15	 0.025886	 -0.018033	 -0.014560	 2.745169	 -1.464912	 0.048609	 -0.149355	 0.725561	 -0.651853	 0.162304	 1
1463623594.168	 15	 0.016343	 -0.013673	 -0.003778	 2.744579	 -1.464877	 0.048174	 -0.149386	 0.725557	 -0.651831	 0.162378	 1
1463623594.178	 15	 -0.002846	 -0.013577	 0.001720	 2.744497	 -1.464617	 0.048226	 -0.149415	 0.725632	 -0.651726	 0.162439	 1
1463623594.188	 15	 -0.017739	 0.001321	 -0.003342	 2.747490	 -1.464239	 0.051250	 -0.149513	 0.725773	 -0.651566	 0.162360	 1
1463623594.198	 15	 -0.024062	 0.019415	 -0.004186	 2.750827	 -1.463913	 0.054424	 -0.149557	 0.725915	 -0.651438	 0.162201	 1
1463623594.208	 15	 -0.021883	 0.028982	 -0.004117	 2.754314	 -1.463722	 0.057627	 -0.149572	 0.726020	 -0.651370	 0.161989	 1
1463623594.218	 15	 -0.014475	 0.018299	 -0.007479	 2.755873	 -1.463762	 0.058967	 -0.149553	 0.726033	 -0.651392	 0.161857	 1
1463623594.228	 15	 -0.003887	 0.000185	 -0.007740	 2.756222	 -1.464091	 0.059279	 -0.149573	 0.725930	 -0.651514	 0.161815	 1
1463623594.238	 15	 0.010959	 -0.020070	 -0.008059	 2.755925	 -1.464457	 0.059130	 -0.149638	 0.725796	 -0.651638	 0.161854	 1
1463623594.248	 15	 0.026819	 -0.048860	 -0.011662	 2.754197	 -1.465071	 0.057835	 -0.149769	 0.725551	 -0.651838	 0.162026	 1
1463623594.258	 15	 0.039551	 -0.059581	 -0.018268	 2.754307	 -1.465754	 0.058517	 -0.150023	 0.725283	 -0.652042	 0.162172	 1
1463623594.268	 15	 0.051176	 -0.081969	 -0.020711	 2.754339	 -1.466534	 0.059290	 -0.150341	 0.724970	 -0.652267	 0.162371	 1
1463623594.278	 15	 0.056423	 -0.093747	 -0.029394	 2.754724	 -1.467406	 0.060614	 -0.150749	 0.724613	 -0.652508	 0.162616	 1
1463623594.288	 15	 0.056455	 -0.085253	 -0.031447	 2.755175	 -1.468080	 0.061945	 -0.151125	 0.724326	 -0.652680	 0.162852	 1
1463623594.298	 15	 0.056486	 -0.083087	 -0.026098	 2.755220	 -1.468639	 0.062821	 -0.151461	 0.724079	 -0.652817	 0.163091	 1
1463623594.308	 15	 0.049025	 -0.080937	 -0.026014	 2.755574	 -1.469138	 0.063992	 -0.151800	 0.723854	 -0.652931	 0.163320	 1
1463623594.318	 15	 0.040495	 -0.081952	 -0.022752	 2.755836	 -1.469519	 0.065069	 -0.152128	 0.723667	 -0.653002	 0.163556	 1
1463623594.328	 15	 0.033091	 -0.072319	 -0.017269	 2.755583	 -1.469879	 0.065566	 -0.152412	 0.723489	 -0.653074	 0.163792	 1
1463623594.338	 15	 0.032016	 -0.072331	 -0.019391	 2.754846	 -1.470266	 0.065557	 -0.152673	 0.723302	 -0.653160	 0.164035	 1
1463623594.348	 15	 0.029924	 -0.068031	 -0.014004	 2.753909	 -1.470663	 0.065316	 -0.152915	 0.723112	 -0.653254	 0.164274	 1
1463623594.358	 15	 0.031049	 -0.065822	 -0.002268	 2.751099	 -1.471005	 0.063163	 -0.153076	 0.722932	 -0.653341	 0.164568	 1
1463623594.368	 15	 0.032128	 -0.073187	 0.009378	 2.746221	 -1.471346	 0.058999	 -0.153186	 0.722736	 -0.653435	 0.164952	 1
1463623594.378	 15	 0.034211	 -0.081726	 0.006085	 2.741536	 -1.471717	 0.055119	 -0.153338	 0.722524	 -0.653532	 0.165357	 1
1463623594.388	 15	 0.038448	 -0.084961	 0.001754	 2.738607	 -1.472205	 0.053033	 -0.153574	 0.722280	 -0.653658	 0.165705	 1
1463623594.398	 15	 0.034241	 -0.066912	 -0.004436	 2.737072	 -1.472647	 0.052212	 -0.153808	 0.722070	 -0.653769	 0.165966	 1
1463623594.408	 15	 0.031139	 -0.042469	 -0.008446	 2.736951	 -1.473030	 0.052577	 -0.154005	 0.721905	 -0.653869	 0.166106	 1
1463623594.418	 15	 0.022692	 -0.018025	 -0.014540	 2.738566	 -1.473324	 0.054425	 -0.154163	 0.721799	 -0.653947	 0.166111	 1
1463623594.428	 15	 0.021666	 -0.008457	 -0.015510	 2.741205	 -1.473618	 0.057163	 -0.154307	 0.721710	 -0.654031	 0.166037	 1
1463623594.438	 15	 0.019554	 -0.001028	 -0.018621	 2.743465	 -1.473866	 0.059446	 -0.154408	 0.721639	 -0.654106	 0.165954	 1
1463623594.448	 15	 0.011030	 0.006405	 -0.023807	 2.746622	 -1.474065	 0.062556	 -0.154509	 0.721595	 -0.654164	 0.165821	 1
1463623594.458	 15	 0.005723	 0.010691	 -0.021590	 2.749446	 -1.474182	 0.065283	 -0.154577	 0.721579	 -0.654199	 0.165688	 1
1463623594.468	 15	 0.004684	 0.014964	 -0.019410	 2.751555	 -1.474311	 0.067254	 -0.154606	 0.721559	 -0.654246	 0.165565	 1
1463623594.478	 15	 0.006816	 0.016006	 -0.021550	 2.753161	 -1.474548	 0.068710	 -0.154620	 0.721500	 -0.654337	 0.165450	 1
1463623594.488	 15	 0.012179	 0.017092	 -0.016258	 2.753742	 -1.474871	 0.069136	 -0.154603	 0.721408	 -0.654464	 0.165362	 1
1463623594.498	 15	 0.016499	 0.020332	 -0.007739	 2.753188	 -1.475237	 0.068391	 -0.154537	 0.721299	 -0.654616	 0.165299	 1
1463623594.508	 15	 0.021885	 0.023569	 0.000771	 2.751054	 -1.475506	 0.066036	 -0.154403	 0.721215	 -0.654744	 0.165284	 1
1463623594.518	 15	 0.022977	 0.022556	 0.008213	 2.748394	 -1.475744	 0.063145	 -0.154246	 0.721139	 -0.654865	 0.165284	 1
1463623594.528	 15	 0.018723	 0.018375	 0.016739	 2.745100	 -1.475855	 0.059652	 -0.154072	 0.721099	 -0.654940	 0.165321	 1
1463623594.538	 15	 0.015474	 0.006700	 0.018790	 2.742766	 -1.475884	 0.057208	 -0.153957	 0.721085	 -0.654973	 0.165361	 1
1463623594.548	 15	 0.012195	 -0.005029	 0.013380	 2.740897	 -1.475914	 0.055353	 -0.153902	 0.721063	 -0.654994	 0.165425	 1
1463623594.558	 15	 0.008937	 -0.011448	 0.006953	 2.741062	 -1.475980	 0.055599	 -0.153941	 0.721036	 -0.655010	 0.165443	 1
1463623594.568	 15	 -0.001749	 -0.012495	 0.004904	 2.742282	 -1.475896	 0.056932	 -0.154017	 0.721062	 -0.654963	 0.165444	 1
1463623594.578	 15	 -0.015588	 -0.006064	 0.006150	 2.743072	 -1.475686	 0.057795	 -0.154056	 0.721130	 -0.654876	 0.165454	 1
1463623594.588	 15	 -0.026160	 0.007857	 0.014898	 2.742625	 -1.475327	 0.057312	 -0.154006	 0.721250	 -0.654750	 0.165477	 1
1463623594.598	 15	 -0.031396	 0.021763	 0.023600	 2.741098	 -1.474878	 0.055600	 -0.153859	 0.721404	 -0.654611	 0.165493	 1
1463623594.608	 15	 -0.024828	 0.048404	 0.033383	 2.738812	 -1.474566	 0.052917	 -0.153619	 0.721524	 -0.654544	 0.165457	 1
1463623594.618	 15	 -0.013028	 0.061133	 0.033400	 2.734263	 -1.474307	 0.047783	 -0.153238	 0.721628	 -0.654525	 0.165433	 1
1463623594.628	 15	 -0.008758	 0.045304	 0.052401	 2.728559	 -1.474085	 0.041568	 -0.152848	 0.721705	 -0.654522	 0.165471	 1
1463623594.638	 15	 -0.006710	 0.029319	 0.049038	 2.722668	 -1.473977	 0.035329	 -0.152517	 0.721729	 -0.654549	 0.165562	 1
1463623594.648	 15	 0.000646	 0.005888	 0.047690	 2.716860	 -1.473969	 0.029401	 -0.152277	 0.721703	 -0.654595	 0.165718	 1
1463623594.658	 15	 0.006974	 -0.005870	 0.042197	 2.711900	 -1.474079	 0.024465	 -0.152128	 0.721631	 -0.654666	 0.165885	 1
1463623594.668	 15	 0.018707	 -0.009081	 0.044196	 2.706789	 -1.474271	 0.019425	 -0.151998	 0.721527	 -0.654766	 0.166066	 1
1463623594.678	 15	 0.020929	 -0.007877	 0.064436	 2.700898	 -1.474417	 0.013574	 -0.151827	 0.721434	 -0.654857	 0.166265	 1
1463623594.688	 15	 0.026302	 -0.004663	 0.069746	 2.694087	 -1.474568	 0.006798	 -0.151625	 0.721332	 -0.654959	 0.166492	 1
1463623594.698	 15	 0.029561	 0.007028	 0.069825	 2.687691	 -1.474772	 0.000315	 -0.151399	 0.721223	 -0.655088	 0.166660	 1
1463623594.708	 15	 0.032763	 0.002733	 0.070688	 2.682098	 -1.474971	 -0.005374	 -0.151196	 0.721122	 -0.655211	 0.166798	 1
1463623594.718	 15	 0.035960	 0.001660	 0.070648	 2.675682	 -1.475205	 -0.011860	 -0.150980	 0.721000	 -0.655351	 0.166968	 1
1463623594.728	 15	 0.029554	 -0.007816	 0.081272	 2.668900	 -1.475291	 -0.018619	 -0.150774	 0.720916	 -0.655435	 0.167191	 1
1463623594.738	 15	 0.024306	 0.017666	 0.073027	 2.662123	 -1.475229	 -0.025538	 -0.150495	 0.720890	 -0.655482	 0.167371	 1
1463623594.748	 15	 0.011587	 0.031570	 0.078596	 2.655424	 -1.474910	 -0.032573	 -0.150125	 0.720962	 -0.655453	 0.167508	 1
1463623594.758	 15	 0.008479	 0.049678	 0.080924	 2.647782	 -1.474428	 -0.040682	 -0.149660	 0.721085	 -0.655387	 0.167648	 1
1463623594.768	 15	 0.003151	 0.031781	 0.104253	 2.636688	 -1.473889	 -0.052178	 -0.149097	 0.721187	 -0.655331	 0.167930	 1
1463623594.778	 15	 -0.007563	 -0.008336	 0.141278	 2.620230	 -1.472997	 -0.068704	 -0.148436	 0.721320	 -0.655180	 0.168536	 1
1463623594.788	 15	 -0.007650	 -0.058059	 0.178121	 2.601041	 -1.472132	 -0.087494	 -0.147850	 0.721367	 -0.655039	 0.169391	 1
1463623594.798	 15	 -0.003438	 -0.100356	 0.213928	 2.579959	 -1.470960	 -0.107703	 -0.147327	 0.721439	 -0.654789	 0.170505	 1
1463623594.808	 15	 0.002909	 -0.136331	 0.242314	 2.557899	 -1.469836	 -0.128595	 -0.146873	 0.721442	 -0.654561	 0.171754	 1
1463623594.818	 15	 0.008211	 -0.171209	 0.274980	 2.535012	 -1.468714	 -0.149962	 -0.146508	 0.721386	 -0.654335	 0.173155	 1
1463623594.828	 15	 0.018833	 -0.198749	 0.294878	 2.511138	 -1.467581	 -0.172049	 -0.146195	 0.721276	 -0.654119	 0.174688	 1
1463623594.838	 15	 0.031599	 -0.208353	 0.295739	 2.486963	 -1.466492	 -0.194296	 -0.145920	 0.721113	 -0.653934	 0.176280	 1
1463623594.848	 15	 0.048701	 -0.188307	 0.288288	 2.460864	 -1.465049	 -0.218588	 -0.145472	 0.721006	 -0.653696	 0.177958	 1
1463623594.858	 15	 0.067006	 -0.157484	 0.292679	 2.434623	 -1.463673	 -0.243310	 -0.144914	 0.720865	 -0.653541	 0.179549	 1
1463623594.868	 15	 0.076818	 -0.129719	 0.312035	 2.407357	 -1.462218	 -0.269350	 -0.144190	 0.720716	 -0.653437	 0.181102	 1
1463623594.878	 15	 0.095752	 -0.056625	 0.425520	 2.379133	 -1.460002	 -0.297014	 -0.143045	 0.720775	 -0.653204	 0.182612	 1
1463623594.888	 15	 0.111242	 -0.037746	 0.541729	 2.339480	 -1.457126	 -0.336526	 -0.141211	 0.720754	 -0.653091	 0.184516	 1
1463623594.898	 15	 0.127759	 -0.021051	 0.650448	 2.295094	 -1.453415	 -0.380937	 -0.138951	 0.720758	 -0.652943	 0.186725	 1
1463623594.908	 15	 0.141183	 -0.013641	 0.797476	 2.245587	 -1.448497	 -0.430672	 -0.136127	 0.720817	 -0.652719	 0.189343	 1
1463623594.918	 15	 0.156442	 -0.070051	 0.944959	 2.191892	 -1.442154	 -0.484276	 -0.132868	 0.720884	 -0.652364	 0.192600	 1
1463623594.928	 15	 0.160672	 -0.176637	 1.062230	 2.136923	 -1.434478	 -0.538209	 -0.129473	 0.720890	 -0.651839	 0.196623	 1
1463623594.938	 15	 0.144763	 -0.243899	 1.167253	 2.084268	 -1.425470	 -0.589076	 -0.125964	 0.720902	 -0.651098	 0.201256	 1
1463623594.948	 15	 0.124778	 -0.304473	 1.312873	 2.034428	 -1.414835	 -0.636559	 -0.122183	 0.720974	 -0.650090	 0.206521	 1
1463623594.958	 15	 0.098450	 -0.370191	 1.479815	 1.987650	 -1.402281	 -0.680371	 -0.118042	 0.721124	 -0.648752	 0.212527	 1
1463623594.968	 15	 0.079920	 -0.401594	 1.688574	 1.943963	 -1.387552	 -0.720691	 -0.113362	 0.721363	 -0.647065	 0.219296	 1
1463623594.978	 15	 0.037943	 -0.376984	 1.838375	 1.905369	 -1.370767	 -0.756101	 -0.108019	 0.721772	 -0.645022	 0.226547	 1
1463623594.988	 15	 -0.041656	 -0.317957	 1.879050	 1.875183	 -1.352902	 -0.783520	 -0.102357	 0.722439	 -0.642612	 0.233784	 1
1463623594.998	 15	 -0.147199	 -0.226768	 1.797688	 1.854633	 -1.335094	 -0.802054	 -0.096698	 0.723428	 -0.639900	 0.240478	 1
1463623595.008	 15	 -0.305499	 -0.168960	 1.638674	 1.844465	 -1.318221	 -0.810659	 -0.091519	 0.724841	 -0.636814	 0.246372	 1
1463623595.018	 15	 -0.447746	 -0.117442	 1.498646	 1.842720	 -1.302362	 -0.811129	 -0.086893	 0.726682	 -0.633343	 0.251515	 1
1463623595.028	 15	 -0.524984	 -0.156962	 1.444597	 1.845022	 -1.287050	 -0.807320	 -0.082711	 0.728742	 -0.629582	 0.256360	 1
1463623595.038	 15	 -0.494121	 -0.295344	 1.587984	 1.844710	 -1.270824	 -0.804937	 -0.078548	 0.730613	 -0.625635	 0.261946	 1
1463623595.048	 15	 -0.472740	 -0.441914	 1.771877	 1.840475	 -1.252888	 -0.805117	 -0.074123	 0.732219	 -0.621444	 0.268642	 1
1463623595.058	 15	 -0.508075	 -0.566457	 1.890391	 1.834711	 -1.233608	 -0.805563	 -0.069621	 0.733692	 -0.616901	 0.276191	 1
1463623595.068	 15	 -0.584124	 -0.692227	 1.969815	 1.829216	 -1.213293	 -0.804360	 -0.065279	 0.735155	 -0.611871	 0.284430	 1
1463623595.078	 15	 -0.669418	 -0.731904	 2.037331	 1.824831	 -1.192108	 -0.801214	 -0.061006	 0.736704	 -0.606343	 0.293074	 1
1463623595.088	 15	 -0.699012	 -0.679625	 2.047667	 1.821937	 -1.170503	 -0.796888	 -0.056562	 0.738391	 -0.600514	 0.301600	 1
1463623595.098	 15	 -0.607087	 -0.810211	 1.971048	 1.817205	 -1.149598	 -0.793763	 -0.052431	 0.739672	 -0.594906	 0.310197	 1
1463623595.108	 15	 -0.518232	 -1.124914	 1.877822	 1.808208	 -1.129888	 -0.792179	 -0.049346	 0.740101	 -0.589668	 0.319542	 1
1463623595.118	 15	 -0.449120	 -1.377430	 1.845029	 1.795633	 -1.110823	 -0.791512	 -0.047127	 0.739774	 -0.584629	 0.329733	 1
1463623595.128	 15	 -0.391384	 -1.538567	 1.795068	 1.780638	 -1.092255	 -0.791426	 -0.045493	 0.738844	 -0.579749	 0.340486	 1
1463623595.138	 15	 -0.393346	 -1.653017	 1.705562	 1.765073	 -1.074543	 -0.790705	 -0.044462	 0.737552	 -0.574961	 0.351368	 1
1463623595.148	 15	 -0.386237	 -1.546307	 1.756584	 1.750397	 -1.056861	 -0.789382	 -0.043335	 0.736228	 -0.570093	 0.362056	 1
1463623595.158	 15	 -0.377674	 -1.150310	 2.099106	 1.738162	 -1.036572	 -0.788753	 -0.040328	 0.735380	 -0.564764	 0.372332	 1
1463623595.168	 15	 -0.292130	 -0.565692	 2.522646	 1.729854	 -1.012146	 -0.790142	 -0.034037	 0.735403	 -0.558869	 0.381693	 1
1463623595.178	 15	 -0.061643	 0.070879	 2.835634	 1.724138	 -0.984608	 -0.795869	 -0.024339	 0.735972	 -0.553068	 0.389703	 1
1463623595.188	 15	 0.161960	 0.549647	 2.945784	 1.720676	 -0.955802	 -0.805501	 -0.012115	 0.736837	 -0.547732	 0.396124	 1
1463623595.198	 15	 0.330332	 0.442384	 2.742957	 1.716173	 -0.928455	 -0.817526	 0.000254	 0.737151	 -0.543239	 0.401869	 1
1463623595.208	 15	 0.306411	 -0.307409	 2.447366	 1.706312	 -0.904001	 -0.828647	 0.009904	 0.735989	 -0.539349	 0.409053	 1
1463623595.218	 15	 0.148771	 -1.048079	 2.328876	 1.691637	 -0.881042	 -0.836455	 0.016589	 0.733539	 -0.535273	 0.418483	 1
1463623595.228	 15	 0.022282	 -1.885487	 2.376539	 1.671052	 -0.857612	 -0.841287	 0.020841	 0.729594	 -0.530601	 0.430955	 1
1463623595.238	 15	 -0.149410	 -2.402004	 2.215494	 1.647122	 -0.834820	 -0.842841	 0.022902	 0.724617	 -0.525499	 0.445261	 1
1463623595.248	 15	 -0.452681	 -2.459296	 1.966082	 1.624834	 -0.814443	 -0.839240	 0.022820	 0.719731	 -0.519860	 0.459579	 1
1463623595.258	 15	 -0.509063	 -2.334379	 1.862225	 1.605657	 -0.795430	 -0.833024	 0.022251	 0.715334	 -0.513895	 0.472983	 1
1463623595.268	 15	 -0.249629	 -2.128253	 1.644468	 1.586676	 -0.778213	 -0.828953	 0.021978	 0.710754	 -0.508851	 0.485197	 1
1463623595.278	 15	 0.147681	 -1.750265	 1.274707	 1.567556	 -0.764472	 -0.829779	 0.022266	 0.705928	 -0.505866	 0.495246	 1
1463623595.288	 15	 0.429695	 -1.325618	 0.839240	 1.550134	 -0.754929	 -0.834653	 0.022964	 0.701391	 -0.504939	 0.502554	 1
1463623595.298	 15	 0.648476	 -1.371238	 0.357318	 1.531301	 -0.749929	 -0.842668	 0.022790	 0.696444	 -0.505969	 0.508372	 1
1463623595.308	 15	 0.763371	 -1.701768	 -0.147666	 1.508273	 -0.749804	 -0.852756	 0.020491	 0.690447	 -0.508767	 0.513828	 1
1463623595.318	 15	 0.780664	 -2.295470	 -0.462413	 1.479458	 -0.753200	 -0.863947	 0.015745	 0.682995	 -0.512706	 0.520002	 1
1463623595.328	 15	 0.623086	 -3.032865	 -0.569150	 1.444050	 -0.757974	 -0.873846	 0.008245	 0.673819	 -0.516580	 0.528248	 1
1463623595.338	 15	 0.377832	 -3.481720	 -0.523231	 1.405304	 -0.762599	 -0.880989	 -0.001113	 0.663658	 -0.519549	 0.538169	 1
1463623595.348	 15	 0.002323	 -3.611122	 -0.332520	 1.368641	 -0.765365	 -0.882712	 -0.011111	 0.653821	 -0.520477	 0.549088	 1
1463623595.358	 15	 -0.431601	 -3.528073	 -0.056198	 1.336067	 -0.767085	 -0.878546	 -0.021580	 0.644836	 -0.519400	 0.560307	 1
1463623595.368	 15	 -0.825447	 -3.335454	 0.238911	 1.309533	 -0.767186	 -0.868076	 -0.031844	 0.637193	 -0.516103	 0.571497	 1
1463623595.378	 15	 -1.149953	 -3.142034	 0.525964	 1.288771	 -0.765684	 -0.852034	 -0.041685	 0.630831	 -0.510803	 0.582576	 1
1463623595.388	 15	 -1.390545	 -3.007568	 0.784027	 1.272682	 -0.762595	 -0.831436	 -0.051046	 0.625467	 -0.503780	 0.593626	 1
1463623595.398	 15	 -1.593361	 -2.992479	 1.022532	 1.259537	 -0.758036	 -0.807143	 -0.060133	 0.620632	 -0.495259	 0.604912	 1
1463623595.408	 15	 -1.811650	 -3.126998	 1.304542	 1.248127	 -0.751859	 -0.778999	 -0.069228	 0.615954	 -0.485096	 0.616839	 1
1463623595.418	 15	 -1.905923	 -3.285726	 1.671574	 1.236903	 -0.743028	 -0.747562	 -0.078108	 0.610924	 -0.473151	 0.629920	 1
1463623595.428	 15	 -1.901662	 -3.313341	 1.971825	 1.225865	 -0.731418	 -0.714803	 -0.086085	 0.605612	 -0.459957	 0.643633	 1
1463623595.438	 15	 -1.950921	 -3.315785	 2.201370	 1.215311	 -0.717917	 -0.680677	 -0.093432	 0.600167	 -0.445652	 0.657620	 1
1463623595.448	 15	 -1.977489	 -3.266114	 2.439729	 1.205630	 -0.702636	 -0.645237	 -0.100077	 0.594747	 -0.430263	 0.671666	 1
1463623595.458	 15	 -1.921955	 -3.254774	 2.705791	 1.196086	 -0.685058	 -0.609292	 -0.105723	 0.589160	 -0.413890	 0.685863	 1
1463623595.468	 15	 -1.799209	 -3.256321	 2.981806	 1.185740	 -0.664807	 -0.573653	 -0.110150	 0.583144	 -0.396663	 0.700334	 1
1463623595.478	 15	 -1.621535	 -3.163265	 3.272078	 1.174969	 -0.641592	 -0.538877	 -0.112971	 0.576878	 -0.378725	 0.714854	 1
1463623595.488	 15	 -1.395354	 -2.979840	 3.576624	 1.164325	 -0.615053	 -0.505419	 -0.113785	 0.570609	 -0.360194	 0.729190	 1
1463623595.498	 15	 -1.094367	 -2.762702	 3.866977	 1.153971	 -0.584974	 -0.473974	 -0.112271	 0.564468	 -0.341301	 0.743159	 1
1463623595.508	 15	 -0.728531	 -2.582055	 4.138308	 1.143164	 -0.551203	 -0.445273	 -0.108284	 0.558235	 -0.322273	 0.756828	 1
1463623595.518	 15	 -0.356451	 -2.393281	 4.359569	 1.131825	 -0.513982	 -0.419554	 -0.101853	 0.551886	 -0.303300	 0.770102	 1
1463623595.528	 15	 -0.021963	 -2.203780	 4.519350	 1.120225	 -0.473959	 -0.396601	 -0.093257	 0.545495	 -0.284519	 0.782807	 1
1463623595.538	 15	 0.253376	 -2.062384	 4.621647	 1.108359	 -0.431851	 -0.375929	 -0.082925	 0.539015	 -0.265966	 0.794889	 1
1463623595.548	 15	 0.486444	 -2.029605	 4.689198	 1.095586	 -0.388182	 -0.357080	 -0.071281	 0.532144	 -0.247613	 0.806492	 1
1463623595.558	 15	 0.662050	 -2.121670	 4.678286	 1.080891	 -0.343795	 -0.339698	 -0.058874	 0.524433	 -0.229550	 0.817808	 1
1463623595.568	 15	 0.776458	 -2.239536	 4.604787	 1.063941	 -0.299575	 -0.323357	 -0.046191	 0.515714	 -0.211883	 0.828861	 1
1463623595.578	 15	 0.842699	 -2.359633	 4.497582	 1.044981	 -0.256121	 -0.307637	 -0.033532	 0.506066	 -0.194664	 0.839571	 1
1463623595.588	 15	 0.891783	 -2.504081	 4.398826	 1.023912	 -0.213632	 -0.292175	 -0.021049	 0.495432	 -0.177853	 0.849983	 1
1463623595.598	 15	 0.970649	 -2.687812	 4.321826	 1.000451	 -0.171799	 -0.276946	 -0.008602	 0.483672	 -0.161427	 0.860191	 1
1463623595.608	 15	 1.073895	 -2.941509	 4.286594	 0.974020	 -0.130225	 -0.261886	 0.003966	 0.470504	 -0.145334	 0.870338	 1
1463623595.618	 15	 1.177354	 -3.190605	 4.299362	 0.944327	 -0.088450	 -0.246571	 0.016801	 0.455762	 -0.129367	 0.880490	 1
1463623595.628	 15	 1.231885	 -3.188463	 4.323419	 0.913392	 -0.046575	 -0.230466	 0.029930	 0.440345	 -0.113367	 0.890140	 1
1463623595.638	 15	 1.301198	 -3.221451	 4.349153	 0.881814	 -0.004652	 -0.213413	 0.043360	 0.424556	 -0.097305	 0.899113	 1
1463623595.648	 15	 1.403688	 -3.229057	 4.368439	 0.849124	 0.037513	 -0.195590	 0.057221	 0.408213	 -0.081266	 0.907460	 1
1463623595.658	 15	 1.529806	 -3.121519	 4.288410	 0.816588	 0.079524	 -0.177591	 0.071522	 0.391932	 -0.065604	 0.914861	 1
1463623595.668	 15	 1.645780	 -3.034966	 4.097434	 0.784316	 0.120580	 -0.160213	 0.086028	 0.375810	 -0.050858	 0.921292	 1
1463623595.678	 15	 1.751451	 -2.994994	 3.785683	 0.752069	 0.159885	 -0.144214	 0.100457	 0.359760	 -0.037546	 0.926861	 1
1463623595.688	 15	 1.857250	 -3.043196	 3.342022	 0.719437	 0.196678	 -0.130621	 0.114564	 0.343566	 -0.026305	 0.931743	 1
1463623595.698	 15	 1.983413	 -3.181814	 2.758793	 0.685892	 0.230397	 -0.120797	 0.128216	 0.326891	 -0.017889	 0.936153	 1
1463623595.708	 15	 2.121085	 -3.296628	 2.089359	 0.652055	 0.260752	 -0.115899	 0.141344	 0.309898	 -0.012832	 0.940117	 1
1463623595.718	 15	 2.173010	 -3.443676	 1.633524	 0.617631	 0.288481	 -0.114869	 0.153981	 0.292418	 -0.010504	 0.943754	 1
1463623595.728	 15	 2.004111	 -3.369889	 1.473685	 0.583398	 0.313813	 -0.114073	 0.165611	 0.275054	 -0.009061	 0.947014	 1
1463623595.738	 15	 1.779512	 -3.186820	 1.400606	 0.550348	 0.336431	 -0.111842	 0.175845	 0.258455	 -0.007610	 0.949854	 1
1463623595.748	 15	 1.568079	 -2.958846	 1.365134	 0.518957	 0.357072	 -0.108096	 0.185034	 0.242857	 -0.005884	 0.952233	 1
1463623595.768	 15	 1.393762	 -2.426827	 1.177632	 0.462958	 0.394060	 -0.098500	 0.201381	 0.215326	 -0.002134	 0.955550	 1
1463623595.758	 15	 1.429303	 -2.692959	 1.307001	 0.489677	 0.376090	 -0.103219	 0.193406	 0.228454	 -0.003912	 0.954142	 1
1463623595.778	 15	 1.430966	 -2.137389	 1.064899	 0.439322	 0.411570	 -0.094555	 0.209284	 0.203638	 -0.000677	 0.956416	 1
1463623595.788	 15	 1.514229	 -1.861484	 1.011322	 0.418654	 0.429382	 -0.091167	 0.217430	 0.193324	 0.000676	 0.956739	 1
1463623595.798	 15	 1.611369	 -1.619356	 0.998875	 0.400536	 0.447929	 -0.088016	 0.225980	 0.184200	 0.002102	 0.956556	 1
1463623595.808	 15	 1.660378	 -1.409973	 0.998265	 0.384534	 0.467016	 -0.084786	 0.234803	 0.176106	 0.003705	 0.955950	 1
1463623595.818	 15	 1.654483	 -1.306747	 1.003540	 0.369630	 0.486112	 -0.081173	 0.243614	 0.168617	 0.005478	 0.955087	 1
1463623595.838	 16	 1.529662	 -1.273624	 0.974028	 0.339664	 0.522752	 -0.072450	 0.260439	 0.153945	 0.009163	 0.953094	 1
1463623595.848	 16	 1.475721	 -1.326194	 0.889813	 0.324352	 0.539784	 -0.068026	 0.268269	 0.146583	 0.010681	 0.952067	 1
1463623595.858	 16	 1.432170	 -1.413049	 0.775347	 0.308517	 0.556012	 -0.064368	 0.275794	 0.138945	 0.011570	 0.951051	 1
1463623595.868	 16	 1.317532	 -1.479966	 0.741618	 0.291877	 0.571079	 -0.060621	 0.282782	 0.131023	 0.012173	 0.950115	 1
1463623595.878	 16	 1.216970	 -1.469577	 0.666921	 0.275072	 0.584924	 -0.056850	 0.289204	 0.123111	 0.012555	 0.949235	 1
1463623595.888	 16	 1.125041	 -1.393661	 0.538405	 0.259205	 0.597505	 -0.053855	 0.295080	 0.115612	 0.012509	 0.948370	 1
1463623595.898	 16	 1.048244	 -1.239287	 0.395559	 0.245383	 0.608894	 -0.052020	 0.300448	 0.108979	 0.012050	 0.947475	 1
1463623595.908	 16	 1.012040	 -1.100897	 0.251152	 0.233767	 0.619472	 -0.051566	 0.305490	 0.103227	 0.011148	 0.946518	 1
1463623595.918	 16	 0.986688	 -0.933742	 0.117577	 0.224558	 0.629478	 -0.052541	 0.310311	 0.098422	 0.009853	 0.945475	 1
1463623595.928	 16	 0.974241	 -0.785423	 0.031673	 0.217603	 0.639102	 -0.054610	 0.314981	 0.094526	 0.008332	 0.944342	 1
1463623595.938	 16	 0.976612	 -0.725949	 0.020482	 0.211688	 0.648682	 -0.056981	 0.319625	 0.091070	 0.006804	 0.943133	 1
1463623595.948	 16	 0.958480	 -0.752240	 0.054500	 0.205464	 0.658208	 -0.058942	 0.324211	 0.087532	 0.005392	 0.941911	 1
1463623595.958	 16	 0.916617	 -0.823211	 0.077650	 0.198320	 0.667447	 -0.060398	 0.328630	 0.083651	 0.004025	 0.940738	 1
1463623595.968	 16	 0.863921	 -0.893388	 0.059338	 0.190383	 0.676173	 -0.061722	 0.332790	 0.079437	 0.002533	 0.939646	 1
1463623595.978	 16	 0.836719	 -0.939601	 -0.017590	 0.182315	 0.684446	 -0.063666	 0.336749	 0.075072	 0.000675	 0.938597	 1
1463623595.988	 16	 0.841507	 -0.954318	 -0.138200	 0.174867	 0.692517	 -0.066957	 0.340644	 0.070777	 -0.001746	 0.937523	 1
1463623595.998	 16	 0.844558	 -0.894494	 -0.247443	 0.168758	 0.700455	 -0.071711	 0.344509	 0.066856	 -0.004653	 0.936388	 1
1463623596.008	 16	 0.823683	 -0.759661	 -0.289703	 0.164332	 0.708179	 -0.077188	 0.348280	 0.063591	 -0.007632	 0.935200	 1
1463623596.018	 16	 0.776680	 -0.556265	 -0.274612	 0.161716	 0.715525	 -0.082545	 0.351859	 0.061190	 -0.010262	 0.933994	 1
1463623596.028	 16	 0.703322	 -0.307913	 -0.231163	 0.161117	 0.722257	 -0.087265	 0.355133	 0.059848	 -0.012267	 0.932818	 1
1463623596.038	 16	 0.624611	 -0.059577	 -0.191931	 0.162598	 0.728288	 -0.091303	 0.358066	 0.059606	 -0.013610	 0.931692	 1
1463623596.048	 16	 0.559505	 0.145000	 -0.168145	 0.165956	 0.733678	 -0.094872	 0.360699	 0.060333	 -0.014417	 0.930617	 1
1463623596.058	 16	 0.515074	 0.174309	 -0.104606	 0.169703	 0.738635	 -0.097677	 0.363110	 0.061382	 -0.014807	 0.929604	 1
1463623596.068	 16	 0.475306	 0.074790	 -0.057226	 0.172063	 0.743319	 -0.099704	 0.365359	 0.061929	 -0.015092	 0.928682	 1
1463623596.078	 16	 0.399002	 -0.079916	 -0.007911	 0.172573	 0.747409	 -0.100964	 0.367294	 0.061777	 -0.015382	 0.927924	 1
1463623596.088	 16	 0.307418	 -0.288970	 0.020783	 0.170565	 0.750694	 -0.101509	 0.368813	 0.060616	 -0.015843	 0.927390	 1
1463623596.098	 16	 0.191254	 -0.472709	 0.010493	 0.166527	 0.752908	 -0.101848	 0.369814	 0.058595	 -0.016639	 0.927107	 1
1463623596.108	 16	 0.074084	 -0.638409	 -0.006016	 0.160667	 0.753906	 -0.102060	 0.370230	 0.055801	 -0.017774	 0.927092	 1
1463623596.118	 16	 -0.026783	 -0.716096	 -0.052754	 0.153974	 0.753834	 -0.102587	 0.370149	 0.052604	 -0.019260	 0.927282	 1
1463623596.128	 16	 -0.131264	 -0.649173	 -0.106641	 0.147976	 0.752648	 -0.103648	 0.369568	 0.049670	 -0.020914	 0.927640	 1
1463623596.138	 16	 -0.213872	 -0.499102	 -0.125841	 0.143444	 0.750535	 -0.104943	 0.368573	 0.047408	 -0.022443	 0.928118	 1
1463623596.148	 16	 -0.258735	 -0.287264	 -0.119216	 0.140806	 0.747883	 -0.106107	 0.367342	 0.046069	 -0.023582	 0.928645	 1
1463623596.158	 16	 -0.264998	 -0.058337	 -0.087190	 0.140221	 0.745119	 -0.106928	 0.366074	 0.045750	 -0.024187	 0.929146	 1
1463623596.168	 16	 -0.241553	 0.112192	 -0.029321	 0.141043	 0.742571	 -0.107019	 0.364906	 0.046211	 -0.024188	 0.929582	 1
1463623596.178	 16	 -0.176032	 0.180257	 -0.003680	 0.142554	 0.740641	 -0.106769	 0.364024	 0.047032	 -0.023878	 0.929895	 1
1463623596.188	 16	 -0.119480	 0.155824	 0.023310	 0.143933	 0.739362	 -0.106291	 0.363435	 0.047808	 -0.023460	 0.930096	 1
1463623596.198	 16	 -0.095508	 0.023956	 0.035729	 0.144094	 0.738432	 -0.105630	 0.362990	 0.048038	 -0.023163	 0.930266	 1
1463623596.208	 16	 -0.128346	 -0.131397	 0.013246	 0.143659	 0.735884	 -0.105674	 0.361804	 0.047923	 -0.023372	 0.930728	 1
1463623596.218	 16	 -0.197575	 -0.295275	 -0.026044	 0.141023	 0.734099	 -0.105543	 0.360942	 0.046787	 -0.023864	 0.931108	 1
1463623596.228	 16	 -0.288840	 -0.421503	 -0.015766	 0.136956	 0.731437	 -0.105335	 0.359651	 0.045028	 -0.024611	 0.931675	 1
1463623596.238	 16	 -0.350882	 -0.465875	 0.000347	 0.131966	 0.728088	 -0.104774	 0.358020	 0.042926	 -0.025381	 0.932381	 1
1463623596.248	 16	 -0.375055	 -0.406072	 0.023500	 0.127504	 0.725915	 -0.104150	 0.356939	 0.041035	 -0.025973	 0.932864	 1
1463623596.258	 16	 -0.360482	 -0.301504	 0.075503	 0.123277	 0.722354	 -0.102746	 0.355198	 0.039438	 -0.026207	 0.933591	 1
1463623596.268	 16	 -0.327573	 -0.170275	 0.144646	 0.119770	 0.719170	 -0.100529	 0.353626	 0.038302	 -0.025912	 0.934243	 1
1463623596.288	 17	 -0.266299	 0.032661	 0.285613	 0.116631	 0.715092	 -0.094895	 0.351578	 0.037964	 -0.023980	 0.935081	 1
1463623596.298	 17	 -0.234947	 0.101846	 0.305167	 0.114606	 0.713036	 -0.090516	 0.350512	 0.037851	 -0.022360	 0.935526	 1
1463623596.308	 17	 -0.198551	 0.162049	 0.261714	 0.113536	 0.711270	 -0.086599	 0.349601	 0.038090	 -0.020776	 0.935893	 1
1463623596.318	 17	 -0.130236	 0.197731	 0.223084	 0.113285	 0.710022	 -0.083322	 0.348953	 0.038582	 -0.019328	 0.936146	 1
1463623596.328	 17	 -0.058202	 0.359824	 0.164286	 0.114055	 0.709841	 -0.080366	 0.348818	 0.039464	 -0.017816	 0.936190	 1
1463623596.348	 18	 -0.008184	 0.503890	 -0.042633	 0.123143	 0.709607	 -0.079641	 0.348770	 0.043850	 -0.015900	 0.936047	 1
1463623596.358	 18	 -0.073599	 0.491906	 -0.108252	 0.128877	 0.708941	 -0.080771	 0.348529	 0.046357	 -0.015453	 0.936023	 1
1463623596.368	 18	 -0.158511	 0.390878	 -0.140435	 0.134713	 0.705430	 -0.082691	 0.346980	 0.048862	 -0.015471	 0.936471	 1
