% Gyrometer data recorded with 'snsrlog'
% 
% 
% Label description:
% 	 0: Default Label
% 	 1: still_drop
% 	 2: walk_drop
% 	 3: other
% 	 4: dtw_same
% 	 5: dtw_diff
% 	 6: delete
% 
% Column description:
% 	 1: Seconds.milliseconds since 1970
% 	 2: Number of skipped measurements
% 	 3: Gyro X
% 	 4: Gyro Y
% 	 5: Gyro Z
% 	 6: Roll of the device
% 	 7: Pitch of the device
% 	 8: Yaw of the device
% 	 9: Quaternion X
% 	 10: Quaternion Y
% 	 11: Quaternion Z
% 	 12: Quaternion W
% 	 13: Label used for the current sample
% 
% 
1462092176.504	 0	 -0.429783	 0.663331	 -0.653729	 0.392504	 0.367981	 0.111322	 0.168499	 0.201389	 0.089263	 0.960772	 2
1462092176.514	 0	 -0.258885	 0.423023	 -0.868474	 0.399666	 0.362035	 0.104518	 0.166007	 0.204212	 0.086047	 0.960903	 2
1462092176.524	 0	 -0.112249	 0.246569	 -1.087743	 0.405854	 0.356656	 0.094970	 0.164134	 0.206365	 0.081465	 0.961164	 2
1462092176.534	 0	 -0.049210	 0.177098	 -1.255197	 0.411806	 0.351290	 0.083297	 0.162522	 0.208253	 0.075825	 0.961492	 2
1462092176.544	 0	 -0.117633	 0.218199	 -1.335217	 0.418060	 0.345125	 0.070836	 0.160626	 0.210249	 0.069734	 0.961838	 2
1462092176.554	 0	 -0.298587	 0.311312	 -1.328511	 0.424935	 0.337391	 0.058975	 0.157921	 0.212627	 0.063801	 0.962175	 2
1462092176.564	 0	 -0.504008	 0.344533	 -1.230495	 0.431621	 0.328027	 0.048850	 0.154284	 0.215098	 0.058490	 0.962553	 2
1462092176.574	 0	 -0.657577	 0.450449	 -1.060848	 0.438250	 0.317703	 0.041035	 0.149966	 0.217762	 0.054152	 0.962890	 2
1462092176.584	 0	 -0.734585	 0.667245	 -0.823692	 0.445937	 0.307394	 0.035855	 0.145362	 0.221160	 0.051124	 0.962987	 2
1462092176.594	 0	 -0.725164	 0.860567	 -0.561929	 0.454877	 0.298076	 0.033288	 0.140932	 0.225360	 0.049512	 0.962756	 2
1462092176.604	 0	 -0.664219	 0.955334	 -0.376135	 0.464502	 0.290146	 0.032570	 0.136956	 0.230012	 0.048951	 0.962259	 2
1462092176.614	 0	 -0.617756	 0.924778	 -0.464217	 0.474041	 0.282644	 0.031616	 0.133222	 0.234602	 0.048281	 0.961708	 2
1462092176.624	 0	 -0.621612	 1.015341	 -0.737242	 0.484839	 0.274113	 0.028429	 0.129239	 0.239662	 0.046463	 0.961093	 2
1462092176.644	 1	 -0.870649	 0.907100	 -1.243383	 0.507157	 0.250514	 0.016417	 0.118888	 0.249889	 0.039224	 0.960147	 2
1462092176.654	 1	 -1.001441	 0.926433	 -1.416850	 0.518085	 0.235297	 0.008975	 0.112318	 0.254891	 0.034374	 0.959809	 2
1462092176.664	 1	 -1.051564	 1.053180	 -1.559112	 0.530097	 0.218610	 0.000788	 0.105176	 0.260434	 0.028954	 0.959309	 2
1462092176.674	 1	 -0.987774	 1.328665	 -1.678601	 0.544471	 0.201483	 -0.008408	 0.097991	 0.267112	 0.023013	 0.958394	 2
1462092176.684	 1	 -0.805397	 1.870654	 -1.813694	 0.563688	 0.184837	 -0.019225	 0.091304	 0.276076	 0.016473	 0.956648	 2
1462092176.694	 1	 -0.566028	 2.698858	 -1.911451	 0.590711	 0.169269	 -0.031882	 0.085486	 0.288712	 0.009407	 0.953545	 2
1462092176.704	 1	 -0.409022	 3.585839	 -1.857670	 0.626526	 0.154903	 -0.045006	 0.080503	 0.305506	 0.002496	 0.948778	 2
1462092176.714	 1	 -0.420301	 4.171435	 -1.631510	 0.668726	 0.141430	 -0.056191	 0.075913	 0.325343	 -0.003292	 0.942538	 2
1462092176.724	 1	 -0.561606	 4.330993	 -1.393262	 0.712877	 0.128197	 -0.064109	 0.071158	 0.346119	 -0.007633	 0.935457	 2
1462092176.734	 1	 -0.714868	 4.292137	 -1.239890	 0.756507	 0.114394	 -0.069002	 0.065811	 0.366642	 -0.010905	 0.927967	 2
1462092176.744	 1	 -0.759131	 4.150483	 -1.261411	 0.794048	 0.083188	 -0.072141	 0.052255	 0.384707	 -0.017160	 0.921399	 2
1462092176.754	 1	 -0.660084	 3.869008	 -1.451496	 0.831870	 0.063201	 -0.076544	 0.044332	 0.402442	 -0.022226	 0.914101	 2
1462092176.764	 1	 -0.456726	 3.594843	 -1.773430	 0.868516	 0.046409	 -0.083812	 0.038652	 0.419373	 -0.028242	 0.906551	 2
1462092176.774	 1	 -0.074462	 3.519593	 -2.168593	 0.904351	 0.029353	 -0.095489	 0.034036	 0.435748	 -0.036520	 0.898683	 2
1462092176.794	 2	 0.385371	 3.720841	 -2.977506	 0.975627	 -0.012079	 -0.131431	 0.025454	 0.468026	 -0.060832	 0.881251	 2
1462092176.804	 2	 0.486947	 4.191032	 -3.219140	 1.015694	 -0.036062	 -0.152530	 0.021337	 0.486005	 -0.075307	 0.870444	 2
1462092176.814	 2	 0.542851	 4.903056	 -3.425088	 1.061755	 -0.062430	 -0.174262	 0.017224	 0.506466	 -0.090748	 0.857298	 2
1462092176.824	 2	 0.560882	 5.726902	 -3.626468	 1.115262	 -0.091526	 -0.195848	 0.013051	 0.529886	 -0.106962	 0.841195	 2
1462092176.834	 2	 0.614097	 6.504189	 -3.780629	 1.176195	 -0.123165	 -0.216839	 0.009014	 0.556017	 -0.123800	 0.821850	 2
1462092176.844	 2	 0.762593	 7.123744	 -3.940284	 1.243081	 -0.157090	 -0.237532	 0.005440	 0.583962	 -0.141398	 0.799353	 2
1462092176.854	 2	 1.044618	 7.584092	 -4.146280	 1.314140	 -0.193484	 -0.258882	 0.002633	 0.612730	 -0.160230	 0.773875	 2
1462092176.864	 2	 1.458960	 7.828032	 -4.367165	 1.387083	 -0.232628	 -0.281958	 0.000861	 0.641185	 -0.180774	 0.745789	 2
1462092176.874	 2	 1.961780	 7.826012	 -4.588977	 1.459026	 -0.274757	 -0.307572	 0.000245	 0.668074	 -0.203319	 0.715778	 2
1462092176.884	 2	 2.432886	 7.799494	 -4.974868	 1.528801	 -0.321704	 -0.335623	 0.000128	 0.692882	 -0.228292	 0.683957	 2
1462092176.894	 2	 2.835566	 7.499830	 -5.067490	 1.594658	 -0.372101	 -0.365228	 0.000610	 0.714922	 -0.254831	 0.651113	 2
1462092176.904	 2	 3.153102	 7.033168	 -4.903009	 1.654418	 -0.423245	 -0.395663	 0.002024	 0.733535	 -0.281667	 0.618536	 2
1462092176.914	 2	 3.356149	 6.544149	 -4.787831	 1.707719	 -0.474554	 -0.426323	 0.004048	 0.748792	 -0.308291	 0.586729	 2
1462092176.924	 2	 3.424165	 6.080857	 -4.846022	 1.755588	 -0.527757	 -0.455936	 0.005532	 0.761144	 -0.334852	 0.555431	 2
1462092176.934	 2	 3.277622	 5.300855	 -4.810440	 1.796660	 -0.581846	 -0.482624	 0.005595	 0.770401	 -0.360494	 0.525828	 2
1462092176.944	 2	 2.907305	 4.235458	 -4.619963	 1.829264	 -0.634420	 -0.504576	 0.003645	 0.776478	 -0.384011	 0.499603	 2
1462092176.954	 2	 2.395577	 3.022912	 -4.391257	 1.853002	 -0.684033	 -0.520280	 -0.000929	 0.779687	 -0.404673	 0.477836	 2
1462092176.964	 2	 1.953072	 1.692856	 -4.058737	 1.866594	 -0.729643	 -0.530608	 -0.008087	 0.780115	 -0.422464	 0.461388	 2
1462092176.974	 2	 1.647277	 0.415327	 -3.761023	 1.869050	 -0.771269	 -0.537652	 -0.017542	 0.777844	 -0.437904	 0.450433	 2
1462092176.984	 2	 1.481759	 -0.650845	 -3.594718	 1.861020	 -0.810343	 -0.543268	 -0.029116	 0.773157	 -0.451824	 0.444111	 2
1462092176.994	 2	 1.445727	 -1.311991	 -3.551531	 1.844912	 -0.848543	 -0.549194	 -0.042297	 0.766607	 -0.465059	 0.440733	 2
1462092177.004	 2	 1.452848	 -1.551844	 -3.623099	 1.824292	 -0.887044	 -0.556331	 -0.056407	 0.758967	 -0.478117	 0.438396	 2
1462092177.014	 2	 1.445386	 -1.502246	 -3.680124	 1.802355	 -0.926236	 -0.564842	 -0.070814	 0.750953	 -0.491147	 0.435694	 2
1462092177.024	 2	 1.341447	 -1.293210	 -3.497160	 1.781021	 -0.963930	 -0.574388	 -0.084499	 0.743212	 -0.503459	 0.432463	 2
1462092177.034	 2	 1.242096	 -0.920941	 -3.126897	 1.761958	 -0.998085	 -0.585067	 -0.096315	 0.736346	 -0.514620	 0.428585	 2
1462092177.054	 2	 1.243891	 -0.202544	 -2.183422	 1.727510	 -1.052269	 -0.614780	 -0.111998	 0.725349	 -0.533880	 0.419878	 2
1462092177.064	 3	 1.288898	 -0.064543	 -1.762620	 1.708865	 -1.072581	 -0.635141	 -0.116294	 0.720666	 -0.542347	 0.415904	 2
1462092177.074	 3	 1.281493	 -0.098319	 -1.436746	 1.687690	 -1.089201	 -0.658208	 -0.119276	 0.716089	 -0.550054	 0.412832	 2
1462092177.094	 4	 1.030281	 -0.354773	 -0.969076	 1.641993	 -1.114116	 -0.703781	 -0.124116	 0.707305	 -0.562581	 0.409657	 2
1462092177.104	 4	 0.840912	 -0.481801	 -0.669130	 1.620195	 -1.122149	 -0.722973	 -0.126231	 0.703402	 -0.566961	 0.409690	 2
1462092177.114	 4	 0.614648	 -0.643747	 -0.212520	 1.600379	 -1.125778	 -0.738321	 -0.127720	 0.700039	 -0.569647	 0.411261	 2
1462092177.124	 4	 0.363237	 -0.794230	 0.347794	 1.583791	 -1.123914	 -0.748378	 -0.128291	 0.697387	 -0.570264	 0.414718	 2
1462092177.134	 4	 0.088538	 -0.964335	 0.979534	 1.571228	 -1.115707	 -0.752061	 -0.127738	 0.695541	 -0.568496	 0.420377	 2
1462092177.144	 4	 -0.184251	 -1.139072	 1.560058	 1.562698	 -1.101519	 -0.749374	 -0.126146	 0.694447	 -0.564394	 0.428124	 2
1462092177.154	 4	 -0.488232	 -1.299397	 2.062121	 1.558364	 -1.082139	 -0.740030	 -0.123836	 0.694080	 -0.557975	 0.437701	 2
1462092177.174	 5	 -1.132611	 -1.466055	 2.579878	 1.562566	 -1.033601	 -0.702789	 -0.118647	 0.695570	 -0.539155	 0.459802	 2
1462092177.184	 5	 -1.412940	 -1.467788	 2.667563	 1.569989	 -1.007165	 -0.676762	 -0.116497	 0.697290	 -0.527421	 0.471214	 2
1462092177.194	 5	 -1.582818	 -1.289613	 2.674964	 1.580120	 -0.980332	 -0.648608	 -0.114346	 0.699657	 -0.514861	 0.481998	 2
1462092177.204	 5	 -1.636651	 -0.942676	 2.680792	 1.592773	 -0.953364	 -0.620636	 -0.111585	 0.702787	 -0.502057	 0.491506	 2
1462092177.214	 5	 -1.614737	 -0.487560	 2.821254	 1.607800	 -0.925118	 -0.594492	 -0.107332	 0.706831	 -0.489110	 0.499640	 2
1462092177.224	 5	 -1.442707	 0.060151	 3.030545	 1.624524	 -0.894709	 -0.572326	 -0.100730	 0.711797	 -0.476276	 0.506319	 2
1462092177.234	 5	 -1.143864	 0.585020	 3.221467	 1.641492	 -0.862270	 -0.556181	 -0.091455	 0.717369	 -0.464022	 0.511567	 2
1462092177.244	 5	 -0.752450	 1.090141	 3.366637	 1.657727	 -0.828364	 -0.547415	 -0.079403	 0.723218	 -0.452826	 0.515364	 2
1462092177.254	 5	 -0.513875	 1.506881	 3.289571	 1.674343	 -0.794657	 -0.543970	 -0.065577	 0.729317	 -0.442710	 0.517498	 2
1462092177.264	 5	 -0.607356	 1.784383	 2.798454	 1.693877	 -0.764753	 -0.540649	 -0.052506	 0.735891	 -0.433500	 0.517480	 2
1462092177.274	 5	 -0.714744	 2.057819	 2.034585	 1.717411	 -0.741668	 -0.535317	 -0.041765	 0.743044	 -0.425628	 0.514764	 2
1462092177.284	 5	 -0.637992	 2.240214	 1.257607	 1.743408	 -0.726392	 -0.529433	 -0.033458	 0.750387	 -0.419841	 0.509444	 2
1462092177.294	 5	 -0.298326	 2.280189	 0.747719	 1.768198	 -0.717239	 -0.526346	 -0.026473	 0.757100	 -0.416521	 0.502603	 2
1462092177.304	 5	 0.172392	 2.330830	 0.441415	 1.789912	 -0.712331	 -0.528438	 -0.019589	 0.762805	 -0.415709	 0.494904	 2
1462092177.314	 5	 0.617253	 2.447361	 0.263841	 1.809265	 -0.710600	 -0.535909	 -0.012152	 0.767707	 -0.417132	 0.486291	 2
1462092177.324	 5	 0.942778	 2.490767	 0.220911	 1.826427	 -0.710538	 -0.547708	 -0.003999	 0.771892	 -0.420023	 0.477228	 2
1462092177.334	 5	 1.172084	 2.458216	 0.225007	 1.841310	 -0.711301	 -0.562738	 0.004717	 0.775365	 -0.423824	 0.468145	 2
1462092177.344	 5	 1.405757	 2.442702	 0.233485	 1.854048	 -0.712761	 -0.580656	 0.013937	 0.778156	 -0.428398	 0.459079	 2
1462092177.354	 5	 1.652107	 2.392118	 0.251119	 1.864267	 -0.714928	 -0.601791	 0.023704	 0.780167	 -0.433818	 0.450089	 2
1462092177.364	 5	 1.869476	 2.317064	 0.255988	 1.871844	 -0.717809	 -0.625809	 0.033849	 0.781365	 -0.440005	 0.441269	 2
1462092177.374	 5	 2.008879	 2.221031	 0.269868	 1.877014	 -0.721208	 -0.651999	 0.044185	 0.781822	 -0.446732	 0.432704	 2
1462092177.384	 5	 1.983061	 2.166953	 0.282378	 1.881165	 -0.724598	 -0.678577	 0.054466	 0.781904	 -0.453419	 0.424348	 2
1462092177.394	 5	 1.754886	 2.194345	 0.300606	 1.886830	 -0.727423	 -0.702996	 0.064440	 0.782249	 -0.459285	 0.415921	 2
1462092177.404	 5	 1.461863	 2.223434	 0.380163	 1.895046	 -0.728905	 -0.723886	 0.074057	 0.783159	 -0.463774	 0.407544	 2
1462092177.414	 5	 1.222437	 2.112550	 0.686024	 1.904010	 -0.727401	 -0.742816	 0.084020	 0.784277	 -0.466763	 0.399978	 2
1462092177.424	 5	 0.884069	 1.794946	 1.046242	 1.911877	 -0.721546	 -0.759327	 0.094121	 0.785310	 -0.467834	 0.394411	 2
1462092177.434	 5	 0.516652	 1.362231	 1.214871	 1.918295	 -0.712443	 -0.772153	 0.103423	 0.786232	 -0.467146	 0.391046	 2
1462092177.444	 5	 0.235018	 0.724726	 1.192207	 1.921203	 -0.702092	 -0.781386	 0.110866	 0.786610	 -0.465503	 0.390207	 2
1462092177.454	 5	 -0.110401	 0.037407	 1.021494	 1.920395	 -0.691987	 -0.785884	 0.115502	 0.786464	 -0.463209	 0.391881	 2
1462092177.464	 5	 -0.392668	 -0.560121	 0.791385	 1.916382	 -0.682862	 -0.785628	 0.117236	 0.785908	 -0.460481	 0.395679	 2
1462092177.474	 5	 -0.565998	 -0.911232	 0.558356	 1.910262	 -0.675343	 -0.781895	 0.116643	 0.785073	 -0.457694	 0.400713	 2
1462092177.484	 5	 -0.568721	 -0.808070	 0.556142	 1.904589	 -0.668339	 -0.777114	 0.115601	 0.784351	 -0.454819	 0.405672	 2
1462092177.494	 5	 -0.451389	 -0.117453	 0.796015	 1.902924	 -0.659937	 -0.774393	 0.116711	 0.784331	 -0.451667	 0.408900	 2
1462092177.504	 5	 -0.604425	 1.348696	 1.095549	 1.913621	 -0.648503	 -0.772199	 0.121717	 0.786853	 -0.446892	 0.407841	 2
1462092177.514	 5	 -1.072667	 3.629669	 1.134706	 1.947606	 -0.634350	 -0.766248	 0.131122	 0.794351	 -0.438901	 0.398973	 2
1462092177.524	 5	 -1.351946	 4.489964	 0.999133	 1.997373	 -0.619810	 -0.756423	 0.142226	 0.805089	 -0.428680	 0.384495	 2
1462092177.534	 5	 -1.332667	 3.598618	 1.001329	 2.041956	 -0.604983	 -0.746805	 0.151966	 0.814606	 -0.418451	 0.371782	 2
1462092177.544	 5	 -1.087275	 1.824455	 0.945381	 2.068839	 -0.590958	 -0.739871	 0.158570	 0.820488	 -0.410128	 0.365308	 2
1462092177.554	 5	 -0.692795	 -0.038069	 0.645386	 2.075167	 -0.580702	 -0.735756	 0.160963	 0.822260	 -0.405202	 0.365775	 2
1462092177.564	 5	 -0.434954	 -1.330131	 0.194155	 2.066455	 -0.575685	 -0.732525	 0.159240	 0.821047	 -0.403505	 0.371090	 2
1462092177.574	 5	 -0.547619	 -2.077864	 -0.146471	 2.050339	 -0.574013	 -0.726857	 0.154125	 0.818511	 -0.403106	 0.379198	 2
1462092177.584	 5	 -0.882002	 -2.262957	 -0.284897	 2.033074	 -0.572765	 -0.717063	 0.146993	 0.815965	 -0.402082	 0.388491	 2
1462092177.594	 5	 -1.246293	 -1.909679	 -0.263517	 2.020385	 -0.570152	 -0.703202	 0.139531	 0.814528	 -0.399339	 0.396993	 2
1462092177.604	 6	 -1.274191	 -1.401066	 -0.099743	 2.012954	 -0.565893	 -0.688532	 0.133279	 0.814144	 -0.395392	 0.403822	 2
1462092177.624	 6	 0.396587	 -0.876972	 0.245486	 1.996999	 -0.559848	 -0.681780	 0.129100	 0.811471	 -0.392906	 0.412884	 2
1462092177.634	 6	 1.448766	 -0.825306	 0.168596	 1.981094	 -0.562944	 -0.695819	 0.130752	 0.807198	 -0.397943	 0.415904	 2
1462092177.644	 6	 1.958500	 -0.491263	 -0.055478	 1.964200	 -0.570139	 -0.716220	 0.133487	 0.802204	 -0.405820	 0.417085	 2
1462092177.654	 6	 1.990711	 0.082472	 -0.420239	 1.952205	 -0.580672	 -0.736916	 0.136234	 0.798154	 -0.414557	 0.415371	 2
1462092177.664	 6	 1.736358	 0.872025	 -0.913717	 1.949299	 -0.594706	 -0.753786	 0.138228	 0.796201	 -0.423001	 0.409911	 2
1462092177.674	 6	 0.955509	 2.140821	 -1.534569	 1.963871	 -0.611769	 -0.760583	 0.139039	 0.798404	 -0.429122	 0.398841	 2
1462092177.684	 6	 0.789393	 1.912600	 -1.978603	 1.985427	 -0.632197	 -0.760015	 0.137522	 0.802237	 -0.434417	 0.385727	 2
1462092177.694	 6	 1.265512	 0.503896	 -2.146130	 1.992335	 -0.656106	 -0.762285	 0.133031	 0.802751	 -0.442444	 0.377011	 2
1462092177.704	 6	 1.721542	 -0.155177	 -2.351268	 1.987662	 -0.683641	 -0.769167	 0.126758	 0.800554	 -0.453230	 0.370983	 2
1462092177.714	 6	 1.983868	 -0.284780	 -2.516754	 1.978558	 -0.714076	 -0.779275	 0.119811	 0.797172	 -0.465655	 0.365140	 2
1462092177.724	 6	 2.067946	 -0.351874	 -2.494663	 1.967071	 -0.745317	 -0.791461	 0.112727	 0.793169	 -0.478598	 0.359332	 2
1462092177.734	 6	 1.909200	 -0.205585	 -2.333121	 1.955821	 -0.774754	 -0.804067	 0.106218	 0.789248	 -0.490746	 0.353517	 2
1462092177.744	 6	 1.514742	 0.015450	 -2.226383	 1.948702	 -0.801632	 -0.813605	 0.100137	 0.786314	 -0.501096	 0.347254	 2
1462092177.754	 6	 0.990847	 0.085678	 -2.287245	 1.947258	 -0.826767	 -0.816697	 0.093400	 0.784708	 -0.509353	 0.340689	 2
1462092177.764	 6	 0.536667	 -0.045783	 -2.558415	 1.950829	 -0.852147	 -0.811921	 0.084772	 0.784171	 -0.516043	 0.334049	 2
1462092177.774	 6	 0.255855	 -0.361060	 -3.026773	 1.957434	 -0.880221	 -0.799675	 0.073214	 0.784050	 -0.522179	 0.327465	 2
1462092177.784	 6	 0.110105	 -0.720817	 -3.560667	 1.965770	 -0.912447	 -0.780847	 0.058334	 0.783776	 -0.528495	 0.320914	 2
1462092177.794	 6	 0.029439	 -0.905919	 -4.037020	 1.976520	 -0.948928	 -0.756363	 0.040695	 0.783139	 -0.535245	 0.313927	 2
1462092177.804	 6	 -0.037397	 -0.963719	 -4.406801	 1.991791	 -0.988747	 -0.725986	 0.021127	 0.782230	 -0.542213	 0.306064	 2
1462092177.814	 6	 -0.117916	 -1.151885	 -4.573044	 2.012737	 -1.029792	 -0.688543	 0.000221	 0.781109	 -0.548787	 0.297830	 2
1462092177.824	 6	 -0.258280	 -1.830198	 -4.445980	 2.033966	 -1.069115	 -0.645139	 -0.022117	 0.779064	 -0.554425	 0.291861	 2
1462092177.834	 6	 -0.304067	 -2.627617	 -4.278216	 2.052182	 -1.106198	 -0.597012	 -0.046140	 0.775629	 -0.559100	 0.289273	 2
1462092177.844	 6	 -0.182445	 -2.982176	 -4.134434	 2.067902	 -1.141960	 -0.547099	 -0.070805	 0.770801	 -0.563406	 0.288836	 2
1462092177.854	 6	 0.070729	 -2.831833	 -3.980703	 2.083505	 -1.177150	 -0.498477	 -0.094431	 0.764956	 -0.568015	 0.288589	 2
1462092177.864	 6	 0.386549	 -2.323009	 -3.795407	 2.100573	 -1.212002	 -0.453611	 -0.115666	 0.758515	 -0.573415	 0.287179	 2
1462092177.874	 6	 0.717911	 -1.716124	 -3.575230	 2.118938	 -1.246452	 -0.414289	 -0.133858	 0.751742	 -0.579843	 0.284161	 2
1462092177.884	 6	 0.997204	 -1.110793	 -3.297062	 2.137526	 -1.279973	 -0.381552	 -0.148829	 0.744864	 -0.587188	 0.279711	 2
1462092177.894	 6	 1.215618	 -0.550717	 -2.977221	 2.154967	 -1.311988	 -0.356276	 -0.160591	 0.738095	 -0.595216	 0.274125	 2
1462092177.904	 6	 1.361160	 -0.089051	 -2.617162	 2.169447	 -1.341832	 -0.339425	 -0.169293	 0.731636	 -0.603598	 0.267802	 2
1462092177.914	 6	 1.506255	 0.087263	 -2.299187	 2.176186	 -1.369732	 -0.333107	 -0.175830	 0.725197	 -0.612141	 0.261643	 2
1462092177.924	 6	 1.657092	 0.116842	 -1.973036	 2.168442	 -1.395841	 -0.342195	 -0.180793	 0.718531	 -0.620748	 0.256319	 2
1462092177.934	 6	 1.747872	 0.004756	 -1.552827	 2.136319	 -1.419283	 -0.375171	 -0.184405	 0.711642	 -0.629108	 0.252554	 2
1462092177.944	 6	 1.845883	 -0.745240	 -1.240931	 2.067789	 -1.439752	 -0.439318	 -0.188327	 0.704048	 -0.636712	 0.251887	 2
1462092177.954	 6	 1.944943	 -1.976661	 -1.167991	 1.949160	 -1.458504	 -0.542010	 -0.195313	 0.694658	 -0.643316	 0.255828	 2
1462092177.964	 6	 1.988861	 -2.836101	 -1.449206	 1.776610	 -1.477252	 -0.688721	 -0.206019	 0.683448	 -0.649229	 0.262597	 2
1462092177.974	 6	 2.059188	 -3.059537	 -2.017817	 1.519860	 -1.497495	 -0.915867	 -0.219511	 0.670784	 -0.655371	 0.268986	 2
1462092177.984	 6	 2.132648	 -2.913151	 -2.774852	 1.054473	 -1.516773	 -1.352477	 -0.234955	 0.656862	 -0.662532	 0.272727	 2
1462092177.994	 6	 2.131854	 -2.673994	 -3.529311	 0.250402	 -1.520358	 -2.130188	 -0.252008	 0.641927	 -0.670723	 0.273044	 2
1462092178.004	 6	 2.010815	 -2.517163	 -4.098046	 -0.392886	 -1.495940	 -2.749094	 -0.270409	 0.626366	 -0.679285	 0.270399	 2
1462092178.014	 6	 1.784249	 -2.496885	 -4.473165	 -0.710926	 -1.456782	 -3.043461	 -0.290007	 0.610567	 -0.687391	 0.265703	 2
1462092178.024	 6	 1.414983	 -2.548531	 -4.709122	 -0.893600	 -1.412560	 3.080976	 -0.310832	 0.594991	 -0.694282	 0.259504	 2
1462092178.034	 6	 0.998939	 -2.654598	 -4.543425	 -1.016778	 -1.368469	 2.982457	 -0.332120	 0.580375	 -0.699215	 0.252902	 2
1462092178.054	 7	 0.260440	 -2.635572	 -2.953095	 -1.171747	 -1.298404	 2.878614	 -0.370597	 0.557128	 -0.701820	 0.244366	 2
1462092178.064	 7	 -0.041152	 -2.454473	 -1.716763	 -1.221462	 -1.279359	 2.852821	 -0.384934	 0.550140	 -0.699673	 0.244193	 2
1462092178.084	 8	 -0.134067	 -3.217760	 0.790011	 -1.290671	 -1.278439	 2.839538	 -0.405513	 0.543799	 -0.687852	 0.258266	 2
1462092178.094	 8	 -0.071304	 -3.463121	 1.300879	 -1.316406	 -1.290542	 2.848400	 -0.413967	 0.542058	 -0.678991	 0.271615	 2
1462092178.104	 8	 -0.134418	 -3.702237	 1.009316	 -1.347257	 -1.301667	 2.854035	 -0.423335	 0.539736	 -0.669533	 0.284952	 2
1462092178.114	 8	 -0.204303	 -4.045171	 0.479181	 -1.389016	 -1.307993	 2.851820	 -0.435136	 0.535887	 -0.659648	 0.297231	 2
1462092178.124	 8	 -0.313061	 -4.227823	 0.182146	 -1.439901	 -1.310749	 2.842574	 -0.448660	 0.530965	 -0.649278	 0.308574	 2
1462092178.134	 8	 -0.681674	 -4.102229	 0.191853	 -1.502093	 -1.313016	 2.821294	 -0.462488	 0.526644	 -0.638035	 0.318844	 2
1462092178.144	 8	 -1.407294	 -3.225632	 0.510070	 -1.583081	 -1.317414	 2.773802	 -0.474449	 0.525773	 -0.625984	 0.326504	 2
1462092178.154	 8	 -2.170507	 -1.530882	 1.138904	 -1.683357	 -1.325811	 2.690794	 -0.481315	 0.530997	 -0.614404	 0.329980	 2
1462092178.164	 8	 -2.738875	 0.067584	 1.769409	 -1.803235	 -1.337313	 2.570416	 -0.482160	 0.542374	 -0.604022	 0.329409	 2
1462092178.174	 8	 -3.086390	 0.741374	 2.141064	 -1.947557	 -1.348024	 2.415727	 -0.479511	 0.557415	 -0.593878	 0.326600	 2
1462092178.184	 8	 -3.211715	 0.742833	 2.291375	 -2.113269	 -1.354159	 2.238217	 -0.476082	 0.573437	 -0.582982	 0.323494	 2
1462092178.194	 8	 -3.184894	 0.959012	 2.338981	 -2.284707	 -1.354223	 2.053807	 -0.471942	 0.589596	 -0.571989	 0.320118	 2
1462092178.204	 8	 -3.082977	 1.987132	 2.326345	 -2.440401	 -1.348407	 1.877152	 -0.465170	 0.606530	 -0.562917	 0.314423	 2
1462092178.214	 8	 -3.036240	 3.509144	 2.343299	 -2.568311	 -1.337827	 1.713763	 -0.453927	 0.625243	 -0.557133	 0.304342	 2
1462092178.224	 8	 -3.144433	 4.761483	 2.364420	 -2.670298	 -1.322582	 1.562644	 -0.438610	 0.645807	 -0.553733	 0.289714	 2
1462092178.234	 8	 -3.161574	 5.194468	 2.370730	 -2.750748	 -1.303592	 1.426201	 -0.421081	 0.666898	 -0.551061	 0.272525	 2
1462092178.244	 8	 -2.886567	 4.648247	 2.400554	 -2.817879	 -1.284119	 1.306148	 -0.403623	 0.686388	 -0.547820	 0.256619	 2
1462092178.254	 8	 -2.547794	 3.438596	 2.345850	 -2.879485	 -1.265806	 1.202308	 -0.388392	 0.702969	 -0.543203	 0.244778	 2
1462092178.264	 8	 -2.275354	 2.089813	 2.145484	 -2.938103	 -1.248141	 1.115303	 -0.376865	 0.716411	 -0.536870	 0.237695	 2
1462092178.274	 8	 -2.096592	 0.880920	 1.837462	 -2.992091	 -1.230511	 1.045722	 -0.369308	 0.727069	 -0.529112	 0.234571	 2
1462092178.284	 8	 -1.986608	 -0.407730	 1.503719	 -3.042916	 -1.212505	 0.992448	 -0.366073	 0.735170	 -0.519754	 0.235312	 2
1462092178.294	 8	 -1.807316	 -1.695631	 1.154459	 -3.092715	 -1.194871	 0.954007	 -0.367266	 0.740583	 -0.508859	 0.240240	 2
1462092178.304	 8	 -1.480982	 -2.589285	 0.816112	 -3.139938	 -1.179415	 0.928964	 -0.371889	 0.743257	 -0.497507	 0.248504	 2
1462092178.314	 8	 -1.084671	 -2.809780	 0.637957	 3.100004	 -1.167468	 0.912376	 -0.377791	 0.743872	 -0.487032	 0.258318	 2
1462092178.324	 8	 -0.784818	 -2.448303	 0.738889	 3.059742	 -1.159212	 0.896534	 -0.382511	 0.743671	 -0.478332	 0.268024	 2
1462092178.334	 8	 -0.637056	 -1.611263	 0.942556	 3.023161	 -1.152075	 0.876585	 -0.384474	 0.744347	 -0.471291	 0.275704	 2
1462092178.344	 8	 -0.676890	 -0.550931	 1.207486	 2.992024	 -1.143986	 0.851419	 -0.383096	 0.746934	 -0.465674	 0.280133	 2
1462092178.354	 8	 -0.819285	 0.489459	 1.467795	 2.967044	 -1.134009	 0.821333	 -0.378390	 0.751746	 -0.461223	 0.281019	 2
1462092178.364	 8	 -1.031313	 1.248189	 1.727155	 2.947296	 -1.121412	 0.787370	 -0.370961	 0.758621	 -0.457278	 0.278887	 2
1462092178.374	 8	 -1.234509	 1.507059	 1.848567	 2.930339	 -1.106040	 0.752162	 -0.362299	 0.766720	 -0.452876	 0.275286	 2
1462092178.384	 8	 -1.279030	 1.597366	 1.816757	 2.916567	 -1.089621	 0.718991	 -0.353435	 0.775022	 -0.448279	 0.271054	 2
1462092178.394	 8	 -1.279935	 1.732638	 1.696526	 2.907310	 -1.073230	 0.689316	 -0.344630	 0.783170	 -0.443929	 0.266087	 2
1462092178.404	 8	 -1.299868	 1.972691	 1.497505	 2.904602	 -1.057019	 0.664439	 -0.336020	 0.791175	 -0.440037	 0.259809	 2
1462092178.414	 8	 -1.310901	 2.296679	 1.289595	 2.909305	 -1.041181	 0.644358	 -0.327511	 0.799095	 -0.436790	 0.251789	 2
1462092178.424	 8	 -1.322849	 2.631492	 1.107372	 2.921135	 -1.025738	 0.628405	 -0.318995	 0.806971	 -0.434201	 0.241888	 2
1462092178.434	 8	 -1.317380	 2.758259	 0.990204	 2.936837	 -1.010660	 0.614714	 -0.310497	 0.814674	 -0.431939	 0.230927	 2
1462092178.444	 8	 -1.220623	 2.765767	 0.891381	 2.954296	 -0.996598	 0.602593	 -0.302209	 0.821889	 -0.430027	 0.219649	 2
1462092178.454	 8	 -1.009047	 2.737350	 0.725147	 2.972897	 -0.984683	 0.592035	 -0.294243	 0.828287	 -0.428866	 0.208412	 2
1462092178.464	 8	 -0.621283	 2.912125	 0.342920	 2.996663	 -0.976801	 0.586340	 -0.287054	 0.833369	 -0.429538	 0.196450	 2
1462092178.474	 8	 -0.283183	 2.808500	 0.416813	 3.020683	 -0.972721	 0.580651	 -0.279665	 0.837412	 -0.431742	 0.184735	 2
1462092178.484	 8	 0.136056	 2.536153	 0.430878	 3.040052	 -0.972456	 0.572736	 -0.272159	 0.840306	 -0.435013	 0.174866	 2
1462092178.494	 8	 0.642192	 2.550147	 0.218777	 3.060709	 -0.977365	 0.567018	 -0.265006	 0.841702	 -0.440368	 0.165487	 2
1462092178.504	 8	 1.027647	 2.420918	 0.154536	 3.081955	 -0.986595	 0.562983	 -0.258124	 0.841813	 -0.447398	 0.156710	 2
1462092178.514	 8	 1.452544	 2.275677	 0.098329	 3.102211	 -0.999906	 0.559571	 -0.251375	 0.840709	 -0.455882	 0.148964	 2
1462092178.524	 8	 2.028511	 2.110164	 -0.052104	 3.123063	 -1.018626	 0.558748	 -0.245087	 0.837947	 -0.466423	 0.142221	 2
1462092178.534	 8	 2.760166	 1.471911	 -0.208292	 -3.140637	 -1.044261	 0.561785	 -0.240048	 0.832855	 -0.479297	 0.137856	 2
1462092178.544	 8	 3.832088	 0.191753	 -0.449084	 -3.128127	 -1.079659	 0.570013	 -0.237855	 0.824147	 -0.494868	 0.138970	 2
1462092178.554	 8	 5.000159	 -1.350727	 -0.890321	 -3.120671	 -1.126682	 0.589001	 -0.240050	 0.810653	 -0.513562	 0.146532	 2
1462092178.564	 8	 5.563823	 -3.291452	 -1.491997	 -3.115084	 -1.181287	 0.625319	 -0.248433	 0.792516	 -0.533236	 0.160806	 2
1462092178.574	 8	 2.616072	 -3.843893	 -1.422446	 -3.112730	 -1.218895	 0.671332	 -0.262267	 0.776844	 -0.544310	 0.177360	 2
1462092178.584	 8	 -1.002894	 -1.652202	 -0.302648	 -3.119029	 -1.214571	 0.687140	 -0.270543	 0.775327	 -0.540378	 0.183485	 2
1462092178.594	 8	 -1.341202	 -0.566311	 0.285913	 -3.131997	 -1.201079	 0.681907	 -0.273320	 0.778437	 -0.533877	 0.185225	 2
1462092178.604	 8	 -0.957840	 -0.078212	 0.573807	 3.136591	 -1.190451	 0.667864	 -0.272716	 0.781821	 -0.529043	 0.185729	 2
1462092178.614	 8	 -0.513630	 -0.370948	 0.719620	 3.117129	 -1.184100	 0.649605	 -0.271256	 0.784174	 -0.525606	 0.187696	 2
1462092178.624	 8	 -0.090801	 -0.815368	 0.767222	 3.091456	 -1.181886	 0.629640	 -0.270332	 0.785030	 -0.523150	 0.192255	 2
1462092178.634	 8	 0.148893	 -1.075009	 0.700905	 3.063533	 -1.182510	 0.610468	 -0.270056	 0.784726	 -0.521498	 0.198280	 2
1462092178.644	 8	 0.124765	 -1.125680	 0.597265	 3.036691	 -1.183358	 0.593664	 -0.270399	 0.784063	 -0.519902	 0.204526	 2
1462092178.654	 8	 0.034319	 -0.939346	 0.442053	 3.014831	 -1.183321	 0.580826	 -0.271043	 0.783547	 -0.518258	 0.209758	 2
1462092178.664	 8	 0.141800	 -0.684141	 0.330522	 2.998483	 -1.183794	 0.571214	 -0.271486	 0.782990	 -0.517249	 0.213719	 2
1462092178.674	 8	 0.564215	 -0.458111	 0.283119	 2.984596	 -1.187707	 0.561752	 -0.271191	 0.781697	 -0.517960	 0.217076	 2
1462092178.684	 8	 1.106104	 -0.442193	 0.203946	 2.970718	 -1.196995	 0.551333	 -0.270319	 0.779004	 -0.520963	 0.220631	 2
1462092178.694	 8	 1.281306	 -0.736228	 0.062201	 2.955694	 -1.209306	 0.542267	 -0.270223	 0.775091	 -0.524894	 0.225164	 2
1462092178.704	 8	 0.986618	 -1.002082	 -0.196687	 2.943973	 -1.220199	 0.539772	 -0.271930	 0.771000	 -0.527959	 0.229940	 2
1462092178.714	 8	 0.225829	 -1.158555	 -0.520840	 2.942159	 -1.225422	 0.549963	 -0.276132	 0.767900	 -0.528618	 0.233760	 2
1462092178.724	 8	 -0.709230	 -0.593458	 -0.707803	 2.954959	 -1.221972	 0.572051	 -0.281376	 0.767305	 -0.526440	 0.234376	 2
1462092178.734	 8	 -1.124882	 0.505789	 -0.801598	 2.983185	 -1.212665	 0.599704	 -0.285041	 0.769298	 -0.523519	 0.229912	 2
1462092178.744	 8	 -0.146094	 1.706481	 -0.569808	 3.016313	 -1.208897	 0.620224	 -0.284481	 0.771174	 -0.524420	 0.222138	 2
1462092178.754	 8	 0.489418	 2.021446	 -0.001162	 3.039479	 -1.213472	 0.622762	 -0.279062	 0.772074	 -0.529217	 0.214373	 2
1462092178.764	 8	 -0.145856	 0.998462	 0.064125	 3.049271	 -1.213822	 0.619993	 -0.275373	 0.773399	 -0.531007	 0.209894	 2
1462092178.774	 8	 -1.021157	 0.455079	 -0.419298	 3.064016	 -1.206114	 0.629721	 -0.275778	 0.775717	 -0.528985	 0.205877	 2
1462092178.784	 8	 -1.856686	 0.364305	 -1.100285	 3.093806	 -1.190128	 0.657853	 -0.280101	 0.779167	 -0.523968	 0.199749	 2
1462092178.794	 8	 -2.251515	 0.530347	 -1.829612	 3.139808	 -1.168598	 0.702398	 -0.287412	 0.783017	 -0.517688	 0.190467	 2
1462092178.804	 8	 -1.957834	 0.637769	 -2.443983	 -3.085776	 -1.147148	 0.758550	 -0.296808	 0.785576	 -0.512556	 0.179059	 2
1462092178.814	 8	 -0.801152	 0.752254	 -2.616050	 -3.024252	 -1.133612	 0.818361	 -0.306178	 0.785172	 -0.511448	 0.167875	 2
1462092178.824	 8	 0.542359	 0.832412	 -2.459677	 -2.962296	 -1.132125	 0.877701	 -0.313718	 0.781374	 -0.515649	 0.158561	 2
1462092178.834	 8	 1.413309	 0.647690	 -2.206802	 -2.901841	 -1.139408	 0.936531	 -0.319767	 0.775136	 -0.523316	 0.151836	 2
1462092178.844	 8	 1.942295	 0.327086	 -1.909583	 -2.844833	 -1.151678	 0.994626	 -0.324984	 0.767443	 -0.532473	 0.147951	 2
1462092178.854	 8	 2.437171	 0.039342	 -1.641603	 -2.789787	 -1.168149	 1.053522	 -0.329505	 0.758521	 -0.542713	 0.146748	 2
1462092178.864	 8	 2.958943	 -0.145800	 -1.441111	 -2.732086	 -1.188907	 1.117131	 -0.333318	 0.748217	 -0.554287	 0.147768	 2
1462092178.874	 8	 3.349832	 -0.195951	 -1.305366	 -2.666794	 -1.212719	 1.189202	 -0.336384	 0.736681	 -0.567087	 0.150198	 2
1462092178.884	 8	 3.497447	 -0.193646	 -1.221369	 -2.591589	 -1.236953	 1.271221	 -0.338829	 0.724480	 -0.580383	 0.153232	 2
1462092178.894	 8	 3.515672	 -0.189330	 -1.205501	 -2.504750	 -1.259361	 1.364740	 -0.340988	 0.711974	 -0.593616	 0.156335	 2
1462092178.904	 8	 3.529816	 -0.330011	 -1.238906	 -2.405261	 -1.278839	 1.471891	 -0.343390	 0.699081	 -0.606525	 0.159675	 2
1462092178.914	 8	 3.582612	 -0.648419	 -1.271104	 -2.293169	 -1.294909	 1.594443	 -0.346594	 0.685510	 -0.618945	 0.163878	 2
1462092178.924	 8	 3.567749	 -1.123469	 -1.224239	 -2.173364	 -1.307142	 1.729094	 -0.350948	 0.671332	 -0.630378	 0.169624	 2
1462092178.934	 8	 3.432461	 -1.622120	 -1.107270	 -2.054239	 -1.315332	 1.867859	 -0.356492	 0.656996	 -0.640232	 0.177123	 2
1462092178.944	 8	 3.246688	 -1.967434	 -0.986303	 -1.940956	 -1.319719	 2.004423	 -0.362908	 0.642836	 -0.648454	 0.185925	 2
1462092178.954	 8	 2.997884	 -2.097743	 -0.869181	 -1.836927	 -1.320777	 2.133247	 -0.369617	 0.629221	 -0.655251	 0.195219	 2
1462092178.964	 8	 2.670993	 -2.037464	 -0.756000	 -1.745838	 -1.319152	 2.248564	 -0.376094	 0.616632	 -0.660773	 0.204201	 2
1462092178.974	 8	 2.277565	 -1.815446	 -0.659919	 -1.669952	 -1.315643	 2.346350	 -0.381927	 0.605495	 -0.665194	 0.212188	 2
1462092178.984	 8	 1.813070	 -1.479603	 -0.589870	 -1.610834	 -1.310943	 2.423735	 -0.386906	 0.596193	 -0.668632	 0.218606	 2
1462092178.994	 8	 1.303214	 -1.017185	 -0.537431	 -1.568625	 -1.305722	 2.479245	 -0.390773	 0.589077	 -0.671259	 0.222925	 2
1462092179.004	 8	 0.845705	 -0.533727	 -0.495910	 -1.540584	 -1.300505	 2.515037	 -0.393366	 0.584149	 -0.673357	 0.224995	 2
1462092179.014	 8	 0.494096	 -0.232383	 -0.444217	 -1.523619	 -1.295710	 2.535687	 -0.395037	 0.580982	 -0.674970	 0.225435	 2
1462092179.024	 8	 0.296680	 -0.266584	 -0.400186	 -1.514961	 -1.291451	 2.547107	 -0.396633	 0.578782	 -0.675939	 0.225389	 2
1462092179.034	 8	 0.309749	 -0.685541	 -0.381801	 -1.511187	 -1.287446	 2.556847	 -0.399299	 0.576397	 -0.676108	 0.226286	 2
1462092179.044	 8	 0.487199	 -1.324026	 -0.354118	 -1.508733	 -1.283549	 2.571520	 -0.403776	 0.572869	 -0.675441	 0.229272	 2
1462092179.054	 8	 0.694365	 -1.818601	 -0.269934	 -1.504832	 -1.280191	 2.593462	 -0.409649	 0.568106	 -0.674140	 0.234475	 2
1462092179.064	 8	 0.814749	 -1.956413	 -0.158228	 -1.498421	 -1.277789	 2.620442	 -0.415777	 0.562749	 -0.672588	 0.240974	 2
1462092179.074	 8	 0.862680	 -1.839841	 -0.050984	 -1.489312	 -1.276360	 2.649540	 -0.421251	 0.557438	 -0.671144	 0.247743	 2
1462092179.084	 8	 0.872815	 -1.538548	 -0.006704	 -1.476969	 -1.275496	 2.679445	 -0.425639	 0.552448	 -0.670135	 0.254073	 2
1462092179.094	 8	 0.839432	 -1.079580	 -0.090601	 -1.461467	 -1.274021	 2.708185	 -0.428736	 0.547934	 -0.669989	 0.258977	 2
1462092179.104	 8	 0.809939	 -0.625528	 -0.264101	 -1.443301	 -1.270902	 2.734880	 -0.430729	 0.543775	 -0.670919	 0.262009	 2
1462092179.114	 8	 0.786372	 -0.245119	 -0.470311	 -1.423348	 -1.265674	 2.759291	 -0.431948	 0.539772	 -0.672891	 0.263220	 2
1462092179.124	 8	 0.793274	 0.009900	 -0.648112	 -1.402370	 -1.258441	 2.781771	 -0.432690	 0.535745	 -0.675714	 0.262996	 2
1462092179.134	 8	 0.870083	 0.111911	 -0.776789	 -1.380065	 -1.249570	 2.804237	 -0.433249	 0.531383	 -0.679163	 0.262042	 2
1462092179.144	 8	 0.974390	 0.096343	 -0.827933	 -1.356401	 -1.239627	 2.828104	 -0.433818	 0.526511	 -0.682974	 0.261028	 2
1462092179.154	 8	 1.035005	 0.040943	 -0.816187	 -1.332595	 -1.229313	 2.852721	 -0.434445	 0.521295	 -0.686849	 0.260282	 2
1462092179.164	 8	 1.101952	 -0.061000	 -0.766562	 -1.309236	 -1.219071	 2.877884	 -0.435169	 0.515833	 -0.690602	 0.260024	 2
1462092179.174	 8	 1.233579	 -0.274614	 -0.689764	 -1.285591	 -1.209013	 2.905379	 -0.436164	 0.509872	 -0.694131	 0.260718	 2
1462092179.184	 8	 1.366656	 -0.621285	 -0.627005	 -1.262466	 -1.198980	 2.935788	 -0.437867	 0.503136	 -0.697203	 0.262743	 2
1462092179.194	 8	 1.384912	 -1.084765	 -0.584583	 -1.243381	 -1.188985	 2.966644	 -0.440867	 0.495704	 -0.699352	 0.266122	 2
1462092179.204	 8	 1.166535	 -1.697670	 -0.562807	 -1.234453	 -1.179582	 2.992825	 -0.445959	 0.488055	 -0.699765	 0.270653	 2
1462092179.214	 8	 0.554709	 -2.456269	 -0.550684	 -1.244700	 -1.171934	 3.006230	 -0.454198	 0.481142	 -0.697218	 0.275852	 2
1462092179.224	 8	 -0.497837	 -3.040776	 -0.470224	 -1.282257	 -1.167801	 2.997149	 -0.465825	 0.476665	 -0.690690	 0.280614	 2
1462092179.234	 8	 -1.787483	 -2.996084	 -0.109009	 -1.347381	 -1.169284	 2.959603	 -0.478908	 0.476815	 -0.680312	 0.283671	 2
1462092179.244	 8	 -2.870369	 -2.411166	 0.616726	 -1.433085	 -1.178147	 2.894492	 -0.490291	 0.483064	 -0.667175	 0.284853	 2
1462092179.254	 8	 -3.348463	 -1.740141	 1.433915	 -1.529812	 -1.193294	 2.810798	 -0.498269	 0.494142	 -0.652714	 0.285510	 2
1462092179.264	 8	 -3.454828	 -0.854445	 2.083606	 -1.630334	 -1.212356	 2.714696	 -0.501827	 0.508534	 -0.638620	 0.285881	 2
1462092179.274	 8	 -3.553417	 -0.084922	 2.410287	 -1.736528	 -1.231736	 2.604434	 -0.501602	 0.525196	 -0.625520	 0.285113	 2
1462092179.284	 8	 -3.727045	 0.368204	 2.490619	 -1.854423	 -1.247734	 2.477015	 -0.499393	 0.543164	 -0.612829	 0.282878	 2
1462092179.294	 8	 -3.845937	 1.102056	 2.583744	 -1.981725	 -1.258697	 2.333824	 -0.495068	 0.562349	 -0.600843	 0.278673	 2
1462092179.304	 8	 -3.720861	 2.349577	 2.767983	 -2.105605	 -1.265753	 2.182480	 -0.486408	 0.583047	 -0.591304	 0.271704	 2
1462092179.314	 8	 -3.421338	 3.327886	 2.859739	 -2.218349	 -1.269848	 2.031785	 -0.473501	 0.604322	 -0.584574	 0.262422	 2
1462092179.324	 8	 -3.100101	 3.814868	 2.822041	 -2.318683	 -1.271152	 1.887727	 -0.458017	 0.624976	 -0.579842	 0.251810	 2
1462092179.334	 8	 -2.805077	 3.740188	 2.763357	 -2.409937	 -1.270109	 1.752528	 -0.441804	 0.644203	 -0.575824	 0.241327	 2
1462092179.344	 8	 -2.567063	 3.334974	 2.715950	 -2.496712	 -1.267243	 1.625620	 -0.426114	 0.661716	 -0.571503	 0.232255	 2
1462092179.354	 8	 -2.469473	 2.916380	 2.526828	 -2.578391	 -1.261459	 1.508264	 -0.411699	 0.677649	 -0.566562	 0.224285	 2
1462092179.364	 8	 -2.502196	 2.354715	 2.209618	 -2.652617	 -1.251460	 1.403806	 -0.399518	 0.692069	 -0.560620	 0.217097	 2
1462092179.374	 8	 -2.619513	 1.415437	 2.000470	 -2.723581	 -1.237162	 1.311153	 -0.390472	 0.705105	 -0.552715	 0.211813	 2
1462092179.384	 8	 -2.774177	 0.170642	 1.886855	 -2.796717	 -1.218848	 1.228220	 -0.385221	 0.716812	 -0.541946	 0.209952	 2
1462092179.394	 8	 -2.677147	 -0.961460	 1.868015	 -2.872618	 -1.198446	 1.154524	 -0.383213	 0.726987	 -0.528767	 0.212234	 2
1462092179.404	 8	 -2.014269	 -1.915676	 1.967401	 -2.949174	 -1.181386	 1.090258	 -0.382929	 0.734632	 -0.515383	 0.219232	 2
1462092179.414	 8	 -1.263047	 -2.430133	 2.023216	 -3.025796	 -1.170282	 1.032584	 -0.383047	 0.739537	 -0.503334	 0.230248	 2
1462092179.424	 8	 -0.794427	 -2.361666	 1.973945	 -3.097693	 -1.162947	 0.980501	 -0.382735	 0.742725	 -0.493081	 0.242372	 2
1462092179.434	 8	 -0.531998	 -2.195114	 2.020103	 3.117100	 -1.157267	 0.930185	 -0.381451	 0.745223	 -0.484156	 0.254424	 2
1462092179.444	 8	 -0.466749	 -2.221391	 2.089631	 3.048825	 -1.151327	 0.879676	 -0.379624	 0.747428	 -0.475486	 0.266741	 2
1462092179.454	 8	 -0.517932	 -2.169496	 2.038337	 2.982944	 -1.143792	 0.831480	 -0.377769	 0.749509	 -0.466657	 0.278853	 2
1462092179.464	 8	 -0.641808	 -1.833076	 1.885879	 2.924910	 -1.134205	 0.788893	 -0.375865	 0.751803	 -0.457982	 0.289430	 2
1462092179.474	 8	 -0.762578	 -1.240765	 1.673961	 2.879154	 -1.122959	 0.753770	 -0.373621	 0.754654	 -0.450053	 0.297248	 2
1462092179.484	 8	 -0.793259	 -0.559329	 1.468482	 2.846400	 -1.111160	 0.725453	 -0.370698	 0.758156	 -0.443423	 0.301925	 2
1462092179.494	 8	 -0.768580	 0.077413	 1.282355	 2.825095	 -1.099739	 0.702393	 -0.366971	 0.762218	 -0.438325	 0.303689	 2
1462092179.504	 8	 -0.713080	 0.498890	 1.051326	 2.813065	 -1.089334	 0.684394	 -0.362955	 0.766432	 -0.434589	 0.303278	 2
1462092179.514	 8	 -0.645234	 0.847791	 0.790739	 2.809476	 -1.080272	 0.671688	 -0.359016	 0.770572	 -0.432123	 0.300993	 2
1462092179.524	 8	 -0.503573	 1.190476	 0.582739	 2.812723	 -1.073074	 0.662866	 -0.355023	 0.774518	 -0.431043	 0.297124	 2
1462092179.534	 8	 -0.290099	 1.550390	 0.432891	 2.821222	 -1.068297	 0.655888	 -0.350556	 0.778246	 -0.431587	 0.291850	 2
1462092179.544	 8	 -0.071973	 1.782509	 0.262630	 2.833992	 -1.066166	 0.650642	 -0.345784	 0.781555	 -0.433682	 0.285525	 2
1462092179.554	 8	 0.103599	 1.842230	 0.062360	 2.850035	 -1.066420	 0.648008	 -0.341257	 0.784205	 -0.436915	 0.278697	 2
1462092179.564	 8	 0.243645	 1.849821	 -0.154073	 2.869261	 -1.068733	 0.648837	 -0.337309	 0.786112	 -0.441023	 0.271567	 2
1462092179.574	 8	 0.350391	 1.809661	 -0.368529	 2.891677	 -1.072690	 0.653522	 -0.334072	 0.787309	 -0.445799	 0.264203	 2
1462092179.584	 8	 0.480541	 1.702868	 -0.521994	 2.915808	 -1.078154	 0.661274	 -0.331529	 0.787759	 -0.451063	 0.257034	 2
1462092179.594	 8	 0.667136	 1.535594	 -0.632817	 2.940178	 -1.085487	 0.671008	 -0.329534	 0.787359	 -0.456874	 0.250479	 2
1462092179.604	 8	 0.876251	 1.474957	 -0.843026	 2.966735	 -1.095013	 0.684266	 -0.328181	 0.786017	 -0.463503	 0.244212	 2
1462092179.614	 8	 1.149705	 1.532795	 -1.116638	 2.998881	 -1.107300	 0.703394	 -0.327475	 0.783599	 -0.471463	 0.237604	 2
1462092179.624	 8	 1.492764	 1.824790	 -1.339652	 3.038765	 -1.122789	 0.728534	 -0.326748	 0.780177	 -0.481280	 0.230062	 2
1462092179.634	 8	 1.963460	 2.340961	 -1.398630	 3.087449	 -1.142147	 0.758002	 -0.324762	 0.775917	 -0.493566	 0.221078	 2
1462092179.644	 8	 2.655085	 3.001880	 -1.354805	 -3.138107	 -1.167226	 0.790062	 -0.320251	 0.770578	 -0.509162	 0.210719	 2
1462092179.654	 8	 3.249557	 3.589368	 -1.502656	 -3.064855	 -1.197902	 0.831755	 -0.313640	 0.763708	 -0.528141	 0.198612	 2
1462092179.664	 8	 1.506997	 5.067681	 -1.341573	 -2.975714	 -1.219167	 0.880073	 -0.305136	 0.759435	 -0.545138	 0.181590	 2
1462092179.674	 8	 -1.173235	 4.477300	 -0.236652	 -2.918191	 -1.209517	 0.887610	 -0.293785	 0.765528	 -0.549657	 0.159793	 2
1462092179.684	 8	 -0.736247	 1.483367	 -0.042375	 -2.899581	 -1.200753	 0.883551	 -0.288549	 0.769609	 -0.549564	 0.149738	 2
1462092179.694	 8	 -0.066010	 -0.583761	 0.008223	 -2.902327	 -1.198581	 0.882511	 -0.289260	 0.770057	 -0.548472	 0.150063	 2
1462092179.704	 8	 0.258654	 -1.214510	 0.281954	 -2.917216	 -1.200896	 0.878319	 -0.291350	 0.768990	 -0.547457	 0.155116	 2
1462092179.714	 8	 0.471027	 -1.600895	 0.473675	 -2.941134	 -1.205953	 0.868783	 -0.293426	 0.767287	 -0.546532	 0.162708	 2
1462092179.724	 8	 0.516151	 -1.959716	 0.439037	 -2.969201	 -1.211928	 0.858794	 -0.296346	 0.764973	 -0.545386	 0.171901	 2
1462092179.734	 8	 0.388479	 -2.316823	 0.424036	 -3.000755	 -1.216753	 0.848935	 -0.300460	 0.762466	 -0.543304	 0.182183	 2
1462092179.744	 8	 0.354015	 -2.279503	 0.569627	 -3.037244	 -1.220882	 0.834884	 -0.304423	 0.760134	 -0.540617	 0.193022	 2
1462092179.754	 8	 0.510133	 -1.572344	 0.613216	 -3.070918	 -1.226003	 0.818078	 -0.306459	 0.758065	 -0.539027	 0.202166	 2
1462092179.764	 8	 0.746809	 -0.617723	 0.493212	 -3.093104	 -1.233218	 0.803469	 -0.306011	 0.756151	 -0.539809	 0.207844	 2
1462092179.774	 8	 0.781629	 -0.158073	 0.384215	 -3.106197	 -1.241320	 0.792150	 -0.304302	 0.754369	 -0.542018	 0.211054	 2
1462092179.784	 8	 0.416975	 -0.125848	 0.427123	 -3.118771	 -1.246747	 0.779974	 -0.302489	 0.753434	 -0.543431	 0.213355	 2
1462092179.794	 8	 -0.162020	 -0.307652	 0.496550	 -3.135859	 -1.246676	 0.764779	 -0.301410	 0.753915	 -0.542454	 0.215658	 2
1462092179.804	 8	 -0.677406	 -0.407100	 0.361563	 3.131549	 -1.241055	 0.752194	 -0.301531	 0.755625	 -0.539316	 0.217365	 2
1462092179.814	 8	 -0.927379	 -0.367645	 -0.018502	 3.124926	 -1.232197	 0.749272	 -0.303124	 0.757744	 -0.535268	 0.217779	 2
1462092179.824	 8	 -0.389016	 -0.223657	 -0.331986	 3.130599	 -1.226326	 0.758240	 -0.305616	 0.758576	 -0.532922	 0.217151	 2
1462092179.834	 8	 0.317288	 0.501952	 -0.161928	 3.138817	 -1.228455	 0.764003	 -0.305384	 0.758015	 -0.534363	 0.215895	 2
1462092179.844	 8	 -0.003453	 1.243669	 -0.385635	 -3.124575	 -1.229317	 0.773368	 -0.303540	 0.758472	 -0.536702	 0.211031	 2
1462092179.854	 8	 -0.167160	 1.263402	 -0.517247	 -3.097590	 -1.227820	 0.788199	 -0.302086	 0.759426	 -0.538684	 0.204539	 2
1462092179.864	 8	 -0.326997	 0.658483	 -0.543865	 -3.074820	 -1.224681	 0.803526	 -0.302154	 0.760229	 -0.539402	 0.199499	 2
1462092179.874	 8	 -0.437774	 -0.128890	 -0.630159	 -3.058445	 -1.220075	 0.820213	 -0.304672	 0.760506	 -0.538520	 0.196981	 2
1462092179.884	 8	 -0.387065	 -0.838081	 -0.723527	 -3.047247	 -1.215327	 0.839364	 -0.309568	 0.759874	 -0.536598	 0.197033	 2
1462092179.894	 8	 -0.122542	 -1.299571	 -0.747176	 -3.039711	 -1.212596	 0.860166	 -0.315814	 0.758055	 -0.534710	 0.199247	 2
1462092179.904	 8	 0.235012	 -1.542883	 -0.714186	 -3.035156	 -1.213314	 0.881066	 -0.322403	 0.755000	 -0.533596	 0.203240	 2
1462092179.914	 8	 0.557678	 -1.440850	 -0.740559	 -3.029137	 -1.217269	 0.903391	 -0.328636	 0.751006	 -0.533719	 0.207686	 2
1462092179.924	 8	 0.862528	 -0.993523	 -0.826443	 -3.016009	 -1.224132	 0.929313	 -0.333812	 0.746400	 -0.535645	 0.211048	 2
1462092179.934	 8	 1.181981	 -0.397287	 -0.905740	 -2.992511	 -1.233806	 0.960064	 -0.337425	 0.741374	 -0.539756	 0.212540	 2
1462092179.944	 8	 1.602229	 0.075269	 -0.986000	 -2.958038	 -1.246832	 0.996794	 -0.339468	 0.735698	 -0.546202	 0.212541	 2
1462092179.954	 8	 2.358711	 0.211994	 -1.186349	 -2.908336	 -1.265558	 1.046939	 -0.340764	 0.728060	 -0.555622	 0.212350	 2
1462092179.964	 8	 3.106364	 -0.001706	 -1.312081	 -2.840607	 -1.290469	 1.116952	 -0.342115	 0.717686	 -0.567722	 0.213485	 2
1462092179.974	 8	 3.473604	 -0.429264	 -1.308599	 -2.756380	 -1.318160	 1.207491	 -0.344024	 0.705314	 -0.580719	 0.216669	 2
1462092179.984	 8	 3.502953	 -1.016273	 -1.282344	 -2.656314	 -1.344622	 1.319353	 -0.347206	 0.691830	 -0.592917	 0.221966	 2
1462092179.994	 8	 3.210730	 -1.669415	 -1.265628	 -2.543712	 -1.366433	 1.450036	 -0.352334	 0.678034	 -0.603023	 0.229115	 2
1462092180.004	 8	 2.702132	 -2.085416	 -1.195796	 -2.428437	 -1.381489	 1.588005	 -0.359211	 0.664926	 -0.610398	 0.237179	 2
1462092180.014	 8	 2.182903	 -2.119929	 -1.031732	 -2.322288	 -1.390677	 1.717683	 -0.366518	 0.653314	 -0.615446	 0.245094	 2
1462092180.024	 8	 1.698448	 -1.872055	 -0.782205	 -2.234114	 -1.396068	 1.827056	 -0.373012	 0.643725	 -0.618784	 0.252164	 2
1462092180.034	 8	 1.275324	 -1.452595	 -0.605162	 -2.164577	 -1.398958	 1.913516	 -0.378160	 0.636263	 -0.621069	 0.257756	 2
1462092180.044	 8	 0.961832	 -1.008669	 -0.530092	 -2.108547	 -1.399889	 1.981721	 -0.382022	 0.630568	 -0.622919	 0.261562	 2
1462092180.054	 8	 0.803756	 -0.628121	 -0.478281	 -2.059712	 -1.399712	 2.038554	 -0.384704	 0.626086	 -0.624808	 0.263883	 2
1462092180.064	 8	 0.787896	 -0.401262	 -0.441928	 -2.012025	 -1.399209	 2.091475	 -0.386465	 0.622176	 -0.626989	 0.265379	 2
1462092180.074	 8	 0.866172	 -0.350200	 -0.409096	 -1.961415	 -1.398797	 2.146454	 -0.387756	 0.618247	 -0.629469	 0.266803	 2
1462092180.084	 8	 0.950581	 -0.356587	 -0.375786	 -1.907069	 -1.398532	 2.205212	 -0.388806	 0.614093	 -0.632162	 0.268497	 2
1462092180.094	 8	 1.027195	 -0.393067	 -0.388516	 -1.849055	 -1.397923	 2.267959	 -0.389826	 0.609639	 -0.635024	 0.270407	 2
1462092180.104	 8	 1.112077	 -0.487003	 -0.400786	 -1.787846	 -1.396741	 2.334783	 -0.391022	 0.604772	 -0.637969	 0.272669	 2
1462092180.114	 8	 1.190500	 -0.600003	 -0.404652	 -1.724119	 -1.394905	 2.405281	 -0.392460	 0.599448	 -0.640939	 0.275381	 2
1462092180.124	 8	 1.242329	 -0.724370	 -0.373222	 -1.660134	 -1.392598	 2.477332	 -0.394124	 0.593779	 -0.643778	 0.278644	 2
1462092180.134	 8	 1.251506	 -0.822186	 -0.364620	 -1.598201	 -1.389693	 2.548415	 -0.396028	 0.587903	 -0.646402	 0.282307	 2
1462092180.144	 8	 1.249899	 -0.900140	 -0.407962	 -1.539535	 -1.385733	 2.617033	 -0.398254	 0.581823	 -0.648867	 0.286090	 2
1462092180.154	 8	 1.267313	 -0.990090	 -0.484620	 -1.484394	 -1.380356	 2.682990	 -0.400920	 0.575409	 -0.651252	 0.289894	 2
1462092180.164	 8	 1.358963	 -1.173898	 -0.567061	 -1.431420	 -1.373429	 2.748375	 -0.404190	 0.568339	 -0.653599	 0.293988	 2
1462092180.174	 8	 1.495997	 -1.459987	 -0.655111	 -1.379781	 -1.364787	 2.815238	 -0.408345	 0.560211	 -0.655846	 0.298805	 2
1462092180.184	 8	 1.500092	 -1.659441	 -0.730540	 -1.334145	 -1.354584	 2.878479	 -0.413376	 0.551336	 -0.657795	 0.304062	 2
1462092180.194	 8	 1.286956	 -1.579189	 -0.750319	 -1.300547	 -1.343943	 2.929516	 -0.418684	 0.542845	 -0.659273	 0.308840	 2
1462092180.204	 8	 0.948531	 -1.182293	 -0.717035	 -1.279903	 -1.334075	 2.964071	 -0.423325	 0.535878	 -0.660463	 0.312120	 2
1462092180.214	 8	 0.637733	 -0.622419	 -0.638779	 -1.267764	 -1.325677	 2.984449	 -0.426505	 0.530929	 -0.661767	 0.313486	 2
1462092180.224	 8	 0.431320	 -0.132805	 -0.526915	 -1.258933	 -1.318936	 2.996080	 -0.428038	 0.527780	 -0.663377	 0.313309	 2
1462092180.234	 8	 0.327033	 0.071382	 -0.426057	 -1.251215	 -1.313578	 3.003627	 -0.428544	 0.525727	 -0.665084	 0.312448	 2
1462092180.244	 8	 0.298130	 -0.008837	 -0.353014	 -1.244538	 -1.309132	 3.010259	 -0.428948	 0.523974	 -0.666509	 0.311802	 2
1462092180.254	 8	 0.296752	 -0.317138	 -0.333490	 -1.240433	 -1.305009	 3.016866	 -0.430119	 0.521914	 -0.667317	 0.311916	 2
1462092180.264	 8	 0.295488	 -0.799052	 -0.347555	 -1.240934	 -1.300781	 3.023296	 -0.432787	 0.519128	 -0.667186	 0.313153	 2
1462092180.274	 8	 0.233231	 -1.333813	 -0.340266	 -1.248300	 -1.296704	 3.028119	 -0.437283	 0.515646	 -0.665770	 0.315663	 2
1462092180.284	 8	 0.043630	 -1.730868	 -0.315666	 -1.264929	 -1.293332	 3.027973	 -0.443428	 0.511987	 -0.662909	 0.319051	 2
1462092180.294	 8	 -0.287378	 -1.833576	 -0.239136	 -1.292472	 -1.291363	 3.018342	 -0.450460	 0.509114	 -0.658745	 0.322403	 2
1462092180.304	 8	 -0.658408	 -1.678081	 -0.067134	 -1.329873	 -1.291701	 2.997380	 -0.457332	 0.507919	 -0.653575	 0.325123	 2
1462092180.314	 8	 -0.961262	 -1.591549	 0.155855	 -1.375616	 -1.294588	 2.966433	 -0.463733	 0.508435	 -0.647472	 0.327453	 2
1462092180.324	 8	 -1.257285	 -1.645390	 0.384939	 -1.431413	 -1.299779	 2.925384	 -0.470078	 0.510323	 -0.640129	 0.329896	 2
1462092180.334	 8	 -1.642161	 -1.550966	 0.636426	 -1.501045	 -1.307061	 2.869715	 -0.476231	 0.513926	 -0.631475	 0.332151	 2
1462092180.344	 8	 -2.093719	 -1.138116	 0.917034	 -1.587414	 -1.316035	 2.793387	 -0.481286	 0.520056	 -0.621940	 0.333313	 2
1462092180.354	 8	 -2.540255	 -0.549921	 1.178981	 -1.692418	 -1.325504	 2.692183	 -0.484548	 0.529097	 -0.612027	 0.332705	 2
1462092180.364	 8	 -2.952857	 -0.165562	 1.359869	 -1.818520	 -1.333247	 2.564814	 -0.486480	 0.540544	 -0.601634	 0.330434	 2
1462092180.374	 8	 -3.330606	 -0.073891	 1.528139	 -1.967126	 -1.337089	 2.412916	 -0.488009	 0.553667	 -0.590114	 0.327208	 2
1462092180.384	 8	 -3.522527	 0.141756	 1.853682	 -2.132676	 -1.337077	 2.242111	 -0.488426	 0.568450	 -0.577468	 0.323784	 2
1462092180.394	 8	 -3.396180	 0.884884	 2.151515	 -2.293523	 -1.333158	 2.070055	 -0.486091	 0.584439	 -0.565747	 0.319496	 2
1462092180.405	 8	 -3.065619	 2.123554	 2.225175	 -2.429683	 -1.326255	 1.911140	 -0.479420	 0.601507	 -0.557285	 0.312698	 2
1462092180.414	 8	 -2.702658	 2.984607	 2.306762	 -2.540105	 -1.318051	 1.768335	 -0.468996	 0.618975	 -0.551889	 0.303860	 2
1462092180.424	 8	 -2.405910	 3.348387	 2.430126	 -2.634230	 -1.309588	 1.637005	 -0.456143	 0.636233	 -0.548158	 0.294389	 2
1462092180.435	 8	 -2.148204	 3.252614	 2.674248	 -2.723460	 -1.301432	 1.510355	 -0.441933	 0.652910	 -0.544663	 0.285913	 2
1462092180.444	 8	 -1.970978	 2.816899	 2.942551	 -2.815646	 -1.293202	 1.383994	 -0.427256	 0.668775	 -0.540375	 0.279621	 2
1462092180.454	 8	 -1.933958	 1.906675	 3.135188	 -2.914625	 -1.283039	 1.258357	 -0.413662	 0.683481	 -0.534103	 0.276536	 2
1462092180.464	 8	 -2.049464	 0.658893	 3.211975	 -3.020357	 -1.268790	 1.137655	 -0.402792	 0.696696	 -0.524726	 0.277553	 2
1462092180.474	 8	 -2.334586	 -0.574399	 3.018605	 -3.123365	 -1.248450	 1.032316	 -0.395819	 0.708306	 -0.511954	 0.282017	 2
1462092180.484	 8	 -2.618260	 -1.635119	 2.715988	 3.068065	 -1.222117	 0.949801	 -0.393008	 0.718270	 -0.496134	 0.288936	 2
1462092180.495	 8	 -2.646968	 -2.324852	 2.487076	 2.987728	 -1.192783	 0.887234	 -0.393052	 0.726545	 -0.478501	 0.297790	 2
1462092180.505	 8	 -2.204834	 -2.506585	 2.246001	 2.918533	 -1.165371	 0.839304	 -0.394026	 0.732846	 -0.461535	 0.307679	 2
1462092180.515	 8	 -1.392877	 -2.351073	 2.018700	 2.857872	 -1.144638	 0.799352	 -0.394364	 0.736819	 -0.447639	 0.318111	 2
1462092180.525	 8	 -0.727531	 -1.812383	 1.770663	 2.806423	 -1.130745	 0.764337	 -0.393403	 0.739172	 -0.437592	 0.327677	 2
1462092180.535	 8	 -0.392021	 -0.960033	 1.668031	 2.764655	 -1.120570	 0.731274	 -0.390498	 0.741499	 -0.430764	 0.334862	 2
1462092180.545	 8	 -0.327014	 -0.035227	 1.620651	 2.733846	 -1.111301	 0.699975	 -0.385593	 0.744907	 -0.426277	 0.338702	 2
1462092180.555	 8	 -0.436106	 0.750623	 1.701386	 2.712332	 -1.100851	 0.669506	 -0.378806	 0.749922	 -0.423043	 0.339350	 2
1462092180.565	 8	 -0.655327	 1.270851	 1.776344	 2.697914	 -1.087950	 0.640132	 -0.370706	 0.756472	 -0.419986	 0.337548	 2
1462092180.575	 8	 -0.816920	 1.391601	 1.788467	 2.687677	 -1.073133	 0.613111	 -0.362378	 0.763675	 -0.416496	 0.334685	 2
1462092180.585	 8	 -0.792147	 1.549064	 1.658627	 2.681601	 -1.058365	 0.588977	 -0.354085	 0.770903	 -0.413255	 0.330988	 2
1462092180.595	 8	 -0.616399	 1.681861	 1.415339	 2.680164	 -1.045770	 0.568234	 -0.346038	 0.777602	 -0.411125	 0.326448	 2
1462092180.605	 8	 -0.286455	 1.745734	 1.116779	 2.682073	 -1.037094	 0.550409	 -0.338445	 0.783219	 -0.410682	 0.321503	 2
1462092180.615	 8	 0.089693	 1.863825	 0.833241	 2.686753	 -1.033077	 0.534590	 -0.331148	 0.787651	 -0.412289	 0.316172	 2
1462092180.625	 8	 0.423468	 2.022680	 0.580293	 2.694533	 -1.033399	 0.520541	 -0.324002	 0.791088	 -0.415900	 0.310211	 2
1462092180.635	 8	 0.689709	 2.128459	 0.314651	 2.705296	 -1.037424	 0.508451	 -0.317082	 0.793640	 -0.421186	 0.303640	 2
1462092180.645	 8	 0.811162	 2.280635	 0.081607	 2.719876	 -1.043973	 0.499413	 -0.310587	 0.795554	 -0.427604	 0.296285	 2
1462092180.655	 8	 0.889605	 2.401768	 -0.196113	 2.739570	 -1.052455	 0.494777	 -0.304711	 0.796945	 -0.434901	 0.287908	 2
1462092180.665	 8	 0.962663	 2.492248	 -0.449558	 2.764309	 -1.062669	 0.494759	 -0.299483	 0.797791	 -0.442957	 0.278617	 2
1462092180.674	 8	 1.007394	 2.451002	 -0.692260	 2.793343	 -1.074249	 0.499676	 -0.295111	 0.798002	 -0.451482	 0.268824	 2
1462092180.684	 8	 0.966195	 2.080163	 -0.952200	 2.824952	 -1.086371	 0.510672	 -0.292360	 0.797371	 -0.459765	 0.259504	 2
1462092180.694	 8	 1.023742	 1.609004	 -1.219263	 2.857748	 -1.099329	 0.528170	 -0.291669	 0.795575	 -0.467738	 0.251419	 2
1462092180.704	 8	 1.223554	 1.223446	 -1.504886	 2.892350	 -1.114337	 0.552217	 -0.292826	 0.792357	 -0.476050	 0.244540	 2
1462092180.714	 8	 1.608031	 1.056592	 -1.770898	 2.930675	 -1.132821	 0.582745	 -0.295163	 0.787549	 -0.485617	 0.238374	 2
1462092180.724	 8	 2.237141	 1.337295	 -1.968798	 2.976138	 -1.156684	 0.619161	 -0.297263	 0.781074	 -0.497789	 0.231873	 2
1462092180.734	 8	 2.984816	 2.036142	 -2.098828	 3.034158	 -1.187265	 0.662083	 -0.297435	 0.773015	 -0.513775	 0.223640	 2
1462092180.744	 8	 3.346351	 2.767016	 -2.222001	 3.111306	 -1.221830	 0.716869	 -0.295457	 0.763931	 -0.532749	 0.212822	 2
1462092180.754	 8	 0.546900	 5.179904	 -1.655082	 -3.075457	 -1.238192	 0.774220	 -0.289514	 0.760971	 -0.547230	 0.194018	 2
1462092180.764	 8	 -1.366804	 5.297159	 -0.780455	 -2.996486	 -1.225735	 0.798439	 -0.278702	 0.767903	 -0.551637	 0.168364	 2
1462092180.774	 8	 -0.999433	 2.266067	 -0.605101	 -2.954225	 -1.213412	 0.810800	 -0.273566	 0.772666	 -0.551961	 0.153257	 2
1462092180.784	 8	 -0.081301	 0.051324	 -0.569758	 -2.935494	 -1.209070	 0.825341	 -0.274666	 0.773148	 -0.551848	 0.149213	 2
1462092180.794	 8	 0.649795	 -1.006580	 -0.367487	 -2.929485	 -1.213044	 0.840163	 -0.278116	 0.770592	 -0.553001	 0.151753	 2
1462092180.804	 8	 0.863620	 -1.870667	 -0.048069	 -2.937741	 -1.220970	 0.848978	 -0.282558	 0.766799	 -0.554013	 0.158906	 2
1462092180.814	 8	 0.751124	 -2.454105	 0.266145	 -2.962306	 -1.229113	 0.847747	 -0.287639	 0.762965	 -0.553542	 0.169528	 2
1462092180.824	 8	 0.474820	 -2.563851	 0.420999	 -2.996268	 -1.235183	 0.838844	 -0.292735	 0.759766	 -0.551589	 0.181138	 2
1462092180.834	 8	 0.215581	 -2.383850	 0.497403	 -3.033493	 -1.238479	 0.825349	 -0.297391	 0.757446	 -0.548558	 0.192143	 2
1462092180.844	 8	 0.156030	 -1.902787	 0.516253	 -3.068358	 -1.240506	 0.810036	 -0.300867	 0.755780	 -0.545596	 0.201496	 2
1462092180.854	 8	 0.335068	 -1.266301	 0.503564	 -3.097050	 -1.243539	 0.794791	 -0.302549	 0.754340	 -0.543956	 0.208681	 2
1462092180.864	 8	 0.672877	 -0.841442	 0.412921	 -3.118773	 -1.249576	 0.781568	 -0.302763	 0.752433	 -0.544318	 0.214235	 2
1462092180.874	 8	 0.711810	 -0.681391	 0.352257	 -3.136614	 -1.256980	 0.770447	 -0.302606	 0.750182	 -0.545593	 0.219055	 2
1462092180.884	 8	 0.308118	 -0.191988	 0.502073	 3.129177	 -1.261249	 0.755701	 -0.301361	 0.749322	 -0.546195	 0.222191	 2
1462092180.894	 8	 -0.288295	 0.313535	 0.743240	 3.109778	 -1.259721	 0.733221	 -0.298380	 0.750955	 -0.545212	 0.223114	 2
1462092180.904	 8	 -0.771158	 0.653239	 0.751671	 3.092770	 -1.252779	 0.709300	 -0.294669	 0.754537	 -0.542711	 0.222057	 2
1462092180.914	 8	 -0.862876	 0.627425	 0.528419	 3.083243	 -1.243676	 0.692143	 -0.291577	 0.758530	 -0.539717	 0.219817	 2
1462092180.924	 8	 -0.157086	 0.163662	 0.369818	 3.075111	 -1.239659	 0.680658	 -0.289752	 0.760424	 -0.538246	 0.219295	 2
1462092180.934	 8	 0.345230	 0.196408	 0.248515	 3.067448	 -1.242378	 0.670938	 -0.287896	 0.760228	 -0.539259	 0.219930	 2
1462092180.944	 8	 -0.363728	 0.448802	 -0.140493	 3.072965	 -1.240960	 0.672689	 -0.287191	 0.760976	 -0.539312	 0.218128	 2
1462092180.954	 8	 -1.194661	 0.758802	 -0.408538	 3.091593	 -1.231282	 0.685129	 -0.287744	 0.763878	 -0.536903	 0.213140	 2
1462092180.964	 8	 -1.687163	 0.628512	 -0.387344	 3.111803	 -1.215416	 0.699191	 -0.289152	 0.768302	 -0.532201	 0.207039	 2
1462092180.974	 8	 -1.538248	 0.147564	 -0.207673	 3.122145	 -1.199418	 0.707293	 -0.291023	 0.772477	 -0.526670	 0.202985	 2
1462092180.984	 8	 -1.064508	 -0.370332	 -0.151606	 3.124158	 -1.187515	 0.712088	 -0.293470	 0.775132	 -0.521852	 0.201782	 2
1462092180.994	 8	 -0.539691	 -0.844356	 -0.185099	 3.121543	 -1.180889	 0.717101	 -0.296716	 0.775869	 -0.518377	 0.203154	 2
1462092181.004	 8	 -0.043646	 -1.090620	 -0.209827	 3.115963	 -1.179231	 0.722481	 -0.300401	 0.774929	 -0.516347	 0.206472	 2
1462092181.014	 8	 0.480106	 -1.075696	 -0.286720	 3.111237	 -1.182787	 0.729183	 -0.303881	 0.772491	 -0.516320	 0.210542	 2
1462092181.025	 8	 1.012321	 -0.820676	 -0.398755	 3.110678	 -1.191682	 0.738277	 -0.306690	 0.768701	 -0.518723	 0.214397	 2
1462092181.034	 8	 1.517390	 -0.412656	 -0.545361	 3.117489	 -1.205758	 0.751158	 -0.308480	 0.763728	 -0.523813	 0.217208	 2
1462092181.044	 8	 1.931687	 -0.015012	 -0.691277	 3.133186	 -1.224214	 0.769072	 -0.309256	 0.757758	 -0.531337	 0.218734	 2
1462092181.055	 8	 2.224886	 0.289266	 -0.854060	 -3.124237	 -1.245767	 0.794008	 -0.309362	 0.750959	 -0.540711	 0.219060	 2
1462092181.064	 8	 2.422328	 0.438457	 -1.028110	 -3.087126	 -1.269173	 0.828698	 -0.309318	 0.743396	 -0.551304	 0.218514	 2
1462092181.074	 8	 2.614728	 0.408047	 -1.183538	 -3.037691	 -1.293772	 0.875799	 -0.309567	 0.734968	 -0.562670	 0.217698	 2
1462092181.085	 8	 3.075583	 0.071417	 -1.363337	 -2.972618	 -1.321165	 0.941362	 -0.310669	 0.724740	 -0.575124	 0.217872	 2
1462092181.094	 8	 3.445214	 -0.432490	 -1.473557	 -2.886422	 -1.351121	 1.033110	 -0.313090	 0.712322	 -0.588364	 0.219998	 2
1462092181.104	 8	 3.361988	 -0.915891	 -1.432569	 -2.778165	 -1.379253	 1.151842	 -0.316805	 0.699002	 -0.600759	 0.223871	 2
1462092181.114	 8	 2.908413	 -1.283518	 -1.270045	 -2.655708	 -1.401522	 1.288513	 -0.321572	 0.686350	 -0.610842	 0.228882	 2
1462092181.125	 8	 2.360530	 -1.527329	 -1.085298	 -2.531402	 -1.416993	 1.429334	 -0.327033	 0.675148	 -0.618264	 0.234466	 2
1462092181.135	 8	 1.853739	 -1.608945	 -0.958016	 -2.414160	 -1.426400	 1.564060	 -0.332961	 0.665487	 -0.623420	 0.240024	 2
1462092181.145	 8	 1.411913	 -1.468662	 -0.859077	 -2.310777	 -1.430994	 1.683829	 -0.338791	 0.657419	 -0.626960	 0.244830	 2
1462092181.155	 8	 1.067131	 -1.134933	 -0.738933	 -2.224921	 -1.432467	 1.782905	 -0.343744	 0.650992	 -0.629567	 0.248385	 2
1462092181.165	 8	 0.834331	 -0.771080	 -0.672772	 -2.153259	 -1.432022	 1.863904	 -0.347558	 0.645948	 -0.631812	 0.250533	 2
1462092181.174	 8	 0.721249	 -0.542026	 -0.666458	 -2.089429	 -1.430232	 1.934328	 -0.350639	 0.641698	 -0.634004	 0.251625	 2
1462092181.185	 8	 0.734466	 -0.430596	 -0.695378	 -2.026614	 -1.427559	 2.002338	 -0.353354	 0.637620	 -0.636392	 0.252164	 2
1462092181.195	 8	 0.849472	 -0.432437	 -0.756079	 -1.959167	 -1.424155	 2.074808	 -0.356032	 0.633172	 -0.639159	 0.252607	 2
1462092181.204	 8	 1.027131	 -0.481423	 -0.839080	 -1.883651	 -1.419841	 2.155896	 -0.358869	 0.627977	 -0.642448	 0.253215	 2
1462092181.215	 8	 1.188913	 -0.515361	 -0.906881	 -1.801697	 -1.414347	 2.243996	 -0.361838	 0.622015	 -0.646256	 0.254016	 2
1462092181.225	 8	 1.301948	 -0.498975	 -0.948212	 -1.718112	 -1.407511	 2.333753	 -0.364753	 0.615537	 -0.650480	 0.254842	 2
1462092181.235	 8	 1.414912	 -0.519624	 -0.963243	 -1.635578	 -1.399407	 2.422630	 -0.367593	 0.608601	 -0.655015	 0.255803	 2
1462092181.245	 8	 1.522229	 -0.625180	 -0.955567	 -1.556017	 -1.390200	 2.509463	 -0.370520	 0.601155	 -0.659674	 0.257211	 2
1462092181.255	 8	 1.597120	 -0.809422	 -0.957934	 -1.482304	 -1.379822	 2.592168	 -0.373844	 0.593172	 -0.664214	 0.259243	 2
1462092181.265	 8	 1.646150	 -1.037274	 -0.971139	 -1.416481	 -1.368222	 2.669326	 -0.377842	 0.584614	 -0.668446	 0.261996	 2
1462092181.275	 8	 1.578491	 -1.115884	 -0.985136	 -1.361554	 -1.355653	 2.736822	 -0.382302	 0.575910	 -0.672282	 0.264971	 2
1462092181.285	 8	 1.395414	 -1.006925	 -0.994252	 -1.319522	 -1.342693	 2.790591	 -0.386725	 0.567742	 -0.675733	 0.267390	 2
1462092181.295	 8	 1.151964	 -0.798895	 -1.006182	 -1.290048	 -1.329816	 2.829690	 -0.390824	 0.560530	 -0.678842	 0.268767	 2
1462092181.305	 8	 0.902231	 -0.567428	 -1.015709	 -1.271179	 -1.317348	 2.855583	 -0.394474	 0.554424	 -0.681666	 0.268952	 2
1462092181.315	 8	 0.691773	 -0.381803	 -1.023873	 -1.260339	 -1.305379	 2.871204	 -0.397750	 0.549297	 -0.684241	 0.268108	 2
1462092181.325	 8	 0.516599	 -0.179287	 -1.035384	 -1.254939	 -1.293849	 2.879226	 -0.400621	 0.545011	 -0.686684	 0.266330	 2
1462092181.335	 8	 0.348052	 0.078451	 -1.056030	 -1.253301	 -1.282650	 2.880823	 -0.402920	 0.541569	 -0.689158	 0.263474	 2
1462092181.345	 8	 0.194606	 0.392325	 -1.102930	 -1.254189	 -1.271609	 2.876658	 -0.404485	 0.538988	 -0.691825	 0.259349	 2
1462092181.355	 8	 0.140973	 0.682851	 -1.248967	 -1.255396	 -1.259665	 2.868838	 -0.405378	 0.536831	 -0.695038	 0.253778	 2
1462092181.365	 8	 0.245921	 0.705524	 -1.453230	 -1.255494	 -1.245782	 2.861249	 -0.406374	 0.534180	 -0.698776	 0.247434	 2
1462092181.375	 8	 0.394428	 0.310306	 -1.478450	 -1.254524	 -1.230451	 2.857689	 -0.408383	 0.530387	 -0.702459	 0.241794	 2
1462092181.385	 8	 0.360840	 -0.189117	 -1.280310	 -1.256662	 -1.216547	 2.856125	 -0.411697	 0.526225	 -0.704932	 0.238041	 2
1462092181.395	 8	 0.173753	 -0.764755	 -0.947257	 -1.265418	 -1.205974	 2.853294	 -0.416300	 0.522551	 -0.705495	 0.236455	 2
1462092181.405	 8	 -0.104659	 -1.518401	 -0.557514	 -1.284306	 -1.199818	 2.847142	 -0.422672	 0.519736	 -0.703428	 0.237512	 2
1462092181.415	 8	 -0.499931	 -2.308534	 -0.259814	 -1.317401	 -1.197697	 2.834476	 -0.431446	 0.517847	 -0.698268	 0.241063	 2
1462092181.425	 8	 -1.126111	 -2.665661	 -0.039204	 -1.367933	 -1.198944	 2.808257	 -0.441919	 0.517789	 -0.690202	 0.245404	 2
1462092181.435	 8	 -1.851338	 -2.363593	 0.254480	 -1.434473	 -1.203436	 2.763484	 -0.452033	 0.520827	 -0.680116	 0.248690	 2
1462092181.445	 8	 -2.468355	 -1.607978	 0.653755	 -1.512016	 -1.211189	 2.699905	 -0.459598	 0.527668	 -0.669206	 0.249999	 2
1462092181.455	 8	 -2.942091	 -0.980751	 1.006892	 -1.598949	 -1.220816	 2.618905	 -0.464322	 0.537802	 -0.657993	 0.249438	 2
1462092181.465	 8	 -3.406839	 -0.911098	 1.330250	 -1.702430	 -1.230730	 2.518908	 -0.468050	 0.550290	 -0.645293	 0.248410	 2
1462092181.475	 8	 -3.854702	 -0.571007	 1.552598	 -1.822773	 -1.238331	 2.398718	 -0.470693	 0.564919	 -0.631379	 0.246322	 2
1462092181.485	 8	 -4.053359	 0.563941	 1.775909	 -1.947704	 -1.242158	 2.264279	 -0.469996	 0.581806	 -0.618271	 0.241550	 2
1462092181.495	 8	 -3.875949	 2.395061	 2.083423	 -2.058461	 -1.243790	 2.127121	 -0.462900	 0.600814	 -0.608715	 0.232836	 2
1462092181.505	 8	 -3.583400	 4.112805	 2.496521	 -2.150304	 -1.245751	 1.990952	 -0.448487	 0.621530	 -0.603317	 0.220382	 2
1462092181.515	 8	 -3.414996	 5.400380	 2.794791	 -2.230161	 -1.247952	 1.852864	 -0.428153	 0.643324	 -0.600699	 0.204890	 2
1462092181.525	 8	 -3.318542	 6.042512	 2.940608	 -2.303509	 -1.248845	 1.713030	 -0.404126	 0.665211	 -0.599257	 0.187262	 2
1462092181.535	 8	 -3.222136	 5.861684	 2.977519	 -2.375744	 -1.247659	 1.574042	 -0.379138	 0.686073	 -0.597302	 0.169672	 2
1462092181.545	 8	 -3.096030	 4.868110	 2.859533	 -2.450159	 -1.243643	 1.441044	 -0.356212	 0.704901	 -0.593568	 0.154608	 2
1462092181.555	 8	 -3.011611	 3.126533	 2.538850	 -2.528408	 -1.235619	 1.320150	 -0.338420	 0.721095	 -0.587094	 0.144276	 2
1462092181.565	 8	 -3.061558	 0.856681	 2.064148	 -2.611952	 -1.221884	 1.216244	 -0.328440	 0.734605	 -0.576873	 0.140356	 2
1462092181.575	 8	 -3.122142	 -1.249800	 1.673123	 -2.699953	 -1.202586	 1.130359	 -0.326269	 0.745824	 -0.562867	 0.143092	 2
1462092181.585	 8	 -2.934576	 -2.712197	 1.464979	 -2.787890	 -1.180753	 1.061427	 -0.329451	 0.754856	 -0.546587	 0.151317	 2
1462092181.595	 8	 -2.458127	 -3.474411	 1.418568	 -2.871994	 -1.160436	 1.006246	 -0.335052	 0.761581	 -0.530110	 0.163458	 2
1462092181.605	 8	 -1.761994	 -3.633836	 1.422747	 -2.949584	 -1.144759	 0.961059	 -0.340744	 0.765982	 -0.515330	 0.177763	 2
1462092181.615	 8	 -0.994811	 -3.139959	 1.342862	 -3.015945	 -1.135219	 0.924265	 -0.344988	 0.768301	 -0.503877	 0.191844	 2
1462092181.625	 8	 -0.334424	 -2.424640	 1.248916	 -3.070179	 -1.131607	 0.893234	 -0.347113	 0.769138	 -0.496218	 0.204221	 2
1462092181.635	 8	 0.131681	 -1.396899	 1.038071	 -3.110124	 -1.132442	 0.867493	 -0.346980	 0.769236	 -0.492291	 0.213378	 2
1462092181.645	 8	 0.360011	 -0.638926	 0.931231	 -3.138293	 -1.135795	 0.845219	 -0.344954	 0.769228	 -0.491111	 0.219330	 2
1462092181.655	 8	 0.336712	 -0.393007	 0.952906	 3.120233	 -1.139293	 0.822715	 -0.341974	 0.769496	 -0.490718	 0.223886	 2
1462092181.665	 8	 0.058268	 -0.443705	 1.035857	 3.093846	 -1.140314	 0.798363	 -0.338962	 0.770403	 -0.489376	 0.228242	 2
1462092181.675	 8	 -0.231809	 -0.420360	 1.057783	 3.066693	 -1.138010	 0.773304	 -0.336136	 0.772092	 -0.486775	 0.232244	 2
1462092181.685	 8	 -0.377432	 -0.196385	 0.937507	 3.043779	 -1.133660	 0.750940	 -0.333411	 0.774273	 -0.483832	 0.235042	 2
1462092181.695	 8	 -0.300165	 0.106811	 0.684938	 3.028893	 -1.129541	 0.734129	 -0.330802	 0.776371	 -0.481702	 0.236179	 2
1462092181.705	 8	 -0.017782	 0.288710	 0.362312	 3.022317	 -1.128049	 0.724033	 -0.328571	 0.777645	 -0.481214	 0.236101	 2
1462092181.715	 8	 0.389604	 0.309340	 -0.001271	 3.022785	 -1.130763	 0.721123	 -0.327134	 0.777475	 -0.482719	 0.235582	 2
1462092181.725	 8	 0.777585	 0.317016	 -0.398909	 3.030508	 -1.137921	 0.726201	 -0.326717	 0.775696	 -0.486242	 0.234776	 2
1462092181.735	 8	 1.035621	 0.411994	 -0.837235	 3.047950	 -1.148418	 0.741174	 -0.327443	 0.772560	 -0.491511	 0.233130	 2
1462092181.745	 8	 1.079153	 0.705668	 -1.243068	 3.078068	 -1.160157	 0.767369	 -0.329087	 0.768698	 -0.498039	 0.229699	 2
1462092181.755	 8	 0.878244	 1.044068	 -1.447059	 3.119639	 -1.170119	 0.802022	 -0.330987	 0.765128	 -0.504835	 0.223982	 2
1462092181.765	 8	 0.694884	 1.120877	 -1.489510	 -3.116998	 -1.177443	 0.840474	 -0.333035	 0.762020	 -0.511117	 0.217195	 2
1462092181.775	 8	 0.406704	 1.386148	 -1.546347	 -3.066346	 -1.181525	 0.881107	 -0.334964	 0.759618	 -0.516776	 0.209100	 2
1462092181.785	 8	 0.240977	 1.584133	 -1.592087	 -3.011766	 -1.182582	 0.923401	 -0.336688	 0.757837	 -0.522008	 0.199582	 2
1462092181.795	 8	 0.304090	 1.604255	 -1.578594	 -2.956326	 -1.182814	 0.965910	 -0.338197	 0.756007	 -0.527307	 0.189798	 2
1462092181.805	 8	 0.544946	 1.469041	 -1.499886	 -2.902217	 -1.184254	 1.008043	 -0.339510	 0.753560	 -0.533074	 0.180865	 2
1462092181.815	 8	 0.894557	 1.211013	 -1.299639	 -2.851819	 -1.188459	 1.048568	 -0.340459	 0.750237	 -0.539478	 0.173768	 2
1462092181.825	 8	 1.194057	 0.859364	 -0.976198	 -2.808180	 -1.195929	 1.085258	 -0.340874	 0.746189	 -0.546230	 0.169234	 2
1462092181.835	 8	 1.374590	 0.204667	 -0.689711	 -2.774101	 -1.205890	 1.117510	 -0.341448	 0.741573	 -0.552516	 0.167954	 2
1462092181.845	 8	 1.371842	 -1.089447	 -0.649507	 -2.751621	 -1.216479	 1.149289	 -0.344671	 0.735970	 -0.556980	 0.171238	 2
1462092181.855	 8	 -1.063879	 -1.633395	 -0.375447	 -2.761276	 -1.210584	 1.157563	 -0.351680	 0.734823	 -0.552765	 0.175518	 2
1462092181.865	 8	 -0.979848	 0.265226	 0.255368	 -2.776893	 -1.200303	 1.143430	 -0.352990	 0.737922	 -0.548053	 0.174662	 2
1462092181.875	 8	 0.083049	 1.449325	 0.726067	 -2.781054	 -1.200728	 1.125631	 -0.347462	 0.740596	 -0.548998	 0.171429	 2
1462092181.885	 8	 0.820976	 1.816827	 0.954332	 -2.779561	 -1.210182	 1.108397	 -0.338674	 0.741814	 -0.553713	 0.168563	 2
1462092181.895	 8	 1.008396	 1.234865	 1.006968	 -2.780695	 -1.223112	 1.091605	 -0.330047	 0.741926	 -0.559037	 0.167606	 2
1462092181.905	 8	 0.667107	 -0.093506	 1.026354	 -2.797762	 -1.233833	 1.070998	 -0.324961	 0.741644	 -0.561405	 0.170849	 2
1462092181.915	 8	 0.336908	 -0.968063	 1.148982	 -2.832100	 -1.241296	 1.042981	 -0.322701	 0.741595	 -0.560697	 0.177539	 2
1462092181.925	 8	 0.020749	 -1.404030	 1.329924	 -2.880728	 -1.245942	 1.005508	 -0.321507	 0.742172	 -0.557808	 0.186183	 2
1462092181.935	 8	 -0.175898	 -1.367241	 1.483316	 -2.937874	 -1.247873	 0.960203	 -0.320212	 0.743541	 -0.553615	 0.195246	 2
1462092181.945	 8	 -0.185619	 -0.659488	 1.688219	 -2.995646	 -1.248827	 0.908340	 -0.316683	 0.745820	 -0.549908	 0.202646	 2
1462092181.955	 8	 -0.079066	 -0.110167	 1.800044	 -3.051275	 -1.249806	 0.851995	 -0.310746	 0.748697	 -0.547320	 0.208160	 2
1462092181.965	 8	 0.098893	 0.157569	 1.684818	 -3.101987	 -1.251464	 0.797390	 -0.303913	 0.751319	 -0.545879	 0.212539	 2
1462092181.975	 8	 0.270357	 -0.144984	 1.686905	 3.130632	 -1.253978	 0.744353	 -0.297469	 0.753177	 -0.544920	 0.217484	 2
1462092181.985	 8	 0.189302	 -0.072067	 1.882258	 3.072647	 -1.255665	 0.685123	 -0.290753	 0.755027	 -0.543565	 0.223461	 2
1462092181.995	 8	 -0.235715	 0.737828	 1.924402	 3.019647	 -1.252574	 0.623780	 -0.282150	 0.758729	 -0.541676	 0.226516	 2
1462092182.005	 8	 -0.423141	 1.098506	 1.864378	 2.976340	 -1.245919	 0.567002	 -0.272631	 0.763606	 -0.539491	 0.226996	 2
1462092182.015	 8	 -0.193696	 0.734384	 1.759876	 2.934481	 -1.239896	 0.513496	 -0.263663	 0.767761	 -0.537573	 0.228122	 2
1462092182.025	 8	 -0.009085	 0.019727	 1.259240	 2.896646	 -1.236520	 0.471650	 -0.257819	 0.769854	 -0.536094	 0.231208	 2
1462092182.035	 8	 -0.358296	 0.385155	 0.762641	 2.876833	 -1.231929	 0.448409	 -0.254233	 0.771870	 -0.534404	 0.232366	 2
1462092182.045	 8	 -0.766511	 1.312438	 0.865413	 2.871071	 -1.223347	 0.430736	 -0.249008	 0.775921	 -0.532255	 0.229447	 2
1462092182.055	 8	 -1.036205	 1.842441	 1.387457	 2.863370	 -1.210502	 0.403903	 -0.240648	 0.782039	 -0.529148	 0.224736	 2
1462092182.065	 8	 -0.938310	 1.732681	 1.984541	 2.842786	 -1.195773	 0.362579	 -0.229774	 0.788819	 -0.525323	 0.221370	 2
1462092182.075	 8	 -0.476761	 1.166376	 2.253417	 2.808378	 -1.183104	 0.311241	 -0.218236	 0.794356	 -0.521947	 0.221229	 2
1462092182.085	 8	 0.186837	 0.445456	 2.256917	 2.763062	 -1.175381	 0.255414	 -0.207561	 0.797421	 -0.520164	 0.224650	 2
1462092182.095	 8	 0.833085	 -0.213700	 2.117265	 2.708788	 -1.173100	 0.197157	 -0.198324	 0.797784	 -0.520357	 0.231164	 2
1462092182.105	 8	 1.311164	 -0.789307	 1.990513	 2.646195	 -1.174828	 0.136488	 -0.190590	 0.795828	 -0.522129	 0.240241	 2
1462092182.115	 8	 1.554632	 -1.010841	 1.753995	 2.580292	 -1.178678	 0.075615	 -0.184032	 0.792394	 -0.524981	 0.250279	 2
1462092182.125	 8	 1.656935	 -1.022832	 1.462040	 2.516847	 -1.183667	 0.018216	 -0.178633	 0.788163	 -0.528541	 0.259873	 2
1462092182.135	 8	 1.770259	 -0.804514	 1.253129	 2.456314	 -1.189554	 -0.037667	 -0.173529	 0.783534	 -0.532900	 0.268290	 2
1462092182.145	 8	 1.880960	 -0.439616	 1.015765	 2.399785	 -1.196483	 -0.092711	 -0.168226	 0.778769	 -0.538209	 0.274864	 2
1462092182.155	 8	 2.010535	 -0.094361	 0.717304	 2.347956	 -1.205192	 -0.146431	 -0.162884	 0.773837	 -0.544633	 0.279321	 2
1462092182.165	 8	 2.154151	 0.247992	 0.464522	 2.299019	 -1.215867	 -0.200433	 -0.157458	 0.768670	 -0.552199	 0.281833	 2
1462092182.175	 8	 2.247738	 0.542216	 0.301252	 2.251156	 -1.227730	 -0.256465	 -0.151690	 0.763409	 -0.560627	 0.282656	 2
1462092182.185	 8	 2.284506	 0.677964	 0.261696	 2.201566	 -1.239532	 -0.315896	 -0.145635	 0.758088	 -0.569401	 0.282621	 2
1462092182.195	 8	 2.312395	 0.637015	 0.346333	 2.146767	 -1.249989	 -0.380739	 -0.139278	 0.752645	 -0.578123	 0.282668	 2
1462092182.205	 8	 1.764183	 0.373626	 0.471218	 2.092437	 -1.256664	 -0.442677	 -0.133490	 0.747774	 -0.585301	 0.283615	 2
1462092182.215	 8	 0.323165	 -0.415240	 0.521186	 2.064782	 -1.255419	 -0.469867	 -0.131121	 0.745882	 -0.586964	 0.286252	 2
1462092182.225	 8	 -0.339289	 -1.599164	 0.382717	 2.052264	 -1.250523	 -0.469386	 -0.133686	 0.744999	 -0.584585	 0.292174	 2
1462092182.235	 8	 -0.061597	 -2.453901	 0.111234	 2.031704	 -1.248065	 -0.467011	 -0.139917	 0.742262	 -0.582087	 0.301073	 2
1462092182.245	 8	 0.597372	 -2.855068	 -0.087942	 1.992753	 -1.250418	 -0.478934	 -0.147475	 0.736709	 -0.581812	 0.311459	 2
1462092182.255	 8	 0.899982	 -3.035009	 0.007930	 1.939112	 -1.254005	 -0.503721	 -0.155001	 0.729421	 -0.582719	 0.323045	 2
1462092182.265	 8	 0.881253	 -2.701205	 0.270180	 1.883169	 -1.255106	 -0.532967	 -0.161012	 0.722345	 -0.583412	 0.334550	 2
1462092182.275	 8	 0.888732	 -2.047055	 0.570352	 1.831000	 -1.252842	 -0.564437	 -0.164244	 0.716407	 -0.583916	 0.344713	 2
1462092182.285	 8	 1.045696	 -1.235194	 0.971938	 1.781819	 -1.246794	 -0.601348	 -0.163581	 0.711747	 -0.584794	 0.353091	 2
1462092182.295	 8	 1.233879	 -0.926636	 1.502854	 1.729908	 -1.235432	 -0.645740	 -0.159430	 0.707570	 -0.585797	 0.361620	 2
1462092182.305	 8	 1.152007	 -0.850100	 1.756865	 1.682019	 -1.220126	 -0.687488	 -0.153754	 0.703864	 -0.586186	 0.370570	 2
1462092182.315	 8	 0.986674	 -0.900089	 1.836706	 1.641665	 -1.202830	 -0.721283	 -0.147956	 0.700603	 -0.585698	 0.379766	 2
1462092182.325	 8	 0.887109	 -1.122704	 1.752372	 1.605463	 -1.185506	 -0.748679	 -0.143104	 0.697162	 -0.584686	 0.389396	 2
1462092182.335	 8	 0.656929	 -1.191912	 1.649287	 1.575558	 -1.169072	 -0.768375	 -0.139334	 0.693914	 -0.583105	 0.398820	 2
1462092182.345	 8	 0.322229	 -1.123789	 1.667756	 1.554704	 -1.152447	 -0.778473	 -0.136125	 0.691521	 -0.580385	 0.407949	 2
1462092182.355	 8	 -0.025904	 -0.752531	 1.974787	 1.545697	 -1.133726	 -0.778964	 -0.132011	 0.690841	 -0.576159	 0.416357	 2
1462092182.365	 8	 -0.253063	 -0.331542	 2.588166	 1.546924	 -1.109544	 -0.772621	 -0.125371	 0.692077	 -0.570025	 0.424716	 2
1462092182.375	 8	 -0.118117	 0.000592	 3.121898	 1.550779	 -1.079555	 -0.767497	 -0.115522	 0.694214	 -0.562954	 0.433363	 2
1462092182.385	 8	 0.054645	 0.196716	 3.396119	 1.553130	 -1.046180	 -0.766565	 -0.103451	 0.696329	 -0.555793	 0.442174	 2
1462092182.395	 8	 0.315512	 0.171513	 3.546017	 1.552102	 -1.010964	 -0.769930	 -0.090147	 0.697789	 -0.548853	 0.451358	 2
1462092182.405	 8	 0.700621	 -0.003688	 3.449384	 1.544658	 -0.975219	 -0.779517	 -0.076182	 0.697758	 -0.542858	 0.461125	 2
1462092182.415	 8	 0.972222	 -0.264506	 3.087571	 1.531099	 -0.941814	 -0.793601	 -0.063049	 0.695953	 -0.538270	 0.471105	 2
1462092182.425	 8	 1.041875	 -0.608322	 2.492267	 1.513871	 -0.914804	 -0.808770	 -0.052730	 0.692725	 -0.535415	 0.480293	 2
1462092182.435	 8	 0.940348	 -1.087228	 1.679781	 1.493520	 -0.895230	 -0.822457	 -0.046384	 0.688266	 -0.533949	 0.488914	 2
1462092182.445	 8	 0.714841	 -1.706188	 0.717865	 1.469561	 -0.884993	 -0.833473	 -0.045285	 0.682604	 -0.533914	 0.496927	 2
1462092182.455	 8	 0.280314	 -2.351691	 -0.175336	 1.442776	 -0.884125	 -0.839702	 -0.050007	 0.676040	 -0.534654	 0.504594	 2
1462092182.465	 8	 -0.238473	 -2.884202	 -0.921808	 1.415197	 -0.891709	 -0.839712	 -0.060179	 0.669112	 -0.535444	 0.511828	 2
1462092182.475	 8	 -0.771792	 -3.398177	 -1.318410	 1.387754	 -0.905079	 -0.833012	 -0.074722	 0.661971	 -0.535439	 0.519149	 2
1462092182.485	 8	 -1.280842	 -3.825543	 -1.348853	 1.362250	 -0.919591	 -0.818305	 -0.091804	 0.654847	 -0.533324	 0.527554	 2
1462092182.495	 8	 -1.622573	 -4.002127	 -1.197249	 1.339068	 -0.935114	 -0.797617	 -0.110537	 0.647768	 -0.529573	 0.536404	 2
1462092182.505	 8	 -1.844589	 -3.999621	 -0.941641	 1.319575	 -0.949198	 -0.772136	 -0.129200	 0.641036	 -0.524126	 0.545593	 2
1462092182.515	 8	 -1.972526	 -3.928544	 -0.725647	 1.304109	 -0.961650	 -0.742927	 -0.147260	 0.634760	 -0.517316	 0.554777	 2
1462092182.525	 8	 -2.074324	 -3.985063	 -0.494016	 1.290819	 -0.972630	 -0.710879	 -0.164961	 0.628476	 -0.509335	 0.564255	 2
1462092182.535	 8	 -2.078802	 -4.026727	 -0.227925	 1.279101	 -0.981267	 -0.676568	 -0.181930	 0.622061	 -0.500149	 0.574276	 2
1462092182.545	 8	 -2.079318	 -4.107975	 0.007923	 1.267962	 -0.987789	 -0.640908	 -0.198202	 0.615324	 -0.489973	 0.584824	 2
1462092182.555	 8	 -2.079157	 -4.233169	 0.197528	 1.256889	 -0.992638	 -0.603983	 -0.214026	 0.608130	 -0.478846	 0.595884	 2
1462092182.565	 8	 -2.171791	 -4.347456	 0.386977	 1.246358	 -0.996171	 -0.564895	 -0.229674	 0.600516	 -0.466593	 0.607389	 2
1462092182.575	 8	 -2.617813	 -3.845853	 0.881516	 1.246419	 -0.997202	 -0.517114	 -0.244332	 0.594832	 -0.452162	 0.618083	 2
1462092182.585	 8	 -2.906830	 -3.304572	 1.630839	 1.261166	 -0.992421	 -0.458859	 -0.256540	 0.592369	 -0.434890	 0.627819	 2
1462092182.595	 8	 -2.764149	 -3.206962	 2.241187	 1.279227	 -0.980715	 -0.398776	 -0.266069	 0.590959	 -0.415719	 0.638084	 2
1462092182.605	 8	 -2.488940	 -3.219928	 2.764091	 1.293858	 -0.962599	 -0.342060	 -0.273071	 0.589338	 -0.395335	 0.649479	 2
1462092182.615	 8	 -2.130196	 -3.131371	 3.240319	 1.304093	 -0.938464	 -0.290668	 -0.277258	 0.587575	 -0.374179	 0.661720	 2
1462092182.625	 8	 -1.551120	 -3.068750	 3.602482	 1.307523	 -0.908958	 -0.247904	 -0.278242	 0.585332	 -0.353117	 0.674742	 2
1462092182.635	 8	 -0.744786	 -3.115325	 3.812443	 1.300223	 -0.875117	 -0.217420	 -0.275821	 0.581610	 -0.333187	 0.688940	 2
1462092182.645	 8	 0.113099	 -3.003284	 3.915790	 1.283296	 -0.837929	 -0.199559	 -0.269819	 0.576496	 -0.315174	 0.703929	 2
1462092182.655	 8	 0.879921	 -2.666127	 3.931434	 1.260872	 -0.798311	 -0.192396	 -0.260311	 0.570798	 -0.299530	 0.718825	 2
1462092182.665	 8	 1.432731	 -2.048186	 4.005909	 1.238906	 -0.756419	 -0.192152	 -0.247502	 0.565910	 -0.285983	 0.732599	 2
1462092182.675	 8	 1.738159	 -1.182575	 4.106157	 1.222762	 -0.712290	 -0.195128	 -0.231744	 0.563232	 -0.273940	 0.744326	 2
1462092182.685	 8	 1.717713	 -0.299844	 4.088971	 1.215897	 -0.667803	 -0.197991	 -0.214357	 0.563584	 -0.262923	 0.753190	 2
1462092182.695	 8	 1.500922	 0.213705	 3.977338	 1.216462	 -0.624785	 -0.198899	 -0.196985	 0.566115	 -0.252285	 0.759646	 2
1462092182.705	 8	 1.204154	 0.293488	 3.859167	 1.220407	 -0.583888	 -0.197202	 -0.180704	 0.569341	 -0.241389	 0.764806	 2
1462092182.715	 8	 0.909975	 0.020121	 3.737688	 1.223781	 -0.545115	 -0.192873	 -0.166063	 0.571858	 -0.229819	 0.769795	 2
1462092182.725	 8	 0.712766	 -0.490877	 3.593969	 1.223304	 -0.508414	 -0.186805	 -0.153153	 0.572547	 -0.217678	 0.775468	 2
1462092182.735	 8	 0.649932	 -1.034064	 3.465833	 1.217364	 -0.473325	 -0.180207	 -0.141555	 0.570902	 -0.205281	 0.782236	 2
1462092182.745	 8	 0.709750	 -1.397593	 3.374537	 1.206848	 -0.439152	 -0.174118	 -0.130514	 0.567337	 -0.193009	 0.789837	 2
1462092182.755	 8	 0.879608	 -1.569478	 3.354407	 1.193457	 -0.404881	 -0.169303	 -0.119176	 0.562555	 -0.181089	 0.797832	 2
1462092182.765	 8	 1.102626	 -1.618673	 3.407427	 1.178568	 -0.369537	 -0.166024	 -0.106909	 0.557089	 -0.169512	 0.805908	 2
1462092182.775	 8	 1.318761	 -1.597188	 3.524045	 1.163232	 -0.332448	 -0.163971	 -0.093419	 0.551305	 -0.158079	 0.813847	 2
1462092182.785	 8	 1.484155	 -1.499806	 3.672717	 1.148389	 -0.293354	 -0.162504	 -0.078697	 0.545513	 -0.146536	 0.821431	 2
1462092182.795	 8	 1.546105	 -1.398829	 3.835113	 1.134680	 -0.252471	 -0.160609	 -0.063069	 0.539914	 -0.134552	 0.828499	 2
1462092182.805	 8	 1.534144	 -1.339262	 3.977518	 1.121870	 -0.210253	 -0.157567	 -0.046941	 0.534393	 -0.121923	 0.835078	 2
1462092182.815	 8	 1.487523	 -1.349063	 4.073751	 1.109270	 -0.167243	 -0.153141	 -0.030651	 0.528687	 -0.108659	 0.841275	 2
1462092182.825	 8	 1.443265	 -1.444755	 4.060457	 1.095927	 -0.124334	 -0.147668	 -0.014532	 0.522439	 -0.095122	 0.847230	 2
1462092182.845	 9	 1.441671	 -2.118842	 3.653472	 1.060602	 -0.043499	 -0.136907	 0.015871	 0.505772	 -0.069966	 0.859679	 2
1462092182.865	 10	 1.421115	 -2.658504	 3.148787	 1.010412	 0.028702	 -0.127657	 0.043400	 0.482151	 -0.048880	 0.873646	 2
1462092182.875	 10	 1.380323	 -2.751453	 2.928728	 0.982492	 0.060674	 -0.123118	 0.055702	 0.468970	 -0.039939	 0.880551	 2
1462092182.885	 10	 1.354789	 -2.815396	 2.754632	 0.953792	 0.090748	 -0.118439	 0.067366	 0.455363	 -0.031743	 0.887186	 2
1462092182.895	 10	 1.354162	 -2.862939	 2.651879	 0.924500	 0.119627	 -0.113515	 0.078671	 0.441413	 -0.024067	 0.893524	 2
1462092182.905	 10	 1.373193	 -2.883361	 2.630204	 0.894693	 0.147986	 -0.108067	 0.089852	 0.427162	 -0.016628	 0.899546	 2
1462092182.915	 10	 1.388473	 -2.822691	 2.642350	 0.865104	 0.175662	 -0.101819	 0.100785	 0.412980	 -0.009300	 0.905099	 2
1462092182.925	 10	 1.395355	 -2.744904	 2.664279	 0.836116	 0.197455	 -0.094623	 0.109085	 0.399297	 -0.003038	 0.910304	 2
1462092182.935	 10	 1.396608	 -2.697133	 2.651907	 0.807473	 0.223897	 -0.086612	 0.119538	 0.385585	 0.004284	 0.914886	 2
1462092182.945	 10	 1.385358	 -2.788846	 2.613839	 0.777762	 0.250647	 -0.077784	 0.130202	 0.371398	 0.011660	 0.919225	 2
1462092182.955	 10	 1.354678	 -3.134877	 2.552256	 0.744249	 0.275826	 -0.068123	 0.140257	 0.355573	 0.018534	 0.923879	 2
1462092182.965	 10	 1.330378	 -3.434550	 2.432446	 0.707670	 0.302191	 -0.058075	 0.151082	 0.338306	 0.025209	 0.928487	 2
1462092182.975	 10	 1.319513	 -3.514839	 2.210114	 0.669649	 0.326840	 -0.048496	 0.161475	 0.320404	 0.030852	 0.932907	 2
1462092182.985	 10	 1.232551	 -3.381610	 1.920093	 0.632459	 0.348965	 -0.039780	 0.171049	 0.302922	 0.035361	 0.936873	 2
1462092182.995	 10	 1.038275	 -3.137546	 1.617115	 0.597678	 0.367652	 -0.031789	 0.179269	 0.286638	 0.038876	 0.940314	 2
1462092183.005	 10	 0.799401	 -2.882402	 1.357261	 0.565419	 0.382608	 -0.024105	 0.185879	 0.271649	 0.041674	 0.943355	 2
1462092183.015	 10	 0.621159	 -2.703715	 1.138797	 0.535286	 0.394464	 -0.016868	 0.191160	 0.257729	 0.043844	 0.946103	 2
1462092183.025	 10	 0.539545	 -2.659043	 0.957692	 0.506128	 0.404273	 -0.010465	 0.195649	 0.244254	 0.045302	 0.948688	 2
1462092183.035	 10	 0.408729	 -2.738876	 0.896274	 0.476471	 0.412420	 -0.004033	 0.199434	 0.230587	 0.046401	 0.951264	 2
1462092183.045	 10	 0.325512	 -2.662669	 0.811381	 0.447015	 0.419205	 0.002502	 0.202624	 0.217054	 0.047312	 0.953726	 2
1462092183.055	 10	 0.324127	 -2.629501	 0.691269	 0.418297	 0.424767	 0.008207	 0.205362	 0.203806	 0.047689	 0.956041	 2
1462092183.065	 10	 0.485945	 -2.658106	 0.625647	 0.389530	 0.430878	 0.012898	 0.208511	 0.190410	 0.047553	 0.958126	 2
1462092183.075	 10	 0.711246	 -2.340249	 0.547776	 0.363796	 0.438934	 0.016100	 0.212690	 0.178275	 0.047109	 0.959563	 2
1462092183.095	 11	 1.170239	 -1.601479	 0.233057	 0.326646	 0.460244	 0.016226	 0.223769	 0.160132	 0.044881	 0.960349	 2
1462092183.105	 11	 1.312242	 -1.513190	 0.145250	 0.312631	 0.472920	 0.013401	 0.230387	 0.152895	 0.042904	 0.960054	 2
1462092183.115	 11	 1.318167	 -1.408796	 0.169616	 0.299507	 0.486037	 0.010599	 0.237169	 0.146070	 0.040987	 0.959549	 2
1462092183.125	 11	 1.189246	 -1.182554	 0.221869	 0.287870	 0.498404	 0.008860	 0.243462	 0.140088	 0.039625	 0.958922	 2
1462092183.135	 11	 1.005479	 -0.964297	 0.177541	 0.278352	 0.509044	 0.007681	 0.248831	 0.135215	 0.038610	 0.958285	 2
1462092183.145	 11	 0.880984	 -0.943065	 -0.024738	 0.270194	 0.517853	 0.005256	 0.253367	 0.130863	 0.037002	 0.957763	 2
1462092183.155	 11	 0.859815	 -1.099463	 -0.332949	 0.262364	 0.525489	 -0.000167	 0.257511	 0.126295	 0.033894	 0.957387	 2
1462092183.165	 11	 0.891107	 -1.230397	 -0.628590	 0.254787	 0.532596	 -0.009042	 0.261580	 0.121390	 0.029108	 0.957075	 2
1462092183.175	 11	 0.921368	 -1.237005	 -0.794108	 0.248104	 0.539544	 -0.020281	 0.265659	 0.116571	 0.023277	 0.956710	 2
1462092183.185	 11	 0.945400	 -1.111641	 -0.803808	 0.242696	 0.546689	 -0.032115	 0.269805	 0.112239	 0.017327	 0.956194	 2
1462092183.195	 11	 0.970586	 -0.826007	 -0.712911	 0.239439	 0.554283	 -0.043226	 0.274068	 0.108979	 0.012033	 0.955440	 2
1462092183.205	 11	 1.004783	 -0.443583	 -0.617995	 0.239378	 0.562449	 -0.053341	 0.278508	 0.107324	 0.007690	 0.954388	 2
1462092183.215	 11	 1.008973	 -0.070788	 -0.543157	 0.242780	 0.570932	 -0.062664	 0.283035	 0.107378	 0.004246	 0.953070	 2
1462092183.225	 11	 0.922006	 0.199171	 -0.458889	 0.248699	 0.578986	 -0.070977	 0.287301	 0.108743	 0.001642	 0.951646	 2
1462092183.235	 11	 0.752116	 0.300347	 -0.362682	 0.255351	 0.585747	 -0.077840	 0.290881	 0.110673	 -0.000218	 0.950337	 2
1462092183.245	 11	 0.554709	 0.237690	 -0.282679	 0.260935	 0.590818	 -0.083184	 0.293582	 0.112352	 -0.001598	 0.949307	 2
1462092183.255	 11	 0.378174	 0.110847	 -0.245021	 0.264742	 0.594223	 -0.087428	 0.295436	 0.113400	 -0.002817	 0.948604	 2
1462092183.265	 11	 0.246322	 -0.005833	 -0.254551	 0.267091	 0.596223	 -0.091211	 0.296600	 0.113873	 -0.004124	 0.948180	 2
1462092183.275	 11	 0.173187	 -0.106826	 -0.277235	 0.268381	 0.597314	 -0.094980	 0.297333	 0.113879	 -0.005642	 0.947941	 2
1462092183.285	 11	 0.152584	 -0.168520	 -0.286155	 0.268958	 0.598045	 -0.098792	 0.297897	 0.113554	 -0.007311	 0.947792	 2
1462092183.295	 11	 0.179306	 -0.155867	 -0.290533	 0.269522	 0.598921	 -0.102719	 0.298535	 0.113198	 -0.009025	 0.947619	 2
1462092183.305	 11	 0.214930	 -0.070871	 -0.288987	 0.270859	 0.600141	 -0.106768	 0.299346	 0.113171	 -0.010655	 0.947349	 2
1462092183.315	 11	 0.239855	 0.004614	 -0.283173	 0.273055	 0.601649	 -0.110863	 0.300302	 0.113529	 -0.012156	 0.946986	 2
1462092183.325	 11	 0.220850	 0.048274	 -0.283667	 0.275753	 0.603088	 -0.114931	 0.301228	 0.114126	 -0.013571	 0.946601	 2
1462092183.335	 11	 0.147170	 0.042082	 -0.287346	 0.278460	 0.603913	 -0.118839	 0.301860	 0.114778	 -0.014950	 0.946300	 2
1462092183.345	 11	 0.053968	 -0.037384	 -0.283011	 0.280352	 0.603872	 -0.122428	 0.302062	 0.115134	 -0.016366	 0.946169	 2
1462092183.355	 11	 -0.029708	 -0.134946	 -0.276795	 0.281054	 0.603014	 -0.125632	 0.301848	 0.115025	 -0.017840	 0.946223	 2
1462092183.365	 11	 -0.104718	 -0.184846	 -0.294725	 0.281028	 0.601377	 -0.128707	 0.301254	 0.114632	 -0.019424	 0.946429	 2
1462092183.375	 11	 -0.142228	 -0.189244	 -0.329609	 0.280984	 0.599182	 -0.131968	 0.300407	 0.114234	 -0.021142	 0.946710	 2
1462092183.385	 11	 -0.119936	 -0.170543	 -0.381852	 0.281376	 0.596927	 -0.135814	 0.299570	 0.113960	 -0.023076	 0.946963	 2
1462092183.395	 11	 -0.053642	 -0.108286	 -0.423414	 0.282686	 0.595074	 -0.140377	 0.298974	 0.113996	 -0.025183	 0.947093	 2
1462092183.405	 11	 0.038521	 -0.025603	 -0.424513	 0.285013	 0.594030	 -0.145387	 0.298799	 0.114407	 -0.027289	 0.947040	 2
1462092183.415	 11	 0.120377	 0.082025	 -0.363476	 0.288236	 0.593915	 -0.150167	 0.299065	 0.115224	 -0.029079	 0.946804	 2
1462092183.425	 11	 0.170367	 0.177363	 -0.250053	 0.291905	 0.594651	 -0.153965	 0.299685	 0.116351	 -0.030269	 0.946433	 2
1462092183.435	 11	 0.178714	 0.268563	 -0.137372	 0.295772	 0.595896	 -0.156485	 0.300476	 0.117730	 -0.030780	 0.945995	 2
1462092183.455	 11	 0.092999	 0.339726	 -0.038979	 0.303853	 0.598076	 -0.158928	 0.301769	 0.121054	 -0.030539	 0.945171	 2
1462092183.445	 11	 0.150505	 0.340393	 -0.070381	 0.299882	 0.597174	 -0.158020	 0.301231	 0.119367	 -0.030783	 0.945550	 2
1462092183.465	 11	 0.044519	 0.233588	 -0.027821	 0.306804	 0.598502	 -0.159454	 0.302046	 0.122343	 -0.030306	 0.944924	 2
1462092183.475	 11	 0.072702	 0.104767	 -0.033529	 0.308478	 0.598957	 -0.160037	 0.302320	 0.123018	 -0.030290	 0.944749	 2
1462092183.485	 11	 0.140157	 0.173519	 -0.059054	 0.310473	 0.599994	 -0.161062	 0.302900	 0.123743	 -0.030384	 0.944466	 2
1462092183.495	 11	 0.231942	 0.233371	 -0.128571	 0.313919	 0.601619	 -0.163103	 0.303840	 0.124961	 -0.030685	 0.943994	 2
1462092183.505	 11	 0.296623	 0.210283	 -0.206084	 0.317925	 0.603757	 -0.166335	 0.305106	 0.126226	 -0.031415	 0.943393	 2
1462092183.515	 11	 0.268304	 0.149219	 -0.277812	 0.321943	 0.605603	 -0.170430	 0.306293	 0.127378	 -0.032569	 0.942814	 2
1462092183.525	 11	 0.166096	 0.001442	 -0.310270	 0.324827	 0.606478	 -0.174704	 0.307023	 0.128026	 -0.034063	 0.942436	 2
