% Gyrometer data recorded with 'snsrlog'
% 
% 
% Label description:
% 	 0: Default Label
% 	 1: still_drop
% 	 2: walk_drop
% 	 3: other
% 	 4: dtw_same
% 	 5: dtw_diff
% 	 6: delete
% 
% Column description:
% 	 1: Seconds.milliseconds since 1970
% 	 2: Number of skipped measurements
% 	 3: Gyro X
% 	 4: Gyro Y
% 	 5: Gyro Z
% 	 6: Roll of the device
% 	 7: Pitch of the device
% 	 8: Yaw of the device
% 	 9: Quaternion X
% 	 10: Quaternion Y
% 	 11: Quaternion Z
% 	 12: Quaternion W
% 	 13: Label used for the current sample
% 
% 
1462089981.722	 0	 -0.826560	 0.510878	 -0.148995	 0.047210	 0.501262	 0.024758	 0.247644	 0.025933	 0.017842	 0.968340	 1
1462089981.732	 0	 -0.704244	 0.567776	 -0.320053	 0.054102	 0.493796	 0.022005	 0.244005	 0.028914	 0.017275	 0.969189	 1
1462089981.742	 0	 -0.628058	 0.555828	 -0.470034	 0.061848	 0.487118	 0.017522	 0.240771	 0.032117	 0.015954	 0.969919	 1
1462089981.752	 0	 -0.618219	 0.484690	 -0.595476	 0.069653	 0.480605	 0.011576	 0.237652	 0.035195	 0.013905	 0.970613	 1
1462089981.762	 0	 -0.674255	 0.404780	 -0.637296	 0.076919	 0.473571	 0.005051	 0.234310	 0.037969	 0.011473	 0.971352	 1
1462089981.772	 0	 -0.715468	 0.301417	 -0.680530	 0.083282	 0.465998	 -0.001782	 0.230732	 0.040299	 0.008746	 0.972143	 1
1462089981.782	 0	 -0.753256	 0.260661	 -0.742394	 0.089185	 0.457978	 -0.009128	 0.226963	 0.042378	 0.005678	 0.972964	 1
1462089981.792	 0	 -0.819248	 0.374000	 -0.833486	 0.096124	 0.449268	 -0.017289	 0.222889	 0.044911	 0.002284	 0.973806	 1
1462089981.802	 0	 -0.950718	 0.597388	 -0.882485	 0.105215	 0.439301	 -0.025917	 0.218234	 0.048496	 -0.001173	 0.974690	 1
1462089981.812	 0	 -1.175490	 0.850625	 -0.813160	 0.116354	 0.427326	 -0.033765	 0.212611	 0.053240	 -0.004143	 0.975677	 1
1462089981.822	 0	 -1.490543	 1.064835	 -0.588877	 0.128680	 0.412560	 -0.038988	 0.205584	 0.058936	 -0.005874	 0.976846	 1
1462089981.832	 0	 -1.818704	 1.130903	 -0.264610	 0.140396	 0.394858	 -0.040216	 0.197009	 0.064830	 -0.005912	 0.978238	 1
1462089981.842	 0	 -2.052269	 1.130624	 0.042229	 0.150650	 0.375015	 -0.037399	 0.187232	 0.070446	 -0.004293	 0.979777	 1
1462089981.852	 0	 -2.120978	 1.107765	 0.235517	 0.159824	 0.354438	 -0.031816	 0.176958	 0.075771	 -0.001537	 0.981296	 1
1462089981.862	 0	 -2.144611	 0.683988	 0.162505	 0.166043	 0.333715	 -0.025992	 0.166561	 0.079617	 0.001001	 0.982811	 1
1462089981.872	 0	 -1.981941	 0.560260	 -0.112898	 0.170823	 0.313530	 -0.022779	 0.156504	 0.082485	 0.002109	 0.984225	 1
1462089981.882	 0	 -1.712480	 0.494352	 -0.438783	 0.175960	 0.295388	 -0.023289	 0.147590	 0.085197	 0.001457	 0.985371	 1
1462089981.892	 0	 -1.548002	 0.495341	 -0.675740	 0.181909	 0.278742	 -0.026746	 0.139536	 0.088090	 -0.000571	 0.986291	 1
1462089981.902	 0	 -1.514435	 0.430916	 -0.745906	 0.187655	 0.262496	 -0.031426	 0.131739	 0.090825	 -0.003249	 0.987109	 1
1462089981.912	 0	 -1.601666	 0.381057	 -0.616653	 0.192448	 0.245807	 -0.035046	 0.123679	 0.093198	 -0.005533	 0.987921	 1
1462089981.922	 0	 -1.768090	 0.421542	 -0.381425	 0.196782	 0.228033	 -0.036088	 0.114962	 0.095536	 -0.006665	 0.988743	 1
1462089981.932	 0	 -1.898167	 0.485234	 -0.158022	 0.201108	 0.209274	 -0.034409	 0.105621	 0.098033	 -0.006540	 0.989541	 1
1462089981.942	 0	 -1.907900	 0.567109	 -0.018626	 0.205881	 0.190448	 -0.030937	 0.096148	 0.100818	 -0.005547	 0.990233	 1
1462089981.952	 0	 -1.841453	 0.846696	 -0.011274	 0.212683	 0.172260	 -0.027050	 0.086960	 0.104581	 -0.004269	 0.990698	 1
1462089981.962	 0	 -1.731937	 1.034230	 -0.066968	 0.222308	 0.154928	 -0.023726	 0.078216	 0.109673	 -0.003170	 0.990881	 1
1462089981.972	 0	 -1.577941	 0.896399	 -0.090907	 0.231215	 0.138984	 -0.020903	 0.070171	 0.114345	 -0.002348	 0.990957	 1
1462089981.982	 0	 -1.456006	 0.999888	 -0.144293	 0.240491	 0.124252	 -0.018645	 0.062751	 0.119145	 -0.001790	 0.990890	 1
1462089981.992	 0	 -1.322029	 1.206177	 -0.243722	 0.251886	 0.110542	 -0.017445	 0.055897	 0.124936	 -0.001701	 0.990588	 1
1462089982.002	 0	 -1.122511	 1.478459	 -0.310068	 0.265879	 0.098403	 -0.017305	 0.049891	 0.131961	 -0.002047	 0.989996	 1
1462089982.012	 0	 -1.027759	 1.946678	 -0.386469	 0.284202	 0.087421	 -0.018017	 0.044529	 0.141093	 -0.002721	 0.988991	 1
1462089982.022	 0	 -1.009055	 2.518836	 -0.387702	 0.307953	 0.076564	 -0.018835	 0.039262	 0.152893	 -0.003429	 0.987457	 1
1462089982.032	 0	 -0.896048	 2.884923	 -0.313873	 0.336100	 0.066677	 -0.019061	 0.034455	 0.166846	 -0.003816	 0.985373	 1
1462089982.052	 1	 -0.467528	 3.422179	 -0.268909	 0.400532	 0.052712	 -0.019577	 0.027772	 0.198599	 -0.004347	 0.979678	 1
1462089982.062	 1	 -0.206457	 3.777847	 -0.251886	 0.437384	 0.049169	 -0.020826	 0.026254	 0.216626	 -0.004829	 0.975890	 1
1462089982.072	 1	 0.046290	 4.179270	 -0.235430	 0.478266	 0.047997	 -0.022893	 0.026022	 0.236510	 -0.005434	 0.971265	 1
1462089982.082	 1	 0.271650	 4.743815	 -0.322729	 0.524304	 0.048487	 -0.026504	 0.026844	 0.258750	 -0.006513	 0.965549	 1
1462089982.092	 1	 0.474410	 5.361865	 -0.521238	 0.576754	 0.049673	 -0.032707	 0.028455	 0.283882	 -0.008611	 0.958398	 1
1462089982.102	 1	 0.637598	 5.762817	 -0.752330	 0.633979	 0.050649	 -0.041857	 0.030576	 0.311036	 -0.011987	 0.949831	 1
1462089982.112	 1	 0.718752	 5.942986	 -0.954921	 0.693638	 0.050608	 -0.053335	 0.032847	 0.339044	 -0.016472	 0.940053	 1
1462089982.122	 1	 0.718342	 6.054020	 -1.190483	 0.754514	 0.048551	 -0.066561	 0.034807	 0.367309	 -0.021989	 0.929187	 1
1462089982.132	 1	 0.683904	 6.245517	 -1.491078	 0.817119	 0.043440	 -0.081462	 0.036088	 0.396053	 -0.028738	 0.917068	 1
1462089982.142	 1	 0.660519	 6.517811	 -1.792083	 0.882193	 0.034915	 -0.097805	 0.036634	 0.425584	 -0.036753	 0.903430	 1
1462089982.152	 1	 0.702672	 6.859258	 -2.064239	 0.950383	 0.023245	 -0.115401	 0.036700	 0.456120	 -0.045967	 0.887972	 1
1462089982.172	 2	 1.110785	 7.596866	 -2.559706	 1.097626	 -0.007827	 -0.155882	 0.037290	 0.520347	 -0.068463	 0.850389	 1
1462089982.182	 2	 1.371181	 7.574143	 -2.800915	 1.173212	 -0.027171	 -0.179305	 0.038287	 0.552277	 -0.082048	 0.828730	 1
1462089982.192	 2	 1.550380	 7.298584	 -3.033113	 1.246061	 -0.049680	 -0.203964	 0.039319	 0.582342	 -0.097069	 0.806170	 1
1462089982.202	 2	 1.617763	 6.813054	 -3.224726	 1.314005	 -0.075538	 -0.228500	 0.039872	 0.609740	 -0.113116	 0.783474	 1
1462089982.212	 2	 1.580994	 6.168499	 -3.387070	 1.375274	 -0.104584	 -0.251625	 0.039464	 0.633904	 -0.129745	 0.761429	 1
1462089982.222	 2	 1.519535	 5.476300	 -3.529394	 1.429244	 -0.136464	 -0.272729	 0.037859	 0.654738	 -0.146709	 0.740514	 1
1462089982.232	 2	 1.512423	 4.762711	 -3.665995	 1.475635	 -0.170736	 -0.292205	 0.035155	 0.672269	 -0.164074	 0.721039	 1
1462089982.242	 2	 1.604054	 4.166902	 -3.801295	 1.515174	 -0.207149	 -0.311042	 0.031663	 0.686873	 -0.182116	 0.702877	 1
1462089982.252	 2	 1.809742	 3.730637	 -3.890275	 1.549070	 -0.245141	 -0.330525	 0.027996	 0.699055	 -0.201046	 0.685652	 1
1462089982.262	 2	 2.077228	 3.482597	 -3.958857	 1.578880	 -0.284422	 -0.351602	 0.024641	 0.709417	 -0.220999	 0.668790	 1
1462089982.272	 2	 2.342260	 3.382494	 -4.015384	 1.605991	 -0.324928	 -0.374567	 0.021809	 0.718469	 -0.241951	 0.651756	 1
1462089982.282	 2	 2.521186	 3.300124	 -4.008117	 1.630996	 -0.366224	 -0.398892	 0.019488	 0.726435	 -0.263492	 0.634417	 1
1462089982.292	 2	 2.547252	 3.075381	 -3.895333	 1.653187	 -0.407226	 -0.423340	 0.017441	 0.733130	 -0.284805	 0.617335	 1
1462089982.302	 2	 2.411929	 2.737833	 -3.709722	 1.671895	 -0.446911	 -0.446412	 0.015257	 0.738427	 -0.305059	 0.601192	 1
1462089982.312	 2	 2.173263	 2.391409	 -3.470005	 1.687424	 -0.484446	 -0.466976	 0.012708	 0.742513	 -0.323644	 0.586317	 1
1462089982.322	 2	 1.941193	 2.075896	 -3.218334	 1.700258	 -0.519456	 -0.484968	 0.009850	 0.745613	 -0.340453	 0.572762	 1
1462089982.332	 2	 1.811754	 1.759361	 -2.919608	 1.710298	 -0.551623	 -0.501447	 0.007071	 0.747772	 -0.355722	 0.560580	 1
1462089982.342	 2	 1.790120	 1.447821	 -2.621773	 1.716653	 -0.580826	 -0.517885	 0.004712	 0.748820	 -0.369847	 0.549964	 1
1462089982.352	 2	 1.851247	 1.265756	 -2.329849	 1.719846	 -0.607309	 -0.535477	 0.003152	 0.748974	 -0.383235	 0.540517	 1
1462089982.362	 2	 1.957815	 1.185916	 -2.003266	 1.720451	 -0.630796	 -0.555096	 0.002857	 0.748461	 -0.396031	 0.531938	 1
1462089982.372	 2	 2.060442	 1.178387	 -1.680237	 1.719141	 -0.651237	 -0.576961	 0.004011	 0.747502	 -0.408276	 0.523961	 1
1462089982.382	 2	 2.132120	 1.161455	 -1.346370	 1.716217	 -0.668489	 -0.600813	 0.006597	 0.746201	 -0.419871	 0.516574	 1
1462089982.392	 2	 2.185072	 1.065488	 -1.065297	 1.711178	 -0.682835	 -0.626287	 0.010251	 0.744425	 -0.430836	 0.510005	 1
1462089982.402	 2	 2.151407	 0.849240	 -0.685473	 1.703530	 -0.693532	 -0.652773	 0.014859	 0.742068	 -0.440833	 0.504757	 1
1462089982.412	 2	 1.940152	 0.559951	 -0.329295	 1.693651	 -0.700216	 -0.677971	 0.019751	 0.739233	 -0.449240	 0.501326	 1
1462089982.422	 2	 1.615275	 0.232123	 -0.053485	 1.682678	 -0.703356	 -0.699914	 0.024304	 0.736196	 -0.455768	 0.499699	 1
1462089982.432	 2	 1.233116	 -0.174881	 0.134695	 1.670691	 -0.703860	 -0.717396	 0.027809	 0.732967	 -0.460439	 0.499982	 1
1462089982.442	 2	 0.805638	 -0.639598	 0.266248	 1.657547	 -0.702356	 -0.729625	 0.029756	 0.729508	 -0.463266	 0.502312	 1
1462089982.452	 2	 0.366493	 -1.033501	 0.331417	 1.643902	 -0.699560	 -0.736162	 0.029929	 0.725980	 -0.464334	 0.506411	 1
1462089982.462	 2	 -0.015493	 -1.296780	 0.391976	 1.630708	 -0.695885	 -0.737447	 0.028598	 0.722606	 -0.463832	 0.511745	 1
1462089982.472	 2	 -0.282813	 -1.435965	 0.507232	 1.618216	 -0.691032	 -0.734882	 0.026463	 0.719419	 -0.462002	 0.517967	 1
1462089982.482	 2	 -0.439645	 -1.355460	 0.691592	 1.607470	 -0.684460	 -0.729960	 0.024507	 0.716661	 -0.459046	 0.524474	 1
1462089982.492	 2	 -0.478102	 -1.107956	 0.925500	 1.599313	 -0.675655	 -0.724195	 0.023652	 0.714538	 -0.455199	 0.530726	 1
1462089982.502	 2	 -0.385806	 -0.744879	 1.162543	 1.593975	 -0.664515	 -0.719237	 0.024572	 0.713105	 -0.450868	 0.536280	 1
1462089982.512	 2	 -0.180127	 -0.322606	 1.394886	 1.591302	 -0.651090	 -0.716602	 0.027737	 0.712310	 -0.446474	 0.540838	 1
1462089982.522	 2	 0.080671	 0.070357	 1.567860	 1.590715	 -0.635775	 -0.717152	 0.033171	 0.711978	 -0.442368	 0.544332	 1
1462089982.532	 2	 0.322827	 0.402359	 1.687141	 1.591788	 -0.619309	 -0.720900	 0.040510	 0.711973	 -0.438760	 0.546757	 1
1462089982.542	 2	 0.397814	 0.630258	 1.756817	 1.594568	 -0.601934	 -0.726088	 0.049043	 0.712314	 -0.435224	 0.548438	 1
1462089982.552	 2	 0.374861	 0.793669	 1.694592	 1.599236	 -0.584862	 -0.731286	 0.057866	 0.713096	 -0.431683	 0.549359	 1
1462089982.562	 2	 0.301078	 0.882195	 1.552180	 1.605489	 -0.569072	 -0.735703	 0.066282	 0.714294	 -0.428189	 0.549586	 1
1462089982.572	 2	 0.217068	 0.854678	 1.390660	 1.612343	 -0.554879	 -0.739119	 0.073886	 0.715676	 -0.424797	 0.549451	 1
1462089982.582	 2	 0.164805	 0.727460	 1.280157	 1.618574	 -0.541919	 -0.741885	 0.080673	 0.716903	 -0.421552	 0.549395	 1
1462089982.592	 2	 0.083563	 0.537811	 1.202365	 1.623406	 -0.529789	 -0.743838	 0.086567	 0.717771	 -0.418339	 0.549822	 1
1462089982.602	 2	 -0.055038	 0.385725	 1.147803	 1.627348	 -0.518199	 -0.744387	 0.091566	 0.718447	 -0.414904	 0.550731	 1
1462089982.612	 2	 -0.242554	 0.259406	 1.106695	 1.630978	 -0.506934	 -0.742910	 0.095645	 0.719126	 -0.410990	 0.552084	 1
1462089982.622	 2	 -0.418047	 0.176802	 1.085074	 1.634592	 -0.495848	 -0.739384	 0.098906	 0.719899	 -0.406533	 0.553799	 1
1462089982.632	 2	 -0.503399	 0.162329	 1.108063	 1.638451	 -0.484553	 -0.734667	 0.101840	 0.720790	 -0.401638	 0.555677	 1
1462089982.642	 2	 -0.441438	 0.144339	 1.145724	 1.641950	 -0.472875	 -0.730344	 0.104955	 0.721547	 -0.396719	 0.557645	 1
1462089982.652	 2	 -0.317058	 0.052420	 1.134194	 1.644081	 -0.461240	 -0.727383	 0.108260	 0.721847	 -0.392234	 0.559794	 1
1462089982.662	 2	 -0.268286	 -0.140047	 1.013678	 1.644185	 -0.450541	 -0.725239	 0.111138	 0.721562	 -0.388350	 0.562300	 1
1462089982.672	 2	 -0.410237	 -0.397671	 0.778049	 1.642301	 -0.441909	 -0.721864	 0.112484	 0.720859	 -0.384852	 0.565331	 1
1462089982.682	 2	 -0.565562	 -0.581591	 0.580524	 1.639169	 -0.435285	 -0.716499	 0.112201	 0.719990	 -0.381466	 0.568779	 1
1462089982.692	 2	 -0.627612	 -0.690129	 0.402072	 1.635231	 -0.430425	 -0.710014	 0.110772	 0.719019	 -0.378336	 0.572366	 1
1462089982.702	 2	 -0.604930	 -0.728547	 0.246982	 1.630739	 -0.427223	 -0.703508	 0.108679	 0.717949	 -0.375726	 0.575820	 1
1462089982.712	 2	 -0.451912	 -0.586944	 0.181955	 1.626622	 -0.425024	 -0.698095	 0.106717	 0.716957	 -0.373706	 0.578729	 1
1462089982.722	 2	 -0.188441	 -0.396186	 0.193160	 1.623303	 -0.423010	 -0.695426	 0.105831	 0.716051	 -0.372487	 0.580797	 1
1462089982.732	 2	 -0.008319	 -0.225418	 0.200641	 1.620761	 -0.420979	 -0.695043	 0.105916	 0.715244	 -0.371883	 0.582161	 1
1462089982.742	 2	 0.009923	 0.029726	 0.191133	 1.620221	 -0.419022	 -0.695336	 0.106591	 0.714985	 -0.371393	 0.582668	 1
1462089982.752	 2	 -0.104076	 0.384540	 0.085654	 1.623403	 -0.417802	 -0.694628	 0.107346	 0.715896	 -0.370640	 0.581890	 1
1462089982.762	 2	 -0.172226	 0.751803	 -0.044621	 1.630788	 -0.417855	 -0.692822	 0.108047	 0.718140	 -0.369734	 0.579567	 1
1462089982.772	 2	 -0.064570	 1.013653	 -0.119857	 1.640839	 -0.418849	 -0.691631	 0.109137	 0.721150	 -0.369155	 0.575984	 1
1462089982.782	 2	 0.142889	 1.088692	 -0.101781	 1.651322	 -0.420045	 -0.692515	 0.110986	 0.724158	 -0.369206	 0.571808	 1
1462089982.792	 2	 0.303611	 0.929285	 -0.018337	 1.659980	 -0.420689	 -0.695431	 0.113426	 0.726488	 -0.369754	 0.568007	 1
1462089982.802	 2	 0.301117	 0.550247	 0.073010	 1.665085	 -0.420461	 -0.698923	 0.115717	 0.727725	 -0.370379	 0.565548	 1
1462089982.812	 2	 0.073057	 0.107885	 0.141220	 1.666579	 -0.419358	 -0.700622	 0.116982	 0.728004	 -0.370424	 0.564900	 1
1462089982.822	 2	 -0.322492	 -0.306467	 0.190899	 1.665424	 -0.417335	 -0.698438	 0.116652	 0.727723	 -0.369234	 0.566107	 1
1462089982.832	 2	 -0.716359	 -0.729027	 0.136042	 1.661897	 -0.415179	 -0.691825	 0.114322	 0.727017	 -0.366880	 0.569013	 1
1462089982.842	 2	 -1.016012	 -1.199646	 -0.054368	 1.655233	 -0.414338	 -0.681517	 0.109644	 0.725657	 -0.364042	 0.573475	 1
1462089982.852	 2	 -1.205673	 -1.585040	 -0.328072	 1.645453	 -0.415976	 -0.668614	 0.102641	 0.723587	 -0.361361	 0.579055	 1
1462089982.862	 2	 -1.347393	 -1.819047	 -0.533642	 1.633741	 -0.419956	 -0.653949	 0.093881	 0.721044	 -0.358922	 0.585197	 1
1462089982.872	 2	 -1.444304	 -1.830876	 -0.737536	 1.622073	 -0.426195	 -0.637844	 0.083861	 0.718541	 -0.356665	 0.591148	 1
1462089982.882	 2	 -1.513316	 -1.687676	 -0.818732	 1.611778	 -0.433279	 -0.620985	 0.073541	 0.716368	 -0.354282	 0.596567	 1
1462089982.892	 2	 -1.506276	 -1.256307	 -1.171809	 1.605259	 -0.443461	 -0.603827	 0.062721	 0.715282	 -0.352553	 0.600121	 1
1462089982.902	 2	 -1.380004	 -0.899628	 -1.509568	 1.602566	 -0.457295	 -0.587574	 0.051627	 0.715252	 -0.352064	 0.601498	 1
1462089982.912	 2	 -1.200424	 -0.618066	 -1.770689	 1.602153	 -0.473978	 -0.573030	 0.040544	 0.715754	 -0.352903	 0.601258	 1
1462089982.922	 2	 -1.025365	 -0.215853	 -1.969900	 1.604841	 -0.492848	 -0.560262	 0.029875	 0.717008	 -0.354905	 0.599207	 1
1462089982.932	 2	 -0.811088	 0.260456	 -2.055791	 1.611411	 -0.513025	 -0.549483	 0.020161	 0.719223	 -0.357895	 0.595166	 1
1462089982.942	 2	 -0.497085	 0.727852	 -2.010480	 1.621464	 -0.532862	 -0.541740	 0.012305	 0.722261	 -0.361715	 0.589364	 1
1462089982.952	 2	 -0.196068	 1.266667	 -2.095479	 1.634911	 -0.553293	 -0.537297	 0.006103	 0.726098	 -0.366748	 0.581584	 1
1462089982.962	 2	 -0.002479	 2.174289	 -2.260307	 1.655933	 -0.575564	 -0.534722	 0.001434	 0.731891	 -0.372968	 0.570288	 1
1462089982.972	 2	 0.233461	 2.921950	 -2.319350	 1.683722	 -0.598691	 -0.534041	 -0.001406	 0.739284	 -0.380097	 0.555863	 1
1462089982.982	 2	 0.507037	 3.423418	 -2.284015	 1.715268	 -0.621275	 -0.536112	 -0.002110	 0.747348	 -0.387902	 0.539442	 1
1462089982.992	 2	 0.830156	 3.556825	 -2.234419	 1.746378	 -0.644009	 -0.541708	 -0.001374	 0.754880	 -0.396733	 0.522262	 1
1462089983.002	 2	 1.080619	 3.669215	 -2.181197	 1.777927	 -0.667297	 -0.549287	 0.000299	 0.762082	 -0.406234	 0.504187	 1
1462089983.012	 2	 1.267096	 3.820891	 -2.163289	 1.809764	 -0.690936	 -0.558611	 0.002884	 0.768894	 -0.416220	 0.485340	 1
1462089983.022	 2	 1.405127	 3.943462	 -2.217699	 1.841756	 -0.715336	 -0.569144	 0.006040	 0.775233	 -0.426644	 0.465781	 1
1462089983.032	 2	 1.515508	 3.914625	 -2.336162	 1.874288	 -0.741642	 -0.579496	 0.008977	 0.781090	 -0.437528	 0.445408	 1
1462089983.042	 2	 1.761433	 3.165710	 -2.401757	 1.900563	 -0.769662	 -0.591165	 0.010847	 0.784957	 -0.449163	 0.426588	 1
1462089983.052	 2	 2.411782	 1.282655	 -2.203264	 1.904889	 -0.798379	 -0.610402	 0.010697	 0.783776	 -0.462561	 0.414268	 1
1462089983.062	 2	 3.052760	 -0.119441	 -1.979963	 1.884092	 -0.826862	 -0.641161	 0.009136	 0.777348	 -0.478086	 0.408754	 1
1462089983.072	 2	 3.369359	 -0.633316	 -1.726390	 1.849176	 -0.853833	 -0.680666	 0.007544	 0.768263	 -0.494580	 0.406332	 1
1462089983.082	 2	 3.501261	 -0.479810	 -1.478853	 1.808779	 -0.877447	 -0.726469	 0.007379	 0.758472	 -0.510948	 0.404473	 1
1462089983.092	 2	 3.580766	 0.032016	 -1.415100	 1.768667	 -0.899029	 -0.776730	 0.008909	 0.749062	 -0.527238	 0.401057	 1
1462089983.102	 2	 3.583016	 0.726616	 -1.405459	 1.732026	 -0.919282	 -0.830119	 0.012283	 0.740623	 -0.543375	 0.395058	 1
1462089983.112	 2	 2.852328	 0.451296	 -1.532748	 1.699968	 -0.938479	 -0.878268	 0.014745	 0.733381	 -0.557768	 0.388368	 1
1462089983.122	 2	 1.805006	 0.275544	 -1.697918	 1.677064	 -0.957458	 -0.908861	 0.013019	 0.728256	 -0.568274	 0.382803	 1
1462089983.132	 2	 1.258010	 0.616303	 -1.716628	 1.664890	 -0.975875	 -0.930555	 0.011108	 0.725400	 -0.576607	 0.375761	 1
1462089983.142	 2	 0.501595	 0.548416	 -1.850289	 1.662842	 -0.994492	 -0.939977	 0.007533	 0.724560	 -0.582445	 0.368394	 1
1462089983.162	 3	 -0.532025	 -0.214355	 -2.436688	 1.679334	 -1.038023	 -0.923602	 -0.008501	 0.726249	 -0.588898	 0.354526	 1
1462089983.172	 3	 -0.797044	 -0.729540	 -2.451963	 1.691037	 -1.061865	 -0.903136	 -0.020615	 0.727185	 -0.590539	 0.349344	 1
1462089983.192	 4	 -0.838615	 -1.415808	 -1.622430	 1.708722	 -1.098143	 -0.855661	 -0.044935	 0.727514	 -0.590527	 0.346384	 1
1462089983.202	 4	 -0.653856	 -1.533146	 -1.448214	 1.711558	 -1.111650	 -0.835548	 -0.055947	 0.726608	 -0.590112	 0.347388	 1
1462089983.212	 4	 -0.377224	 -1.505939	 -1.691231	 1.710246	 -1.126979	 -0.820136	 -0.067062	 0.724807	 -0.590808	 0.347999	 1
1462089983.222	 4	 -0.048093	 -1.347752	 -2.037932	 1.704813	 -1.146130	 -0.810726	 -0.078484	 0.722057	 -0.593217	 0.347229	 1
1462089983.232	 4	 0.253618	 -1.142495	 -2.358378	 1.695469	 -1.168978	 -0.807926	 -0.089923	 0.718491	 -0.597320	 0.344808	 1
1462089983.242	 4	 0.467367	 -0.906340	 -2.560536	 1.682902	 -1.194562	 -0.811071	 -0.101149	 0.714367	 -0.602697	 0.340888	 1
1462089983.252	 4	 0.631408	 -0.632490	 -2.425130	 1.667130	 -1.219791	 -0.820331	 -0.111119	 0.710063	 -0.608610	 0.336241	 1
1462089983.262	 4	 0.788139	 -0.216144	 -2.149786	 1.648145	 -1.242587	 -0.836969	 -0.118745	 0.705942	 -0.614783	 0.331040	 1
1462089983.272	 4	 0.855895	 0.336652	 -1.868133	 1.628334	 -1.262432	 -0.859847	 -0.123563	 0.702466	 -0.621053	 0.324910	 1
1462089983.282	 4	 0.768100	 0.988433	 -1.639625	 1.613464	 -1.279794	 -0.883950	 -0.125691	 0.700229	 -0.627085	 0.317246	 1
1462089983.292	 4	 0.698969	 1.673798	 -1.319312	 1.606011	 -1.294112	 -0.907477	 -0.124726	 0.699466	 -0.632727	 0.307973	 1
1462089983.302	 4	 0.692309	 1.858427	 -0.796378	 1.600932	 -1.303814	 -0.931913	 -0.121136	 0.699500	 -0.637705	 0.298928	 1
1462089983.312	 4	 0.790981	 1.746913	 -0.001085	 1.590916	 -1.306079	 -0.960801	 -0.115019	 0.699573	 -0.641740	 0.292470	 1
1462089983.322	 4	 0.757547	 1.324402	 0.682692	 1.576604	 -1.300902	 -0.990731	 -0.107352	 0.699464	 -0.644522	 0.289512	 1
1462089983.332	 4	 0.529643	 0.627136	 1.093835	 1.563673	 -1.290820	 -1.012553	 -0.100365	 0.699244	 -0.645554	 0.290247	 1
1462089983.342	 4	 0.296701	 0.003355	 1.223279	 1.553652	 -1.278695	 -1.024531	 -0.095152	 0.698912	 -0.645095	 0.293805	 1
1462089983.352	 4	 0.110569	 -0.426797	 1.085545	 1.546072	 -1.267312	 -1.028993	 -0.092025	 0.698454	 -0.643798	 0.298693	 1
1462089983.362	 4	 -0.021950	 -0.630983	 0.742689	 1.540605	 -1.258934	 -1.028467	 -0.091008	 0.697916	 -0.642289	 0.303474	 1
1462089983.372	 4	 -0.090536	 -0.568918	 0.327151	 1.537377	 -1.254671	 -1.025557	 -0.091551	 0.697441	 -0.641094	 0.306907	 1
1462089983.382	 4	 -0.127041	 -0.327732	 -0.015594	 1.537144	 -1.254070	 -1.021633	 -0.092782	 0.697246	 -0.640395	 0.308439	 1
1462089983.392	 4	 -0.147025	 -0.004577	 -0.275111	 1.600326	 -1.291208	 -0.959976	 -0.107138	 0.701851	 -0.639831	 0.294180	 1
1462089983.402	 4	 -0.172958	 0.310037	 -0.461663	 1.608971	 -1.295347	 -0.953417	 -0.108107	 0.702498	 -0.639991	 0.291927	 1
1462089983.412	 4	 -0.219254	 0.550742	 -0.581583	 1.622260	 -1.300802	 -0.944774	 -0.108772	 0.703583	 -0.640334	 0.288291	 1
1462089983.422	 4	 -0.247713	 0.674845	 -0.639863	 1.638998	 -1.306940	 -0.934175	 -0.109249	 0.704948	 -0.640736	 0.283850	 1
1462089983.432	 4	 -0.225279	 0.685368	 -0.646359	 1.656174	 -1.313433	 -0.923507	 -0.109721	 0.706267	 -0.641262	 0.279161	 1
1462089983.442	 4	 -0.143370	 0.617163	 -0.631720	 1.671206	 -1.319600	 -0.914565	 -0.110150	 0.707337	 -0.641902	 0.274779	 1
1462089983.452	 4	 -0.032888	 0.508368	 -0.629431	 1.681564	 -1.325790	 -0.909415	 -0.110735	 0.707916	 -0.642842	 0.270828	 1
1462089983.462	 4	 0.022567	 0.293191	 -0.652166	 1.687594	 -1.332243	 -0.906820	 -0.111884	 0.707990	 -0.643951	 0.267506	 1
1462089983.472	 4	 0.044179	 0.064960	 -0.582006	 1.690033	 -1.338272	 -0.905553	 -0.113571	 0.707677	 -0.644968	 0.265162	 1
1462089983.482	 4	 0.117973	 -0.036773	 -0.426663	 1.688169	 -1.343060	 -0.907223	 -0.115189	 0.707072	 -0.645911	 0.263780	 1
1462089983.492	 4	 0.256971	 0.073755	 -0.229539	 1.690600	 -1.332248	 -0.905596	 -0.111351	 0.708323	 -0.643956	 0.266834	 1
1462089983.502	 4	 0.433035	 0.397586	 -0.088259	 1.711989	 -1.316240	 -0.888702	 -0.105128	 0.711805	 -0.639979	 0.269645	 1
1462089983.512	 4	 0.613651	 0.860118	 -0.034371	 1.697861	 -1.317418	 -0.910953	 -0.102137	 0.710951	 -0.642446	 0.267171	 1
1462089983.522	 4	 0.718943	 1.251090	 -0.051899	 1.682853	 -1.318703	 -0.938456	 -0.097631	 0.710221	 -0.645567	 0.263244	 1
1462089983.532	 4	 0.734808	 1.472057	 -0.081954	 1.668952	 -1.320218	 -0.967531	 -0.092323	 0.709667	 -0.648951	 0.258288	 1
1462089983.542	 4	 0.680541	 1.510465	 -0.087519	 1.656936	 -1.321761	 -0.995561	 -0.086816	 0.709271	 -0.652242	 0.252939	 1
1462089983.552	 4	 0.554856	 1.313197	 -0.060551	 1.647765	 -1.322926	 -1.019213	 -0.081826	 0.709039	 -0.654997	 0.248086	 1
1462089983.562	 4	 0.435011	 0.984132	 -0.018873	 1.640304	 -1.323564	 -1.037949	 -0.077852	 0.708828	 -0.657101	 0.244378	 1
1462089983.572	 4	 0.334060	 0.577462	 0.035773	 1.632913	 -1.323596	 -1.052644	 -0.075087	 0.708489	 -0.658610	 0.242153	 1
1462089983.582	 4	 0.227307	 0.071895	 0.090615	 1.624708	 -1.322963	 -1.063201	 -0.073834	 0.707925	 -0.659492	 0.241786	 1
1462089983.592	 4	 0.101001	 -0.473257	 0.105826	 1.615827	 -1.321969	 -1.068890	 -0.074405	 0.707112	 -0.659715	 0.243377	 1
1462089983.602	 4	 -0.051955	 -0.969770	 0.070564	 1.607734	 -1.321155	 -1.068459	 -0.076942	 0.706146	 -0.659245	 0.246646	 1
1462089983.612	 4	 -0.194738	 -1.338742	 0.026809	 1.601399	 -1.320728	 -1.062039	 -0.081145	 0.705125	 -0.658138	 0.251135	 1
1462089983.622	 4	 -0.307819	 -1.521651	 -0.014407	 1.597555	 -1.320680	 -1.050628	 -0.086412	 0.704162	 -0.656522	 0.256256	 1
1462089983.632	 4	 -0.364227	 -1.441067	 -0.071783	 1.596698	 -1.321154	 -1.036276	 -0.091909	 0.703386	 -0.654694	 0.261107	 1
1462089983.642	 4	 -0.375866	 -1.164746	 -0.106412	 1.599095	 -1.322061	 -1.020986	 -0.096816	 0.702929	 -0.652924	 0.264968	 1
1462089983.652	 4	 -0.381555	 -0.813513	 -0.075384	 1.605178	 -1.322816	 -1.005408	 -0.100570	 0.702926	 -0.651258	 0.267664	 1
1462089983.662	 4	 -0.384111	 -0.501429	 -0.014907	 1.614582	 -1.322951	 -0.989795	 -0.103047	 0.703385	 -0.649661	 0.269392	 1
1462089983.672	 4	 -0.407874	 -0.306967	 -0.049126	 1.627108	 -1.323089	 -0.973265	 -0.104848	 0.704206	 -0.648103	 0.270302	 1
1462089983.682	 4	 -0.356179	 -0.160744	 -0.104701	 1.640202	 -1.323794	 -0.957720	 -0.106328	 0.705105	 -0.646803	 0.270496	 1
1462089983.692	 4	 -0.233886	 -0.022863	 -0.108746	 1.650538	 -1.324696	 -0.946492	 -0.107256	 0.705832	 -0.645982	 0.270192	 1
1462089983.702	 4	 -0.099887	 0.088562	 -0.089692	 1.656762	 -1.325538	 -0.940714	 -0.107572	 0.706294	 -0.645675	 0.269593	 1
1462089983.712	 4	 0.046942	 0.198938	 -0.063300	 1.658311	 -1.326245	 -0.940873	 -0.107257	 0.706454	 -0.645896	 0.268771	 1
1462089983.722	 4	 0.200302	 0.331671	 -0.031427	 1.654907	 -1.326778	 -0.947437	 -0.106220	 0.706305	 -0.646682	 0.267683	 1
1462089983.732	 4	 0.319539	 0.476153	 -0.006608	 1.647599	 -1.327128	 -0.959501	 -0.104445	 0.705937	 -0.647964	 0.266247	 1
1462089983.742	 4	 0.390614	 0.613139	 -0.008084	 1.638362	 -1.327465	 -0.974991	 -0.102091	 0.705486	 -0.649595	 0.264374	 1
1462089983.752	 4	 0.439194	 0.733166	 -0.010587	 1.628174	 -1.327845	 -0.992739	 -0.099278	 0.705012	 -0.651476	 0.262071	 1
1462089983.762	 4	 0.466420	 0.839530	 0.000823	 1.617738	 -1.328116	 -1.011875	 -0.096032	 0.704568	 -0.653501	 0.259418	 1
1462089983.772	 4	 0.462610	 0.921569	 0.018672	 1.607910	 -1.328175	 -1.031305	 -0.092426	 0.704212	 -0.655553	 0.256502	 1
1462089983.782	 4	 0.414758	 0.943110	 0.036341	 1.599927	 -1.328004	 -1.049236	 -0.088674	 0.704016	 -0.657454	 0.253482	 1
1462089983.792	 4	 0.296003	 0.822701	 0.104464	 1.595150	 -1.327265	 -1.063084	 -0.085114	 0.704054	 -0.658892	 0.250848	 1
1462089983.802	 4	 0.076778	 0.420926	 0.199618	 1.594846	 -1.325521	 -1.068969	 -0.082533	 0.704349	 -0.659383	 0.249589	 1
1462089983.812	 4	 -0.151030	 -0.165274	 0.233449	 1.598383	 -1.323179	 -1.065113	 -0.081909	 0.704749	 -0.658732	 0.250383	 1
1462089983.822	 4	 -0.258915	 -0.588706	 0.173962	 1.602586	 -1.321187	 -1.055654	 -0.083165	 0.704989	 -0.657445	 0.252667	 1
1462089983.832	 4	 -0.302090	 -0.868735	 0.115247	 1.605800	 -1.319820	 -1.044020	 -0.085736	 0.704979	 -0.655912	 0.255800	 1
1462089983.842	 4	 -0.310195	 -0.976367	 0.083409	 1.608130	 -1.318783	 -1.031640	 -0.088975	 0.704796	 -0.654273	 0.259372	 1
1462089983.852	 4	 -0.280645	 -0.783198	 0.039121	 1.610726	 -1.318174	 -1.020198	 -0.091947	 0.704652	 -0.652810	 0.262393	 1
1462089983.862	 4	 -0.312407	 -0.458034	 -0.015127	 1.616916	 -1.318052	 -1.008214	 -0.094109	 0.704917	 -0.651502	 0.264160	 1
1462089983.872	 4	 -0.383531	 -0.116712	 -0.057160	 1.629075	 -1.318358	 -0.993605	 -0.095410	 0.705812	 -0.650194	 0.264526	 1
1462089983.882	 4	 -0.496790	 0.093040	 -0.072340	 1.647834	 -1.318734	 -0.974771	 -0.096103	 0.707362	 -0.648662	 0.263894	 1
1462089983.892	 4	 -0.589293	 0.166688	 -0.074046	 1.671655	 -1.318969	 -0.951751	 -0.096621	 0.709372	 -0.646817	 0.262838	 1
1462089983.902	 4	 -0.564325	 0.271779	 -0.092470	 1.696831	 -1.319153	 -0.928194	 -0.096920	 0.711517	 -0.644978	 0.261444	 1
1462089983.912	 4	 -0.426788	 0.496635	 -0.123548	 1.719681	 -1.319682	 -0.909099	 -0.096539	 0.713519	 -0.643692	 0.259290	 1
1462089983.922	 4	 -0.248089	 0.859562	 -0.165423	 1.739604	 -1.320711	 -0.896327	 -0.095034	 0.715373	 -0.643190	 0.255964	 1
1462089983.932	 4	 -0.089433	 1.293622	 -0.233105	 1.757682	 -1.322640	 -0.890033	 -0.092109	 0.717171	 -0.643601	 0.250919	 1
1462089983.942	 4	 -0.055509	 1.469043	 -0.229637	 1.776230	 -1.324847	 -0.885787	 -0.088386	 0.719042	 -0.644334	 0.244949	 1
1462089983.952	 4	 -0.088026	 1.269981	 -0.119301	 1.793959	 -1.326212	 -0.881430	 -0.084685	 0.720850	 -0.644840	 0.239553	 1
1462089983.962	 4	 -0.208934	 0.548826	 0.121232	 1.807816	 -1.325273	 -0.875000	 -0.082234	 0.722339	 -0.644466	 0.236912	 1
1462089983.972	 4	 -0.433777	 -0.707072	 0.354497	 1.815601	 -1.321439	 -0.863238	 -0.082743	 0.723228	 -0.642614	 0.239044	 1
1462089983.982	 4	 -0.729380	 -2.361612	 0.441857	 1.816838	 -1.315693	 -0.842066	 -0.088157	 0.723160	 -0.638911	 0.247106	 1
1462089984.002	 5	 -0.887357	 -5.134417	 0.235185	 1.790928	 -1.304369	 -0.778923	 -0.115484	 0.717920	 -0.626879	 0.279782	 1
1462089984.012	 5	 -0.635343	 -4.874400	 -0.034228	 1.765519	 -1.302594	 -0.753305	 -0.132007	 0.712890	 -0.621228	 0.297384	 1
1462089984.022	 5	 -0.501492	 -3.686221	 -0.256673	 1.747873	 -1.303627	 -0.730059	 -0.146061	 0.708462	 -0.616691	 0.310548	 1
1462089984.032	 5	 -0.563736	 -2.089259	 -0.361702	 1.744550	 -1.306075	 -0.707606	 -0.155808	 0.705932	 -0.613442	 0.317919	 1
1462089984.042	 5	 -0.695217	 -0.542473	 -0.373874	 1.762065	 -1.308574	 -0.680036	 -0.160975	 0.706206	 -0.610988	 0.319459	 1
1462089984.052	 5	 -0.803460	 0.470576	 -0.349650	 1.795995	 -1.310447	 -0.647615	 -0.162682	 0.708714	 -0.609004	 0.316817	 1
1462089984.062	 5	 -0.761063	 0.830221	 -0.312568	 1.835363	 -1.311679	 -0.614925	 -0.162699	 0.712060	 -0.607358	 0.312435	 1
1462089984.082	 6	 -0.191201	 0.316400	 -0.242379	 1.884453	 -1.314198	 -0.576168	 -0.162398	 0.716086	 -0.605985	 0.305990	 1
1462089984.092	 6	 0.200714	 0.139804	 -0.235711	 1.885214	 -1.316760	 -0.576987	 -0.162625	 0.715831	 -0.606827	 0.304795	 1
1462089984.102	 6	 0.501280	 0.257228	 -0.202065	 1.873639	 -1.320147	 -0.591234	 -0.162046	 0.714652	 -0.608914	 0.303707	 1
1462089984.112	 6	 0.549134	 0.345188	 -0.080167	 1.857545	 -1.322836	 -0.611241	 -0.160613	 0.713380	 -0.611317	 0.302627	 1
1462089984.122	 6	 0.384678	 0.006091	 0.026818	 1.842451	 -1.323965	 -0.627976	 -0.159607	 0.712254	 -0.612916	 0.302578	 1
1462089984.132	 6	 0.487367	 0.030480	 0.058123	 1.824702	 -1.324617	 -0.646161	 -0.158782	 0.710912	 -0.614413	 0.303134	 1
1462089984.142	 6	 0.592154	 0.287670	 0.072393	 1.803994	 -1.325336	 -0.669873	 -0.156956	 0.709537	 -0.616539	 0.302989	 1
1462089984.152	 6	 0.538358	 0.458744	 0.027560	 1.786140	 -1.326186	 -0.692523	 -0.154705	 0.708478	 -0.618766	 0.302082	 1
1462089984.162	 6	 0.454226	 0.712214	 0.039177	 1.773578	 -1.326820	 -0.712116	 -0.151860	 0.708000	 -0.620894	 0.300276	 1
1462089984.172	 6	 0.398255	 1.065477	 0.036557	 1.766658	 -1.327234	 -0.729304	 -0.148058	 0.708199	 -0.623032	 0.297261	 1
1462089984.182	 6	 0.260103	 1.251470	 -0.038310	 1.767195	 -1.327987	 -0.741314	 -0.143875	 0.709055	 -0.625005	 0.293104	 1
1462089984.192	 6	 0.138610	 1.305904	 -0.061258	 1.774110	 -1.328911	 -0.747535	 -0.139798	 0.710380	 -0.626597	 0.288433	 1
1462089984.212	 7	 0.002972	 1.052144	 -0.054978	 1.794500	 -1.330113	 -0.751120	 -0.132505	 0.713360	 -0.628751	 0.279699	 1
1462089984.222	 7	 -0.127960	 0.524285	 -0.150405	 1.806474	 -1.331122	 -0.745553	 -0.131046	 0.714522	 -0.628985	 0.276881	 1
1462089984.232	 7	 -0.076555	 0.093518	 -0.130349	 1.813733	 -1.332276	 -0.740034	 -0.131099	 0.715004	 -0.628950	 0.275688	 1
1462089984.242	 7	 0.076450	 -0.101115	 -0.067415	 1.812044	 -1.333219	 -0.741322	 -0.131465	 0.714724	 -0.629224	 0.275614	 1
1462089984.252	 7	 -0.190007	 -0.993252	 0.003338	 1.809837	 -1.332970	 -0.735697	 -0.134090	 0.714080	 -0.628244	 0.278242	 1
1462089984.262	 7	 0.448566	 -0.030034	 -0.235187	 1.795708	 -1.335223	 -0.746963	 -0.135224	 0.712559	 -0.629353	 0.279085	 1
1462089984.272	 7	 0.421214	 0.773943	 -0.554656	 1.786692	 -1.340933	 -0.762482	 -0.134353	 0.711585	 -0.632115	 0.275728	 1
1462089984.282	 7	 0.144163	 1.238256	 -0.733366	 1.796231	 -1.348206	 -0.764243	 -0.133014	 0.712025	 -0.634527	 0.269635	 1
1462089984.292	 7	 0.046795	 1.607861	 -0.699238	 1.815946	 -1.355393	 -0.759728	 -0.130625	 0.713355	 -0.636752	 0.261934	 1
1462089984.302	 7	 -0.106848	 1.610302	 -0.425042	 1.841296	 -1.360115	 -0.750496	 -0.127318	 0.715354	 -0.638215	 0.254443	 1
1462089984.312	 7	 -0.134149	 1.364437	 -0.019971	 1.863489	 -1.360915	 -0.742501	 -0.123344	 0.717526	 -0.638776	 0.248815	 1
1462089984.322	 7	 0.003044	 0.978289	 0.320548	 1.872697	 -1.358447	 -0.744153	 -0.119051	 0.719138	 -0.638987	 0.245689	 1
1462089984.332	 7	 0.214229	 0.463213	 0.366139	 1.866538	 -1.355333	 -0.756559	 -0.115600	 0.719578	 -0.639452	 0.244837	 1
1462089984.342	 7	 0.443016	 0.015647	 0.194789	 1.847629	 -1.354094	 -0.777134	 -0.113868	 0.718621	 -0.640617	 0.245412	 1
1462089984.352	 7	 0.575255	 -0.291419	 -0.001057	 1.820618	 -1.355094	 -0.802486	 -0.113750	 0.716602	 -0.642412	 0.246677	 1
1462089984.362	 7	 0.599121	 -0.326464	 -0.130548	 1.791698	 -1.357480	 -0.828611	 -0.114471	 0.714205	 -0.644478	 0.247902	 1
1462089984.372	 7	 0.539241	 -0.087305	 -0.175761	 1.766269	 -1.360303	 -0.853000	 -0.114895	 0.712103	 -0.646595	 0.248240	 1
1462089984.392	 8	 0.133897	 0.337773	 -0.096870	 1.745105	 -1.364095	 -0.878967	 -0.113755	 0.710532	 -0.649304	 0.246186	 1
1462089984.402	 8	 -0.009232	 0.446399	 0.010898	 1.748515	 -1.364301	 -0.879801	 -0.112419	 0.710975	 -0.649637	 0.244639	 1
1462089984.412	 8	 -0.112051	 0.317379	 0.071341	 1.755830	 -1.363531	 -0.876117	 -0.111102	 0.711749	 -0.649454	 0.243473	 1
1462089984.422	 8	 -0.134699	 0.014545	 0.102824	 1.762223	 -1.362350	 -0.870529	 -0.110629	 0.712353	 -0.648909	 0.243374	 1
1462089984.432	 8	 -0.090931	 -0.243736	 0.144802	 1.763875	 -1.360839	 -0.867002	 -0.110857	 0.712535	 -0.648286	 0.244395	 1
1462089984.452	 9	 -0.179440	 -0.938810	 0.181735	 1.760799	 -1.357132	 -0.855917	 -0.114591	 0.711964	 -0.646041	 0.250215	 1
1462089984.462	 9	 -0.137827	 -0.984286	 0.234238	 1.755793	 -1.354659	 -0.850925	 -0.117177	 0.711332	 -0.644651	 0.254365	 1
1462089984.472	 9	 -0.076040	 -0.784483	 0.237691	 1.749422	 -1.352117	 -0.848737	 -0.119176	 0.710683	 -0.643510	 0.258112	 1
1462089984.482	 9	 -0.039033	 -0.367979	 0.193285	 1.744933	 -1.350017	 -0.848413	 -0.120048	 0.710323	 -0.642801	 0.260454	 1
1462089984.492	 9	 -0.061555	 0.111098	 0.140404	 1.745958	 -1.348419	 -0.847271	 -0.119602	 0.710572	 -0.642410	 0.260945	 1
1462089984.502	 9	 -0.123901	 0.501339	 0.100882	 1.753833	 -1.347148	 -0.843458	 -0.118013	 0.711518	 -0.642138	 0.259758	 1
1462089984.512	 9	 -0.180628	 0.715092	 0.073523	 1.767190	 -1.346055	 -0.836660	 -0.115791	 0.712977	 -0.641827	 0.257516	 1
1462089984.522	 9	 -0.172895	 0.776708	 0.066569	 1.781968	 -1.345035	 -0.829407	 -0.113308	 0.714578	 -0.641543	 0.254878	 1
1462089984.532	 9	 -0.122094	 0.680887	 0.073761	 1.794244	 -1.344048	 -0.824156	 -0.110931	 0.715963	 -0.641367	 0.252469	 1
1462089984.542	 9	 -0.049398	 0.456472	 0.104079	 1.801288	 -1.342960	 -0.822232	 -0.109013	 0.716880	 -0.641291	 0.250889	 1
1462089984.552	 9	 0.007836	 0.147848	 0.102840	 1.802765	 -1.341929	 -0.823074	 -0.107907	 0.717241	 -0.641266	 0.250398	 1
1462089984.562	 9	 0.046532	 -0.234199	 0.089356	 1.798943	 -1.341109	 -0.825610	 -0.107960	 0.717002	 -0.641211	 0.251202	 1
1462089984.572	 9	 0.082094	 -0.587641	 0.059114	 1.790205	 -1.340625	 -0.829398	 -0.109249	 0.716165	 -0.641116	 0.253264	 1
1462089984.582	 9	 0.129314	 -0.752685	 0.052904	 1.777559	 -1.340358	 -0.834925	 -0.111239	 0.714892	 -0.641069	 0.256096	 1
1462089984.592	 9	 0.145605	 -0.702655	 0.064951	 1.763705	 -1.340033	 -0.841683	 -0.113161	 0.713526	 -0.641098	 0.258976	 1
1462089984.602	 9	 0.095405	 -0.493969	 0.074790	 1.752927	 -1.339539	 -0.847053	 -0.114540	 0.712487	 -0.641087	 0.261248	 1
1462089984.612	 9	 0.023531	 -0.123467	 0.090603	 1.781101	 -1.336652	 -0.817580	 -0.115109	 0.714820	 -0.638282	 0.261495	 1
1462089984.622	 9	 -0.016925	 0.342570	 0.098489	 1.782904	 -1.335683	 -0.818007	 -0.114069	 0.715199	 -0.638244	 0.261004	 1
1462089984.632	 9	 -0.040738	 0.717088	 0.106444	 1.789729	 -1.334594	 -0.817529	 -0.111711	 0.716193	 -0.638346	 0.259041	 1
1462089984.642	 9	 -0.051734	 0.882970	 0.096360	 1.799380	 -1.333494	 -0.816399	 -0.108682	 0.717511	 -0.638506	 0.256272	 1
1462089984.652	 9	 -0.036924	 0.879526	 0.067424	 1.809188	 -1.332670	 -0.815459	 -0.105625	 0.718814	 -0.638742	 0.253295	 1
1462089984.662	 9	 -0.030274	 0.730389	 0.038268	 1.817745	 -1.332168	 -0.814628	 -0.103030	 0.719913	 -0.638979	 0.250632	 1
1462089984.672	 9	 -0.021772	 0.493209	 0.042382	 1.823891	 -1.331733	 -0.814045	 -0.101138	 0.720706	 -0.639128	 0.248734	 1
1462089984.682	 9	 -0.013527	 0.176478	 0.076664	 1.826398	 -1.331054	 -0.814124	 -0.100093	 0.721109	 -0.639121	 0.248007	 1
1462089984.692	 9	 0.030059	 -0.120095	 0.118287	 1.824154	 -1.330039	 -0.815903	 -0.099846	 0.721051	 -0.639015	 0.248549	 1
1462089984.702	 9	 0.110336	 -0.294772	 0.117028	 1.816808	 -1.329092	 -0.820812	 -0.100122	 0.720501	 -0.639061	 0.249909	 1
1462089984.712	 9	 0.167489	 -0.367505	 0.083881	 1.806231	 -1.328575	 -0.828060	 -0.100728	 0.719604	 -0.639331	 0.251555	 1
1462089984.722	 9	 0.198369	 -0.364554	 0.063390	 1.794391	 -1.328365	 -0.836409	 -0.101445	 0.718557	 -0.639744	 0.253205	 1
1462089984.732	 9	 0.226818	 -0.216787	 0.064518	 1.782464	 -1.328218	 -0.846002	 -0.101769	 0.717548	 -0.640325	 0.254461	 1
1462089984.742	 9	 0.210849	 -0.004889	 0.091141	 1.772533	 -1.327848	 -0.855635	 -0.101377	 0.716815	 -0.640975	 0.255049	 1
1462089984.752	 9	 0.114549	 0.147660	 0.114714	 1.767149	 -1.327060	 -0.862378	 -0.100429	 0.716558	 -0.641409	 0.255056	 1
1462089984.762	 9	 -0.005398	 0.267283	 0.134990	 1.767602	 -1.325839	 -0.864341	 -0.099182	 0.716850	 -0.641443	 0.254637	 1
1462089984.772	 9	 -0.099945	 0.342156	 0.154627	 1.772793	 -1.324216	 -0.862367	 -0.097696	 0.717594	 -0.641131	 0.253902	 1
1462089984.782	 9	 -0.129588	 0.374310	 0.176500	 1.779989	 -1.322262	 -0.858739	 -0.096056	 0.718551	 -0.640633	 0.253075	 1
1462089984.792	 9	 -0.104043	 0.390021	 0.147546	 1.802334	 -1.328980	 -0.840620	 -0.097586	 0.719689	 -0.640792	 0.248816	 1
1462089984.802	 9	 -0.060516	 0.423224	 0.050492	 1.808542	 -1.328053	 -0.838472	 -0.096073	 0.720468	 -0.640637	 0.247548	 1
1462089984.812	 9	 -0.036127	 0.482976	 -0.060004	 1.815074	 -1.328278	 -0.836533	 -0.094751	 0.721154	 -0.640756	 0.245747	 1
1462089984.822	 9	 -0.045570	 0.595074	 -0.152666	 1.823669	 -1.329440	 -0.833475	 -0.093471	 0.721916	 -0.641027	 0.243279	 1
1462089984.832	 9	 -0.069591	 0.785905	 -0.247665	 1.835827	 -1.331446	 -0.828513	 -0.092004	 0.722900	 -0.641411	 0.239880	 1
1462089984.842	 9	 -0.096452	 1.055433	 -0.345105	 1.852788	 -1.334303	 -0.821181	 -0.090118	 0.724208	 -0.641919	 0.235249	 1
1462089984.852	 9	 -0.131416	 1.397478	 -0.419418	 1.875559	 -1.337798	 -0.811206	 -0.087518	 0.725936	 -0.642526	 0.229167	 1
1462089984.862	 9	 -0.194851	 1.814044	 -0.495988	 1.906077	 -1.341768	 -0.797336	 -0.083981	 0.728215	 -0.643151	 0.221373	 1
1462089984.872	 9	 -0.468370	 2.001785	 -0.531292	 1.949235	 -1.345376	 -0.773553	 -0.079878	 0.731376	 -0.643167	 0.212237	 1
1462089984.882	 9	 -0.846260	 1.736071	 -0.511291	 2.007117	 -1.347114	 -0.732724	 -0.076774	 0.735512	 -0.641607	 0.203638	 1
1462089984.892	 9	 -0.893247	 1.468481	 -0.469676	 2.067411	 -1.347343	 -0.686630	 -0.074531	 0.739754	 -0.639339	 0.196100	 1
1462089984.902	 9	 -0.715460	 1.123587	 -0.437131	 2.118475	 -1.347356	 -0.646728	 -0.073030	 0.743207	 -0.637375	 0.189900	 1
1462089984.912	 9	 -0.511545	 0.709072	 -0.460882	 2.158260	 -1.348123	 -0.614280	 -0.072644	 0.745602	 -0.635995	 0.185230	 1
1462089984.922	 9	 -0.399861	 0.419316	 -0.478405	 2.190358	 -1.349673	 -0.586257	 -0.073299	 0.747199	 -0.635040	 0.181783	 1
1462089984.932	 9	 -0.459953	 0.306061	 -0.426713	 2.220908	 -1.350684	 -0.558300	 -0.074312	 0.748703	 -0.633944	 0.178991	 1
1462089984.942	 9	 -0.613273	 0.326130	 -0.361246	 2.254648	 -1.350081	 -0.526878	 -0.075266	 0.750661	 -0.632232	 0.176426	 1
1462089984.952	 9	 -0.656614	 0.593623	 -0.306157	 2.290994	 -1.348267	 -0.494849	 -0.075417	 0.753054	 -0.630239	 0.173264	 1
1462089984.962	 9	 -0.608696	 1.028456	 -0.312120	 2.329495	 -1.346377	 -0.464815	 -0.074212	 0.755675	 -0.628512	 0.168585	 1
1462089984.972	 9	 -0.691390	 1.122486	 -0.286012	 2.370956	 -1.343830	 -0.434066	 -0.072305	 0.758614	 -0.626653	 0.163041	 1
1462089984.982	 9	 -0.747940	 0.992967	 -0.128992	 2.408455	 -1.339583	 -0.405922	 -0.070422	 0.761697	 -0.624317	 0.158387	 1
1462089984.992	 9	 -0.647769	 0.819477	 0.041175	 2.435922	 -1.334437	 -0.386769	 -0.068180	 0.764508	 -0.622027	 0.154796	 1
1462089985.002	 9	 -0.459846	 0.564094	 0.101108	 2.452747	 -1.329931	 -0.375878	 -0.066282	 0.766604	 -0.620211	 0.152521	 1
1462089985.012	 9	 -0.267111	 0.263458	 0.082777	 2.461367	 -1.326936	 -0.370578	 -0.065094	 0.767866	 -0.619058	 0.151367	 1
1462089985.022	 9	 -0.147623	 -0.179500	 0.062694	 2.463078	 -1.325184	 -0.368194	 -0.065161	 0.768376	 -0.618326	 0.151743	 1
1462089985.032	 9	 -0.034442	 -0.635972	 0.083039	 2.457068	 -1.324179	 -0.368943	 -0.066547	 0.768203	 -0.617837	 0.153991	 1
1462089985.042	 9	 0.138411	 -0.866238	 0.080457	 2.443864	 -1.324348	 -0.374036	 -0.068702	 0.767303	 -0.617845	 0.157457	 1
1462089985.052	 9	 0.313224	 -0.850245	 0.009810	 2.427250	 -1.326213	 -0.382222	 -0.071051	 0.765785	 -0.618557	 0.160970	 1
1462089985.062	 9	 0.456685	 -0.685328	 -0.070903	 2.410250	 -1.329700	 -0.392236	 -0.073155	 0.763874	 -0.619944	 0.163751	 1
1462089985.072	 9	 0.602603	 -0.459727	 -0.142546	 2.393085	 -1.334758	 -0.404483	 -0.074807	 0.761627	 -0.622023	 0.165574	 1
1462089985.082	 9	 0.719257	 -0.122197	 -0.191577	 2.376574	 -1.341023	 -0.419280	 -0.075585	 0.759233	 -0.624718	 0.166070	 1
1462089985.092	 9	 0.827683	 0.235978	 -0.184936	 2.365693	 -1.348325	 -0.432255	 -0.075568	 0.756991	 -0.627787	 0.164737	 1
1462089985.102	 9	 0.873277	 0.577678	 -0.127800	 2.347652	 -1.355501	 -0.455803	 -0.073850	 0.754606	 -0.631374	 0.162735	 1
1462089985.112	 9	 0.803257	 0.804123	 -0.023836	 2.329319	 -1.361629	 -0.482314	 -0.070981	 0.752580	 -0.634809	 0.160009	 1
1462089985.122	 9	 0.659672	 0.811747	 0.089391	 2.311218	 -1.365908	 -0.509224	 -0.067570	 0.751040	 -0.637662	 0.157357	 1
1462089985.132	 9	 0.534290	 0.654044	 0.145500	 2.293506	 -1.368658	 -0.534458	 -0.064384	 0.749833	 -0.639899	 0.155351	 1
1462089985.142	 9	 0.427701	 0.454406	 0.146702	 2.276912	 -1.370518	 -0.556528	 -0.061863	 0.748811	 -0.641648	 0.154085	 1
1462089985.152	 9	 0.293365	 0.270653	 0.128067	 2.258581	 -1.370035	 -0.578263	 -0.059499	 0.748169	 -0.642622	 0.154077	 1
1462089985.162	 9	 0.139742	 0.099481	 0.075589	 2.250360	 -1.370467	 -0.588079	 -0.058576	 0.747728	 -0.643263	 0.153896	 1
1462089985.172	 9	 -0.011665	 -0.036750	 0.002102	 2.248708	 -1.370458	 -0.589722	 -0.058491	 0.747651	 -0.643339	 0.153987	 1
1462089985.182	 9	 -0.129967	 -0.169875	 -0.069513	 2.252905	 -1.370225	 -0.584048	 -0.059206	 0.747860	 -0.642956	 0.154297	 1
1462089985.192	 9	 -0.195788	 -0.279608	 -0.121117	 2.260742	 -1.369928	 -0.573453	 -0.060579	 0.748216	 -0.642284	 0.154838	 1
1462089985.202	 9	 -0.217499	 -0.344536	 -0.136453	 2.269719	 -1.369581	 -0.560907	 -0.062311	 0.748607	 -0.641482	 0.155584	 1
1462089985.212	 9	 -0.202436	 -0.322213	 -0.132113	 2.278378	 -1.369265	 -0.548661	 -0.064045	 0.748968	 -0.640705	 0.156338	 1
1462089985.222	 9	 -0.174045	 -0.206187	 -0.107834	 2.286368	 -1.368953	 -0.538065	 -0.065383	 0.749324	 -0.640040	 0.156807	 1
1462089985.232	 9	 -0.139147	 -0.076325	 -0.078150	 2.284024	 -1.369194	 -0.538984	 -0.065845	 0.749113	 -0.640108	 0.157338	 1
1462089985.242	 9	 -0.092794	 -0.004965	 -0.045917	 2.289453	 -1.368903	 -0.533257	 -0.066186	 0.749419	 -0.639748	 0.157201	 1
1462089985.252	 9	 -0.023247	 0.006759	 -0.014440	 2.291783	 -1.368794	 -0.530953	 -0.066280	 0.749552	 -0.639611	 0.157088	 1
1462089985.262	 9	 0.065329	 -0.027242	 0.026037	 2.289569	 -1.368952	 -0.533037	 -0.066243	 0.749410	 -0.639750	 0.157217	 1
1462089985.272	 9	 0.149562	 -0.081526	 0.058902	 2.256381	 -1.371857	 -0.565163	 -0.065540	 0.747173	 -0.642071	 0.158690	 1
1462089985.282	 9	 0.189948	 -0.114637	 0.056111	 2.246433	 -1.372552	 -0.574213	 -0.065523	 0.746520	 -0.642671	 0.159339	 1
1462089985.292	 9	 0.196220	 -0.124384	 0.034650	 2.236311	 -1.373454	 -0.583279	 -0.065614	 0.745806	 -0.643328	 0.159992	 1
1462089985.302	 9	 0.193997	 -0.122428	 0.010175	 2.226839	 -1.374521	 -0.591673	 -0.065795	 0.745084	 -0.644001	 0.160571	 1
1462089985.312	 9	 0.184324	 -0.117211	 -0.008869	 2.226218	 -1.374462	 -0.591378	 -0.066090	 0.745037	 -0.643940	 0.160911	 1
1462089985.322	 9	 0.164111	 -0.095946	 -0.018087	 2.218922	 -1.375622	 -0.597785	 -0.066341	 0.744405	 -0.644551	 0.161291	 1
1462089985.332	 9	 0.131216	 -0.053331	 -0.021667	 2.213251	 -1.376628	 -0.602908	 -0.066514	 0.743895	 -0.645066	 0.161510	 1
1462089985.342	 9	 0.088822	 0.006377	 -0.018611	 2.209646	 -1.377376	 -0.606483	 -0.066534	 0.743559	 -0.645450	 0.161518	 1
1462089985.352	 9	 0.039918	 0.050206	 -0.011367	 2.231305	 -1.374676	 -0.585689	 -0.066624	 0.745210	 -0.643714	 0.160797	 1
1462089985.362	 9	 0.002948	 0.113221	 0.009791	 2.231642	 -1.374723	 -0.586309	 -0.066296	 0.745247	 -0.643789	 0.160461	 1
1462089985.372	 9	 -0.038170	 0.201777	 0.031222	 2.233696	 -1.374339	 -0.586049	 -0.065638	 0.745489	 -0.643723	 0.159869	 1
1462089985.382	 9	 -0.080522	 0.269995	 0.034357	 2.237970	 -1.373636	 -0.584292	 -0.064746	 0.745930	 -0.643516	 0.159005	 1
1462089985.392	 9	 -0.108164	 0.307256	 0.024243	 2.265881	 -1.374422	 -0.559743	 -0.065124	 0.747154	 -0.642721	 0.156300	 1
1462089985.402	 9	 -0.118882	 0.308259	 0.011557	 2.273064	 -1.373552	 -0.555578	 -0.064167	 0.747780	 -0.642367	 0.155150	 1
1462089985.412	 9	 -0.109437	 0.277361	 0.007989	 2.279909	 -1.372752	 -0.551517	 -0.063300	 0.748366	 -0.642031	 0.154072	 1
1462089985.422	 9	 -0.100062	 0.227355	 0.009574	 2.285921	 -1.372020	 -0.547845	 -0.062575	 0.748883	 -0.641716	 0.153163	 1
1462089985.432	 9	 -0.084327	 0.161417	 0.016243	 2.291801	 -1.374544	 -0.543721	 -0.062816	 0.748610	 -0.642352	 0.151728	 1
1462089985.442	 9	 -0.063324	 0.083759	 0.022798	 2.294729	 -1.373918	 -0.541790	 -0.062454	 0.748918	 -0.642107	 0.151389	 1
1462089985.452	 9	 -0.033838	 0.001759	 0.020713	 2.295780	 -1.373473	 -0.540959	 -0.062326	 0.749077	 -0.641941	 0.151360	 1
1462089985.462	 9	 0.000911	 -0.084604	 0.005751	 2.295127	 -1.373339	 -0.540980	 -0.062497	 0.749060	 -0.641882	 0.151628	 1
1462089985.472	 9	 0.032600	 -0.148589	 -0.004750	 2.292148	 -1.376753	 -0.542624	 -0.063625	 0.748080	 -0.642952	 0.151463	 1
1462089985.482	 9	 0.051631	 -0.181886	 -0.007297	 2.288784	 -1.377119	 -0.544266	 -0.064178	 0.747791	 -0.643080	 0.152113	 1
1462089985.492	 9	 0.055820	 -0.190478	 -0.017005	 2.285198	 -1.377590	 -0.545985	 -0.064797	 0.747462	 -0.643238	 0.152796	 1
1462089985.502	 9	 0.053640	 -0.184229	 -0.036112	 2.282284	 -1.378174	 -0.547050	 -0.065472	 0.747136	 -0.643401	 0.153413	 1
1462089985.512	 9	 0.045098	 -0.166272	 -0.057189	 2.284407	 -1.378849	 -0.543282	 -0.066354	 0.747016	 -0.643386	 0.153682	 1
1462089985.522	 9	 0.027043	 -0.141807	 -0.064265	 2.283807	 -1.379531	 -0.542389	 -0.067039	 0.746779	 -0.643504	 0.154042	 1
1462089985.532	 9	 0.011089	 -0.127955	 -0.067194	 2.284135	 -1.380132	 -0.540719	 -0.067696	 0.746607	 -0.643568	 0.154324	 1
1462089985.542	 9	 0.007920	 -0.119452	 -0.069219	 2.284948	 -1.380703	 -0.538659	 -0.068336	 0.746464	 -0.643609	 0.154557	 1
1462089985.552	 9	 0.009007	 -0.106749	 -0.077642	 2.290711	 -1.381406	 -0.531829	 -0.069193	 0.746508	 -0.643493	 0.154450	 1
1462089985.562	 9	 0.001687	 -0.060056	 -0.095261	 2.292916	 -1.382111	 -0.528837	 -0.069761	 0.746406	 -0.643553	 0.154435	 1
1462089985.572	 9	 -0.015175	 0.000504	 -0.111603	 2.301623	 -1.382345	 -0.519988	 -0.070317	 0.746712	 -0.643248	 0.153981	 1
1462089985.582	 9	 -0.025577	 0.052703	 -0.104627	 2.307825	 -1.382283	 -0.514125	 -0.070498	 0.746997	 -0.642996	 0.153563	 1
1462089985.592	 9	 -0.021159	 0.066659	 -0.084270	 2.307122	 -1.381701	 -0.515315	 -0.070149	 0.747126	 -0.642883	 0.153568	 1
1462089985.602	 9	 -0.010435	 0.055105	 -0.058875	 2.302407	 -1.381146	 -0.520418	 -0.069633	 0.747076	 -0.642940	 0.153809	 1
1462089985.612	 9	 -0.000873	 0.032855	 -0.043179	 2.304589	 -1.381467	 -0.518595	 -0.069685	 0.747102	 -0.642975	 0.153510	 1
1462089985.622	 9	 0.011808	 -0.003263	 -0.031902	 2.305568	 -1.381773	 -0.517668	 -0.069785	 0.747071	 -0.643032	 0.153377	 1
1462089985.632	 9	 0.022309	 -0.041564	 -0.029152	 2.305522	 -1.382124	 -0.517390	 -0.069984	 0.746973	 -0.643117	 0.153408	 1
1462089985.642	 9	 0.030749	 -0.061808	 -0.030484	 2.304077	 -1.383039	 -0.518242	 -0.070336	 0.746672	 -0.643412	 0.153477	 1
1462089985.652	 9	 0.037151	 -0.059722	 -0.033723	 2.303963	 -1.384026	 -0.517767	 -0.070774	 0.746408	 -0.643675	 0.153460	 1
1462089985.662	 9	 0.042450	 -0.058751	 -0.044423	 2.303620	 -1.385114	 -0.517531	 -0.071218	 0.746110	 -0.643978	 0.153428	 1
1462089985.672	 9	 0.040301	 -0.056663	 -0.050783	 2.303743	 -1.386050	 -0.516836	 -0.071649	 0.745868	 -0.644216	 0.153405	 1
1462089985.682	 9	 0.039216	 -0.063018	 -0.047637	 2.304183	 -1.386740	 -0.515804	 -0.072048	 0.745697	 -0.644364	 0.153425	 1
1462089985.692	 9	 0.040251	 -0.071516	 -0.045592	 2.303224	 -1.387248	 -0.516063	 -0.072375	 0.745510	 -0.644505	 0.153590	 1
1462089985.702	 9	 0.041318	 -0.075735	 -0.040312	 2.302724	 -1.387741	 -0.515825	 -0.072736	 0.745343	 -0.644620	 0.153746	 1
1462089985.712	 9	 0.043479	 -0.076743	 -0.031814	 2.302198	 -1.388177	 -0.515605	 -0.073086	 0.745189	 -0.644717	 0.153919	 1
1462089985.722	 9	 0.044598	 -0.067156	 -0.029604	 2.302230	 -1.388624	 -0.514901	 -0.073439	 0.745057	 -0.644801	 0.154038	 1
1462089985.732	 9	 0.040397	 -0.045922	 -0.036833	 2.303929	 -1.389233	 -0.512739	 -0.073834	 0.744961	 -0.644884	 0.153971	 1
1462089985.742	 9	 0.036160	 -0.034246	 -0.042020	 2.305971	 -1.389855	 -0.510384	 -0.074193	 0.744879	 -0.644969	 0.153837	 1
1462089985.752	 9	 0.032931	 -0.035338	 -0.047331	 2.306530	 -1.390393	 -0.509485	 -0.074468	 0.744758	 -0.645086	 0.153803	 1
1462089985.762	 9	 0.026538	 -0.033192	 -0.047253	 2.306433	 -1.390755	 -0.509228	 -0.074676	 0.744652	 -0.645173	 0.153845	 1
1462089985.772	 9	 0.016961	 -0.032062	 -0.041828	 2.306108	 -1.391055	 -0.509195	 -0.074861	 0.744553	 -0.645251	 0.153912	 1
1462089985.782	 9	 0.013807	 -0.025640	 -0.037475	 2.305840	 -1.391248	 -0.509157	 -0.075005	 0.744483	 -0.645297	 0.153983	 1
1462089985.792	 9	 0.008534	 -0.012852	 -0.036243	 2.307219	 -1.391414	 -0.507612	 -0.075172	 0.744491	 -0.645281	 0.153932	 1
1462089985.802	 9	 0.001096	 -0.007495	 -0.033997	 2.309296	 -1.391524	 -0.505457	 -0.075328	 0.744543	 -0.645227	 0.153831	 1
1462089985.812	 9	 -0.006378	 -0.006424	 -0.036054	 2.311363	 -1.391759	 -0.503300	 -0.075517	 0.744563	 -0.645211	 0.153707	 1
1462089985.822	 9	 -0.009571	 -0.004287	 -0.036007	 2.313654	 -1.391970	 -0.500937	 -0.075705	 0.744598	 -0.645181	 0.153572	 1
1462089985.832	 9	 -0.008484	 -0.000035	 -0.035976	 2.315402	 -1.392118	 -0.499151	 -0.075839	 0.744628	 -0.645156	 0.153466	 1
1462089985.842	 9	 -0.002071	 -0.004256	 -0.028608	 2.315651	 -1.392176	 -0.498849	 -0.075884	 0.744621	 -0.645160	 0.153458	 1
1462089985.852	 9	 0.005343	 -0.023364	 -0.020320	 2.314506	 -1.392130	 -0.499777	 -0.075898	 0.744580	 -0.645174	 0.153595	 1
1462089985.862	 9	 0.009561	 -0.041399	 -0.011995	 2.312697	 -1.392140	 -0.501175	 -0.075963	 0.744491	 -0.645216	 0.153815	 1
1462089985.872	 9	 0.012758	 -0.046688	 -0.006741	 2.311800	 -1.392151	 -0.501610	 -0.076093	 0.744436	 -0.645218	 0.154006	 1
1462089985.882	 9	 0.014925	 -0.042417	 -0.003523	 2.311037	 -1.392229	 -0.501938	 -0.076234	 0.744370	 -0.645239	 0.154168	 1
1462089985.892	 9	 0.011774	 -0.030714	 -0.004452	 2.310672	 -1.392273	 -0.501979	 -0.076346	 0.744333	 -0.645241	 0.154281	 1
1462089985.902	 9	 0.009688	 -0.021127	 -0.003278	 2.310559	 -1.392284	 -0.501860	 -0.076430	 0.744317	 -0.645231	 0.154359	 1
1462089985.912	 9	 0.009743	 -0.009427	 -0.003169	 2.310207	 -1.392269	 -0.502092	 -0.076454	 0.744303	 -0.645231	 0.154419	 1
1462089985.922	 9	 0.012959	 -0.006245	 -0.003167	 2.309778	 -1.392358	 -0.502460	 -0.076475	 0.744262	 -0.645271	 0.154440	 1
1462089985.932	 9	 0.010818	 -0.008358	 -0.002103	 2.309743	 -1.392460	 -0.502434	 -0.076518	 0.744233	 -0.645299	 0.154440	 1
1462089985.942	 9	 0.011843	 -0.016871	 -0.002190	 2.309567	 -1.392432	 -0.502479	 -0.076552	 0.744228	 -0.645287	 0.154497	 1
1462089985.952	 9	 0.010735	 -0.025377	 -0.002260	 2.309169	 -1.392456	 -0.502654	 -0.076621	 0.744198	 -0.645293	 0.154584	 1
1462089985.962	 9	 0.005403	 -0.024297	 -0.002204	 2.309250	 -1.392497	 -0.502341	 -0.076720	 0.744182	 -0.645284	 0.154646	 1
1462089985.972	 9	 0.002196	 -0.025351	 -0.002186	 2.309229	 -1.392546	 -0.502113	 -0.076823	 0.744160	 -0.645280	 0.154717	 1
1462089985.982	 9	 -0.003120	 -0.021080	 -0.002100	 2.309451	 -1.392499	 -0.501666	 -0.076907	 0.744171	 -0.645240	 0.154789	 1
1462089985.992	 9	 -0.002020	 -0.015749	 0.000071	 2.309746	 -1.392495	 -0.501203	 -0.076984	 0.744177	 -0.645214	 0.154829	 1
1462089986.002	 9	 0.000137	 -0.007276	 -0.004135	 2.311037	 -1.392645	 -0.499835	 -0.077109	 0.744188	 -0.645204	 0.154758	 1
1462089986.012	 9	 -0.001976	 0.000154	 -0.007248	 2.312599	 -1.392783	 -0.498275	 -0.077217	 0.744214	 -0.645187	 0.154651	 1
1462089986.022	 9	 -0.006268	 -0.000928	 -0.011486	 2.314038	 -1.392920	 -0.496826	 -0.077322	 0.744236	 -0.645172	 0.154554	 1
1462089986.032	 9	 -0.013716	 0.006518	 -0.014552	 2.316118	 -1.393018	 -0.494784	 -0.077433	 0.744293	 -0.645125	 0.154418	 1
1462089986.042	 9	 -0.013711	 0.008638	 -0.015601	 2.318324	 -1.393131	 -0.492662	 -0.077536	 0.744353	 -0.645082	 0.154258	 1
1462089986.052	 9	 -0.012651	 0.005460	 -0.013509	 2.319874	 -1.393211	 -0.491168	 -0.077610	 0.744395	 -0.645052	 0.154146	 1
1462089986.062	 9	 -0.009500	 -0.005186	 -0.013637	 2.320795	 -1.393346	 -0.490201	 -0.077702	 0.744395	 -0.645055	 0.154086	 1
1462089986.072	 9	 -0.006347	 -0.013721	 -0.015878	 2.321936	 -1.393581	 -0.488940	 -0.077855	 0.744376	 -0.645075	 0.154019	 1
1462089986.082	 9	 -0.005297	 -0.016923	 -0.016985	 2.322607	 -1.393855	 -0.488088	 -0.078016	 0.744326	 -0.645121	 0.153987	 1
1462089986.092	 9	 -0.003156	 -0.013753	 -0.019107	 2.323478	 -1.394102	 -0.487047	 -0.078176	 0.744291	 -0.645151	 0.153947	 1
1462089986.102	 9	 0.002224	 -0.007364	 -0.015898	 2.323945	 -1.394304	 -0.486479	 -0.078281	 0.744254	 -0.645189	 0.153915	 1
1462089986.112	 9	 0.005470	 0.000087	 -0.013725	 2.323887	 -1.394447	 -0.486515	 -0.078318	 0.744215	 -0.645233	 0.153895	 1
1462089986.122	 9	 0.006541	 -0.002021	 -0.010555	 2.323406	 -1.394554	 -0.486978	 -0.078324	 0.744170	 -0.645283	 0.153902	 1
1462089986.132	 9	 0.007593	 -0.005216	 -0.010594	 2.323364	 -1.394696	 -0.486980	 -0.078368	 0.744131	 -0.645326	 0.153888	 1
1462089986.142	 9	 0.008640	 -0.009474	 -0.010642	 2.323217	 -1.394798	 -0.487045	 -0.078414	 0.744097	 -0.645357	 0.153900	 1
1462089986.152	 9	 0.010758	 -0.013727	 -0.009633	 2.322627	 -1.394875	 -0.487501	 -0.078451	 0.744050	 -0.645393	 0.153956	 1
1462089986.162	 9	 0.011845	 -0.009476	 -0.009602	 2.322476	 -1.394955	 -0.487535	 -0.078505	 0.744020	 -0.645414	 0.153985	 1
1462089986.172	 9	 0.009758	 0.000112	 -0.008429	 2.322972	 -1.394962	 -0.487028	 -0.078535	 0.744037	 -0.645397	 0.153962	 1
1462089986.182	 9	 0.002320	 0.006524	 -0.007239	 2.324114	 -1.394979	 -0.485954	 -0.078570	 0.744078	 -0.645364	 0.153880	 1
1462089986.192	 9	 0.000152	 0.000150	 -0.007281	 2.325678	 -1.394970	 -0.484430	 -0.078630	 0.744141	 -0.645306	 0.153792	 1
1462089986.202	 9	 -0.004135	 -0.005140	 -0.005162	 2.326750	 -1.394913	 -0.483327	 -0.078682	 0.744194	 -0.645246	 0.153761	 1
1462089986.212	 9	 -0.008402	 -0.006175	 -0.003002	 2.327453	 -1.394822	 -0.482561	 -0.078721	 0.744241	 -0.645186	 0.153766	 1
1462089986.222	 9	 -0.008392	 -0.004048	 -0.002982	 2.327814	 -1.394741	 -0.482151	 -0.078739	 0.744273	 -0.645144	 0.153780	 1
1462089986.232	 9	 -0.008368	 0.000214	 -0.001876	 2.328148	 -1.394656	 -0.481796	 -0.078745	 0.744306	 -0.645103	 0.153788	 1
1462089986.242	 9	 -0.006186	 0.007676	 0.001372	 2.328422	 -1.394591	 -0.481579	 -0.078723	 0.744334	 -0.645077	 0.153769	 1
1462089986.252	 9	 -0.000811	 0.014058	 0.003516	 2.328274	 -1.394544	 -0.481848	 -0.078661	 0.744346	 -0.645077	 0.153747	 1
1462089986.262	 9	 0.004512	 0.011906	 0.002384	 2.327891	 -1.394613	 -0.482351	 -0.078612	 0.744319	 -0.645122	 0.153714	 1
1462089986.272	 9	 0.009863	 0.015081	 0.002365	 2.327572	 -1.394745	 -0.482816	 -0.078570	 0.744279	 -0.645186	 0.153655	 1
1462089986.282	 9	 0.009853	 0.012954	 0.002345	 2.327270	 -1.394837	 -0.483268	 -0.078520	 0.744251	 -0.645238	 0.153602	 1
1462089986.292	 9	 0.006638	 0.009773	 0.002342	 2.327130	 -1.394978	 -0.483521	 -0.078502	 0.744215	 -0.645295	 0.153544	 1
1462089986.302	 9	 0.004515	 0.015075	 -0.000790	 2.327778	 -1.395103	 -0.483016	 -0.078508	 0.744213	 -0.645321	 0.153439	 1
1462089986.312	 9	 0.002394	 0.021432	 -0.004978	 2.328443	 -1.395274	 -0.482549	 -0.078504	 0.744203	 -0.645365	 0.153307	 1
1462089986.322	 9	 0.005621	 0.025685	 -0.003903	 2.328932	 -1.395474	 -0.482304	 -0.078481	 0.744181	 -0.645427	 0.153162	 1
1462089986.332	 9	 0.006716	 0.027840	 0.000370	 2.329048	 -1.395553	 -0.482472	 -0.078399	 0.744177	 -0.645469	 0.153049	 1
1462089986.342	 9	 0.006666	 0.017203	 0.000271	 2.328643	 -1.395657	 -0.483087	 -0.078323	 0.744144	 -0.645533	 0.152980	 1
1462089986.352	 9	 0.006597	 0.002312	 0.000133	 2.328141	 -1.395801	 -0.483655	 -0.078305	 0.744092	 -0.645602	 0.152953	 1
1462089986.362	 9	 0.006582	 -0.002992	 0.002215	 2.327424	 -1.395918	 -0.484348	 -0.078304	 0.744035	 -0.645663	 0.152972	 1
1462089986.372	 9	 0.006642	 0.007660	 0.004445	 2.326802	 -1.395980	 -0.485027	 -0.078266	 0.743998	 -0.645710	 0.152971	 1
1462089986.382	 9	 0.006714	 0.019392	 0.008816	 2.326681	 -1.395936	 -0.485328	 -0.078183	 0.744012	 -0.645714	 0.152928	 1
1462089986.392	 9	 0.005679	 0.024729	 0.011006	 2.326434	 -1.395864	 -0.485831	 -0.078060	 0.744031	 -0.645721	 0.152872	 1
1462089986.402	 9	 0.006723	 0.014135	 0.017294	 2.325187	 -1.395813	 -0.487262	 -0.077920	 0.744004	 -0.645766	 0.152885	 1
1462089986.412	 9	 0.006623	 -0.008195	 0.018153	 2.323830	 -1.395805	 -0.488609	 -0.077855	 0.743954	 -0.645813	 0.152957	 1
1462089986.422	 9	 0.009719	 -0.030542	 0.017916	 2.322423	 -1.395843	 -0.489779	 -0.077882	 0.743883	 -0.645860	 0.153094	 1
1462089986.432	 9	 0.011811	 -0.036953	 0.014638	 2.321398	 -1.395973	 -0.490464	 -0.077987	 0.743799	 -0.645913	 0.153227	 1
1462089986.442	 9	 0.011842	 -0.024243	 0.007292	 2.321131	 -1.396171	 -0.490476	 -0.078112	 0.743729	 -0.645965	 0.153281	 1
1462089986.452	 9	 0.011912	 -0.004079	 0.001081	 2.321396	 -1.396337	 -0.490145	 -0.078186	 0.743696	 -0.646001	 0.153254	 1
1462089986.462	 9	 0.009826	 0.010781	 -0.004093	 2.321801	 -1.396436	 -0.489826	 -0.078196	 0.743689	 -0.646023	 0.153186	 1
1462089986.472	 9	 0.009862	 0.023305	 -0.006059	 2.322382	 -1.396552	 -0.489470	 -0.078166	 0.743691	 -0.646054	 0.153061	 1
1462089986.482	 9	 0.010938	 0.025429	 -0.006049	 2.322961	 -1.396634	 -0.489156	 -0.078113	 0.743703	 -0.646078	 0.152930	 1
1462089986.492	 9	 0.013050	 0.020112	 -0.005050	 2.323161	 -1.396646	 -0.489182	 -0.078042	 0.743716	 -0.646092	 0.152844	 1
1462089986.502	 9	 0.009820	 0.012691	 -0.002959	 2.323105	 -1.396652	 -0.489386	 -0.077986	 0.743718	 -0.646107	 0.152798	 1
1462089986.512	 9	 0.008773	 0.010621	 0.004492	 2.322717	 -1.396702	 -0.489893	 -0.077933	 0.743696	 -0.646146	 0.152768	 1
1462089986.522	 9	 0.005589	 0.012773	 0.006673	 2.322316	 -1.396554	 -0.490423	 -0.077833	 0.743723	 -0.646125	 0.152777	 1
1462089986.532	 9	 0.002381	 0.010663	 0.007747	 2.322060	 -1.396499	 -0.490799	 -0.077764	 0.743731	 -0.646127	 0.152762	 1
1462089986.542	 9	 0.001278	 0.003221	 0.007686	 2.322172	 -1.396495	 -0.490745	 -0.077747	 0.743739	 -0.646126	 0.152739	 1
1462089986.552	 9	 0.005528	 0.000009	 0.006552	 2.321915	 -1.396570	 -0.491013	 -0.077747	 0.743711	 -0.646159	 0.152732	 1
1462089986.562	 9	 0.009800	 0.001061	 0.006523	 2.321871	 -1.396617	 -0.491086	 -0.077744	 0.743699	 -0.646178	 0.152715	 1
1462089986.572	 9	 0.010894	 0.008488	 0.004450	 2.321711	 -1.396682	 -0.491325	 -0.077721	 0.743680	 -0.646210	 0.152684	 1
1462089986.582	 9	 0.010913	 0.012743	 0.004489	 2.321709	 -1.396722	 -0.491466	 -0.077678	 0.743675	 -0.646233	 0.152631	 1
1462089986.592	 9	 0.008809	 0.015971	 0.008800	 2.321682	 -1.396672	 -0.491660	 -0.077604	 0.743693	 -0.646232	 0.152588	 1
1462089986.602	 9	 0.007740	 0.014918	 0.009867	 2.321235	 -1.396535	 -0.492264	 -0.077494	 0.743716	 -0.646218	 0.152588	 1
1462089986.612	 9	 0.002405	 0.011774	 0.014147	 2.320941	 -1.396380	 -0.492701	 -0.077392	 0.743749	 -0.646192	 0.152589	 1
1462089986.622	 9	 0.005574	 0.004327	 0.015116	 2.320665	 -1.396275	 -0.493059	 -0.077325	 0.743768	 -0.646176	 0.152598	 1
1462089986.632	 9	 0.006627	 0.003245	 0.012964	 2.320308	 -1.396223	 -0.493471	 -0.077276	 0.743770	 -0.646177	 0.152608	 1
1462089986.642	 9	 0.008770	 0.005366	 0.012965	 2.320108	 -1.396157	 -0.493746	 -0.077224	 0.743782	 -0.646170	 0.152608	 1
1462089986.652	 9	 0.009865	 0.014905	 0.008779	 2.320092	 -1.396209	 -0.493911	 -0.077179	 0.743774	 -0.646199	 0.152549	 1
1462089986.662	 9	 0.009893	 0.025503	 0.003547	 2.320507	 -1.396292	 -0.493741	 -0.077126	 0.743778	 -0.646227	 0.152433	 1
1462089986.672	 9	 0.009953	 0.038267	 0.003664	 2.320558	 -1.396358	 -0.494063	 -0.077005	 0.743778	 -0.646274	 0.152296	 1
1462089986.682	 9	 0.007842	 0.038312	 0.009013	 2.319694	 -1.396350	 -0.495315	 -0.076816	 0.743763	 -0.646334	 0.152214	 1
1462089986.692	 9	 0.009949	 0.028763	 0.013171	 2.318179	 -1.396335	 -0.497147	 -0.076621	 0.743721	 -0.646410	 0.152188	 1
1462089986.702	 9	 0.014156	 0.011762	 0.017240	 2.316242	 -1.396339	 -0.499250	 -0.076466	 0.743653	 -0.646497	 0.152228	 1
1462089986.712	 9	 0.020484	 -0.006325	 0.019149	 2.313609	 -1.396462	 -0.501863	 -0.076373	 0.743522	 -0.646634	 0.152336	 1
1462089986.722	 9	 0.032194	 -0.012742	 0.018986	 2.311104	 -1.396625	 -0.504271	 -0.076325	 0.743383	 -0.646772	 0.152454	 1
1462089986.732	 9	 0.040748	 -0.004458	 0.016919	 2.308804	 -1.396844	 -0.506537	 -0.076275	 0.743241	 -0.646924	 0.152530	 1
1462089986.742	 9	 0.041884	 0.010430	 0.017047	 2.307015	 -1.396941	 -0.508440	 -0.076169	 0.743153	 -0.647031	 0.152558	 1
1462089986.752	 9	 0.035539	 0.021102	 0.019332	 2.305903	 -1.397041	 -0.509786	 -0.076051	 0.743094	 -0.647122	 0.152514	 1
1462089986.762	 9	 0.028113	 0.031754	 0.018428	 2.305397	 -1.397074	 -0.510631	 -0.075908	 0.743080	 -0.647177	 0.152422	 1
1462089986.772	 9	 0.017414	 0.033852	 0.010013	 2.306204	 -1.397081	 -0.510215	 -0.075803	 0.743124	 -0.647178	 0.152255	 1
1462089986.782	 9	 0.006684	 0.026400	 0.004706	 2.307078	 -1.397097	 -0.509660	 -0.075730	 0.743166	 -0.647174	 0.152106	 1
1462089986.792	 9	 -0.003010	 0.010451	 0.001444	 2.307846	 -1.397096	 -0.509046	 -0.075709	 0.743201	 -0.647156	 0.152020	 1
1462089986.802	 9	 -0.004155	 -0.006557	 0.002360	 2.308427	 -1.397064	 -0.508447	 -0.075737	 0.743230	 -0.647122	 0.152005	 1
1462089986.812	 9	 -0.004186	 -0.015051	 0.004413	 2.308378	 -1.397050	 -0.508365	 -0.075780	 0.743227	 -0.647110	 0.152053	 1
1462089986.822	 9	 -0.002072	 -0.020368	 0.005411	 2.307661	 -1.397031	 -0.508888	 -0.075813	 0.743197	 -0.647117	 0.152154	 1
1462089986.832	 9	 0.002192	 -0.022501	 0.006420	 2.306452	 -1.397089	 -0.509867	 -0.075854	 0.743128	 -0.647163	 0.152274	 1
1462089986.842	 9	 0.007512	 -0.023604	 0.003165	 2.305318	 -1.397252	 -0.510754	 -0.075928	 0.743035	 -0.647237	 0.152373	 1
1462089986.852	 9	 0.009687	 -0.010885	 -0.002065	 2.304703	 -1.397392	 -0.511216	 -0.075986	 0.742971	 -0.647292	 0.152422	 1
1462089986.862	 9	 0.008670	 -0.000245	 -0.001957	 2.304159	 -1.397461	 -0.511739	 -0.075984	 0.742933	 -0.647332	 0.152440	 1
1462089986.872	 9	 0.004441	 0.006165	 0.000272	 2.303647	 -1.397478	 -0.512288	 -0.075949	 0.742911	 -0.647360	 0.152449	 1
1462089986.882	 9	 0.006615	 0.013612	 0.001389	 2.303311	 -1.397451	 -0.512745	 -0.075882	 0.742909	 -0.647374	 0.152431	 1
1462089986.892	 9	 0.010862	 0.013447	 0.003599	 2.302746	 -1.397441	 -0.513456	 -0.075799	 0.742895	 -0.647404	 0.152413	 1
1462089986.902	 9	 0.010813	 0.004922	 0.001389	 2.302178	 -1.397529	 -0.514112	 -0.075759	 0.742855	 -0.647459	 0.152393	 1
1462089986.912	 9	 0.005441	 -0.004620	 0.003478	 2.301633	 -1.397582	 -0.514642	 -0.075751	 0.742821	 -0.647495	 0.152412	 1
1462089986.922	 9	 0.000066	 -0.011001	 0.001334	 2.301582	 -1.397548	 -0.514597	 -0.075776	 0.742824	 -0.647479	 0.152453	 1
1462089986.932	 9	 0.000082	 -0.006755	 0.000308	 2.301374	 -1.397556	 -0.514726	 -0.075797	 0.742811	 -0.647483	 0.152487	 1
1462089986.942	 9	 0.001178	 -0.001432	 0.001414	 2.301151	 -1.397516	 -0.514921	 -0.075788	 0.742811	 -0.647478	 0.152515	 1
1462089986.952	 9	 0.005476	 0.002825	 0.003548	 2.300575	 -1.397489	 -0.515515	 -0.075748	 0.742796	 -0.647493	 0.152543	 1
1462089986.962	 9	 0.009762	 0.003899	 0.006719	 2.299712	 -1.397461	 -0.516422	 -0.075684	 0.742771	 -0.647521	 0.152576	 1
1462089986.972	 9	 0.008693	 0.001790	 0.008841	 2.299022	 -1.397412	 -0.517151	 -0.075626	 0.742758	 -0.647535	 0.152607	 1
1462089986.982	 9	 0.007592	 -0.002484	 0.005614	 2.298465	 -1.397374	 -0.517703	 -0.075592	 0.742746	 -0.647545	 0.152643	 1
1462089986.992	 9	 0.004391	 -0.001419	 0.004587	 2.298050	 -1.397278	 -0.518107	 -0.075555	 0.742753	 -0.647531	 0.152687	 1
1462089987.002	 9	 0.001194	 0.000710	 0.003569	 2.298059	 -1.397166	 -0.518106	 -0.075527	 0.742781	 -0.647497	 0.152708	 1
1462089987.012	 9	 0.002281	 0.006018	 0.002543	 2.298363	 -1.397090	 -0.517856	 -0.075504	 0.742813	 -0.647466	 0.152693	 1
1462089987.022	 9	 0.002317	 0.015576	 0.000501	 2.298792	 -1.397006	 -0.517570	 -0.075452	 0.742855	 -0.647435	 0.152644	 1
1462089987.032	 9	 0.003372	 0.021780	 -0.000369	 2.299192	 -1.396947	 -0.517374	 -0.075382	 0.742893	 -0.647417	 0.152572	 1
1462089987.042	 9	 0.000184	 0.023925	 0.000745	 2.299600	 -1.396884	 -0.517201	 -0.075300	 0.742933	 -0.647400	 0.152490	 1
1462089987.052	 9	 -0.006228	 0.024985	 -0.002387	 2.300616	 -1.396811	 -0.516432	 -0.075240	 0.742999	 -0.647358	 0.152377	 1
1462089987.062	 9	 -0.010513	 0.020750	 -0.001323	 2.301565	 -1.396686	 -0.515708	 -0.075174	 0.743075	 -0.647300	 0.152286	 1
1462089987.072	 9	 -0.013734	 0.017561	 -0.002389	 2.302200	 -1.396562	 -0.515251	 -0.075111	 0.743136	 -0.647252	 0.152225	 1
1462089987.082	 9	 -0.014824	 0.010142	 0.000749	 2.302459	 -1.396457	 -0.515098	 -0.075060	 0.743176	 -0.647218	 0.152201	 1
1462089987.092	 9	 -0.010558	 0.004849	 0.005992	 2.302108	 -1.396331	 -0.515492	 -0.074999	 0.743194	 -0.647196	 0.152231	 1
1462089987.102	 9	 -0.005228	 0.001657	 0.008048	 2.301608	 -1.396268	 -0.515999	 -0.074957	 0.743191	 -0.647197	 0.152266	 1
1462089987.112	 9	 0.000147	 0.008038	 0.010192	 2.301012	 -1.396254	 -0.516660	 -0.074902	 0.743174	 -0.647221	 0.152277	 1
1462089987.122	 9	 0.004468	 0.020774	 0.008141	 2.300731	 -1.396248	 -0.517119	 -0.074821	 0.743171	 -0.647243	 0.152234	 1
1462089987.132	 9	 0.000229	 0.026113	 0.009293	 2.300736	 -1.396229	 -0.517385	 -0.074716	 0.743186	 -0.647258	 0.152150	 1
1462089987.142	 9	 -0.003019	 0.019709	 0.004998	 2.300831	 -1.396205	 -0.517511	 -0.074633	 0.743204	 -0.647264	 0.152079	 1
1462089987.152	 9	 -0.003063	 0.006976	 0.009143	 2.300675	 -1.396180	 -0.517765	 -0.074584	 0.743207	 -0.647269	 0.152060	 1
1462089987.162	 9	 0.002219	 -0.003684	 0.007932	 2.299987	 -1.396177	 -0.518442	 -0.074554	 0.743181	 -0.647294	 0.152098	 1
1462089987.172	 9	 0.007534	 -0.009011	 0.008902	 2.299086	 -1.396175	 -0.519274	 -0.074536	 0.743144	 -0.647324	 0.152163	 1
1462089987.182	 9	 0.010730	 -0.011141	 0.009921	 2.297710	 -1.396192	 -0.520548	 -0.074512	 0.743083	 -0.647374	 0.152259	 1
1462089987.192	 9	 0.008532	 -0.012407	 0.008929	 2.296586	 -1.396224	 -0.521562	 -0.074506	 0.743027	 -0.647419	 0.152341	 1
1462089987.202	 9	 0.007454	 -0.015588	 0.009975	 2.295484	 -1.396206	 -0.522524	 -0.074501	 0.742983	 -0.647446	 0.152443	 1
1462089987.212	 9	 0.011690	 -0.025151	 0.013047	 2.293979	 -1.396170	 -0.523807	 -0.074504	 0.742925	 -0.647477	 0.152595	 1
1462089987.222	 9	 0.011701	 -0.021967	 0.012011	 2.292717	 -1.396102	 -0.524846	 -0.074511	 0.742884	 -0.647489	 0.152742	 1
1462089987.232	 9	 0.009637	 -0.007070	 0.012168	 2.291845	 -1.396051	 -0.525622	 -0.074493	 0.742858	 -0.647500	 0.152826	 1
1462089987.242	 9	 0.005436	 0.009939	 0.009166	 2.291671	 -1.395971	 -0.525873	 -0.074438	 0.742874	 -0.647489	 0.152826	 1
1462089987.252	 9	 0.004374	 0.013117	 0.007074	 2.291324	 -1.395861	 -0.526355	 -0.074347	 0.742892	 -0.647479	 0.152823	 1
1462089987.262	 9	 0.004372	 0.011005	 0.009186	 2.290968	 -1.395765	 -0.526830	 -0.074263	 0.742906	 -0.647473	 0.152823	 1
1462089987.272	 9	 0.002210	 0.008854	 0.004922	 2.290839	 -1.395680	 -0.527062	 -0.074200	 0.742925	 -0.647460	 0.152815	 1
1462089987.282	 9	 -0.002081	 0.007772	 0.000686	 2.291117	 -1.395654	 -0.526865	 -0.074176	 0.742945	 -0.647448	 0.152780	 1
1462089987.292	 9	 -0.005287	 0.007774	 -0.000352	 2.291564	 -1.395628	 -0.526495	 -0.074163	 0.742972	 -0.647428	 0.152740	 1
1462089987.302	 9	 -0.007401	 0.012035	 -0.000294	 2.292158	 -1.395583	 -0.526003	 -0.074143	 0.743010	 -0.647399	 0.152688	 1
1462089987.312	 9	 -0.007381	 0.016289	 -0.000255	 2.292592	 -1.395525	 -0.525728	 -0.074092	 0.743046	 -0.647377	 0.152629	 1
1462089987.322	 9	 -0.007401	 0.012034	 -0.000294	 2.292622	 -1.395503	 -0.525822	 -0.074042	 0.743058	 -0.647378	 0.152592	 1
1462089987.332	 9	 -0.002126	 -0.001802	 0.000597	 2.292325	 -1.395518	 -0.526125	 -0.074030	 0.743042	 -0.647395	 0.152601	 1
1462089987.342	 9	 -0.000032	 -0.011374	 0.001556	 2.292054	 -1.395549	 -0.526296	 -0.074061	 0.743021	 -0.647408	 0.152640	 1
1462089987.352	 9	 -0.000042	 -0.013501	 0.001537	 2.291419	 -1.395549	 -0.526795	 -0.074081	 0.742991	 -0.647422	 0.152714	 1
1462089987.362	 9	 -0.001059	 -0.003917	 0.002700	 2.291377	 -1.395515	 -0.526773	 -0.074095	 0.742995	 -0.647408	 0.152744	 1
1462089987.372	 9	 -0.004314	 0.002237	 0.001919	 2.291966	 -1.395436	 -0.526205	 -0.074097	 0.743038	 -0.647363	 0.152727	 1
1462089987.382	 9	 -0.005382	 0.002240	 0.001928	 2.292533	 -1.395324	 -0.525670	 -0.074087	 0.743088	 -0.647309	 0.152713	 1
1462089987.392	 9	 -0.004336	 -0.003074	 0.002935	 2.292723	 -1.395241	 -0.525459	 -0.074084	 0.743115	 -0.647275	 0.152729	 1
1462089987.402	 9	 -0.003262	 -0.004117	 0.006114	 2.292595	 -1.395142	 -0.525547	 -0.074071	 0.743133	 -0.647247	 0.152770	 1
1462089987.412	 9	 -0.001119	 0.001164	 0.001882	 2.292538	 -1.395084	 -0.525605	 -0.074055	 0.743144	 -0.647232	 0.152785	 1
1462089987.422	 9	 -0.000044	 0.001176	 0.004004	 2.292549	 -1.394995	 -0.525610	 -0.074029	 0.743167	 -0.647206	 0.152799	 1
1462089987.432	 9	 0.001049	 0.003331	 0.008278	 2.292297	 -1.394869	 -0.525885	 -0.073980	 0.743188	 -0.647179	 0.152831	 1
1462089987.442	 9	 0.004263	 0.008616	 0.005103	 2.291854	 -1.394759	 -0.526401	 -0.073906	 0.743200	 -0.647169	 0.152853	 1
1462089987.452	 9	 0.002137	 0.009694	 0.006198	 2.291592	 -1.394665	 -0.526755	 -0.073838	 0.743216	 -0.647158	 0.152856	 1
1462089987.462	 9	 -0.000002	 0.009693	 0.005151	 2.291596	 -1.394593	 -0.526848	 -0.073785	 0.743237	 -0.647143	 0.152840	 1
1462089987.472	 9	 -0.001064	 0.011815	 0.004114	 2.291880	 -1.394504	 -0.526688	 -0.073732	 0.743274	 -0.647115	 0.152806	 1
1462089987.482	 9	 -0.002115	 0.016065	 0.003097	 2.292154	 -1.394429	 -0.526565	 -0.073672	 0.743309	 -0.647093	 0.152760	 1
1462089987.492	 9	 -0.004231	 0.018215	 0.005267	 2.292326	 -1.394353	 -0.526565	 -0.073599	 0.743340	 -0.647076	 0.152713	 1
1462089987.502	 9	 0.000051	 0.019281	 0.007372	 2.292147	 -1.394228	 -0.526942	 -0.073488	 0.743371	 -0.647060	 0.152685	 1
1462089987.512	 9	 -0.000018	 0.018058	 0.009625	 2.291733	 -1.394096	 -0.527549	 -0.073366	 0.743393	 -0.647051	 0.152671	 1
1462089987.522	 9	 0.001044	 0.016991	 0.009607	 2.291315	 -1.393993	 -0.528140	 -0.073258	 0.743408	 -0.647050	 0.152658	 1
1462089987.532	 9	 -0.001085	 0.018061	 0.009636	 2.291241	 -1.393883	 -0.528395	 -0.073162	 0.743438	 -0.647034	 0.152627	 1
1462089987.542	 9	 -0.001076	 0.020188	 0.009655	 2.291254	 -1.393790	 -0.528585	 -0.073066	 0.743468	 -0.647021	 0.152581	 1
1462089987.552	 9	 0.000005	 0.021264	 0.011787	 2.291055	 -1.393753	 -0.528998	 -0.072969	 0.743477	 -0.647034	 0.152529	 1
1462089987.562	 9	 0.001063	 0.020190	 0.010702	 2.290843	 -1.393722	 -0.529425	 -0.072871	 0.743484	 -0.647049	 0.152477	 1
1462089987.572	 9	 0.003153	 0.011666	 0.009538	 2.290617	 -1.393702	 -0.529798	 -0.072801	 0.743485	 -0.647063	 0.152445	 1
1462089987.582	 9	 0.003124	 0.007396	 0.007366	 2.290403	 -1.393727	 -0.530105	 -0.072762	 0.743474	 -0.647086	 0.152419	 1
1462089987.592	 9	 0.002031	 0.006297	 0.002036	 2.290632	 -1.393800	 -0.529955	 -0.072761	 0.743468	 -0.647105	 0.152367	 1
1462089987.602	 9	 0.000963	 0.007356	 0.000988	 2.291413	 -1.393813	 -0.529262	 -0.072769	 0.743499	 -0.647085	 0.152298	 1
1462089987.612	 9	 0.000983	 0.010555	 0.002083	 2.291559	 -1.393782	 -0.529213	 -0.072732	 0.743516	 -0.647077	 0.152266	 1
1462089987.622	 9	 0.002074	 0.014814	 0.003179	 2.291539	 -1.393769	 -0.529373	 -0.072676	 0.743524	 -0.647084	 0.152225	 1
1462089987.632	 9	 0.002088	 0.016949	 0.004265	 2.291447	 -1.393747	 -0.529628	 -0.072607	 0.743531	 -0.647094	 0.152182	 1
1462089987.642	 9	 0.004223	 0.017998	 0.003190	 2.291416	 -1.393735	 -0.529839	 -0.072535	 0.743539	 -0.647105	 0.152127	 1
1462089987.652	 9	 0.003170	 0.021193	 0.003229	 2.291692	 -1.393707	 -0.529774	 -0.072464	 0.743565	 -0.647102	 0.152052	 1
1462089987.662	 9	 -0.001098	 0.022261	 0.002211	 2.292035	 -1.393629	 -0.529658	 -0.072378	 0.743605	 -0.647082	 0.151979	 1
1462089987.672	 9	 -0.003327	 0.019957	 0.003403	 2.292138	 -1.393528	 -0.529754	 -0.072286	 0.743641	 -0.647062	 0.151932	 1
1462089987.682	 9	 -0.005482	 0.014653	 0.004439	 2.291997	 -1.393430	 -0.530050	 -0.072199	 0.743665	 -0.647050	 0.151910	 1
1462089987.692	 9	 -0.008671	 0.014685	 0.007665	 2.291790	 -1.393298	 -0.530396	 -0.072107	 0.743693	 -0.647029	 0.151903	 1
1462089987.702	 9	 -0.005465	 0.014683	 0.008703	 2.291491	 -1.393194	 -0.530838	 -0.072015	 0.743711	 -0.647020	 0.151895	 1
1462089987.712	 9	 -0.004411	 0.012545	 0.007608	 2.290970	 -1.393144	 -0.531487	 -0.071931	 0.743707	 -0.647036	 0.151889	 1
1462089987.722	 9	 -0.003389	 0.002968	 0.007511	 2.290504	 -1.393106	 -0.532010	 -0.071879	 0.743700	 -0.647047	 0.151902	 1
1462089987.732	 9	 -0.000193	 -0.000217	 0.009585	 2.289655	 -1.393084	 -0.532853	 -0.071835	 0.743671	 -0.647074	 0.151950	 1
1462089987.742	 9	 0.004101	 0.005088	 0.009596	 2.289302	 -1.393063	 -0.533250	 -0.071797	 0.743663	 -0.647085	 0.151957	 1
1462089987.752	 9	 0.003046	 0.010387	 0.006457	 2.289203	 -1.393125	 -0.533453	 -0.071768	 0.743648	 -0.647116	 0.151915	 1
1462089987.762	 9	 0.001941	 0.005048	 0.003219	 2.289163	 -1.393168	 -0.533566	 -0.071749	 0.743639	 -0.647136	 0.151884	 1
1462089987.772	 9	 0.001907	 -0.000285	 0.001037	 2.289234	 -1.393207	 -0.533512	 -0.071755	 0.743633	 -0.647146	 0.151866	 1
1462089987.782	 9	 0.002965	 -0.001360	 -0.000048	 2.289106	 -1.393226	 -0.533633	 -0.071755	 0.743623	 -0.647156	 0.151870	 1
1462089987.792	 9	 0.004056	 0.001843	 0.002105	 2.288808	 -1.393208	 -0.533947	 -0.071731	 0.743616	 -0.647164	 0.151883	 1
1462089987.802	 9	 0.006184	 -0.000283	 0.003132	 2.288763	 -1.393211	 -0.534010	 -0.071722	 0.743614	 -0.647168	 0.151879	 1
1462089987.812	 9	 0.006187	 -0.000275	 0.004197	 2.288979	 -1.393169	 -0.533807	 -0.071719	 0.743633	 -0.647148	 0.151874	 1
1462089987.822	 9	 0.002946	 -0.006663	 0.002034	 2.289105	 -1.393161	 -0.533641	 -0.071738	 0.743639	 -0.647137	 0.151882	 1
1462089987.832	 9	 -0.002410	 -0.009846	 0.000985	 2.289553	 -1.393115	 -0.533107	 -0.071781	 0.743665	 -0.647099	 0.151898	 1
1462089987.842	 9	 -0.004625	 -0.005786	 -0.000983	 2.290102	 -1.393028	 -0.532489	 -0.071813	 0.743705	 -0.647046	 0.151913	 1
1462089987.852	 9	 -0.005667	 -0.000465	 -0.000924	 2.290560	 -1.392932	 -0.532015	 -0.071819	 0.743746	 -0.646997	 0.151917	 1
1462089987.862	 9	 -0.000308	 0.002726	 0.001191	 2.290421	 -1.392808	 -0.532165	 -0.071779	 0.743771	 -0.646966	 0.151948	 1
1462089987.872	 9	 -0.002444	 0.000620	 0.003323	 2.290096	 -1.392679	 -0.532502	 -0.071730	 0.743789	 -0.646941	 0.151988	 1
1462089987.882	 9	 0.000755	 -0.001502	 0.005408	 2.289474	 -1.392545	 -0.533106	 -0.071675	 0.743796	 -0.646924	 0.152053	 1
1462089987.892	 9	 -0.000311	 -0.000443	 0.004362	 2.289057	 -1.392447	 -0.533513	 -0.071637	 0.743802	 -0.646910	 0.152098	 1
1462089987.902	 9	 -0.003467	 0.009140	 0.004479	 2.289130	 -1.392328	 -0.533507	 -0.071588	 0.743836	 -0.646877	 0.152099	 1
1462089987.912	 9	 -0.005586	 0.013393	 0.003472	 2.289478	 -1.392193	 -0.533283	 -0.071527	 0.743887	 -0.646831	 0.152072	 1
1462089987.922	 9	 -0.007720	 0.013399	 0.003491	 2.289593	 -1.392117	 -0.533301	 -0.071466	 0.743914	 -0.646813	 0.152041	 1
1462089987.932	 9	 -0.007726	 0.011280	 0.004536	 2.289618	 -1.392109	 -0.533392	 -0.071422	 0.743921	 -0.646819	 0.152004	 1
1462089987.942	 9	 -0.005631	 0.003820	 0.003383	 2.289666	 -1.392110	 -0.533411	 -0.071400	 0.743925	 -0.646823	 0.151979	 1
1462089987.952	 9	 -0.001407	 -0.005766	 0.003256	 2.289433	 -1.392164	 -0.533604	 -0.071416	 0.743902	 -0.646845	 0.151991	 1
1462089987.962	 9	 0.000683	 -0.014290	 0.002092	 2.289105	 -1.392223	 -0.533806	 -0.071460	 0.743870	 -0.646867	 0.152035	 1
1462089987.972	 9	 0.001706	 -0.021754	 -0.000118	 2.289223	 -1.392292	 -0.533506	 -0.071550	 0.743851	 -0.646869	 0.152073	 1
1462089987.982	 9	 0.000561	 -0.035602	 -0.003436	 2.289178	 -1.392436	 -0.533240	 -0.071696	 0.743804	 -0.646891	 0.152144	 1
1462089987.992	 9	 0.000396	 -0.050679	 -0.006694	 2.289098	 -1.392564	 -0.532841	 -0.071900	 0.743753	 -0.646896	 0.152275	 1
1462089988.002	 9	 -0.001714	 -0.046410	 -0.005571	 2.289146	 -1.392622	 -0.532312	 -0.072094	 0.743724	 -0.646875	 0.152415	 1
1462089988.012	 9	 -0.001705	 -0.045339	 -0.004495	 2.288680	 -1.392612	 -0.532308	 -0.072245	 0.743690	 -0.646855	 0.152592	 1
1462089988.022	 9	 -0.000609	 -0.040016	 -0.003389	 2.288501	 -1.392600	 -0.532074	 -0.072387	 0.743671	 -0.646827	 0.152737	 1
1462089988.032	 9	 -0.001669	 -0.036837	 -0.005481	 2.288210	 -1.392611	 -0.531985	 -0.072517	 0.743643	 -0.646813	 0.152872	 1
1462089988.042	 9	 -0.001677	 -0.036853	 -0.007613	 2.287808	 -1.392662	 -0.531998	 -0.072654	 0.743600	 -0.646815	 0.153006	 1
1462089988.052	 9	 -0.002707	 -0.032564	 -0.003301	 2.287775	 -1.392667	 -0.531683	 -0.072782	 0.743585	 -0.646791	 0.153119	 1
1462089988.062	 9	 -0.005921	 -0.031522	 -0.007526	 2.287810	 -1.392689	 -0.531305	 -0.072916	 0.743569	 -0.646770	 0.153223	 1
1462089988.072	 9	 -0.009099	 -0.024090	 -0.010626	 2.288186	 -1.392704	 -0.530670	 -0.073035	 0.743571	 -0.646740	 0.153285	 1
1462089988.082	 9	 -0.009080	 -0.020891	 -0.009530	 2.288291	 -1.392661	 -0.530343	 -0.073112	 0.743577	 -0.646705	 0.153361	 1
1462089988.092	 9	 -0.011194	 -0.016631	 -0.009471	 2.288454	 -1.392585	 -0.529994	 -0.073172	 0.743595	 -0.646661	 0.153431	 1
1462089988.102	 9	 -0.006911	 -0.015565	 -0.007366	 2.288243	 -1.392532	 -0.530028	 -0.073215	 0.743593	 -0.646640	 0.153510	 1
1462089988.112	 9	 -0.001572	 -0.016629	 -0.005290	 2.287720	 -1.392520	 -0.530368	 -0.073255	 0.743568	 -0.646643	 0.153597	 1
1462089988.122	 9	 0.001640	 -0.014511	 -0.005297	 2.287185	 -1.392534	 -0.530748	 -0.073290	 0.743538	 -0.646657	 0.153670	 1
1462089988.132	 9	 0.003812	 -0.009176	 -0.002069	 2.286997	 -1.392526	 -0.530830	 -0.073319	 0.743528	 -0.646654	 0.153715	 1
1462089988.142	 9	 0.001712	 -0.002780	 -0.000925	 2.287246	 -1.392466	 -0.530553	 -0.073327	 0.743552	 -0.646624	 0.153725	 1
1462089988.152	 9	 -0.003614	 0.000419	 -0.001914	 2.287628	 -1.392388	 -0.530176	 -0.073326	 0.743586	 -0.646586	 0.153722	 1
1462089988.162	 9	 -0.007903	 -0.002767	 -0.002973	 2.288424	 -1.392325	 -0.529360	 -0.073357	 0.743632	 -0.646533	 0.153704	 1
1462089988.172	 9	 -0.010128	 -0.003997	 -0.002899	 2.289385	 -1.392248	 -0.528354	 -0.073403	 0.743688	 -0.646467	 0.153689	 1
1462089988.182	 9	 -0.012261	 -0.001879	 -0.004993	 2.290593	 -1.392197	 -0.527126	 -0.073458	 0.743748	 -0.646402	 0.153648	 1
1462089988.192	 9	 -0.011195	 -0.001882	 -0.005003	 2.291738	 -1.392180	 -0.525970	 -0.073514	 0.743797	 -0.646350	 0.153599	 1
1462089988.202	 9	 -0.009081	 -0.006143	 -0.005061	 2.292589	 -1.392162	 -0.525057	 -0.073574	 0.743834	 -0.646306	 0.153581	 1
1462089988.212	 9	 -0.009107	 -0.012517	 -0.004055	 2.293091	 -1.392130	 -0.524448	 -0.073631	 0.743857	 -0.646268	 0.153598	 1
1462089988.222	 9	 -0.010189	 -0.014649	 -0.005131	 2.293759	 -1.392089	 -0.523627	 -0.073711	 0.743888	 -0.646217	 0.153624	 1
1462089988.232	 9	 -0.010214	 -0.019967	 -0.005180	 2.293968	 -1.392035	 -0.523206	 -0.073788	 0.743902	 -0.646176	 0.153694	 1
1462089988.242	 9	 -0.007014	 -0.021033	 -0.004152	 2.294111	 -1.391969	 -0.522833	 -0.073866	 0.743915	 -0.646133	 0.153776	 1
1462089988.252	 9	 -0.008045	 -0.012528	 -0.005129	 2.294573	 -1.391901	 -0.522213	 -0.073931	 0.743944	 -0.646082	 0.153819	 1
1462089988.262	 9	 -0.008020	 -0.007210	 -0.005079	 2.294868	 -1.391833	 -0.521815	 -0.073969	 0.743969	 -0.646041	 0.153853	 1
1462089988.272	 9	 -0.004814	 -0.006156	 -0.005097	 2.295279	 -1.391752	 -0.521326	 -0.073999	 0.744002	 -0.645994	 0.153875	 1
1462089988.282	 9	 -0.005874	 -0.007194	 -0.001899	 2.295243	 -1.391642	 -0.521280	 -0.074003	 0.744024	 -0.645956	 0.153927	 1
1462089988.292	 9	 -0.003761	 -0.012511	 -0.000901	 2.295249	 -1.391536	 -0.521170	 -0.074018	 0.744046	 -0.645915	 0.153984	 1
1462089988.302	 9	 -0.005881	 -0.009313	 -0.000852	 2.295321	 -1.391414	 -0.520994	 -0.074033	 0.744074	 -0.645867	 0.154041	 1
1462089988.312	 9	 -0.002674	 -0.007203	 -0.001925	 2.295417	 -1.391326	 -0.520812	 -0.074049	 0.744096	 -0.645830	 0.154083	 1
1462089988.322	 9	 -0.003792	 -0.004083	 -0.001848	 2.295665	 -1.391309	 -0.520511	 -0.074077	 0.744108	 -0.645811	 0.154091	 1
1462089988.332	 9	 -0.001652	 -0.000913	 -0.003969	 2.296176	 -1.391293	 -0.519977	 -0.074108	 0.744132	 -0.645784	 0.154077	 1
1462089988.342	 9	 -0.004827	 0.005470	 -0.004948	 2.296886	 -1.391324	 -0.519306	 -0.074135	 0.744154	 -0.645768	 0.154023	 1
1462089988.352	 9	 -0.006961	 0.006533	 -0.005986	 2.297785	 -1.391323	 -0.518471	 -0.074155	 0.744193	 -0.645736	 0.153958	 1
1462089988.362	 9	 -0.003805	 -0.001994	 -0.007158	 2.298149	 -1.391324	 -0.518099	 -0.074176	 0.744206	 -0.645722	 0.153942	 1
1462089988.372	 9	 -0.004822	 0.007590	 -0.005994	 2.298776	 -1.391343	 -0.517523	 -0.074192	 0.744229	 -0.645706	 0.153891	 1
1462089988.382	 9	 -0.005884	 0.009713	 -0.007031	 2.299449	 -1.391337	 -0.516937	 -0.074192	 0.744260	 -0.645684	 0.153831	 1
1462089988.392	 9	 -0.006941	 0.011843	 -0.007002	 2.300209	 -1.391346	 -0.516277	 -0.074194	 0.744292	 -0.645665	 0.153759	 1
1462089988.402	 9	 -0.006925	 0.016090	 -0.008029	 2.301034	 -1.391368	 -0.515590	 -0.074188	 0.744325	 -0.645649	 0.153669	 1
1462089988.412	 9	 -0.006923	 0.013986	 -0.004851	 2.301643	 -1.391384	 -0.515112	 -0.074173	 0.744350	 -0.645640	 0.153594	 1
1462089988.422	 9	 -0.006938	 0.010795	 -0.004881	 2.301995	 -1.391395	 -0.514857	 -0.074157	 0.744365	 -0.645637	 0.153543	 1
1462089988.432	 9	 -0.006949	 0.006555	 -0.002788	 2.302192	 -1.391343	 -0.514727	 -0.074130	 0.744387	 -0.645618	 0.153523	 1
1462089988.442	 9	 -0.005872	 0.008679	 -0.002778	 2.302837	 -1.391310	 -0.514161	 -0.074125	 0.744424	 -0.645589	 0.153472	 1
1462089988.452	 9	 -0.006932	 0.012914	 -0.005927	 2.303720	 -1.391313	 -0.513395	 -0.074126	 0.744463	 -0.645563	 0.153390	 1
1462089988.462	 9	 -0.008008	 0.012902	 -0.008049	 2.304707	 -1.391321	 -0.512537	 -0.074129	 0.744505	 -0.645537	 0.153298	 1
1462089988.472	 9	 -0.010170	 0.010750	 -0.012314	 2.305816	 -1.391365	 -0.511530	 -0.074155	 0.744542	 -0.645514	 0.153201	 1
1462089988.482	 9	 -0.008126	 0.006318	 -0.013411	 2.306882	 -1.391436	 -0.510533	 -0.074198	 0.744569	 -0.645499	 0.153111	 1
1462089988.492	 9	 -0.007069	 0.004188	 -0.013440	 2.307609	 -1.391474	 -0.509843	 -0.074229	 0.744590	 -0.645485	 0.153054	 1
1462089988.502	 9	 -0.005999	 0.003136	 -0.011328	 2.308304	 -1.391521	 -0.509172	 -0.074265	 0.744606	 -0.645474	 0.153002	 1
1462089988.512	 9	 -0.003868	 -0.001094	 -0.007123	 2.308550	 -1.391551	 -0.508915	 -0.074288	 0.744608	 -0.645472	 0.152987	 1
1462089988.522	 9	 -0.000679	 -0.007455	 -0.002946	 2.308096	 -1.391541	 -0.509301	 -0.074289	 0.744590	 -0.645482	 0.153033	 1
1462089988.532	 9	 0.001463	 -0.009558	 0.001280	 2.307191	 -1.391497	 -0.510100	 -0.074274	 0.744561	 -0.645496	 0.153122	 1
1462089988.542	 9	 0.004660	 -0.009575	 0.000187	 2.306654	 -1.391514	 -0.510540	 -0.074287	 0.744533	 -0.645515	 0.153176	 1
1462089988.552	 9	 0.005749	 -0.002156	 -0.002951	 2.306436	 -1.391535	 -0.510718	 -0.074295	 0.744518	 -0.645527	 0.153195	 1
1462089988.562	 9	 0.002570	 0.005276	 -0.006051	 2.306630	 -1.391566	 -0.510563	 -0.074298	 0.744519	 -0.645532	 0.153167	 1
1462089988.572	 9	 -0.001658	 0.014854	 -0.006991	 2.307465	 -1.391579	 -0.509853	 -0.074295	 0.744553	 -0.645513	 0.153082	 1
1462089988.582	 9	 -0.003762	 0.022298	 -0.007970	 2.308531	 -1.391551	 -0.508988	 -0.074267	 0.744610	 -0.645477	 0.152970	 1
1462089988.592	 9	 -0.003756	 0.024418	 -0.009016	 2.309503	 -1.391569	 -0.508258	 -0.074229	 0.744652	 -0.645463	 0.152840	 1
1462089988.602	 9	 -0.005916	 0.019106	 -0.009047	 2.310446	 -1.391594	 -0.507515	 -0.074207	 0.744691	 -0.645449	 0.152724	 1
1462089988.612	 9	 -0.005986	 0.005270	 -0.010240	 2.310999	 -1.391627	 -0.507038	 -0.074214	 0.744707	 -0.645443	 0.152665	 1
1462089988.622	 9	 -0.004960	 -0.004298	 -0.009272	 2.311137	 -1.391663	 -0.506853	 -0.074246	 0.744702	 -0.645445	 0.152665	 1
1462089988.632	 9	 0.000312	 -0.008687	 -0.007212	 2.310950	 -1.391720	 -0.506951	 -0.074282	 0.744678	 -0.645463	 0.152691	 1
1462089988.642	 9	 0.004594	 -0.007621	 -0.005108	 2.310330	 -1.391764	 -0.507483	 -0.074294	 0.744639	 -0.645495	 0.152741	 1
1462089988.652	 9	 0.009927	 -0.011861	 -0.000930	 2.309557	 -1.391819	 -0.508152	 -0.074307	 0.744591	 -0.645534	 0.152801	 1
1462089988.662	 9	 0.010987	 -0.015040	 0.001163	 2.309058	 -1.391804	 -0.508516	 -0.074329	 0.744570	 -0.645539	 0.152873	 1
1462089988.672	 9	 0.009895	 -0.018243	 -0.000989	 2.308800	 -1.391796	 -0.508620	 -0.074372	 0.744557	 -0.645534	 0.152937	 1
1462089988.682	 9	 0.004518	 -0.027792	 0.000035	 2.308736	 -1.391825	 -0.508438	 -0.074467	 0.744538	 -0.645527	 0.153013	 1
1462089988.692	 9	 0.001297	 -0.029925	 -0.002088	 2.308956	 -1.391772	 -0.507933	 -0.074572	 0.744549	 -0.645480	 0.153106	 1
1462089988.702	 9	 -0.002937	 -0.022467	 -0.001982	 2.309395	 -1.391705	 -0.507248	 -0.074671	 0.744573	 -0.645424	 0.153178	 1
1462089988.712	 9	 -0.006091	 -0.013932	 0.000256	 2.309847	 -1.391596	 -0.506637	 -0.074728	 0.744612	 -0.645360	 0.153230	 1
1462089988.722	 9	 -0.004991	 -0.009658	 0.003484	 2.309766	 -1.391428	 -0.506603	 -0.074729	 0.744645	 -0.645303	 0.153307	 1
1462089988.732	 9	 -0.001782	 -0.010708	 0.006645	 2.309309	 -1.391310	 -0.506954	 -0.074719	 0.744652	 -0.645276	 0.153389	 1
1462089988.742	 9	 0.000341	 -0.014954	 0.008719	 2.308355	 -1.391204	 -0.507770	 -0.074700	 0.744636	 -0.645271	 0.153503	 1
1462089988.752	 9	 0.001386	 -0.022380	 0.011839	 2.307134	 -1.391069	 -0.508788	 -0.074684	 0.744613	 -0.645262	 0.153658	 1
1462089988.762	 9	 0.001353	 -0.031930	 0.014948	 2.305566	 -1.390960	 -0.510066	 -0.074690	 0.744567	 -0.645268	 0.153853	 1
1462089988.772	 9	 0.003478	 -0.040392	 0.022312	 2.303498	 -1.390829	 -0.511748	 -0.074701	 0.744502	 -0.645280	 0.154108	 1
1462089988.782	 9	 0.006665	 -0.048865	 0.028601	 2.301127	 -1.390672	 -0.513660	 -0.074719	 0.744429	 -0.645291	 0.154408	 1
1462089988.792	 9	 0.010939	 -0.053086	 0.034919	 2.298284	 -1.390533	 -0.515997	 -0.074735	 0.744330	 -0.645323	 0.154742	 1
1462089988.802	 9	 0.015157	 -0.055334	 0.037005	 2.295113	 -1.390436	 -0.518645	 -0.074751	 0.744207	 -0.645380	 0.155088	 1
1462089988.812	 9	 0.023734	 -0.043690	 0.032774	 2.293074	 -1.390599	 -0.520258	 -0.074846	 0.744070	 -0.645479	 0.155291	 1
1462089988.822	 9	 0.032362	 -0.011913	 0.018071	 2.292439	 -1.390770	 -0.520756	 -0.074905	 0.743998	 -0.645546	 0.155330	 1
1462089988.832	 9	 0.025972	 0.000785	 0.006520	 2.292676	 -1.391017	 -0.520542	 -0.074964	 0.743949	 -0.645613	 0.155257	 1
1462089988.842	 9	 0.018526	 0.012454	 -0.000769	 2.293607	 -1.391214	 -0.519750	 -0.075003	 0.743944	 -0.645646	 0.155123	 1
1462089988.852	 9	 0.003477	 -0.003518	 -0.009314	 2.294224	 -1.391514	 -0.519179	 -0.075085	 0.743897	 -0.645716	 0.155013	 1
1462089988.862	 9	 -0.002900	 0.012372	 -0.020837	 2.297966	 -1.391673	 -0.515464	 -0.075295	 0.744009	 -0.645618	 0.154786	 1
1462089988.872	 9	 -0.011620	 -0.019574	 -0.029585	 2.297808	 -1.392044	 -0.515560	 -0.075394	 0.743911	 -0.645732	 0.154734	 1
1462089988.882	 9	 -0.017328	 -0.097214	 -0.031323	 2.297810	 -1.392324	 -0.514715	 -0.075771	 0.743811	 -0.645752	 0.154945	 1
1462089988.892	 9	 0.007084	 -0.132327	 -0.023337	 2.297474	 -1.392660	 -0.513776	 -0.076305	 0.743667	 -0.645770	 0.155300	 1
1462089988.902	 9	 0.022192	 -0.105702	 -0.012566	 2.297537	 -1.393077	 -0.512584	 -0.076822	 0.743525	 -0.645806	 0.155572	 1
1462089988.912	 9	 0.018101	 -0.066349	 -0.014298	 2.298535	 -1.393518	 -0.510876	 -0.077234	 0.743430	 -0.645847	 0.155658	 1
1462089988.922	 9	 0.011658	 -0.068511	 -0.021725	 2.299922	 -1.393948	 -0.508856	 -0.077634	 0.743355	 -0.645875	 0.155702	 1
1462089988.932	 9	 0.007332	 -0.080198	 -0.021798	 2.301811	 -1.394180	 -0.506218	 -0.078057	 0.743342	 -0.645814	 0.155802	 1
1462089988.942	 9	 0.005185	 -0.081263	 -0.022857	 2.304022	 -1.394279	 -0.503208	 -0.078484	 0.743373	 -0.645696	 0.155931	 1
1462089988.952	 9	 -0.015015	 -0.083175	 -0.001384	 2.303939	 -1.394291	 -0.502485	 -0.078782	 0.743335	 -0.645640	 0.156192	 1
1462089988.962	 9	 -0.049268	 -0.142328	 0.051664	 2.303037	 -1.393742	 -0.502144	 -0.079077	 0.743385	 -0.645409	 0.156755	 1
1462089988.972	 9	 -0.072860	 -0.216282	 0.110864	 2.300349	 -1.392595	 -0.502870	 -0.079417	 0.743484	 -0.645008	 0.157765	 1
1462089988.982	 9	 -0.117723	 -0.290040	 0.188365	 2.298066	 -1.390921	 -0.502496	 -0.079916	 0.743697	 -0.644374	 0.159093	 1
1462089988.992	 9	 -0.167897	 -0.354249	 0.260676	 2.292281	 -1.388073	 -0.504948	 -0.080224	 0.744025	 -0.643466	 0.161066	 1
1462089989.002	 9	 -0.194712	 -0.421904	 0.307174	 2.285304	 -1.384567	 -0.507904	 -0.080571	 0.744425	 -0.642353	 0.163468	 1
1462089989.012	 9	 -0.183140	 -0.445440	 0.292999	 2.278094	 -1.381065	 -0.510739	 -0.081030	 0.744787	 -0.641226	 0.166002	 1
1462089989.022	 9	 -0.132988	 -0.409742	 0.249198	 2.270975	 -1.378119	 -0.513688	 -0.081535	 0.745013	 -0.640285	 0.168351	 1
1462089989.032	 9	 -0.065779	 -0.368854	 0.194640	 2.263697	 -1.375982	 -0.517256	 -0.082040	 0.745049	 -0.639640	 0.170389	 1
1462089989.042	 9	 0.017436	 -0.351215	 0.167435	 2.254816	 -1.374630	 -0.522682	 -0.082543	 0.744829	 -0.639330	 0.172260	 1
1462089989.052	 9	 0.100665	 -0.360967	 0.176212	 2.242685	 -1.373794	 -0.531415	 -0.082973	 0.744334	 -0.639333	 0.174171	 1
1462089989.062	 9	 0.178661	 -0.375791	 0.216960	 2.226383	 -1.373166	 -0.544241	 -0.083264	 0.743583	 -0.639592	 0.176276	 1
1462089989.072	 9	 0.236522	 -0.373427	 0.272963	 2.205966	 -1.372442	 -0.561207	 -0.083315	 0.742642	 -0.640034	 0.178602	 1
1462089989.082	 9	 0.295579	 -0.373994	 0.365165	 2.181197	 -1.371336	 -0.582702	 -0.082995	 0.741551	 -0.640617	 0.181171	 1
1462089989.092	 9	 0.322293	 -0.479460	 0.499303	 2.150919	 -1.369275	 -0.609057	 -0.082407	 0.740314	 -0.641190	 0.184442	 1
1462089989.102	 9	 0.353579	 -0.514791	 0.626593	 2.116199	 -1.366066	 -0.639237	 -0.081537	 0.738975	 -0.641694	 0.188403	 1
1462089989.112	 9	 0.352959	 -0.513977	 0.738511	 2.079303	 -1.361730	 -0.671749	 -0.080201	 0.737626	 -0.642138	 0.192703	 1
1462089989.122	 9	 0.255123	 -0.540513	 0.862758	 2.044075	 -1.355754	 -0.702329	 -0.078574	 0.736518	 -0.642170	 0.197449	 1
1462089989.132	 9	 0.088800	 -0.606176	 0.980829	 2.013863	 -1.347795	 -0.727246	 -0.076822	 0.735870	 -0.641479	 0.202727	 1
1462089989.142	 9	 -0.106426	 -0.663483	 1.066191	 1.990776	 -1.338053	 -0.744284	 -0.075112	 0.735786	 -0.639944	 0.208443	 1
1462089989.152	 9	 -0.291956	 -0.689017	 1.136843	 1.974749	 -1.326788	 -0.753706	 -0.073442	 0.736265	 -0.637594	 0.214461	 1
1462089989.162	 9	 -0.452555	 -0.613745	 1.184770	 1.965425	 -1.314371	 -0.756730	 -0.071603	 0.737311	 -0.634563	 0.220398	 1
1462089989.172	 9	 -0.594964	 -0.519460	 1.222057	 1.962062	 -1.301025	 -0.754655	 -0.069453	 0.738914	 -0.630950	 0.226016	 1
1462089989.182	 9	 -0.707085	 -0.568815	 1.264139	 1.961944	 -1.286830	 -0.749096	 -0.067312	 0.740861	 -0.626806	 0.231749	 1
1462089989.192	 9	 -0.679770	 -0.872147	 1.247223	 1.959856	 -1.272557	 -0.743207	 -0.065890	 0.742555	 -0.622480	 0.238305	 1
1462089989.202	 9	 -0.512985	 -1.445209	 1.198874	 1.949019	 -1.259240	 -0.741028	 -0.066079	 0.743123	 -0.618510	 0.246672	 1
1462089989.212	 9	 -0.313446	 -2.090669	 1.153829	 1.927238	 -1.247078	 -0.743641	 -0.068161	 0.742194	 -0.615056	 0.257308	 1
1462089989.222	 9	 -0.210327	 -2.606995	 1.130008	 1.897412	 -1.235645	 -0.748809	 -0.071908	 0.739995	 -0.611854	 0.269946	 1
1462089989.232	 9	 -0.318608	 -2.556082	 1.213489	 1.868434	 -1.223560	 -0.751758	 -0.075921	 0.737655	 -0.608229	 0.283122	 1
1462089989.242	 9	 -0.480481	 -1.809101	 1.486158	 1.849249	 -1.208723	 -0.750801	 -0.077452	 0.736670	 -0.603747	 0.294632	 1
1462089989.252	 9	 -0.394321	 -1.185233	 1.749128	 1.835062	 -1.191318	 -0.751846	 -0.075856	 0.736631	 -0.599130	 0.304407	 1
1462089989.262	 9	 -0.217178	 -0.879250	 1.920954	 1.820121	 -1.172410	 -0.757879	 -0.072100	 0.736656	 -0.594916	 0.313391	 1
1462089989.272	 9	 -0.155546	 -0.753541	 1.973810	 1.804994	 -1.152959	 -0.765779	 -0.067458	 0.736568	 -0.590928	 0.322056	 1
1462089989.282	 9	 -0.173592	 -0.712189	 1.948774	 1.791885	 -1.133458	 -0.772460	 -0.062579	 0.736561	 -0.586872	 0.330368	 1
1462089989.292	 9	 -0.092616	 -1.100370	 1.840012	 1.776394	 -1.114951	 -0.778862	 -0.058750	 0.735856	 -0.583003	 0.339369	 1
1462089989.302	 9	 0.044489	 -1.836256	 1.766959	 1.752750	 -1.097550	 -0.786881	 -0.056982	 0.733478	 -0.579526	 0.350589	 1
1462089989.312	 9	 0.129671	 -2.553394	 1.764873	 1.721405	 -1.080306	 -0.795462	 -0.057189	 0.729430	 -0.576081	 0.364406	 1
1462089989.322	 9	 0.269107	 -3.237260	 1.679494	 1.682169	 -1.063703	 -0.805057	 -0.059398	 0.723505	 -0.572871	 0.380567	 1
1462089989.332	 9	 0.445876	 -3.949741	 1.623365	 1.634538	 -1.047931	 -0.816339	 -0.063565	 0.715447	 -0.570047	 0.398926	 1
1462089989.342	 9	 0.627713	 -4.303482	 1.611030	 1.581115	 -1.032136	 -0.829088	 -0.068739	 0.705636	 -0.567452	 0.418751	 1
1462089989.352	 9	 0.749274	 -4.317721	 1.603444	 1.526301	 -1.015949	 -0.842491	 -0.073837	 0.694861	 -0.564998	 0.438741	 1
1462089989.362	 9	 0.797661	 -3.992588	 1.577273	 1.474707	 -0.999581	 -0.855135	 -0.078135	 0.684075	 -0.562609	 0.457610	 1
1462089989.372	 9	 0.741056	 -3.505670	 1.524745	 1.429555	 -0.983410	 -0.865686	 -0.081327	 0.674076	 -0.560175	 0.474564	 1
1462089989.382	 9	 0.557647	 -2.984296	 1.478971	 1.393208	 -0.967708	 -0.872068	 -0.083551	 0.665523	 -0.557314	 0.489387	 1
1462089989.392	 9	 0.388877	 -2.711144	 1.383867	 1.363435	 -0.953088	 -0.874821	 -0.085470	 0.658085	 -0.554105	 0.502580	 1
1462089989.402	 9	 0.203600	 -2.822515	 1.351405	 1.336465	 -0.939313	 -0.873828	 -0.088075	 0.650927	 -0.550249	 0.515522	 1
1462089989.412	 9	 0.056138	 -3.094322	 1.357620	 1.309467	 -0.925968	 -0.869768	 -0.091744	 0.643379	 -0.545655	 0.529062	 1
1462089989.422	 9	 -0.093462	 -3.376674	 1.375479	 1.282038	 -0.912938	 -0.862733	 -0.096482	 0.635324	 -0.540247	 0.543312	 1
1462089989.432	 9	 -0.209068	 -3.721622	 1.428695	 1.253286	 -0.900010	 -0.853102	 -0.102286	 0.626502	 -0.533984	 0.558474	 1
1462089989.442	 9	 -0.356389	 -4.015318	 1.496520	 1.223528	 -0.887045	 -0.840627	 -0.109048	 0.616939	 -0.526722	 0.574507	 1
1462089989.452	 9	 -0.552475	 -4.201777	 1.518873	 1.194096	 -0.874666	 -0.824831	 -0.116752	 0.606981	 -0.518426	 0.590913	 1
1462089989.462	 9	 -0.797929	 -4.242192	 1.566462	 1.166647	 -0.863115	 -0.805185	 -0.125184	 0.597087	 -0.509005	 0.607232	 1
1462089989.472	 9	 -1.079744	 -4.084569	 1.627933	 1.143509	 -0.852453	 -0.781116	 -0.133928	 0.587959	 -0.498379	 0.622885	 1
1462089989.482	 9	 -1.333837	 -3.756415	 1.749367	 1.126304	 -0.842311	 -0.752749	 -0.142415	 0.580159	 -0.486606	 0.637455	 1
1462089989.492	 9	 -1.540886	 -3.248139	 1.955218	 1.116481	 -0.831686	 -0.720392	 -0.149864	 0.574222	 -0.473718	 0.650693	 1
1462089989.502	 9	 -1.724944	 -2.646031	 2.188365	 1.115028	 -0.819954	 -0.684297	 -0.155824	 0.570588	 -0.459773	 0.662387	 1
1462089989.512	 9	 -1.847400	 -2.076273	 2.385504	 1.121071	 -0.806908	 -0.645565	 -0.160246	 0.569181	 -0.445035	 0.672531	 1
1462089989.522	 9	 -1.889466	 -1.693640	 2.624965	 1.132111	 -0.791901	 -0.605398	 -0.163225	 0.569356	 -0.429576	 0.681657	 1
1462089989.532	 9	 -1.858437	 -1.491463	 2.943107	 1.145599	 -0.773762	 -0.564544	 -0.164725	 0.570384	 -0.413179	 0.690515	 1
1462089989.542	 9	 -1.753255	 -1.392786	 3.245786	 1.159380	 -0.751991	 -0.524139	 -0.164720	 0.571695	 -0.395883	 0.699506	 1
1462089989.552	 9	 -1.587678	 -1.284527	 3.427597	 1.172105	 -0.727267	 -0.485764	 -0.163306	 0.573005	 -0.378207	 0.708488	 1
1462089989.562	 9	 -1.407401	 -1.122970	 3.485082	 1.183604	 -0.700711	 -0.450396	 -0.160666	 0.574347	 -0.360706	 0.717080	 1
1462089989.572	 9	 -1.248293	 -0.855585	 3.460607	 1.194697	 -0.673294	 -0.418246	 -0.156959	 0.576015	 -0.343760	 0.724844	 1
1462089989.582	 9	 -1.098735	 -0.527966	 3.378158	 1.206354	 -0.645702	 -0.389265	 -0.152308	 0.578331	 -0.327626	 0.731435	 1
1462089989.592	 9	 -0.948810	 -0.298633	 3.236174	 1.218087	 -0.618485	 -0.363574	 -0.146983	 0.581094	 -0.312485	 0.736939	 1
1462089989.602	 9	 -0.783509	 -0.160122	 3.043121	 1.228823	 -0.592207	 -0.341321	 -0.141322	 0.583873	 -0.298503	 0.741631	 1
1462089989.612	 9	 -0.650794	 -0.120622	 2.823852	 1.238082	 -0.567299	 -0.322268	 -0.135601	 0.586420	 -0.285732	 0.745709	 1
1462089989.622	 9	 -0.551084	 -0.344336	 2.668498	 1.244158	 -0.543623	 -0.305608	 -0.130200	 0.588001	 -0.273780	 0.749898	 1
1462089989.632	 9	 -0.518790	 -0.731636	 2.661416	 1.245743	 -0.520140	 -0.290010	 -0.125205	 0.588015	 -0.261853	 0.754980	 1
1462089989.642	 9	 -0.495538	 -1.072545	 2.741170	 1.243318	 -0.496003	 -0.274570	 -0.120403	 0.586563	 -0.249458	 0.761064	 1
1462089989.652	 9	 -0.371646	 -1.364647	 2.845015	 1.237225	 -0.470683	 -0.259871	 -0.115295	 0.583780	 -0.236728	 0.768028	 1
1462089989.662	 9	 -0.149607	 -1.624409	 2.901413	 1.227292	 -0.444076	 -0.246946	 -0.109489	 0.579613	 -0.224065	 0.775794	 1
1462089989.672	 9	 0.130106	 -1.806220	 2.877037	 1.213930	 -0.416779	 -0.236662	 -0.102864	 0.574196	 -0.212048	 0.784062	 1
1462089989.682	 9	 0.386660	 -1.917789	 2.849252	 1.198030	 -0.388948	 -0.228909	 -0.095381	 0.567809	 -0.200790	 0.792577	 1
1462089989.692	 9	 0.553847	 -1.977980	 2.830184	 1.180687	 -0.360689	 -0.222736	 -0.087226	 0.560787	 -0.190057	 0.801117	 1
1462089989.702	 9	 0.630497	 -2.157635	 2.727664	 1.161491	 -0.332876	 -0.217352	 -0.079008	 0.552897	 -0.179786	 0.809778	 1
1462089989.712	 9	 0.625495	 -2.378116	 2.535950	 1.139737	 -0.306668	 -0.212330	 -0.071374	 0.543816	 -0.170113	 0.818677	 1
1462089989.722	 9	 0.551916	 -2.401880	 2.309362	 1.117215	 -0.282855	 -0.207146	 -0.064641	 0.534260	 -0.161104	 0.827305	 1
1462089989.732	 9	 0.510902	 -2.384673	 2.172396	 1.094751	 -0.260903	 -0.201739	 -0.058548	 0.524588	 -0.152612	 0.835517	 1
1462089989.742	 9	 0.559237	 -2.339957	 2.197969	 1.072648	 -0.239095	 -0.196127	 -0.052354	 0.514932	 -0.144207	 0.843391	 1
1462089989.762	 10	 0.940302	 -2.741453	 2.427515	 1.024722	 -0.190712	 -0.186060	 -0.037293	 0.493608	 -0.127073	 0.859542	 1
1462089989.782	 11	 1.563437	 -4.354565	 2.439051	 0.952337	 -0.135222	 -0.180700	 -0.018536	 0.460882	 -0.110849	 0.880316	 1
1462089989.792	 11	 1.977678	 -5.301531	 2.264637	 0.901481	 -0.105433	 -0.181803	 -0.007744	 0.437537	 -0.104456	 0.893079	 1
1462089989.802	 11	 2.348648	 -6.060846	 1.988966	 0.842264	 -0.075101	 -0.185872	 0.003797	 0.409922	 -0.099915	 0.906624	 1
1462089989.812	 11	 2.654038	 -6.625937	 1.629348	 0.776919	 -0.044759	 -0.192698	 0.015814	 0.378904	 -0.097447	 0.920155	 1
1462089989.822	 11	 2.229962	 -5.767595	 1.312772	 0.715340	 -0.017813	 -0.198964	 0.026468	 0.349176	 -0.096132	 0.931737	 1
1462089989.832	 11	 1.601587	 -3.918431	 1.582707	 0.672214	 0.004757	 -0.198624	 0.034935	 0.327966	 -0.092820	 0.939469	 1
1462089989.842	 11	 1.623793	 -3.476493	 1.812568	 0.636864	 0.028262	 -0.194077	 0.043687	 0.310273	 -0.087603	 0.945594	 1
1462089989.852	 11	 1.815024	 -3.265776	 1.613566	 0.603384	 0.052456	 -0.190706	 0.053207	 0.293300	 -0.083120	 0.950913	 1
1462089989.862	 11	 1.908910	 -2.811781	 1.335612	 0.574003	 0.075935	 -0.189538	 0.063010	 0.278159	 -0.079994	 0.955122	 1
1462089989.872	 11	 2.012631	 -2.379540	 1.141565	 0.549238	 0.099045	 -0.190068	 0.073133	 0.265104	 -0.077860	 0.958284	 1
1462089989.882	 11	 2.141683	 -2.052278	 1.001740	 0.528153	 0.122445	 -0.192024	 0.083767	 0.253667	 -0.076471	 0.960619	 1
1462089989.892	 11	 2.272018	 -1.743609	 0.938466	 0.510374	 0.146582	 -0.194933	 0.095016	 0.243659	 -0.075512	 0.962237	 1
1462089989.902	 11	 2.433153	 -1.561839	 0.988846	 0.494987	 0.172189	 -0.197951	 0.107077	 0.234635	 -0.074486	 0.963293	 1
1462089989.912	 11	 2.596790	 -1.583807	 1.105516	 0.479729	 0.199825	 -0.200513	 0.120064	 0.225501	 -0.073160	 0.964044	 1
1462089989.922	 11	 2.615352	 -1.629497	 1.265859	 0.463759	 0.228756	 -0.201562	 0.133480	 0.215972	 -0.071183	 0.964610	 1
1462089989.932	 11	 2.386616	 -1.731943	 1.566377	 0.446112	 0.257336	 -0.198954	 0.146303	 0.205870	 -0.067808	 0.965202	 1
1462089989.942	 11	 2.040564	 -1.810713	 1.857478	 0.426161	 0.284197	 -0.191453	 0.157793	 0.195152	 -0.062665	 0.965966	 1
1462089989.952	 11	 1.701376	 -1.908531	 2.018320	 0.404017	 0.308543	 -0.179967	 0.167742	 0.183925	 -0.056284	 0.966885	 1
1462089989.962	 11	 1.413149	 -2.149162	 2.013261	 0.378907	 0.329867	 -0.166206	 0.176112	 0.171741	 -0.049602	 0.968003	 1
1462089989.972	 11	 1.170692	 -2.458513	 1.790814	 0.350498	 0.347613	 -0.152438	 0.182866	 0.158262	 -0.043785	 0.969328	 1
1462089989.982	 11	 1.012274	 -2.709548	 1.430690	 0.319958	 0.361311	 -0.140776	 0.187962	 0.143842	 -0.039751	 0.970773	 1
1462089989.992	 11	 0.951844	 -2.780012	 1.076725	 0.289101	 0.373501	 -0.132019	 0.192667	 0.129116	 -0.037452	 0.972011	 1
1462089990.002	 11	 0.936609	 -2.580149	 0.764317	 0.260475	 0.384688	 -0.126057	 0.197194	 0.115283	 -0.036525	 0.972877	 1
1462089990.012	 11	 0.988162	 -2.284445	 0.494851	 0.235672	 0.395457	 -0.122778	 0.201785	 0.103087	 -0.036687	 0.973299	 1
1462089990.022	 11	 1.149521	 -2.079951	 0.305643	 0.214046	 0.406979	 -0.121768	 0.206925	 0.092195	 -0.037703	 0.973273	 1
1462089990.032	 11	 1.370781	 -1.913341	 0.196559	 0.194700	 0.420293	 -0.122317	 0.213037	 0.082191	 -0.039255	 0.972789	 1
1462089990.042	 11	 1.605073	 -1.718944	 0.111067	 0.177746	 0.435720	 -0.124032	 0.220244	 0.073149	 -0.041125	 0.971828	 1
1462089990.052	 11	 1.851938	 -1.589331	 0.044046	 0.162759	 0.453464	 -0.126741	 0.228617	 0.064861	 -0.043266	 0.970389	 1
1462089990.062	 11	 2.064538	 -1.500951	 -0.002810	 0.149037	 0.473383	 -0.130146	 0.238048	 0.057015	 -0.045618	 0.968505	 1
1462089990.072	 11	 2.186767	 -1.335769	 -0.055625	 0.137030	 0.494730	 -0.134089	 0.248174	 0.049863	 -0.048077	 0.966236	 1
1462089990.082	 11	 2.146983	 -1.109651	 -0.130975	 0.127669	 0.516124	 -0.138632	 0.258348	 0.043891	 -0.050590	 0.963727	 1
1462089990.092	 11	 1.893389	 -0.957404	 -0.212612	 0.120017	 0.535311	 -0.143589	 0.267464	 0.038751	 -0.053234	 0.961316	 1
1462089990.102	 11	 1.737438	 -0.610451	 -0.392402	 0.116414	 0.552490	 -0.150004	 0.275711	 0.035409	 -0.056146	 0.958946	 1
1462089990.112	 11	 1.576229	 -0.480397	 -0.563508	 0.115870	 0.567981	 -0.158383	 0.283239	 0.033281	 -0.059640	 0.956614	 1
1462089990.122	 11	 1.362940	 -0.378279	 -0.648093	 0.116870	 0.581323	 -0.167805	 0.289780	 0.031779	 -0.063474	 0.954457	 1
1462089990.132	 11	 1.174983	 -0.167246	 -0.663676	 0.120000	 0.592631	 -0.177455	 0.295408	 0.031297	 -0.067156	 0.952494	 1
1462089990.142	 11	 1.083029	 -0.025115	 -0.608265	 0.124622	 0.602769	 -0.186619	 0.300518	 0.031601	 -0.070398	 0.950649	 1
1462089990.152	 11	 1.123472	 0.045049	 -0.450231	 0.129296	 0.613096	 -0.194309	 0.305694	 0.032090	 -0.072883	 0.948794	 1
1462089990.162	 11	 1.258043	 0.113220	 -0.235485	 0.133440	 0.624813	 -0.199803	 0.311464	 0.032542	 -0.074308	 0.946789	 1
1462089990.172	 11	 1.411657	 0.161001	 -0.038146	 0.136928	 0.638319	 -0.203125	 0.318006	 0.032883	 -0.074688	 0.944570	 1
1462089990.182	 11	 1.499511	 0.138172	 0.075979	 0.139538	 0.653084	 -0.205011	 0.325066	 0.032939	 -0.074439	 0.942182	 1
1462089990.192	 11	 1.482138	 0.080739	 0.069201	 0.141546	 0.667975	 -0.206698	 0.332140	 0.032716	 -0.074163	 0.939741	 1
1462089990.202	 11	 1.389779	 0.015628	 0.000125	 0.143316	 0.682013	 -0.209015	 0.338796	 0.032308	 -0.074244	 0.937369	 1
1462089990.212	 11	 1.291966	 -0.037027	 -0.113550	 0.145294	 0.694901	 -0.212523	 0.344926	 0.031842	 -0.074885	 0.935096	 1
1462089990.222	 11	 1.223065	 -0.043192	 -0.257951	 0.148215	 0.706829	 -0.217750	 0.350658	 0.031548	 -0.076191	 0.932866	 1
1462089990.232	 11	 1.132838	 -0.061917	 -0.383100	 0.152217	 0.717757	 -0.224678	 0.355981	 0.031483	 -0.078120	 0.930690	 1
1462089990.242	 11	 1.024339	 -0.128275	 -0.484020	 0.156541	 0.727436	 -0.232879	 0.360750	 0.031377	 -0.080616	 0.928642	 1
1462089990.252	 11	 0.916614	 -0.256329	 -0.585521	 0.160654	 0.735871	 -0.242319	 0.364951	 0.030988	 -0.083760	 0.926733	 1
1462089990.262	 11	 0.780036	 -0.409679	 -0.666757	 0.163962	 0.742881	 -0.252753	 0.368472	 0.030103	 -0.087565	 0.925016	 1
1462089990.272	 11	 0.606445	 -0.528562	 -0.703653	 0.166292	 0.748152	 -0.263585	 0.371151	 0.028783	 -0.091817	 0.923574	 1
1462089990.282	 11	 0.433289	 -0.612914	 -0.672023	 0.167380	 0.751697	 -0.273886	 0.372968	 0.027095	 -0.096145	 0.922452	 1
1462089990.292	 11	 0.294557	 -0.675778	 -0.596797	 0.166985	 0.753889	 -0.282969	 0.374068	 0.025043	 -0.100266	 0.921625	 1
1462089990.302	 11	 0.193332	 -0.709996	 -0.516302	 0.165260	 0.755134	 -0.290716	 0.374641	 0.022696	 -0.104078	 0.921030	 1
1462089990.312	 11	 0.135995	 -0.707194	 -0.446502	 0.162671	 0.755836	 -0.297316	 0.374894	 0.020210	 -0.107556	 0.920585	 1
1462089990.322	 11	 0.126876	 -0.633525	 -0.411633	 0.160213	 0.756414	 -0.303268	 0.375081	 0.017914	 -0.110719	 0.920182	 1
1462089990.332	 11	 0.135939	 -0.534529	 -0.396936	 0.158546	 0.757099	 -0.308996	 0.375347	 0.016014	 -0.113622	 0.919754	 1
1462089990.342	 11	 0.140844	 -0.412120	 -0.381984	 0.157912	 0.757869	 -0.314543	 0.375704	 0.014615	 -0.116242	 0.919304	 1
1462089990.352	 11	 0.143613	 -0.293928	 -0.362791	 0.158356	 0.758706	 -0.319864	 0.376149	 0.013745	 -0.118549	 0.918841	 1
1462089990.362	 11	 0.118470	 -0.225515	 -0.325699	 0.159327	 0.759436	 -0.324730	 0.376571	 0.013211	 -0.120553	 0.918415	 1
1462089990.372	 11	 0.047145	 -0.245024	 -0.258117	 0.159679	 0.759668	 -0.328640	 0.376723	 0.012615	 -0.122267	 0.918135	 1
1462089990.382	 11	 -0.054323	 -0.325026	 -0.184440	 0.158497	 0.759070	 -0.331329	 0.376395	 0.011621	 -0.123763	 0.918082	 1
1462089990.392	 11	 -0.151614	 -0.402043	 -0.137416	 0.155842	 0.757569	 -0.333052	 0.375558	 0.010214	 -0.125153	 0.918253	 1
1462089990.412	 12	 -0.243336	 -0.401676	 -0.123825	 0.148994	 0.752810	 -0.335479	 0.372971	 0.007047	 -0.127861	 0.918964	 1
1462089990.422	 12	 -0.227909	 -0.292225	 -0.131467	 0.146620	 0.750312	 -0.336756	 0.371686	 0.005946	 -0.129051	 0.919326	 1
1462089990.442	 13	 -0.156861	 0.067041	 -0.135137	 0.146969	 0.746269	 -0.339665	 0.369877	 0.005936	 -0.130584	 0.919839	 1
1462089990.452	 13	 -0.125915	 0.284001	 -0.124861	 0.150268	 0.744758	 -0.341118	 0.369409	 0.007324	 -0.130740	 0.919995	 1
1462089990.462	 13	 -0.087755	 0.437217	 -0.102448	 0.157243	 0.746059	 -0.343788	 0.370469	 0.009917	 -0.130592	 0.919565	 1
1462089990.482	 14	 -0.031059	 0.405662	 -0.030763	 0.167157	 0.744885	 -0.345108	 0.370587	 0.014341	 -0.129442	 0.919622	 1
1462089990.492	 14	 -0.017768	 0.267431	 -0.006569	 0.170275	 0.744654	 -0.345222	 0.370685	 0.015776	 -0.128933	 0.919631	 1
1462089990.502	 14	 -0.012028	 0.114384	 0.010057	 0.175509	 0.741972	 -0.347677	 0.369824	 0.017984	 -0.129283	 0.919887	 1
1462089990.512	 14	 -0.020009	 -0.003568	 0.021818	 0.175531	 0.741837	 -0.347370	 0.369761	 0.018064	 -0.129147	 0.919930	 1
1462089990.522	 14	 -0.037358	 -0.069395	 0.030948	 0.174647	 0.741563	 -0.346899	 0.369576	 0.017771	 -0.129114	 0.920015	 1
1462089990.532	 14	 -0.043813	 -0.075796	 0.025616	 0.173556	 0.741191	 -0.346421	 0.369332	 0.017393	 -0.129122	 0.920119	 1
1462089990.542	 14	 -0.040446	 -0.032272	 0.015343	 0.173179	 0.743554	 -0.346301	 0.370381	 0.017016	 -0.128968	 0.919726	 1
1462089990.552	 14	 -0.052805	 0.063481	 0.014211	 0.173330	 0.743104	 -0.346002	 0.370183	 0.017184	 -0.128835	 0.919821	 1
1462089990.562	 14	 -0.075604	 0.199754	 0.023137	 0.174675	 0.742467	 -0.345566	 0.369976	 0.017944	 -0.128431	 0.919946	 1
1462089990.572	 14	 -0.115489	 0.326568	 0.040651	 0.177159	 0.741501	 -0.344844	 0.369690	 0.019312	 -0.127708	 0.920134	 1
1462089990.582	 14	 -0.163003	 0.409878	 0.069560	 0.180366	 0.742923	 -0.343718	 0.370528	 0.020860	 -0.126495	 0.919931	 1
1462089990.592	 14	 -0.195928	 0.419751	 0.097648	 0.183453	 0.741230	 -0.342037	 0.369935	 0.022753	 -0.125273	 0.920292	 1
1462089990.602	 14	 -0.211042	 0.364647	 0.119648	 0.185890	 0.739392	 -0.340002	 0.369227	 0.024426	 -0.124020	 0.920703	 1
1462089990.612	 14	 -0.208217	 0.271159	 0.135806	 0.187318	 0.737572	 -0.337717	 0.368459	 0.025677	 -0.122837	 0.921135	 1
1462089990.622	 14	 -0.191648	 0.161579	 0.138897	 0.187034	 0.733134	 -0.334964	 0.366386	 0.026471	 -0.121944	 0.922058	 1
1462089990.632	 14	 -0.150641	 0.040135	 0.128883	 0.186287	 0.731781	 -0.332807	 0.365695	 0.026648	 -0.121185	 0.922427	 1
1462089990.642	 14	 -0.100895	 -0.028245	 0.106499	 0.184951	 0.730867	 -0.331038	 0.365175	 0.026440	 -0.120679	 0.922705	 1
1462089990.652	 14	 -0.048686	 -0.027492	 0.084736	 0.183754	 0.730422	 -0.329702	 0.364882	 0.026172	 -0.120313	 0.922876	 1
1462089990.672	 15	 0.055470	 0.112551	 0.078742	 0.181795	 0.731282	 -0.326739	 0.365118	 0.025730	 -0.119242	 0.922934	 1
1462089990.682	 15	 0.075281	 0.217982	 0.105129	 0.182974	 0.732157	 -0.325617	 0.365573	 0.026399	 -0.118447	 0.922838	 1
1462089990.692	 15	 0.077899	 0.294776	 0.135662	 0.184740	 0.733155	 -0.324115	 0.366112	 0.027398	 -0.117359	 0.922734	 1
1462089990.702	 15	 0.070663	 0.320525	 0.163680	 0.185882	 0.735251	 -0.321701	 0.367101	 0.028176	 -0.115887	 0.922504	 1
1462089990.712	 15	 0.055617	 0.281360	 0.183696	 0.187326	 0.736173	 -0.319472	 0.367572	 0.029168	 -0.114528	 0.922455	 1
1462089990.722	 15	 0.025463	 0.216628	 0.191882	 0.188019	 0.736863	 -0.317026	 0.367890	 0.029875	 -0.113223	 0.922467	 1
1462089990.732	 15	 -0.003687	 0.152832	 0.183016	 0.188056	 0.737243	 -0.314570	 0.368029	 0.030310	 -0.112056	 0.922540	 1
1462089990.742	 15	 -0.021094	 0.099549	 0.162424	 0.186097	 0.736635	 -0.311251	 0.367592	 0.030070	 -0.110928	 0.922858	 1
1462089990.752	 15	 -0.020262	 0.064321	 0.145036	 0.185458	 0.736701	 -0.309223	 0.367556	 0.030142	 -0.110105	 0.922968	 1
1462089990.762	 15	 0.003153	 0.055703	 0.139424	 0.184766	 0.736922	 -0.307356	 0.367591	 0.030147	 -0.109355	 0.923044	 1
1462089990.772	 15	 0.033118	 0.067368	 0.146732	 0.184148	 0.737432	 -0.305505	 0.367762	 0.030157	 -0.108579	 0.923067	 1
1462089990.782	 15	 0.068507	 0.091822	 0.160511	 0.181925	 0.738729	 -0.302369	 0.368187	 0.029596	 -0.107451	 0.923047	 1
1462089990.792	 15	 0.096377	 0.115163	 0.163683	 0.181715	 0.739918	 -0.300421	 0.368690	 0.029756	 -0.106508	 0.922951	 1
1462089990.802	 15	 0.105004	 0.138499	 0.158497	 0.181777	 0.741240	 -0.298546	 0.369269	 0.030017	 -0.105541	 0.922822	 1
1462089990.812	 15	 0.085789	 0.152253	 0.140674	 0.182103	 0.742400	 -0.296823	 0.369790	 0.030387	 -0.104606	 0.922708	 1
1462089990.822	 15	 0.047265	 0.142673	 0.124940	 0.180268	 0.743478	 -0.293738	 0.370140	 0.030020	 -0.103449	 0.922710	 1
1462089990.832	 15	 0.001221	 0.119325	 0.113400	 0.180506	 0.743808	 -0.292224	 0.370280	 0.030382	 -0.102684	 0.922727	 1
1462089990.842	 15	 -0.037353	 0.088566	 0.110258	 0.178567	 0.743884	 -0.289413	 0.370173	 0.030002	 -0.101741	 0.922887	 1
1462089990.852	 15	 -0.053429	 0.074774	 0.109208	 0.176637	 0.743602	 -0.286729	 0.369906	 0.029631	 -0.100878	 0.923101	 1
1462089990.862	 15	 -0.050190	 0.082206	 0.109252	 0.174808	 0.743235	 -0.284099	 0.369608	 0.029303	 -0.100026	 0.923323	 1
1462089990.872	 15	 -0.024436	 0.117179	 0.102963	 0.173238	 0.743284	 -0.281517	 0.369514	 0.029051	 -0.099121	 0.923466	 1
1462089990.882	 15	 0.013143	 0.170200	 0.096740	 0.172285	 0.743698	 -0.279101	 0.369622	 0.029024	 -0.098155	 0.923527	 1
1462089990.892	 15	 0.061411	 0.223220	 0.094686	 0.171964	 0.744656	 -0.276838	 0.370012	 0.029218	 -0.097107	 0.923476	 1
1462089990.902	 15	 0.109661	 0.265666	 0.101059	 0.172711	 0.746048	 -0.275016	 0.370657	 0.029790	 -0.096038	 0.923311	 1
1462089990.912	 15	 0.142946	 0.291239	 0.121260	 0.173801	 0.747838	 -0.273152	 0.371500	 0.030498	 -0.094859	 0.923071	 1
1462089990.922	 15	 0.158024	 0.305151	 0.139378	 0.175086	 0.749715	 -0.271188	 0.372388	 0.031308	 -0.093592	 0.922815	 1
1462089990.932	 15	 0.158014	 0.296694	 0.146762	 0.176274	 0.751472	 -0.269100	 0.373213	 0.032108	 -0.092293	 0.922585	 1
1462089990.942	 15	 0.148265	 0.266930	 0.145505	 0.177274	 0.752978	 -0.267053	 0.373914	 0.032834	 -0.091064	 0.922398	 1
1462089990.952	 15	 0.126642	 0.217978	 0.133515	 0.177823	 0.754054	 -0.265035	 0.374397	 0.033381	 -0.089961	 0.922291	 1
1462089990.962	 15	 0.097520	 0.168994	 0.114130	 0.177844	 0.754976	 -0.263092	 0.374786	 0.033684	 -0.089001	 0.922214	 1
1462089990.972	 15	 0.058843	 0.126452	 0.099153	 0.177381	 0.755744	 -0.261189	 0.375085	 0.033768	 -0.088161	 0.922171	 1
1462089990.982	 15	 0.018068	 0.093473	 0.082151	 0.176558	 0.756186	 -0.259348	 0.375219	 0.033701	 -0.087437	 0.922187	 1
1462089990.992	 15	 -0.016187	 0.080723	 0.070611	 0.175641	 0.756418	 -0.257612	 0.375256	 0.033586	 -0.086794	 0.922237	 1
1462089991.012	 15	 -0.024549	 0.106365	 0.083717	 0.174303	 0.756694	 -0.254335	 0.375270	 0.033563	 -0.085516	 0.922352	 1
1462089991.022	 16	 0.020529	 0.136221	 0.112380	 0.174093	 0.757259	 -0.252569	 0.375489	 0.033755	 -0.084705	 0.922330	 1
1462089991.032	 16	 0.083747	 0.167078	 0.139828	 0.174215	 0.758225	 -0.250701	 0.375904	 0.034091	 -0.083760	 0.922235	 1
1462089991.042	 16	 0.143737	 0.195787	 0.163021	 0.174296	 0.759726	 -0.248490	 0.376556	 0.034434	 -0.082630	 0.922059	 1
1462089991.052	 16	 0.185555	 0.223439	 0.179968	 0.174397	 0.761846	 -0.246031	 0.377486	 0.034789	 -0.081345	 0.921779	 1
1462089991.062	 16	 0.205925	 0.239362	 0.184205	 0.174531	 0.764254	 -0.243438	 0.378547	 0.035166	 -0.079973	 0.921450	 1
1462089991.072	 16	 0.200606	 0.243622	 0.183227	 0.174797	 0.766677	 -0.240885	 0.379619	 0.035598	 -0.078595	 0.921111	 1
1462089991.082	 16	 0.171676	 0.227674	 0.172676	 0.174838	 0.768868	 -0.238272	 0.380574	 0.035957	 -0.077247	 0.920817	 1
1462089991.092	 16	 0.122331	 0.196770	 0.145111	 0.174450	 0.770420	 -0.235664	 0.381220	 0.036165	 -0.076024	 0.920643	 1
1462089991.102	 16	 0.062211	 0.152001	 0.107919	 0.173732	 0.771224	 -0.233282	 0.381517	 0.036232	 -0.075015	 0.920600	 1
1462089991.112	 16	 0.003069	 0.091250	 0.067373	 0.172750	 0.771202	 -0.231331	 0.381435	 0.036154	 -0.074305	 0.920695	 1
1462089991.122	 16	 -0.041071	 0.034787	 0.037393	 0.171544	 0.770643	 -0.229805	 0.381108	 0.035929	 -0.073867	 0.920874	 1
1462089991.132	 16	 -0.070124	 -0.007746	 0.027660	 0.170215	 0.769755	 -0.228589	 0.380631	 0.035609	 -0.073613	 0.921104	 1
1462089991.142	 16	 -0.080990	 -0.044976	 0.023146	 0.168880	 0.768681	 -0.227642	 0.380075	 0.035248	 -0.073496	 0.921357	 1
1462089991.152	 16	 -0.085428	 -0.082177	 0.024971	 0.167310	 0.767598	 -0.226784	 0.379507	 0.034761	 -0.073464	 0.921612	 1
1462089991.162	 16	 -0.086591	 -0.106602	 0.030083	 0.165369	 0.766438	 -0.225829	 0.378888	 0.034126	 -0.073461	 0.921891	 1
1462089991.172	 16	 -0.084503	 -0.116183	 0.029976	 0.163384	 0.765220	 -0.224937	 0.378243	 0.033462	 -0.073496	 0.922177	 1
1462089991.182	 16	 -0.080185	 -0.106616	 0.031094	 0.161408	 0.764103	 -0.224013	 0.377644	 0.032800	 -0.073509	 0.922446	 1
1462089991.192	 16	 -0.065074	 -0.070498	 0.031299	 0.159702	 0.763257	 -0.223088	 0.377179	 0.032243	 -0.073453	 0.922660	 1
1462089991.202	 16	 -0.038189	 -0.021698	 0.025126	 0.158438	 0.762657	 -0.222210	 0.376843	 0.031865	 -0.073320	 0.922821	 1
1462089991.212	 16	 0.005720	 0.022743	 0.011303	 0.157913	 0.762319	 -0.221657	 0.376661	 0.031749	 -0.073183	 0.922910	 1
1462089991.222	 16	 0.056013	 0.060805	 0.000562	 0.157745	 0.762003	 -0.221220	 0.376503	 0.031775	 -0.073032	 0.922986	 1
1462089991.232	 16	 0.099908	 0.092567	 -0.001656	 0.158533	 0.762684	 -0.221294	 0.376845	 0.032080	 -0.072878	 0.922848	 1
1462089991.242	 16	 0.122443	 0.112764	 0.005796	 0.159763	 0.763753	 -0.221500	 0.377383	 0.032538	 -0.072680	 0.922627	 1
1462089991.252	 16	 0.127844	 0.114975	 0.019624	 0.160940	 0.764992	 -0.221553	 0.377994	 0.032989	 -0.072411	 0.922382	 1
1462089991.262	 16	 0.120334	 0.090672	 0.038647	 0.161856	 0.766179	 -0.221409	 0.378567	 0.033360	 -0.072103	 0.922158	 1
1462089991.272	 16	 0.098868	 0.051496	 0.054455	 0.162048	 0.767206	 -0.220884	 0.379035	 0.033481	 -0.071765	 0.921987	 1
1462089991.282	 16	 0.064546	 0.013321	 0.056531	 0.161749	 0.767857	 -0.220201	 0.379311	 0.033429	 -0.071469	 0.921899	 1
1462089991.292	 16	 0.033428	 -0.015368	 0.048009	 0.161022	 0.768197	 -0.219449	 0.379428	 0.033215	 -0.071241	 0.921876	 1
1462089991.302	 16	 0.007726	 -0.021782	 0.033253	 0.160163	 0.768271	 -0.218757	 0.379420	 0.032945	 -0.071081	 0.921901	 1
1462089991.312	 16	 -0.007278	 -0.021854	 0.017396	 0.159535	 0.768061	 -0.218322	 0.379295	 0.032752	 -0.071012	 0.921965	 1
1462089991.322	 16	 -0.006267	 -0.021958	 0.003532	 0.159131	 0.767781	 -0.218134	 0.379149	 0.032620	 -0.071017	 0.922029	 1
1462089991.332	 16	 -0.003070	 -0.021976	 0.002438	 0.158853	 0.767641	 -0.218075	 0.379074	 0.032512	 -0.071051	 0.922062	 1
1462089991.342	 16	 0.002348	 -0.013405	 0.013128	 0.158651	 0.767591	 -0.217973	 0.379043	 0.032441	 -0.071045	 0.922077	 1
