% Gyrometer data recorded with 'snsrlog'
% 
% 
% Label description:
% 	 0: Default Label
% 	 1: still_drop
% 	 2: walk_drop
% 	 3: other
% 	 4: dtw_same
% 	 5: dtw_diff
% 	 6: delete
% 	 7: steal
% 
% Column description:
% 	 1: Seconds.milliseconds since 1970
% 	 2: Number of skipped measurements
% 	 3: Gyro X
% 	 4: Gyro Y
% 	 5: Gyro Z
% 	 6: Roll of the device
% 	 7: Pitch of the device
% 	 8: Yaw of the device
% 	 9: Quaternion X
% 	 10: Quaternion Y
% 	 11: Quaternion Z
% 	 12: Quaternion W
% 	 13: Label used for the current sample
% 
% 
1463624016.135	 0	 -1.337122	 0.781223	 -0.253726	 0.307462	 0.516707	 -0.065717	 0.257203	 0.139670	 0.007713	 0.956179	 1
1463624016.145	 0	 -1.459120	 0.697828	 -0.509223	 0.314281	 0.501704	 -0.065464	 0.250001	 0.143492	 0.007514	 0.957525	 1
1463624016.155	 0	 -1.480996	 0.869862	 -0.848475	 0.323781	 0.485282	 -0.068388	 0.242336	 0.148265	 0.005953	 0.958778	 1
1463624016.165	 0	 -1.490691	 1.322988	 -1.141522	 0.338531	 0.467715	 -0.074425	 0.234358	 0.155261	 0.003336	 0.959666	 1
1463624016.175	 0	 -1.496152	 1.795902	 -1.197823	 0.358413	 0.449548	 -0.081297	 0.226197	 0.164709	 0.000716	 0.960055	 1
1463624016.185	 0	 -1.404866	 2.093877	 -1.138294	 0.381332	 0.431990	 -0.087407	 0.218322	 0.175739	 -0.001324	 0.959922	 1
1463624016.195	 0	 -1.188806	 2.119447	 -1.045084	 0.405001	 0.416360	 -0.093055	 0.211389	 0.187147	 -0.003054	 0.959313	 1
1463624016.205	 0	 -0.981852	 2.055431	 -0.988865	 0.427735	 0.402949	 -0.098404	 0.205546	 0.198078	 -0.004668	 0.958381	 1
1463624016.215	 0	 -0.893416	 2.167750	 -1.158046	 0.451656	 0.390037	 -0.105056	 0.200137	 0.209450	 -0.006869	 0.957094	 1
1463624016.225	 0	 -0.923694	 2.232497	 -1.335162	 0.476888	 0.376113	 -0.113180	 0.194493	 0.221381	 -0.009905	 0.955544	 1
1463624016.235	 0	 -1.111443	 2.319647	 -1.420109	 0.502697	 0.360207	 -0.121141	 0.187996	 0.233736	 -0.013213	 0.953861	 1
1463624016.245	 0	 -1.450542	 2.663652	 -1.493888	 0.530418	 0.341159	 -0.127604	 0.179954	 0.247337	 -0.016233	 0.951934	 1
1463624016.255	 0	 -1.861392	 2.898799	 -1.500911	 0.560282	 0.318342	 -0.131585	 0.169939	 0.262391	 -0.018654	 0.949697	 1
1463624016.265	 0	 -2.201623	 2.927567	 -1.484892	 0.589782	 0.292406	 -0.132539	 0.158129	 0.277673	 -0.020439	 0.947352	 1
1463624016.275	 0	 -2.336130	 3.065850	 -1.390779	 0.619549	 0.265270	 -0.131014	 0.145462	 0.293273	 -0.021569	 0.944651	 1
1463624016.285	 0	 -2.210794	 3.468092	 -1.277101	 0.652284	 0.239363	 -0.127970	 0.133210	 0.310216	 -0.021962	 0.941031	 1
1463624016.295	 0	 -1.846998	 4.102175	 -1.253053	 0.691077	 0.216308	 -0.125595	 0.122495	 0.329687	 -0.022213	 0.935846	 1
1463624016.305	 0	 -1.390332	 4.838321	 -1.343966	 0.737610	 0.196339	 -0.125685	 0.113772	 0.352316	 -0.023033	 0.928654	 1
1463624016.315	 0	 -1.047518	 5.490168	 -1.518868	 0.791546	 0.178041	 -0.128597	 0.106534	 0.377931	 -0.024849	 0.919348	 1
1463624016.325	 0	 -0.891785	 5.847933	 -1.694877	 0.850115	 0.159657	 -0.133196	 0.099842	 0.405314	 -0.027623	 0.908289	 1
1463624016.345	 1	 -0.933233	 5.787377	 -1.848549	 0.968504	 0.120237	 -0.141513	 0.085895	 0.459783	 -0.034555	 0.883192	 1
1463624016.355	 1	 -1.041233	 5.537558	 -1.874446	 1.024841	 0.099032	 -0.143133	 0.078044	 0.485349	 -0.038040	 0.869999	 1
1463624016.365	 1	 -1.094244	 5.187541	 -1.908149	 1.077449	 0.077194	 -0.143152	 0.069700	 0.508978	 -0.041594	 0.856944	 1
1463624016.375	 1	 -1.096595	 5.002788	 -2.012161	 1.127831	 0.054556	 -0.142250	 0.060963	 0.531312	 -0.045498	 0.843754	 1
1463624016.385	 1	 -0.984704	 5.126598	 -2.200623	 1.178421	 0.030758	 -0.141622	 0.052066	 0.553342	 -0.050290	 0.829803	 1
1463624016.395	 1	 -0.681515	 5.553870	 -2.412439	 1.232910	 0.005957	 -0.142851	 0.043683	 0.576496	 -0.056511	 0.813972	 1
1463624016.405	 1	 -0.246736	 5.820186	 -2.619439	 1.290557	 -0.019613	 -0.147268	 0.036430	 0.600339	 -0.064654	 0.796295	 1
1463624016.415	 1	 0.106666	 5.802759	 -2.826239	 1.348527	 -0.046411	 -0.154441	 0.030078	 0.623692	 -0.074689	 0.777512	 1
1463624016.425	 1	 0.285113	 5.560463	 -3.018687	 1.404368	 -0.075107	 -0.162638	 0.023860	 0.645627	 -0.086139	 0.758404	 1
1463624016.435	 1	 0.340068	 5.090418	 -3.133313	 1.455867	 -0.105422	 -0.170325	 0.017323	 0.665342	 -0.098340	 0.739831	 1
1463624016.445	 1	 0.249534	 4.500999	 -3.194495	 1.501685	 -0.136814	 -0.176068	 0.010063	 0.682417	 -0.110583	 0.722480	 1
1463624016.455	 1	 0.070322	 3.905325	 -3.274146	 1.541771	 -0.169229	 -0.178849	 0.001624	 0.696918	 -0.122480	 0.706613	 1
1463624016.465	 1	 -0.054928	 3.390731	 -3.298094	 1.576871	 -0.202213	 -0.178915	 -0.007830	 0.709164	 -0.133960	 0.692156	 1
1463624016.475	 1	 -0.040334	 3.075993	 -3.279834	 1.608545	 -0.235015	 -0.177622	 -0.017551	 0.719752	 -0.145213	 0.678647	 1
1463624016.485	 1	 0.128966	 3.004157	 -3.290503	 1.638879	 -0.267869	 -0.176617	 -0.026928	 0.729436	 -0.156866	 0.665275	 1
1463624016.495	 1	 0.449742	 3.136164	 -3.291002	 1.669503	 -0.300987	 -0.177510	 -0.035308	 0.738791	 -0.169513	 0.651312	 1
1463624016.505	 1	 0.910363	 3.470139	 -3.251406	 1.701914	 -0.334322	 -0.181774	 -0.041944	 0.748327	 -0.183592	 0.636036	 1
1463624016.515	 1	 1.488854	 3.922745	 -3.231982	 1.736808	 -0.368265	 -0.190794	 -0.046272	 0.758251	 -0.199617	 0.618925	 1
1463624016.525	 1	 2.067192	 4.369802	 -3.244581	 1.774200	 -0.403664	 -0.204805	 -0.048323	 0.768472	 -0.217854	 0.599713	 1
1463624016.535	 1	 2.555793	 4.559824	 -3.243869	 1.812015	 -0.440705	 -0.223072	 -0.048515	 0.778252	 -0.237962	 0.579089	 1
1463624016.545	 1	 2.880804	 4.447288	 -3.230694	 1.847589	 -0.479175	 -0.244131	 -0.047602	 0.786754	 -0.259234	 0.558167	 1
1463624016.555	 1	 3.025174	 4.068139	 -3.241874	 1.878795	 -0.518784	 -0.266224	 -0.046514	 0.793391	 -0.280930	 0.538002	 1
1463624016.565	 1	 2.987426	 3.511099	 -3.216887	 1.904488	 -0.558947	 -0.287571	 -0.046090	 0.797947	 -0.302285	 0.519403	 1
1463624016.585	 2	 2.418356	 1.948263	 -2.768197	 1.935309	 -0.632866	 -0.323673	 -0.048092	 0.800883	 -0.339786	 0.490733	 1
1463624016.595	 2	 1.999429	 1.142059	 -2.496019	 1.940833	 -0.664357	 -0.336740	 -0.050917	 0.799858	 -0.354767	 0.481429	 1
1463624016.605	 2	 1.649099	 0.463791	 -2.301049	 1.940857	 -0.692444	 -0.346544	 -0.055026	 0.797596	 -0.367432	 0.475191	 1
1463624016.615	 2	 1.425808	 0.042360	 -2.131438	 1.937133	 -0.718058	 -0.354297	 -0.059965	 0.794532	 -0.378482	 0.471036	 1
1463624016.625	 2	 1.329855	 -0.126966	 -1.906237	 1.931141	 -0.741210	 -0.361812	 -0.064782	 0.791107	 -0.388402	 0.468078	 1
1463624016.635	 2	 1.360836	 -0.116623	 -1.641036	 1.923652	 -0.761915	 -0.370905	 -0.068635	 0.787595	 -0.397657	 0.465675	 1
1463624016.645	 2	 1.452088	 -0.015901	 -1.355269	 1.914914	 -0.780208	 -0.382823	 -0.071014	 0.784125	 -0.406569	 0.463473	 1
1463624016.655	 2	 1.530507	 0.073214	 -1.062038	 1.904884	 -0.795932	 -0.397705	 -0.071844	 0.780733	 -0.415127	 0.461480	 1
1463624016.665	 2	 1.578844	 0.135687	 -0.787976	 1.893595	 -0.809144	 -0.415115	 -0.071318	 0.777415	 -0.423274	 0.459760	 1
1463624016.675	 2	 1.508439	 0.128390	 -0.502873	 1.881431	 -0.819361	 -0.433764	 -0.069716	 0.774258	 -0.430590	 0.458537	 1
1463624016.685	 2	 1.373397	 0.036877	 -0.270212	 1.868601	 -0.826682	 -0.452090	 -0.067614	 0.771232	 -0.436797	 0.458081	 1
1463624016.695	 2	 1.232790	 -0.066637	 -0.081311	 1.855343	 -0.831536	 -0.469527	 -0.065285	 0.768313	 -0.441953	 0.458378	 1
1463624016.705	 2	 1.079389	 -0.163762	 0.103497	 1.841945	 -0.834088	 -0.485767	 -0.062813	 0.765525	 -0.446081	 0.459388	 1
1463624016.715	 2	 0.853456	 -0.253232	 0.287943	 1.829162	 -0.834133	 -0.499877	 -0.060295	 0.763014	 -0.448950	 0.461106	 1
1463624016.725	 2	 0.496275	 -0.290621	 0.414333	 1.818916	 -0.831881	 -0.509861	 -0.058094	 0.761133	 -0.450235	 0.463239	 1
1463624016.735	 2	 0.223834	 -0.452784	 0.529233	 1.810644	 -0.827707	 -0.515666	 -0.056442	 0.759720	 -0.450022	 0.465961	 1
1463624016.745	 2	 0.072640	 -0.700405	 0.642282	 1.801542	 -0.821983	 -0.519301	 -0.055308	 0.758148	 -0.448810	 0.469811	 1
1463624016.755	 2	 -0.066101	 -0.791757	 0.749216	 1.792342	 -0.814877	 -0.521236	 -0.054389	 0.756576	 -0.446776	 0.474368	 1
1463624016.765	 2	 -0.171207	 -0.775699	 0.867514	 1.784180	 -0.806388	 -0.521721	 -0.053327	 0.755274	 -0.444004	 0.479142	 1
1463624016.775	 2	 -0.321680	 -0.853296	 0.959758	 1.776679	 -0.796610	 -0.520747	 -0.052234	 0.754145	 -0.440500	 0.484249	 1
1463624016.785	 2	 -0.721158	 -1.122553	 0.922363	 1.770309	 -0.786171	 -0.514979	 -0.052462	 0.753170	 -0.435646	 0.490098	 1
1463624016.795	 2	 -1.194715	 -1.392401	 0.773703	 1.765917	 -0.776082	 -0.502307	 -0.054945	 0.752439	 -0.429217	 0.496577	 1
1463624016.805	 2	 -1.531880	 -1.495528	 0.643524	 1.763727	 -0.766682	 -0.484149	 -0.059224	 0.752023	 -0.421629	 0.503173	 1
1463624016.815	 2	 -1.653777	 -1.319678	 0.643025	 1.764135	 -0.757339	 -0.463582	 -0.063879	 0.752150	 -0.413441	 0.509172	 1
1463624016.825	 2	 -1.550093	 -0.880294	 0.700564	 1.767339	 -0.747534	 -0.444128	 -0.067410	 0.753035	 -0.405396	 0.513856	 1
1463624016.835	 2	 -1.342026	 -0.329973	 0.844554	 1.773844	 -0.736913	 -0.427627	 -0.068943	 0.754927	 -0.397889	 0.516736	 1
1463624016.845	 2	 -1.086855	 0.199391	 1.050819	 1.782740	 -0.724765	 -0.415321	 -0.067994	 0.757707	 -0.390988	 0.518058	 1
1463624016.855	 2	 -0.876422	 0.567870	 1.200557	 1.793384	 -0.711377	 -0.406668	 -0.065000	 0.761171	 -0.384618	 0.518133	 1
1463624016.865	 2	 -0.787774	 0.757380	 1.262297	 1.804807	 -0.697373	 -0.400114	 -0.060937	 0.764957	 -0.378540	 0.517528	 1
1463624016.875	 2	 -0.737687	 0.952016	 1.281790	 1.817262	 -0.683181	 -0.394626	 -0.056289	 0.769053	 -0.372629	 0.516272	 1
1463624016.885	 2	 -0.644953	 1.142237	 1.296607	 1.830912	 -0.668994	 -0.390395	 -0.051016	 0.773482	 -0.366995	 0.514235	 1
1463624016.895	 2	 -0.388545	 1.230587	 1.263224	 1.843932	 -0.655448	 -0.388919	 -0.045063	 0.777750	 -0.362194	 0.511751	 1
1463624016.905	 2	 0.000041	 1.294021	 1.220998	 1.854874	 -0.643362	 -0.391984	 -0.038214	 0.781447	 -0.358943	 0.508959	 1
1463624016.915	 2	 0.376526	 1.239787	 1.227872	 1.862888	 -0.632464	 -0.399716	 -0.030448	 0.784348	 -0.357179	 0.506256	 1
1463624016.925	 2	 0.648434	 1.158450	 1.268444	 1.867910	 -0.622162	 -0.411203	 -0.021925	 0.786430	 -0.356481	 0.503953	 1
1463624016.935	 2	 0.786346	 1.176421	 1.308976	 1.871678	 -0.611993	 -0.424790	 -0.012834	 0.788113	 -0.356308	 0.501755	 1
1463624016.945	 2	 0.768721	 1.268098	 1.330232	 1.876158	 -0.601686	 -0.438725	 -0.003427	 0.789879	 -0.356138	 0.499245	 1
1463624016.955	 2	 0.580664	 1.436769	 1.339833	 1.883110	 -0.590858	 -0.450963	 0.005911	 0.792180	 -0.355310	 0.496155	 1
1463624016.965	 2	 0.272371	 1.981663	 1.260195	 1.896364	 -0.579723	 -0.459829	 0.015116	 0.795968	 -0.353432	 0.491214	 1
1463624016.975	 2	 0.044048	 2.856086	 1.040115	 1.919743	 -0.569569	 -0.465169	 0.024376	 0.802105	 -0.350827	 0.482654	 1
1463624016.985	 2	 0.053033	 3.514706	 0.637979	 1.951608	 -0.562726	 -0.468725	 0.033376	 0.809980	 -0.348706	 0.470343	 1
1463624016.995	 2	 0.302649	 3.679517	 0.146023	 1.986537	 -0.561088	 -0.472337	 0.041401	 0.818082	 -0.348281	 0.455771	 1
1463624017.005	 2	 0.820959	 3.036948	 -0.251341	 2.015466	 -0.565456	 -0.478828	 0.047900	 0.824201	 -0.350732	 0.442025	 1
1463624017.015	 2	 1.043511	 1.826767	 -0.279461	 2.031839	 -0.572678	 -0.488334	 0.052723	 0.827147	 -0.355122	 0.432362	 1
1463624017.025	 2	 0.546227	 0.772333	 -0.095237	 2.038193	 -0.577117	 -0.494979	 0.055391	 0.828086	 -0.358055	 0.427786	 1
1463624017.035	 2	 -0.003639	 0.273787	 0.161760	 2.040962	 -0.576784	 -0.496777	 0.056722	 0.828646	 -0.358236	 0.426375	 1
1463624017.045	 2	 -0.332659	 0.083282	 0.305664	 2.042935	 -0.573104	 -0.495514	 0.057555	 0.829307	 -0.356519	 0.426417	 1
1463624017.055	 2	 -0.489411	 -0.155236	 0.351703	 2.043695	 -0.567965	 -0.492509	 0.057842	 0.829840	 -0.353908	 0.427516	 1
1463624017.065	 2	 -0.531061	 -0.426002	 0.397505	 2.041728	 -0.562104	 -0.489081	 0.057668	 0.829836	 -0.351006	 0.429933	 1
1463624017.075	 2	 -0.594716	 -0.724269	 0.308957	 2.037705	 -0.556465	 -0.484801	 0.056726	 0.829391	 -0.348054	 0.433301	 1
1463624017.085	 2	 -0.499951	 -1.250612	 0.074095	 2.029145	 -0.552781	 -0.479938	 0.054234	 0.827855	 -0.345832	 0.438309	 1
1463624017.095	 2	 -0.357478	 -1.270796	 -0.304613	 2.018405	 -0.552934	 -0.474781	 0.050205	 0.825614	 -0.345034	 0.443614	 1
1463624017.105	 3	 -0.157858	 -0.749296	 -0.911114	 2.013147	 -0.558734	 -0.468564	 0.045128	 0.824286	 -0.345970	 0.445893	 1
1463624017.125	 3	 -0.073247	 -0.347056	 -1.582736	 2.012154	 -0.584534	 -0.453255	 0.031503	 0.822879	 -0.352317	 0.444691	 1
1463624017.135	 3	 -0.208581	 -0.111322	 -1.544193	 2.016283	 -0.597833	 -0.443172	 0.024406	 0.823095	 -0.355035	 0.442571	 1
1463624017.145	 3	 -0.109250	 -0.204257	 -1.412703	 2.019546	 -0.610309	 -0.434099	 0.017815	 0.823069	 -0.357701	 0.440784	 1
1463624017.155	 3	 -0.047221	 -0.105245	 -1.227945	 2.022655	 -0.621504	 -0.426503	 0.012171	 0.823010	 -0.360230	 0.439022	 1
1463624017.165	 3	 0.036441	 0.040627	 -1.025887	 2.025794	 -0.631246	 -0.420964	 0.007790	 0.822998	 -0.362675	 0.437127	 1
1463624017.175	 3	 0.147710	 0.173516	 -0.843377	 2.029647	 -0.639925	 -0.417206	 0.004574	 0.823177	 -0.365117	 0.434797	 1
1463624017.185	 3	 0.327338	 0.297873	 -0.635960	 2.032649	 -0.647354	 -0.416531	 0.002822	 0.823237	 -0.367767	 0.432459	 1
1463624017.195	 3	 0.514770	 0.558842	 -0.507272	 2.036131	 -0.654164	 -0.418820	 0.002556	 0.823430	 -0.370822	 0.429474	 1
1463624017.205	 3	 0.705114	 0.882548	 -0.526167	 2.041441	 -0.661724	 -0.423290	 0.003337	 0.823932	 -0.374615	 0.425192	 1
1463624017.215	 3	 0.861578	 1.078365	 -0.593917	 2.048070	 -0.670759	 -0.429340	 0.004637	 0.824559	 -0.379278	 0.419796	 1
1463624017.225	 3	 0.949313	 1.192407	 -0.672486	 2.055499	 -0.680846	 -0.436075	 0.006117	 0.825222	 -0.384449	 0.413726	 1
1463624017.235	 3	 0.990774	 1.254213	 -0.786309	 2.063718	 -0.692117	 -0.442721	 0.007431	 0.825895	 -0.390012	 0.407102	 1
1463624017.245	 3	 0.992440	 1.276557	 -0.931059	 2.072664	 -0.704715	 -0.448564	 0.008241	 0.826540	 -0.395874	 0.400060	 1
1463624017.255	 3	 0.945068	 1.322365	 -1.089041	 2.084165	 -0.719973	 -0.452088	 0.007948	 0.827377	 -0.402232	 0.391910	 1
1463624017.265	 3	 0.894671	 1.356875	 -1.190594	 2.095810	 -0.734612	 -0.454862	 0.007604	 0.828202	 -0.408196	 0.383926	 1
1463624017.275	 3	 0.850543	 1.316254	 -1.236416	 2.108056	 -0.749557	 -0.456483	 0.006892	 0.829013	 -0.414043	 0.375843	 1
1463624017.285	 3	 0.849890	 1.187580	 -1.273083	 2.119592	 -0.764760	 -0.457471	 0.005770	 0.829559	 -0.419869	 0.368115	 1
1463624017.305	 4	 0.794681	 1.110394	 -1.378831	 2.141745	 -0.796245	 -0.457364	 0.002388	 0.830049	 -0.431554	 0.353234	 1
1463624017.315	 4	 0.732478	 1.112127	 -1.458205	 2.154488	 -0.812292	 -0.455144	 0.000182	 0.830383	 -0.437142	 0.345500	 1
1463624017.325	 4	 0.718532	 1.006761	 -1.619996	 2.168094	 -0.829509	 -0.450872	 -0.002901	 0.830585	 -0.442845	 0.337651	 1
1463624017.335	 4	 0.749910	 0.836969	 -1.847794	 2.181925	 -0.848748	 -0.444392	 -0.007258	 0.830400	 -0.448980	 0.329850	 1
1463624017.345	 4	 0.807007	 0.735922	 -2.126383	 2.205347	 -0.875312	 -0.428767	 -0.014891	 0.830484	 -0.456509	 0.318863	 1
1463624017.355	 4	 0.845171	 0.718649	 -2.439144	 2.221609	 -0.899212	 -0.416982	 -0.021726	 0.829464	 -0.463759	 0.310556	 1
1463624017.365	 4	 0.855211	 0.795506	 -2.690036	 2.241517	 -0.925229	 -0.401592	 -0.029522	 0.828316	 -0.471420	 0.301306	 1
1463624017.375	 4	 0.880765	 0.927136	 -2.861687	 2.265474	 -0.952635	 -0.382910	 -0.037799	 0.827081	 -0.479361	 0.291069	 1
1463624017.385	 4	 0.958961	 1.021293	 -2.899862	 2.292792	 -0.980971	 -0.362032	 -0.046083	 0.825635	 -0.487643	 0.280013	 1
1463624017.395	 4	 1.008986	 1.074687	 -2.996785	 2.322777	 -1.009662	 -0.338971	 -0.054337	 0.823892	 -0.496099	 0.268579	 1
1463624017.405	 4	 1.022179	 1.047050	 -3.135706	 2.356771	 -1.038995	 -0.311593	 -0.063092	 0.821830	 -0.504663	 0.256767	 1
1463624017.415	 4	 1.024177	 0.902504	 -3.267093	 2.394946	 -1.068951	 -0.278584	 -0.072732	 0.819296	 -0.513285	 0.244955	 1
1463624017.425	 4	 0.981332	 0.698999	 -3.333628	 2.437494	 -1.098703	 -0.239075	 -0.083290	 0.816313	 -0.521684	 0.233540	 1
1463624017.435	 4	 0.851931	 0.405904	 -3.322441	 2.483779	 -1.126727	 -0.193019	 -0.094593	 0.813042	 -0.529370	 0.223121	 1
1463624017.445	 4	 0.687997	 0.093061	 -3.115036	 2.531491	 -1.151455	 -0.142157	 -0.106287	 0.809663	 -0.535889	 0.214409	 1
1463624017.455	 4	 0.464758	 0.140458	 -2.683149	 2.579732	 -1.171346	 -0.090819	 -0.116749	 0.806803	 -0.541031	 0.206697	 1
1463624017.465	 4	 0.175283	 0.236256	 -2.057332	 2.625069	 -1.184943	 -0.044132	 -0.124887	 0.805003	 -0.544437	 0.199907	 1
1463624017.475	 4	 -0.022949	 0.108318	 -1.300105	 2.658733	 -1.192206	 -0.009475	 -0.130423	 0.804156	 -0.546070	 0.195271	 1
1463624017.485	 4	 -0.095467	 -0.105613	 -0.763254	 2.679057	 -1.195493	 0.012906	 -0.134185	 0.803750	 -0.546564	 0.192999	 1
1463624017.495	 4	 -0.110003	 -0.353698	 -0.365775	 2.687941	 -1.196545	 0.025545	 -0.136932	 0.803460	 -0.546371	 0.192820	 1
1463624017.505	 4	 -0.072558	 -0.633078	 -0.009539	 2.685477	 -1.196185	 0.028985	 -0.138955	 0.803084	 -0.545723	 0.194769	 1
1463624017.515	 4	 0.004331	 -0.885231	 0.303976	 2.672115	 -1.195019	 0.023524	 -0.140299	 0.802471	 -0.544857	 0.198713	 1
1463624017.525	 4	 0.061042	 -1.060170	 0.550177	 2.650250	 -1.193171	 0.010996	 -0.141049	 0.801656	 -0.543838	 0.204189	 1
1463624017.535	 4	 0.082544	 -1.135868	 0.680374	 2.623536	 -1.190678	 -0.005670	 -0.141372	 0.800741	 -0.542680	 0.210537	 1
1463624017.545	 4	 0.091501	 -1.091897	 0.733994	 2.596019	 -1.187831	 -0.023354	 -0.141439	 0.799818	 -0.541488	 0.216972	 1
1463624017.555	 4	 0.088324	 -0.943332	 0.832388	 2.567961	 -1.184304	 -0.042982	 -0.140761	 0.799056	 -0.540268	 0.223175	 1
1463624017.565	 4	 0.040195	 -0.738984	 0.831511	 2.542266	 -1.180117	 -0.062201	 -0.139486	 0.798603	 -0.538984	 0.228634	 1
1463624017.575	 4	 -0.005055	 -0.532065	 0.746438	 2.521087	 -1.175733	 -0.078811	 -0.137967	 0.798452	 -0.537707	 0.233045	 1
1463624017.585	 4	 -0.009064	 -0.306974	 0.543941	 2.505812	 -1.172061	 -0.091394	 -0.136533	 0.798470	 -0.536696	 0.236140	 1
1463624017.605	 5	 0.003109	 0.019617	 0.264447	 2.491189	 -1.168080	 -0.105385	 -0.134292	 0.798698	 -0.535811	 0.238651	 1
1463624017.615	 5	 -0.028954	 0.100820	 0.155709	 2.488904	 -1.166809	 -0.108800	 -0.133353	 0.798976	 -0.535570	 0.238788	 1
1463624017.625	 5	 -0.054889	 0.111910	 0.061185	 2.489196	 -1.165912	 -0.109712	 -0.132778	 0.799298	 -0.535348	 0.238526	 1
1463624017.635	 5	 -0.061689	 0.070083	 0.010764	 2.490512	 -1.165310	 -0.109183	 -0.132549	 0.799572	 -0.535138	 0.238207	 1
1463624017.645	 5	 -0.065232	 0.000931	 0.006954	 2.491493	 -1.164763	 -0.108322	 -0.132550	 0.799770	 -0.534887	 0.238105	 1
1463624017.655	 5	 -0.068755	 -0.080839	 0.023276	 2.491485	 -1.164113	 -0.107681	 -0.132712	 0.799891	 -0.534556	 0.238350	 1
1463624017.665	 5	 -0.076594	 -0.179552	 0.048004	 2.490228	 -1.163268	 -0.107385	 -0.133042	 0.799935	 -0.534107	 0.239025	 1
1463624017.675	 5	 -0.088803	 -0.296366	 0.068338	 2.487493	 -1.162208	 -0.107378	 -0.133618	 0.799875	 -0.533510	 0.240236	 1
1463624017.685	 5	 -0.116686	 -0.336601	 0.082062	 2.484316	 -1.160841	 -0.107254	 -0.134312	 0.799828	 -0.532749	 0.241689	 1
1463624017.695	 5	 -0.124222	 -0.351463	 0.083055	 2.481054	 -1.159352	 -0.107014	 -0.135054	 0.799792	 -0.531919	 0.243221	 1
1463624017.705	 5	 -0.129669	 -0.368520	 0.075483	 2.477787	 -1.157853	 -0.106571	 -0.135876	 0.799739	 -0.531058	 0.244810	 1
1463624017.715	 5	 -0.123150	 -0.338802	 0.069308	 2.474820	 -1.156440	 -0.106001	 -0.136678	 0.799691	 -0.530234	 0.246303	 1
1463624017.725	 5	 -0.096065	 -0.279093	 0.100535	 2.471620	 -1.155033	 -0.106251	 -0.137214	 0.799665	 -0.529497	 0.247672	 1
1463624017.735	 5	 -0.074633	 -0.217835	 0.049762	 2.469319	 -1.154021	 -0.106288	 -0.137655	 0.799635	 -0.528949	 0.248694	 1
1463624017.745	 5	 -0.053348	 -0.203239	 0.017739	 2.467654	 -1.153415	 -0.105841	 -0.138182	 0.799548	 -0.528542	 0.249545	 1
1463624017.755	 5	 -0.039452	 -0.192680	 0.010181	 2.474078	 -1.160104	 -0.098109	 -0.140577	 0.798131	 -0.530638	 0.248291	 1
1463624017.765	 5	 -0.031980	 -0.195863	 0.014349	 2.472366	 -1.159763	 -0.097858	 -0.141080	 0.797987	 -0.530352	 0.249078	 1
1463624017.785	 6	 -0.038350	 -0.213710	 0.044080	 2.468208	 -1.158813	 -0.097957	 -0.142000	 0.797713	 -0.529700	 0.250814	 1
1463624017.795	 6	 -0.049013	 -0.216797	 0.051587	 2.471038	 -1.158684	 -0.093399	 -0.143050	 0.797776	 -0.529280	 0.250906	 1
1463624017.805	 6	 -0.057503	 -0.216686	 0.063385	 2.468559	 -1.157855	 -0.093739	 -0.143445	 0.797697	 -0.528821	 0.251895	 1
1463624017.815	 6	 -0.056701	 -0.275168	 0.066031	 2.465659	 -1.156998	 -0.094128	 -0.143928	 0.797574	 -0.528327	 0.253042	 1
1463624017.825	 6	 -0.069445	 -0.254982	 0.057804	 2.462888	 -1.156119	 -0.094260	 -0.144474	 0.797453	 -0.527801	 0.254208	 1
1463624017.835	 6	 -0.078811	 -0.208063	 0.065759	 2.470230	 -1.154843	 -0.085563	 -0.145816	 0.798075	 -0.526731	 0.253710	 1
1463624017.845	 6	 -0.070254	 -0.209106	 0.072069	 2.467922	 -1.153827	 -0.085824	 -0.146168	 0.798056	 -0.526198	 0.254671	 1
1463624017.855	 6	 -0.058576	 -0.210306	 0.058102	 2.465586	 -1.152955	 -0.086074	 -0.146552	 0.797995	 -0.525718	 0.255631	 1
1463624017.865	 6	 -0.041580	 -0.207336	 0.034534	 2.463493	 -1.152335	 -0.086109	 -0.146995	 0.797885	 -0.525326	 0.256524	 1
1463624017.875	 6	 -0.034067	 -0.180897	 0.014431	 2.467052	 -1.154325	 -0.081069	 -0.148367	 0.797469	 -0.525722	 0.256216	 1
1463624017.885	 6	 -0.037109	 -0.150018	 0.017942	 2.465652	 -1.153943	 -0.080843	 -0.148768	 0.797369	 -0.525439	 0.256874	 1
1463624017.895	 6	 -0.047612	 -0.125429	 0.031052	 2.464520	 -1.153425	 -0.080662	 -0.149060	 0.797340	 -0.525129	 0.257428	 1
1463624017.905	 6	 -0.051832	 -0.128492	 0.047046	 2.463194	 -1.152754	 -0.080720	 -0.149285	 0.797342	 -0.524775	 0.258013	 1
1463624017.915	 6	 -0.050783	 -0.135899	 0.052302	 2.462193	 -1.151211	 -0.080442	 -0.149427	 0.797579	 -0.524061	 0.258649	 1
1463624017.925	 6	 -0.045472	 -0.138066	 0.049046	 2.460290	 -1.149813	 -0.080960	 -0.149509	 0.797722	 -0.523438	 0.259421	 1
1463624017.935	 6	 -0.037037	 -0.162522	 0.053011	 2.458882	 -1.148621	 -0.080926	 -0.149711	 0.797835	 -0.522862	 0.260119	 1
1463624017.945	 6	 -0.032686	 -0.130744	 0.036211	 2.458535	 -1.148299	 -0.079992	 -0.150126	 0.797800	 -0.522588	 0.260536	 1
1463624017.955	 6	 -0.036805	 -0.106191	 0.046068	 2.458734	 -1.147162	 -0.078841	 -0.150362	 0.798024	 -0.522007	 0.260879	 1
1463624017.965	 6	 -0.031382	 -0.094439	 0.054649	 2.459023	 -1.146800	 -0.077773	 -0.150658	 0.798072	 -0.521748	 0.261081	 1
1463624017.975	 6	 -0.021731	 -0.082778	 0.052532	 2.459061	 -1.146835	 -0.077066	 -0.150936	 0.798014	 -0.521672	 0.261246	 1
1463624017.985	 6	 -0.013106	 -0.061550	 0.049450	 2.458815	 -1.146819	 -0.076790	 -0.151108	 0.797965	 -0.521611	 0.261418	 1
1463624017.995	 6	 -0.006615	 -0.039258	 0.045330	 2.459126	 -1.146897	 -0.076225	 -0.151264	 0.797944	 -0.521591	 0.261433	 1
1463624018.005	 6	 0.003072	 -0.019095	 0.042225	 2.459783	 -1.147203	 -0.075547	 -0.151409	 0.797902	 -0.521672	 0.261315	 1
1463624018.015	 6	 0.009534	 -0.002129	 0.036987	 2.460535	 -1.147607	 -0.074948	 -0.151512	 0.797854	 -0.521809	 0.261129	 1
1463624018.025	 6	 0.012758	 0.006344	 0.032767	 2.461004	 -1.147898	 -0.074696	 -0.151534	 0.797823	 -0.521926	 0.260977	 1
1463624018.035	 6	 0.010615	 0.002123	 0.035936	 2.461630	 -1.148115	 -0.074293	 -0.151563	 0.797820	 -0.522006	 0.260809	 1
1463624018.045	 6	 0.008459	 -0.003178	 0.036965	 2.461779	 -1.148323	 -0.074278	 -0.151562	 0.797786	 -0.522097	 0.260732	 1
1463624018.055	 6	 0.007372	 -0.006370	 0.035872	 2.461979	 -1.148464	 -0.074180	 -0.151570	 0.797769	 -0.522155	 0.260663	 1
1463624018.065	 6	 0.007351	 -0.011678	 0.036882	 2.461911	 -1.148693	 -0.074288	 -0.151579	 0.797711	 -0.522254	 0.260638	 1
1463624018.075	 6	 0.008419	 -0.011679	 0.036865	 2.461852	 -1.149025	 -0.074377	 -0.151608	 0.797627	 -0.522391	 0.260603	 1
1463624018.085	 6	 0.009517	 -0.006354	 0.037964	 2.461727	 -1.149332	 -0.074574	 -0.151608	 0.797549	 -0.522527	 0.260570	 1
1463624018.095	 6	 0.008486	 0.001098	 0.038034	 2.461889	 -1.149653	 -0.074564	 -0.151618	 0.797488	 -0.522664	 0.260474	 1
1463624018.105	 6	 0.010648	 0.008524	 0.035944	 2.461896	 -1.150046	 -0.074766	 -0.151594	 0.797406	 -0.522845	 0.260377	 1
1463624018.115	 6	 0.013883	 0.017010	 0.033856	 2.461971	 -1.150419	 -0.074974	 -0.151547	 0.797338	 -0.523024	 0.260253	 1
1463624018.125	 6	 0.014960	 0.023352	 0.028570	 2.462137	 -1.150805	 -0.075151	 -0.151491	 0.797276	 -0.523211	 0.260100	 1
1463624018.135	 6	 0.017128	 0.031842	 0.026491	 2.462402	 -1.151164	 -0.075304	 -0.151414	 0.797232	 -0.523392	 0.259916	 1
1463624018.145	 6	 0.016069	 0.036079	 0.023335	 2.462873	 -1.151541	 -0.075311	 -0.151344	 0.797199	 -0.523576	 0.259687	 1
1463624018.155	 6	 0.016104	 0.043530	 0.023392	 2.464046	 -1.152120	 -0.074740	 -0.151351	 0.797162	 -0.523817	 0.259308	 1
1463624018.165	 6	 0.012913	 0.044613	 0.024490	 2.464488	 -1.152381	 -0.074851	 -0.151230	 0.797162	 -0.523967	 0.259075	 1
1463624018.175	 6	 0.016129	 0.045685	 0.026597	 2.464978	 -1.152692	 -0.074940	 -0.151112	 0.797154	 -0.524138	 0.258824	 1
1463624018.185	 6	 0.015068	 0.045697	 0.027664	 2.465249	 -1.153098	 -0.075237	 -0.150983	 0.797109	 -0.524356	 0.258595	 1
1463624018.195	 6	 0.019351	 0.046766	 0.029760	 2.465795	 -1.153517	 -0.075304	 -0.150875	 0.797080	 -0.524570	 0.258316	 1
1463624018.205	 6	 0.021478	 0.046748	 0.027599	 2.466402	 -1.154035	 -0.075317	 -0.150788	 0.797028	 -0.524820	 0.258016	 1
1463624018.215	 6	 0.021477	 0.048856	 0.024411	 2.467221	 -1.154547	 -0.075150	 -0.150716	 0.796992	 -0.525061	 0.257680	 1
1463624018.225	 6	 0.019326	 0.048835	 0.020156	 2.468048	 -1.155036	 -0.074952	 -0.150650	 0.796961	 -0.525289	 0.257351	 1
1463624018.235	 6	 0.016106	 0.045649	 0.019080	 2.468882	 -1.155421	 -0.074719	 -0.150580	 0.796953	 -0.525473	 0.257039	 1
1463624018.245	 6	 0.013963	 0.045643	 0.016960	 2.469561	 -1.155744	 -0.074609	 -0.150494	 0.796950	 -0.525637	 0.256764	 1
1463624018.255	 6	 0.011818	 0.041413	 0.019063	 2.470206	 -1.156070	 -0.074496	 -0.150417	 0.796943	 -0.525798	 0.256502	 1
1463624018.265	 6	 0.010737	 0.038227	 0.019036	 2.470816	 -1.156360	 -0.074378	 -0.150346	 0.796939	 -0.525942	 0.256260	 1
1463624018.275	 6	 0.010698	 0.030776	 0.017893	 2.471342	 -1.156704	 -0.074277	 -0.150299	 0.796911	 -0.526104	 0.256041	 1
1463624018.285	 6	 0.013972	 0.025604	 0.017691	 2.471664	 -1.157049	 -0.074310	 -0.150252	 0.796868	 -0.526268	 0.255868	 1
1463624018.295	 6	 0.013948	 0.021343	 0.016581	 2.471974	 -1.157366	 -0.074318	 -0.150214	 0.796828	 -0.526416	 0.255709	 1
1463624018.305	 6	 0.012886	 0.021355	 0.017652	 2.472269	 -1.157630	 -0.074330	 -0.150170	 0.796800	 -0.526543	 0.255561	 1
1463624018.315	 6	 0.010747	 0.021356	 0.016601	 2.472645	 -1.157843	 -0.074266	 -0.150128	 0.796789	 -0.526647	 0.255406	 1
1463624018.325	 6	 0.009676	 0.021353	 0.015540	 2.473002	 -1.158058	 -0.074214	 -0.150086	 0.796776	 -0.526751	 0.255255	 1
1463624018.335	 6	 0.006455	 0.017109	 0.015524	 2.473378	 -1.158238	 -0.074108	 -0.150056	 0.796771	 -0.526836	 0.255114	 1
1463624018.345	 6	 0.004268	 0.008584	 0.012262	 2.473650	 -1.158456	 -0.074012	 -0.150054	 0.796743	 -0.526930	 0.255008	 1
1463624018.355	 6	 -0.001087	 0.004347	 0.012266	 2.473873	 -1.158626	 -0.073899	 -0.150066	 0.796720	 -0.526999	 0.254932	 1
1463624018.365	 6	 -0.002196	 -0.002054	 0.009014	 2.474236	 -1.158840	 -0.073589	 -0.150125	 0.796689	 -0.527070	 0.254847	 1
1463624018.375	 6	 -0.000079	 -0.004202	 0.006839	 2.474564	 -1.159102	 -0.073279	 -0.150200	 0.796641	 -0.527158	 0.254770	 1
1463624018.385	 6	 0.003118	 -0.005273	 0.006796	 2.474948	 -1.159384	 -0.072912	 -0.150286	 0.796591	 -0.527251	 0.254684	 1
1463624018.395	 6	 0.004173	 -0.006355	 0.004640	 2.475152	 -1.159651	 -0.072696	 -0.150358	 0.796532	 -0.527343	 0.254633	 1
1463624018.405	 6	 0.004160	 -0.007432	 0.002495	 2.475442	 -1.159906	 -0.072383	 -0.150443	 0.796481	 -0.527425	 0.254573	 1
1463624018.415	 6	 0.000933	 -0.011684	 0.001414	 2.475829	 -1.160034	 -0.071945	 -0.150534	 0.796465	 -0.527449	 0.254521	 1
1463624018.425	 6	 -0.001227	 -0.016994	 0.001380	 2.476200	 -1.160142	 -0.071469	 -0.150641	 0.796449	 -0.527458	 0.254488	 1
1463624018.435	 6	 -0.006559	 -0.015913	 0.001433	 2.476685	 -1.160186	 -0.070871	 -0.150758	 0.796454	 -0.527436	 0.254448	 1
1463624018.445	 6	 -0.010832	 -0.016962	 0.001457	 2.477059	 -1.160251	 -0.070349	 -0.150877	 0.796446	 -0.527423	 0.254430	 1
1463624018.455	 6	 -0.009765	 -0.016965	 0.001446	 2.477230	 -1.160232	 -0.070017	 -0.150961	 0.796448	 -0.527386	 0.254451	 1
1463624018.465	 6	 -0.009780	 -0.020156	 0.001415	 2.477238	 -1.160200	 -0.069811	 -0.151036	 0.796441	 -0.527348	 0.254506	 1
1463624018.475	 6	 -0.006583	 -0.021229	 0.001377	 2.477145	 -1.160194	 -0.069689	 -0.151109	 0.796422	 -0.527323	 0.254576	 1
1463624018.485	 6	 -0.005497	 -0.019089	 0.003518	 2.477053	 -1.160197	 -0.069584	 -0.151175	 0.796401	 -0.527304	 0.254640	 1
1463624018.495	 6	 -0.006559	 -0.018022	 0.003537	 2.476882	 -1.160132	 -0.069567	 -0.151218	 0.796395	 -0.527264	 0.254719	 1
1463624018.505	 6	 -0.005489	 -0.019074	 0.005649	 2.476695	 -1.160068	 -0.069566	 -0.151258	 0.796387	 -0.527224	 0.254800	 1
1463624018.515	 6	 -0.004399	 -0.017983	 0.009913	 2.476325	 -1.160006	 -0.069758	 -0.151270	 0.796370	 -0.527196	 0.254903	 1
1463624018.525	 6	 -0.002239	 -0.012671	 0.009943	 2.476034	 -1.159975	 -0.069926	 -0.151276	 0.796354	 -0.527184	 0.254978	 1
1463624018.535	 6	 -0.002194	 -0.005209	 0.012141	 2.475968	 -1.159977	 -0.069951	 -0.151283	 0.796347	 -0.527183	 0.254998	 1
1463624018.545	 6	 -0.001107	 -0.000957	 0.012169	 2.475982	 -1.159966	 -0.069959	 -0.151274	 0.796352	 -0.527180	 0.254991	 1
1463624018.555	 6	 -0.001096	 0.002227	 0.011130	 2.476166	 -1.159989	 -0.069835	 -0.151279	 0.796360	 -0.527187	 0.254948	 1
1463624018.565	 6	 -0.001087	 0.005413	 0.010090	 2.476609	 -1.159987	 -0.069504	 -0.151293	 0.796392	 -0.527178	 0.254859	 1
1463624018.575	 6	 -0.003255	 0.001143	 0.006869	 2.476992	 -1.160013	 -0.069198	 -0.151318	 0.796411	 -0.527178	 0.254785	 1
1463624018.585	 6	 -0.005419	 -0.004175	 0.005766	 2.477697	 -1.160105	 -0.068540	 -0.151408	 0.796428	 -0.527184	 0.254668	 1
1463624018.595	 6	 -0.007600	 -0.009523	 0.000402	 2.478231	 -1.160209	 -0.067967	 -0.151510	 0.796426	 -0.527192	 0.254596	 1
1463624018.605	 6	 -0.008711	 -0.016980	 -0.001793	 2.478607	 -1.160339	 -0.067459	 -0.151632	 0.796402	 -0.527207	 0.254566	 1
1463624018.615	 6	 -0.007668	 -0.022301	 -0.001855	 2.478803	 -1.160449	 -0.067064	 -0.151754	 0.796369	 -0.527215	 0.254581	 1
1463624018.625	 6	 -0.006592	 -0.022288	 0.000265	 2.478810	 -1.160479	 -0.066832	 -0.151849	 0.796345	 -0.527197	 0.254637	 1
1463624018.635	 6	 -0.005516	 -0.023332	 0.003442	 2.478705	 -1.160509	 -0.066709	 -0.151930	 0.796314	 -0.527186	 0.254708	 1
1463624018.645	 6	 -0.004425	 -0.021184	 0.006648	 2.478478	 -1.160527	 -0.066724	 -0.151986	 0.796282	 -0.527177	 0.254792	 1
1463624018.655	 6	 -0.003339	 -0.019044	 0.008789	 2.478291	 -1.160482	 -0.066738	 -0.152023	 0.796271	 -0.527147	 0.254868	 1
1463624018.665	 6	 -0.005448	 -0.014775	 0.009912	 2.478144	 -1.160476	 -0.066755	 -0.152055	 0.796255	 -0.527136	 0.254922	 1
1463624018.675	 6	 -0.006504	 -0.011588	 0.008883	 2.478078	 -1.160455	 -0.066717	 -0.152084	 0.796249	 -0.527118	 0.254960	 1
1463624018.685	 6	 -0.005417	 -0.007336	 0.008910	 2.478166	 -1.160445	 -0.066574	 -0.152116	 0.796252	 -0.527102	 0.254964	 1
1463624018.695	 6	 -0.004330	 -0.005196	 0.011050	 2.478179	 -1.160438	 -0.066531	 -0.152129	 0.796252	 -0.527095	 0.254971	 1
1463624018.705	 6	 -0.003276	 -0.007334	 0.009953	 2.478143	 -1.160473	 -0.066527	 -0.152145	 0.796238	 -0.527106	 0.254983	 1
1463624018.715	 6	 -0.000089	 -0.010534	 0.009892	 2.478044	 -1.160555	 -0.066552	 -0.152173	 0.796207	 -0.527133	 0.255007	 1
1463624018.725	 6	 0.002050	 -0.010531	 0.010936	 2.478039	 -1.160667	 -0.066500	 -0.152211	 0.796174	 -0.527170	 0.255012	 1
1463624018.735	 6	 0.000989	 -0.009463	 0.010951	 2.478032	 -1.160758	 -0.066448	 -0.152247	 0.796145	 -0.527199	 0.255019	 1
1463624018.745	 6	 -0.003284	 -0.010513	 0.010974	 2.478167	 -1.160831	 -0.066262	 -0.152296	 0.796130	 -0.527214	 0.255007	 1
1463624018.755	 6	 -0.008624	 -0.011559	 0.011007	 2.478369	 -1.160864	 -0.065986	 -0.152357	 0.796126	 -0.527207	 0.254996	 1
1463624018.765	 6	 -0.010791	 -0.015829	 0.007784	 2.478635	 -1.160896	 -0.065608	 -0.152442	 0.796123	 -0.527192	 0.254986	 1
1463624018.775	 6	 -0.010809	 -0.019027	 0.006684	 2.478791	 -1.160943	 -0.065291	 -0.152534	 0.796107	 -0.527181	 0.255003	 1
1463624018.785	 6	 -0.009744	 -0.019037	 0.005606	 2.478832	 -1.161024	 -0.065067	 -0.152624	 0.796075	 -0.527188	 0.255037	 1
1463624018.795	 6	 -0.008680	 -0.019047	 0.004527	 2.478907	 -1.161068	 -0.064823	 -0.152708	 0.796054	 -0.527180	 0.255067	 1
1463624018.805	 6	 -0.006535	 -0.017982	 0.005582	 2.478847	 -1.161110	 -0.064713	 -0.152774	 0.796028	 -0.527177	 0.255116	 1
1463624018.815	 6	 -0.004391	 -0.016917	 0.006637	 2.478635	 -1.161115	 -0.064761	 -0.152811	 0.796003	 -0.527169	 0.255187	 1
1463624018.825	 6	 -0.003298	 -0.013714	 0.008788	 2.478434	 -1.161149	 -0.064833	 -0.152841	 0.795974	 -0.527177	 0.255245	 1
1463624018.835	 6	 -0.001149	 -0.011585	 0.009853	 2.478233	 -1.161157	 -0.064930	 -0.152856	 0.795954	 -0.527177	 0.255298	 1
1463624018.845	 6	 -0.001152	 -0.011592	 0.008785	 2.478071	 -1.161166	 -0.064999	 -0.152872	 0.795936	 -0.527177	 0.255343	 1
1463624018.855	 6	 0.000991	 -0.010527	 0.009841	 2.477922	 -1.161122	 -0.065064	 -0.152880	 0.795933	 -0.527156	 0.255391	 1
1463624018.865	 6	 0.001005	 -0.007335	 0.009869	 2.477905	 -1.161097	 -0.065040	 -0.152890	 0.795936	 -0.527142	 0.255406	 1
1463624018.875	 6	 0.003154	 -0.004150	 0.009879	 2.477805	 -1.161077	 -0.065121	 -0.152881	 0.795934	 -0.527137	 0.255426	 1
1463624018.885	 6	 0.001044	 0.000120	 0.011001	 2.477694	 -1.161073	 -0.065251	 -0.152858	 0.795931	 -0.527144	 0.255437	 1
1463624018.895	 6	 -0.004266	 0.004398	 0.012152	 2.477599	 -1.161044	 -0.065399	 -0.152820	 0.795937	 -0.527144	 0.255439	 1
1463624018.905	 6	 -0.003188	 0.006523	 0.012160	 2.477595	 -1.161048	 -0.065488	 -0.152786	 0.795943	 -0.527157	 0.255416	 1
1463624018.915	 6	 -0.001042	 0.008644	 0.012159	 2.477560	 -1.161091	 -0.065629	 -0.152745	 0.795938	 -0.527189	 0.255388	 1
1463624018.925	 6	 -0.001054	 0.006509	 0.011071	 2.477451	 -1.161165	 -0.065831	 -0.152705	 0.795921	 -0.527235	 0.255371	 1
1463624018.935	 6	 0.002139	 0.003316	 0.012076	 2.477391	 -1.161261	 -0.065957	 -0.152684	 0.795898	 -0.527285	 0.255352	 1
1463624018.945	 6	 0.001050	 0.000113	 0.009921	 2.477316	 -1.161343	 -0.066059	 -0.152675	 0.795876	 -0.527324	 0.255346	 1
1463624018.955	 6	 0.001029	 -0.005196	 0.010935	 2.477330	 -1.161405	 -0.066051	 -0.152684	 0.795861	 -0.527348	 0.255337	 1
1463624018.965	 6	 -0.002176	 -0.005194	 0.009894	 2.477334	 -1.161438	 -0.066034	 -0.152694	 0.795852	 -0.527359	 0.255336	 1
1463624018.975	 6	 -0.003249	 -0.007309	 0.010946	 2.477463	 -1.161435	 -0.065879	 -0.152722	 0.795857	 -0.527348	 0.255326	 1
1463624018.985	 6	 -0.003253	 -0.008372	 0.010933	 2.477407	 -1.161440	 -0.065879	 -0.152737	 0.795849	 -0.527346	 0.255348	 1
1463624018.995	 6	 -0.001106	 -0.007298	 0.013053	 2.477384	 -1.161430	 -0.065863	 -0.152748	 0.795847	 -0.527338	 0.255362	 1
1463624019.005	 6	 0.001028	 -0.007303	 0.013031	 2.477387	 -1.161421	 -0.065837	 -0.152756	 0.795848	 -0.527331	 0.255369	 1
1463624019.015	 6	 0.002099	 -0.007297	 0.014084	 2.477443	 -1.161459	 -0.065763	 -0.152776	 0.795840	 -0.527341	 0.255362	 1
1463624019.025	 6	 0.002116	 -0.003049	 0.013052	 2.477573	 -1.161544	 -0.065663	 -0.152794	 0.795827	 -0.527372	 0.255328	 1
1463624019.035	 6	 0.004256	 0.000122	 0.010927	 2.477759	 -1.161630	 -0.065535	 -0.152808	 0.795819	 -0.527403	 0.255279	 1
1463624019.045	 6	 0.003191	 0.001182	 0.009876	 2.477876	 -1.161715	 -0.065472	 -0.152815	 0.795808	 -0.527437	 0.255241	 1
1463624019.055	 6	 0.002129	 0.004363	 0.007780	 2.478123	 -1.161750	 -0.065309	 -0.152820	 0.795818	 -0.527449	 0.255181	 1
1463624019.065	 6	 -0.002149	 0.004361	 0.005682	 2.478391	 -1.161750	 -0.065117	 -0.152826	 0.795837	 -0.527445	 0.255126	 1
1463624019.075	 6	 -0.001104	 0.000104	 0.005632	 2.478603	 -1.161710	 -0.064942	 -0.152834	 0.795861	 -0.527424	 0.255091	 1
1463624019.085	 6	 -0.006466	 -0.005197	 0.005627	 2.478835	 -1.161656	 -0.064701	 -0.152860	 0.795886	 -0.527389	 0.255068	 1
1463624019.095	 6	 -0.008614	 -0.009429	 0.007736	 2.478998	 -1.161516	 -0.064477	 -0.152886	 0.795925	 -0.527318	 0.255077	 1
1463624019.105	 6	 -0.008624	 -0.011555	 0.007714	 2.479040	 -1.161448	 -0.064340	 -0.152920	 0.795938	 -0.527277	 0.255103	 1
1463624019.115	 6	 -0.007564	 -0.014733	 0.009804	 2.479090	 -1.161405	 -0.064175	 -0.152966	 0.795942	 -0.527243	 0.255131	 1
1463624019.125	 6	 -0.006494	 -0.014736	 0.009791	 2.479071	 -1.161495	 -0.064067	 -0.153027	 0.795909	 -0.527263	 0.255158	 1
1463624019.135	 6	 -0.003285	 -0.013680	 0.009767	 2.479139	 -1.161620	 -0.063899	 -0.153094	 0.795872	 -0.527296	 0.255162	 1
1463624019.145	 6	 0.000995	 -0.010509	 0.008688	 2.479215	 -1.161748	 -0.063756	 -0.153150	 0.795839	 -0.527334	 0.255157	 1
1463624019.155	 6	 0.004193	 -0.010524	 0.007590	 2.479304	 -1.161881	 -0.063609	 -0.153204	 0.795805	 -0.527374	 0.255146	 1
1463624019.165	 6	 -0.000108	 -0.015844	 0.005442	 2.479394	 -1.161982	 -0.063416	 -0.153272	 0.795776	 -0.527396	 0.255151	 1
1463624019.175	 6	 -0.006564	 -0.023300	 0.001162	 2.479533	 -1.162021	 -0.063079	 -0.153375	 0.795758	 -0.527379	 0.255181	 1
1463624019.185	 6	 -0.009791	 -0.029664	 0.002194	 2.479486	 -1.162017	 -0.062838	 -0.153482	 0.795734	 -0.527343	 0.255264	 1
1463624019.195	 6	 -0.013003	 -0.031782	 0.002202	 2.479409	 -1.161884	 -0.062596	 -0.153580	 0.795740	 -0.527254	 0.255371	 1
1463624019.205	 6	 -0.012997	 -0.029662	 0.001155	 2.479292	 -1.161812	 -0.062396	 -0.153680	 0.795728	 -0.527191	 0.255478	 1
1463624019.215	 6	 -0.009787	 -0.029656	 0.003259	 2.479114	 -1.161683	 -0.062262	 -0.153761	 0.795728	 -0.527110	 0.255597	 1
1463624019.225	 6	 -0.006567	 -0.026467	 0.004326	 2.478966	 -1.161616	 -0.062136	 -0.153841	 0.795716	 -0.527056	 0.255696	 1
1463624019.235	 6	 -0.003362	 -0.023309	 0.001129	 2.478804	 -1.161631	 -0.062059	 -0.153916	 0.795686	 -0.527040	 0.255780	 1
1463624019.245	 6	 0.000940	 -0.014828	 -0.000962	 2.478610	 -1.161717	 -0.062080	 -0.153972	 0.795641	 -0.527061	 0.255843	 1
1463624019.255	 6	 0.004173	 -0.008455	 -0.000933	 2.478565	 -1.161803	 -0.062033	 -0.154014	 0.795609	 -0.527085	 0.255864	 1
1463624019.265	 6	 0.005275	 -0.002069	 0.000183	 2.478392	 -1.161881	 -0.062175	 -0.154015	 0.795578	 -0.527121	 0.255887	 1
1463624019.275	 6	 0.005383	 0.000264	 0.005425	 2.478125	 -1.161896	 -0.062442	 -0.153981	 0.795561	 -0.527140	 0.255922	 1
1463624019.285	 6	 0.005380	 -0.001849	 0.007538	 2.477827	 -1.161814	 -0.062732	 -0.153932	 0.795566	 -0.527122	 0.255972	 1
1463624019.295	 6	 0.008569	 -0.006098	 0.009604	 2.477423	 -1.161761	 -0.063101	 -0.153884	 0.795556	 -0.527118	 0.256041	 1
1463624019.305	 6	 0.007496	 -0.008214	 0.010660	 2.477018	 -1.161709	 -0.063452	 -0.153844	 0.795544	 -0.527111	 0.256115	 1
1463624019.315	 6	 0.006454	 -0.006052	 0.014952	 2.476764	 -1.161601	 -0.063687	 -0.153802	 0.795558	 -0.527079	 0.256165	 1
1463624019.325	 6	 0.005395	 -0.003921	 0.014980	 2.476665	 -1.161545	 -0.063790	 -0.153779	 0.795567	 -0.527063	 0.256183	 1
1463624019.335	 6	 0.004333	 -0.000741	 0.012884	 2.476737	 -1.161515	 -0.063765	 -0.153766	 0.795582	 -0.527054	 0.256164	 1
1463624019.345	 6	 0.001141	 0.001397	 0.012930	 2.476827	 -1.161493	 -0.063729	 -0.153753	 0.795596	 -0.527047	 0.256140	 1
1463624019.355	 6	 0.002208	 0.001396	 0.012913	 2.477376	 -1.161634	 -0.063277	 -0.153808	 0.795596	 -0.527087	 0.256026	 1
1463624019.365	 6	 0.003273	 0.002442	 0.010778	 2.477564	 -1.161779	 -0.063165	 -0.153825	 0.795574	 -0.527144	 0.255966	 1
1463624019.375	 6	 0.004314	 -0.000774	 0.007537	 2.477588	 -1.161973	 -0.063184	 -0.153838	 0.795530	 -0.527224	 0.255932	 1
1463624019.385	 6	 0.007493	 -0.005046	 0.006401	 2.477550	 -1.162179	 -0.063224	 -0.153862	 0.795475	 -0.527307	 0.255915	 1
1463624019.395	 6	 0.008526	 -0.011438	 0.005264	 2.477453	 -1.162335	 -0.063272	 -0.153891	 0.795427	 -0.527367	 0.255925	 1
1463624019.405	 6	 0.009593	 -0.012496	 0.006307	 2.477359	 -1.162498	 -0.063287	 -0.153934	 0.795374	 -0.527426	 0.255942	 1
1463624019.415	 6	 0.008541	 -0.010357	 0.007400	 2.477206	 -1.162589	 -0.063365	 -0.153956	 0.795337	 -0.527460	 0.255973	 1
1463624019.425	 6	 0.007488	 -0.007162	 0.007437	 2.477101	 -1.162653	 -0.063425	 -0.153969	 0.795312	 -0.527484	 0.255993	 1
1463624019.435	 6	 0.008589	 -0.001831	 0.009606	 2.477017	 -1.162715	 -0.063526	 -0.153960	 0.795294	 -0.527515	 0.255993	 1
1463624019.445	 6	 0.007546	 0.003491	 0.009663	 2.476989	 -1.162721	 -0.063620	 -0.153931	 0.795296	 -0.527527	 0.255979	 1
1463624019.455	 6	 0.008659	 0.006757	 0.010725	 2.476972	 -1.162808	 -0.063745	 -0.153898	 0.795281	 -0.527576	 0.255944	 1
1463624019.465	 6	 0.006525	 0.007820	 0.009686	 2.477007	 -1.162845	 -0.063829	 -0.153861	 0.795282	 -0.527604	 0.255904	 1
1463624019.475	 6	 0.006540	 0.009955	 0.010769	 2.477005	 -1.162951	 -0.063968	 -0.153822	 0.795266	 -0.527663	 0.255857	 1
1463624019.485	 6	 0.004408	 0.009962	 0.010785	 2.476927	 -1.163072	 -0.064175	 -0.153778	 0.795241	 -0.527731	 0.255821	 1
1463624019.495	 6	 0.005477	 0.009958	 0.010775	 2.476694	 -1.163208	 -0.064526	 -0.153719	 0.795203	 -0.527811	 0.255807	 1
1463624019.505	 6	 0.009748	 0.008890	 0.011791	 2.476443	 -1.163464	 -0.064899	 -0.153674	 0.795135	 -0.527940	 0.255782	 1
1463624019.515	 6	 0.009752	 0.008890	 0.011788	 2.476180	 -1.163725	 -0.065289	 -0.153626	 0.795064	 -0.528072	 0.255757	 1
1463624019.525	 6	 0.012949	 0.007817	 0.011747	 2.476178	 -1.163927	 -0.065429	 -0.153600	 0.795023	 -0.528169	 0.255700	 1
1463624019.535	 6	 0.015089	 0.009931	 0.010679	 2.476232	 -1.164067	 -0.065540	 -0.153562	 0.795003	 -0.528242	 0.255635	 1
1463624019.545	 6	 0.012962	 0.014170	 0.007536	 2.476452	 -1.164243	 -0.065518	 -0.153538	 0.794985	 -0.528325	 0.255536	 1
1463624019.555	 6	 0.010814	 0.013099	 0.005410	 2.476728	 -1.164398	 -0.065433	 -0.153522	 0.794974	 -0.528396	 0.255432	 1
1463624019.565	 6	 0.007581	 0.006727	 0.005376	 2.477053	 -1.164489	 -0.065240	 -0.153525	 0.794977	 -0.528432	 0.255345	 1
1463624019.575	 6	 0.005441	 0.005671	 0.005383	 2.477201	 -1.164524	 -0.065186	 -0.153513	 0.794983	 -0.528450	 0.255297	 1
1463624019.585	 6	 0.006515	 0.004628	 0.008561	 2.477212	 -1.164535	 -0.065256	 -0.153484	 0.794987	 -0.528464	 0.255273	 1
1463624019.595	 6	 0.008687	 0.009963	 0.011788	 2.477177	 -1.164529	 -0.065428	 -0.153424	 0.794997	 -0.528481	 0.255242	 1
1463624019.605	 6	 0.010825	 0.007853	 0.014945	 2.476975	 -1.164655	 -0.065756	 -0.153365	 0.794964	 -0.528557	 0.255223	 1
1463624019.615	 6	 0.010830	 0.007861	 0.016008	 2.476801	 -1.164762	 -0.066063	 -0.153305	 0.794938	 -0.528624	 0.255199	 1
1463624019.625	 6	 0.011928	 0.014241	 0.016056	 2.476700	 -1.164848	 -0.066350	 -0.153230	 0.794926	 -0.528687	 0.255155	 1
1463624019.635	 6	 0.010816	 0.016318	 0.016194	 2.476676	 -1.164883	 -0.066595	 -0.153144	 0.794932	 -0.528730	 0.255096	 1
1463624019.645	 6	 0.010837	 0.021629	 0.015175	 2.476756	 -1.164925	 -0.066786	 -0.153053	 0.794946	 -0.528777	 0.255010	 1
1463624019.655	 6	 0.008693	 0.022677	 0.012005	 2.476947	 -1.164919	 -0.066882	 -0.152964	 0.794980	 -0.528802	 0.254909	 1
1463624019.665	 6	 0.006554	 0.022676	 0.010956	 2.477199	 -1.164901	 -0.066915	 -0.152881	 0.795019	 -0.528818	 0.254802	 1
1463624019.675	 6	 0.004393	 0.017365	 0.010925	 2.477311	 -1.164840	 -0.067032	 -0.152796	 0.795058	 -0.528817	 0.254733	 1
1463624019.685	 6	 0.001195	 0.017383	 0.012017	 2.477525	 -1.164802	 -0.067021	 -0.152738	 0.795094	 -0.528818	 0.254654	 1
1463624019.695	 6	 -0.000925	 0.019524	 0.013120	 2.477651	 -1.164776	 -0.067120	 -0.152662	 0.795124	 -0.528830	 0.254581	 1
1463624019.705	 6	 -0.003038	 0.023786	 0.013176	 2.477852	 -1.164781	 -0.067177	 -0.152587	 0.795153	 -0.528854	 0.254485	 1
1463624019.715	 6	 -0.003028	 0.025914	 0.013193	 2.478210	 -1.164788	 -0.067118	 -0.152517	 0.795192	 -0.528877	 0.254358	 1
1463624019.725	 6	 -0.000892	 0.026964	 0.012116	 2.478475	 -1.164880	 -0.067159	 -0.152443	 0.795205	 -0.528938	 0.254232	 1
1463624019.735	 6	 0.001244	 0.026958	 0.012094	 2.478812	 -1.165005	 -0.067132	 -0.152383	 0.795214	 -0.529009	 0.254093	 1
1463624019.745	 6	 0.004421	 0.021631	 0.012014	 2.479035	 -1.165094	 -0.067184	 -0.152316	 0.795224	 -0.529068	 0.253981	 1
1463624019.755	 6	 0.003314	 0.013125	 0.011942	 2.479200	 -1.165194	 -0.067218	 -0.152274	 0.795222	 -0.529124	 0.253896	 1
1463624019.765	 6	 -0.002066	 0.004625	 0.010840	 2.479349	 -1.165296	 -0.067171	 -0.152268	 0.795211	 -0.529169	 0.253839	 1
1463624019.775	 6	 -0.004295	 -0.002850	 0.012049	 2.479316	 -1.165377	 -0.067229	 -0.152265	 0.795190	 -0.529206	 0.253828	 1
1463624019.795	 7	 -0.005400	 -0.011356	 0.011975	 2.479180	 -1.165483	 -0.067240	 -0.152312	 0.795147	 -0.529238	 0.253869	 1
1463624019.805	 7	 0.001003	 -0.012431	 0.012973	 2.478924	 -1.165554	 -0.067402	 -0.152326	 0.795109	 -0.529267	 0.253920	 1
1463624019.815	 7	 0.004226	 -0.009242	 0.014038	 2.478593	 -1.165669	 -0.067662	 -0.152327	 0.795057	 -0.529320	 0.253971	 1
1463624019.825	 7	 0.007459	 -0.002869	 0.014067	 2.478273	 -1.165803	 -0.067973	 -0.152307	 0.795006	 -0.529388	 0.254002	 1
1463624019.835	 7	 0.007481	 0.003498	 0.011993	 2.478202	 -1.165910	 -0.068114	 -0.152285	 0.794980	 -0.529442	 0.253982	 1
1463624019.845	 7	 0.007483	 0.005611	 0.009879	 2.478164	 -1.166014	 -0.068248	 -0.152257	 0.794959	 -0.529497	 0.253951	 1
1463624019.855	 7	 0.003211	 0.006672	 0.007793	 2.478256	 -1.166061	 -0.068250	 -0.152238	 0.794959	 -0.529523	 0.253909	 1
1463624019.865	 7	 0.002130	 0.004541	 0.006715	 2.478289	 -1.166111	 -0.068292	 -0.152220	 0.794954	 -0.529550	 0.253880	 1
1463624019.875	 7	 0.003181	 0.000291	 0.007731	 2.478303	 -1.166160	 -0.068324	 -0.152211	 0.794945	 -0.529574	 0.253861	 1
1463624019.885	 7	 0.002109	 -0.001825	 0.008784	 2.478270	 -1.166223	 -0.068379	 -0.152207	 0.794929	 -0.529604	 0.253852	 1
1463624019.895	 7	 0.001022	 -0.006076	 0.008752	 2.478259	 -1.166304	 -0.068378	 -0.152222	 0.794907	 -0.529634	 0.253849	 1
1463624019.905	 7	 -0.000054	 -0.007144	 0.007683	 2.478357	 -1.166362	 -0.068249	 -0.152256	 0.794895	 -0.529648	 0.253838	 1
1463624019.915	 7	 -0.000045	 -0.007128	 0.009812	 2.478384	 -1.166454	 -0.068183	 -0.152288	 0.794870	 -0.529678	 0.253835	 1
1463624019.925	 7	 -0.001112	 -0.007124	 0.009820	 2.478400	 -1.166496	 -0.068132	 -0.152310	 0.794857	 -0.529689	 0.253838	 1
1463624019.935	 7	 -0.003251	 -0.009237	 0.010882	 2.478335	 -1.166564	 -0.068140	 -0.152334	 0.794832	 -0.529711	 0.253855	 1
1463624019.945	 7	 -0.003348	 -0.011465	 0.011132	 2.478206	 -1.166637	 -0.068184	 -0.152361	 0.794800	 -0.529736	 0.253887	 1
1463624019.955	 7	 -0.003361	 -0.013600	 0.010044	 2.478162	 -1.166703	 -0.068129	 -0.152404	 0.794774	 -0.529751	 0.253912	 1
1463624019.965	 7	 -0.003361	 -0.013599	 0.010042	 2.478134	 -1.166737	 -0.068050	 -0.152448	 0.794755	 -0.529752	 0.253941	 1
1463624019.975	 7	 -0.004436	 -0.013611	 0.007919	 2.478057	 -1.166756	 -0.068008	 -0.152488	 0.794737	 -0.529749	 0.253980	 1
1463624019.985	 7	 -0.006565	 -0.012541	 0.007945	 2.478105	 -1.166739	 -0.067858	 -0.152532	 0.794737	 -0.529726	 0.254003	 1
1463624019.995	 7	 -0.006549	 -0.008293	 0.006917	 2.478272	 -1.166700	 -0.067623	 -0.152576	 0.794750	 -0.529694	 0.254003	 1
1463624020.005	 7	 -0.006544	 -0.006173	 0.005870	 2.478493	 -1.166651	 -0.067360	 -0.152615	 0.794770	 -0.529658	 0.253990	 1
1463624020.015	 7	 -0.006539	 -0.006165	 0.006934	 2.478640	 -1.166645	 -0.067173	 -0.152649	 0.794776	 -0.529644	 0.253982	 1
1463624020.025	 7	 -0.005482	 -0.009351	 0.007959	 2.478600	 -1.166681	 -0.067144	 -0.152677	 0.794760	 -0.529651	 0.254001	 1
1463624020.035	 7	 -0.001223	 -0.011491	 0.007901	 2.478535	 -1.166713	 -0.067115	 -0.152710	 0.794741	 -0.529655	 0.254032	 1
1463624020.045	 7	 -0.001218	 -0.011483	 0.008965	 2.478397	 -1.166780	 -0.067164	 -0.152737	 0.794710	 -0.529677	 0.254066	 1
1463624020.055	 7	 0.001978	 -0.013612	 0.009982	 2.478164	 -1.166841	 -0.067288	 -0.152758	 0.794674	 -0.529699	 0.254120	 1
1463624020.065	 7	 -0.000166	 -0.016789	 0.011036	 2.477832	 -1.166871	 -0.067476	 -0.152776	 0.794639	 -0.529709	 0.254199	 1
1463624020.075	 7	 -0.002291	 -0.016767	 0.013184	 2.477605	 -1.166864	 -0.067564	 -0.152800	 0.794619	 -0.529700	 0.254267	 1
1463624020.085	 7	 -0.002296	 -0.017830	 0.013173	 2.477383	 -1.166863	 -0.067649	 -0.152825	 0.794597	 -0.529693	 0.254333	 1
1463624020.095	 7	 -0.003372	 -0.018898	 0.012105	 2.477159	 -1.166856	 -0.067718	 -0.152856	 0.794576	 -0.529682	 0.254404	 1
1463624020.105	 7	 -0.003457	 -0.018980	 0.013412	 2.476953	 -1.166882	 -0.067771	 -0.152893	 0.794547	 -0.529684	 0.254469	 1
1463624020.115	 7	 -0.005595	 -0.018981	 0.012364	 2.476697	 -1.166843	 -0.067855	 -0.152922	 0.794531	 -0.529659	 0.254553	 1
1463624020.125	 7	 -0.004522	 -0.016864	 0.011308	 2.476499	 -1.166797	 -0.067894	 -0.152952	 0.794520	 -0.529631	 0.254625	 1
1463624020.135	 7	 -0.003450	 -0.015803	 0.011307	 2.476346	 -1.166783	 -0.067912	 -0.152983	 0.794506	 -0.529616	 0.254683	 1
1463624020.155	 8	 -0.000238	 -0.014741	 0.012351	 2.476096	 -1.166823	 -0.067921	 -0.153052	 0.794464	 -0.529614	 0.254776	 1
1463624020.165	 8	 -0.000246	 -0.014756	 0.010218	 2.475969	 -1.166845	 -0.067931	 -0.153085	 0.794443	 -0.529614	 0.254821	 1
1463624020.175	 8	 0.000816	 -0.015822	 0.010197	 2.475940	 -1.166879	 -0.067849	 -0.153130	 0.794425	 -0.529615	 0.254851	 1
1463624020.185	 8	 0.000820	 -0.015814	 0.011261	 2.475809	 -1.166924	 -0.067865	 -0.153164	 0.794398	 -0.529624	 0.254894	 1
1463624020.195	 8	 -0.001295	 -0.012609	 0.012374	 2.475690	 -1.166928	 -0.067879	 -0.153191	 0.794382	 -0.529619	 0.254937	 1
1463624020.205	 8	 -0.003404	 -0.008339	 0.013496	 2.475643	 -1.166897	 -0.067865	 -0.153205	 0.794383	 -0.529601	 0.254963	 1
1463624020.215	 8	 -0.006588	 -0.006186	 0.015674	 2.475737	 -1.166755	 -0.067757	 -0.153202	 0.794423	 -0.529539	 0.254969	 1
1463624020.225	 8	 -0.008715	 -0.005108	 0.016768	 2.475834	 -1.166554	 -0.067644	 -0.153192	 0.794479	 -0.529453	 0.254981	 1
1463624020.235	 8	 -0.010853	 -0.008269	 0.019953	 2.475931	 -1.166317	 -0.067527	 -0.153178	 0.794542	 -0.529353	 0.254998	 1
1463624020.245	 8	 -0.008719	 -0.008275	 0.019933	 2.476020	 -1.166127	 -0.067415	 -0.153172	 0.794594	 -0.529271	 0.255012	 1
1463624020.255	 8	 -0.006553	 -0.004003	 0.023150	 2.475934	 -1.165942	 -0.067494	 -0.153136	 0.794636	 -0.529202	 0.255044	 1
1463624020.265	 8	 -0.004487	 0.003337	 0.022349	 2.475895	 -1.165742	 -0.067594	 -0.153078	 0.794690	 -0.529134	 0.255054	 1
1463624020.275	 8	 -0.006601	 0.008655	 0.021350	 2.475936	 -1.165535	 -0.067678	 -0.153004	 0.794754	 -0.529067	 0.255037	 1
1463624020.285	 8	 -0.009793	 0.011848	 0.020341	 2.476066	 -1.165291	 -0.067715	 -0.152919	 0.794836	 -0.528986	 0.255001	 1
1463624020.295	 8	 -0.014057	 0.012925	 0.020388	 2.476181	 -1.164997	 -0.067753	 -0.152831	 0.794929	 -0.528885	 0.254975	 1
1463624020.305	 8	 -0.021469	 0.023599	 0.022684	 2.476450	 -1.164620	 -0.067720	 -0.152718	 0.795057	 -0.528753	 0.254916	 1
1463624020.315	 8	 -0.037416	 0.038524	 0.020829	 2.477315	 -1.164123	 -0.067228	 -0.152613	 0.795256	 -0.528562	 0.254753	 1
1463624020.325	 8	 -0.055556	 0.043859	 0.015707	 2.478745	 -1.163541	 -0.066239	 -0.152544	 0.795511	 -0.528318	 0.254505	 1
1463624020.335	 8	 -0.064112	 0.043854	 0.011517	 2.480327	 -1.162902	 -0.065070	 -0.152500	 0.795786	 -0.528039	 0.254250	 1
1463624020.345	 8	 -0.071563	 0.047076	 0.012676	 2.481955	 -1.162244	 -0.063874	 -0.152451	 0.796070	 -0.527753	 0.253985	 1
1463624020.355	 8	 -0.072632	 0.039696	 0.021142	 2.483215	 -1.161567	 -0.062996	 -0.152371	 0.796336	 -0.527472	 0.253783	 1
1463624020.365	 8	 -0.067331	 0.026962	 0.027372	 2.484060	 -1.160903	 -0.062417	 -0.152284	 0.796568	 -0.527202	 0.253666	 1
1463624020.375	 8	 -0.059906	 0.011038	 0.034619	 2.484352	 -1.160326	 -0.062241	 -0.152195	 0.796739	 -0.526975	 0.253655	 1
1463624020.385	 8	 -0.053534	 -0.003803	 0.044016	 2.484251	 -1.159844	 -0.062330	 -0.152117	 0.796856	 -0.526790	 0.253720	 1
1463624020.395	 8	 -0.053497	 0.002587	 0.045140	 2.484119	 -1.159371	 -0.062470	 -0.152028	 0.796970	 -0.526611	 0.253783	 1
1463624020.405	 8	 -0.058782	 0.017456	 0.039992	 2.484792	 -1.158952	 -0.061976	 -0.151988	 0.797125	 -0.526435	 0.253688	 1
1463624020.415	 8	 -0.066389	 0.015192	 0.030555	 2.485926	 -1.158473	 -0.061024	 -0.152001	 0.797319	 -0.526212	 0.253534	 1
1463624020.425	 8	 -0.068655	 -0.007184	 0.023968	 2.487213	 -1.158007	 -0.059805	 -0.152082	 0.797508	 -0.525972	 0.253388	 1
1463624020.435	 8	 -0.078472	 -0.042340	 0.011998	 2.488194	 -1.157672	 -0.058367	 -0.152350	 0.797608	 -0.525733	 0.253408	 1
1463624020.445	 8	 -0.098479	 0.021481	 0.004236	 2.490267	 -1.157068	 -0.056297	 -0.152545	 0.797867	 -0.525391	 0.253185	 1
1463624020.455	 8	 -0.090924	 0.050086	 -0.008357	 2.493054	 -1.156525	 -0.053934	 -0.152680	 0.798178	 -0.525091	 0.252747	 1
1463624020.465	 8	 -0.073972	 0.032939	 -0.019324	 2.494952	 -1.156316	 -0.052293	 -0.152807	 0.798346	 -0.524946	 0.252441	 1
1463624020.475	 8	 -0.067640	 0.020133	 -0.022698	 2.496635	 -1.156197	 -0.050724	 -0.152975	 0.798468	 -0.524830	 0.252192	 1
1463624020.485	 8	 -0.067641	 0.016966	 -0.019533	 2.498305	 -1.156019	 -0.049131	 -0.153148	 0.798602	 -0.524686	 0.251960	 1
1463624020.495	 8	 -0.065536	 0.010577	 -0.019612	 2.499768	 -1.155772	 -0.047686	 -0.153307	 0.798739	 -0.524519	 0.251779	 1
1463624020.505	 8	 -0.066643	 0.001015	 -0.018627	 2.501082	 -1.155492	 -0.046281	 -0.153485	 0.798868	 -0.524332	 0.251649	 1
1463624020.515	 8	 -0.068804	 -0.007464	 -0.015490	 2.502228	 -1.155168	 -0.044961	 -0.153668	 0.798994	 -0.524126	 0.251568	 1
1463624020.525	 8	 -0.073196	 -0.025603	 -0.025213	 2.503412	 -1.154807	 -0.043447	 -0.153913	 0.799119	 -0.523884	 0.251526	 1
1463624020.535	 8	 -0.075363	 -0.042530	 -0.013632	 2.504841	 -1.154619	 -0.041540	 -0.154275	 0.799200	 -0.523679	 0.251472	 1
1463624020.545	 8	 -0.090245	 -0.037105	 -0.004926	 2.505898	 -1.153886	 -0.039991	 -0.154517	 0.799401	 -0.523276	 0.251524	 1
1463624020.555	 8	 -0.112727	 -0.046657	 -0.011214	 2.507268	 -1.153012	 -0.038061	 -0.154812	 0.799649	 -0.522793	 0.251562	 1
1463624020.565	 8	 -0.128831	 -0.074202	 -0.002807	 2.508831	 -1.152193	 -0.035701	 -0.155236	 0.799872	 -0.522292	 0.251629	 1
1463624020.575	 8	 -0.138469	 -0.085834	 0.002496	 2.510052	 -1.151178	 -0.033510	 -0.155658	 0.800116	 -0.521708	 0.251805	 1
1463624020.585	 8	 -0.151371	 -0.096517	 -0.009217	 2.511353	 -1.150287	 -0.031103	 -0.156161	 0.800321	 -0.521152	 0.251993	 1
1463624020.595	 8	 -0.085671	 -0.419977	 0.015063	 2.510237	 -1.149392	 -0.029199	 -0.157094	 0.800261	 -0.520468	 0.253016	 1
1463624020.605	 8	 0.056081	 -0.713699	 0.049463	 2.502049	 -1.149303	 -0.030802	 -0.158571	 0.799368	 -0.519991	 0.255882	 1
1463624020.615	 8	 0.087211	 -1.042118	 -0.051915	 2.491663	 -1.150072	 -0.031299	 -0.161177	 0.797872	 -0.519530	 0.259829	 1
1463624020.625	 8	 0.104236	 -0.775642	 -0.112463	 2.483300	 -1.151510	 -0.030948	 -0.163688	 0.796383	 -0.519374	 0.263119	 1
1463624020.635	 8	 0.013391	 -0.309879	 -0.162758	 2.481208	 -1.152754	 -0.028613	 -0.165335	 0.795597	 -0.519386	 0.264441	 1
1463624020.645	 8	 -0.096321	 -0.020423	 -0.185753	 2.484649	 -1.153305	 -0.024002	 -0.166352	 0.795528	 -0.519279	 0.264218	 1
1463624020.655	 8	 -0.146088	 0.054246	 -0.176099	 2.490182	 -1.153255	 -0.018414	 -0.167132	 0.795805	 -0.518984	 0.263472	 1
1463624020.665	 8	 -0.130215	 0.031815	 -0.182840	 2.495905	 -1.153055	 -0.012658	 -0.167911	 0.796127	 -0.518627	 0.262705	 1
1463624020.675	 8	 -0.084515	 -0.006622	 -0.184661	 2.500555	 -1.153383	 -0.007580	 -0.168770	 0.796225	 -0.518482	 0.262142	 1
1463624020.685	 8	 -0.040669	 0.005017	 -0.175343	 2.504440	 -1.154049	 -0.003311	 -0.169551	 0.796201	 -0.518516	 0.261644	 1
1463624020.695	 8	 -0.017855	 0.066843	 -0.147256	 2.508070	 -1.154787	 0.000114	 -0.170070	 0.796193	 -0.518671	 0.261024	 1
1463624020.705	 8	 -0.008914	 0.127653	 -0.117988	 2.510662	 -1.155239	 0.001876	 -0.170158	 0.796264	 -0.518842	 0.260411	 1
1463624020.715	 8	 0.003081	 0.157609	 -0.089039	 2.513953	 -1.155798	 0.003809	 -0.170146	 0.796382	 -0.519093	 0.259555	 1
1463624020.725	 8	 0.031959	 0.153423	 -0.068014	 2.516509	 -1.156424	 0.004896	 -0.169996	 0.796458	 -0.519419	 0.258768	 1
1463624020.735	 8	 0.053333	 0.144981	 -0.050160	 2.518323	 -1.157147	 0.005284	 -0.169771	 0.796471	 -0.519811	 0.258086	 1
1463624020.745	 8	 0.068344	 0.164112	 -0.036170	 2.519737	 -1.157889	 0.005105	 -0.169427	 0.796475	 -0.520250	 0.257415	 1
1463624020.755	 8	 0.082414	 0.200281	 -0.029561	 2.521169	 -1.158707	 0.004586	 -0.168952	 0.796489	 -0.520764	 0.256642	 1
1463624020.765	 8	 0.091165	 0.240713	 -0.023932	 2.522761	 -1.159585	 0.003808	 -0.168339	 0.796530	 -0.521348	 0.255732	 1
1463624020.775	 8	 0.089098	 0.256659	 -0.025897	 2.524591	 -1.160468	 0.002999	 -0.167651	 0.796601	 -0.521957	 0.254720	 1
1463624020.785	 8	 0.089749	 0.177858	 -0.038359	 2.525126	 -1.161845	 0.001566	 -0.167115	 0.796428	 -0.522732	 0.254018	 1
1463624020.795	 8	 0.114370	 0.183196	 -0.025735	 2.526006	 -1.162910	 0.000628	 -0.166646	 0.796340	 -0.523349	 0.253334	 1
1463624020.805	 8	 0.109261	 0.218421	 -0.010442	 2.526884	 -1.163902	 -0.000718	 -0.166006	 0.796303	 -0.523987	 0.252550	 1
1463624020.815	 8	 0.087914	 0.207933	 0.001369	 2.527781	 -1.164672	 -0.002051	 -0.165337	 0.796325	 -0.524536	 0.251779	 1
1463624020.825	 8	 0.075032	 0.179360	 0.016138	 2.527998	 -1.165193	 -0.003782	 -0.164657	 0.796358	 -0.524979	 0.251195	 1
1463624020.835	 8	 0.066339	 0.135868	 0.028598	 2.528058	 -1.165606	 -0.005310	 -0.164085	 0.796383	 -0.525340	 0.250735	 1
1463624020.845	 8	 0.059762	 0.089169	 0.039945	 2.526835	 -1.166013	 -0.007623	 -0.163537	 0.796313	 -0.525692	 0.250580	 1
1463624020.855	 8	 0.052155	 0.049920	 0.051371	 2.525049	 -1.166378	 -0.010091	 -0.163071	 0.796195	 -0.526000	 0.250611	 1
1463624020.865	 8	 0.053074	 0.006405	 0.064814	 2.522274	 -1.166697	 -0.013124	 -0.162634	 0.796010	 -0.526281	 0.250890	 1
1463624020.875	 8	 0.062618	 -0.022212	 0.082584	 2.518942	 -1.166972	 -0.016419	 -0.162236	 0.795788	 -0.526533	 0.251325	 1
1463624020.885	 8	 0.073319	 -0.029574	 0.098408	 2.515798	 -1.167190	 -0.019504	 -0.161865	 0.795585	 -0.526753	 0.251744	 1
1463624020.895	 8	 0.087194	 -0.038048	 0.108865	 2.512473	 -1.167359	 -0.022765	 -0.161465	 0.795386	 -0.526962	 0.252192	 1
1463624020.905	 8	 0.096841	 -0.030614	 0.110978	 2.509667	 -1.167559	 -0.025614	 -0.161099	 0.795210	 -0.527174	 0.252539	 1
1463624020.915	 8	 0.092546	 -0.014756	 0.103745	 2.507873	 -1.167800	 -0.027655	 -0.160793	 0.795085	 -0.527383	 0.252693	 1
1463624020.925	 8	 0.079689	 -0.010584	 0.086838	 2.506586	 -1.168006	 -0.029216	 -0.160539	 0.794994	 -0.527558	 0.252774	 1
1463624020.935	 8	 0.061493	 -0.001132	 0.062566	 2.506152	 -1.168237	 -0.029960	 -0.160388	 0.794939	 -0.527709	 0.252729	 1
1463624020.945	 8	 0.037971	 0.004135	 0.045763	 2.506296	 -1.168411	 -0.030121	 -0.160310	 0.794925	 -0.527809	 0.252613	 1
1463624020.955	 8	 0.020870	 0.009414	 0.033167	 2.506635	 -1.168549	 -0.030043	 -0.160270	 0.794925	 -0.527881	 0.252486	 1
1463624020.975	 9	 0.004843	 0.009425	 0.027971	 2.506878	 -1.168935	 -0.030276	 -0.160165	 0.794874	 -0.528082	 0.252292	 1
1463624020.985	 9	 0.006950	 -0.001179	 0.033180	 2.506367	 -1.169168	 -0.030878	 -0.160092	 0.794797	 -0.528209	 0.252315	 1
1463624020.995	 9	 0.017575	 -0.015008	 0.037220	 2.505481	 -1.169418	 -0.031733	 -0.160020	 0.794689	 -0.528345	 0.252418	 1
1463624021.005	 9	 0.027156	 -0.019299	 0.036029	 2.504430	 -1.169664	 -0.032704	 -0.159945	 0.794570	 -0.528480	 0.252557	 1
1463624021.015	 9	 0.034596	 -0.025703	 0.035902	 2.503448	 -1.169937	 -0.033576	 -0.159895	 0.794445	 -0.528620	 0.252691	 1
1463624021.025	 9	 0.033470	 -0.037407	 0.034734	 2.502514	 -1.170227	 -0.034314	 -0.159888	 0.794310	 -0.528753	 0.252839	 1
1463624021.035	 9	 0.033389	 -0.053369	 0.033518	 2.501681	 -1.170434	 -0.034822	 -0.159934	 0.794192	 -0.528832	 0.253017	 1
1463624021.045	 9	 0.031184	 -0.062981	 0.027051	 2.500542	 -1.170663	 -0.035427	 -0.160027	 0.794036	 -0.528908	 0.253287	 1
1463624021.055	 9	 0.020538	 -0.055518	 0.025080	 2.499815	 -1.170659	 -0.035720	 -0.160102	 0.793969	 -0.528885	 0.253499	 1
1463624021.065	 9	 0.019411	 -0.064069	 0.026096	 2.498851	 -1.170811	 -0.036152	 -0.160206	 0.793842	 -0.528922	 0.253753	 1
1463624021.075	 9	 0.008785	 -0.054463	 0.026276	 2.498111	 -1.170847	 -0.036418	 -0.160301	 0.793760	 -0.528911	 0.253973	 1
1463624021.085	 9	 0.002394	 -0.050205	 0.024238	 2.497386	 -1.170870	 -0.036706	 -0.160382	 0.793685	 -0.528899	 0.254182	 1
1463624021.095	 9	 0.002401	 -0.042813	 0.016844	 2.496728	 -1.171058	 -0.036958	 -0.160481	 0.793572	 -0.528952	 0.254359	 1
1463624021.105	 9	 0.007746	 -0.032269	 0.006236	 2.496362	 -1.171320	 -0.037006	 -0.160595	 0.793462	 -0.529032	 0.254467	 1
1463624021.115	 9	 0.014162	 -0.021721	 -0.003315	 2.496125	 -1.171617	 -0.037028	 -0.160690	 0.793356	 -0.529132	 0.254527	 1
1463624021.125	 9	 0.016302	 -0.014335	 -0.010726	 2.496090	 -1.171894	 -0.036921	 -0.160779	 0.793271	 -0.529225	 0.254543	 1
1463624021.135	 9	 0.013083	 -0.015413	 -0.013905	 2.496079	 -1.172038	 -0.036789	 -0.160854	 0.793222	 -0.529264	 0.254568	 1
1463624021.145	 9	 0.009888	 -0.016444	 -0.010689	 2.496022	 -1.172101	 -0.036682	 -0.160920	 0.793190	 -0.529270	 0.254613	 1
1463624021.155	 9	 0.007726	 -0.024923	 -0.007552	 2.495825	 -1.172167	 -0.036647	 -0.160995	 0.793144	 -0.529276	 0.254694	 1
1463624021.165	 9	 0.009846	 -0.032337	 -0.002310	 2.495420	 -1.172214	 -0.036757	 -0.161065	 0.793090	 -0.529276	 0.254821	 1
1463624021.175	 9	 0.017339	 -0.030209	 0.000842	 2.494707	 -1.172383	 -0.037143	 -0.161124	 0.792986	 -0.529334	 0.254986	 1
1463624021.185	 9	 0.013159	 -0.014218	 0.004224	 2.494472	 -1.172448	 -0.037248	 -0.161154	 0.792947	 -0.529354	 0.255045	 1
1463624021.195	 9	 0.013205	 -0.008861	 0.009601	 2.494288	 -1.172534	 -0.037383	 -0.161161	 0.792913	 -0.529390	 0.255074	 1
1463624021.205	 9	 0.012168	 -0.002475	 0.009669	 2.494095	 -1.172602	 -0.037578	 -0.161144	 0.792886	 -0.529426	 0.255092	 1
1463624021.215	 9	 0.012230	 0.003880	 0.006537	 2.493958	 -1.172703	 -0.037766	 -0.161119	 0.792858	 -0.529479	 0.255087	 1
1463624021.225	 9	 0.013268	 0.004879	 -0.001991	 2.494152	 -1.172893	 -0.037669	 -0.161133	 0.792825	 -0.529557	 0.255018	 1
1463624021.235	 9	 0.019684	 0.011211	 -0.006252	 2.494492	 -1.173173	 -0.037469	 -0.161161	 0.792779	 -0.529669	 0.254909	 1
1463624021.245	 9	 0.018641	 0.019693	 -0.010428	 2.494865	 -1.173448	 -0.037299	 -0.161167	 0.792742	 -0.529785	 0.254780	 1
1463624021.255	 9	 0.016509	 0.023923	 -0.014634	 2.495317	 -1.173671	 -0.037096	 -0.161158	 0.792725	 -0.529884	 0.254634	 1
1463624021.265	 9	 0.014416	 0.028223	 -0.009246	 2.495558	 -1.173772	 -0.037129	 -0.161095	 0.792732	 -0.529947	 0.254520	 1
1463624021.275	 9	 0.010173	 0.029338	 -0.003870	 2.495735	 -1.173832	 -0.037241	 -0.161012	 0.792748	 -0.529999	 0.254414	 1
1463624021.285	 9	 0.011266	 0.029381	 0.002516	 2.495864	 -1.173872	 -0.037419	 -0.160913	 0.792769	 -0.530048	 0.254312	 1
1463624021.295	 9	 0.015545	 0.027280	 0.007787	 2.495931	 -1.173978	 -0.037667	 -0.160811	 0.792769	 -0.530126	 0.254210	 1
1463624021.305	 9	 0.017724	 0.034734	 0.009968	 2.496022	 -1.174116	 -0.037958	 -0.160691	 0.792768	 -0.530225	 0.254084	 1
1463624021.315	 9	 0.016699	 0.041143	 0.013234	 2.496217	 -1.174168	 -0.038230	 -0.160538	 0.792801	 -0.530296	 0.253929	 1
1463624021.325	 9	 0.017770	 0.040092	 0.015345	 2.496318	 -1.174310	 -0.038594	 -0.160387	 0.792807	 -0.530406	 0.253779	 1
1463624021.335	 9	 0.016681	 0.033729	 0.017426	 2.496261	 -1.174502	 -0.039065	 -0.160241	 0.792787	 -0.530536	 0.253658	 1
1463624021.345	 9	 0.016660	 0.027362	 0.019497	 2.496195	 -1.174663	 -0.039495	 -0.160110	 0.792771	 -0.530649	 0.253555	 1
1463624021.355	 9	 0.022987	 0.010333	 0.020347	 2.495798	 -1.174918	 -0.040085	 -0.160017	 0.792702	 -0.530792	 0.253531	 1
1463624021.365	 9	 0.015584	 0.025239	 0.019483	 2.495729	 -1.175079	 -0.040439	 -0.159917	 0.792680	 -0.530895	 0.253449	 1
1463624021.375	 9	 0.007197	 0.041246	 0.013364	 2.496198	 -1.175202	 -0.040416	 -0.159819	 0.792705	 -0.530977	 0.253258	 1
1463624021.385	 9	 0.008277	 0.046539	 0.010205	 2.496836	 -1.175323	 -0.040299	 -0.159712	 0.792745	 -0.531061	 0.253024	 1
1463624021.395	 9	 0.009348	 0.046544	 0.011260	 2.497480	 -1.175484	 -0.040199	 -0.159603	 0.792777	 -0.531163	 0.252780	 1
1463624021.405	 9	 0.005063	 0.041254	 0.013378	 2.498008	 -1.175629	 -0.040162	 -0.159497	 0.792803	 -0.531258	 0.252567	 1
1463624021.415	 9	 0.006101	 0.035925	 0.012251	 2.498437	 -1.175795	 -0.040165	 -0.159404	 0.792814	 -0.531357	 0.252380	 1
1463624021.425	 9	 0.007130	 0.029525	 0.010049	 2.498823	 -1.176030	 -0.040147	 -0.159341	 0.792800	 -0.531478	 0.252209	 1
1463624021.435	 9	 0.011373	 0.028411	 0.004671	 2.499241	 -1.176370	 -0.040062	 -0.159311	 0.792757	 -0.531634	 0.252034	 1
1463624021.445	 9	 0.015635	 0.034711	 -0.004902	 2.499883	 -1.176775	 -0.039796	 -0.159300	 0.792711	 -0.531811	 0.251811	 1
1463624021.455	 9	 0.018832	 0.038910	 -0.011288	 2.500675	 -1.177227	 -0.039434	 -0.159295	 0.792664	 -0.532006	 0.251550	 1
1463624021.465	 9	 0.018828	 0.038903	 -0.012355	 2.501415	 -1.177620	 -0.039117	 -0.159277	 0.792630	 -0.532180	 0.251304	 1
1463624021.475	 9	 0.018845	 0.039990	 -0.009150	 2.502191	 -1.177915	 -0.038777	 -0.159245	 0.792623	 -0.532315	 0.251059	 1
1463624021.485	 9	 0.011404	 0.039011	 -0.000569	 2.502848	 -1.178072	 -0.038550	 -0.159182	 0.792646	 -0.532400	 0.250845	 1
1463624021.495	 9	 0.003940	 0.031665	 0.010085	 2.503334	 -1.178020	 -0.038443	 -0.159088	 0.792712	 -0.532405	 0.250686	 1
1463624021.505	 9	 -0.001379	 0.026441	 0.020739	 2.503668	 -1.177947	 -0.038450	 -0.158986	 0.792774	 -0.532404	 0.250558	 1
1463624021.515	 9	 -0.004563	 0.027538	 0.023972	 2.504124	 -1.177891	 -0.038334	 -0.158903	 0.792836	 -0.532404	 0.250413	 1
1463624021.525	 9	 0.005009	 0.023232	 0.020649	 2.504403	 -1.178008	 -0.038371	 -0.158830	 0.792844	 -0.532476	 0.250282	 1
1463624021.535	 9	 0.005090	 0.045523	 0.014458	 2.504952	 -1.178223	 -0.038285	 -0.158747	 0.792849	 -0.532594	 0.250067	 1
1463624021.545	 9	 0.004203	 0.071049	 0.006218	 2.506138	 -1.178390	 -0.037841	 -0.158630	 0.792919	 -0.532698	 0.249699	 1
1463624021.555	 9	 0.007370	 0.069922	 -0.001282	 2.507285	 -1.178593	 -0.037447	 -0.158508	 0.792977	 -0.532820	 0.249330	 1
1463624021.565	 9	 0.007354	 0.066731	 -0.001313	 2.508247	 -1.178714	 -0.037183	 -0.158372	 0.793045	 -0.532911	 0.249007	 1
1463624021.575	 9	 0.007333	 0.062477	 -0.001352	 2.508970	 -1.178758	 -0.037119	 -0.158211	 0.793118	 -0.532977	 0.248734	 1
1463624021.585	 9	 0.007300	 0.051871	 0.002812	 2.509496	 -1.178798	 -0.037158	 -0.158060	 0.793176	 -0.533039	 0.248511	 1
1463624021.595	 9	 0.011551	 0.045500	 0.005912	 2.509799	 -1.178924	 -0.037291	 -0.157944	 0.793191	 -0.533129	 0.248344	 1
1463624021.605	 9	 -0.000074	 0.062615	 0.014699	 2.510297	 -1.178748	 -0.037444	 -0.157727	 0.793311	 -0.533118	 0.248122	 1
1463624021.615	 9	 -0.002181	 0.058452	 0.026401	 2.510599	 -1.178679	 -0.037787	 -0.157501	 0.793394	 -0.533157	 0.247917	 1
1463624021.625	 9	 -0.001231	 0.032929	 0.027220	 2.510633	 -1.178684	 -0.038216	 -0.157323	 0.793430	 -0.533215	 0.247789	 1
1463624021.635	 9	 0.005034	 0.006295	 0.023719	 2.510306	 -1.178797	 -0.038685	 -0.157239	 0.793397	 -0.533292	 0.247783	 1
1463624021.645	 9	 -0.004634	 -0.005392	 0.021562	 2.510013	 -1.178757	 -0.039017	 -0.157180	 0.793397	 -0.533294	 0.247815	 1
1463624021.655	 9	 -0.005829	 -0.041476	 0.031892	 2.509436	 -1.178814	 -0.039320	 -0.157221	 0.793335	 -0.533309	 0.247957	 1
1463624021.665	 9	 -0.000652	 -0.089233	 0.048454	 2.508090	 -1.178702	 -0.040010	 -0.157292	 0.793251	 -0.533245	 0.248318	 1
1463624021.675	 9	 -0.014554	 -0.111390	 0.067553	 2.505709	 -1.178373	 -0.041396	 -0.157332	 0.793150	 -0.533101	 0.248923	 1
1463624021.685	 9	 -0.027254	 -0.140686	 0.129205	 2.502321	 -1.177457	 -0.043566	 -0.157250	 0.793138	 -0.532745	 0.249777	 1
1463624021.695	 9	 -0.027371	 -0.184134	 0.151182	 2.498280	 -1.176487	 -0.046108	 -0.157185	 0.793084	 -0.532364	 0.250795	 1
1463624021.705	 9	 -0.011602	 -0.227931	 0.128313	 2.493361	 -1.175780	 -0.049004	 -0.157248	 0.792877	 -0.532064	 0.252044	 1
1463624021.715	 9	 0.006422	 -0.238745	 0.111002	 2.488722	 -1.175370	 -0.051441	 -0.157459	 0.792589	 -0.531847	 0.253275	 1
1463624021.725	 9	 0.023665	 -0.212128	 0.121758	 2.483757	 -1.174708	 -0.054401	 -0.157513	 0.792363	 -0.531572	 0.254521	 1
1463624021.735	 9	 0.023787	 -0.211904	 0.152669	 2.478120	 -1.173586	 -0.058174	 -0.157356	 0.792231	 -0.531171	 0.255865	 1
1463624021.745	 9	 0.008695	 -0.239553	 0.147213	 2.473142	 -1.172996	 -0.061121	 -0.157426	 0.791976	 -0.530927	 0.257114	 1
1463624021.755	 9	 -0.013042	 -0.296094	 0.114897	 2.469586	 -1.172843	 -0.062173	 -0.157931	 0.791640	 -0.530722	 0.258259	 1
1463624021.765	 9	 -0.044512	 -0.367605	 0.067604	 2.466320	 -1.173026	 -0.062089	 -0.158857	 0.791164	 -0.530524	 0.259554	 1
1463624021.775	 9	 -0.030448	 -0.289267	 0.022383	 2.463105	 -1.172538	 -0.062111	 -0.159629	 0.790872	 -0.530081	 0.260871	 1
1463624021.785	 9	 -0.000091	 -0.180932	 0.013532	 2.461807	 -1.172608	 -0.061475	 -0.160236	 0.790634	 -0.529921	 0.261546	 1
1463624021.795	 9	 0.003199	 -0.162858	 0.013668	 2.460443	 -1.173103	 -0.061277	 -0.160748	 0.790313	 -0.529979	 0.262085	 1
1463624021.805	 9	 0.012789	 -0.154478	 -0.000194	 2.458810	 -1.173383	 -0.061366	 -0.161187	 0.790034	 -0.529968	 0.262678	 1
1463624021.815	 9	 0.021363	 -0.133346	 -0.016059	 2.457354	 -1.173618	 -0.061429	 -0.161582	 0.789787	 -0.529950	 0.263211	 1
1463624021.825	 9	 0.028928	 -0.108943	 -0.021226	 2.456175	 -1.173964	 -0.061469	 -0.161930	 0.789546	 -0.529995	 0.263630	 1
1463624021.835	 9	 0.025875	 -0.087575	 -0.009278	 2.455071	 -1.174252	 -0.061659	 -0.162190	 0.789342	 -0.530042	 0.263985	 1
1463624021.845	 9	 0.016391	 -0.082058	 0.014304	 2.453355	 -1.174441	 -0.062542	 -0.162324	 0.789139	 -0.530093	 0.264408	 1
1463624021.855	 9	 0.011328	 -0.049936	 0.038132	 2.451941	 -1.174332	 -0.063406	 -0.162342	 0.789050	 -0.530051	 0.264748	 1
1463624021.865	 9	 0.013851	 0.014032	 0.060021	 2.450752	 -1.174090	 -0.064703	 -0.162109	 0.789060	 -0.530032	 0.264900	 1
1463624021.875	 9	 0.031108	 0.024857	 0.093010	 2.449076	 -1.173753	 -0.066801	 -0.161675	 0.789094	 -0.530043	 0.265041	 1
1463624021.885	 9	 0.067208	 -0.035704	 0.116644	 2.444054	 -1.174450	 -0.071824	 -0.161131	 0.788655	 -0.530574	 0.265615	 1
1463624021.895	 9	 0.161326	 -0.240004	 0.142699	 2.437596	 -1.174621	 -0.076713	 -0.160943	 0.788145	 -0.530772	 0.266844	 1
1463624021.905	 9	 0.235506	 -0.150653	 0.173792	 2.429219	 -1.175185	 -0.083746	 -0.160484	 0.787447	 -0.531257	 0.268214	 1
1463624021.915	 9	 0.275334	 -0.101642	 0.201611	 2.420501	 -1.175931	 -0.092067	 -0.159644	 0.786752	 -0.531965	 0.269348	 1
1463624021.925	 9	 0.274453	 -0.084426	 0.228419	 2.412378	 -1.176766	 -0.100083	 -0.158787	 0.786084	 -0.532720	 0.270311	 1
1463624021.935	 9	 0.244729	 -0.075618	 0.257536	 2.403067	 -1.176968	 -0.109347	 -0.157662	 0.785505	 -0.533316	 0.271476	 1
1463624021.945	 9	 0.198857	 -0.083890	 0.271713	 2.394067	 -1.176696	 -0.118208	 -0.156539	 0.785045	 -0.533710	 0.272679	 1
1463624021.955	 9	 0.152998	 -0.093194	 0.290144	 2.385501	 -1.175950	 -0.126517	 -0.155439	 0.784707	 -0.533894	 0.273917	 1
1463624021.965	 9	 0.123156	 -0.113075	 0.323255	 2.377008	 -1.175087	 -0.134578	 -0.154396	 0.784379	 -0.534016	 0.275206	 1
1463624021.975	 9	 0.095506	 -0.127582	 0.364925	 2.368012	 -1.173355	 -0.142981	 -0.153202	 0.784209	 -0.533829	 0.276717	 1
1463624021.985	 9	 0.070156	 -0.118594	 0.420649	 2.358650	 -1.171052	 -0.151805	 -0.151834	 0.784143	 -0.533473	 0.278339	 1
1463624021.995	 9	 0.044876	 -0.108427	 0.492370	 2.348829	 -1.168053	 -0.161277	 -0.150200	 0.784212	 -0.532927	 0.280072	 1
1463624022.005	 9	 0.012140	 -0.095055	 0.563120	 2.337904	 -1.164500	 -0.171971	 -0.148267	 0.784325	 -0.532285	 0.282000	 1
1463624022.015	 9	 -0.024909	 -0.073307	 0.613736	 2.327735	 -1.160036	 -0.182177	 -0.146137	 0.784695	 -0.531314	 0.283907	 1
1463624022.025	 9	 -0.060904	 -0.031553	 0.636819	 2.318328	 -1.155069	 -0.191981	 -0.143845	 0.785229	 -0.530180	 0.285714	 1
1463624022.035	 9	 -0.095724	 0.036806	 0.654839	 2.310062	 -1.149696	 -0.201220	 -0.141372	 0.785949	 -0.528919	 0.287303	 1
1463624022.045	 9	 -0.113425	 0.099871	 0.690749	 2.302686	 -1.144113	 -0.210264	 -0.138676	 0.786800	 -0.527636	 0.288645	 1
1463624022.055	 9	 -0.120539	 0.142718	 0.729577	 2.295503	 -1.137949	 -0.219630	 -0.135664	 0.787799	 -0.526217	 0.289936	 1
1463624022.065	 9	 -0.124643	 0.158848	 0.752144	 2.288471	 -1.131517	 -0.229121	 -0.132483	 0.788854	 -0.524749	 0.291198	 1
1463624022.075	 9	 -0.135429	 0.130200	 0.757300	 2.281517	 -1.124934	 -0.238363	 -0.129324	 0.789899	 -0.523215	 0.292543	 1
1463624022.085	 9	 -0.149687	 0.054675	 0.750326	 2.274443	 -1.118274	 -0.247071	 -0.126364	 0.790872	 -0.521587	 0.294110	 1
1463624022.095	 9	 -0.171519	 -0.030509	 0.728409	 2.267286	 -1.111589	 -0.254933	 -0.123729	 0.791749	 -0.519841	 0.295956	 1
1463624022.105	 9	 -0.208353	 -0.129468	 0.707559	 2.260205	 -1.104852	 -0.261702	 -0.121471	 0.792546	 -0.517938	 0.298086	 1
1463624022.115	 9	 -0.223925	 -0.232854	 0.671562	 2.253012	 -1.098163	 -0.267414	 -0.119648	 0.793221	 -0.515905	 0.300544	 1
1463624022.125	 9	 -0.213695	 -0.315937	 0.658977	 2.245300	 -1.091687	 -0.272745	 -0.118131	 0.793720	 -0.513878	 0.303287	 1
1463624022.135	 9	 -0.215048	 -0.417683	 0.708133	 2.236401	 -1.084940	 -0.278417	 -0.116701	 0.794081	 -0.511751	 0.306475	 1
1463624022.145	 9	 -0.216276	 -0.529749	 0.800888	 2.225682	 -1.077491	 -0.284868	 -0.115244	 0.794310	 -0.509403	 0.310322	 1
1463624022.155	 9	 -0.196812	 -0.562031	 0.903797	 2.213236	 -1.069275	 -0.292616	 -0.113504	 0.794444	 -0.506907	 0.314677	 1
1463624022.165	 9	 -0.180956	 -0.470784	 1.026004	 2.200284	 -1.060164	 -0.301706	 -0.111112	 0.794682	 -0.504309	 0.319073	 1
1463624022.175	 9	 -0.109678	 -0.362954	 1.110582	 2.187006	 -1.050515	 -0.312527	 -0.107941	 0.794987	 -0.501824	 0.323291	 1
1463624022.185	 9	 -0.079249	 -0.312488	 1.188588	 2.173417	 -1.040442	 -0.324461	 -0.104251	 0.795291	 -0.499408	 0.327468	 1
1463624022.195	 9	 -0.033947	 -0.247422	 1.232495	 2.159863	 -1.030053	 -0.337166	 -0.100115	 0.795599	 -0.497074	 0.331538	 1
1463624022.205	 9	 -0.020827	 -0.208929	 1.265778	 2.146619	 -1.019441	 -0.350144	 -0.095683	 0.795907	 -0.494789	 0.335502	 1
1463624022.215	 9	 -0.040604	 -0.341714	 1.280701	 2.133113	 -1.008497	 -0.362655	 -0.091363	 0.796098	 -0.492366	 0.339789	 1
1463624022.225	 9	 -0.116273	 -0.756439	 1.261514	 2.117533	 -0.997247	 -0.373506	 -0.088077	 0.795799	 -0.489530	 0.345408	 1
1463624022.235	 9	 -0.163426	 -1.291999	 1.311295	 2.097892	 -0.985318	 -0.383191	 -0.086006	 0.794725	 -0.486150	 0.353090	 1
1463624022.245	 9	 -0.264491	 -1.748437	 1.396386	 2.074306	 -0.972237	 -0.391736	 -0.084960	 0.792916	 -0.482076	 0.362863	 1
1463624022.255	 9	 -0.704424	 -1.725649	 1.574147	 2.054161	 -0.956073	 -0.395190	 -0.084186	 0.791792	 -0.476207	 0.373103	 1
1463624022.265	 9	 -0.923150	 -1.953755	 1.857422	 2.034878	 -0.936119	 -0.395633	 -0.083262	 0.791052	 -0.468518	 0.384442	 1
1463624022.275	 9	 -0.876199	 -2.088809	 2.017774	 2.013512	 -0.914270	 -0.396628	 -0.081935	 0.789953	 -0.460211	 0.396820	 1
1463624022.285	 9	 -0.785162	 -2.247540	 2.019768	 1.990038	 -0.892558	 -0.398543	 -0.080580	 0.788168	 -0.452086	 0.409776	 1
1463624022.295	 9	 -0.863850	 -2.746283	 2.146900	 1.963322	 -0.870016	 -0.399559	 -0.079869	 0.785461	 -0.443406	 0.424338	 1
1463624022.305	 9	 -0.958395	 -2.937138	 2.483794	 1.934034	 -0.844301	 -0.399573	 -0.078967	 0.782157	 -0.433359	 0.440675	 1
1463624022.315	 9	 -0.821453	 -2.870652	 2.760319	 1.903755	 -0.815960	 -0.401141	 -0.076611	 0.778525	 -0.422779	 0.457480	 1
1463624022.325	 9	 -0.494183	 -2.792278	 2.846657	 1.872525	 -0.787127	 -0.405859	 -0.072764	 0.774332	 -0.412839	 0.474005	 1
1463624022.335	 9	 -0.145773	 -3.045100	 2.737892	 1.837389	 -0.759902	 -0.413680	 -0.068683	 0.768615	 -0.404233	 0.491029	 1
1463624022.345	 9	 0.111433	 -3.327027	 2.539060	 1.798546	 -0.734826	 -0.423010	 -0.065127	 0.761262	 -0.396842	 0.508680	 1
1463624022.355	 9	 0.175805	 -3.431530	 1.941766	 1.758834	 -0.714461	 -0.431133	 -0.063417	 0.752719	 -0.390921	 0.525901	 1
1463624022.365	 9	 0.191610	 -3.251282	 1.137589	 1.722384	 -0.701549	 -0.436470	 -0.064329	 0.743999	 -0.386970	 0.540908	 1
1463624022.375	 9	 0.383937	 -3.263555	 0.403622	 1.686610	 -0.696278	 -0.441697	 -0.067566	 0.734686	 -0.385531	 0.554109	 1
1463624022.385	 9	 0.667030	 -3.482670	 -0.069817	 1.647415	 -0.696554	 -0.449479	 -0.072385	 0.723959	 -0.386427	 0.566848	 1
1463624022.395	 9	 0.899438	 -3.808218	 -0.280562	 1.603220	 -0.699424	 -0.460357	 -0.078029	 0.711558	 -0.388763	 0.580052	 1
1463624022.405	 9	 1.024606	 -4.155663	 -0.327516	 1.554067	 -0.702734	 -0.473426	 -0.084174	 0.697518	 -0.391588	 0.594173	 1
1463624022.415	 9	 1.039557	 -4.466593	 -0.223963	 1.501252	 -0.704901	 -0.487232	 -0.090559	 0.682155	 -0.394054	 0.609250	 1
1463624022.425	 9	 0.790118	 -4.822658	 0.001903	 1.446413	 -0.704609	 -0.498894	 -0.097341	 0.665782	 -0.394998	 0.625489	 1
1463624022.435	 9	 -0.285684	 -4.865199	 0.300761	 1.397630	 -0.702518	 -0.498871	 -0.106168	 0.650366	 -0.391955	 0.641968	 1
1463624022.445	 9	 -1.514268	 -4.578955	 0.702059	 1.362213	 -0.698834	 -0.481576	 -0.117212	 0.637961	 -0.383408	 0.657469	 1
1463624022.455	 9	 -2.347877	 -4.596993	 0.957472	 1.336023	 -0.694838	 -0.451514	 -0.130136	 0.627470	 -0.370777	 0.672213	 1
1463624022.465	 9	 -2.901688	 -5.403566	 1.124245	 1.309137	 -0.691063	 -0.412994	 -0.145534	 0.615754	 -0.354865	 0.688286	 1
1463624022.475	 9	 -3.305130	 -6.329750	 1.138323	 1.275835	 -0.688922	 -0.369134	 -0.163800	 0.600806	 -0.336455	 0.706399	 1
1463624022.485	 9	 -3.730626	 -6.876828	 1.060202	 1.239428	 -0.689692	 -0.320011	 -0.184586	 0.583471	 -0.315895	 0.725052	 1
1463624022.495	 9	 -3.975266	 -6.892229	 0.744591	 1.203176	 -0.695307	 -0.268366	 -0.207171	 0.564887	 -0.294778	 0.742353	 1
1463624022.505	 9	 -3.935153	 -6.430390	 0.353142	 1.169796	 -0.706040	 -0.218178	 -0.230144	 0.546371	 -0.274926	 0.756920	 1
1463624022.515	 9	 -3.649534	 -5.678473	 0.167946	 1.141318	 -0.719302	 -0.171966	 -0.251664	 0.529193	 -0.257061	 0.768466	 1
1463624022.525	 9	 -3.149481	 -4.936963	 0.247227	 1.117303	 -0.731415	 -0.131026	 -0.270187	 0.513782	 -0.240985	 0.777787	 1
1463624022.535	 9	 -2.430515	 -4.261215	 0.440158	 1.095830	 -0.739661	 -0.097086	 -0.284613	 0.500089	 -0.226685	 0.785825	 1
1463624022.545	 9	 -1.582263	 -3.599263	 0.689386	 1.075409	 -0.742538	 -0.071562	 -0.294330	 0.488112	 -0.214326	 0.793209	 1
1463624022.555	 9	 -0.689888	 -2.919899	 1.010864	 1.055972	 -0.738849	 -0.054640	 -0.298958	 0.478151	 -0.203846	 0.800276	 1
1463624022.565	 9	 0.180100	 -2.273117	 1.376996	 1.037648	 -0.727874	 -0.045618	 -0.298465	 0.470311	 -0.194967	 0.807288	 1
1463624022.575	 9	 0.820026	 -1.508858	 1.716382	 1.022856	 -0.710367	 -0.042165	 -0.293524	 0.465166	 -0.187401	 0.813846	 1
1463624022.585	 9	 1.137593	 -0.732188	 2.023521	 1.014634	 -0.688167	 -0.040752	 -0.285467	 0.463269	 -0.180619	 0.819309	 1
1463624022.595	 9	 1.270352	 -0.212446	 2.320286	 1.012455	 -0.662506	 -0.039054	 -0.275431	 0.463987	 -0.173815	 0.823797	 1
1463624022.605	 9	 1.296066	 0.084689	 2.530651	 1.014314	 -0.634556	 -0.036332	 -0.264285	 0.466330	 -0.166589	 0.827610	 1
1463624022.615	 9	 1.242540	 0.230945	 2.583634	 1.018415	 -0.605996	 -0.032798	 -0.252863	 0.469488	 -0.159103	 0.830859	 1
1463624022.625	 9	 1.120503	 0.212687	 2.509924	 1.022986	 -0.578357	 -0.028703	 -0.241910	 0.472676	 -0.151563	 0.833718	 1
1463624022.635	 9	 0.937736	 0.036783	 2.379855	 1.026452	 -0.552617	 -0.023852	 -0.232009	 0.475167	 -0.143931	 0.836464	 1
1463624022.645	 9	 0.730110	 -0.213435	 2.258903	 1.028057	 -0.528994	 -0.017867	 -0.223392	 0.476605	 -0.136042	 0.839307	 1
1463624022.655	 9	 0.559720	 -0.500877	 2.153267	 1.027285	 -0.507263	 -0.010804	 -0.215970	 0.476807	 -0.127843	 0.842418	 1
1463624022.665	 9	 0.469590	 -0.782877	 2.097074	 1.023815	 -0.486729	 -0.003104	 -0.209342	 0.475732	 -0.119350	 0.845938	 1
1463624022.675	 9	 0.464250	 -1.023122	 2.113003	 1.017802	 -0.466382	 0.004850	 -0.202949	 0.473540	 -0.110528	 0.849915	 1
1463624022.685	 9	 0.523476	 -1.177170	 2.161145	 1.009822	 -0.445467	 0.012731	 -0.196332	 0.470540	 -0.101419	 0.854260	 1
1463624022.695	 9	 0.613057	 -1.224994	 2.202550	 1.000787	 -0.423792	 0.020206	 -0.189257	 0.467152	 -0.092231	 0.858746	 1
1463624022.705	 9	 0.724287	 -1.195351	 2.228502	 0.991462	 -0.401368	 0.027017	 -0.181624	 0.463717	 -0.083169	 0.863170	 1
1463624022.715	 9	 0.869676	 -1.166842	 2.258408	 0.982000	 -0.378020	 0.032939	 -0.173294	 0.460319	 -0.074314	 0.867498	 1
1463624022.725	 9	 1.056348	 -1.200229	 2.276721	 0.971802	 -0.353533	 0.037624	 -0.164114	 0.456722	 -0.065733	 0.871866	 1
1463624022.735	 9	 1.256658	 -1.262553	 2.270134	 0.960395	 -0.327974	 0.040804	 -0.154057	 0.452708	 -0.057549	 0.876362	 1
1463624022.745	 9	 1.454875	 -1.291050	 2.234039	 0.948027	 -0.301527	 0.042398	 -0.143169	 0.448349	 -0.049896	 0.880906	 1
1463624022.755	 9	 1.649967	 -1.254023	 2.138898	 0.935283	 -0.274599	 0.042192	 -0.131566	 0.443864	 -0.043032	 0.885338	 1
1463624022.765	 9	 1.844279	 -1.135275	 2.018945	 0.923046	 -0.247447	 0.039987	 -0.119309	 0.439611	 -0.037181	 0.889452	 1
1463624022.775	 9	 2.038790	 -0.996132	 1.924760	 0.911798	 -0.219899	 0.035915	 -0.106363	 0.435772	 -0.032277	 0.893167	 1
1463624022.785	 9	 2.223702	 -0.899129	 1.882488	 0.901459	 -0.191599	 0.030279	 -0.092655	 0.432272	 -0.028099	 0.896530	 1
1463624022.795	 9	 2.353178	 -0.848259	 1.909543	 0.891750	 -0.162263	 0.023876	 -0.078245	 0.428926	 -0.024211	 0.899619	 1
1463624022.805	 9	 2.409997	 -0.852173	 1.979352	 0.882361	 -0.131908	 0.017566	 -0.063335	 0.425539	 -0.020217	 0.902495	 1
1463624022.815	 9	 2.366169	 -0.951301	 2.078993	 0.872532	 -0.100890	 0.012317	 -0.048299	 0.421731	 -0.015732	 0.905297	 1
1463624022.825	 9	 2.228076	 -1.119340	 2.171353	 0.861523	 -0.069832	 0.008918	 -0.033580	 0.417163	 -0.010527	 0.908150	 1
1463624022.835	 9	 2.024215	 -1.400180	 2.229132	 0.848226	 -0.039470	 0.007787	 -0.019587	 0.411359	 -0.004573	 0.911251	 1
1463624022.845	 9	 1.795345	 -1.749275	 2.251323	 0.831664	 -0.010376	 0.008984	 -0.006560	 0.403920	 0.002014	 0.914768	 1
1463624022.855	 9	 1.603468	 -2.138148	 2.230191	 0.811245	 0.017236	 0.012172	 0.005517	 0.394617	 0.008992	 0.918785	 1
1463624022.865	 9	 1.468063	 -2.482000	 2.133318	 0.787101	 0.043169	 0.016500	 0.016769	 0.383532	 0.015894	 0.923239	 1
1463624022.875	 9	 1.378949	 -2.701880	 1.990301	 0.760301	 0.067339	 0.021234	 0.027321	 0.371161	 0.022344	 0.927898	 1
1463624022.885	 9	 1.332991	 -2.806096	 1.827736	 0.732081	 0.089872	 0.025861	 0.037318	 0.358072	 0.028138	 0.932523	 1
1463624022.895	 9	 1.336533	 -2.827461	 1.669773	 0.703423	 0.111137	 0.029980	 0.046978	 0.344716	 0.033182	 0.936943	 1
1463624022.905	 9	 1.383124	 -2.806114	 1.552332	 0.674872	 0.131747	 0.033481	 0.056575	 0.331344	 0.037551	 0.941063	 1
1463624022.915	 9	 1.455595	 -2.761158	 1.474319	 0.646713	 0.152242	 0.036467	 0.066318	 0.318093	 0.041398	 0.944831	 1
1463624022.925	 9	 1.529393	 -2.683046	 1.422181	 0.619235	 0.172912	 0.039125	 0.076289	 0.305107	 0.044867	 0.948196	 1
1463624022.935	 9	 1.596871	 -2.612144	 1.399872	 0.592499	 0.193887	 0.041711	 0.086496	 0.292432	 0.048103	 0.951151	 1
1463624022.945	 9	 1.660962	 -2.591132	 1.389918	 0.566014	 0.215279	 0.044408	 0.096969	 0.279850	 0.051188	 0.953761	 1
1463624022.955	 9	 1.690704	 -2.598852	 1.364009	 0.539423	 0.236827	 0.047307	 0.107576	 0.267207	 0.054106	 0.956086	 1
1463624022.965	 9	 1.680664	 -2.640739	 1.304024	 0.512400	 0.258036	 0.050367	 0.118094	 0.254355	 0.056750	 0.958195	 1
1463624022.975	 9	 1.645758	 -2.708443	 1.193924	 0.484713	 0.278423	 0.053309	 0.128325	 0.241175	 0.058912	 0.960155	 1
1463624022.985	 9	 1.593598	 -2.777477	 1.040266	 0.456418	 0.297646	 0.055753	 0.138138	 0.227671	 0.060381	 0.961997	 1
1463624022.995	 9	 1.505188	 -2.821036	 0.864779	 0.427748	 0.315371	 0.057495	 0.147366	 0.213938	 0.061056	 0.963735	 1
1463624023.005	 9	 1.356400	 -2.783458	 0.706559	 0.399483	 0.330980	 0.058720	 0.155646	 0.200361	 0.061051	 0.965351	 1
1463624023.015	 9	 1.163233	 -2.681678	 0.583427	 0.372081	 0.344412	 0.059859	 0.162871	 0.187191	 0.060655	 0.966827	 1
1463624023.025	 9	 0.983055	 -2.566950	 0.491211	 0.345695	 0.355807	 0.061144	 0.169074	 0.174523	 0.060058	 0.968168	 1
1463624023.035	 9	 0.874472	 -2.432225	 0.398557	 0.320615	 0.365648	 0.062282	 0.174502	 0.162474	 0.059231	 0.969352	 1
1463624023.045	 9	 0.867363	 -2.269156	 0.295692	 0.297347	 0.374849	 0.062763	 0.179617	 0.151243	 0.058073	 0.970305	 1
1463624023.055	 9	 0.944396	 -2.135103	 0.185429	 0.275923	 0.384296	 0.062164	 0.184867	 0.140806	 0.056465	 0.970984	 1
1463624023.065	 9	 1.051086	 -2.047941	 0.074472	 0.255974	 0.394434	 0.060309	 0.190476	 0.130966	 0.054322	 0.971399	 1
1463624023.075	 9	 1.152390	 -1.980889	 -0.024902	 0.237156	 0.405375	 0.057317	 0.196487	 0.121559	 0.051675	 0.971569	 1
1463624023.085	 9	 1.213442	 -1.857286	 -0.115939	 0.219811	 0.416855	 0.053357	 0.202738	 0.112758	 0.048628	 0.971503	 1
1463624023.095	 9	 1.233278	 -1.657961	 -0.195255	 0.204648	 0.428510	 0.048619	 0.209019	 0.104921	 0.045339	 0.971209	 1
1463624023.105	 9	 1.225726	 -1.407289	 -0.245079	 0.192107	 0.440092	 0.043418	 0.215185	 0.098288	 0.042015	 0.970706	 1
1463624023.115	 9	 1.236523	 -1.141533	 -0.260818	 0.182334	 0.451713	 0.038063	 0.221282	 0.092957	 0.038854	 0.969992	 1
1463624023.125	 9	 1.290003	 -0.894888	 -0.254726	 0.175149	 0.463798	 0.032717	 0.227522	 0.088855	 0.035958	 0.969044	 1
1463624023.135	 9	 1.362399	 -0.703665	 -0.256774	 0.170121	 0.476599	 0.027314	 0.234048	 0.085761	 0.033275	 0.967863	 1
1463624023.145	 9	 1.413185	 -0.566641	 -0.261270	 0.166727	 0.489988	 0.021774	 0.240814	 0.083407	 0.030720	 0.966493	 1
1463624023.155	 9	 1.428407	 -0.502904	 -0.266138	 0.164276	 0.503622	 0.016133	 0.247669	 0.081459	 0.028227	 0.965001	 1
1463624023.165	 9	 1.403886	 -0.489081	 -0.276454	 0.162173	 0.517111	 0.010407	 0.254433	 0.079630	 0.025723	 0.963463	 1
1463624023.175	 9	 1.338701	 -0.495376	 -0.290865	 0.160122	 0.530046	 0.004624	 0.260913	 0.077787	 0.023172	 0.961944	 1
1463624023.185	 9	 1.240572	 -0.472853	 -0.304722	 0.158275	 0.542078	 -0.001171	 0.266939	 0.076013	 0.020603	 0.960490	 1
1463624023.195	 9	 1.110655	 -0.409753	 -0.309398	 0.156956	 0.552892	 -0.006845	 0.272355	 0.074489	 0.018115	 0.959138	 1
1463624023.205	 9	 0.980670	 -0.392121	 -0.277195	 0.155844	 0.562429	 -0.012086	 0.277127	 0.073112	 0.015815	 0.957917	 1
1463624023.215	 9	 0.841355	 -0.304366	 -0.259179	 0.154998	 0.570689	 -0.016736	 0.281255	 0.071940	 0.013787	 0.956833	 1
1463624023.225	 9	 0.726634	 -0.195503	 -0.253970	 0.155224	 0.577722	 -0.021143	 0.284773	 0.071315	 0.011982	 0.955863	 1
1463624023.235	 9	 0.653228	 -0.183274	 -0.210587	 0.155540	 0.583986	 -0.025022	 0.287900	 0.070807	 0.010418	 0.954983	 1
1463624023.245	 9	 0.604151	 -0.235831	 -0.144571	 0.155050	 0.589815	 -0.028082	 0.290790	 0.070028	 0.009114	 0.954177	 1
1463624023.255	 9	 0.552713	 -0.335191	 -0.080037	 0.153186	 0.595265	 -0.030273	 0.293472	 0.068720	 0.008009	 0.953461	 1
1463624023.265	 9	 0.473419	 -0.446269	 -0.029223	 0.149778	 0.600099	 -0.031667	 0.295834	 0.066801	 0.007028	 0.952875	 1
1463624023.275	 9	 0.359006	 -0.530704	 0.014683	 0.145038	 0.603956	 -0.032321	 0.297707	 0.064374	 0.006158	 0.952465	 1
1463624023.285	 9	 0.238439	 -0.574528	 0.070728	 0.139198	 0.606694	 -0.032082	 0.299019	 0.061579	 0.005500	 0.952242	 1
1463624023.295	 9	 0.135476	 -0.457231	 0.070584	 0.133863	 0.608368	 -0.031443	 0.299810	 0.059105	 0.005064	 0.952153	 1
1463624023.305	 9	 0.074564	 -0.227494	 0.045543	 0.130717	 0.609283	 -0.030961	 0.300239	 0.057664	 0.004853	 0.952107	 1
1463624023.315	 9	 0.044845	 0.011030	 0.071468	 0.129849	 0.609850	 -0.030264	 0.300491	 0.057345	 0.005073	 0.952046	 1
1463624023.335	 10	 0.149952	 0.348942	 0.070500	 0.133941	 0.612055	 -0.028985	 0.301491	 0.059448	 0.006371	 0.951593	 1
1463624023.345	 10	 0.196152	 0.381008	 0.110895	 0.137244	 0.614033	 -0.028077	 0.302393	 0.061123	 0.007370	 0.951193	 1
1463624023.355	 10	 0.196889	 0.286555	 0.139851	 0.139661	 0.616206	 -0.026796	 0.303376	 0.062429	 0.008422	 0.950786	 1
1463624023.365	 10	 0.142834	 0.134657	 0.145302	 0.140549	 0.617987	 -0.025315	 0.304172	 0.063046	 0.009323	 0.950483	 1
1463624023.375	 10	 0.046037	 -0.019326	 0.139384	 0.139799	 0.618896	 -0.023724	 0.304557	 0.062917	 0.009997	 0.950361	 1
1463624023.385	 10	 -0.056985	 -0.130789	 0.127520	 0.137798	 0.618757	 -0.022080	 0.304450	 0.062219	 0.010469	 0.950437	 1
1463624023.395	 10	 -0.133126	 -0.192402	 0.107360	 0.135081	 0.617757	 -0.020510	 0.303940	 0.061182	 0.010768	 0.950663	 1
1463624023.405	 10	 -0.162007	 -0.181895	 0.077868	 0.132442	 0.616313	 -0.019211	 0.303230	 0.060146	 0.010937	 0.950955	 1
1463624023.425	 11	 -0.137880	 0.014296	 0.008077	 0.130257	 0.613390	 -0.017879	 0.301812	 0.059350	 0.011144	 0.951453	 1
1463624023.445	 12	 -0.093639	 0.178504	 -0.064324	 0.134442	 0.610083	 -0.019156	 0.300255	 0.061196	 0.011058	 0.951830	 1
1463624023.455	 12	 -0.081978	 0.177274	 -0.082555	 0.136715	 0.609138	 -0.019975	 0.299818	 0.062169	 0.010977	 0.951905	 1
1463624023.465	 12	 -0.069485	 0.113400	 -0.085390	 0.138567	 0.608311	 -0.020896	 0.299443	 0.062925	 0.010787	 0.951976	 1
1463624023.475	 12	 -0.063506	 0.002945	 -0.060892	 0.139294	 0.607578	 -0.021615	 0.299113	 0.063175	 0.010529	 0.952066	 1
1463624023.485	 12	 -0.071262	 -0.092434	 -0.018031	 0.142454	 0.604992	 -0.023979	 0.297942	 0.064368	 0.009783	 0.952361	 1
1463624023.495	 12	 -0.069229	 -0.147458	 0.021938	 0.140930	 0.604304	 -0.023707	 0.297613	 0.063694	 0.009662	 0.952511	 1
1463624023.505	 12	 -0.044586	 -0.151570	 0.051527	 0.139039	 0.603861	 -0.023083	 0.297391	 0.062893	 0.009662	 0.952633	 1
1463624023.515	 12	 -0.005805	 -0.096189	 0.077282	 0.137409	 0.603805	 -0.022206	 0.297345	 0.062248	 0.009836	 0.952688	 1
1463624023.525	 12	 0.032085	 0.001699	 0.097049	 0.137659	 0.605389	 -0.021769	 0.298084	 0.062408	 0.010135	 0.952443	 1
1463624023.535	 12	 0.050900	 0.132568	 0.110892	 0.137968	 0.606007	 -0.020555	 0.298339	 0.062727	 0.010781	 0.952336	 1
1463624023.545	 12	 0.051403	 0.229439	 0.122447	 0.139286	 0.606697	 -0.019196	 0.298617	 0.063546	 0.011648	 0.952184	 1
1463624023.555	 12	 0.027065	 0.276283	 0.118831	 0.141166	 0.607207	 -0.017799	 0.298804	 0.064642	 0.012612	 0.952039	 1
1463624023.565	 12	 -0.016726	 0.282673	 0.102218	 0.143402	 0.606963	 -0.016580	 0.298633	 0.065892	 0.013518	 0.951995	 1
1463624023.575	 12	 -0.061772	 0.253927	 0.079958	 0.145644	 0.605639	 -0.015601	 0.297955	 0.067125	 0.014271	 0.952110	 1
1463624023.585	 12	 -0.101576	 0.202850	 0.060640	 0.147510	 0.603461	 -0.014790	 0.296877	 0.068166	 0.014856	 0.952364	 1
1463624023.605	 13	 -0.132210	 0.039182	 0.065771	 0.148698	 0.599162	 -0.013034	 0.294761	 0.069053	 0.015712	 0.952943	 1
1463624023.615	 13	 -0.123871	 -0.038183	 0.107608	 0.147596	 0.597688	 -0.011595	 0.294018	 0.068759	 0.016182	 0.953186	 1
1463624023.625	 13	 -0.099401	 -0.096389	 0.158012	 0.145242	 0.597089	 -0.009415	 0.293677	 0.067966	 0.016854	 0.953336	 1
1463624023.635	 13	 -0.054633	 -0.131416	 0.186072	 0.142722	 0.596697	 -0.007137	 0.293435	 0.067104	 0.017556	 0.953459	 1
1463624023.645	 13	 0.025523	 -0.122999	 0.205702	 0.140067	 0.597004	 -0.004741	 0.293526	 0.066186	 0.018319	 0.953481	 1
1463624023.655	 13	 0.078502	 0.023614	 0.204473	 0.138552	 0.597978	 -0.002374	 0.293926	 0.065801	 0.019258	 0.953366	 1
1463624023.665	 13	 0.102336	 0.123310	 0.175355	 0.137640	 0.599364	 0.000127	 0.294514	 0.065719	 0.020361	 0.953167	 1
1463624023.675	 13	 0.073398	 0.103132	 0.167959	 0.137803	 0.600439	 0.001956	 0.294964	 0.066056	 0.021292	 0.952985	 1
1463624023.685	 13	 -0.012090	 0.116883	 0.123003	 0.137921	 0.600733	 0.003656	 0.295046	 0.066360	 0.022129	 0.952919	 1
1463624023.695	 13	 -0.060459	 0.123778	 0.027570	 0.138823	 0.600297	 0.004327	 0.294806	 0.066893	 0.022568	 0.952946	 1
1463624023.705	 13	 -0.117626	 0.038479	 -0.023887	 0.138420	 0.597123	 0.004922	 0.293278	 0.066817	 0.022688	 0.953419	 1
1463624023.715	 13	 -0.183465	 -0.073397	 -0.077643	 0.138248	 0.595373	 0.004433	 0.292462	 0.066680	 0.022373	 0.953687	 1
1463624023.725	 13	 -0.237575	 -0.196924	 -0.119886	 0.137124	 0.593002	 0.003476	 0.291375	 0.066025	 0.021674	 0.954082	 1
