% Gyrometer data recorded with 'snsrlog'
% 
% 
% Label description:
% 	 0: Default Label
% 	 1: still_drop
% 	 2: walk_drop
% 	 3: other
% 	 4: dtw_same
% 	 5: dtw_diff
% 	 6: delete
% 	 7: steal
% 
% Column description:
% 	 1: Seconds.milliseconds since 1970
% 	 2: Number of skipped measurements
% 	 3: Gyro X
% 	 4: Gyro Y
% 	 5: Gyro Z
% 	 6: Roll of the device
% 	 7: Pitch of the device
% 	 8: Yaw of the device
% 	 9: Quaternion X
% 	 10: Quaternion Y
% 	 11: Quaternion Z
% 	 12: Quaternion W
% 	 13: Label used for the current sample
% 
% 
1463571460.917	 0	 0.176792	 8.280243	 -1.501124	 0.835036	 0.306159	 -0.068824	 0.153089	 0.395718	 0.030712	 0.905001	 2
1463571460.927	 0	 0.251975	 8.666672	 -1.570655	 0.924481	 0.295626	 -0.080956	 0.149561	 0.435396	 0.029799	 0.887228	 2
1463571460.937	 0	 0.573690	 8.658367	 -1.705688	 1.015262	 0.284582	 -0.094874	 0.146607	 0.474778	 0.027838	 0.867362	 2
1463571460.947	 0	 1.035329	 8.616309	 -2.038353	 1.106463	 0.272076	 -0.113061	 0.144618	 0.513234	 0.023518	 0.845650	 2
1463571460.957	 0	 1.514459	 8.497095	 -2.443295	 1.197838	 0.256304	 -0.136094	 0.143331	 0.550656	 0.016182	 0.822176	 2
1463571460.967	 0	 1.975601	 8.192792	 -2.858329	 1.287304	 0.236272	 -0.163412	 0.142601	 0.586255	 0.005665	 0.797457	 2
1463571460.977	 0	 2.313228	 7.675463	 -3.218850	 1.372150	 0.211136	 -0.193355	 0.141960	 0.619167	 -0.007829	 0.772282	 2
1463571460.997	 1	 2.517432	 6.379890	 -3.735723	 1.519812	 0.147006	 -0.252061	 0.139165	 0.674853	 -0.040686	 0.723568	 2
1463571461.007	 1	 2.454319	 5.979608	 -4.104455	 1.583740	 0.107381	 -0.277731	 0.135704	 0.698583	 -0.059278	 0.700037	 2
1463571461.017	 1	 2.371497	 5.686918	 -4.458159	 1.643184	 0.062706	 -0.299798	 0.130407	 0.720476	 -0.078961	 0.676516	 2
1463571461.027	 1	 2.311644	 5.482723	 -4.778230	 1.699173	 0.013616	 -0.318209	 0.123421	 0.740793	 -0.099562	 0.652749	 2
1463571461.037	 1	 2.318344	 5.297994	 -5.021936	 1.752459	 -0.039029	 -0.333355	 0.115131	 0.759611	 -0.120954	 0.628575	 2
1463571461.057	 2	 2.485250	 4.543951	 -5.093286	 1.847664	 -0.149381	 -0.357149	 0.097073	 0.791029	 -0.165364	 0.580952	 2
1463571461.067	 2	 2.583359	 4.013468	 -5.018078	 1.887401	 -0.205037	 -0.367020	 0.087942	 0.802917	 -0.187993	 0.558792	 2
1463571461.077	 2	 2.671926	 3.491561	 -4.937379	 1.921506	 -0.260532	 -0.376053	 0.078799	 0.812266	 -0.210771	 0.538136	 2
1463571461.087	 2	 2.759327	 2.947336	 -4.854746	 1.949988	 -0.315874	 -0.384539	 0.069558	 0.819201	 -0.233681	 0.519101	 2
1463571461.097	 2	 2.797163	 2.405384	 -4.625651	 1.972476	 -0.369913	 -0.392994	 0.060509	 0.823771	 -0.256315	 0.502038	 2
1463571461.107	 2	 2.687720	 1.983886	 -4.272655	 1.990125	 -0.420793	 -0.401208	 0.052026	 0.826504	 -0.277762	 0.486860	 2
1463571461.117	 2	 2.409766	 1.593647	 -3.930691	 2.004178	 -0.467614	 -0.407927	 0.043842	 0.827954	 -0.297284	 0.473489	 2
1463571461.127	 2	 2.024299	 1.112644	 -3.681357	 2.014811	 -0.510452	 -0.411703	 0.035229	 0.828350	 -0.314564	 0.462217	 2
1463571461.147	 3	 1.453537	 -0.017040	 -3.636808	 2.024628	 -0.589524	 -0.409289	 0.014179	 0.825836	 -0.344272	 0.446398	 2
1463571461.157	 3	 1.277575	 -0.598927	 -3.720623	 2.023074	 -0.628579	 -0.404000	 0.001050	 0.822643	 -0.357946	 0.441737	 2
1463571461.167	 3	 1.125852	 -1.084599	 -3.727019	 2.017761	 -0.667230	 -0.396750	 -0.013474	 0.818282	 -0.370889	 0.438947	 2
1463571461.177	 3	 1.009203	 -1.475897	 -3.612411	 2.009078	 -0.704617	 -0.388644	 -0.028684	 0.812919	 -0.382957	 0.437817	 2
1463571461.187	 3	 0.924853	 -1.750952	 -3.295573	 1.997139	 -0.739354	 -0.381123	 -0.043633	 0.806772	 -0.393895	 0.438249	 2
1463571461.197	 3	 0.878169	 -1.863327	 -2.824079	 1.982387	 -0.769863	 -0.375778	 -0.057193	 0.800222	 -0.403456	 0.439998	 2
1463571461.207	 3	 0.857143	 -1.974637	 -2.342142	 1.964664	 -0.795879	 -0.373373	 -0.069048	 0.793400	 -0.411712	 0.442992	 2
1463571461.217	 3	 0.796225	 -2.118203	 -1.924102	 1.943871	 -0.817677	 -0.373321	 -0.079553	 0.786326	 -0.418648	 0.447322	 2
1463571461.227	 3	 0.753199	 -2.227479	 -1.610345	 1.920578	 -0.836084	 -0.375033	 -0.089066	 0.779059	 -0.424473	 0.452721	 2
1463571461.237	 3	 0.785636	 -2.268986	 -1.454346	 1.895264	 -0.852628	 -0.378616	 -0.097889	 0.771560	 -0.429785	 0.458690	 2
1463571461.247	 3	 0.915124	 -2.248677	 -1.388142	 1.867991	 -0.868664	 -0.384833	 -0.106129	 0.763742	 -0.435237	 0.464762	 2
1463571461.257	 3	 1.085213	 -2.193596	 -1.350743	 1.838397	 -0.884611	 -0.394572	 -0.113692	 0.755540	 -0.441159	 0.470757	 2
1463571461.267	 3	 1.230935	 -2.142341	 -1.264142	 1.806551	 -0.900104	 -0.407932	 -0.120470	 0.747044	 -0.447463	 0.476644	 2
1463571461.277	 3	 1.265164	 -2.070763	 -1.060213	 1.772926	 -0.913787	 -0.424012	 -0.126320	 0.738478	 -0.453552	 0.482685	 2
1463571461.287	 3	 1.189137	 -1.961684	 -0.716427	 1.739409	 -0.923998	 -0.441234	 -0.130868	 0.730369	 -0.458710	 0.488896	 2
1463571461.297	 3	 0.952396	 -1.907246	 -0.199096	 1.707504	 -0.928857	 -0.457040	 -0.134032	 0.723073	 -0.461939	 0.495795	 2
1463571461.307	 3	 0.747474	 -1.874347	 0.294311	 1.677793	 -0.928057	 -0.470705	 -0.135723	 0.716648	 -0.463116	 0.503506	 2
1463571461.317	 3	 0.353678	 -1.896584	 0.588486	 1.651964	 -0.923211	 -0.479361	 -0.137001	 0.711116	 -0.462165	 0.511808	 2
1463571461.327	 3	 0.187440	 -1.834501	 0.575590	 1.630202	 -0.917415	 -0.483394	 -0.138646	 0.706273	 -0.460070	 0.519895	 2
1463571461.337	 3	 0.288942	 -1.530000	 0.512529	 1.610483	 -0.912314	 -0.487816	 -0.139890	 0.701833	 -0.458432	 0.526974	 2
1463571461.357	 4	 0.698389	 -0.748140	 0.839165	 1.575939	 -0.898957	 -0.505844	 -0.136918	 0.694877	 -0.457181	 0.537945	 2
1463571461.367	 4	 0.707822	 -0.459891	 0.990972	 1.561701	 -0.889356	 -0.517378	 -0.132836	 0.692452	 -0.456750	 0.542443	 2
1463571461.377	 4	 0.497372	 -0.331194	 1.052619	 1.551577	 -0.878841	 -0.525927	 -0.128511	 0.690908	 -0.455605	 0.546402	 2
1463571461.387	 4	 0.058715	 -0.294148	 0.997100	 1.546558	 -0.868644	 -0.528492	 -0.125185	 0.690291	 -0.453272	 0.549883	 2
1463571461.397	 4	 -0.596451	 -0.230934	 0.942644	 1.549288	 -0.859225	 -0.521637	 -0.123626	 0.691155	 -0.449031	 0.552624	 2
1463571461.407	 4	 -1.236212	 -0.137394	 0.969334	 1.560355	 -0.849859	 -0.504780	 -0.123711	 0.693722	 -0.442508	 0.554646	 2
1463571461.417	 4	 -1.465148	 0.097065	 1.087546	 1.576900	 -0.839352	 -0.482989	 -0.124002	 0.697611	 -0.434573	 0.555975	 2
1463571461.427	 4	 -1.235657	 0.469432	 1.194523	 1.594879	 -0.827453	 -0.463724	 -0.122758	 0.702196	 -0.426953	 0.556384	 2
1463571461.437	 4	 -0.886830	 0.825293	 1.273664	 1.612267	 -0.814587	 -0.450062	 -0.119474	 0.707071	 -0.420483	 0.555851	 2
1463571461.447	 4	 -0.605126	 1.068888	 1.244702	 1.628800	 -0.801661	 -0.441277	 -0.114735	 0.712036	 -0.415200	 0.554481	 2
1463571461.457	 4	 -0.323336	 1.157799	 1.152486	 1.643451	 -0.789622	 -0.436771	 -0.109244	 0.716674	 -0.411168	 0.552616	 2
1463571461.467	 4	 -0.024721	 1.182940	 1.073385	 1.655400	 -0.778707	 -0.436547	 -0.103203	 0.720711	 -0.408432	 0.550553	 2
1463571461.477	 4	 0.188648	 1.185360	 1.053432	 1.664986	 -0.768371	 -0.439823	 -0.096601	 0.724211	 -0.406649	 0.548474	 2
1463571461.487	 4	 0.288049	 1.174805	 1.104691	 1.673148	 -0.757812	 -0.444992	 -0.089538	 0.727385	 -0.405191	 0.546547	 2
1463571461.497	 4	 0.374498	 1.317806	 1.205451	 1.681392	 -0.746480	 -0.451494	 -0.081723	 0.730638	 -0.403805	 0.544455	 2
1463571461.507	 4	 0.492736	 1.584564	 1.371031	 1.690969	 -0.733838	 -0.459772	 -0.072556	 0.734336	 -0.402479	 0.541754	 2
1463571461.517	 4	 0.638793	 1.836610	 1.572468	 1.701750	 -0.719478	 -0.470308	 -0.061750	 0.738441	 -0.401177	 0.538469	 2
1463571461.527	 4	 0.795884	 1.966075	 1.741761	 1.712756	 -0.703655	 -0.483253	 -0.049526	 0.742621	 -0.399953	 0.534881	 2
1463571461.537	 4	 0.893778	 1.813424	 1.851393	 1.722016	 -0.686885	 -0.498045	 -0.036649	 0.746256	 -0.398762	 0.531741	 2
1463571461.547	 4	 0.857140	 1.400751	 1.984290	 1.727782	 -0.668984	 -0.512971	 -0.024040	 0.748828	 -0.397089	 0.530094	 2
1463571461.557	 4	 0.730565	 0.892903	 2.156517	 1.729554	 -0.649326	 -0.526753	 -0.012069	 0.750209	 -0.394453	 0.530516	 2
1463571461.567	 4	 0.570710	 0.424863	 2.231354	 1.727825	 -0.628330	 -0.538633	 -0.001049	 0.750505	 -0.390854	 0.532893	 2
1463571461.577	 4	 0.394619	 0.088269	 2.092272	 1.723975	 -0.607864	 -0.548046	 0.008474	 0.750035	 -0.386787	 0.536443	 2
1463571461.587	 4	 0.257339	 -0.003083	 1.760099	 1.720173	 -0.590094	 -0.554828	 0.016149	 0.749377	 -0.382904	 0.539960	 2
1463571461.597	 4	 0.213358	 0.015615	 1.680724	 1.717119	 -0.573762	 -0.560437	 0.023067	 0.748795	 -0.379177	 0.543137	 2
1463571461.607	 4	 0.270113	 0.290853	 1.671067	 1.715997	 -0.557461	 -0.566156	 0.030390	 0.748645	 -0.375473	 0.545553	 2
1463571461.617	 4	 0.488021	 0.896580	 1.539455	 1.719384	 -0.542496	 -0.573827	 0.038844	 0.749589	 -0.372648	 0.545656	 2
1463571461.637	 5	 1.088727	 2.129805	 1.118330	 1.740053	 -0.519248	 -0.598526	 0.059614	 0.754698	 -0.371228	 0.537649	 2
1463571461.647	 5	 1.092315	 2.409766	 1.151811	 1.756373	 -0.510068	 -0.613296	 0.071219	 0.758579	 -0.371612	 0.530463	 2
1463571461.657	 5	 0.953831	 2.326262	 1.314235	 1.773362	 -0.499607	 -0.627308	 0.083074	 0.762493	 -0.371177	 0.523384	 2
1463571461.667	 5	 0.614741	 1.914554	 1.604310	 1.788177	 -0.486134	 -0.638864	 0.094534	 0.765772	 -0.369024	 0.518149	 2
1463571461.677	 5	 0.057309	 1.344148	 1.922518	 1.799947	 -0.468641	 -0.645743	 0.104872	 0.768331	 -0.364321	 0.515694	 2
1463571461.687	 5	 -0.577636	 0.714745	 2.140671	 1.808330	 -0.447243	 -0.646592	 0.113440	 0.770203	 -0.356808	 0.516340	 2
1463571461.697	 5	 -1.106906	 -0.117214	 2.336835	 1.811292	 -0.422856	 -0.641976	 0.119815	 0.770874	 -0.347072	 0.520517	 2
1463571461.707	 5	 -1.413874	 -0.957659	 2.625838	 1.806817	 -0.394599	 -0.634355	 0.124942	 0.769625	 -0.335577	 0.528636	 2
1463571461.717	 5	 -1.563017	 -1.800542	 2.349655	 1.794606	 -0.367146	 -0.624271	 0.127650	 0.766344	 -0.324111	 0.539791	 2
1463571461.727	 5	 -1.699542	 -2.178943	 1.741970	 1.777996	 -0.345173	 -0.611291	 0.126960	 0.762020	 -0.313972	 0.551932	 2
1463571461.737	 5	 -1.746398	 -2.377409	 1.195926	 1.759747	 -0.328629	 -0.595890	 0.123538	 0.757381	 -0.305056	 0.563961	 2
1463571461.747	 5	 -1.556222	 -2.161228	 0.724147	 1.741502	 -0.317786	 -0.580826	 0.118575	 0.752746	 -0.298102	 0.574847	 2
1463571461.757	 5	 -1.208798	 -0.685731	 0.462016	 1.733958	 -0.310603	 -0.568173	 0.115023	 0.751068	 -0.292392	 0.580667	 2
1463571461.767	 5	 -0.613468	 1.442727	 0.580018	 1.745370	 -0.304176	 -0.561006	 0.116051	 0.754579	 -0.287414	 0.578390	 2
1463571461.777	 5	 0.356627	 2.605029	 1.087558	 1.768670	 -0.295024	 -0.563710	 0.123322	 0.760814	 -0.283571	 0.570563	 2
1463571461.787	 5	 1.656951	 2.816927	 1.499184	 1.791552	 -0.283966	 -0.580415	 0.136417	 0.765826	 -0.282874	 0.561145	 2
1463571461.797	 6	 2.416718	 3.476308	 1.505100	 1.817137	 -0.274405	 -0.607105	 0.153261	 0.770635	 -0.284997	 0.549008	 2
1463571461.817	 6	 1.662849	 4.554709	 1.187049	 1.884934	 -0.260511	 -0.658214	 0.187006	 0.783782	 -0.287805	 0.517574	 2
1463571461.827	 6	 0.633894	 3.779648	 1.253807	 1.922773	 -0.251822	 -0.671043	 0.199982	 0.791800	 -0.284203	 0.502283	 2
1463571461.837	 6	 -0.332977	 2.193813	 0.717785	 1.949089	 -0.242873	 -0.672877	 0.206940	 0.797761	 -0.278632	 0.493069	 2
1463571461.847	 6	 -0.824780	 0.637665	 -0.078946	 1.960114	 -0.239346	 -0.666723	 0.206988	 0.800952	 -0.274647	 0.490103	 2
1463571461.857	 6	 -1.586541	 0.549908	 -0.461068	 1.968119	 -0.237598	 -0.652053	 0.202674	 0.804340	 -0.269571	 0.489174	 2
1463571461.867	 6	 -2.319081	 1.911708	 -0.851270	 1.989611	 -0.236034	 -0.628727	 0.196529	 0.811836	 -0.261152	 0.483837	 2
1463571461.877	 6	 -2.749276	 2.174081	 -0.925015	 2.018052	 -0.233166	 -0.599825	 0.189139	 0.821353	 -0.250355	 0.476370	 2
1463571461.887	 6	 -2.572771	 1.709815	 -1.073684	 2.043148	 -0.230541	 -0.570753	 0.180910	 0.829906	 -0.240117	 0.469970	 2
1463571461.907	 7	 -1.633987	 1.855505	 -1.870232	 2.088267	 -0.238045	 -0.520026	 0.163003	 0.844865	 -0.227514	 0.455928	 2
1463571461.917	 7	 -1.085989	 1.940640	 -2.375120	 2.113189	 -0.251293	 -0.497317	 0.152850	 0.852422	 -0.225845	 0.446102	 2
1463571461.927	 7	 0.348275	 -0.261538	 -2.451796	 2.123651	 -0.271754	 -0.482322	 0.142539	 0.855924	 -0.230171	 0.440565	 2
1463571461.937	 7	 3.598085	 -5.778609	 -1.742765	 2.071594	 -0.302280	 -0.498476	 0.135388	 0.843118	 -0.249851	 0.456504	 2
1463571461.947	 7	 4.589797	 -5.526469	 -2.505745	 2.003373	 -0.342469	 -0.529861	 0.128724	 0.825145	 -0.277571	 0.474890	 2
1463571461.957	 7	 3.319276	 0.700620	 -3.066603	 1.983006	 -0.385182	 -0.553956	 0.123819	 0.818724	 -0.300998	 0.473033	 2
1463571461.967	 7	 1.547501	 2.145428	 -2.697754	 2.004811	 -0.419019	 -0.560359	 0.120367	 0.823153	 -0.314038	 0.457506	 2
1463571461.977	 7	 0.817172	 -1.649195	 -1.773914	 1.997326	 -0.441238	 -0.560495	 0.113049	 0.821136	 -0.322932	 0.456804	 2
1463571461.987	 7	 0.411572	 -2.117397	 -1.234398	 1.975574	 -0.455427	 -0.559748	 0.105202	 0.815947	 -0.329278	 0.463399	 2
1463571461.997	 7	 0.179043	 -1.905782	 -1.187774	 1.957891	 -0.467224	 -0.556943	 0.097760	 0.811765	 -0.333910	 0.469025	 2
1463571462.007	 7	 0.156631	 -2.120663	 -1.201301	 1.938600	 -0.478940	 -0.553528	 0.089747	 0.807156	 -0.338327	 0.475373	 2
1463571462.017	 7	 0.295662	 -1.653729	 -1.143813	 1.921265	 -0.490723	 -0.551615	 0.082574	 0.802865	 -0.342920	 0.480619	 2
1463571462.027	 7	 0.476823	 -0.623395	 -0.822477	 1.911842	 -0.500923	 -0.552661	 0.078353	 0.800344	 -0.347247	 0.482421	 2
1463571462.037	 7	 0.659929	 -0.142471	 -0.431659	 1.907527	 -0.507759	 -0.557363	 0.077451	 0.798975	 -0.351012	 0.482111	 2
1463571462.047	 7	 0.816756	 -0.061819	 -0.539916	 1.903439	 -0.514856	 -0.563988	 0.077259	 0.797582	 -0.355311	 0.481299	 2
1463571462.057	 7	 0.926836	 0.135515	 -1.003711	 1.901011	 -0.526085	 -0.570541	 0.076081	 0.796500	 -0.360983	 0.479052	 2
1463571462.067	 7	 0.963730	 0.199074	 -1.463850	 1.900268	 -0.542049	 -0.575983	 0.073334	 0.795741	 -0.367971	 0.475411	 2
1463571462.077	 7	 0.834421	 -0.095794	 -1.696738	 1.898361	 -0.560542	 -0.579488	 0.068827	 0.794678	 -0.375388	 0.472052	 2
1463571462.087	 7	 0.557429	 -0.336315	 -1.828719	 1.895261	 -0.579524	 -0.579759	 0.062639	 0.793379	 -0.382200	 0.469626	 2
1463571462.097	 7	 0.367329	 -0.405446	 -2.051517	 1.893042	 -0.599656	 -0.576766	 0.054956	 0.792276	 -0.388571	 0.467216	 2
1463571462.117	 8	 0.334002	 -0.190676	 -2.368957	 1.891742	 -0.645732	 -0.567228	 0.037007	 0.790319	 -0.402291	 0.460638	 2
1463571462.127	 8	 0.293038	 -0.096571	 -2.315502	 1.894234	 -0.668810	 -0.561497	 0.028276	 0.789859	 -0.408842	 0.456258	 2
1463571462.137	 8	 0.256637	 -0.185254	 -2.239276	 1.896403	 -0.691071	 -0.555505	 0.019640	 0.789215	 -0.415049	 0.452205	 2
1463571462.147	 8	 0.156931	 -0.323934	 -2.189607	 1.898031	 -0.712486	 -0.548594	 0.010801	 0.788353	 -0.420757	 0.448716	 2
1463571462.157	 8	 -0.040366	 -0.504324	 -2.210883	 1.899526	 -0.733378	 -0.539334	 0.001183	 0.787350	 -0.425756	 0.445881	 2
1463571462.167	 8	 -0.324467	 -0.679847	 -2.329408	 1.902251	 -0.754187	 -0.526024	 -0.009717	 0.786443	 -0.429833	 0.443459	 2
1463571462.177	 8	 -0.528473	 -0.762532	 -2.813323	 1.907482	 -0.777728	 -0.507536	 -0.022888	 0.785601	 -0.433739	 0.440657	 2
1463571462.187	 8	 -0.548488	 -0.567629	 -3.517936	 1.917867	 -0.807381	 -0.484097	 -0.038618	 0.784917	 -0.438787	 0.435751	 2
1463571462.197	 8	 -0.428516	 -0.236936	 -4.067968	 1.934304	 -0.842784	 -0.457524	 -0.055773	 0.784334	 -0.445436	 0.428130	 2
1463571462.207	 8	 -0.374119	 -0.361407	 -4.196426	 1.952859	 -0.880307	 -0.428581	 -0.073748	 0.783131	 -0.452666	 0.419954	 2
1463571462.227	 9	 0.159466	 0.105940	 -4.215907	 1.994668	 -0.957430	 -0.371331	 -0.107984	 0.778919	 -0.469195	 0.401848	 2
1463571462.237	 9	 0.596801	 0.613097	 -4.064723	 2.019096	 -0.996884	 -0.348085	 -0.121836	 0.776412	 -0.479557	 0.390339	 2
1463571462.257	 10	 0.211512	 1.144413	 -2.822271	 2.069950	 -1.062771	 -0.307885	 -0.141985	 0.772184	 -0.498047	 0.368131	 2
1463571462.267	 10	 -0.617945	 1.752716	 -1.996212	 2.112623	 -1.079583	 -0.277647	 -0.147142	 0.774582	 -0.501531	 0.356145	 2
1463571462.277	 10	 -1.017075	 2.224712	 -1.751746	 2.166889	 -1.089406	 -0.240128	 -0.150388	 0.779329	 -0.502514	 0.342797	 2
1463571462.287	 10	 -1.096638	 2.672741	 -1.896091	 2.230828	 -1.098022	 -0.197094	 -0.153021	 0.784974	 -0.503303	 0.327241	 2
1463571462.297	 10	 -0.805019	 2.660801	 -1.811348	 2.295224	 -1.106605	 -0.155300	 -0.154979	 0.790145	 -0.504803	 0.311171	 2
1463571462.307	 10	 -0.286805	 2.316504	 -0.972849	 2.341663	 -1.112707	 -0.130104	 -0.154352	 0.793877	 -0.506879	 0.298342	 2
1463571462.317	 10	 -0.159483	 2.393191	 -0.173922	 2.372729	 -1.114143	 -0.121707	 -0.150061	 0.797456	 -0.508566	 0.287934	 2
1463571462.327	 10	 -0.431299	 2.340430	 0.506844	 2.396169	 -1.109307	 -0.122085	 -0.143119	 0.801944	 -0.508461	 0.279053	 2
1463571462.337	 10	 -0.788428	 1.783442	 0.996087	 2.412214	 -1.098023	 -0.126022	 -0.135568	 0.807078	 -0.505716	 0.272942	 2
1463571462.347	 10	 -0.751528	 0.838202	 1.200122	 2.416233	 -1.084442	 -0.133700	 -0.129175	 0.811286	 -0.501693	 0.270985	 2
1463571462.357	 10	 -0.703841	 0.331638	 1.180073	 2.412363	 -1.071255	 -0.142643	 -0.124281	 0.814343	 -0.497469	 0.271890	 2
1463571462.367	 10	 -0.804191	 0.448917	 1.031765	 2.411389	 -1.058315	 -0.148481	 -0.119934	 0.817482	 -0.493095	 0.272389	 2
1463571462.377	 10	 -0.859067	 0.474621	 0.887539	 2.414115	 -1.045845	 -0.150869	 -0.116152	 0.820768	 -0.488641	 0.272176	 2
1463571462.387	 10	 -0.780328	 0.391720	 0.927647	 2.415923	 -1.033811	 -0.153561	 -0.112543	 0.823812	 -0.484324	 0.272208	 2
1463571462.397	 10	 -0.651781	 0.333176	 1.119951	 2.413623	 -1.021625	 -0.160230	 -0.108246	 0.826510	 -0.480246	 0.272998	 2
1463571462.407	 10	 -0.642171	 0.412073	 1.296453	 2.409211	 -1.008515	 -0.169976	 -0.102983	 0.829218	 -0.476106	 0.274069	 2
1463571462.417	 10	 -0.670959	 0.500611	 1.466983	 2.404573	 -0.994047	 -0.181214	 -0.096860	 0.832172	 -0.471627	 0.275095	 2
1463571462.427	 10	 -0.657876	 0.572608	 1.720125	 2.398372	 -0.978012	 -0.195225	 -0.089598	 0.835252	 -0.466843	 0.276377	 2
1463571462.437	 10	 -0.653540	 0.839161	 1.958101	 2.392216	 -0.960279	 -0.212053	 -0.080749	 0.838652	 -0.461795	 0.277287	 2
1463571462.447	 10	 -0.686927	 0.778600	 1.953565	 2.386662	 -0.941843	 -0.229033	 -0.071466	 0.842097	 -0.456535	 0.278102	 2
1463571462.457	 10	 -0.784568	 0.275446	 1.611887	 2.381121	 -0.924567	 -0.241120	 -0.064368	 0.844985	 -0.451084	 0.279964	 2
1463571462.467	 10	 -0.767655	 -0.325271	 1.209686	 2.374167	 -0.909859	 -0.247719	 -0.060328	 0.846910	 -0.445871	 0.283376	 2
1463571462.477	 10	 -0.501053	 -1.059639	 0.958603	 2.361309	 -0.898678	 -0.252867	 -0.058836	 0.847231	 -0.441720	 0.289176	 2
1463571462.487	 10	 -0.132231	 -1.704205	 0.811911	 2.340501	 -0.891035	 -0.259807	 -0.058969	 0.845727	 -0.439052	 0.297492	 2
1463571462.497	 10	 0.233907	 -2.239212	 0.665195	 2.312039	 -0.886913	 -0.269147	 -0.060430	 0.842406	 -0.437970	 0.308030	 2
1463571462.507	 10	 0.559249	 -2.407919	 0.559545	 2.279113	 -0.885743	 -0.280881	 -0.062468	 0.837798	 -0.438336	 0.319459	 2
1463571462.517	 10	 0.815862	 -2.301271	 0.556172	 2.243945	 -0.886189	 -0.295753	 -0.064075	 0.832478	 -0.439816	 0.330812	 2
1463571462.527	 10	 0.364440	 -0.553698	 0.089311	 2.224694	 -0.887575	 -0.305268	 -0.064674	 0.829350	 -0.441320	 0.336501	 2
1463571462.537	 10	 0.117482	 1.032379	 -0.564145	 2.234751	 -0.891551	 -0.302426	 -0.064528	 0.830300	 -0.442705	 0.332340	 2
1463571462.547	 10	 0.606661	 1.138377	 -0.856239	 2.247833	 -0.900755	 -0.300344	 -0.064538	 0.830882	 -0.446347	 0.325952	 2
1463571462.557	 10	 1.108142	 1.208455	 -0.963332	 2.257583	 -0.914390	 -0.303232	 -0.064159	 0.830276	 -0.452403	 0.319152	 2
1463571462.567	 10	 1.325806	 0.927424	 -0.908160	 2.262333	 -0.929714	 -0.309873	 -0.063686	 0.828639	 -0.459516	 0.313283	 2
1463571462.577	 10	 1.375277	 0.709864	 -0.822157	 2.262847	 -0.944976	 -0.318646	 -0.063286	 0.826370	 -0.466752	 0.308626	 2
1463571462.587	 10	 1.270822	 0.441676	 -0.739548	 2.260770	 -0.959103	 -0.327566	 -0.063204	 0.823873	 -0.473439	 0.305112	 2
1463571462.597	 10	 1.263430	 0.224784	 -0.730844	 2.256084	 -0.972678	 -0.336512	 -0.063646	 0.821059	 -0.479788	 0.302681	 2
1463571462.607	 10	 1.407899	 0.133521	 -0.790502	 2.249063	 -0.987279	 -0.346776	 -0.064395	 0.817742	 -0.486590	 0.300633	 2
1463571462.617	 10	 1.601160	 0.229103	 -0.878688	 2.240396	 -1.003680	 -0.359338	 -0.065091	 0.813927	 -0.494285	 0.298277	 2
1463571462.627	 10	 1.541154	 0.676652	 -0.934749	 2.235040	 -1.020732	 -0.371976	 -0.065171	 0.810481	 -0.502252	 0.294309	 2
1463571462.637	 10	 1.109279	 1.602617	 -0.876545	 2.241654	 -1.035471	 -0.379898	 -0.063652	 0.809017	 -0.508992	 0.286995	 2
1463571462.647	 10	 0.549344	 2.706825	 -0.491575	 2.263516	 -1.044515	 -0.382994	 -0.058852	 0.810516	 -0.513393	 0.275732	 2
1463571462.657	 10	 0.148427	 2.856952	 -0.045462	 2.291195	 -1.047142	 -0.384569	 -0.051675	 0.813798	 -0.515332	 0.263620	 2
1463571462.667	 10	 -0.007294	 2.004992	 0.183500	 2.311651	 -1.046159	 -0.386898	 -0.045239	 0.816693	 -0.515767	 0.254854	 2
1463571462.677	 10	 -0.002580	 1.003821	 0.142169	 2.322475	 -1.044938	 -0.388853	 -0.041387	 0.818335	 -0.515797	 0.250139	 2
1463571462.687	 10	 0.031284	 0.042190	 0.138255	 2.323379	 -1.044149	 -0.391019	 -0.040099	 0.818642	 -0.515793	 0.249348	 2
1463571462.697	 10	 -0.249483	 -0.625379	 0.370021	 2.316747	 -1.041093	 -0.392986	 -0.040348	 0.818432	 -0.514774	 0.252090	 2
1463571462.707	 10	 -1.055044	 -1.242447	 0.606827	 2.309999	 -1.031191	 -0.388388	 -0.041827	 0.819343	 -0.510378	 0.257764	 2
1463571462.717	 10	 -1.644069	 -1.435538	 0.582449	 2.307639	 -1.016497	 -0.374148	 -0.045098	 0.821466	 -0.502990	 0.264879	 2
1463571462.727	 10	 -1.373108	 -0.575676	 0.609406	 2.310321	 -1.001935	 -0.360807	 -0.046795	 0.824212	 -0.495798	 0.269571	 2
1463571462.737	 10	 -0.227188	 1.062103	 0.754283	 2.315299	 -0.993162	 -0.362275	 -0.043088	 0.826526	 -0.492791	 0.268619	 2
1463571462.747	 10	 0.715273	 2.119411	 1.145985	 2.318684	 -0.988908	 -0.381782	 -0.033275	 0.828120	 -0.493839	 0.263122	 2
1463571462.757	 10	 0.967113	 0.905615	 1.510843	 2.304846	 -0.985610	 -0.413758	 -0.022753	 0.827338	 -0.496598	 0.261503	 2
1463571462.767	 10	 -0.454260	 0.497101	 1.217807	 2.298460	 -0.974500	 -0.428065	 -0.015959	 0.828557	 -0.494257	 0.262580	 2
1463571462.777	 10	 -0.897659	 0.573714	 0.457163	 2.307303	 -0.964150	 -0.424280	 -0.013066	 0.831447	 -0.489945	 0.261686	 2
1463571462.787	 10	 -0.490048	 0.123736	 0.172329	 2.313090	 -0.958632	 -0.419582	 -0.012397	 0.833108	 -0.487287	 0.261398	 2
1463571462.797	 10	 -0.890322	 1.069236	 -0.435662	 2.331705	 -0.955078	 -0.406552	 -0.012543	 0.836047	 -0.484363	 0.257411	 2
1463571462.807	 10	 -0.715105	 1.741686	 -0.916918	 2.364464	 -0.955351	 -0.386336	 -0.013156	 0.840013	 -0.482122	 0.248523	 2
1463571462.817	 10	 0.277708	 1.442212	 -0.745037	 2.388522	 -0.961125	 -0.376228	 -0.012773	 0.841854	 -0.483283	 0.239908	 2
1463571462.827	 10	 0.793419	 1.198829	 -0.658005	 2.400918	 -0.970683	 -0.376094	 -0.011726	 0.841578	 -0.487063	 0.233192	 2
1463571462.837	 10	 1.276732	 0.550261	 -0.723668	 2.404851	 -0.983961	 -0.380542	 -0.011518	 0.839601	 -0.492756	 0.228316	 2
1463571462.847	 10	 1.574858	 -0.264349	 -0.733844	 2.396615	 -1.000154	 -0.389453	 -0.013047	 0.835686	 -0.499968	 0.226915	 2
1463571462.857	 10	 1.663239	 -0.929832	 -0.798357	 2.380209	 -1.017432	 -0.399868	 -0.016330	 0.830634	 -0.507629	 0.228241	 2
1463571462.867	 10	 1.793516	 -1.726576	 -0.906022	 2.355043	 -1.036171	 -0.411482	 -0.021839	 0.824292	 -0.515780	 0.232458	 2
1463571462.877	 10	 1.828074	 -2.289576	 -0.940337	 2.321852	 -1.055600	 -0.424685	 -0.029195	 0.816861	 -0.524098	 0.239181	 2
1463571462.887	 10	 1.832653	 -2.456518	 -0.932338	 2.284359	 -1.074788	 -0.439836	 -0.037179	 0.808931	 -0.532266	 0.246863	 2
1463571462.897	 10	 1.909488	 -2.543042	 -1.099006	 2.244529	 -1.094975	 -0.456358	 -0.045843	 0.800497	 -0.540650	 0.254561	 2
1463571462.907	 10	 2.087723	 -2.449682	 -1.206265	 2.201586	 -1.116757	 -0.476549	 -0.054695	 0.791421	 -0.549675	 0.261760	 2
1463571462.917	 10	 2.285691	 -2.213070	 -1.351796	 2.155934	 -1.140264	 -0.501946	 -0.063177	 0.781834	 -0.559528	 0.267717	 2
1463571462.927	 10	 2.419726	 -2.103518	 -1.590675	 2.107275	 -1.165952	 -0.531951	 -0.071870	 0.771681	 -0.570184	 0.272457	 2
1463571462.937	 10	 2.309224	 -2.064183	 -1.784381	 2.057543	 -1.192663	 -0.563336	 -0.081283	 0.761405	 -0.580795	 0.276284	 2
1463571462.947	 10	 2.015907	 -2.003993	 -1.816437	 2.009436	 -1.218312	 -0.593160	 -0.091179	 0.751663	 -0.590387	 0.279520	 2
1463571462.957	 10	 1.654781	 -1.748858	 -1.687291	 1.966017	 -1.241169	 -0.619876	 -0.100610	 0.743095	 -0.598451	 0.282036	 2
1463571462.967	 10	 1.411488	 -1.475336	 -1.468409	 1.926458	 -1.260711	 -0.645375	 -0.108795	 0.735724	 -0.605210	 0.283891	 2
1463571462.977	 10	 1.324382	 -1.303695	 -1.301926	 1.886541	 -1.277724	 -0.673073	 -0.115877	 0.728990	 -0.611251	 0.285514	 2
1463571462.987	 10	 1.343424	 -1.131288	 -1.280238	 1.844146	 -1.293927	 -0.705017	 -0.122259	 0.722460	 -0.617222	 0.286603	 2
1463571462.997	 10	 1.410730	 -0.969130	 -1.185528	 1.795935	 -1.309115	 -0.744588	 -0.127738	 0.715933	 -0.623347	 0.287335	 2
1463571463.007	 10	 1.400806	 -0.909746	 -1.067655	 1.741936	 -1.322662	 -0.790903	 -0.132494	 0.709477	 -0.629360	 0.288086	 2
1463571463.017	 10	 1.242195	 -0.914888	 -0.960811	 1.686940	 -1.334259	 -0.838160	 -0.136997	 0.703427	 -0.634717	 0.289061	 2
1463571463.027	 10	 1.040779	 -0.920117	 -0.884511	 1.635135	 -1.344221	 -0.881953	 -0.141499	 0.697997	 -0.639204	 0.290166	 2
1463571463.037	 10	 0.894864	 -0.912842	 -0.820293	 1.586507	 -1.352952	 -0.922398	 -0.146004	 0.693095	 -0.642979	 0.291342	 2
1463571463.047	 10	 0.830181	 -0.874994	 -0.760760	 1.538641	 -1.360641	 -0.962329	 -0.150306	 0.688516	 -0.646363	 0.292520	 2
1463571463.057	 10	 0.848733	 -0.848995	 -0.688208	 1.488297	 -1.367217	 -1.005024	 -0.154276	 0.684009	 -0.649622	 0.293805	 2
1463571463.067	 10	 0.946152	 -0.839234	 -0.622888	 1.431645	 -1.372538	 -1.054285	 -0.157826	 0.679287	 -0.653036	 0.295302	 2
1463571463.077	 10	 1.074424	 -1.018317	 -0.625672	 1.365042	 -1.376842	 -1.112471	 -0.161493	 0.673967	 -0.656720	 0.297335	 2
1463571463.087	 10	 1.175386	 -1.491443	 -0.706622	 1.285462	 -1.380692	 -1.179690	 -0.166548	 0.667583	 -0.660488	 0.300582	 2
1463571463.097	 10	 1.223531	 -2.077146	 -0.786029	 1.192725	 -1.383958	 -1.254463	 -0.173627	 0.659977	 -0.664049	 0.305487	 2
1463571463.107	 10	 1.139725	 -2.563709	 -0.887877	 1.092300	 -1.386941	 -1.331652	 -0.182819	 0.651527	 -0.667027	 0.311713	 2
1463571463.117	 10	 0.895284	 -2.736922	 -0.965162	 0.993815	 -1.390275	 -1.404181	 -0.193440	 0.643126	 -0.669099	 0.318241	 2
1463571463.127	 10	 0.546670	 -2.644580	 -0.985780	 0.906540	 -1.394581	 -1.465676	 -0.204522	 0.635716	 -0.670055	 0.324132	 2
1463571463.137	 10	 0.188836	 -2.511441	 -0.957978	 0.833313	 -1.400190	 -1.514200	 -0.215649	 0.629613	 -0.669846	 0.329225	 2
1463571463.147	 10	 -0.147497	 -2.387569	 -0.879294	 0.774870	 -1.407152	 -1.548951	 -0.226679	 0.624832	 -0.668459	 0.333714	 2
1463571463.157	 10	 -0.416597	 -2.276547	 -0.785328	 0.730294	 -1.415275	 -1.570807	 -0.237467	 0.621219	 -0.666041	 0.337767	 2
1463571463.167	 10	 -0.610269	 -2.212761	 -0.721234	 0.695702	 -1.424357	 -1.583262	 -0.248107	 0.618417	 -0.662836	 0.341542	 2
1463571463.177	 10	 -0.809018	 -2.072568	 -0.683029	 0.670403	 -1.434599	 -1.587439	 -0.258537	 0.616412	 -0.659005	 0.344829	 2
1463571463.187	 10	 -1.038993	 -1.801147	 -0.601766	 0.660138	 -1.446182	 -1.578871	 -0.268326	 0.615558	 -0.654601	 0.347256	 2
1463571463.197	 10	 -1.323514	 -1.416070	 -0.416657	 0.678800	 -1.458892	 -1.544773	 -0.276906	 0.616331	 -0.649515	 0.348695	 2
1463571463.207	 10	 -1.636649	 -0.895746	 -0.073374	 0.753914	 -1.471776	 -1.458798	 -0.283497	 0.619350	 -0.643510	 0.349184	 2
1463571463.217	 10	 -1.810040	 -0.388582	 0.271767	 0.901526	 -1.482457	 -1.305492	 -0.287629	 0.624421	 -0.636948	 0.348805	 2
1463571463.227	 10	 -1.920916	 0.004751	 0.638752	 1.121673	 -1.487901	 -1.083605	 -0.289508	 0.631039	 -0.629923	 0.348097	 2
1463571463.237	 10	 -2.101059	 0.432214	 0.990671	 1.390383	 -1.485613	 -0.817198	 -0.289181	 0.639329	 -0.622307	 0.346941	 2
1463571463.247	 10	 -2.404542	 0.798813	 1.259968	 1.658879	 -1.474619	 -0.554776	 -0.287124	 0.649449	 -0.613797	 0.345006	 2
1463571463.257	 10	 -2.917454	 1.178199	 1.448078	 1.898480	 -1.455004	 -0.324646	 -0.284020	 0.661759	 -0.603807	 0.341796	 2
1463571463.267	 10	 -3.345157	 1.763546	 1.618179	 2.092735	 -1.427136	 -0.144934	 -0.279495	 0.676440	 -0.592494	 0.336544	 2
1463571463.277	 10	 -3.260422	 2.576405	 1.834960	 2.226248	 -1.393879	 -0.033614	 -0.272018	 0.692562	 -0.581427	 0.329098	 2
1463571463.287	 10	 -2.657883	 3.439834	 2.047704	 2.304358	 -1.360428	 0.013052	 -0.260301	 0.708624	 -0.572575	 0.319770	 2
1463571463.297	 10	 -1.906002	 4.104639	 2.211471	 2.345672	 -1.330307	 0.014791	 -0.244539	 0.723546	 -0.566679	 0.309123	 2
1463571463.307	 10	 -1.295999	 4.314758	 2.392492	 2.364038	 -1.303589	 -0.010589	 -0.226043	 0.736876	 -0.562932	 0.298373	 2
1463571463.317	 10	 -0.950530	 4.055918	 2.625806	 2.366607	 -1.278360	 -0.051063	 -0.206369	 0.748593	 -0.559872	 0.289073	 2
1463571463.327	 10	 -0.900577	 3.374541	 2.847104	 2.359129	 -1.252363	 -0.096326	 -0.187157	 0.758938	 -0.556020	 0.282537	 2
1463571463.337	 10	 -1.072203	 2.411208	 2.965394	 2.346452	 -1.224286	 -0.137875	 -0.169975	 0.768119	 -0.550373	 0.279627	 2
1463571463.347	 10	 -1.366588	 1.363984	 2.905990	 2.333320	 -1.194308	 -0.169310	 -0.156027	 0.776296	 -0.542638	 0.280295	 2
1463571463.357	 10	 -1.722730	 0.396280	 2.787115	 2.321469	 -1.162601	 -0.188927	 -0.145641	 0.783694	 -0.532770	 0.284199	 2
1463571463.367	 10	 -2.012070	 -0.396472	 2.620262	 2.311029	 -1.129794	 -0.198069	 -0.138505	 0.790419	 -0.521120	 0.290669	 2
1463571463.377	 10	 -2.079643	 -0.947879	 2.383383	 2.300738	 -1.097722	 -0.200293	 -0.134006	 0.796212	 -0.508709	 0.298838	 2
1463571463.387	 10	 -1.985418	 -1.061299	 2.328219	 2.289501	 -1.067035	 -0.200955	 -0.130469	 0.801182	 -0.496461	 0.307590	 2
1463571463.397	 10	 -1.700140	 -0.768531	 2.334854	 2.277765	 -1.037635	 -0.204526	 -0.125975	 0.805727	 -0.485075	 0.315653	 2
1463571463.407	 10	 -1.261100	 -0.160928	 2.257819	 2.267557	 -1.011401	 -0.212640	 -0.119756	 0.809898	 -0.475708	 0.321599	 2
1463571463.417	 10	 -0.934760	 0.496273	 2.228054	 2.260743	 -0.987822	 -0.224710	 -0.111536	 0.814100	 -0.468215	 0.324925	 2
1463571463.427	 10	 -0.776795	 1.179709	 2.227710	 2.259068	 -0.965491	 -0.238903	 -0.101404	 0.818802	 -0.461835	 0.325560	 2
1463571463.437	 10	 -0.734209	 1.721069	 2.095959	 2.263978	 -0.944314	 -0.252571	 -0.090148	 0.824131	 -0.456097	 0.323507	 2
1463571463.447	 10	 -0.714766	 1.940771	 1.893207	 2.273628	 -0.924777	 -0.264272	 -0.078953	 0.829657	 -0.450788	 0.319727	 2
1463571463.457	 10	 -0.606840	 1.932449	 1.669446	 2.284713	 -0.907503	 -0.274775	 -0.068422	 0.834807	 -0.446105	 0.315286	 2
1463571463.467	 10	 -0.439110	 1.758644	 1.383941	 2.295418	 -0.893391	 -0.284315	 -0.059064	 0.839190	 -0.442387	 0.310749	 2
1463571463.477	 10	 -0.216487	 1.352656	 1.223690	 2.302367	 -0.882212	 -0.294273	 -0.050987	 0.842408	 -0.439700	 0.307267	 2
1463571463.487	 10	 0.031934	 0.911076	 1.152406	 2.303373	 -0.873320	 -0.306146	 -0.043881	 0.844305	 -0.438023	 0.305548	 2
1463571463.497	 10	 0.252169	 0.635221	 1.042411	 2.300017	 -0.866664	 -0.319583	 -0.037525	 0.845139	 -0.437373	 0.305019	 2
1463571463.507	 10	 0.365056	 0.514427	 0.858059	 2.295288	 -0.862195	 -0.332874	 -0.031984	 0.845357	 -0.437552	 0.304789	 2
1463571463.517	 10	 0.355730	 0.539384	 0.629233	 2.292056	 -0.859439	 -0.344000	 -0.027392	 0.845460	 -0.438113	 0.304145	 2
1463571463.527	 10	 0.357006	 0.770694	 0.406499	 2.292475	 -0.858295	 -0.352725	 -0.023363	 0.845811	 -0.438991	 0.302234	 2
1463571463.537	 10	 0.429096	 1.092120	 0.172263	 2.297283	 -0.859260	 -0.359729	 -0.019552	 0.846460	 -0.440474	 0.298507	 2
1463571463.547	 10	 0.564923	 1.345341	 -0.054637	 2.305584	 -0.862782	 -0.365784	 -0.015919	 0.847199	 -0.442826	 0.293097	 2
1463571463.557	 10	 0.690753	 1.471337	 -0.229345	 2.315859	 -0.868632	 -0.371313	 -0.012551	 0.847820	 -0.445998	 0.286583	 2
1463571463.567	 10	 0.853613	 1.513339	 -0.384907	 2.326672	 -0.876689	 -0.376893	 -0.009485	 0.848118	 -0.450011	 0.279458	 2
1463571463.577	 10	 0.996608	 1.457193	 -0.589170	 2.337425	 -0.887196	 -0.382077	 -0.007080	 0.847950	 -0.454892	 0.272035	 2
1463571463.587	 10	 1.126608	 1.420778	 -0.864541	 2.348697	 -0.900496	 -0.385796	 -0.005717	 0.847319	 -0.460638	 0.264256	 2
1463571463.597	 10	 1.338905	 1.185223	 -1.140351	 2.360001	 -0.917073	 -0.387973	 -0.005622	 0.846048	 -0.467434	 0.256274	 2
1463571463.607	 10	 1.733831	 0.449902	 -1.324351	 2.363003	 -0.937736	 -0.392028	 -0.007477	 0.842930	 -0.476002	 0.250670	 2
1463571463.617	 10	 1.845424	 0.203216	 -1.416077	 2.361028	 -0.960736	 -0.397155	 -0.010561	 0.838702	 -0.485517	 0.246455	 2
1463571463.627	 10	 1.332778	 1.039509	 -1.435804	 2.368173	 -0.981431	 -0.397684	 -0.012870	 0.835877	 -0.493565	 0.239869	 2
1463571463.637	 10	 0.507350	 3.019632	 -1.226880	 2.398949	 -0.995886	 -0.389763	 -0.011483	 0.836754	 -0.498377	 0.226563	 2
1463571463.647	 10	 -0.490254	 3.348063	 -0.488288	 2.445407	 -0.998316	 -0.377021	 -0.005727	 0.841306	 -0.498128	 0.209856	 2
1463571463.657	 10	 -0.840683	 1.060259	 0.252297	 2.468733	 -0.991611	 -0.368848	 -0.002132	 0.844996	 -0.494703	 0.203093	 2
1463571463.667	 10	 -0.603404	 -0.308698	 0.628627	 2.467757	 -0.982734	 -0.369180	 -0.000598	 0.846611	 -0.491236	 0.204784	 2
1463571463.677	 10	 -0.261833	 -0.705704	 0.581460	 2.457777	 -0.976265	 -0.373835	 0.000126	 0.846814	 -0.489165	 0.208863	 2
1463571463.687	 10	 -0.051172	 -1.200642	 0.470575	 2.442328	 -0.972385	 -0.379584	 -0.000486	 0.845909	 -0.488246	 0.214600	 2
1463571463.697	 10	 -0.002017	 -1.604195	 0.429090	 2.422331	 -0.969551	 -0.385333	 -0.002391	 0.844256	 -0.487749	 0.222096	 2
1463571463.707	 10	 -0.149268	 -1.514270	 0.596402	 2.401854	 -0.965197	 -0.391234	 -0.004034	 0.842747	 -0.486686	 0.229997	 2
1463571463.717	 10	 -0.286584	 -1.254173	 0.913352	 2.382524	 -0.957597	 -0.398690	 -0.004057	 0.841864	 -0.484570	 0.237573	 2
1463571463.727	 10	 -0.185364	 -0.886203	 1.242018	 2.363048	 -0.947922	 -0.410498	 -0.001803	 0.841224	 -0.482227	 0.244530	 2
1463571463.737	 10	 -0.230247	 -0.556470	 1.372303	 2.345556	 -0.936896	 -0.424305	 0.002119	 0.840930	 -0.479698	 0.250445	 2
1463571463.747	 10	 -0.324983	 0.149189	 1.401010	 2.334827	 -0.924711	 -0.436808	 0.007425	 0.841552	 -0.476631	 0.254081	 2
1463571463.757	 10	 -0.392965	 0.999371	 1.276292	 2.334677	 -0.912555	 -0.447404	 0.014483	 0.843424	 -0.473320	 0.253759	 2
1463571463.767	 10	 -0.086330	 0.165876	 1.012215	 2.332139	 -0.903369	 -0.457152	 0.019995	 0.844459	 -0.471059	 0.254151	 2
1463571463.777	 10	 0.519946	 -1.213751	 0.800130	 2.311637	 -0.899809	 -0.471006	 0.021789	 0.842224	 -0.471695	 0.260169	 2
1463571463.787	 10	 0.114173	 0.057848	 0.570370	 2.299062	 -0.897015	 -0.481366	 0.023808	 0.840877	 -0.472136	 0.263527	 2
1463571463.797	 10	 -0.469320	 2.367978	 0.037422	 2.319455	 -0.893184	 -0.479114	 0.028522	 0.844127	 -0.470122	 0.256168	 2
1463571463.807	 10	 -0.696236	 2.661618	 -0.482225	 2.355567	 -0.891345	 -0.467668	 0.032542	 0.849095	 -0.467434	 0.243894	 2
1463571463.817	 10	 -0.796671	 1.531249	 -0.781756	 2.387437	 -0.890676	 -0.450734	 0.032902	 0.853287	 -0.464627	 0.234392	 2
1463571463.827	 10	 -0.479188	 -0.285117	 -0.907999	 2.402428	 -0.892288	 -0.433900	 0.028859	 0.855036	 -0.463067	 0.231622	 2
1463571463.837	 10	 0.330703	 -1.815639	 -0.725732	 2.393566	 -0.898447	 -0.426060	 0.022206	 0.853102	 -0.464687	 0.236200	 2
1463571463.847	 10	 0.980963	 -2.190900	 -0.729557	 2.371208	 -0.909355	 -0.427136	 0.015198	 0.848632	 -0.469292	 0.243633	 2
1463571463.857	 10	 1.357683	 -2.064220	 -1.148371	 2.347965	 -0.925619	 -0.429916	 0.007457	 0.843086	 -0.476062	 0.250032	 2
1463571463.867	 10	 1.706647	 -1.945913	 -1.559561	 2.326324	 -0.947425	 -0.432330	 -0.001417	 0.836742	 -0.484733	 0.254744	 2
1463571463.877	 10	 2.072528	 -1.856584	 -1.706859	 2.302909	 -0.973237	 -0.437948	 -0.010482	 0.829416	 -0.495102	 0.258519	 2
1463571463.887	 10	 2.253991	 -1.766347	 -1.803518	 2.277414	 -1.001250	 -0.447109	 -0.019381	 0.821391	 -0.506462	 0.261608	 2
1463571463.897	 10	 2.176503	 -1.770466	 -1.962746	 2.252251	 -1.030136	 -0.456000	 -0.028836	 0.813191	 -0.517797	 0.264150	 2
1463571463.907	 10	 1.991844	 -1.891092	 -2.097613	 2.228255	 -1.058997	 -0.462300	 -0.039343	 0.805044	 -0.528473	 0.266595	 2
1463571463.917	 10	 1.798775	 -2.017788	 -2.193029	 2.205260	 -1.087449	 -0.465785	 -0.050884	 0.796962	 -0.538324	 0.269201	 2
1463571463.927	 10	 1.688854	 -1.981619	 -2.236497	 2.183590	 -1.115497	 -0.467642	 -0.062844	 0.788991	 -0.547532	 0.271573	 2
1463571463.937	 10	 1.721917	 -1.754152	 -2.243195	 2.162457	 -1.143656	 -0.470827	 -0.074363	 0.781023	 -0.556662	 0.273130	 2
1463571463.947	 10	 1.823259	 -1.369971	 -2.172293	 2.140976	 -1.171867	 -0.478246	 -0.084558	 0.773101	 -0.566060	 0.273388	 2
1463571463.957	 10	 1.932136	 -1.057401	 -1.999811	 2.116544	 -1.199311	 -0.492385	 -0.093064	 0.765211	 -0.575673	 0.272747	 2
1463571463.967	 10	 2.060313	 -0.708870	 -1.847411	 2.087361	 -1.225834	 -0.515072	 -0.099777	 0.757333	 -0.585577	 0.271276	 2
1463571463.977	 10	 2.155946	 -0.508832	 -1.651348	 2.051180	 -1.251010	 -0.547557	 -0.104928	 0.749418	 -0.595641	 0.269397	 2
1463571463.987	 10	 2.185807	 -0.490147	 -1.409506	 2.005210	 -1.273836	 -0.590692	 -0.108934	 0.741425	 -0.605489	 0.267965	 2
1463571463.997	 10	 2.125309	 -0.550530	 -1.253940	 1.950308	 -1.294157	 -0.642418	 -0.112416	 0.733454	 -0.614837	 0.267178	 2
1463571464.007	 10	 1.942160	 -0.754715	 -1.177510	 1.889891	 -1.312207	 -0.697870	 -0.116251	 0.725669	 -0.623313	 0.267154	 2
1463571464.017	 10	 1.696515	 -1.052603	 -1.140842	 1.827037	 -1.328198	 -0.752673	 -0.121101	 0.718176	 -0.630609	 0.268122	 2
1463571464.027	 10	 1.465986	 -1.296436	 -1.124051	 1.763161	 -1.342603	 -0.805587	 -0.127023	 0.710978	 -0.636801	 0.269926	 2
1463571464.037	 10	 1.256131	 -1.476337	 -1.084473	 1.699445	 -1.355511	 -0.856226	 -0.133707	 0.704149	 -0.641972	 0.272338	 2
1463571464.047	 10	 1.124464	 -1.573701	 -1.070377	 1.634770	 -1.367215	 -0.906307	 -0.140917	 0.697571	 -0.646379	 0.275195	 2
1463571464.057	 10	 1.086719	 -1.572196	 -1.171282	 1.566283	 -1.378973	 -0.960184	 -0.148453	 0.691037	 -0.650619	 0.277713	 2
1463571464.067	 10	 1.091331	 -1.639957	 -1.273200	 1.489310	 -1.390987	 -1.022029	 -0.156512	 0.684270	 -0.654873	 0.280035	 2
1463571464.077	 10	 1.058465	 -1.764781	 -1.339087	 1.402164	 -1.402799	 -1.092955	 -0.165193	 0.677259	 -0.658988	 0.282430	 2
1463571464.087	 10	 0.952987	 -1.907401	 -1.394916	 1.306643	 -1.414174	 -1.170741	 -0.174643	 0.670177	 -0.662665	 0.285024	 2
1463571464.097	 10	 0.764745	 -1.955066	 -1.443811	 1.207039	 -1.425291	 -1.251768	 -0.184727	 0.663387	 -0.665686	 0.287499	 2
1463571464.107	 10	 0.543404	 -1.823571	 -1.440660	 1.108460	 -1.436112	 -1.332370	 -0.194884	 0.657323	 -0.667955	 0.289453	 2
1463571464.117	 10	 0.415830	 -1.486102	 -1.450264	 1.008840	 -1.446573	 -1.416982	 -0.204237	 0.652132	 -0.669922	 0.290198	 2
1463571464.127	 10	 0.450446	 -1.161798	 -1.449679	 0.897055	 -1.455917	 -1.517077	 -0.212489	 0.647371	 -0.672139	 0.289806	 2
1463571464.137	 10	 0.598129	 -0.872718	 -1.420565	 0.764851	 -1.462721	 -1.640648	 -0.219453	 0.642595	 -0.674985	 0.288629	 2
1463571464.147	 10	 0.734183	 -0.826823	 -1.343522	 0.615551	 -1.466021	 -1.782628	 -0.225574	 0.637513	 -0.678315	 0.287373	 2
1463571464.157	 10	 0.813206	 -0.928190	 -1.209802	 0.466894	 -1.465549	 -1.922841	 -0.231480	 0.632070	 -0.681564	 0.287011	 2
1463571464.167	 10	 0.781923	 -0.989868	 -1.220761	 0.323804	 -1.462825	 -2.057077	 -0.237430	 0.626535	 -0.684695	 0.286833	 2
1463571464.177	 10	 0.559421	 -1.341156	 -1.205040	 0.189929	 -1.459864	 -2.179351	 -0.244554	 0.621157	 -0.686904	 0.287263	 2
1463571464.187	 10	 0.240443	 -1.882752	 -1.070885	 0.070299	 -1.458110	 -2.282166	 -0.253533	 0.616146	 -0.687334	 0.289236	 2
1463571464.197	 10	 -0.142396	 -2.256362	 -0.824837	 -0.030538	 -1.458713	 -2.361679	 -0.263827	 0.611961	 -0.685679	 0.292818	 2
1463571464.207	 10	 -0.555058	 -2.226252	 -0.506564	 -0.109209	 -1.462826	 -2.418101	 -0.274020	 0.609388	 -0.682126	 0.297091	 2
1463571464.217	 10	 -0.926068	 -1.787403	 -0.128365	 -0.160972	 -1.470798	 -2.450818	 -0.282500	 0.609035	 -0.677249	 0.301005	 2
1463571464.227	 10	 -1.258050	 -1.053528	 0.321514	 -0.172692	 -1.482760	 -2.450106	 -0.287847	 0.611422	 -0.671571	 0.303809	 2
1463571464.237	 10	 -1.570066	 -0.391982	 0.779073	 -0.124197	 -1.498441	 -2.395884	 -0.289936	 0.616498	 -0.665199	 0.305577	 2
1463571464.247	 10	 -1.976397	 0.237472	 1.173208	 0.036788	 -1.517721	 -2.235455	 -0.289147	 0.624409	 -0.657841	 0.306191	 2
1463571464.257	 10	 -2.335760	 0.814259	 1.363950	 0.471143	 -1.536618	 -1.807566	 -0.286171	 0.634730	 -0.649703	 0.305140	 2
1463571464.267	 10	 -2.483528	 0.928554	 1.371629	 1.380119	 -1.540767	 -0.907652	 -0.282430	 0.646056	 -0.641086	 0.303074	 2
1463571464.277	 10	 -2.732946	 0.829822	 1.296147	 2.029662	 -1.523289	 -0.265655	 -0.279598	 0.657527	 -0.631596	 0.300948	 2
1463571464.287	 10	 -3.201795	 1.317371	 1.164085	 2.339448	 -1.495342	 0.032918	 -0.276525	 0.670624	 -0.621179	 0.296538	 2
1463571464.297	 10	 -3.531736	 2.300102	 1.024764	 2.523858	 -1.461991	 0.197288	 -0.271807	 0.685844	 -0.610638	 0.287854	 2
1463571464.307	 10	 -2.944097	 3.041326	 1.393167	 2.603602	 -1.428777	 0.248746	 -0.263122	 0.701100	 -0.601809	 0.277582	 2
1463571464.317	 10	 -1.999371	 3.542434	 1.941669	 2.611912	 -1.400326	 0.222311	 -0.249491	 0.714810	 -0.595834	 0.267921	 2
1463571464.327	 10	 -1.236760	 3.510634	 2.411129	 2.580145	 -1.376420	 0.153807	 -0.232468	 0.726436	 -0.592048	 0.260245	 2
1463571464.337	 10	 -1.000970	 2.788915	 2.717826	 2.531667	 -1.353201	 0.073553	 -0.215224	 0.736313	 -0.588243	 0.255915	 2
1463571464.347	 10	 -1.156770	 1.783026	 2.840911	 2.482781	 -1.327633	 0.002362	 -0.200185	 0.745062	 -0.582700	 0.255477	 2
1463571464.357	 10	 -1.384635	 0.764724	 2.836617	 2.440694	 -1.299313	 -0.050957	 -0.188558	 0.752940	 -0.574926	 0.258820	 2
1463571464.367	 10	 -1.497337	 0.754212	 2.954734	 2.405936	 -1.269096	 -0.094712	 -0.177357	 0.760719	 -0.566249	 0.263082	 2
1463571464.377	 10	 -1.767181	 0.916441	 3.069432	 2.381937	 -1.235980	 -0.129228	 -0.165494	 0.769246	 -0.556492	 0.266811	 2
1463571464.387	 10	 -2.006446	 0.846092	 3.098571	 2.367324	 -1.200420	 -0.154591	 -0.153596	 0.778331	 -0.545512	 0.270233	 2
1463571464.397	 10	 -1.985445	 0.464024	 2.928574	 2.355449	 -1.165114	 -0.173186	 -0.143225	 0.786709	 -0.533962	 0.274700	 2
1463571464.407	 10	 -1.731691	 0.211179	 2.631993	 2.344047	 -1.133198	 -0.188517	 -0.134314	 0.793695	 -0.523289	 0.279600	 2
1463571464.417	 10	 -1.544619	 -0.149969	 2.333919	 2.332608	 -1.104907	 -0.200692	 -0.127094	 0.799299	 -0.513562	 0.284993	 2
1463571464.427	 10	 -1.459667	 -0.458552	 2.056407	 2.321294	 -1.079319	 -0.209039	 -0.121696	 0.803815	 -0.504344	 0.291049	 2
1463571464.437	 10	 -1.411707	 -0.705215	 1.795780	 2.310929	 -1.056006	 -0.213553	 -0.117893	 0.807539	 -0.495497	 0.297431	 2
1463571464.447	 10	 -1.343286	 -0.975854	 1.610420	 2.300208	 -1.034656	 -0.215433	 -0.115511	 0.810476	 -0.486981	 0.304361	 2
1463571464.457	 10	 -1.279397	 -1.185970	 1.555686	 2.287780	 -1.014389	 -0.216656	 -0.113916	 0.812740	 -0.478672	 0.312008	 2
1463571464.467	 10	 -1.219028	 -1.307194	 1.583874	 2.273531	 -0.994390	 -0.218318	 -0.112510	 0.814534	 -0.470428	 0.320272	 2
1463571464.477	 10	 -1.076665	 -1.227744	 1.597229	 2.258494	 -0.974968	 -0.221253	 -0.110759	 0.815993	 -0.462575	 0.328501	 2
1463571464.487	 10	 -0.813484	 -1.072310	 1.577200	 2.242977	 -0.957071	 -0.226638	 -0.108311	 0.817055	 -0.455713	 0.336179	 2
1463571464.497	 10	 -0.439896	 -0.788718	 1.527561	 2.226838	 -0.941604	 -0.235706	 -0.104902	 0.817607	 -0.450428	 0.342971	 2
1463571464.507	 10	 -0.031259	 -0.247352	 1.397952	 2.212569	 -0.929354	 -0.248536	 -0.100145	 0.817962	 -0.447200	 0.347737	 2
1463571464.517	 10	 0.334871	 0.366170	 1.227819	 2.202068	 -0.920624	 -0.264389	 -0.094038	 0.818400	 -0.446108	 0.349808	 2
1463571464.537	 11	 0.830669	 1.405082	 0.956072	 2.192187	 -0.911275	 -0.302471	 -0.078502	 0.819875	 -0.448750	 0.346793	 2
1463571464.547	 11	 0.987050	 1.862093	 0.825742	 2.193407	 -0.909863	 -0.323211	 -0.069390	 0.821080	 -0.451830	 0.341852	 2
1463571464.557	 11	 1.052173	 2.194997	 0.704645	 2.198159	 -0.909987	 -0.343984	 -0.059805	 0.822535	 -0.455546	 0.335166	 2
1463571464.567	 11	 1.072301	 2.505574	 0.566679	 2.206779	 -0.911437	 -0.363820	 -0.050007	 0.824278	 -0.459612	 0.326835	 2
1463571464.577	 11	 1.090130	 2.784225	 0.425239	 2.219167	 -0.914234	 -0.382537	 -0.040078	 0.826256	 -0.463955	 0.316922	 2
1463571464.597	 12	 1.176246	 2.754029	 0.109808	 2.248812	 -0.924534	 -0.416749	 -0.021355	 0.829705	 -0.473511	 0.294824	 2
1463571464.607	 12	 1.294166	 2.558856	 -0.062491	 2.262103	 -0.932603	 -0.432906	 -0.013340	 0.830499	 -0.478986	 0.284016	 2
1463571464.617	 12	 1.426608	 2.150044	 -0.355204	 2.272608	 -0.943694	 -0.447943	 -0.007104	 0.830283	 -0.485279	 0.274015	 2
1463571464.627	 12	 1.570065	 1.612292	 -0.676923	 2.279221	 -0.958155	 -0.461405	 -0.003207	 0.828890	 -0.492484	 0.265313	 2
1463571464.637	 12	 1.598928	 0.785377	 -1.025913	 2.280452	 -0.975808	 -0.472166	 -0.002487	 0.826194	 -0.500408	 0.258823	 2
1463571464.647	 12	 0.989621	 0.236257	 -1.166398	 2.281439	 -0.992301	 -0.474802	 -0.004930	 0.823595	 -0.506788	 0.254623	 2
1463571464.657	 12	 -0.460975	 1.427148	 -0.774998	 2.300664	 -0.999008	 -0.463481	 -0.006239	 0.824844	 -0.507875	 0.248305	 2
1463571464.667	 12	 -1.473831	 2.184950	 -0.087698	 2.340060	 -0.991652	 -0.442412	 -0.003389	 0.830869	 -0.502674	 0.238669	 2
1463571464.677	 12	 -1.132742	 0.922557	 0.505070	 2.362768	 -0.980226	 -0.430619	 -0.000196	 0.835560	 -0.496991	 0.234178	 2
1463571464.687	 12	 -0.461313	 0.023886	 1.080228	 2.361222	 -0.969138	 -0.434795	 0.003502	 0.837321	 -0.493269	 0.235727	 2
1463571464.697	 12	 0.065863	 -0.357114	 1.261799	 2.346338	 -0.959955	 -0.449760	 0.008056	 0.837084	 -0.491606	 0.239894	 2
1463571464.707	 12	 0.184640	 -1.118420	 0.903044	 2.325478	 -0.953883	 -0.464238	 0.010305	 0.835496	 -0.491170	 0.246155	 2
1463571464.717	 12	 -0.026652	 -1.973181	 0.577202	 2.301313	 -0.949483	 -0.472202	 0.008675	 0.833145	 -0.490635	 0.255091	 2
1463571464.727	 12	 -0.478470	 -2.526915	 0.597298	 2.275666	 -0.942804	 -0.474061	 0.004691	 0.830852	 -0.488480	 0.266551	 2
1463571464.737	 12	 -0.736703	 -2.449313	 0.780382	 2.251566	 -0.932687	 -0.472710	 0.000617	 0.829130	 -0.484585	 0.278784	 2
1463571464.747	 12	 -0.485378	 -1.588232	 0.967386	 2.231374	 -0.921899	 -0.474879	 -0.000808	 0.827885	 -0.480915	 0.288664	 2
1463571464.757	 12	 -0.053675	 -0.168036	 1.033328	 2.219344	 -0.912806	 -0.483073	 0.001876	 0.827458	 -0.478770	 0.293409	 2
1463571464.767	 12	 0.072696	 1.022069	 1.074210	 2.218414	 -0.904743	 -0.494234	 0.008223	 0.828441	 -0.477451	 0.292675	 2
1463571464.777	 12	 -0.061796	 1.110816	 1.230742	 2.221031	 -0.895140	 -0.505561	 0.015869	 0.830091	 -0.475565	 0.290749	 2
1463571464.787	 12	 -0.156867	 0.683144	 1.178565	 2.221333	 -0.884657	 -0.515524	 0.022622	 0.831464	 -0.473161	 0.290301	 2
1463571464.797	 12	 -0.245115	 0.624233	 0.792979	 2.222294	 -0.876166	 -0.521525	 0.027409	 0.832659	 -0.470899	 0.290143	 2
1463571464.807	 12	 -0.547783	 1.865431	 0.226324	 2.239125	 -0.870336	 -0.519272	 0.031828	 0.835882	 -0.468172	 0.284785	 2
1463571464.817	 12	 -0.587781	 2.819476	 -0.231254	 2.272159	 -0.867569	 -0.510680	 0.036590	 0.841011	 -0.465375	 0.273472	 2
1463571464.827	 12	 -0.274288	 2.398750	 -0.333817	 2.304038	 -0.867651	 -0.502965	 0.040724	 0.845415	 -0.463758	 0.261808	 2
1463571464.837	 12	 0.274105	 0.823574	 -0.108124	 2.316966	 -0.869803	 -0.502554	 0.043064	 0.846794	 -0.464253	 0.256035	 2
1463571464.847	 12	 0.888377	 -0.856709	 0.170371	 2.304862	 -0.874017	 -0.512203	 0.043375	 0.844435	 -0.467356	 0.258119	 2
1463571464.857	 12	 1.238768	 -1.641993	 0.118448	 2.277924	 -0.880547	 -0.527593	 0.042023	 0.839679	 -0.472399	 0.264600	 2
1463571464.867	 12	 1.422084	 -1.618534	 -0.238894	 2.249460	 -0.890364	 -0.542985	 0.039375	 0.834217	 -0.478674	 0.270928	 2
1463571464.877	 12	 1.597037	 -1.316520	 -0.614887	 2.224277	 -0.904190	 -0.557314	 0.035905	 0.828653	 -0.486140	 0.275158	 2
1463571464.887	 12	 1.624372	 -1.028588	 -0.792560	 2.202281	 -0.919997	 -0.571248	 0.032351	 0.823271	 -0.494102	 0.277564	 2
1463571464.897	 12	 1.479814	 -0.761383	 -0.964665	 2.184630	 -0.936337	 -0.582977	 0.028648	 0.818469	 -0.501758	 0.278438	 2
1463571464.907	 12	 1.272569	 -0.620918	 -1.185364	 2.172101	 -0.953159	 -0.590522	 0.024260	 0.814382	 -0.508815	 0.278030	 2
1463571464.917	 12	 1.123837	 -0.744405	 -1.406897	 2.162335	 -0.970840	 -0.593964	 0.018594	 0.810603	 -0.515462	 0.277264	 2
1463571464.927	 12	 1.035840	 -1.106385	 -1.637572	 2.152230	 -0.989831	 -0.594010	 0.011053	 0.806593	 -0.521985	 0.277157	 2
1463571464.937	 12	 1.015975	 -1.538463	 -1.826862	 2.139739	 -1.010335	 -0.591842	 0.001530	 0.801991	 -0.528598	 0.278195	 2
1463571464.947	 12	 1.040807	 -1.851909	 -1.919519	 2.124160	 -1.031940	 -0.589161	 -0.009390	 0.796716	 -0.535342	 0.280292	 2
1463571464.957	 12	 1.103450	 -1.951797	 -1.881561	 2.105666	 -1.053802	 -0.588112	 -0.020619	 0.790915	 -0.542182	 0.282961	 2
1463571464.967	 12	 1.176699	 -1.902267	 -1.768767	 2.084648	 -1.075166	 -0.590180	 -0.031303	 0.784795	 -0.549047	 0.285770	 2
1463571464.977	 12	 1.277480	 -1.703641	 -1.618590	 2.061351	 -1.095719	 -0.596559	 -0.040867	 0.778509	 -0.555994	 0.288314	 2
1463571464.987	 12	 1.366602	 -1.315196	 -1.404730	 2.036726	 -1.114892	 -0.608221	 -0.048558	 0.772360	 -0.563012	 0.290034	 2
1463571464.997	 12	 1.404992	 -0.870878	 -1.133423	 2.011707	 -1.131813	 -0.625114	 -0.053921	 0.766671	 -0.569885	 0.290757	 2
1463571465.007	 12	 1.422131	 -0.595931	 -0.906138	 1.985809	 -1.146417	 -0.646463	 -0.057382	 0.761392	 -0.576517	 0.290892	 2
1463571465.017	 12	 1.408120	 -0.549915	 -0.726540	 1.957845	 -1.159022	 -0.671087	 -0.059831	 0.756278	 -0.582837	 0.291145	 2
1463571465.027	 12	 1.372866	 -0.702777	 -0.555009	 1.926356	 -1.169605	 -0.698223	 -0.061984	 0.751086	 -0.588722	 0.292292	 2
1463571465.037	 12	 1.346638	 -0.944243	 -0.422742	 1.890713	 -1.178372	 -0.727297	 -0.064315	 0.745653	 -0.594164	 0.294676	 2
1463571465.047	 12	 1.350146	 -1.185005	 -0.328028	 1.850556	 -1.185673	 -0.758519	 -0.066972	 0.739852	 -0.599310	 0.298264	 2
1463571465.057	 12	 1.383675	 -1.328587	 -0.313670	 1.806454	 -1.192197	 -0.792004	 -0.069983	 0.733657	 -0.604391	 0.302592	 2
1463571465.067	 12	 1.410651	 -1.344998	 -0.219205	 1.759417	 -1.197556	 -0.828049	 -0.072833	 0.727242	 -0.609419	 0.307283	 2
1463571465.077	 12	 1.406225	 -1.220839	 -0.406651	 1.712489	 -1.203205	 -0.864938	 -0.075711	 0.720862	 -0.614580	 0.311314	 2
1463571465.087	 12	 1.330502	 -1.207709	 -0.679770	 1.667090	 -1.210989	 -0.900691	 -0.079522	 0.714564	 -0.619951	 0.314221	 2
1463571465.097	 12	 1.207711	 -1.237879	 -0.929436	 1.623156	 -1.220497	 -0.934485	 -0.084439	 0.708414	 -0.625225	 0.316407	 2
1463571465.107	 12	 1.016125	 -1.275076	 -1.295802	 1.581814	 -1.232800	 -0.964949	 -0.090946	 0.702535	 -0.630328	 0.317585	 2
1463571465.117	 12	 0.793568	 -1.350186	 -1.622818	 1.543396	 -1.248274	 -0.991550	 -0.099227	 0.697002	 -0.635140	 0.317708	 2
1463571465.127	 12	 0.520887	 -1.412606	 -1.687102	 1.508814	 -1.264874	 -1.013168	 -0.108614	 0.692008	 -0.639153	 0.317508	 2
1463571465.137	 12	 0.237530	 -1.404525	 -1.567326	 1.480924	 -1.280633	 -1.027629	 -0.118168	 0.687893	 -0.641949	 0.317397	 2
1463571465.147	 12	 0.097606	 -1.374988	 -1.364403	 1.458062	 -1.294623	 -1.037001	 -0.127301	 0.684439	 -0.643759	 0.317667	 2
1463571465.157	 12	 0.186705	 -1.275346	 -1.081825	 1.434382	 -1.305927	 -1.048027	 -0.135221	 0.681113	 -0.645262	 0.318491	 2
1463571465.167	 12	 0.394717	 -1.139369	 -0.727472	 1.405464	 -1.313487	 -1.065826	 -0.141237	 0.677577	 -0.646913	 0.320071	 2
1463571465.177	 12	 0.608661	 -1.074916	 -0.406875	 1.370283	 -1.317263	 -1.090957	 -0.145508	 0.673683	 -0.648793	 0.322563	 2
1463571465.187	 12	 0.731745	 -1.085342	 -0.035027	 1.331714	 -1.317004	 -1.119637	 -0.148312	 0.669533	 -0.650590	 0.326284	 2
1463571465.197	 12	 0.717288	 -1.145754	 0.428144	 1.296454	 -1.312201	 -1.144437	 -0.149763	 0.665531	 -0.651685	 0.331582	 2
1463571465.207	 12	 0.515131	 -1.183252	 0.895293	 1.272276	 -1.303022	 -1.157261	 -0.150025	 0.662257	 -0.651407	 0.338493	 2
1463571465.217	 12	 0.042182	 -1.075003	 1.257449	 1.267396	 -1.291344	 -1.150759	 -0.149481	 0.660644	 -0.649165	 0.346107	 2
1463571465.227	 12	 -0.509144	 -0.826253	 1.602410	 1.286002	 -1.277921	 -1.122096	 -0.148010	 0.661465	 -0.644572	 0.353672	 2
1463571465.237	 12	 -0.633938	 -0.597289	 1.884857	 1.314847	 -1.262097	 -1.085045	 -0.145223	 0.663666	 -0.638739	 0.361207	 2
1463571465.247	 12	 -0.388466	 -0.338903	 2.120658	 1.339529	 -1.243167	 -1.054773	 -0.140496	 0.665868	 -0.633142	 0.368797	 2
1463571465.257	 12	 -0.148792	 0.134661	 2.253000	 1.358982	 -1.221894	 -1.034213	 -0.133427	 0.668028	 -0.628344	 0.375660	 2
1463571465.267	 12	 -0.148777	 0.731019	 2.354468	 1.380351	 -1.199328	 -1.017482	 -0.124084	 0.671005	 -0.623881	 0.380957	 2
1463571465.277	 12	 -0.485463	 1.234580	 2.430294	 1.411662	 -1.176214	 -0.995952	 -0.113174	 0.675820	 -0.618616	 0.384412	 2
1463571465.287	 12	 -0.768750	 1.346129	 2.444457	 1.449407	 -1.153009	 -0.969431	 -0.102136	 0.681911	 -0.612202	 0.387008	 2
1463571465.297	 12	 -0.815884	 1.355433	 2.388468	 1.486031	 -1.129923	 -0.944019	 -0.091365	 0.688177	 -0.605397	 0.389305	 2
1463571465.307	 12	 -0.798133	 1.507401	 2.378004	 1.520359	 -1.106786	 -0.922030	 -0.080348	 0.694451	 -0.598617	 0.391075	 2
1463571465.317	 12	 -0.766466	 1.766794	 2.519757	 1.554184	 -1.082353	 -0.903214	 -0.068168	 0.701039	 -0.591692	 0.392172	 2
1463571465.327	 12	 -0.474048	 1.718339	 2.849278	 1.582246	 -1.054805	 -0.891213	 -0.054427	 0.707009	 -0.584804	 0.393929	 2
1463571465.337	 12	 0.081775	 1.578090	 3.240663	 1.598261	 -1.023350	 -0.891207	 -0.038742	 0.711088	 -0.578737	 0.397388	 2
1463571465.347	 12	 0.559482	 1.691646	 3.545566	 1.605932	 -0.988772	 -0.901672	 -0.020711	 0.713601	 -0.573652	 0.401582	 2
1463571465.357	 12	 0.785830	 1.781524	 4.003775	 1.610726	 -0.950468	 -0.917320	 -0.000368	 0.715264	 -0.568593	 0.406324	 2
1463571465.367	 12	 1.092526	 1.420748	 4.538089	 1.610336	 -0.906628	 -0.936929	 0.021847	 0.715336	 -0.563014	 0.413318	 2
1463571465.377	 12	 1.215921	 1.423713	 4.703300	 1.607556	 -0.860290	 -0.958758	 0.045050	 0.714112	 -0.557323	 0.421196	 2
1463571465.387	 12	 1.045030	 1.551545	 4.515207	 1.608619	 -0.814963	 -0.977728	 0.067916	 0.712991	 -0.551100	 0.428160	 2
1463571465.397	 12	 0.736219	 1.494954	 4.213627	 1.613836	 -0.772334	 -0.991849	 0.089184	 0.712359	 -0.544143	 0.434165	 2
1463571465.407	 12	 0.412161	 1.209368	 3.569005	 1.620479	 -0.734976	 -1.000939	 0.107128	 0.712001	 -0.537035	 0.439514	 2
1463571465.417	 12	 0.282743	 0.882300	 2.270055	 1.626500	 -0.709167	 -1.006847	 0.119715	 0.711895	 -0.531828	 0.442757	 2
1463571465.427	 12	 0.149145	 0.284230	 1.585697	 1.628259	 -0.692057	 -1.010551	 0.127361	 0.711258	 -0.528403	 0.445737	 2
1463571465.437	 12	 0.130817	 -0.234180	 1.079058	 1.625833	 -0.680067	 -1.012951	 0.131677	 0.709962	 -0.526179	 0.449166	 2
1463571465.447	 12	 0.277248	 -0.896612	 0.579237	 1.616207	 -0.673258	 -1.016478	 0.132727	 0.707198	 -0.525956	 0.453460	 2
1463571465.457	 12	 0.422645	 -1.035411	 0.271871	 1.602645	 -0.669991	 -1.021597	 0.132084	 0.703586	 -0.527231	 0.457763	 2
1463571465.467	 12	 0.465108	 -1.074786	 -0.007029	 1.588528	 -0.669481	 -1.027534	 0.130614	 0.699923	 -0.529401	 0.461284	 2
1463571465.477	 12	 0.416362	 -1.078067	 -0.185683	 1.574211	 -0.670991	 -1.033012	 0.128204	 0.696348	 -0.531950	 0.464426	 2
1463571465.487	 12	 0.297670	 -1.034913	 -0.296153	 1.561164	 -0.673728	 -1.037272	 0.125253	 0.693216	 -0.534403	 0.467094	 2
1463571465.497	 12	 0.153970	 -1.323468	 -0.397768	 1.547370	 -0.677396	 -1.039822	 0.121159	 0.690068	 -0.536689	 0.470203	 2
1463571465.507	 12	 -0.113748	 -1.849162	 -0.543141	 1.530389	 -0.682433	 -1.039551	 0.114729	 0.686413	 -0.538761	 0.474775	 2
1463571465.517	 12	 -0.516214	 -2.412938	 -0.714339	 1.510790	 -0.689378	 -1.034708	 0.105328	 0.682472	 -0.540220	 0.480937	 2
1463571465.527	 12	 -0.934428	 -2.973035	 -0.824618	 1.488856	 -0.697948	 -1.024643	 0.092921	 0.678241	 -0.540733	 0.488838	 2
1463571465.537	 12	 -1.294712	 -3.523260	 -0.870297	 1.464558	 -0.707697	 -1.009925	 0.077875	 0.673534	 -0.540223	 0.498444	 2
1463571465.547	 12	 -1.574693	 -4.140727	 -0.769160	 1.436818	 -0.717501	 -0.991411	 0.060624	 0.667834	 -0.538576	 0.510155	 2
1463571465.557	 12	 -1.794494	 -4.758663	 -0.561976	 1.405081	 -0.726192	 -0.969672	 0.041690	 0.660751	 -0.535557	 0.524260	 2
1463571465.567	 12	 -1.949811	 -5.046080	 -0.365066	 1.371228	 -0.733701	 -0.945399	 0.021903	 0.652611	 -0.531154	 0.539902	 2
1463571465.577	 12	 -1.999156	 -4.987519	 -0.229806	 1.338308	 -0.740556	 -0.919831	 0.002341	 0.644179	 -0.525708	 0.555571	 2
1463571465.587	 12	 -1.958472	 -4.896883	 -0.035348	 1.306500	 -0.746283	 -0.894172	 -0.016353	 0.635478	 -0.519483	 0.570997	 2
1463571465.597	 12	 -1.864748	 -4.754429	 0.285956	 1.275951	 -0.749612	 -0.868625	 -0.033570	 0.626517	 -0.512345	 0.586390	 2
1463571465.607	 12	 -1.729559	 -4.499717	 0.703862	 1.247580	 -0.749299	 -0.843182	 -0.048572	 0.617549	 -0.504145	 0.601758	 2
1463571465.617	 12	 -1.620857	 -4.188690	 1.103340	 1.222388	 -0.745202	 -0.817477	 -0.061149	 0.608937	 -0.494858	 0.616906	 2
1463571465.627	 12	 -1.573361	 -3.890824	 1.423295	 1.200688	 -0.738160	 -0.790963	 -0.071715	 0.600895	 -0.484551	 0.631658	 2
1463571465.637	 12	 -1.583992	 -3.654855	 1.690958	 1.182233	 -0.728903	 -0.763118	 -0.080786	 0.593445	 -0.473230	 0.646026	 2
1463571465.647	 12	 -1.644864	 -3.391476	 1.904960	 1.167171	 -0.718071	 -0.733535	 -0.088719	 0.586721	 -0.460903	 0.659890	 2
1463571465.657	 12	 -1.717226	 -3.029541	 2.064559	 1.156386	 -0.706241	 -0.702260	 -0.095564	 0.581118	 -0.447743	 0.672827	 2
1463571465.667	 12	 -1.659547	 -2.617652	 2.125441	 1.149383	 -0.693733	 -0.670866	 -0.101164	 0.576640	 -0.434334	 0.684548	 2
1463571465.677	 12	 -1.447620	 -2.257722	 2.123748	 1.144372	 -0.680581	 -0.641780	 -0.105283	 0.572872	 -0.421464	 0.695055	 2
1463571465.687	 12	 -1.116805	 -1.843575	 2.166286	 1.140770	 -0.666037	 -0.616311	 -0.107414	 0.569706	 -0.409457	 0.704444	 2
1463571465.697	 12	 -0.669321	 -1.436519	 2.304726	 1.138230	 -0.648771	 -0.595324	 -0.106876	 0.567064	 -0.398377	 0.712960	 2
1463571465.707	 12	 -0.149883	 -1.029908	 2.557639	 1.136584	 -0.627393	 -0.579117	 -0.103077	 0.564877	 -0.388067	 0.720898	 2
1463571465.717	 12	 0.387847	 -0.686344	 2.923842	 1.135675	 -0.600692	 -0.567375	 -0.095659	 0.563013	 -0.378161	 0.728602	 2
1463571465.727	 12	 0.874406	 -0.383661	 3.351924	 1.135606	 -0.568106	 -0.559222	 -0.084627	 0.561389	 -0.368211	 0.736275	 2
1463571465.737	 12	 1.286127	 -0.128458	 3.802597	 1.136689	 -0.529634	 -0.553626	 -0.070221	 0.559984	 -0.357810	 0.743948	 2
1463571465.747	 12	 1.615810	 -0.013903	 4.185533	 1.138128	 -0.485974	 -0.549933	 -0.053065	 0.558399	 -0.346784	 0.751742	 2
1463571465.757	 12	 1.793471	 -0.016659	 4.317181	 1.139087	 -0.439479	 -0.547635	 -0.034418	 0.556313	 -0.335412	 0.759493	 2
1463571465.777	 13	 1.442109	 -0.957626	 3.487650	 1.130952	 -0.355625	 -0.544164	 -0.002125	 0.548104	 -0.314614	 0.774981	 2
1463571465.787	 13	 1.267056	 -1.884107	 2.966855	 1.114965	 -0.322095	 -0.542491	 0.008817	 0.539571	 -0.306155	 0.784254	 2
1463571465.797	 13	 1.074406	 -2.583003	 2.581552	 1.091296	 -0.293194	 -0.540436	 0.016718	 0.528106	 -0.298788	 0.794701	 2
1463571465.807	 13	 0.919758	 -3.050065	 2.353677	 1.062752	 -0.267592	 -0.537291	 0.022417	 0.514703	 -0.291952	 0.805818	 2
1463571465.817	 13	 0.988688	 -3.312401	 2.286690	 1.030929	 -0.242937	 -0.534003	 0.027409	 0.499784	 -0.285480	 0.817292	 2
1463571465.827	 13	 1.220625	 -3.285007	 2.344608	 0.998457	 -0.217115	 -0.531472	 0.033206	 0.484205	 -0.279259	 0.828527	 2
1463571465.837	 13	 1.525594	 -3.008296	 2.491602	 0.967818	 -0.188686	 -0.529881	 0.040805	 0.468848	 -0.273054	 0.839022	 2
1463571465.847	 13	 1.891122	 -2.533120	 2.603681	 0.941332	 -0.157241	 -0.529572	 0.050750	 0.454643	 -0.266901	 0.848226	 2
1463571465.857	 13	 2.355990	 -2.143309	 2.571288	 0.918730	 -0.123130	 -0.532008	 0.063125	 0.441472	 -0.261500	 0.856000	 2
1463571465.867	 13	 2.842995	 -1.927881	 2.408122	 0.898311	 -0.087015	 -0.538436	 0.077611	 0.428590	 -0.257575	 0.862521	 2
1463571465.887	 14	 3.369688	 -1.469666	 2.007073	 0.864299	 -0.012606	 -0.560882	 0.110420	 0.404038	 -0.253866	 0.871845	 2
1463571465.897	 14	 3.355856	 -1.314540	 1.832787	 0.850876	 0.023607	 -0.574101	 0.127154	 0.392761	 -0.253196	 0.874907	 2
1463571465.907	 14	 3.188276	 -1.216044	 1.707271	 0.839050	 0.058077	 -0.586804	 0.143137	 0.382087	 -0.252698	 0.877306	 2
1463571465.917	 14	 2.903077	 -1.185109	 1.604531	 0.827940	 0.090171	 -0.597970	 0.157794	 0.371857	 -0.252071	 0.879365	 2
1463571465.927	 14	 2.515854	 -1.110927	 1.557436	 0.817547	 0.119435	 -0.606529	 0.170758	 0.362315	 -0.250904	 0.881259	 2
1463571465.937	 14	 2.160041	 -1.171856	 1.518403	 0.806867	 0.145977	 -0.612351	 0.181964	 0.353109	 -0.249181	 0.883240	 2
1463571465.947	 14	 1.827940	 -1.380941	 1.445811	 0.794224	 0.169794	 -0.615921	 0.191328	 0.343531	 -0.247269	 0.885572	 2
1463571465.957	 14	 1.526039	 -1.739101	 1.361977	 0.778103	 0.190860	 -0.617452	 0.198723	 0.332945	 -0.245425	 0.888495	 2
1463571465.967	 14	 1.361237	 -2.174613	 1.227205	 0.757564	 0.209664	 -0.618035	 0.204462	 0.320771	 -0.244152	 0.892015	 2
1463571465.977	 14	 1.348209	 -2.500474	 1.020726	 0.733537	 0.226824	 -0.619287	 0.209189	 0.307161	 -0.243973	 0.895751	 2
1463571465.987	 14	 1.490305	 -2.541548	 0.841124	 0.708773	 0.243463	 -0.622288	 0.213868	 0.293043	 -0.244884	 0.899121	 2
1463571465.997	 14	 1.738866	 -2.641389	 0.667509	 0.684074	 0.260878	 -0.627746	 0.219224	 0.278478	 -0.246895	 0.901906	 2
1463571466.007	 14	 1.946580	 -2.783825	 0.470406	 0.658659	 0.278975	 -0.635749	 0.225072	 0.263103	 -0.250167	 0.904177	 2
1463571466.017	 14	 2.165977	 -2.757848	 0.328057	 0.633928	 0.297962	 -0.646037	 0.231584	 0.247520	 -0.254407	 0.905748	 2
1463571466.027	 14	 2.349583	 -2.770941	 0.355092	 0.609964	 0.316894	 -0.657376	 0.238162	 0.232059	 -0.259205	 0.906775	 2
1463571466.037	 14	 2.452995	 -2.655603	 0.460764	 0.586949	 0.337900	 -0.668182	 0.245566	 0.216614	 -0.263469	 0.907392	 2
1463571466.047	 14	 2.506468	 -2.497550	 0.570477	 0.564882	 0.361782	 -0.677815	 0.254094	 0.201118	 -0.266787	 0.907641	 2
1463571466.057	 14	 2.507737	 -2.317041	 0.675525	 0.544259	 0.386555	 -0.686064	 0.262950	 0.186184	 -0.269315	 0.907558	 2
1463571466.067	 14	 2.451145	 -2.154712	 0.743605	 0.525007	 0.411506	 -0.692900	 0.271840	 0.171935	 -0.271145	 0.907205	 2
1463571466.077	 14	 2.342831	 -2.057461	 0.763571	 0.506517	 0.435900	 -0.698471	 0.280403	 0.158236	 -0.272520	 0.906680	 2
1463571466.087	 14	 2.194685	 -2.002901	 0.747251	 0.488310	 0.459108	 -0.702959	 0.288340	 0.144987	 -0.273670	 0.906059	 2
1463571466.097	 14	 2.014883	 -1.914909	 0.781608	 0.470305	 0.480937	 -0.706017	 0.295555	 0.132263	 -0.274467	 0.905440	 2
1463571466.107	 14	 1.838393	 -1.799309	 0.810865	 0.452584	 0.501374	 -0.707290	 0.302058	 0.120181	 -0.274727	 0.904899	 2
1463571466.117	 14	 1.696978	 -1.620799	 0.729562	 0.436228	 0.520244	 -0.707979	 0.308022	 0.109100	 -0.274841	 0.904258	 2
1463571466.127	 14	 1.591030	 -1.345978	 0.596624	 0.422613	 0.537539	 -0.709148	 0.313693	 0.099485	 -0.275051	 0.903353	 2
1463571466.137	 14	 1.530320	 -1.058935	 0.553996	 0.412055	 0.553899	 -0.710484	 0.319372	 0.091401	 -0.275046	 0.902218	 2
1463571466.147	 14	 1.516198	 -0.883416	 0.551489	 0.403444	 0.570037	 -0.711600	 0.325197	 0.084273	 -0.274702	 0.900935	 2
1463571466.157	 14	 1.485456	 -0.831281	 0.541584	 0.395589	 0.585928	 -0.712561	 0.330998	 0.077556	 -0.274233	 0.899568	 2
1463571466.167	 14	 1.418034	 -0.850411	 0.516415	 0.387608	 0.601214	 -0.713341	 0.336500	 0.070929	 -0.273818	 0.898199	 2
1463571466.177	 14	 1.308711	 -0.927926	 0.490001	 0.378838	 0.615478	 -0.713831	 0.341434	 0.064196	 -0.273577	 0.896916	 2
1463571466.187	 14	 1.161895	 -1.037224	 0.465750	 0.368738	 0.628380	 -0.713821	 0.345578	 0.057219	 -0.273561	 0.895805	 2
1463571466.197	 14	 0.982031	 -1.130544	 0.431278	 0.357292	 0.639552	 -0.713242	 0.348778	 0.050078	 -0.273792	 0.894921	 2
1463571466.207	 14	 0.815374	 -1.138818	 0.396416	 0.345228	 0.648962	 -0.712175	 0.351128	 0.043091	 -0.274184	 0.894246	 2
1463571466.217	 14	 0.726946	 -1.083458	 0.367859	 0.333372	 0.657234	 -0.710788	 0.353015	 0.036482	 -0.274575	 0.893676	 2
1463571466.227	 14	 0.750456	 -0.976963	 0.249280	 0.323065	 0.665147	 -0.710397	 0.354981	 0.030466	 -0.275211	 0.892927	 2
1463571466.237	 14	 0.857378	 -0.786041	 0.073209	 0.315849	 0.673352	 -0.712274	 0.357524	 0.025379	 -0.276293	 0.891737	 2
1463571466.247	 14	 1.010434	 -0.582153	 -0.056249	 0.312169	 0.682501	 -0.716452	 0.360972	 0.021277	 -0.277658	 0.890030	 2
1463571466.257	 14	 1.147520	 -0.407675	 -0.141080	 0.311449	 0.692762	 -0.722388	 0.365301	 0.017948	 -0.279124	 0.887875	 2
1463571466.277	 15	 1.175281	 -0.141115	 -0.185735	 0.316079	 0.714271	 -0.736645	 0.375172	 0.013261	 -0.281799	 0.882984	 2
1463571466.287	 15	 1.105068	 -0.139454	 -0.131820	 0.319053	 0.724503	 -0.743163	 0.379937	 0.011366	 -0.282763	 0.880661	 2
1463571466.297	 15	 0.958621	 -0.228047	 -0.087673	 0.320670	 0.733717	 -0.748625	 0.384056	 0.009242	 -0.283627	 0.878619	 2
1463571466.307	 15	 0.649978	 -0.311924	 -0.045267	 0.320323	 0.740562	 -0.752500	 0.386883	 0.007005	 -0.284474	 0.877124	 2
1463571466.317	 15	 0.172954	 -0.350598	 0.002223	 0.317854	 0.743380	 -0.753899	 0.387711	 0.005099	 -0.285187	 0.876540	 2
1463571466.327	 15	 -0.345768	 -0.382966	 0.022424	 0.313289	 0.741372	 -0.752729	 0.386218	 0.003717	 -0.285826	 0.876998	 2
1463571466.337	 15	 -0.765138	 -0.376415	 0.022939	 0.307437	 0.735055	 -0.749671	 0.382733	 0.002969	 -0.286445	 0.878325	 2
1463571466.347	 15	 -0.969952	 -0.345087	 0.006896	 0.301268	 0.726204	 -0.745773	 0.378127	 0.002713	 -0.287059	 0.880119	 2
1463571466.357	 15	 -0.970754	 -0.259189	 -0.028533	 0.296076	 0.716732	 -0.742139	 0.373384	 0.002933	 -0.287649	 0.881949	 2
1463571466.367	 15	 -0.754191	 -0.231482	 -0.080252	 0.292253	 0.708681	 -0.739853	 0.369426	 0.003214	 -0.288368	 0.883379	 2
1463571466.377	 15	 -0.407349	 -0.221930	 -0.089578	 0.289508	 0.703650	 -0.739121	 0.366897	 0.003097	 -0.289180	 0.884168	 2
1463571466.387	 15	 -0.042077	 -0.190820	 -0.051970	 0.287708	 0.702216	 -0.739408	 0.366028	 0.002522	 -0.289815	 0.884321	 2
1463571466.397	 15	 0.249661	 -0.147711	 -0.002952	 0.286674	 0.703936	 -0.740305	 0.366609	 0.001572	 -0.290188	 0.883961	 2
1463571466.407	 15	 0.410416	 -0.067860	 0.073126	 0.286273	 0.707710	 -0.741055	 0.368151	 0.000537	 -0.290123	 0.883342	 2
1463571466.417	 15	 0.450660	 -0.002276	 0.186357	 0.285892	 0.712429	 -0.740721	 0.370095	 -0.000472	 -0.289458	 0.882748	 2
1463571466.437	 16	 0.334751	 -0.047586	 0.344677	 0.282761	 0.721584	 -0.736073	 0.373523	 -0.002732	 -0.286849	 0.882151	 2
1463571466.447	 16	 0.238340	 -0.158690	 0.384982	 0.278896	 0.725162	 -0.732232	 0.374491	 -0.004396	 -0.285434	 0.882193	 2
1463571466.457	 16	 0.131172	 -0.281516	 0.417811	 0.273295	 0.727803	 -0.727542	 0.374825	 -0.006486	 -0.284090	 0.882472	 2
1463571466.467	 16	 0.023007	 -0.418976	 0.485682	 0.265535	 0.729529	 -0.721673	 0.374481	 -0.009133	 -0.282744	 0.883027	 2
1463571466.477	 16	 -0.054311	 -0.530346	 0.497042	 0.256120	 0.730473	 -0.715108	 0.373590	 -0.012238	 -0.281492	 0.883766	 2
1463571466.487	 16	 -0.137904	 -0.603505	 0.494958	 0.245698	 0.730577	 -0.708293	 0.372218	 -0.015594	 -0.280411	 0.884636	 2
1463571466.497	 16	 -0.235089	 -0.647641	 0.529498	 0.234353	 0.729782	 -0.700859	 0.370354	 -0.019092	 -0.279317	 0.885695	 2
1463571466.507	 16	 -0.361751	 -0.637178	 0.601038	 0.222212	 0.727899	 -0.692279	 0.367944	 -0.022555	 -0.277963	 0.887043	 2
1463571466.517	 16	 -0.486956	 -0.568016	 0.700822	 0.209577	 0.724875	 -0.682140	 0.365013	 -0.025778	 -0.276100	 0.888746	 2
1463571466.527	 16	 -0.547986	 -0.443943	 0.771783	 0.197317	 0.721129	 -0.670810	 0.361859	 -0.028532	 -0.273675	 0.890700	 2
1463571466.537	 16	 -0.503537	 -0.316272	 0.794965	 0.186152	 0.717522	 -0.659148	 0.358944	 -0.030802	 -0.270846	 0.892666	 2
1463571466.547	 16	 -0.354841	 -0.210605	 0.759483	 0.176593	 0.715001	 -0.648147	 0.356731	 -0.032689	 -0.267884	 0.894378	 2
1463571466.557	 16	 -0.127544	 -0.157510	 0.692987	 0.168549	 0.714369	 -0.638433	 0.355545	 -0.034457	 -0.265028	 0.895634	 2
1463571466.567	 16	 0.134761	 -0.135475	 0.610976	 0.161846	 0.716077	 -0.630342	 0.355554	 -0.036294	 -0.262440	 0.896320	 2
1463571466.577	 16	 0.387464	 -0.121843	 0.539628	 0.156234	 0.720175	 -0.623715	 0.356746	 -0.038273	 -0.260103	 0.896445	 2
1463571466.587	 16	 0.614461	 -0.127288	 0.467260	 0.151539	 0.726450	 -0.618491	 0.359000	 -0.040417	 -0.258049	 0.896045	 2
1463571466.597	 16	 0.769160	 -0.140469	 0.472185	 0.146987	 0.734425	 -0.613731	 0.362022	 -0.042825	 -0.256043	 0.895292	 2
1463571466.607	 16	 0.849106	 -0.155631	 0.467085	 0.142308	 0.743357	 -0.609054	 0.365454	 -0.045429	 -0.254030	 0.894342	 2
1463571466.617	 16	 0.885461	 -0.121865	 0.444702	 0.137927	 0.752692	 -0.604653	 0.369103	 -0.047988	 -0.252069	 0.893264	 2
1463571466.627	 16	 0.809064	 0.022568	 0.383831	 0.135121	 0.761525	 -0.600711	 0.372724	 -0.049830	 -0.250079	 0.892219	 2
1463571466.637	 16	 0.671053	 0.030779	 0.287059	 0.133446	 0.768951	 -0.597747	 0.375846	 -0.051126	 -0.248442	 0.891293	 2
1463571466.657	 17	 0.359139	 -0.064641	 0.056550	 0.131465	 0.778676	 -0.595396	 0.379922	 -0.053000	 -0.246946	 0.889870	 2
