% Gyrometer data recorded with 'snsrlog'
% 
% 
% Label description:
% 	 0: Default Label
% 	 1: still_drop
% 	 2: walk_drop
% 	 3: other
% 	 4: dtw_same
% 	 5: dtw_diff
% 	 6: delete
% 	 7: steal
% 
% Column description:
% 	 1: Seconds.milliseconds since 1970
% 	 2: Number of skipped measurements
% 	 3: Gyro X
% 	 4: Gyro Y
% 	 5: Gyro Z
% 	 6: Roll of the device
% 	 7: Pitch of the device
% 	 8: Yaw of the device
% 	 9: Quaternion X
% 	 10: Quaternion Y
% 	 11: Quaternion Z
% 	 12: Quaternion W
% 	 13: Label used for the current sample
% 
% 
1463571859.912	 0	 -0.554548	 0.460394	 0.690464	 0.019368	 0.390780	 0.044242	 0.193882	 0.013791	 0.023577	 0.980644	 2
1463571859.922	 0	 -0.115430	 0.360032	 0.668655	 0.020264	 0.388690	 0.051653	 0.192793	 0.014925	 0.027292	 0.980746	 2
1463571859.932	 0	 0.214798	 0.549733	 0.560969	 0.022672	 0.390251	 0.058008	 0.193473	 0.016738	 0.030645	 0.980484	 2
1463571859.942	 0	 0.319983	 1.006944	 0.437482	 0.029598	 0.393468	 0.062969	 0.194892	 0.020658	 0.033760	 0.980026	 2
1463571859.952	 0	 0.227921	 1.421823	 0.410171	 0.041178	 0.396228	 0.067344	 0.195988	 0.026798	 0.037050	 0.979540	 2
1463571859.962	 0	 -0.015800	 1.782093	 0.417777	 0.056402	 0.396958	 0.071763	 0.195981	 0.034697	 0.040712	 0.979148	 2
1463571859.972	 0	 -0.253456	 2.021518	 0.483888	 0.074148	 0.395263	 0.076946	 0.194669	 0.043864	 0.044961	 0.978856	 2
1463571859.982	 0	 -0.368893	 1.931892	 0.544808	 0.091613	 0.392249	 0.082996	 0.192634	 0.052950	 0.049563	 0.978587	 2
1463571859.992	 0	 -0.453463	 1.632357	 0.566204	 0.106213	 0.388522	 0.089526	 0.190246	 0.060657	 0.054081	 0.978367	 2
1463571860.002	 0	 -0.575777	 1.287928	 0.541683	 0.117520	 0.383728	 0.096079	 0.187372	 0.066723	 0.058244	 0.978288	 2
1463571860.012	 1	 -0.727897	 0.969031	 0.505935	 0.125556	 0.377534	 0.102470	 0.183877	 0.071132	 0.061961	 0.978412	 2
1463571860.032	 1	 -1.043945	 0.685112	 0.533755	 0.135635	 0.360316	 0.115923	 0.174611	 0.076913	 0.068983	 0.979202	 2
1463571860.042	 1	 -1.131809	 0.788947	 0.589840	 0.140470	 0.350085	 0.123657	 0.169119	 0.079707	 0.072893	 0.979659	 2
1463571860.052	 1	 -1.157084	 1.057302	 0.624530	 0.147485	 0.339541	 0.131895	 0.163345	 0.083563	 0.077197	 0.979988	 2
1463571860.062	 1	 -1.112433	 1.427701	 0.678745	 0.157956	 0.329382	 0.140648	 0.157564	 0.089120	 0.082002	 0.980055	 2
1463571860.072	 1	 -0.952676	 1.738444	 0.766572	 0.171609	 0.320737	 0.150112	 0.152303	 0.096291	 0.087397	 0.979742	 2
1463571860.082	 1	 -0.694159	 1.949946	 0.849419	 0.187476	 0.314714	 0.160135	 0.148127	 0.104627	 0.093268	 0.978986	 2
1463571860.092	 1	 -0.378458	 2.089824	 0.905523	 0.204928	 0.311951	 0.170277	 0.145377	 0.113818	 0.099395	 0.977769	 2
1463571860.102	 1	 -0.071678	 2.172089	 0.933458	 0.223465	 0.312501	 0.180120	 0.144112	 0.123604	 0.105570	 0.976119	 2
1463571860.112	 1	 0.161248	 2.208829	 0.960548	 0.242564	 0.315760	 0.189600	 0.144059	 0.133717	 0.111730	 0.974106	 2
1463571860.122	 1	 0.300973	 2.161887	 0.997262	 0.261416	 0.320853	 0.198957	 0.144816	 0.143756	 0.117920	 0.971832	 2
1463571860.132	 1	 0.360504	 2.095915	 1.017445	 0.279568	 0.326926	 0.208266	 0.145986	 0.153478	 0.124110	 0.969396	 2
1463571860.152	 2	 0.304717	 1.902743	 0.904228	 0.313033	 0.338962	 0.225792	 0.148240	 0.171436	 0.135810	 0.964464	 2
1463571860.162	 2	 0.339988	 1.993426	 0.809912	 0.330202	 0.344681	 0.233070	 0.149183	 0.180487	 0.140985	 0.961921	 2
1463571860.172	 2	 0.427214	 2.181243	 0.784256	 0.349350	 0.351113	 0.239519	 0.150323	 0.190441	 0.145983	 0.959075	 2
1463571860.182	 2	 0.484648	 2.360872	 0.790756	 0.370354	 0.358335	 0.245613	 0.151651	 0.201266	 0.151041	 0.955866	 2
1463571860.192	 2	 0.452491	 2.552454	 0.796016	 0.393311	 0.365611	 0.251648	 0.152764	 0.212989	 0.156262	 0.952303	 2
1463571860.202	 2	 0.351236	 2.562469	 0.816175	 0.416676	 0.372301	 0.257967	 0.153426	 0.224863	 0.161633	 0.948563	 2
1463571860.212	 2	 0.152723	 2.493418	 0.893996	 0.439032	 0.377809	 0.265618	 0.153340	 0.236269	 0.167473	 0.944784	 2
1463571860.222	 2	 -0.052847	 2.364148	 0.878596	 0.459814	 0.381649	 0.274292	 0.152353	 0.246898	 0.173520	 0.941127	 2
1463571860.232	 2	 -0.204317	 2.262600	 0.747881	 0.479513	 0.383676	 0.282661	 0.150527	 0.256875	 0.179146	 0.937691	 2
1463571860.242	 2	 -0.263655	 2.264770	 0.583225	 0.499348	 0.384346	 0.289908	 0.148095	 0.266729	 0.184089	 0.934363	 2
1463571860.252	 2	 -0.212728	 2.346331	 0.410887	 0.520505	 0.384547	 0.295402	 0.145474	 0.277008	 0.188225	 0.930954	 2
1463571860.262	 2	 -0.128167	 2.552173	 0.229821	 0.544087	 0.384665	 0.298770	 0.142815	 0.288211	 0.191503	 0.927289	 2
1463571860.272	 2	 -0.143476	 3.063691	 0.066324	 0.572630	 0.384126	 0.300474	 0.139558	 0.301510	 0.194241	 0.922976	 2
1463571860.282	 2	 -0.304279	 3.687641	 -0.052230	 0.607490	 0.381831	 0.301779	 0.134871	 0.317543	 0.196941	 0.917709	 2
1463571860.292	 2	 -0.485292	 4.062027	 -0.126037	 0.646734	 0.377630	 0.303635	 0.128717	 0.335438	 0.199804	 0.911587	 2
1463571860.302	 2	 -0.654921	 4.156481	 -0.223866	 0.687427	 0.371505	 0.306010	 0.121376	 0.353821	 0.202535	 0.905018	 2
1463571860.312	 2	 -0.805146	 4.137610	 -0.396470	 0.728637	 0.362587	 0.308303	 0.112658	 0.372184	 0.204595	 0.898292	 2
1463571860.322	 2	 -0.922177	 4.161973	 -0.604114	 0.769365	 0.352251	 0.310485	 0.103332	 0.390128	 0.206065	 0.891437	 2
1463571860.332	 2	 -0.968197	 4.198774	 -0.681171	 0.810560	 0.340695	 0.312703	 0.093385	 0.408089	 0.207054	 0.884235	 2
1463571860.342	 2	 -0.959825	 4.065584	 -0.564184	 0.850660	 0.329731	 0.315931	 0.083607	 0.425476	 0.208227	 0.876711	 2
1463571860.352	 2	 -0.900856	 3.690682	 -0.317732	 0.887024	 0.320870	 0.320711	 0.074805	 0.441208	 0.210039	 0.869266	 2
1463571860.362	 2	 -0.784906	 3.368047	 -0.027593	 0.919529	 0.315023	 0.326805	 0.067408	 0.455274	 0.212657	 0.861951	 2
1463571860.372	 2	 -0.600675	 3.279175	 0.256654	 0.950635	 0.312127	 0.333367	 0.061283	 0.468723	 0.215871	 0.854367	 2
1463571860.382	 2	 -0.331511	 3.424365	 0.433608	 0.983726	 0.311717	 0.338904	 0.056188	 0.482937	 0.219108	 0.845935	 2
1463571860.392	 2	 0.025820	 3.710920	 0.341471	 1.020211	 0.312925	 0.341358	 0.052091	 0.498394	 0.221396	 0.836584	 2
1463571860.402	 2	 0.459259	 4.046437	 -0.004503	 1.060935	 0.314679	 0.338655	 0.049017	 0.515318	 0.221706	 0.826372	 2
1463571860.412	 2	 0.883094	 4.196710	 -0.670775	 1.105643	 0.313312	 0.328947	 0.046063	 0.533401	 0.218455	 0.815867	 2
1463571860.422	 2	 1.315828	 4.587796	 -1.273059	 1.155589	 0.308127	 0.312425	 0.043013	 0.553136	 0.211572	 0.804629	 2
1463571860.432	 2	 1.782878	 4.593309	 -1.643697	 1.208495	 0.299957	 0.290097	 0.040471	 0.573639	 0.201610	 0.792877	 2
1463571860.442	 2	 2.326665	 4.445519	 -1.856564	 1.261315	 0.290018	 0.262307	 0.039395	 0.593738	 0.188990	 0.781157	 2
1463571860.452	 2	 2.954265	 4.287979	 -1.913586	 1.314031	 0.279463	 0.228801	 0.040522	 0.613439	 0.174015	 0.769265	 2
1463571860.462	 2	 3.631315	 4.081388	 -1.821221	 1.366072	 0.269333	 0.189396	 0.044534	 0.632481	 0.157039	 0.757181	 2
1463571860.472	 2	 4.276981	 3.985699	 -1.701974	 1.417780	 0.259662	 0.144223	 0.051512	 0.650916	 0.138294	 0.744668	 2
1463571860.482	 2	 4.813510	 4.199664	 -1.753679	 1.471734	 0.248448	 0.093948	 0.060467	 0.669635	 0.117615	 0.730821	 2
1463571860.492	 2	 5.189020	 4.405002	 -2.033202	 1.528192	 0.232564	 0.040083	 0.069979	 0.688753	 0.094628	 0.715380	 2
1463571860.502	 2	 5.401796	 4.576124	 -2.403282	 1.585682	 0.210241	 -0.015121	 0.078994	 0.707841	 0.069466	 0.698495	 2
1463571860.512	 2	 5.523139	 4.600677	 -2.781389	 1.642423	 0.180992	 -0.069907	 0.087011	 0.726380	 0.042397	 0.680444	 2
1463571860.522	 2	 5.569271	 4.476897	 -3.111198	 1.696178	 0.145342	 -0.122937	 0.093885	 0.743675	 0.013830	 0.661771	 2
1463571860.532	 2	 5.577147	 4.335597	 -3.379022	 1.746217	 0.104192	 -0.173467	 0.099621	 0.759515	 -0.015822	 0.642621	 2
1463571860.542	 2	 5.554858	 4.121109	 -3.631278	 1.791932	 0.058247	 -0.221104	 0.104190	 0.773710	 -0.046301	 0.623196	 2
1463571860.562	 3	 5.174457	 2.936058	 -3.957656	 1.860963	 -0.043506	 -0.305231	 0.109036	 0.794375	 -0.108044	 0.587712	 2
1463571860.572	 3	 4.810621	 2.445312	 -4.162615	 1.884210	 -0.097291	 -0.339901	 0.108449	 0.801039	 -0.138110	 0.572277	 2
1463571860.582	 3	 4.434741	 1.878127	 -4.353260	 1.900745	 -0.152474	 -0.369420	 0.105472	 0.805601	 -0.167381	 0.558449	 2
1463571860.592	 3	 4.117587	 1.320315	 -4.547526	 1.910744	 -0.208656	 -0.394639	 0.100250	 0.808117	 -0.195943	 0.546355	 2
1463571860.602	 3	 3.883204	 0.961592	 -4.828053	 1.916074	 -0.266738	 -0.416240	 0.092701	 0.809105	 -0.224212	 0.535242	 2
1463571860.612	 3	 3.951944	 0.450224	 -4.915474	 1.915922	 -0.326149	 -0.437423	 0.083974	 0.808201	 -0.252788	 0.525222	 2
1463571860.622	 3	 4.010418	 -0.267944	 -4.923731	 1.907118	 -0.385978	 -0.460089	 0.074412	 0.804569	 -0.281808	 0.517412	 2
1463571860.632	 3	 3.962131	 -0.692019	 -4.754604	 1.891189	 -0.444325	 -0.484279	 0.064452	 0.798765	 -0.310334	 0.511384	 2
1463571860.642	 3	 3.903266	 -0.819922	 -4.375871	 1.871075	 -0.498957	 -0.510769	 0.055287	 0.791711	 -0.337547	 0.506162	 2
1463571860.652	 3	 3.833379	 -0.660895	 -3.888860	 1.849333	 -0.548391	 -0.540128	 0.047933	 0.784231	 -0.362990	 0.500922	 2
1463571860.662	 3	 3.885221	 -0.561712	 -3.392699	 1.825505	 -0.592467	 -0.573408	 0.042755	 0.776326	 -0.386951	 0.495741	 2
1463571860.672	 3	 3.978221	 -0.465029	 -2.930069	 1.798722	 -0.631463	 -0.611464	 0.039792	 0.767860	 -0.409829	 0.490762	 2
1463571860.682	 3	 4.002620	 -0.372914	 -2.538289	 1.769351	 -0.665654	 -0.653561	 0.038694	 0.758995	 -0.431610	 0.485945	 2
1463571860.692	 3	 3.919641	 -0.382915	 -2.191287	 1.737548	 -0.695219	 -0.698170	 0.038827	 0.749814	 -0.452077	 0.481557	 2
1463571860.702	 3	 3.721751	 -0.527815	 -1.865855	 1.703253	 -0.720098	 -0.743526	 0.039535	 0.740323	 -0.470918	 0.478116	 2
1463571860.712	 3	 3.388880	 -0.755510	 -1.571991	 1.666983	 -0.740392	 -0.787390	 0.040111	 0.730643	 -0.487767	 0.476062	 2
1463571860.722	 3	 2.985325	 -0.987673	 -1.336170	 1.630142	 -0.756669	 -0.827926	 0.040113	 0.721079	 -0.502469	 0.475354	 2
1463571860.732	 3	 2.583713	 -1.264478	 -1.095452	 1.593011	 -0.769339	 -0.864336	 0.039297	 0.711642	 -0.515065	 0.476161	 2
1463571860.742	 3	 2.236902	 -1.502799	 -0.805829	 1.555930	 -0.778241	 -0.896709	 0.037954	 0.702329	 -0.525645	 0.478529	 2
1463571860.752	 3	 1.935061	 -1.705128	 -0.521591	 1.519257	 -0.783497	 -0.925246	 0.036316	 0.693133	 -0.534384	 0.482372	 2
1463571860.762	 3	 1.632240	 -1.877771	 -0.250923	 1.483663	 -0.785465	 -0.949702	 0.034456	 0.684140	 -0.541373	 0.487525	 2
1463571860.772	 3	 1.309618	 -1.961969	 0.034596	 1.450357	 -0.784447	 -0.969260	 0.032416	 0.675596	 -0.546516	 0.493801	 2
1463571860.782	 3	 1.081721	 -1.956390	 0.418175	 1.420058	 -0.779787	 -0.984435	 0.030914	 0.667574	 -0.549833	 0.501072	 2
1463571860.792	 3	 0.990802	 -1.919941	 0.860531	 1.392220	 -0.770758	 -0.996606	 0.030618	 0.659810	 -0.551577	 0.509388	 2
1463571860.802	 3	 0.902268	 -1.805011	 1.272690	 1.367190	 -0.757465	 -1.006221	 0.031797	 0.652327	 -0.551913	 0.518508	 2
1463571860.812	 3	 0.656101	 -1.576228	 1.627598	 1.347333	 -0.740918	 -1.011244	 0.034121	 0.645816	 -0.550462	 0.527967	 2
1463571860.822	 3	 0.434253	 -1.325784	 1.899366	 1.332998	 -0.721875	 -1.012011	 0.037554	 0.640458	 -0.547385	 0.537376	 2
1463571860.832	 3	 0.269138	 -1.134071	 2.015558	 1.322782	 -0.701763	 -1.009561	 0.041527	 0.636033	 -0.543177	 0.546531	 2
1463571860.842	 3	 0.199685	 -0.932788	 2.023365	 1.315397	 -0.681635	 -1.005674	 0.045860	 0.632303	 -0.538489	 0.555086	 2
1463571860.852	 3	 0.188074	 -0.680669	 2.024746	 1.310623	 -0.661587	 -1.001434	 0.050786	 0.629233	 -0.533613	 0.562800	 2
1463571860.862	 3	 0.039646	 -0.617131	 1.926449	 1.307575	 -0.642382	 -0.996147	 0.055548	 0.626698	 -0.528503	 0.569955	 2
1463571860.872	 3	 -0.502728	 -0.753797	 1.488674	 1.306069	 -0.627591	 -0.986907	 0.057835	 0.625109	 -0.523013	 0.576499	 2
1463571860.882	 3	 -1.261121	 -0.855852	 0.896434	 1.307018	 -0.620425	 -0.970660	 0.055708	 0.625162	 -0.516861	 0.582172	 2
1463571860.892	 3	 -1.443312	 -0.525781	 0.578166	 1.311815	 -0.618108	 -0.951482	 0.051813	 0.626865	 -0.510664	 0.586155	 2
1463571860.902	 3	 -0.884523	 -0.130071	 0.810385	 1.318234	 -0.613761	 -0.936711	 0.050449	 0.628741	 -0.505270	 0.588932	 2
1463571860.912	 3	 -0.199898	 0.101660	 1.214767	 1.323035	 -0.603851	 -0.929159	 0.053026	 0.629488	 -0.500855	 0.591673	 2
1463571860.922	 3	 0.154779	 0.355097	 1.545490	 1.327782	 -0.589416	 -0.925844	 0.058614	 0.629723	 -0.496691	 0.594400	 2
1463571860.932	 3	 0.475260	 0.746515	 1.969449	 1.334609	 -0.570530	 -0.925070	 0.067171	 0.630095	 -0.492194	 0.596836	 2
1463571860.942	 3	 0.848078	 1.105175	 2.443805	 1.343554	 -0.546234	 -0.927549	 0.079263	 0.630447	 -0.487297	 0.598996	 2
1463571860.952	 3	 0.986079	 1.338965	 3.057592	 1.354485	 -0.515840	 -0.931114	 0.094388	 0.630667	 -0.481101	 0.601575	 2
1463571860.962	 3	 0.905331	 1.824230	 3.646848	 1.370302	 -0.479562	 -0.933238	 0.112293	 0.631701	 -0.472593	 0.604152	 2
1463571860.982	 3	 0.698516	 3.182215	 3.969291	 1.423805	 -0.399111	 -0.934539	 0.154431	 0.639277	 -0.449896	 0.604210	 2
1463571860.992	 4	 0.684150	 3.659933	 3.545425	 1.458499	 -0.361791	 -0.936617	 0.176139	 0.645424	 -0.438058	 0.600424	 2
1463571861.002	 4	 0.886213	 4.033473	 2.923670	 1.495933	 -0.330353	 -0.942210	 0.197092	 0.652518	 -0.427844	 0.593569	 2
1463571861.012	 4	 1.477803	 4.355277	 2.365186	 1.535128	 -0.304810	 -0.954415	 0.218192	 0.659836	 -0.420325	 0.583383	 2
1463571861.022	 4	 2.311639	 4.326446	 1.953734	 1.572352	 -0.283880	 -0.976053	 0.240188	 0.665625	 -0.416383	 0.570858	 2
1463571861.032	 4	 2.834460	 4.166036	 1.312495	 1.606647	 -0.269568	 -1.004794	 0.261626	 0.669945	 -0.416058	 0.556437	 2
1463571861.042	 4	 2.528106	 3.819497	 0.629850	 1.638455	 -0.263030	 -1.032781	 0.279761	 0.674073	 -0.417528	 0.541322	 2
1463571861.052	 4	 1.666671	 3.467805	 0.185391	 1.669029	 -0.261914	 -1.052497	 0.293171	 0.679276	 -0.418087	 0.527104	 2
1463571861.062	 4	 0.965243	 2.937140	 0.205744	 1.696659	 -0.261310	 -1.064173	 0.303107	 0.684661	 -0.416832	 0.515380	 2
1463571861.072	 4	 0.582651	 2.514589	 0.303194	 1.720948	 -0.259465	 -1.071429	 0.311210	 0.689521	 -0.414400	 0.505947	 2
1463571861.082	 4	 0.239643	 2.151152	 0.355021	 1.742322	 -0.256557	 -1.075332	 0.317847	 0.693918	 -0.411137	 0.498414	 2
1463571861.092	 5	 -0.291223	 1.781873	 0.405232	 1.761330	 -0.252447	 -1.074665	 0.322725	 0.698239	 -0.406668	 0.492880	 2
1463571861.112	 5	 -1.937973	 0.741464	 0.005964	 1.788070	 -0.242156	 -1.049584	 0.322285	 0.707652	 -0.392976	 0.490846	 2
1463571861.122	 5	 -2.793498	 0.223306	 -0.364425	 1.798552	 -0.239230	 -1.023038	 0.315741	 0.714135	 -0.383844	 0.492933	 2
1463571861.132	 5	 -3.607136	 -0.944772	 -0.432156	 1.800438	 -0.235709	 -0.987807	 0.304500	 0.719685	 -0.373671	 0.499703	 2
1463571861.142	 5	 -4.224530	 -1.937875	 -0.199422	 1.792959	 -0.229218	 -0.946316	 0.290070	 0.723289	 -0.362171	 0.511414	 2
1463571861.152	 5	 -4.544515	 -2.754583	 0.277489	 1.777176	 -0.218191	 -0.901612	 0.274374	 0.724395	 -0.349141	 0.527324	 2
1463571861.162	 5	 -4.296462	 -3.032842	 0.726754	 1.756253	 -0.203475	 -0.858804	 0.259757	 0.723064	 -0.335550	 0.545078	 2
1463571861.172	 5	 -3.641996	 -2.905752	 0.916207	 1.733735	 -0.188095	 -0.822004	 0.247499	 0.720016	 -0.323064	 0.562095	 2
1463571861.182	 5	 -2.789617	 -2.445136	 0.831008	 1.713214	 -0.174995	 -0.793070	 0.237927	 0.716432	 -0.312918	 0.576366	 2
1463571861.192	 5	 -1.900497	 -1.510501	 0.565523	 1.698816	 -0.165749	 -0.772676	 0.231323	 0.713758	 -0.305571	 0.586230	 2
1463571861.202	 5	 -1.312794	 0.418739	 0.342825	 1.700136	 -0.160097	 -0.758625	 0.228292	 0.715226	 -0.299386	 0.588815	 2
1463571861.212	 5	 -0.696689	 2.137304	 0.267126	 1.718995	 -0.156150	 -0.750425	 0.229386	 0.721327	 -0.293482	 0.583899	 2
1463571861.222	 5	 -0.020643	 2.942459	 0.247416	 1.747171	 -0.153366	 -0.748905	 0.233803	 0.729409	 -0.288820	 0.574353	 2
1463571861.232	 5	 0.674118	 2.985830	 0.202338	 1.776541	 -0.152217	 -0.754323	 0.240365	 0.737015	 -0.286479	 0.562995	 2
1463571861.242	 5	 1.264881	 2.473254	 0.159386	 1.801049	 -0.153034	 -0.765843	 0.247894	 0.742514	 -0.286987	 0.552142	 2
1463571861.252	 5	 1.644567	 1.517047	 0.163168	 1.816457	 -0.155170	 -0.781582	 0.255336	 0.744944	 -0.290116	 0.543778	 2
1463571861.262	 5	 1.863742	 0.231687	 0.180206	 1.819439	 -0.157918	 -0.799859	 0.261765	 0.743635	 -0.295652	 0.539515	 2
1463571861.282	 5	 1.890188	 -0.330713	 -1.093514	 1.810679	 -0.177733	 -0.834159	 0.267304	 0.738560	 -0.312953	 0.533983	 2
1463571861.272	 5	 1.874000	 -0.079654	 -0.360990	 1.815504	 -0.164314	 -0.817864	 0.265976	 0.740784	 -0.303267	 0.537144	 2
1463571861.292	 5	 1.967687	 -0.749621	 -1.773780	 1.801179	 -0.197868	 -0.849589	 0.265507	 0.735835	 -0.325272	 0.531273	 2
1463571861.312	 6	 2.159014	 -0.805715	 -2.977082	 1.776999	 -0.256774	 -0.880345	 0.254943	 0.730767	 -0.356374	 0.523433	 2
1463571861.322	 6	 1.935658	 0.793002	 -3.345001	 1.775238	 -0.292964	 -0.894176	 0.248639	 0.731686	 -0.372072	 0.514177	 2
1463571861.332	 6	 1.046210	 4.925064	 -3.273228	 1.811977	 -0.328149	 -0.899822	 0.246936	 0.743018	 -0.380442	 0.492150	 2
1463571861.342	 6	 0.390487	 7.168015	 -2.833132	 1.881513	 -0.357989	 -0.896463	 0.250037	 0.762011	 -0.380900	 0.460148	 2
1463571861.352	 6	 0.790818	 5.697651	 -1.854878	 1.944706	 -0.380368	 -0.895027	 0.255068	 0.777507	 -0.380190	 0.431138	 2
1463571861.372	 6	 1.742210	 1.654637	 0.402329	 1.985458	 -0.398102	 -0.925849	 0.269950	 0.782825	 -0.387369	 0.405288	 2
1463571861.362	 6	 1.715353	 2.754944	 -0.414230	 1.974488	 -0.393174	 -0.906986	 0.261821	 0.782861	 -0.383268	 0.414348	 2
1463571861.382	 6	 1.247646	 1.410427	 0.846654	 1.993387	 -0.396918	 -0.942833	 0.278460	 0.782036	 -0.389292	 0.399164	 2
1463571861.392	 6	 0.653495	 1.355526	 1.248846	 2.002032	 -0.389809	 -0.955979	 0.287224	 0.781550	 -0.388243	 0.394904	 2
1463571861.402	 6	 -0.547974	 0.965129	 1.489076	 2.010858	 -0.375843	 -0.960533	 0.294493	 0.781923	 -0.383058	 0.393874	 2
1463571861.412	 6	 -1.531013	 1.464893	 1.660019	 2.025529	 -0.355507	 -0.955158	 0.300608	 0.784547	 -0.372760	 0.393918	 2
1463571861.422	 6	 -1.942654	 2.129380	 1.749718	 2.048755	 -0.331612	 -0.945765	 0.307447	 0.789259	 -0.358962	 0.392036	 2
1463571861.432	 6	 -1.923668	 1.250157	 1.663571	 2.068169	 -0.307398	 -0.935888	 0.313198	 0.793274	 -0.345335	 0.391622	 2
1463571861.442	 6	 -1.466835	 -1.334418	 1.261460	 2.063518	 -0.287701	 -0.928280	 0.314409	 0.792426	 -0.337424	 0.399191	 2
1463571861.452	 6	 -1.452795	 -2.851085	 0.686634	 2.040272	 -0.273836	 -0.919232	 0.310485	 0.788277	 -0.334187	 0.412963	 2
1463571861.462	 6	 -2.113548	 -2.887259	 0.418150	 2.014775	 -0.261298	 -0.903481	 0.303318	 0.784523	 -0.330246	 0.428323	 2
1463571861.472	 6	 -2.798457	 -1.726836	 0.438108	 1.999948	 -0.246234	 -0.880484	 0.295851	 0.783739	 -0.322004	 0.441066	 2
1463571861.482	 6	 -2.733750	 -0.687805	 0.448279	 1.996766	 -0.230511	 -0.856089	 0.289939	 0.785540	 -0.311295	 0.449397	 2
1463571861.492	 6	 -1.728921	 -0.783293	 0.447168	 1.993731	 -0.218075	 -0.838956	 0.286034	 0.786475	 -0.303279	 0.455701	 2
1463571861.502	 6	 -0.246337	 -1.444601	 0.495249	 1.981663	 -0.211171	 -0.835212	 0.284576	 0.783762	 -0.301595	 0.462358	 2
1463571861.512	 6	 0.708694	 -1.529801	 0.572467	 1.964538	 -0.208124	 -0.842319	 0.285574	 0.778544	 -0.304571	 0.468564	 2
1463571861.522	 6	 0.880585	 -0.884275	 0.630265	 1.951550	 -0.205699	 -0.853055	 0.288407	 0.773766	 -0.308077	 0.472436	 2
1463571861.532	 6	 0.584348	 0.236573	 0.483410	 1.949115	 -0.203176	 -0.861491	 0.291975	 0.771771	 -0.309509	 0.472572	 2
1463571861.542	 6	 0.198770	 1.257338	 -0.006774	 1.958979	 -0.203017	 -0.864751	 0.294803	 0.773601	 -0.308771	 0.468289	 2
1463571861.552	 6	 -0.190955	 1.286915	 -0.631905	 1.972812	 -0.207100	 -0.862083	 0.294804	 0.777527	 -0.307597	 0.462523	 2
1463571861.562	 6	 -0.536621	 0.740451	 -1.032576	 1.983719	 -0.213975	 -0.853762	 0.291401	 0.781763	 -0.306598	 0.458180	 2
1463571861.572	 6	 -0.737482	 -0.268733	 -1.235252	 1.986092	 -0.222093	 -0.842402	 0.285155	 0.784514	 -0.306636	 0.457383	 2
1463571861.582	 6	 -0.765747	 -1.175772	 -1.362812	 1.979389	 -0.231222	 -0.829627	 0.276666	 0.785384	 -0.308001	 0.460178	 2
1463571861.592	 6	 -0.642860	 -2.030346	 -1.381425	 1.963861	 -0.241318	 -0.817667	 0.266835	 0.784067	 -0.311039	 0.466147	 2
1463571861.602	 6	 -0.529797	 -2.117249	 -1.292629	 1.944750	 -0.251497	 -0.807284	 0.256980	 0.781578	 -0.314811	 0.473276	 2
1463571861.612	 6	 -0.503600	 -1.469317	 -1.108845	 1.930677	 -0.260518	 -0.798093	 0.248649	 0.779944	 -0.317670	 0.478483	 2
1463571861.622	 6	 -0.413963	 -1.170455	 -0.927797	 1.920671	 -0.267993	 -0.790287	 0.241905	 0.778944	 -0.319718	 0.482191	 2
1463571861.632	 6	 -0.245235	 -1.318197	 -0.992455	 1.909550	 -0.276075	 -0.784160	 0.235436	 0.777453	 -0.322465	 0.485955	 2
1463571861.642	 6	 -0.250393	 -1.251255	 -1.296595	 1.898569	 -0.286680	 -0.777718	 0.228107	 0.776122	 -0.325958	 0.489238	 2
1463571861.652	 6	 -0.366130	 -1.133517	 -1.827373	 1.889518	 -0.301556	 -0.768835	 0.218862	 0.775697	 -0.330083	 0.491365	 2
1463571861.662	 6	 -0.474162	 -1.064766	 -2.510012	 1.882467	 -0.322371	 -0.756743	 0.206906	 0.776284	 -0.335230	 0.492133	 2
1463571861.672	 6	 -0.538727	 -1.142182	 -3.091011	 1.876168	 -0.348967	 -0.741948	 0.192238	 0.777373	 -0.341590	 0.491989	 2
1463571861.682	 6	 -0.583385	 -1.276445	 -3.436102	 1.869636	 -0.379432	 -0.725380	 0.175581	 0.778400	 -0.348793	 0.491536	 2
1463571861.692	 6	 -0.637156	 -1.497255	 -3.546397	 1.862049	 -0.411310	 -0.707861	 0.157826	 0.778905	 -0.356225	 0.491429	 2
1463571861.702	 6	 -0.720319	 -1.924483	 -3.825680	 1.852103	 -0.445174	 -0.688714	 0.138282	 0.778560	 -0.363965	 0.492191	 2
1463571861.712	 6	 -0.608822	 -2.482078	 -4.110003	 1.836973	 -0.482435	 -0.669582	 0.116593	 0.776478	 -0.372974	 0.494347	 2
1463571861.722	 6	 -0.431997	 -2.520092	 -4.147067	 1.819966	 -0.521365	 -0.652138	 0.094493	 0.773298	 -0.382720	 0.496596	 2
1463571861.732	 6	 -0.009436	 -2.143178	 -4.068373	 1.803960	 -0.560703	 -0.639296	 0.074032	 0.769648	 -0.393321	 0.497453	 2
1463571861.742	 6	 0.623389	 -1.483331	 -4.049624	 1.790421	 -0.601208	 -0.633721	 0.056291	 0.765939	 -0.405668	 0.495583	 2
1463571861.752	 6	 1.276429	 -0.697288	 -3.927565	 1.779576	 -0.642378	 -0.636872	 0.042044	 0.762370	 -0.419974	 0.490557	 2
1463571861.762	 6	 1.706053	 0.084333	 -3.625619	 1.772291	 -0.681926	 -0.647229	 0.031657	 0.759398	 -0.435114	 0.482688	 2
1463571861.772	 6	 2.029710	 0.504168	 -3.241922	 1.765846	 -0.718537	 -0.663731	 0.024604	 0.756534	 -0.450463	 0.473428	 2
1463571861.782	 6	 2.191530	 0.746060	 -2.821169	 1.758539	 -0.751376	 -0.684863	 0.020202	 0.753516	 -0.465410	 0.463895	 2
1463571861.792	 6	 2.170925	 0.848521	 -2.487519	 1.750725	 -0.780531	 -0.708212	 0.017582	 0.750513	 -0.479431	 0.454496	 2
1463571861.802	 6	 1.995601	 0.702954	 -2.391428	 1.741987	 -0.807832	 -0.730940	 0.014976	 0.747422	 -0.492453	 0.445676	 2
1463571861.812	 6	 1.745319	 0.551868	 -2.353353	 1.732865	 -0.834067	 -0.751396	 0.011644	 0.744359	 -0.504366	 0.437503	 2
1463571861.822	 6	 1.437042	 0.380250	 -2.383173	 1.724442	 -0.859900	 -0.768411	 0.007221	 0.741538	 -0.515135	 0.429773	 2
1463571861.832	 6	 0.991041	 0.045652	 -2.502835	 1.717092	 -0.885888	 -0.779808	 0.000847	 0.738991	 -0.524494	 0.422844	 2
1463571861.842	 6	 0.600556	 -0.266922	 -2.643024	 1.711417	 -0.912862	 -0.784639	 -0.007911	 0.736742	 -0.532523	 0.416614	 2
1463571861.852	 6	 0.378203	 -0.494735	 -2.467357	 1.705935	 -0.938478	 -0.785930	 -0.017509	 0.734511	 -0.539304	 0.411507	 2
1463571861.862	 6	 0.267678	 -0.701312	 -2.104892	 1.699617	 -0.960670	 -0.785774	 -0.026747	 0.732180	 -0.544780	 0.407936	 2
1463571861.872	 6	 0.325329	 -0.988261	 -1.757428	 1.689362	 -0.979283	 -0.787108	 -0.035345	 0.729199	 -0.549491	 0.406300	 2
1463571861.882	 6	 0.436719	 -1.105955	 -1.515434	 1.674938	 -0.995332	 -0.791263	 -0.043252	 0.725546	 -0.553939	 0.406035	 2
1463571861.892	 6	 0.595541	 -1.042606	 -1.369152	 1.657783	 -1.009792	 -0.799032	 -0.050139	 0.721524	 -0.558538	 0.406109	 2
1463571861.902	 6	 0.750872	 -0.978717	 -1.296372	 1.637960	 -1.023400	 -0.810659	 -0.056185	 0.717153	 -0.563504	 0.406199	 2
1463571861.912	 6	 0.851315	 -0.993538	 -1.246228	 1.615554	 -1.036445	 -0.825380	 -0.061773	 0.712445	 -0.568741	 0.406375	 2
1463571861.922	 6	 0.865838	 -1.145131	 -1.171030	 1.590227	 -1.048616	 -0.841882	 -0.067389	 0.707322	 -0.573893	 0.407187	 2
1463571861.932	 6	 0.745145	 -1.219834	 -1.107795	 1.564530	 -1.059885	 -0.857561	 -0.073224	 0.702215	 -0.578511	 0.408482	 2
1463571861.942	 6	 0.566002	 -1.238034	 -1.049919	 1.540697	 -1.070387	 -0.870574	 -0.079300	 0.697490	 -0.582347	 0.409990	 2
1463571861.952	 6	 0.399089	 -1.106694	 -1.046178	 1.520359	 -1.080637	 -0.880708	 -0.085360	 0.693431	 -0.585549	 0.411096	 2
1463571861.962	 6	 0.263788	 -1.029959	 -1.079456	 1.503179	 -1.091135	 -0.888362	 -0.091507	 0.689954	 -0.588305	 0.411688	 2
1463571861.972	 6	 0.184994	 -1.125195	 -1.190495	 1.486400	 -1.102527	 -0.894836	 -0.098312	 0.686521	 -0.590884	 0.412164	 2
1463571861.982	 6	 0.130772	 -1.205691	 -1.312269	 1.469350	 -1.115207	 -0.900727	 -0.105909	 0.683011	 -0.593428	 0.412459	 2
1463571861.992	 6	 -0.008783	 -1.343861	 -1.354970	 1.452524	 -1.128570	 -0.904862	 -0.114329	 0.679471	 -0.595597	 0.412932	 2
1463571862.002	 6	 -0.178990	 -1.458206	 -1.351355	 1.437547	 -1.142203	 -0.905641	 -0.123467	 0.676128	 -0.597083	 0.413641	 2
1463571862.012	 6	 -0.316189	 -1.646597	 -1.278376	 1.423757	 -1.155479	 -0.903245	 -0.133212	 0.672828	 -0.597800	 0.414961	 2
1463571862.022	 6	 -0.503816	 -1.734270	 -1.124088	 1.412671	 -1.167700	 -0.896507	 -0.143227	 0.669777	 -0.597521	 0.416958	 2
1463571862.032	 6	 -0.796453	 -1.534880	 -0.880954	 1.409892	 -1.178210	 -0.882128	 -0.152684	 0.667863	 -0.595920	 0.418958	 2
1463571862.042	 6	 -1.167558	 -1.098313	 -0.524090	 1.421185	 -1.185988	 -0.856771	 -0.160616	 0.668002	 -0.592695	 0.420343	 2
1463571862.052	 6	 -1.584854	 -0.575863	 -0.076501	 1.449903	 -1.189883	 -0.818217	 -0.166448	 0.670729	 -0.587570	 0.420926	 2
1463571862.062	 6	 -2.044223	 -0.181706	 0.409693	 1.495664	 -1.188922	 -0.766010	 -0.170324	 0.676020	 -0.580263	 0.421048	 2
1463571862.072	 6	 -2.528619	 0.181067	 0.811619	 1.556765	 -1.182762	 -0.701024	 -0.172686	 0.683758	 -0.570621	 0.420769	 2
1463571862.082	 6	 -2.849770	 0.538204	 0.942432	 1.628021	 -1.172897	 -0.628772	 -0.174079	 0.693381	 -0.559471	 0.419417	 2
1463571862.092	 6	 -2.944387	 1.132474	 0.864591	 1.703912	 -1.161221	 -0.556604	 -0.174450	 0.704268	 -0.548190	 0.416007	 2
1463571862.102	 6	 -2.839070	 2.075702	 0.733902	 1.783497	 -1.148761	 -0.489610	 -0.172718	 0.716522	 -0.537979	 0.409077	 2
1463571862.112	 6	 -2.529617	 3.152641	 0.790254	 1.863615	 -1.134891	 -0.433187	 -0.167587	 0.729968	 -0.529433	 0.398449	 2
1463571862.122	 6	 -2.092532	 4.100662	 1.160826	 1.939075	 -1.117828	 -0.392607	 -0.157836	 0.744221	 -0.522416	 0.385104	 2
1463571862.132	 6	 -1.639555	 4.718542	 1.626238	 2.005316	 -1.097064	 -0.369793	 -0.143554	 0.758564	 -0.516436	 0.370496	 2
1463571862.142	 6	 -1.315919	 4.937101	 1.975024	 2.061896	 -1.073945	 -0.361379	 -0.126197	 0.772315	 -0.511017	 0.355621	 2
1463571862.152	 6	 -1.213579	 4.613930	 2.332419	 2.108481	 -1.048454	 -0.362124	 -0.107619	 0.784969	 -0.505114	 0.342200	 2
1463571862.162	 6	 -1.354927	 4.005197	 2.666898	 2.145664	 -1.019538	 -0.367297	 -0.089115	 0.796523	 -0.497640	 0.331608	 2
1463571862.172	 6	 -1.666742	 3.300801	 2.648138	 2.177677	 -0.988452	 -0.370651	 -0.072365	 0.807213	 -0.488309	 0.323611	 2
1463571862.182	 6	 -1.998736	 2.438809	 2.303029	 2.206694	 -0.957766	 -0.367794	 -0.059253	 0.816908	 -0.477549	 0.317957	 2
1463571862.192	 6	 -2.252849	 1.395348	 1.899068	 2.230795	 -0.928588	 -0.358552	 -0.050601	 0.825262	 -0.465835	 0.315246	 2
1463571862.202	 6	 -2.395710	 0.338337	 1.578208	 2.247553	 -0.900947	 -0.344908	 -0.046117	 0.832038	 -0.453566	 0.316012	 2
1463571862.212	 6	 -2.388926	 -0.513221	 1.342152	 2.256528	 -0.874980	 -0.329297	 -0.044806	 0.837227	 -0.441256	 0.319900	 2
1463571862.222	 6	 -2.232348	 -1.117926	 1.179560	 2.258322	 -0.851141	 -0.314044	 -0.045521	 0.840879	 -0.429515	 0.326140	 2
1463571862.232	 6	 -2.034410	 -1.626383	 1.105962	 2.253276	 -0.829269	 -0.300511	 -0.047443	 0.843059	 -0.418540	 0.334403	 2
1463571862.242	 6	 -1.871094	 -1.824864	 1.082444	 2.243931	 -0.808850	 -0.288687	 -0.049824	 0.844220	 -0.408210	 0.343765	 2
1463571862.252	 6	 -1.715818	 -1.732603	 1.107529	 2.233417	 -0.789351	 -0.278694	 -0.051803	 0.844959	 -0.398436	 0.353001	 2
1463571862.262	 6	 -1.535125	 -1.464841	 1.143617	 2.223532	 -0.770687	 -0.270808	 -0.052876	 0.845621	 -0.389309	 0.361342	 2
1463571862.272	 6	 -1.271651	 -1.058078	 1.167489	 2.215406	 -0.753327	 -0.265729	 -0.052651	 0.846390	 -0.381209	 0.368146	 2
1463571862.282	 6	 -0.986008	 -0.682398	 1.167432	 2.209066	 -0.737640	 -0.263730	 -0.051113	 0.847262	 -0.374369	 0.373339	 2
1463571862.292	 6	 -0.718844	 -0.360001	 1.145725	 2.204200	 -0.723723	 -0.264415	 -0.048531	 0.848181	 -0.368773	 0.377148	 2
1463571862.302	 6	 -0.438688	 -0.004615	 1.131672	 2.200991	 -0.711557	 -0.267832	 -0.044863	 0.849200	 -0.364438	 0.379515	 2
1463571862.312	 6	 -0.123197	 0.380410	 1.112258	 2.199623	 -0.701314	 -0.274323	 -0.039980	 0.850348	 -0.361507	 0.380293	 2
1463571862.322	 6	 0.203781	 0.724872	 1.077447	 2.199873	 -0.693278	 -0.283962	 -0.033968	 0.851546	 -0.360097	 0.379533	 2
1463571862.332	 6	 0.468581	 1.013114	 1.038390	 2.201493	 -0.687195	 -0.296239	 -0.027029	 0.852760	 -0.359988	 0.377463	 2
1463571862.342	 6	 0.655085	 1.229167	 0.986554	 2.204440	 -0.682740	 -0.310263	 -0.019475	 0.853993	 -0.360859	 0.374295	 2
1463571862.352	 6	 0.777845	 1.311124	 0.897790	 2.208096	 -0.679773	 -0.325084	 -0.011788	 0.855127	 -0.362450	 0.370471	 2
1463571862.362	 6	 0.854058	 1.283407	 0.773240	 2.211753	 -0.678297	 -0.339902	 -0.004440	 0.856026	 -0.364600	 0.366425	 2
1463571862.372	 6	 0.910621	 1.190624	 0.615217	 2.214956	 -0.678418	 -0.354155	 0.002220	 0.856604	 -0.367248	 0.362428	 2
1463571862.382	 6	 0.992739	 1.096607	 0.444171	 2.217531	 -0.680353	 -0.367888	 0.008125	 0.856822	 -0.370493	 0.358504	 2
1463571862.392	 6	 1.112049	 0.990593	 0.247111	 2.219243	 -0.684505	 -0.381316	 0.013224	 0.856606	 -0.374542	 0.354639	 2
1463571862.402	 6	 1.228028	 0.882245	 0.020217	 2.220055	 -0.691102	 -0.394303	 0.017390	 0.855939	 -0.379460	 0.350822	 2
1463571862.412	 6	 1.388714	 0.783051	 -0.246414	 2.220123	 -0.700629	 -0.406838	 0.020524	 0.854803	 -0.385433	 0.346891	 2
1463571862.432	 7	 2.185728	 0.313970	 -0.807652	 2.211436	 -0.732334	 -0.436159	 0.023781	 0.849510	 -0.403032	 0.339606	 2
1463571862.442	 7	 2.475289	 -0.061112	 -1.079038	 2.199377	 -0.754809	 -0.454576	 0.023704	 0.844741	 -0.414997	 0.337088	 2
1463571862.452	 7	 2.156025	 -0.149965	 -1.287040	 2.186989	 -0.778283	 -0.470134	 0.021916	 0.839820	 -0.426719	 0.334861	 2
1463571862.462	 7	 1.233894	 0.214959	 -1.205275	 2.182769	 -0.797059	 -0.477329	 0.019393	 0.836870	 -0.435054	 0.331662	 2
1463571862.472	 7	 -0.146130	 1.391133	 -0.761339	 2.197179	 -0.805582	 -0.472275	 0.018325	 0.838271	 -0.437300	 0.325169	 2
1463571862.482	 7	 -0.765002	 1.125086	 -0.152007	 2.217803	 -0.803914	 -0.461790	 0.018821	 0.841894	 -0.434787	 0.319094	 2
1463571862.492	 7	 -0.484908	 0.110202	 0.373254	 2.224681	 -0.798377	 -0.457200	 0.019699	 0.843718	 -0.431874	 0.318177	 2
1463571862.502	 7	 0.041760	 -0.502651	 0.702944	 2.217672	 -0.792796	 -0.461764	 0.021446	 0.843234	 -0.430541	 0.321141	 2
1463571862.512	 7	 0.212291	 -0.823938	 0.761350	 2.203901	 -0.787862	 -0.470556	 0.023376	 0.841497	 -0.430236	 0.325934	 2
1463571862.522	 7	 0.002324	 -1.076632	 0.591370	 2.189411	 -0.783072	 -0.476622	 0.023981	 0.839601	 -0.429587	 0.331588	 2
1463571862.532	 7	 -0.287738	 -1.179628	 0.498084	 2.176657	 -0.777669	 -0.478247	 0.023263	 0.838061	 -0.427968	 0.337573	 2
1463571862.542	 7	 -0.407159	 -1.174877	 0.518352	 2.165256	 -0.771190	 -0.477693	 0.022214	 0.836846	 -0.425560	 0.343648	 2
1463571862.552	 7	 -0.188228	 -0.890683	 0.489249	 2.154734	 -0.765569	 -0.478593	 0.021770	 0.835626	 -0.423716	 0.348882	 2
1463571862.562	 7	 0.121849	 -0.194880	 0.349146	 2.148363	 -0.762564	 -0.482151	 0.022667	 0.834793	 -0.423282	 0.351340	 2
1463571862.582	 8	 -0.114159	 -0.108190	 0.474570	 2.143228	 -0.757505	 -0.489008	 0.025729	 0.834336	 -0.422656	 0.352964	 2
1463571862.592	 8	 -0.345925	 -0.118573	 0.708828	 2.141083	 -0.750337	 -0.490355	 0.027669	 0.834675	 -0.420239	 0.354897	 2
1463571862.602	 8	 -0.369987	 -0.245049	 0.712123	 2.138309	 -0.742202	 -0.491483	 0.029640	 0.834984	 -0.417429	 0.357317	 2
1463571862.612	 8	 -0.316052	 -0.383009	 0.483363	 2.134520	 -0.735756	 -0.491620	 0.030561	 0.834940	 -0.415093	 0.360055	 2
1463571862.622	 8	 -0.062476	 -0.227377	 0.193781	 2.131513	 -0.732754	 -0.491934	 0.030840	 0.834685	 -0.414069	 0.361796	 2
1463571862.642	 9	 0.052411	 0.862336	 -0.120005	 2.136695	 -0.734874	 -0.494698	 0.032524	 0.835368	 -0.415281	 0.358670	 2
1463571862.652	 9	 -0.259743	 1.339611	 -0.285499	 2.151934	 -0.735851	 -0.490847	 0.033826	 0.838047	 -0.414710	 0.352915	 2
1463571862.662	 9	 -0.466241	 0.957861	 -0.503603	 2.168398	 -0.737263	 -0.482766	 0.033488	 0.840923	 -0.413553	 0.347421	 2
1463571862.672	 9	 -0.597047	 0.058312	 -0.666432	 2.178862	 -0.739224	 -0.471587	 0.030455	 0.842709	 -0.412199	 0.344973	 2
1463571862.682	 9	 -0.668173	 -0.905859	 -0.769638	 2.181026	 -0.741521	 -0.458493	 0.024816	 0.843020	 -0.410785	 0.346349	 2
1463571862.692	 9	 -0.478628	 -1.805958	 -0.878780	 2.173736	 -0.745431	 -0.445796	 0.017008	 0.841457	 -0.410146	 0.351343	 2
1463571862.702	 9	 -0.004774	 -2.453178	 -0.909178	 2.156432	 -0.752152	 -0.437265	 0.008204	 0.837699	 -0.411308	 0.359192	 2
1463571862.712	 9	 0.661194	 -2.675247	 -0.902122	 2.130580	 -0.762405	 -0.436178	 -0.000176	 0.831868	 -0.415049	 0.368415	 2
1463571862.722	 9	 1.230438	 -2.206147	 -0.812123	 2.102016	 -0.775304	 -0.443255	 -0.006538	 0.825143	 -0.421146	 0.376474	 2
1463571862.732	 9	 1.562343	 -1.404251	 -0.687120	 2.076705	 -0.788935	 -0.456459	 -0.010073	 0.818916	 -0.428564	 0.381585	 2
1463571862.742	 9	 1.819309	 -0.829112	 -0.621126	 2.054483	 -0.802832	 -0.474306	 -0.011326	 0.813264	 -0.436896	 0.384181	 2
1463571862.752	 9	 1.934469	 -0.623111	 -0.621277	 2.032929	 -0.817074	 -0.495001	 -0.011586	 0.807731	 -0.445824	 0.385587	 2
1463571862.762	 9	 1.804544	 -0.699047	 -0.731692	 2.011577	 -0.831404	 -0.515095	 -0.012287	 0.802243	 -0.454584	 0.386793	 2
1463571862.772	 9	 1.459961	 -1.124390	 -1.003353	 1.990207	 -0.846319	 -0.530463	 -0.015257	 0.796686	 -0.462531	 0.388746	 2
1463571862.782	 9	 1.021262	 -1.774266	 -1.328507	 1.967876	 -0.862295	 -0.538727	 -0.021760	 0.790789	 -0.469318	 0.392326	 2
1463571862.792	 9	 0.659748	 -2.229878	 -1.527830	 1.945023	 -0.878889	 -0.540685	 -0.031207	 0.784627	 -0.474896	 0.397317	 2
1463571862.802	 9	 0.482854	 -2.365808	 -1.570186	 1.922402	 -0.895350	 -0.539499	 -0.041913	 0.778404	 -0.479607	 0.402874	 2
1463571862.812	 9	 0.507606	 -2.108379	 -1.555217	 1.901215	 -0.911705	 -0.538517	 -0.052266	 0.772406	 -0.484154	 0.407740	 2
1463571862.822	 9	 0.696029	 -1.589372	 -1.483819	 1.882186	 -0.927992	 -0.540715	 -0.060947	 0.766886	 -0.489206	 0.410912	 2
1463571862.832	 9	 0.966978	 -0.996146	 -1.411383	 1.864876	 -0.944335	 -0.547976	 -0.067391	 0.761858	 -0.495216	 0.412057	 2
1463571862.842	 9	 1.238011	 -0.434405	 -1.280625	 1.848530	 -0.960265	 -0.560974	 -0.071410	 0.757294	 -0.502177	 0.411369	 2
1463571862.852	 9	 1.477166	 -0.045087	 -1.178902	 1.832033	 -0.975604	 -0.579496	 -0.073336	 0.753011	 -0.509956	 0.409318	 2
1463571862.862	 9	 1.668976	 0.059121	 -1.104999	 1.813072	 -0.990533	 -0.602858	 -0.074109	 0.748514	 -0.518371	 0.406849	 2
1463571862.872	 9	 1.732800	 -0.040561	 -1.038274	 1.790734	 -1.004740	 -0.629383	 -0.074551	 0.743603	 -0.526943	 0.404757	 2
1463571862.882	 9	 1.668886	 -0.282526	 -0.989878	 1.765470	 -1.018012	 -0.656665	 -0.075411	 0.738308	 -0.535146	 0.403526	 2
1463571862.892	 9	 1.535319	 -0.587023	 -0.939326	 1.737740	 -1.030155	 -0.683113	 -0.077109	 0.732678	 -0.542638	 0.403462	 2
1463571862.902	 9	 1.407161	 -0.833406	 -0.939437	 1.708477	 -1.041610	 -0.708139	 -0.079748	 0.726831	 -0.549465	 0.404283	 2
1463571862.912	 9	 1.331512	 -1.031040	 -0.942749	 1.677452	 -1.052596	 -0.732577	 -0.083152	 0.720729	 -0.555844	 0.405799	 2
1463571862.922	 9	 1.283856	 -1.160821	 -0.964857	 1.644749	 -1.063293	 -0.757124	 -0.087110	 0.714399	 -0.561958	 0.407736	 2
1463571862.932	 9	 1.205204	 -1.287435	 -1.002652	 1.610916	 -1.073912	 -0.781408	 -0.091677	 0.707923	 -0.567793	 0.409940	 2
1463571862.942	 9	 1.081829	 -1.410576	 -1.019776	 1.576729	 -1.084365	 -0.804540	 -0.096911	 0.701423	 -0.573171	 0.412418	 2
1463571862.952	 9	 0.889588	 -1.427159	 -1.037440	 1.544140	 -1.094535	 -0.825041	 -0.102703	 0.695228	 -0.577852	 0.414965	 2
1463571862.962	 9	 0.696870	 -1.288713	 -1.090959	 1.515417	 -1.105024	 -0.842415	 -0.108734	 0.689745	 -0.581978	 0.416811	 2
1463571862.972	 9	 0.532422	 -1.069257	 -1.108801	 1.491145	 -1.115667	 -0.856894	 -0.114642	 0.685105	 -0.585612	 0.417787	 2
1463571862.982	 9	 0.451435	 -0.816953	 -1.110011	 1.470683	 -1.126313	 -0.869877	 -0.120038	 0.681251	 -0.589013	 0.417794	 2
1463571862.992	 9	 0.435336	 -0.618998	 -1.099503	 1.452212	 -1.136790	 -0.882901	 -0.124845	 0.677893	 -0.592385	 0.417078	 2
1463571863.002	 9	 0.446668	 -0.506057	 -1.067643	 1.434333	 -1.146894	 -0.896774	 -0.129121	 0.674796	 -0.595792	 0.415944	 2
1463571863.012	 9	 0.454256	 -0.523791	 -1.016718	 1.415807	 -1.156435	 -0.911467	 -0.133175	 0.671706	 -0.599123	 0.414881	 2
1463571863.022	 9	 0.433703	 -0.648664	 -0.937769	 1.396005	 -1.165180	 -0.926320	 -0.137333	 0.668453	 -0.602171	 0.414366	 2
1463571863.032	 9	 0.402474	 -0.807256	 -0.819607	 1.375208	 -1.172783	 -0.940665	 -0.141608	 0.665045	 -0.604776	 0.414619	 2
1463571863.042	 9	 0.344787	 -0.917919	 -0.702901	 1.354154	 -1.179204	 -0.953748	 -0.146004	 0.661561	 -0.606847	 0.415640	 2
1463571863.052	 9	 0.269328	 -0.956152	 -0.578971	 1.334515	 -1.184513	 -0.964747	 -0.150296	 0.658266	 -0.608365	 0.417119	 2
1463571863.062	 9	 0.206346	 -1.057234	 -0.463195	 1.315983	 -1.188758	 -0.973698	 -0.154566	 0.655075	 -0.609347	 0.419146	 2
1463571863.072	 9	 0.113219	 -1.199833	 -0.364595	 1.298422	 -1.192061	 -0.980016	 -0.159077	 0.651890	 -0.609687	 0.421919	 2
1463571863.082	 9	 -0.086230	 -1.430863	 -0.329838	 1.283097	 -1.195389	 -0.981843	 -0.164388	 0.648813	 -0.609213	 0.425297	 2
1463571863.092	 9	 -0.429856	 -1.723886	 -0.248575	 1.272725	 -1.198998	 -0.975215	 -0.171029	 0.646068	 -0.607328	 0.429532	 2
1463571863.102	 9	 -0.815087	 -1.883012	 -0.053799	 1.271154	 -1.202143	 -0.956985	 -0.178555	 0.644153	 -0.603603	 0.434567	 2
1463571863.112	 9	 -1.134849	 -1.974165	 0.153829	 1.278678	 -1.204251	 -0.928022	 -0.186398	 0.643157	 -0.598199	 0.440185	 2
1463571863.122	 9	 -1.449633	 -1.999722	 0.462206	 1.295570	 -1.204489	 -0.888395	 -0.194208	 0.643129	 -0.591051	 0.446461	 2
1463571863.132	 9	 -1.755645	 -1.285137	 0.756078	 1.327408	 -1.202152	 -0.838198	 -0.200173	 0.645376	 -0.582605	 0.451655	 2
1463571863.142	 9	 -1.926139	 -0.468686	 0.925024	 1.373371	 -1.197637	 -0.781862	 -0.203482	 0.650263	 -0.573802	 0.454427	 2
1463571863.152	 9	 -2.049621	 0.188672	 1.028135	 1.428320	 -1.191139	 -0.723078	 -0.204709	 0.657102	 -0.564943	 0.455139	 2
1463571863.162	 9	 -2.159535	 0.810640	 1.096694	 1.490339	 -1.182793	 -0.663289	 -0.204145	 0.665673	 -0.556115	 0.453806	 2
1463571863.172	 9	 -2.239732	 1.497601	 1.046233	 1.558332	 -1.173137	 -0.604048	 -0.201916	 0.675882	 -0.547598	 0.450056	 2
1463571863.182	 9	 -2.313911	 2.165919	 0.920944	 1.631605	 -1.163080	 -0.546084	 -0.198384	 0.687526	 -0.539649	 0.443544	 2
1463571863.192	 9	 -2.334094	 2.909052	 0.867286	 1.709855	 -1.152076	 -0.490321	 -0.193207	 0.700607	 -0.532285	 0.434159	 2
1463571863.202	 9	 -2.123566	 3.782462	 0.978025	 1.789396	 -1.138959	 -0.442015	 -0.185191	 0.714904	 -0.525877	 0.421984	 2
1463571863.212	 9	 -1.632577	 4.696690	 1.257224	 1.864219	 -1.123113	 -0.408797	 -0.172900	 0.729867	 -0.521058	 0.407306	 2
1463571863.232	 10	 -0.467653	 5.514871	 2.057214	 1.980110	 -1.084844	 -0.398361	 -0.135935	 0.757931	 -0.516025	 0.375207	 2
1463571863.242	 10	 -0.120805	 5.525145	 2.587170	 2.019892	 -1.061818	 -0.416046	 -0.112694	 0.770115	 -0.514239	 0.360251	 2
1463571863.252	 10	 -0.048261	 5.236841	 3.193472	 2.050245	 -1.034451	 -0.442535	 -0.087314	 0.781176	 -0.511361	 0.347349	 2
1463571863.262	 10	 -0.354240	 4.589936	 3.770957	 2.073729	 -1.001222	 -0.471029	 -0.061303	 0.791332	 -0.505933	 0.337739	 2
1463571863.272	 10	 -1.060892	 3.662116	 4.023193	 2.094669	 -0.962222	 -0.492836	 -0.037055	 0.801011	 -0.496785	 0.331982	 2
1463571863.282	 10	 -1.858113	 2.480142	 3.805983	 2.115033	 -0.920253	 -0.502111	 -0.017309	 0.810237	 -0.484012	 0.330074	 2
1463571863.292	 10	 -2.405854	 1.128632	 3.191757	 2.132025	 -0.879658	 -0.499226	 -0.003895	 0.818297	 -0.469228	 0.331965	 2
1463571863.302	 10	 -2.655648	 -0.267493	 2.412526	 2.142125	 -0.843604	 -0.486952	 0.002653	 0.824458	 -0.454138	 0.337669	 2
1463571863.312	 10	 -2.639514	 -1.433263	 1.678951	 2.143833	 -0.813636	 -0.468745	 0.003146	 0.828368	 -0.440004	 0.346689	 2
1463571863.322	 10	 -2.442934	 -2.053676	 1.126862	 2.139169	 -0.789597	 -0.448309	 -0.000238	 0.830363	 -0.427463	 0.357452	 2
1463571863.332	 10	 -2.301950	 -2.181126	 0.769549	 2.132349	 -0.769963	 -0.427042	 -0.005529	 0.831337	 -0.416219	 0.368253	 2
1463571863.342	 10	 -2.183901	 -1.871306	 0.566778	 2.127470	 -0.753078	 -0.405562	 -0.011183	 0.832237	 -0.405799	 0.377602	 2
1463571863.352	 10	 -2.027807	 -1.324302	 0.525747	 2.126453	 -0.737672	 -0.385401	 -0.015883	 0.833626	 -0.396070	 0.384634	 2
1463571863.362	 10	 -1.789782	 -0.691676	 0.591376	 2.129323	 -0.723018	 -0.368307	 -0.018763	 0.835658	 -0.387148	 0.389152	 2
1463571863.372	 10	 -1.474856	 -0.062324	 0.676554	 2.135612	 -0.709173	 -0.355458	 -0.019470	 0.838287	 -0.379330	 0.391158	 2
1463571863.382	 10	 -1.124547	 0.409227	 0.722654	 2.144058	 -0.696632	 -0.347098	 -0.018277	 0.841231	 -0.372871	 0.391106	 2
1463571863.392	 10	 -0.782808	 0.685832	 0.723318	 2.153083	 -0.685836	 -0.342829	 -0.015745	 0.844125	 -0.367865	 0.389719	 2
1463571863.402	 10	 -0.474037	 0.759396	 0.725577	 2.161071	 -0.676767	 -0.342079	 -0.012383	 0.846644	 -0.364186	 0.387827	 2
1463571863.412	 10	 -0.177476	 0.715090	 0.749227	 2.166695	 -0.669232	 -0.344753	 -0.008396	 0.848543	 -0.361738	 0.386070	 2
1463571863.422	 10	 0.041206	 0.687928	 0.758793	 2.170299	 -0.662919	 -0.350090	 -0.003948	 0.849911	 -0.360264	 0.384508	 2
1463571863.432	 10	 0.220635	 0.724573	 0.751177	 2.172972	 -0.657692	 -0.357330	 0.000878	 0.850964	 -0.359572	 0.382842	 2
1463571863.442	 10	 0.409946	 0.836563	 0.723927	 2.175533	 -0.653707	 -0.366329	 0.006135	 0.851838	 -0.359696	 0.380727	 2
1463571863.452	 10	 0.614271	 1.000311	 0.653332	 2.178635	 -0.651368	 -0.376980	 0.011799	 0.852610	 -0.360769	 0.377839	 2
1463571863.462	 10	 0.819498	 1.182739	 0.518956	 2.182784	 -0.651200	 -0.388898	 0.017673	 0.853318	 -0.362912	 0.373939	 2
1463571863.472	 10	 1.046952	 1.364767	 0.338556	 2.188129	 -0.653745	 -0.401880	 0.023573	 0.853931	 -0.366280	 0.368897	 2
1463571863.482	 10	 1.246981	 1.449564	 0.086083	 2.194275	 -0.659470	 -0.415315	 0.029063	 0.854326	 -0.370931	 0.362894	 2
1463571863.492	 10	 1.430492	 1.442795	 -0.186281	 2.200558	 -0.668559	 -0.428661	 0.033752	 0.854366	 -0.376832	 0.356255	 2
1463571863.502	 10	 1.600906	 1.350123	 -0.429490	 2.206055	 -0.680774	 -0.441942	 0.037536	 0.853901	 -0.383899	 0.349379	 2
1463571863.512	 10	 1.753824	 1.171322	 -0.676544	 2.209911	 -0.695896	 -0.455098	 0.040268	 0.852803	 -0.392042	 0.342649	 2
1463571863.522	 10	 1.927436	 0.848925	 -0.916589	 2.210885	 -0.714015	 -0.468164	 0.041670	 0.850854	 -0.401315	 0.336538	 2
1463571863.532	 10	 2.078755	 0.278118	 -1.100135	 2.206277	 -0.734728	 -0.481720	 0.041485	 0.847641	 -0.411695	 0.332100	 2
1463571863.542	 10	 1.879250	 -0.289055	 -1.217712	 2.196424	 -0.755951	 -0.493755	 0.039344	 0.843505	 -0.422014	 0.329932	 2
1463571863.552	 10	 1.166496	 -0.271998	 -1.207085	 2.189394	 -0.773805	 -0.499255	 0.035767	 0.840302	 -0.429819	 0.328434	 2
1463571863.562	 10	 0.229197	 0.794165	 -0.940680	 2.195938	 -0.784982	 -0.496350	 0.033205	 0.840171	 -0.433450	 0.324239	 2
1463571863.572	 10	 -0.418413	 1.539970	 -0.439982	 2.216425	 -0.787672	 -0.488094	 0.033511	 0.843283	 -0.432804	 0.316909	 2
1463571863.582	 10	 -0.416892	 0.976806	 0.075922	 2.231876	 -0.785413	 -0.482629	 0.035081	 0.846072	 -0.430818	 0.311974	 2
1463571863.592	 10	 -0.166837	 0.272627	 0.460458	 2.235704	 -0.780958	 -0.483399	 0.037289	 0.847180	 -0.429161	 0.310993	 2
1463571863.602	 10	 -0.037058	 -0.290209	 0.487129	 2.231520	 -0.776673	 -0.487120	 0.038988	 0.846957	 -0.428178	 0.312742	 2
1463571863.612	 10	 -0.108036	 -0.730373	 0.335511	 2.223635	 -0.773175	 -0.489415	 0.039109	 0.846075	 -0.427353	 0.316223	 2
1463571863.622	 10	 -0.188200	 -1.100151	 0.205942	 2.213491	 -0.770317	 -0.489402	 0.037627	 0.844784	 -0.426454	 0.321033	 2
1463571863.632	 10	 -0.156310	 -1.163742	 0.249835	 2.201744	 -0.767427	 -0.489401	 0.035827	 0.843205	 -0.425568	 0.326517	 2
1463571863.642	 10	 -0.021470	 -0.902109	 0.302252	 2.190776	 -0.764689	 -0.491093	 0.034879	 0.841673	 -0.425000	 0.331277	 2
1463571863.652	 10	 0.174338	 -0.566588	 0.301538	 2.181655	 -0.762937	 -0.494925	 0.034985	 0.840278	 -0.425133	 0.334620	 2
1463571863.662	 10	 0.307405	 -0.411681	 0.302886	 2.173441	 -0.762059	 -0.500535	 0.035811	 0.838893	 -0.425890	 0.337036	 2
1463571863.672	 10	 0.260514	 -0.452563	 0.365796	 2.165028	 -0.760807	 -0.506390	 0.036786	 0.837496	 -0.426562	 0.339548	 2
1463571863.682	 10	 0.249697	 -0.375988	 0.507283	 2.156420	 -0.758249	 -0.512826	 0.038289	 0.836171	 -0.426863	 0.342257	 2
1463571863.692	 10	 0.134382	 -0.154490	 0.497559	 2.150147	 -0.754951	 -0.518847	 0.040306	 0.835309	 -0.426789	 0.344217	 2
1463571863.702	 10	 -0.117655	 0.224305	 0.269877	 2.150189	 -0.751787	 -0.520645	 0.041874	 0.835595	 -0.425918	 0.344416	 2
1463571863.712	 10	 -0.046420	 0.176334	 -0.009354	 2.153301	 -0.750785	 -0.520002	 0.042523	 0.836243	 -0.425367	 0.343442	 2
1463571863.722	 10	 0.302284	 -0.613235	 -0.212640	 2.148158	 -0.753398	 -0.521304	 0.041304	 0.835071	 -0.426674	 0.344818	 2
1463571863.732	 10	 -0.038405	 -0.274393	 -0.412213	 2.144300	 -0.757017	 -0.519905	 0.038970	 0.834073	 -0.427856	 0.346038	 2
1463571863.752	 11	 -1.262045	 2.416111	 -0.818814	 2.199052	 -0.758039	 -0.488089	 0.036997	 0.843821	 -0.421825	 0.329638	 2
1463571863.762	 11	 -1.356755	 2.053417	 -0.857601	 2.236046	 -0.756698	 -0.466300	 0.035849	 0.850365	 -0.417103	 0.318778	 2
1463571863.782	 12	 -1.107283	 0.120726	 -0.772246	 2.282777	 -0.752885	 -0.425598	 0.028979	 0.858799	 -0.408471	 0.307856	 2
1463571863.792	 12	 -0.442432	 -1.133977	 -0.894155	 2.284436	 -0.755271	 -0.411194	 0.022597	 0.858946	 -0.407175	 0.309693	 2
1463571863.802	 12	 0.464032	 -2.075586	 -1.010991	 2.269779	 -0.764223	 -0.404974	 0.014927	 0.855589	 -0.409895	 0.315800	 2
1463571863.812	 12	 1.178157	 -2.071888	 -1.238853	 2.248192	 -0.779753	 -0.405494	 0.007148	 0.850171	 -0.416218	 0.322367	 2
1463571863.822	 12	 1.759840	 -1.866773	 -1.465819	 2.225085	 -0.800854	 -0.411206	 -0.000204	 0.843694	 -0.425402	 0.327435	 2
1463571863.832	 12	 2.242151	 -1.979877	 -1.613883	 2.197709	 -0.826283	 -0.422304	 -0.007500	 0.835885	 -0.436923	 0.332171	 2
1463571863.842	 12	 2.460418	 -2.256481	 -1.681238	 2.164358	 -0.853867	 -0.437756	 -0.015218	 0.826755	 -0.449679	 0.337687	 2
1463571863.852	 12	 2.279507	 -2.592124	 -1.691312	 2.126912	 -0.880822	 -0.454009	 -0.023871	 0.816968	 -0.461966	 0.344357	 2
1463571863.862	 12	 1.836163	 -2.939491	 -1.664040	 2.088155	 -0.905219	 -0.467131	 -0.033937	 0.807190	 -0.472409	 0.352310	 2
1463571863.872	 12	 1.355037	 -3.211776	 -1.565400	 2.049726	 -0.926259	 -0.475838	 -0.045221	 0.797744	 -0.480535	 0.361450	 2
1463571863.882	 12	 0.963797	 -3.238357	 -1.429021	 2.013263	 -0.944049	 -0.480752	 -0.056960	 0.788872	 -0.486560	 0.371074	 2
1463571863.892	 12	 0.742802	 -2.920815	 -1.290922	 1.980684	 -0.959371	 -0.483647	 -0.068074	 0.780861	 -0.491190	 0.379939	 2
1463571863.902	 12	 0.724756	 -2.337968	 -1.153186	 1.952748	 -0.973090	 -0.487241	 -0.077472	 0.773870	 -0.495346	 0.386981	 2
1463571863.912	 12	 0.870566	 -1.628008	 -1.021024	 1.928864	 -0.985895	 -0.494255	 -0.084412	 0.767869	 -0.499854	 0.391659	 2
1463571863.922	 12	 1.105494	 -0.994131	 -0.930844	 1.907375	 -0.998383	 -0.506238	 -0.088884	 0.762590	 -0.505210	 0.394104	 2
1463571863.932	 12	 1.315804	 -0.585804	 -0.859601	 1.886161	 -1.010754	 -0.523431	 -0.091414	 0.757645	 -0.511464	 0.394996	 2
1463571863.942	 12	 1.401625	 -0.564153	 -0.772754	 1.863381	 -1.022539	 -0.543996	 -0.093061	 0.752665	 -0.518032	 0.395573	 2
1463571863.952	 12	 1.418118	 -0.455761	 -0.779350	 1.839188	 -1.033829	 -0.566324	 -0.094443	 0.747599	 -0.524638	 0.396145	 2
1463571863.962	 12	 1.298789	 -0.396008	 -0.801202	 1.816844	 -1.045003	 -0.587784	 -0.095807	 0.742930	 -0.531025	 0.396091	 2
1463571863.972	 12	 1.106779	 -0.657698	 -0.738019	 1.794378	 -1.055012	 -0.606878	 -0.097875	 0.738309	 -0.536515	 0.396829	 2
1463571863.982	 12	 0.924478	 -0.869664	 -0.707497	 1.772040	 -1.064039	 -0.623062	 -0.100806	 0.733720	 -0.541078	 0.398406	 2
1463571863.992	 12	 0.836651	 -0.969109	 -0.669290	 1.749680	 -1.072313	 -0.637757	 -0.104163	 0.729167	 -0.545061	 0.400468	 2
1463571864.002	 12	 0.884617	 -1.025241	 -0.616942	 1.725680	 -1.079987	 -0.653504	 -0.107498	 0.724431	 -0.548937	 0.402880	 2
1463571864.012	 12	 0.993480	 -1.105680	 -0.518457	 1.698381	 -1.086760	 -0.672223	 -0.110489	 0.719304	 -0.552934	 0.405781	 2
1463571864.022	 12	 1.166369	 -1.161006	 -0.451202	 1.666506	 -1.092594	 -0.695121	 -0.113078	 0.713584	 -0.557233	 0.409272	 2
1463571864.032	 12	 1.379659	 -1.199853	 -0.441698	 1.629622	 -1.098020	 -0.723271	 -0.115237	 0.707182	 -0.562176	 0.413005	 2
1463571864.042	 12	 1.529720	 -1.238997	 -0.498788	 1.588253	 -1.103380	 -0.755977	 -0.117258	 0.700131	 -0.567740	 0.416820	 2
1463571864.052	 12	 1.433730	 -1.602075	 -0.590855	 1.543645	 -1.108993	 -0.788969	 -0.120455	 0.692418	 -0.573170	 0.421336	 2
1463571864.062	 12	 1.138388	 -1.642740	 -0.744263	 1.501807	 -1.115462	 -0.817279	 -0.125037	 0.684988	 -0.577859	 0.425719	 2
1463571864.072	 12	 0.748887	 -1.521358	 -0.883620	 1.467229	 -1.123176	 -0.838332	 -0.130645	 0.678645	 -0.581565	 0.429134	 2
1463571864.082	 12	 0.426476	 -1.209739	 -1.016462	 1.441461	 -1.132406	 -0.852533	 -0.136685	 0.673753	 -0.584505	 0.430962	 2
1463571864.092	 12	 0.282956	 -0.836259	 -1.053302	 1.422424	 -1.142368	 -0.863236	 -0.142278	 0.670112	 -0.587148	 0.431236	 2
1463571864.102	 12	 0.324266	 -0.480866	 -1.016250	 1.406612	 -1.152064	 -0.874419	 -0.146719	 0.667266	 -0.589972	 0.430304	 2
1463571864.112	 12	 0.479979	 -0.351961	 -0.924751	 1.389470	 -1.160680	 -0.889184	 -0.150018	 0.664487	 -0.593203	 0.429024	 2
1463571864.122	 12	 0.624253	 -0.432150	 -0.777547	 1.368207	 -1.167486	 -0.907704	 -0.152697	 0.661211	 -0.596566	 0.428477	 2
1463571864.132	 12	 0.717949	 -0.537209	 -0.706868	 1.343424	 -1.173068	 -0.929226	 -0.155069	 0.657494	 -0.600046	 0.428485	 2
1463571864.142	 12	 0.669059	 -0.802264	 -0.609793	 1.316441	 -1.177596	 -0.950537	 -0.157874	 0.653354	 -0.603096	 0.429510	 2
1463571864.152	 12	 0.539105	 -1.074390	 -0.493960	 1.289562	 -1.181119	 -0.968693	 -0.161389	 0.649027	 -0.605288	 0.431676	 2
1463571864.162	 12	 0.349927	 -1.263116	 -0.341665	 1.265227	 -1.183629	 -0.981769	 -0.165466	 0.644847	 -0.606417	 0.434800	 2
1463571864.172	 12	 0.108237	 -1.313066	 -0.140728	 1.246675	 -1.184947	 -0.987658	 -0.169689	 0.641309	 -0.606291	 0.438565	 2
1463571864.182	 12	 -0.134853	 -1.242522	 0.101841	 1.236129	 -1.184812	 -0.985367	 -0.173565	 0.638787	 -0.604867	 0.442676	 2
1463571864.192	 12	 -0.305803	 -1.048707	 0.358785	 1.233721	 -1.182927	 -0.976054	 -0.176557	 0.637404	 -0.602388	 0.446847	 2
1463571864.202	 12	 -0.370770	 -0.792381	 0.624979	 1.237960	 -1.178834	 -0.962241	 -0.178151	 0.637069	 -0.599224	 0.450927	 2
1463571864.212	 12	 -0.374032	 -0.593525	 0.911416	 1.246546	 -1.172167	 -0.946029	 -0.178254	 0.637489	 -0.595573	 0.455110	 2
1463571864.222	 12	 -0.332120	 -0.320346	 1.198152	 1.258540	 -1.162440	 -0.928594	 -0.176613	 0.638601	 -0.591510	 0.459470	 2
1463571864.232	 12	 -0.345927	 -0.010507	 1.384466	 1.274034	 -1.150665	 -0.910749	 -0.173347	 0.640557	 -0.587285	 0.463393	 2
1463571864.242	 12	 -0.488616	 0.352880	 1.569204	 1.295448	 -1.137300	 -0.889974	 -0.168761	 0.643753	 -0.582515	 0.466666	 2
1463571864.252	 12	 -0.727905	 0.842963	 1.732515	 1.325408	 -1.122655	 -0.864807	 -0.162754	 0.648753	 -0.577022	 0.468696	 2
1463571864.262	 12	 -1.020611	 1.338371	 1.875025	 1.364867	 -1.106824	 -0.834346	 -0.155505	 0.655794	 -0.570554	 0.469276	 2
1463571864.272	 12	 -1.077157	 1.918018	 1.996014	 1.410344	 -1.089491	 -0.803141	 -0.146542	 0.664488	 -0.563722	 0.468186	 2
1463571864.282	 12	 -0.954361	 2.476157	 2.156805	 1.457457	 -1.069902	 -0.776273	 -0.135214	 0.674212	 -0.557131	 0.465575	 2
1463571864.292	 12	 -0.922202	 2.968259	 2.414756	 1.505888	 -1.047364	 -0.753384	 -0.121487	 0.684857	 -0.550408	 0.461803	 2
1463571864.302	 12	 -1.053115	 3.280008	 2.670316	 1.556962	 -1.021686	 -0.731411	 -0.106024	 0.696526	 -0.542716	 0.457241	 2
1463571864.312	 12	 -0.987421	 3.390395	 2.958528	 1.606340	 -0.992815	 -0.712870	 -0.089173	 0.708347	 -0.534229	 0.452650	 2
1463571864.322	 12	 -0.670822	 3.429615	 3.361126	 1.649089	 -0.959939	 -0.702529	 -0.070243	 0.719372	 -0.525536	 0.448755	 2
1463571864.332	 12	 -0.231922	 3.709898	 3.907714	 1.685033	 -0.922143	 -0.702887	 -0.047930	 0.729475	 -0.516952	 0.445342	 2
1463571864.342	 12	 0.181763	 3.830867	 4.475420	 1.715114	 -0.879319	 -0.713261	 -0.022052	 0.738490	 -0.508329	 0.442433	 2
1463571864.352	 12	 0.310460	 3.872599	 4.855165	 1.742030	 -0.832757	 -0.729148	 0.006085	 0.746517	 -0.499080	 0.439993	 2
1463571864.362	 12	 0.296291	 3.744338	 5.202600	 1.766829	 -0.782914	 -0.747016	 0.035290	 0.753519	 -0.488571	 0.438477	 2
1463571864.372	 12	 0.292996	 3.418339	 5.567283	 1.788697	 -0.729968	 -0.766379	 0.065103	 0.759151	 -0.476794	 0.438314	 2
1463571864.382	 12	 0.404982	 2.931940	 5.860195	 1.805244	 -0.674303	 -0.788136	 0.095174	 0.762676	 -0.464245	 0.440164	 2
1463571864.392	 12	 0.639487	 2.332149	 5.966608	 1.815196	 -0.617853	 -0.812853	 0.124853	 0.763565	 -0.451931	 0.444004	 2
1463571864.402	 12	 1.236772	 1.383552	 5.934463	 1.814672	 -0.562675	 -0.842694	 0.153531	 0.760623	 -0.441585	 0.450426	 2
1463571864.412	 12	 1.728054	 1.119703	 5.536596	 1.808696	 -0.511553	 -0.876714	 0.181161	 0.754936	 -0.433918	 0.457130	 2
1463571864.422	 12	 1.847672	 1.522515	 4.811387	 1.806763	 -0.467202	 -0.910337	 0.207215	 0.749284	 -0.428012	 0.460913	 2
1463571864.432	 12	 1.638054	 2.162385	 3.935649	 1.814084	 -0.430800	 -0.939609	 0.230941	 0.745727	 -0.422579	 0.460418	 2
1463571864.442	 12	 1.357236	 2.255185	 2.979772	 1.827448	 -0.403168	 -0.963535	 0.251066	 0.744118	 -0.417769	 0.456862	 2
1463571864.452	 12	 0.890525	 1.441807	 2.244088	 1.837354	 -0.382646	 -0.980908	 0.265742	 0.742672	 -0.413958	 0.454376	 2
1463571864.462	 12	 0.373116	 0.566090	 1.984661	 1.841374	 -0.364397	 -0.991839	 0.276049	 0.740720	 -0.410103	 0.454914	 2
1463571864.472	 12	 -0.031442	 -0.412733	 1.779778	 1.837648	 -0.346867	 -0.997690	 0.282634	 0.737640	 -0.406378	 0.459197	 2
1463571864.482	 12	 -0.408277	 -1.164080	 1.567178	 1.827169	 -0.330443	 -0.998957	 0.285832	 0.733640	 -0.402926	 0.466608	 2
1463571864.492	 12	 -0.786691	 -1.552892	 1.332387	 1.813595	 -0.315222	 -0.995512	 0.286360	 0.729579	 -0.399206	 0.475760	 2
1463571864.502	 12	 -1.030974	 -1.814225	 1.130653	 1.798129	 -0.301509	 -0.988350	 0.284765	 0.725613	 -0.395324	 0.485914	 2
1463571864.512	 12	 -0.996579	 -1.856941	 0.974355	 1.781942	 -0.289406	 -0.980228	 0.282270	 0.721634	 -0.391772	 0.496067	 2
1463571864.522	 12	 -0.828464	 -1.843574	 0.832335	 1.765535	 -0.279136	 -0.973152	 0.279622	 0.717511	 -0.389041	 0.505605	 2
1463571864.532	 12	 -0.622304	 -1.904810	 0.685026	 1.748050	 -0.270795	 -0.967622	 0.276789	 0.712979	 -0.387420	 0.514738	 2
1463571864.542	 12	 -0.391624	 -1.752273	 0.545888	 1.730953	 -0.264321	 -0.964069	 0.274202	 0.708365	 -0.386812	 0.522886	 2
1463571864.552	 12	 -0.267276	 -1.528073	 0.419000	 1.715725	 -0.259429	 -0.961858	 0.271988	 0.704142	 -0.386774	 0.529728	 2
1463571864.562	 12	 -0.293146	 -1.374508	 0.171266	 1.702251	 -0.256611	 -0.959324	 0.269368	 0.700594	 -0.387043	 0.535542	 2
1463571864.572	 12	 -0.326212	 -1.251889	 -0.239755	 1.690333	 -0.257487	 -0.955867	 0.265577	 0.697947	 -0.387980	 0.540196	 2
1463571864.582	 12	 -0.343888	 -1.248540	 -0.664809	 1.679018	 -0.262707	 -0.951743	 0.260292	 0.695989	 -0.389962	 0.543854	 2
1463571864.592	 12	 -0.438616	 -1.380331	 -0.982808	 1.666970	 -0.271349	 -0.946566	 0.253388	 0.694299	 -0.392748	 0.547259	 2
1463571864.602	 12	 -0.660669	 -1.659983	 -1.208353	 1.653216	 -0.282305	 -0.939349	 0.244658	 0.692586	 -0.395814	 0.551178	 2
1463571864.612	 12	 -1.016843	 -2.434774	 -1.565228	 1.634140	 -0.296241	 -0.928507	 0.232596	 0.690052	 -0.399288	 0.557043	 2
1463571864.622	 12	 -1.263477	 -2.957834	 -1.778969	 1.609596	 -0.313070	 -0.915012	 0.217484	 0.686406	 -0.403274	 0.564728	 2
1463571864.632	 12	 -1.545232	 -3.040356	 -1.685628	 1.584236	 -0.329947	 -0.898979	 0.201215	 0.682547	 -0.406318	 0.573191	 2
1463571864.642	 12	 -1.651071	 -3.065870	 -1.433424	 1.559594	 -0.344877	 -0.881586	 0.185204	 0.678549	 -0.407993	 0.582077	 2
1463571864.652	 12	 -1.703664	 -3.442545	 -1.329895	 1.532270	 -0.358768	 -0.864019	 0.168888	 0.673383	 -0.409215	 0.592094	 2
1463571864.662	 12	 -1.721861	 -3.499536	 -1.275913	 1.503471	 -0.372566	 -0.846244	 0.152193	 0.667464	 -0.410088	 0.602625	 2
1463571864.672	 12	 -1.577645	 -3.411283	 -1.074919	 1.475208	 -0.385266	 -0.829937	 0.136458	 0.661178	 -0.410676	 0.612837	 2
1463571864.682	 12	 -1.530088	 -3.371495	 -0.703010	 1.447262	 -0.394822	 -0.814381	 0.122159	 0.654375	 -0.410267	 0.623339	 2
1463571864.692	 12	 -1.590669	 -3.272972	 -0.488413	 1.420580	 -0.402247	 -0.798329	 0.108758	 0.647548	 -0.408744	 0.633863	 2
1463571864.702	 12	 -1.653565	 -3.310627	 -0.426402	 1.394326	 -0.409222	 -0.781438	 0.095388	 0.640602	 -0.406520	 0.644416	 2
1463571864.712	 12	 -1.612574	 -3.492207	 -0.368766	 1.366644	 -0.416097	 -0.764807	 0.081911	 0.632907	 -0.404122	 0.655290	 2
1463571864.722	 12	 -1.569744	 -3.794540	 -0.241929	 1.336086	 -0.422232	 -0.748617	 0.068346	 0.623907	 -0.401478	 0.666996	 2
1463571864.732	 12	 -1.608357	 -3.986700	 -0.062201	 1.303431	 -0.427241	 -0.731966	 0.054744	 0.613825	 -0.398126	 0.679498	 2
1463571864.742	 12	 -1.708893	 -3.943747	 0.100004	 1.271223	 -0.431370	 -0.714010	 0.041300	 0.603536	 -0.393749	 0.692099	 2
1463571864.752	 12	 -1.787271	 -3.700080	 0.228713	 1.241585	 -0.434962	 -0.694784	 0.028339	 0.593801	 -0.388414	 0.704082	 2
1463571864.762	 12	 -1.796735	 -3.331066	 0.363318	 1.215724	 -0.437921	 -0.674870	 0.016313	 0.585071	 -0.382334	 0.715015	 2
1463571864.772	 12	 -1.730784	 -2.848148	 0.542023	 1.194454	 -0.439571	 -0.654864	 0.005806	 0.577646	 -0.375634	 0.724700	 2
1463571864.782	 12	 -1.637538	 -2.276669	 0.770339	 1.178740	 -0.439227	 -0.634906	 -0.002714	 0.571911	 -0.368293	 0.732988	 2
1463571864.792	 12	 -1.556905	 -1.720620	 1.065764	 1.168771	 -0.436213	 -0.614638	 -0.009084	 0.567975	 -0.360109	 0.740029	 2
1463571864.802	 12	 -1.520319	 -1.227190	 1.362056	 1.164148	 -0.430349	 -0.593594	 -0.013485	 0.565760	 -0.350915	 0.746051	 2
1463571864.812	 12	 -1.565419	 -0.813661	 1.607159	 1.164294	 -0.422256	 -0.571236	 -0.016481	 0.565149	 -0.340669	 0.751185	 2
1463571864.822	 12	 -1.608657	 -0.664087	 1.828474	 1.167242	 -0.412303	 -0.547480	 -0.018639	 0.565475	 -0.329407	 0.755898	 2
1463571864.832	 12	 -1.598781	 -0.794380	 2.052052	 1.169357	 -0.400203	 -0.522941	 -0.020289	 0.565380	 -0.317238	 0.761113	 2
1463571864.842	 12	 -1.536731	 -0.925040	 2.246396	 1.169963	 -0.386031	 -0.498080	 -0.021419	 0.564628	 -0.304326	 0.766891	 2
1463571864.852	 12	 -1.286297	 -1.106728	 2.373613	 1.168025	 -0.369759	 -0.474726	 -0.021619	 0.562844	 -0.291341	 0.773214	 2
1463571864.862	 12	 -0.843481	 -1.404272	 2.442658	 1.161748	 -0.351249	 -0.455009	 -0.020436	 0.559336	 -0.279063	 0.780289	 2
1463571864.872	 12	 -0.302676	 -1.736194	 2.504135	 1.150159	 -0.330273	 -0.440100	 -0.017512	 0.553676	 -0.267931	 0.788257	 2
1463571864.882	 12	 0.263293	 -1.967942	 2.602562	 1.134144	 -0.306316	 -0.430000	 -0.012457	 0.546108	 -0.257910	 0.796927	 2
1463571864.892	 12	 0.758408	 -2.045406	 2.680659	 1.115555	 -0.279506	 -0.424045	 -0.005240	 0.537275	 -0.248881	 0.805832	 2
1463571864.902	 12	 1.165142	 -2.029466	 2.696450	 1.095781	 -0.250635	 -0.421335	 0.003735	 0.527688	 -0.240770	 0.814592	 2
1463571864.912	 12	 1.604376	 -1.814494	 2.597642	 1.076854	 -0.220423	 -0.422361	 0.014506	 0.518146	 -0.234013	 0.822528	 2
1463571864.922	 12	 1.993453	 -1.557197	 2.448507	 1.059642	 -0.189455	 -0.427123	 0.026867	 0.508982	 -0.228780	 0.829382	 2
1463571864.932	 12	 2.295211	 -1.246577	 2.283577	 1.045023	 -0.158250	 -0.435036	 0.040481	 0.500555	 -0.224943	 0.834989	 2
1463571864.942	 12	 2.544746	 -0.942005	 2.143558	 1.033390	 -0.126877	 -0.445521	 0.055160	 0.493011	 -0.222241	 0.839349	 2
1463571864.952	 12	 2.714856	 -0.737151	 2.007566	 1.024220	 -0.095586	 -0.458008	 0.070552	 0.486134	 -0.220459	 0.842671	 2
1463571864.962	 12	 2.811601	 -0.723338	 1.898144	 1.015997	 -0.064595	 -0.471780	 0.086191	 0.479306	 -0.219362	 0.845410	 2
1463571864.972	 12	 2.846789	 -0.904695	 1.837533	 1.006770	 -0.033842	 -0.486079	 0.101688	 0.471716	 -0.218694	 0.848125	 2
1463571864.982	 12	 2.822112	 -1.163042	 1.842804	 0.995552	 -0.003115	 -0.500004	 0.116804	 0.462967	 -0.218103	 0.851146	 2
1463571864.992	 12	 2.794292	 -1.445526	 1.891575	 0.981976	 0.027950	 -0.513076	 0.131543	 0.452896	 -0.217364	 0.854596	 2
1463571865.002	 12	 2.662205	 -1.950515	 2.015917	 0.964361	 0.059509	 -0.524337	 0.145587	 0.440837	 -0.216200	 0.858909	 2
1463571865.012	 12	 2.604639	 -2.180999	 2.036654	 0.943734	 0.091270	 -0.533871	 0.158970	 0.427277	 -0.214705	 0.863750	 2
1463571865.022	 12	 2.568414	 -2.402059	 2.045571	 0.921215	 0.123007	 -0.542480	 0.171912	 0.412680	 -0.213228	 0.868720	 2
1463571865.032	 12	 2.536201	 -2.674211	 2.050779	 0.896234	 0.154834	 -0.549998	 0.184385	 0.396813	 -0.211752	 0.873901	 2
1463571865.042	 12	 2.544377	 -2.903546	 1.963313	 0.868888	 0.186348	 -0.557053	 0.196366	 0.379726	 -0.210665	 0.879130	 2
1463571865.052	 12	 2.596513	 -3.009258	 1.780696	 0.840553	 0.217094	 -0.564678	 0.207995	 0.361996	 -0.210409	 0.883982	 2
1463571865.062	 12	 2.684210	 -3.018491	 1.569891	 0.812359	 0.247051	 -0.573486	 0.219461	 0.344070	 -0.211145	 0.888184	 2
1463571865.072	 12	 2.790426	 -2.954330	 1.367068	 0.785249	 0.276476	 -0.583743	 0.230973	 0.326303	 -0.212820	 0.891563	 2
1463571865.082	 12	 2.953170	 -2.685997	 1.181640	 0.761053	 0.305853	 -0.595775	 0.242943	 0.309397	 -0.215242	 0.893825	 2
1463571865.092	 12	 3.128305	 -2.362733	 1.095730	 0.740943	 0.335978	 -0.609433	 0.255772	 0.293753	 -0.217984	 0.894859	 2
1463571865.102	 12	 3.256665	 -2.067486	 1.087756	 0.723854	 0.365617	 -0.623569	 0.268624	 0.279237	 -0.220839	 0.895041	 2
1463571865.112	 12	 3.316494	 -1.826255	 1.084114	 0.708775	 0.392813	 -0.637519	 0.280460	 0.265843	 -0.223956	 0.894714	 2
1463571865.122	 12	 3.253327	 -1.658995	 1.097867	 0.694105	 0.414733	 -0.650180	 0.289775	 0.253570	 -0.227558	 0.894399	 2
1463571865.132	 12	 3.082205	 -1.548632	 1.140867	 0.682894	 0.444076	 -0.662220	 0.302419	 0.241430	 -0.229071	 0.893186	 2
1463571865.142	 12	 2.846834	 -1.499637	 1.201981	 0.671949	 0.473072	 -0.672095	 0.314551	 0.229628	 -0.229716	 0.891941	 2
1463571865.152	 12	 2.599205	 -1.540124	 1.238922	 0.659998	 0.500541	 -0.679605	 0.325544	 0.217902	 -0.229828	 0.890909	 2
1463571865.162	 12	 2.367234	 -1.629796	 1.246493	 0.646414	 0.526200	 -0.685038	 0.335285	 0.206039	 -0.229707	 0.890150	 2
1463571865.172	 12	 2.137225	 -1.729279	 1.221982	 0.631087	 0.549929	 -0.688670	 0.343781	 0.194013	 -0.229536	 0.889655	 2
1463571865.192	 13	 1.798783	 -2.042458	 1.019510	 0.595142	 0.592780	 -0.693073	 0.357875	 0.168906	 -0.230013	 0.889095	 2
1463571865.202	 13	 1.689454	 -2.216826	 0.837660	 0.574840	 0.611972	 -0.695620	 0.363712	 0.155665	 -0.231396	 0.888785	 2
1463571865.222	 14	 1.514820	 -2.341817	 0.544933	 0.532556	 0.645384	 -0.702815	 0.373151	 0.128998	 -0.236599	 0.887772	 2
1463571865.232	 14	 1.477612	 -2.296107	 0.526498	 0.511655	 0.660874	 -0.706400	 0.377314	 0.116004	 -0.239506	 0.887025	 2
1463571865.242	 14	 1.469445	 -2.245850	 0.560076	 0.490831	 0.676403	 -0.709255	 0.381409	 0.103176	 -0.242160	 0.886138	 2
1463571865.252	 14	 1.478581	 -2.145667	 0.591836	 0.470417	 0.692190	 -0.711361	 0.385580	 0.090630	 -0.244453	 0.885075	 2
1463571865.262	 14	 1.476876	 -2.073177	 0.613840	 0.450676	 0.708170	 -0.712904	 0.389854	 0.078467	 -0.246427	 0.883816	 2
1463571865.282	 15	 1.457681	 -1.981353	 0.508286	 0.410920	 0.739335	 -0.714644	 0.397903	 0.054505	 -0.250223	 0.880960	 2
1463571865.292	 15	 1.493963	 -1.830670	 0.328192	 0.394432	 0.754462	 -0.717896	 0.402179	 0.043665	 -0.252685	 0.878918	 2
1463571865.302	 15	 1.510840	 -1.753045	 0.185955	 0.380297	 0.769251	 -0.722974	 0.406598	 0.033565	 -0.255584	 0.876486	 2
1463571865.312	 15	 1.504974	 -1.779298	 0.083449	 0.367047	 0.783698	 -0.729298	 0.410945	 0.023667	 -0.258944	 0.873792	 2
1463571865.322	 15	 1.443451	 -1.851031	 -0.006207	 0.353810	 0.797439	 -0.736425	 0.414939	 0.013744	 -0.262792	 0.870963	 2
1463571865.332	 15	 1.328561	 -1.946874	 -0.068978	 0.339928	 0.810044	 -0.743847	 0.418305	 0.003699	 -0.267100	 0.868139	 2
1463571865.342	 15	 1.165770	 -2.042358	 -0.101488	 0.324831	 0.821152	 -0.750857	 0.420815	 -0.006489	 -0.271727	 0.865469	 2
1463571865.352	 15	 1.009545	 -2.096440	 -0.142196	 0.308867	 0.830698	 -0.757524	 0.422490	 -0.016663	 -0.276635	 0.862958	 2
1463571865.362	 15	 0.859255	 -2.028185	 -0.177554	 0.293048	 0.838759	 -0.763905	 0.423505	 -0.026410	 -0.281619	 0.860603	 2
1463571865.372	 15	 0.694664	 -1.834295	 -0.200961	 0.278602	 0.845267	 -0.769845	 0.424018	 -0.035152	 -0.286347	 0.858474	 2
1463571865.382	 15	 0.524896	 -1.594760	 -0.238818	 0.266258	 0.850119	 -0.775464	 0.424106	 -0.042587	 -0.290723	 0.856621	 2
1463571865.392	 15	 0.329572	 -1.321304	 -0.302782	 0.256637	 0.853057	 -0.781173	 0.423765	 -0.048491	 -0.294816	 0.855076	 2
1463571865.402	 15	 0.118286	 -1.044555	 -0.359115	 0.249841	 0.853847	 -0.786910	 0.422933	 -0.052764	 -0.298602	 0.853921	 2
1463571865.412	 15	 -0.068826	 -0.840256	 -0.422728	 0.245450	 0.852613	 -0.792804	 0.421612	 -0.055639	 -0.302206	 0.853123	 2
1463571865.422	 15	 -0.187097	 -0.741505	 -0.493251	 0.242657	 0.849889	 -0.799201	 0.419897	 -0.057635	 -0.305877	 0.852528	 2
1463571865.432	 15	 -0.213871	 -0.699419	 -0.567230	 0.241054	 0.846501	 -0.806506	 0.418060	 -0.059172	 -0.309767	 0.851921	 2
1463571865.442	 15	 -0.159523	 -0.659649	 -0.634476	 0.240636	 0.843304	 -0.814897	 0.416444	 -0.060458	 -0.313845	 0.851129	 2
1463571865.452	 15	 -0.019900	 -0.648777	 -0.692076	 0.241391	 0.841097	 -0.824588	 0.415372	 -0.061704	 -0.318098	 0.849984	 2
1463571865.462	 15	 0.204018	 -0.672973	 -0.711303	 0.242807	 0.840797	 -0.835436	 0.415138	 -0.063293	 -0.322450	 0.848340	 2
1463571865.472	 15	 0.463623	 -0.640529	 -0.679157	 0.244856	 0.843006	 -0.846940	 0.415992	 -0.065274	 -0.326603	 0.846180	 2
1463571865.482	 15	 0.671236	 -0.587355	 -0.596275	 0.247366	 0.847542	 -0.858295	 0.417849	 -0.067534	 -0.330264	 0.843663	 2
1463571865.492	 15	 0.789166	 -0.568790	 -0.482026	 0.249435	 0.853720	 -0.868665	 0.420305	 -0.070147	 -0.333352	 0.841011	 2
1463571865.502	 15	 0.788653	 -0.539311	 -0.377303	 0.250734	 0.860439	 -0.877632	 0.422876	 -0.072932	 -0.335912	 0.838463	 2
1463571865.512	 15	 0.687635	 -0.524647	 -0.302749	 0.251189	 0.866581	 -0.885148	 0.425108	 -0.075661	 -0.338103	 0.836209	 2
1463571865.522	 15	 0.540472	 -0.566204	 -0.226186	 0.250267	 0.871553	 -0.891107	 0.426686	 -0.078394	 -0.340087	 0.834347	 2
1463571865.542	 16	 0.227721	 -0.729918	 -0.048069	 0.240256	 0.877745	 -0.896182	 0.427209	 -0.084995	 -0.343467	 0.832045	 2
1463571865.552	 16	 0.148844	 -0.632504	 -0.140263	 0.235359	 0.879081	 -0.898476	 0.426793	 -0.087812	 -0.345279	 0.831216	 2
1463571865.562	 16	 0.142720	 -0.461152	 -0.273967	 0.233590	 0.879876	 -0.902672	 0.426613	 -0.089615	 -0.347288	 0.830278	 2
1463571865.572	 16	 0.219159	 -0.303039	 -0.293411	 0.234232	 0.881104	 -0.907965	 0.426969	 -0.090747	 -0.349175	 0.829180	 2
1463571865.582	 16	 0.221444	 -0.098371	 -0.229712	 0.236278	 0.882741	 -0.912538	 0.427761	 -0.091237	 -0.350402	 0.828199	 2
1463571865.592	 16	 0.202726	 -0.029937	 -0.187348	 0.238854	 0.884284	 -0.916321	 0.428644	 -0.091321	 -0.351198	 0.827396	 2
1463571865.612	 17	 0.088474	 -0.160478	 -0.047953	 0.240288	 0.886663	 -0.920740	 0.429623	 -0.092204	 -0.352378	 0.826288	 2
1463571865.622	 17	 -0.045226	 -0.275578	 0.012889	 0.237810	 0.886565	 -0.920710	 0.429150	 -0.093200	 -0.352911	 0.826195	 2
1463571865.632	 17	 -0.190878	 -0.408957	 0.041691	 0.233205	 0.885138	 -0.919578	 0.427832	 -0.094543	 -0.353633	 0.826417	 2
