% Gyrometer data recorded with 'snsrlog'
% 
% 
% Label description:
% 	 0: Default Label
% 	 1: still_drop
% 	 2: walk_drop
% 	 3: other
% 	 4: dtw_same
% 	 5: dtw_diff
% 	 6: delete
% 
% Column description:
% 	 1: Seconds.milliseconds since 1970
% 	 2: Number of skipped measurements
% 	 3: Gyro X
% 	 4: Gyro Y
% 	 5: Gyro Z
% 	 6: Roll of the device
% 	 7: Pitch of the device
% 	 8: Yaw of the device
% 	 9: Quaternion X
% 	 10: Quaternion Y
% 	 11: Quaternion Z
% 	 12: Quaternion W
% 	 13: Label used for the current sample
% 
% 
1462091853.626	 0	 -1.489537	 1.034935	 -0.315928	 0.286757	 0.499743	 0.021585	 0.243234	 0.141084	 0.045681	 0.958565	 2
1462091853.636	 0	 -1.578694	 1.562981	 -0.283594	 0.300077	 0.483979	 0.023530	 0.235219	 0.147898	 0.047111	 0.959468	 2
1462091853.646	 0	 -1.768106	 1.945023	 -0.331678	 0.317414	 0.466729	 0.026093	 0.226321	 0.156724	 0.049078	 0.960108	 2
1462091853.656	 0	 -2.037952	 2.575272	 -0.505709	 0.340410	 0.446617	 0.028297	 0.215899	 0.168250	 0.051105	 0.960452	 2
1462091853.666	 0	 -2.372102	 3.093434	 -0.615212	 0.369264	 0.423116	 0.030910	 0.203616	 0.182660	 0.053398	 0.960377	 2
1462091853.676	 0	 -2.685054	 3.287714	 -0.644783	 0.400058	 0.396531	 0.035110	 0.189592	 0.198164	 0.055998	 0.960026	 2
1462091853.686	 0	 -2.926698	 3.420272	 -0.649972	 0.431706	 0.367649	 0.041221	 0.174171	 0.214207	 0.058933	 0.959326	 2
1462091853.696	 0	 -3.061970	 3.480189	 -0.655697	 0.463715	 0.337457	 0.048925	 0.157846	 0.230452	 0.062043	 0.958189	 2
1462091853.716	 1	 -2.806159	 3.464999	 -0.447045	 0.526796	 0.280043	 0.068361	 0.125862	 0.262269	 0.068989	 0.954261	 2
1462091853.726	 1	 -2.352023	 3.717647	 -0.331414	 0.560482	 0.257001	 0.078497	 0.112290	 0.278928	 0.072813	 0.950941	 2
1462091853.736	 1	 -1.589934	 3.942199	 -0.298658	 0.597761	 0.240185	 0.086055	 0.101813	 0.296984	 0.076055	 0.946388	 2
1462091853.746	 1	 -0.629248	 4.457227	 -0.317151	 0.639927	 0.231378	 0.088578	 0.095632	 0.316974	 0.078018	 0.940370	 2
1462091853.756	 1	 0.160891	 5.020569	 -0.342235	 0.689569	 0.229054	 0.086016	 0.093015	 0.340093	 0.078789	 0.932458	 2
1462091853.776	 2	 1.252653	 5.588655	 -0.471149	 0.801743	 0.236806	 0.067177	 0.095687	 0.390923	 0.076773	 0.912211	 2
1462091853.786	 2	 1.537091	 5.643865	 -0.662818	 0.861797	 0.242211	 0.051747	 0.099003	 0.417329	 0.073777	 0.900329	 2
1462091853.796	 2	 1.703236	 5.571238	 -0.930315	 0.922339	 0.245991	 0.032813	 0.102609	 0.443377	 0.069168	 0.887752	 2
1462091853.806	 2	 1.759880	 5.429212	 -1.278502	 0.982273	 0.246484	 0.011029	 0.105817	 0.468642	 0.062802	 0.874776	 2
1462091853.816	 2	 1.730450	 5.447332	 -1.724632	 1.042309	 0.242080	 -0.012959	 0.107915	 0.493550	 0.054537	 0.861271	 2
1462091853.826	 2	 1.630509	 5.728969	 -2.234838	 1.104753	 0.231498	 -0.038273	 0.108270	 0.519224	 0.044408	 0.846588	 2
1462091853.836	 2	 1.433101	 5.918505	 -2.724804	 1.169175	 0.214099	 -0.063333	 0.106430	 0.545600	 0.032681	 0.830617	 2
1462091853.846	 2	 1.137632	 5.840875	 -3.135404	 1.232478	 0.190183	 -0.086086	 0.102169	 0.571492	 0.019871	 0.813980	 2
1462091853.856	 2	 0.825522	 5.554406	 -3.457212	 1.292195	 0.160700	 -0.105235	 0.095560	 0.595932	 0.006401	 0.797304	 2
1462091853.866	 2	 0.541147	 5.137080	 -3.625944	 1.346808	 0.127395	 -0.120211	 0.087055	 0.618273	 -0.007234	 0.781094	 2
1462091853.876	 2	 0.379194	 4.722891	 -3.606007	 1.396262	 0.092703	 -0.131447	 0.077589	 0.638379	 -0.020538	 0.765526	 2
1462091853.896	 3	 0.644657	 4.166093	 -3.278850	 1.484202	 0.026408	 -0.149944	 0.060321	 0.673152	 -0.046303	 0.735584	 2
1462091853.906	 3	 0.990875	 4.204922	 -3.211163	 1.526041	 -0.005091	 -0.161052	 0.053758	 0.689014	 -0.059891	 0.720266	 2
1462091853.916	 3	 1.345356	 4.576277	 -3.339751	 1.570359	 -0.037780	 -0.174394	 0.048246	 0.705304	 -0.074885	 0.703286	 2
1462091853.926	 3	 1.650952	 5.279090	 -3.541564	 1.620385	 -0.073054	 -0.189320	 0.043364	 0.723075	 -0.091450	 0.683315	 2
1462091853.936	 3	 1.985008	 6.143396	 -3.755977	 1.678160	 -0.111431	 -0.205400	 0.039148	 0.742774	 -0.109606	 0.659348	 2
1462091853.946	 3	 2.455377	 6.650540	 -3.886442	 1.741524	 -0.152927	 -0.223234	 0.036034	 0.763322	 -0.129610	 0.631857	 2
1462091853.956	 3	 3.018541	 6.442889	 -3.985999	 1.803191	 -0.197332	 -0.243858	 0.034275	 0.782141	 -0.151772	 0.603362	 2
1462091853.966	 3	 3.501666	 5.714894	 -4.004440	 1.857671	 -0.244943	 -0.266789	 0.033225	 0.797591	 -0.176015	 0.575989	 2
1462091853.976	 3	 3.789886	 4.254586	 -3.591036	 1.897504	 -0.291723	 -0.292006	 0.033187	 0.807826	 -0.200737	 0.553192	 2
1462091853.986	 3	 3.763321	 2.475741	 -2.789918	 1.918413	 -0.332687	 -0.319113	 0.034424	 0.812283	 -0.223808	 0.537513	 2
1462091853.996	 3	 3.377842	 1.033533	 -2.206352	 1.922778	 -0.366333	 -0.345588	 0.035923	 0.812189	 -0.243898	 0.528746	 2
1462091854.006	 3	 2.910863	 0.142174	 -2.109333	 1.917862	 -0.396647	 -0.368322	 0.035704	 0.809686	 -0.261676	 0.524080	 2
1462091854.016	 3	 2.598860	 -0.653242	 -2.068195	 1.905347	 -0.425155	 -0.388117	 0.033654	 0.805248	 -0.277953	 0.522671	 2
1462091854.026	 3	 2.364508	 -1.205933	 -2.109665	 1.886828	 -0.452702	 -0.406069	 0.030042	 0.799276	 -0.293304	 0.523668	 2
1462091854.036	 3	 2.157032	 -1.459040	 -2.189080	 1.865402	 -0.480081	 -0.422306	 0.025051	 0.792554	 -0.307985	 0.525714	 2
1462091854.046	 3	 1.994157	 -1.470489	 -2.073732	 1.843305	 -0.506081	 -0.437692	 0.019710	 0.785695	 -0.321732	 0.527999	 2
1462091854.056	 3	 1.964452	 -1.231056	 -1.776029	 1.822185	 -0.529109	 -0.453941	 0.015478	 0.779184	 -0.334432	 0.529894	 2
1462091854.066	 3	 2.127358	 -0.756260	 -1.358448	 1.803374	 -0.548333	 -0.473311	 0.013772	 0.773407	 -0.346443	 0.530688	 2
1462091854.076	 3	 2.426514	 -0.174054	 -0.887765	 1.787341	 -0.563354	 -0.497616	 0.015559	 0.768495	 -0.358178	 0.529982	 2
1462091854.086	 3	 2.757902	 0.282086	 -0.481416	 1.773195	 -0.574548	 -0.527248	 0.020758	 0.764160	 -0.369932	 0.527994	 2
1462091854.096	 3	 3.036474	 0.527755	 -0.225773	 1.759246	 -0.583006	 -0.561440	 0.028435	 0.759860	 -0.381919	 0.525302	 2
1462091854.106	 3	 3.166451	 0.615384	 -0.116316	 1.744888	 -0.590059	 -0.598336	 0.037331	 0.755360	 -0.394116	 0.522216	 2
1462091854.116	 3	 3.009624	 0.602219	 -0.088429	 1.730684	 -0.596046	 -0.634643	 0.046198	 0.750828	 -0.405777	 0.519103	 2
1462091854.126	 3	 2.602628	 0.548896	 -0.125880	 1.718136	 -0.601326	 -0.666915	 0.053958	 0.746737	 -0.416096	 0.516078	 2
1462091854.136	 3	 2.189029	 0.479413	 -0.194332	 1.707656	 -0.606318	 -0.694086	 0.060216	 0.743257	 -0.424922	 0.513210	 2
1462091854.146	 3	 1.944504	 0.503067	 -0.258060	 1.698981	 -0.611355	 -0.717780	 0.065462	 0.740307	 -0.432782	 0.510255	 2
1462091854.156	 3	 1.761966	 0.572049	 -0.352813	 1.692201	 -0.616828	 -0.739374	 0.070129	 0.737886	 -0.440135	 0.506840	 2
1462091854.166	 3	 1.129044	 0.300965	 -0.589621	 1.687182	 -0.623588	 -0.754749	 0.072412	 0.736132	 -0.446190	 0.503767	 2
1462091854.176	 3	 0.238082	 -0.157556	 -0.817401	 1.684097	 -0.631761	 -0.759178	 0.070599	 0.735278	 -0.449800	 0.502057	 2
1462091854.186	 3	 -0.139372	 -0.392954	 -0.723584	 1.681886	 -0.639347	 -0.756986	 0.066738	 0.734866	 -0.451530	 0.501636	 2
1462091854.196	 3	 0.079662	 -0.473428	 -0.292474	 1.677691	 -0.643454	 -0.756393	 0.064185	 0.733865	 -0.452707	 0.502373	 2
1462091854.206	 3	 0.461924	 -0.637773	 0.225958	 1.668951	 -0.642840	 -0.761129	 0.064147	 0.731508	 -0.454003	 0.504642	 2
1462091854.216	 3	 0.592865	 -0.816067	 0.626016	 1.656462	 -0.638038	 -0.769021	 0.065821	 0.728033	 -0.455035	 0.508506	 2
1462091854.226	 3	 0.356504	 -0.863936	 0.822663	 1.644224	 -0.630571	 -0.775119	 0.067804	 0.724589	 -0.454885	 0.513276	 2
1462091854.236	 3	 0.102336	 -0.790934	 0.959842	 1.634541	 -0.621479	 -0.777831	 0.069705	 0.721829	 -0.453353	 0.518243	 2
1462091854.246	 3	 0.171162	 -0.575232	 1.105128	 1.626754	 -0.610889	 -0.780157	 0.072426	 0.719487	 -0.451255	 0.522936	 2
1462091854.256	 3	 0.501289	 -0.195195	 1.283772	 1.620463	 -0.598764	 -0.785986	 0.077284	 0.717309	 -0.449613	 0.526634	 2
1462091854.266	 3	 0.832930	 0.342770	 1.387138	 1.616976	 -0.585430	 -0.795837	 0.084633	 0.715594	 -0.448611	 0.528687	 2
1462091854.276	 3	 1.049619	 0.832231	 1.355701	 1.617211	 -0.572201	 -0.808604	 0.093814	 0.714635	 -0.448263	 0.528731	 2
1462091854.286	 3	 1.076501	 1.179278	 1.262778	 1.620971	 -0.559844	 -0.822096	 0.103729	 0.714485	 -0.448168	 0.527160	 2
1462091854.296	 3	 0.987931	 1.306086	 1.113391	 1.627299	 -0.548875	 -0.834795	 0.113446	 0.714996	 -0.448074	 0.524539	 2
1462091854.316	 4	 0.455264	 -0.322386	 0.593441	 1.626556	 -0.532803	 -0.852855	 0.125219	 0.712968	 -0.448325	 0.524407	 2
1462091854.326	 4	 -0.045620	 -1.064175	 0.035637	 1.617003	 -0.531047	 -0.853819	 0.124020	 0.710305	 -0.448680	 0.527989	 2
1462091854.336	 4	 -0.315718	 -1.435295	 -0.355533	 1.605031	 -0.533826	 -0.850627	 0.119247	 0.707470	 -0.449338	 0.532318	 2
1462091854.346	 4	 -0.312565	 -1.471245	 -0.324988	 1.592149	 -0.537201	 -0.846700	 0.113799	 0.704430	 -0.449973	 0.536984	 2
1462091854.356	 4	 0.013772	 -1.082946	 -0.035395	 1.580768	 -0.538478	 -0.845656	 0.110426	 0.701489	 -0.450681	 0.540931	 2
1462091854.366	 4	 0.379426	 -0.756226	 0.285256	 1.570692	 -0.536326	 -0.849193	 0.110141	 0.698444	 -0.451609	 0.544146	 2
1462091854.376	 4	 0.304548	 -0.561418	 0.278129	 1.562511	 -0.533305	 -0.853293	 0.110778	 0.695817	 -0.452359	 0.546753	 2
1462091854.396	 5	 -0.370076	 -0.169595	 -0.230312	 1.557427	 -0.534084	 -0.850676	 0.108445	 0.694612	 -0.452132	 0.548936	 2
1462091854.406	 5	 -0.474240	 0.075058	 -0.415768	 1.560315	 -0.537887	 -0.845380	 0.105922	 0.695902	 -0.451551	 0.548272	 2
1462091854.416	 5	 -0.484402	 0.225752	 -0.466500	 1.565161	 -0.542572	 -0.839788	 0.103425	 0.697775	 -0.451036	 0.546790	 2
1462091854.426	 5	 -0.531849	 0.258570	 -0.360271	 1.570799	 -0.546510	 -0.833808	 0.101227	 0.699825	 -0.450186	 0.545281	 2
1462091854.436	 5	 -0.697681	 0.205396	 -0.133380	 1.577008	 -0.548496	 -0.826204	 0.099262	 0.701995	 -0.448347	 0.544366	 2
1462091854.446	 5	 -0.969083	 0.180092	 0.080834	 1.584255	 -0.547995	 -0.815705	 0.097364	 0.704460	 -0.444995	 0.544275	 2
1462091854.456	 5	 -1.284467	 -0.002447	 0.155419	 1.592147	 -0.546349	 -0.801639	 0.094720	 0.707212	 -0.440327	 0.544969	 2
1462091854.466	 5	 -1.661769	 -0.350228	 0.152271	 1.598968	 -0.544412	 -0.783434	 0.090435	 0.709838	 -0.434496	 0.546960	 2
1462091854.476	 5	 -2.026479	 -0.273645	 -0.141189	 1.607688	 -0.544298	 -0.760750	 0.084284	 0.713213	 -0.427869	 0.548773	 2
1462091854.486	 5	 -2.324682	 0.057500	 -0.651340	 1.621030	 -0.548421	 -0.734195	 0.076190	 0.718066	 -0.421242	 0.548754	 2
1462091854.496	 5	 -2.770799	 0.825178	 -1.305348	 1.643681	 -0.558161	 -0.702375	 0.066093	 0.725614	 -0.414609	 0.545175	 2
1462091854.516	 6	 -4.394063	 4.020159	 -2.707723	 1.750712	 -0.592244	 -0.607025	 0.041054	 0.756670	 -0.396966	 0.517864	 2
1462091854.526	 6	 -4.146770	 3.386725	 -2.835136	 1.823369	 -0.611094	 -0.547647	 0.026511	 0.775650	 -0.386881	 0.497984	 2
1462091854.546	 7	 -0.659931	 0.569100	 -1.004249	 1.858710	 -0.630951	 -0.500184	 0.008640	 0.783943	 -0.381643	 0.489599	 2
1462091854.566	 8	 0.030618	 3.022674	 -1.481944	 1.909688	 -0.653749	 -0.486884	 0.006296	 0.794926	 -0.386236	 0.467840	 2
1462091854.576	 8	 0.259374	 4.046098	 -1.797339	 1.950857	 -0.670536	 -0.481595	 0.007256	 0.803290	 -0.390847	 0.449345	 2
1462091854.586	 8	 0.540696	 5.147898	 -2.136974	 2.002587	 -0.691239	 -0.476706	 0.009570	 0.813096	 -0.397025	 0.425622	 2
1462091854.596	 8	 0.721369	 5.922665	 -2.440409	 2.064103	 -0.715567	 -0.471092	 0.012921	 0.823729	 -0.404447	 0.397149	 2
1462091854.606	 8	 0.065748	 5.136874	 -2.675414	 2.127724	 -0.739514	 -0.456562	 0.013569	 0.833710	 -0.410188	 0.369445	 2
1462091854.616	 8	 -0.065539	 5.108911	 -2.917525	 2.193578	 -0.762716	 -0.433732	 0.011788	 0.843037	 -0.414550	 0.342487	 2
1462091854.626	 8	 0.430152	 5.409999	 -3.144981	 2.263719	 -0.788976	 -0.410544	 0.010434	 0.851427	 -0.420569	 0.313186	 2
1462091854.636	 8	 0.893585	 4.522128	 -3.364036	 2.328603	 -0.818926	 -0.387317	 0.007686	 0.857127	 -0.428643	 0.285553	 2
1462091854.646	 8	 0.945833	 2.846622	 -3.533552	 2.381122	 -0.850625	 -0.360834	 0.001131	 0.859599	 -0.437581	 0.263837	 2
1462091854.656	 8	 0.281676	 1.205122	 -3.556899	 2.424192	 -0.878086	 -0.325184	 -0.010059	 0.860527	 -0.444208	 0.249142	 2
1462091854.666	 8	 -0.416058	 0.064249	 -3.493231	 2.462467	 -0.898654	 -0.279879	 -0.024796	 0.861185	 -0.447401	 0.239955	 2
1462091854.676	 8	 -0.688551	 -0.340372	 -3.372061	 2.498998	 -0.914393	 -0.229720	 -0.040911	 0.861743	 -0.448560	 0.233494	 2
1462091854.686	 8	 -0.404032	 0.071945	 -3.160746	 2.536663	 -0.929138	 -0.181669	 -0.055494	 0.862019	 -0.450092	 0.226409	 2
1462091854.696	 8	 0.124737	 0.656071	 -2.919052	 2.575635	 -0.945513	 -0.139612	 -0.067201	 0.861693	 -0.453506	 0.217490	 2
1462091854.706	 8	 0.444622	 1.047464	 -2.645360	 2.615227	 -0.962945	 -0.102956	 -0.076279	 0.860861	 -0.458412	 0.207266	 2
1462091854.716	 8	 0.625577	 1.373527	 -2.343357	 2.654954	 -0.979755	 -0.070474	 -0.083119	 0.859860	 -0.463864	 0.196371	 2
1462091854.726	 8	 0.720670	 1.785250	 -1.997178	 2.695102	 -0.995444	 -0.042420	 -0.087503	 0.858916	 -0.469598	 0.184616	 2
1462091854.736	 8	 0.745482	 2.159665	 -1.837243	 2.737692	 -1.009867	 -0.016593	 -0.089914	 0.858196	 -0.475358	 0.171611	 2
1462091854.756	 9	 0.756507	 1.747256	 -1.795349	 2.824357	 -1.036967	 0.038001	 -0.094557	 0.856026	 -0.486648	 0.146466	 2
1462091854.766	 9	 0.667024	 1.307199	 -1.500251	 2.861459	 -1.048334	 0.064486	 -0.097473	 0.854564	 -0.491437	 0.136779	 2
1462091854.776	 9	 0.570571	 0.774049	 -0.698656	 2.883363	 -1.056516	 0.079188	 -0.098749	 0.853257	 -0.495041	 0.130903	 2
1462091854.786	 9	 0.209772	 -0.022268	 0.226420	 2.883635	 -1.059507	 0.077289	 -0.098009	 0.852614	 -0.496461	 0.130270	 2
1462091854.796	 9	 -0.357027	 -1.123164	 0.428934	 2.869127	 -1.056329	 0.070337	 -0.098488	 0.852795	 -0.494846	 0.134788	 2
1462091854.816	 10	 -0.470841	 -1.869276	 0.604162	 2.820848	 -1.041613	 0.057017	 -0.103832	 0.853675	 -0.487047	 0.152459	 2
1462091854.826	 10	 0.200057	 -1.315618	 0.662090	 2.795587	 -1.039608	 0.044798	 -0.104631	 0.852831	 -0.485826	 0.160325	 2
1462091854.836	 10	 0.991718	 -0.702949	 0.692871	 2.771316	 -1.044665	 0.026482	 -0.103110	 0.850557	 -0.488222	 0.166015	 2
1462091854.846	 10	 1.733311	 -0.232156	 0.646033	 2.747012	 -1.056555	 0.002448	 -0.099836	 0.846801	 -0.494061	 0.169897	 2
1462091854.856	 10	 2.431989	 0.267875	 0.507119	 2.723107	 -1.075144	 -0.026426	 -0.095252	 0.841551	 -0.503197	 0.171788	 2
1462091854.866	 10	 2.915293	 0.889099	 0.273158	 2.702188	 -1.099375	 -0.058238	 -0.089578	 0.835153	 -0.515057	 0.170911	 2
1462091854.876	 10	 2.781974	 1.623214	 -0.042842	 2.690787	 -1.124882	 -0.086839	 -0.083278	 0.828953	 -0.527480	 0.166331	 2
1462091854.886	 10	 2.205249	 2.595808	 -0.506231	 2.699348	 -1.148474	 -0.103702	 -0.076520	 0.824238	 -0.538800	 0.156432	 2
1462091854.896	 10	 0.845405	 3.241141	 -0.800655	 2.734544	 -1.162500	 -0.099003	 -0.070341	 0.823015	 -0.545437	 0.142114	 2
1462091854.906	 10	 -0.499437	 3.327830	 -0.683694	 2.785465	 -1.163665	 -0.080181	 -0.064306	 0.825488	 -0.546363	 0.126183	 2
1462091854.916	 10	 -1.399574	 2.865554	 -0.260248	 2.832393	 -1.153319	 -0.061453	 -0.058470	 0.830479	 -0.542435	 0.112472	 2
1462091854.926	 10	 -1.245161	 2.659766	 0.171324	 2.866684	 -1.140273	 -0.053543	 -0.051609	 0.835568	 -0.537552	 0.100996	 2
1462091854.936	 10	 -0.641817	 2.140074	 0.618447	 2.883654	 -1.131276	 -0.060148	 -0.043724	 0.838930	 -0.534528	 0.092549	 2
1462091854.946	 10	 -0.069907	 1.383557	 0.955997	 2.882440	 -1.127004	 -0.078971	 -0.035874	 0.840374	 -0.533571	 0.088242	 2
1462091854.956	 10	 0.441348	 0.507664	 0.941264	 2.868379	 -1.127526	 -0.102692	 -0.029699	 0.840007	 -0.534602	 0.087786	 2
1462091854.966	 10	 0.762605	 -0.570924	 0.619359	 2.846831	 -1.132260	 -0.123336	 -0.027165	 0.838101	 -0.537185	 0.091004	 2
1462091854.976	 10	 0.909133	 -1.336521	 0.266718	 2.822091	 -1.139533	 -0.137356	 -0.028559	 0.835234	 -0.540503	 0.097080	 2
1462091854.986	 10	 1.105349	 -1.050704	 0.158961	 2.799146	 -1.148996	 -0.149610	 -0.030512	 0.831796	 -0.544660	 0.102617	 2
1462091855.006	 11	 -0.488562	 -0.124643	 0.786810	 2.766374	 -1.153716	 -0.177152	 -0.028478	 0.829243	 -0.547551	 0.108318	 2
1462091855.016	 11	 -1.392398	 -0.323312	 1.040086	 2.753586	 -1.138364	 -0.188807	 -0.025527	 0.832654	 -0.541786	 0.111821	 2
1462091855.026	 11	 -1.164523	 -0.823147	 0.700933	 2.740750	 -1.123618	 -0.195001	 -0.024817	 0.835738	 -0.535976	 0.116862	 2
1462091855.036	 11	 -0.697745	 -0.714785	 0.139418	 2.734229	 -1.115032	 -0.193634	 -0.026187	 0.837484	 -0.532309	 0.120756	 2
1462091855.046	 11	 -0.336035	 -0.511208	 -0.388324	 2.737025	 -1.112250	 -0.184435	 -0.028993	 0.838222	 -0.530651	 0.122285	 2
1462091855.056	 11	 -0.123885	 -0.470925	 -0.760682	 2.746238	 -1.113349	 -0.168809	 -0.033216	 0.838267	 -0.530289	 0.122471	 2
1462091855.066	 11	 -0.006788	 -0.412746	 -0.903972	 2.758869	 -1.116384	 -0.149962	 -0.038074	 0.837937	 -0.530609	 0.121921	 2
1462091855.076	 11	 0.117515	 -0.338366	 -0.863863	 2.771513	 -1.120390	 -0.131923	 -0.042663	 0.837323	 -0.531418	 0.121099	 2
1462091855.086	 11	 0.291943	 -0.292663	 -0.797814	 2.782443	 -1.125585	 -0.116451	 -0.046711	 0.836304	 -0.532872	 0.120258	 2
1462091855.096	 11	 0.487132	 -0.312402	 -0.800762	 2.791975	 -1.132443	 -0.102552	 -0.050581	 0.834762	 -0.535100	 0.119508	 2
1462091855.106	 11	 0.684092	 -0.367603	 -0.853082	 2.800822	 -1.141249	 -0.088905	 -0.054644	 0.832628	 -0.538151	 0.118900	 2
1462091855.116	 11	 0.870564	 -0.372880	 -0.918700	 2.809940	 -1.152023	 -0.074765	 -0.058933	 0.829920	 -0.542010	 0.118258	 2
1462091855.126	 11	 1.050446	 -0.272145	 -0.888422	 2.819063	 -1.164446	 -0.061482	 -0.062912	 0.826729	 -0.546613	 0.117367	 2
1462091855.136	 11	 1.221648	 -0.080073	 -0.733590	 2.826510	 -1.178083	 -0.051959	 -0.065802	 0.823164	 -0.551888	 0.116153	 2
1462091855.146	 11	 1.374055	 0.124405	 -0.488954	 2.830053	 -1.192500	 -0.048943	 -0.067090	 0.819316	 -0.557720	 0.114758	 2
1462091855.156	 11	 1.478598	 0.355673	 -0.236193	 2.828751	 -1.207269	 -0.053481	 -0.066654	 0.815300	 -0.563937	 0.113216	 2
1462091855.166	 11	 1.543645	 0.627107	 -0.033870	 2.823651	 -1.222057	 -0.064875	 -0.064543	 0.811251	 -0.570383	 0.111219	 2
1462091855.176	 11	 1.608310	 0.855671	 0.123295	 2.815224	 -1.236878	 -0.082357	 -0.061013	 0.807156	 -0.577026	 0.108709	 2
1462091855.186	 11	 1.687216	 0.970092	 0.239841	 2.802669	 -1.251927	 -0.105624	 -0.056506	 0.802893	 -0.583896	 0.106001	 2
1462091855.196	 11	 1.788545	 0.894831	 0.316059	 2.784518	 -1.267481	 -0.134437	 -0.051660	 0.798282	 -0.591046	 0.103640	 2
1462091855.206	 11	 1.882716	 0.630520	 0.426816	 2.757357	 -1.283400	 -0.170218	 -0.047030	 0.793210	 -0.598421	 0.102458	 2
1462091855.216	 11	 1.959283	 0.234543	 0.561014	 2.717226	 -1.299158	 -0.215489	 -0.042925	 0.787663	 -0.605892	 0.103148	 2
1462091855.226	 11	 2.050690	 -0.157440	 0.665278	 2.662452	 -1.314613	 -0.271555	 -0.039547	 0.781578	 -0.613501	 0.105774	 2
1462091855.236	 11	 2.149851	 -0.439265	 0.709752	 2.593503	 -1.329676	 -0.338805	 -0.036834	 0.774952	 -0.621317	 0.109810	 2
1462091855.246	 11	 2.253435	 -0.864061	 0.694239	 2.509879	 -1.344292	 -0.417476	 -0.035091	 0.767715	 -0.629385	 0.115139	 2
1462091855.256	 11	 2.335357	 -2.821408	 0.538895	 2.400887	 -1.358581	 -0.505986	 -0.038613	 0.759098	 -0.637489	 0.126047	 2
1462091855.266	 11	 2.194692	 -4.604352	 0.290134	 2.267484	 -1.370955	 -0.598960	 -0.049108	 0.749186	 -0.644678	 0.143871	 2
1462091855.276	 11	 2.463059	 -3.866241	 -0.192387	 2.129036	 -1.384671	 -0.695916	 -0.061450	 0.738400	 -0.652084	 0.160550	 2
1462091855.286	 11	 2.731248	 -1.829290	 -0.651098	 1.986752	 -1.402475	 -0.817238	 -0.068810	 0.727400	 -0.661779	 0.167938	 2
1462091855.296	 11	 2.288703	 -0.290971	 -0.783203	 1.854907	 -1.418069	 -0.944280	 -0.071668	 0.718461	 -0.671017	 0.168566	 2
1462091855.306	 11	 1.642726	 0.910344	 -0.682205	 1.754433	 -1.429192	 -1.052055	 -0.070659	 0.712666	 -0.678249	 0.164598	 2
1462091855.316	 11	 1.158677	 1.941951	 -0.450975	 1.686689	 -1.436175	 -1.137621	 -0.065675	 0.709540	 -0.683753	 0.157232	 2
1462091855.326	 11	 0.884313	 2.589345	 -0.169727	 1.642776	 -1.439446	 -1.206743	 -0.057367	 0.708109	 -0.688034	 0.147983	 2
1462091855.336	 11	 0.714885	 2.637578	 0.106098	 1.612256	 -1.439499	 -1.264399	 -0.047507	 0.707429	 -0.691374	 0.138882	 2
1462091855.346	 11	 0.559645	 2.093175	 0.359233	 1.589312	 -1.436694	 -1.310369	 -0.038212	 0.706950	 -0.693777	 0.132045	 2
1462091855.356	 11	 0.405675	 1.185681	 0.557821	 1.570848	 -1.431609	 -1.343377	 -0.031167	 0.706422	 -0.695261	 0.128872	 2
1462091855.366	 11	 0.248871	 0.206272	 0.665175	 1.555775	 -1.425137	 -1.363113	 -0.027153	 0.705813	 -0.695916	 0.129581	 2
1462091855.376	 11	 0.225651	 -0.607631	 0.622633	 1.537927	 -1.418647	 -1.376933	 -0.026192	 0.704857	 -0.696214	 0.133326	 2
1462091855.386	 11	 0.336984	 -1.280462	 0.434223	 1.509134	 -1.413629	 -1.394775	 -0.028159	 0.703125	 -0.696780	 0.138997	 2
1462091855.396	 11	 0.682124	 -2.121294	 0.200650	 1.455403	 -1.410537	 -1.430067	 -0.033421	 0.699783	 -0.698349	 0.146611	 2
1462091855.406	 11	 1.182188	 -3.160318	 -0.020131	 1.362823	 -1.408498	 -1.494452	 -0.042659	 0.693901	 -0.701440	 0.157048	 2
1462091855.416	 11	 1.632593	 -3.887388	 -0.217326	 1.233261	 -1.406010	 -1.587894	 -0.055143	 0.685417	 -0.705947	 0.169707	 2
1462091855.426	 11	 1.830606	 -4.083749	 -0.374347	 1.086563	 -1.401909	 -1.695415	 -0.069111	 0.675351	 -0.711105	 0.182906	 2
1462091855.436	 11	 1.726807	 -3.828944	 -0.479780	 0.946590	 -1.396478	 -1.797741	 -0.082939	 0.665160	 -0.715984	 0.195064	 2
1462091855.446	 11	 1.395363	 -3.266402	 -0.489781	 0.857548	 -1.397585	 -1.854304	 -0.096482	 0.659021	 -0.717493	 0.203928	 2
1462091855.456	 11	 0.981122	 -2.516457	 -0.350239	 0.770668	 -1.393008	 -1.914981	 -0.106400	 0.652103	 -0.720081	 0.211953	 2
1462091855.466	 11	 0.598572	 -1.665078	 -0.143951	 0.718146	 -1.389222	 -1.949274	 -0.113054	 0.647479	 -0.721513	 0.217736	 2
1462091855.476	 11	 0.156809	 -0.933625	 0.074525	 0.698252	 -1.387033	 -1.958259	 -0.116686	 0.645292	 -0.721738	 0.221533	 2
1462091855.486	 11	 -0.362701	 -0.408169	 0.308814	 0.711172	 -1.387155	 -1.939817	 -0.118016	 0.645678	 -0.720421	 0.223979	 2
1462091855.496	 11	 -0.956915	 -0.337699	 0.545914	 0.756988	 -1.389885	 -1.889998	 -0.118489	 0.648510	 -0.717072	 0.226282	 2
1462091855.506	 11	 -1.431504	 -0.864777	 0.712466	 0.828743	 -1.394366	 -1.809950	 -0.120301	 0.652855	 -0.711559	 0.230199	 2
1462091855.516	 11	 -1.640683	 -1.553315	 0.721735	 0.911295	 -1.399107	 -1.711967	 -0.124713	 0.657348	 -0.704603	 0.236379	 2
1462091855.526	 11	 -1.745798	 -1.730957	 0.530226	 0.996067	 -1.404232	 -1.608446	 -0.130876	 0.661670	 -0.697131	 0.243047	 2
1462091855.536	 11	 -1.988734	 -1.377357	 0.205245	 1.090691	 -1.411394	 -1.497468	 -0.137431	 0.666676	 -0.689419	 0.247705	 2
1462091855.546	 11	 -2.398676	 -0.730367	 -0.063329	 1.215690	 -1.420745	 -1.361789	 -0.143397	 0.673387	 -0.681123	 0.249117	 2
1462091855.556	 11	 -2.887436	 0.058264	 -0.192416	 1.393232	 -1.429682	 -1.180920	 -0.147878	 0.682430	 -0.671866	 0.247017	 2
1462091855.566	 11	 -3.338586	 0.801910	 -0.202883	 1.629644	 -1.433711	 -0.948535	 -0.150463	 0.693815	 -0.661464	 0.241759	 2
1462091855.576	 11	 -3.601681	 1.295685	 -0.126723	 1.892212	 -1.428433	 -0.695439	 -0.151311	 0.706765	 -0.650106	 0.234416	 2
1462091855.586	 11	 -3.579299	 1.633718	 0.001988	 2.125130	 -1.413376	 -0.475562	 -0.150594	 0.720126	 -0.638462	 0.226065	 2
1462091855.596	 11	 -3.306746	 2.003477	 0.206616	 2.298896	 -1.391875	 -0.318690	 -0.147762	 0.733063	 -0.627426	 0.217077	 2
1462091855.606	 11	 -2.956281	 2.320298	 0.476151	 2.417666	 -1.367424	 -0.220636	 -0.142505	 0.745220	 -0.617377	 0.207812	 2
1462091855.616	 11	 -2.628844	 2.501091	 0.752080	 2.496121	 -1.342129	 -0.165566	 -0.135128	 0.756491	 -0.608235	 0.198776	 2
1462091855.626	 11	 -2.424105	 2.531669	 0.944551	 2.549653	 -1.316808	 -0.136520	 -0.126439	 0.766988	 -0.599624	 0.190245	 2
1462091855.636	 11	 -2.347187	 2.474649	 1.032874	 2.589990	 -1.291466	 -0.120555	 -0.117285	 0.776952	 -0.591091	 0.182212	 2
1462091855.646	 11	 -2.384369	 2.292809	 1.022980	 2.624117	 -1.265851	 -0.109461	 -0.108477	 0.786574	 -0.582246	 0.174711	 2
1462091855.656	 11	 -2.527141	 1.692040	 0.988791	 2.652743	 -1.239260	 -0.099143	 -0.101224	 0.795889	 -0.572542	 0.168846	 2
1462091855.666	 11	 -2.655246	 0.368917	 0.938162	 2.670356	 -1.211521	 -0.088283	 -0.097517	 0.804443	 -0.561584	 0.167289	 2
1462091855.676	 11	 -2.583135	 -1.223209	 0.834260	 2.672555	 -1.184281	 -0.076978	 -0.098547	 0.811428	 -0.549877	 0.171781	 2
1462091855.686	 11	 -2.285251	 -2.434405	 0.696768	 2.661098	 -1.159856	 -0.065895	 -0.103549	 0.816331	 -0.538493	 0.181400	 2
1462091855.696	 11	 -1.875391	 -3.008612	 0.588740	 2.640828	 -1.139515	 -0.056257	 -0.110660	 0.819212	 -0.528268	 0.193853	 2
1462091855.706	 11	 -1.516179	 -3.073702	 0.558363	 2.616260	 -1.122816	 -0.049385	 -0.118010	 0.820636	 -0.519389	 0.207040	 2
1462091855.716	 11	 -1.200608	 -2.668499	 0.534873	 2.592220	 -1.109084	 -0.045018	 -0.124372	 0.821278	 -0.511875	 0.219131	 2
1462091855.726	 11	 -0.952855	 -2.019861	 0.612289	 2.571125	 -1.097437	 -0.044163	 -0.128654	 0.821762	 -0.505699	 0.228963	 2
1462091855.736	 11	 -0.795828	 -1.212986	 0.766571	 2.553912	 -1.086501	 -0.047401	 -0.130257	 0.822660	 -0.500502	 0.236138	 2
1462091855.746	 11	 -0.688948	 -0.194163	 0.940314	 2.542841	 -1.075573	 -0.054775	 -0.128541	 0.824473	 -0.496205	 0.239796	 2
1462091855.756	 11	 -0.623871	 0.839211	 1.050611	 2.539809	 -1.064515	 -0.064959	 -0.123599	 0.827401	 -0.492717	 0.239499	 2
1462091855.766	 11	 -0.652481	 1.547771	 1.065979	 2.544500	 -1.053205	 -0.075584	 -0.116506	 0.831273	 -0.489631	 0.235951	 2
1462091855.776	 11	 -0.722516	 1.928144	 0.982736	 2.555291	 -1.041732	 -0.084461	 -0.108615	 0.835715	 -0.486559	 0.230313	 2
1462091855.786	 11	 -0.776892	 2.087623	 0.805646	 2.571014	 -1.030677	 -0.090243	 -0.100897	 0.840362	 -0.483474	 0.223304	 2
1462091855.796	 11	 -0.799469	 1.963128	 0.642688	 2.588582	 -1.020318	 -0.093207	 -0.094053	 0.844818	 -0.480356	 0.216090	 2
1462091855.806	 11	 -0.771522	 1.669549	 0.504361	 2.605194	 -1.010847	 -0.094249	 -0.088419	 0.848797	 -0.477273	 0.209613	 2
1462091855.816	 11	 -0.667908	 1.318622	 0.408538	 2.619015	 -1.002634	 -0.094505	 -0.083991	 0.852103	 -0.474451	 0.204356	 2
1462091855.826	 11	 -0.431267	 1.051877	 0.388009	 2.628726	 -0.996386	 -0.096180	 -0.080208	 0.854566	 -0.472390	 0.200326	 2
1462091855.836	 11	 -0.127700	 0.894932	 0.428667	 2.633910	 -0.992537	 -0.101021	 -0.076444	 0.856137	 -0.471451	 0.197278	 2
1462091855.846	 11	 0.192377	 0.885425	 0.420463	 2.636154	 -0.991466	 -0.108843	 -0.072434	 0.856889	 -0.471849	 0.194561	 2
1462091855.856	 11	 0.470942	 0.948996	 0.352552	 2.637472	 -0.993182	 -0.118383	 -0.068246	 0.856967	 -0.473540	 0.191598	 2
1462091855.866	 11	 0.714066	 1.018590	 0.221060	 2.639117	 -0.997699	 -0.128333	 -0.064151	 0.856441	 -0.476441	 0.188144	 2
1462091855.876	 11	 0.855899	 1.122387	 0.071584	 2.642386	 -1.004432	 -0.137454	 -0.060299	 0.855516	 -0.480219	 0.183974	 2
1462091855.886	 11	 0.908203	 1.216109	 -0.036707	 2.647724	 -1.012396	 -0.145274	 -0.056655	 0.854429	 -0.484423	 0.179095	 2
1462091855.896	 11	 0.919608	 1.218631	 -0.124176	 2.654439	 -1.020974	 -0.151777	 -0.053303	 0.853248	 -0.488768	 0.173871	 2
1462091855.906	 11	 0.922204	 1.155309	 -0.201522	 2.661770	 -1.029990	 -0.156913	 -0.050417	 0.851941	 -0.493160	 0.168663	 2
1462091855.916	 11	 0.885393	 1.137588	 -0.313272	 2.670317	 -1.039247	 -0.160167	 -0.048035	 0.850588	 -0.497496	 0.163372	 2
1462091855.926	 11	 0.794050	 1.178885	 -0.522047	 2.682830	 -1.048649	 -0.159198	 -0.046440	 0.849370	 -0.501623	 0.157442	 2
1462091855.936	 11	 0.661959	 1.213620	 -0.772094	 2.700831	 -1.058008	 -0.152397	 -0.045872	 0.848384	 -0.505405	 0.150684	 2
1462091855.946	 11	 0.661650	 1.052947	 -0.928122	 2.721828	 -1.067537	 -0.141088	 -0.046389	 0.847381	 -0.509021	 0.143842	 2
1462091855.956	 11	 1.589211	 0.392036	 -0.902915	 2.733994	 -1.082902	 -0.134058	 -0.047864	 0.844329	 -0.515197	 0.139247	 2
1462091855.966	 11	 2.571566	 -0.543418	 -0.727270	 2.726052	 -1.107978	 -0.139452	 -0.050281	 0.837681	 -0.525741	 0.139136	 2
1462091855.976	 11	 1.849624	 -1.144224	 -0.414306	 2.706781	 -1.129818	 -0.149302	 -0.053638	 0.831070	 -0.534869	 0.142692	 2
1462091855.986	 11	 -0.171536	 -0.572799	 0.271513	 2.694912	 -1.132308	 -0.154080	 -0.055110	 0.829711	 -0.535903	 0.146117	 2
1462091855.996	 11	 -0.931662	 -0.230153	 0.866423	 2.685568	 -1.121557	 -0.161190	 -0.053416	 0.831924	 -0.531809	 0.149091	 2
1462091856.006	 11	 -0.692909	 -0.151413	 0.967390	 2.673245	 -1.110163	 -0.173058	 -0.050389	 0.834137	 -0.527753	 0.152161	 2
1462091856.016	 11	 -0.219523	 -0.036541	 0.719212	 2.661597	 -1.103588	 -0.185310	 -0.047539	 0.835159	 -0.525735	 0.154442	 2
1462091856.026	 11	 0.072754	 0.089966	 0.535599	 2.652088	 -1.101051	 -0.196641	 -0.044986	 0.835300	 -0.525365	 0.155695	 2
1462091856.036	 11	 0.137892	 0.104571	 0.525574	 2.642921	 -1.099752	 -0.208229	 -0.042387	 0.835152	 -0.525544	 0.156615	 2
1462091856.046	 11	 -0.078416	 -0.027951	 0.497448	 2.634512	 -1.097253	 -0.217894	 -0.040229	 0.835290	 -0.525121	 0.157860	 2
1462091856.056	 11	 -0.413566	 -0.099838	 0.568972	 2.627544	 -1.091687	 -0.224509	 -0.038540	 0.836194	 -0.523263	 0.159655	 2
1462091856.066	 11	 -0.451744	 0.196680	 0.815057	 2.620634	 -1.083904	 -0.233651	 -0.035449	 0.837646	 -0.520730	 0.161040	 2
1462091856.076	 11	 -0.610595	 -0.012243	 0.834746	 2.612856	 -1.075016	 -0.243628	 -0.032041	 0.839257	 -0.517821	 0.162737	 2
1462091856.086	 11	 -1.430208	 -0.734701	 0.613481	 2.607540	 -1.061317	 -0.243147	 -0.031667	 0.841963	 -0.512161	 0.166695	 2
1462091856.096	 11	 -2.333764	 -0.652188	 0.333294	 2.612980	 -1.040996	 -0.228521	 -0.033592	 0.846796	 -0.502752	 0.170436	 2
1462091856.106	 11	 -2.884895	 -0.071802	 0.063198	 2.631826	 -1.016181	 -0.203886	 -0.035990	 0.853543	 -0.490765	 0.171228	 2
1462091856.116	 11	 -2.831460	 0.328717	 -0.125378	 2.656970	 -0.991297	 -0.176974	 -0.038207	 0.860706	 -0.478554	 0.169444	 2
1462091856.126	 11	 -2.143287	 1.046134	 -0.212086	 2.683803	 -0.971192	 -0.154641	 -0.039054	 0.866937	 -0.468704	 0.164959	 2
1462091856.136	 11	 -1.033959	 1.680441	 -0.295775	 2.711300	 -0.960387	 -0.140367	 -0.037618	 0.871241	 -0.463468	 0.157232	 2
1462091856.146	 11	 -0.331578	 1.043544	 -0.569994	 2.733014	 -0.958291	 -0.129463	 -0.037124	 0.873166	 -0.462134	 0.150447	 2
1462091856.156	 11	 -0.328437	 -0.029021	 -0.923178	 2.748016	 -0.958667	 -0.113874	 -0.040507	 0.873898	 -0.461427	 0.147467	 2
1462091856.166	 11	 -0.308285	 -0.761494	 -1.159308	 2.758414	 -0.959889	 -0.093887	 -0.046962	 0.873957	 -0.460708	 0.147449	 2
1462091856.176	 11	 -0.151553	 -1.376466	 -1.270840	 2.763945	 -0.962645	 -0.072331	 -0.055361	 0.873201	 -0.460442	 0.149827	 2
1462091856.186	 11	 0.561787	 -1.562062	 -1.202043	 2.763041	 -0.970219	 -0.054297	 -0.064117	 0.870887	 -0.462327	 0.153947	 2
1462091856.196	 11	 1.843182	 -1.333611	 -1.008579	 2.755382	 -0.988273	 -0.046879	 -0.070741	 0.865911	 -0.469288	 0.157996	 2
1462091856.206	 11	 2.701316	 -1.452934	 -0.835981	 2.738806	 -1.014998	 -0.049956	 -0.075799	 0.858460	 -0.480388	 0.162876	 2
1462091856.216	 11	 2.906661	 -1.854139	 -0.783952	 2.713959	 -1.044562	 -0.058561	 -0.081012	 0.849684	 -0.492673	 0.169552	 2
1462091856.226	 11	 2.871886	 -2.141825	 -0.868389	 2.684661	 -1.074226	 -0.068225	 -0.087272	 0.840329	 -0.504709	 0.177482	 2
1462091856.236	 11	 2.839412	 -2.147835	 -0.976870	 2.654508	 -1.103889	 -0.077858	 -0.094184	 0.830673	 -0.516476	 0.185374	 2
1462091856.246	 11	 2.865668	 -1.965371	 -1.031886	 2.624452	 -1.133835	 -0.088822	 -0.100978	 0.820810	 -0.528246	 0.192435	 2
1462091856.256	 11	 2.876457	 -1.732318	 -1.010628	 2.593590	 -1.163799	 -0.103026	 -0.107108	 0.810846	 -0.540046	 0.198509	 2
1462091856.266	 11	 2.826716	 -1.489054	 -0.925868	 2.560747	 -1.192871	 -0.121819	 -0.112295	 0.801017	 -0.551598	 0.203717	 2
1462091856.276	 11	 2.721220	 -1.303046	 -0.839023	 2.525254	 -1.220449	 -0.145399	 -0.116634	 0.791474	 -0.562668	 0.208253	 2
1462091856.286	 11	 2.542828	 -1.178583	 -0.761708	 2.487304	 -1.245931	 -0.172864	 -0.120394	 0.782392	 -0.572969	 0.212308	 2
1462091856.296	 11	 2.310628	 -1.143355	 -0.691150	 2.447223	 -1.268870	 -0.202925	 -0.123927	 0.773884	 -0.582248	 0.216178	 2
1462091856.306	 11	 2.075106	 -1.150517	 -0.600708	 2.404958	 -1.289058	 -0.235089	 -0.127371	 0.765995	 -0.590413	 0.220093	 2
1462091856.316	 11	 1.870542	 -1.170405	 -0.492535	 2.359604	 -1.306564	 -0.270084	 -0.130685	 0.758665	 -0.597554	 0.224227	 2
1462091856.326	 11	 1.703345	 -1.195645	 -0.374081	 2.310448	 -1.321546	 -0.308617	 -0.133808	 0.751818	 -0.603808	 0.228653	 2
1462091856.336	 11	 1.578719	 -1.248638	 -0.251992	 2.256556	 -1.334187	 -0.351453	 -0.136744	 0.745333	 -0.609312	 0.233490	 2
1462091856.346	 11	 1.500654	 -1.386841	 -0.127904	 2.196131	 -1.344695	 -0.399675	 -0.139666	 0.738991	 -0.614197	 0.239058	 2
1462091856.356	 11	 1.465976	 -1.585944	 -0.023944	 2.127769	 -1.353302	 -0.454057	 -0.142777	 0.732563	 -0.618591	 0.245583	 2
1462091856.366	 11	 1.454276	 -1.854564	 0.036538	 2.051183	 -1.360320	 -0.514176	 -0.146409	 0.725837	 -0.622582	 0.253213	 2
1462091856.376	 11	 1.453235	 -2.100039	 0.066236	 1.967105	 -1.365946	 -0.579183	 -0.150713	 0.718712	 -0.626229	 0.261868	 2
1462091856.386	 11	 1.439752	 -2.230932	 0.051280	 1.878054	 -1.370376	 -0.647606	 -0.155494	 0.711286	 -0.629631	 0.271034	 2
1462091856.396	 11	 1.389250	 -2.238792	 -0.026154	 1.788243	 -1.374047	 -0.716288	 -0.160665	 0.703757	 -0.632824	 0.280086	 2
1462091856.406	 11	 1.327617	 -2.069416	 -0.161524	 1.701138	 -1.377601	 -0.783456	 -0.165920	 0.696382	 -0.635970	 0.288210	 2
1462091856.416	 11	 1.276093	 -1.776831	 -0.316086	 1.617546	 -1.381504	 -0.849707	 -0.170916	 0.689336	 -0.639277	 0.294837	 2
1462091856.426	 11	 1.234232	 -1.474678	 -0.467446	 1.536500	 -1.385890	 -0.916459	 -0.175498	 0.682677	 -0.642845	 0.299836	 2
1462091856.436	 11	 1.211260	 -1.257521	 -0.598445	 1.455511	 -1.390636	 -0.985541	 -0.179799	 0.676289	 -0.646668	 0.303523	 2
1462091856.446	 11	 1.233851	 -1.130721	 -0.704038	 1.370656	 -1.395409	 -1.060000	 -0.183965	 0.669934	 -0.650773	 0.306332	 2
1462091856.456	 11	 1.305224	 -1.092143	 -0.782101	 1.277838	 -1.399689	 -1.143090	 -0.188119	 0.663344	 -0.655208	 0.308688	 2
1462091856.466	 11	 1.403251	 -1.099035	 -0.812860	 1.175099	 -1.402643	 -1.236202	 -0.192252	 0.656341	 -0.659969	 0.310959	 2
1462091856.476	 11	 1.451375	 -1.108482	 -0.776065	 1.066915	 -1.403477	 -1.334698	 -0.196241	 0.649064	 -0.664840	 0.313358	 2
1462091856.486	 11	 1.391061	 -1.072573	 -0.688879	 0.963055	 -1.402074	 -1.429030	 -0.199940	 0.641935	 -0.669448	 0.315883	 2
1462091856.496	 11	 1.233161	 -0.941449	 -0.564788	 0.873136	 -1.399066	 -1.510323	 -0.203114	 0.635495	 -0.673484	 0.318293	 2
1462091856.506	 11	 1.000986	 -0.740794	 -0.415955	 0.802835	 -1.395319	 -1.573637	 -0.205529	 0.630175	 -0.676761	 0.320362	 2
1462091856.516	 11	 0.663947	 -0.589902	 -0.278396	 0.754586	 -1.392133	 -1.616364	 -0.207394	 0.626299	 -0.678996	 0.322028	 2
1462091856.526	 11	 0.225456	 -0.683315	 -0.136899	 0.728413	 -1.390796	 -1.636453	 -0.209564	 0.623926	 -0.679673	 0.323795	 2
1462091856.536	 11	 -0.268794	 -1.066860	 0.014108	 0.723160	 -1.392026	 -1.632095	 -0.213110	 0.622838	 -0.678256	 0.326537	 2
1462091856.546	 11	 -0.774580	 -1.620661	 0.149776	 0.737551	 -1.396073	 -1.602453	 -0.218810	 0.622730	 -0.674443	 0.330842	 2
1462091856.556	 11	 -1.270525	 -2.059122	 0.207566	 0.771780	 -1.403062	 -1.547774	 -0.226696	 0.623526	 -0.668347	 0.336358	 2
1462091856.566	 11	 -1.771757	 -2.169702	 0.156547	 0.829634	 -1.413279	 -1.467210	 -0.236133	 0.625529	 -0.660402	 0.341794	 2
1462091856.576	 11	 -2.213970	 -1.951035	 0.064382	 0.919431	 -1.426177	 -1.355939	 -0.246121	 0.629077	 -0.651200	 0.345869	 2
1462091856.586	 11	 -2.506577	 -1.549127	 0.073867	 1.051931	 -1.439210	 -1.205455	 -0.255523	 0.634173	 -0.641303	 0.348227	 2
1462091856.596	 11	 -2.679812	 -1.100563	 0.258597	 1.234790	 -1.448371	 -1.008881	 -0.263349	 0.640714	 -0.630963	 0.349312	 2
1462091856.606	 11	 -2.862674	 -0.569930	 0.609368	 1.461575	 -1.449610	 -0.773283	 -0.268832	 0.648953	 -0.620059	 0.349450	 2
1462091856.616	 11	 -3.086659	 -0.043550	 1.090481	 1.698628	 -1.439621	 -0.532677	 -0.271480	 0.659269	 -0.608243	 0.348859	 2
1462091856.626	 11	 -3.205681	 0.355792	 1.549248	 1.896504	 -1.418289	 -0.335460	 -0.271451	 0.671282	 -0.595475	 0.348001	 2
1462091856.636	 11	 -3.037159	 0.785908	 1.821421	 2.033087	 -1.390043	 -0.203770	 -0.268879	 0.683954	 -0.582820	 0.346746	 2
1462091856.646	 11	 -2.682607	 1.413293	 1.944603	 2.121035	 -1.359776	 -0.126835	 -0.263451	 0.696674	 -0.571582	 0.344285	 2
1462091856.656	 11	 -2.314478	 2.077007	 1.949705	 2.181139	 -1.330238	 -0.084822	 -0.255269	 0.709304	 -0.562267	 0.339973	 2
1462091856.666	 11	 -1.964259	 2.631699	 1.874017	 2.226645	 -1.302837	 -0.063678	 -0.244952	 0.721616	 -0.554874	 0.333743	 2
1462091856.676	 11	 -1.669636	 2.935567	 1.801807	 2.263198	 -1.277789	 -0.055631	 -0.233253	 0.733339	 -0.548999	 0.326200	 2
1462091856.686	 11	 -1.477112	 2.832621	 1.764003	 2.292246	 -1.254468	 -0.055419	 -0.221287	 0.744152	 -0.543812	 0.318652	 2
1462091856.696	 11	 -1.331040	 2.377814	 1.733986	 2.312927	 -1.232374	 -0.060081	 -0.210119	 0.753686	 -0.538656	 0.312502	 2
1462091856.706	 11	 -1.236711	 1.623965	 1.660073	 2.325080	 -1.211505	 -0.066619	 -0.200797	 0.761621	 -0.533165	 0.308786	 2
1462091856.716	 11	 -1.222923	 0.527952	 1.597532	 2.327671	 -1.191421	 -0.072596	 -0.194361	 0.767705	 -0.526822	 0.308725	 2
1462091856.726	 11	 -1.280067	 -0.494059	 1.590651	 2.321019	 -1.171208	 -0.077056	 -0.190858	 0.772138	 -0.519260	 0.312643	 2
1462091856.736	 11	 -1.433262	 -1.323001	 1.621573	 2.308108	 -1.149933	 -0.078875	 -0.189697	 0.775467	 -0.510270	 0.319829	 2
1462091856.747	 11	 -1.607747	 -1.885167	 1.617861	 2.292278	 -1.127367	 -0.076772	 -0.190417	 0.778095	 -0.499853	 0.329328	 2
1462091856.756	 11	 -1.605793	 -1.915025	 1.607974	 2.276487	 -1.104644	 -0.072823	 -0.191652	 0.780396	 -0.489018	 0.339283	 2
1462091856.766	 11	 -1.434274	 -1.489335	 1.564614	 2.262599	 -1.082998	 -0.070215	 -0.191948	 0.782718	 -0.478949	 0.348016	 2
1462091856.777	 11	 -1.240739	 -0.888498	 1.482193	 2.252956	 -1.063246	 -0.069359	 -0.190785	 0.785377	 -0.470283	 0.354425	 2
1462091856.786	 11	 -1.091596	 -0.206610	 1.411571	 2.248712	 -1.045034	 -0.069764	 -0.188084	 0.788673	 -0.462924	 0.358220	 2
1462091856.796	 11	 -0.934696	 0.546428	 1.328754	 2.250818	 -1.028417	 -0.071525	 -0.183661	 0.792816	 -0.456991	 0.358986	 2
1462091856.807	 11	 -0.830195	 1.077098	 1.214482	 2.258423	 -1.013377	 -0.073943	 -0.178037	 0.797610	 -0.452246	 0.357204	 2
1462091856.816	 11	 -0.777676	 1.256621	 1.057963	 2.269238	 -0.999890	 -0.075726	 -0.172270	 0.802538	 -0.448218	 0.354057	 2
1462091856.826	 11	 -0.744707	 1.154204	 0.881938	 2.280762	 -0.987951	 -0.076211	 -0.167203	 0.807107	 -0.444568	 0.350686	 2
1462091856.837	 11	 -0.682452	 0.931464	 0.699209	 2.291273	 -0.977729	 -0.075465	 -0.163226	 0.811002	 -0.441247	 0.347755	 2
1462091856.846	 11	 -0.551906	 0.685312	 0.542312	 2.299564	 -0.969489	 -0.074469	 -0.160247	 0.814059	 -0.438456	 0.345521	 2
1462091856.856	 11	 -0.362476	 0.473076	 0.392678	 2.305078	 -0.963530	 -0.074109	 -0.158067	 0.816204	 -0.436447	 0.344005	 2
1462091856.867	 11	 -0.146040	 0.338331	 0.232873	 2.308206	 -0.960156	 -0.074744	 -0.156494	 0.817482	 -0.435447	 0.342957	 2
1462091856.876	 11	 0.074285	 0.365106	 0.054287	 2.310522	 -0.959548	 -0.076152	 -0.155300	 0.818112	 -0.435624	 0.341769	 2
1462091856.886	 11	 0.294261	 0.548197	 -0.129235	 2.313733	 -0.961775	 -0.078253	 -0.154155	 0.818367	 -0.437126	 0.339755	 2
1462091856.897	 11	 0.502943	 0.818598	 -0.304387	 2.318995	 -0.966769	 -0.080968	 -0.152819	 0.818440	 -0.439995	 0.336462	 2
1462091856.907	 11	 0.664548	 1.060444	 -0.476197	 2.326655	 -0.974218	 -0.083855	 -0.151321	 0.818401	 -0.444051	 0.331873	 2
1462091856.917	 11	 0.769257	 1.233306	 -0.650285	 2.336794	 -0.983745	 -0.086035	 -0.149907	 0.818247	 -0.448996	 0.326193	 2
1462091856.927	 11	 0.845999	 1.354177	 -0.818219	 2.349296	 -0.995083	 -0.086950	 -0.148754	 0.817940	 -0.454625	 0.319628	 2
1462091856.937	 11	 0.911017	 1.448746	 -0.951126	 2.363848	 -1.007923	 -0.086594	 -0.147844	 0.817461	 -0.460796	 0.312356	 2
1462091856.947	 11	 0.966757	 1.559755	 -1.020918	 2.380097	 -1.021784	 -0.085444	 -0.146950	 0.816862	 -0.467370	 0.304480	 2
1462091856.957	 11	 1.034868	 1.735144	 -1.008156	 2.397749	 -1.036152	 -0.084542	 -0.145599	 0.816258	 -0.474282	 0.295940	 2
1462091856.967	 11	 1.107683	 1.969307	 -0.955454	 2.416625	 -1.050722	 -0.084757	 -0.143409	 0.815733	 -0.481512	 0.286636	 2
1462091856.977	 11	 1.251081	 2.172954	 -0.829048	 2.435569	 -1.065568	 -0.087462	 -0.140102	 0.815183	 -0.489176	 0.276686	 2
1462091856.987	 11	 1.523733	 2.180318	 -0.437021	 2.448053	 -1.080216	 -0.098154	 -0.134987	 0.814204	 -0.497337	 0.267407	 2
1462091856.997	 11	 1.823069	 2.568996	 0.040385	 2.451824	 -1.094093	 -0.120985	 -0.126948	 0.812934	 -0.506098	 0.258625	 2
1462091857.007	 11	 2.594910	 4.155163	 0.103844	 2.457321	 -1.111676	 -0.156397	 -0.113975	 0.811608	 -0.517817	 0.245292	 2
1462091857.017	 11	 2.020331	 7.324486	 -0.013002	 2.489422	 -1.130599	 -0.191275	 -0.094424	 0.812660	 -0.530953	 0.220809	 2
1462091857.027	 11	 -0.561636	 6.268745	 0.321515	 2.555679	 -1.129003	 -0.195082	 -0.074992	 0.820061	 -0.533526	 0.192940	 2
1462091857.037	 11	 -1.063326	 2.431041	 0.824119	 2.589159	 -1.116522	 -0.195555	 -0.064110	 0.826232	 -0.529780	 0.180457	 2
1462091857.047	 11	 -0.634610	 -0.649906	 1.189247	 2.578578	 -1.104062	 -0.207887	 -0.060032	 0.828647	 -0.525599	 0.182993	 2
1462091857.057	 11	 -0.100952	 -2.441550	 1.186046	 2.540549	 -1.095617	 -0.227390	 -0.060668	 0.827635	 -0.522933	 0.194631	 2
1462091857.067	 11	 0.037515	 -3.326472	 1.095608	 2.491158	 -1.089372	 -0.247390	 -0.064298	 0.824691	 -0.520954	 0.210612	 2
1462091857.077	 11	 -0.139666	 -3.168006	 1.168966	 2.442644	 -1.081586	 -0.265310	 -0.068189	 0.821718	 -0.518273	 0.226987	 2
1462091857.087	 11	 -0.330399	 -2.124883	 1.346592	 2.403716	 -1.070830	 -0.281861	 -0.069488	 0.820075	 -0.514715	 0.240241	 2
1462091857.097	 11	 -0.170683	 -0.648801	 1.382384	 2.378144	 -1.059574	 -0.299566	 -0.066647	 0.819931	 -0.511694	 0.247873	 2
1462091857.107	 11	 -0.254936	 -0.111893	 1.025754	 2.364548	 -1.050357	 -0.313430	 -0.062625	 0.820579	 -0.509471	 0.251334	 2
1462091857.117	 11	 -1.135381	 -0.068074	 0.699179	 2.364446	 -1.038719	 -0.312118	 -0.060884	 0.822881	 -0.504863	 0.253522	 2
1462091857.127	 11	 -2.083306	 0.864798	 0.328175	 2.386918	 -1.022163	 -0.292864	 -0.059975	 0.828472	 -0.496734	 0.251579	 2
1462091857.137	 11	 -2.379017	 1.631747	 -0.072432	 2.426506	 -1.004684	 -0.263450	 -0.059208	 0.836049	 -0.487411	 0.244840	 2
1462091857.147	 11	 -2.133332	 2.021448	 -0.208428	 2.470307	 -0.988770	 -0.234341	 -0.058052	 0.843712	 -0.478836	 0.235575	 2
1462091857.157	 11	 -1.182233	 2.502791	 -0.182389	 2.509214	 -0.978419	 -0.216165	 -0.054771	 0.849814	 -0.473635	 0.224693	 2
1462091857.167	 11	 -0.891805	 2.469883	 -0.642436	 2.548305	 -0.973972	 -0.199513	 -0.051942	 0.854569	 -0.471028	 0.212476	 2
1462091857.177	 11	 -1.159486	 1.932829	 -1.034106	 2.589494	 -0.969983	 -0.174799	 -0.052283	 0.859027	 -0.467886	 0.201052	 2
1462091857.187	 11	 -1.142873	 1.360921	 -1.277237	 2.628528	 -0.966062	 -0.145808	 -0.055140	 0.862919	 -0.464440	 0.191378	 2
1462091857.197	 11	 -0.811037	 0.607629	 -1.471513	 2.660983	 -0.964912	 -0.116168	 -0.060287	 0.865362	 -0.462104	 0.184318	 2
1462091857.207	 11	 -0.428304	 -0.287706	 -1.579095	 2.683861	 -0.967290	 -0.087552	 -0.067664	 0.866012	 -0.461240	 0.180841	 2
1462091857.217	 11	 -0.124699	 -0.887127	 -1.540423	 2.697957	 -0.972327	 -0.061181	 -0.076366	 0.865211	 -0.461526	 0.180480	 2
1462091857.227	 11	 0.448675	 -1.026392	 -1.299454	 2.704413	 -0.980535	 -0.041053	 -0.084410	 0.863129	 -0.463487	 0.181835	 2
1462091857.237	 11	 1.439904	 -0.612537	 -1.030333	 2.704279	 -0.995980	 -0.032204	 -0.089791	 0.859183	 -0.469295	 0.183040	 2
1462091857.247	 11	 2.155997	 0.288253	 -0.753219	 2.703118	 -1.017568	 -0.033990	 -0.091439	 0.854110	 -0.478615	 0.181831	 2
1462091857.257	 11	 2.633998	 1.007278	 -0.556721	 2.702863	 -1.042945	 -0.044460	 -0.089565	 0.848508	 -0.490293	 0.177832	 2
1462091857.267	 11	 3.125302	 1.732611	 -0.511619	 2.703947	 -1.072233	 -0.060708	 -0.085365	 0.842177	 -0.504055	 0.171405	 2
1462091857.277	 11	 3.664771	 2.227298	 -0.425386	 2.704648	 -1.106161	 -0.084224	 -0.078783	 0.834741	 -0.520134	 0.162672	 2
1462091857.287	 11	 3.902679	 1.524694	 -0.414812	 2.695722	 -1.142932	 -0.114012	 -0.072651	 0.825774	 -0.537219	 0.155608	 2
1462091857.297	 11	 3.557435	 -0.464633	 -0.606168	 2.670584	 -1.178356	 -0.142304	 -0.071856	 0.815621	 -0.552763	 0.155088	 2
1462091857.307	 11	 2.965694	 -2.066549	 -0.715038	 2.631718	 -1.209161	 -0.165363	 -0.077105	 0.805268	 -0.565302	 0.161347	 2
1462091857.317	 11	 2.285937	 -2.758904	 -0.688918	 2.587918	 -1.233917	 -0.184023	 -0.085370	 0.795796	 -0.574657	 0.170849	 2
1462091857.327	 11	 1.657418	 -2.899342	 -0.508902	 2.544000	 -1.252116	 -0.199867	 -0.094363	 0.787783	 -0.580997	 0.181482	 2
1462091857.337	 11	 1.246299	 -2.700707	 -0.271138	 2.500711	 -1.264886	 -0.216285	 -0.102480	 0.781152	 -0.585171	 0.192025	 2
1462091857.347	 11	 1.089111	 -2.260553	 -0.066376	 2.457694	 -1.274360	 -0.236371	 -0.108816	 0.775481	 -0.588356	 0.201558	 2
1462091857.357	 11	 1.104115	 -1.696843	 0.085814	 2.414472	 -1.282364	 -0.262290	 -0.112929	 0.770391	 -0.591512	 0.209424	 2
1462091857.367	 11	 1.186827	 -1.211379	 0.182333	 2.370130	 -1.289753	 -0.294774	 -0.114966	 0.765637	 -0.595051	 0.215631	 2
1462091857.377	 11	 1.344511	 -0.970999	 0.100067	 2.323932	 -1.297911	 -0.332111	 -0.116109	 0.760711	 -0.599272	 0.220704	 2
1462091857.387	 11	 1.532324	 -0.821826	 -0.080294	 2.275829	 -1.308094	 -0.373251	 -0.117116	 0.755269	 -0.604466	 0.224664	 2
1462091857.397	 11	 1.593137	 -0.945237	 -0.206666	 2.224231	 -1.319484	 -0.417288	 -0.118742	 0.749325	 -0.610108	 0.228432	 2
1462091857.407	 11	 1.537349	 -1.224880	 -0.217308	 2.167522	 -1.330379	 -0.463916	 -0.121281	 0.743096	 -0.615484	 0.232978	 2
1462091857.417	 11	 1.411895	 -1.593439	 -0.197265	 2.106348	 -1.339840	 -0.511449	 -0.124948	 0.736747	 -0.620145	 0.238773	 2
1462091857.427	 11	 1.297904	 -2.023696	 -0.173632	 2.040803	 -1.347806	 -0.559092	 -0.129957	 0.730198	 -0.623998	 0.246066	 2
1462091857.437	 11	 1.243765	 -2.448689	 -0.133419	 1.969213	 -1.354381	 -0.608426	 -0.136245	 0.723250	 -0.627168	 0.254966	 2
1462091857.447	 11	 1.272104	 -2.798501	 -0.106013	 1.889487	 -1.359823	 -0.662153	 -0.143558	 0.715680	 -0.629931	 0.265293	 2
1462091857.457	 11	 1.359379	 -3.078449	 -0.100852	 1.799949	 -1.364446	 -0.722932	 -0.151611	 0.707308	 -0.632609	 0.276650	 2
1462091857.467	 11	 1.423460	 -3.338833	 -0.047348	 1.700914	 -1.367577	 -0.790586	 -0.160229	 0.698155	 -0.635093	 0.289074	 2
1462091857.477	 11	 1.440077	 -3.475742	 0.000259	 1.596667	 -1.368817	 -0.861835	 -0.169103	 0.688476	 -0.637261	 0.302165	 2
1462091857.487	 11	 1.406207	 -3.434010	 0.021191	 1.492899	 -1.368240	 -0.932382	 -0.177902	 0.678619	 -0.639069	 0.315308	 2
1462091857.497	 11	 1.210076	 -3.160079	 0.022251	 1.399361	 -1.366460	 -0.994833	 -0.186144	 0.669359	 -0.640384	 0.327440	 2
1462091857.507	 11	 0.734132	 -2.767788	 0.098254	 1.330442	 -1.363987	 -1.035884	 -0.193660	 0.661858	 -0.640436	 0.338055	 2
1462091857.517	 11	 0.097283	 -2.221864	 0.320966	 1.298093	 -1.360858	 -1.044759	 -0.199942	 0.657235	 -0.638517	 0.346931	 2
1462091857.527	 11	 -0.418377	 -1.577140	 0.576580	 1.300786	 -1.356708	 -1.024197	 -0.204327	 0.655679	 -0.634850	 0.353979	 2
1462091857.537	 11	 -0.651322	 -1.130416	 0.776734	 1.323934	 -1.351242	 -0.988024	 -0.206887	 0.656192	 -0.630291	 0.359643	 2
1462091857.547	 11	 -0.589294	 -1.026132	 0.955146	 1.349560	 -1.343815	 -0.951170	 -0.208258	 0.657220	 -0.625528	 0.365247	 2
1462091857.557	 11	 -0.423152	 -1.266601	 1.156089	 1.366576	 -1.334023	 -0.921454	 -0.209196	 0.657610	 -0.620741	 0.372110	 2
1462091857.567	 11	 -0.425876	 -1.651498	 1.465865	 1.378173	 -1.321311	 -0.893479	 -0.210241	 0.657393	 -0.615167	 0.381055	 2
1462091857.577	 11	 -0.691731	 -1.758687	 1.830607	 1.395717	 -1.305330	 -0.857402	 -0.211007	 0.657743	 -0.607973	 0.391431	 2
1462091857.587	 11	 -1.114685	 -1.900623	 2.180408	 1.423976	 -1.286260	 -0.808709	 -0.211711	 0.659276	 -0.598558	 0.402817	 2
1462091857.597	 11	 -1.757779	 -2.069880	 2.487108	 1.465080	 -1.264281	 -0.744495	 -0.212981	 0.662359	 -0.586247	 0.415011	 2
1462091857.607	 11	 -2.518147	 -1.966701	 2.767524	 1.521697	 -1.239243	 -0.663573	 -0.214804	 0.667736	 -0.570649	 0.427021	 2
1462091857.617	 11	 -3.033902	 -1.367491	 3.053623	 1.588821	 -1.209823	 -0.576018	 -0.215379	 0.675866	 -0.552734	 0.437381	 2
1462091857.627	 11	 -3.200046	 -0.696255	 3.146576	 1.656178	 -1.176864	 -0.494205	 -0.214100	 0.685950	 -0.534053	 0.445445	 2
1462091857.637	 11	 -3.201907	 0.256825	 3.157593	 1.720902	 -1.141772	 -0.423719	 -0.210360	 0.697748	 -0.515897	 0.450273	 2
1462091857.647	 11	 -2.835699	 0.748166	 3.152582	 1.776726	 -1.105463	 -0.369246	 -0.204242	 0.710044	 -0.499046	 0.452854	 2
1462091857.657	 11	 -1.944810	 0.966473	 3.109555	 1.813394	 -1.070170	 -0.338142	 -0.195820	 0.720628	 -0.485033	 0.455074	 2
1462091857.667	 11	 -0.963316	 1.046188	 3.205130	 1.830346	 -1.036563	 -0.330609	 -0.184593	 0.728879	 -0.474471	 0.457753	 2
1462091857.677	 11	 -0.434527	 1.187807	 3.440574	 1.835715	 -1.002524	 -0.337625	 -0.170751	 0.735731	 -0.465776	 0.461082	 2
1462091857.687	 11	 -0.363652	 1.553969	 3.654385	 1.841144	 -0.966829	 -0.348496	 -0.154936	 0.742853	 -0.457283	 0.463742	 2
1462091857.697	 11	 -0.534106	 1.891040	 3.865764	 1.851443	 -0.928899	 -0.358258	 -0.137724	 0.750964	 -0.447974	 0.465193	 2
1462091857.707	 11	 -0.672630	 2.046663	 4.002704	 1.865019	 -0.888900	 -0.366540	 -0.119745	 0.759637	 -0.437563	 0.465995	 2
1462091857.717	 11	 -0.666044	 2.181951	 3.887738	 1.880326	 -0.849325	 -0.374609	 -0.101661	 0.768285	 -0.426992	 0.465920	 2
1462091857.727	 11	 -0.485654	 2.131221	 3.418891	 1.895474	 -0.813829	 -0.383477	 -0.084592	 0.776130	 -0.417640	 0.464806	 2
1462091857.737	 11	 -0.196399	 1.663131	 2.642536	 1.906694	 -0.785996	 -0.393011	 -0.070393	 0.781993	 -0.410660	 0.463563	 2
1462091857.747	 11	 0.141584	 0.778060	 1.732920	 1.910186	 -0.767598	 -0.402802	 -0.060456	 0.784935	 -0.406633	 0.463542	 2
1462091857.757	 11	 0.393266	 -0.315296	 1.106676	 1.902467	 -0.757189	 -0.412974	 -0.054973	 0.784413	 -0.405145	 0.466402	 2
1462091857.767	 11	 0.443744	 -0.671819	 0.804505	 1.889674	 -0.750370	 -0.422435	 -0.051837	 0.782282	 -0.404653	 0.470748	 2
1462091857.777	 11	 0.522477	 -0.482843	 0.788526	 1.877556	 -0.744517	 -0.432135	 -0.048750	 0.780167	 -0.404621	 0.474600	 2
1462091857.787	 11	 0.597063	 0.022371	 0.965231	 1.868836	 -0.737575	 -0.443401	 -0.044032	 0.778926	 -0.404716	 0.477012	 2
1462091857.797	 11	 0.558371	 0.475960	 1.163758	 1.864565	 -0.728503	 -0.455157	 -0.037569	 0.778858	 -0.404333	 0.477999	 2
1462091857.807	 11	 0.478442	 0.827195	 1.311600	 1.864721	 -0.717756	 -0.466479	 -0.029861	 0.779888	 -0.403371	 0.477676	 2
1462091857.817	 11	 0.354366	 0.670977	 1.426329	 1.865446	 -0.705465	 -0.476751	 -0.021968	 0.781064	 -0.401633	 0.477648	 2
1462091857.827	 11	 0.162458	 0.034414	 1.423142	 1.862391	 -0.692370	 -0.484864	 -0.015419	 0.781284	 -0.399068	 0.479691	 2
1462091857.837	 11	 -0.106160	 -0.930353	 1.304598	 1.852836	 -0.679449	 -0.489324	 -0.011622	 0.779819	 -0.395663	 0.484971	 2
1462091857.847	 11	 -0.474117	 -2.218557	 1.278763	 1.834117	 -0.666103	 -0.489098	 -0.011272	 0.776014	 -0.390954	 0.494804	 2
1462091857.857	 11	 -0.843124	 -3.443456	 1.182119	 1.806008	 -0.652498	 -0.483639	 -0.014581	 0.769658	 -0.384796	 0.509260	 2
1462091857.867	 11	 -1.149357	 -4.523533	 1.134236	 1.769451	 -0.639120	 -0.473518	 -0.021166	 0.760757	 -0.377357	 0.527639	 2
1462091857.877	 11	 -1.272779	 -5.155737	 1.173124	 1.726744	 -0.625414	 -0.460690	 -0.029533	 0.749724	 -0.368819	 0.548647	 2
1462091857.887	 11	 -1.132992	 -5.456528	 1.258632	 1.680080	 -0.611695	 -0.448457	 -0.038038	 0.737020	 -0.360127	 0.570669	 2
1462091857.897	 11	 -1.161140	 -5.791450	 1.556306	 1.629821	 -0.595970	 -0.436063	 -0.046156	 0.722689	 -0.350415	 0.593969	 2
1462091857.907	 11	 -1.330121	 -5.933097	 1.901766	 1.578826	 -0.577410	 -0.421375	 -0.053751	 0.707442	 -0.338846	 0.617915	 2
1462091857.917	 11	 -1.472122	 -5.710649	 2.158724	 1.530297	 -0.556670	 -0.403890	 -0.060567	 0.692202	 -0.325543	 0.641256	 2
1462091857.927	 11	 -1.532434	 -5.370330	 2.422462	 1.486020	 -0.534178	 -0.384375	 -0.066149	 0.677632	 -0.310936	 0.663142	 2
1462091857.937	 11	 -1.578223	 -4.890736	 2.684172	 1.446281	 -0.509747	 -0.363233	 -0.070253	 0.663974	 -0.295138	 0.683444	 2
1462091857.947	 11	 -1.690642	 -4.231643	 2.884187	 1.413301	 -0.483990	 -0.340022	 -0.072974	 0.652119	 -0.278282	 0.701409	 2
1462091857.957	 11	 -1.867888	 -3.461150	 3.019725	 1.388540	 -0.457657	 -0.314180	 -0.074694	 0.642746	 -0.260445	 0.716566	 2
1462091857.967	 11	 -2.029228	 -2.945903	 3.164474	 1.370125	 -0.430732	 -0.285964	 -0.075723	 0.635379	 -0.241632	 0.729503	 2
1462091857.977	 11	 -2.215832	 -2.807116	 3.307005	 1.354043	 -0.403228	 -0.255450	 -0.076630	 0.628667	 -0.221703	 0.741454	 2
1462091857.987	 11	 -2.558181	 -2.639290	 3.430912	 1.340256	 -0.375541	 -0.221314	 -0.078024	 0.622594	 -0.200257	 0.752454	 2
1462091857.997	 11	 -2.914672	 -2.731146	 3.526949	 1.326906	 -0.348136	 -0.183130	 -0.080420	 0.616471	 -0.177163	 0.762961	 2
1462091858.007	 11	 -3.188341	 -3.110652	 3.590812	 1.310555	 -0.321277	 -0.141633	 -0.083939	 0.608999	 -0.152605	 0.773812	 2
1462091858.017	 11	 -3.150529	 -3.717870	 3.621066	 1.287825	 -0.295035	 -0.099025	 -0.088017	 0.598899	 -0.127282	 0.785730	 2
1462091858.027	 11	 -2.427257	 -4.416979	 3.576291	 1.255886	 -0.268458	 -0.061905	 -0.090228	 0.585270	 -0.103402	 0.799141	 2
1462091858.037	 11	 -1.231285	 -5.072230	 3.463862	 1.213461	 -0.240505	 -0.034745	 -0.088703	 0.567693	 -0.082559	 0.814273	 2
1462091858.047	 11	 0.281028	 -5.288022	 3.212087	 1.163900	 -0.210407	 -0.021207	 -0.081924	 0.547515	 -0.066525	 0.830115	 2
1462091858.057	 11	 1.743918	 -5.277728	 2.876520	 1.111086	 -0.177651	 -0.021336	 -0.069760	 0.526100	 -0.055811	 0.845717	 2
1462091858.067	 11	 2.897807	 -5.420503	 2.575257	 1.055711	 -0.141924	 -0.032407	 -0.053103	 0.503341	 -0.049670	 0.861023	 2
1462091858.077	 11	 3.271624	 -6.003657	 2.538866	 0.995556	 -0.103444	 -0.047375	 -0.034118	 0.477778	 -0.045461	 0.876640	 2
1462091858.087	 11	 2.230168	 -6.150166	 2.741605	 0.933013	 -0.067028	 -0.052763	 -0.018059	 0.450149	 -0.038612	 0.891935	 2
1462091858.097	 11	 1.619945	 -4.878384	 2.894104	 0.880630	 -0.033884	 -0.048756	 -0.004933	 0.426410	 -0.029266	 0.904043	 2
1462091858.107	 11	 1.538047	 -3.391839	 2.808468	 0.843392	 -0.002177	 -0.041752	 0.007551	 0.409240	 -0.019491	 0.912187	 2
1462091858.117	 11	 1.715745	 -2.493277	 2.414556	 0.816531	 0.027572	 -0.036987	 0.019992	 0.396678	 -0.011499	 0.917668	 2
1462091858.127	 11	 1.990541	 -1.956547	 2.178427	 0.795704	 0.056900	 -0.035513	 0.033097	 0.386755	 -0.005343	 0.921573	 2
1462091858.137	 11	 2.151241	 -1.591199	 2.169770	 0.778948	 0.087190	 -0.035264	 0.046999	 0.378571	 0.000250	 0.924378	 2
1462091858.147	 11	 2.246958	 -1.458324	 2.197883	 0.764054	 0.118378	 -0.035006	 0.061395	 0.371132	 0.005838	 0.926530	 2
1462091858.167	 12	 3.035356	 -0.814122	 2.175698	 0.743894	 0.187472	 -0.039942	 0.094407	 0.360021	 0.015487	 0.928026	 2
1462091858.177	 12	 3.483634	 -0.616184	 2.224793	 0.738684	 0.227303	 -0.046600	 0.114087	 0.356112	 0.019342	 0.927251	 2
1462091858.187	 12	 3.714647	 -0.568492	 2.294631	 0.734969	 0.269837	 -0.054665	 0.135211	 0.352441	 0.023034	 0.925728	 2
1462091858.197	 12	 3.659452	 -0.732119	 2.295721	 0.730514	 0.312633	 -0.062577	 0.156377	 0.348113	 0.026717	 0.923932	 2
1462091858.207	 12	 3.500650	 -1.055722	 2.194976	 0.723292	 0.353916	 -0.069919	 0.176722	 0.342321	 0.030065	 0.922324	 2
1462091858.217	 12	 3.218561	 -1.402129	 1.979991	 0.712547	 0.392148	 -0.076707	 0.195569	 0.334848	 0.032653	 0.921175	 2
1462091858.227	 12	 2.865132	 -1.658404	 1.698256	 0.699055	 0.426138	 -0.082942	 0.212380	 0.326185	 0.034282	 0.920501	 2
1462091858.237	 12	 2.476624	 -1.909055	 1.444589	 0.682881	 0.455549	 -0.088272	 0.226960	 0.316491	 0.035037	 0.920378	 2
1462091858.247	 12	 2.109627	 -2.184772	 1.262974	 0.663542	 0.480866	 -0.092232	 0.239482	 0.305633	 0.035146	 0.920870	 2
1462091858.257	 12	 1.790760	 -2.484688	 1.137200	 0.640534	 0.502743	 -0.094567	 0.250234	 0.293426	 0.034766	 0.921995	 2
1462091858.267	 12	 1.582231	 -2.764129	 1.092719	 0.613978	 0.522407	 -0.095287	 0.259794	 0.279884	 0.034091	 0.923585	 2
1462091858.277	 12	 1.461919	 -2.907567	 1.064722	 0.584836	 0.540705	 -0.094772	 0.268606	 0.265372	 0.033192	 0.925379	 2
1462091858.287	 12	 1.429319	 -2.816964	 1.078638	 0.555495	 0.558530	 -0.093222	 0.277078	 0.250930	 0.032426	 0.926936	 2
1462091858.297	 12	 1.498717	 -2.597945	 1.094992	 0.527800	 0.576808	 -0.091149	 0.285684	 0.237305	 0.031949	 0.927928	 2
1462091858.307	 12	 1.610905	 -2.358829	 1.113293	 0.502339	 0.596020	 -0.088900	 0.294681	 0.224710	 0.031759	 0.928256	 2
1462091858.317	 12	 1.759288	 -2.134743	 1.126875	 0.479176	 0.616491	 -0.086693	 0.304243	 0.213134	 0.031816	 0.927900	 2
1462091858.327	 12	 1.917136	 -1.929918	 1.128472	 0.458185	 0.638338	 -0.084716	 0.314436	 0.202491	 0.032037	 0.926877	 2
1462091858.337	 12	 2.047181	 -1.734606	 1.127026	 0.439273	 0.661400	 -0.082938	 0.325176	 0.192754	 0.032415	 0.925233	 2
1462091858.347	 12	 2.133473	 -1.534946	 1.120672	 0.422363	 0.685304	 -0.081180	 0.336263	 0.183936	 0.032999	 0.923042	 2
1462091858.367	 13	 2.191529	 -1.302348	 0.951809	 0.393345	 0.733374	 -0.079392	 0.358575	 0.168319	 0.033670	 0.917583	 2
1462091858.377	 13	 2.191225	 -1.120643	 0.927924	 0.381338	 0.757197	 -0.078954	 0.369587	 0.161635	 0.033987	 0.914398	 2
1462091858.387	 13	 2.102217	 -0.989528	 0.932051	 0.370425	 0.780463	 -0.077757	 0.380234	 0.155649	 0.034668	 0.911040	 2
1462091858.397	 13	 1.873199	 -1.041698	 0.832312	 0.359015	 0.801641	 -0.076088	 0.389879	 0.149673	 0.035156	 0.907941	 2
1462091858.407	 13	 1.593260	 -1.172083	 0.633173	 0.346918	 0.819619	 -0.075078	 0.398120	 0.143459	 0.034812	 0.905377	 2
1462091858.417	 13	 1.345808	 -1.373241	 0.368081	 0.334383	 0.834320	 -0.075937	 0.405003	 0.136868	 0.033156	 0.903405	 2
1462091858.427	 13	 1.149469	 -1.594784	 0.099156	 0.321517	 0.846164	 -0.079356	 0.410750	 0.129762	 0.029964	 0.901969	 2
1462091858.437	 13	 0.960175	 -1.710789	 -0.133677	 0.309025	 0.855510	 -0.085252	 0.415482	 0.122438	 0.025472	 0.900963	 2
1462091858.447	 13	 0.722960	 -1.638940	 -0.295070	 0.297931	 0.862237	 -0.092627	 0.419058	 0.115558	 0.020359	 0.900345	 2
1462091858.457	 13	 0.438561	 -1.439945	 -0.396253	 0.288926	 0.866050	 -0.100428	 0.421283	 0.109666	 0.015247	 0.900145	 2
1462091858.477	 14	 -0.026086	 -0.912631	 -0.323355	 0.276259	 0.866281	 -0.112741	 0.422106	 0.101355	 0.007050	 0.900835	 2
1462091858.487	 14	 -0.084584	 -0.769919	 -0.174442	 0.270532	 0.864928	 -0.115724	 0.421666	 0.098218	 0.004398	 0.901405	 2
1462091858.497	 14	 0.001902	 -0.655320	 -0.030251	 0.264271	 0.864486	 -0.116470	 0.421516	 0.095262	 0.002709	 0.901799	 2
1462091858.507	 14	 0.235274	 -0.547121	 0.024144	 0.258854	 0.866161	 -0.116923	 0.422293	 0.092635	 0.001482	 0.901713	 2
1462091858.517	 14	 0.534841	 -0.384227	 0.020920	 0.255671	 0.870670	 -0.118368	 0.424378	 0.090654	 0.000474	 0.900935	 2
1462091858.527	 14	 0.775846	 -0.184013	 0.006829	 0.255381	 0.877692	 -0.121072	 0.427638	 0.089569	 -0.000312	 0.899502	 2
1462091858.537	 14	 0.915206	 -0.050414	 0.005793	 0.257293	 0.886262	 -0.124510	 0.431614	 0.089221	 -0.000840	 0.897635	 2
1462091858.547	 14	 1.005864	 -0.063427	 0.008080	 0.259804	 0.895812	 -0.128417	 0.436037	 0.088964	 -0.001364	 0.895520	 2
1462091858.567	 15	 0.869400	 -0.262967	 0.010609	 0.262096	 0.914523	 -0.135872	 0.444657	 0.087265	 -0.002829	 0.891435	 2
1462091858.577	 15	 0.617266	 -0.315466	 0.002724	 0.261293	 0.921153	 -0.138740	 0.447706	 0.085874	 -0.003799	 0.890040	 2
1462091858.587	 15	 0.352580	 -0.335831	 0.020825	 0.259230	 0.925206	 -0.140273	 0.449553	 0.084370	 -0.004647	 0.889248	 2
1462091858.597	 15	 0.188915	 -0.435180	 0.041575	 0.255462	 0.927428	 -0.140605	 0.450537	 0.082488	 -0.005480	 0.888922	 2
1462091858.607	 15	 0.162152	 -0.670235	 0.031095	 0.249492	 0.929091	 -0.140701	 0.451255	 0.079714	 -0.006749	 0.888802	 2
1462091858.617	 15	 0.218368	 -0.951347	 0.009872	 0.241118	 0.931078	 -0.141276	 0.452120	 0.075747	 -0.008757	 0.888692	 2
1462091858.627	 15	 0.274019	 -1.137697	 0.002324	 0.230880	 0.933648	 -0.142248	 0.453236	 0.070830	 -0.011330	 0.888500	 2
1462091858.637	 16	 0.225146	 -1.089708	 -0.000001	 0.220466	 0.936063	 -0.143190	 0.454267	 0.065852	 -0.013952	 0.888319	 2
1462091858.657	 16	 -0.263772	 -0.426851	 -0.019417	 0.205510	 0.934906	 -0.142131	 0.453608	 0.059511	 -0.016949	 0.889051	 2
1462091858.667	 16	 -0.569905	 -0.088426	 -0.115916	 0.203701	 0.929895	 -0.142006	 0.451376	 0.059008	 -0.017610	 0.890207	 2
1462091858.677	 16	 -0.821839	 0.128163	 -0.124496	 0.204123	 0.922121	 -0.141499	 0.447926	 0.059731	 -0.017765	 0.891896	 2
1462091858.697	 17	 -0.837232	 -0.037114	 -0.041705	 0.203374	 0.904828	 -0.138221	 0.440147	 0.061050	 -0.017518	 0.895677	 2
1462091858.707	 17	 -0.768779	 -0.223510	 -0.050430	 0.200171	 0.897049	 -0.136388	 0.436599	 0.060426	 -0.017866	 0.897447	 2
1462091858.717	 17	 -0.711886	 -0.329403	 -0.109462	 0.196387	 0.889758	 -0.135532	 0.433285	 0.059290	 -0.018736	 0.899110	 2
1462091858.727	 17	 -0.668688	 -0.365338	 -0.207156	 0.193374	 0.882765	 -0.136273	 0.430151	 0.058133	 -0.020127	 0.900658	 2
1462091858.737	 17	 -0.627387	 -0.368146	 -0.284277	 0.191344	 0.876011	 -0.138504	 0.427169	 0.057087	 -0.021959	 0.902101	 2
1462091858.757	 18	 -0.843181	 0.046188	 -0.294602	 0.203657	 0.853792	 -0.151343	 0.417719	 0.061126	 -0.026490	 0.906131	 2
1462091858.767	 18	 -0.872089	 0.166142	 -0.191987	 0.205493	 0.844862	 -0.151982	 0.413742	 0.062319	 -0.026950	 0.907859	 2
