% Gyrometer data recorded with 'snsrlog'
% 
% 
% Label description:
% 	 0: Default Label
% 	 1: still_drop
% 	 2: walk_drop
% 	 3: other
% 	 4: dtw_same
% 	 5: dtw_diff
% 	 6: delete
% 	 7: steal
% 
% Column description:
% 	 1: Seconds.milliseconds since 1970
% 	 2: Number of skipped measurements
% 	 3: Gyro X
% 	 4: Gyro Y
% 	 5: Gyro Z
% 	 6: Roll of the device
% 	 7: Pitch of the device
% 	 8: Yaw of the device
% 	 9: Quaternion X
% 	 10: Quaternion Y
% 	 11: Quaternion Z
% 	 12: Quaternion W
% 	 13: Label used for the current sample
% 
% 
1463624168.491	 0	 -0.438519	 -0.183182	 -0.129273	 0.094764	 0.759045	 -0.076972	 0.371480	 0.029723	 -0.018164	 0.927787	 1
1463624168.501	 0	 -0.384339	 -0.067964	 -0.059398	 0.094211	 0.755036	 -0.077553	 0.369626	 0.029465	 -0.018652	 0.928526	 1
1463624168.511	 0	 -0.361199	 0.003945	 0.039120	 0.093648	 0.751410	 -0.076892	 0.367929	 0.029422	 -0.018554	 0.929203	 1
1463624168.521	 0	 -0.354533	 0.030764	 0.073416	 0.092916	 0.747945	 -0.075420	 0.366292	 0.029443	 -0.018104	 0.929858	 1
1463624168.531	 0	 -0.341752	 0.043335	 0.052106	 0.092534	 0.744566	 -0.074251	 0.364703	 0.029566	 -0.017726	 0.930486	 1
1463624168.541	 0	 -0.331938	 0.051069	 0.095789	 0.092001	 0.741310	 -0.072732	 0.363162	 0.029677	 -0.017207	 0.931094	 1
1463624168.551	 0	 -0.324282	 0.027131	 0.171169	 0.090739	 0.738208	 -0.070294	 0.361672	 0.029609	 -0.016387	 0.931691	 1
1463624168.561	 0	 -0.346974	 -0.089293	 0.238472	 0.093598	 0.734959	 -0.070716	 0.360190	 0.030945	 -0.016158	 0.932226	 1
1463624168.571	 0	 -0.400749	 -0.214322	 0.282539	 0.088976	 0.731373	 -0.066585	 0.358421	 0.029619	 -0.015160	 0.932967	 1
1463624168.581	 0	 -0.472599	 -0.308596	 0.306800	 0.083080	 0.727100	 -0.062040	 0.356321	 0.027776	 -0.014203	 0.933843	 1
1463624168.591	 0	 -0.559412	 -0.382833	 0.301536	 0.076347	 0.722004	 -0.057393	 0.353834	 0.025563	 -0.013349	 0.934864	 1
1463624168.601	 0	 -0.673858	 -0.415658	 0.275583	 0.069395	 0.715798	 -0.053059	 0.350835	 0.023194	 -0.012683	 0.936064	 1
1463624168.611	 0	 -0.805093	 -0.420498	 0.288404	 0.062321	 0.708271	 -0.048661	 0.347220	 0.020781	 -0.012007	 0.937477	 1
1463624168.621	 0	 -0.925743	 -0.448725	 0.307310	 0.054904	 0.699508	 -0.043987	 0.343022	 0.018247	 -0.011249	 0.939083	 1
1463624168.631	 0	 -1.031692	 -0.483756	 0.273802	 0.047326	 0.689600	 -0.039609	 0.338289	 0.015572	 -0.010636	 0.940853	 1
1463624168.641	 0	 -1.096923	 -0.432137	 0.178932	 0.040780	 0.678862	 -0.036347	 0.333176	 0.013173	 -0.010345	 0.942716	 1
1463624168.651	 0	 -1.101174	 -0.330862	 0.062677	 0.036123	 0.667859	 -0.034625	 0.327951	 0.011387	 -0.010434	 0.944568	 1
1463624168.661	 0	 -1.043421	 -0.211643	 -0.047556	 0.033562	 0.657245	 -0.034417	 0.322920	 0.010327	 -0.010870	 0.946308	 1
1463624168.671	 0	 -0.938620	 -0.087124	 -0.141097	 0.033050	 0.647559	 -0.035514	 0.318336	 0.010015	 -0.011575	 0.947854	 1
1463624168.681	 0	 -0.801805	 0.015156	 -0.208479	 0.034203	 0.639140	 -0.037580	 0.314362	 0.010330	 -0.012464	 0.949165	 1
1463624168.691	 0	 -0.670377	 0.088888	 -0.254765	 0.036541	 0.632035	 -0.040314	 0.311019	 0.011098	 -0.013478	 0.950243	 1
1463624168.701	 0	 -0.558039	 0.161837	 -0.269985	 0.039753	 0.626091	 -0.043348	 0.308234	 0.012232	 -0.014496	 0.951121	 1
1463624168.711	 0	 -0.475352	 0.267981	 -0.266520	 0.043920	 0.621053	 -0.046395	 0.305889	 0.013816	 -0.015373	 0.951843	 1
1463624168.721	 0	 -0.437187	 0.428575	 -0.252569	 0.049441	 0.616501	 -0.049288	 0.303788	 0.016072	 -0.015976	 0.952470	 1
1463624168.731	 0	 -0.432927	 0.629784	 -0.225155	 0.056698	 0.612069	 -0.051850	 0.301758	 0.019213	 -0.016171	 0.953054	 1
1463624168.741	 0	 -0.437171	 0.836352	 -0.195486	 0.065783	 0.607591	 -0.053995	 0.299720	 0.023297	 -0.015910	 0.953610	 1
1463624168.751	 0	 -0.418110	 0.999301	 -0.157900	 0.076345	 0.603225	 -0.055663	 0.297743	 0.028166	 -0.015220	 0.954109	 1
1463624168.761	 0	 -0.355333	 1.149401	 -0.114419	 0.088101	 0.599405	 -0.056806	 0.296025	 0.033680	 -0.014111	 0.954482	 1
1463624168.771	 0	 -0.270211	 1.291935	 -0.078664	 0.101074	 0.596409	 -0.057512	 0.294696	 0.039830	 -0.012612	 0.954677	 1
1463624168.781	 0	 -0.161765	 1.418304	 -0.062446	 0.115243	 0.594460	 -0.058029	 0.293861	 0.046559	 -0.010833	 0.954652	 1
1463624168.791	 0	 -0.031135	 1.555797	 -0.116658	 0.130972	 0.593686	 -0.059049	 0.293596	 0.053934	 -0.009036	 0.954364	 1
1463624168.801	 0	 0.107702	 1.729574	 -0.297429	 0.149607	 0.594103	 -0.062182	 0.293964	 0.062353	 -0.007777	 0.953749	 1
1463624168.811	 0	 0.160188	 1.860532	 -0.404310	 0.170658	 0.594977	 -0.067122	 0.294623	 0.071636	 -0.006997	 0.952899	 1
1463624168.821	 0	 0.153560	 2.000219	 -0.358190	 0.193008	 0.595847	 -0.071934	 0.295293	 0.081544	 -0.005950	 0.951902	 1
1463624168.841	 1	 0.030063	 2.291813	 -0.092224	 0.239637	 0.596639	 -0.077165	 0.295997	 0.102912	 -0.001499	 0.949628	 1
1463624168.851	 1	 -0.059249	 2.451729	 0.069906	 0.263454	 0.596378	 -0.076730	 0.295845	 0.114287	 0.002215	 0.948372	 1
1463624168.861	 1	 -0.166583	 2.636172	 0.233487	 0.287832	 0.595564	 -0.074035	 0.295243	 0.126268	 0.007036	 0.947016	 1
1463624168.871	 1	 -0.252808	 2.774782	 0.392195	 0.312525	 0.594381	 -0.069112	 0.294235	 0.138722	 0.012914	 0.945524	 1
1463624168.881	 1	 -0.307466	 2.835510	 0.530719	 0.336937	 0.593171	 -0.062288	 0.292973	 0.151303	 0.019622	 0.943869	 1
1463624168.891	 1	 -0.365495	 2.890666	 0.632985	 0.361011	 0.591971	 -0.053926	 0.291469	 0.163922	 0.026977	 0.942044	 1
1463624168.901	 1	 -0.450281	 2.988996	 0.664479	 0.385449	 0.590400	 -0.044624	 0.289562	 0.176833	 0.034759	 0.940040	 1
1463624168.911	 1	 -0.542231	 3.002658	 0.604659	 0.410390	 0.588041	 -0.035292	 0.287120	 0.189978	 0.042507	 0.937904	 1
1463624168.921	 1	 -0.600529	 2.984738	 0.456858	 0.435501	 0.584674	 -0.026893	 0.284142	 0.203066	 0.049682	 0.935713	 1
1463624168.931	 1	 -0.538081	 3.112270	 0.175074	 0.463184	 0.580733	 -0.021231	 0.280979	 0.216948	 0.055811	 0.933204	 1
1463624168.941	 1	 -0.413599	 3.373791	 -0.231763	 0.495485	 0.576166	 -0.020070	 0.277786	 0.232335	 0.060338	 0.930169	 1
1463624168.951	 1	 -0.200052	 3.814150	 -0.728301	 0.534998	 0.570939	 -0.024760	 0.274711	 0.250241	 0.062973	 0.926254	 1
1463624168.961	 1	 0.092233	 4.254911	 -1.284138	 0.582695	 0.565001	 -0.036342	 0.271979	 0.270960	 0.063344	 0.921193	 1
1463624168.971	 1	 0.394268	 4.692747	 -1.799589	 0.638288	 0.557995	 -0.054803	 0.269652	 0.294344	 0.061364	 0.914814	 1
1463624168.981	 1	 0.596819	 5.101797	 -2.071447	 0.700295	 0.549829	 -0.077470	 0.267587	 0.320032	 0.058043	 0.906977	 1
1463624168.991	 1	 0.633443	 5.261537	 -2.175790	 0.764972	 0.540133	 -0.101160	 0.265386	 0.346726	 0.054244	 0.898003	 1
1463624169.001	 1	 0.553858	 5.199494	 -2.256672	 0.828900	 0.528196	 -0.124084	 0.262581	 0.373162	 0.050129	 0.888419	 1
1463624169.011	 1	 0.436105	 5.023248	 -2.407559	 0.890473	 0.513332	 -0.145943	 0.258869	 0.398751	 0.045394	 0.878592	 1
1463624169.021	 1	 0.282091	 4.701800	 -2.649006	 0.948453	 0.494752	 -0.166754	 0.253955	 0.423069	 0.039592	 0.868880	 1
1463624169.031	 1	 0.033089	 4.206793	 -2.955187	 1.000765	 0.471518	 -0.185936	 0.247365	 0.445449	 0.032380	 0.859847	 1
1463624169.041	 1	 -0.317591	 3.628237	 -3.236747	 1.045657	 0.443288	 -0.202156	 0.238647	 0.465412	 0.023923	 0.851978	 1
1463624169.051	 1	 -0.654962	 3.148626	 -3.508976	 1.083486	 0.410474	 -0.214879	 0.227743	 0.483173	 0.014529	 0.845261	 1
1463624169.061	 1	 -0.818430	 2.896021	 -3.794461	 1.116928	 0.373647	 -0.225542	 0.215110	 0.499631	 0.004020	 0.839095	 1
1463624169.071	 1	 -0.778077	 2.977792	 -3.942193	 1.149735	 0.334836	 -0.235488	 0.201863	 0.515981	 -0.007235	 0.832444	 1
1463624169.081	 1	 -0.607004	 3.354167	 -4.039296	 1.185351	 0.295338	 -0.245728	 0.188831	 0.533382	 -0.018980	 0.824310	 1
1463624169.091	 1	 -0.342279	 3.862491	 -4.090159	 1.225704	 0.255731	 -0.256873	 0.176524	 0.552448	 -0.031174	 0.814045	 1
1463624169.101	 1	 0.005810	 4.327566	 -4.057955	 1.270759	 0.216871	 -0.269307	 0.165520	 0.572963	 -0.043766	 0.801499	 1
1463624169.111	 1	 0.434338	 4.663600	 -4.040441	 1.319525	 0.178868	 -0.283710	 0.156172	 0.594370	 -0.057069	 0.786815	 1
1463624169.121	 1	 0.854606	 4.666233	 -4.094167	 1.369074	 0.140857	 -0.300423	 0.148292	 0.615486	 -0.071651	 0.770748	 1
1463624169.131	 1	 1.118070	 4.333409	 -4.269014	 1.415583	 0.101234	 -0.318524	 0.140932	 0.635011	 -0.087863	 0.754440	 1
1463624169.141	 1	 1.147142	 3.897746	 -4.492868	 1.456989	 0.058821	 -0.335935	 0.132884	 0.652426	 -0.105389	 0.738631	 1
1463624169.151	 1	 1.006112	 3.632472	 -4.756287	 1.494466	 0.013177	 -0.350809	 0.123353	 0.668326	 -0.123601	 0.723082	 1
1463624169.161	 1	 0.819854	 3.271688	 -5.008476	 1.527983	 -0.035716	 -0.362402	 0.111969	 0.682698	 -0.142258	 0.707919	 1
1463624169.171	 1	 0.645268	 3.046605	 -5.169980	 1.558385	 -0.086845	 -0.370683	 0.099018	 0.695711	 -0.160971	 0.693015	 1
1463624169.181	 1	 0.575630	 3.027335	 -5.215381	 1.587912	 -0.138970	 -0.376432	 0.085298	 0.707954	 -0.179489	 0.677723	 1
1463624169.191	 1	 0.666204	 3.154245	 -5.131859	 1.618299	 -0.190744	 -0.381171	 0.071942	 0.719817	 -0.197805	 0.661484	 1
1463624169.201	 1	 0.893220	 3.392081	 -4.950444	 1.650457	 -0.241168	 -0.386395	 0.059950	 0.731466	 -0.216038	 0.643965	 1
1463624169.211	 1	 1.195758	 3.523795	 -4.705661	 1.683713	 -0.289708	 -0.393186	 0.049871	 0.742633	 -0.234335	 0.625377	 1
1463624169.221	 1	 1.470956	 3.468801	 -4.404827	 1.715920	 -0.335981	 -0.401786	 0.041684	 0.752680	 -0.252607	 0.606568	 1
1463624169.231	 1	 1.676859	 3.375121	 -4.039803	 1.746422	 -0.379403	 -0.411900	 0.035345	 0.761512	 -0.270468	 0.587960	 1
1463624169.241	 1	 1.831759	 3.054393	 -3.617831	 1.773479	 -0.419373	 -0.423449	 0.030695	 0.768755	 -0.287611	 0.570397	 1
1463624169.251	 1	 1.904006	 2.399985	 -3.188653	 1.793878	 -0.455555	 -0.436165	 0.027129	 0.773693	 -0.303797	 0.555311	 1
1463624169.261	 1	 1.883433	 1.610033	 -2.861175	 1.805987	 -0.488381	 -0.449426	 0.023814	 0.776097	 -0.318956	 0.543483	 1
1463624169.271	 1	 1.770287	 0.865303	 -2.788254	 1.810383	 -0.519794	 -0.461857	 0.019498	 0.776273	 -0.333357	 0.534690	 1
1463624169.281	 1	 1.679128	 0.252435	 -2.710033	 1.808425	 -0.550394	 -0.473552	 0.014092	 0.774673	 -0.347188	 0.528340	 1
1463624169.291	 1	 1.539678	 -0.230194	 -2.585419	 1.801345	 -0.579505	 -0.484527	 0.007913	 0.771712	 -0.360176	 0.524091	 1
1463624169.301	 1	 1.384989	 -0.540554	 -2.471858	 1.791069	 -0.607033	 -0.494520	 0.001158	 0.767938	 -0.372192	 0.521290	 1
1463624169.311	 1	 1.191860	 -0.836078	 -2.381271	 1.778337	 -0.633181	 -0.503185	 -0.006268	 0.763555	 -0.383206	 0.519709	 1
1463624169.321	 1	 0.868539	 -0.990086	 -2.189117	 1.765041	 -0.657092	 -0.509342	 -0.014183	 0.759088	 -0.392638	 0.519056	 1
1463624169.331	 1	 0.442425	 -1.071832	 -1.900543	 1.753210	 -0.677539	 -0.511497	 -0.022321	 0.755095	 -0.399752	 0.519164	 1
1463624169.341	 1	 0.085668	 -1.172776	 -1.591437	 1.742803	 -0.694256	 -0.509810	 -0.030481	 0.751559	 -0.404562	 0.520153	 1
1463624169.351	 1	 -0.119632	 -1.250058	 -1.331388	 1.733058	 -0.707855	 -0.505775	 -0.038412	 0.748261	 -0.407684	 0.521942	 1
1463624169.361	 1	 -0.193863	 -1.305928	 -1.145819	 1.723339	 -0.719284	 -0.500898	 -0.045964	 0.745012	 -0.409825	 0.524298	 1
1463624169.371	 1	 -0.148895	 -1.374336	 -1.027482	 1.712552	 -0.729468	 -0.496647	 -0.053110	 0.741515	 -0.411643	 0.527148	 1
1463624169.381	 1	 -0.047358	 -1.421802	 -0.931823	 1.700299	 -0.738824	 -0.493890	 -0.059751	 0.737675	 -0.413487	 0.530371	 1
1463624169.391	 1	 0.094765	 -1.434527	 -0.869233	 1.686403	 -0.747643	 -0.493213	 -0.065812	 0.733458	 -0.415596	 0.533842	 1
1463624169.401	 1	 0.241395	 -1.374074	 -0.833712	 1.671464	 -0.756231	 -0.494738	 -0.071242	 0.729025	 -0.418118	 0.537238	 1
1463624169.411	 1	 0.381506	 -1.348609	 -0.785670	 1.655300	 -0.764513	 -0.498495	 -0.076058	 0.724343	 -0.421036	 0.540621	 1
1463624169.421	 1	 0.500595	 -1.270830	 -0.718840	 1.638366	 -0.772217	 -0.504263	 -0.080169	 0.719553	 -0.424232	 0.543915	 1
1463624169.431	 1	 0.576264	 -1.136429	 -0.635118	 1.621535	 -0.779095	 -0.511533	 -0.083497	 0.714893	 -0.427544	 0.546957	 1
1463624169.441	 1	 0.622361	 -0.954983	 -0.529387	 1.605656	 -0.784930	 -0.519818	 -0.085961	 0.710591	 -0.430830	 0.549597	 1
1463624169.451	 1	 0.659103	 -0.725605	 -0.417799	 1.591422	 -0.789555	 -0.528828	 -0.087449	 0.706834	 -0.434012	 0.551699	 1
1463624169.461	 1	 0.700349	 -0.437815	 -0.316364	 1.579349	 -0.793068	 -0.538567	 -0.087868	 0.703761	 -0.437161	 0.553073	 1
1463624169.471	 1	 0.760082	 -0.041894	 -0.256715	 1.570223	 -0.795746	 -0.549154	 -0.087089	 0.701580	 -0.440435	 0.553369	 1
1463624169.481	 1	 0.901078	 0.465852	 -0.290519	 1.564863	 -0.798516	 -0.561481	 -0.084927	 0.700512	 -0.444373	 0.551908	 1
1463624169.491	 1	 1.052336	 0.633315	 -0.311746	 1.560556	 -0.801527	 -0.576134	 -0.081820	 0.699817	 -0.449049	 0.549470	 1
1463624169.501	 1	 1.102976	 0.482368	 -0.279487	 1.554392	 -0.804299	 -0.591974	 -0.078653	 0.698659	 -0.453892	 0.547422	 1
1463624169.511	 1	 1.038822	 0.389536	 -0.199860	 1.547368	 -0.806310	 -0.607356	 -0.075599	 0.697264	 -0.458361	 0.545905	 1
1463624169.521	 1	 0.910767	 0.345632	 -0.145866	 1.541090	 -0.807605	 -0.621023	 -0.072744	 0.696019	 -0.462196	 0.544647	 1
1463624169.531	 1	 0.830256	 0.289119	 -0.197913	 1.535315	 -0.809103	 -0.633368	 -0.070325	 0.694848	 -0.465738	 0.543442	 1
1463624169.541	 1	 0.751083	 0.132035	 -0.330840	 1.528743	 -0.811747	 -0.644719	 -0.068866	 0.693391	 -0.469272	 0.542449	 1
1463624169.551	 1	 0.663904	 0.075062	 -0.448911	 1.522097	 -0.815655	 -0.654965	 -0.068284	 0.691849	 -0.472817	 0.541412	 1
1463624169.561	 1	 0.619523	 0.215184	 -0.504772	 1.516817	 -0.820287	 -0.664500	 -0.067904	 0.690645	 -0.476383	 0.539868	 1
1463624169.571	 1	 0.652766	 0.416615	 -0.434978	 1.513272	 -0.824511	 -0.674236	 -0.066910	 0.689932	 -0.479941	 0.537748	 1
1463624169.581	 1	 0.755044	 0.705649	 -0.283972	 1.511487	 -0.827328	 -0.685258	 -0.064552	 0.689763	 -0.483536	 0.535026	 1
1463624169.591	 1	 0.855058	 0.981803	 -0.150119	 1.511496	 -0.828623	 -0.697696	 -0.060726	 0.690133	 -0.487172	 0.531688	 1
1463624169.601	 1	 0.889364	 1.194823	 -0.095147	 1.513322	 -0.829154	 -0.710882	 -0.055918	 0.690993	 -0.490847	 0.527703	 1
1463624169.611	 1	 0.846958	 1.237636	 -0.075196	 1.516206	 -0.829461	 -0.723670	 -0.050896	 0.692089	 -0.494359	 0.523480	 1
1463624169.621	 1	 0.781846	 1.220928	 -0.058798	 1.519700	 -0.829654	 -0.735524	 -0.045993	 0.693285	 -0.497581	 0.519282	 1
1463624169.631	 1	 0.739927	 1.166729	 -0.069595	 1.523349	 -0.829910	 -0.746635	 -0.041320	 0.694468	 -0.500596	 0.515180	 1
1463624169.641	 1	 0.711350	 1.052474	 -0.142882	 1.526236	 -0.830881	 -0.757378	 -0.037211	 0.695413	 -0.503643	 0.511235	 1
1463624169.651	 1	 0.685747	 0.907217	 -0.236732	 1.528023	 -0.832707	 -0.767767	 -0.033800	 0.696040	 -0.506757	 0.507527	 1
1463624169.661	 1	 0.662324	 0.743055	 -0.296673	 1.528385	 -0.835271	 -0.777884	 -0.031106	 0.696282	 -0.509932	 0.504176	 1
1463624169.671	 1	 0.630523	 0.569716	 -0.305469	 1.527296	 -0.838056	 -0.787604	 -0.029000	 0.696143	 -0.513017	 0.501356	 1
1463624169.681	 1	 0.593530	 0.401927	 -0.284327	 1.524869	 -0.840688	 -0.796827	 -0.027359	 0.695659	 -0.515906	 0.499150	 1
1463624169.691	 1	 0.537461	 0.250252	 -0.249015	 1.521441	 -0.843005	 -0.805304	 -0.026131	 0.694916	 -0.518511	 0.497550	 1
1463624169.701	 1	 0.476903	 0.066555	 -0.231013	 1.516936	 -0.845077	 -0.812863	 -0.025422	 0.693894	 -0.520809	 0.496611	 1
1463624169.711	 1	 0.420365	 -0.119714	 -0.272753	 1.511121	 -0.847418	 -0.819620	 -0.025440	 0.692542	 -0.522946	 0.496252	 1
1463624169.721	 1	 0.383094	 -0.233172	 -0.386455	 1.504340	 -0.850698	 -0.825835	 -0.026251	 0.690952	 -0.525141	 0.496108	 1
1463624169.731	 1	 0.404959	 -0.233172	 -0.524129	 1.497013	 -0.855329	 -0.832372	 -0.027598	 0.689246	 -0.527697	 0.495696	 1
1463624169.741	 1	 0.474596	 -0.118998	 -0.591882	 1.489697	 -0.860755	 -0.840015	 -0.028870	 0.687577	 -0.530681	 0.494754	 1
1463624169.751	 1	 0.556460	 0.056132	 -0.609083	 1.482968	 -0.866336	 -0.849003	 -0.029600	 0.686091	 -0.534015	 0.493185	 1
1463624169.761	 1	 0.648034	 0.229316	 -0.597611	 1.476813	 -0.871767	 -0.859514	 -0.029621	 0.684784	 -0.537671	 0.491022	 1
1463624169.771	 1	 0.710504	 0.350388	 -0.597028	 1.471082	 -0.877033	 -0.871253	 -0.029070	 0.683614	 -0.541571	 0.488394	 1
1463624169.781	 1	 0.762829	 0.386149	 -0.631255	 1.465121	 -0.882428	 -0.883911	 -0.028335	 0.682417	 -0.545685	 0.485522	 1
1463624169.791	 1	 0.834253	 0.412164	 -0.681726	 1.458369	 -0.888187	 -0.897890	 -0.027522	 0.681070	 -0.550145	 0.482417	 1
1463624169.801	 1	 0.894018	 0.454176	 -0.730880	 1.450926	 -0.894296	 -0.913079	 -0.026646	 0.679600	 -0.554913	 0.479067	 1
1463624169.811	 1	 0.956175	 0.576789	 -0.811279	 1.443449	 -0.900975	 -0.929619	 -0.025562	 0.678175	 -0.560063	 0.475136	 1
1463624169.821	 1	 0.988496	 0.706952	 -0.889215	 1.436328	 -0.908325	 -0.947202	 -0.024305	 0.676890	 -0.565529	 0.470538	 1
1463624169.831	 1	 0.994770	 0.930082	 -0.918101	 1.430665	 -0.916040	 -0.965355	 -0.022606	 0.675989	 -0.571139	 0.465111	 1
1463624169.851	 2	 0.892649	 1.253306	 -0.681868	 1.426082	 -0.929256	 -1.000505	 -0.016900	 0.675696	 -0.581528	 0.452741	 1
1463624169.861	 2	 0.700010	 1.153580	 -0.431730	 1.427005	 -0.933103	 -1.014212	 -0.013410	 0.676140	 -0.585289	 0.447317	 1
1463624169.871	 2	 0.438552	 0.892829	 -0.120677	 1.429504	 -0.934373	 -1.023110	 -0.010133	 0.676794	 -0.587504	 0.443493	 1
1463624169.881	 2	 0.182197	 0.536733	 0.244863	 1.432808	 -0.932545	 -1.026815	 -0.007238	 0.677475	 -0.588024	 0.441818	 1
1463624169.891	 2	 0.011326	 0.211998	 0.584535	 1.434405	 -0.912111	 -1.027671	 0.000995	 0.677043	 -0.584665	 0.446966	 1
1463624169.901	 2	 -0.046216	 0.007750	 0.849576	 1.436752	 -0.904357	 -1.025365	 0.003735	 0.677257	 -0.582779	 0.449085	 1
1463624169.911	 2	 -0.080336	 -0.134453	 1.026533	 1.438276	 -0.894646	 -1.022126	 0.006632	 0.677209	 -0.580313	 0.452306	 1
1463624169.921	 2	 -0.112842	 -0.261789	 1.054406	 1.438994	 -0.884281	 -1.018229	 0.009309	 0.676951	 -0.577554	 0.456159	 1
1463624169.931	 2	 -0.060873	 -0.403658	 0.872520	 1.437792	 -0.875148	 -1.015063	 0.011230	 0.676298	 -0.575169	 0.460082	 1
1463624169.941	 2	 0.039363	 -0.560869	 0.501430	 1.433306	 -0.869148	 -1.014004	 0.011779	 0.675002	 -0.573851	 0.463604	 1
1463624169.951	 2	 0.150856	 -0.534622	 0.059478	 1.426641	 -0.867298	 -1.015530	 0.011059	 0.673359	 -0.573905	 0.465937	 1
1463624169.961	 2	 0.213876	 -0.511333	 -0.223281	 1.418762	 -0.868646	 -1.018981	 0.009461	 0.671568	 -0.574995	 0.467213	 1
1463624169.971	 2	 0.242304	 -0.296859	 -0.293111	 1.431844	 -0.888227	 -1.007865	 0.002298	 0.675508	 -0.575916	 0.460440	 1
1463624169.981	 2	 0.259049	 0.019554	 -0.214643	 1.427717	 -0.890252	 -1.012415	 0.001902	 0.674638	 -0.577332	 0.459943	 1
1463624169.991	 2	 0.276773	 0.270425	 -0.080309	 1.426306	 -0.890999	 -1.016958	 0.002753	 0.674340	 -0.578511	 0.458893	 1
1463624170.001	 2	 0.295466	 0.497916	 0.056997	 1.427199	 -0.890351	 -1.021463	 0.004768	 0.674508	 -0.579426	 0.457473	 1
1463624170.011	 2	 0.336381	 0.702855	 0.173650	 1.430048	 -0.888433	 -1.026245	 0.007910	 0.675058	 -0.580167	 0.455675	 1
1463624170.021	 2	 0.366111	 0.828861	 0.254496	 1.434082	 -0.885595	 -1.031380	 0.011853	 0.675822	 -0.580808	 0.453636	 1
1463624170.031	 2	 0.386812	 0.874916	 0.306967	 1.438671	 -0.882182	 -1.036695	 0.016231	 0.676667	 -0.581368	 0.451520	 1
1463624170.041	 2	 0.455831	 0.773907	 0.339530	 1.442070	 -0.878296	 -1.042827	 0.020713	 0.677193	 -0.582021	 0.449702	 1
1463624170.051	 2	 0.503635	 0.488829	 0.354579	 1.442378	 -0.874187	 -1.049777	 0.024653	 0.676984	 -0.582842	 0.448754	 1
1463624170.061	 2	 0.514807	 0.111482	 0.391470	 1.439034	 -0.869769	 -1.056939	 0.027711	 0.675915	 -0.583703	 0.449067	 1
1463624170.071	 2	 0.501545	 -0.270862	 0.462631	 1.432034	 -0.864681	 -1.063765	 0.029826	 0.673969	 -0.584437	 0.450898	 1
1463624170.081	 2	 0.473783	 -0.533207	 0.501996	 1.422534	 -0.859094	 -1.070005	 0.031188	 0.671407	 -0.585012	 0.453873	 1
1463624170.091	 2	 0.429623	 -0.627665	 0.512159	 1.412291	 -0.853384	 -1.075440	 0.032101	 0.668643	 -0.585418	 0.457352	 1
1463624170.101	 2	 0.408705	 -0.543525	 0.519519	 1.402857	 -0.847595	 -1.080344	 0.033097	 0.666029	 -0.585701	 0.460721	 1
1463624170.111	 2	 0.394999	 -0.286058	 0.524165	 1.395833	 -0.841765	 -1.084902	 0.034695	 0.663941	 -0.585876	 0.463387	 1
1463624170.121	 2	 0.402819	 0.103493	 0.417948	 1.392380	 -0.836537	 -1.089581	 0.037155	 0.662694	 -0.586135	 0.464653	 1
1463624170.131	 2	 0.416238	 0.542181	 0.049963	 1.392509	 -0.834240	 -1.095231	 0.039908	 0.662452	 -0.587054	 0.463608	 1
1463624170.141	 2	 0.461196	 0.967260	 -0.421803	 1.395706	 -0.836494	 -1.102575	 0.042456	 0.663201	 -0.589064	 0.459745	 1
1463624170.151	 2	 0.576611	 1.315198	 -0.795785	 1.400740	 -0.842577	 -1.112396	 0.044974	 0.664575	 -0.592217	 0.453427	 1
1463624170.161	 2	 0.727196	 1.551171	 -1.048551	 1.406134	 -0.851196	 -1.125186	 0.047682	 0.666114	 -0.596398	 0.445339	 1
1463624170.171	 2	 0.853395	 1.682055	 -1.135825	 1.411225	 -0.860964	 -1.140410	 0.050721	 0.667571	 -0.601227	 0.436236	 1
1463624170.181	 2	 0.883624	 1.694199	 -1.062437	 1.415927	 -0.870321	 -1.156533	 0.054123	 0.668847	 -0.606089	 0.427048	 1
1463624170.191	 2	 0.736261	 1.563703	 -0.930214	 1.420975	 -0.878651	 -1.170880	 0.057437	 0.670129	 -0.610298	 0.418527	 1
1463624170.201	 2	 0.469048	 1.326459	 -0.753179	 1.426940	 -0.885830	 -1.181142	 0.060104	 0.671595	 -0.613373	 0.411244	 1
1463624170.211	 2	 0.270762	 1.102809	 -0.433805	 1.433837	 -0.890517	 -1.187160	 0.062552	 0.673162	 -0.615117	 0.405673	 1
1463624170.221	 2	 0.239031	 0.879864	 -0.096690	 1.440008	 -0.892017	 -1.191252	 0.065288	 0.674387	 -0.615979	 0.401883	 1
1463624170.231	 2	 0.320011	 0.612614	 0.190005	 1.443350	 -0.890421	 -1.195734	 0.068404	 0.674790	 -0.616518	 0.399856	 1
1463624170.241	 2	 0.376064	 0.277255	 0.461363	 1.443199	 -0.886024	 -1.200658	 0.071601	 0.674263	 -0.616824	 0.399713	 1
1463624170.251	 2	 0.385870	 -0.090256	 0.680602	 1.439507	 -0.879310	 -1.205413	 0.074480	 0.672839	 -0.616870	 0.401512	 1
1463624170.261	 2	 0.537457	 -0.317328	 0.962793	 1.432544	 -0.869914	 -1.210924	 0.077565	 0.670482	 -0.616792	 0.404974	 1
1463624170.271	 2	 0.519672	 -0.771827	 1.055704	 1.421429	 -0.858705	 -1.217157	 0.080258	 0.667038	 -0.616778	 0.410127	 1
1463624170.281	 2	 0.134842	 -1.161869	 1.088463	 1.409776	 -0.847664	 -1.218248	 0.081012	 0.663619	 -0.615785	 0.416959	 1
1463624170.291	 2	 -0.172508	 -1.285411	 1.234933	 1.400636	 -0.836124	 -1.213577	 0.080826	 0.660840	 -0.613406	 0.424842	 1
1463624170.301	 2	 -0.256416	 -1.324512	 1.382375	 1.392570	 -0.823278	 -1.206513	 0.080679	 0.658202	 -0.610236	 0.433443	 1
1463624170.311	 2	 -0.172400	 -1.083096	 1.559741	 1.386001	 -0.808746	 -1.199597	 0.081677	 0.655667	 -0.606723	 0.441947	 1
1463624170.321	 2	 -0.118114	 -0.710560	 1.619220	 1.382288	 -0.793149	 -1.193563	 0.084241	 0.653579	 -0.603063	 0.449503	 1
1463624170.331	 2	 -0.181536	 -0.348803	 1.611415	 1.382545	 -0.777579	 -1.187034	 0.087840	 0.652383	 -0.599065	 0.455852	 1
1463624170.341	 2	 -0.295557	 -0.068899	 1.589434	 1.386596	 -0.762418	 -1.179313	 0.092033	 0.652152	 -0.594612	 0.461155	 1
1463624170.351	 2	 -0.414820	 0.189047	 1.617386	 1.394130	 -0.747304	 -1.170118	 0.096743	 0.652827	 -0.589566	 0.465693	 1
1463624170.361	 2	 -0.602354	 0.441972	 1.658674	 1.405345	 -0.732006	 -1.159058	 0.101954	 0.654486	 -0.583749	 0.469565	 1
1463624170.371	 2	 -0.854173	 0.640841	 1.700018	 1.420620	 -0.716559	 -1.145098	 0.107383	 0.657313	 -0.576862	 0.472905	 1
1463624170.381	 2	 -1.032373	 0.732964	 1.864423	 1.438398	 -0.700050	 -1.128751	 0.113025	 0.660866	 -0.568891	 0.476283	 1
1463624170.391	 2	 -1.014964	 0.915776	 2.000259	 1.457473	 -0.681610	 -1.112194	 0.119528	 0.664685	 -0.560199	 0.479670	 1
1463624170.401	 2	 -0.843336	 1.058174	 2.052312	 1.476555	 -0.662254	 -1.098201	 0.127067	 0.668393	 -0.551695	 0.482429	 1
1463624170.411	 2	 -0.675980	 1.074212	 1.984926	 1.493982	 -0.642857	 -1.087065	 0.134984	 0.671617	 -0.543742	 0.484825	 1
1463624170.421	 2	 -0.615571	 1.108073	 1.838706	 1.510430	 -0.624499	 -1.077831	 0.142787	 0.674641	 -0.536332	 0.486641	 1
1463624170.431	 2	 -0.700230	 1.212076	 1.626193	 1.527656	 -0.608102	 -1.068465	 0.149953	 0.678098	 -0.529089	 0.487610	 1
1463624170.441	 2	 -0.687439	 1.276334	 1.545681	 1.545522	 -0.592813	 -1.059282	 0.156847	 0.681850	 -0.521930	 0.487923	 1
1463624170.451	 2	 -0.464520	 1.231178	 1.568899	 1.561725	 -0.577317	 -1.052567	 0.164114	 0.685030	 -0.515301	 0.488124	 1
1463624170.461	 2	 -0.206897	 1.156517	 1.497752	 1.575183	 -0.562061	 -1.049303	 0.171685	 0.687299	 -0.509663	 0.488250	 1
1463624170.471	 2	 0.043061	 1.155339	 1.289873	 1.586748	 -0.548596	 -1.049281	 0.179212	 0.688976	 -0.505311	 0.487705	 1
1463624170.481	 2	 0.156254	 1.145821	 1.050068	 1.597222	 -0.537511	 -1.051213	 0.186280	 0.690397	 -0.502045	 0.486419	 1
1463624170.491	 2	 0.154558	 1.179355	 0.834974	 1.607811	 -0.528755	 -1.053356	 0.192629	 0.692005	 -0.499341	 0.484440	 1
1463624170.501	 2	 0.083962	 1.231993	 0.731634	 1.619221	 -0.521308	 -1.054953	 0.198525	 0.693957	 -0.496704	 0.481972	 1
1463624170.511	 2	 -0.075136	 1.205931	 0.740237	 1.631286	 -0.513970	 -1.055114	 0.204018	 0.696202	 -0.493628	 0.479594	 1
1463624170.521	 2	 -0.374986	 1.096133	 0.878244	 1.643935	 -0.505471	 -1.052400	 0.209002	 0.698775	 -0.489444	 0.477992	 1
1463624170.531	 2	 -0.757649	 0.891388	 1.236701	 1.656490	 -0.493658	 -1.045927	 0.213688	 0.701443	 -0.483427	 0.478135	 1
1463624170.541	 2	 -1.068310	 0.633566	 1.784808	 1.667949	 -0.476442	 -1.036371	 0.218723	 0.703746	 -0.475236	 0.480679	 1
1463624170.551	 2	 -1.300816	 0.298111	 2.219608	 1.676952	 -0.453985	 -1.024932	 0.224129	 0.705250	 -0.465275	 0.485703	 1
1463624170.561	 2	 -1.547235	 -0.101528	 2.451437	 1.682635	 -0.428504	 -1.011521	 0.228963	 0.705928	 -0.454175	 0.492917	 1
1463624170.571	 2	 -1.778210	 -0.417876	 2.441978	 1.685484	 -0.402094	 -0.995875	 0.232599	 0.706082	 -0.442378	 0.501645	 1
1463624170.581	 2	 -1.986615	 -0.752810	 2.225392	 1.685714	 -0.377154	 -0.977896	 0.234325	 0.705971	 -0.430515	 0.511227	 1
1463624170.591	 2	 -2.075620	 -1.219956	 1.865855	 1.681633	 -0.355360	 -0.958325	 0.233559	 0.705195	 -0.419480	 0.521715	 1
1463624170.601	 2	 -2.022264	 -1.514861	 1.408632	 1.673752	 -0.337943	 -0.938472	 0.230542	 0.703797	 -0.409944	 0.532415	 1
1463624170.611	 2	 -1.894077	 -1.307099	 0.923461	 1.666108	 -0.325710	 -0.919271	 0.226194	 0.702793	 -0.401967	 0.541609	 1
1463624170.621	 2	 -1.544122	 -0.762204	 0.523692	 1.662307	 -0.317988	 -0.902482	 0.222042	 0.702921	 -0.395472	 0.547906	 1
1463624170.631	 2	 -0.927917	 -0.220300	 0.259061	 1.662383	 -0.313890	 -0.891359	 0.219477	 0.703793	 -0.391156	 0.550910	 1
1463624170.641	 2	 -0.191081	 0.050492	 0.057999	 1.663458	 -0.312458	 -0.887520	 0.218801	 0.704379	 -0.389540	 0.551574	 1
1463624170.651	 2	 0.491254	 0.258037	 -0.086691	 1.664501	 -0.313347	 -0.890910	 0.219909	 0.704376	 -0.390633	 0.550364	 1
1463624170.661	 2	 0.839332	 0.782144	 -0.127476	 1.667838	 -0.315154	 -0.899042	 0.222842	 0.704557	 -0.393049	 0.547224	 1
1463624170.671	 2	 0.750602	 1.776878	 -0.274114	 1.681051	 -0.318433	 -0.906987	 0.227189	 0.707556	 -0.394729	 0.540314	 1
1463624170.681	 2	 0.581028	 2.310797	 -0.344404	 1.700928	 -0.322353	 -0.913032	 0.232006	 0.712540	 -0.395276	 0.531240	 1
1463624170.691	 2	 0.419969	 2.794036	 -0.359820	 1.726272	 -0.326659	 -0.917367	 0.237199	 0.719074	 -0.394783	 0.520399	 1
1463624170.701	 2	 0.237865	 3.013371	 -0.254946	 1.755288	 -0.329909	 -0.919767	 0.242764	 0.726528	 -0.392942	 0.508743	 1
1463624170.711	 2	 0.069669	 3.089489	 -0.239984	 1.785709	 -0.332394	 -0.920486	 0.248217	 0.734291	 -0.390181	 0.496955	 1
1463624170.721	 2	 -0.143731	 3.304237	 -0.486582	 1.818766	 -0.336147	 -0.918555	 0.252787	 0.742932	 -0.386781	 0.484304	 1
1463624170.731	 2	 -0.311572	 3.608941	 -0.923511	 1.855636	 -0.343211	 -0.913499	 0.255889	 0.752880	 -0.383207	 0.469941	 1
1463624170.741	 2	 -0.434837	 4.062636	 -1.330666	 1.897853	 -0.353822	 -0.905426	 0.257775	 0.764350	 -0.379470	 0.453127	 1
1463624170.751	 2	 -0.542055	 4.272769	 -1.437551	 1.944097	 -0.365507	 -0.894945	 0.259123	 0.776631	 -0.375148	 0.434699	 1
1463624170.761	 2	 -0.444673	 3.673305	 -1.194588	 1.986425	 -0.375323	 -0.884931	 0.260362	 0.787427	 -0.370923	 0.417836	 1
1463624170.771	 2	 0.110740	 1.745070	 -0.663165	 2.009535	 -0.382116	 -0.881315	 0.261350	 0.792954	 -0.369551	 0.407863	 1
1463624170.781	 2	 0.792478	 -0.602135	 -0.069603	 2.006947	 -0.386703	 -0.886589	 0.261708	 0.791920	 -0.372580	 0.406885	 1
1463624170.801	 3	 0.604551	 -1.757872	 0.203705	 1.967584	 -0.390230	 -0.904202	 0.260232	 0.781653	 -0.382577	 0.418250	 1
1463624170.811	 3	 0.380404	 -1.520201	 0.180159	 1.949952	 -0.390068	 -0.909200	 0.258837	 0.777283	 -0.385862	 0.424198	 1
1463624170.821	 3	 0.412287	 -1.513152	 0.138382	 1.933332	 -0.390110	 -0.913712	 0.257355	 0.773155	 -0.388985	 0.429757	 1
1463624170.831	 3	 0.593732	 -1.957235	 0.134801	 1.912929	 -0.390709	 -0.919738	 0.255516	 0.767996	 -0.393107	 0.436303	 1
1463624170.841	 3	 0.837108	 -2.837652	 0.121293	 1.883705	 -0.391987	 -0.928101	 0.252552	 0.760564	 -0.399086	 0.445523	 1
1463624170.851	 3	 1.108132	 -3.684586	 0.042843	 1.844611	 -0.394380	 -0.939089	 0.248114	 0.750509	 -0.407239	 0.457528	 1
1463624170.861	 3	 1.339639	 -4.076262	 -0.047013	 1.799246	 -0.397800	 -0.952523	 0.242731	 0.738562	 -0.417010	 0.470861	 1
1463624170.871	 3	 1.547912	 -2.470533	 -0.300325	 1.762021	 -0.402972	 -0.967986	 0.238949	 0.728232	 -0.426767	 0.480053	 1
1463624170.881	 3	 1.129018	 0.646806	 -0.923114	 1.757110	 -0.412950	 -0.980297	 0.239254	 0.726354	 -0.433325	 0.476861	 1
1463624170.891	 3	 0.413433	 0.871054	 -0.796497	 1.765252	 -0.422698	 -0.984424	 0.239481	 0.728534	 -0.436267	 0.470700	 1
1463624170.901	 3	 0.280525	 -0.151071	 -0.263443	 1.765102	 -0.427141	 -0.986851	 0.238946	 0.728542	 -0.438192	 0.469169	 1
1463624170.911	 3	 0.082171	 -0.419133	 0.091754	 1.760441	 -0.427305	 -0.988376	 0.238427	 0.727278	 -0.439156	 0.470491	 1
1463624170.921	 3	 -0.138703	 -0.218422	 0.399287	 1.757778	 -0.423926	 -0.988104	 0.238801	 0.726425	 -0.438397	 0.472323	 1
1463624170.931	 3	 -0.267421	 -0.049808	 0.571433	 1.757580	 -0.418182	 -0.986595	 0.240007	 0.726117	 -0.436341	 0.474087	 1
1463624170.941	 3	 -0.277128	 -0.056293	 0.553339	 1.757893	 -0.412051	 -0.984717	 0.241310	 0.725940	 -0.434013	 0.475830	 1
1463624170.951	 3	 -0.188907	 -0.220468	 0.390113	 1.756737	 -0.407357	 -0.983297	 0.242010	 0.725467	 -0.432398	 0.477661	 1
1463624170.961	 3	 -0.078002	 -0.454695	 0.109870	 1.753089	 -0.405314	 -0.982560	 0.241593	 0.724521	 -0.432047	 0.479622	 1
1463624170.971	 3	 -0.034474	 -0.664734	 -0.235639	 1.747185	 -0.406729	 -0.981842	 0.239613	 0.723302	 -0.433010	 0.481583	 1
1463624170.981	 3	 -0.088271	 -0.671527	 -0.607185	 1.740997	 -0.411645	 -0.980122	 0.236103	 0.722406	 -0.434806	 0.483041	 1
1463624170.991	 3	 -0.143915	 -0.367945	 -1.006734	 1.737573	 -0.420348	 -0.977035	 0.231495	 0.722625	 -0.437060	 0.482910	 1
1463624171.001	 3	 -0.126442	 0.097760	 -1.460830	 1.739061	 -0.433363	 -0.973087	 0.226273	 0.724428	 -0.439814	 0.480176	 1
1463624171.011	 3	 -0.012021	 0.340556	 -1.960476	 1.743753	 -0.451389	 -0.969131	 0.220157	 0.727297	 -0.443699	 0.475081	 1
1463624171.021	 3	 0.128373	 0.320478	 -2.325310	 1.748592	 -0.473656	 -0.965800	 0.212950	 0.730306	 -0.448978	 0.468748	 1
1463624171.031	 3	 0.217484	 0.168631	 -2.548111	 1.752020	 -0.498596	 -0.962967	 0.204748	 0.732955	 -0.455300	 0.462122	 1
1463624171.041	 3	 0.233261	 0.046016	 -2.729504	 1.754142	 -0.525432	 -0.960027	 0.195584	 0.735262	 -0.462253	 0.455476	 1
1463624171.051	 3	 0.104023	 0.303319	 -2.794193	 1.758490	 -0.553100	 -0.955667	 0.186127	 0.738067	 -0.468876	 0.448072	 1
1463624171.061	 3	 0.028377	 0.735764	 -2.739419	 1.767971	 -0.580227	 -0.949857	 0.177512	 0.741895	 -0.474551	 0.439183	 1
1463624171.071	 3	 0.163082	 0.930718	 -2.641794	 1.779776	 -0.606606	 -0.944755	 0.169976	 0.745877	 -0.480007	 0.429382	 1
1463624171.081	 3	 0.417005	 1.010887	 -2.484460	 1.791079	 -0.632055	 -0.942337	 0.163658	 0.749242	 -0.485853	 0.419285	 1
1463624171.091	 3	 0.703577	 1.170141	 -2.261663	 1.801520	 -0.656051	 -0.943554	 0.159000	 0.751880	 -0.492119	 0.408918	 1
1463624171.101	 3	 0.975139	 1.537930	 -2.035729	 1.812750	 -0.678528	 -0.948584	 0.156509	 0.754168	 -0.498635	 0.397616	 1
1463624171.111	 3	 1.191527	 1.971841	 -1.807634	 1.826085	 -0.699394	 -0.956995	 0.156399	 0.756412	 -0.505134	 0.384993	 1
1463624171.121	 3	 1.320105	 2.177860	 -1.653367	 1.840537	 -0.719023	 -0.967712	 0.157915	 0.758498	 -0.511540	 0.371577	 1
1463624171.131	 3	 1.348205	 2.057325	 -1.689903	 1.854137	 -0.738677	 -0.978995	 0.159500	 0.760203	 -0.518007	 0.358217	 1
1463624171.141	 3	 1.322042	 1.632836	 -1.862016	 1.864563	 -0.759987	 -0.989285	 0.159429	 0.761266	 -0.524889	 0.345758	 1
1463624171.151	 3	 1.246154	 1.199789	 -1.914413	 1.871184	 -0.782146	 -0.998482	 0.157716	 0.761629	 -0.532003	 0.334695	 1
1463624171.161	 3	 1.108601	 0.843264	 -1.999662	 1.875299	 -0.804377	 -1.005655	 0.154560	 0.761631	 -0.538886	 0.325009	 1
1463624171.171	 3	 1.003372	 0.632726	 -2.180819	 1.878486	 -0.827776	 -1.010570	 0.149929	 0.761554	 -0.545691	 0.315876	 1
1463624171.181	 3	 0.921348	 0.577517	 -2.346878	 1.882132	 -0.852653	 -1.013454	 0.144185	 0.761572	 -0.552445	 0.306634	 1
1463624171.191	 3	 0.880673	 0.725049	 -2.552978	 1.888290	 -0.879295	 -1.014384	 0.137843	 0.761931	 -0.559109	 0.296408	 1
1463624171.201	 3	 0.873393	 0.942642	 -2.764042	 1.897551	 -0.907938	 -1.013876	 0.131215	 0.762588	 -0.565816	 0.284770	 1
1463624171.211	 3	 0.847309	 1.103026	 -2.804953	 1.909705	 -0.937179	 -1.012093	 0.124779	 0.763445	 -0.572283	 0.272166	 1
1463624171.221	 3	 0.834089	 1.050644	 -2.846890	 1.922921	 -0.966651	 -1.009132	 0.118187	 0.764194	 -0.578584	 0.259386	 1
1463624171.231	 3	 0.835510	 0.783783	 -2.978343	 1.935276	 -0.997101	 -1.004599	 0.110501	 0.764541	 -0.584995	 0.247077	 1
1463624171.241	 3	 0.873831	 0.485416	 -3.186080	 1.946085	 -1.029396	 -0.998382	 0.101203	 0.764332	 -0.591767	 0.235299	 1
1463624171.251	 3	 0.938045	 0.289769	 -3.445308	 1.956273	 -1.064171	 -0.990436	 0.090347	 0.763584	 -0.599004	 0.223542	 1
1463624171.261	 3	 0.939289	 0.306076	 -3.689227	 1.968991	 -1.101339	 -0.979372	 0.078393	 0.762604	 -0.606413	 0.211073	 1
1463624171.271	 3	 0.908507	 0.365518	 -3.718247	 1.985415	 -1.139229	 -0.964995	 0.066193	 0.761493	 -0.613617	 0.198044	 1
1463624171.281	 3	 0.817398	 0.354340	 -3.536375	 2.005089	 -1.175170	 -0.947503	 0.054563	 0.760330	 -0.620117	 0.185406	 1
1463624171.291	 3	 0.619959	 0.281963	 -3.183628	 2.028273	 -1.207716	 -0.925793	 0.043639	 0.759295	 -0.625568	 0.173870	 1
1463624171.301	 3	 0.314195	 0.214021	 -2.703071	 2.056068	 -1.234708	 -0.898584	 0.033940	 0.758792	 -0.629415	 0.164075	 1
1463624171.311	 3	 -0.031905	 0.327793	 -2.114961	 2.089857	 -1.254862	 -0.866015	 0.026300	 0.759192	 -0.631396	 0.155803	 1
1463624171.321	 3	 -0.309046	 0.585802	 -1.262866	 2.125634	 -1.266440	 -0.833760	 0.022012	 0.760560	 -0.631513	 0.149181	 1
1463624171.331	 3	 -0.294324	 0.551987	 -0.200744	 2.148450	 -1.268666	 -0.816420	 0.021983	 0.762075	 -0.630578	 0.145361	 1
1463624171.341	 3	 -0.132731	 -0.233096	 0.578142	 2.145219	 -1.264193	 -0.819389	 0.023348	 0.762530	 -0.629629	 0.146866	 1
1463624171.351	 3	 -0.011907	 -1.011783	 0.756353	 2.125927	 -1.257698	 -0.831168	 0.023599	 0.761979	 -0.629001	 0.152280	 1
1463624171.361	 3	 0.214757	 -1.706957	 0.613624	 2.095921	 -1.252804	 -0.846314	 0.021324	 0.760208	 -0.629236	 0.160283	 1
1463624171.371	 3	 0.471712	 -1.748030	 0.333907	 2.061261	 -1.251238	 -0.864071	 0.017601	 0.757415	 -0.630631	 0.168279	 1
1463624171.381	 3	 0.658571	 -1.291961	 0.086069	 2.028364	 -1.252807	 -0.883711	 0.014165	 0.754228	 -0.632963	 0.174060	 1
1463624171.391	 3	 0.704835	 -0.682255	 -0.006711	 2.001566	 -1.255810	 -0.903235	 0.012108	 0.751356	 -0.635577	 0.177087	 1
1463624171.401	 3	 0.620110	 -0.123344	 0.030135	 1.980550	 -1.258301	 -0.922611	 0.011922	 0.749063	 -0.638007	 0.178070	 1
1463624171.411	 3	 0.456844	 0.296498	 0.071699	 1.967532	 -1.259677	 -0.938456	 0.013267	 0.747642	 -0.639812	 0.177472	 1
1463624171.421	 3	 0.260224	 0.458821	 0.082382	 1.961977	 -1.260113	 -0.948846	 0.015234	 0.747026	 -0.640868	 0.176091	 1
1463624171.431	 3	 0.079702	 0.431901	 0.087951	 2.017475	 -1.259926	 -0.900699	 0.014964	 0.752226	 -0.636230	 0.170716	 1
1463624171.441	 3	 -0.063709	 0.315581	 0.123287	 2.020297	 -1.258781	 -0.901411	 0.016476	 0.752610	 -0.635994	 0.169761	 1
1463624171.451	 3	 -0.178576	 0.126984	 0.176886	 2.024089	 -1.256648	 -0.899277	 0.017521	 0.753229	 -0.635267	 0.169629	 1
1463624171.461	 3	 -0.244499	 -0.084166	 0.220257	 2.027273	 -1.253745	 -0.895589	 0.018016	 0.753914	 -0.634223	 0.170439	 1
1463624171.471	 3	 -0.281586	 -0.258386	 0.228377	 2.034546	 -1.264023	 -0.886141	 0.013682	 0.753228	 -0.635865	 0.167738	 1
1463624171.481	 3	 -0.286373	 -0.347891	 0.204139	 2.036312	 -1.260843	 -0.880805	 0.013183	 0.753846	 -0.634626	 0.169680	 1
1463624171.491	 3	 -0.251265	 -0.367360	 0.180120	 2.037412	 -1.258018	 -0.875837	 0.012502	 0.754358	 -0.633502	 0.171649	 1
1463624171.501	 3	 -0.168648	 -0.499488	 0.180302	 2.035412	 -1.255560	 -0.873036	 0.011545	 0.754538	 -0.632665	 0.173991	 1
1463624171.511	 3	 -0.143448	 -0.569933	 0.158034	 2.020765	 -1.261827	 -0.881423	 0.008186	 0.752370	 -0.635003	 0.175056	 1
1463624171.521	 3	 -0.115320	 -0.445946	 0.106721	 2.017757	 -1.260184	 -0.879444	 0.006981	 0.752333	 -0.634441	 0.177288	 1
1463624171.531	 3	 -0.046089	 -0.195596	 0.043436	 2.016337	 -1.259381	 -0.878269	 0.006330	 0.752318	 -0.634147	 0.178425	 1
1463624171.541	 3	 0.048117	 -0.116249	 0.023104	 2.014040	 -1.259256	 -0.879372	 0.006055	 0.752126	 -0.634222	 0.178976	 1
1463624171.551	 3	 0.111844	 -0.186581	 0.030421	 2.009251	 -1.259437	 -0.882689	 0.005728	 0.751663	 -0.634577	 0.179672	 1
1463624171.561	 3	 0.134981	 -0.265301	 0.038013	 2.002562	 -1.259658	 -0.887080	 0.005188	 0.751019	 -0.635044	 0.180727	 1
1463624171.571	 3	 0.116805	 -0.276909	 0.043392	 1.995760	 -1.259793	 -0.891323	 0.004579	 0.750375	 -0.635478	 0.181893	 1
1463624171.581	 3	 0.078440	 -0.276701	 0.056518	 1.989774	 -1.259679	 -0.894699	 0.003977	 0.749836	 -0.635772	 0.183099	 1
1463624171.591	 3	 0.017689	 -0.272164	 0.070944	 1.985209	 -1.259200	 -0.896612	 0.003389	 0.749474	 -0.635843	 0.184341	 1
1463624171.601	 3	 -0.046216	 -0.255932	 0.083374	 1.982480	 -1.258344	 -0.896739	 0.002832	 0.749329	 -0.635658	 0.185573	 1
1463624171.611	 3	 -0.098337	 -0.235435	 0.102137	 1.981317	 -1.257109	 -0.895438	 0.002352	 0.749378	 -0.635248	 0.186783	 1
1463624171.621	 3	 -0.132320	 -0.219215	 0.124965	 1.981133	 -1.255522	 -0.893286	 0.001974	 0.749562	 -0.634673	 0.187997	 1
1463624171.631	 3	 -0.151409	 -0.213670	 0.148629	 1.981374	 -1.253627	 -0.890779	 0.001690	 0.749826	 -0.633989	 0.189254	 1
1463624171.641	 3	 -0.153455	 -0.220885	 0.179487	 1.981391	 -1.251447	 -0.888463	 0.001494	 0.750103	 -0.633252	 0.190615	 1
1463624171.651	 3	 -0.151276	 -0.242992	 0.214422	 1.971763	 -1.250367	 -0.895170	 0.001290	 0.749311	 -0.633647	 0.192415	 1
1463624171.661	 3	 -0.145922	 -0.263010	 0.242965	 1.970505	 -1.247616	 -0.893768	 0.001212	 0.749528	 -0.632865	 0.194132	 1
1463624171.671	 3	 -0.134138	 -0.271400	 0.264099	 1.968590	 -1.244686	 -0.892948	 0.001200	 0.749700	 -0.632097	 0.195964	 1
1463624171.681	 3	 -0.117072	 -0.280954	 0.273454	 1.966020	 -1.241708	 -0.892718	 0.001219	 0.749809	 -0.631374	 0.197869	 1
1463624171.691	 3	 -0.089339	 -0.280027	 0.266779	 1.956662	 -1.243768	 -0.898950	 -0.000039	 0.748632	 -0.632478	 0.198803	 1
1463624171.701	 3	 -0.062640	 -0.263196	 0.251782	 1.953066	 -1.241134	 -0.899924	 0.000004	 0.748585	 -0.631962	 0.200613	 1
1463624171.711	 3	 -0.038117	 -0.251709	 0.232492	 1.949127	 -1.238764	 -0.901400	 0.000047	 0.748466	 -0.631559	 0.202316	 1
1463624171.721	 3	 -0.027513	 -0.239208	 0.200543	 1.945285	 -1.236716	 -0.902902	 0.000033	 0.748313	 -0.631237	 0.203881	 1
1463624171.731	 3	 -0.026432	 -0.207536	 0.166662	 1.943525	 -1.240988	 -0.902648	 -0.001947	 0.747639	 -0.632198	 0.203364	 1
1463624171.741	 3	 -0.027399	 -0.158843	 0.134084	 1.941033	 -1.239568	 -0.903464	 -0.001988	 0.747550	 -0.631951	 0.204455	 1
1463624171.751	 3	 -0.033643	 -0.106867	 0.112241	 1.939495	 -1.238356	 -0.903832	 -0.001958	 0.747533	 -0.631708	 0.205271	 1
1463624171.761	 3	 -0.034577	 -0.070769	 0.102994	 1.938568	 -1.237254	 -0.903980	 -0.001852	 0.747564	 -0.631469	 0.205895	 1
1463624171.771	 3	 -0.029164	 -0.050613	 0.097776	 1.936311	 -1.239130	 -0.905620	 -0.002537	 0.747119	 -0.632066	 0.205668	 1
1463624171.781	 3	 -0.022747	 -0.048497	 0.098805	 1.935468	 -1.238125	 -0.905998	 -0.002349	 0.747147	 -0.631874	 0.206159	 1
1463624171.791	 3	 -0.019530	 -0.051656	 0.105125	 1.931240	 -1.238907	 -0.909576	 -0.002593	 0.746627	 -0.632416	 0.206377	 1
1463624171.801	 3	 -0.017410	 -0.059081	 0.109283	 1.927218	 -1.239632	 -0.912908	 -0.002849	 0.746135	 -0.632920	 0.206609	 1
1463624171.811	 3	 -0.018465	 -0.065393	 0.118809	 1.923726	 -1.240061	 -0.915690	 -0.003052	 0.745730	 -0.633299	 0.206904	 1
1463624171.821	 3	 -0.019508	 -0.070626	 0.130483	 1.920248	 -1.239837	 -0.918405	 -0.003070	 0.745399	 -0.633525	 0.207407	 1
1463624171.831	 3	 -0.020540	 -0.071618	 0.140063	 1.917580	 -1.239616	 -0.920339	 -0.003126	 0.745149	 -0.633672	 0.207854	 1
1463624171.841	 3	 -0.016209	 -0.064138	 0.146475	 1.915325	 -1.239575	 -0.921947	 -0.003228	 0.744921	 -0.633826	 0.208197	 1
1463624171.851	 3	 -0.009759	 -0.058799	 0.151784	 1.913274	 -1.239362	 -0.923449	 -0.003252	 0.744733	 -0.633932	 0.208548	 1
1463624171.861	 3	 -0.003338	 -0.051400	 0.147520	 1.911907	 -1.239235	 -0.924387	 -0.003296	 0.744606	 -0.633999	 0.208797	 1
1463624171.871	 3	 0.002004	 -0.047182	 0.144301	 1.910441	 -1.239136	 -0.925472	 -0.003325	 0.744465	 -0.634088	 0.209028	 1
1463624171.881	 3	 0.006303	 -0.039753	 0.143255	 1.909364	 -1.238947	 -0.926266	 -0.003311	 0.744374	 -0.634127	 0.209234	 1
1463624171.891	 3	 0.007381	 -0.034457	 0.140085	 1.908448	 -1.238728	 -0.926964	 -0.003273	 0.744303	 -0.634150	 0.209419	 1
1463624171.901	 3	 0.009546	 -0.023852	 0.135890	 1.908481	 -1.238489	 -0.926857	 -0.003227	 0.744331	 -0.634086	 0.209512	 1
1463624171.911	 3	 0.013821	 -0.015404	 0.128459	 1.908602	 -1.238291	 -0.926760	 -0.003162	 0.744365	 -0.634032	 0.209557	 1
1463624171.921	 3	 0.018024	 -0.018686	 0.116656	 1.908906	 -1.238212	 -0.926481	 -0.003144	 0.744405	 -0.633986	 0.209556	 1
1463624171.931	 3	 0.019028	 -0.019848	 0.102770	 1.909113	 -1.238269	 -0.926267	 -0.003176	 0.744420	 -0.633976	 0.209530	 1
1463624171.941	 3	 0.012620	 -0.010334	 0.091180	 1.909889	 -1.238265	 -0.925559	 -0.003193	 0.744501	 -0.633902	 0.209467	 1
1463624171.951	 3	 0.002010	 0.008803	 0.085048	 1.911163	 -1.238101	 -0.924507	 -0.003128	 0.744650	 -0.633758	 0.209375	 1
1463624171.961	 3	 -0.002242	 0.017291	 0.079828	 1.912158	 -1.237853	 -0.923794	 -0.003000	 0.744780	 -0.633629	 0.209304	 1
1463624171.971	 3	 -0.001170	 0.022579	 0.075600	 1.913130	 -1.237547	 -0.923151	 -0.002835	 0.744913	 -0.633495	 0.209237	 1
1463624171.981	 3	 0.006303	 0.029952	 0.068138	 1.913934	 -1.237307	 -0.922755	 -0.002652	 0.745023	 -0.633401	 0.209134	 1
1463624171.991	 3	 0.012738	 0.041598	 0.062856	 1.914647	 -1.237081	 -0.922553	 -0.002431	 0.745121	 -0.633330	 0.209000	 1
1463624172.001	 3	 0.012755	 0.049015	 0.058658	 1.915193	 -1.236879	 -0.922597	 -0.002178	 0.745200	 -0.633290	 0.208843	 1
1463624172.011	 3	 0.008463	 0.048991	 0.053362	 1.915657	 -1.236705	 -0.922715	 -0.001932	 0.745268	 -0.633264	 0.208684	 1
1463624172.021	 3	 0.004172	 0.046855	 0.050178	 1.915823	 -1.236621	 -0.923081	 -0.001716	 0.745295	 -0.633283	 0.208531	 1
1463624172.031	 3	 0.002014	 0.043656	 0.048030	 1.915931	 -1.236644	 -0.923463	 -0.001547	 0.745304	 -0.633329	 0.208363	 1
1463624172.041	 3	 0.003052	 0.038327	 0.046900	 1.915621	 -1.236608	 -0.924193	 -0.001362	 0.745276	 -0.633396	 0.208258	 1
1463624172.051	 3	 0.005163	 0.033002	 0.046827	 1.914911	 -1.236676	 -0.925255	 -0.001212	 0.745195	 -0.633522	 0.208166	 1
1463624172.061	 3	 0.009423	 0.030861	 0.046764	 1.914074	 -1.236779	 -0.926420	 -0.001076	 0.745098	 -0.633665	 0.208078	 1
1463624172.071	 3	 0.013673	 0.026594	 0.046681	 1.913113	 -1.236909	 -0.927676	 -0.000954	 0.744984	 -0.633825	 0.207999	 1
1463624172.081	 3	 0.017939	 0.026572	 0.045573	 1.911953	 -1.236953	 -0.929122	 -0.000797	 0.744860	 -0.633984	 0.207961	 1
1463624172.091	 3	 0.021139	 0.027611	 0.043419	 1.910944	 -1.236957	 -0.930435	 -0.000629	 0.744755	 -0.634121	 0.207918	 1
1463624172.101	 3	 0.024336	 0.027594	 0.042322	 1.910189	 -1.236927	 -0.931524	 -0.000453	 0.744680	 -0.634228	 0.207863	 1
1463624172.111	 3	 0.028606	 0.028637	 0.041225	 1.909298	 -1.236925	 -0.932758	 -0.000276	 0.744588	 -0.634355	 0.207804	 1
1463624172.121	 3	 0.032887	 0.033920	 0.038037	 1.908529	 -1.236841	 -0.933928	 -0.000057	 0.744517	 -0.634458	 0.207744	 1
1463624172.131	 3	 0.036111	 0.042390	 0.033823	 1.907993	 -1.236764	 -0.934965	 0.000183	 0.744469	 -0.634549	 0.207638	 1
1463624172.141	 3	 0.038286	 0.053006	 0.031771	 1.907683	 -1.236604	 -0.935880	 0.000476	 0.744454	 -0.634608	 0.207511	 1
1463624172.151	 3	 0.037249	 0.060448	 0.030783	 1.907227	 -1.236394	 -0.937018	 0.000821	 0.744428	 -0.634680	 0.207383	 1
1463624172.161	 3	 0.038340	 0.065763	 0.030823	 1.906822	 -1.236218	 -0.938169	 0.001177	 0.744404	 -0.634761	 0.207221	 1
1463624172.171	 3	 0.035158	 0.070028	 0.030891	 1.906576	 -1.236021	 -0.939205	 0.001547	 0.744398	 -0.634825	 0.207043	 1
1463624172.181	 3	 0.030889	 0.068985	 0.031984	 1.906106	 -1.235809	 -0.940443	 0.001926	 0.744370	 -0.634907	 0.206888	 1
1463624172.191	 3	 0.026614	 0.065822	 0.034124	 1.905635	 -1.235565	 -0.941637	 0.002298	 0.744345	 -0.634977	 0.206758	 1
1463624172.201	 3	 0.025533	 0.059474	 0.038337	 1.905341	 -1.235315	 -0.942620	 0.002650	 0.744340	 -0.635024	 0.206630	 1
1463624172.211	 3	 0.022301	 0.052045	 0.039361	 1.904716	 -1.235079	 -0.943841	 0.002981	 0.744298	 -0.635099	 0.206546	 1
1463624172.221	 3	 0.023341	 0.044612	 0.041413	 1.904214	 -1.234872	 -0.944883	 0.003275	 0.744265	 -0.635162	 0.206464	 1
1463624172.231	 3	 0.020114	 0.039304	 0.041388	 1.903905	 -1.234768	 -0.945671	 0.003503	 0.744243	 -0.635221	 0.206360	 1
1463624172.241	 3	 0.020086	 0.035035	 0.039212	 1.903547	 -1.234864	 -0.946454	 0.003651	 0.744195	 -0.635324	 0.206215	 1
1463624172.251	 3	 0.017908	 0.028636	 0.035970	 1.903131	 -1.234807	 -0.947228	 0.003824	 0.744156	 -0.635392	 0.206141	 1
1463624172.261	 3	 0.013612	 0.025435	 0.032777	 1.902739	 -1.234820	 -0.947925	 0.003955	 0.744113	 -0.635467	 0.206062	 1
1463624172.271	 3	 0.014667	 0.024353	 0.030623	 1.902255	 -1.234781	 -0.948688	 0.004097	 0.744066	 -0.635538	 0.206012	 1
1463624172.281	 3	 0.014639	 0.020083	 0.028449	 1.901713	 -1.234770	 -0.949474	 0.004221	 0.744009	 -0.635618	 0.205967	 1
1463624172.291	 3	 0.013534	 0.015801	 0.024156	 1.901291	 -1.234580	 -0.950106	 0.004382	 0.743984	 -0.635642	 0.205980	 1
1463624172.301	 3	 0.012432	 0.012574	 0.018804	 1.900567	 -1.234616	 -0.950970	 0.004462	 0.743904	 -0.635741	 0.205964	 1
1463624172.311	 3	 0.009245	 0.013662	 0.020972	 1.900027	 -1.234589	 -0.951663	 0.004557	 0.743849	 -0.635808	 0.205953	 1
1463624172.321	 3	 0.004962	 0.009428	 0.022033	 1.899540	 -1.234578	 -0.952264	 0.004629	 0.743799	 -0.635868	 0.205946	 1
1463624172.331	 3	 0.006010	 0.003057	 0.024095	 1.898600	 -1.234554	 -0.953237	 0.004700	 0.743702	 -0.635965	 0.205993	 1
1463624172.341	 3	 0.009180	 -0.003344	 0.022941	 1.897436	 -1.234489	 -0.954371	 0.004772	 0.743586	 -0.636071	 0.206085	 1
1463624172.351	 3	 0.012353	 -0.009737	 0.022852	 1.896313	 -1.234411	 -0.955418	 0.004829	 0.743475	 -0.636165	 0.206193	 1
1463624172.361	 3	 0.017662	 -0.012968	 0.019578	 1.895121	 -1.234375	 -0.956507	 0.004866	 0.743353	 -0.636272	 0.206301	 1
1463624172.371	 3	 0.016576	 -0.017220	 0.019548	 1.894025	 -1.234248	 -0.957454	 0.004910	 0.743251	 -0.636345	 0.206445	 1
1463624172.381	 3	 0.016594	 -0.011918	 0.017467	 1.892969	 -1.234066	 -0.958389	 0.004979	 0.743157	 -0.636405	 0.206595	 1
1463624172.391	 3	 0.014502	 -0.002347	 0.016510	 1.892080	 -1.233882	 -0.959259	 0.005079	 0.743081	 -0.636457	 0.206705	 1
1463624172.401	 3	 0.017700	 -0.003421	 0.016473	 1.890994	 -1.233713	 -0.960326	 0.005184	 0.742983	 -0.636534	 0.206820	 1
1463624172.411	 3	 0.011294	 -0.003411	 0.015464	 1.889963	 -1.233591	 -0.961321	 0.005264	 0.742885	 -0.636613	 0.206922	 1
1463624172.421	 3	 0.008108	 0.001893	 0.012344	 1.889055	 -1.233500	 -0.962223	 0.005339	 0.742798	 -0.636690	 0.207001	 1
1463624172.431	 3	 0.004915	 0.002964	 0.012384	 1.887925	 -1.233336	 -0.963348	 0.005450	 0.742694	 -0.636774	 0.207112	 1
1463624172.441	 3	 0.003871	 0.006163	 0.013491	 1.886731	 -1.233174	 -0.964543	 0.005566	 0.742582	 -0.636866	 0.207224	 1
1463624172.451	 3	 0.009233	 0.007239	 0.017719	 1.885257	 -1.233006	 -0.966033	 0.005703	 0.742442	 -0.636989	 0.207347	 1
1463624172.461	 3	 0.019936	 0.009363	 0.021910	 1.883688	 -1.232856	 -0.967666	 0.005858	 0.742289	 -0.637131	 0.207455	 1
1463624172.471	 3	 0.031704	 0.012541	 0.025035	 1.882398	 -1.232694	 -0.969107	 0.006033	 0.742166	 -0.637250	 0.207524	 1
1463624172.481	 3	 0.038137	 0.017848	 0.026093	 1.881150	 -1.232623	 -0.970581	 0.006206	 0.742039	 -0.637391	 0.207539	 1
1463624172.491	 3	 0.037125	 0.020986	 0.021876	 1.880216	 -1.232547	 -0.971799	 0.006384	 0.741945	 -0.637505	 0.207521	 1
1463624172.501	 3	 0.023218	 0.015694	 0.019816	 1.879523	 -1.232446	 -0.972723	 0.006538	 0.741879	 -0.637581	 0.207514	 1
1463624172.511	 3	 0.010356	 0.008248	 0.014530	 1.878986	 -1.232319	 -0.973376	 0.006650	 0.741834	 -0.637624	 0.207543	 1
1463624172.521	 3	 0.001815	 0.007209	 0.014595	 1.878592	 -1.232180	 -0.973841	 0.006742	 0.741804	 -0.637644	 0.207583	 1
1463624172.531	 3	 0.003960	 0.007217	 0.016708	 1.877923	 -1.232035	 -0.974565	 0.006844	 0.741746	 -0.637691	 0.207645	 1
1463624172.541	 3	 0.013591	 0.012506	 0.016675	 1.876906	 -1.231882	 -0.975684	 0.006984	 0.741650	 -0.637779	 0.207712	 1
1463624172.551	 3	 0.024284	 0.015671	 0.017678	 1.875673	 -1.231770	 -0.977080	 0.007144	 0.741528	 -0.637904	 0.207759	 1
1463624172.561	 3	 0.032845	 0.016739	 0.021877	 1.874257	 -1.231641	 -0.978691	 0.007332	 0.741387	 -0.638050	 0.207809	 1
1463624172.571	 3	 0.036055	 0.014632	 0.026094	 1.872707	 -1.231443	 -0.980445	 0.007551	 0.741237	 -0.638196	 0.207884	 1
1463624172.581	 3	 0.033900	 0.008271	 0.028187	 1.871308	 -1.231168	 -0.982001	 0.007770	 0.741111	 -0.638306	 0.207990	 1
1463624172.591	 3	 0.028539	 0.001912	 0.029241	 1.870073	 -1.230936	 -0.983317	 0.007938	 0.740998	 -0.638399	 0.208099	 1
1463624172.601	 3	 0.025371	 0.006199	 0.032506	 1.868993	 -1.230719	 -0.984495	 0.008100	 0.740901	 -0.638481	 0.208190	 1
1463624172.611	 3	 0.027532	 0.012567	 0.031480	 1.867970	 -1.230507	 -0.985676	 0.008280	 0.740808	 -0.638564	 0.208256	 1
1463624172.621	 3	 0.031830	 0.022096	 0.027268	 1.867079	 -1.230376	 -0.986833	 0.008466	 0.740722	 -0.638661	 0.208257	 1
1463624172.631	 3	 0.036120	 0.028450	 0.025156	 1.866221	 -1.230361	 -0.988031	 0.008641	 0.740629	 -0.638786	 0.208197	 1
1463624172.641	 3	 0.035056	 0.032677	 0.020941	 1.865389	 -1.230324	 -0.989250	 0.008838	 0.740541	 -0.638909	 0.208127	 1
1463624172.661	 4	 0.026516	 0.033750	 0.018892	 1.864080	 -1.230252	 -0.991356	 0.009223	 0.740401	 -0.639119	 0.207960	 1
1463624172.671	 4	 0.024363	 0.030558	 0.017815	 1.863358	 -1.230183	 -0.992432	 0.009414	 0.740327	 -0.639220	 0.207905	 1
1463624172.681	 4	 0.022238	 0.029523	 0.021021	 1.862668	 -1.230120	 -0.993455	 0.009592	 0.740256	 -0.639317	 0.207853	 1
1463624172.691	 4	 0.028652	 0.031631	 0.020983	 1.861848	 -1.230081	 -0.994626	 0.009776	 0.740169	 -0.639434	 0.207794	 1
1463624172.701	 4	 0.034008	 0.034813	 0.022031	 1.861077	 -1.230054	 -0.995807	 0.009975	 0.740085	 -0.639555	 0.207710	 1
1463624172.711	 4	 0.031874	 0.035876	 0.020992	 1.860483	 -1.230049	 -0.996835	 0.010167	 0.740019	 -0.639664	 0.207603	 1
1463624172.721	 4	 0.023288	 0.027377	 0.018854	 1.859961	 -1.230102	 -0.997706	 0.010305	 0.739956	 -0.639768	 0.207501	 1
1463624172.731	 4	 0.013612	 0.015674	 0.014564	 1.859569	 -1.230178	 -0.998320	 0.010382	 0.739905	 -0.639849	 0.207426	 1
1463624172.741	 4	 0.008257	 0.011435	 0.014569	 1.859192	 -1.230231	 -0.998837	 0.010436	 0.739859	 -0.639915	 0.207384	 1
1463624172.751	 4	 0.006110	 0.009306	 0.013500	 1.858760	 -1.230257	 -0.999365	 0.010484	 0.739809	 -0.639978	 0.207367	 1
1463624172.761	 4	 0.008262	 0.013546	 0.012454	 1.858207	 -1.230253	 -1.000042	 0.010559	 0.739749	 -0.640050	 0.207356	 1
1463624172.771	 4	 0.011469	 0.013544	 0.013491	 1.857609	 -1.230247	 -1.000780	 0.010642	 0.739683	 -0.640128	 0.207343	 1
1463624172.781	 4	 0.016820	 0.014606	 0.015585	 1.856847	 -1.230217	 -1.001695	 0.010746	 0.739602	 -0.640221	 0.207341	 1
1463624172.791	 4	 0.022156	 0.013534	 0.016594	 1.856142	 -1.230210	 -1.002565	 0.010845	 0.739525	 -0.640314	 0.207325	 1
1463624172.801	 4	 0.027492	 0.014574	 0.015489	 1.855630	 -1.230254	 -1.003285	 0.010933	 0.739464	 -0.640400	 0.207271	 1
1463624172.811	 4	 0.026405	 0.012435	 0.013346	 1.855185	 -1.230281	 -1.003934	 0.011022	 0.739412	 -0.640475	 0.207219	 1
1463624172.821	 4	 0.019959	 0.007106	 0.009087	 1.854954	 -1.230358	 -1.004313	 0.011063	 0.739379	 -0.640532	 0.207159	 1
1463624172.831	 4	 0.009263	 0.003932	 0.007017	 1.854841	 -1.230440	 -1.004514	 0.011074	 0.739360	 -0.640570	 0.207111	 1
1463624172.841	 4	 -0.000369	 0.000746	 0.003872	 1.854877	 -1.230500	 -1.004519	 0.011068	 0.739358	 -0.640582	 0.207078	 1
1463624172.851	 4	 -0.005715	 -0.002421	 0.004954	 1.854865	 -1.230504	 -1.004501	 0.011056	 0.739357	 -0.640581	 0.207087	 1
1463624172.861	 4	 -0.005704	 -0.002406	 0.007085	 1.854519	 -1.230552	 -1.004790	 0.011036	 0.739315	 -0.640623	 0.207107	 1
1463624172.871	 4	 -0.002505	 -0.003481	 0.007045	 1.854040	 -1.230629	 -1.005212	 0.011014	 0.739257	 -0.640685	 0.207125	 1
1463624172.881	 4	 0.002817	 -0.007744	 0.008023	 1.853373	 -1.230729	 -1.005794	 0.010983	 0.739176	 -0.640769	 0.207154	 1
1463624172.891	 4	 0.008148	 -0.011993	 0.011133	 1.852500	 -1.230784	 -1.006555	 0.010966	 0.739077	 -0.640864	 0.207216	 1
1463624172.901	 4	 0.009190	 -0.014155	 0.006839	 1.851760	 -1.230899	 -1.007155	 0.010914	 0.738987	 -0.640953	 0.207262	 1
1463624172.911	 4	 0.008112	 -0.017335	 0.007882	 1.851235	 -1.230993	 -1.007524	 0.010851	 0.738923	 -0.641013	 0.207308	 1
1463624172.921	 4	 0.003825	 -0.018409	 0.004710	 1.851060	 -1.231110	 -1.007533	 0.010759	 0.738895	 -0.641039	 0.207334	 1
1463624172.931	 4	 -0.004726	 -0.019462	 0.002640	 1.851117	 -1.231218	 -1.007295	 0.010655	 0.738893	 -0.641036	 0.207356	 1
1463624172.941	 4	 -0.012221	 -0.020542	 -0.002636	 1.851182	 -1.231394	 -1.007014	 0.010514	 0.738887	 -0.641042	 0.207367	 1
1463624172.951	 4	 -0.016501	 -0.020553	 -0.005798	 1.851280	 -1.231557	 -1.006673	 0.010367	 0.738885	 -0.641039	 0.207390	 1
1463624172.961	 4	 -0.014349	 -0.018425	 -0.004733	 1.850971	 -1.231697	 -1.006729	 0.010243	 0.738841	 -0.641074	 0.207443	 1
1463624172.971	 4	 -0.010042	 -0.010993	 -0.004702	 1.850569	 -1.231813	 -1.006943	 0.010155	 0.738789	 -0.641122	 0.207487	 1
1463624172.981	 4	 0.000647	 -0.007835	 -0.004766	 1.849929	 -1.231924	 -1.007460	 0.010104	 0.738710	 -0.641201	 0.207524	 1
1463624172.991	 4	 0.009210	 -0.005711	 -0.001624	 1.849179	 -1.232023	 -1.008135	 0.010081	 0.738621	 -0.641295	 0.207553	 1
1463624173.001	 4	 0.012409	 -0.005729	 -0.002719	 1.848454	 -1.232166	 -1.008805	 0.010050	 0.738530	 -0.641397	 0.207562	 1
1463624173.011	 4	 0.010240	 -0.011057	 -0.004881	 1.848130	 -1.232245	 -1.009054	 0.010012	 0.738489	 -0.641440	 0.207577	 1
1463624173.021	 4	 0.002756	 -0.013169	 -0.005902	 1.848050	 -1.232314	 -1.009023	 0.009952	 0.738475	 -0.641452	 0.207595	 1
1463624173.031	 4	 -0.003647	 -0.012094	 -0.006902	 1.848230	 -1.232369	 -1.008726	 0.009882	 0.738491	 -0.641431	 0.207607	 1
1463624173.041	 4	 -0.007905	 -0.008898	 -0.007901	 1.848486	 -1.232452	 -1.008357	 0.009801	 0.738512	 -0.641408	 0.207605	 1
1463624173.051	 4	 -0.005745	 -0.003586	 -0.007871	 1.848488	 -1.232542	 -1.008289	 0.009747	 0.738505	 -0.641419	 0.207598	 1
1463624173.061	 4	 -0.003589	 0.000661	 -0.007851	 1.848371	 -1.232657	 -1.008369	 0.009701	 0.738483	 -0.641451	 0.207580	 1
1463624173.071	 4	 -0.001461	 -0.000417	 -0.008945	 1.848029	 -1.232799	 -1.008681	 0.009661	 0.738434	 -0.641513	 0.207562	 1
1463624173.081	 4	 0.000669	 -0.003600	 -0.006862	 1.847585	 -1.232896	 -1.009066	 0.009628	 0.738378	 -0.641575	 0.207573	 1
1463624173.091	 4	 0.001713	 -0.008923	 -0.006920	 1.847077	 -1.233007	 -1.009468	 0.009578	 0.738314	 -0.641641	 0.207597	 1
1463624173.101	 4	 -0.000416	 -0.008909	 -0.005836	 1.846670	 -1.233069	 -1.009764	 0.009536	 0.738266	 -0.641687	 0.207633	 1
1463624173.111	 4	 0.000682	 -0.003587	 -0.004729	 1.846364	 -1.233082	 -1.010000	 0.009521	 0.738232	 -0.641715	 0.207666	 1
1463624173.121	 4	 -0.000345	 0.002813	 -0.002528	 1.846053	 -1.233050	 -1.010303	 0.009543	 0.738201	 -0.641742	 0.207694	 1
1463624173.131	 4	 -0.002460	 0.004962	 -0.000357	 1.846116	 -1.233026	 -1.010285	 0.009565	 0.738209	 -0.641735	 0.207684	 1
1463624173.141	 4	 -0.003507	 0.009220	 -0.000308	 1.846184	 -1.233007	 -1.010294	 0.009596	 0.738218	 -0.641731	 0.207662	 1
1463624173.151	 4	 -0.003510	 0.010268	 -0.002430	 1.846339	 -1.233046	 -1.010226	 0.009608	 0.738231	 -0.641731	 0.207614	 1
1463624173.161	 4	 -0.003508	 0.012380	 -0.004543	 1.846561	 -1.233119	 -1.010114	 0.009614	 0.738248	 -0.641733	 0.207545	 1
1463624173.171	 4	 -0.006707	 0.012357	 -0.005561	 1.846906	 -1.233219	 -1.009885	 0.009608	 0.738277	 -0.641728	 0.207461	 1
1463624173.181	 4	 -0.005639	 0.012353	 -0.005571	 1.847115	 -1.233304	 -1.009780	 0.009608	 0.738292	 -0.641733	 0.207391	 1
1463624173.191	 4	 -0.005630	 0.012368	 -0.003440	 1.847225	 -1.233376	 -1.009761	 0.009613	 0.738298	 -0.641745	 0.207334	 1
1463624173.201	 4	 -0.002419	 0.012374	 -0.001337	 1.847176	 -1.233440	 -1.009911	 0.009631	 0.738287	 -0.641774	 0.207284	 1
1463624173.211	 4	 0.000787	 0.011316	 0.000756	 1.847187	 -1.233496	 -1.010018	 0.009656	 0.738283	 -0.641796	 0.207228	 1
1463624173.221	 4	 0.000772	 0.008124	 0.000726	 1.847155	 -1.233537	 -1.010138	 0.009677	 0.738275	 -0.641817	 0.207189	 1
1463624173.231	 4	 -0.003518	 0.002827	 0.001779	 1.847331	 -1.233561	 -1.010008	 0.009677	 0.738292	 -0.641807	 0.207158	 1
1463624173.241	 4	 -0.007797	 -0.001400	 0.003908	 1.847332	 -1.233564	 -1.009978	 0.009666	 0.738292	 -0.641805	 0.207166	 1
1463624173.251	 4	 -0.009916	 0.000741	 0.005012	 1.847381	 -1.233535	 -1.009904	 0.009663	 0.738300	 -0.641791	 0.207181	 1
1463624173.261	 4	 -0.007765	 0.003925	 0.005023	 1.847247	 -1.233495	 -1.010024	 0.009678	 0.738289	 -0.641796	 0.207204	 1
1463624173.271	 4	 -0.002388	 0.011362	 0.006111	 1.846966	 -1.233467	 -1.010370	 0.009725	 0.738260	 -0.641828	 0.207206	 1
1463624173.281	 4	 0.002983	 0.016679	 0.008245	 1.846687	 -1.233438	 -1.010789	 0.009799	 0.738232	 -0.641867	 0.207184	 1
1463624173.291	 4	 0.005140	 0.023039	 0.006153	 1.846547	 -1.233480	 -1.011151	 0.009874	 0.738212	 -0.641913	 0.207106	 1
1463624173.301	 4	 0.006213	 0.025155	 0.005096	 1.846695	 -1.233508	 -1.011269	 0.009956	 0.738224	 -0.641930	 0.207004	 1
1463624173.311	 4	 0.004062	 0.020915	 0.006140	 1.846841	 -1.233521	 -1.011364	 0.010033	 0.738238	 -0.641942	 0.206916	 1
1463624173.321	 4	 -0.002365	 0.017728	 0.004034	 1.847109	 -1.233565	 -1.011285	 0.010076	 0.738263	 -0.641941	 0.206829	 1
1463624173.331	 4	 -0.005586	 0.013483	 0.004021	 1.847454	 -1.233626	 -1.011075	 0.010089	 0.738294	 -0.641930	 0.206750	 1
1463624173.341	 4	 -0.010915	 0.015618	 0.003019	 1.847715	 -1.233728	 -1.010936	 0.010089	 0.738313	 -0.641935	 0.206667	 1
1463624173.351	 4	 -0.011068	 0.016583	 0.003076	 1.848015	 -1.233861	 -1.010772	 0.010081	 0.738334	 -0.641943	 0.206567	 1
1463624173.361	 4	 -0.006782	 0.019761	 0.003066	 1.848067	 -1.234022	 -1.010878	 0.010084	 0.738326	 -0.641986	 0.206465	 1
1463624173.371	 4	 -0.001460	 0.016553	 0.002988	 1.847972	 -1.234172	 -1.011118	 0.010094	 0.738302	 -0.642041	 0.206376	 1
1463624173.381	 4	 -0.001488	 0.011227	 0.001871	 1.847918	 -1.234315	 -1.011297	 0.010095	 0.738284	 -0.642089	 0.206294	 1
1463624173.391	 4	 -0.006883	 -0.000466	 0.000741	 1.848008	 -1.234428	 -1.011223	 0.010060	 0.738284	 -0.642103	 0.206249	 1
1463624173.401	 4	 -0.012258	 -0.008959	 0.000707	 1.848164	 -1.234522	 -1.010971	 0.009986	 0.738294	 -0.642095	 0.206243	 1
1463624173.411	 4	 -0.017619	 -0.013205	 -0.000353	 1.848583	 -1.234616	 -1.010402	 0.009880	 0.738332	 -0.642053	 0.206242	 1
1463624173.421	 4	 -0.017614	 -0.013198	 0.000712	 1.848953	 -1.234613	 -1.009867	 0.009802	 0.738373	 -0.641996	 0.206278	 1
1463624173.431	 4	 -0.015461	 -0.010005	 0.001787	 1.849397	 -1.234615	 -1.009295	 0.009733	 0.738421	 -0.641935	 0.206298	 1
1463624173.441	 4	 -0.012264	 -0.010023	 0.000693	 1.849588	 -1.234624	 -1.008979	 0.009674	 0.738442	 -0.641903	 0.206326	 1
1463624173.451	 4	 -0.009038	 -0.006826	 0.002825	 1.849734	 -1.234654	 -1.008743	 0.009625	 0.738456	 -0.641884	 0.206338	 1
1463624173.461	 4	 -0.005831	 -0.004716	 0.001750	 1.849989	 -1.234689	 -1.008433	 0.009580	 0.738480	 -0.641858	 0.206333	 1
1463624173.471	 4	 -0.007964	 -0.002598	 -0.000344	 1.850281	 -1.234742	 -1.008095	 0.009532	 0.738508	 -0.641832	 0.206317	 1
1463624173.481	 4	 -0.012231	 0.000583	 -0.003476	 1.850755	 -1.234765	 -1.007611	 0.009498	 0.738557	 -0.641785	 0.206290	 1
1463624173.491	 4	 -0.014561	 0.001528	 -0.004355	 1.851229	 -1.234744	 -1.007133	 0.009480	 0.738610	 -0.641729	 0.206275	 1
1463624173.501	 4	 -0.015628	 0.000475	 -0.003290	 1.851612	 -1.234772	 -1.006732	 0.009446	 0.738649	 -0.641691	 0.206253	 1
1463624173.511	 4	 -0.014561	 -0.000584	 -0.002244	 1.851846	 -1.234848	 -1.006468	 0.009399	 0.738668	 -0.641679	 0.206228	 1
1463624173.521	 4	 -0.008158	 -0.000603	 -0.002300	 1.852117	 -1.234838	 -1.006169	 0.009379	 0.738698	 -0.641644	 0.206227	 1
1463624173.531	 4	 -0.002830	 -0.003795	 -0.000246	 1.852299	 -1.234939	 -1.005955	 0.009325	 0.738709	 -0.641642	 0.206197	 1
1463624173.541	 4	 -0.001777	 -0.004877	 -0.002399	 1.852608	 -1.235061	 -1.005616	 0.009259	 0.738732	 -0.641630	 0.206154	 1
1463624173.551	 4	 -0.011420	 -0.010189	 -0.005563	 1.853221	 -1.235143	 -1.004919	 0.009172	 0.738792	 -0.641572	 0.206126	 1
1463624173.561	 4	 -0.018892	 -0.010166	 -0.005498	 1.854087	 -1.235187	 -1.003945	 0.009075	 0.738882	 -0.641477	 0.206104	 1
1463624173.571	 4	 -0.025305	 -0.011218	 -0.006519	 1.854959	 -1.235281	 -1.002940	 0.008953	 0.738968	 -0.641388	 0.206076	 1
1463624173.581	 4	 -0.024253	 -0.014412	 -0.006560	 1.855772	 -1.235356	 -1.001955	 0.008825	 0.739050	 -0.641298	 0.206068	 1
1463624173.591	 4	 -0.021067	 -0.017613	 -0.006618	 1.856419	 -1.235429	 -1.001112	 0.008697	 0.739114	 -0.641223	 0.206077	 1
1463624173.601	 4	 -0.018953	 -0.020818	 -0.007733	 1.856888	 -1.235535	 -1.000414	 0.008555	 0.739156	 -0.641171	 0.206095	 1
1463624173.611	 4	 -0.017882	 -0.020813	 -0.006677	 1.857322	 -1.235547	 -0.999745	 0.008443	 0.739203	 -0.641103	 0.206145	 1
1463624173.621	 4	 -0.018945	 -0.020802	 -0.005602	 1.857786	 -1.235544	 -0.999041	 0.008333	 0.739254	 -0.641027	 0.206200	 1
1463624173.631	 4	 -0.021071	 -0.019724	 -0.004507	 1.858295	 -1.235487	 -0.998294	 0.008238	 0.739314	 -0.640937	 0.206268	 1
1463624173.641	 4	 -0.017847	 -0.017583	 -0.001317	 1.858692	 -1.235381	 -0.997693	 0.008178	 0.739367	 -0.640851	 0.206348	 1
1463624173.651	 4	 -0.014894	 -0.016665	 -0.000079	 1.859016	 -1.235290	 -0.997175	 0.008120	 0.739410	 -0.640778	 0.206422	 1
1463624173.661	 4	 -0.013823	 -0.017716	 0.002035	 1.859279	 -1.235148	 -0.996710	 0.008078	 0.739452	 -0.640700	 0.206517	 1
1463624173.671	 4	 -0.017026	 -0.017706	 0.002063	 1.859653	 -1.235023	 -0.996143	 0.008029	 0.739504	 -0.640614	 0.206599	 1
1463624173.681	 4	 -0.018078	 -0.014512	 0.002102	 1.860039	 -1.234951	 -0.995578	 0.007967	 0.739552	 -0.640540	 0.206659	 1
1463624173.691	 4	 -0.020178	 -0.008116	 0.003246	 1.860463	 -1.234825	 -0.995030	 0.007941	 0.739609	 -0.640456	 0.206717	 1
1463624173.701	 4	 -0.014812	 -0.001750	 0.003258	 1.860839	 -1.234752	 -0.994600	 0.007926	 0.739656	 -0.640395	 0.206738	 1
1463624173.711	 4	 -0.008385	 0.001437	 0.005364	 1.861056	 -1.234681	 -0.994372	 0.007934	 0.739686	 -0.640356	 0.206753	 1
1463624173.721	 4	 -0.001964	 0.003560	 0.007459	 1.861181	 -1.234582	 -0.994277	 0.007972	 0.739708	 -0.640325	 0.206767	 1
1463624173.731	 4	 0.000164	 0.002491	 0.007430	 1.861387	 -1.234530	 -0.994121	 0.007996	 0.739734	 -0.640298	 0.206757	 1
1463624173.741	 4	 -0.003063	 -0.001762	 0.006352	 1.861770	 -1.234475	 -0.993752	 0.008000	 0.739780	 -0.640247	 0.206751	 1
1463624173.751	 4	 -0.011634	 -0.004958	 0.002134	 1.862411	 -1.234445	 -0.993083	 0.007968	 0.739852	 -0.640169	 0.206737	 1
1463624173.761	 4	 -0.019123	 -0.007078	 0.000047	 1.863017	 -1.234439	 -0.992387	 0.007907	 0.739918	 -0.640093	 0.206737	 1
1463624173.771	 4	 -0.023366	 -0.002803	 0.001189	 1.863491	 -1.234407	 -0.991836	 0.007865	 0.739972	 -0.640028	 0.206748	 1
1463624173.781	 4	 -0.019061	 0.004630	 0.001221	 1.863804	 -1.234367	 -0.991500	 0.007854	 0.740009	 -0.639984	 0.206752	 1
1463624173.791	 4	 -0.012632	 0.009928	 0.001213	 1.863967	 -1.234400	 -0.991375	 0.007849	 0.740023	 -0.639977	 0.206721	 1
1463624173.801	 4	 -0.004102	 0.009887	 -0.000993	 1.863812	 -1.234461	 -0.991600	 0.007863	 0.740001	 -0.640013	 0.206688	 1
1463624173.811	 4	 -0.000083	 0.012921	 -0.000808	 1.863722	 -1.234506	 -0.991798	 0.007893	 0.739987	 -0.640043	 0.206644	 1
1463624173.821	 4	 0.006329	 0.013973	 0.000211	 1.863581	 -1.234560	 -0.992083	 0.007935	 0.739966	 -0.640084	 0.206589	 1
1463624173.831	 4	 0.004200	 0.015043	 0.000240	 1.863576	 -1.234581	 -0.992246	 0.007987	 0.739963	 -0.640106	 0.206531	 1
1463624173.841	 4	 -0.000080	 0.011873	 0.001313	 1.863716	 -1.234568	 -0.992240	 0.008034	 0.739979	 -0.640102	 0.206486	 1
1463624173.851	 4	 -0.003293	 0.007643	 0.003433	 1.863792	 -1.234518	 -0.992240	 0.008075	 0.739991	 -0.640091	 0.206473	 1
1463624173.861	 4	 -0.002233	 0.003408	 0.006582	 1.863874	 -1.234458	 -0.992202	 0.008106	 0.740005	 -0.640075	 0.206473	 1
1463624173.871	 4	 -0.000095	 0.002354	 0.008685	 1.863728	 -1.234362	 -0.992373	 0.008154	 0.739998	 -0.640073	 0.206502	 1
1463624173.881	 4	 0.005285	 0.009799	 0.010839	 1.863586	 -1.234309	 -0.992605	 0.008212	 0.739987	 -0.640087	 0.206497	 1
1463624173.891	 4	 0.008521	 0.016178	 0.011936	 1.863311	 -1.234263	 -0.993044	 0.008301	 0.739961	 -0.640124	 0.206472	 1
1463624173.901	 4	 0.013875	 0.018305	 0.014041	 1.862973	 -1.234116	 -0.993577	 0.008438	 0.739937	 -0.640150	 0.206472	 1
1463624173.911	 4	 0.014970	 0.021516	 0.017259	 1.862594	 -1.233945	 -0.994185	 0.008596	 0.739910	 -0.640179	 0.206471	 1
1463624173.921	 4	 0.012874	 0.026864	 0.020524	 1.862403	 -1.233789	 -0.994668	 0.008765	 0.739902	 -0.640198	 0.206434	 1
1463624173.931	 4	 0.009726	 0.036462	 0.022773	 1.862275	 -1.233548	 -0.995167	 0.008986	 0.739908	 -0.640200	 0.206396	 1
1463624173.941	 4	 0.005468	 0.039658	 0.021774	 1.862459	 -1.233359	 -0.995399	 0.009193	 0.739942	 -0.640185	 0.206312	 1
1463624173.951	 4	 0.003349	 0.042855	 0.021822	 1.862541	 -1.233194	 -0.995751	 0.009403	 0.739963	 -0.640187	 0.206220	 1
1463624173.961	 4	 0.005507	 0.044999	 0.025020	 1.862645	 -1.233051	 -0.996114	 0.009617	 0.739985	 -0.640194	 0.206109	 1
1463624173.971	 4	 0.009555	 0.048043	 0.025179	 1.862567	 -1.232956	 -0.996680	 0.009832	 0.739982	 -0.640234	 0.205986	 1
1463624173.981	 4	 0.012767	 0.049105	 0.026225	 1.862325	 -1.232875	 -0.997436	 0.010061	 0.739961	 -0.640296	 0.205859	 1
1463624173.991	 4	 0.017044	 0.049107	 0.028319	 1.862017	 -1.232772	 -0.998263	 0.010302	 0.739934	 -0.640362	 0.205739	 1
1463624174.001	 4	 0.018113	 0.051216	 0.026197	 1.861786	 -1.232667	 -0.999044	 0.010551	 0.739915	 -0.640422	 0.205607	 1
1463624174.011	 4	 0.011730	 0.054434	 0.027347	 1.861875	 -1.232543	 -0.999536	 0.010802	 0.739933	 -0.640446	 0.205455	 1
1463624174.021	 4	 0.004284	 0.058719	 0.028516	 1.862177	 -1.232363	 -0.999843	 0.011070	 0.739977	 -0.640440	 0.205300	 1
1463624174.031	 4	 0.000061	 0.068305	 0.028642	 1.862779	 -1.232136	 -0.999920	 0.011365	 0.740058	 -0.640397	 0.205123	 1
1463624174.041	 4	 -0.004165	 0.074723	 0.031934	 1.863584	 -1.231896	 -0.999869	 0.011682	 0.740162	 -0.640338	 0.204916	 1
1463624174.051	 4	 -0.008392	 0.081141	 0.035227	 1.864654	 -1.231596	 -0.999617	 0.012029	 0.740299	 -0.640245	 0.204692	 1
1463624174.061	 4	 -0.011537	 0.088635	 0.040653	 1.865600	 -1.231217	 -0.999554	 0.012431	 0.740429	 -0.640155	 0.204479	 1
1463624174.071	 4	 -0.015789	 0.087623	 0.046009	 1.866671	 -1.230799	 -0.999372	 0.012842	 0.740576	 -0.640043	 0.204270	 1
1463624174.081	 4	 -0.014725	 0.084452	 0.049166	 1.867694	 -1.230354	 -0.999213	 0.013255	 0.740721	 -0.639929	 0.204079	 1
1463624174.091	 4	 -0.016866	 0.082339	 0.050230	 1.868887	 -1.229864	 -0.998861	 0.013665	 0.740887	 -0.639784	 0.203900	 1
1463624174.101	 4	 -0.026436	 0.084542	 0.056728	 1.870218	 -1.229260	 -0.998366	 0.014103	 0.741079	 -0.639600	 0.203751	 1
1463624174.111	 4	 -0.040223	 0.098450	 0.062307	 1.872103	 -1.228519	 -0.997421	 0.014596	 0.741343	 -0.639337	 0.203583	 1
1463624174.121	 4	 -0.056234	 0.094274	 0.066671	 1.874093	 -1.227703	 -0.996341	 0.015095	 0.741625	 -0.639043	 0.203441	 1
1463624174.131	 4	 -0.064723	 0.095441	 0.077415	 1.876041	 -1.226662	 -0.995268	 0.015657	 0.741924	 -0.638702	 0.203381	 1
1463624174.141	 4	 -0.064904	 0.099606	 0.085086	 1.877226	 -1.225553	 -0.994959	 0.016279	 0.742145	 -0.638430	 0.203380	 1
1463624174.151	 4	 -0.041412	 0.099558	 0.088080	 1.877609	 -1.224533	 -0.995477	 0.016922	 0.742270	 -0.638266	 0.203386	 1
1463624174.161	 4	 -0.001111	 0.046252	 0.087233	 1.876780	 -1.223804	 -0.996883	 0.017416	 0.742238	 -0.638264	 0.203468	 1
1463624174.171	 4	 0.018009	 0.042863	 0.067848	 1.875527	 -1.223495	 -0.998565	 0.017739	 0.742122	 -0.638381	 0.203492	 1
1463624174.181	 4	 0.044707	 0.060742	 0.050727	 1.874327	 -1.223454	 -1.000396	 0.018049	 0.741988	 -0.638570	 0.203365	 1
1463624174.191	 4	 0.054254	 0.053229	 0.045241	 1.873449	 -1.223513	 -1.001983	 0.018338	 0.741879	 -0.638751	 0.203166	 1
1463624174.201	 4	 0.045651	 0.062627	 0.017691	 1.873157	 -1.223686	 -1.002982	 0.018560	 0.741825	 -0.638891	 0.202902	 1
1463624174.211	 4	 -0.007640	 0.167302	 -0.089579	 1.874934	 -1.224360	 -1.002618	 0.018774	 0.741950	 -0.638978	 0.202151	 1
1463624174.221	 4	 -0.037955	 0.035845	 -0.042579	 1.877163	 -1.224823	 -1.001085	 0.018768	 0.742149	 -0.638898	 0.201671	 1
1463624174.231	 4	 0.003301	 -0.066168	 -0.012981	 1.877008	 -1.224934	 -1.000723	 0.018548	 0.742127	 -0.638886	 0.201811	 1
1463624174.241	 4	 0.029863	 -0.072785	 -0.034589	 1.875837	 -1.225285	 -1.001189	 0.018233	 0.741974	 -0.639017	 0.201988	 1
1463624174.251	 4	 0.034155	 -0.072759	 -0.029297	 1.873972	 -1.225749	 -1.002344	 0.017916	 0.741735	 -0.639247	 0.202168	 1
1463624174.261	 4	 0.038471	 -0.082175	 -0.005975	 1.872281	 -1.225972	 -1.003295	 0.017655	 0.741536	 -0.639404	 0.202422	 1
1463624174.271	 4	 0.041687	 -0.091650	 0.008829	 1.870261	 -1.226028	 -1.004502	 0.017439	 0.741316	 -0.639556	 0.202768	 1
1463624174.281	 4	 0.047995	 -0.104495	 0.000129	 1.868018	 -1.226134	 -1.005809	 0.017171	 0.741068	 -0.639730	 0.203149	 1
1463624174.291	 4	 0.062669	 -0.117485	 -0.010649	 1.864924	 -1.226638	 -1.007828	 0.016766	 0.740693	 -0.640065	 0.203494	 1
1463624174.301	 4	 0.089278	 -0.130345	 -0.013132	 1.861625	 -1.227012	 -1.010011	 0.016396	 0.740308	 -0.640391	 0.203901	 1
1463624174.311	 4	 0.159355	 -0.249300	 0.038439	 1.855200	 -1.227089	 -1.014448	 0.015954	 0.739609	 -0.640912	 0.204833	 1
1463624174.321	 4	 0.166556	 -0.256137	 -0.021370	 1.848151	 -1.227599	 -1.019176	 0.015275	 0.738807	 -0.641555	 0.205764	 1
1463624174.331	 4	 0.168788	 -0.199031	 -0.065619	 1.840605	 -1.228632	 -1.024731	 0.014566	 0.737906	 -0.642389	 0.206445	 1
1463624174.341	 4	 0.191411	 -0.153368	 -0.066457	 1.834497	 -1.229786	 -1.029513	 0.013987	 0.737151	 -0.643154	 0.206801	 1
1463624174.351	 4	 0.227770	 -0.147010	 -0.054991	 1.827485	 -1.230897	 -1.035369	 0.013522	 0.736300	 -0.644024	 0.207152	 1
1463624174.361	 4	 0.260933	 -0.139579	 -0.043487	 1.819442	 -1.231973	 -1.042414	 0.013166	 0.735340	 -0.645015	 0.207503	 1
1463624174.371	 4	 0.272796	 -0.123575	 -0.031714	 1.810209	 -1.232606	 -1.050755	 0.013041	 0.734280	 -0.646062	 0.208004	 1
1463624174.381	 4	 0.271967	 -0.077795	 -0.025952	 1.801869	 -1.233499	 -1.058612	 0.012931	 0.733300	 -0.647101	 0.208242	 1
1463624174.391	 4	 0.243524	 -0.000061	 -0.024981	 1.794804	 -1.234302	 -1.065872	 0.013035	 0.732464	 -0.648050	 0.208225	 1
1463624174.401	 4	 0.201265	 0.090470	 -0.024837	 1.789729	 -1.235013	 -1.071969	 0.013384	 0.731849	 -0.648847	 0.207881	 1
1463624174.411	 4	 0.157892	 0.178826	 -0.032163	 1.788933	 -1.235530	 -1.074715	 0.013958	 0.731715	 -0.649231	 0.207116	 1
1463624174.421	 4	 0.118704	 0.255405	 -0.048162	 1.787978	 -1.236239	 -1.078250	 0.014703	 0.731546	 -0.649731	 0.206092	 1
1463624174.431	 4	 0.076245	 0.320279	 -0.066375	 1.791406	 -1.237190	 -1.078128	 0.015454	 0.731839	 -0.649863	 0.204574	 1
1463624174.441	 4	 0.023094	 0.373538	 -0.077140	 1.794436	 -1.238006	 -1.078738	 0.016389	 0.732091	 -0.650048	 0.203007	 1
1463624174.451	 4	 -0.037565	 0.408821	 -0.076284	 1.799582	 -1.238712	 -1.077544	 0.017389	 0.732575	 -0.650011	 0.201286	 1
1463624174.461	 4	 -0.094238	 0.403668	 -0.062923	 1.806384	 -1.239175	 -1.074657	 0.018386	 0.733252	 -0.649746	 0.199584	 1
1463624174.471	 4	 -0.128509	 0.363474	 -0.045947	 1.813547	 -1.239466	 -1.071014	 0.019279	 0.733979	 -0.649369	 0.198047	 1
1463624174.481	 4	 -0.134131	 0.294429	 -0.035883	 1.820723	 -1.239506	 -1.066735	 0.020024	 0.734727	 -0.648884	 0.196788	 1
1463624174.491	 4	 -0.109927	 0.222034	 -0.035702	 1.826684	 -1.239550	 -1.062959	 0.020555	 0.735347	 -0.648461	 0.195808	 1
1463624174.501	 4	 -0.067469	 0.180369	 -0.043919	 1.831115	 -1.239738	 -1.060271	 0.020941	 0.735794	 -0.648188	 0.194990	 1
1463624174.511	 4	 -0.020615	 0.175818	 -0.065689	 1.832388	 -1.240807	 -1.060562	 0.021107	 0.735836	 -0.648405	 0.194090	 1
1463624174.521	 4	 0.011615	 0.242547	 -0.090927	 1.835108	 -1.241643	 -1.060031	 0.021518	 0.736043	 -0.648482	 0.192997	 1
1463624174.531	 4	 0.007767	 0.337172	 -0.097473	 1.838658	 -1.242605	 -1.059584	 0.022187	 0.736317	 -0.648583	 0.191532	 1
1463624174.541	 4	 -0.029130	 0.423518	 -0.085691	 1.843935	 -1.243420	 -1.058285	 0.023152	 0.736774	 -0.648554	 0.189752	 1
1463624174.551	 4	 -0.079006	 0.465307	 -0.063553	 1.852368	 -1.243886	 -1.054364	 0.024287	 0.737580	 -0.648174	 0.187769	 1
1463624174.561	 4	 -0.125923	 0.458133	 -0.045093	 1.860663	 -1.244036	 -1.050503	 0.025500	 0.738391	 -0.647739	 0.185912	 1
1463624174.571	 4	 -0.154952	 0.397722	 -0.027285	 1.869289	 -1.243905	 -1.045778	 0.026590	 0.739262	 -0.647163	 0.184296	 1
1463624174.581	 4	 -0.163838	 0.312754	 -0.014143	 1.877367	 -1.243579	 -1.040791	 0.027465	 0.740098	 -0.646532	 0.183023	 1
1463624174.591	 4	 -0.162086	 0.229805	 -0.011731	 1.884503	 -1.242923	 -1.035885	 0.028167	 0.740874	 -0.645854	 0.182171	 1
1463624174.601	 4	 -0.151740	 0.165914	 -0.017744	 1.890760	 -1.242594	 -1.031180	 0.028549	 0.741538	 -0.645271	 0.181473	 1
1463624174.611	 4	 -0.138133	 0.143347	 -0.031836	 1.896410	 -1.242412	 -1.026748	 0.028786	 0.742129	 -0.644751	 0.180863	 1
1463624174.621	 4	 -0.131758	 0.156986	 -0.055216	 1.902167	 -1.243011	 -1.022279	 0.028790	 0.742659	 -0.644388	 0.179981	 1
1463624174.631	 4	 -0.126376	 0.183415	 -0.075267	 1.908165	 -1.243264	 -1.017814	 0.028982	 0.743238	 -0.643953	 0.179113	 1
1463624174.641	 4	 -0.109159	 0.198386	 -0.057159	 1.913914	 -1.243488	 -1.013808	 0.029271	 0.743789	 -0.643558	 0.178196	 1
1463624174.651	 4	 -0.085624	 0.180496	 -0.021295	 1.918628	 -1.243466	 -1.010791	 0.029673	 0.744255	 -0.643216	 0.177419	 1
1463624174.661	 4	 -0.055815	 0.142305	 0.004741	 1.919335	 -1.242691	 -1.011386	 0.030369	 0.744383	 -0.643095	 0.177203	 1
1463624174.671	 4	 -0.027157	 0.090269	 0.027454	 1.921125	 -1.242366	 -1.010594	 0.030753	 0.744585	 -0.642929	 0.176891	 1
1463624174.691	 5	 0.027957	 -0.013920	 0.055846	 1.920201	 -1.241538	 -1.012063	 0.031268	 0.744559	 -0.642899	 0.177018	 1
1463624174.701	 5	 0.048198	 -0.038308	 0.074628	 1.916034	 -1.241076	 -1.015894	 0.031501	 0.744174	 -0.643207	 0.177479	 1
1463624174.711	 5	 0.058045	 0.002175	 0.087708	 1.913518	 -1.240464	 -1.018436	 0.031834	 0.743967	 -0.643344	 0.177786	 1
1463624174.721	 5	 0.059458	 0.070285	 0.093658	 1.911499	 -1.239787	 -1.021117	 0.032399	 0.743807	 -0.643474	 0.177883	 1
1463624174.731	 5	 0.048045	 0.140507	 0.092279	 1.910394	 -1.239088	 -1.023580	 0.033183	 0.743733	 -0.643566	 0.177717	 1
1463624174.741	 5	 0.020642	 0.219258	 0.086851	 1.913647	 -1.238719	 -1.022574	 0.033974	 0.744072	 -0.643345	 0.176945	 1
1463624174.751	 5	 -0.015452	 0.260834	 0.085421	 1.915517	 -1.237889	 -1.023275	 0.035102	 0.744302	 -0.643202	 0.176280	 1
1463624174.761	 5	 -0.051648	 0.273753	 0.092250	 1.918542	 -1.236894	 -1.022954	 0.036274	 0.744665	 -0.642911	 0.175564	 1
1463624174.771	 5	 -0.068810	 0.269442	 0.096665	 1.922083	 -1.235772	 -1.022074	 0.037443	 0.745096	 -0.642534	 0.174874	 1
1463624174.781	 5	 -0.076368	 0.248214	 0.099730	 1.925660	 -1.234583	 -1.020987	 0.038567	 0.745539	 -0.642120	 0.174256	 1
1463624174.791	 5	 -0.072315	 0.202463	 0.099266	 1.928222	 -1.233861	 -1.020495	 0.039436	 0.745840	 -0.641875	 0.173681	 1
1463624174.801	 5	 -0.055570	 0.133273	 0.098477	 1.930371	 -1.232713	 -1.019833	 0.040245	 0.746147	 -0.641531	 0.173445	 1
1463624174.821	 6	 -0.014461	 0.039430	 0.081259	 1.931446	 -1.230844	 -1.020105	 0.041287	 0.746410	 -0.641135	 0.173530	 1
1463624174.831	 6	 -0.003917	 0.023351	 0.068223	 1.931739	 -1.230857	 -1.020147	 0.041392	 0.746434	 -0.641135	 0.173404	 1
1463624174.841	 6	 -0.005067	 0.015823	 0.056439	 1.931424	 -1.230290	 -1.020660	 0.041664	 0.746449	 -0.641066	 0.173531	 1
1463624174.851	 6	 -0.014705	 0.015790	 0.047997	 1.931406	 -1.229779	 -1.020852	 0.041892	 0.746491	 -0.640974	 0.173633	 1
1463624174.861	 6	 -0.032928	 0.009370	 0.035306	 1.931888	 -1.229318	 -1.020458	 0.042046	 0.746584	 -0.640831	 0.173722	 1
1463624174.871	 6	 -0.050053	 0.010385	 0.021604	 1.933809	 -1.229621	 -1.018624	 0.041881	 0.746761	 -0.640697	 0.173499	 1
1463624174.881	 6	 -0.063948	 0.013548	 0.012163	 1.935378	 -1.229271	 -1.017080	 0.041918	 0.746963	 -0.640455	 0.173515	 1
1463624174.891	 6	 -0.071365	 0.028431	 0.008099	 1.937842	 -1.229332	 -1.014779	 0.041828	 0.747219	 -0.640217	 0.173313	 1
1463624174.901	 6	 -0.068102	 0.042241	 0.007132	 1.940096	 -1.229224	 -1.012811	 0.041848	 0.747465	 -0.639976	 0.173133	 1
1463624174.911	 6	 -0.056339	 0.045412	 0.009190	 1.941630	 -1.229053	 -1.011615	 0.041946	 0.747639	 -0.639804	 0.172995	 1
1463624174.921	 6	 -0.044632	 0.034771	 0.013252	 1.942399	 -1.228883	 -1.011108	 0.042057	 0.747733	 -0.639707	 0.172921	 1
1463624174.931	 6	 -0.035072	 0.024113	 0.014134	 1.942934	 -1.228767	 -1.010759	 0.042134	 0.747798	 -0.639640	 0.172869	 1
1463624174.941	 6	 -0.030829	 0.017725	 0.015103	 1.943592	 -1.228673	 -1.010238	 0.042179	 0.747875	 -0.639561	 0.172818	 1
1463624174.951	 6	 -0.030818	 0.020909	 0.014065	 1.944564	 -1.228665	 -1.009432	 0.042192	 0.747977	 -0.639469	 0.172714	 1
1463624174.961	 6	 -0.032942	 0.024099	 0.013044	 1.945893	 -1.228731	 -1.008315	 0.042177	 0.748108	 -0.639359	 0.172554	 1
1463624174.971	 6	 -0.040423	 0.025154	 0.008853	 1.947441	 -1.228936	 -1.006985	 0.042110	 0.748250	 -0.639256	 0.172338	 1
1463624174.981	 6	 -0.047963	 0.017669	 0.000320	 1.949004	 -1.229077	 -1.005568	 0.042035	 0.748400	 -0.639132	 0.172163	 1
1463624174.991	 6	 -0.055513	 0.005945	 -0.006121	 1.950559	 -1.229297	 -1.004005	 0.041877	 0.748545	 -0.639013	 0.172013	 1
1463624175.001	 6	 -0.056581	 0.010164	 -0.011403	 1.952248	 -1.229434	 -1.002305	 0.041737	 0.748712	 -0.638862	 0.171882	 1
1463624175.011	 6	 -0.051188	 0.021848	 -0.011343	 1.953791	 -1.229570	 -1.000839	 0.041638	 0.748862	 -0.638733	 0.171731	 1
1463624175.021	 6	 -0.041502	 0.033565	 -0.004924	 1.954908	 -1.229585	 -0.999936	 0.041652	 0.748975	 -0.638636	 0.171597	 1
1463624175.031	 6	 -0.026508	 0.040997	 -0.000723	 1.955681	 -1.229592	 -0.999484	 0.041728	 0.749050	 -0.638582	 0.171450	 1
1463624175.041	 6	 -0.019002	 0.048420	 -0.000720	 1.956495	 -1.229701	 -0.999085	 0.041804	 0.749117	 -0.638555	 0.171239	 1
1463624175.051	 6	 -0.016862	 0.050533	 -0.001787	 1.957442	 -1.229831	 -0.998615	 0.041889	 0.749195	 -0.638524	 0.170995	 1
1463624175.061	 6	 -0.016879	 0.050502	 -0.006052	 1.958873	 -1.230099	 -0.997698	 0.041918	 0.749309	 -0.638475	 0.170670	 1
1463624175.071	 6	 -0.019047	 0.051503	 -0.015619	 1.960455	 -1.230451	 -0.996614	 0.041906	 0.749431	 -0.638427	 0.170317	 1
1463624175.081	 6	 -0.021281	 0.042892	 -0.030603	 1.961966	 -1.230950	 -0.995526	 0.041824	 0.749531	 -0.638413	 0.169947	 1
1463624175.091	 6	 -0.024601	 0.024757	 -0.039271	 1.962881	 -1.231603	 -0.994824	 0.041648	 0.749557	 -0.638479	 0.169630	 1
1463624175.101	 6	 -0.014010	 0.009810	 -0.042702	 1.963003	 -1.232350	 -0.994709	 0.041409	 0.749493	 -0.638632	 0.169394	 1
1463624175.111	 6	 0.005287	 0.028890	 -0.043762	 1.963320	 -1.233236	 -0.994569	 0.041180	 0.749431	 -0.638810	 0.169052	 1
1463624175.121	 6	 0.023653	 0.077749	 -0.045602	 1.964050	 -1.234094	 -0.994481	 0.041111	 0.749406	 -0.638978	 0.168547	 1
1463624175.131	 6	 0.032364	 0.122328	 -0.054857	 1.965316	 -1.234958	 -0.994379	 0.041206	 0.749425	 -0.639134	 0.167844	 1
1463624175.141	 6	 0.022775	 0.130820	 -0.061090	 1.966729	 -1.235746	 -0.994273	 0.041371	 0.749464	 -0.639271	 0.167109	 1
1463624175.151	 6	 0.005720	 0.127742	 -0.052444	 1.968287	 -1.236268	 -0.993973	 0.041593	 0.749545	 -0.639329	 0.166463	 1
1463624175.161	 6	 -0.006026	 0.124602	 -0.050239	 1.970262	 -1.236666	 -0.993218	 0.041816	 0.749683	 -0.639314	 0.165844	 1
1463624175.171	 6	 -0.009230	 0.126715	 -0.053389	 1.972600	 -1.237097	 -0.992104	 0.042012	 0.749855	 -0.639269	 0.165192	 1
1463624175.181	 6	 -0.019090	 0.093593	 -0.078126	 1.975293	 -1.237905	 -0.990416	 0.041987	 0.750026	 -0.639253	 0.164478	 1
1463624175.191	 6	 -0.016322	 0.031636	 -0.113900	 1.977493	 -1.239191	 -0.988574	 0.041598	 0.750108	 -0.639343	 0.163853	 1
1463624175.201	 6	 -0.013314	 0.007023	 -0.133341	 1.980005	 -1.240576	 -0.986093	 0.041038	 0.750215	 -0.639398	 0.163287	 1
1463624175.211	 6	 -0.017624	 -0.001473	 -0.133380	 1.982148	 -1.241451	 -0.983851	 0.040609	 0.750341	 -0.639368	 0.162936	 1
1463624175.221	 6	 -0.032304	 0.022243	 -0.095730	 1.984507	 -1.242285	 -0.981487	 0.040217	 0.750489	 -0.639316	 0.162555	 1
1463624175.231	 6	 -0.060276	 0.103994	 0.019311	 1.986967	 -1.242163	 -0.979805	 0.040410	 0.750736	 -0.639102	 0.162207	 1
1463624175.241	 6	 -0.039567	 0.120537	 0.108809	 1.988272	 -1.241111	 -0.979671	 0.041103	 0.750961	 -0.638827	 0.162076	 1
1463624175.251	 6	 -0.026904	 0.072788	 0.129569	 1.988223	 -1.239886	 -0.980474	 0.041770	 0.751076	 -0.638616	 0.162205	 1
1463624175.261	 6	 -0.019614	 0.015497	 0.152419	 1.987535	 -1.238435	 -0.981669	 0.042449	 0.751155	 -0.638399	 0.162518	 1
1463624175.271	 6	 -0.005954	 -0.264199	 0.162487	 1.984103	 -1.236911	 -0.983395	 0.042476	 0.751004	 -0.638268	 0.163714	 1
1463624175.281	 6	 0.046650	 -0.611426	 0.116167	 1.976490	 -1.235826	 -0.985755	 0.041270	 0.750444	 -0.638378	 0.166145	 1
1463624175.291	 6	 0.159589	 -0.647937	 0.113779	 1.965283	 -1.235351	 -0.990697	 0.039692	 0.749456	 -0.638912	 0.168913	 1
1463624175.301	 6	 0.211440	 -0.576300	 0.186466	 1.952107	 -1.234591	 -0.998334	 0.038579	 0.748263	 -0.639653	 0.171636	 1
1463624175.311	 6	 0.177144	 -0.452207	 0.271048	 1.939546	 -1.232956	 -1.006478	 0.038122	 0.747183	 -0.640242	 0.174224	 1
1463624175.321	 6	 0.104521	 -0.294093	 0.338163	 1.929698	 -1.230387	 -1.013406	 0.038373	 0.746434	 -0.640486	 0.176470	 1
1463624175.331	 6	 0.020911	 -0.193462	 0.394182	 1.922774	 -1.226968	 -1.018493	 0.039143	 0.746040	 -0.640343	 0.178474	 1
1463624175.341	 6	 -0.039978	 -0.309387	 0.517262	 1.916278	 -1.222376	 -1.022547	 0.040045	 0.745792	 -0.639863	 0.181011	 1
1463624175.351	 6	 -0.063660	 -0.434119	 0.614357	 1.908275	 -1.216597	 -1.026718	 0.040894	 0.745485	 -0.639187	 0.184441	 1
1463624175.361	 6	 -0.069465	 -0.425635	 0.755167	 1.899542	 -1.209651	 -1.031461	 0.042107	 0.745162	 -0.638352	 0.188325	 1
1463624175.371	 6	 -0.083231	 -0.437170	 1.065317	 1.888807	 -1.199954	 -1.038316	 0.044368	 0.744774	 -0.637214	 0.193136	 1
1463624175.381	 6	 -0.080545	 -0.450941	 1.220766	 1.877158	 -1.188413	 -1.046032	 0.047275	 0.744333	 -0.635841	 0.198594	 1
1463624175.391	 6	 -0.110860	 -0.431777	 1.357626	 1.865479	 -1.175477	 -1.053922	 0.050713	 0.743876	 -0.634252	 0.204451	 1
1463624175.401	 6	 -0.205623	 -0.465906	 1.452987	 1.855419	 -1.161247	 -1.059956	 0.054422	 0.743602	 -0.632216	 0.210706	 1
1463624175.411	 6	 -0.322204	 -0.601012	 1.548663	 1.846685	 -1.145811	 -1.063393	 0.058002	 0.743500	 -0.629654	 0.217669	 1
1463624175.421	 6	 -0.414538	 -0.835852	 1.687962	 1.837613	 -1.128848	 -1.064856	 0.061267	 0.743391	 -0.626584	 0.225849	 1
1463624175.431	 6	 -0.411563	 -1.050334	 1.886304	 1.826152	 -1.110109	 -1.066510	 0.064470	 0.742960	 -0.623250	 0.235400	 1
1463624175.441	 6	 -0.383247	 -1.256947	 2.006697	 1.811993	 -1.089864	 -1.068826	 0.067617	 0.742077	 -0.619787	 0.246200	 1
1463624175.451	 6	 -0.259048	 -1.207009	 2.049777	 1.796096	 -1.069373	 -1.072820	 0.070979	 0.740711	 -0.616576	 0.257184	 1
1463624175.461	 6	 -0.149566	 -1.133425	 2.120914	 1.779673	 -1.048460	 -1.078538	 0.075007	 0.738986	 -0.613578	 0.267946	 1
1463624175.471	 6	 -0.042616	 -1.123824	 2.168032	 1.762277	 -1.027165	 -1.085648	 0.079427	 0.736825	 -0.610807	 0.278740	 1
1463624175.481	 6	 0.058359	 -1.015360	 2.205464	 1.744778	 -1.005671	 -1.093920	 0.084356	 0.734326	 -0.608260	 0.289256	 1
1463624175.491	 6	 0.122493	 -0.859465	 2.315064	 1.728470	 -0.983341	 -1.102719	 0.090162	 0.731700	 -0.605674	 0.299407	 1
1463624175.501	 6	 0.176651	 -0.818101	 2.467381	 1.712485	 -0.959592	 -1.112066	 0.096780	 0.728802	 -0.602976	 0.309681	 1
1463624175.511	 6	 0.046267	 -0.718071	 2.596321	 1.698944	 -0.934248	 -1.119594	 0.104045	 0.726056	 -0.599647	 0.320064	 1
1463624175.521	 6	 -0.147139	 -0.830787	 2.668362	 1.688320	 -0.907897	 -1.123178	 0.111124	 0.723692	 -0.595375	 0.330831	 1
1463624175.531	 6	 -0.287744	 -0.996339	 2.662717	 1.678033	 -0.881012	 -1.124034	 0.117527	 0.721279	 -0.590522	 0.342386	 1
1463624175.541	 6	 -0.367113	 -1.076972	 2.658395	 1.668344	 -0.854323	 -1.122777	 0.123310	 0.718871	 -0.585281	 0.354212	 1
1463624175.551	 6	 -0.375413	 -0.817456	 2.947572	 1.660583	 -0.825584	 -1.121102	 0.130233	 0.716549	 -0.579354	 0.365986	 1
1463624175.561	 6	 -0.176462	 -0.538280	 3.537804	 1.654050	 -0.791717	 -1.121821	 0.140131	 0.713847	 -0.572607	 0.378030	 1
1463624175.571	 6	 0.198053	 -0.391318	 4.154052	 1.645796	 -0.751929	 -1.127639	 0.153366	 0.709818	 -0.565588	 0.390829	 1
1463624175.591	 7	 0.684437	 -0.952070	 4.758478	 1.619366	 -0.660644	 -1.149868	 0.184703	 0.696457	 -0.551876	 0.419839	 1
1463624175.601	 7	 0.586625	 -1.299810	 4.727318	 1.600639	 -0.613491	 -1.160043	 0.198995	 0.687459	 -0.545123	 0.436627	 1
1463624175.611	 7	 0.379820	 -1.509351	 4.495899	 1.583050	 -0.567781	 -1.166347	 0.211779	 0.678465	 -0.537834	 0.453398	 1
1463624175.621	 7	 0.231889	 -2.227373	 3.838259	 1.560957	 -0.527540	 -1.169565	 0.220499	 0.668677	 -0.531651	 0.470742	 1
1463624175.631	 7	 -0.025276	 -3.077239	 2.702882	 1.532542	 -0.497328	 -1.169396	 0.223112	 0.658343	 -0.527762	 0.488133	 1
1463624175.641	 7	 -0.486346	 -3.787279	 1.113369	 1.498470	 -0.482264	 -1.164431	 0.217628	 0.648558	 -0.526823	 0.504448	 1
1463624175.651	 7	 -1.053296	 -3.659962	 -0.185003	 1.465638	 -0.482165	 -1.154085	 0.205670	 0.641249	 -0.527631	 0.517788	 1
1463624175.661	 7	 -1.392261	 -3.152979	 -0.957472	 1.439418	 -0.491532	 -1.140283	 0.191074	 0.636981	 -0.528702	 0.527465	 1
1463624175.671	 7	 -1.520444	 -2.882877	 -1.309807	 1.417227	 -0.506014	 -1.125420	 0.175375	 0.634307	 -0.529941	 0.534846	 1
1463624175.681	 7	 -1.511980	 -3.050527	 -1.397768	 1.394651	 -0.522154	 -1.110821	 0.159013	 0.631484	 -0.531347	 0.541861	 1
1463624175.691	 7	 -1.380831	 -3.350422	 -1.338820	 1.368412	 -0.538220	 -1.097558	 0.142065	 0.627314	 -0.533057	 0.549676	 1
1463624175.701	 7	 -1.234696	 -3.538671	 -1.131889	 1.339566	 -0.552586	 -1.086217	 0.125585	 0.621848	 -0.534767	 0.558174	 1
1463624175.711	 7	 -1.385278	 -3.867435	 -0.768081	 1.308380	 -0.564222	 -1.073424	 0.108995	 0.615237	 -0.535291	 0.568390	 1
1463624175.721	 7	 -1.638515	 -4.024562	 -0.391124	 1.277297	 -0.573189	 -1.057019	 0.092325	 0.608229	 -0.533868	 0.580101	 1
1463624175.731	 7	 -1.889571	 -4.132051	 -0.061684	 1.247304	 -0.580101	 -1.036738	 0.075604	 0.601120	 -0.530476	 0.592902	 1
1463624175.741	 7	 -2.087477	 -4.252725	 0.230935	 1.218146	 -0.585380	 -1.013031	 0.058812	 0.593802	 -0.525317	 0.606615	 1
1463624175.751	 7	 -2.169868	 -4.500687	 0.471273	 1.188319	 -0.589258	 -0.987039	 0.041866	 0.585755	 -0.518789	 0.621287	 1
1463624175.761	 7	 -2.134854	 -4.906968	 0.634513	 1.155128	 -0.592084	 -0.960433	 0.024486	 0.576079	 -0.511469	 0.637129	 1
1463624175.771	 7	 -2.132817	 -5.074815	 0.809850	 1.119672	 -0.594104	 -0.933296	 0.006951	 0.565080	 -0.503339	 0.653672	 1
1463624175.781	 7	 -2.142362	 -4.751292	 0.978136	 1.086957	 -0.595375	 -0.905038	 -0.009625	 0.554380	 -0.494183	 0.669592	 1
1463624175.791	 7	 -1.989325	 -4.209289	 0.979716	 1.058790	 -0.596405	 -0.877677	 -0.024453	 0.544728	 -0.484856	 0.683804	 1
1463624175.801	 7	 -1.681637	 -3.586703	 0.862399	 1.034759	 -0.597508	 -0.853804	 -0.037128	 0.536190	 -0.476432	 0.695798	 1
1463624175.811	 7	 -1.328430	 -2.898658	 0.843345	 1.015227	 -0.597722	 -0.833909	 -0.047131	 0.528950	 -0.469085	 0.705656	 1
1463624175.821	 7	 -0.977630	 -2.219710	 1.035248	 1.001043	 -0.595168	 -0.816719	 -0.053903	 0.523219	 -0.462217	 0.713927	 1
1463624175.831	 7	 -0.634255	 -1.665087	 1.386990	 0.991887	 -0.588232	 -0.800991	 -0.057232	 0.518794	 -0.455211	 0.721360	 1
1463624175.841	 7	 -0.347704	 -1.216228	 1.797924	 0.987049	 -0.576335	 -0.785702	 -0.057338	 0.515413	 -0.447616	 0.728493	 1
1463624175.851	 7	 -0.196989	 -0.777015	 2.143874	 0.986696	 -0.560333	 -0.769924	 -0.054812	 0.513259	 -0.439215	 0.735289	 1
1463624175.861	 7	 -0.177477	 -0.434154	 2.350456	 0.990307	 -0.542072	 -0.753324	 -0.050665	 0.512374	 -0.430125	 0.741551	 1
1463624175.871	 7	 -0.222869	 -0.265628	 2.544256	 0.996341	 -0.522323	 -0.735519	 -0.045691	 0.512299	 -0.420244	 0.747568	 1
1463624175.881	 7	 -0.326313	 -0.239005	 2.800122	 1.003703	 -0.500932	 -0.715697	 -0.040293	 0.512626	 -0.409167	 0.753773	 1
1463624175.891	 7	 -0.459468	 -0.382644	 3.032281	 1.010683	 -0.478019	 -0.693616	 -0.034948	 0.512751	 -0.396743	 0.760565	 1
1463624175.901	 7	 -0.570842	 -0.540141	 3.122375	 1.016300	 -0.454521	 -0.670003	 -0.030044	 0.512414	 -0.383377	 0.767823	 1
1463624175.911	 7	 -0.597465	 -0.752798	 3.120627	 1.019526	 -0.431089	 -0.646249	 -0.025665	 0.511289	 -0.369712	 0.775395	 1
1463624175.921	 7	 -0.513174	 -1.004926	 3.147389	 1.019473	 -0.407201	 -0.623201	 -0.021487	 0.508966	 -0.355990	 0.783430	 1
1463624175.931	 7	 -0.297157	 -1.186999	 3.207759	 1.016263	 -0.381923	 -0.601747	 -0.016805	 0.505384	 -0.342405	 0.791873	 1
1463624175.941	 7	 -0.005961	 -1.292503	 3.296964	 1.010513	 -0.354586	 -0.582459	 -0.011029	 0.500695	 -0.329087	 0.800553	 1
1463624175.951	 7	 0.298705	 -1.317752	 3.458203	 1.003121	 -0.324559	 -0.565110	 -0.003761	 0.495161	 -0.315859	 0.809342	 1
1463624175.961	 7	 0.571867	 -1.305075	 3.703200	 0.994954	 -0.291232	 -0.548938	 0.005231	 0.489047	 -0.302315	 0.818176	 1
1463624175.971	 7	 0.838069	 -1.163857	 3.923875	 0.987070	 -0.254594	 -0.533573	 0.016035	 0.482760	 -0.288309	 0.826779	 1
1463624175.981	 7	 1.101881	 -1.024152	 4.081676	 0.979798	 -0.215206	 -0.519420	 0.028549	 0.476462	 -0.274124	 0.834880	 1
1463624175.991	 7	 1.346323	 -0.916315	 4.237218	 0.972930	 -0.173222	 -0.506313	 0.042622	 0.470059	 -0.259727	 0.842478	 1
1463624176.001	 7	 1.555146	 -0.876594	 4.372187	 0.965956	 -0.128913	 -0.494044	 0.058010	 0.463334	 -0.245105	 0.849635	 1
1463624176.011	 7	 1.702324	 -0.951006	 4.437356	 0.957986	 -0.083049	 -0.482341	 0.074208	 0.455961	 -0.230356	 0.856463	 1
1463624176.021	 7	 1.797178	 -1.136927	 4.358066	 0.947790	 -0.036994	 -0.471403	 0.090550	 0.447505	 -0.215962	 0.863076	 1
1463624176.031	 7	 1.837670	 -1.425743	 4.148268	 0.934452	 0.007787	 -0.461441	 0.106383	 0.437678	 -0.202461	 0.869558	 1
1463624176.041	 7	 1.777848	 -1.686851	 3.905497	 0.917916	 0.050284	 -0.452020	 0.121208	 0.426560	 -0.189983	 0.875934	 1
1463624176.051	 7	 1.690406	 -1.978227	 3.730893	 0.898255	 0.090504	 -0.442286	 0.134896	 0.414234	 -0.178227	 0.882297	 1
1463624176.061	 7	 1.676801	 -2.273670	 3.612094	 0.875056	 0.129300	 -0.432214	 0.147822	 0.400433	 -0.167087	 0.888754	 1
1463624176.071	 7	 1.732442	 -2.366187	 3.490318	 0.850037	 0.167200	 -0.422223	 0.160487	 0.385834	 -0.156570	 0.894909	 1
1463624176.081	 7	 1.838670	 -2.355788	 3.354138	 0.824699	 0.204476	 -0.412827	 0.173228	 0.371043	 -0.146758	 0.900434	 1
1463624176.091	 7	 1.965482	 -2.291109	 3.231073	 0.799693	 0.241427	 -0.404226	 0.186239	 0.356311	 -0.137637	 0.905215	 1
1463624176.101	 7	 2.079898	 -2.179250	 3.155448	 0.775527	 0.278373	 -0.396127	 0.199610	 0.341869	 -0.128967	 0.909203	 1
1463624176.111	 7	 2.185956	 -2.050170	 3.104569	 0.752376	 0.315523	 -0.388198	 0.213358	 0.327818	 -0.120533	 0.912406	 1
1463624176.121	 7	 2.291109	 -1.888106	 3.055071	 0.730519	 0.352936	 -0.380437	 0.227501	 0.314299	 -0.112283	 0.914796	 1
1463624176.131	 7	 2.390041	 -1.694058	 3.013384	 0.710324	 0.390480	 -0.372795	 0.241963	 0.301518	 -0.104159	 0.916347	 1
1463624176.141	 7	 2.486696	 -1.520298	 2.959804	 0.691787	 0.428179	 -0.365347	 0.256732	 0.289476	 -0.096166	 0.917085	 1
1463624176.151	 7	 2.532827	 -1.401893	 2.879503	 0.674481	 0.465457	 -0.358119	 0.271506	 0.278053	 -0.088448	 0.917141	 1
1463624176.171	 8	 2.468034	 -1.529488	 2.566580	 0.639914	 0.532671	 -0.344628	 0.298168	 0.256104	 -0.075465	 0.916412	 1
1463624176.181	 8	 2.338980	 -1.584696	 2.381746	 0.620752	 0.565993	 -0.338068	 0.311439	 0.244357	 -0.069753	 0.915658	 1
1463624176.191	 8	 2.166204	 -1.597534	 2.155058	 0.601210	 0.596805	 -0.331535	 0.323661	 0.232797	 -0.064787	 0.914796	 1
1463624176.201	 8	 1.950713	 -1.612411	 1.923393	 0.581494	 0.624502	 -0.325153	 0.334584	 0.221571	 -0.060666	 0.913936	 1
1463624176.211	 8	 1.720039	 -1.694115	 1.710423	 0.560938	 0.648975	 -0.318645	 0.344108	 0.210434	 -0.057360	 0.913245	 1
1463624176.221	 8	 1.528676	 -1.801558	 1.484082	 0.539362	 0.670447	 -0.312436	 0.352372	 0.199196	 -0.055032	 0.912758	 1
1463624176.231	 8	 1.369894	 -1.807894	 1.279714	 0.517693	 0.689299	 -0.306834	 0.359591	 0.188172	 -0.053571	 0.912368	 1
1463624176.241	 8	 1.227874	 -1.714839	 1.147530	 0.496798	 0.706029	 -0.301419	 0.365954	 0.177763	 -0.052522	 0.911987	 1
1463624176.251	 8	 1.125682	 -1.600190	 1.075949	 0.476817	 0.721283	 -0.295767	 0.371709	 0.168029	 -0.051543	 0.911560	 1
1463624176.261	 8	 1.081230	 -1.479176	 1.025240	 0.457827	 0.735676	 -0.289917	 0.377131	 0.158930	 -0.050529	 0.911022	 1
1463624176.271	 8	 1.087984	 -1.358346	 0.969820	 0.440135	 0.749707	 -0.284269	 0.382478	 0.150474	 -0.049521	 0.910283	 1
1463624176.281	 8	 1.127760	 -1.248268	 0.911881	 0.423852	 0.763733	 -0.279130	 0.387927	 0.142613	 -0.048581	 0.909293	 1
1463624176.291	 8	 1.163286	 -1.129707	 0.848729	 0.409126	 0.777792	 -0.274623	 0.393496	 0.135383	 -0.047720	 0.908050	 1
1463624176.301	 8	 1.166843	 -0.990932	 0.773255	 0.396149	 0.791647	 -0.270780	 0.399077	 0.128880	 -0.046927	 0.906601	 1
1463624176.321	 9	 1.001902	 -0.759716	 0.616978	 0.374819	 0.816869	 -0.264595	 0.409364	 0.118020	 -0.045589	 0.903556	 1
1463624176.331	 9	 0.820506	 -0.704310	 0.557259	 0.365336	 0.827025	 -0.261386	 0.413451	 0.113429	 -0.044981	 0.902313	 1
1463624176.341	 9	 0.624018	 -0.692369	 0.511121	 0.355647	 0.835156	 -0.257671	 0.416618	 0.109066	 -0.044446	 0.901420	 1
1463624176.351	 9	 0.448993	 -0.668676	 0.480893	 0.345678	 0.841434	 -0.253355	 0.418939	 0.104894	 -0.043927	 0.900865	 1
1463624176.361	 9	 0.320110	 -0.615129	 0.479316	 0.335651	 0.846316	 -0.248341	 0.420619	 0.100989	 -0.043276	 0.900560	 1
1463624176.371	 9	 0.264740	 -0.607363	 0.501186	 0.325295	 0.850517	 -0.242603	 0.421969	 0.097162	 -0.042457	 0.900388	 1
1463624176.381	 9	 0.264657	 -0.639150	 0.517943	 0.314352	 0.854621	 -0.236437	 0.423261	 0.093185	 -0.041598	 0.900243	 1
1463624176.391	 9	 0.289052	 -0.678509	 0.526956	 0.302873	 0.858908	 -0.230112	 0.424634	 0.088999	 -0.040785	 0.900057	 1
1463624176.401	 9	 0.303974	 -0.695457	 0.542655	 0.290997	 0.863369	 -0.223566	 0.426086	 0.084683	 -0.039963	 0.899824	 1
1463624176.411	 9	 0.300766	 -0.715495	 0.564877	 0.278590	 0.867850	 -0.216606	 0.427541	 0.080234	 -0.039090	 0.899580	 1
1463624176.421	 9	 0.232647	 -0.718134	 0.613405	 0.265352	 0.871890	 -0.208646	 0.428768	 0.075677	 -0.038008	 0.899437	 1
1463624176.431	 9	 0.193941	 -0.722760	 0.546556	 0.252184	 0.875308	 -0.200866	 0.429753	 0.071175	 -0.037064	 0.899374	 1
1463624176.441	 9	 0.142351	 -0.696911	 0.423617	 0.240237	 0.877944	 -0.194565	 0.430487	 0.066972	 -0.036599	 0.899364	 1
1463624176.451	 9	 0.089964	 -0.617844	 0.305444	 0.230243	 0.879711	 -0.189848	 0.430937	 0.063374	 -0.036501	 0.899414	 1
1463624176.461	 9	 0.065428	 -0.544996	 0.221074	 0.221983	 0.880930	 -0.186448	 0.431223	 0.060311	 -0.036666	 0.899480	 1
1463624176.471	 9	 0.056167	 -0.456822	 0.202792	 0.214942	 0.881928	 -0.183525	 0.431452	 0.057711	 -0.036801	 0.899535	 1
1463624176.481	 9	 0.067401	 -0.377803	 0.250323	 0.208315	 0.883032	 -0.180112	 0.431726	 0.055397	 -0.036622	 0.899557	 1
1463624176.491	 9	 0.102254	 -0.274366	 0.322407	 0.201904	 0.884550	 -0.175713	 0.432167	 0.053370	 -0.035930	 0.899495	 1
1463624176.501	 9	 0.147612	 -0.214472	 0.386516	 0.195523	 0.886616	 -0.170372	 0.432836	 0.051531	 -0.034778	 0.899327	 1
1463624176.511	 9	 0.159416	 -0.229151	 0.420381	 0.188699	 0.888981	 -0.164419	 0.433624	 0.049615	 -0.033435	 0.899105	 1
1463624176.521	 9	 0.102280	 -0.347080	 0.415518	 0.180785	 0.890937	 -0.158223	 0.434217	 0.047292	 -0.032251	 0.898988	 1
1463624176.531	 9	 -0.050205	 -0.542379	 0.409699	 0.170861	 0.891570	 -0.151754	 0.434194	 0.044201	 -0.031463	 0.899184	 1
1463624176.541	 9	 -0.175184	 -0.728706	 0.332319	 0.159332	 0.890744	 -0.145771	 0.433517	 0.040357	 -0.031317	 0.899696	 1
1463624176.551	 9	 -0.292296	 -0.810994	 0.231325	 0.147742	 0.888517	 -0.141125	 0.432248	 0.036255	 -0.031845	 0.900463	 1
1463624176.561	 9	 -0.359849	 -0.812436	 0.151968	 0.136898	 0.885328	 -0.137694	 0.430584	 0.032258	 -0.032789	 0.901377	 1
1463624176.571	 9	 -0.373362	 -0.690474	 0.097801	 0.127688	 0.881771	 -0.135205	 0.428796	 0.028800	 -0.033803	 0.902309	 1
1463624176.581	 9	 -0.305526	 -0.501876	 0.025427	 0.121137	 0.878583	 -0.133869	 0.427232	 0.026268	 -0.034737	 0.903093	 1
1463624176.591	 9	 -0.224330	 -0.243768	 0.010070	 0.117563	 0.876167	 -0.133282	 0.426075	 0.024882	 -0.035333	 0.903655	 1
1463624176.601	 9	 -0.147416	 -0.014143	 0.025392	 0.116404	 0.874551	 -0.132642	 0.425319	 0.024563	 -0.035356	 0.904019	 1
1463624176.611	 9	 -0.120041	 0.124124	 0.036032	 0.116863	 0.873384	 -0.131934	 0.424792	 0.024970	 -0.034986	 0.904270	 1
1463624176.621	 9	 -0.132567	 0.173175	 0.048321	 0.117657	 0.872148	 -0.130912	 0.424236	 0.025598	 -0.034405	 0.904536	 1
1463624176.631	 9	 -0.166701	 0.198613	 0.022211	 0.119092	 0.870641	 -0.130213	 0.423572	 0.026459	 -0.033845	 0.904843	 1
1463624176.641	 9	 -0.216213	 0.115739	 0.014410	 0.120035	 0.868639	 -0.129571	 0.422677	 0.027105	 -0.033437	 0.905258	 1
1463624176.651	 9	 -0.262865	 -0.028921	 -0.005713	 0.119764	 0.866148	 -0.129100	 0.421542	 0.027186	 -0.033382	 0.905786	 1
1463624176.661	 9	 -0.271248	 -0.189781	 -0.044461	 0.121949	 0.860255	 -0.131903	 0.418957	 0.027836	 -0.034435	 0.906926	 1
1463624176.671	 9	 -0.239852	 -0.274301	 -0.099875	 0.119963	 0.857684	 -0.132732	 0.417772	 0.026871	 -0.035332	 0.907467	 1
