% Gyrometer data recorded with 'snsrlog'
% 
% 
% Label description:
% 	 0: Default Label
% 	 1: still_drop
% 	 2: walk_drop
% 	 3: other
% 	 4: dtw_same
% 	 5: dtw_diff
% 	 6: delete
% 	 7: steal
% 
% Column description:
% 	 1: Seconds.milliseconds since 1970
% 	 2: Number of skipped measurements
% 	 3: Gyro X
% 	 4: Gyro Y
% 	 5: Gyro Z
% 	 6: Roll of the device
% 	 7: Pitch of the device
% 	 8: Yaw of the device
% 	 9: Quaternion X
% 	 10: Quaternion Y
% 	 11: Quaternion Z
% 	 12: Quaternion W
% 	 13: Label used for the current sample
% 
% 
1463624136.519	 1	 -2.257401	 0.817077	 0.916544	 0.379906	 0.772053	 -0.199636	 0.385329	 0.137203	 -0.019922	 0.912305	 1
1463624136.529	 1	 -2.364397	 0.886309	 1.033222	 0.371353	 0.753992	 -0.174742	 0.375399	 0.139422	 -0.012036	 0.916238	 1
1463624136.539	 1	 -2.421494	 0.999214	 1.032639	 0.364106	 0.735238	 -0.149771	 0.365105	 0.142035	 -0.003777	 0.920060	 1
1463624136.549	 1	 -2.419250	 1.132272	 0.901703	 0.359660	 0.715916	 -0.126506	 0.354612	 0.145400	 0.004292	 0.923629	 1
1463624136.559	 1	 -2.354652	 1.274589	 0.606183	 0.359409	 0.696125	 -0.107025	 0.344091	 0.149831	 0.011407	 0.926834	 1
1463624136.569	 1	 -2.262896	 1.433684	 0.142192	 0.364641	 0.675690	 -0.093322	 0.333585	 0.155672	 0.016753	 0.929627	 1
1463624136.579	 1	 -2.191180	 1.538604	 -0.467072	 0.375856	 0.654027	 -0.086819	 0.322941	 0.163063	 0.019582	 0.932060	 1
1463624136.589	 1	 -2.185809	 1.610701	 -1.082459	 0.392093	 0.630220	 -0.087480	 0.311792	 0.171733	 0.019536	 0.934298	 1
1463624136.599	 1	 -2.117448	 1.685654	 -1.425532	 0.411755	 0.605217	 -0.092546	 0.300432	 0.181435	 0.017634	 0.936222	 1
1463624136.609	 1	 -1.959070	 1.670339	 -1.566668	 0.432446	 0.580624	 -0.099562	 0.289469	 0.191398	 0.014769	 0.937740	 1
1463624136.619	 1	 -1.715077	 1.691063	 -1.690097	 0.453880	 0.557460	 -0.108236	 0.279389	 0.201496	 0.011143	 0.938732	 1
1463624136.629	 1	 -1.415185	 1.841011	 -1.865032	 0.477663	 0.535941	 -0.119456	 0.270418	 0.212361	 0.006597	 0.939007	 1
1463624136.639	 1	 -1.084439	 2.147645	 -1.981227	 0.505085	 0.516398	 -0.133059	 0.262754	 0.224613	 0.001422	 0.938354	 1
1463624136.649	 1	 -0.775776	 2.644577	 -1.971830	 0.537387	 0.499157	 -0.147903	 0.256489	 0.238949	 -0.003635	 0.936538	 1
1463624136.659	 1	 -0.547126	 3.257610	 -1.825304	 0.575209	 0.484218	 -0.162333	 0.251473	 0.255836	 -0.007697	 0.933407	 1
1463624136.679	 2	 -0.438707	 4.276230	 -1.532211	 0.664730	 0.458460	 -0.186224	 0.243405	 0.296397	 -0.011771	 0.923452	 1
1463624136.689	 2	 -0.612387	 4.557819	 -1.506917	 0.736770	 0.425126	 -0.204966	 0.231791	 0.330023	 -0.017720	 0.914901	 1
1463624136.699	 2	 -0.882804	 4.681046	 -1.490626	 0.785671	 0.408953	 -0.210698	 0.225963	 0.353031	 -0.017820	 0.907740	 1
1463624136.709	 2	 -1.194312	 4.671605	 -1.451766	 0.833322	 0.390684	 -0.212862	 0.218666	 0.375911	 -0.017183	 0.900323	 1
1463624136.719	 2	 -1.447022	 4.509448	 -1.474522	 0.878560	 0.370529	 -0.211849	 0.209978	 0.398041	 -0.016149	 0.892867	 1
1463624136.739	 3	 -1.477290	 4.023227	 -1.800643	 0.960796	 0.325785	 -0.207392	 0.190247	 0.438679	 -0.016036	 0.878129	 1
1463624136.749	 3	 -1.209918	 3.886755	 -2.031248	 0.999995	 0.302231	 -0.207688	 0.180530	 0.457712	 -0.018147	 0.870390	 1
1463624136.759	 3	 -0.805479	 3.878330	 -2.295959	 1.039889	 0.278467	 -0.211735	 0.171761	 0.476542	 -0.022252	 0.861923	 1
1463624136.769	 3	 -0.377477	 3.910061	 -2.587147	 1.081107	 0.254172	 -0.220101	 0.164079	 0.495437	 -0.028581	 0.852528	 1
1463624136.779	 3	 -0.035319	 3.838902	 -2.874281	 1.122624	 0.228649	 -0.232105	 0.157155	 0.514083	 -0.037071	 0.842405	 1
1463624136.789	 3	 0.083608	 3.475069	 -3.130222	 1.161546	 0.201085	 -0.245885	 0.150228	 0.531488	 -0.047352	 0.832292	 1
1463624136.799	 3	 -0.211472	 3.062985	 -3.313732	 1.195036	 0.170333	 -0.257492	 0.141713	 0.546885	 -0.058300	 0.823065	 1
1463624136.809	 3	 -0.610116	 2.956577	 -3.334698	 1.225928	 0.137329	 -0.264533	 0.131322	 0.561524	 -0.068491	 0.814097	 1
1463624136.819	 3	 -0.861816	 2.959697	 -3.299439	 1.255753	 0.103404	 -0.267592	 0.119705	 0.575821	 -0.077725	 0.805022	 1
1463624136.829	 3	 -0.860307	 3.233438	 -3.244683	 1.287316	 0.069649	 -0.268818	 0.107971	 0.590620	 -0.086420	 0.795011	 1
1463624136.839	 3	 -0.563037	 3.775319	 -3.201730	 1.323699	 0.036978	 -0.270919	 0.097432	 0.606873	 -0.095255	 0.783031	 1
1463624136.849	 3	 -0.003627	 4.462140	 -3.159710	 1.366639	 0.005691	 -0.276500	 0.089195	 0.625040	 -0.105089	 0.768327	 1
1463624136.859	 3	 0.744073	 5.192495	 -3.051782	 1.416651	 -0.023660	 -0.287399	 0.084266	 0.645099	 -0.116367	 0.750470	 1
1463624136.869	 3	 1.557712	 5.663014	 -2.960701	 1.471712	 -0.051508	 -0.304636	 0.082943	 0.666127	 -0.129518	 0.729809	 1
1463624136.879	 3	 2.221455	 5.720058	 -3.039487	 1.527436	 -0.080028	 -0.327465	 0.084137	 0.686525	 -0.144934	 0.707530	 1
1463624136.889	 3	 2.628376	 5.557415	 -3.302458	 1.581042	 -0.111919	 -0.353507	 0.086041	 0.705470	 -0.162633	 0.684441	 1
1463624136.899	 3	 2.867755	 5.260468	 -3.672862	 1.630904	 -0.148594	 -0.380594	 0.087361	 0.722546	 -0.182378	 0.661085	 1
1463624136.909	 3	 3.038290	 4.800339	 -3.986634	 1.675709	 -0.190142	 -0.407618	 0.087549	 0.737395	 -0.203898	 0.637973	 1
1463624136.919	 3	 3.133821	 4.117383	 -4.111054	 1.713084	 -0.234585	 -0.434049	 0.086719	 0.749294	 -0.226427	 0.616254	 1
1463624136.929	 3	 3.167062	 3.437938	 -4.069707	 1.742583	 -0.279927	 -0.459690	 0.085162	 0.758216	 -0.249187	 0.596457	 1
1463624136.939	 3	 3.161723	 2.862537	 -3.923677	 1.765077	 -0.324628	 -0.484711	 0.083272	 0.764561	 -0.271603	 0.578570	 1
1463624136.949	 3	 3.094036	 2.523588	 -3.903860	 1.782890	 -0.369071	 -0.508801	 0.080892	 0.769170	 -0.293591	 0.561817	 1
1463624136.959	 3	 2.954091	 2.252899	 -3.887043	 1.797433	 -0.413609	 -0.531227	 0.077677	 0.772556	 -0.314999	 0.545801	 1
1463624136.969	 3	 2.785046	 2.100761	 -3.814515	 1.810117	 -0.457438	 -0.551783	 0.073915	 0.775160	 -0.335437	 0.530232	 1
1463624136.979	 3	 2.724538	 2.065667	 -3.691752	 1.821913	 -0.500224	 -0.571330	 0.070142	 0.777239	 -0.354995	 0.514741	 1
1463624136.989	 3	 2.811196	 1.723269	 -3.498526	 1.829759	 -0.541596	 -0.592103	 0.066732	 0.777986	 -0.374216	 0.500247	 1
1463624136.999	 3	 2.877947	 1.366837	 -3.195485	 1.832171	 -0.580684	 -0.614833	 0.063830	 0.777144	 -0.392987	 0.487376	 1
1463624137.009	 3	 2.746001	 1.078986	 -2.755789	 1.830318	 -0.615580	 -0.638492	 0.061718	 0.775208	 -0.410357	 0.476289	 1
1463624137.019	 3	 2.594759	 0.834270	 -2.389061	 1.825298	 -0.646199	 -0.662205	 0.060221	 0.772577	 -0.426096	 0.466842	 1
1463624137.029	 3	 2.370591	 0.516355	 -2.025577	 1.817098	 -0.672773	 -0.685399	 0.058986	 0.769328	 -0.440209	 0.459207	 1
1463624137.039	 3	 2.045926	 0.136185	 -1.634087	 1.805923	 -0.694663	 -0.706760	 0.057723	 0.765610	 -0.452267	 0.453833	 1
1463624137.049	 3	 1.688268	 -0.193108	 -1.280204	 1.792728	 -0.711994	 -0.725385	 0.056260	 0.761679	 -0.462171	 0.450642	 1
1463624137.059	 3	 1.311616	 -0.499814	 -0.899302	 1.778348	 -0.724746	 -0.740826	 0.054654	 0.757727	 -0.469881	 0.449528	 1
1463624137.069	 3	 0.971181	 -0.818344	 -0.520956	 1.762831	 -0.732816	 -0.753000	 0.052958	 0.753742	 -0.475423	 0.450602	 1
1463624137.079	 3	 0.645345	 -1.160736	 -0.200511	 1.746104	 -0.736867	 -0.761918	 0.050989	 0.749655	 -0.479053	 0.453791	 1
1463624137.089	 3	 0.385427	 -1.493223	 0.045915	 1.727999	 -0.737701	 -0.767803	 0.048567	 0.745365	 -0.481085	 0.458944	 1
1463624137.099	 3	 0.264532	 -1.732792	 0.254694	 1.708501	 -0.736159	 -0.772027	 0.045956	 0.740777	 -0.482086	 0.465544	 1
1463624137.109	 3	 0.273974	 -1.975650	 0.502806	 1.686425	 -0.732115	 -0.776321	 0.043578	 0.735531	 -0.482457	 0.473635	 1
1463624137.119	 3	 0.387375	 -2.093574	 0.713873	 1.661959	 -0.725902	 -0.781927	 0.041839	 0.729584	 -0.482608	 0.482749	 1
1463624137.129	 3	 0.471412	 -2.081828	 0.900825	 1.636382	 -0.717726	 -0.788881	 0.040997	 0.723190	 -0.482613	 0.492341	 1
1463624137.139	 3	 0.412858	 -1.961360	 1.062320	 1.612281	 -0.707759	 -0.795375	 0.040974	 0.716992	 -0.482055	 0.501863	 1
1463624137.149	 3	 0.350212	 -1.799435	 1.218908	 1.590476	 -0.696045	 -0.800577	 0.041673	 0.711206	 -0.480730	 0.511222	 1
1463624137.159	 3	 0.325297	 -1.511447	 1.320921	 1.571729	 -0.683099	 -0.805017	 0.043301	 0.706036	 -0.478889	 0.519908	 1
1463624137.169	 3	 0.312381	 -1.124951	 1.371523	 1.557051	 -0.669445	 -0.808967	 0.046014	 0.701779	 -0.476706	 0.527390	 1
1463624137.179	 3	 0.116339	 -0.957192	 1.252228	 1.546018	 -0.656438	 -0.811014	 0.048726	 0.698436	 -0.474148	 0.533851	 1
1463624137.199	 4	 -0.886584	 -1.153704	 0.735843	 1.532776	 -0.638717	 -0.797556	 0.047245	 0.694629	 -0.466246	 0.545777	 1
1463624137.209	 4	 -1.159191	 -1.247625	 0.727750	 1.528893	 -0.632042	 -0.783444	 0.043835	 0.693671	 -0.460724	 0.551935	 1
1463624137.219	 4	 -0.935748	 -0.980046	 1.049089	 1.525859	 -0.622914	 -0.770275	 0.041847	 0.692825	 -0.454741	 0.558080	 1
1463624137.229	 4	 -0.530806	 -0.654855	 1.321425	 1.523483	 -0.610560	 -0.761927	 0.042852	 0.691945	 -0.449188	 0.563565	 1
1463624137.239	 4	 -0.267212	 -0.454384	 1.351902	 1.521093	 -0.597112	 -0.757160	 0.045498	 0.690932	 -0.444315	 0.568443	 1
1463624137.249	 4	 -0.164367	 -0.194558	 1.142404	 1.520069	 -0.585161	 -0.754285	 0.048572	 0.690294	 -0.440323	 0.572058	 1
1463624137.259	 4	 -0.142192	 0.220250	 0.858315	 1.522352	 -0.575969	 -0.751908	 0.051552	 0.690678	 -0.437113	 0.573793	 1
1463624137.269	 4	 0.009280	 0.772953	 0.721458	 1.529195	 -0.568555	 -0.751065	 0.055409	 0.692392	 -0.434680	 0.573216	 1
1463624137.279	 4	 0.240954	 1.449979	 0.747056	 1.540923	 -0.561209	 -0.752893	 0.061208	 0.695421	 -0.432852	 0.570335	 1
1463624137.289	 4	 0.451734	 2.308029	 0.939714	 1.559403	 -0.552295	 -0.757332	 0.069910	 0.700188	 -0.431041	 0.564848	 1
1463624137.299	 4	 0.852866	 3.192604	 1.200235	 1.584705	 -0.540969	 -0.765952	 0.082364	 0.706525	 -0.429314	 0.556532	 1
1463624137.309	 4	 1.387856	 3.773218	 1.400278	 1.613613	 -0.527732	 -0.780946	 0.098478	 0.713297	 -0.428360	 0.545910	 1
1463624137.319	 4	 1.715139	 4.021391	 1.287832	 1.643417	 -0.515301	 -0.800940	 0.116280	 0.719754	 -0.428550	 0.533646	 1
1463624137.329	 4	 1.698347	 3.868341	 1.003061	 1.672740	 -0.506144	 -0.821526	 0.133096	 0.725802	 -0.429455	 0.520639	 1
1463624137.339	 4	 1.666803	 3.246769	 0.785465	 1.697307	 -0.499722	 -0.841589	 0.147820	 0.730426	 -0.430984	 0.508803	 1
1463624137.349	 4	 1.624816	 2.453930	 0.559972	 1.714552	 -0.495808	 -0.861025	 0.159944	 0.733091	 -0.433385	 0.499172	 1
1463624137.359	 4	 1.485680	 1.638112	 0.353229	 1.724575	 -0.494143	 -0.878899	 0.169223	 0.734022	 -0.436491	 0.491987	 1
1463624137.369	 4	 1.030202	 0.658935	 0.225520	 1.727268	 -0.493420	 -0.892508	 0.175040	 0.733474	 -0.439378	 0.488185	 1
1463624137.379	 4	 0.418142	 -0.351942	 0.209720	 1.722998	 -0.492312	 -0.899163	 0.176897	 0.731787	 -0.441049	 0.488540	 1
1463624137.389	 4	 0.029890	 -0.955384	 0.440887	 1.713861	 -0.488822	 -0.901131	 0.176735	 0.729181	 -0.441305	 0.492250	 1
1463624137.399	 4	 -0.251524	 -1.322884	 0.690371	 1.701867	 -0.482281	 -0.900036	 0.175830	 0.725933	 -0.440161	 0.498361	 1
1463624137.409	 4	 -0.571909	 -1.495309	 0.837566	 1.689312	 -0.473678	 -0.895719	 0.174334	 0.722646	 -0.437646	 0.505822	 1
1463624137.419	 4	 -0.908807	 -1.706564	 0.903545	 1.676500	 -0.463890	 -0.887617	 0.171849	 0.719477	 -0.433812	 0.514420	 1
1463624137.429	 4	 -1.159964	 -1.917233	 0.791866	 1.662770	 -0.454472	 -0.876318	 0.167953	 0.716277	 -0.429279	 0.523888	 1
1463624137.439	 4	 -1.212013	 -1.717341	 0.615131	 1.650426	 -0.446930	 -0.863424	 0.163224	 0.713599	 -0.424679	 0.532711	 1
1463624137.449	 4	 -0.979658	 -1.423456	 0.461307	 1.640202	 -0.441203	 -0.852224	 0.158993	 0.711390	 -0.420816	 0.539962	 1
1463624137.459	 4	 -0.636387	 -0.730712	 0.352860	 1.634134	 -0.436923	 -0.844508	 0.156420	 0.710076	 -0.417943	 0.544655	 1
1463624137.469	 4	 -0.282963	 0.337172	 0.205184	 1.636326	 -0.434235	 -0.840638	 0.156408	 0.710802	 -0.415925	 0.545256	 1
1463624137.479	 4	 0.035184	 1.023267	 0.201184	 1.645308	 -0.432313	 -0.840324	 0.158807	 0.713146	 -0.414562	 0.542532	 1
1463624137.489	 4	 0.302725	 1.191335	 0.458333	 1.655847	 -0.428745	 -0.843270	 0.163234	 0.715531	 -0.413448	 0.538917	 1
1463624137.499	 4	 0.494337	 1.045269	 0.780363	 1.664529	 -0.422142	 -0.848924	 0.169248	 0.716969	 -0.412267	 0.536047	 1
1463624137.509	 4	 0.557809	 0.782555	 0.952151	 1.670160	 -0.413477	 -0.855883	 0.175771	 0.717304	 -0.411036	 0.534443	 1
1463624137.519	 4	 0.474524	 0.589914	 0.900992	 1.673875	 -0.404796	 -0.862373	 0.181724	 0.717124	 -0.409816	 0.533630	 1
1463624137.529	 4	 0.287785	 0.709648	 0.763052	 1.678513	 -0.397246	 -0.866938	 0.186790	 0.717410	 -0.408319	 0.532641	 1
1463624137.539	 4	 -0.002761	 1.362215	 0.724760	 1.690091	 -0.389962	 -0.868594	 0.192122	 0.719811	 -0.405444	 0.529695	 1
1463624137.549	 4	 -0.245074	 1.523088	 0.517346	 1.705725	 -0.383990	 -0.867383	 0.196778	 0.723630	 -0.401769	 0.525567	 1
1463624137.559	 4	 -0.423587	 1.462084	 0.246563	 1.721808	 -0.380317	 -0.863761	 0.199862	 0.727942	 -0.398084	 0.521234	 1
1463624137.569	 4	 -0.484613	 1.430441	 -0.034561	 1.738063	 -0.379221	 -0.858732	 0.201598	 0.732590	 -0.394804	 0.516527	 1
1463624137.579	 4	 -0.428986	 1.375861	 -0.205010	 1.753802	 -0.380158	 -0.853660	 0.202534	 0.737209	 -0.392207	 0.511544	 1
1463624137.589	 4	 -0.281383	 1.480429	 -0.245821	 1.769629	 -0.381896	 -0.849747	 0.203636	 0.741741	 -0.390161	 0.506090	 1
1463624137.599	 4	 -0.092074	 1.801032	 -0.253012	 1.787536	 -0.384068	 -0.847712	 0.205686	 0.746581	 -0.388518	 0.499363	 1
1463624137.609	 4	 0.050804	 1.999520	 -0.251343	 1.807397	 -0.386557	 -0.847311	 0.208618	 0.751685	 -0.387172	 0.491474	 1
1463624137.619	 4	 0.147307	 2.091810	 -0.245996	 1.827651	 -0.389283	 -0.847947	 0.211938	 0.756702	 -0.386092	 0.483132	 1
1463624137.629	 4	 0.182482	 2.663706	 -0.130141	 1.851981	 -0.391391	 -0.849363	 0.216526	 0.762477	 -0.384523	 0.473167	 1
1463624137.639	 4	 -0.027532	 3.583379	 0.176527	 1.885257	 -0.390682	 -0.850130	 0.223398	 0.770125	 -0.380805	 0.460423	 1
1463624137.649	 4	 -0.363496	 3.825835	 0.475867	 1.922449	 -0.384937	 -0.849271	 0.231763	 0.778401	 -0.374418	 0.447425	 1
1463624137.659	 4	 -0.264875	 3.142468	 0.593346	 1.952521	 -0.378237	 -0.849688	 0.239425	 0.784711	 -0.368646	 0.437041	 1
1463624137.669	 4	 0.414919	 1.601076	 0.544309	 1.971087	 -0.373957	 -0.854286	 0.245845	 0.787996	 -0.365891	 0.429822	 1
1463624137.679	 4	 0.740501	 -0.047732	 0.646563	 1.970927	 -0.371177	 -0.863807	 0.250339	 0.786661	 -0.366978	 0.428744	 1
1463624137.689	 4	 0.505483	 -0.773685	 0.912557	 1.960915	 -0.365553	 -0.873013	 0.253683	 0.783090	 -0.368255	 0.432207	 1
1463624137.699	 4	 0.488503	 -0.577499	 0.972082	 1.951405	 -0.358282	 -0.881482	 0.257278	 0.779587	 -0.368777	 0.435953	 1
1463624137.709	 4	 0.951302	 -0.330804	 0.857377	 1.943674	 -0.352961	 -0.893041	 0.261842	 0.776118	 -0.370464	 0.437992	 1
1463624137.719	 4	 1.623621	 -0.738405	 0.802968	 1.931712	 -0.350661	 -0.910552	 0.267035	 0.771047	 -0.375098	 0.439864	 1
1463624137.729	 4	 2.148825	 -1.200127	 0.852716	 1.912502	 -0.349814	 -0.934038	 0.272648	 0.763586	 -0.382587	 0.442975	 1
1463624137.739	 4	 2.168231	 -1.254661	 0.967142	 1.891063	 -0.348094	 -0.959367	 0.278614	 0.755211	 -0.390601	 0.446612	 1
1463624137.749	 4	 1.944826	 -0.862742	 0.947156	 1.873380	 -0.345058	 -0.982784	 0.284808	 0.747727	 -0.397340	 0.449343	 1
1463624137.759	 4	 1.672893	 -0.646477	 0.739449	 1.859761	 -0.342472	 -1.002970	 0.290349	 0.741554	 -0.403004	 0.450979	 1
1463624137.769	 4	 1.333744	 -0.630167	 0.504889	 1.848176	 -0.341078	 -1.019154	 0.294387	 0.736456	 -0.407906	 0.452307	 1
1463624137.779	 4	 0.942253	 -0.666521	 0.320385	 1.837756	 -0.340346	 -1.030827	 0.296753	 0.732306	 -0.411859	 0.453914	 1
1463624137.789	 4	 0.619123	 -1.081183	 0.063557	 1.825877	 -0.340827	 -1.038274	 0.296874	 0.728540	 -0.415468	 0.456598	 1
1463624137.799	 4	 0.502100	 -2.069317	 -0.282466	 1.806100	 -0.343992	 -1.043069	 0.293543	 0.723583	 -0.420473	 0.462020	 1
1463624137.809	 4	 0.563645	 -1.989992	 -0.465575	 1.783803	 -0.349485	 -1.047749	 0.288862	 0.718240	 -0.426492	 0.467755	 1
1463624137.819	 4	 0.441740	 -1.492707	 -0.581383	 1.766163	 -0.355864	 -1.051568	 0.284512	 0.714167	 -0.431848	 0.471726	 1
1463624137.829	 4	 0.286172	 -0.934334	 -0.647304	 1.754773	 -0.362710	 -1.053691	 0.280705	 0.711845	 -0.436009	 0.473685	 1
1463624137.839	 4	 0.174730	 -0.582977	 -0.641999	 1.747899	 -0.369446	 -1.054528	 0.277429	 0.710759	 -0.439167	 0.474328	 1
1463624137.849	 4	 0.139265	 -0.481210	 -0.556548	 1.742820	 -0.375437	 -1.054980	 0.274622	 0.710077	 -0.441744	 0.474589	 1
1463624137.859	 4	 0.109877	 -0.479177	 -0.434776	 1.737883	 -0.380223	 -1.055401	 0.272196	 0.709313	 -0.443926	 0.475093	 1
1463624137.869	 4	 0.020086	 -0.382341	 -0.317991	 1.733717	 -0.383703	 -1.055272	 0.270143	 0.708679	 -0.445478	 0.475758	 1
1463624137.879	 4	 -0.075483	 -0.112472	 -0.249636	 1.732213	 -0.386204	 -1.054241	 0.268664	 0.708702	 -0.446166	 0.475916	 1
1463624137.889	 4	 -0.108051	 0.237422	 -0.267412	 1.734348	 -0.388565	 -1.052678	 0.267851	 0.709647	 -0.446197	 0.474937	 1
1463624137.899	 4	 -0.026253	 0.454613	 -0.351364	 1.738881	 -0.391698	 -1.051500	 0.267469	 0.711177	 -0.446228	 0.472831	 1
1463624137.909	 4	 0.170184	 0.622899	 -0.532688	 1.744570	 -0.396634	 -1.051850	 0.267330	 0.712933	 -0.446994	 0.469529	 1
1463624137.919	 4	 0.446994	 0.694717	 -0.783819	 1.750369	 -0.404336	 -1.054481	 0.267178	 0.714646	 -0.449088	 0.464991	 1
1463624137.929	 4	 0.748513	 0.636174	 -1.107783	 1.754892	 -0.415646	 -1.059697	 0.266558	 0.716019	 -0.452993	 0.459415	 1
1463624137.939	 4	 0.966785	 0.569425	 -1.423639	 1.757753	 -0.430559	 -1.066897	 0.265166	 0.717035	 -0.458584	 0.453043	 1
1463624137.949	 4	 1.042962	 0.495416	 -1.771363	 1.759592	 -0.448991	 -1.074620	 0.262639	 0.718024	 -0.465382	 0.445962	 1
1463624137.959	 4	 1.012781	 0.543639	 -2.173510	 1.761795	 -0.471266	 -1.081504	 0.258697	 0.719478	 -0.472960	 0.437876	 1
1463624137.969	 4	 0.908800	 0.536942	 -2.552078	 1.764931	 -0.497213	 -1.086594	 0.253179	 0.721581	 -0.480969	 0.428823	 1
1463624137.979	 4	 0.775892	 0.453146	 -2.867167	 1.768220	 -0.526189	 -1.089449	 0.245932	 0.724101	 -0.489228	 0.419345	 1
1463624137.999	 5	 0.604656	 0.469804	 -3.279037	 1.776999	 -0.590105	 -1.089752	 0.228079	 0.730095	 -0.505720	 0.398983	 1
1463624138.009	 5	 0.650463	 0.618207	 -3.476286	 1.783423	 -0.624978	 -1.088587	 0.218235	 0.733446	 -0.514134	 0.387424	 1
1463624138.019	 5	 0.726869	 0.905961	 -3.658651	 1.792297	 -0.661710	 -1.087537	 0.208469	 0.737023	 -0.522726	 0.374292	 1
1463624138.029	 5	 0.765089	 1.201631	 -3.791584	 1.804521	 -0.700102	 -1.086111	 0.198931	 0.740937	 -0.531282	 0.359413	 1
1463624138.039	 5	 0.738901	 1.310159	 -3.796741	 1.819062	 -0.738808	 -1.083732	 0.189601	 0.744902	 -0.539490	 0.343690	 1
1463624138.059	 6	 0.426590	 1.278004	 -3.664295	 1.853935	 -0.813452	 -1.071164	 0.170660	 0.752887	 -0.553448	 0.312622	 1
1463624138.069	 6	 0.207101	 1.243426	 -3.534813	 1.875341	 -0.848279	 -1.059417	 0.161132	 0.757087	 -0.558775	 0.297702	 1
1463624138.079	 6	 -0.001110	 1.146817	 -3.447573	 1.899144	 -0.881371	 -1.043553	 0.151342	 0.761354	 -0.563089	 0.283491	 1
1463624138.089	 6	 -0.243474	 1.048191	 -3.358988	 1.926209	 -0.912655	 -1.022622	 0.141189	 0.765823	 -0.566297	 0.269979	 1
1463624138.099	 6	 -0.482236	 0.962938	 -3.185049	 1.956929	 -0.941241	 -0.996540	 0.131014	 0.770523	 -0.568259	 0.257315	 1
1463624138.119	 7	 -0.670297	 0.530710	 -2.730222	 2.021797	 -0.988959	 -0.934627	 0.110960	 0.779394	 -0.569593	 0.236213	 1
1463624138.129	 7	 -0.641288	 0.408659	 -2.535510	 2.053257	 -1.009091	 -0.902391	 0.101354	 0.783126	 -0.569809	 0.227504	 1
1463624138.139	 7	 -0.567557	 0.264153	 -2.339264	 2.083208	 -1.027280	 -0.870809	 0.092195	 0.786304	 -0.570021	 0.219777	 1
1463624138.149	 7	 -0.436558	 0.040793	 -2.139989	 2.109633	 -1.043835	 -0.841238	 0.083346	 0.788723	 -0.570481	 0.213355	 1
1463624138.159	 7	 -0.184953	 -0.390453	 -1.958618	 2.129448	 -1.059560	 -0.815595	 0.074452	 0.790013	 -0.571647	 0.208702	 1
1463624138.169	 7	 0.162840	 -0.618376	 -1.714379	 2.138906	 -1.075064	 -0.797422	 0.065666	 0.789718	 -0.574061	 0.206127	 1
1463624138.179	 7	 0.519997	 -0.239890	 -1.445394	 2.144363	 -1.090036	 -0.787575	 0.059207	 0.788648	 -0.577364	 0.202929	 1
1463624138.189	 7	 0.936647	 -0.077009	 -1.256735	 2.143237	 -1.105496	 -0.787600	 0.054618	 0.786474	 -0.582005	 0.199362	 1
1463624138.199	 7	 1.207773	 0.055011	 -1.128910	 2.136464	 -1.121450	 -0.795385	 0.051267	 0.783441	 -0.587654	 0.195586	 1
1463624138.209	 7	 1.373903	 0.140188	 -1.049632	 2.125660	 -1.137551	 -0.808711	 0.048782	 0.779876	 -0.593879	 0.191629	 1
1463624138.219	 7	 1.434644	 0.146180	 -1.078880	 2.112566	 -1.154126	 -0.824712	 0.046413	 0.776011	 -0.600409	 0.187515	 1
1463624138.229	 7	 1.377882	 0.106962	 -1.083014	 2.098752	 -1.170590	 -0.841079	 0.043875	 0.772147	 -0.606801	 0.183458	 1
1463624138.239	 7	 1.223779	 -0.013581	 -1.047624	 2.085119	 -1.186082	 -0.856065	 0.041016	 0.768524	 -0.612643	 0.179880	 1
1463624138.249	 7	 0.978955	 -0.193987	 -0.943792	 2.072602	 -1.199692	 -0.867939	 0.037751	 0.765371	 -0.617550	 0.177241	 1
1463624138.259	 7	 0.673828	 -0.345845	 -0.741119	 2.062176	 -1.210275	 -0.875782	 0.034409	 0.762915	 -0.621178	 0.175823	 1
1463624138.269	 7	 0.372397	 -0.462017	 -0.456083	 2.053968	 -1.217073	 -0.879905	 0.031417	 0.761235	 -0.623416	 0.175746	 1
1463624138.279	 7	 0.107406	 -0.544268	 -0.172114	 2.047582	 -1.219978	 -0.881097	 0.029017	 0.760274	 -0.624355	 0.176979	 1
1463624138.289	 7	 -0.099907	 -0.534855	 0.015221	 2.043777	 -1.219976	 -0.879376	 0.027175	 0.759960	 -0.624255	 0.178963	 1
1463624138.299	 7	 -0.254903	 -0.493913	 0.171487	 2.042413	 -1.217799	 -0.875473	 0.025914	 0.760172	 -0.623371	 0.181316	 1
1463624138.309	 7	 -0.362246	 -0.528651	 0.324502	 2.041902	 -1.213713	 -0.870525	 0.025089	 0.760720	 -0.621887	 0.184208	 1
1463624138.319	 7	 -0.420795	 -0.614684	 0.463826	 2.040476	 -1.208002	 -0.865725	 0.024515	 0.761387	 -0.620000	 0.187854	 1
1463624138.329	 7	 -0.434821	 -0.682408	 0.505949	 2.038011	 -1.201598	 -0.861216	 0.023937	 0.762033	 -0.617958	 0.191991	 1
1463624138.339	 7	 -0.416546	 -0.702255	 0.563156	 2.034385	 -1.194808	 -0.857599	 0.023457	 0.762592	 -0.615899	 0.196397	 1
1463624138.349	 7	 -0.360830	 -0.692524	 0.607524	 2.029260	 -1.187772	 -0.855611	 0.023215	 0.762995	 -0.613941	 0.200937	 1
1463624138.359	 7	 -0.245107	 -0.611868	 0.629647	 2.022207	 -1.180951	 -0.856370	 0.023376	 0.763117	 -0.612335	 0.205309	 1
1463624138.369	 7	 -0.149733	 -0.523907	 0.624307	 2.013963	 -1.174542	 -0.859395	 0.023926	 0.763007	 -0.611089	 0.209329	 1
1463624138.379	 7	 -0.081290	 -0.447918	 0.570051	 2.005810	 -1.169880	 -0.863227	 0.024298	 0.762655	 -0.610391	 0.212581	 1
1463624138.389	 7	 -0.035358	 -0.370995	 0.489369	 1.997875	 -1.165055	 -0.867621	 0.025009	 0.762312	 -0.609721	 0.215628	 1
1463624138.399	 7	 -0.009989	 -0.335656	 0.386098	 1.990874	 -1.161211	 -0.871541	 0.025533	 0.761940	 -0.609252	 0.218189	 1
1463624138.409	 7	 0.001391	 -0.303652	 0.257339	 1.985011	 -1.158569	 -0.874483	 0.025670	 0.761555	 -0.608978	 0.220275	 1
1463624138.419	 7	 -0.013732	 -0.243630	 0.145850	 2.012058	 -1.177866	 -0.847471	 0.017800	 0.762527	 -0.610710	 0.212765	 1
1463624138.429	 7	 -0.051230	 -0.202661	 0.060231	 2.010000	 -1.176963	 -0.847413	 0.017421	 0.762418	 -0.610488	 0.213820	 1
1463624138.439	 7	 -0.100485	 -0.186999	 0.000057	 2.009876	 -1.176470	 -0.845495	 0.016799	 0.762481	 -0.610156	 0.214591	 1
1463624138.449	 7	 -0.143328	 -0.193485	 -0.031603	 2.011160	 -1.176132	 -0.842050	 0.015978	 0.762689	 -0.609688	 0.215246	 1
1463624138.459	 7	 -0.162679	 -0.212666	 -0.044403	 2.012969	 -1.175827	 -0.837827	 0.015010	 0.762954	 -0.609139	 0.215928	 1
1463624138.469	 7	 -0.157305	 -0.219125	 -0.047786	 2.014728	 -1.175569	 -0.833559	 0.013994	 0.763207	 -0.608598	 0.216628	 1
1463624138.479	 7	 -0.143390	 -0.213817	 -0.043595	 2.016217	 -1.175344	 -0.829606	 0.013005	 0.763424	 -0.608100	 0.217325	 1
1463624138.489	 7	 -0.129436	 -0.207384	 -0.030867	 2.017367	 -1.175086	 -0.826095	 0.012091	 0.763603	 -0.607643	 0.218024	 1
1463624138.499	 7	 -0.116491	 -0.191352	 -0.014845	 2.018192	 -1.174741	 -0.823081	 0.011294	 0.763754	 -0.607218	 0.218720	 1
1463624138.509	 7	 -0.103527	 -0.173177	 0.003330	 2.018706	 -1.174290	 -0.820590	 0.010632	 0.763881	 -0.606823	 0.219404	 1
1463624138.519	 7	 -0.091630	 -0.153942	 0.020457	 2.019008	 -1.173731	 -0.818547	 0.010109	 0.763996	 -0.606449	 0.220063	 1
1463624138.529	 7	 -0.077635	 -0.139022	 0.032201	 2.013630	 -1.173131	 -0.821955	 0.009958	 0.763461	 -0.606694	 0.221248	 1
1463624138.539	 7	 -0.059428	 -0.126305	 0.033227	 2.013371	 -1.172558	 -0.820837	 0.009623	 0.763510	 -0.606420	 0.221844	 1
1463624138.549	 7	 -0.046613	 -0.117880	 0.025715	 2.015051	 -1.173955	 -0.818057	 0.008656	 0.763533	 -0.606473	 0.221661	 1
1463624138.559	 7	 -0.035879	 -0.096709	 0.016227	 2.014662	 -1.173626	 -0.817373	 0.008374	 0.763534	 -0.606311	 0.222107	 1
1463624138.569	 7	 -0.042255	 -0.086061	 0.012104	 2.022568	 -1.174338	 -0.809161	 0.007422	 0.764352	 -0.605559	 0.221380	 1
1463624138.579	 7	 -0.060373	 -0.082800	 0.014423	 2.022783	 -1.173971	 -0.808024	 0.007161	 0.764428	 -0.605334	 0.221742	 1
1463624138.589	 7	 -0.087069	 -0.089079	 0.017795	 2.023453	 -1.173470	 -0.806349	 0.006871	 0.764573	 -0.605012	 0.222130	 1
1463624138.599	 7	 -0.097884	 -0.116726	 0.014434	 2.024302	 -1.172888	 -0.804273	 0.006506	 0.764749	 -0.604623	 0.222593	 1
1463624138.609	 7	 -0.099982	 -0.107162	 0.012410	 2.025150	 -1.172345	 -0.802132	 0.006104	 0.764921	 -0.604236	 0.223063	 1
1463624138.619	 7	 -0.110566	 -0.099592	 0.025362	 2.026185	 -1.171673	 -0.799917	 0.005767	 0.765130	 -0.603806	 0.223520	 1
1463624138.629	 7	 -0.116017	 -0.129313	 0.031520	 2.026772	 -1.171681	 -0.797915	 0.005176	 0.765200	 -0.603582	 0.223897	 1
1463624138.639	 7	 -0.108601	 -0.138923	 0.029235	 2.027453	 -1.170917	 -0.795679	 0.004751	 0.765382	 -0.603124	 0.224519	 1
1463624138.649	 7	 -0.097907	 -0.130489	 0.023877	 2.025817	 -1.171984	 -0.795646	 0.003930	 0.765059	 -0.603412	 0.224865	 1
1463624138.659	 7	 -0.079725	 -0.119931	 0.020608	 2.025491	 -1.172811	 -0.794555	 0.003172	 0.764916	 -0.603512	 0.225094	 1
1463624138.669	 7	 -0.067972	 -0.113616	 0.016291	 2.025037	 -1.173507	 -0.793696	 0.002501	 0.764775	 -0.603603	 0.225338	 1
1463624138.679	 7	 -0.061575	 -0.111539	 0.011984	 2.024720	 -1.174004	 -0.792754	 0.001900	 0.764675	 -0.603631	 0.225608	 1
1463624138.689	 7	 -0.062635	 -0.107301	 0.008831	 2.025839	 -1.174030	 -0.790520	 0.001375	 0.764799	 -0.603385	 0.225847	 1
1463624138.699	 7	 -0.072238	 -0.104101	 0.005744	 2.027447	 -1.173914	 -0.787849	 0.000872	 0.764998	 -0.603051	 0.226069	 1
1463624138.709	 7	 -0.082920	 -0.104081	 0.003702	 2.029512	 -1.173670	 -0.784711	 0.000366	 0.765265	 -0.602629	 0.226291	 1
1463624138.719	 7	 -0.090406	 -0.107246	 0.003734	 2.031467	 -1.173511	 -0.781617	 -0.000182	 0.765507	 -0.602236	 0.226518	 1
1463624138.729	 7	 -0.092561	 -0.111493	 0.003711	 2.032934	 -1.173273	 -0.778921	 -0.000704	 0.765705	 -0.601866	 0.226832	 1
1463624138.739	 7	 -0.088347	 -0.121093	 0.001450	 2.033907	 -1.173207	 -0.776619	 -0.001273	 0.765823	 -0.601587	 0.227170	 1
1463624138.749	 7	 -0.083046	 -0.128554	 0.001331	 2.034650	 -1.173093	 -0.774473	 -0.001838	 0.765921	 -0.601313	 0.227561	 1
1463624138.759	 7	 -0.075568	 -0.129617	 0.004451	 2.034778	 -1.172935	 -0.772903	 -0.002355	 0.765956	 -0.601091	 0.228026	 1
1463624138.769	 7	 -0.070224	 -0.129618	 0.006537	 2.034806	 -1.172559	 -0.771446	 -0.002795	 0.766008	 -0.600822	 0.228554	 1
1463624138.779	 7	 -0.067002	 -0.130647	 0.012898	 2.034125	 -1.171834	 -0.770660	 -0.003089	 0.766027	 -0.600532	 0.229246	 1
1463624138.789	 7	 -0.065889	 -0.127407	 0.020382	 2.033565	 -1.171095	 -0.769797	 -0.003372	 0.766062	 -0.600230	 0.229917	 1
1463624138.799	 7	 -0.063690	 -0.120971	 0.028952	 2.032949	 -1.170330	 -0.769052	 -0.003620	 0.766093	 -0.599934	 0.230581	 1
1463624138.809	 7	 -0.061498	 -0.112439	 0.033277	 2.032409	 -1.169600	 -0.768338	 -0.003842	 0.766128	 -0.599650	 0.231198	 1
1463624138.819	 7	 -0.059311	 -0.104969	 0.037592	 2.031904	 -1.168885	 -0.767678	 -0.004038	 0.766165	 -0.599377	 0.231780	 1
1463624138.829	 7	 -0.053946	 -0.099660	 0.038662	 2.031372	 -1.168164	 -0.767101	 -0.004208	 0.766200	 -0.599111	 0.232350	 1
1463624138.839	 7	 -0.049661	 -0.095428	 0.037601	 2.030578	 -1.167435	 -0.766831	 -0.004337	 0.766205	 -0.598878	 0.232929	 1
1463624138.849	 7	 -0.048604	 -0.097559	 0.037574	 2.029997	 -1.166722	 -0.766369	 -0.004480	 0.766232	 -0.598627	 0.233481	 1
1463624138.859	 7	 -0.046512	 -0.103971	 0.034300	 2.029415	 -1.166167	 -0.765866	 -0.004685	 0.766238	 -0.598415	 0.234003	 1
1463624138.869	 7	 -0.028571	 -0.104390	 -0.015947	 2.028390	 -1.165687	 -0.765667	 -0.004927	 0.766182	 -0.598257	 0.234584	 1
1463624138.879	 7	 -0.043518	 -0.071664	 -0.056009	 2.029689	 -1.165711	 -0.763533	 -0.005364	 0.766326	 -0.598017	 0.234718	 1
1463624138.889	 7	 -0.062666	 -0.092585	 -0.015542	 2.030780	 -1.165919	 -0.761515	 -0.005872	 0.766420	 -0.597840	 0.234848	 1
1463624138.899	 7	 -0.062664	 -0.107345	 0.002439	 2.030885	 -1.165716	 -0.760204	 -0.006284	 0.766456	 -0.597630	 0.235253	 1
1463624138.909	 7	 -0.063671	 -0.106178	 0.016312	 2.030976	 -1.165422	 -0.758955	 -0.006649	 0.766502	 -0.597403	 0.235670	 1
1463624138.919	 7	 -0.061536	 -0.112513	 0.023694	 2.030773	 -1.165052	 -0.757943	 -0.006990	 0.766525	 -0.597180	 0.236148	 1
1463624138.929	 7	 -0.056186	 -0.110394	 0.024732	 2.030579	 -1.164625	 -0.756938	 -0.007309	 0.766557	 -0.596943	 0.236636	 1
1463624138.939	 7	 -0.051837	 -0.099716	 0.032255	 2.030257	 -1.164013	 -0.756158	 -0.007526	 0.766599	 -0.596680	 0.237155	 1
1463624138.949	 7	 -0.047479	 -0.087968	 0.040854	 2.029701	 -1.163373	 -0.755734	 -0.007668	 0.766618	 -0.596451	 0.237664	 1
1463624138.959	 7	 -0.044208	 -0.076255	 0.044134	 2.029054	 -1.162703	 -0.755518	 -0.007749	 0.766631	 -0.596238	 0.238155	 1
1463624138.969	 7	 -0.043095	 -0.066686	 0.044214	 2.028482	 -1.162070	 -0.755331	 -0.007807	 0.766647	 -0.596038	 0.238598	 1
1463624138.979	 7	 -0.041978	 -0.058166	 0.046415	 2.027922	 -1.161526	 -0.755213	 -0.007860	 0.766654	 -0.595872	 0.238992	 1
1463624138.989	 7	 -0.037659	 -0.050711	 0.049644	 2.027187	 -1.161005	 -0.755357	 -0.007872	 0.766637	 -0.595742	 0.239370	 1
1463624138.999	 7	 -0.016311	 -0.040225	 0.037830	 2.026327	 -1.160758	 -0.755690	 -0.007929	 0.766568	 -0.595710	 0.239666	 1
1463624139.009	 7	 -0.017199	 -0.011426	 0.048764	 2.026070	 -1.160274	 -0.755818	 -0.007815	 0.766603	 -0.595591	 0.239855	 1
1463624139.019	 7	 -0.022546	 -0.017761	 0.053011	 2.025587	 -1.160012	 -0.756134	 -0.007761	 0.766581	 -0.595555	 0.240015	 1
1463624139.029	 7	 -0.022543	 -0.015650	 0.050896	 2.025263	 -1.159701	 -0.756281	 -0.007711	 0.766585	 -0.595485	 0.240179	 1
1463624139.039	 7	 -0.024659	 -0.009285	 0.047773	 2.025195	 -1.159431	 -0.756239	 -0.007668	 0.766613	 -0.595405	 0.240289	 1
1463624139.049	 7	 -0.021438	 -0.002936	 0.044603	 2.025078	 -1.159215	 -0.756313	 -0.007612	 0.766628	 -0.595354	 0.240369	 1
1463624139.059	 7	 -0.019253	 0.005582	 0.046791	 2.024872	 -1.159020	 -0.756544	 -0.007528	 0.766630	 -0.595327	 0.240431	 1
1463624139.069	 7	 -0.012686	 0.036441	 0.051279	 2.025181	 -1.158829	 -0.756543	 -0.007381	 0.766693	 -0.595275	 0.240364	 1
1463624139.079	 7	 -0.011319	 0.094980	 0.057134	 2.026019	 -1.158670	 -0.756553	 -0.007081	 0.766815	 -0.595236	 0.240082	 1
1463624139.089	 7	 -0.013209	 0.149202	 0.053384	 2.027085	 -1.158649	 -0.756883	 -0.006631	 0.766947	 -0.595273	 0.239580	 1
1463624139.099	 7	 -0.000336	 0.168252	 0.045982	 2.027356	 -1.158883	 -0.758228	 -0.006103	 0.766952	 -0.595500	 0.239014	 1
1463624139.109	 7	 0.025110	 0.137269	 0.038007	 2.026120	 -1.159272	 -0.760855	 -0.005577	 0.766760	 -0.595917	 0.238601	 1
1463624139.119	 7	 0.053593	 0.070127	 0.031802	 2.023700	 -1.159684	 -0.764109	 -0.005171	 0.766425	 -0.596412	 0.238449	 1
1463624139.129	 7	 0.072528	 0.005235	 0.038495	 2.020796	 -1.159817	 -0.767270	 -0.004866	 0.766069	 -0.596818	 0.238583	 1
1463624139.139	 7	 0.075528	 -0.042594	 0.044420	 2.018170	 -1.159667	 -0.769729	 -0.004664	 0.765782	 -0.597064	 0.238896	 1
1463624139.149	 7	 0.068959	 -0.082939	 0.051565	 2.016087	 -1.159259	 -0.771304	 -0.004563	 0.765589	 -0.597137	 0.239332	 1
1463624139.159	 7	 0.056098	 -0.099852	 0.060046	 2.014967	 -1.158706	 -0.771752	 -0.004563	 0.765529	 -0.597037	 0.239776	 1
1463624139.169	 7	 0.054942	 -0.109476	 0.051435	 2.014333	 -1.158432	 -0.771658	 -0.004708	 0.765488	 -0.596949	 0.240120	 1
1463624139.179	 7	 0.063615	 -0.070217	 0.041061	 2.013906	 -1.158370	 -0.771606	 -0.004837	 0.765445	 -0.596925	 0.240316	 1
1463624139.189	 7	 0.058460	 -0.039293	 0.049920	 2.011727	 -1.158205	 -0.773486	 -0.004719	 0.765209	 -0.597101	 0.240633	 1
1463624139.199	 7	 0.051005	 -0.030807	 0.043669	 2.009866	 -1.158015	 -0.775158	 -0.004579	 0.765013	 -0.597246	 0.240896	 1
1463624139.209	 7	 0.038281	 -0.002150	 0.030192	 2.008548	 -1.157890	 -0.776475	 -0.004432	 0.764873	 -0.597368	 0.241041	 1
1463624139.219	 7	 0.007584	 0.059570	 0.021437	 2.009631	 -1.157861	 -0.775966	 -0.004295	 0.765006	 -0.597301	 0.240786	 1
1463624139.229	 7	 -0.020914	 0.126659	 0.021244	 2.010852	 -1.157604	 -0.775836	 -0.003904	 0.765186	 -0.597218	 0.240428	 1
1463624139.239	 7	 -0.036636	 0.183112	 0.026169	 2.013007	 -1.157235	 -0.775348	 -0.003339	 0.765492	 -0.597063	 0.239848	 1
1463624139.249	 7	 -0.047220	 0.203338	 0.024318	 2.015688	 -1.156808	 -0.774611	 -0.002695	 0.765867	 -0.596863	 0.239156	 1
1463624139.259	 7	 -0.044140	 0.177761	 0.019788	 2.015685	 -1.156985	 -0.776194	 -0.002142	 0.765845	 -0.597100	 0.238637	 1
1463624139.269	 7	 -0.030584	 0.113876	 0.015878	 2.017524	 -1.156688	 -0.775603	 -0.001732	 0.766103	 -0.596950	 0.238189	 1
1463624139.279	 7	 -0.020095	 0.075552	 0.015430	 2.018656	 -1.156450	 -0.775261	 -0.001455	 0.766268	 -0.596846	 0.237922	 1
1463624139.289	 7	 -0.009407	 0.075551	 0.019600	 2.019466	 -1.156235	 -0.775184	 -0.001180	 0.766392	 -0.596778	 0.237692	 1
1463624139.299	 7	 -0.012550	 0.083053	 0.026092	 2.020549	 -1.155873	 -0.774943	 -0.000843	 0.766568	 -0.596651	 0.237446	 1
1463624139.309	 7	 -0.032864	 0.076717	 0.024079	 2.021634	 -1.155532	 -0.774623	 -0.000542	 0.766741	 -0.596520	 0.237217	 1
1463624139.319	 7	 -0.064998	 0.058668	 0.015664	 2.023254	 -1.155124	 -0.773546	 -0.000352	 0.766986	 -0.596281	 0.237027	 1
1463624139.329	 7	 -0.079132	 0.011839	 0.005760	 2.024992	 -1.154710	 -0.771927	 -0.000334	 0.767245	 -0.595976	 0.236953	 1
1463624139.339	 7	 -0.072871	 -0.010607	 -0.006234	 2.025086	 -1.155058	 -0.771442	 -0.000593	 0.767211	 -0.596014	 0.236969	 1
1463624139.349	 7	 -0.073804	 0.008620	 0.004611	 2.026664	 -1.154716	 -0.769793	 -0.000656	 0.767442	 -0.595725	 0.236946	 1
1463624139.359	 7	 -0.062129	 -0.017891	 0.020249	 2.027730	 -1.154279	 -0.768525	 -0.000697	 0.767626	 -0.595455	 0.237031	 1
1463624139.369	 7	 -0.046208	 -0.042350	 0.027343	 2.028120	 -1.153825	 -0.767688	 -0.000770	 0.767731	 -0.595231	 0.237252	 1
1463624139.379	 7	 -0.033375	 -0.048692	 0.038897	 2.026277	 -1.153536	 -0.768864	 -0.000783	 0.767551	 -0.595290	 0.237687	 1
1463624139.389	 7	 -0.016256	 -0.045498	 0.046238	 2.025774	 -1.153040	 -0.768899	 -0.000774	 0.767556	 -0.595157	 0.238002	 1
1463624139.399	 7	 -0.005543	 -0.041236	 0.051513	 2.025023	 -1.152546	 -0.769269	 -0.000711	 0.767532	 -0.595065	 0.238312	 1
1463624139.409	 7	 -0.002351	 -0.041260	 0.049347	 2.024586	 -1.152405	 -0.769368	 -0.000762	 0.767498	 -0.595038	 0.238488	 1
1463624139.419	 7	 -0.003414	 -0.038077	 0.047244	 2.024799	 -1.152361	 -0.768899	 -0.000865	 0.767529	 -0.594970	 0.238557	 1
1463624139.429	 7	 -0.007635	 -0.025324	 0.044202	 2.024175	 -1.151940	 -0.769253	 -0.000792	 0.767510	 -0.594896	 0.238804	 1
1463624139.439	 7	 -0.012973	 -0.017932	 0.034726	 2.023857	 -1.151559	 -0.769398	 -0.000719	 0.767522	 -0.594808	 0.238984	 1
1463624139.449	 7	 -0.029092	 -0.030741	 0.021958	 2.023840	 -1.151224	 -0.769121	 -0.000733	 0.767563	 -0.594683	 0.239163	 1
1463624139.459	 7	 -0.064349	 -0.040287	 0.012496	 2.026647	 -1.151028	 -0.766030	 -0.001028	 0.767923	 -0.594260	 0.239057	 1
1463624139.469	 7	 -0.092159	 -0.046648	 0.004153	 2.027858	 -1.150607	 -0.764210	 -0.001244	 0.768122	 -0.593927	 0.239244	 1
1463624139.479	 7	 -0.108204	 -0.050885	 -0.000010	 2.029471	 -1.150131	 -0.761903	 -0.001512	 0.768376	 -0.593520	 0.239436	 1
1463624139.489	 7	 -0.101864	 -0.061565	 -0.003361	 2.030976	 -1.149692	 -0.759609	 -0.001819	 0.768613	 -0.593125	 0.239655	 1
1463624139.499	 7	 -0.098693	 -0.064787	 -0.006617	 2.032849	 -1.149265	 -0.756942	 -0.002165	 0.768891	 -0.592688	 0.239839	 1
1463624139.509	 7	 -0.095551	 -0.075449	 -0.008875	 2.034136	 -1.148915	 -0.754746	 -0.002526	 0.769090	 -0.592328	 0.240087	 1
1463624139.519	 7	 -0.102034	 -0.091392	 -0.010033	 2.035343	 -1.148553	 -0.752462	 -0.002942	 0.769280	 -0.591954	 0.240395	 1
1463624139.529	 7	 -0.112745	 -0.104086	 -0.004729	 2.036579	 -1.148108	 -0.749989	 -0.003399	 0.769485	 -0.591534	 0.240768	 1
1463624139.539	 7	 -0.128718	 -0.099743	 0.000786	 2.038740	 -1.146947	 -0.746632	 -0.003716	 0.769895	 -0.590807	 0.241234	 1
1463624139.549	 7	 -0.145715	 -0.089009	 0.007429	 2.040575	 -1.146247	 -0.743613	 -0.004134	 0.770206	 -0.590249	 0.241603	 1
1463624139.559	 7	 -0.152113	 -0.093198	 0.013840	 2.042537	 -1.145448	 -0.740460	 -0.004540	 0.770544	 -0.589647	 0.241987	 1
1463624139.569	 7	 -0.146715	 -0.088882	 0.024491	 2.044330	 -1.144583	 -0.737498	 -0.004904	 0.770872	 -0.589047	 0.242395	 1
1463624139.579	 7	 -0.130573	 -0.068661	 0.033067	 2.044957	 -1.143668	 -0.735813	 -0.005106	 0.771069	 -0.588585	 0.242888	 1
1463624139.589	 7	 -0.111202	 -0.042076	 0.040605	 2.045471	 -1.143039	 -0.734550	 -0.005261	 0.771214	 -0.588254	 0.243225	 1
1463624139.599	 7	 -0.088690	 -0.024048	 0.042704	 2.045703	 -1.142694	 -0.733824	 -0.005373	 0.771288	 -0.588068	 0.243439	 1
1463624139.609	 7	 -0.066279	 -0.022022	 0.038258	 2.045651	 -1.142629	 -0.733482	 -0.005501	 0.771289	 -0.588008	 0.243576	 1
1463624139.619	 7	 -0.051415	 -0.030655	 0.027382	 2.045602	 -1.142811	 -0.733125	 -0.005706	 0.771258	 -0.588016	 0.243653	 1
1463624139.629	 7	 -0.044019	 -0.039256	 0.017637	 2.045772	 -1.143060	 -0.732501	 -0.005968	 0.771242	 -0.588011	 0.243706	 1
1463624139.639	 7	 -0.038706	 -0.038262	 0.010133	 2.046241	 -1.143205	 -0.731591	 -0.006223	 0.771277	 -0.587943	 0.243755	 1
1463624139.649	 7	 -0.038628	 -0.019139	 0.007107	 2.047040	 -1.143253	 -0.730514	 -0.006417	 0.771364	 -0.587828	 0.243751	 1
1463624139.659	 7	 -0.037505	 -0.001113	 -0.000200	 2.048031	 -1.143310	 -0.729435	 -0.006558	 0.771474	 -0.587716	 0.243671	 1
1463624139.669	 7	 -0.035422	 -0.004380	 -0.009844	 2.048736	 -1.143467	 -0.728620	 -0.006711	 0.771535	 -0.587664	 0.243598	 1
1463624139.679	 7	 -0.031227	 -0.017189	 -0.014264	 2.048849	 -1.143659	 -0.728247	 -0.006877	 0.771521	 -0.587673	 0.243614	 1
1463624139.689	 7	 -0.019530	 -0.027856	 -0.013399	 2.048405	 -1.143817	 -0.728305	 -0.007030	 0.771445	 -0.587724	 0.243728	 1
1463624139.699	 7	 -0.015210	 -0.021458	 -0.009113	 2.047823	 -1.143889	 -0.728543	 -0.007130	 0.771365	 -0.587772	 0.243863	 1
1463624139.709	 7	 -0.008735	 -0.010812	 -0.004806	 2.047256	 -1.143935	 -0.728898	 -0.007173	 0.771291	 -0.587826	 0.243966	 1
1463624139.719	 7	 -0.001287	 -0.018267	 -0.002809	 2.046552	 -1.144119	 -0.729388	 -0.007244	 0.771181	 -0.587936	 0.244045	 1
1463624139.729	 7	 0.002900	 -0.035308	 -0.004071	 2.045607	 -1.144339	 -0.729966	 -0.007361	 0.771038	 -0.588066	 0.244182	 1
1463624139.739	 7	 0.003893	 -0.050219	 -0.006351	 2.044572	 -1.144605	 -0.730483	 -0.007543	 0.770877	 -0.588201	 0.244360	 1
1463624139.749	 7	 0.002785	 -0.059782	 -0.005364	 2.043902	 -1.144676	 -0.730569	 -0.007727	 0.770786	 -0.588229	 0.244575	 1
1463624139.759	 7	 -0.005740	 -0.055508	 -0.006316	 2.043891	 -1.144615	 -0.730030	 -0.007920	 0.770791	 -0.588145	 0.244753	 1
1463624139.769	 7	 -0.014212	 -0.040589	 -0.006103	 2.044524	 -1.144423	 -0.728997	 -0.008078	 0.770890	 -0.587967	 0.244863	 1
1463624139.779	 7	 -0.018425	 -0.028866	 -0.004890	 2.045194	 -1.144191	 -0.728029	 -0.008187	 0.771000	 -0.587785	 0.244949	 1
1463624139.789	 7	 -0.021611	 -0.026713	 -0.002709	 2.045710	 -1.143958	 -0.727239	 -0.008273	 0.771092	 -0.587624	 0.245043	 1
1463624139.799	 7	 -0.021596	 -0.026682	 0.001557	 2.045863	 -1.143637	 -0.726770	 -0.008317	 0.771153	 -0.587476	 0.245205	 1
1463624139.809	 7	 -0.021556	 -0.022389	 0.006930	 2.045989	 -1.143224	 -0.726366	 -0.008317	 0.771224	 -0.587309	 0.245382	 1
1463624139.819	 7	 -0.021504	 -0.012800	 0.009154	 2.046131	 -1.142808	 -0.726035	 -0.008284	 0.771298	 -0.587150	 0.245533	 1
1463624139.829	 7	 -0.021452	 -0.005324	 0.013489	 2.046318	 -1.142438	 -0.725739	 -0.008237	 0.771371	 -0.587008	 0.245643	 1
1463624139.839	 7	 -0.009726	 -0.009599	 0.015480	 2.046204	 -1.142171	 -0.725753	 -0.008189	 0.771394	 -0.586933	 0.245752	 1
1463624139.849	 7	 -0.004354	 -0.001113	 0.014447	 2.046057	 -1.141974	 -0.725863	 -0.008133	 0.771403	 -0.586890	 0.245828	 1
1463624139.859	 7	 -0.003220	 0.013767	 0.013510	 2.046096	 -1.141837	 -0.725934	 -0.008055	 0.771427	 -0.586860	 0.245828	 1
1463624139.869	 7	 0.003192	 0.015876	 0.013473	 2.046183	 -1.141759	 -0.726024	 -0.007972	 0.771449	 -0.586849	 0.245788	 1
1463624139.879	 7	 0.010681	 0.023268	 0.009212	 2.046189	 -1.141801	 -0.726262	 -0.007891	 0.771445	 -0.586890	 0.245704	 1
1463624139.889	 7	 0.013841	 0.018965	 0.003814	 2.046157	 -1.141884	 -0.726545	 -0.007815	 0.771430	 -0.586948	 0.245613	 1
1463624139.899	 7	 0.009510	 0.008318	 0.000554	 2.045967	 -1.141984	 -0.726857	 -0.007779	 0.771395	 -0.587014	 0.245568	 1
1463624139.909	 7	 0.002017	 0.000918	 0.003749	 2.045904	 -1.141916	 -0.726945	 -0.007743	 0.771397	 -0.587006	 0.245584	 1
1463624139.919	 7	 0.000955	 -0.001176	 0.008004	 2.045805	 -1.141740	 -0.727045	 -0.007684	 0.771409	 -0.586967	 0.245639	 1
1463624139.929	 7	 0.004187	 0.000981	 0.013325	 2.045707	 -1.141566	 -0.727177	 -0.007612	 0.771421	 -0.586934	 0.245683	 1
1463624139.939	 7	 0.009544	 0.002060	 0.017553	 2.045427	 -1.141394	 -0.727511	 -0.007516	 0.771412	 -0.586924	 0.245737	 1
1463624139.949	 7	 0.011666	 -0.001129	 0.018570	 2.045226	 -1.141276	 -0.727780	 -0.007437	 0.771405	 -0.586923	 0.245767	 1
1463624139.959	 7	 0.006283	 -0.010685	 0.018527	 2.045091	 -1.141151	 -0.727899	 -0.007395	 0.771406	 -0.586901	 0.245816	 1
1463624139.969	 7	 -0.000199	 -0.026620	 0.018433	 2.045167	 -1.140998	 -0.727670	 -0.007417	 0.771435	 -0.586830	 0.245894	 1
1463624139.979	 7	 -0.002453	 -0.048973	 0.015045	 2.044846	 -1.140918	 -0.727591	 -0.007519	 0.771406	 -0.586796	 0.246062	 1
1463624139.989	 7	 -0.007899	 -0.069188	 0.011705	 2.044577	 -1.140854	 -0.727242	 -0.007714	 0.771381	 -0.586734	 0.246284	 1
1463624139.999	 7	 -0.011133	 -0.074503	 0.010616	 2.044426	 -1.140740	 -0.726692	 -0.007938	 0.771375	 -0.586633	 0.246533	 1
1463624140.009	 7	 -0.009030	 -0.080882	 0.011602	 2.044438	 -1.140539	 -0.725940	 -0.008166	 0.771402	 -0.586483	 0.246801	 1
1463624140.019	 7	 -0.018471	 -0.046797	 0.014132	 2.045029	 -1.140239	 -0.724845	 -0.008329	 0.771511	 -0.586264	 0.246972	 1
1463624140.029	 7	 -0.026824	 -0.005301	 0.012457	 2.046052	 -1.139942	 -0.723722	 -0.008378	 0.771674	 -0.586045	 0.246983	 1
1463624140.039	 7	 -0.027819	 0.013819	 0.008379	 2.046982	 -1.139787	 -0.722881	 -0.008385	 0.771806	 -0.585900	 0.246911	 1
1463624140.049	 7	 -0.024640	 0.011658	 0.005132	 2.047436	 -1.139699	 -0.722507	 -0.008372	 0.771873	 -0.585831	 0.246868	 1
1463624140.059	 7	 -0.018266	 0.008416	 0.000783	 2.047520	 -1.139675	 -0.722436	 -0.008367	 0.771886	 -0.585816	 0.246863	 1
1463624140.069	 7	 -0.012943	 0.005207	 0.000708	 2.047397	 -1.139626	 -0.722553	 -0.008344	 0.771878	 -0.585816	 0.246889	 1
1463624140.079	 7	 -0.011915	 -0.006475	 0.003790	 2.046995	 -1.139541	 -0.722849	 -0.008324	 0.771842	 -0.585826	 0.246979	 1
1463624140.089	 7	 -0.014118	 -0.023474	 0.005784	 2.046421	 -1.139459	 -0.723154	 -0.008351	 0.771783	 -0.585838	 0.247132	 1
1463624140.099	 7	 -0.012016	 -0.036200	 0.012043	 2.045806	 -1.139330	 -0.723386	 -0.008404	 0.771726	 -0.585827	 0.247335	 1
1463624140.109	 7	 -0.004524	 -0.039353	 0.020473	 2.045062	 -1.139270	 -0.723719	 -0.008476	 0.771644	 -0.585848	 0.247540	 1
1463624140.119	 7	 0.001947	 -0.029760	 0.025833	 2.044406	 -1.139192	 -0.724064	 -0.008513	 0.771575	 -0.585866	 0.247712	 1
1463624140.129	 7	 0.006300	 -0.015914	 0.030183	 2.043923	 -1.139156	 -0.724402	 -0.008514	 0.771521	 -0.585895	 0.247809	 1
1463624140.139	 7	 0.008498	 -0.001044	 0.028165	 2.043585	 -1.139223	 -0.724752	 -0.008497	 0.771472	 -0.585956	 0.247820	 1
1463624140.149	 7	 0.008571	 0.006372	 0.022874	 2.043231	 -1.139391	 -0.725194	 -0.008479	 0.771407	 -0.586058	 0.247783	 1
1463624140.159	 7	 0.009639	 0.010585	 0.017570	 2.042973	 -1.139619	 -0.725585	 -0.008469	 0.771345	 -0.586170	 0.247709	 1
1463624140.169	 7	 0.011766	 0.013723	 0.011181	 2.042775	 -1.139906	 -0.725947	 -0.008470	 0.771283	 -0.586296	 0.247605	 1
1463624140.179	 7	 0.014996	 0.021144	 0.009087	 2.042544	 -1.140180	 -0.726405	 -0.008439	 0.771219	 -0.586430	 0.247488	 1
1463624140.189	 7	 0.013912	 0.019004	 0.006942	 2.042334	 -1.140418	 -0.726846	 -0.008399	 0.771162	 -0.586551	 0.247379	 1
1463624140.199	 7	 0.011802	 0.022217	 0.009119	 2.042367	 -1.140540	 -0.727075	 -0.008337	 0.771150	 -0.586615	 0.247267	 1
1463624140.209	 7	 0.008637	 0.025457	 0.014502	 2.042458	 -1.140650	 -0.727276	 -0.008264	 0.771147	 -0.586671	 0.247145	 1
1463624140.219	 7	 0.007594	 0.027611	 0.017725	 2.042570	 -1.140758	 -0.727476	 -0.008185	 0.771147	 -0.586727	 0.247014	 1
1463624140.229	 7	 0.004387	 0.030773	 0.012451	 2.042648	 -1.140824	 -0.727736	 -0.008081	 0.771149	 -0.586779	 0.246891	 1
1463624140.239	 7	 0.002226	 0.026509	 0.010296	 2.042798	 -1.140934	 -0.727885	 -0.008011	 0.771153	 -0.586829	 0.246761	 1
1463624140.249	 7	 0.001097	 0.016908	 0.005951	 2.042852	 -1.141072	 -0.728031	 -0.007979	 0.771141	 -0.586887	 0.246662	 1
1463624140.259	 7	 0.004285	 0.014763	 0.004835	 2.042864	 -1.141192	 -0.728175	 -0.007954	 0.771127	 -0.586938	 0.246584	 1
1463624140.269	 7	 0.006459	 0.020098	 0.008062	 2.042825	 -1.141262	 -0.728407	 -0.007896	 0.771113	 -0.586987	 0.246512	 1
1463624140.279	 7	 0.015059	 0.028620	 0.013394	 2.042569	 -1.141341	 -0.728950	 -0.007784	 0.771073	 -0.587075	 0.246431	 1
1463624140.289	 7	 0.022540	 0.030725	 0.013347	 2.042245	 -1.141415	 -0.729627	 -0.007640	 0.771026	 -0.587179	 0.246338	 1
1463624140.299	 7	 0.025723	 0.028573	 0.011166	 2.042010	 -1.141505	 -0.730222	 -0.007506	 0.770987	 -0.587277	 0.246231	 1
1463624140.309	 7	 0.019267	 0.021116	 0.006889	 2.041887	 -1.141568	 -0.730636	 -0.007400	 0.770964	 -0.587345	 0.246140	 1
1463624140.319	 7	 0.010787	 0.009486	 0.001608	 2.041903	 -1.141618	 -0.730790	 -0.007350	 0.770960	 -0.587378	 0.246075	 1
1463624140.329	 7	 0.005420	 0.003120	 0.001595	 2.042055	 -1.141640	 -0.730720	 -0.007339	 0.770976	 -0.587377	 0.246032	 1
1463624140.339	 7	 0.002241	 0.006337	 0.003783	 2.042189	 -1.141665	 -0.730657	 -0.007331	 0.770988	 -0.587376	 0.245992	 1
1463624140.349	 7	 0.003352	 0.012739	 0.007029	 2.042202	 -1.141708	 -0.730767	 -0.007297	 0.770985	 -0.587402	 0.245944	 1
1463624140.359	 7	 0.008707	 0.014865	 0.009132	 2.042024	 -1.141757	 -0.731108	 -0.007232	 0.770957	 -0.587458	 0.245899	 1
1463624140.369	 7	 0.014064	 0.019104	 0.009124	 2.041776	 -1.141816	 -0.731570	 -0.007144	 0.770920	 -0.587530	 0.245844	 1
1463624140.379	 7	 0.017258	 0.019078	 0.006964	 2.041425	 -1.141890	 -0.732134	 -0.007051	 0.770869	 -0.587619	 0.245794	 1
1463624140.389	 7	 0.022588	 0.017999	 0.006908	 2.041131	 -1.141932	 -0.732657	 -0.006948	 0.770829	 -0.587694	 0.245743	 1
1463624140.399	 7	 0.025819	 0.024371	 0.006939	 2.040868	 -1.141956	 -0.733202	 -0.006822	 0.770795	 -0.587767	 0.245678	 1
1463624140.409	 7	 0.028039	 0.036119	 0.014490	 2.040537	 -1.141946	 -0.733939	 -0.006632	 0.770759	 -0.587854	 0.245591	 1
1463624140.419	 7	 0.031313	 0.048897	 0.017777	 2.040376	 -1.141915	 -0.734647	 -0.006398	 0.770745	 -0.587931	 0.245454	 1
1463624140.429	 7	 0.030317	 0.060632	 0.022158	 2.040308	 -1.141873	 -0.735391	 -0.006119	 0.770745	 -0.588010	 0.245272	 1
1463624140.439	 7	 0.029279	 0.064905	 0.024337	 2.040312	 -1.141847	 -0.736126	 -0.005827	 0.770751	 -0.588093	 0.245061	 1
1463624140.449	 7	 0.023958	 0.067057	 0.025467	 2.040307	 -1.141848	 -0.736874	 -0.005541	 0.770753	 -0.588185	 0.244843	 1
1463624140.459	 7	 0.022868	 0.063853	 0.023314	 2.040223	 -1.141866	 -0.737663	 -0.005266	 0.770742	 -0.588286	 0.244638	 1
1463624140.469	 7	 0.025144	 0.057589	 0.022378	 2.040107	 -1.141918	 -0.738446	 -0.005014	 0.770723	 -0.588397	 0.244439	 1
1463624140.479	 7	 0.027269	 0.055455	 0.022337	 2.039898	 -1.142009	 -0.739277	 -0.004781	 0.770687	 -0.588523	 0.244251	 1
1463624140.489	 7	 0.032582	 0.052232	 0.020127	 2.039524	 -1.142158	 -0.740251	 -0.004559	 0.770624	 -0.588684	 0.244070	 1
1463624140.499	 7	 0.033588	 0.042625	 0.015764	 2.039073	 -1.142322	 -0.741223	 -0.004365	 0.770548	 -0.588848	 0.243915	 1
1463624140.509	 7	 0.031401	 0.033043	 0.013561	 2.038616	 -1.142476	 -0.742105	 -0.004204	 0.770474	 -0.588998	 0.243791	 1
1463624140.519	 7	 0.029239	 0.028779	 0.011407	 2.038162	 -1.142592	 -0.742914	 -0.004059	 0.770405	 -0.589128	 0.243697	 1
1463624140.529	 7	 0.027124	 0.030927	 0.013577	 2.037678	 -1.142648	 -0.743755	 -0.003894	 0.770340	 -0.589245	 0.243621	 1
1463624140.539	 7	 0.026067	 0.032002	 0.014661	 2.037284	 -1.142719	 -0.744527	 -0.003733	 0.770284	 -0.589359	 0.243526	 1
1463624140.549	 7	 0.026084	 0.032033	 0.018923	 2.036884	 -1.142745	 -0.745313	 -0.003556	 0.770233	 -0.589461	 0.243442	 1
1463624140.559	 7	 0.023951	 0.032039	 0.018941	 2.036483	 -1.142771	 -0.746096	 -0.003380	 0.770182	 -0.589563	 0.243359	 1
1463624140.579	 8	 0.014264	 0.017153	 0.015687	 2.035888	 -1.142828	 -0.747255	 -0.003126	 0.770104	 -0.589719	 0.243231	 1
1463624140.589	 8	 0.004654	 0.015062	 0.016816	 2.035742	 -1.142799	 -0.747578	 -0.003037	 0.770091	 -0.589750	 0.243200	 1
1463624140.599	 8	 0.007875	 0.018251	 0.017882	 2.035680	 -1.142761	 -0.747849	 -0.002939	 0.770089	 -0.589772	 0.243154	 1
1463624140.609	 8	 0.015406	 0.032049	 0.016877	 2.035719	 -1.142752	 -0.748159	 -0.002806	 0.770095	 -0.589807	 0.243050	 1
1463624140.619	 8	 0.016488	 0.039453	 0.011606	 2.035743	 -1.142797	 -0.748569	 -0.002654	 0.770092	 -0.589870	 0.242908	 1
1463624140.629	 8	 0.012196	 0.036259	 0.009481	 2.035761	 -1.142848	 -0.748960	 -0.002513	 0.770088	 -0.589932	 0.242772	 1
1463624140.639	 8	 0.003601	 0.026689	 0.006270	 2.035797	 -1.142797	 -0.749229	 -0.002384	 0.770100	 -0.589950	 0.242693	 1
1463624140.649	 8	 -0.003653	 0.019497	 0.011941	 2.035896	 -1.142663	 -0.749341	 -0.002273	 0.770130	 -0.589926	 0.242656	 1
1463624140.659	 8	 -0.001510	 0.014234	 0.020400	 2.035807	 -1.142455	 -0.749588	 -0.002144	 0.770147	 -0.589898	 0.242673	 1
1463624140.669	 8	 -0.000420	 0.015325	 0.024664	 2.035662	 -1.142278	 -0.749911	 -0.002011	 0.770153	 -0.589887	 0.242680	 1
1463624140.679	 8	 -0.000410	 0.016396	 0.025739	 2.035474	 -1.142115	 -0.750277	 -0.001878	 0.770152	 -0.589885	 0.242687	 1
1463624140.689	 8	 -0.003631	 0.011095	 0.026782	 2.035183	 -1.141986	 -0.750699	 -0.001764	 0.770135	 -0.589900	 0.242709	 1
1463624140.699	 8	 -0.006866	 0.003658	 0.026740	 2.034800	 -1.141879	 -0.751117	 -0.001685	 0.770103	 -0.589920	 0.242761	 1
1463624140.709	 8	 -0.006901	 -0.001684	 0.023492	 2.034293	 -1.141827	 -0.751582	 -0.001640	 0.770049	 -0.589962	 0.242833	 1
1463624140.719	 8	 -0.003722	 -0.005957	 0.022357	 2.033710	 -1.141822	 -0.752088	 -0.001616	 0.769979	 -0.590021	 0.242909	 1
1463624140.729	 8	 -0.001574	 -0.002781	 0.021300	 2.033218	 -1.141838	 -0.752528	 -0.001596	 0.769917	 -0.590079	 0.242964	 1
1463624140.739	 8	 0.003781	 0.002505	 0.019169	 2.032651	 -1.141910	 -0.753094	 -0.001567	 0.769839	 -0.590167	 0.242997	 1
1463624140.749	 8	 0.011234	 0.000339	 0.016951	 2.031995	 -1.141963	 -0.753777	 -0.001513	 0.769753	 -0.590265	 0.243034	 1
1463624140.759	 8	 0.013365	 -0.000731	 0.016921	 2.031386	 -1.141997	 -0.754401	 -0.001462	 0.769675	 -0.590349	 0.243075	 1
1463624140.769	 8	 0.014447	 0.000344	 0.019052	 2.030821	 -1.141982	 -0.754998	 -0.001395	 0.769609	 -0.590417	 0.243120	 1
1463624140.779	 8	 0.012326	 0.001430	 0.021212	 2.030384	 -1.141892	 -0.755487	 -0.001309	 0.769568	 -0.590451	 0.243168	 1
1463624140.789	 8	 0.011475	 0.007937	 0.023656	 2.030084	 -1.141767	 -0.755894	 -0.001205	 0.769548	 -0.590466	 0.243196	 1
1463624140.799	 8	 0.013659	 0.017512	 0.024790	 2.029893	 -1.141700	 -0.756300	 -0.001086	 0.769534	 -0.590496	 0.243168	 1
1463624140.809	 8	 0.010454	 0.018569	 0.022696	 2.029641	 -1.141622	 -0.756788	 -0.000950	 0.769514	 -0.590534	 0.243141	 1
1463624140.819	 8	 0.007239	 0.016444	 0.021637	 2.029430	 -1.141513	 -0.757210	 -0.000818	 0.769503	 -0.590554	 0.243127	 1
1463624140.829	 8	 0.005073	 0.007956	 0.023708	 2.029068	 -1.141432	 -0.757696	 -0.000714	 0.769469	 -0.590591	 0.243144	 1
1463624140.839	 8	 0.005086	 0.006923	 0.027960	 2.028749	 -1.141346	 -0.758110	 -0.000625	 0.769442	 -0.590617	 0.243167	 1
1463624140.849	 8	 0.006177	 0.010127	 0.030109	 2.028597	 -1.141272	 -0.758416	 -0.000530	 0.769433	 -0.590634	 0.243154	 1
1463624140.859	 8	 0.010444	 0.012218	 0.026892	 2.028342	 -1.141248	 -0.758846	 -0.000433	 0.769406	 -0.590679	 0.243132	 1
1463624140.869	 8	 0.010432	 0.014307	 0.021580	 2.028401	 -1.141302	 -0.759002	 -0.000371	 0.769406	 -0.590713	 0.243049	 1
1463624140.879	 8	 0.008242	 0.008942	 0.014086	 2.028531	 -1.141359	 -0.759045	 -0.000333	 0.769414	 -0.590734	 0.242971	 1
1463624140.889	 8	 0.006048	 -0.000647	 0.010816	 2.028691	 -1.141422	 -0.758956	 -0.000338	 0.769425	 -0.590741	 0.242919	 1
1463624140.899	 8	 -0.000392	 -0.003857	 0.005511	 2.028924	 -1.141503	 -0.758731	 -0.000380	 0.769443	 -0.590736	 0.242875	 1
1463624140.909	 8	 -0.008948	 -0.005974	 0.003433	 2.029185	 -1.141494	 -0.758425	 -0.000417	 0.769476	 -0.590697	 0.242867	 1
1463624140.919	 8	 -0.012188	 -0.017634	 0.007616	 2.029237	 -1.141437	 -0.758213	 -0.000467	 0.769489	 -0.590655	 0.242925	 1
1463624140.929	 8	 -0.013288	 -0.028236	 0.011789	 2.029054	 -1.141342	 -0.758114	 -0.000532	 0.769480	 -0.590616	 0.243049	 1
1463624140.939	 8	 -0.007950	 -0.031413	 0.015976	 2.028673	 -1.141213	 -0.758169	 -0.000586	 0.769450	 -0.590587	 0.243214	 1
1463624140.949	 8	 -0.005593	 -0.028015	 0.018369	 2.028477	 -1.141012	 -0.758094	 -0.000614	 0.769453	 -0.590522	 0.243365	 1
1463624140.959	 8	 -0.005559	 -0.020569	 0.018437	 2.028328	 -1.140834	 -0.758038	 -0.000627	 0.769458	 -0.590465	 0.243486	 1
1463624140.969	 8	 -0.006609	 -0.014207	 0.015307	 2.028411	 -1.140682	 -0.757839	 -0.000635	 0.769488	 -0.590398	 0.243553	 1
1463624140.979	 8	 -0.009804	 -0.009965	 0.012177	 2.028567	 -1.140560	 -0.757595	 -0.000647	 0.769523	 -0.590335	 0.243597	 1
1463624140.989	 8	 -0.007679	 -0.009987	 0.010026	 2.028749	 -1.140449	 -0.757333	 -0.000662	 0.769559	 -0.590272	 0.243634	 1
1463624140.999	 8	 -0.006594	 -0.008903	 0.013223	 2.028657	 -1.140349	 -0.757331	 -0.000661	 0.769561	 -0.590244	 0.243696	 1
1463624141.009	 8	 -0.001225	 -0.004641	 0.016413	 2.028488	 -1.140249	 -0.757451	 -0.000635	 0.769554	 -0.590230	 0.243752	 1
1463624141.019	 8	 0.003079	 0.001735	 0.017500	 2.028206	 -1.140188	 -0.757744	 -0.000588	 0.769527	 -0.590249	 0.243790	 1
1463624141.029	 8	 0.003094	 0.003870	 0.018584	 2.028031	 -1.140152	 -0.757986	 -0.000536	 0.769511	 -0.590269	 0.243796	 1
1463624141.039	 8	 0.002019	 0.003858	 0.016460	 2.027868	 -1.140152	 -0.758209	 -0.000498	 0.769491	 -0.590296	 0.243793	 1
1463624141.049	 8	 -0.001211	 -0.000402	 0.014315	 2.027791	 -1.140208	 -0.758314	 -0.000497	 0.769474	 -0.590324	 0.243776	 1
1463624141.059	 8	 -0.001239	 -0.004672	 0.012141	 2.027748	 -1.140315	 -0.758337	 -0.000532	 0.769455	 -0.590357	 0.243758	 1
1463624141.069	 8	 -0.003398	 -0.009984	 0.012109	 2.027589	 -1.140357	 -0.758412	 -0.000563	 0.769430	 -0.590377	 0.243786	 1
1463624141.079	 8	 -0.002356	 -0.016362	 0.013105	 2.027480	 -1.140385	 -0.758389	 -0.000612	 0.769413	 -0.590382	 0.243827	 1
1463624141.089	 8	 -0.006658	 -0.021682	 0.010959	 2.027435	 -1.140427	 -0.758241	 -0.000695	 0.769402	 -0.590376	 0.243877	 1
1463624141.099	 8	 -0.009916	 -0.029157	 0.005586	 2.027466	 -1.140549	 -0.757947	 -0.000834	 0.769390	 -0.590374	 0.243920	 1
1463624141.109	 8	 -0.014061	 -0.032222	 0.001524	 2.027595	 -1.140646	 -0.757495	 -0.000998	 0.769393	 -0.590346	 0.243978	 1
1463624141.119	 8	 -0.015156	 -0.035433	 -0.001695	 2.027734	 -1.140712	 -0.756990	 -0.001170	 0.769401	 -0.590303	 0.244056	 1
1463624141.129	 8	 -0.015152	 -0.034369	 -0.001686	 2.027936	 -1.140699	 -0.756430	 -0.001322	 0.769427	 -0.590231	 0.244147	 1
1463624141.139	 8	 -0.019388	 -0.030078	 0.001589	 2.028114	 -1.140559	 -0.755914	 -0.001428	 0.769466	 -0.590129	 0.244268	 1
1463624141.149	 8	 -0.015097	 -0.027940	 0.004769	 2.028227	 -1.140397	 -0.755502	 -0.001505	 0.769501	 -0.590034	 0.244388	 1
1463624141.159	 8	 -0.015088	 -0.026869	 0.005845	 2.028213	 -1.140200	 -0.755221	 -0.001560	 0.769525	 -0.589944	 0.244529	 1
1463624141.169	 8	 -0.014008	 -0.025793	 0.007977	 2.028198	 -1.140048	 -0.754959	 -0.001621	 0.769543	 -0.589870	 0.244652	 1
1463624141.179	 8	 -0.012941	 -0.025796	 0.007968	 2.028138	 -1.139901	 -0.754742	 -0.001679	 0.769555	 -0.589802	 0.244778	 1
1463624141.189	 8	 -0.011850	 -0.021537	 0.009064	 2.028156	 -1.139766	 -0.754478	 -0.001737	 0.769574	 -0.589732	 0.244884	 1
1463624141.199	 8	 -0.006502	 -0.016258	 0.005869	 2.028162	 -1.139664	 -0.754299	 -0.001774	 0.769588	 -0.589682	 0.244962	 1
1463624141.209	 8	 -0.008623	 -0.014116	 0.006973	 2.028291	 -1.139534	 -0.754031	 -0.001802	 0.769621	 -0.589612	 0.245026	 1
1463624141.219	 8	 -0.013949	 -0.013028	 0.008095	 2.028426	 -1.139412	 -0.753758	 -0.001831	 0.769653	 -0.589545	 0.245087	 1
1463624141.229	 8	 -0.019300	 -0.016203	 0.008112	 2.028599	 -1.139322	 -0.753416	 -0.001886	 0.769686	 -0.589478	 0.245145	 1
1463624141.239	 8	 -0.020393	 -0.021518	 0.008071	 2.028737	 -1.139208	 -0.753052	 -0.001952	 0.769717	 -0.589402	 0.245228	 1
1463624141.249	 8	 -0.017183	 -0.021513	 0.010174	 2.028818	 -1.139130	 -0.752732	 -0.002028	 0.769737	 -0.589341	 0.245312	 1
1463624141.259	 8	 -0.014896	 -0.011904	 0.010362	 2.028998	 -1.139119	 -0.752396	 -0.002101	 0.769760	 -0.589297	 0.245345	 1
1463624141.269	 8	 -0.011666	 -0.006587	 0.011448	 2.029320	 -1.139047	 -0.752017	 -0.002131	 0.769809	 -0.589230	 0.245351	 1
1463624141.279	 8	 -0.012770	 -0.009814	 0.006097	 2.029592	 -1.139016	 -0.751663	 -0.002178	 0.769846	 -0.589178	 0.245359	 1
1463624141.289	 8	 -0.013910	 -0.021542	 0.001734	 2.029700	 -1.139002	 -0.751355	 -0.002261	 0.769861	 -0.589137	 0.245413	 1
1463624141.299	 8	 -0.017120	 -0.021547	 -0.000370	 2.029838	 -1.138972	 -0.750964	 -0.002362	 0.769881	 -0.589080	 0.245482	 1
1463624141.309	 8	 -0.011739	 -0.013046	 0.000728	 2.029973	 -1.138957	 -0.750652	 -0.002438	 0.769899	 -0.589038	 0.245526	 1
1463624141.319	 8	 -0.005276	 -0.000301	 0.000789	 2.030102	 -1.138981	 -0.750480	 -0.002473	 0.769912	 -0.589024	 0.245521	 1
1463624141.329	 8	 0.000076	 0.004985	 -0.001340	 2.030218	 -1.138995	 -0.750411	 -0.002470	 0.769924	 -0.589019	 0.245493	 1
1463624141.339	 8	 -0.002082	 0.001785	 -0.003481	 2.030230	 -1.138945	 -0.750421	 -0.002448	 0.769932	 -0.589007	 0.245498	 1
1463624141.349	 8	 -0.002089	 -0.002447	 -0.000323	 2.030159	 -1.138877	 -0.750463	 -0.002433	 0.769933	 -0.588993	 0.245531	 1
1463624141.359	 8	 -0.000971	 0.002914	 0.006113	 2.029932	 -1.138738	 -0.750683	 -0.002375	 0.769923	 -0.588980	 0.245591	 1
1463624141.369	 8	 0.003354	 0.010386	 0.011475	 2.029740	 -1.138597	 -0.750965	 -0.002282	 0.769918	 -0.588975	 0.245619	 1
1463624141.379	 8	 0.006580	 0.013582	 0.013608	 2.029560	 -1.138535	 -0.751300	 -0.002188	 0.769905	 -0.588999	 0.245606	 1
1463624141.389	 8	 0.007636	 0.010396	 0.014634	 2.029374	 -1.138476	 -0.751634	 -0.002097	 0.769890	 -0.589023	 0.245594	 1
1463624141.399	 8	 0.006550	 0.007200	 0.013548	 2.029156	 -1.138387	 -0.751951	 -0.002013	 0.769875	 -0.589037	 0.245608	 1
1463624141.409	 8	 0.003348	 0.006154	 0.014632	 2.029012	 -1.138336	 -0.752175	 -0.001955	 0.769865	 -0.589050	 0.245611	 1
1463624141.419	 8	 0.003378	 0.012536	 0.014690	 2.028984	 -1.138314	 -0.752342	 -0.001892	 0.769864	 -0.589064	 0.245579	 1
1463624141.429	 8	 0.006687	 0.017887	 0.014806	 2.029041	 -1.138361	 -0.752491	 -0.001831	 0.769865	 -0.589096	 0.245500	 1
1463624141.439	 8	 0.013082	 0.017852	 0.012618	 2.028824	 -1.138459	 -0.752922	 -0.001758	 0.769826	 -0.589176	 0.245431	 1
1463624141.449	 8	 0.011991	 0.013593	 0.011520	 2.028719	 -1.138556	 -0.753223	 -0.001702	 0.769801	 -0.589240	 0.245357	 1
1463624141.459	 8	 0.006632	 0.010403	 0.009405	 2.028710	 -1.138599	 -0.753388	 -0.001654	 0.769794	 -0.589272	 0.245301	 1
1463624141.469	 8	 0.002348	 0.008281	 0.008355	 2.028828	 -1.138620	 -0.753383	 -0.001626	 0.769806	 -0.589278	 0.245251	 1
1463624141.479	 8	 0.000245	 0.015725	 0.007376	 2.029166	 -1.138621	 -0.753214	 -0.001592	 0.769847	 -0.589257	 0.245171	 1
1463624141.489	 8	 -0.000817	 0.017848	 0.006339	 2.029470	 -1.138623	 -0.753113	 -0.001542	 0.769884	 -0.589246	 0.245083	 1
1463624141.499	 8	 -0.000846	 0.012522	 0.005223	 2.029554	 -1.138617	 -0.753175	 -0.001492	 0.769895	 -0.589252	 0.245034	 1
1463624141.509	 8	 -0.001949	 0.005080	 0.005163	 2.029632	 -1.138568	 -0.753169	 -0.001457	 0.769911	 -0.589237	 0.245019	 1
1463624141.519	 8	 -0.001957	 -0.000208	 0.009378	 2.029552	 -1.138446	 -0.753254	 -0.001412	 0.769917	 -0.589213	 0.245057	 1
1463624141.529	 8	 0.002328	 -0.001246	 0.014660	 2.029317	 -1.138301	 -0.753487	 -0.001349	 0.769908	 -0.589201	 0.245117	 1
1463624141.539	 8	 0.006595	 -0.002315	 0.015678	 2.029151	 -1.138232	 -0.753666	 -0.001310	 0.769897	 -0.589204	 0.245146	 1
1463624141.549	 8	 0.008719	 -0.003392	 0.014583	 2.028990	 -1.138182	 -0.753835	 -0.001277	 0.769884	 -0.589210	 0.245171	 1
1463624141.559	 8	 0.005519	 -0.001270	 0.012498	 2.028938	 -1.138130	 -0.753918	 -0.001246	 0.769884	 -0.589206	 0.245181	 1
1463624141.569	 8	 0.004481	 0.003003	 0.014678	 2.028814	 -1.138077	 -0.754091	 -0.001200	 0.769876	 -0.589212	 0.245192	 1
1463624141.579	 8	 0.005604	 0.015756	 0.013721	 2.028804	 -1.138005	 -0.754259	 -0.001117	 0.769884	 -0.589213	 0.245165	 1
1463624141.589	 8	 0.008875	 0.028526	 0.015942	 2.028748	 -1.137924	 -0.754606	 -0.000976	 0.769888	 -0.589232	 0.245105	 1
1463624141.599	 8	 0.016364	 0.031702	 0.016972	 2.028645	 -1.137906	 -0.755068	 -0.000824	 0.769878	 -0.589284	 0.245014	 1
1463624141.609	 8	 0.019607	 0.027450	 0.016958	 2.028409	 -1.137904	 -0.755651	 -0.000668	 0.769850	 -0.589355	 0.244933	 1
1463624141.619	 8	 0.018519	 0.023199	 0.016927	 2.028262	 -1.137893	 -0.756108	 -0.000533	 0.769833	 -0.589407	 0.244858	 1
1463624141.629	 8	 0.015315	 0.020041	 0.020122	 2.028156	 -1.137899	 -0.756492	 -0.000418	 0.769819	 -0.589456	 0.244784	 1
1463624141.639	 8	 0.013182	 0.022159	 0.018027	 2.028177	 -1.137901	 -0.756756	 -0.000311	 0.769822	 -0.589489	 0.244698	 1
1463624141.659	 9	 0.006748	 0.021069	 0.011675	 2.028629	 -1.138071	 -0.756849	 -0.000191	 0.769855	 -0.589548	 0.244451	 1
1463624141.669	 9	 0.004619	 0.021083	 0.012758	 2.028620	 -1.138160	 -0.757085	 -0.000129	 0.769842	 -0.589602	 0.244362	 1
1463624141.679	 9	 0.009934	 0.015757	 0.013727	 2.028498	 -1.138200	 -0.757412	 -0.000051	 0.769822	 -0.589653	 0.244302	 1
1463624141.689	 9	 0.007774	 0.010445	 0.013695	 2.028371	 -1.138253	 -0.757695	 0.000006	 0.769800	 -0.589702	 0.244253	 1
1463624141.709	 9	 -0.000804	 0.006177	 0.008398	 2.028432	 -1.138353	 -0.757823	 0.000044	 0.769794	 -0.589746	 0.244165	 1
1463624141.699	 9	 0.002415	 0.007254	 0.011579	 2.028334	 -1.138261	 -0.757840	 0.000048	 0.769794	 -0.589722	 0.244223	 1
1463624141.719	 9	 -0.000797	 0.009353	 0.006295	 2.028588	 -1.138414	 -0.757775	 0.000053	 0.769805	 -0.589757	 0.244103	 1
1463624141.729	 9	 0.001352	 0.012538	 0.006305	 2.028792	 -1.138460	 -0.757715	 0.000077	 0.769824	 -0.589762	 0.244031	 1
1463624141.739	 9	 0.000329	 0.013614	 0.007398	 2.028925	 -1.138470	 -0.757731	 0.000120	 0.769839	 -0.589767	 0.243972	 1
1463624141.749	 9	 -0.001790	 0.017867	 0.006389	 2.029232	 -1.138510	 -0.757612	 0.000153	 0.769871	 -0.589764	 0.243878	 1
1463624141.759	 9	 -0.003905	 0.026345	 0.001157	 2.029745	 -1.138563	 -0.757361	 0.000192	 0.769927	 -0.589748	 0.243741	 1
1463624141.769	 9	 -0.006030	 0.033751	 -0.005152	 2.030525	 -1.138720	 -0.756912	 0.000203	 0.770002	 -0.589737	 0.243531	 1
1463624141.779	 9	 -0.007075	 0.047505	 -0.015675	 2.031681	 -1.139000	 -0.756203	 0.000189	 0.770105	 -0.589729	 0.243221	 1
1463624141.789	 9	 -0.004901	 0.067609	 -0.029365	 2.033288	 -1.139458	 -0.755235	 0.000158	 0.770241	 -0.589740	 0.242767	 1
1463624141.799	 9	 -0.000648	 0.081278	 -0.049528	 2.035147	 -1.140151	 -0.754167	 0.000093	 0.770375	 -0.589805	 0.242183	 1
1463624141.809	 9	 0.005741	 0.092836	 -0.066531	 2.037163	 -1.140998	 -0.753046	 0.000010	 0.770507	 -0.589907	 0.241514	 1
1463624141.819	 9	 0.010049	 0.106605	 -0.072837	 2.039202	 -1.141857	 -0.752032	 -0.000028	 0.770638	 -0.590027	 0.240801	 1
1463624141.829	 9	 0.007962	 0.114081	 -0.069554	 2.041252	 -1.142639	 -0.751090	 -0.000012	 0.770780	 -0.590134	 0.240083	 1
1463624141.839	 9	 0.010126	 0.124673	 -0.074804	 2.043299	 -1.143490	 -0.750226	 0.000013	 0.770912	 -0.590270	 0.239326	 1
1463624141.849	 9	 0.018735	 0.152195	 -0.089547	 2.045570	 -1.144596	 -0.749373	 0.000036	 0.771034	 -0.590480	 0.238411	 1
1463624141.859	 9	 0.031612	 0.197633	 -0.125477	 2.048918	 -1.146231	 -0.747897	 -0.000016	 0.771211	 -0.590766	 0.237127	 1
1463624141.869	 9	 0.055238	 0.277979	 -0.183560	 2.053733	 -1.148617	 -0.745698	 -0.000127	 0.771453	 -0.591182	 0.235295	 1
1463624141.879	 9	 0.067128	 0.387896	 -0.275373	 2.060975	 -1.152046	 -0.742127	 -0.000345	 0.771826	 -0.591738	 0.232661	 1
1463624141.889	 9	 0.075807	 0.490413	 -0.361887	 2.067832	 -1.155406	 -0.739712	 -0.000205	 0.772146	 -0.592417	 0.229853	 1
1463624141.899	 9	 0.081185	 0.552690	 -0.425300	 2.076114	 -1.159379	 -0.736553	 -0.000098	 0.772525	 -0.593191	 0.226559	 1
1463624141.909	 9	 0.107837	 0.575696	 -0.470095	 2.085028	 -1.163898	 -0.733076	 -0.000071	 0.772872	 -0.594096	 0.222976	 1
1463624141.919	 9	 0.134545	 0.569342	 -0.455467	 2.093623	 -1.168722	 -0.729989	 -0.000064	 0.773111	 -0.595143	 0.219327	 1
1463624141.929	 9	 0.140988	 0.538817	 -0.408914	 2.101207	 -1.173070	 -0.727684	 0.000088	 0.773286	 -0.596146	 0.215962	 1
1463624141.939	 9	 0.098090	 0.493214	 -0.407899	 2.108864	 -1.177117	 -0.724897	 0.000168	 0.773492	 -0.597017	 0.212793	 1
1463624141.949	 9	 0.064531	 0.374345	 -0.386332	 2.116282	 -1.180843	 -0.721178	 -0.000086	 0.773703	 -0.597704	 0.210081	 1
1463624141.959	 9	 0.069086	 0.409649	 -0.356200	 2.123278	 -1.184092	 -0.717835	 -0.000183	 0.773926	 -0.598301	 0.207545	 1
1463624141.969	 9	 0.100697	 0.489849	 -0.284322	 2.130071	 -1.187159	 -0.715582	 0.000136	 0.774142	 -0.598963	 0.204811	 1
1463624141.979	 9	 0.166434	 0.550924	 -0.195868	 2.135224	 -1.189791	 -0.715814	 0.001051	 0.774246	 -0.599755	 0.202078	 1
1463624141.989	 9	 0.249222	 0.609797	 -0.110780	 2.138149	 -1.192120	 -0.719085	 0.002559	 0.774164	 -0.600761	 0.199373	 1
1463624141.999	 9	 0.415048	 0.696527	 -0.110342	 2.136469	 -1.193982	 -0.727758	 0.004901	 0.773684	 -0.602166	 0.196941	 1
1463624142.009	 9	 0.473528	 0.820227	 -0.042557	 2.135091	 -1.197154	 -0.737873	 0.007527	 0.773014	 -0.604076	 0.193610	 1
1463624142.019	 9	 0.363881	 0.651437	 -0.042107	 2.134147	 -1.199466	 -0.746456	 0.009921	 0.772521	 -0.605570	 0.190783	 1
1463624142.029	 9	 0.328398	 0.502547	 -0.200916	 2.134298	 -1.202576	 -0.752000	 0.011250	 0.772016	 -0.606985	 0.188238	 1
1463624142.039	 9	 0.301763	 0.442770	 -0.387749	 2.136833	 -1.207115	 -0.754144	 0.011595	 0.771524	 -0.608467	 0.185430	 1
1463624142.049	 9	 0.285077	 0.422607	 -0.534870	 2.142427	 -1.213264	 -0.752800	 0.011088	 0.771066	 -0.610065	 0.182084	 1
1463624142.059	 9	 0.275129	 0.424122	 -0.623228	 2.149279	 -1.219843	 -0.749996	 0.010294	 0.770636	 -0.611652	 0.178595	 1
1463624142.069	 9	 0.310441	 0.467426	 -0.650842	 2.156741	 -1.226889	 -0.746872	 0.009451	 0.770153	 -0.613352	 0.174856	 1
1463624142.079	 9	 0.356548	 0.499322	 -0.633895	 2.163583	 -1.234141	 -0.744863	 0.008808	 0.769543	 -0.615220	 0.170969	 1
1463624142.089	 9	 0.365976	 0.430433	 -0.596250	 2.169085	 -1.241212	 -0.743812	 0.008183	 0.768816	 -0.617128	 0.167356	 1
1463624142.099	 9	 0.337933	 0.346672	 -0.571207	 2.173930	 -1.247932	 -0.742570	 0.007387	 0.768070	 -0.618925	 0.164151	 1
1463624142.109	 9	 0.301405	 0.269357	 -0.540702	 2.178566	 -1.254217	 -0.740740	 0.006429	 0.767363	 -0.620554	 0.161325	 1
1463624142.119	 9	 0.271461	 0.200787	 -0.475002	 2.182448	 -1.259859	 -0.738930	 0.005425	 0.766689	 -0.622007	 0.158952	 1
1463624142.129	 9	 0.271965	 0.213295	 -0.362976	 2.182385	 -1.263862	 -0.740861	 0.005072	 0.765972	 -0.623299	 0.157349	 1
1463624142.139	 9	 0.257092	 0.126992	 -0.243218	 2.182175	 -1.267594	 -0.742928	 0.004795	 0.765290	 -0.624522	 0.155825	 1
1463624142.149	 9	 0.193608	 -0.063576	 -0.147455	 2.179502	 -1.270188	 -0.745388	 0.004203	 0.764617	 -0.625453	 0.155411	 1
1463624142.159	 9	 0.158640	 -0.118911	 -0.018708	 2.175021	 -1.271584	 -0.748970	 0.003794	 0.764014	 -0.626133	 0.155642	 1
1463624142.169	 9	 0.160228	 -0.128516	 0.124001	 2.167992	 -1.271678	 -0.754962	 0.003855	 0.763438	 -0.626641	 0.156426	 1
1463624142.179	 9	 0.229840	 -0.130392	 0.187340	 2.153114	 -1.269848	 -0.768790	 0.004966	 0.762553	 -0.627254	 0.158246	 1
1463624142.189	 9	 0.272461	 -0.159108	 0.204820	 2.140812	 -1.269570	 -0.779990	 0.005450	 0.761593	 -0.628099	 0.159492	 1
1463624142.199	 9	 0.258462	 -0.151914	 0.164510	 2.129043	 -1.269502	 -0.790763	 0.005870	 0.760632	 -0.628976	 0.160603	 1
1463624142.209	 9	 0.201436	 -0.196882	 0.100642	 2.119245	 -1.269644	 -0.799084	 0.005910	 0.759795	 -0.629713	 0.161671	 1
1463624142.219	 9	 0.130598	 -0.216378	 0.023269	 2.115646	 -1.270530	 -0.800943	 0.005233	 0.759356	 -0.630110	 0.162213	 1
1463624142.229	 9	 0.075807	 -0.240079	 -0.040420	 2.111294	 -1.271208	 -0.803042	 0.004466	 0.758888	 -0.630471	 0.163019	 1
1463624142.239	 9	 0.041463	 -0.257204	 -0.069056	 2.108457	 -1.271998	 -0.803377	 0.003474	 0.758529	 -0.630713	 0.163775	 1
1463624142.249	 9	 0.032793	 -0.270074	 -0.087218	 2.106222	 -1.272883	 -0.802884	 0.002331	 0.758205	 -0.630910	 0.164538	 1
1463624142.259	 9	 0.031820	 -0.249859	 -0.087027	 2.106203	 -1.274293	 -0.800431	 0.000995	 0.757979	 -0.631081	 0.164936	 1
1463624142.269	 9	 0.022148	 -0.265770	 -0.084960	 2.104362	 -1.275168	 -0.799644	 -0.000133	 0.757687	 -0.631247	 0.165644	 1
1463624142.279	 9	 0.001747	 -0.296517	 -0.079739	 2.102640	 -1.275890	 -0.798423	 -0.001344	 0.757427	 -0.631336	 0.166485	 1
1463624142.289	 9	 -0.046392	 -0.351421	 -0.043595	 2.101131	 -1.276251	 -0.796566	 -0.002626	 0.757241	 -0.631275	 0.167545	 1
1463624142.299	 9	 -0.071278	 -0.447927	 -0.014428	 2.098146	 -1.275120	 -0.795035	 -0.003826	 0.757169	 -0.630842	 0.169465	 1
1463624142.309	 9	 -0.010729	 -0.488683	 -0.036649	 2.094665	 -1.275256	 -0.793684	 -0.005474	 0.756848	 -0.630755	 0.171172	 1
1463624142.319	 9	 0.072196	 -0.540112	 -0.054902	 2.088761	 -1.275944	 -0.794367	 -0.007274	 0.756232	 -0.630976	 0.173003	 1
1463624142.329	 9	 0.132139	 -0.505159	 -0.050836	 2.080952	 -1.277006	 -0.797061	 -0.009025	 0.755395	 -0.631456	 0.174814	 1
1463624142.339	 9	 0.139036	 -0.435739	 -0.008681	 2.071990	 -1.277400	 -0.801686	 -0.010223	 0.754568	 -0.631922	 0.176628	 1
1463624142.349	 9	 0.075129	 -0.451147	 0.040757	 2.064273	 -1.277623	 -0.805082	 -0.011445	 0.753867	 -0.632239	 0.178403	 1
1463624142.359	 9	 -0.010907	 -0.397435	 0.079308	 2.058725	 -1.277027	 -0.806504	 -0.012490	 0.753470	 -0.632180	 0.180209	 1
1463624142.369	 9	 -0.050908	 -0.285561	 0.089221	 2.062185	 -1.275422	 -0.800193	 -0.013311	 0.753990	 -0.631219	 0.181341	 1
1463624142.379	 9	 -0.056935	 -0.204718	 0.087894	 2.060249	 -1.274378	 -0.799910	 -0.013725	 0.753973	 -0.630911	 0.182447	 1
1463624142.389	 9	 -0.058752	 -0.151413	 0.104392	 2.058783	 -1.273240	 -0.799721	 -0.013929	 0.754013	 -0.630591	 0.183373	 1
1463624142.399	 9	 -0.051008	 -0.130901	 0.149278	 2.056984	 -1.271782	 -0.800239	 -0.013878	 0.754075	 -0.630250	 0.184290	 1
1463624142.409	 9	 0.036375	 -0.242107	 0.249795	 2.051165	 -1.269900	 -0.803950	 -0.013765	 0.753850	 -0.630069	 0.185833	 1
1463624142.419	 9	 0.108269	 -0.068851	 0.410664	 2.037131	 -1.265442	 -0.817093	 -0.011929	 0.753287	 -0.630072	 0.188217	 1
1463624142.429	 9	 0.178355	 -0.081457	 0.607102	 2.023990	 -1.261186	 -0.830134	 -0.009902	 0.752731	 -0.630162	 0.190247	 1
1463624142.439	 9	 0.162872	 -0.163763	 0.837742	 2.007436	 -1.254959	 -0.846046	 -0.007274	 0.752081	 -0.630069	 0.193221	 1
1463624142.449	 9	 0.056717	 -0.286864	 1.126342	 1.989409	 -1.245644	 -0.862353	 -0.004010	 0.751606	 -0.629331	 0.197521	 1
1463624142.459	 9	 0.022518	 -0.436679	 1.277584	 1.970300	 -1.234294	 -0.878333	 -0.000554	 0.751142	 -0.628170	 0.202946	 1
1463624142.469	 9	 0.043786	 -0.494874	 1.328014	 1.950377	 -1.222258	 -0.894315	 0.002904	 0.750509	 -0.626965	 0.208907	 1
1463624142.479	 9	 0.025022	 -0.453942	 1.391438	 1.931461	 -1.209578	 -0.909487	 0.006620	 0.749877	 -0.625645	 0.214964	 1
1463624142.489	 9	 -0.029209	 -0.423903	 1.404979	 1.914970	 -1.196304	 -0.922585	 0.010548	 0.749402	 -0.624068	 0.220965	 1
1463624142.499	 9	 -0.082708	 -0.398695	 1.339602	 1.901260	 -1.183264	 -0.932922	 0.014276	 0.749071	 -0.622316	 0.226741	 1
1463624142.509	 9	 -0.133720	 -0.300091	 1.275952	 1.890853	 -1.170659	 -0.940656	 0.017950	 0.748971	 -0.620408	 0.231979	 1
1463624142.519	 9	 -0.186687	 -0.201157	 1.257084	 1.883352	 -1.158166	 -0.946411	 0.021774	 0.749120	 -0.618311	 0.236721	 1
1463624142.529	 9	 -0.234334	 -0.162374	 1.305819	 1.877630	 -1.145222	 -0.950823	 0.025808	 0.749454	 -0.615955	 0.241354	 1
1463624142.539	 9	 -0.265934	 -0.161529	 1.409481	 1.872425	 -1.131293	 -0.954792	 0.030169	 0.749861	 -0.613327	 0.246228	 1
1463624142.549	 9	 -0.291923	 -0.144382	 1.563337	 1.867261	 -1.115902	 -0.958838	 0.035059	 0.750300	 -0.610384	 0.251501	 1
1463624142.559	 9	 -0.295123	 -0.104471	 1.785415	 1.861832	 -1.098562	 -0.963616	 0.040789	 0.750732	 -0.607100	 0.257230	 1
1463624142.569	 9	 -0.296631	 -0.042340	 2.138773	 1.855324	 -1.077938	 -0.970402	 0.048030	 0.751066	 -0.603355	 0.263735	 1
1463624142.579	 9	 -0.335245	 -0.178611	 2.251878	 1.848513	 -1.055558	 -0.976601	 0.055557	 0.751305	 -0.599153	 0.271054	 1
1463624142.589	 9	 -0.334414	 -0.254967	 2.283133	 1.841021	 -1.032743	 -0.982483	 0.062932	 0.751292	 -0.594845	 0.278852	 1
1463624142.599	 9	 -0.334969	 -0.364587	 2.273592	 1.833215	 -1.009868	 -0.987761	 0.070039	 0.751063	 -0.590468	 0.286959	 1
1463624142.609	 9	 -0.292058	 -0.481182	 2.199661	 1.824431	 -0.987602	 -0.992799	 0.076601	 0.750482	 -0.586257	 0.295316	 1
1463624142.619	 9	 -0.232044	 -0.536616	 2.060074	 1.815070	 -0.966670	 -0.997733	 0.082552	 0.749584	 -0.582397	 0.303517	 1
1463624142.629	 9	 -0.182398	 -0.539797	 1.934918	 1.805772	 -0.947156	 -1.002535	 0.088039	 0.748486	 -0.578883	 0.311307	 1
1463624142.639	 9	 -0.142294	 -0.590289	 1.881876	 1.796131	 -0.928408	 -1.007345	 0.093207	 0.747156	 -0.575602	 0.318985	 1
1463624142.649	 9	 -0.146839	 -0.612922	 1.839075	 1.786513	 -0.910020	 -1.011734	 0.098132	 0.745690	 -0.572374	 0.326657	 1
1463624142.659	 9	 -0.192714	 -0.507314	 1.716829	 1.778663	 -0.892502	 -1.014810	 0.102810	 0.744430	 -0.569076	 0.333776	 1
1463624142.669	 9	 -0.222474	 -0.326689	 1.532260	 1.773585	 -0.876584	 -1.016566	 0.107273	 0.743585	 -0.565807	 0.339759	 1
1463624142.679	 9	 -0.255785	 -0.208904	 1.334349	 1.770832	 -0.862532	 -1.017111	 0.111335	 0.743125	 -0.562650	 0.344666	 1
1463624142.689	 9	 -0.287303	 -0.176102	 1.151617	 1.769477	 -0.850268	 -1.016514	 0.114778	 0.742926	 -0.559637	 0.348847	 1
1463624142.699	 9	 -0.304092	 -0.209108	 0.993723	 1.768501	 -0.839551	 -1.015162	 0.117536	 0.742812	 -0.556830	 0.352642	 1
1463624142.709	 9	 -0.300607	 -0.248501	 0.843054	 1.767530	 -0.830327	 -1.013281	 0.119607	 0.742717	 -0.554280	 0.356145	 1
1463624142.719	 9	 -0.243961	 -0.328482	 0.690478	 1.765714	 -0.822666	 -1.011586	 0.120999	 0.742454	 -0.552188	 0.359456	 1
1463624142.729	 9	 -0.153487	 -0.492448	 0.557076	 1.761947	 -0.816559	 -1.010684	 0.121638	 0.741788	 -0.550737	 0.362826	 1
1463624142.739	 9	 -0.044163	 -0.772063	 0.470393	 1.754745	 -0.811612	 -1.010986	 0.121401	 0.740415	 -0.550001	 0.366805	 1
1463624142.749	 9	 -0.026190	 -0.964168	 0.387451	 1.744863	 -0.807569	 -1.011800	 0.120323	 0.738500	 -0.549748	 0.371373	 1
1463624142.759	 9	 -0.242970	 -0.979613	 0.370011	 1.736214	 -0.803652	 -1.010179	 0.118649	 0.736931	 -0.548997	 0.376108	 1
1463624142.769	 9	 -0.481702	 -0.953037	 0.418164	 1.730327	 -0.798953	 -1.005024	 0.116701	 0.736056	 -0.547210	 0.381004	 1
1463624142.779	 9	 -0.548526	 -0.889887	 0.445978	 1.726036	 -0.793739	 -0.998311	 0.114798	 0.735547	 -0.544883	 0.385869	 1
1463624142.789	 9	 -0.379375	 -0.727012	 0.387404	 1.722038	 -0.789032	 -0.993054	 0.113349	 0.735001	 -0.542925	 0.390075	 1
1463624142.799	 9	 -0.064011	 -0.526584	 0.286341	 1.717203	 -0.785764	 -0.991643	 0.112611	 0.734083	 -0.542111	 0.393137	 1
1463624142.809	 9	 0.280325	 -0.172168	 0.311154	 1.712111	 -0.783132	 -0.994994	 0.113340	 0.732846	 -0.542407	 0.394823	 1
1463624142.819	 9	 0.545872	 0.303903	 0.506175	 1.708604	 -0.779364	 -1.002685	 0.116467	 0.731639	 -0.543199	 0.395063	 1
1463624142.829	 9	 0.657745	 0.564421	 0.688804	 1.706747	 -0.773784	 -1.012746	 0.121511	 0.730552	 -0.543926	 0.394555	 1
1463624142.839	 9	 0.684237	 0.515498	 0.699842	 1.704728	 -0.767655	 -1.023502	 0.126941	 0.729333	 -0.544673	 0.394069	 1
1463624142.849	 9	 0.581698	 0.072033	 0.666767	 1.700107	 -0.761935	 -1.033201	 0.131132	 0.727635	 -0.545493	 0.394702	 1
1463624142.859	 9	 0.341293	 -0.594064	 1.117742	 1.690849	 -0.752664	 -1.040465	 0.134357	 0.725020	 -0.545304	 0.398669	 1
1463624142.869	 9	 0.176319	 -1.309501	 1.542023	 1.676165	 -0.738491	 -1.045485	 0.136945	 0.721203	 -0.543900	 0.406554	 1
1463624142.879	 9	 0.137207	 -1.816632	 1.701772	 1.656614	 -0.721888	 -1.049484	 0.138687	 0.716193	 -0.542097	 0.417090	 1
1463624142.889	 9	 0.060467	 -2.638052	 1.627654	 1.630599	 -0.705481	 -1.052294	 0.138228	 0.709679	 -0.540602	 0.430115	 1
1463624142.899	 9	 -0.166473	 -3.327783	 1.465479	 1.599124	 -0.690330	 -1.051782	 0.134747	 0.701970	 -0.539089	 0.445493	 1
1463624142.909	 9	 -0.379699	 -3.523632	 1.212926	 1.566415	 -0.677613	 -1.047814	 0.128963	 0.694019	 -0.537409	 0.461409	 1
1463624142.919	 9	 -0.379142	 -3.371659	 0.903132	 1.535601	 -0.667929	 -1.042498	 0.122247	 0.686471	 -0.535895	 0.476056	 1
1463624142.929	 9	 -0.100765	 -3.330402	 0.545128	 1.503953	 -0.661697	 -1.039854	 0.115066	 0.678536	 -0.535741	 0.489213	 1
1463624142.939	 9	 0.203133	 -3.659170	 0.066224	 1.467516	 -0.659595	 -1.041342	 0.106539	 0.669264	 -0.537670	 0.501644	 1
1463624142.949	 9	 0.319322	 -3.954494	 -0.423524	 1.425832	 -0.662377	 -1.045667	 0.095725	 0.658697	 -0.541462	 0.513589	 1
1463624142.959	 9	 0.161985	 -3.981243	 -0.508730	 1.383200	 -0.667213	 -1.049792	 0.083722	 0.647873	 -0.545423	 0.525134	 1
1463624142.969	 9	 -0.348062	 -4.050294	 -0.410079	 1.343866	 -0.671890	 -1.048414	 0.070805	 0.637922	 -0.547483	 0.536941	 1
1463624142.979	 9	 -0.965653	 -4.271322	 -0.338549	 1.307523	 -0.677158	 -1.039396	 0.056037	 0.628847	 -0.547169	 0.549561	 1
1463624142.989	 9	 -1.521774	 -4.767297	 -0.315937	 1.271591	 -0.683553	 -1.023215	 0.038764	 0.619861	 -0.544673	 0.563561	 1
1463624142.999	 9	 -1.737607	 -5.466816	 -0.356803	 1.231565	 -0.692181	 -1.003350	 0.018501	 0.609564	 -0.541079	 0.579071	 1
1463624143.009	 9	 -1.438382	 -6.240247	 -0.408170	 1.181448	 -0.701360	 -0.986771	 -0.003562	 0.595812	 -0.537928	 0.596346	 1
1463624143.019	 9	 -1.447056	 -6.102674	 -0.067902	 1.129696	 -0.708795	 -0.970811	 -0.025035	 0.580793	 -0.533905	 0.614002	 1
1463624143.029	 9	 -1.758677	 -5.369931	 0.673809	 1.089006	 -0.711996	 -0.948108	 -0.043612	 0.568067	 -0.526623	 0.630925	 1
1463624143.039	 9	 -1.893660	 -4.871507	 1.295632	 1.058201	 -0.710795	 -0.919061	 -0.059338	 0.557351	 -0.516370	 0.647457	 1
1463624143.049	 9	 -1.811088	 -4.437084	 1.686893	 1.033243	 -0.706163	 -0.887482	 -0.072565	 0.547669	 -0.504524	 0.663513	 1
1463624143.059	 9	 -1.652141	 -3.929909	 1.874606	 1.013062	 -0.699280	 -0.856022	 -0.083342	 0.539008	 -0.492184	 0.678439	 1
1463624143.069	 9	 -1.515057	 -3.435213	 1.946224	 0.997019	 -0.691284	 -0.825512	 -0.092131	 0.531427	 -0.479861	 0.691976	 1
1463624143.079	 9	 -1.434101	 -3.051172	 1.989592	 0.984467	 -0.682689	 -0.795819	 -0.099402	 0.524852	 -0.467630	 0.704253	 1
1463624143.089	 9	 -1.404298	 -2.716414	 2.109681	 0.975196	 -0.673356	 -0.765952	 -0.105468	 0.519228	 -0.455159	 0.715618	 1
1463624143.099	 9	 -1.342376	 -2.411088	 2.291031	 0.969175	 -0.662502	 -0.735507	 -0.110165	 0.514528	 -0.442207	 0.726345	 1
1463624143.109	 9	 -1.195225	 -2.157943	 2.497798	 0.965585	 -0.649395	 -0.705158	 -0.113238	 0.510502	 -0.428865	 0.736640	 1
1463624143.119	 9	 -1.033479	 -1.995100	 2.724912	 0.963137	 -0.633577	 -0.675196	 -0.114725	 0.506726	 -0.415085	 0.746841	 1
1463624143.129	 9	 -0.918016	 -1.670617	 2.929421	 0.962930	 -0.615341	 -0.645373	 -0.114605	 0.503672	 -0.400867	 0.756628	 1
1463624143.139	 9	 -0.791440	 -1.213555	 3.087108	 0.966383	 -0.594971	 -0.615961	 -0.112695	 0.501982	 -0.386417	 0.765504	 1
1463624143.149	 9	 -0.623738	 -0.797577	 3.169450	 0.972842	 -0.572765	 -0.588012	 -0.109055	 0.501550	 -0.372128	 0.773353	 1
1463624143.159	 9	 -0.489369	 -0.508500	 3.339361	 0.981364	 -0.548430	 -0.561226	 -0.103871	 0.502024	 -0.357755	 0.780509	 1
1463624143.169	 9	 -0.414824	 -0.343790	 3.641855	 0.991337	 -0.521122	 -0.534231	 -0.097279	 0.503083	 -0.342532	 0.787474	 1
1463624143.179	 9	 -0.376649	 -0.287742	 4.052363	 1.002042	 -0.490110	 -0.506049	 -0.089368	 0.504403	 -0.325826	 0.794624	 1
1463624143.189	 9	 -0.311451	 -0.395482	 4.474966	 1.011841	 -0.454912	 -0.476658	 -0.080216	 0.505352	 -0.307378	 0.802311	 1
1463624143.199	 9	 -0.173818	 -0.604731	 4.715880	 1.018663	 -0.416335	 -0.447522	 -0.070076	 0.505212	 -0.287808	 0.810566	 1
1463624143.209	 9	 -0.023149	 -0.812376	 4.743544	 1.021629	 -0.376206	 -0.420051	 -0.059413	 0.503720	 -0.268074	 0.819068	 1
1463624143.219	 9	 0.179489	 -0.960653	 4.618902	 1.021023	 -0.335838	 -0.395201	 -0.048407	 0.501003	 -0.248951	 0.827451	 1
1463624143.229	 9	 0.535741	 -1.048323	 4.407161	 1.017190	 -0.295554	 -0.374515	 -0.036690	 0.497165	 -0.231275	 0.835460	 1
1463624143.239	 9	 1.023327	 -1.147847	 4.227204	 1.010196	 -0.254603	 -0.358989	 -0.023628	 0.492102	 -0.215421	 0.843132	 1
1463624143.249	 9	 1.528639	 -1.194569	 4.148832	 1.000803	 -0.211937	 -0.348257	 -0.008743	 0.485950	 -0.201134	 0.850483	 1
1463624143.259	 9	 1.969506	 -1.163994	 4.143147	 0.990384	 -0.167046	 -0.341234	 0.008064	 0.479132	 -0.187943	 0.857348	 1
1463624143.269	 9	 2.321930	 -1.149795	 4.190301	 0.979528	 -0.119892	 -0.336772	 0.026577	 0.471791	 -0.175408	 0.863677	 1
1463624143.279	 9	 2.679347	 -0.969792	 4.222969	 0.969561	 -0.070452	 -0.334466	 0.046796	 0.464415	 -0.163367	 0.869161	 1
1463624143.289	 9	 3.029187	 -0.780471	 4.217422	 0.961284	 -0.019014	 -0.334691	 0.068696	 0.457273	 -0.152021	 0.873540	 1
1463624143.299	 9	 3.258518	 -0.619123	 4.265951	 0.954727	 0.034210	 -0.336507	 0.091904	 0.450341	 -0.140971	 0.876855	 1
1463624143.309	 9	 3.352022	 -0.545436	 4.344689	 0.949304	 0.088797	 -0.338583	 0.115839	 0.443400	 -0.129716	 0.879290	 1
1463624143.319	 9	 3.332263	 -0.671862	 4.356474	 0.943229	 0.143704	 -0.340246	 0.139751	 0.435783	 -0.118288	 0.881232	 1
1463624143.329	 9	 3.204610	 -0.975155	 4.282291	 0.934436	 0.197593	 -0.340986	 0.162834	 0.426768	 -0.106963	 0.883127	 1
1463624143.339	 9	 3.014573	 -1.312895	 4.126267	 0.922043	 0.249321	 -0.340543	 0.184543	 0.416158	 -0.096068	 0.885171	 1
1463624143.349	 9	 2.807286	 -1.647740	 3.922461	 0.905946	 0.298256	 -0.338859	 0.204655	 0.404060	 -0.085840	 0.887402	 1
1463624143.359	 9	 2.621472	 -1.944450	 3.706034	 0.886326	 0.344259	 -0.336054	 0.223207	 0.390635	 -0.076439	 0.889798	 1
1463624143.369	 9	 2.499035	 -2.163616	 3.501500	 0.863874	 0.387700	 -0.332455	 0.240505	 0.376180	 -0.067919	 0.892207	 1
1463624143.379	 9	 2.434902	 -2.256239	 3.316820	 0.839859	 0.429118	 -0.328410	 0.256920	 0.361208	 -0.060205	 0.894369	 1
1463624143.389	 9	 2.428105	 -2.209482	 3.161713	 0.815773	 0.469080	 -0.324239	 0.272807	 0.346317	 -0.053136	 0.896001	 1
1463624143.399	 9	 2.463431	 -2.097611	 3.055870	 0.792522	 0.508268	 -0.320048	 0.288489	 0.331846	 -0.046477	 0.896935	 1
1463624143.409	 9	 2.522674	 -1.931232	 2.996154	 0.770627	 0.547252	 -0.315779	 0.304195	 0.317993	 -0.039985	 0.897077	 1
1463624143.419	 9	 2.573513	 -1.759316	 2.963205	 0.750164	 0.586047	 -0.311202	 0.319874	 0.304844	 -0.033512	 0.896453	 1
1463624143.429	 9	 2.595508	 -1.591592	 2.927268	 0.731070	 0.624251	 -0.306183	 0.335315	 0.292465	 -0.027056	 0.895151	 1
1463624143.439	 9	 2.578911	 -1.447269	 2.875464	 0.712965	 0.662100	 -0.300526	 0.350574	 0.280714	 -0.020516	 0.893240	 1
1463624143.449	 9	 2.524707	 -1.343369	 2.807626	 0.695253	 0.699476	 -0.294024	 0.365562	 0.269402	 -0.013913	 0.890839	 1
1463624143.459	 9	 2.442496	 -1.275712	 2.717316	 0.677493	 0.735915	 -0.286625	 0.380074	 0.258428	 -0.007381	 0.888090	 1
1463624143.469	 9	 2.346113	 -1.262410	 2.604158	 0.659250	 0.770839	 -0.278416	 0.393887	 0.247683	 -0.001145	 0.885158	 1
1463624143.479	 9	 2.253669	 -1.299204	 2.479926	 0.640152	 0.804151	 -0.269608	 0.406998	 0.236998	 0.004614	 0.882136	 1
1463624143.489	 9	 2.160946	 -1.395555	 2.356209	 0.619577	 0.835862	 -0.260173	 0.419427	 0.226121	 0.009775	 0.879122	 1
1463624143.499	 9	 2.073097	 -1.562356	 2.199820	 0.597105	 0.865859	 -0.250442	 0.431180	 0.214830	 0.014077	 0.876204	 1
1463624143.509	 9	 1.992208	 -1.801810	 2.001130	 0.572463	 0.893962	 -0.241012	 0.442259	 0.202907	 0.017161	 0.873465	 1
1463624143.519	 9	 1.914292	 -2.077538	 1.788222	 0.545543	 0.920126	 -0.232338	 0.452686	 0.190203	 0.018793	 0.870945	 1
1463624143.529	 9	 1.814400	 -2.276492	 1.593271	 0.516721	 0.944307	 -0.224256	 0.462410	 0.176913	 0.019127	 0.868627	 1
1463624143.539	 9	 1.703537	 -2.332716	 1.422126	 0.487066	 0.966526	 -0.216459	 0.471385	 0.163558	 0.018566	 0.866430	 1
1463624143.549	 9	 1.591370	 -2.223982	 1.264250	 0.458219	 0.986871	 -0.208903	 0.479618	 0.150835	 0.017561	 0.864238	 1
1463624143.559	 9	 1.503191	 -2.019487	 1.120911	 0.431477	 1.005588	 -0.201761	 0.487203	 0.139217	 0.016430	 0.861964	 1
1463624143.569	 9	 1.443006	 -1.767172	 0.983102	 0.407783	 1.023027	 -0.195407	 0.494296	 0.128963	 0.015341	 0.859538	 1
1463624143.579	 9	 1.391405	 -1.521125	 0.864344	 0.387318	 1.039427	 -0.189984	 0.500994	 0.120062	 0.014360	 0.856962	 1
1463624143.589	 9	 1.313123	 -1.301366	 0.776481	 0.369496	 1.054771	 -0.185042	 0.507261	 0.112354	 0.013579	 0.854329	 1
1463624143.599	 9	 1.208080	 -1.122802	 0.717243	 0.353438	 1.068905	 -0.179983	 0.513004	 0.105608	 0.013052	 0.851765	 1
1463624143.609	 9	 1.100757	 -0.979293	 0.663027	 0.338564	 1.081806	 -0.174611	 0.518210	 0.099618	 0.012740	 0.849336	 1
1463624143.619	 9	 1.007188	 -0.841315	 0.585194	 0.325315	 1.093497	 -0.169525	 0.522919	 0.094401	 0.012528	 0.847046	 1
1463624143.629	 9	 0.944336	 -0.748134	 0.502413	 0.313776	 1.104238	 -0.165205	 0.527260	 0.089832	 0.012284	 0.844852	 1
1463624143.639	 9	 0.878344	 -0.635851	 0.412377	 0.304262	 1.114095	 -0.162010	 0.531271	 0.085927	 0.011966	 0.842748	 1
1463624143.649	 9	 0.792059	 -0.529867	 0.325656	 0.296880	 1.122903	 -0.159957	 0.534879	 0.082722	 0.011605	 0.840789	 1
1463624143.659	 9	 0.686313	 -0.504424	 0.271394	 0.290502	 1.130554	 -0.158480	 0.538021	 0.079888	 0.011148	 0.839063	 1
1463624143.669	 9	 0.561162	 -0.559423	 0.263445	 0.283295	 1.136995	 -0.156512	 0.540644	 0.076939	 0.010551	 0.837659	 1
1463624143.679	 9	 0.414669	 -0.640718	 0.287411	 0.273958	 1.142110	 -0.153054	 0.542673	 0.073612	 0.009873	 0.836654	 1
1463624143.689	 9	 0.262902	 -0.713448	 0.316831	 0.262185	 1.145819	 -0.147772	 0.544070	 0.069874	 0.009166	 0.836075	 1
1463624143.699	 9	 0.138931	 -0.766137	 0.334473	 0.248486	 1.148277	 -0.141026	 0.544917	 0.065826	 0.008435	 0.835860	 1
1463624143.709	 9	 0.059964	 -0.770117	 0.340452	 0.233798	 1.149821	 -0.133396	 0.545372	 0.061672	 0.007727	 0.835887	 1
1463624143.719	 9	 0.032373	 -0.723356	 0.324075	 0.219418	 1.150924	 -0.125729	 0.545653	 0.057689	 0.007081	 0.835993	 1
1463624143.729	 9	 0.045481	 -0.633215	 0.292827	 0.206429	 1.151946	 -0.118706	 0.545924	 0.054121	 0.006534	 0.836059	 1
1463624143.739	 9	 0.091687	 -0.531541	 0.251806	 0.195448	 1.153231	 -0.112771	 0.546336	 0.051085	 0.006090	 0.835985	 1
1463624143.749	 9	 0.151661	 -0.456463	 0.215746	 0.186327	 1.154998	 -0.107972	 0.546976	 0.048498	 0.005700	 0.835723	 1
1463624143.759	 9	 0.189123	 -0.407862	 0.186031	 0.178578	 1.157133	 -0.104082	 0.547792	 0.046225	 0.005316	 0.835319	 1
1463624143.769	 9	 0.189117	 -0.382566	 0.154294	 0.171777	 1.159312	 -0.100896	 0.548642	 0.044160	 0.004892	 0.834876	 1
1463624143.779	 9	 0.151734	 -0.354044	 0.112254	 0.166000	 1.161110	 -0.098531	 0.549350	 0.042320	 0.004382	 0.834508	 1
1463624143.789	 9	 0.120634	 -0.358446	 0.079445	 0.160998	 1.162497	 -0.096933	 0.549903	 0.040613	 0.003739	 0.834232	 1
1463624143.799	 9	 0.113947	 -0.419048	 0.080005	 0.155616	 1.163746	 -0.095444	 0.550401	 0.038726	 0.002938	 0.833997	 1
1463624143.809	 9	 0.106277	 -0.503748	 0.130441	 0.148550	 1.164995	 -0.093009	 0.550882	 0.036399	 0.002063	 0.833786	 1
1463624143.819	 9	 0.080680	 -0.570080	 0.213176	 0.138871	 1.166132	 -0.088508	 0.551284	 0.033561	 0.001321	 0.833642	 1
1463624143.829	 9	 0.058346	 -0.609946	 0.280142	 0.126905	 1.167119	 -0.082040	 0.551596	 0.030321	 0.000756	 0.833559	 1
1463624143.839	 9	 0.051027	 -0.602269	 0.309053	 0.113869	 1.167996	 -0.074490	 0.551856	 0.026942	 0.000338	 0.833504	 1
1463624143.849	 9	 0.062009	 -0.517378	 0.286300	 0.101701	 1.168886	 -0.067170	 0.552134	 0.023865	 0.000059	 0.833413	 1
1463624143.859	 9	 0.102972	 -0.382831	 0.229645	 0.091947	 1.170025	 -0.061128	 0.552540	 0.021439	 -0.000085	 0.833211	 1
1463624143.869	 9	 0.177056	 -0.212457	 0.139995	 0.085842	 1.171731	 -0.057283	 0.553209	 0.019918	 -0.000125	 0.832804	 1
1463624143.879	 9	 0.262780	 -0.049681	 0.034187	 0.084004	 1.174203	 -0.056241	 0.554226	 0.019383	 -0.000137	 0.832141	 1
1463624143.889	 9	 0.294833	 0.042036	 -0.065420	 0.085849	 1.177073	 -0.057973	 0.555434	 0.019602	 -0.000272	 0.831329	 1
1463624143.899	 9	 0.259351	 0.037439	 -0.126968	 0.089617	 1.179679	 -0.061570	 0.556552	 0.020104	 -0.000650	 0.830569	 1
1463624143.909	 9	 0.182112	 -0.042152	 -0.133431	 0.093156	 1.181577	 -0.065605	 0.557381	 0.020400	 -0.001287	 0.830005	 1
1463624143.919	 9	 0.092230	 -0.121412	 -0.099282	 0.095036	 1.182605	 -0.068761	 0.557840	 0.020272	 -0.002042	 0.829698	 1
1463624143.929	 9	 0.022878	 -0.140165	 -0.073274	 0.095646	 1.182911	 -0.070929	 0.557989	 0.019912	 -0.002762	 0.829605	 1
1463624143.939	 9	 -0.017514	 -0.127102	 -0.048288	 0.095652	 1.182763	 -0.072360	 0.557942	 0.019519	 -0.003359	 0.829643	 1
1463624143.949	 9	 0.005147	 -0.097170	 -0.019429	 0.097604	 1.185049	 -0.075244	 0.558920	 0.019458	 -0.003941	 0.828984	 1
1463624143.959	 9	 0.083415	 -0.033468	 -0.003531	 0.097396	 1.185654	 -0.075581	 0.559172	 0.019260	 -0.004120	 0.828817	 1
1463624143.969	 9	 0.175466	 0.019487	 0.002555	 0.097797	 1.187184	 -0.075923	 0.559809	 0.019285	 -0.004102	 0.828387	 1
1463624143.979	 9	 0.237427	 0.040513	 -0.006315	 0.098791	 1.189405	 -0.076592	 0.560735	 0.019444	 -0.004032	 0.827757	 1
1463624143.989	 9	 0.276850	 0.050846	 -0.033209	 0.104003	 1.193545	 -0.081181	 0.562499	 0.020185	 -0.004333	 0.826540	 1
1463624143.999	 9	 0.248293	 0.157899	 -0.095910	 0.107876	 1.196082	 -0.083983	 0.563580	 0.020915	 -0.004316	 0.825785	 1
1463624144.009	 9	 0.147585	 0.142727	 -0.176175	 0.117235	 1.198770	 -0.091856	 0.564793	 0.022465	 -0.004829	 0.824913	 1
1463624144.019	 9	 -0.004592	 0.045015	 -0.219464	 0.128687	 1.199674	 -0.102660	 0.565321	 0.024101	 -0.006014	 0.824497	 1
1463624144.029	 9	 -0.155493	 -0.017520	 -0.251779	 0.140758	 1.199503	 -0.114767	 0.565442	 0.025661	 -0.007599	 0.824354	 1
1463624144.039	 9	 -0.261247	 -0.028978	 -0.262695	 0.152644	 1.198603	 -0.126923	 0.565284	 0.027165	 -0.009292	 0.824396	 1
1463624144.049	 9	 -0.297296	 0.000045	 -0.236541	 0.163820	 1.196622	 -0.138144	 0.564687	 0.028701	 -0.010863	 0.824735	 1
