% Gyrometer data recorded with 'snsrlog'
% 
% 
% Label description:
% 	 0: Default Label
% 	 1: still_drop
% 	 2: walk_drop
% 	 3: other
% 	 4: dtw_same
% 	 5: dtw_diff
% 	 6: delete
% 	 7: steal
% 
% Column description:
% 	 1: Seconds.milliseconds since 1970
% 	 2: Number of skipped measurements
% 	 3: Gyro X
% 	 4: Gyro Y
% 	 5: Gyro Z
% 	 6: Roll of the device
% 	 7: Pitch of the device
% 	 8: Yaw of the device
% 	 9: Quaternion X
% 	 10: Quaternion Y
% 	 11: Quaternion Z
% 	 12: Quaternion W
% 	 13: Label used for the current sample
% 
% 
1463629037.184	 0	 -0.528952	 1.546648	 -1.717757	 0.225001	 0.139667	 -0.112912	 0.075544	 0.107899	 -0.048112	 0.990119	 2
1463629037.194	 0	 -0.825628	 2.250343	 -1.748059	 0.248013	 0.128222	 -0.128123	 0.071347	 0.119111	 -0.055487	 0.988758	 2
1463629037.204	 0	 -0.989452	 2.687102	 -1.867262	 0.275676	 0.114241	 -0.143443	 0.066233	 0.132773	 -0.063041	 0.986920	 2
1463629037.214	 0	 -1.026474	 2.929287	 -2.072510	 0.306401	 0.098615	 -0.159950	 0.060731	 0.148038	 -0.071361	 0.984532	 2
1463629037.224	 0	 -0.930233	 2.793502	 -2.131097	 0.336457	 0.082748	 -0.177203	 0.055421	 0.163029	 -0.080263	 0.981788	 2
1463629037.234	 0	 -0.708172	 2.452586	 -1.972075	 0.363061	 0.068593	 -0.193606	 0.051007	 0.176324	 -0.088846	 0.978986	 2
1463629037.244	 0	 -0.413465	 2.278037	 -1.722614	 0.387050	 0.057488	 -0.208466	 0.048052	 0.188262	 -0.096562	 0.976178	 2
1463629037.254	 0	 -0.111253	 2.288948	 -1.416073	 0.410527	 0.049975	 -0.221571	 0.046838	 0.199808	 -0.103143	 0.973265	 2
1463629037.264	 0	 0.114116	 2.496040	 -1.075064	 0.435326	 0.045821	 -0.232423	 0.047250	 0.211842	 -0.108271	 0.970138	 2
1463629037.274	 0	 0.183711	 2.994512	 -0.803525	 0.464235	 0.043670	 -0.240996	 0.048739	 0.225762	 -0.111969	 0.966498	 2
1463629037.284	 0	 0.096915	 3.663038	 -0.612172	 0.499406	 0.041757	 -0.247413	 0.050560	 0.242678	 -0.114419	 0.962008	 2
1463629037.294	 0	 -0.105701	 4.277100	 -0.498118	 0.541019	 0.038770	 -0.251679	 0.052063	 0.262715	 -0.115782	 0.956486	 2
1463629037.304	 0	 -0.445922	 4.610463	 -0.573051	 0.586238	 0.032864	 -0.254368	 0.052248	 0.284572	 -0.116706	 0.950089	 2
1463629037.314	 0	 -0.758909	 5.395906	 -0.777236	 0.638100	 0.023102	 -0.256265	 0.050956	 0.309671	 -0.117732	 0.942150	 2
1463629037.324	 0	 -0.815631	 6.127254	 -1.150413	 0.697717	 0.010142	 -0.259412	 0.048937	 0.338333	 -0.119831	 0.932082	 2
1463629037.334	 0	 -0.588139	 6.628693	 -1.432287	 0.762987	 -0.003944	 -0.265260	 0.047420	 0.369279	 -0.123462	 0.919860	 2
1463629037.344	 0	 -0.240253	 6.620445	 -1.695438	 0.829436	 -0.017873	 -0.274243	 0.046973	 0.400252	 -0.128667	 0.906111	 2
1463629037.354	 0	 0.222330	 6.126126	 -2.058965	 0.892075	 -0.032061	 -0.287874	 0.047559	 0.428952	 -0.136234	 0.891728	 2
1463629037.364	 0	 0.284082	 5.168005	 -2.300754	 0.945452	 -0.048194	 -0.303922	 0.047699	 0.453185	 -0.145580	 0.878154	 2
1463629037.374	 0	 -0.116148	 4.312483	 -2.368110	 0.989933	 -0.067524	 -0.317397	 0.045692	 0.473460	 -0.154820	 0.865898	 2
1463629037.384	 0	 -0.774572	 3.395612	 -2.346397	 1.025667	 -0.090692	 -0.324825	 0.040277	 0.490081	 -0.162702	 0.855410	 2
1463629037.394	 0	 -1.263476	 2.409411	 -2.283108	 1.052044	 -0.116367	 -0.326492	 0.031843	 0.502757	 -0.169122	 0.847124	 2
1463629037.404	 0	 -1.493605	 1.555209	 -2.246422	 1.069807	 -0.143097	 -0.324809	 0.021520	 0.511708	 -0.174712	 0.840933	 2
1463629037.414	 0	 -1.528464	 0.978612	 -2.277063	 1.081261	 -0.170288	 -0.322057	 0.010251	 0.517868	 -0.180172	 0.836209	 2
1463629037.424	 0	 -1.407261	 0.739288	 -2.376263	 1.089388	 -0.197791	 -0.320188	 -0.001170	 0.522493	 -0.186181	 0.832068	 2
1463629037.434	 0	 -1.199438	 0.807778	 -2.527708	 1.097029	 -0.225657	 -0.320490	 -0.012173	 0.526796	 -0.193241	 0.827645	 2
1463629037.444	 0	 -0.972099	 1.173963	 -2.687210	 1.106981	 -0.253918	 -0.323372	 -0.022368	 0.531968	 -0.201535	 0.822127	 2
1463629037.454	 0	 -0.758508	 1.772234	 -2.822052	 1.121710	 -0.282535	 -0.328577	 -0.031495	 0.539021	 -0.210999	 0.814828	 2
1463629037.464	 0	 -0.527029	 2.517449	 -2.926906	 1.142789	 -0.311313	 -0.335908	 -0.039256	 0.548548	 -0.221572	 0.805270	 2
1463629037.474	 0	 -0.227786	 3.345683	 -2.996408	 1.171053	 -0.339826	 -0.345622	 -0.045171	 0.560800	 -0.233302	 0.793116	 2
1463629037.484	 0	 0.062193	 3.989142	 -3.029181	 1.205424	 -0.367906	 -0.357600	 -0.049167	 0.575229	 -0.246079	 0.778549	 2
1463629037.494	 0	 0.244794	 4.222744	 -3.009414	 1.242405	 -0.395574	 -0.370719	 -0.051879	 0.590340	 -0.259353	 0.762590	 2
1463629037.504	 0	 0.373640	 4.160696	 -3.006850	 1.278921	 -0.423131	 -0.384253	 -0.053991	 0.604896	 -0.272812	 0.746163	 2
1463629037.514	 0	 0.491676	 3.892972	 -3.063657	 1.312659	 -0.451189	 -0.398276	 -0.056054	 0.618054	 -0.286551	 0.729901	 2
1463629037.524	 0	 0.627398	 3.565318	 -3.163806	 1.342448	 -0.480219	 -0.413136	 -0.058357	 0.629454	 -0.300760	 0.714091	 2
1463629037.534	 0	 0.806963	 3.271441	 -3.282141	 1.368088	 -0.510367	 -0.429454	 -0.060849	 0.639112	 -0.315646	 0.698714	 2
1463629037.544	 0	 1.003652	 2.977604	 -3.387835	 1.389511	 -0.541541	 -0.447747	 -0.063398	 0.647095	 -0.331298	 0.683732	 2
1463629037.554	 0	 1.024081	 2.424726	 -3.498668	 1.405238	 -0.573950	 -0.466808	 -0.066803	 0.652947	 -0.347245	 0.669790	 2
1463629037.564	 0	 0.799276	 1.622157	 -3.526560	 1.414084	 -0.607377	 -0.483912	 -0.072215	 0.656282	 -0.362426	 0.657820	 2
1463629037.574	 0	 0.465431	 0.678263	 -3.433321	 1.415498	 -0.640732	 -0.497213	 -0.080097	 0.656952	 -0.375885	 0.648621	 2
1463629037.584	 0	 0.186654	 -0.211900	 -3.242011	 1.409619	 -0.672887	 -0.506843	 -0.090111	 0.655080	 -0.387330	 0.642437	 2
1463629037.594	 0	 0.073578	 -0.871260	 -2.983918	 1.397498	 -0.702829	 -0.514543	 -0.101211	 0.651131	 -0.397047	 0.638857	 2
1463629037.604	 0	 0.124094	 -1.259694	 -2.700217	 1.380478	 -0.729891	 -0.522494	 -0.112239	 0.645688	 -0.405580	 0.637177	 2
1463629037.614	 0	 0.309018	 -1.389387	 -2.469632	 1.359851	 -0.754092	 -0.532711	 -0.122336	 0.639316	 -0.413627	 0.636571	 2
1463629037.624	 0	 0.571469	 -1.299772	 -2.326139	 1.336784	 -0.775960	 -0.546731	 -0.131013	 0.632521	 -0.421880	 0.636215	 2
1463629037.634	 0	 0.857047	 -0.992751	 -2.260757	 1.312787	 -0.796089	 -0.565334	 -0.137977	 0.625876	 -0.430845	 0.635307	 2
1463629037.644	 0	 1.146566	 -0.490373	 -2.241551	 1.289510	 -0.814860	 -0.588921	 -0.142924	 0.619970	 -0.440870	 0.633122	 2
1463629037.654	 0	 1.441085	 0.140912	 -2.191348	 1.268297	 -0.832074	 -0.617543	 -0.145475	 0.615256	 -0.452048	 0.629245	 2
1463629037.664	 0	 1.719910	 0.734849	 -2.017727	 1.249648	 -0.846696	 -0.650590	 -0.145283	 0.611831	 -0.464030	 0.623884	 2
1463629037.674	 0	 1.947168	 1.144835	 -1.711082	 1.233076	 -0.857534	 -0.686626	 -0.142396	 0.609365	 -0.476138	 0.617811	 2
1463629037.684	 0	 2.107606	 1.353470	 -1.330061	 1.217888	 -0.863953	 -0.723963	 -0.137204	 0.607407	 -0.487750	 0.611826	 2
1463629037.694	 0	 2.160535	 1.404918	 -0.961289	 1.203836	 -0.866190	 -0.760793	 -0.130374	 0.605645	 -0.498427	 0.606439	 2
1463629037.704	 0	 2.080451	 1.360607	 -0.650867	 1.191429	 -0.865245	 -0.795150	 -0.122735	 0.604040	 -0.507858	 0.601791	 2
1463629037.714	 0	 1.910057	 1.234152	 -0.410764	 1.180857	 -0.862220	 -0.825779	 -0.115015	 0.602566	 -0.515918	 0.597926	 2
1463629037.724	 0	 1.700798	 1.072202	 -0.240993	 1.171915	 -0.858078	 -0.852224	 -0.107752	 0.601172	 -0.522644	 0.594832	 2
1463629037.734	 0	 1.561105	 0.987390	 -0.112674	 1.164467	 -0.853165	 -0.875364	 -0.100833	 0.599898	 -0.528360	 0.592276	 2
1463629037.744	 0	 1.535936	 1.014630	 -0.033335	 1.158180	 -0.847514	 -0.897020	 -0.093794	 0.598748	 -0.533597	 0.589896	 2
1463629037.754	 0	 1.606605	 1.227688	 0.041570	 1.153584	 -0.840940	 -0.918699	 -0.085960	 0.597930	 -0.538792	 0.587192	 2
1463629037.774	 1	 1.914553	 1.972724	 0.382602	 1.153276	 -0.822205	 -0.964784	 -0.064925	 0.598158	 -0.549499	 0.579691	 2
1463629037.784	 1	 1.948182	 2.278024	 0.695287	 1.158985	 -0.808733	 -0.987240	 -0.051368	 0.599321	 -0.554214	 0.575346	 2
1463629037.794	 1	 1.825829	 2.507538	 1.054453	 1.169807	 -0.792514	 -1.006347	 -0.036315	 0.601385	 -0.557582	 0.571068	 2
1463629037.804	 1	 1.640981	 2.634917	 1.384436	 1.185339	 -0.773971	 -1.021323	 -0.020279	 0.604275	 -0.559332	 0.567088	 2
1463629037.814	 1	 1.402165	 2.689640	 1.647071	 1.204645	 -0.753829	 -1.032141	 -0.003834	 0.607842	 -0.559450	 0.563497	 2
1463629037.824	 1	 1.116563	 2.647968	 1.798377	 1.226687	 -0.733094	 -1.038954	 0.012356	 0.611964	 -0.558054	 0.560288	 2
1463629037.834	 1	 0.497907	 2.143628	 1.669047	 1.249061	 -0.714462	 -1.040209	 0.026078	 0.616343	 -0.555137	 0.557910	 2
1463629037.844	 1	 -0.632501	 1.137258	 1.185669	 1.269165	 -0.703003	 -1.030558	 0.033002	 0.620959	 -0.550195	 0.557321	 2
1463629037.854	 1	 -1.265142	 0.565441	 0.839483	 1.287464	 -0.697739	 -1.012568	 0.034394	 0.625864	 -0.543939	 0.557891	 2
1463629037.864	 1	 -1.017981	 0.585924	 0.977137	 1.304028	 -0.692015	 -0.995270	 0.035605	 0.630274	 -0.537770	 0.558830	 2
1463629037.874	 1	 -0.401756	 0.904916	 1.505582	 1.321051	 -0.678884	 -0.982738	 0.041146	 0.634136	 -0.531446	 0.560128	 2
1463629037.884	 1	 0.175566	 1.297086	 1.996175	 1.345039	 -0.649414	 -0.972233	 0.055182	 0.638605	 -0.522088	 0.562640	 2
1463629037.894	 1	 0.358111	 1.535611	 2.254780	 1.361812	 -0.626141	 -0.969886	 0.067470	 0.641399	 -0.516120	 0.563626	 2
1463629037.904	 1	 0.312547	 1.636511	 2.216682	 1.378863	 -0.603518	 -0.968407	 0.079766	 0.644289	 -0.510273	 0.564048	 2
1463629037.924	 2	 0.267176	 1.719122	 1.710543	 1.413940	 -0.564696	 -0.966342	 0.102230	 0.650821	 -0.499507	 0.562560	 2
1463629037.934	 2	 0.342131	 1.592111	 1.386848	 1.429675	 -0.549753	 -0.967576	 0.111989	 0.653830	 -0.495585	 0.560678	 2
1463629037.944	 2	 0.490100	 1.419301	 1.230482	 1.442602	 -0.536661	 -0.970731	 0.120957	 0.656075	 -0.492660	 0.558768	 2
1463629037.954	 2	 0.714500	 1.359244	 1.106473	 1.453278	 -0.524558	 -0.976752	 0.129918	 0.657556	 -0.490807	 0.556642	 2
1463629037.964	 2	 0.780213	 1.304451	 1.057431	 1.462758	 -0.513129	 -0.984217	 0.138791	 0.658609	 -0.489512	 0.554390	 2
1463629037.974	 2	 0.734859	 1.178133	 1.073703	 1.471399	 -0.501728	 -0.991535	 0.147378	 0.659377	 -0.488170	 0.552442	 2
1463629037.984	 2	 0.551464	 1.065982	 1.101278	 1.479546	 -0.490297	 -0.997185	 0.155280	 0.660071	 -0.486332	 0.551068	 2
1463629037.994	 2	 0.326590	 1.038710	 1.209559	 1.488526	 -0.478235	 -1.000326	 0.162752	 0.661085	 -0.483520	 0.550171	 2
1463629038.004	 2	 0.133505	 0.980356	 1.298089	 1.498088	 -0.465320	 -1.001185	 0.169873	 0.662331	 -0.479750	 0.549818	 2
1463629038.014	 2	 -0.004612	 0.932486	 1.241295	 1.507835	 -0.452670	 -1.000528	 0.176403	 0.663770	 -0.475541	 0.549683	 2
1463629038.024	 2	 -0.138890	 0.673099	 1.058871	 1.516199	 -0.441809	 -0.998729	 0.181563	 0.665109	 -0.471530	 0.549841	 2
1463629038.034	 2	 -0.423848	 0.137667	 0.883716	 1.520798	 -0.432601	 -0.994345	 0.184376	 0.665822	 -0.467531	 0.551454	 2
1463629038.044	 2	 -0.666091	 -0.482028	 0.546475	 1.520581	 -0.426586	 -0.987271	 0.184054	 0.665790	 -0.464034	 0.554545	 2
1463629038.064	 3	 -0.964860	 -1.573395	 -0.028064	 1.502727	 -0.424020	 -0.968378	 0.174551	 0.662220	 -0.459677	 0.565414	 2
1463629038.074	 3	 -1.023690	 -1.909509	 -0.200136	 1.489233	 -0.426430	 -0.957365	 0.166970	 0.659570	 -0.458322	 0.571865	 2
1463629038.084	 3	 -1.009514	 -2.265076	 -0.238738	 1.471839	 -0.429689	 -0.946518	 0.158269	 0.655777	 -0.457452	 0.579349	 2
1463629038.094	 3	 -1.072121	 -2.265303	 -0.148671	 1.453599	 -0.432614	 -0.935290	 0.149389	 0.651617	 -0.456326	 0.587235	 2
1463629038.104	 3	 -1.259526	 -1.826725	 -0.026790	 1.439508	 -0.434651	 -0.922139	 0.141176	 0.648614	 -0.453979	 0.594367	 2
1463629038.114	 3	 -1.374600	 -0.924100	 0.020978	 1.434007	 -0.436352	 -0.907302	 0.134508	 0.648162	 -0.450361	 0.599140	 2
1463629038.124	 3	 -1.316718	 0.053025	 -0.001340	 1.438423	 -0.438059	 -0.892626	 0.130114	 0.650621	 -0.446100	 0.600631	 2
1463629038.134	 3	 -1.138184	 0.690704	 -0.142970	 1.449529	 -0.440555	 -0.879721	 0.127465	 0.655014	 -0.442153	 0.599342	 2
1463629038.144	 3	 -0.850434	 0.881080	 -0.467696	 1.462338	 -0.445438	 -0.869980	 0.125325	 0.659888	 -0.439698	 0.596245	 2
1463629038.154	 3	 -0.398493	 0.669106	 -0.621744	 1.471846	 -0.451893	 -0.864950	 0.123427	 0.663573	 -0.439298	 0.592835	 2
1463629038.164	 3	 0.030817	 0.496699	 -0.608969	 1.477162	 -0.458127	 -0.864832	 0.122318	 0.665665	 -0.440572	 0.589766	 2
1463629038.174	 3	 0.345274	 0.587752	 -0.539453	 1.480998	 -0.463410	 -0.868441	 0.122473	 0.667001	 -0.442785	 0.586559	 2
1463629038.184	 3	 0.598245	 1.021216	 -0.504584	 1.487061	 -0.468047	 -0.874906	 0.124318	 0.668748	 -0.445515	 0.582098	 2
1463629038.194	 3	 0.890094	 1.561903	 -0.481844	 1.497020	 -0.472236	 -0.884438	 0.128244	 0.671366	 -0.448744	 0.575717	 2
1463629038.204	 3	 1.146765	 2.141781	 -0.495735	 1.510947	 -0.476441	 -0.897142	 0.134165	 0.674851	 -0.452564	 0.567241	 2
1463629038.214	 3	 1.034530	 2.680112	 -0.374646	 1.531204	 -0.480073	 -0.909603	 0.141706	 0.679975	 -0.455627	 0.556738	 2
1463629038.224	 3	 0.649816	 2.552504	 -0.086860	 1.553448	 -0.481481	 -0.918116	 0.149194	 0.685605	 -0.456733	 0.546884	 2
1463629038.234	 3	 0.410724	 1.924983	 0.110812	 1.572138	 -0.480713	 -0.923203	 0.155477	 0.690233	 -0.456485	 0.539469	 2
1463629038.244	 3	 0.473388	 1.171863	 0.124573	 1.583403	 -0.479417	 -0.928157	 0.160207	 0.692767	 -0.456575	 0.534740	 2
1463629038.254	 3	 0.756006	 0.560668	 -0.001874	 1.586922	 -0.479192	 -0.935817	 0.163743	 0.693068	 -0.458271	 0.531821	 2
1463629038.264	 3	 1.059379	 0.059949	 -0.139198	 1.583574	 -0.480350	 -0.946904	 0.166414	 0.691355	 -0.461804	 0.530161	 2
1463629038.274	 3	 1.338740	 -0.226724	 -0.396884	 1.575336	 -0.483757	 -0.961225	 0.168272	 0.688254	 -0.467198	 0.528883	 2
1463629038.284	 3	 1.572896	 -0.589885	 -0.660216	 1.562490	 -0.489695	 -0.978380	 0.169094	 0.683917	 -0.474378	 0.527855	 2
1463629038.294	 3	 1.845951	 -1.365307	 -0.849923	 1.541289	 -0.497384	 -0.998698	 0.168276	 0.677288	 -0.483512	 0.528375	 2
1463629038.304	 3	 2.135241	 -1.916809	 -1.248708	 1.511572	 -0.507772	 -1.022829	 0.165512	 0.668390	 -0.494968	 0.529969	 2
1463629038.314	 3	 2.223583	 -1.942455	 -1.815636	 1.478543	 -0.522741	 -1.049777	 0.160915	 0.658936	 -0.508391	 0.530517	 2
1463629038.324	 3	 1.413039	 -0.336139	 -2.252975	 1.458638	 -0.542533	 -1.071928	 0.156071	 0.654000	 -0.520362	 0.526450	 2
1463629038.334	 3	 0.085124	 1.236041	 -2.326965	 1.464164	 -0.565171	 -1.079679	 0.152037	 0.657225	 -0.527018	 0.516907	 2
1463629038.344	 3	 -0.908778	 1.169739	 -2.338112	 1.479551	 -0.589031	 -1.074271	 0.145870	 0.663958	 -0.529787	 0.507156	 2
1463629038.354	 3	 -1.432524	 1.102273	 -2.466334	 1.498539	 -0.614242	 -1.060638	 0.137440	 0.672020	 -0.530643	 0.497913	 2
1463629038.364	 3	 -1.686220	 0.807743	 -2.849475	 1.518094	 -0.642584	 -1.042571	 0.126522	 0.680372	 -0.531275	 0.488705	 2
1463629038.374	 3	 -1.663027	 0.464963	 -3.320736	 1.535643	 -0.675335	 -1.023038	 0.112964	 0.688130	 -0.532924	 0.479279	 2
1463629038.384	 3	 -1.321520	 -0.097365	 -3.725406	 1.547776	 -0.712186	 -1.005499	 0.097162	 0.694153	 -0.536495	 0.469984	 2
1463629038.394	 3	 -0.679481	 -0.833205	 -4.027730	 1.547960	 -0.751927	 -0.995279	 0.079631	 0.696649	 -0.543046	 0.461995	 2
1463629038.404	 3	 -0.029804	 -1.097748	 -4.310816	 1.537941	 -0.794326	 -0.994347	 0.061533	 0.696207	 -0.552483	 0.454172	 2
1463629038.414	 3	 0.449143	 -0.853836	 -4.655891	 1.522943	 -0.839785	 -1.002028	 0.043814	 0.694343	 -0.564173	 0.444608	 2
1463629038.424	 3	 0.795255	 -0.395510	 -5.115042	 1.506745	 -0.888797	 -1.016852	 0.026766	 0.692178	 -0.577484	 0.432071	 2
1463629038.434	 3	 1.076602	 0.156346	 -5.611005	 1.496372	 -0.935114	 -1.033686	 0.012900	 0.691202	 -0.589866	 0.417291	 2
1463629038.444	 3	 1.276095	 0.704860	 -6.012628	 1.477201	 -0.993065	 -1.063917	 -0.003315	 0.688817	 -0.606160	 0.397605	 2
1463629038.454	 3	 1.437652	 1.225889	 -6.259641	 1.454689	 -1.053360	 -1.103175	 -0.018570	 0.686297	 -0.623032	 0.374811	 2
1463629038.464	 3	 1.618731	 1.844270	 -6.274647	 1.426560	 -1.113668	 -1.153815	 -0.032005	 0.683560	 -0.639998	 0.349462	 2
1463629038.474	 3	 1.872560	 2.594412	 -6.131327	 1.389586	 -1.171653	 -1.220892	 -0.042210	 0.680587	 -0.656967	 0.321580	 2
1463629038.484	 3	 2.162366	 3.283784	 -5.993150	 1.336418	 -1.226321	 -1.311396	 -0.049072	 0.677036	 -0.674004	 0.291432	 2
1463629038.494	 3	 2.512147	 3.837510	 -5.908979	 1.254047	 -1.276852	 -1.437113	 -0.053089	 0.672353	 -0.691284	 0.259325	 2
1463629038.504	 3	 2.887897	 4.263331	 -5.851803	 1.123945	 -1.321022	 -1.615307	 -0.054757	 0.666028	 -0.708873	 0.225625	 2
1463629038.514	 3	 2.716590	 5.410671	 -4.935868	 0.960738	 -1.352376	 -1.834976	 -0.051129	 0.659783	 -0.725035	 0.190776	 2
1463629038.524	 3	 2.776234	 5.317144	 -4.315918	 0.783189	 -1.368669	 -2.072127	 -0.043323	 0.653444	 -0.739164	 0.157386	 2
1463629038.534	 3	 2.969345	 3.950898	 -4.316458	 0.570850	 -1.372834	 -2.333252	 -0.038901	 0.644781	 -0.752600	 0.127815	 2
1463629038.544	 3	 3.009583	 1.984065	 -4.476857	 0.335380	 -1.365230	 -2.598699	 -0.042004	 0.633925	 -0.765259	 0.103695	 2
1463629038.554	 3	 2.973187	 0.320294	 -4.677465	 0.105526	 -1.346088	 -2.841321	 -0.052335	 0.621667	 -0.776973	 0.084286	 2
1463629038.564	 3	 2.666795	 -1.341637	 -4.879968	 -0.103234	 -1.318409	 -3.046402	 -0.069840	 0.609039	 -0.787029	 0.069124	 2
1463629038.574	 3	 2.026243	 -2.294904	 -4.883261	 -0.283908	 -1.287129	 3.071099	 -0.092174	 0.597634	 -0.794415	 0.056934	 2
1463629038.584	 3	 0.892275	 -2.613305	 -4.661067	 -0.440387	 -1.259184	 2.934592	 -0.116231	 0.589763	 -0.797819	 0.046429	 2
1463629038.594	 3	 -0.267014	 -2.074484	 -4.309178	 -0.577683	 -1.237543	 2.813623	 -0.138148	 0.586427	 -0.797343	 0.035528	 2
1463629038.604	 3	 -1.243049	 -0.869764	 -4.018766	 -0.698924	 -1.221283	 2.697662	 -0.155032	 0.587273	 -0.794096	 0.022048	 2
1463629038.614	 3	 -2.080151	 0.490984	 -3.863463	 -0.808221	 -1.208288	 2.579382	 -0.166003	 0.591574	 -0.788962	 0.004672	 2
1463629038.624	 3	 -2.727038	 1.825451	 -3.881649	 -0.909441	 -1.195804	 2.454909	 -0.171589	 0.598397	 -0.782422	 -0.017156	 2
1463629038.634	 3	 -3.023312	 3.001946	 -3.835083	 -0.998155	 -1.181488	 2.329924	 -0.172149	 0.606246	 -0.775232	 -0.042961	 2
1463629038.644	 3	 -2.823850	 3.848140	 -3.522006	 -1.065241	 -1.165327	 2.217545	 -0.168247	 0.613334	 -0.768466	 -0.070534	 2
1463629038.654	 3	 -2.297944	 4.301078	 -3.038515	 -1.105707	 -1.148640	 2.127240	 -0.160812	 0.618270	 -0.763114	 -0.097670	 2
1463629038.664	 3	 -1.774445	 4.160191	 -2.455017	 -1.125673	 -1.133579	 2.058782	 -0.151754	 0.621140	 -0.759099	 -0.122169	 2
1463629038.674	 3	 -1.349609	 3.641378	 -1.812363	 -1.133155	 -1.121879	 2.008611	 -0.142608	 0.622655	 -0.756082	 -0.142488	 2
1463629038.684	 3	 -1.082296	 2.937310	 -1.112510	 -1.134395	 -1.115012	 1.972504	 -0.133982	 0.623718	 -0.753724	 -0.157878	 2
1463629038.694	 3	 -0.932760	 2.153795	 -0.415568	 -1.133795	 -1.113779	 1.947042	 -0.126198	 0.625056	 -0.751760	 -0.168036	 2
1463629038.704	 3	 -0.736792	 1.533522	 0.223871	 -1.131429	 -1.117805	 1.931111	 -0.119037	 0.626696	 -0.750321	 -0.173495	 2
1463629038.714	 3	 0.140677	 1.281332	 0.855473	 -1.112674	 -1.124522	 1.936949	 -0.111675	 0.626168	 -0.751527	 -0.175072	 2
1463629038.724	 3	 0.187667	 0.831331	 0.861535	 -1.090117	 -1.131500	 1.951331	 -0.105463	 0.624941	 -0.753565	 -0.174546	 2
1463629038.734	 3	 -0.499956	 0.247065	 0.389952	 -1.086680	 -1.137548	 1.950837	 -0.102094	 0.626002	 -0.753289	 -0.173934	 2
1463629038.744	 3	 -1.352359	 -0.073002	 -0.236536	 -1.109656	 -1.142062	 1.925701	 -0.101391	 0.630261	 -0.749634	 -0.174757	 2
1463629038.754	 3	 -2.143157	 -0.258976	 -0.827142	 -1.156969	 -1.144094	 1.876048	 -0.102648	 0.637378	 -0.742734	 -0.177645	 2
1463629038.764	 3	 -2.792258	 -0.453345	 -1.198447	 -1.224126	 -1.143449	 1.806748	 -0.105390	 0.646903	 -0.733032	 -0.181861	 2
1463629038.774	 3	 -3.182325	 -0.540725	 -1.232100	 -1.302376	 -1.141006	 1.726499	 -0.108495	 0.658009	 -0.721483	 -0.186324	 2
1463629038.784	 3	 -3.244359	 -0.513549	 -1.029878	 -1.381802	 -1.137737	 1.644891	 -0.110951	 0.669530	 -0.709382	 -0.190256	 2
1463629038.794	 3	 -2.996587	 -0.260141	 -0.746185	 -1.453350	 -1.134347	 1.569775	 -0.111959	 0.680219	 -0.698032	 -0.193694	 2
1463629038.804	 3	 -2.612868	 0.127545	 -0.517845	 -1.511706	 -1.131050	 1.504972	 -0.111151	 0.689257	 -0.688218	 -0.197296	 2
1463629038.814	 3	 -2.276733	 0.447798	 -0.367519	 -1.558100	 -1.127881	 1.449542	 -0.108921	 0.696718	 -0.679865	 -0.201257	 2
1463629038.824	 3	 -2.043382	 0.724507	 -0.249742	 -1.595507	 -1.124974	 1.400855	 -0.105548	 0.702984	 -0.672604	 -0.205613	 2
1463629038.834	 3	 -1.901858	 0.980303	 -0.119637	 -1.626452	 -1.122649	 1.356331	 -0.101004	 0.708413	 -0.666101	 -0.210377	 2
1463629038.844	 3	 -1.796986	 1.130088	 0.043905	 -1.653185	 -1.121408	 1.314433	 -0.095407	 0.713283	 -0.660168	 -0.215182	 2
1463629038.854	 3	 -1.719459	 1.141660	 0.204268	 -1.677852	 -1.121404	 1.274323	 -0.089166	 0.717815	 -0.654669	 -0.219543	 2
1463629038.864	 3	 -1.691540	 1.044878	 0.362989	 -1.702843	 -1.122610	 1.234656	 -0.082617	 0.722289	 -0.649391	 -0.223081	 2
1463629038.874	 3	 -1.705935	 0.855219	 0.457268	 -1.730197	 -1.124501	 1.194246	 -0.076175	 0.726948	 -0.644081	 -0.225621	 2
1463629038.884	 3	 -1.692487	 0.576192	 0.412990	 -1.760291	 -1.125813	 1.153680	 -0.070585	 0.731818	 -0.638613	 -0.227232	 2
1463629038.894	 3	 -1.601834	 0.204985	 0.302170	 -1.792094	 -1.125707	 1.115048	 -0.066548	 0.736765	 -0.633107	 -0.227871	 2
1463629038.904	 3	 -1.404119	 -0.373472	 0.255633	 -1.825247	 -1.124821	 1.080671	 -0.064588	 0.741698	 -0.627937	 -0.226733	 2
1463629038.914	 3	 -1.126775	 -1.088934	 0.268941	 -1.859963	 -1.124147	 1.052301	 -0.065115	 0.746556	 -0.623482	 -0.222901	 2
1463629038.924	 3	 -0.866373	 -1.574397	 0.311182	 -1.895071	 -1.124212	 1.029712	 -0.067548	 0.751160	 -0.619848	 -0.216757	 2
1463629038.934	 3	 -0.651424	 -1.757522	 0.372618	 -1.928707	 -1.125218	 1.011580	 -0.070799	 0.755300	 -0.616981	 -0.209391	 2
1463629038.944	 3	 -0.474891	 -1.710824	 0.430132	 -1.959313	 -1.127228	 0.996889	 -0.074030	 0.758819	 -0.614832	 -0.201727	 2
1463629038.954	 3	 -0.387098	 -1.472420	 0.487006	 -1.986461	 -1.129996	 0.983917	 -0.076572	 0.761761	 -0.613189	 -0.194566	 2
1463629038.964	 3	 -0.389562	 -1.128534	 0.532858	 -2.010690	 -1.133166	 0.970602	 -0.077937	 0.764304	 -0.611756	 -0.188466	 2
1463629038.974	 3	 -0.476421	 -0.764455	 0.548599	 -2.033024	 -1.136131	 0.955404	 -0.078042	 0.766684	 -0.610214	 -0.183695	 2
1463629038.984	 3	 -0.612686	 -0.456767	 0.535597	 -2.054720	 -1.138308	 0.937303	 -0.077047	 0.769133	 -0.608283	 -0.180250	 2
1463629038.994	 3	 -0.739865	 -0.231242	 0.489777	 -2.076283	 -1.139358	 0.916691	 -0.075341	 0.771733	 -0.605891	 -0.177900	 2
1463629039.004	 3	 -0.828738	 -0.045048	 0.462442	 -2.097449	 -1.139395	 0.894366	 -0.073099	 0.774432	 -0.603137	 -0.176456	 2
1463629039.014	 3	 -0.871800	 0.068110	 0.502238	 -2.118532	 -1.139188	 0.870665	 -0.070307	 0.777162	 -0.600240	 -0.175465	 2
1463629039.034	 4	 -0.892152	 0.251170	 0.803598	 -2.162954	 -1.140696	 0.817590	 -0.062455	 0.782601	 -0.594561	 -0.173590	 2
1463629039.044	 4	 -0.847698	 0.245986	 0.986473	 -2.187724	 -1.143565	 0.787630	 -0.057276	 0.785225	 -0.592073	 -0.172020	 2
1463629039.054	 4	 -0.740330	 0.251071	 1.144385	 -2.213408	 -1.147955	 0.756695	 -0.051528	 0.787594	 -0.590050	 -0.169944	 2
1463629039.064	 4	 -0.568137	 0.275508	 1.210256	 -2.238002	 -1.153754	 0.726818	 -0.045480	 0.789465	 -0.588713	 -0.167611	 2
1463629039.074	 4	 -0.363570	 0.215259	 1.198322	 -2.260169	 -1.160490	 0.699953	 -0.039668	 0.790749	 -0.588112	 -0.165124	 2
1463629039.084	 4	 -0.140287	 0.016978	 1.226506	 -2.281321	 -1.168657	 0.676241	 -0.034469	 0.791486	 -0.588374	 -0.161796	 2
1463629039.094	 4	 -0.007895	 -0.050613	 1.053136	 -2.299665	 -1.176690	 0.656810	 -0.030210	 0.791807	 -0.589102	 -0.158391	 2
1463629039.104	 4	 0.078112	 -0.001036	 0.884458	 -2.313843	 -1.183921	 0.641675	 -0.026656	 0.791781	 -0.590055	 -0.155591	 2
1463629039.114	 4	 0.118882	 0.159524	 0.748114	 -2.323843	 -1.190395	 0.629696	 -0.023330	 0.791462	 -0.591113	 -0.153714	 2
1463629039.124	 4	 0.069468	 0.218132	 0.596686	 -2.330947	 -1.195695	 0.619567	 -0.020178	 0.791083	 -0.591995	 -0.152720	 2
1463629039.134	 4	 -0.009669	 0.108566	 0.416241	 -2.337661	 -1.198975	 0.611027	 -0.018023	 0.791027	 -0.592358	 -0.151869	 2
1463629039.144	 4	 0.079498	 0.248573	 0.398650	 -2.341796	 -1.202151	 0.604432	 -0.015906	 0.790761	 -0.592869	 -0.151493	 2
1463629039.154	 4	 0.220285	 0.425001	 0.437433	 -2.342238	 -1.206520	 0.599811	 -0.013203	 0.789947	 -0.593957	 -0.151738	 2
1463629039.164	 4	 0.330176	 0.460481	 0.387781	 -2.339387	 -1.211582	 0.597951	 -0.010455	 0.788715	 -0.595499	 -0.152315	 2
1463629039.174	 4	 0.399891	 0.465301	 0.200711	 -2.332036	 -1.216081	 0.600866	 -0.008371	 0.787226	 -0.597232	 -0.153359	 2
1463629039.184	 4	 0.424882	 0.517880	 -0.018564	 -2.319249	 -1.219220	 0.609170	 -0.007079	 0.785573	 -0.598944	 -0.155212	 2
1463629039.194	 4	 0.383592	 0.675718	 -0.123312	 -2.302999	 -1.221113	 0.619759	 -0.005913	 0.783888	 -0.600436	 -0.157990	 2
1463629039.204	 4	 0.323982	 0.911148	 -0.096090	 -2.285541	 -1.222541	 0.629301	 -0.004059	 0.782188	 -0.601698	 -0.161633	 2
1463629039.214	 4	 0.261619	 1.183255	 0.000772	 -2.268092	 -1.224141	 0.636014	 -0.001037	 0.780439	 -0.602775	 -0.166060	 2
1463629039.224	 4	 0.197085	 1.428938	 0.119788	 -2.251418	 -1.226192	 0.639143	 0.003280	 0.778641	 -0.603671	 -0.171139	 2
1463629039.234	 4	 0.136526	 1.618188	 0.231850	 -2.235876	 -1.228732	 0.638955	 0.008682	 0.776805	 -0.604397	 -0.176644	 2
1463629039.244	 4	 0.020271	 1.755561	 0.354572	 -2.223040	 -1.231615	 0.634248	 0.015115	 0.775078	 -0.604787	 -0.182368	 2
1463629039.254	 4	 -0.125636	 1.744924	 0.442070	 -2.214771	 -1.234467	 0.624373	 0.022160	 0.773679	 -0.604673	 -0.187884	 2
1463629039.264	 4	 -0.269373	 1.568961	 0.466196	 -2.211929	 -1.236765	 0.610205	 0.029076	 0.772787	 -0.603996	 -0.192726	 2
1463629039.274	 4	 -0.358570	 1.250863	 0.419251	 -2.213978	 -1.238226	 0.593873	 0.035134	 0.772441	 -0.602892	 -0.196523	 2
1463629039.284	 4	 -0.382393	 0.829905	 0.295110	 -2.219058	 -1.238573	 0.578572	 0.039601	 0.772590	 -0.601581	 -0.199089	 2
1463629039.294	 4	 -0.377328	 0.401617	 0.198359	 -2.226609	 -1.237994	 0.565243	 0.042341	 0.773186	 -0.600223	 -0.200307	 2
1463629039.304	 4	 -0.348966	 0.122499	 0.147556	 -2.235766	 -1.237054	 0.553653	 0.043849	 0.774043	 -0.598962	 -0.200449	 2
1463629039.314	 4	 -0.295920	 0.043744	 0.162347	 -2.244983	 -1.236320	 0.543338	 0.044908	 0.774886	 -0.597899	 -0.200129	 2
1463629039.324	 4	 -0.252866	 0.057992	 0.237774	 -2.254149	 -1.236380	 0.533062	 0.046167	 0.775556	 -0.597100	 -0.199633	 2
1463629039.334	 4	 -0.331424	 0.122242	 0.265700	 -2.264803	 -1.236490	 0.520755	 0.047790	 0.776306	 -0.596159	 -0.199147	 2
1463629039.344	 4	 -0.436170	 0.344579	 0.229248	 -2.275518	 -1.235654	 0.506427	 0.049969	 0.777199	 -0.594721	 -0.199429	 2
1463629039.354	 4	 -0.423368	 0.596385	 0.197375	 -2.283429	 -1.234368	 0.492373	 0.052788	 0.777903	 -0.593095	 -0.200795	 2
1463629039.364	 4	 -0.293452	 0.779866	 0.177702	 -2.286649	 -1.233586	 0.481150	 0.056022	 0.778091	 -0.591790	 -0.203028	 2
1463629039.374	 4	 -0.110436	 0.931084	 0.130622	 -2.283777	 -1.233641	 0.474703	 0.059391	 0.777599	 -0.591066	 -0.206040	 2
1463629039.384	 4	 0.061845	 1.084330	 0.065536	 -2.274424	 -1.234397	 0.473564	 0.062769	 0.776429	 -0.590913	 -0.209856	 2
1463629039.394	 4	 0.184325	 1.300583	 0.015326	 -2.259024	 -1.235605	 0.476743	 0.066365	 0.774639	 -0.591152	 -0.214639	 2
1463629039.404	 4	 0.214933	 1.749802	 -0.067087	 -2.237356	 -1.236638	 0.482543	 0.070768	 0.772258	 -0.591379	 -0.221088	 2
1463629039.414	 4	 0.158454	 2.290727	 -0.152152	 -2.209201	 -1.236606	 0.489414	 0.076436	 0.769343	 -0.591107	 -0.229915	 2
1463629039.424	 4	 -0.007682	 2.520489	 -0.069701	 -2.181589	 -1.236063	 0.492298	 0.083351	 0.766327	 -0.590169	 -0.239781	 2
1463629039.434	 4	 -0.394342	 2.344893	 0.053529	 -2.164443	 -1.234631	 0.484880	 0.090888	 0.764200	 -0.588062	 -0.248840	 2
1463629039.444	 4	 -0.761439	 1.785336	 0.184738	 -2.163844	 -1.232075	 0.464928	 0.098055	 0.763701	 -0.584705	 -0.255472	 2
1463629039.454	 4	 -0.763003	 0.986701	 0.202899	 -2.173313	 -1.229354	 0.442214	 0.103310	 0.764335	 -0.581385	 -0.259055	 2
1463629039.464	 4	 -0.621823	 0.336748	 0.247844	 -2.187534	 -1.227470	 0.422079	 0.106434	 0.765519	 -0.578906	 -0.259848	 2
1463629039.474	 4	 -0.359685	 0.160235	 0.360087	 -2.201104	 -1.227619	 0.405826	 0.108771	 0.766374	 -0.577575	 -0.259320	 2
1463629039.484	 4	 0.040403	 0.304231	 0.431481	 -2.206886	 -1.230601	 0.396925	 0.111203	 0.765992	 -0.577728	 -0.259078	 2
1463629039.494	 4	 0.408828	 0.367935	 0.418208	 -2.203001	 -1.235944	 0.397163	 0.113472	 0.764344	 -0.579309	 -0.259429	 2
1463629039.504	 4	 0.686580	 0.261311	 0.347655	 -2.191692	 -1.242600	 0.406018	 0.114927	 0.761941	 -0.582002	 -0.259830	 2
1463629039.514	 4	 0.836092	 0.200083	 0.178458	 -2.173831	 -1.249074	 0.422698	 0.115328	 0.759187	 -0.585247	 -0.260423	 2
1463629039.524	 4	 0.845209	 0.286693	 -0.047822	 -2.150087	 -1.253915	 0.444978	 0.115023	 0.756347	 -0.588336	 -0.261858	 2
1463629039.534	 4	 0.761463	 0.372487	 -0.277565	 -2.122616	 -1.256248	 0.470150	 0.114197	 0.753694	 -0.590804	 -0.264299	 2
1463629039.544	 4	 0.653521	 0.445276	 -0.403840	 -2.094305	 -1.256444	 0.495451	 0.113104	 0.751329	 -0.592619	 -0.267422	 2
1463629039.554	 4	 0.538788	 0.522483	 -0.363755	 -2.068453	 -1.255955	 0.517335	 0.112435	 0.749180	 -0.593959	 -0.270741	 2
1463629039.564	 4	 0.503405	 0.581335	 -0.475870	 -2.042809	 -1.254387	 0.538323	 0.111786	 0.747156	 -0.594919	 -0.274468	 2
1463629039.574	 4	 0.563197	 0.580162	 -0.466810	 -2.015494	 -1.252423	 0.560936	 0.110946	 0.744997	 -0.595956	 -0.278401	 2
1463629039.584	 4	 0.642355	 0.615951	 -0.193265	 -1.988859	 -1.252509	 0.582694	 0.110826	 0.742457	 -0.597551	 -0.281792	 2
1463629039.594	 4	 0.780997	 0.738416	 0.176487	 -1.962027	 -1.256239	 0.603395	 0.112253	 0.739182	 -0.600016	 -0.284589	 2
1463629039.604	 4	 1.081064	 0.433138	 0.587747	 -1.933339	 -1.264363	 0.627906	 0.114213	 0.735151	 -0.604065	 -0.285680	 2
1463629039.614	 4	 1.474145	 -0.035378	 0.966836	 -1.900277	 -1.277313	 0.661562	 0.115758	 0.730342	 -0.610304	 -0.284129	 2
1463629039.624	 4	 1.803290	 -0.767872	 1.145795	 -1.861303	 -1.293165	 0.708018	 0.115638	 0.725177	 -0.618487	 -0.279680	 2
1463629039.634	 4	 1.961492	 -1.742581	 1.295211	 -1.820783	 -1.310416	 0.765536	 0.112852	 0.720493	 -0.628055	 -0.271481	 2
1463629039.644	 4	 1.975483	 -2.717130	 1.408584	 -1.782882	 -1.328449	 0.830277	 0.107349	 0.716753	 -0.638374	 -0.259269	 2
1463629039.654	 4	 1.885602	 -3.488676	 1.459738	 -1.748862	 -1.346319	 0.899295	 0.099445	 0.714020	 -0.648741	 -0.243765	 2
1463629039.664	 4	 1.726558	 -3.955246	 1.737069	 -1.716288	 -1.365406	 0.971884	 0.090576	 0.711744	 -0.659021	 -0.225627	 2
1463629039.674	 4	 1.518143	 -4.232373	 1.718183	 -1.689219	 -1.384838	 1.041990	 0.081210	 0.710160	 -0.668406	 -0.205698	 2
1463629039.684	 4	 1.210682	 -4.062795	 1.218333	 -1.667373	 -1.399727	 1.106275	 0.070836	 0.709359	 -0.675907	 -0.186929	 2
1463629039.694	 4	 0.902314	 -3.508375	 0.839305	 -1.650869	 -1.409690	 1.160124	 0.060782	 0.709028	 -0.681385	 -0.171170	 2
1463629039.704	 4	 0.704283	 -2.644892	 0.736094	 -1.636253	 -1.417686	 1.204034	 0.052993	 0.708646	 -0.685454	 -0.158636	 2
1463629039.714	 4	 0.673195	 -1.768403	 0.733863	 -1.614090	 -1.425385	 1.246454	 0.048277	 0.707676	 -0.688898	 -0.149278	 2
1463629039.724	 4	 0.746879	 -1.118420	 0.779768	 -1.577245	 -1.433166	 1.296415	 0.046079	 0.705917	 -0.692308	 -0.142364	 2
1463629039.734	 4	 0.829521	 -0.765951	 1.016796	 -1.523626	 -1.442523	 1.358924	 0.045975	 0.703470	 -0.696014	 -0.136309	 2
1463629039.744	 4	 0.838699	 -0.711034	 1.113146	 -1.455620	 -1.452844	 1.434584	 0.046815	 0.700747	 -0.699870	 -0.130167	 2
1463629039.754	 4	 0.787635	 -0.905504	 1.116044	 -1.379354	 -1.462634	 1.519825	 0.047243	 0.698210	 -0.703575	 -0.123500	 2
1463629039.764	 4	 0.729026	 -1.227682	 1.252105	 -1.293568	 -1.472714	 1.617588	 0.046984	 0.695983	 -0.707165	 -0.115403	 2
1463629039.774	 4	 0.601554	 -1.410606	 1.349563	 -1.196668	 -1.483220	 1.728781	 0.046333	 0.694169	 -0.710446	 -0.106061	 2
1463629039.784	 4	 0.416408	 -1.295367	 1.618688	 -1.079657	 -1.495292	 1.859625	 0.046670	 0.692845	 -0.713137	 -0.096039	 2
1463629039.794	 4	 0.284107	 -1.064338	 1.889496	 -0.907648	 -1.508989	 2.043219	 0.048877	 0.691808	 -0.715307	 -0.085718	 2
1463629039.804	 4	 0.240369	 -1.207421	 1.794759	 -0.654347	 -1.520337	 2.308518	 0.051008	 0.690933	 -0.717189	 -0.075162	 2
1463629039.814	 4	 0.333482	 -1.128117	 1.768042	 -0.310701	 -1.525810	 2.664126	 0.052771	 0.689787	 -0.719156	 -0.064984	 2
1463629039.824	 4	 0.493175	 -1.094825	 2.169819	 0.131797	 -1.523075	 3.118036	 0.055767	 0.687928	 -0.721620	 -0.053942	 2
1463629039.834	 4	 0.620846	 -1.217515	 2.755867	 0.536142	 -1.508696	 -2.748617	 0.060384	 0.685330	 -0.724582	 -0.040714	 2
1463629039.844	 4	 0.922979	 -1.864407	 3.287558	 0.783014	 -1.482360	 -2.483945	 0.064869	 0.681536	 -0.728520	 -0.023633	 2
1463629039.854	 4	 1.305954	 -2.421156	 3.376027	 0.891460	 -1.449376	 -2.352412	 0.068035	 0.676256	 -0.733507	 -0.004123	 2
1463629039.864	 4	 1.911307	 -3.078703	 3.148288	 0.907421	 -1.413053	 -2.306672	 0.068173	 0.668570	 -0.740321	 0.017078	 2
1463629039.874	 4	 2.345279	 -3.156047	 2.339139	 0.868133	 -1.378800	 -2.314242	 0.065169	 0.658858	 -0.748551	 0.036467	 2
1463629039.884	 4	 2.301641	 -2.810544	 1.418718	 0.808135	 -1.350982	 -2.345942	 0.060127	 0.648895	 -0.756758	 0.051353	 2
1463629039.894	 4	 1.780808	 -2.713872	 0.752723	 0.750085	 -1.330801	 -2.377663	 0.053272	 0.640475	 -0.763535	 0.062991	 2
1463629039.904	 5	 0.914613	 -2.642878	 0.219518	 0.703701	 -1.320009	 -2.397910	 0.044534	 0.635145	 -0.767685	 0.072581	 2
1463629039.924	 5	 0.153743	 -2.136391	 -0.645201	 0.617786	 -1.319655	 -2.437854	 0.024210	 0.630972	 -0.770811	 0.084491	 2
1463629039.934	 5	 0.173258	 -1.738520	 -0.772757	 0.571557	 -1.322510	 -2.466595	 0.014833	 0.629633	 -0.771820	 0.087381	 2
1463629039.944	 5	 0.255888	 -1.405936	 -0.784237	 0.525250	 -1.324589	 -2.499072	 0.006741	 0.628107	 -0.772992	 0.088989	 2
1463629039.954	 5	 0.275908	 -1.272711	 -0.738410	 0.480784	 -1.325800	 -2.531646	 -0.000472	 0.626476	 -0.774214	 0.090112	 2
1463629039.964	 5	 0.213355	 -1.441386	 -0.703199	 0.437368	 -1.326836	 -2.562142	 -0.007936	 0.624925	 -0.775239	 0.091701	 2
1463629039.974	 5	 0.105935	 -1.783833	 -0.741686	 0.391539	 -1.328532	 -2.591927	 -0.016696	 0.623577	 -0.775889	 0.094181	 2
1463629039.984	 5	 0.012369	 -2.093664	 -0.823686	 0.340157	 -1.331086	 -2.623908	 -0.027071	 0.622381	 -0.776159	 0.097396	 2
1463629039.994	 5	 -0.058657	 -2.174656	 -0.870760	 0.285276	 -1.334150	 -2.658070	 -0.038185	 0.621335	 -0.776097	 0.100789	 2
1463629040.004	 5	 -0.117049	 -2.137028	 -0.838995	 0.230418	 -1.337316	 -2.692387	 -0.049222	 0.620445	 -0.775747	 0.104125	 2
1463629040.014	 5	 -0.162274	 -2.078749	 -0.741074	 0.178967	 -1.340357	 -2.723733	 -0.059802	 0.619714	 -0.775113	 0.107602	 2
1463629040.024	 5	 -0.223560	 -1.988884	 -0.693877	 0.130714	 -1.343477	 -2.752625	 -0.069861	 0.619191	 -0.774200	 0.111070	 2
1463629040.034	 5	 -0.262947	 -1.884197	 -0.793807	 0.079605	 -1.346808	 -2.785448	 -0.079768	 0.618812	 -0.773129	 0.113932	 2
1463629040.044	 5	 -0.271301	 -1.731992	 -0.928735	 0.023031	 -1.349985	 -2.825285	 -0.089533	 0.618468	 -0.772050	 0.115845	 2
1463629040.054	 5	 -0.263854	 -1.621333	 -1.066320	 -0.039791	 -1.352561	 -2.872837	 -0.099213	 0.618053	 -0.771054	 0.116806	 2
1463629040.064	 5	 -0.236666	 -1.671988	 -1.146960	 -0.108201	 -1.354163	 -2.926011	 -0.109205	 0.617439	 -0.770103	 0.117409	 2
1463629040.074	 5	 -0.196847	 -1.851645	 -1.118071	 -0.178501	 -1.354599	 -2.979579	 -0.119739	 0.616529	 -0.769101	 0.118481	 2
1463629040.084	 5	 -0.183541	 -2.055177	 -1.018834	 -0.246817	 -1.354193	 -3.028981	 -0.130779	 0.615383	 -0.767902	 0.120529	 2
1463629040.094	 5	 -0.185924	 -2.238050	 -0.863847	 -0.310685	 -1.353485	 -3.071916	 -0.142098	 0.614139	 -0.766387	 0.123663	 2
1463629040.104	 5	 -0.169236	 -2.288534	 -0.632126	 -0.365767	 -1.352830	 -3.104908	 -0.153089	 0.612857	 -0.764600	 0.127894	 2
1463629040.114	 5	 -0.165612	 -2.202533	 -0.358523	 -0.408697	 -1.352738	 -3.126052	 -0.163013	 0.611693	 -0.762615	 0.132957	 2
1463629040.124	 5	 -0.246372	 -2.100611	 -0.123469	 -0.441402	 -1.353999	 -3.137777	 -0.171800	 0.610935	 -0.760286	 0.138591	 2
1463629040.144	 6	 -0.706718	 -1.688191	 0.094332	 -0.497482	 -1.363487	 3.126356	 -0.186497	 0.612192	 -0.753738	 0.149394	 2
1463629040.154	 6	 -0.971840	 -1.349054	 0.112585	 -0.528763	 -1.371935	 3.109088	 -0.192242	 0.614619	 -0.749511	 0.153360	 2
1463629040.164	 6	 -1.206389	 -1.031777	 0.062160	 -0.566884	 -1.382144	 3.081529	 -0.197025	 0.618127	 -0.744835	 0.155951	 2
1463629040.174	 6	 -1.463688	 -0.730866	 -0.054296	 -0.618117	 -1.393612	 3.037644	 -0.201184	 0.622657	 -0.739715	 0.156985	 2
1463629040.184	 6	 -1.755900	 -0.361814	 -0.175144	 -0.688749	 -1.406065	 2.970634	 -0.204658	 0.628341	 -0.734107	 0.156171	 2
1463629040.204	 7	 -2.241262	 0.476552	 -0.044817	 -0.893963	 -1.433390	 2.759635	 -0.207538	 0.643454	 -0.721443	 0.149718	 2
1463629040.214	 7	 -2.422133	 0.863678	 0.171381	 -1.030150	 -1.447963	 2.614549	 -0.206153	 0.652664	 -0.714458	 0.145193	 2
1463629040.224	 7	 -2.625515	 1.189526	 0.435164	 -1.204673	 -1.462545	 2.427565	 -0.202806	 0.662971	 -0.706891	 0.140160	 2
1463629040.234	 7	 -2.726258	 1.536510	 0.721697	 -1.432420	 -1.475733	 2.184200	 -0.197437	 0.674146	 -0.698813	 0.134934	 2
1463629040.244	 7	 -2.695229	 2.001084	 0.996454	 -1.713859	 -1.485026	 1.882718	 -0.189538	 0.685698	 -0.690811	 0.129124	 2
1463629040.254	 7	 -2.555658	 2.377256	 1.298218	 -2.030862	 -1.489031	 1.541590	 -0.179070	 0.697184	 -0.683185	 0.122990	 2
1463629040.264	 7	 -2.350578	 2.577000	 1.644664	 -2.353445	 -1.487656	 1.192448	 -0.166420	 0.708226	 -0.675993	 0.117275	 2
1463629040.274	 7	 -2.097637	 2.538167	 1.965026	 -2.653777	 -1.481468	 0.865270	 -0.152294	 0.718476	 -0.669241	 0.112760	 2
1463629040.284	 7	 -1.835678	 2.237954	 2.179499	 -2.912402	 -1.471058	 0.582100	 -0.137881	 0.727649	 -0.662874	 0.110062	 2
1463629040.294	 7	 -1.562674	 1.650850	 2.291024	 -3.124138	 -1.457582	 0.350944	 -0.124500	 0.735512	 -0.656853	 0.109845	 2
1463629040.304	 7	 -1.316472	 0.858150	 2.347581	 2.985540	 -1.442205	 0.165410	 -0.113144	 0.741982	 -0.651118	 0.112719	 2
1463629040.314	 7	 -1.128590	 -0.055852	 2.373676	 2.838920	 -1.425376	 0.015650	 -0.104427	 0.747165	 -0.645484	 0.119120	 2
1463629040.324	 7	 -0.979015	 -0.942123	 2.395034	 2.711651	 -1.407332	 -0.105804	 -0.098438	 0.751181	 -0.639841	 0.128998	 2
1463629040.334	 7	 -0.871599	 -1.779860	 2.491814	 2.595649	 -1.387917	 -0.207674	 -0.094772	 0.754143	 -0.634067	 0.142288	 2
1463629040.344	 7	 -0.821327	 -2.291939	 2.592122	 2.489059	 -1.366485	 -0.293877	 -0.092605	 0.756326	 -0.627955	 0.158331	 2
1463629040.354	 7	 -0.839635	 -2.359674	 2.631084	 2.398169	 -1.343293	 -0.362700	 -0.090769	 0.758142	 -0.621550	 0.175091	 2
1463629040.364	 7	 -0.931778	 -1.968141	 2.611017	 2.327010	 -1.318426	 -0.414411	 -0.088116	 0.760200	 -0.614779	 0.190729	 2
1463629040.374	 7	 -1.016241	 -1.282216	 2.562716	 2.276525	 -1.292582	 -0.451535	 -0.083781	 0.762919	 -0.607802	 0.203746	 2
1463629040.384	 7	 -1.014758	 -0.539616	 2.590928	 2.241119	 -1.266193	 -0.480983	 -0.077177	 0.766292	 -0.600916	 0.213870	 2
1463629040.394	 7	 -0.912299	 0.072251	 2.672464	 2.213994	 -1.239436	 -0.508821	 -0.068229	 0.770003	 -0.594379	 0.221707	 2
1463629040.404	 7	 -0.741264	 0.481075	 2.796276	 2.190289	 -1.212518	 -0.538176	 -0.057309	 0.773639	 -0.588361	 0.228102	 2
1463629040.414	 7	 -0.536836	 0.690182	 2.966964	 2.166392	 -1.185139	 -0.570807	 -0.044748	 0.776861	 -0.582865	 0.233994	 2
1463629040.424	 7	 -0.370949	 0.741175	 3.025677	 2.142343	 -1.157661	 -0.604874	 -0.031341	 0.779490	 -0.577835	 0.239831	 2
1463629040.434	 7	 -0.240035	 0.800268	 2.867354	 2.120976	 -1.131483	 -0.636916	 -0.018020	 0.781577	 -0.573334	 0.245157	 2
1463629040.444	 7	 -0.127607	 0.926277	 2.542490	 2.104721	 -1.108156	 -0.664937	 -0.005371	 0.783287	 -0.569524	 0.249149	 2
1463629040.454	 7	 0.023361	 0.889118	 2.173142	 2.091862	 -1.088476	 -0.689647	 0.006086	 0.784483	 -0.566608	 0.252002	 2
1463629040.464	 7	 0.235202	 0.668553	 1.764256	 2.078958	 -1.073111	 -0.712511	 0.015697	 0.784791	 -0.564913	 0.254422	 2
1463629040.474	 7	 0.444131	 0.498082	 1.368650	 2.065212	 -1.062161	 -0.734269	 0.023445	 0.784214	 -0.564536	 0.256433	 2
1463629040.484	 7	 0.582540	 0.456137	 1.067575	 2.051694	 -1.054716	 -0.755087	 0.029912	 0.783096	 -0.565180	 0.257754	 2
1463629040.504	 8	 0.694161	 0.677525	 0.694581	 2.029096	 -1.045989	 -0.793988	 0.041250	 0.780472	 -0.568049	 0.257842	 2
1463629040.514	 8	 0.724058	 0.869385	 0.470164	 2.022243	 -1.044373	 -0.811443	 0.046582	 0.779378	 -0.569979	 0.255977	 2
1463629040.524	 8	 0.758660	 0.982055	 0.181024	 2.018278	 -1.045321	 -0.827118	 0.051274	 0.778394	 -0.572338	 0.252791	 2
1463629040.534	 8	 0.768137	 0.988292	 -0.128072	 2.016605	 -1.049104	 -0.840541	 0.054893	 0.777449	 -0.575128	 0.248569	 2
1463629040.544	 8	 0.737904	 0.905663	 -0.387558	 2.016564	 -1.055267	 -0.851278	 0.057219	 0.776533	 -0.578168	 0.243812	 2
1463629040.554	 8	 0.715319	 0.793808	 -0.567450	 2.017302	 -1.063123	 -0.859872	 0.058427	 0.775596	 -0.581355	 0.238881	 2
1463629040.564	 8	 0.730098	 0.643905	 -0.698996	 2.017567	 -1.072268	 -0.867395	 0.058690	 0.774497	 -0.584742	 0.234065	 2
1463629040.574	 8	 0.783980	 0.419380	 -0.837972	 2.015910	 -1.082813	 -0.874729	 0.057888	 0.773034	 -0.588503	 0.229632	 2
1463629040.584	 8	 0.873530	 0.101891	 -1.021820	 2.011095	 -1.095222	 -0.882289	 0.055662	 0.771020	 -0.592829	 0.225796	 2
1463629040.594	 8	 0.992048	 -0.341772	 -1.285961	 2.001665	 -1.110288	 -0.890279	 0.051386	 0.768222	 -0.597956	 0.222809	 2
1463629040.604	 8	 1.056193	 -0.784123	 -1.537892	 1.987839	 -1.128078	 -0.898144	 0.044844	 0.764691	 -0.603763	 0.220697	 2
1463629040.614	 8	 1.029588	 -1.095698	 -1.686569	 1.971073	 -1.147422	 -0.905252	 0.036544	 0.760731	 -0.609771	 0.219392	 2
1463629040.624	 8	 0.859745	 -1.122915	 -1.694936	 1.955354	 -1.166652	 -0.910000	 0.027594	 0.756967	 -0.615277	 0.218342	 2
1463629040.634	 8	 0.562152	 -0.808934	 -1.492257	 1.945837	 -1.183491	 -0.910483	 0.019610	 0.754183	 -0.619502	 0.216887	 2
1463629040.644	 8	 0.226350	 -0.179513	 -1.074224	 1.945955	 -1.195701	 -0.906539	 0.014363	 0.752937	 -0.621987	 0.214503	 2
1463629040.654	 8	 -0.039655	 0.494776	 -0.600961	 1.955781	 -1.202408	 -0.899655	 0.012747	 0.753297	 -0.622787	 0.210990	 2
1463629040.664	 8	 -0.102997	 0.792181	 -0.242743	 1.968841	 -1.205022	 -0.893630	 0.013736	 0.754408	 -0.622700	 0.207184	 2
1463629040.674	 8	 -0.030309	 0.801506	 0.045533	 1.978455	 -1.205041	 -0.892002	 0.016109	 0.755406	 -0.622465	 0.204056	 2
1463629040.684	 8	 0.025574	 0.612243	 0.369408	 1.981835	 -1.202443	 -0.895468	 0.019266	 0.756020	 -0.622155	 0.202451	 2
1463629040.694	 8	 0.073335	 0.330077	 0.639202	 1.978491	 -1.197405	 -0.903425	 0.022778	 0.756172	 -0.621769	 0.202700	 2
1463629040.704	 8	 0.073559	 -0.019438	 0.842705	 1.969534	 -1.190402	 -0.913789	 0.026067	 0.755908	 -0.621240	 0.204900	 2
1463629040.714	 8	 0.027004	 -0.295736	 1.003601	 1.957086	 -1.181619	 -0.924662	 0.029030	 0.755402	 -0.620427	 0.208793	 2
1463629040.724	 8	 -0.027227	 -0.304713	 1.063673	 1.944767	 -1.171745	 -0.934513	 0.032007	 0.754948	 -0.619304	 0.213290	 2
1463629040.734	 8	 -0.059636	 -0.101987	 0.992304	 1.935730	 -1.162076	 -0.942609	 0.035295	 0.754768	 -0.618039	 0.217044	 2
1463629040.744	 8	 -0.039878	 0.128831	 0.855730	 1.930312	 -1.153558	 -0.949312	 0.038829	 0.754836	 -0.616862	 0.219534	 2
1463629040.754	 8	 0.063007	 0.357094	 0.693897	 1.926824	 -1.146785	 -0.956386	 0.042557	 0.754910	 -0.616118	 0.220674	 2
1463629040.764	 8	 0.201273	 0.635113	 0.514101	 1.924757	 -1.142122	 -0.964853	 0.046588	 0.754896	 -0.616004	 0.220229	 2
1463629040.774	 8	 0.305251	 0.880292	 0.338560	 1.924316	 -1.139533	 -0.974400	 0.050874	 0.754832	 -0.616456	 0.218225	 2
1463629040.784	 8	 0.319435	 1.055861	 0.207916	 1.926128	 -1.138441	 -0.983579	 0.055243	 0.754874	 -0.617149	 0.215036	 2
1463629040.794	 8	 0.237845	 1.196349	 0.187553	 1.930992	 -1.137634	 -0.991027	 0.059811	 0.755244	 -0.617615	 0.211142	 2
1463629040.804	 8	 0.168931	 1.194207	 0.304301	 1.937640	 -1.135763	 -0.997126	 0.064759	 0.755900	 -0.617612	 0.207307	 2
1463629040.814	 8	 0.189818	 1.030926	 0.383597	 1.941916	 -1.132926	 -1.004325	 0.069697	 0.756326	 -0.617550	 0.204319	 2
1463629040.824	 8	 0.253154	 0.714358	 0.316154	 1.942674	 -1.130642	 -1.012392	 0.073702	 0.756293	 -0.617813	 0.202228	 2
1463629040.834	 8	 0.339461	 0.318770	 0.214738	 1.938675	 -1.129531	 -1.021387	 0.076216	 0.755638	 -0.618614	 0.201295	 2
1463629040.844	 8	 0.403654	 0.045053	 0.043241	 1.931291	 -1.130070	 -1.030701	 0.077276	 0.754498	 -0.619957	 0.201035	 2
1463629040.854	 8	 0.368230	 -0.026754	 -0.192652	 1.924365	 -1.132645	 -1.038087	 0.077091	 0.753331	 -0.621547	 0.200569	 2
1463629040.864	 8	 0.225940	 0.114318	 -0.450146	 1.922515	 -1.137166	 -1.040873	 0.076123	 0.752716	 -0.622908	 0.199020	 2
1463629040.874	 8	 0.018017	 0.380977	 -0.722953	 1.929099	 -1.143551	 -1.037051	 0.074702	 0.753044	 -0.623709	 0.195783	 2
1463629040.884	 8	 -0.188787	 0.615038	 -0.943850	 1.944703	 -1.151412	 -1.026101	 0.072948	 0.754350	 -0.623845	 0.190924	 2
1463629040.894	 8	 -0.408658	 0.716850	 -1.073143	 1.968011	 -1.159779	 -1.008307	 0.070861	 0.756479	 -0.623251	 0.185138	 2
1463629040.904	 8	 -0.663491	 0.603227	 -1.150848	 1.997763	 -1.167781	 -0.982952	 0.068026	 0.759328	 -0.621790	 0.179362	 2
1463629040.914	 8	 -0.872111	 0.337328	 -1.234635	 2.031899	 -1.175174	 -0.950383	 0.063968	 0.762655	 -0.619583	 0.174304	 2
1463629040.924	 8	 -0.955144	 -0.004422	 -1.313827	 2.067392	 -1.182320	 -0.912833	 0.058449	 0.766039	 -0.617066	 0.170286	 2
1463629040.934	 8	 -0.843257	 -0.232648	 -1.353161	 2.100986	 -1.189696	 -0.874602	 0.051964	 0.768990	 -0.614846	 0.167089	 2
1463629040.944	 8	 -0.442420	 -0.351631	 -1.318325	 2.127190	 -1.198195	 -0.842902	 0.045373	 0.770760	 -0.613876	 0.164398	 2
1463629040.954	 8	 0.138325	 -0.384593	 -1.228835	 2.141212	 -1.208713	 -0.823842	 0.039366	 0.770771	 -0.614914	 0.161999	 2
1463629040.964	 8	 0.803255	 -0.457038	 -1.123394	 2.139058	 -1.221790	 -0.821473	 0.034119	 0.768670	 -0.618363	 0.160033	 2
1463629040.974	 8	 1.406236	 -0.482999	 -1.086255	 2.120338	 -1.237739	 -0.836263	 0.029463	 0.764533	 -0.624155	 0.158279	 2
1463629040.984	 8	 1.833765	 -0.546142	 -1.111905	 2.087169	 -1.256057	 -0.865698	 0.024983	 0.758813	 -0.631711	 0.156588	 2
1463629040.994	 8	 2.110995	 -0.779195	 -1.163381	 2.039970	 -1.275903	 -0.907790	 0.019998	 0.751868	 -0.640436	 0.155358	 2
1463629041.004	 8	 2.213767	 -1.164509	 -1.161466	 1.978251	 -1.295832	 -0.960996	 0.013897	 0.744045	 -0.649660	 0.155386	 2
1463629041.014	 8	 2.143593	 -1.576853	 -1.143377	 1.904415	 -1.314378	 -1.022237	 0.006532	 0.735855	 -0.658659	 0.156980	 2
1463629041.024	 8	 1.925143	 -1.949636	 -1.156667	 1.823780	 -1.331179	 -1.086199	 -0.002287	 0.727802	 -0.666869	 0.159952	 2
1463629041.034	 8	 1.590212	 -2.140111	 -1.157655	 1.743720	 -1.346055	 -1.146843	 -0.012176	 0.720433	 -0.673806	 0.163747	 2
1463629041.044	 8	 1.238057	 -2.130625	 -1.165158	 1.670177	 -1.359380	 -1.200191	 -0.022508	 0.714075	 -0.679332	 0.167623	 2
1463629041.054	 8	 0.932633	 -1.939427	 -1.176706	 1.605732	 -1.371774	 -1.245634	 -0.032632	 0.708793	 -0.683633	 0.170859	 2
1463629041.064	 8	 0.677951	 -1.630266	 -1.181204	 1.551355	 -1.383640	 -1.283586	 -0.042039	 0.704574	 -0.686934	 0.173003	 2
1463629041.074	 8	 0.495108	 -1.270086	 -1.161340	 1.505904	 -1.395092	 -1.315960	 -0.050365	 0.701281	 -0.689515	 0.173888	 2
1463629041.084	 8	 0.397675	 -0.935396	 -1.101957	 1.466151	 -1.405887	 -1.346006	 -0.057420	 0.698662	 -0.691670	 0.173686	 2
1463629041.094	 8	 0.398090	 -0.685954	 -1.025036	 1.426612	 -1.415787	 -1.378542	 -0.063300	 0.696349	 -0.693717	 0.172767	 2
1463629041.104	 8	 0.497019	 -0.567834	 -0.976839	 1.379667	 -1.424719	 -1.420093	 -0.068358	 0.693903	 -0.695989	 0.171538	 2
1463629041.114	 8	 0.651625	 -0.619145	 -0.949887	 1.317245	 -1.432704	 -1.477116	 -0.073230	 0.690922	 -0.698712	 0.170487	 2
1463629041.124	 8	 0.810072	 -0.768256	 -0.914287	 1.235879	 -1.439314	 -1.551897	 -0.078299	 0.687258	 -0.701876	 0.170047	 2
1463629041.134	 8	 0.951067	 -0.989708	 -0.887734	 1.135170	 -1.444153	 -1.644077	 -0.083849	 0.682877	 -0.705403	 0.170458	 2
1463629041.144	 8	 1.055689	 -1.223869	 -0.868443	 1.018375	 -1.446953	 -1.750027	 -0.090065	 0.677848	 -0.709154	 0.171789	 2
1463629041.154	 8	 1.112485	 -1.431171	 -0.831433	 0.892977	 -1.447462	 -1.862471	 -0.096861	 0.672343	 -0.712956	 0.173976	 2
1463629041.164	 8	 1.096648	 -1.649979	 -0.797095	 0.767833	 -1.445947	 -1.972530	 -0.104283	 0.666583	 -0.716569	 0.176981	 2
1463629041.184	 9	 0.786154	 -2.166389	 -0.706476	 0.548770	 -1.440372	 -2.153756	 -0.121641	 0.655533	 -0.721804	 0.185684	 2
1463629041.194	 9	 0.593686	 -2.481633	 -0.694945	 0.455503	 -1.438117	 -2.223633	 -0.131974	 0.650524	 -0.723023	 0.191413	 2
1463629041.204	 9	 0.476658	 -2.824059	 -0.734414	 0.363905	 -1.436412	 -2.288429	 -0.143732	 0.645552	 -0.723460	 0.198013	 2
1463629041.214	 9	 0.456961	 -3.108375	 -0.788044	 0.269094	 -1.434494	 -2.353411	 -0.156764	 0.640257	 -0.723417	 0.205337	 2
1463629041.224	 9	 0.490097	 -3.271638	 -0.847384	 0.188489	 -1.431657	 -2.402422	 -0.169790	 0.634866	 -0.722786	 0.213770	 2
1463629041.234	 9	 0.520464	 -3.345533	 -0.904814	 0.096012	 -1.428179	 -2.462395	 -0.183719	 0.628894	 -0.722179	 0.221804	 2
1463629041.244	 9	 0.602805	 -3.276910	 -0.942189	 0.003083	 -1.423787	 -2.522981	 -0.197741	 0.622622	 -0.721502	 0.229508	 2
1463629041.254	 9	 0.862356	 -2.789365	 -0.927123	 -0.085424	 -1.415520	 -2.582728	 -0.210335	 0.615398	 -0.722026	 0.236058	 2
1463629041.264	 9	 0.937132	 -1.894870	 -0.897070	 -0.155042	 -1.405050	 -2.631689	 -0.219663	 0.608476	 -0.723705	 0.240326	 2
1463629041.274	 9	 0.653765	 -1.138629	 -0.863053	 -0.210217	 -1.396179	 -2.674446	 -0.226138	 0.603248	 -0.725548	 0.241936	 2
1463629041.284	 9	 0.293816	 -0.801049	 -0.804555	 -0.258397	 -1.390583	 -2.714662	 -0.231267	 0.599893	 -0.726699	 0.241978	 2
1463629041.294	 9	 0.061558	 -0.780689	 -0.730937	 -0.303795	 -1.387450	 -2.752958	 -0.236197	 0.597683	 -0.727031	 0.241687	 2
1463629041.304	 9	 0.049923	 -0.840572	 -0.633343	 -0.344835	 -1.385004	 -2.786275	 -0.241127	 0.595762	 -0.726947	 0.241814	 2
1463629041.314	 9	 0.255364	 -0.798006	 -0.547343	 -0.377287	 -1.381184	 -2.810995	 -0.245544	 0.593378	 -0.727217	 0.242419	 2
1463629041.324	 9	 0.485734	 -0.645147	 -0.495704	 -0.399864	 -1.375248	 -2.827019	 -0.249016	 0.590341	 -0.728269	 0.243130	 2
1463629041.334	 9	 0.607284	 -0.517219	 -0.406048	 -0.413321	 -1.368178	 -2.835177	 -0.251552	 0.587007	 -0.729830	 0.243911	 2
1463629041.344	 9	 0.604630	 -0.463494	 -0.331988	 -0.421415	 -1.361169	 -2.838651	 -0.253541	 0.583757	 -0.731455	 0.244782	 2
1463629041.354	 9	 0.509702	 -0.508468	 -0.265502	 -0.428034	 -1.355095	 -2.840388	 -0.255508	 0.580822	 -0.732744	 0.245861	 2
1463629041.364	 9	 0.368601	 -0.622366	 -0.188599	 -0.434760	 -1.350557	 -2.841255	 -0.257764	 0.578349	 -0.733416	 0.247326	 2
1463629041.374	 9	 0.222956	 -0.769441	 -0.141806	 -0.443307	 -1.347560	 -2.842489	 -0.260573	 0.576288	 -0.733403	 0.249225	 2
1463629041.384	 9	 0.062667	 -0.850556	 -0.098534	 -0.454052	 -1.346141	 -2.844938	 -0.263824	 0.574715	 -0.732746	 0.251361	 2
1463629041.394	 9	 -0.115624	 -0.911328	 -0.044259	 -0.466635	 -1.346506	 -2.848682	 -0.267350	 0.573765	 -0.731433	 0.253620	 2
1463629041.404	 9	 -0.297463	 -1.053917	 0.019943	 -0.481773	 -1.348767	 -2.853812	 -0.271367	 0.573400	 -0.729340	 0.256194	 2
1463629041.414	 9	 -0.425881	 -1.206037	 0.111301	 -0.498470	 -1.352690	 -2.858868	 -0.275911	 0.573453	 -0.726477	 0.259339	 2
1463629041.424	 9	 -0.517955	 -1.127393	 0.211950	 -0.513641	 -1.357951	 -2.862515	 -0.280232	 0.574002	 -0.723190	 0.262654	 2
1463629041.434	 9	 -0.585853	 -0.905194	 0.317988	 -0.524748	 -1.364331	 -2.863990	 -0.283637	 0.575188	 -0.719810	 0.265674	 2
1463629041.444	 9	 -0.692894	 -0.627427	 0.444067	 -0.530691	 -1.372119	 -2.862912	 -0.285850	 0.577215	 -0.716358	 0.268224	 2
1463629041.454	 9	 -0.863915	 -0.340943	 0.572917	 -0.532177	 -1.381893	 -2.860217	 -0.286861	 0.580349	 -0.712677	 0.270180	 2
1463629041.464	 9	 -1.085503	 -0.127817	 0.685537	 -0.531329	 -1.394088	 -2.857602	 -0.286944	 0.584710	 -0.708546	 0.271551	 2
1463629041.474	 9	 -1.371624	 -0.008211	 0.782928	 -0.531854	 -1.409098	 -2.857777	 -0.286603	 0.590323	 -0.703659	 0.272474	 2
1463629041.484	 9	 -1.661009	 0.118673	 0.855903	 -0.536829	 -1.427119	 -2.863653	 -0.285991	 0.597233	 -0.697892	 0.272888	 2
1463629041.494	 9	 -1.789565	 0.193902	 0.911010	 -0.545586	 -1.446908	 -2.874427	 -0.285045	 0.604924	 -0.691624	 0.272897	 2
1463629041.504	 9	 -1.864785	 0.291077	 0.933885	 -0.558421	 -1.467395	 -2.889897	 -0.283861	 0.612906	 -0.685131	 0.272697	 2
1463629041.514	 9	 -1.986363	 0.428490	 1.059850	 -0.575444	 -1.489439	 -2.910993	 -0.282032	 0.621585	 -0.678245	 0.272164	 2
1463629041.524	 9	 -1.920869	 0.582802	 1.245093	 -0.578655	 -1.512301	 -2.919578	 -0.279128	 0.630567	 -0.671268	 0.271793	 2
1463629041.534	 9	 -1.729035	 1.004115	 1.486074	 -0.506887	 -1.534913	 -2.856515	 -0.274102	 0.639676	 -0.664893	 0.271294	 2
1463629041.544	 9	 -1.470672	 1.710434	 1.748311	 -0.015024	 -1.554698	 -2.379736	 -0.265729	 0.649108	 -0.659706	 0.269881	 2
1463629041.554	 9	 -1.171386	 2.486903	 2.020437	 1.395371	 -1.551037	 -0.992069	 -0.253502	 0.658796	 -0.655998	 0.267191	 2
1463629041.564	 9	 -0.923032	 3.271435	 2.357027	 1.742620	 -1.528088	 -0.675474	 -0.237196	 0.668871	 -0.653512	 0.263195	 2
1463629041.574	 9	 -0.756377	 3.914892	 2.713261	 1.834638	 -1.500548	 -0.621091	 -0.217219	 0.679683	 -0.651364	 0.258017	 2
1463629041.584	 9	 -0.718138	 4.331560	 2.984319	 1.880749	 -1.468231	 -0.617585	 -0.193977	 0.691366	 -0.648565	 0.252486	 2
1463629041.594	 9	 -0.824378	 4.321136	 3.117303	 1.903923	 -1.436285	 -0.638090	 -0.170034	 0.702150	 -0.645933	 0.246667	 2
1463629041.604	 9	 -1.044417	 3.865158	 3.071280	 1.935080	 -1.403852	 -0.647046	 -0.147406	 0.712652	 -0.641857	 0.241698	 2
1463629041.614	 9	 -1.334660	 3.139142	 2.866688	 1.972419	 -1.372021	 -0.642975	 -0.127769	 0.722684	 -0.636126	 0.238217	 2
1463629041.624	 9	 -1.657125	 2.194734	 2.600662	 2.012593	 -1.341218	 -0.626878	 -0.112196	 0.732162	 -0.628699	 0.236827	 2
1463629041.634	 9	 -1.976079	 1.121348	 2.297168	 2.052133	 -1.311484	 -0.600465	 -0.101352	 0.741002	 -0.619634	 0.238112	 2
1463629041.644	 9	 -2.209490	 0.129214	 1.939333	 2.088627	 -1.283312	 -0.566374	 -0.095246	 0.749069	 -0.609340	 0.241928	 2
1463629041.654	 9	 -2.276509	 -0.671816	 1.601011	 2.119294	 -1.257290	 -0.529189	 -0.093165	 0.756122	 -0.598510	 0.247762	 2
1463629041.664	 9	 -2.165719	 -1.207663	 1.381907	 2.141241	 -1.233488	 -0.494501	 -0.093753	 0.761950	 -0.587843	 0.255115	 2
1463629041.674	 9	 -1.929604	 -1.534414	 1.300076	 2.153038	 -1.211643	 -0.466444	 -0.095580	 0.766488	 -0.577839	 0.263558	 2
1463629041.684	 9	 -1.785532	 -1.594934	 1.372862	 2.156821	 -1.190441	 -0.445224	 -0.097422	 0.770175	 -0.568313	 0.272690	 2
1463629041.694	 9	 -1.757042	 -1.354469	 1.543242	 2.158020	 -1.168124	 -0.428420	 -0.098108	 0.773909	 -0.558698	 0.281595	 2
1463629041.704	 9	 -1.623428	 -0.905593	 1.601675	 2.159181	 -1.145630	 -0.415981	 -0.097130	 0.777837	 -0.549470	 0.289167	 2
1463629041.714	 9	 -1.368443	 -0.429119	 1.554864	 2.160698	 -1.124557	 -0.408251	 -0.094609	 0.781721	 -0.541290	 0.294901	 2
1463629041.724	 9	 -1.000364	 0.057521	 1.489044	 2.161578	 -1.105958	 -0.406557	 -0.090519	 0.785273	 -0.534731	 0.298689	 2
1463629041.734	 9	 -0.609988	 0.496437	 1.451362	 2.161117	 -1.089901	 -0.411482	 -0.084797	 0.788384	 -0.529933	 0.300717	 2
1463629041.744	 9	 -0.274510	 0.853460	 1.392081	 2.159634	 -1.076217	 -0.421911	 -0.077724	 0.791057	 -0.526726	 0.301243	 2
1463629041.754	 9	 0.026037	 1.076301	 1.295619	 2.157231	 -1.064947	 -0.436376	 -0.069853	 0.793218	 -0.524928	 0.300628	 2
1463629041.764	 9	 0.287339	 1.171214	 1.142889	 2.153771	 -1.056301	 -0.453591	 -0.061779	 0.794755	 -0.524420	 0.299220	 2
1463629041.774	 9	 0.499562	 1.098798	 0.922951	 2.149012	 -1.050555	 -0.472057	 -0.054246	 0.795547	 -0.525066	 0.297435	 2
1463629041.784	 9	 0.686370	 0.888848	 0.647602	 2.142313	 -1.048011	 -0.490680	 -0.047956	 0.795448	 -0.526790	 0.295729	 2
1463629041.794	 9	 0.847396	 0.654409	 0.358394	 2.133588	 -1.048727	 -0.508970	 -0.043174	 0.794462	 -0.529531	 0.294216	 2
1463629041.804	 9	 0.983275	 0.494705	 0.097810	 2.123381	 -1.052406	 -0.526900	 -0.039723	 0.792754	 -0.533181	 0.292714	 2
1463629041.814	 9	 1.081427	 0.418615	 -0.088129	 2.112035	 -1.058333	 -0.544757	 -0.037247	 0.790519	 -0.537528	 0.291129	 2
1463629041.824	 9	 1.161374	 0.499413	 -0.207439	 2.100881	 -1.065682	 -0.563012	 -0.035004	 0.788104	 -0.542371	 0.288964	 2
1463629041.834	 9	 1.276682	 0.594079	 -0.306678	 2.089493	 -1.074363	 -0.582471	 -0.032783	 0.785485	 -0.547766	 0.286167	 2
1463629041.844	 9	 1.420647	 0.644086	 -0.392727	 2.076768	 -1.084377	 -0.604162	 -0.030508	 0.782527	 -0.553817	 0.282855	 2
1463629041.854	 9	 1.593640	 0.503707	 -0.466946	 2.060291	 -1.095727	 -0.628956	 -0.028551	 0.778919	 -0.560579	 0.279681	 2
1463629041.864	 9	 1.711752	 0.229794	 -0.497167	 2.038218	 -1.107887	 -0.657093	 -0.027263	 0.774508	 -0.567867	 0.277348	 2
1463629041.874	 9	 1.731059	 -0.004011	 -0.463275	 2.011278	 -1.119754	 -0.687648	 -0.026564	 0.769561	 -0.575216	 0.276038	 2
1463629041.884	 9	 1.647571	 -0.157121	 -0.343541	 1.981386	 -1.130131	 -0.719402	 -0.026069	 0.764492	 -0.582150	 0.275635	 2
1463629041.894	 9	 1.439917	 -0.192614	 -0.188594	 1.951672	 -1.138031	 -0.750055	 -0.025439	 0.759804	 -0.588160	 0.275896	 2
1463629041.904	 9	 1.076627	 -0.016614	 0.027228	 1.927278	 -1.142566	 -0.776044	 -0.024168	 0.756224	 -0.592648	 0.276241	 2
1463629041.914	 9	 0.649898	 0.446240	 0.319809	 1.913009	 -1.142857	 -0.795172	 -0.021271	 0.754439	 -0.595202	 0.275870	 2
1463629041.924	 9	 0.228444	 1.165038	 0.561438	 1.912131	 -1.139154	 -0.806824	 -0.015990	 0.754829	 -0.595847	 0.273759	 2
1463629041.934	 9	 -0.073436	 1.705542	 0.758801	 1.923285	 -1.132516	 -0.812212	 -0.008580	 0.757088	 -0.594946	 0.269784	 2
1463629041.944	 9	 -0.188318	 1.680021	 1.152830	 1.936027	 -1.122191	 -0.817104	 0.000239	 0.759903	 -0.592957	 0.266362	 2
1463629041.954	 9	 -0.182370	 1.364767	 1.682726	 1.942830	 -1.107047	 -0.825664	 0.010160	 0.762363	 -0.590123	 0.265434	 2
1463629041.964	 9	 -0.045807	 1.016321	 2.088613	 1.941196	 -1.088094	 -0.839950	 0.020955	 0.763920	 -0.587063	 0.267104	 2
1463629041.974	 9	 0.056145	 0.535486	 2.265474	 1.932373	 -1.067401	 -0.857509	 0.031467	 0.764418	 -0.584111	 0.271089	 2
1463629041.984	 9	 0.136070	 -0.018220	 2.357676	 1.917276	 -1.045882	 -0.876219	 0.040906	 0.763818	 -0.581332	 0.277421	 2
1463629041.994	 9	 0.212165	 -0.451959	 2.417989	 1.897242	 -1.023859	 -0.895358	 0.049306	 0.762205	 -0.578778	 0.285706	 2
1463629042.004	 9	 0.245782	 -0.625962	 2.490680	 1.875312	 -1.001109	 -0.914140	 0.057326	 0.759983	 -0.576263	 0.295061	 2
1463629042.024	 10	 0.427771	 -0.309282	 2.526147	 1.834682	 -0.954460	 -0.950902	 0.074567	 0.754869	 -0.571429	 0.313180	 2
1463629042.034	 10	 0.627198	 0.157746	 2.474402	 1.818679	 -0.931837	 -0.971103	 0.084955	 0.752291	 -0.569643	 0.319919	 2
1463629042.044	 10	 0.803271	 0.678844	 2.389260	 1.806813	 -0.910249	 -0.992886	 0.096799	 0.749909	 -0.568372	 0.324376	 2
1463629042.054	 10	 0.957465	 1.093586	 2.295858	 1.798852	 -0.889793	 -1.015818	 0.109812	 0.747736	 -0.567514	 0.326740	 2
1463629042.064	 10	 1.121596	 1.392024	 2.155460	 1.793428	 -0.870814	 -1.040013	 0.123520	 0.745562	 -0.567179	 0.327397	 2
1463629042.074	 10	 1.342169	 1.482518	 1.963610	 1.788493	 -0.853933	 -1.065987	 0.137314	 0.743032	 -0.567682	 0.326779	 2
1463629042.084	 10	 1.592375	 1.337495	 1.720285	 1.781112	 -0.839781	 -1.094312	 0.150351	 0.739651	 -0.569463	 0.325610	 2
1463629042.094	 10	 1.809180	 0.844179	 1.542219	 1.768576	 -0.827858	 -1.124703	 0.161888	 0.735018	 -0.572596	 0.325077	 2
1463629042.104	 10	 1.866834	 0.341581	 1.339875	 1.750408	 -0.817681	 -1.155567	 0.171315	 0.729206	 -0.576807	 0.325890	 2
1463629042.114	 10	 1.620622	 0.120698	 1.141731	 1.732273	 -0.808849	 -1.182811	 0.178877	 0.723531	 -0.580877	 0.327242	 2
1463629042.124	 10	 1.281721	 -0.095414	 0.977478	 1.716220	 -0.800873	 -1.204536	 0.184676	 0.718561	 -0.584168	 0.329109	 2
1463629042.144	 11	 0.866288	 -0.049236	 0.577601	 1.691881	 -0.788965	 -1.235165	 0.192441	 0.710999	 -0.589011	 0.332435	 2
1463629042.154	 11	 0.808996	 0.114986	 0.466657	 1.683964	 -0.785102	 -1.247434	 0.195745	 0.708252	 -0.591022	 0.332800	 2
1463629042.164	 11	 0.949173	 0.189078	 0.473586	 1.676297	 -0.781428	 -1.260793	 0.199420	 0.705415	 -0.593252	 0.332675	 2
1463629042.174	 11	 1.242372	 0.089657	 0.522330	 1.665627	 -0.777481	 -1.277781	 0.203539	 0.701651	 -0.596361	 0.332584	 2
1463629042.184	 11	 1.623820	 -0.248758	 0.504137	 1.648880	 -0.773654	 -1.299585	 0.207424	 0.696330	 -0.600960	 0.333086	 2
1463629042.194	 11	 2.088564	 -0.653575	 0.309815	 1.623781	 -0.771401	 -1.327553	 0.210279	 0.689033	 -0.607820	 0.334022	 2
1463629042.204	 11	 2.184293	 -1.345835	 0.515692	 1.591072	 -0.767681	 -1.358068	 0.211968	 0.679973	 -0.615722	 0.337034	 2
1463629042.214	 11	 2.252454	 -1.776347	 0.724245	 1.552562	 -0.761034	 -1.389129	 0.212753	 0.669429	 -0.623957	 0.342460	 2
1463629042.224	 11	 1.957271	 -1.727435	 1.042736	 1.515943	 -0.750601	 -1.416918	 0.214022	 0.658899	 -0.630993	 0.349133	 2
1463629042.234	 11	 1.449685	 -1.695722	 1.103936	 1.485387	 -0.738556	 -1.437345	 0.215106	 0.649762	 -0.636031	 0.356375	 2
1463629042.244	 11	 0.772139	 -1.913937	 1.392363	 1.459386	 -0.724662	 -1.448285	 0.215064	 0.641970	 -0.638747	 0.365545	 2
1463629042.254	 11	 0.245020	 -2.001913	 1.514434	 1.437900	 -0.709134	 -1.450657	 0.214230	 0.635472	 -0.639239	 0.376370	 2
1463629042.264	 11	 -0.207672	 -2.049309	 1.249362	 1.419965	 -0.696166	 -1.446933	 0.211735	 0.630492	 -0.638568	 0.387142	 2
1463629042.274	 11	 -0.261478	 -1.771577	 0.805861	 1.404884	 -0.687438	 -1.441347	 0.208146	 0.626781	 -0.637801	 0.396270	 2
1463629042.284	 11	 0.124955	 -1.540333	 0.289885	 1.389606	 -0.683313	 -1.440571	 0.204440	 0.623163	 -0.638634	 0.402515	 2
1463629042.294	 11	 0.713108	 -1.614212	 -0.126242	 1.369322	 -0.682569	 -1.447749	 0.200429	 0.618214	 -0.642035	 0.406732	 2
1463629042.304	 11	 1.267584	 -1.912625	 -0.424800	 1.341400	 -0.683594	 -1.463044	 0.195772	 0.611167	 -0.648061	 0.410079	 2
1463629042.314	 11	 1.634778	 -2.360131	 -0.678352	 1.305443	 -0.685771	 -1.484492	 0.189802	 0.602074	 -0.656216	 0.413355	 2
1463629042.324	 11	 1.752451	 -2.858220	 -0.821495	 1.262548	 -0.688508	 -1.508986	 0.181992	 0.591389	 -0.665604	 0.417263	 2
1463629042.334	 11	 1.648377	 -3.234158	 -0.783588	 1.215747	 -0.690562	 -1.532999	 0.172628	 0.579832	 -0.675007	 0.422327	 2
1463629042.344	 11	 1.377542	 -3.396229	 -0.801922	 1.168336	 -0.692533	 -1.554389	 0.161982	 0.568362	 -0.683702	 0.428110	 2
1463629042.354	 11	 0.933313	 -3.280683	 -0.741559	 1.124542	 -0.695195	 -1.570941	 0.150674	 0.558195	 -0.690907	 0.434007	 2
1463629042.364	 11	 0.430511	 -3.242776	 -0.557781	 1.085801	 -0.698103	 -1.580979	 0.139015	 0.549640	 -0.696114	 0.440450	 2
1463629042.374	 11	 -0.088859	 -3.578957	 -0.338971	 1.049145	 -0.701392	 -1.583934	 0.125894	 0.542042	 -0.699406	 0.448523	 2
1463629042.384	 11	 -0.620365	 -4.192970	 -0.156729	 1.014076	 -0.704097	 -1.578185	 0.111133	 0.535047	 -0.700332	 0.459248	 2
1463629042.394	 11	 -1.198061	 -4.781043	 -0.082558	 0.975961	 -0.709637	 -1.566389	 0.092718	 0.528067	 -0.699808	 0.472035	 2
1463629042.414	 12	 -2.144891	 -4.719326	 -0.753671	 0.902651	 -0.735280	 -1.532991	 0.049333	 0.517524	 -0.695378	 0.496170	 2
1463629042.424	 12	 -2.613708	 -4.687972	 -0.872926	 0.868681	 -0.757967	 -1.513955	 0.024508	 0.514670	 -0.691932	 0.505711	 2
1463629042.434	 12	 -2.725742	 -4.781461	 -0.756652	 0.835858	 -0.781818	 -1.492725	 -0.000876	 0.511937	 -0.687260	 0.515357	 2
1463629042.444	 12	 -2.685323	 -4.720832	 -0.593378	 0.803917	 -0.804861	 -1.470800	 -0.025792	 0.508751	 -0.681713	 0.525142	 2
1463629042.454	 12	 -2.590464	 -4.403212	 -0.463357	 0.775091	 -0.826798	 -1.448726	 -0.049214	 0.505652	 -0.675534	 0.534367	 2
1463629042.464	 12	 -2.386900	 -4.106211	 -0.346198	 0.749028	 -0.847104	 -1.427637	 -0.070782	 0.502518	 -0.669145	 0.542872	 2
1463629042.474	 12	 -2.124043	 -3.773497	 -0.120515	 0.725726	 -0.864562	 -1.407224	 -0.090126	 0.499155	 -0.662598	 0.551077	 2
1463629042.484	 12	 -1.857743	 -3.206428	 0.156344	 0.707995	 -0.878510	 -1.386530	 -0.106319	 0.496235	 -0.655912	 0.558773	 2
1463629042.494	 12	 -1.546115	 -2.531014	 0.431685	 0.697127	 -0.888608	 -1.365626	 -0.118824	 0.494150	 -0.649349	 0.565722	 2
1463629042.504	 12	 -1.198698	 -1.799832	 0.785034	 0.694034	 -0.894055	 -1.344065	 -0.127196	 0.493081	 -0.642987	 0.572067	 2
1463629042.514	 12	 -0.869865	 -0.991536	 1.204274	 0.700139	 -0.894302	 -1.320894	 -0.131050	 0.493390	 -0.636718	 0.577911	 2
1463629042.524	 12	 -0.591017	 -0.165910	 1.646491	 0.716175	 -0.889311	 -1.295523	 -0.130339	 0.495399	 -0.630396	 0.583260	 2
1463629042.534	 12	 -0.383205	 0.551271	 2.065937	 0.741401	 -0.879449	 -1.267884	 -0.125513	 0.499132	 -0.623820	 0.588185	 2
1463629042.544	 12	 -0.253583	 1.021579	 2.437939	 0.773243	 -0.865376	 -1.238351	 -0.117600	 0.504156	 -0.616744	 0.592979	 2
1463629042.554	 12	 -0.204658	 1.185294	 2.739581	 0.808276	 -0.847883	 -1.207380	 -0.107899	 0.509773	 -0.608912	 0.598094	 2
1463629042.564	 12	 -0.233300	 1.062313	 2.929457	 0.842934	 -0.828156	 -1.175679	 -0.097811	 0.515259	 -0.600238	 0.603867	 2
1463629042.574	 12	 -0.328240	 0.749647	 3.042477	 0.874764	 -0.807263	 -1.143516	 -0.088420	 0.520098	 -0.590685	 0.610550	 2
1463629042.584	 12	 -0.424888	 0.343026	 3.105612	 0.902358	 -0.785810	 -1.111181	 -0.080279	 0.523953	 -0.580330	 0.618260	 2
1463629042.594	 12	 -0.463652	 -0.041153	 3.206819	 0.925372	 -0.763448	 -1.078975	 -0.073221	 0.526637	 -0.569259	 0.627086	 2
1463629042.604	 12	 -0.443239	 -0.341323	 3.329608	 0.944403	 -0.739583	 -1.047233	 -0.066688	 0.528219	 -0.557563	 0.636915	 2
1463629042.614	 12	 -0.403629	 -0.612046	 3.414137	 0.959460	 -0.714312	 -1.016294	 -0.060564	 0.528682	 -0.545369	 0.647611	 2
1463629042.624	 12	 -0.241386	 -0.795772	 3.371581	 0.970270	 -0.688126	 -0.987911	 -0.054590	 0.527993	 -0.533321	 0.658644	 2
1463629042.634	 12	 0.045479	 -1.055160	 3.359210	 0.975720	 -0.660577	 -0.963434	 -0.048451	 0.525669	 -0.521850	 0.670072	 2
1463629042.644	 12	 0.363979	 -1.277541	 3.475864	 0.976150	 -0.630477	 -0.942259	 -0.041654	 0.521545	 -0.510689	 0.682241	 2
1463629042.654	 12	 0.622868	 -1.292964	 3.653580	 0.974124	 -0.597480	 -0.923197	 -0.033651	 0.516327	 -0.499487	 0.694828	 2
1463629042.664	 12	 0.826829	 -1.205970	 3.851912	 0.971637	 -0.561680	 -0.905307	 -0.024196	 0.510649	 -0.487980	 0.707480	 2
1463629042.674	 12	 0.989762	 -1.181936	 4.005252	 0.968654	 -0.523538	 -0.888256	 -0.013562	 0.504524	 -0.476106	 0.720135	 2
1463629042.684	 12	 1.131375	 -1.288380	 4.050988	 0.963805	 -0.484010	 -0.872307	 -0.002389	 0.497548	 -0.464108	 0.732833	 2
1463629042.694	 12	 1.268017	 -1.441429	 3.974836	 0.956198	 -0.444159	 -0.857952	 0.008829	 0.489470	 -0.452389	 0.745443	 2
1463629042.704	 12	 1.401328	 -1.540925	 3.802228	 0.946062	 -0.404882	 -0.845653	 0.019907	 0.480424	 -0.441355	 0.757629	 2
1463629042.714	 12	 1.500696	 -1.554532	 3.579557	 0.934352	 -0.366794	 -0.835406	 0.030804	 0.470796	 -0.431191	 0.769075	 2
1463629042.724	 12	 1.538719	 -1.456238	 3.362725	 0.922454	 -0.330270	 -0.826708	 0.041526	 0.461152	 -0.421814	 0.779543	 2
1463629042.744	 12	 1.432542	 -1.158635	 3.144741	 0.902111	 -0.261511	 -0.810339	 0.062518	 0.443456	 -0.403958	 0.797657	 2
1463629042.734	 12	 1.506904	 -1.283900	 3.207939	 0.911655	 -0.295311	 -0.818657	 0.052107	 0.452019	 -0.412881	 0.788982	 2
1463629042.754	 12	 1.354673	 -1.149908	 3.143368	 0.892865	 -0.228398	 -0.801219	 0.072632	 0.435060	 -0.394771	 0.805980	 2
1463629042.764	 12	 1.274287	 -1.231501	 3.152901	 0.882914	 -0.195798	 -0.791150	 0.082303	 0.426428	 -0.385264	 0.814222	 2
1463629042.774	 12	 1.213842	 -1.384413	 3.162662	 0.871472	 -0.163664	 -0.780213	 0.091438	 0.417240	 -0.375508	 0.822523	 2
1463629042.784	 12	 1.206227	 -1.659706	 3.184679	 0.857352	 -0.131671	 -0.768627	 0.100035	 0.406945	 -0.365611	 0.831094	 2
1463629042.794	 12	 1.269437	 -2.052425	 3.176211	 0.839218	 -0.099539	 -0.756891	 0.108121	 0.394893	 -0.355840	 0.840088	 2
1463629042.804	 12	 1.365303	 -2.473431	 3.093658	 0.816478	 -0.067501	 -0.745641	 0.115676	 0.380792	 -0.346596	 0.849404	 2
1463629042.814	 12	 1.454705	 -2.846022	 2.938075	 0.789438	 -0.036100	 -0.735243	 0.122635	 0.364784	 -0.338184	 0.858792	 2
1463629042.824	 12	 1.531634	 -3.094597	 2.718742	 0.759241	 -0.005868	 -0.725977	 0.129029	 0.347388	 -0.330805	 0.867895	 2
1463629042.834	 12	 1.599332	 -3.243344	 2.474840	 0.727060	 0.022947	 -0.718021	 0.134962	 0.329116	 -0.324546	 0.876435	 2
1463629042.844	 12	 1.672814	 -3.304825	 2.240227	 0.693882	 0.050466	 -0.711384	 0.140613	 0.310375	 -0.319344	 0.884259	 2
1463629042.864	 12	 1.882060	 -3.160653	 1.818755	 0.628847	 0.101415	 -0.702455	 0.151525	 0.273431	 -0.312045	 0.897164	 2
1463629042.854	 12	 1.773371	 -3.291851	 2.016727	 0.660544	 0.077064	 -0.706179	 0.146252	 0.291467	 -0.315145	 0.891258	 2
1463629042.874	 12	 1.967956	 -2.915309	 1.658279	 0.599551	 0.125451	 -0.699907	 0.157306	 0.256328	 -0.309531	 0.902076	 2
1463629042.884	 12	 1.995786	 -2.584296	 1.554534	 0.572996	 0.150113	 -0.697842	 0.163938	 0.240227	 -0.307112	 0.906145	 2
1463629042.894	 12	 1.956761	 -2.232371	 1.520847	 0.549404	 0.174893	 -0.695377	 0.171103	 0.225413	 -0.304424	 0.909527	 2
1463629042.904	 12	 1.880451	 -1.896035	 1.522509	 0.529002	 0.199010	 -0.692018	 0.178427	 0.212198	 -0.301301	 0.912334	 2
1463629042.914	 12	 1.808176	 -1.603368	 1.517336	 0.511387	 0.222398	 -0.687809	 0.185824	 0.200438	 -0.297766	 0.914675	 2
1463629042.924	 12	 1.764310	 -1.361081	 1.469882	 0.496151	 0.245080	 -0.683235	 0.193286	 0.189919	 -0.294042	 0.916575	 2
1463629042.934	 12	 1.775313	 -1.221319	 1.386891	 0.482597	 0.267319	 -0.678971	 0.200882	 0.180224	 -0.290443	 0.918046	 2
1463629042.944	 12	 1.793482	 -1.122200	 1.275750	 0.470167	 0.289204	 -0.675447	 0.208591	 0.171041	 -0.287195	 0.919105	 2
1463629042.954	 12	 1.795212	 -1.106068	 1.154388	 0.458318	 0.310575	 -0.672776	 0.216257	 0.162130	 -0.284418	 0.919811	 2
1463629042.964	 12	 1.794477	 -1.149580	 1.020770	 0.446553	 0.331271	 -0.671011	 0.223728	 0.153280	 -0.282206	 0.920223	 2
1463629042.974	 12	 1.955415	 -1.538132	 0.893190	 0.432010	 0.352530	 -0.670806	 0.231188	 0.142874	 -0.281030	 0.920414	 2
1463629042.984	 12	 1.967007	 -1.545813	 0.865308	 0.416300	 0.374106	 -0.671096	 0.238663	 0.131808	 -0.280273	 0.920388	 2
1463629042.994	 12	 1.785024	 -1.081802	 0.976702	 0.403661	 0.394720	 -0.669671	 0.246029	 0.122528	 -0.278570	 0.920248	 2
1463629043.004	 12	 1.614069	 -0.782546	 1.106735	 0.393843	 0.414100	 -0.665846	 0.253106	 0.115074	 -0.275633	 0.920175	 2
1463629043.014	 12	 1.560713	 -0.837218	 1.172768	 0.383601	 0.433008	 -0.660586	 0.259860	 0.107721	 -0.272204	 0.920203	 2
1463629043.024	 12	 1.561891	 -1.043530	 1.177233	 0.371233	 0.451869	 -0.654827	 0.266316	 0.099502	 -0.268891	 0.920257	 2
1463629043.034	 12	 1.532371	 -1.163885	 1.142266	 0.357176	 0.470407	 -0.648944	 0.272441	 0.090621	 -0.265862	 0.920261	 2
1463629043.044	 12	 1.436268	 -1.120474	 1.076363	 0.343045	 0.487901	 -0.643007	 0.278137	 0.081938	 -0.263024	 0.920187	 2
1463629043.054	 12	 1.317928	 -1.001815	 0.964461	 0.330041	 0.503889	 -0.637373	 0.283364	 0.074031	 -0.260417	 0.920004	 2
1463629043.064	 12	 1.251713	 -0.890990	 0.820060	 0.318555	 0.518597	 -0.632664	 0.288286	 0.066944	 -0.258228	 0.919635	 2
1463629043.074	 12	 1.251681	 -0.764508	 0.661373	 0.308943	 0.532633	 -0.629409	 0.293220	 0.060650	 -0.256564	 0.918977	 2
1463629043.084	 12	 1.278463	 -0.650516	 0.551361	 0.301199	 0.546483	 -0.627477	 0.298361	 0.055074	 -0.255294	 0.918027	 2
1463629043.094	 12	 1.282799	 -0.599789	 0.508099	 0.294397	 0.560276	 -0.626116	 0.303614	 0.049870	 -0.254183	 0.916909	 2
1463629043.104	 12	 1.230375	 -0.619912	 0.498776	 0.287526	 0.573663	 -0.624686	 0.308675	 0.044727	 -0.253123	 0.915777	 2
1463629043.114	 12	 1.101844	 -0.714241	 0.492623	 0.279638	 0.585978	 -0.622820	 0.313122	 0.039378	 -0.252167	 0.914776	 2
1463629043.124	 12	 0.908944	 -0.864884	 0.468388	 0.270075	 0.596497	 -0.620456	 0.316556	 0.033654	 -0.251471	 0.914014	 2
1463629043.134	 12	 0.695464	 -1.069799	 0.432104	 0.258340	 0.604875	 -0.617660	 0.318767	 0.027372	 -0.251181	 0.913535	 2
1463629043.144	 12	 0.503274	 -1.287525	 0.397647	 0.244221	 0.611205	 -0.614540	 0.319775	 0.020401	 -0.251364	 0.913315	 2
1463629043.154	 12	 0.347702	 -1.439375	 0.368813	 0.228200	 0.615819	 -0.611175	 0.319789	 0.012886	 -0.251933	 0.913290	 2
1463629043.164	 12	 0.235301	 -1.488184	 0.339496	 0.211393	 0.619117	 -0.607715	 0.319126	 0.005242	 -0.252724	 0.913379	 2
1463629043.174	 12	 0.166931	 -1.478623	 0.310339	 0.194587	 0.621534	 -0.604336	 0.318078	 -0.002273	 -0.253638	 0.913504	 2
1463629043.184	 12	 0.124514	 -1.393649	 0.277395	 0.178567	 0.623370	 -0.601186	 0.316874	 -0.009374	 -0.254581	 0.913614	 2
1463629043.194	 12	 0.105736	 -1.274708	 0.244561	 0.163861	 0.624884	 -0.598348	 0.315697	 -0.015874	 -0.255483	 0.913681	 2
1463629043.204	 12	 0.080551	 -1.155756	 0.210717	 0.150543	 0.626105	 -0.595854	 0.314565	 -0.021750	 -0.256343	 0.913709	 2
1463629043.214	 12	 0.024425	 -1.035647	 0.177153	 0.138604	 0.626777	 -0.593658	 0.313362	 -0.026960	 -0.257162	 0.913753	 2
1463629043.224	 12	 -0.057287	 -0.903815	 0.136461	 0.128112	 0.626616	 -0.591793	 0.311965	 -0.031439	 -0.257962	 0.913863	 2
1463629043.234	 12	 -0.119913	 -0.832369	 0.136605	 0.118663	 0.625721	 -0.590007	 0.310371	 -0.035347	 -0.258681	 0.914059	 2
1463629043.244	 12	 -0.128323	 -0.804696	 0.135870	 0.109438	 0.624582	 -0.588128	 0.308696	 -0.039106	 -0.259330	 0.914289	 2
1463629043.254	 12	 -0.069742	 -0.810344	 0.113992	 0.100459	 0.623835	 -0.586543	 0.307225	 -0.042859	 -0.260039	 0.914416	 2
1463629043.264	 12	 0.032206	 -0.887475	 0.079348	 0.091193	 0.623977	 -0.585459	 0.306107	 -0.046949	 -0.260955	 0.914329	 2
1463629043.274	 12	 0.122141	 -1.017792	 0.038985	 0.081076	 0.625031	 -0.584957	 0.305274	 -0.051648	 -0.262204	 0.913996	 2
1463629043.284	 12	 0.176864	 -1.138508	 -0.011640	 0.070029	 0.626675	 -0.585092	 0.304563	 -0.056950	 -0.263849	 0.913445	 2
1463629043.294	 12	 0.207483	 -1.166611	 -0.061193	 0.058832	 0.628645	 -0.585867	 0.303951	 -0.062459	 -0.265790	 0.912726	 2
1463629043.314	 13	 0.210527	 -0.931926	 -0.111258	 0.039220	 0.632843	 -0.588378	 0.303146	 -0.072376	 -0.269676	 0.911120	 2
1463629043.324	 13	 0.189039	 -0.703471	 -0.150510	 0.032697	 0.634744	 -0.590200	 0.303058	 -0.075889	 -0.271393	 0.910353	 2
1463629043.334	 13	 0.164147	 -0.529154	 -0.176381	 0.028326	 0.636384	 -0.592393	 0.303123	 -0.078441	 -0.272967	 0.909644	 2
1463629043.344	 13	 0.166719	 -0.434518	 -0.178720	 0.025156	 0.637959	 -0.594671	 0.303313	 -0.080449	 -0.274402	 0.908974	 2
1463629043.354	 13	 0.210445	 -0.427101	 -0.171486	 0.036623	 0.662599	 -0.605627	 0.315584	 -0.080455	 -0.276258	 0.904221	 2
1463629043.364	 13	 0.255222	 -0.466328	 -0.136005	 0.033300	 0.664991	 -0.607586	 0.316121	 -0.082610	 -0.277533	 0.903448	 2
1463629043.374	 13	 0.289202	 -0.541603	 -0.089042	 0.028959	 0.667770	 -0.608989	 0.316709	 -0.085192	 -0.278698	 0.902643	 2
1463629043.384	 13	 0.308138	 -0.642331	 -0.037922	 0.023268	 0.670794	 -0.609740	 0.317242	 -0.088313	 -0.279772	 0.901824	 2
1463629043.394	 13	 0.313215	 -0.744040	 0.018645	 0.016412	 0.675308	 -0.609968	 0.318301	 -0.092086	 -0.280720	 0.900778	 2
1463629043.404	 13	 0.304595	 -0.803217	 0.068261	 0.008096	 0.678386	 -0.609311	 0.318547	 -0.096163	 -0.281586	 0.899994	 2
1463629043.414	 13	 0.311368	 -0.779365	 0.133435	 -0.000810	 0.681486	 -0.607803	 0.318759	 -0.100368	 -0.282170	 0.899277	 2
1463629043.424	 13	 0.303642	 -0.630240	 0.160468	 -0.008804	 0.684533	 -0.605762	 0.319106	 -0.104063	 -0.282378	 0.898669	 2
1463629043.434	 13	 0.287220	 -0.469786	 0.134451	 -0.019177	 0.695090	 -0.601259	 0.322631	 -0.109462	 -0.281524	 0.897035	 2
1463629043.444	 13	 0.244996	 -0.332793	 0.088134	 -0.023699	 0.697644	 -0.599884	 0.323218	 -0.111619	 -0.281521	 0.896559	 2
1463629043.454	 13	 0.146147	 -0.205242	 0.036894	 -0.026528	 0.699369	 -0.599172	 0.323635	 -0.113007	 -0.281581	 0.896215	 2
1463629043.464	 13	 0.019451	 -0.087310	 -0.030144	 -0.032389	 0.703611	 -0.596228	 0.324886	 -0.115731	 -0.281026	 0.895589	 2
1463629043.474	 13	 -0.094669	 -0.015149	 -0.098819	 -0.031968	 0.702958	 -0.597326	 0.324588	 -0.115633	 -0.281478	 0.895568	 2
1463629043.484	 13	 -0.168689	 -0.045188	 -0.164620	 -0.028874	 0.687077	 -0.600673	 0.317689	 -0.112620	 -0.283171	 0.897889	 2
1463629043.494	 13	 -0.188703	 -0.165750	 -0.224184	 -0.028437	 0.685274	 -0.603448	 0.316783	 -0.112616	 -0.284426	 0.897813	 2
