% Gyrometer data recorded with 'snsrlog'
% 
% 
% Label description:
% 	 0: Default Label
% 	 1: still_drop
% 	 2: walk_drop
% 	 3: other
% 	 4: dtw_same
% 	 5: dtw_diff
% 	 6: delete
% 
% Column description:
% 	 1: Seconds.milliseconds since 1970
% 	 2: Number of skipped measurements
% 	 3: Gyro X
% 	 4: Gyro Y
% 	 5: Gyro Z
% 	 6: Roll of the device
% 	 7: Pitch of the device
% 	 8: Yaw of the device
% 	 9: Quaternion X
% 	 10: Quaternion Y
% 	 11: Quaternion Z
% 	 12: Quaternion W
% 	 13: Label used for the current sample
% 
% 
1462091860.136	 0	 -1.837915	 0.893241	 -1.071988	 0.298130	 0.516721	 0.197602	 0.237267	 0.167807	 0.132068	 0.947683	 2
1462091860.146	 0	 -1.897920	 1.224798	 -0.989514	 0.312017	 0.495626	 0.193021	 0.226663	 0.173278	 0.130217	 0.949548	 2
1462091860.156	 0	 -1.816753	 1.343660	 -0.846303	 0.326536	 0.475356	 0.190068	 0.216277	 0.179306	 0.129095	 0.951004	 2
1462091860.166	 0	 -1.678773	 1.546120	 -0.739044	 0.342180	 0.456658	 0.188317	 0.206465	 0.186074	 0.128609	 0.951950	 2
1462091860.176	 0	 -1.527570	 1.906417	 -0.714627	 0.360887	 0.439519	 0.186841	 0.197182	 0.194391	 0.128515	 0.952269	 2
1462091860.186	 0	 -1.440213	 2.635083	 -0.813052	 0.386041	 0.423125	 0.184686	 0.187916	 0.205752	 0.128591	 0.951745	 2
1462091860.196	 0	 -1.488157	 3.246631	 -0.982794	 0.418614	 0.405952	 0.181479	 0.177932	 0.220547	 0.128531	 0.950357	 2
1462091860.206	 0	 -1.746835	 3.488981	 -1.108310	 0.454062	 0.386265	 0.178532	 0.166571	 0.236692	 0.128274	 0.948565	 2
1462091860.216	 0	 -2.132002	 3.780072	 -1.164062	 0.491610	 0.362939	 0.177370	 0.153164	 0.253905	 0.128240	 0.946376	 2
1462091860.226	 0	 -2.607554	 4.090999	 -1.161294	 0.531503	 0.335353	 0.179382	 0.137191	 0.272334	 0.128870	 0.943613	 2
1462091860.246	 1	 -3.455379	 5.016694	 -1.308360	 0.619697	 0.268385	 0.194011	 0.097554	 0.313094	 0.132015	 0.935429	 2
1462091860.256	 1	 -3.493108	 5.548295	 -1.498119	 0.671372	 0.231679	 0.203877	 0.075266	 0.336616	 0.133315	 0.929114	 2
1462091860.266	 1	 -3.150015	 6.080605	 -1.729555	 0.729131	 0.196006	 0.212234	 0.053318	 0.362519	 0.133172	 0.920870	 2
1462091860.276	 1	 -2.581070	 6.297482	 -1.953104	 0.790861	 0.163096	 0.217366	 0.033084	 0.389814	 0.130959	 0.910934	 2
1462091860.286	 1	 -1.912897	 6.236874	 -2.120415	 0.853363	 0.133632	 0.218439	 0.015408	 0.417094	 0.126475	 0.899889	 2
1462091860.296	 1	 -1.149873	 6.040782	 -2.158725	 0.914649	 0.108362	 0.215147	 0.000971	 0.443570	 0.119965	 0.888174	 2
1462091860.306	 1	 -0.344777	 5.865424	 -2.107684	 0.974362	 0.088050	 0.207023	 -0.009642	 0.469198	 0.111710	 0.875946	 2
1462091860.316	 1	 0.262655	 5.899886	 -2.096665	 1.034200	 0.070941	 0.194683	 -0.017335	 0.494708	 0.101877	 0.862893	 2
1462091860.326	 1	 0.793718	 5.957564	 -1.995242	 1.094534	 0.056439	 0.179019	 -0.022498	 0.520220	 0.090928	 0.848880	 2
1462091860.336	 1	 1.300250	 6.211304	 -1.854479	 1.156864	 0.044407	 0.160275	 -0.025224	 0.546311	 0.079111	 0.833456	 2
1462091860.346	 1	 1.895413	 6.463830	 -1.698513	 1.221776	 0.034760	 0.137618	 -0.025229	 0.573130	 0.066256	 0.816392	 2
1462091860.356	 1	 2.515983	 6.734893	 -1.616133	 1.289239	 0.026576	 0.110085	 -0.022450	 0.600516	 0.051943	 0.797608	 2
1462091860.376	 2	 3.477366	 7.282990	 -1.767544	 1.432093	 0.006714	 0.041530	 -0.011097	 0.656315	 0.017867	 0.754194	 2
1462091860.386	 2	 3.808629	 7.375787	 -2.037071	 1.505734	 -0.008998	 0.002407	 -0.004106	 0.683722	 -0.002198	 0.729727	 2
1462091860.396	 2	 3.954469	 7.406510	 -2.434519	 1.578906	 -0.031161	 -0.037515	 0.002345	 0.709963	 -0.024267	 0.703817	 2
1462091860.406	 2	 3.970586	 7.345843	 -2.873252	 1.650861	 -0.060509	 -0.075949	 0.007384	 0.734753	 -0.047951	 0.676598	 2
1462091860.416	 2	 4.153726	 7.137165	 -3.267923	 1.720009	 -0.096726	 -0.113043	 0.011271	 0.757532	 -0.073393	 0.648561	 2
1462091860.436	 3	 4.853899	 5.779554	 -3.779035	 1.837093	 -0.186896	 -0.188055	 0.017902	 0.793075	 -0.130569	 0.594696	 2
1462091860.446	 3	 5.146612	 4.779401	 -3.856967	 1.879235	 -0.238163	 -0.226734	 0.021029	 0.804400	 -0.161577	 0.571307	 2
1462091860.466	 4	 4.908349	 2.906062	 -3.851009	 1.930052	 -0.344985	 -0.300439	 0.024571	 0.815370	 -0.223457	 0.533512	 2
1462091860.476	 4	 4.384884	 2.020276	 -3.741723	 1.941248	 -0.396360	 -0.331326	 0.023748	 0.816346	 -0.251567	 0.519355	 2
1462091860.486	 4	 3.765778	 1.276806	 -3.699555	 1.945467	 -0.445098	 -0.356573	 0.020644	 0.815309	 -0.276904	 0.508104	 2
1462091860.496	 4	 3.180714	 0.684888	 -3.865162	 1.945130	 -0.492711	 -0.375566	 0.014674	 0.812936	 -0.299938	 0.498957	 2
1462091860.506	 4	 2.706895	 0.260780	 -4.165528	 1.942253	 -0.541032	 -0.388617	 0.005624	 0.809651	 -0.321462	 0.491015	 2
1462091860.516	 4	 2.352324	 0.001209	 -4.462204	 1.938530	 -0.590784	 -0.396671	 -0.006098	 0.805758	 -0.341985	 0.483490	 2
1462091860.526	 4	 2.179058	 -0.204437	 -4.583040	 1.933939	 -0.641309	 -0.401939	 -0.019415	 0.801213	 -0.361797	 0.476219	 2
1462091860.536	 4	 2.221160	 -0.384886	 -4.515811	 1.926963	 -0.691568	 -0.407762	 -0.032987	 0.795738	 -0.381267	 0.469414	 2
1462091860.546	 4	 2.446387	 -0.572092	 -4.279717	 1.915202	 -0.740568	 -0.417636	 -0.045687	 0.788996	 -0.400736	 0.463474	 2
1462091860.556	 4	 2.726786	 -0.704325	 -3.921030	 1.897037	 -0.787253	 -0.434082	 -0.056721	 0.780949	 -0.420255	 0.458571	 2
1462091860.566	 4	 2.926887	 -0.729408	 -3.486043	 1.872625	 -0.830358	 -0.457726	 -0.065665	 0.771983	 -0.439437	 0.454561	 2
1462091860.576	 4	 2.977407	 -0.760704	 -3.088179	 1.842922	 -0.869289	 -0.487280	 -0.072818	 0.762515	 -0.457788	 0.451330	 2
1462091860.586	 4	 2.884015	 -0.865992	 -2.831497	 1.808876	 -0.904600	 -0.520414	 -0.079144	 0.752735	 -0.475020	 0.448868	 2
1462091860.596	 4	 2.602415	 -0.974596	 -2.668060	 1.772698	 -0.936852	 -0.553918	 -0.085543	 0.743016	 -0.490718	 0.446996	 2
1462091860.616	 5	 2.042606	 -1.243137	 -2.231920	 1.698552	 -0.991795	 -0.616234	 -0.099227	 0.724577	 -0.516609	 0.445261	 2
1462091860.626	 5	 2.180236	 -1.485083	 -1.952942	 1.654631	 -1.014180	 -0.651547	 -0.105474	 0.714839	 -0.528044	 0.446150	 2
1462091860.636	 5	 2.483138	 -1.963800	 -1.696791	 1.598484	 -1.033022	 -0.695831	 -0.111193	 0.703368	 -0.539504	 0.449272	 2
1462091860.646	 5	 2.650240	 -2.600610	 -1.589069	 1.529142	 -1.048920	 -0.747965	 -0.117500	 0.689793	 -0.550883	 0.454871	 2
1462091860.656	 5	 2.556505	 -3.224819	 -1.608982	 1.450407	 -1.062800	 -0.803157	 -0.125549	 0.674557	 -0.561552	 0.462460	 2
1462091860.666	 5	 2.153929	 -3.772094	 -1.558347	 1.368485	 -1.074748	 -0.855030	 -0.135824	 0.658585	 -0.570432	 0.471620	 2
1462091860.676	 5	 1.500706	 -4.167765	 -1.383688	 1.290994	 -1.084720	 -0.896451	 -0.148281	 0.643044	 -0.576341	 0.482015	 2
1462091860.686	 5	 0.906314	 -4.219939	 -1.045415	 1.222845	 -1.092366	 -0.925708	 -0.161555	 0.628817	 -0.579217	 0.492948	 2
1462091860.696	 5	 0.301737	 -4.079451	 -0.544330	 1.169128	 -1.097080	 -0.939746	 -0.174532	 0.616735	 -0.578759	 0.504196	 2
1462091860.706	 5	 0.051343	 -3.759013	 -0.019076	 1.127753	 -1.098052	 -0.943068	 -0.185833	 0.606521	 -0.575983	 0.515598	 2
1462091860.716	 5	 -0.098689	 -3.402927	 0.475795	 1.096973	 -1.095136	 -0.938396	 -0.194946	 0.597932	 -0.571542	 0.527080	 2
1462091860.726	 5	 -0.290799	 -3.081293	 0.896107	 1.076610	 -1.089221	 -0.925871	 -0.202169	 0.591001	 -0.565607	 0.538456	 2
1462091860.736	 5	 -0.557409	 -2.889663	 1.252979	 1.066055	 -1.081354	 -0.904601	 -0.208334	 0.585596	 -0.557966	 0.549862	 2
1462091860.746	 5	 -0.445342	 -2.609983	 1.731002	 1.061874	 -1.069974	 -0.878695	 -0.212611	 0.581226	 -0.549174	 0.561587	 2
1462091860.756	 5	 0.258293	 -2.199749	 2.410781	 1.057323	 -1.050092	 -0.857584	 -0.212180	 0.576883	 -0.540586	 0.574414	 2
1462091860.766	 5	 0.713906	 -1.967622	 2.923737	 1.051398	 -1.022437	 -0.841142	 -0.207614	 0.572297	 -0.532117	 0.588408	 2
1462091860.776	 5	 0.269147	 -2.046008	 3.081415	 1.049295	 -0.993690	 -0.819847	 -0.202872	 0.568277	 -0.522209	 0.602663	 2
1462091860.786	 5	 -0.745891	 -2.068636	 3.070859	 1.057586	 -0.969342	 -0.784837	 -0.200992	 0.566299	 -0.509347	 0.616014	 2
1462091860.796	 5	 -1.364361	 -1.841334	 2.924889	 1.074487	 -0.949507	 -0.740707	 -0.201348	 0.566453	 -0.494644	 0.627628	 2
1462091860.806	 5	 -1.399507	 -1.318416	 2.858655	 1.095294	 -0.930737	 -0.696817	 -0.201246	 0.568151	 -0.480094	 0.637349	 2
1462091860.816	 5	 -1.319424	 -0.510285	 2.715205	 1.119989	 -0.911969	 -0.656620	 -0.199383	 0.571737	 -0.466691	 0.644641	 2
1462091860.826	 5	 -1.262716	 0.487909	 2.371233	 1.150456	 -0.895003	 -0.620980	 -0.195869	 0.577934	 -0.455265	 0.648353	 2
1462091860.836	 5	 -1.011873	 1.395913	 1.842485	 1.184030	 -0.881175	 -0.592753	 -0.191051	 0.586093	 -0.446819	 0.648342	 2
1462091860.846	 5	 -0.459259	 2.328794	 1.492521	 1.218602	 -0.868859	 -0.574997	 -0.183783	 0.595696	 -0.441917	 0.645042	 2
1462091860.856	 5	 0.309241	 3.273045	 1.477564	 1.253276	 -0.854690	 -0.569263	 -0.172342	 0.606483	 -0.440266	 0.639251	 2
1462091860.866	 5	 1.001184	 4.329634	 1.668946	 1.290118	 -0.836782	 -0.574240	 -0.155781	 0.618833	 -0.441050	 0.631073	 2
1462091860.876	 5	 1.381213	 5.300121	 1.887820	 1.332294	 -0.815699	 -0.585919	 -0.134731	 0.633159	 -0.443086	 0.620187	 2
1462091860.886	 5	 1.468590	 5.998072	 2.100312	 1.380476	 -0.792544	 -0.600184	 -0.110693	 0.649110	 -0.445057	 0.606900	 2
1462091860.896	 5	 1.454900	 6.272441	 2.089129	 1.431912	 -0.769400	 -0.615566	 -0.085528	 0.665555	 -0.446594	 0.591841	 2
1462091860.906	 5	 1.387253	 6.192799	 2.079385	 1.483134	 -0.747165	 -0.631681	 -0.060476	 0.681343	 -0.447565	 0.576021	 2
1462091860.916	 5	 1.195576	 5.917120	 1.974044	 1.532947	 -0.726286	 -0.646775	 -0.036581	 0.696072	 -0.447593	 0.560184	 2
1462091860.926	 5	 0.972402	 5.371814	 1.782273	 1.579496	 -0.707855	 -0.660080	 -0.014945	 0.709282	 -0.446871	 0.544978	 2
1462091860.936	 5	 0.724607	 4.538734	 1.644524	 1.620062	 -0.691332	 -0.670989	 0.003777	 0.720385	 -0.445304	 0.531728	 2
1462091860.946	 5	 0.460011	 3.535547	 1.509601	 1.652874	 -0.676264	 -0.679101	 0.019192	 0.729111	 -0.442934	 0.521381	 2
1462091860.956	 5	 0.191259	 2.359807	 1.339005	 1.676415	 -0.662751	 -0.684043	 0.030795	 0.735258	 -0.439971	 0.514658	 2
1462091860.966	 5	 -0.085958	 1.173681	 1.199293	 1.690096	 -0.650503	 -0.685580	 0.038491	 0.738833	 -0.436499	 0.511970	 2
1462091860.976	 5	 -0.367352	 0.196350	 1.103124	 1.695525	 -0.638968	 -0.683631	 0.042824	 0.740336	 -0.432436	 0.512901	 2
1462091860.986	 5	 -0.590740	 -0.491701	 1.027261	 1.695120	 -0.627931	 -0.678541	 0.044554	 0.740398	 -0.427809	 0.516531	 2
1462091860.996	 5	 -0.633149	 -0.859802	 0.997561	 1.690866	 -0.617219	 -0.672343	 0.044951	 0.739473	 -0.423053	 0.521714	 2
1462091861.006	 5	 -0.540665	 -0.926104	 0.985481	 1.684796	 -0.606735	 -0.666813	 0.045156	 0.738028	 -0.418556	 0.527338	 2
1462091861.016	 5	 -0.339078	 -0.689801	 0.945425	 1.679038	 -0.596795	 -0.663343	 0.046027	 0.736587	 -0.414745	 0.532267	 2
1462091861.026	 5	 -0.058008	 -0.150331	 0.942669	 1.676287	 -0.587313	 -0.662929	 0.048506	 0.735848	 -0.411811	 0.535337	 2
1462091861.036	 5	 0.304841	 0.475539	 1.007148	 1.677369	 -0.577705	 -0.666691	 0.053356	 0.736008	 -0.409858	 0.536155	 2
1462091861.046	 5	 0.674275	 1.133355	 1.079327	 1.682610	 -0.567820	 -0.675001	 0.060820	 0.737114	 -0.408906	 0.534566	 2
1462091861.056	 5	 0.982553	 1.675814	 1.206385	 1.691418	 -0.557168	 -0.687325	 0.070743	 0.738959	 -0.408625	 0.531000	 2
1462091861.066	 5	 1.107451	 2.222451	 1.102743	 1.704763	 -0.547181	 -0.701690	 0.082121	 0.741814	 -0.408823	 0.525197	 2
1462091861.076	 5	 1.138167	 2.669929	 0.780516	 1.722961	 -0.540211	 -0.716262	 0.093571	 0.745816	 -0.409653	 0.516902	 2
1462091861.086	 5	 1.065260	 2.858280	 0.470635	 1.744269	 -0.536603	 -0.729827	 0.104200	 0.750543	 -0.410941	 0.506907	 2
1462091861.096	 5	 0.868247	 2.650106	 0.284970	 1.765822	 -0.535144	 -0.741073	 0.113341	 0.755317	 -0.412131	 0.496789	 2
1462091861.106	 5	 0.564657	 2.150574	 0.212625	 1.784650	 -0.534261	 -0.748945	 0.120488	 0.759479	 -0.412687	 0.488224	 2
1462091861.116	 5	 0.071774	 1.668616	 0.287035	 1.800902	 -0.532243	 -0.752037	 0.125656	 0.763201	 -0.411791	 0.481833	 2
1462091861.126	 5	 -0.709883	 1.407447	 0.476853	 1.817483	 -0.526875	 -0.747625	 0.129058	 0.767386	 -0.407941	 0.477542	 2
1462091861.136	 5	 -1.637940	 1.897686	 0.529995	 1.841904	 -0.518263	 -0.733537	 0.131247	 0.774009	 -0.400177	 0.472803	 2
1462091861.146	 5	 -2.270988	 2.175079	 0.685163	 1.873947	 -0.506001	 -0.711845	 0.132886	 0.782880	 -0.388847	 0.467160	 2
1462091861.156	 5	 -2.419801	 3.321253	 0.277214	 1.915591	 -0.494490	 -0.687484	 0.134704	 0.794111	 -0.376459	 0.457735	 2
1462091861.166	 5	 -2.452247	 4.416555	 -0.058684	 1.969357	 -0.485699	 -0.661598	 0.136848	 0.808008	 -0.363857	 0.442723	 2
1462091861.176	 5	 -2.332653	 4.566072	 -0.219265	 2.027173	 -0.477205	 -0.636545	 0.139360	 0.822381	 -0.351313	 0.425261	 2
1462091861.186	 5	 -2.082096	 3.412167	 -0.249236	 2.075339	 -0.470031	 -0.613553	 0.140109	 0.834183	 -0.340439	 0.410621	 2
1462091861.196	 5	 -1.524258	 1.284289	 0.325065	 2.100810	 -0.459962	 -0.598044	 0.140544	 0.840684	 -0.331624	 0.404381	 2
1462091861.206	 5	 -0.378929	 0.735519	 0.501824	 2.109887	 -0.452329	 -0.594279	 0.142435	 0.842957	 -0.327260	 0.402538	 2
1462091861.216	 5	 0.661371	 1.245326	 0.382407	 2.118124	 -0.450855	 -0.600664	 0.146856	 0.844178	 -0.327369	 0.398280	 2
1462091861.226	 5	 1.476397	 1.790407	 0.196006	 2.128895	 -0.455593	 -0.614164	 0.153118	 0.845183	 -0.331070	 0.390658	 2
1462091861.236	 5	 2.103163	 2.242447	 0.010379	 2.141752	 -0.465543	 -0.633052	 0.160725	 0.845948	 -0.337572	 0.380242	 2
1462091861.246	 5	 2.532748	 2.387941	 -0.286158	 2.155844	 -0.480555	 -0.654681	 0.168499	 0.846436	 -0.346279	 0.367757	 2
1462091861.256	 5	 2.807801	 2.049710	 -0.761701	 2.167036	 -0.501114	 -0.676553	 0.174567	 0.846034	 -0.357203	 0.355189	 2
1462091861.266	 5	 2.933360	 1.369386	 -1.390465	 2.173039	 -0.527637	 -0.696217	 0.177327	 0.844559	 -0.370261	 0.343777	 2
1462091861.276	 5	 2.958550	 0.399612	 -2.226740	 2.171632	 -0.560904	 -0.711416	 0.175098	 0.841840	 -0.385553	 0.334656	 2
1462091861.286	 5	 2.797386	 -0.840607	 -3.177945	 2.162098	 -0.601284	 -0.719961	 0.166533	 0.837916	 -0.402844	 0.328453	 2
1462091861.296	 5	 1.945817	 -3.159761	 -4.174744	 2.138908	 -0.646268	 -0.716076	 0.148474	 0.832301	 -0.420509	 0.329246	 2
1462091861.306	 5	 0.984246	 -4.259896	 -4.759581	 2.109097	 -0.692132	 -0.698030	 0.122433	 0.826052	 -0.436006	 0.335480	 2
1462091861.316	 5	 0.325069	 -4.036974	 -4.939342	 2.085561	 -0.737011	 -0.670675	 0.093807	 0.820659	 -0.448501	 0.341418	 2
1462091861.326	 5	 0.014050	 -3.068870	 -4.595107	 2.073217	 -0.778572	 -0.639942	 0.067037	 0.816650	 -0.458237	 0.344395	 2
1462091861.336	 5	 0.097259	 -1.994956	 -3.727900	 2.069756	 -0.813703	 -0.613229	 0.045690	 0.813779	 -0.465916	 0.344382	 2
1462091861.356	 6	 1.299893	 -1.288354	 -2.166191	 2.053247	 -0.866626	 -0.598535	 0.021209	 0.806059	 -0.481789	 0.343071	 2
1462091861.366	 6	 1.392819	 -1.375827	 -2.310626	 2.036939	 -0.893112	 -0.602144	 0.011302	 0.800482	 -0.491440	 0.342911	 2
1462091861.376	 6	 1.216626	 -1.325609	 -2.936359	 2.024900	 -0.923299	 -0.600460	 -0.000854	 0.795171	 -0.501158	 0.341384	 2
1462091861.386	 6	 1.228583	 -1.381675	 -3.622270	 2.016857	 -0.959779	 -0.593512	 -0.015962	 0.789618	 -0.511812	 0.338078	 2
1462091861.396	 6	 1.345869	 -1.234403	 -4.092988	 2.011828	 -1.001394	 -0.584042	 -0.032776	 0.783579	 -0.523492	 0.332996	 2
1462091861.416	 7	 1.860211	 -0.697121	 -4.742581	 2.009165	 -1.097374	 -0.566827	 -0.067275	 0.769570	 -0.550598	 0.316351	 2
1462091861.426	 7	 2.168104	 -0.448167	 -4.901744	 2.007514	 -1.150306	 -0.562949	 -0.084082	 0.761091	 -0.565970	 0.305529	 2
1462091861.436	 7	 2.479299	 -0.176893	 -5.061794	 2.003472	 -1.205930	 -0.564652	 -0.100171	 0.751515	 -0.582450	 0.293162	 2
1462091861.446	 7	 2.785794	 0.029286	 -5.253315	 1.994589	 -1.264521	 -0.573915	 -0.115743	 0.740673	 -0.600002	 0.279292	 2
1462091861.456	 7	 3.049599	 0.016420	 -5.453963	 1.975064	 -1.325992	 -0.594538	 -0.131420	 0.728283	 -0.618336	 0.264563	 2
1462091861.466	 7	 3.247549	 -0.162129	 -5.648119	 1.933580	 -1.389918	 -0.635813	 -0.147856	 0.714184	 -0.637000	 0.249622	 2
1462091861.486	 8	 3.393005	 -0.621217	 -5.828443	 1.497068	 -1.517185	 -1.065107	 -0.183417	 0.681458	 -0.673335	 0.220441	 2
1462091861.496	 8	 3.350519	 -0.656582	 -5.735681	 -0.113720	 -1.532831	 -2.670315	 -0.201468	 0.663744	 -0.690159	 0.206241	 2
1462091861.506	 8	 3.279526	 -0.474251	 -5.555384	 -0.709258	 -1.477763	 3.021744	 -0.218406	 0.645795	 -0.705985	 0.191919	 2
1462091861.516	 8	 3.136709	 0.207018	 -5.242993	 -0.837909	 -1.417780	 2.892284	 -0.232465	 0.628470	 -0.720981	 0.176556	 2
1462091861.526	 8	 2.928832	 1.420551	 -4.747101	 -0.877379	 -1.361172	 2.840938	 -0.241083	 0.612679	 -0.735702	 0.158887	 2
1462091861.536	 8	 2.423606	 2.714750	 -4.247869	 -0.886446	 -1.311115	 2.807098	 -0.243538	 0.599606	 -0.749640	 0.138571	 2
1462091861.546	 8	 1.726080	 3.931099	 -3.708253	 -0.883202	 -1.269259	 2.772461	 -0.239959	 0.590062	 -0.762176	 0.115476	 2
1462091861.556	 8	 1.053842	 4.463816	 -2.974856	 -0.872651	 -1.237097	 2.737464	 -0.231837	 0.583935	 -0.772548	 0.091878	 2
1462091861.566	 8	 0.722219	 4.128543	 -1.969009	 -0.853914	 -1.215082	 2.712008	 -0.221437	 0.580134	 -0.780560	 0.071665	 2
1462091861.576	 8	 0.729825	 2.999575	 -0.859464	 -0.826632	 -1.201825	 2.705744	 -0.211505	 0.577165	 -0.786597	 0.058407	 2
1462091861.586	 8	 0.779551	 1.697742	 0.043479	 -0.795116	 -1.195348	 2.717979	 -0.203826	 0.574523	 -0.790945	 0.052769	 2
1462091861.596	 8	 1.112401	 0.747872	 0.608319	 -0.759409	 -1.191774	 2.746028	 -0.198358	 0.571384	 -0.794590	 0.052921	 2
1462091861.606	 8	 1.537472	 -3.698241	 0.602679	 -0.747211	 -1.185685	 2.784795	 -0.205582	 0.565637	 -0.796076	 0.063662	 2
1462091861.616	 8	 1.995053	 -6.530149	 0.414610	 -0.768611	 -1.175225	 2.827247	 -0.227738	 0.556445	 -0.794583	 0.084512	 2
1462091861.626	 8	 2.593483	 -6.312139	 0.359206	 -0.787161	 -1.160409	 2.877633	 -0.251324	 0.544086	 -0.793353	 0.106757	 2
1462091861.636	 8	 2.976521	 -5.018453	 0.413737	 -0.788301	 -1.142748	 2.935145	 -0.269855	 0.529949	 -0.793926	 0.126543	 2
1462091861.646	 8	 2.836095	 -3.589430	 0.438915	 -0.777058	 -1.125241	 2.990998	 -0.282392	 0.516355	 -0.795799	 0.142607	 2
1462091861.656	 8	 2.083237	 -2.463854	 0.319526	 -0.765814	 -1.111222	 3.033732	 -0.290583	 0.505664	 -0.797531	 0.154304	 2
1462091861.666	 8	 0.930263	 -1.589710	 -0.019332	 -0.765915	 -1.102892	 3.053886	 -0.296666	 0.499454	 -0.797892	 0.160946	 2
1462091861.686	 8	 -0.921528	 0.152027	 -0.536934	 -0.794608	 -1.101699	 3.031578	 -0.302665	 0.500038	 -0.795656	 0.159021	 2
1462091861.696	 9	 -1.390596	 0.463079	 -0.513969	 -0.816288	 -1.106818	 3.002683	 -0.303370	 0.504688	 -0.793452	 0.153916	 2
1462091861.706	 9	 -1.616544	 0.337731	 -0.290424	 -0.840553	 -1.114804	 2.971180	 -0.303896	 0.510664	 -0.790338	 0.149112	 2
1462091861.716	 9	 -1.747191	 -0.092944	 0.108498	 -0.867092	 -1.126083	 2.941440	 -0.305073	 0.517447	 -0.785962	 0.146436	 2
1462091861.726	 9	 -1.938789	 -0.653364	 0.631438	 -0.896484	 -1.141906	 2.914588	 -0.307133	 0.525210	 -0.779914	 0.146827	 2
1462091861.736	 9	 -2.259984	 -1.220582	 1.044604	 -0.932874	 -1.162746	 2.886608	 -0.310407	 0.534311	 -0.771779	 0.150055	 2
1462091861.756	 10	 -3.200862	 -2.244442	 1.012362	 -1.058875	 -1.212147	 2.791753	 -0.323198	 0.556391	 -0.748610	 0.159857	 2
1462091861.766	 10	 -3.675181	 -2.370322	 0.769129	 -1.160489	 -1.235458	 2.708886	 -0.332511	 0.569035	 -0.734040	 0.163768	 2
1462091861.776	 10	 -4.093560	 -1.970758	 0.551614	 -1.286750	 -1.254692	 2.597894	 -0.341730	 0.582805	 -0.718499	 0.165283	 2
1462091861.786	 10	 -4.319118	 -0.860217	 0.478651	 -1.426400	 -1.268537	 2.463747	 -0.348028	 0.597879	 -0.703428	 0.163115	 2
1462091861.796	 10	 -4.279978	 0.783734	 0.587395	 -1.561367	 -1.277299	 2.318836	 -0.348567	 0.614115	 -0.690575	 0.156431	 2
1462091861.816	 11	 -3.746408	 3.439352	 0.919729	 -1.780893	 -1.284937	 2.035903	 -0.331728	 0.647581	 -0.673196	 0.131918	 2
1462091861.826	 11	 -3.445297	 4.057254	 1.033696	 -1.866489	 -1.285959	 1.905711	 -0.317403	 0.663474	 -0.667410	 0.116711	 2
1462091861.836	 11	 -3.147114	 4.274412	 0.886045	 -1.938232	 -1.284323	 1.786811	 -0.301933	 0.677930	 -0.662661	 0.100636	 2
1462091861.846	 11	 -2.870813	 4.234584	 0.639209	 -1.995995	 -1.279449	 1.682089	 -0.286808	 0.690641	 -0.658553	 0.084046	 2
1462091861.856	 11	 -2.573832	 3.843571	 0.374005	 -2.041232	 -1.271925	 1.593349	 -0.273260	 0.701470	 -0.654713	 0.067970	 2
1462091861.866	 11	 -2.204109	 3.014335	 0.136062	 -2.076542	 -1.262832	 1.522320	 -0.262683	 0.710227	 -0.650887	 0.054054	 2
1462091861.876	 11	 -1.776062	 1.801648	 -0.007907	 -2.106218	 -1.253649	 1.468803	 -0.256172	 0.716890	 -0.646916	 0.044100	 2
1462091861.886	 11	 -1.369942	 0.394991	 -0.068228	 -2.135387	 -1.245521	 1.430149	 -0.254254	 0.721700	 -0.642616	 0.039352	 2
1462091861.896	 11	 -1.178246	 -1.524094	 -0.036598	 -2.173933	 -1.238436	 1.399898	 -0.257860	 0.725289	 -0.636996	 0.041227	 2
1462091861.906	 11	 -1.403991	 -3.843873	 0.159065	 -2.238870	 -1.231404	 1.365770	 -0.268141	 0.728846	 -0.627862	 0.051704	 2
1462091861.916	 11	 -1.716781	 -5.430196	 0.406007	 -2.331104	 -1.223223	 1.322047	 -0.283236	 0.732901	 -0.614694	 0.069169	 2
1462091861.926	 11	 -1.838905	 -5.921910	 0.604990	 -2.434780	 -1.213852	 1.274007	 -0.299688	 0.736913	 -0.599245	 0.089739	 2
1462091861.936	 11	 -1.780133	 -5.554265	 0.725133	 -2.535521	 -1.203829	 1.227168	 -0.314831	 0.740488	 -0.583475	 0.110071	 2
1462091861.946	 11	 -1.567021	 -4.496562	 0.729922	 -2.621679	 -1.193983	 1.186168	 -0.326895	 0.743511	 -0.569305	 0.127369	 2
1462091861.956	 11	 -1.275444	 -2.997463	 0.619836	 -2.685773	 -1.185125	 1.153661	 -0.334924	 0.746132	 -0.558231	 0.139611	 2
1462091861.966	 11	 -1.035497	 -1.308258	 0.450155	 -2.725177	 -1.177345	 1.129822	 -0.338672	 0.748739	 -0.550894	 0.145628	 2
1462091861.976	 11	 -0.930870	 0.407035	 0.303209	 -2.741719	 -1.169969	 1.112076	 -0.338145	 0.751903	 -0.547057	 0.145013	 2
1462091861.986	 11	 -0.889377	 1.836603	 0.183996	 -2.739403	 -1.162523	 1.098216	 -0.333869	 0.755780	 -0.546051	 0.138407	 2
1462091861.996	 11	 -0.864775	 2.830337	 0.091781	 -2.723615	 -1.154989	 1.086999	 -0.326902	 0.760074	 -0.546985	 0.127396	 2
1462091862.006	 11	 -0.835410	 3.452008	 0.029102	 -2.699187	 -1.147501	 1.077417	 -0.318156	 0.764452	 -0.549096	 0.113506	 2
1462091862.016	 11	 -0.768229	 3.707790	 -0.019194	 -2.670013	 -1.140397	 1.069178	 -0.308507	 0.768551	 -0.551825	 0.098196	 2
1462091862.026	 11	 -0.670858	 3.571061	 -0.060747	 -2.639749	 -1.134017	 1.062532	 -0.298980	 0.772038	 -0.554686	 0.083019	 2
1462091862.036	 11	 -0.623424	 3.017642	 -0.088691	 -2.613047	 -1.128128	 1.056901	 -0.290699	 0.774883	 -0.556966	 0.069566	 2
1462091862.046	 11	 -0.570574	 2.267333	 -0.131303	 -2.592688	 -1.122453	 1.052277	 -0.284515	 0.777141	 -0.558245	 0.058865	 2
1462091862.056	 11	 -0.409472	 1.600862	 -0.155960	 -2.577397	 -1.117765	 1.049704	 -0.280316	 0.778686	 -0.558995	 0.050945	 2
1462091862.066	 11	 -0.149435	 1.040918	 -0.117607	 -2.565806	 -1.115205	 1.049547	 -0.277603	 0.779398	 -0.559809	 0.045699	 2
1462091862.076	 11	 0.150033	 0.630329	 -0.001472	 -2.557148	 -1.115627	 1.051134	 -0.275697	 0.779304	 -0.561104	 0.042883	 2
1462091862.086	 11	 0.459771	 0.330588	 0.150774	 -2.550706	 -1.119431	 1.053850	 -0.274056	 0.778468	 -0.563120	 0.042166	 2
1462091862.096	 11	 0.733649	 0.156152	 0.260803	 -2.545119	 -1.126322	 1.057956	 -0.272455	 0.776940	 -0.565935	 0.043021	 2
1462091862.106	 11	 0.930159	 0.156906	 0.297467	 -2.538140	 -1.135279	 1.064040	 -0.270710	 0.774855	 -0.569507	 0.044480	 2
1462091862.116	 11	 1.057824	 0.309601	 0.284987	 -2.527873	 -1.145395	 1.072457	 -0.268607	 0.772359	 -0.573781	 0.045686	 2
1462091862.126	 11	 1.075179	 0.656815	 0.211332	 -2.512544	 -1.155564	 1.083217	 -0.265868	 0.769680	 -0.578636	 0.045687	 2
1462091862.136	 11	 1.009471	 2.043639	 0.021248	 -2.484299	 -1.164112	 1.096854	 -0.260776	 0.767184	 -0.584575	 0.041192	 2
1462091862.146	 11	 1.027059	 4.388173	 -0.218200	 -2.426717	 -1.171310	 1.117209	 -0.249767	 0.764511	 -0.593633	 0.027192	 2
1462091862.156	 11	 -0.323880	 3.389109	 -0.077185	 -2.384650	 -1.170900	 1.121138	 -0.238839	 0.764502	 -0.598619	 0.012164	 2
1462091862.166	 11	 -1.297631	 1.642686	 0.265678	 -2.386375	 -1.163838	 1.097756	 -0.232271	 0.768213	 -0.596560	 0.003785	 2
1462091862.176	 11	 -1.048827	 1.452428	 0.530313	 -2.397887	 -1.158598	 1.069426	 -0.226164	 0.772187	 -0.593780	 -0.001715	 2
1462091862.186	 11	 -0.551514	 1.271729	 0.747046	 -2.406622	 -1.158302	 1.045227	 -0.219472	 0.774942	 -0.592677	 -0.005597	 2
1462091862.196	 11	 -0.021230	 0.740985	 0.814225	 -2.414058	 -1.162531	 1.027425	 -0.213687	 0.776265	 -0.593046	 -0.006812	 2
1462091862.206	 11	 0.530142	 0.094947	 0.685113	 -2.418104	 -1.170334	 1.020304	 -0.210134	 0.775847	 -0.594877	 -0.005201	 2
1462091862.216	 11	 0.926525	 -0.305565	 0.470111	 -2.416411	 -1.180099	 1.024564	 -0.208785	 0.773894	 -0.597907	 -0.001891	 2
1462091862.226	 11	 1.059088	 -0.343319	 0.304478	 -2.409195	 -1.190155	 1.036271	 -0.208557	 0.771122	 -0.601559	 0.001623	 2
1462091862.236	 11	 1.007451	 0.091247	 0.221579	 -2.396664	 -1.199312	 1.050247	 -0.207773	 0.768282	 -0.605442	 0.003583	 2
1462091862.246	 11	 1.021502	 0.783816	 0.249217	 -2.377041	 -1.208294	 1.064726	 -0.204992	 0.765467	 -0.609942	 0.003003	 2
1462091862.256	 11	 1.145077	 1.360410	 0.315320	 -2.349660	 -1.218314	 1.080820	 -0.200059	 0.762386	 -0.615421	 0.000353	 2
1462091862.266	 11	 0.804864	 0.646306	 0.412885	 -2.327647	 -1.227705	 1.093663	 -0.195577	 0.759764	 -0.620086	 -0.001326	 2
1462091862.276	 11	 0.045879	 -0.979879	 0.409690	 -2.338424	 -1.232301	 1.088988	 -0.195880	 0.759559	 -0.620237	 0.002660	 2
1462091862.286	 11	 -0.130472	 -1.457021	 0.103043	 -2.358518	 -1.232784	 1.082571	 -0.199533	 0.760067	 -0.618396	 0.008447	 2
1462091862.296	 11	 -0.066757	 -1.302769	 -0.160385	 -2.371651	 -1.231487	 1.083044	 -0.204118	 0.760142	 -0.616722	 0.013210	 2
1462091862.306	 11	 -0.055037	 -0.946591	 -0.320234	 -2.377378	 -1.229128	 1.088061	 -0.208423	 0.759937	 -0.615461	 0.016252	 2
1462091862.316	 11	 -0.071747	 -0.550615	 -0.430441	 -2.376915	 -1.225827	 1.095403	 -0.211958	 0.759661	 -0.614562	 0.017381	 2
1462091862.326	 11	 -0.074995	 -0.286182	 -0.487635	 -2.372325	 -1.221996	 1.103913	 -0.214813	 0.759357	 -0.613953	 0.017141	 2
1462091862.336	 11	 -0.034322	 -0.186960	 -0.575524	 -2.364560	 -1.217815	 1.114351	 -0.217526	 0.758896	 -0.613594	 0.016177	 2
1462091862.346	 11	 0.053642	 -0.174618	 -0.744565	 -2.352417	 -1.213092	 1.129161	 -0.220706	 0.758029	 -0.613566	 0.014727	 2
1462091862.356	 11	 0.173217	 -0.223209	 -0.943225	 -2.335232	 -1.207679	 1.149736	 -0.224717	 0.756585	 -0.613933	 0.012924	 2
1462091862.366	 11	 0.300086	 -0.329083	 -1.117968	 -2.313890	 -1.201664	 1.175805	 -0.229692	 0.754518	 -0.614673	 0.011054	 2
1462091862.376	 11	 0.452856	 -0.485125	 -1.160183	 -2.290606	 -1.195767	 1.205560	 -0.235408	 0.751880	 -0.615766	 0.009630	 2
1462091862.386	 11	 0.672604	 -0.648321	 -0.988830	 -2.267796	 -1.191811	 1.236658	 -0.241182	 0.748718	 -0.617384	 0.009426	 2
1462091862.396	 11	 0.971313	 -0.738124	 -0.638434	 -2.246030	 -1.191786	 1.267861	 -0.246109	 0.745030	 -0.619871	 0.010942	 2
1462091862.406	 11	 1.309035	 -0.735217	 -0.248081	 -2.223715	 -1.196624	 1.299828	 -0.249613	 0.740754	 -0.623520	 0.014144	 2
1462091862.416	 11	 1.640280	 -0.674431	 0.054409	 -2.198186	 -1.205829	 1.334647	 -0.251706	 0.735803	 -0.628404	 0.018618	 2
1462091862.426	 11	 1.918025	 -0.516731	 0.205862	 -2.166101	 -1.217928	 1.374922	 -0.252632	 0.730119	 -0.634466	 0.023579	 2
1462091862.436	 11	 2.125098	 -0.278062	 0.200951	 -2.124357	 -1.230988	 1.422930	 -0.252687	 0.723714	 -0.641558	 0.028117	 2
1462091862.446	 11	 2.259454	 0.008002	 0.102262	 -2.071300	 -1.243336	 1.479750	 -0.252087	 0.716676	 -0.649485	 0.031580	 2
1462091862.456	 11	 2.343532	 0.287665	 -0.019497	 -2.007100	 -1.253933	 1.545121	 -0.250953	 0.709126	 -0.658045	 0.033759	 2
1462091862.466	 11	 2.378490	 0.536837	 -0.112335	 -1.933622	 -1.262311	 1.617344	 -0.249299	 0.701234	 -0.667018	 0.034742	 2
1462091862.477	 11	 2.456057	 0.719310	 -0.145417	 -1.852546	 -1.268666	 1.695212	 -0.247076	 0.693050	 -0.676325	 0.034907	 2
1462091862.486	 11	 2.978476	 0.659944	 -0.200609	 -1.755345	 -1.273394	 1.789641	 -0.244838	 0.683331	 -0.686924	 0.035348	 2
1462091862.496	 11	 3.526182	 0.306932	 -0.257688	 -1.639467	 -1.275235	 1.906529	 -0.243648	 0.671289	 -0.699012	 0.037268	 2
1462091862.507	 11	 3.505421	 -0.485294	 -0.243558	 -1.527228	 -1.273608	 2.026600	 -0.244562	 0.658644	 -0.710380	 0.041683	 2
1462091862.516	 11	 2.984515	 -1.471383	 -0.176772	 -1.441208	 -1.271131	 2.129853	 -0.248344	 0.647496	 -0.718756	 0.049631	 2
1462091862.526	 11	 2.330607	 -1.973745	 -0.047861	 -1.381294	 -1.266326	 2.212299	 -0.254724	 0.637872	 -0.724439	 0.058509	 2
1462091862.537	 11	 1.652438	 -1.986579	 0.108197	 -1.344548	 -1.263254	 2.271907	 -0.261223	 0.630721	 -0.727598	 0.067485	 2
1462091862.546	 11	 1.044790	 -1.701208	 0.200338	 -1.324732	 -1.262259	 2.311405	 -0.266713	 0.626003	 -0.728911	 0.075320	 2
1462091862.556	 11	 0.633322	 -1.361903	 0.182565	 -1.315740	 -1.262328	 2.336024	 -0.271102	 0.623061	 -0.729147	 0.081508	 2
1462091862.567	 11	 0.443385	 -1.054627	 0.091160	 -1.311618	 -1.262252	 2.352174	 -0.274645	 0.621013	 -0.729042	 0.086089	 2
1462091862.576	 11	 0.487530	 -0.861072	 -0.040644	 -1.306651	 -1.261000	 2.366841	 -0.277741	 0.618920	 -0.729238	 0.089500	 2
1462091862.586	 11	 0.732738	 -0.791577	 -0.184944	 -1.296148	 -1.257807	 2.386301	 -0.280828	 0.615941	 -0.730222	 0.092354	 2
1462091862.597	 11	 1.102772	 -0.742541	 -0.313470	 -1.276599	 -1.252252	 2.414862	 -0.284007	 0.611500	 -0.732372	 0.095069	 2
1462091862.606	 11	 1.425691	 -0.557797	 -0.374245	 -1.247487	 -1.244672	 2.452036	 -0.286721	 0.605722	 -0.735785	 0.097532	 2
1462091862.616	 11	 1.600208	 -0.215791	 -0.369385	 -1.211230	 -1.235924	 2.493636	 -0.288213	 0.599260	 -0.740238	 0.099340	 2
1462091862.627	 11	 1.660940	 0.202147	 -0.353235	 -1.170632	 -1.226485	 2.535665	 -0.288096	 0.592665	 -0.745472	 0.100102	 2
1462091862.637	 11	 1.705551	 0.581964	 -0.320248	 -1.127036	 -1.216549	 2.576815	 -0.286377	 0.586108	 -0.751330	 0.099845	 2
1462091862.647	 11	 1.804023	 0.825623	 -0.267682	 -1.080495	 -1.206043	 2.618256	 -0.283391	 0.579397	 -0.757744	 0.099053	 2
1462091862.657	 11	 1.940077	 0.877847	 -0.198040	 -1.031747	 -1.194788	 2.661140	 -0.279733	 0.572277	 -0.764570	 0.098390	 2
1462091862.667	 11	 2.029195	 0.740605	 -0.167054	 -0.983785	 -1.182603	 2.704343	 -0.276205	 0.564699	 -0.771469	 0.098295	 2
1462091862.677	 11	 1.971691	 0.345903	 -0.204331	 -0.942395	 -1.169623	 2.744163	 -0.273963	 0.556926	 -0.777802	 0.099004	 2
1462091862.687	 11	 1.702339	 -0.348478	 -0.291576	 -0.914716	 -1.156789	 2.776067	 -0.274448	 0.549526	 -0.782643	 0.100839	 2
1462091862.697	 11	 1.278440	 -1.032567	 -0.342211	 -0.903510	 -1.145609	 2.797920	 -0.278083	 0.543170	 -0.785401	 0.103835	 2
1462091862.707	 11	 0.830490	 -1.448019	 -0.318730	 -0.905440	 -1.137220	 2.810764	 -0.283823	 0.538299	 -0.786202	 0.107541	 2
1462091862.717	 11	 0.496774	 -1.668811	 -0.246472	 -0.915516	 -1.131622	 2.817531	 -0.290596	 0.534791	 -0.785547	 0.111659	 2
1462091862.727	 11	 0.362779	 -1.854043	 -0.176689	 -0.929573	 -1.127782	 2.821959	 -0.297977	 0.531979	 -0.784019	 0.116285	 2
1462091862.737	 11	 0.440784	 -2.074304	 -0.158103	 -0.944784	 -1.124086	 2.827440	 -0.306046	 0.528940	 -0.782154	 0.121630	 2
1462091862.747	 11	 0.622009	 -2.297512	 -0.210783	 -0.959836	 -1.119156	 2.835637	 -0.314966	 0.524989	 -0.780310	 0.127673	 2
1462091862.757	 11	 0.690295	 -2.490537	 -0.253672	 -0.975511	 -1.113228	 2.845372	 -0.324674	 0.520315	 -0.778364	 0.134198	 2
1462091862.767	 11	 0.424736	 -2.670661	 -0.265825	 -0.996060	 -1.108169	 2.851736	 -0.335207	 0.516071	 -0.775550	 0.140817	 2
1462091862.777	 11	 -0.171479	 -2.882203	 -0.197591	 -1.026816	 -1.106324	 2.848949	 -0.346712	 0.513686	 -0.770872	 0.147220	 2
1462091862.787	 11	 -0.916790	 -3.104350	 -0.038633	 -1.070811	 -1.109226	 2.833870	 -0.359178	 0.514039	 -0.763681	 0.153448	 2
1462091862.797	 11	 -1.614107	 -3.138106	 0.157895	 -1.127460	 -1.116758	 2.805840	 -0.371985	 0.517260	 -0.754110	 0.159338	 2
1462091862.807	 11	 -2.258757	 -2.831959	 0.313432	 -1.194406	 -1.127663	 2.764002	 -0.383907	 0.523273	 -0.742899	 0.164016	 2
1462091862.817	 11	 -2.905201	 -2.408140	 0.414660	 -1.272259	 -1.140437	 2.705859	 -0.394413	 0.532057	 -0.730442	 0.166756	 2
1462091862.827	 11	 -3.535143	 -1.820025	 0.444801	 -1.362141	 -1.153188	 2.628994	 -0.403219	 0.543514	 -0.717035	 0.166937	 2
1462091862.837	 11	 -4.070123	 -0.950838	 0.405325	 -1.461599	 -1.163552	 2.533437	 -0.409560	 0.557385	 -0.703415	 0.163674	 2
1462091862.847	 11	 -4.459381	 0.295272	 0.333983	 -1.563633	 -1.169574	 2.422913	 -0.412212	 0.573309	 -0.690694	 0.156016	 2
1462091862.857	 11	 -4.638698	 1.860462	 0.346911	 -1.658167	 -1.171030	 2.304446	 -0.409705	 0.590866	 -0.680033	 0.143439	 2
1462091862.867	 11	 -4.662201	 3.346120	 0.455793	 -1.738717	 -1.169292	 2.184480	 -0.401463	 0.609496	 -0.671830	 0.126435	 2
1462091862.877	 11	 -4.643607	 4.478556	 0.567416	 -1.805783	 -1.165217	 2.065714	 -0.388410	 0.628545	 -0.665459	 0.105986	 2
1462091862.887	 11	 -4.612509	 5.271034	 0.738647	 -1.862127	 -1.159847	 1.948826	 -0.371512	 0.647572	 -0.660076	 0.083239	 2
1462091862.897	 11	 -4.604753	 5.663459	 0.881846	 -1.911838	 -1.153638	 1.833452	 -0.351965	 0.666242	 -0.654767	 0.059348	 2
1462091862.907	 11	 -4.526659	 5.241067	 0.894288	 -1.959887	 -1.145795	 1.721358	 -0.332322	 0.683936	 -0.648448	 0.036177	 2
1462091862.917	 11	 -4.099674	 3.296032	 0.815986	 -2.013055	 -1.136387	 1.620299	 -0.317526	 0.699457	 -0.639992	 0.018620	 2
1462091862.927	 11	 -3.374168	 0.601425	 0.749425	 -2.075314	 -1.126992	 1.537408	 -0.311016	 0.712072	 -0.629367	 0.010957	 2
1462091862.937	 11	 -2.628558	 -1.674205	 0.679127	 -2.144459	 -1.118594	 1.473467	 -0.312257	 0.721848	 -0.617467	 0.012895	 2
1462091862.947	 11	 -2.014871	 -3.187882	 0.611739	 -2.216444	 -1.111388	 1.425101	 -0.318891	 0.729187	 -0.605079	 0.021768	 2
1462091862.957	 11	 -1.519597	 -4.029938	 0.563355	 -2.287836	 -1.105544	 1.388411	 -0.328558	 0.734483	 -0.592758	 0.034950	 2
1462091862.967	 11	 -1.029829	 -4.240102	 0.527294	 -2.354063	 -1.101585	 1.361590	 -0.339249	 0.737862	 -0.581339	 0.050155	 2
1462091862.977	 11	 -0.551786	 -3.823298	 0.555786	 -2.410542	 -1.100485	 1.342683	 -0.348851	 0.739586	 -0.571895	 0.065210	 2
1462091862.987	 11	 -0.149548	 -2.981719	 0.608074	 -2.454656	 -1.102504	 1.329195	 -0.355860	 0.740175	 -0.565126	 0.078339	 2
1462091862.997	 11	 0.099260	 -2.069655	 0.637841	 -2.486820	 -1.106817	 1.318809	 -0.359937	 0.740219	 -0.560943	 0.088679	 2
1462091863.007	 11	 0.160112	 -1.386992	 0.638335	 -2.510616	 -1.111909	 1.309443	 -0.361812	 0.740218	 -0.558449	 0.096455	 2
1462091863.017	 11	 0.022216	 -0.964499	 0.615757	 -2.530664	 -1.116076	 1.298870	 -0.362420	 0.740631	 -0.556479	 0.102219	 2
1462091863.027	 11	 -0.254121	 -0.702238	 0.588631	 -2.550420	 -1.117963	 1.285361	 -0.362421	 0.741810	 -0.554125	 0.106369	 2
1462091863.037	 11	 -0.592368	 -0.440878	 0.558838	 -2.570959	 -1.116838	 1.268214	 -0.362006	 0.743958	 -0.551012	 0.108919	 2
1462091863.047	 11	 -0.940729	 -0.042444	 0.506962	 -2.590727	 -1.112368	 1.247866	 -0.360942	 0.747167	 -0.547268	 0.109365	 2
1462091863.057	 11	 -1.208971	 0.354845	 0.475686	 -2.608266	 -1.105006	 1.225356	 -0.359056	 0.751303	 -0.543175	 0.107628	 2
1462091863.067	 11	 -1.333236	 0.676681	 0.511735	 -2.623702	 -1.096180	 1.201289	 -0.356236	 0.756063	 -0.539048	 0.104370	 2
1462091863.077	 11	 -1.311780	 0.892822	 0.551927	 -2.636873	 -1.087270	 1.176915	 -0.352580	 0.761022	 -0.535236	 0.100271	 2
1462091863.087	 11	 -1.155491	 1.002908	 0.541999	 -2.646967	 -1.079342	 1.154393	 -0.348468	 0.765666	 -0.532102	 0.095881	 2
1462091863.097	 11	 -0.900285	 1.077309	 0.491444	 -2.653119	 -1.073189	 1.135374	 -0.344170	 0.769609	 -0.529982	 0.091481	 2
1462091863.107	 11	 -0.583533	 1.089732	 0.425922	 -2.655063	 -1.069365	 1.120700	 -0.339869	 0.772619	 -0.529082	 0.087294	 2
1462091863.117	 11	 -0.197847	 1.002047	 0.370591	 -2.653502	 -1.068530	 1.110769	 -0.335798	 0.774493	 -0.529502	 0.083834	 2
1462091863.127	 11	 0.202735	 0.923728	 0.292837	 -2.648338	 -1.070931	 1.105969	 -0.332043	 0.775135	 -0.531336	 0.081214	 2
1462091863.137	 11	 0.589597	 0.945905	 0.134074	 -2.637552	 -1.076124	 1.107605	 -0.328658	 0.774491	 -0.534720	 0.078887	 2
1462091863.147	 11	 0.977011	 0.928128	 -0.107130	 -2.619333	 -1.083574	 1.117581	 -0.325956	 0.772421	 -0.539682	 0.076565	 2
1462091863.157	 11	 1.345898	 0.840111	 -0.361615	 -2.593575	 -1.092838	 1.136946	 -0.324304	 0.768851	 -0.546030	 0.074474	 2
1462091863.167	 11	 1.702392	 0.789785	 -0.557024	 -2.560226	 -1.103733	 1.165457	 -0.323488	 0.763873	 -0.553695	 0.072628	 2
1462091863.177	 11	 2.078877	 1.038019	 -0.641122	 -2.517757	 -1.116472	 1.202329	 -0.322536	 0.757673	 -0.562970	 0.070477	 2
1462091863.187	 11	 2.591329	 1.786132	 -0.672727	 -2.459910	 -1.131965	 1.248999	 -0.319703	 0.750169	 -0.574979	 0.066603	 2
1462091863.197	 11	 3.079287	 2.624043	 -0.798136	 -2.380449	 -1.149249	 1.309704	 -0.314523	 0.741084	 -0.590139	 0.060046	 2
1462091863.207	 11	 3.081866	 2.594434	 -0.919930	 -2.287722	 -1.164427	 1.381438	 -0.308861	 0.731073	 -0.606138	 0.052289	 2
1462091863.217	 11	 0.740535	 -0.045822	 -0.451981	 -2.240911	 -1.169802	 1.423722	 -0.308392	 0.725333	 -0.613428	 0.049927	 2
1462091863.227	 11	 -1.141703	 0.155757	 0.183360	 -2.258415	 -1.164795	 1.405162	 -0.308496	 0.728123	 -0.610141	 0.048933	 2
1462091863.237	 11	 -0.754684	 0.675427	 0.279679	 -2.273259	 -1.161022	 1.382723	 -0.305942	 0.731508	 -0.607582	 0.046266	 2
1462091863.247	 11	 0.096209	 0.521913	 0.281499	 -2.272934	 -1.162358	 1.376439	 -0.303150	 0.732365	 -0.608067	 0.044678	 2
1462091863.257	 11	 0.478698	 0.169567	 0.542397	 -2.270163	 -1.168609	 1.376792	 -0.300595	 0.731868	 -0.609845	 0.045834	 2
1462091863.267	 11	 0.537307	 -0.253440	 0.755366	 -2.272790	 -1.177507	 1.375454	 -0.298284	 0.731273	 -0.611420	 0.049322	 2
1462091863.277	 11	 0.439812	 -0.582680	 0.781926	 -2.281694	 -1.186534	 1.371451	 -0.296882	 0.730867	 -0.612163	 0.054325	 2
1462091863.287	 11	 0.286811	 -0.607205	 0.711624	 -2.293709	 -1.194173	 1.365101	 -0.295993	 0.730784	 -0.612233	 0.059278	 2
1462091863.297	 11	 0.210489	 -0.425729	 0.625519	 -2.305447	 -1.200501	 1.357789	 -0.295060	 0.730912	 -0.612118	 0.063397	 2
1462091863.317	 12	 0.252986	 0.983858	 0.245000	 -2.300881	 -1.209690	 1.353027	 -0.289227	 0.730866	 -0.614964	 0.063262	 2
1462091863.327	 12	 -0.124890	 0.630819	 0.103258	 -2.295486	 -1.210632	 1.350418	 -0.286336	 0.731317	 -0.616029	 0.060793	 2
1462091863.337	 12	 -0.588445	 -0.173677	 0.153096	 -2.307053	 -1.208353	 1.337834	 -0.285955	 0.732992	 -0.614250	 0.060417	 2
1462091863.347	 12	 -0.820187	 -0.599144	 0.349387	 -2.332585	 -1.205269	 1.316159	 -0.286708	 0.735632	 -0.610557	 0.062162	 2
1462091863.357	 12	 -0.930030	 -0.634540	 0.410762	 -2.363255	 -1.201888	 1.290114	 -0.287401	 0.738775	 -0.606181	 0.064471	 2
1462091863.367	 12	 -1.011362	 -0.584098	 0.293640	 -2.393088	 -1.196843	 1.264701	 -0.288410	 0.742057	 -0.601482	 0.066266	 2
1462091863.377	 12	 -0.698573	 0.323473	 0.316414	 -2.412295	 -1.192865	 1.243812	 -0.287500	 0.744926	 -0.598402	 0.065913	 2
1462091863.387	 12	 -0.088835	 1.505726	 0.349816	 -2.410289	 -1.193454	 1.232354	 -0.282466	 0.746547	 -0.599205	 0.061914	 2
1462091863.397	 12	 0.296044	 1.392326	 0.121600	 -2.395066	 -1.196358	 1.232518	 -0.277161	 0.746607	 -0.602073	 0.057168	 2
1462091863.407	 12	 0.444200	 0.279047	 -0.214041	 -2.379426	 -1.198504	 1.242946	 -0.275741	 0.745336	 -0.604484	 0.055140	 2
1462091863.417	 12	 0.476168	 -1.100265	 -0.468017	 -2.370958	 -1.199036	 1.260141	 -0.279430	 0.743122	 -0.605308	 0.057354	 2
1462091863.427	 12	 0.427389	 -2.286944	 -0.591605	 -2.372678	 -1.198281	 1.279910	 -0.287494	 0.740358	 -0.604281	 0.063734	 2
1462091863.437	 12	 0.310992	 -2.945286	 -0.634020	 -2.383398	 -1.196433	 1.298709	 -0.298189	 0.737455	 -0.601620	 0.072782	 2
1462091863.447	 12	 0.481096	 -2.484370	 -0.807063	 -2.389719	 -1.194194	 1.321002	 -0.308915	 0.734085	 -0.599262	 0.081092	 2
1462091863.457	 12	 1.279040	 -0.735878	 -1.082299	 -2.364355	 -1.194827	 1.361048	 -0.315766	 0.728809	 -0.601719	 0.084042	 2
1462091863.467	 12	 1.932809	 0.361508	 -1.147054	 -2.309446	 -1.199019	 1.418259	 -0.318676	 0.721623	 -0.608972	 0.082823	 2
1462091863.477	 12	 2.178063	 0.452007	 -1.035376	 -2.244744	 -1.204779	 1.482568	 -0.320180	 0.713556	 -0.617832	 0.081273	 2
1462091863.487	 12	 2.213426	 0.204535	 -0.972975	 -2.180136	 -1.210176	 1.548843	 -0.321925	 0.705222	 -0.626491	 0.080837	 2
1462091863.497	 12	 2.268200	 0.129255	 -1.064743	 -2.113522	 -1.213743	 1.618594	 -0.324234	 0.696513	 -0.634998	 0.080748	 2
1462091863.507	 12	 2.372244	 0.292302	 -1.125946	 -2.041337	 -1.215320	 1.693014	 -0.326392	 0.687287	 -0.643959	 0.080136	 2
1462091863.517	 12	 2.431389	 0.530038	 -1.026198	 -1.965409	 -1.215873	 1.769009	 -0.327521	 0.677888	 -0.653411	 0.079071	 2
1462091863.527	 12	 2.403221	 0.773655	 -0.884071	 -1.888605	 -1.215687	 1.843296	 -0.327314	 0.668723	 -0.663065	 0.077595	 2
1462091863.537	 12	 2.339444	 0.969211	 -0.783646	 -1.812397	 -1.214449	 1.914726	 -0.325999	 0.659892	 -0.672710	 0.075683	 2
1462091863.547	 12	 2.246296	 1.056283	 -0.694632	 -1.738500	 -1.212032	 1.982452	 -0.323966	 0.651421	 -0.682123	 0.073515	 2
1462091863.557	 12	 2.134089	 0.924517	 -0.576582	 -1.669719	 -1.208875	 2.045544	 -0.321807	 0.643369	 -0.690916	 0.071765	 2
1462091863.567	 12	 1.993219	 0.577111	 -0.432579	 -1.608881	 -1.205578	 2.103402	 -0.320236	 0.635805	 -0.698661	 0.071231	 2
1462091863.577	 12	 1.804562	 0.073324	 -0.311995	 -1.558461	 -1.202422	 2.155214	 -0.319923	 0.628831	 -0.704972	 0.072357	 2
1462091863.587	 12	 1.548373	 -0.454009	 -0.239003	 -1.520238	 -1.199365	 2.199695	 -0.321274	 0.622585	 -0.709603	 0.075064	 2
1462091863.597	 12	 1.251832	 -0.897554	 -0.214970	 -1.494716	 -1.196330	 2.235638	 -0.324272	 0.617209	 -0.712515	 0.078887	 2
1462091863.607	 12	 0.989143	 -1.173193	 -0.197130	 -1.479793	 -1.193456	 2.263669	 -0.328440	 0.612687	 -0.714003	 0.083313	 2
1462091863.617	 12	 0.815780	 -1.261083	 -0.213490	 -1.471473	 -1.190596	 2.286091	 -0.333173	 0.608766	 -0.714625	 0.087809	 2
1462091863.647	 14	 1.016255	 -0.639082	 -0.454573	 -1.441702	 -1.177155	 2.349400	 -0.345543	 0.596583	 -0.717832	 0.096987	 2
1462091863.657	 14	 1.240369	 -0.387870	 -0.482962	 -1.419739	 -1.170779	 2.378038	 -0.347980	 0.591277	 -0.720812	 0.098648	 2
1462091863.667	 14	 1.410877	 -0.225529	 -0.468016	 -1.392463	 -1.163839	 2.410540	 -0.349642	 0.585358	 -0.724629	 0.100094	 2
1462091863.677	 14	 1.521452	 -0.110774	 -0.439135	 -1.362075	 -1.156601	 2.445180	 -0.350680	 0.579075	 -0.728968	 0.101499	 2
1462091863.687	 14	 1.611517	 -0.009038	 -0.453893	 -1.329805	 -1.148691	 2.480875	 -0.351286	 0.572459	 -0.733710	 0.102751	 2
1462091863.697	 14	 1.670719	 0.102432	 -0.458700	 -1.296347	 -1.140010	 2.516825	 -0.351472	 0.565581	 -0.738796	 0.103764	 2
1462091863.707	 14	 1.646892	 0.234563	 -0.434882	 -1.262885	 -1.131020	 2.551529	 -0.351108	 0.558757	 -0.744041	 0.104485	 2
1462091863.717	 14	 1.543325	 0.407537	 -0.384412	 -1.230590	 -1.122244	 2.583266	 -0.350032	 0.552381	 -0.749253	 0.104746	 2
1462091863.727	 14	 1.410812	 0.550831	 -0.331834	 -1.200003	 -1.113987	 2.611488	 -0.348266	 0.546622	 -0.754312	 0.104542	 2
1462091863.737	 14	 1.261732	 0.578217	 -0.282321	 -1.172131	 -1.106385	 2.636114	 -0.346188	 0.541498	 -0.759010	 0.104107	 2
1462091863.747	 14	 1.100248	 0.462075	 -0.229774	 -1.148335	 -1.099599	 2.657179	 -0.344349	 0.536993	 -0.763077	 0.103806	 2
1462091863.757	 14	 0.889244	 0.258828	 -0.181869	 -1.130035	 -1.093890	 2.674243	 -0.343182	 0.533206	 -0.766245	 0.103863	 2
1462091863.767	 14	 0.611904	 0.068119	 -0.191886	 -1.118563	 -1.089266	 2.685890	 -0.342882	 0.530323	 -0.768355	 0.104023	 2
1462091863.777	 14	 0.346154	 -0.116569	 -0.246710	 -1.114212	 -1.085393	 2.691581	 -0.343548	 0.528322	 -0.769436	 0.104013	 2
1462091863.787	 14	 0.178457	 -0.340789	 -0.286770	 -1.115726	 -1.081936	 2.693049	 -0.345258	 0.526870	 -0.769662	 0.104045	 2
1462091863.797	 14	 0.091024	 -0.558505	 -0.277377	 -1.121218	 -1.078914	 2.692587	 -0.347896	 0.525685	 -0.769224	 0.104496	 2
1462091863.807	 14	 -0.033190	 -0.678066	 -0.241172	 -1.129761	 -1.076627	 2.690304	 -0.351070	 0.524896	 -0.768218	 0.105241	 2
1462091863.817	 14	 -0.161546	 -0.799495	 -0.170844	 -1.141089	 -1.075462	 2.686094	 -0.354563	 0.524665	 -0.766627	 0.106279	 2
1462091863.827	 14	 -0.249230	 -1.130497	 -0.090031	 -1.156090	 -1.075380	 2.680745	 -0.358919	 0.524789	 -0.764250	 0.108145	 2
1462091863.837	 14	 -0.390946	 -1.657648	 0.054438	 -1.177107	 -1.076863	 2.674123	 -0.364866	 0.525302	 -0.760583	 0.111553	 2
1462091863.847	 14	 -0.702419	 -2.255092	 0.263677	 -1.207299	 -1.081057	 2.663689	 -0.372625	 0.526808	 -0.754982	 0.116731	 2
1462091863.857	 14	 -1.193655	 -2.981527	 0.506320	 -1.251305	 -1.088802	 2.645515	 -0.382572	 0.529946	 -0.746641	 0.123785	 2
1462091863.867	 14	 -1.836364	 -3.633585	 0.677436	 -1.313646	 -1.099689	 2.614614	 -0.394854	 0.535139	 -0.735009	 0.132203	 2
1462091863.877	 14	 -2.529233	 -3.768090	 0.769610	 -1.394122	 -1.112050	 2.566850	 -0.408198	 0.542641	 -0.720564	 0.140364	 2
1462091863.887	 14	 -3.150637	 -3.239050	 0.870533	 -1.487124	 -1.124295	 2.501300	 -0.420177	 0.552636	 -0.704692	 0.146470	 2
1462091863.897	 14	 -3.739516	 -2.144313	 0.964714	 -1.587062	 -1.134881	 2.418008	 -0.428783	 0.565313	 -0.688743	 0.148995	 2
1462091863.907	 14	 -4.389028	 -0.130211	 1.090358	 -1.687030	 -1.142581	 2.315660	 -0.431268	 0.581452	 -0.674352	 0.145504	 2
1462091863.917	 14	 -5.018229	 2.580403	 1.203123	 -1.778147	 -1.146311	 2.194841	 -0.424875	 0.601560	 -0.663180	 0.133410	 2
1462091863.927	 14	 -5.449002	 4.900495	 1.225266	 -1.855797	 -1.145082	 2.061558	 -0.410001	 0.624463	 -0.655146	 0.112823	 2
1462091863.937	 14	 -5.558702	 6.060299	 1.245539	 -1.921337	 -1.139413	 1.925316	 -0.389825	 0.647943	 -0.648545	 0.087151	 2
1462091863.947	 14	 -5.334006	 6.136637	 1.302910	 -1.977811	 -1.131403	 1.794781	 -0.367593	 0.670131	 -0.641965	 0.060678	 2
1462091863.957	 14	 -4.857031	 5.020353	 1.272383	 -2.030645	 -1.122143	 1.676828	 -0.347305	 0.689661	 -0.634297	 0.037623	 2
1462091863.967	 14	 -4.278754	 3.089192	 1.115092	 -2.085995	 -1.111722	 1.575215	 -0.332555	 0.706095	 -0.624809	 0.021221	 2
1462091863.977	 14	 -3.755408	 1.134075	 0.858941	 -2.145623	 -1.099537	 1.490544	 -0.324601	 0.719760	 -0.613544	 0.011997	 2
1462091863.987	 14	 -3.323662	 -0.435905	 0.727602	 -2.208916	 -1.086150	 1.420083	 -0.322287	 0.731365	 -0.600962	 0.008990	 2
1462091863.997	 14	 -2.947402	 -1.566503	 0.882195	 -2.276205	 -1.073732	 1.358653	 -0.323278	 0.741668	 -0.587614	 0.011379	 2
1462091864.007	 14	 -2.566092	 -2.390065	 1.137653	 -2.347245	 -1.063713	 1.302664	 -0.325824	 0.750994	 -0.574029	 0.018385	 2
1462091864.017	 14	 -2.099820	 -2.927970	 1.218111	 -2.418387	 -1.055941	 1.253386	 -0.329492	 0.758954	 -0.560886	 0.028818	 2
1462091864.027	 14	 -1.561622	 -2.979363	 1.095713	 -2.482817	 -1.050102	 1.213797	 -0.333785	 0.765035	 -0.549237	 0.040600	 2
1462091864.037	 14	 -1.031597	 -2.406152	 0.859833	 -2.533520	 -1.046213	 1.185141	 -0.337558	 0.769150	 -0.540234	 0.051089	 2
1462091864.047	 14	 -0.584752	 -1.317286	 0.563398	 -2.565353	 -1.044024	 1.166918	 -0.339613	 0.771650	 -0.534674	 0.057818	 2
1462091864.057	 14	 -0.230730	 -0.273455	 0.325970	 -2.578846	 -1.043455	 1.157230	 -0.339605	 0.772972	 -0.532493	 0.060281	 2
1462091864.067	 14	 -0.086975	 0.208172	 0.210896	 -2.581869	 -1.043807	 1.152220	 -0.338391	 0.773683	 -0.532241	 0.060217	 2
1462091864.077	 14	 -0.264392	 0.160753	 0.200276	 -2.584607	 -1.043152	 1.146795	 -0.337170	 0.774606	 -0.531737	 0.059647	 2
1462091864.087	 14	 -0.661035	 -0.087204	 0.314393	 -2.593839	 -1.039894	 1.136353	 -0.336315	 0.776537	 -0.529469	 0.059536	 2
1462091864.097	 14	 -1.086658	 -0.267011	 0.574340	 -2.611967	 -1.034025	 1.118010	 -0.335279	 0.779898	 -0.525104	 0.060115	 2
1462091864.107	 14	 -1.411863	 -0.203504	 0.839940	 -2.636670	 -1.026240	 1.091943	 -0.333244	 0.784631	 -0.519233	 0.060835	 2
1462091864.117	 14	 -1.556950	 0.081378	 1.051678	 -2.662854	 -1.017427	 1.061279	 -0.329802	 0.790232	 -0.512893	 0.060870	 2
1462091864.127	 14	 -1.517007	 0.471912	 1.240407	 -2.687449	 -1.009083	 1.027875	 -0.324538	 0.796240	 -0.507035	 0.059932	 2
1462091864.137	 14	 -1.279156	 0.779779	 1.110112	 -2.706200	 -1.001918	 0.997255	 -0.318459	 0.801747	 -0.502429	 0.057877	 2
1462091864.147	 14	 -0.884527	 0.981737	 0.812273	 -2.715580	 -0.996582	 0.974973	 -0.312886	 0.805863	 -0.499690	 0.054741	 2
1462091864.157	 14	 -0.514505	 1.153955	 0.803193	 -2.719499	 -0.994379	 0.957091	 -0.307065	 0.808892	 -0.498770	 0.051323	 2
1462091864.167	 14	 -0.244385	 1.383103	 0.830684	 -2.719791	 -0.994965	 0.940998	 -0.300509	 0.811232	 -0.499334	 0.047566	 2
1462091864.177	 14	 -0.074041	 1.740059	 0.842114	 -2.715909	 -0.997403	 0.926086	 -0.293025	 0.813125	 -0.501127	 0.042841	 2
1462091864.187	 14	 0.036322	 2.199958	 0.944548	 -2.707840	 -1.001282	 0.910902	 -0.284090	 0.814823	 -0.503996	 0.036656	 2
1462091864.197	 14	 0.184386	 2.597115	 1.210198	 -2.697996	 -1.007391	 0.892877	 -0.273099	 0.816459	 -0.507878	 0.029508	 2
1462091864.207	 14	 0.440249	 2.811727	 1.427383	 -2.687687	 -1.016722	 0.872325	 -0.260309	 0.817728	 -0.512901	 0.022206	 2
1462091864.217	 14	 0.800154	 2.870215	 1.424793	 -2.674900	 -1.029375	 0.853794	 -0.247026	 0.817985	 -0.519279	 0.015083	 2
1462091864.227	 14	 1.228576	 2.787938	 1.105898	 -2.656347	 -1.044881	 0.842619	 -0.234622	 0.816688	 -0.527169	 0.008096	 2
1462091864.237	 14	 1.717077	 2.558777	 0.503751	 -2.626798	 -1.061958	 0.846415	 -0.224940	 0.813273	 -0.536644	 0.000964	 2
1462091864.247	 14	 2.260961	 1.927661	 0.082824	 -2.588389	 -1.081090	 0.865946	 -0.218514	 0.807686	 -0.547605	 -0.004841	 2
1462091864.257	 14	 2.673774	 0.474233	 -0.117606	 -2.550999	 -1.102332	 0.897848	 -0.216422	 0.800424	 -0.558970	 -0.005923	 2
1462091864.267	 14	 2.942174	 -2.058691	 0.072837	 -2.531619	 -1.126168	 0.934670	 -0.220274	 0.792311	 -0.568960	 0.002688	 2
1462091864.277	 14	 3.069400	 -5.215676	 0.390857	 -2.543228	 -1.152983	 0.970216	 -0.231452	 0.783621	 -0.576001	 0.024291	 2
1462091864.287	 14	 3.015677	 -7.825396	 0.714479	 -2.590795	 -1.181789	 0.998371	 -0.249554	 0.774153	 -0.578794	 0.058375	 2
1462091864.297	 14	 3.146700	 -7.562932	 0.879908	 -2.647482	 -1.212898	 1.020528	 -0.267501	 0.763313	 -0.580390	 0.094573	 2
1462091864.307	 14	 2.688535	 -6.058662	 0.886172	 -2.698212	 -1.242847	 1.036321	 -0.281627	 0.752439	 -0.581935	 0.125988	 2
1462091864.317	 14	 0.954878	 -2.784053	 0.884844	 -2.742602	 -1.259254	 1.027747	 -0.287795	 0.747261	 -0.581356	 0.144221	 2
1462091864.337	 15	 -0.074141	 -0.087784	 0.032179	 -2.766961	 -1.263576	 1.018561	 -0.290533	 0.745861	 -0.579888	 0.151699	 2
1462091864.347	 15	 -0.348786	 0.413750	 0.146879	 -2.770984	 -1.261294	 1.011022	 -0.289356	 0.747145	 -0.579143	 0.150467	 2
1462091864.357	 15	 -0.332579	 0.616528	 -0.044278	 -2.769559	 -1.258140	 1.006346	 -0.287842	 0.748612	 -0.578684	 0.147825	 2
1462091864.367	 15	 -0.373944	 0.391794	 -0.250635	 -2.762882	 -1.254134	 1.008487	 -0.287535	 0.749659	 -0.578199	 0.144982	 2
1462091864.377	 15	 -0.602670	 0.068264	 -0.222879	 -2.760431	 -1.248173	 1.009389	 -0.288394	 0.750986	 -0.576570	 0.142888	 2
1462091864.397	 16	 -0.770724	 0.128651	 0.115927	 -2.775276	 -1.234117	 0.995088	 -0.290129	 0.755012	 -0.570875	 0.141010	 2
1462091864.407	 16	 -0.779723	 0.577594	 0.272587	 -2.785000	 -1.227557	 0.979608	 -0.288350	 0.757983	 -0.568392	 0.138731	 2
1462091864.417	 16	 -0.435676	 0.736576	 0.187941	 -2.789056	 -1.223169	 0.967752	 -0.285862	 0.760356	 -0.567166	 0.135882	 2
1462091864.427	 16	 0.304902	 0.633281	 0.030260	 -2.782785	 -1.224403	 0.967261	 -0.283653	 0.760581	 -0.568503	 0.133644	 2
1462091864.437	 16	 0.537833	 0.302355	 -0.041991	 -2.772751	 -1.229275	 0.973594	 -0.282239	 0.759302	 -0.571116	 0.132774	 2
1462091864.447	 16	 0.346878	 -0.349180	 -0.055983	 -2.769084	 -1.232768	 0.979439	 -0.282711	 0.757969	 -0.572394	 0.133876	 2
1462091864.457	 16	 0.305826	 -0.678798	 -0.058693	 -2.770685	 -1.235390	 0.984443	 -0.284538	 0.756586	 -0.572690	 0.136534	 2
1462091864.467	 16	 0.424111	 -0.488761	 -0.059020	 -2.770627	 -1.238762	 0.990385	 -0.286088	 0.755017	 -0.573392	 0.139012	 2
1462091864.477	 16	 0.626977	 -0.019206	 -0.054285	 -2.764500	 -1.243936	 0.998466	 -0.286327	 0.753175	 -0.575389	 0.140255	 2
1462091864.487	 16	 0.880878	 0.468840	 -0.119098	 -2.749009	 -1.251057	 1.010944	 -0.285081	 0.750954	 -0.579023	 0.139746	 2
1462091864.497	 16	 1.182699	 0.626672	 -0.086153	 -2.726484	 -1.260830	 1.028206	 -0.282935	 0.748003	 -0.584121	 0.138717	 2
1462091864.507	 16	 1.419015	 0.453017	 -0.030143	 -2.702110	 -1.273067	 1.048277	 -0.280605	 0.744310	 -0.589967	 0.138573	 2
1462091864.517	 16	 1.694835	 -0.142175	 -0.006110	 -2.677702	 -1.287573	 1.073437	 -0.279441	 0.739508	 -0.596027	 0.140683	 2
1462091864.527	 16	 1.951491	 -0.975373	 0.043584	 -2.655528	 -1.304569	 1.104401	 -0.280255	 0.733326	 -0.601917	 0.146236	 2
1462091864.537	 16	 2.048373	 -1.704215	 0.045551	 -2.635757	 -1.322718	 1.140717	 -0.283177	 0.726090	 -0.607143	 0.154859	 2
1462091864.547	 16	 1.996321	 -2.157772	 0.107861	 -2.618915	 -1.340709	 1.179378	 -0.287557	 0.718413	 -0.611398	 0.165486	 2
1462091864.557	 16	 1.913026	 -2.274679	 0.233258	 -2.605822	 -1.358362	 1.216004	 -0.292141	 0.710846	 -0.614842	 0.176977	 2
1462091864.567	 16	 1.875658	 -2.198848	 0.408008	 -2.596103	 -1.376343	 1.248619	 -0.295997	 0.703548	 -0.617895	 0.188711	 2
1462091864.577	 16	 1.879598	 -1.973085	 0.594452	 -2.589326	 -1.395251	 1.276274	 -0.298556	 0.696567	 -0.620899	 0.200358	 2
1462091864.587	 16	 1.904730	 -1.730784	 0.723313	 -2.582422	 -1.414999	 1.301301	 -0.299744	 0.689870	 -0.624097	 0.211507	 2
1462091864.597	 16	 1.960610	 -1.795623	 0.898074	 -2.578537	 -1.436007	 1.322995	 -0.300205	 0.683151	 -0.627214	 0.223125	 2
1462091864.607	 16	 1.987532	 -2.130419	 1.088693	 -2.584903	 -1.458341	 1.337090	 -0.300791	 0.676138	 -0.629707	 0.236288	 2
1462091864.617	 16	 1.957730	 -2.531779	 1.317554	 -2.615518	 -1.481659	 1.330749	 -0.301831	 0.668871	 -0.631123	 0.251382	 2
1462091864.627	 16	 1.945901	 -2.753353	 1.558589	 -2.696745	 -1.505872	 1.276562	 -0.302906	 0.661461	 -0.631538	 0.268099	 2
1462091864.637	 16	 1.967374	 -2.683756	 1.777531	 -2.908697	 -1.530200	 1.091521	 -0.303094	 0.654124	 -0.631487	 0.285445	 2
1462091864.647	 16	 2.011624	 -2.488074	 1.938831	 2.651706	 -1.548656	 0.393793	 -0.301967	 0.646980	 -0.631343	 0.302719	 2
1462091864.657	 16	 2.155812	 -2.525186	 2.012899	 1.501652	 -1.540079	 -0.731645	 -0.300104	 0.639435	 -0.631278	 0.320233	 2
1462091864.667	 16	 2.255250	 -2.727421	 2.032532	 1.102280	 -1.514118	 -1.104586	 -0.298412	 0.631000	 -0.631046	 0.338484	 2
1462091864.677	 16	 2.130546	 -2.870014	 1.972609	 0.955054	 -1.485753	 -1.223682	 -0.297339	 0.622141	 -0.630192	 0.356914	 2
1462091864.687	 16	 1.718432	 -2.877583	 1.935627	 0.895786	 -1.459200	 -1.254219	 -0.297065	 0.613967	 -0.628027	 0.374672	 2
1462091864.697	 16	 1.129548	 -2.611002	 1.937907	 0.886659	 -1.436118	 -1.236248	 -0.297152	 0.607677	 -0.624225	 0.390862	 2
1462091864.707	 16	 0.658639	 -2.397482	 2.150751	 0.910043	 -1.415197	 -1.188011	 -0.296939	 0.603550	 -0.618778	 0.405794	 2
1462091864.717	 16	 0.463763	 -2.301422	 2.411257	 0.947272	 -1.393293	 -1.126681	 -0.295956	 0.600716	 -0.611946	 0.420800	 2
1462091864.727	 16	 0.414819	 -2.146175	 2.532493	 0.981517	 -1.370373	 -1.069405	 -0.294266	 0.598403	 -0.604618	 0.435613	 2
1462091864.737	 16	 0.422061	 -1.726383	 2.782527	 1.015094	 -1.345198	 -1.016297	 -0.290705	 0.597066	 -0.597162	 0.449889	 2
1462091864.747	 16	 0.328117	 -1.304714	 2.810715	 1.047617	 -1.319166	 -0.968334	 -0.285651	 0.596827	 -0.589794	 0.462972	 2
1462091864.757	 16	 0.131797	 -0.751855	 2.701401	 1.082014	 -1.294427	 -0.923441	 -0.279706	 0.598082	 -0.582653	 0.473895	 2
1462091864.767	 16	 0.132611	 -0.312936	 2.653256	 1.115093	 -1.270244	 -0.884690	 -0.272649	 0.600431	 -0.576095	 0.482969	 2
1462091864.777	 16	 0.288752	 0.127649	 2.750849	 1.144297	 -1.244626	 -0.854036	 -0.263870	 0.603404	 -0.570196	 0.491073	 2
1462091864.787	 16	 0.799613	 0.113816	 2.956228	 1.162760	 -1.215472	 -0.836385	 -0.252982	 0.605786	 -0.565181	 0.499594	 2
1462091864.797	 16	 1.244967	 -0.122897	 3.054592	 1.165362	 -1.183009	 -0.832715	 -0.241088	 0.606056	 -0.560943	 0.509820	 2
1462091864.807	 16	 1.228490	 -0.198571	 3.026321	 1.164581	 -1.150065	 -0.831594	 -0.229127	 0.605647	 -0.556707	 0.520356	 2
1462091864.817	 16	 0.915044	 -0.061075	 2.939740	 1.168580	 -1.118969	 -0.825913	 -0.217868	 0.605868	 -0.551858	 0.530009	 2
1462091864.827	 16	 0.421617	 0.273583	 2.981255	 1.182920	 -1.089493	 -0.811970	 -0.206879	 0.607992	 -0.545835	 0.538155	 2
1462091864.837	 16	 -0.239418	 0.525315	 3.106587	 1.209523	 -1.061107	 -0.786978	 -0.196424	 0.612526	 -0.537763	 0.545013	 2
1462091864.847	 16	 -0.941379	 0.818494	 3.357355	 1.248406	 -1.032947	 -0.750699	 -0.186489	 0.619731	 -0.527186	 0.550663	 2
1462091864.857	 16	 -1.564488	 0.930910	 3.793329	 1.297162	 -1.001798	 -0.704065	 -0.176538	 0.629313	 -0.513320	 0.556149	 2
1462091864.867	 16	 -1.904018	 1.114733	 4.070830	 1.349569	 -0.967316	 -0.654004	 -0.166217	 0.640397	 -0.497160	 0.561334	 2
1462091864.877	 16	 -1.852101	 1.286840	 3.771435	 1.398391	 -0.932911	 -0.608962	 -0.156031	 0.651594	 -0.481070	 0.565377	 2
1462091864.887	 16	 -1.397135	 1.629201	 2.912721	 1.439887	 -0.904074	 -0.576347	 -0.146298	 0.661993	 -0.468337	 0.566589	 2
1462091864.897	 16	 -1.008014	 1.488666	 2.171583	 1.472440	 -0.882273	 -0.554807	 -0.138003	 0.670640	 -0.459250	 0.565939	 2
1462091864.907	 16	 -0.802108	 0.759106	 1.679146	 1.493955	 -0.864952	 -0.539222	 -0.132111	 0.676497	 -0.451918	 0.566276	 2
1462091864.917	 16	 -0.606351	 0.073931	 0.996438	 1.504980	 -0.853733	 -0.527913	 -0.129448	 0.679435	 -0.446531	 0.567645	 2
1462091864.927	 16	 -0.412789	 -0.663019	 0.360161	 1.505889	 -0.848926	 -0.520458	 -0.130059	 0.679452	 -0.443212	 0.570082	 2
1462091864.937	 16	 -0.310748	 -1.448797	 -0.153211	 1.496986	 -0.849497	 -0.515660	 -0.133859	 0.676560	 -0.441402	 0.574032	 2
1462091864.947	 16	 -0.633083	 -2.601586	 -0.407322	 1.479600	 -0.853572	 -0.508613	 -0.141526	 0.670851	 -0.439230	 0.580523	 2
1462091864.957	 16	 -1.466987	 -3.803320	 -0.430410	 1.458706	 -0.856783	 -0.490046	 -0.153436	 0.663198	 -0.433078	 0.590820	 2
1462091864.967	 16	 -2.350323	 -4.615004	 0.071713	 1.438888	 -0.858630	 -0.457594	 -0.169036	 0.654563	 -0.422261	 0.603879	 2
1462091864.977	 16	 -2.818815	 -5.141896	 0.708294	 1.421744	 -0.845899	 -0.414269	 -0.182024	 0.646247	 -0.404205	 0.621169	 2
1462091864.987	 16	 -2.886631	 -5.313737	 1.338477	 1.407796	 -0.800319	 -0.365077	 -0.183840	 0.640071	 -0.375385	 0.644669	 2
1462091864.997	 16	 -2.566515	 -5.513073	 1.849773	 1.384079	 -0.771747	 -0.322548	 -0.191093	 0.630049	 -0.351591	 0.665511	 2
1462091865.007	 16	 -1.720657	 -5.608202	 2.127147	 1.350321	 -0.755394	 -0.290327	 -0.200805	 0.616500	 -0.333031	 0.684613	 2
1462091865.017	 16	 -0.836916	 -5.440957	 2.226520	 1.309780	 -0.736361	 -0.269130	 -0.206640	 0.601414	 -0.316508	 0.703864	 2
1462091865.027	 16	 -0.016180	 -5.074306	 2.077842	 1.265047	 -0.716570	 -0.258522	 -0.209103	 0.585480	 -0.302942	 0.722299	 2
1462091865.037	 16	 0.391546	 -4.307166	 1.987643	 1.222580	 -0.696563	 -0.254067	 -0.208881	 0.570527	 -0.291813	 0.738724	 2
1462091865.047	 16	 0.376409	 -2.949263	 1.936465	 1.192112	 -0.676924	 -0.249900	 -0.206643	 0.559650	 -0.282230	 0.751290	 2
1462091865.057	 16	 0.214367	 -2.012836	 1.930522	 1.174046	 -0.658174	 -0.243682	 -0.203375	 0.552980	 -0.273440	 0.760317	 2
1462091865.067	 16	 0.015457	 -1.771876	 2.077308	 1.161565	 -0.639195	 -0.234451	 -0.199944	 0.548041	 -0.264032	 0.768089	 2
1462091865.077	 16	 -0.195879	 -1.673427	 2.220745	 1.151936	 -0.619732	 -0.221916	 -0.196726	 0.543836	 -0.253501	 0.775422	 2
1462091865.087	 16	 -0.369264	 -1.594918	 2.269879	 1.144452	 -0.600453	 -0.206918	 -0.193874	 0.540194	 -0.242225	 0.782260	 2
1462091865.097	 16	 -0.431808	 -1.739322	 2.278672	 1.136660	 -0.581579	 -0.190818	 -0.191419	 0.536304	 -0.230530	 0.789046	 2
1462091865.107	 16	 -0.333250	 -2.355288	 2.299791	 1.123133	 -0.562355	 -0.175284	 -0.189189	 0.530195	 -0.218376	 0.797128	 2
1462091865.117	 16	 -0.307883	 -2.777263	 2.201857	 1.103884	 -0.543485	 -0.160463	 -0.187337	 0.521794	 -0.206026	 0.806343	 2
1462091865.127	 16	 -0.563356	 -2.568658	 2.117564	 1.085704	 -0.526911	 -0.144136	 -0.186488	 0.513517	 -0.193705	 0.814862	 2
1462091865.137	 16	 -0.794346	 -2.279214	 2.190477	 1.072001	 -0.511305	 -0.124710	 -0.186200	 0.506691	 -0.180728	 0.822150	 2
1462091865.147	 16	 -0.781883	 -2.377941	 2.221423	 1.058463	 -0.495798	 -0.104479	 -0.185955	 0.499828	 -0.167404	 0.829198	 2
1462091865.157	 16	 -0.597021	 -2.633059	 2.316556	 1.041804	 -0.479227	 -0.085244	 -0.185064	 0.491776	 -0.153903	 0.836792	 2
1462091865.167	 16	 -0.347359	 -2.835299	 2.542704	 1.022106	 -0.460037	 -0.067002	 -0.182802	 0.482608	 -0.139895	 0.845046	 2
1462091865.177	 16	 -0.087993	 -2.793970	 2.773167	 1.001492	 -0.437806	 -0.049551	 -0.178830	 0.473199	 -0.125435	 0.853445	 2
1462091865.187	 16	 0.196637	 -2.566873	 2.963573	 0.981940	 -0.412706	 -0.033146	 -0.173016	 0.464410	 -0.110894	 0.861447	 2
1462091865.197	 16	 0.481843	 -2.223791	 3.161448	 0.964781	 -0.384695	 -0.017900	 -0.165268	 0.456841	 -0.096460	 0.868722	 2
1462091865.207	 16	 0.774080	 -1.911054	 3.284377	 0.949914	 -0.353983	 -0.003903	 -0.155702	 0.450461	 -0.082224	 0.875261	 2
1462091865.217	 16	 1.092099	 -1.668563	 3.264681	 0.936602	 -0.321536	 0.007829	 -0.144585	 0.444988	 -0.068805	 0.881106	 2
1462091865.227	 16	 1.441517	 -1.490551	 3.166311	 0.923868	 -0.287857	 0.016456	 -0.132024	 0.440001	 -0.056633	 0.886432	 2
1462091865.237	 16	 1.802430	 -1.377342	 3.083224	 0.911352	 -0.252822	 0.021910	 -0.117986	 0.435292	 -0.045720	 0.891353	 2
1462091865.247	 16	 2.162017	 -1.396409	 3.092704	 0.898166	 -0.215787	 0.024738	 -0.102338	 0.430382	 -0.035669	 0.896117	 2
1462091865.257	 16	 2.539761	 -1.490371	 3.195117	 0.883732	 -0.175805	 0.025665	 -0.084817	 0.424923	 -0.025983	 0.900873	 2
1462091865.277	 16	 3.336303	 -1.655360	 3.498915	 0.851276	 -0.084901	 0.022900	 -0.043372	 0.412060	 -0.007103	 0.910096	 2
1462091865.267	 16	 2.949619	 -1.593738	 3.333399	 0.867884	 -0.132254	 0.024920	 -0.065177	 0.418752	 -0.016501	 0.905608	 2
1462091865.287	 16	 3.636491	 -1.693631	 3.622771	 0.834267	 -0.034317	 0.020202	 -0.019778	 0.404903	 0.002282	 0.914143	 2
1462091865.297	 16	 3.816597	 -1.756819	 3.635535	 0.816833	 0.018063	 0.017105	 0.004891	 0.397197	 0.011436	 0.917649	 2
1462091865.307	 16	 3.834215	 -1.762040	 3.509573	 0.799319	 0.070249	 0.013858	 0.029655	 0.389079	 0.020043	 0.920509	 2
1462091865.327	 17	 3.529410	 -1.722108	 3.026611	 0.765587	 0.167496	 0.007945	 0.076117	 0.372510	 0.034917	 0.924242	 2
1462091865.337	 17	 3.394212	 -1.870502	 2.749309	 0.747910	 0.211721	 0.004854	 0.097479	 0.363492	 0.040845	 0.925582	 2
1462091865.347	 17	 3.352210	 -1.961590	 2.491979	 0.729294	 0.253743	 0.001048	 0.118026	 0.353815	 0.045609	 0.926717	 2
1462091865.357	 17	 3.399244	 -1.775993	 2.290801	 0.712256	 0.294535	 -0.003923	 0.138205	 0.344604	 0.049340	 0.927207	 2
1462091865.367	 17	 3.546777	 -1.450279	 2.238194	 0.698760	 0.335747	 -0.009846	 0.158651	 0.336726	 0.052635	 0.926647	 2
1462091865.377	 17	 3.725454	 -1.189678	 2.312601	 0.688525	 0.378679	 -0.016192	 0.179845	 0.330026	 0.056034	 0.924986	 2
1462091865.387	 17	 3.882113	 -1.107393	 2.429236	 0.679765	 0.423635	 -0.022394	 0.201847	 0.323686	 0.059764	 0.922450	 2
1462091865.397	 17	 3.959241	 -1.134506	 2.534889	 0.670943	 0.470113	 -0.028015	 0.224378	 0.317050	 0.063803	 0.919273	 2
1462091865.407	 17	 3.955042	 -1.159674	 2.582650	 0.661673	 0.517145	 -0.032815	 0.246954	 0.310025	 0.068048	 0.915569	 2
1462091865.417	 17	 3.903430	 -1.191863	 2.523117	 0.652124	 0.563706	 -0.037220	 0.269161	 0.302720	 0.072143	 0.911432	 2
1462091865.427	 17	 3.823611	 -1.248003	 2.376215	 0.642400	 0.608927	 -0.041921	 0.290700	 0.295158	 0.075650	 0.907002	 2
1462091865.437	 17	 3.723553	 -1.307181	 2.242249	 0.632440	 0.652575	 -0.046957	 0.311468	 0.287336	 0.078514	 0.902364	 2
1462091865.447	 17	 3.589680	 -1.375142	 2.203349	 0.621560	 0.694866	 -0.051243	 0.331434	 0.279130	 0.081153	 0.897581	 2
1462091865.457	 17	 3.489837	 -1.466628	 2.160728	 0.609475	 0.734403	 -0.054696	 0.349994	 0.270571	 0.083330	 0.892946	 2
1462091865.467	 17	 3.388072	 -1.478665	 2.071927	 0.597900	 0.765168	 -0.058470	 0.364595	 0.262679	 0.083987	 0.889391	 2
1462091865.477	 17	 3.246224	 -1.399012	 1.998228	 0.585495	 0.802632	 -0.060879	 0.381922	 0.254149	 0.085853	 0.884405	 2
1462091865.497	 18	 2.962047	 -1.215432	 1.971503	 0.560231	 0.875428	 -0.061273	 0.414828	 0.237807	 0.090469	 0.873602	 2
1462091865.507	 18	 2.890794	 -1.178922	 1.990582	 0.546314	 0.910571	 -0.058616	 0.430334	 0.229781	 0.093230	 0.867941	 2
1462091865.517	 18	 2.900181	 -1.167745	 1.922395	 0.532129	 0.945386	 -0.055537	 0.445596	 0.221818	 0.095814	 0.862010	 2
1462091865.527	 18	 2.940331	 -1.134849	 1.781671	 0.519224	 0.979852	 -0.053743	 0.460713	 0.214208	 0.097839	 0.855737	 2
1462091865.537	 18	 2.949399	 -1.140067	 1.652586	 0.507641	 1.013815	 -0.053449	 0.475620	 0.206892	 0.099249	 0.849194	 2
1462091865.547	 18	 2.884555	 -1.223606	 1.546863	 0.495971	 1.046854	 -0.053820	 0.490105	 0.199474	 0.100053	 0.842613	 2
1462091865.557	 18	 2.738493	 -1.325038	 1.434220	 0.483257	 1.078259	 -0.054162	 0.503853	 0.191770	 0.100239	 0.836247	 2
1462091865.567	 18	 2.552119	 -1.368973	 1.313937	 0.469605	 1.107519	 -0.054124	 0.516626	 0.183970	 0.099920	 0.830222	 2
1462091865.577	 18	 2.361762	 -1.357546	 1.199533	 0.455491	 1.134554	 -0.053582	 0.528376	 0.176326	 0.099269	 0.824545	 2
1462091865.587	 18	 2.152475	 -1.291775	 1.091128	 0.441219	 1.159277	 -0.052321	 0.539053	 0.169039	 0.098459	 0.819239	 2
1462091865.597	 18	 1.947665	 -1.187679	 0.989435	 0.427195	 1.181657	 -0.050282	 0.548643	 0.162302	 0.097642	 0.814319	 2
1462091865.607	 18	 1.786639	 -1.074164	 0.884251	 0.413970	 1.202017	 -0.047932	 0.557307	 0.156187	 0.096835	 0.809714	 2
1462091865.617	 18	 1.688770	 -0.910923	 0.768323	 0.403000	 1.220860	 -0.046411	 0.565276	 0.150918	 0.096064	 0.805269	 2
1462091865.627	 18	 1.663605	 -0.725500	 0.660494	 0.395675	 1.238867	 -0.046846	 0.572841	 0.146656	 0.095383	 0.800779	 2
1462091865.637	 18	 1.677078	 -0.513431	 0.576023	 0.392769	 1.256601	 -0.049753	 0.580221	 0.143473	 0.094916	 0.796084	 2
1462091865.647	 18	 1.671577	 -0.266080	 0.509098	 0.394403	 1.274090	 -0.054957	 0.587401	 0.141411	 0.094839	 0.791182	 2
1462091865.657	 18	 1.628798	 -0.007941	 0.447927	 0.400722	 1.291023	 -0.062250	 0.594234	 0.140554	 0.095315	 0.786159	 2
1462091865.667	 18	 1.535299	 0.138601	 0.377633	 0.410925	 1.306941	 -0.071699	 0.600582	 0.140552	 0.096094	 0.781225	 2
1462091865.677	 18	 1.376099	 0.152426	 0.313070	 0.422984	 1.321255	 -0.082536	 0.606268	 0.140861	 0.096849	 0.776671	 2
1462091865.687	 18	 1.167307	 0.030511	 0.283912	 0.433552	 1.333553	 -0.092724	 0.611166	 0.140843	 0.097309	 0.772768	 2
1462091865.697	 18	 0.932864	 -0.150452	 0.315177	 0.438574	 1.343830	 -0.098952	 0.615256	 0.139992	 0.097467	 0.769651	 2
1462091865.707	 18	 0.704937	 -0.339666	 0.384675	 0.435248	 1.352271	 -0.098548	 0.618576	 0.138110	 0.097437	 0.767330	 2
1462091865.717	 18	 0.509242	 -0.493782	 0.467009	 0.422628	 1.359179	 -0.090318	 0.621232	 0.135239	 0.097352	 0.765704	 2
1462091865.727	 18	 0.353120	 -0.597238	 0.511102	 0.402520	 1.364762	 -0.075630	 0.623337	 0.131668	 0.097230	 0.764631	 2
1462091865.737	 18	 0.224701	 -0.672382	 0.510455	 0.377700	 1.369070	 -0.056961	 0.624961	 0.127692	 0.096987	 0.764011	 2
1462091865.747	 18	 0.134541	 -0.742656	 0.463692	 0.351137	 1.372224	 -0.037254	 0.626204	 0.123501	 0.096449	 0.763750	 2
1462091865.757	 18	 0.071031	 -0.798295	 0.392321	 0.325388	 1.374396	 -0.019009	 0.627158	 0.119258	 0.095500	 0.763760	 2
1462091865.767	 18	 0.033183	 -0.844431	 0.321881	 0.301418	 1.375819	 -0.003058	 0.627903	 0.115034	 0.094159	 0.763963	 2
1462091865.777	 18	 0.041364	 -0.875682	 0.269297	 0.279630	 1.376972	 0.010285	 0.628607	 0.110849	 0.092476	 0.764208	 2
1462091865.787	 18	 0.081931	 -0.854684	 0.247824	 0.259519	 1.378327	 0.021990	 0.629410	 0.106791	 0.090691	 0.764339	 2
1462091865.797	 18	 0.149391	 -0.797525	 0.237111	 0.241113	 1.380183	 0.032439	 0.630400	 0.102984	 0.088968	 0.764248	 2
1462091865.807	 18	 0.236384	 -0.681836	 0.238496	 0.224452	 1.382802	 0.042132	 0.631648	 0.099600	 0.087516	 0.763834	 2
1462091865.817	 18	 0.355544	 -0.515350	 0.217692	 0.210871	 1.386440	 0.050267	 0.633234	 0.096894	 0.086452	 0.762989	 2
1462091865.827	 18	 0.529339	 -0.306464	 0.198939	 0.201858	 1.391577	 0.055739	 0.635326	 0.095077	 0.085839	 0.761546	 2
1462091865.837	 18	 0.725552	 -0.098687	 0.183177	 0.197542	 1.398583	 0.058631	 0.638051	 0.094209	 0.085768	 0.759381	 2
1462091865.847	 18	 0.890418	 0.054682	 0.132012	 0.199136	 1.407228	 0.057205	 0.641342	 0.094176	 0.085984	 0.756583	 2
1462091865.857	 18	 0.989796	 0.130552	 0.074302	 0.207211	 1.416898	 0.050233	 0.644991	 0.094762	 0.086238	 0.753372	 2
1462091865.867	 18	 0.983107	 0.106854	 0.030444	 0.219711	 1.426680	 0.038781	 0.648689	 0.095499	 0.086301	 0.750090	 2
1462091865.877	 18	 0.866201	 0.020720	 -0.014102	 0.234712	 1.435455	 0.024110	 0.652040	 0.096069	 0.086018	 0.747138	 2
1462091865.887	 18	 0.680890	 -0.090713	 -0.055090	 0.250724	 1.442428	 0.007311	 0.654768	 0.096295	 0.085283	 0.744804	 2
1462091865.897	 18	 0.483031	 -0.160517	 -0.080661	 0.265607	 1.447380	 -0.009159	 0.656771	 0.096220	 0.084276	 0.743163	 2
1462091865.907	 18	 0.329996	 -0.207247	 -0.133052	 0.281027	 1.450571	 -0.026680	 0.658151	 0.096031	 0.083011	 0.742108	 2
1462091865.917	 18	 0.235664	 -0.249914	 -0.188047	 0.298655	 1.452522	 -0.046854	 0.659114	 0.095819	 0.081451	 0.741454	 2
1462091865.927	 18	 0.202344	 -0.268176	 -0.226294	 0.318934	 1.453822	 -0.069909	 0.659878	 0.095652	 0.079681	 0.740987	 2
1462091865.937	 18	 0.240956	 -0.213092	 -0.239919	 0.322439	 1.463457	 -0.076118	 0.663559	 0.094252	 0.079234	 0.737921	 2
1462091865.957	 19	 0.404009	 0.009406	 -0.292556	 0.392338	 1.467701	 -0.147558	 0.665771	 0.095928	 0.076496	 0.735999	 2
1462091865.967	 19	 0.472535	 0.060234	 -0.295877	 0.437507	 1.470713	 -0.192452	 0.667297	 0.097273	 0.075358	 0.734557	 2
1462091865.977	 19	 0.492603	 0.011377	 -0.282721	 0.593418	 1.469202	 -0.347733	 0.668872	 0.102812	 0.070254	 0.732874	 2
1462091865.987	 19	 0.476891	 -0.154479	 -0.279865	 0.642604	 1.471540	 -0.398254	 0.670538	 0.103512	 0.068627	 0.731406	 2
1462091865.997	 19	 0.436152	 -0.396006	 -0.308401	 0.691195	 1.473187	 -0.450429	 0.672126	 0.103456	 0.066178	 0.730181	 2
1462091866.007	 19	 0.404264	 -0.571612	 -0.336402	 0.739193	 1.474139	 -0.504065	 0.673636	 0.102736	 0.062948	 0.729176	 2
