% Gyrometer data recorded with 'snsrlog'
% 
% 
% Label description:
% 	 0: Default Label
% 	 1: still_drop
% 	 2: walk_drop
% 	 3: other
% 	 4: dtw_same
% 	 5: dtw_diff
% 	 6: delete
% 	 7: steal
% 
% Column description:
% 	 1: Seconds.milliseconds since 1970
% 	 2: Number of skipped measurements
% 	 3: Gyro X
% 	 4: Gyro Y
% 	 5: Gyro Z
% 	 6: Roll of the device
% 	 7: Pitch of the device
% 	 8: Yaw of the device
% 	 9: Quaternion X
% 	 10: Quaternion Y
% 	 11: Quaternion Z
% 	 12: Quaternion W
% 	 13: Label used for the current sample
% 
% 
1463629476.426	 0	 -0.827774	 -0.546564	 -0.916192	 -0.006843	 0.306426	 -0.143222	 0.151980	 -0.014292	 -0.071232	 0.985710	 2
1463629476.437	 0	 -0.631000	 -0.159559	 -1.003829	 -0.006382	 0.299770	 -0.153579	 0.148642	 -0.014601	 -0.076329	 0.985833	 2
1463629476.446	 0	 -0.574391	 0.333526	 -1.040232	 -0.001163	 0.294016	 -0.164437	 0.145937	 -0.012603	 -0.081325	 0.985865	 2
1463629476.456	 0	 -0.647370	 0.885033	 -0.992900	 0.009326	 0.287750	 -0.174962	 0.143232	 -0.007930	 -0.085800	 0.985931	 2
1463629476.467	 0	 -0.750324	 1.326788	 -0.838686	 0.024172	 0.280343	 -0.184048	 0.140212	 -0.000921	 -0.089305	 0.986085	 2
1463629476.477	 0	 -0.775142	 1.496850	 -0.571513	 0.040666	 0.272388	 -0.190479	 0.137046	 0.007143	 -0.091447	 0.986309	 2
1463629476.487	 0	 -0.703202	 1.574245	 -0.283663	 0.056965	 0.264970	 -0.193742	 0.134155	 0.015325	 -0.092089	 0.986553	 2
1463629476.497	 0	 -0.558510	 1.790954	 -0.115582	 0.074613	 0.258903	 -0.194885	 0.131987	 0.024260	 -0.091615	 0.986710	 2
1463629476.507	 0	 -0.361357	 1.905705	 -0.052285	 0.093590	 0.254724	 -0.195168	 0.130796	 0.033817	 -0.090621	 0.986680	 2
1463629476.517	 0	 -0.143124	 1.813405	 -0.078491	 0.112167	 0.252708	 -0.195646	 0.130649	 0.043053	 -0.089706	 0.986423	 2
1463629476.527	 0	 -0.000104	 1.656073	 -0.155803	 0.129431	 0.252260	 -0.196995	 0.131233	 0.051501	 -0.089257	 0.985981	 2
1463629476.536	 0	 -0.000629	 1.586580	 -0.205470	 0.145925	 0.252069	 -0.199014	 0.131931	 0.059508	 -0.089175	 0.985445	 2
1463629476.557	 1	 -0.298811	 1.499136	 -0.211150	 0.177719	 0.248007	 -0.202773	 0.131478	 0.075140	 -0.089120	 0.984442	 2
1463629476.567	 1	 -0.485927	 1.463176	 -0.258881	 0.192823	 0.243227	 -0.204421	 0.129870	 0.082732	 -0.089192	 0.984040	 2
1463629476.577	 1	 -0.649282	 1.469838	 -0.286172	 0.207862	 0.236683	 -0.206027	 0.127399	 0.090397	 -0.089378	 0.983671	 2
1463629476.587	 1	 -0.752596	 1.489487	 -0.258446	 0.222932	 0.228970	 -0.207103	 0.124341	 0.098180	 -0.089414	 0.983313	 2
1463629476.597	 1	 -0.782088	 1.534567	 -0.214073	 0.238242	 0.220884	 -0.207553	 0.121083	 0.106143	 -0.089202	 0.982912	 2
1463629476.607	 1	 -0.779498	 1.575459	 -0.147638	 0.253788	 0.212928	 -0.207248	 0.117860	 0.114259	 -0.088650	 0.982443	 2
1463629476.617	 1	 -0.844871	 1.661445	 -0.050350	 0.269880	 0.204791	 -0.205831	 0.114500	 0.122713	 -0.087588	 0.981916	 2
1463629476.627	 1	 -1.015940	 1.688608	 0.105928	 0.286137	 0.195666	 -0.202516	 0.110528	 0.131400	 -0.085718	 0.981412	 2
1463629476.637	 1	 -1.286080	 1.482451	 0.315251	 0.300457	 0.184816	 -0.196399	 0.105408	 0.139362	 -0.082780	 0.981129	 2
1463629476.647	 1	 -1.623265	 1.088247	 0.526605	 0.310760	 0.171619	 -0.187083	 0.098704	 0.145603	 -0.078735	 0.981253	 2
1463629476.667	 2	 -2.044831	 0.044046	 0.685752	 0.315839	 0.138705	 -0.162014	 0.080905	 0.150834	 -0.068857	 0.982834	 2
1463629476.677	 2	 -1.847806	 -0.356570	 0.522576	 0.311604	 0.122247	 -0.150538	 0.071822	 0.149906	 -0.064697	 0.983963	 2
1463629476.687	 2	 -1.370671	 -0.372357	 0.298728	 0.306720	 0.109016	 -0.142577	 0.064569	 0.148310	 -0.061986	 0.984882	 2
1463629476.697	 2	 -0.772164	 -0.259484	 0.118716	 0.303429	 0.100718	 -0.138248	 0.060066	 0.147144	 -0.060600	 0.985428	 2
1463629476.707	 2	 -0.230887	 -0.277366	 -0.074803	 0.300655	 0.097198	 -0.137415	 0.058188	 0.145935	 -0.060541	 0.985724	 2
1463629476.717	 2	 0.162574	 -0.191582	 -0.259676	 0.298602	 0.097297	 -0.139723	 0.058342	 0.144852	 -0.061730	 0.985801	 2
1463629476.737	 3	 0.344865	 0.729527	 -0.329427	 0.305330	 0.101681	 -0.148236	 0.061336	 0.147740	 -0.065387	 0.984954	 2
1463629476.747	 3	 0.177681	 1.616817	 -0.217401	 0.319494	 0.103054	 -0.151328	 0.062711	 0.154559	 -0.066361	 0.983756	 2
1463629476.757	 3	 -0.030129	 2.667367	 -0.049149	 0.343532	 0.102966	 -0.152268	 0.063539	 0.166345	 -0.066071	 0.981798	 2
1463629476.767	 3	 -0.205928	 3.759997	 0.068059	 0.378395	 0.101586	 -0.151235	 0.063912	 0.183525	 -0.064580	 0.978807	 2
1463629476.777	 3	 -0.270100	 4.867342	 0.059738	 0.423866	 0.099357	 -0.149555	 0.064107	 0.205876	 -0.062530	 0.974472	 2
1463629476.787	 3	 -0.048012	 6.078717	 -0.007658	 0.481710	 0.098330	 -0.148918	 0.065318	 0.234034	 -0.060465	 0.968145	 2
1463629476.797	 3	 0.405493	 7.052036	 -0.101666	 0.550110	 0.100363	 -0.151003	 0.068599	 0.266844	 -0.058918	 0.959488	 2
1463629476.807	 3	 0.995457	 7.748597	 -0.170661	 0.626690	 0.106506	 -0.157050	 0.074626	 0.302885	 -0.058162	 0.948319	 2
1463629476.817	 3	 1.534813	 8.112494	 -0.226325	 0.708228	 0.116277	 -0.167502	 0.083268	 0.340401	 -0.058252	 0.934773	 2
1463629476.827	 3	 1.772712	 8.231865	 -0.389281	 0.792113	 0.126650	 -0.181945	 0.093120	 0.378114	 -0.059334	 0.919151	 2
1463629476.837	 3	 1.597278	 8.133722	 -0.646581	 0.875944	 0.133548	 -0.198275	 0.102012	 0.415100	 -0.061275	 0.901959	 2
1463629476.847	 3	 1.152073	 7.851355	 -0.896852	 0.957184	 0.134618	 -0.213608	 0.108343	 0.450505	 -0.063612	 0.883890	 2
1463629476.857	 3	 0.673683	 7.453958	 -1.036000	 1.034612	 0.130489	 -0.225771	 0.111896	 0.483964	 -0.065660	 0.865417	 2
1463629476.867	 3	 0.283052	 6.640575	 -1.155270	 1.104323	 0.122452	 -0.234518	 0.112987	 0.513856	 -0.067544	 0.847717	 2
1463629476.877	 3	 -0.075710	 5.616109	 -1.329004	 1.163814	 0.110904	 -0.240070	 0.111682	 0.539280	 -0.069642	 0.831778	 2
1463629476.887	 3	 -0.401751	 4.335875	 -1.558691	 1.210823	 0.095827	 -0.242656	 0.107893	 0.559502	 -0.072348	 0.818585	 2
1463629476.897	 3	 -0.700132	 3.277729	 -1.805736	 1.245649	 0.077235	 -0.242629	 0.101669	 0.574818	 -0.075865	 0.808389	 2
1463629476.907	 3	 -0.860360	 3.081957	 -1.879700	 1.276439	 0.056865	 -0.240347	 0.094062	 0.588493	 -0.079432	 0.799073	 2
1463629476.917	 3	 -0.771631	 3.109394	 -1.873823	 1.307423	 0.036609	 -0.237770	 0.086543	 0.602020	 -0.083084	 0.789417	 2
1463629476.927	 3	 -0.604741	 2.912202	 -1.879287	 1.337043	 0.016855	 -0.236153	 0.079582	 0.614710	 -0.087254	 0.779862	 2
1463629476.937	 3	 -0.592778	 3.007479	 -1.936056	 1.366567	 -0.003139	 -0.234657	 0.072696	 0.627144	 -0.091764	 0.770055	 2
1463629476.947	 3	 -0.826755	 3.428079	 -1.965275	 1.399730	 -0.023838	 -0.230929	 0.065146	 0.640830	 -0.095746	 0.758897	 2
1463629476.957	 3	 -1.212148	 3.973602	 -1.842807	 1.438390	 -0.044117	 -0.222793	 0.056725	 0.656382	 -0.098055	 0.745876	 2
1463629476.967	 3	 -1.635218	 4.430067	 -1.696327	 1.482269	 -0.062933	 -0.209499	 0.047473	 0.673519	 -0.098219	 0.731076	 2
1463629476.977	 3	 -2.008578	 4.721245	 -1.735128	 1.530304	 -0.081339	 -0.191363	 0.036926	 0.691710	 -0.096884	 0.714694	 2
1463629476.987	 3	 -2.182844	 5.000447	 -1.878088	 1.581452	 -0.099998	 -0.169993	 0.025248	 0.710397	 -0.095033	 0.696899	 2
1463629476.997	 3	 -2.079557	 5.092528	 -2.045455	 1.634754	 -0.119212	 -0.147914	 0.013153	 0.729080	 -0.093790	 0.677845	 2
1463629477.007	 3	 -1.785756	 4.806840	 -2.161511	 1.686515	 -0.138883	 -0.127219	 0.001307	 0.746440	 -0.093885	 0.658795	 2
1463629477.017	 3	 -1.360063	 4.277442	 -2.097672	 1.733217	 -0.157883	 -0.109468	 -0.009414	 0.761419	 -0.095319	 0.641144	 2
1463629477.027	 3	 -0.800724	 3.678507	 -1.888568	 1.773793	 -0.175321	 -0.096414	 -0.018042	 0.773907	 -0.098110	 0.625393	 2
1463629477.037	 3	 -0.122166	 2.908899	 -1.553133	 1.806015	 -0.190730	 -0.089823	 -0.023814	 0.783484	 -0.102367	 0.612459	 2
1463629477.047	 3	 0.551848	 2.303135	 -1.212937	 1.830191	 -0.204176	 -0.090462	 -0.026421	 0.790497	 -0.108119	 0.602268	 2
1463629477.057	 3	 1.031145	 2.020605	 -1.112098	 1.849665	 -0.217462	 -0.096554	 -0.026940	 0.796032	 -0.115430	 0.593534	 2
1463629477.067	 3	 1.264094	 1.880403	 -1.137811	 1.866836	 -0.231763	 -0.105262	 -0.026716	 0.800783	 -0.123888	 0.585393	 2
1463629477.077	 3	 1.305966	 1.683720	 -1.109099	 1.882040	 -0.246371	 -0.114630	 -0.026306	 0.804864	 -0.132621	 0.577853	 2
1463629477.087	 3	 1.217737	 1.457006	 -1.020916	 1.894929	 -0.260175	 -0.123506	 -0.025895	 0.808216	 -0.140845	 0.571208	 2
1463629477.097	 3	 1.061228	 1.257944	 -0.960658	 1.906040	 -0.272937	 -0.131043	 -0.025755	 0.811016	 -0.148234	 0.565346	 2
1463629477.107	 3	 0.922694	 1.093325	 -0.983364	 1.915644	 -0.285266	 -0.137045	 -0.026152	 0.813334	 -0.154988	 0.560164	 2
1463629477.117	 3	 0.846576	 1.123495	 -1.107115	 1.925365	 -0.298294	 -0.141645	 -0.027250	 0.815588	 -0.161630	 0.554931	 2
1463629477.127	 3	 0.884847	 1.189549	 -1.223002	 1.935921	 -0.312550	 -0.145729	 -0.028774	 0.817958	 -0.168638	 0.549252	 2
1463629477.137	 3	 1.048358	 1.091599	 -1.316992	 1.945642	 -0.328207	 -0.150640	 -0.030354	 0.819982	 -0.176431	 0.543672	 2
1463629477.147	 3	 1.284765	 0.881373	 -1.463819	 1.952859	 -0.345947	 -0.157097	 -0.032042	 0.821186	 -0.185441	 0.538738	 2
1463629477.157	 3	 1.531268	 0.625784	 -1.701746	 1.957002	 -0.366615	 -0.165129	 -0.034139	 0.821375	 -0.195987	 0.534572	 2
1463629477.167	 3	 1.650583	 0.219592	 -2.078515	 1.957328	 -0.391049	 -0.173392	 -0.037550	 0.820274	 -0.208006	 0.531482	 2
1463629477.177	 3	 1.633464	 -0.525109	 -2.548903	 1.951533	 -0.419763	 -0.180104	 -0.043471	 0.817180	 -0.221140	 0.530495	 2
1463629477.187	 3	 1.417369	 -1.388206	 -2.999475	 1.938224	 -0.452077	 -0.183685	 -0.052640	 0.811661	 -0.234573	 0.532363	 2
1463629477.197	 3	 0.986363	 -2.187268	 -3.360188	 1.918930	 -0.486655	 -0.182406	 -0.065327	 0.804053	 -0.247211	 0.536766	 2
1463629477.207	 3	 0.454836	 -2.926474	 -3.574526	 1.894831	 -0.521932	 -0.175411	 -0.081336	 0.794598	 -0.258083	 0.543500	 2
1463629477.217	 3	 0.039250	 -3.436122	 -3.620412	 1.867437	 -0.556786	 -0.163976	 -0.099625	 0.783680	 -0.267001	 0.551934	 2
1463629477.227	 3	 -0.149770	 -3.745656	 -3.553438	 1.837842	 -0.590803	 -0.150775	 -0.118838	 0.771657	 -0.274485	 0.561321	 2
1463629477.237	 3	 -0.077839	 -4.004319	 -3.406199	 1.805083	 -0.623921	 -0.139038	 -0.137826	 0.758425	 -0.281288	 0.571552	 2
1463629477.247	 3	 0.111763	 -4.032052	 -3.193889	 1.769378	 -0.655781	 -0.131082	 -0.155614	 0.744287	 -0.287920	 0.582171	 2
1463629477.257	 3	 0.314684	 -3.691043	 -3.021961	 1.733836	 -0.686324	 -0.127342	 -0.171635	 0.730291	 -0.294759	 0.591890	 2
1463629477.267	 3	 0.560209	 -3.277550	 -2.957371	 1.699484	 -0.716384	 -0.128162	 -0.185925	 0.716816	 -0.302377	 0.600145	 2
1463629477.277	 3	 0.788027	 -2.901004	 -3.008073	 1.665992	 -0.746875	 -0.133480	 -0.198906	 0.703784	 -0.311115	 0.606904	 2
1463629477.297	 4	 1.051622	 -2.037597	 -3.228275	 1.603928	 -0.811043	 -0.154928	 -0.222362	 0.679678	 -0.332127	 0.615048	 2
1463629477.307	 4	 1.149004	 -1.779213	 -3.199009	 1.573937	 -0.843392	 -0.170696	 -0.232835	 0.668455	 -0.343734	 0.617092	 2
1463629477.317	 4	 1.221153	 -1.572792	 -3.012274	 1.543346	 -0.873926	 -0.189690	 -0.242121	 0.657700	 -0.355279	 0.618534	 2
1463629477.327	 4	 1.271186	 -1.415332	 -2.692581	 1.511858	 -0.901136	 -0.211549	 -0.249902	 0.647509	 -0.366208	 0.619817	 2
1463629477.337	 4	 1.247736	 -1.258436	 -2.333887	 1.480380	 -0.924352	 -0.234922	 -0.256211	 0.638092	 -0.376102	 0.621081	 2
1463629477.347	 4	 1.252604	 -1.137323	 -2.057835	 1.448897	 -0.944089	 -0.259585	 -0.261256	 0.629355	 -0.385135	 0.622357	 2
1463629477.357	 4	 1.291948	 -1.040851	 -1.938981	 1.416600	 -0.961745	 -0.286142	 -0.265468	 0.620962	 -0.393843	 0.623554	 2
1463629477.367	 4	 1.384406	 -0.923890	 -1.906724	 1.382827	 -0.978261	 -0.315568	 -0.269015	 0.612742	 -0.402724	 0.624494	 2
1463629477.377	 4	 1.519430	 -0.800946	 -1.912085	 1.346684	 -0.993933	 -0.348909	 -0.271901	 0.604537	 -0.412071	 0.625142	 2
1463629477.387	 4	 1.678984	 -0.672827	 -1.927203	 1.307474	 -1.008620	 -0.387048	 -0.274015	 0.596276	 -0.422038	 0.625504	 2
1463629477.397	 4	 1.787249	 -0.410929	 -1.848973	 1.266923	 -1.021708	 -0.429173	 -0.275069	 0.588434	 -0.432491	 0.625327	 2
1463629477.407	 4	 1.818296	 -0.223311	 -1.778223	 1.226341	 -1.032880	 -0.473396	 -0.275229	 0.581157	 -0.442998	 0.624707	 2
1463629477.417	 4	 1.849155	 0.109486	 -1.927799	 1.186027	 -1.043870	 -0.520479	 -0.274858	 0.574523	 -0.454213	 0.622951	 2
1463629477.427	 4	 1.914868	 0.156981	 -2.098451	 1.142606	 -1.055232	 -0.572000	 -0.274515	 0.567700	 -0.466228	 0.620475	 2
1463629477.437	 4	 1.800104	 0.528163	 -2.147286	 1.100715	 -1.066590	 -0.624953	 -0.273873	 0.561764	 -0.478638	 0.616702	 2
1463629477.447	 4	 1.689130	 0.929929	 -2.083965	 1.063263	 -1.077138	 -0.677159	 -0.272473	 0.557321	 -0.491029	 0.611590	 2
1463629477.457	 4	 1.712795	 1.110347	 -1.982310	 1.027435	 -1.085965	 -0.729855	 -0.270213	 0.553629	 -0.503304	 0.605941	 2
1463629477.467	 4	 1.811181	 1.313780	 -1.903473	 0.991447	 -1.092758	 -0.784637	 -0.266940	 0.550284	 -0.515724	 0.599966	 2
1463629477.477	 4	 1.833783	 1.325660	 -1.869455	 0.954858	 -1.097921	 -0.840826	 -0.263113	 0.547001	 -0.528124	 0.593841	 2
1463629477.487	 4	 1.760867	 1.250373	 -1.867389	 0.917570	 -1.102403	 -0.896943	 -0.259541	 0.543556	 -0.540171	 0.587708	 2
1463629477.497	 4	 1.585512	 1.131112	 -1.810487	 0.881116	 -1.106517	 -0.950764	 -0.256530	 0.540124	 -0.551452	 0.581687	 2
1463629477.507	 4	 1.262989	 1.002974	 -1.717215	 0.848161	 -1.111000	 -0.999135	 -0.254432	 0.537140	 -0.561444	 0.575783	 2
1463629477.517	 4	 0.939623	 0.942736	 -1.647817	 0.819690	 -1.116500	 -1.041458	 -0.253294	 0.534886	 -0.570128	 0.569819	 2
1463629477.527	 4	 0.758747	 0.981156	 -1.556361	 0.794952	 -1.122460	 -1.079694	 -0.252501	 0.533348	 -0.577955	 0.563694	 2
1463629477.537	 4	 0.729096	 1.097484	 -1.367446	 0.773743	 -1.127359	 -1.115091	 -0.251132	 0.532432	 -0.585254	 0.557608	 2
1463629477.547	 4	 0.764288	 0.700846	 -0.901442	 0.755434	 -1.129045	 -1.144664	 -0.249301	 0.531259	 -0.591177	 0.553283	 2
1463629477.557	 4	 0.682357	 0.374630	 -0.451881	 0.740706	 -1.127576	 -1.165484	 -0.247585	 0.529582	 -0.595107	 0.551445	 2
1463629477.567	 4	 0.498185	 0.423264	 -0.126899	 0.734040	 -1.124933	 -1.177523	 -0.245378	 0.528866	 -0.597630	 0.550390	 2
1463629477.577	 4	 0.340361	 0.210930	 0.155992	 0.732826	 -1.121518	 -1.181914	 -0.243277	 0.528589	 -0.598732	 0.550391	 2
1463629477.587	 4	 0.077959	 0.021054	 0.413359	 0.736640	 -1.118042	 -1.178328	 -0.241757	 0.528715	 -0.598246	 0.551467	 2
1463629477.597	 4	 -0.268112	 -0.076731	 0.722401	 0.748277	 -1.115072	 -1.164786	 -0.240731	 0.529884	 -0.595934	 0.553293	 2
1463629477.607	 4	 -0.518854	 -0.129872	 1.066200	 0.768066	 -1.111702	 -1.141356	 -0.239782	 0.532109	 -0.591821	 0.555979	 2
1463629477.617	 4	 -0.574378	 -0.140482	 1.340485	 0.793049	 -1.106809	 -1.111964	 -0.238374	 0.534950	 -0.586579	 0.559403	 2
1463629477.627	 4	 -0.486371	 -0.207321	 1.545855	 0.819077	 -1.099516	 -1.080703	 -0.236332	 0.537699	 -0.580767	 0.563681	 2
1463629477.637	 4	 -0.475275	 -0.376185	 1.584686	 0.843264	 -1.090950	 -1.049866	 -0.234315	 0.539994	 -0.574647	 0.568580	 2
1463629477.647	 4	 -0.670440	 -0.687171	 1.449206	 0.864649	 -1.083692	 -1.018864	 -0.233748	 0.541752	 -0.568023	 0.573774	 2
1463629477.657	 4	 -0.920143	 -0.863226	 1.124684	 0.883353	 -1.079912	 -0.988167	 -0.235308	 0.543196	 -0.561196	 0.578470	 2
1463629477.667	 4	 -1.031152	 -0.645717	 0.860168	 0.901488	 -1.079155	 -0.959364	 -0.237786	 0.544986	 -0.554944	 0.581794	 2
1463629477.677	 4	 -1.037468	 -0.185070	 0.871970	 0.923556	 -1.078799	 -0.930890	 -0.239334	 0.547994	 -0.549257	 0.583728	 2
1463629477.687	 4	 -0.932944	 0.323324	 1.059102	 0.951038	 -1.076416	 -0.901850	 -0.238872	 0.552395	 -0.543886	 0.584798	 2
1463629477.697	 4	 -0.686812	 0.880103	 1.375474	 0.983403	 -1.070123	 -0.873472	 -0.235506	 0.558145	 -0.538898	 0.585320	 2
1463629477.707	 4	 -0.424346	 1.469060	 1.735699	 1.020001	 -1.058836	 -0.846716	 -0.228750	 0.565224	 -0.534239	 0.585477	 2
1463629477.717	 4	 -0.323635	 2.045781	 1.956539	 1.060915	 -1.044032	 -0.821439	 -0.219237	 0.573802	 -0.529821	 0.584788	 2
1463629477.727	 4	 -0.286315	 2.527006	 2.183436	 1.106411	 -1.026788	 -0.796753	 -0.207612	 0.583947	 -0.525355	 0.583013	 2
1463629477.737	 4	 0.016640	 2.569845	 2.639475	 1.150721	 -1.004391	 -0.775012	 -0.193677	 0.594195	 -0.520396	 0.581902	 2
1463629477.747	 4	 0.421862	 2.563549	 3.108021	 1.189491	 -0.975546	 -0.759217	 -0.177143	 0.603565	 -0.515030	 0.582301	 2
1463629477.757	 4	 0.539634	 2.680778	 3.334028	 1.225547	 -0.942808	 -0.747540	 -0.158765	 0.612680	 -0.509275	 0.583143	 2
1463629477.767	 4	 0.354053	 2.649903	 3.400358	 1.261816	 -0.910053	 -0.735670	 -0.140608	 0.622028	 -0.502728	 0.583588	 2
1463629477.777	 4	 0.002463	 2.368832	 3.073615	 1.296603	 -0.879295	 -0.722595	 -0.124214	 0.631060	 -0.495385	 0.583891	 2
1463629477.787	 4	 -0.504633	 1.722313	 2.450675	 1.327747	 -0.854955	 -0.706758	 -0.112298	 0.639078	 -0.487707	 0.584046	 2
1463629477.797	 4	 -1.151341	 0.849996	 1.874808	 1.354391	 -0.837626	 -0.685430	 -0.106135	 0.645668	 -0.479265	 0.584939	 2
1463629477.807	 4	 -1.889061	 0.140502	 1.567689	 1.379323	 -0.825175	 -0.655841	 -0.105125	 0.651455	 -0.469158	 0.586894	 2
1463629477.817	 4	 -2.726519	 -0.511939	 1.607277	 1.405383	 -0.814074	 -0.615623	 -0.108100	 0.657108	 -0.456140	 0.590305	 2
1463629477.827	 4	 -3.734954	 -0.719815	 1.867775	 1.436833	 -0.801627	 -0.561814	 -0.114216	 0.663706	 -0.438909	 0.594818	 2
1463629477.837	 4	 -4.560751	 -0.603508	 2.318339	 1.477373	 -0.784705	 -0.496317	 -0.121229	 0.672531	 -0.417365	 0.599009	 2
1463629477.847	 4	 -4.812428	 -0.717390	 2.499579	 1.518956	 -0.763688	 -0.427105	 -0.128677	 0.681710	 -0.393369	 0.603303	 2
1463629477.857	 4	 -4.581954	 -1.007765	 2.298760	 1.553652	 -0.742329	 -0.362443	 -0.136679	 0.689204	 -0.369875	 0.607872	 2
1463629477.877	 5	 -3.331305	 -1.342865	 1.329830	 1.596558	 -0.707771	 -0.259583	 -0.152887	 0.697432	 -0.330828	 0.617063	 2
1463629477.887	 5	 -2.586778	 -1.288576	 0.903942	 1.606637	 -0.696864	 -0.223756	 -0.160058	 0.698657	 -0.317034	 0.621088	 2
1463629477.897	 5	 -2.013600	 -1.201307	 0.556588	 1.611952	 -0.689668	 -0.196242	 -0.166416	 0.698696	 -0.306563	 0.624619	 2
1463629477.907	 5	 -1.709572	 -1.036908	 0.319944	 1.615514	 -0.685197	 -0.173610	 -0.172281	 0.698302	 -0.298315	 0.627457	 2
1463629477.917	 5	 -1.647713	 -0.947524	 0.204069	 1.619240	 -0.682184	 -0.152470	 -0.178104	 0.697906	 -0.291002	 0.629702	 2
1463629477.937	 6	 -1.902032	 -0.877959	 0.307112	 1.629056	 -0.675543	 -0.106849	 -0.190428	 0.697464	 -0.275279	 0.633642	 2
1463629477.947	 6	 -1.987540	 -0.772674	 0.417544	 1.636628	 -0.670391	 -0.081965	 -0.196392	 0.698000	 -0.266376	 0.635036	 2
1463629477.967	 7	 -1.781201	 -0.655548	 0.372075	 1.651755	 -0.659470	 -0.034740	 -0.207389	 0.699247	 -0.249138	 0.637161	 2
1463629477.977	 7	 -1.566649	 -0.589650	 0.305809	 1.657913	 -0.654883	 -0.014657	 -0.212181	 0.699630	 -0.241790	 0.637992	 2
1463629477.987	 7	 -1.305811	 -0.421933	 0.218772	 1.663539	 -0.651247	 0.002300	 -0.216279	 0.700036	 -0.235711	 0.638445	 2
1463629477.997	 7	 -1.008556	 -0.223501	 0.128506	 1.668897	 -0.648715	 0.015684	 -0.219535	 0.700591	 -0.231134	 0.638399	 2
1463629478.007	 7	 -0.678223	 -0.017792	 0.028428	 1.673908	 -0.647422	 0.025127	 -0.221860	 0.701305	 -0.228218	 0.637861	 2
1463629478.017	 7	 -0.324445	 0.161425	 -0.048654	 1.678291	 -0.647315	 0.030313	 -0.223147	 0.702138	 -0.227015	 0.636924	 2
1463629478.027	 7	 0.005355	 0.209050	 -0.094778	 1.680987	 -0.648068	 0.031365	 -0.223447	 0.702785	 -0.227248	 0.636021	 2
1463629478.037	 7	 0.296745	 0.247309	 -0.127866	 1.681684	 -0.649483	 0.028712	 -0.222880	 0.703128	 -0.228671	 0.635331	 2
1463629478.047	 7	 0.577378	 0.346605	 -0.255146	 1.681242	 -0.652184	 0.022659	 -0.221652	 0.703328	 -0.231501	 0.634514	 2
1463629478.057	 7	 0.827574	 0.401748	 -0.469964	 1.679662	 -0.657129	 0.013614	 -0.220213	 0.703220	 -0.235942	 0.633498	 2
1463629478.067	 7	 1.089961	 0.358724	 -0.723103	 1.676214	 -0.664745	 0.001648	 -0.218822	 0.702514	 -0.242033	 0.632464	 2
1463629478.077	 7	 1.205429	 -0.403821	 -1.107418	 1.666032	 -0.675900	 -0.012342	 -0.218706	 0.699471	 -0.249249	 0.633074	 2
1463629478.087	 7	 0.868127	 -1.983171	 -1.668045	 1.643543	 -0.691912	 -0.023276	 -0.222866	 0.691603	 -0.255776	 0.637648	 2
1463629478.097	 7	 0.141319	 -3.613035	 -2.165002	 1.609454	 -0.712592	 -0.026245	 -0.232946	 0.678497	 -0.259868	 0.646411	 2
1463629478.107	 7	 -0.777015	 -5.055890	 -2.472044	 1.567595	 -0.736586	 -0.018387	 -0.248916	 0.660950	 -0.260231	 0.658381	 2
1463629478.117	 7	 -1.634638	 -6.239021	 -2.580030	 1.520650	 -0.762636	 0.000206	 -0.269726	 0.639630	 -0.256396	 0.672593	 2
1463629478.127	 7	 -2.275208	 -6.875261	 -2.426904	 1.472101	 -0.788996	 0.027442	 -0.293325	 0.615832	 -0.248624	 0.687676	 2
1463629478.137	 7	 -2.391713	 -6.380328	 -1.985387	 1.428212	 -0.812890	 0.058403	 -0.316193	 0.592606	 -0.238552	 0.701380	 2
1463629478.147	 7	 -1.467968	 -4.826800	 -1.521762	 1.391617	 -0.831694	 0.079607	 -0.333146	 0.573573	 -0.230799	 0.711870	 2
1463629478.157	 7	 0.136891	 -2.948070	 -1.112198	 1.357838	 -0.844168	 0.080566	 -0.341631	 0.559537	 -0.228448	 0.719734	 2
1463629478.167	 7	 2.032488	 -0.961784	 -0.713756	 1.324011	 -0.848468	 0.054749	 -0.339884	 0.551113	 -0.233254	 0.725497	 2
1463629478.177	 7	 3.275906	 0.572015	 -0.347950	 1.292058	 -0.844767	 0.008990	 -0.329791	 0.547635	 -0.243513	 0.729408	 2
1463629478.187	 7	 3.691682	 1.281135	 -0.222409	 1.263971	 -0.836523	 -0.044116	 -0.315737	 0.546920	 -0.256149	 0.731831	 2
1463629478.197	 7	 3.602407	 1.424419	 -0.300231	 1.239279	 -0.827617	 -0.096785	 -0.301239	 0.546937	 -0.269299	 0.733207	 2
1463629478.207	 7	 3.209748	 1.210901	 -0.568436	 1.216406	 -0.821092	 -0.145270	 -0.288655	 0.546301	 -0.282056	 0.733946	 2
1463629478.217	 7	 2.763699	 1.015410	 -0.865851	 1.195202	 -0.818305	 -0.188674	 -0.278794	 0.544902	 -0.294293	 0.733994	 2
1463629478.227	 7	 2.541729	 1.114130	 -0.982365	 1.176585	 -0.817563	 -0.228942	 -0.270341	 0.543654	 -0.306331	 0.733155	 2
1463629478.237	 7	 2.565042	 1.301292	 -0.977629	 1.160062	 -0.816615	 -0.268801	 -0.261721	 0.542963	 -0.318511	 0.731603	 2
1463629478.247	 7	 2.457504	 1.620339	 -1.025946	 1.146234	 -0.815454	 -0.308619	 -0.252695	 0.543094	 -0.331014	 0.729125	 2
1463629478.257	 7	 0.228604	 1.803005	 -1.670941	 1.149911	 -0.825652	 -0.328511	 -0.250711	 0.546464	 -0.340933	 0.722693	 2
1463629478.267	 7	 -0.262928	 1.819109	 -1.848757	 1.162961	 -0.843889	 -0.335269	 -0.253824	 0.551165	 -0.348989	 0.714141	 2
1463629478.277	 7	 0.983829	 2.080348	 -1.548111	 1.168628	 -0.856373	 -0.353950	 -0.252575	 0.554961	 -0.359057	 0.706613	 2
1463629478.287	 7	 1.694580	 2.861101	 -1.398893	 1.171854	 -0.863171	 -0.384952	 -0.246022	 0.559663	 -0.371811	 0.698575	 2
1463629478.297	 7	 1.508047	 3.049749	 -1.567101	 1.178419	 -0.871057	 -0.416319	 -0.239058	 0.565437	 -0.385158	 0.689046	 2
1463629478.307	 7	 1.550860	 2.771811	 -1.742714	 1.182371	 -0.881100	 -0.448298	 -0.233149	 0.570217	 -0.398658	 0.679387	 2
1463629478.317	 7	 1.666830	 2.589632	 -1.883968	 1.181275	 -0.891923	 -0.483578	 -0.227532	 0.573590	 -0.412639	 0.670040	 2
1463629478.327	 7	 1.637541	 2.343328	 -1.979792	 1.177018	 -0.903755	 -0.519861	 -0.222642	 0.575974	 -0.426573	 0.660848	 2
1463629478.337	 7	 1.693980	 2.007956	 -2.149663	 1.167516	 -0.916590	 -0.558416	 -0.218635	 0.576883	 -0.440628	 0.652113	 2
1463629478.347	 7	 1.578249	 1.661898	 -2.395935	 1.152955	 -0.931573	 -0.598483	 -0.216241	 0.576367	 -0.454751	 0.643617	 2
1463629478.357	 7	 1.578899	 1.477829	 -2.551123	 1.134426	 -0.948078	 -0.640118	 -0.215046	 0.574892	 -0.468899	 0.635129	 2
1463629478.367	 7	 1.870750	 1.452773	 -2.661539	 1.109900	 -0.964064	 -0.687891	 -0.213505	 0.572381	 -0.483897	 0.626609	 2
1463629478.377	 7	 2.029122	 1.451153	 -2.820666	 1.079565	 -0.979619	 -0.742103	 -0.211660	 0.568989	 -0.499807	 0.617774	 2
1463629478.387	 7	 2.080812	 1.356060	 -2.859303	 1.045067	 -0.994445	 -0.800215	 -0.209831	 0.565001	 -0.515918	 0.608747	 2
1463629478.397	 7	 1.875772	 1.107711	 -2.868355	 1.007580	 -1.008953	 -0.858599	 -0.208981	 0.560453	 -0.531274	 0.599973	 2
1463629478.407	 7	 1.572255	 0.708315	 -2.772444	 0.968637	 -1.023174	 -0.914128	 -0.209614	 0.555523	 -0.545101	 0.591879	 2
1463629478.417	 7	 1.196854	 0.389461	 -2.599489	 0.930035	 -1.037345	 -0.964327	 -0.211982	 0.550517	 -0.556908	 0.584678	 2
1463629478.427	 7	 1.131781	 0.528546	 -2.220348	 0.894954	 -1.048806	 -1.010369	 -0.213742	 0.546225	 -0.567272	 0.578061	 2
1463629478.437	 7	 1.336060	 0.846706	 -1.678825	 0.865116	 -1.054689	 -1.053539	 -0.212835	 0.542836	 -0.576788	 0.572141	 2
1463629478.447	 7	 1.497625	 1.161780	 -1.140156	 0.841647	 -1.054598	 -1.092933	 -0.208952	 0.540296	 -0.585530	 0.567076	 2
1463629478.457	 7	 1.569786	 1.534490	 -0.609764	 0.827223	 -1.049630	 -1.126167	 -0.202300	 0.539034	 -0.593294	 0.562601	 2
1463629478.467	 7	 1.580170	 1.826573	 -0.222396	 0.821136	 -1.041129	 -1.153478	 -0.193456	 0.538925	 -0.600153	 0.558526	 2
1463629478.477	 7	 1.380967	 2.118502	 0.059153	 0.823667	 -1.031287	 -1.174344	 -0.183254	 0.540254	 -0.605997	 0.554356	 2
1463629478.487	 7	 1.086023	 2.370310	 0.196219	 0.834582	 -1.022220	 -1.188571	 -0.172579	 0.543264	 -0.610709	 0.549651	 2
1463629478.497	 7	 1.002636	 2.657820	 0.355222	 0.851524	 -1.013262	 -1.198983	 -0.161095	 0.547499	 -0.614766	 0.544387	 2
1463629478.507	 7	 1.125125	 3.012939	 0.680386	 0.873724	 -1.001730	 -1.207270	 -0.147531	 0.552514	 -0.618414	 0.539006	 2
1463629478.517	 7	 1.344367	 3.373276	 1.177409	 0.901385	 -0.985521	 -1.213487	 -0.130995	 0.558070	 -0.621476	 0.534008	 2
1463629478.527	 7	 1.532833	 3.528563	 1.693042	 0.933066	 -0.963970	 -1.217617	 -0.111691	 0.563707	 -0.623621	 0.529959	 2
1463629478.537	 7	 1.566739	 3.348587	 2.115246	 0.965717	 -0.938360	 -1.219451	 -0.091146	 0.568834	 -0.624479	 0.527396	 2
1463629478.547	 7	 1.229975	 2.825614	 2.316872	 0.997530	 -0.911969	 -1.216874	 -0.071826	 0.573430	 -0.623502	 0.526559	 2
1463629478.557	 7	 0.628341	 2.034478	 2.246540	 1.026762	 -0.888419	 -1.208134	 -0.056214	 0.577610	 -0.620464	 0.527476	 2
1463629478.567	 7	 0.049625	 1.316075	 1.948612	 1.052093	 -0.870044	 -1.194500	 -0.045284	 0.581481	 -0.616016	 0.529484	 2
1463629478.577	 7	 -0.163028	 0.750427	 1.742705	 1.072469	 -0.855126	 -1.179331	 -0.037728	 0.584617	 -0.611070	 0.532346	 2
1463629478.587	 7	 -0.061810	 0.278820	 1.724646	 1.086535	 -0.840451	 -1.165754	 -0.031785	 0.586257	 -0.606256	 0.536419	 2
1463629478.597	 7	 0.107794	 -0.053808	 1.831979	 1.095144	 -0.824161	 -1.154364	 -0.026261	 0.586351	 -0.601621	 0.541808	 2
1463629478.607	 7	 0.038228	 -0.181563	 1.933709	 1.102074	 -0.806726	 -1.142624	 -0.020914	 0.585908	 -0.596597	 0.548038	 2
1463629478.617	 7	 -0.341091	 -0.178149	 1.811284	 1.110974	 -0.791228	 -1.127742	 -0.016660	 0.586291	 -0.590796	 0.554027	 2
1463629478.627	 7	 -0.805947	 -0.310641	 1.540197	 1.121703	 -0.779725	 -1.108970	 -0.014579	 0.587728	 -0.584259	 0.559468	 2
1463629478.637	 7	 -1.317240	 -0.735917	 1.210305	 1.131003	 -0.773268	 -1.086090	 -0.016116	 0.589406	 -0.577076	 0.565088	 2
1463629478.647	 7	 -1.688610	 -0.611445	 1.064425	 1.142987	 -0.770163	 -1.059440	 -0.019352	 0.592221	 -0.569205	 0.570004	 2
1463629478.657	 7	 -1.926992	 -0.297583	 1.128038	 1.160110	 -0.767777	 -1.029410	 -0.022515	 0.596553	 -0.560461	 0.574022	 2
1463629478.667	 7	 -1.992419	 -0.193940	 1.459958	 1.180780	 -0.763000	 -0.996658	 -0.024730	 0.601656	 -0.550561	 0.578171	 2
1463629478.677	 7	 -1.880188	 -0.363888	 1.976426	 1.201098	 -0.752999	 -0.962742	 -0.025554	 0.606238	 -0.539384	 0.583855	 2
1463629478.687	 7	 -1.690889	 -0.680048	 2.455692	 1.217727	 -0.737207	 -0.929346	 -0.025139	 0.609401	 -0.527135	 0.591716	 2
1463629478.697	 7	 -1.511317	 -0.973910	 2.339489	 1.228894	 -0.719695	 -0.898794	 -0.024749	 0.611000	 -0.515078	 0.600634	 2
1463629478.707	 7	 -1.711084	 -0.609901	 1.854365	 1.240494	 -0.706383	 -0.869801	 -0.025494	 0.613179	 -0.504012	 0.607728	 2
1463629478.717	 7	 -2.149971	 -0.001909	 1.329897	 1.259287	 -0.698911	 -0.838350	 -0.027588	 0.617997	 -0.493237	 0.611584	 2
1463629478.727	 7	 -2.402969	 0.608188	 0.584283	 1.284652	 -0.698345	 -0.805905	 -0.031259	 0.625246	 -0.483573	 0.611758	 2
1463629478.737	 7	 -2.399620	 1.152736	 -0.296328	 1.314447	 -0.705582	 -0.775693	 -0.036409	 0.634168	 -0.476380	 0.607921	 2
1463629478.747	 7	 -2.135190	 1.725195	 -1.036140	 1.346909	 -0.719254	 -0.749929	 -0.042169	 0.643979	 -0.472207	 0.600444	 2
1463629478.757	 7	 -1.581516	 2.570707	 -1.553185	 1.382907	 -0.736952	 -0.731074	 -0.046501	 0.654735	 -0.471375	 0.589037	 2
1463629478.767	 7	 -0.714461	 3.455418	 -1.671867	 1.421400	 -0.755042	 -0.722188	 -0.047111	 0.666021	 -0.473875	 0.574142	 2
1463629478.777	 7	 0.319483	 3.868144	 -1.394602	 1.456970	 -0.769662	 -0.725723	 -0.042857	 0.676298	 -0.479134	 0.557866	 2
1463629478.787	 7	 1.110632	 3.828379	 -0.985147	 1.485488	 -0.779574	 -0.740354	 -0.034625	 0.684472	 -0.486088	 0.542234	 2
1463629478.797	 7	 1.202801	 3.368179	 -0.607623	 1.507502	 -0.785639	 -0.758725	 -0.025121	 0.690660	 -0.492800	 0.528683	 2
1463629478.807	 7	 0.120285	 2.657942	 -0.130543	 1.531376	 -0.787958	 -0.764721	 -0.017979	 0.696978	 -0.495192	 0.518346	 2
1463629478.817	 7	 -0.267054	 2.219430	 0.403762	 1.557259	 -0.785371	 -0.761172	 -0.011898	 0.703614	 -0.493831	 0.510800	 2
1463629478.827	 7	 0.055689	 1.867116	 0.938015	 1.576995	 -0.777301	 -0.760577	 -0.004389	 0.708654	 -0.491719	 0.505967	 2
1463629478.837	 7	 0.310469	 2.098402	 1.400490	 1.594123	 -0.764434	 -0.764579	 0.005760	 0.713011	 -0.489412	 0.502054	 2
1463629478.847	 7	 0.161725	 3.064039	 1.763538	 1.619292	 -0.747751	 -0.768499	 0.019121	 0.719310	 -0.485858	 0.496155	 2
1463629478.857	 7	 -0.221488	 4.195424	 2.007607	 1.658427	 -0.728162	 -0.768624	 0.035366	 0.728979	 -0.480071	 0.486693	 2
1463629478.867	 7	 -0.549899	 4.897614	 2.050039	 1.708164	 -0.707192	 -0.765441	 0.053133	 0.741098	 -0.472334	 0.474186	 2
1463629478.877	 7	 -0.785508	 4.933699	 1.797709	 1.761249	 -0.687416	 -0.760031	 0.070072	 0.753820	 -0.463670	 0.460277	 2
1463629478.887	 7	 -1.116303	 4.645419	 1.072123	 1.814229	 -0.672639	 -0.750780	 0.083489	 0.766353	 -0.455062	 0.445704	 2
1463629478.897	 7	 -1.571995	 4.435637	 -0.025729	 1.869568	 -0.666232	 -0.733772	 0.091406	 0.779324	 -0.446905	 0.429621	 2
1463629478.907	 7	 -1.999528	 4.126345	 -0.900941	 1.927903	 -0.666931	 -0.707861	 0.093928	 0.792785	 -0.438975	 0.412275	 2
1463629478.917	 7	 -2.198344	 3.296055	 -1.074258	 1.982130	 -0.668696	 -0.677300	 0.092990	 0.805117	 -0.430853	 0.396870	 2
1463629478.927	 7	 -2.099742	 1.629523	 -0.867880	 2.022346	 -0.668100	 -0.647114	 0.089522	 0.814406	 -0.422893	 0.387156	 2
1463629478.947	 8	 -1.434116	 -0.550504	 0.038581	 2.041761	 -0.659239	 -0.608347	 0.080205	 0.820305	 -0.411393	 0.389130	 2
1463629478.957	 8	 -1.321316	 -0.425219	 0.346770	 2.045465	 -0.650641	 -0.594698	 0.077736	 0.822065	 -0.405478	 0.392114	 2
1463629478.967	 8	 -1.114289	 -0.186804	 0.599771	 2.048882	 -0.640467	 -0.584792	 0.077150	 0.823710	 -0.399699	 0.394703	 2
1463629478.987	 9	 -0.655165	 0.437091	 0.724142	 2.058528	 -0.620119	 -0.574848	 0.080518	 0.827165	 -0.389887	 0.396615	 2
1463629478.997	 9	 -0.336268	 0.883637	 0.682890	 2.066534	 -0.611985	 -0.574302	 0.084055	 0.829222	 -0.386440	 0.394955	 2
1463629479.007	 9	 0.041283	 1.403753	 0.543762	 2.077522	 -0.606570	 -0.577176	 0.088827	 0.831553	 -0.384517	 0.390866	 2
1463629479.017	 9	 0.352732	 2.064422	 0.253048	 2.093555	 -0.605029	 -0.582136	 0.094386	 0.834514	 -0.384167	 0.383528	 2
1463629479.027	 9	 0.422397	 2.351585	 -0.013459	 2.114167	 -0.606850	 -0.586814	 0.099824	 0.838087	 -0.384736	 0.373663	 2
1463629479.037	 9	 0.409274	 2.124503	 -0.092193	 2.134010	 -0.609648	 -0.590482	 0.104456	 0.841398	 -0.385455	 0.364092	 2
1463629479.047	 9	 0.531042	 1.738745	 -0.143736	 2.149981	 -0.613403	 -0.594707	 0.108354	 0.843824	 -0.386790	 0.355830	 2
1463629479.057	 9	 0.737070	 1.380074	 -0.239457	 2.161445	 -0.618935	 -0.600206	 0.111491	 0.845202	 -0.389231	 0.348859	 2
1463629479.067	 9	 1.023566	 1.116854	 -0.340320	 2.168854	 -0.626857	 -0.607692	 0.114097	 0.845563	 -0.393117	 0.342729	 2
1463629479.077	 9	 1.366741	 0.901136	 -0.467877	 2.172425	 -0.637644	 -0.617750	 0.116326	 0.844898	 -0.398708	 0.337116	 2
1463629479.087	 9	 1.736647	 0.731831	 -0.637867	 2.172499	 -0.651822	 -0.630485	 0.118125	 0.843235	 -0.406174	 0.331700	 2
1463629479.097	 9	 2.166022	 0.527023	 -0.839611	 2.168594	 -0.669930	 -0.646326	 0.119380	 0.840439	 -0.415774	 0.326410	 2
1463629479.107	 9	 2.642109	 0.296329	 -1.071845	 2.159769	 -0.692384	 -0.665946	 0.119973	 0.836302	 -0.427757	 0.321294	 2
1463629479.117	 9	 3.137410	 0.088785	 -1.330674	 2.145593	 -0.719536	 -0.689897	 0.119797	 0.830721	 -0.442258	 0.316164	 2
1463629479.127	 9	 3.509877	 0.052061	 -1.550609	 2.127123	 -0.750591	 -0.718126	 0.119075	 0.823958	 -0.458778	 0.310544	 2
1463629479.137	 9	 3.459377	 0.342455	 -1.713726	 2.109105	 -0.783160	 -0.747637	 0.118166	 0.817131	 -0.475602	 0.303539	 2
1463629479.147	 9	 2.686613	 1.115849	 -1.858599	 2.101713	 -0.813741	 -0.770448	 0.117282	 0.812473	 -0.489722	 0.293777	 2
1463629479.157	 9	 1.453733	 1.458117	 -1.799918	 2.109691	 -0.838479	 -0.779109	 0.115947	 0.811242	 -0.498689	 0.282404	 2
1463629479.167	 9	 0.189354	 1.973124	 -1.547518	 2.132078	 -0.854971	 -0.772851	 0.114487	 0.813352	 -0.501980	 0.270864	 2
1463629479.177	 9	 -0.578142	 2.158144	 -1.278002	 2.167017	 -0.863504	 -0.755978	 0.114067	 0.818181	 -0.500599	 0.258784	 2
1463629479.187	 9	 -0.385772	 1.365794	 -1.341404	 2.196340	 -0.871554	 -0.738234	 0.112003	 0.822127	 -0.499419	 0.249286	 2
1463629479.197	 9	 0.011428	 0.551634	 -1.396134	 2.214376	 -0.882309	 -0.724508	 0.108082	 0.823984	 -0.500427	 0.242779	 2
1463629479.207	 9	 -0.011353	 -0.288888	 -1.296115	 2.223350	 -0.893062	 -0.711980	 0.102418	 0.824550	 -0.502153	 0.239730	 2
1463629479.217	 9	 -0.217237	 -0.967949	 -1.005425	 2.225045	 -0.900669	 -0.699262	 0.095666	 0.824520	 -0.503174	 0.240481	 2
1463629479.227	 9	 -0.349621	 -1.070119	 -0.627944	 2.223047	 -0.904447	 -0.687999	 0.089561	 0.824361	 -0.503214	 0.243277	 2
1463629479.237	 9	 -0.209646	 -0.648925	 -0.277805	 2.220781	 -0.905692	 -0.681002	 0.085792	 0.824244	 -0.502890	 0.245688	 2
1463629479.247	 9	 0.177094	 -0.101464	 -0.016032	 2.218320	 -0.906777	 -0.681257	 0.085002	 0.823803	 -0.503403	 0.246392	 2
1463629479.257	 9	 0.419132	 0.081643	 0.251071	 2.213713	 -0.907581	 -0.687860	 0.086354	 0.822858	 -0.504692	 0.246443	 2
1463629479.267	 9	 0.624846	 0.007656	 0.544874	 2.204602	 -0.907125	 -0.699853	 0.089098	 0.821260	 -0.506415	 0.247260	 2
1463629479.277	 9	 0.806924	 -0.174992	 0.658823	 2.190584	 -0.906481	 -0.716181	 0.092401	 0.818852	 -0.508857	 0.249013	 2
1463629479.287	 9	 0.585765	 -0.665859	 0.641260	 2.173591	 -0.904961	 -0.731077	 0.094557	 0.816189	 -0.511007	 0.252520	 2
1463629479.297	 9	 0.122096	 -1.133295	 0.530108	 2.156524	 -0.901720	 -0.739507	 0.094492	 0.813949	 -0.511807	 0.258092	 2
1463629479.307	 9	 -0.358036	 -0.997798	 0.393803	 2.145856	 -0.896715	 -0.739797	 0.093227	 0.813050	 -0.510683	 0.263555	 2
1463629479.317	 9	 -0.357712	 -1.135007	 0.100504	 2.137906	 -0.893101	 -0.736151	 0.090694	 0.812518	 -0.509366	 0.268581	 2
1463629479.327	 9	 -0.000380	 -1.177313	 -0.161981	 2.127626	 -0.893516	 -0.733831	 0.087020	 0.811188	 -0.509645	 0.273246	 2
1463629479.337	 9	 -0.094897	 -0.345772	 -0.228023	 2.122859	 -0.895236	 -0.731991	 0.084590	 0.810445	 -0.510165	 0.275236	 2
1463629479.347	 9	 -0.698760	 1.106403	 -0.570546	 2.139439	 -0.896204	 -0.720433	 0.083857	 0.813100	 -0.508209	 0.271219	 2
1463629479.357	 9	 -0.832961	 1.497435	 -0.969663	 2.169244	 -0.899014	 -0.701472	 0.082931	 0.817579	 -0.505377	 0.263214	 2
1463629479.377	 10	 -0.971444	 -0.261341	 -0.965639	 2.211557	 -0.904376	 -0.659852	 0.075097	 0.824096	 -0.500155	 0.255089	 2
1463629479.387	 10	 -0.867826	 -1.369930	 -0.966200	 2.217352	 -0.906649	 -0.638611	 0.067209	 0.825319	 -0.498023	 0.257497	 2
1463629479.397	 10	 -0.480007	 -2.454488	 -0.911460	 2.208726	 -0.910507	 -0.621829	 0.057169	 0.824236	 -0.497457	 0.264390	 2
1463629479.407	 10	 0.194842	 -3.337667	 -0.838161	 2.183803	 -0.917496	 -0.613721	 0.045847	 0.820209	 -0.499452	 0.275140	 2
1463629479.417	 10	 1.147951	 -3.839729	 -0.749906	 2.139016	 -0.931002	 -0.621454	 0.034225	 0.812077	 -0.506089	 0.288502	 2
1463629479.427	 10	 2.196034	 -3.863669	 -0.693191	 2.080559	 -0.948336	 -0.645026	 0.024105	 0.801044	 -0.516209	 0.302120	 2
1463629479.437	 10	 3.060062	 -3.650888	 -0.775476	 2.011188	 -0.968701	 -0.684087	 0.015729	 0.787701	 -0.529420	 0.314634	 2
1463629479.447	 10	 3.596876	 -3.408820	 -1.058193	 1.934332	 -0.991304	 -0.734867	 0.008200	 0.772846	 -0.544789	 0.325341	 2
1463629479.457	 10	 3.905869	 -3.320803	 -1.555644	 1.850945	 -1.016866	 -0.794231	 -0.000109	 0.756785	 -0.561844	 0.334077	 2
1463629479.467	 10	 4.200717	 -3.394403	 -2.198353	 1.757925	 -1.046244	 -0.863354	 -0.010368	 0.739242	 -0.580647	 0.340973	 2
1463629479.477	 10	 4.222969	 -3.370160	 -2.805806	 1.654980	 -1.078354	 -0.942383	 -0.022790	 0.720664	 -0.600430	 0.345843	 2
1463629479.487	 10	 3.639079	 -3.120914	 -3.138381	 1.550663	 -1.110461	 -1.023813	 -0.036858	 0.702972	 -0.618960	 0.348368	 2
1463629479.497	 10	 2.342750	 -2.679510	 -2.781943	 1.462623	 -1.137927	 -1.090484	 -0.051058	 0.689020	 -0.632836	 0.349517	 2
1463629479.507	 10	 1.038342	 -2.402977	 -1.843996	 1.402513	 -1.156698	 -1.129534	 -0.063644	 0.679892	 -0.640335	 0.351664	 2
1463629479.517	 10	 0.324124	 -2.434431	 -1.337162	 1.361372	 -1.169828	 -1.147977	 -0.075409	 0.673603	 -0.643611	 0.355439	 2
1463629479.527	 10	 0.023757	 -2.397710	 -1.235089	 1.328746	 -1.181831	 -1.157178	 -0.087239	 0.668536	 -0.645119	 0.359544	 2
1463629479.537	 10	 0.094916	 -2.284825	 -1.186699	 1.296667	 -1.193271	 -1.166797	 -0.098605	 0.663613	 -0.646394	 0.363414	 2
1463629479.547	 10	 0.405077	 -2.184317	 -1.135176	 1.258293	 -1.203332	 -1.184239	 -0.108978	 0.657951	 -0.648386	 0.367177	 2
1463629479.557	 10	 0.852236	 -1.964326	 -1.125299	 1.209995	 -1.211498	 -1.214239	 -0.117878	 0.651184	 -0.651720	 0.370575	 2
1463629479.567	 10	 1.203930	 -1.824025	 -1.143042	 1.151798	 -1.217754	 -1.256552	 -0.125531	 0.643356	 -0.656358	 0.373535	 2
1463629479.577	 10	 1.409823	 -1.644609	 -1.105864	 1.087932	 -1.221885	 -1.306518	 -0.132135	 0.634957	 -0.661732	 0.376138	 2
1463629479.587	 10	 1.468731	 -1.450538	 -1.013981	 1.023722	 -1.223699	 -1.358892	 -0.137618	 0.626566	 -0.667300	 0.378402	 2
1463629479.597	 10	 1.276607	 -1.307851	 -0.922522	 0.964896	 -1.224291	 -1.407207	 -0.142493	 0.618862	 -0.672340	 0.380347	 2
1463629479.607	 10	 0.830105	 -1.229457	 -0.852893	 0.916929	 -1.225720	 -1.444959	 -0.147555	 0.612658	 -0.676018	 0.381939	 2
1463629479.617	 10	 0.442030	 -1.185461	 -0.809672	 0.879225	 -1.228862	 -1.472306	 -0.153101	 0.607979	 -0.678288	 0.383206	 2
1463629479.627	 10	 0.335724	 -1.103208	 -0.803718	 0.845832	 -1.232728	 -1.495756	 -0.158706	 0.604026	 -0.679985	 0.384169	 2
1463629479.637	 10	 0.505932	 -0.958280	 -0.843285	 0.810348	 -1.235808	 -1.522788	 -0.163737	 0.599910	 -0.682130	 0.384703	 2
1463629479.647	 10	 0.819991	 -0.847913	 -0.897214	 0.768649	 -1.236878	 -1.557723	 -0.167929	 0.594979	 -0.685316	 0.384893	 2
1463629479.657	 10	 1.132558	 -0.831107	 -0.946673	 0.719950	 -1.235440	 -1.600486	 -0.171518	 0.588952	 -0.689541	 0.385034	 2
1463629479.677	 11	 1.372275	 -0.893689	 -0.972789	 0.612628	 -1.226157	 -1.695590	 -0.178050	 0.574536	 -0.699518	 0.385853	 2
1463629479.687	 11	 1.063789	 -0.892920	 -0.991411	 0.562942	 -1.221950	 -1.738892	 -0.181775	 0.567824	 -0.703954	 0.385983	 2
1463629479.697	 11	 0.430360	 -0.881779	 -0.884545	 0.523949	 -1.221583	 -1.771000	 -0.186333	 0.563162	 -0.706613	 0.385780	 2
1463629479.707	 11	 -0.126325	 -0.959605	 -0.694980	 0.496797	 -1.225254	 -1.789935	 -0.191731	 0.560676	 -0.707145	 0.385780	 2
1463629479.717	 11	 -0.334422	 -1.024373	 -0.617036	 0.475133	 -1.230878	 -1.802185	 -0.197653	 0.559190	 -0.706515	 0.386103	 2
1463629479.727	 11	 -0.266128	 -1.017202	 -0.627155	 0.452738	 -1.236308	 -1.815067	 -0.203581	 0.557628	 -0.705870	 0.386462	 2
1463629479.737	 11	 -0.137492	 -0.901592	 -0.619739	 0.429140	 -1.240453	 -1.830107	 -0.208938	 0.555758	 -0.705642	 0.386713	 2
1463629479.747	 11	 -0.085860	 -0.832460	 -0.599296	 0.405862	 -1.243827	 -1.846093	 -0.213693	 0.553890	 -0.705683	 0.386721	 2
1463629479.757	 11	 -0.225854	 -1.174945	 -0.509609	 0.382483	 -1.247456	 -1.859582	 -0.219243	 0.551855	 -0.705107	 0.387572	 2
1463629479.767	 11	 -0.743629	 -1.807198	 -0.343659	 0.361498	 -1.254389	 -1.864318	 -0.227273	 0.550295	 -0.702395	 0.390080	 2
1463629479.777	 11	 -1.492627	 -2.215806	 -0.085157	 0.349665	 -1.267120	 -1.854282	 -0.237732	 0.550469	 -0.696637	 0.393909	 2
1463629479.787	 11	 -2.088395	 -2.108424	 0.254613	 0.355472	 -1.284972	 -1.825577	 -0.248660	 0.553179	 -0.688257	 0.398074	 2
1463629479.797	 11	 -2.293086	 -1.664024	 0.585588	 0.383164	 -1.304269	 -1.778286	 -0.257870	 0.557998	 -0.678699	 0.401883	 2
1463629479.807	 11	 -2.365708	 -1.203611	 0.831367	 0.432208	 -1.322696	 -1.713905	 -0.264875	 0.564225	 -0.668844	 0.405140	 2
1463629479.817	 11	 -2.508198	 -0.567977	 1.011176	 0.506052	 -1.340395	 -1.630241	 -0.269616	 0.572219	 -0.658856	 0.407164	 2
1463629479.827	 11	 -2.612547	 0.288317	 1.127694	 0.608749	 -1.356572	 -1.525659	 -0.271488	 0.582318	 -0.649229	 0.407065	 2
1463629479.847	 12	 -2.899073	 1.497734	 1.171285	 0.900906	 -1.380935	 -1.250940	 -0.268306	 0.607802	 -0.631143	 0.400308	 2
1463629479.857	 12	 -2.854209	 1.763241	 1.134997	 1.079326	 -1.387309	 -1.086567	 -0.265265	 0.621756	 -0.622225	 0.394828	 2
1463629479.867	 12	 -2.360886	 2.287122	 1.121722	 1.248679	 -1.386913	 -0.936074	 -0.260031	 0.635170	 -0.614958	 0.388290	 2
1463629479.877	 12	 -1.669408	 2.905596	 1.179008	 1.386006	 -1.380385	 -0.824448	 -0.251418	 0.647612	 -0.610359	 0.380592	 2
1463629479.887	 12	 -0.963547	 3.036008	 1.407477	 1.482093	 -1.368632	 -0.757439	 -0.239928	 0.658438	 -0.607855	 0.373371	 2
1463629479.897	 12	 -0.496286	 2.769675	 1.683357	 1.542643	 -1.352876	 -0.724689	 -0.227020	 0.667397	 -0.606240	 0.368125	 2
1463629479.907	 12	 -0.441585	 2.327298	 2.010217	 1.586063	 -1.333677	 -0.705217	 -0.213952	 0.675291	 -0.603977	 0.365265	 2
1463629479.917	 12	 -0.771011	 1.857662	 2.381743	 1.628773	 -1.310553	 -0.681492	 -0.201464	 0.683277	 -0.599577	 0.364764	 2
1463629479.927	 12	 -1.237791	 1.507105	 2.692682	 1.676810	 -1.283490	 -0.648039	 -0.189781	 0.692081	 -0.592471	 0.366040	 2
1463629479.937	 12	 -1.590338	 1.291274	 2.854674	 1.726446	 -1.253527	 -0.610105	 -0.178775	 0.701585	 -0.583262	 0.368272	 2
1463629479.947	 12	 -1.816540	 1.039097	 2.895861	 1.772859	 -1.221920	 -0.572696	 -0.168629	 0.711243	 -0.572638	 0.371191	 2
1463629479.957	 12	 -1.954533	 0.785998	 2.845683	 1.813863	 -1.189726	 -0.537836	 -0.159571	 0.720620	 -0.561100	 0.374713	 2
1463629479.967	 12	 -2.008258	 0.632761	 2.666742	 1.849870	 -1.158286	 -0.505990	 -0.151637	 0.729537	 -0.549244	 0.378302	 2
1463629479.977	 12	 -1.933497	 0.619111	 2.428299	 1.881314	 -1.128803	 -0.478167	 -0.144576	 0.737866	 -0.537787	 0.381362	 2
1463629479.987	 12	 -1.720041	 0.788301	 2.231915	 1.908331	 -1.101549	 -0.456259	 -0.137585	 0.745619	 -0.527344	 0.383445	 2
1463629479.997	 12	 -1.459075	 1.045882	 2.070044	 1.931716	 -1.076505	 -0.440965	 -0.130030	 0.752899	 -0.518246	 0.384260	 2
1463629480.007	 12	 -1.235930	 1.236286	 1.869509	 1.952749	 -1.053915	 -0.430538	 -0.122179	 0.759717	 -0.510427	 0.383885	 2
1463629480.017	 12	 -1.017285	 1.374613	 1.672792	 1.971959	 -1.033936	 -0.423872	 -0.114268	 0.766028	 -0.503838	 0.382480	 2
1463629480.027	 12	 -0.806411	 1.406968	 1.526314	 1.988730	 -1.016213	 -0.420708	 -0.106378	 0.771717	 -0.498346	 0.380510	 2
1463629480.037	 12	 -0.635511	 1.326776	 1.390859	 2.002697	 -1.000453	 -0.420173	 -0.098796	 0.776688	 -0.493721	 0.378464	 2
1463629480.047	 12	 -0.521466	 1.195598	 1.241570	 2.014256	 -0.986558	 -0.421016	 -0.091836	 0.780958	 -0.489762	 0.376569	 2
1463629480.057	 12	 -0.369590	 1.138996	 1.124619	 2.023840	 -0.974398	 -0.423296	 -0.085306	 0.784630	 -0.486494	 0.374703	 2
1463629480.067	 12	 -0.154324	 1.132546	 1.055542	 2.031011	 -0.963877	 -0.428331	 -0.078741	 0.787690	 -0.484140	 0.372763	 2
1463629480.077	 12	 0.031426	 1.179569	 1.014929	 2.036290	 -0.954655	 -0.436083	 -0.071917	 0.790269	 -0.482622	 0.370646	 2
1463629480.087	 12	 0.195246	 1.325595	 0.977559	 2.040943	 -0.946546	 -0.446139	 -0.064627	 0.792600	 -0.481854	 0.368001	 2
1463629480.097	 12	 0.349569	 1.511916	 0.919333	 2.045943	 -0.939633	 -0.458090	 -0.056813	 0.794824	 -0.481819	 0.364524	 2
1463629480.107	 12	 0.495109	 1.655638	 0.850128	 2.051184	 -0.934041	 -0.471725	 -0.048614	 0.796884	 -0.482505	 0.360281	 2
1463629480.117	 12	 0.598272	 1.689494	 0.720588	 2.056472	 -0.929999	 -0.486184	 -0.040477	 0.798685	 -0.483820	 0.355502	 2
1463629480.127	 12	 0.680472	 1.640968	 0.515860	 2.061649	 -0.928051	 -0.500349	 -0.033034	 0.800112	 -0.485746	 0.350399	 2
1463629480.137	 12	 0.803117	 1.605840	 0.268274	 2.066608	 -0.928761	 -0.514303	 -0.026432	 0.801091	 -0.488489	 0.344868	 2
1463629480.147	 12	 0.953075	 1.515009	 -0.022698	 2.070926	 -0.932668	 -0.528167	 -0.020875	 0.801495	 -0.492244	 0.338919	 2
1463629480.157	 12	 1.113310	 1.365435	 -0.343083	 2.073898	 -0.940117	 -0.541906	 -0.016650	 0.801175	 -0.497111	 0.332748	 2
1463629480.167	 12	 1.261730	 1.197830	 -0.661400	 2.075351	 -0.951148	 -0.555425	 -0.013865	 0.800112	 -0.503074	 0.326411	 2
1463629480.177	 12	 1.393289	 1.031718	 -0.927335	 2.075012	 -0.965304	 -0.568897	 -0.012414	 0.798332	 -0.509986	 0.320041	 2
1463629480.187	 12	 1.418876	 0.979045	 -1.140134	 2.074310	 -0.981737	 -0.581680	 -0.011978	 0.796173	 -0.517447	 0.313389	 2
1463629480.197	 12	 1.264407	 1.126563	 -1.247190	 2.076455	 -0.998840	 -0.591876	 -0.012038	 0.794322	 -0.524646	 0.306029	 2
1463629480.207	 12	 0.921853	 1.382594	 -1.280192	 2.085668	 -1.014726	 -0.596818	 -0.011979	 0.793612	 -0.530618	 0.297457	 2
1463629480.217	 12	 0.867004	 1.054382	 -1.534289	 2.096160	 -1.031954	 -0.597587	 -0.013548	 0.792776	 -0.536386	 0.289158	 2
1463629480.227	 12	 -0.268588	 2.195133	 -1.036325	 2.124835	 -1.042849	 -0.586244	 -0.013262	 0.795201	 -0.538518	 0.278348	 2
1463629480.237	 12	 -0.658325	 1.229073	 -0.209561	 2.154172	 -1.042562	 -0.571179	 -0.011307	 0.799179	 -0.536535	 0.270767	 2
1463629480.247	 12	 0.042398	 -0.293440	 0.152779	 2.156209	 -1.040989	 -0.569223	 -0.011136	 0.799684	 -0.535757	 0.270824	 2
1463629480.257	 12	 0.746043	 -0.639457	 0.389624	 2.138461	 -1.041377	 -0.582640	 -0.010643	 0.797280	 -0.537617	 0.274224	 2
1463629480.267	 12	 1.003068	 -0.567916	 0.531930	 2.113974	 -1.042230	 -0.604277	 -0.008863	 0.793881	 -0.540764	 0.277938	 2
1463629480.277	 12	 0.738938	 -0.651426	 0.496151	 2.091008	 -1.041973	 -0.623675	 -0.007333	 0.790781	 -0.543303	 0.281839	 2
1463629480.287	 12	 0.298315	 -0.718295	 0.337369	 2.074703	 -1.040706	 -0.634349	 -0.007204	 0.788680	 -0.544356	 0.285673	 2
1463629480.297	 12	 -0.024862	 -0.647433	 0.298212	 2.064956	 -1.038269	 -0.637872	 -0.007792	 0.787618	 -0.544059	 0.289133	 2
1463629480.307	 12	 -0.005898	 -0.460406	 0.282735	 2.058003	 -1.035536	 -0.639999	 -0.008084	 0.786976	 -0.543483	 0.291942	 2
1463629480.317	 12	 0.257390	 -0.214092	 0.181487	 2.050832	 -1.034536	 -0.645087	 -0.007752	 0.786076	 -0.543887	 0.293617	 2
1463629480.327	 12	 0.413382	 -0.208939	 0.221742	 2.041756	 -1.034625	 -0.653628	 -0.006894	 0.784760	 -0.545138	 0.294835	 2
1463629480.337	 12	 0.281918	 -0.493635	 0.510125	 2.029391	 -1.032270	 -0.663157	 -0.005862	 0.783254	 -0.545785	 0.297654	 2
1463629480.347	 12	 -0.043739	 -0.963124	 0.757980	 2.015288	 -1.026078	 -0.670008	 -0.005252	 0.781908	 -0.544880	 0.302816	 2
1463629480.357	 12	 -0.292454	 -1.429313	 0.759004	 2.000328	 -1.018011	 -0.671850	 -0.006268	 0.780570	 -0.542666	 0.310136	 2
1463629480.367	 12	 -0.093994	 -1.781812	 0.631434	 1.981440	 -1.011227	 -0.674142	 -0.008512	 0.778383	 -0.540904	 0.318545	 2
1463629480.377	 12	 0.107937	 -0.800754	 0.329733	 1.965548	 -1.007690	 -0.678574	 -0.010044	 0.776239	 -0.540481	 0.324397	 2
1463629480.387	 12	 -0.082327	 1.426902	 0.022798	 1.974330	 -1.006821	 -0.679002	 -0.007248	 0.777752	 -0.540328	 0.321084	 2
1463629480.397	 12	 -0.334853	 1.934342	 -0.212209	 1.998878	 -1.007031	 -0.673050	 -0.003003	 0.781605	 -0.539511	 0.313069	 2
1463629480.407	 12	 -0.405654	 0.553694	 -0.545234	 2.017371	 -1.009514	 -0.662623	 -0.002817	 0.784175	 -0.538679	 0.308036	 2
1463629480.417	 12	 -0.325628	 -1.091257	 -0.743483	 2.020453	 -1.014344	 -0.650700	 -0.008046	 0.784043	 -0.538340	 0.308872	 2
1463629480.427	 12	 -0.043078	 -2.279040	 -0.738878	 2.007323	 -1.020563	 -0.642494	 -0.016576	 0.781193	 -0.538900	 0.314723	 2
1463629480.437	 12	 0.329375	 -2.985052	 -0.703929	 1.980190	 -1.027999	 -0.640995	 -0.026635	 0.775947	 -0.540638	 0.323893	 2
1463629480.447	 12	 0.717421	 -3.302042	 -0.698534	 1.942626	 -1.036808	 -0.646971	 -0.037103	 0.768819	 -0.543660	 0.334625	 2
1463629480.457	 12	 1.132959	 -3.225538	 -0.687585	 1.897458	 -1.046805	 -0.661400	 -0.046925	 0.760311	 -0.548070	 0.345462	 2
1463629480.467	 12	 1.552249	 -2.799178	 -0.685137	 1.847515	 -1.057636	 -0.685243	 -0.055021	 0.751022	 -0.554001	 0.354996	 2
1463629480.477	 12	 1.911610	 -2.147455	 -0.723766	 1.795659	 -1.069043	 -0.717997	 -0.060875	 0.741563	 -0.561410	 0.362212	 2
1463629480.487	 12	 2.241198	 -1.043416	 -0.735546	 1.745583	 -1.080589	 -0.759551	 -0.063481	 0.732739	 -0.570323	 0.365781	 2
1463629480.497	 12	 2.210378	 0.259233	 -0.638961	 1.704796	 -1.090602	 -0.805060	 -0.061938	 0.725963	 -0.579726	 0.364774	 2
1463629480.507	 12	 1.703408	 0.927579	 -0.642182	 1.678810	 -1.099058	 -0.843538	 -0.058449	 0.721858	 -0.587813	 0.360529	 2
1463629480.517	 12	 1.126827	 0.633788	 -0.907402	 1.663227	 -1.108546	 -0.869534	 -0.056919	 0.719264	 -0.594051	 0.355700	 2
1463629480.527	 12	 0.808436	 -0.280404	 -1.258444	 1.647302	 -1.120987	 -0.886954	 -0.059681	 0.716278	 -0.599243	 0.352551	 2
1463629480.547	 13	 0.720711	 -2.144226	 -1.785524	 1.588980	 -1.153553	 -0.917650	 -0.077677	 0.705443	 -0.608963	 0.354231	 2
1463629480.557	 13	 0.791877	 -2.547517	 -1.928445	 1.546326	 -1.172545	 -0.937181	 -0.090541	 0.697895	 -0.614003	 0.357415	 2
1463629480.567	 13	 0.934950	 -2.518278	 -1.945405	 1.496648	 -1.191543	 -0.963302	 -0.103549	 0.689612	 -0.619365	 0.360694	 2
1463629480.577	 13	 1.114187	 -2.130122	 -1.881540	 1.441844	 -1.209368	 -0.998008	 -0.115112	 0.681185	 -0.625240	 0.363059	 2
1463629480.587	 13	 1.288053	 -1.571359	 -1.760620	 1.383690	 -1.225129	 -1.041701	 -0.124315	 0.673077	 -0.631692	 0.363977	 2
1463629480.597	 13	 1.435424	 -1.011128	 -1.594694	 1.323485	 -1.238085	 -1.093372	 -0.130886	 0.665502	 -0.638617	 0.363516	 2
1463629480.607	 13	 1.543601	 -0.613531	 -1.431006	 1.261629	 -1.248053	 -1.151331	 -0.135236	 0.658376	 -0.645851	 0.362116	 2
1463629480.617	 13	 1.578013	 -0.450933	 -1.289112	 1.198543	 -1.255252	 -1.212743	 -0.138269	 0.651494	 -0.653072	 0.360463	 2
1463629480.627	 13	 1.484270	 -0.509406	 -1.176935	 1.136052	 -1.260358	 -1.273341	 -0.141025	 0.644812	 -0.659808	 0.359143	 2
1463629480.637	 13	 1.311767	 -0.708398	 -1.113339	 1.075599	 -1.264343	 -1.329955	 -0.144361	 0.638342	 -0.665719	 0.358467	 2
1463629480.647	 13	 1.107790	 -0.995774	 -1.076936	 1.017187	 -1.267934	 -1.381533	 -0.148806	 0.632022	 -0.670672	 0.358614	 2
1463629480.657	 13	 0.903910	 -1.261885	 -1.041401	 0.960930	 -1.271469	 -1.427874	 -0.154433	 0.625863	 -0.674648	 0.359578	 2
1463629480.667	 13	 0.727352	 -1.375062	 -1.025996	 0.907279	 -1.275181	 -1.469793	 -0.160844	 0.620013	 -0.677821	 0.360932	 2
1463629480.677	 13	 0.642213	 -1.322717	 -1.029031	 0.855518	 -1.278942	 -1.509836	 -0.167392	 0.614516	 -0.680599	 0.362126	 2
1463629480.687	 13	 0.687743	 -1.181314	 -1.018519	 0.803727	 -1.281966	 -1.551151	 -0.173468	 0.609154	 -0.683455	 0.362945	 2
1463629480.697	 13	 0.815520	 -1.011547	 -1.023381	 0.750185	 -1.283540	 -1.596007	 -0.178747	 0.603668	 -0.686746	 0.363337	 2
1463629480.707	 13	 0.931122	 -0.895259	 -1.074462	 0.693815	 -1.283738	 -1.645203	 -0.183446	 0.597921	 -0.690559	 0.363272	 2
1463629480.717	 13	 0.922278	 -0.895790	 -1.151125	 0.635234	 -1.283353	 -1.697020	 -0.188191	 0.592017	 -0.694571	 0.362865	 2
1463629480.727	 13	 0.682853	 -0.907377	 -1.232278	 0.577843	 -1.284057	 -1.747441	 -0.193541	 0.586590	 -0.698135	 0.362024	 2
1463629480.737	 13	 0.313531	 -0.891681	 -1.270481	 0.524837	 -1.287216	 -1.793348	 -0.199633	 0.582305	 -0.700732	 0.360615	 2
1463629480.747	 13	 0.058730	 -0.868333	 -1.233940	 0.476380	 -1.292258	 -1.834658	 -0.206136	 0.579085	 -0.702398	 0.358895	 2
1463629480.757	 13	 0.071052	 -0.810367	 -1.155708	 0.429978	 -1.296939	 -1.874277	 -0.212352	 0.576187	 -0.703788	 0.357208	 2
1463629480.767	 13	 0.266190	 -0.691176	 -1.067839	 0.383957	 -1.299296	 -1.914527	 -0.217658	 0.572975	 -0.705559	 0.355685	 2
1463629480.777	 13	 0.466921	 -0.513539	 -0.984805	 0.339304	 -1.298948	 -1.955073	 -0.221764	 0.569402	 -0.707921	 0.354189	 2
1463629480.787	 13	 0.663083	 -0.450318	 -0.840981	 0.297978	 -1.295837	 -1.993209	 -0.224803	 0.565413	 -0.710716	 0.353063	 2
1463629480.797	 13	 0.681931	 -0.433274	 -0.683253	 0.262565	 -1.291166	 -2.025570	 -0.227140	 0.561371	 -0.713460	 0.352484	 2
1463629480.807	 13	 0.337754	 -0.707431	 -0.494168	 0.234223	 -1.288136	 -2.048687	 -0.230066	 0.558052	 -0.714987	 0.352762	 2
1463629480.817	 13	 -0.408807	 -1.277719	 -0.236126	 0.214347	 -1.290802	 -2.057614	 -0.235302	 0.556435	 -0.713634	 0.354598	 2
1463629480.827	 13	 -1.192343	 -1.773400	 0.028262	 0.203699	 -1.300754	 -2.051385	 -0.243132	 0.557009	 -0.708909	 0.357878	 2
1463629480.837	 13	 -1.690032	 -1.906742	 0.359609	 0.206682	 -1.315747	 -2.028659	 -0.251919	 0.559531	 -0.701639	 0.362166	 2
1463629480.847	 13	 -1.905842	 -1.788789	 0.697235	 0.228255	 -1.332611	 -1.987595	 -0.259951	 0.563485	 -0.692953	 0.367050	 2
1463629480.857	 13	 -2.062660	 -1.560800	 0.978886	 0.271120	 -1.349960	 -1.926867	 -0.266710	 0.568633	 -0.683407	 0.372126	 2
1463629480.867	 13	 -2.232016	 -1.009786	 1.212495	 0.341202	 -1.367377	 -1.843133	 -0.271499	 0.575414	 -0.673393	 0.376469	 2
1463629480.877	 13	 -2.399809	 -0.052066	 1.356088	 0.446003	 -1.384111	 -1.733201	 -0.273129	 0.584531	 -0.663631	 0.378573	 2
1463629480.887	 13	 -2.527324	 0.927181	 1.404678	 0.587976	 -1.398977	 -1.595957	 -0.271463	 0.595967	 -0.654568	 0.377720	 2
1463629480.897	 13	 -2.688112	 1.665927	 1.422544	 0.768245	 -1.410701	 -1.428421	 -0.267271	 0.609300	 -0.645954	 0.374250	 2
1463629480.907	 13	 -2.768205	 2.128634	 1.394516	 0.980038	 -1.417736	 -1.234487	 -0.261605	 0.623781	 -0.637500	 0.368856	 2
1463629480.917	 13	 -2.447466	 2.699958	 1.400237	 1.193977	 -1.417281	 -1.043663	 -0.253846	 0.638301	 -0.630159	 0.361985	 2
1463629480.927	 13	 -1.820675	 3.641868	 1.445109	 1.373584	 -1.409250	 -0.896188	 -0.242157	 0.652382	 -0.625403	 0.353028	 2
1463629480.937	 13	 -1.078533	 4.409627	 1.721824	 1.502262	 -1.394712	 -0.808726	 -0.225715	 0.665624	 -0.623362	 0.342663	 2
1463629480.947	 13	 -0.457680	 4.657829	 2.171677	 1.583174	 -1.374251	 -0.773479	 -0.205374	 0.677517	 -0.622865	 0.332912	 2
1463629480.957	 13	 -0.224119	 4.443868	 2.388265	 1.636061	 -1.350708	 -0.765669	 -0.183692	 0.688024	 -0.622546	 0.324526	 2
1463629480.967	 13	 -0.428053	 3.838284	 2.545336	 1.681583	 -1.325469	 -0.760066	 -0.163129	 0.697721	 -0.620784	 0.318122	 2
1463629480.977	 13	 -0.909887	 3.148361	 2.693383	 1.730320	 -1.298042	 -0.743976	 -0.144743	 0.707421	 -0.616397	 0.314101	 2
1463629480.987	 13	 -1.436650	 2.499499	 2.765469	 1.783121	 -1.268586	 -0.716612	 -0.128852	 0.717466	 -0.609250	 0.312177	 2
1463629480.997	 13	 -1.874636	 1.929830	 2.793823	 1.836001	 -1.237282	 -0.682695	 -0.115288	 0.727744	 -0.599759	 0.312068	 2
1463629481.007	 13	 -2.218575	 1.438167	 2.763467	 1.885866	 -1.204572	 -0.646142	 -0.103848	 0.738037	 -0.588441	 0.313455	 2
1463629481.017	 13	 -2.482044	 1.088355	 2.672982	 1.932015	 -1.171085	 -0.608976	 -0.094236	 0.748255	 -0.575779	 0.315773	 2
1463629481.027	 13	 -2.634749	 0.917965	 2.582136	 1.974181	 -1.137203	 -0.573213	 -0.085873	 0.758343	 -0.562259	 0.318443	 2
1463629481.037	 13	 -2.579861	 0.846054	 2.514912	 2.010624	 -1.103430	 -0.542326	 -0.077989	 0.768006	 -0.548610	 0.321109	 2
1463629481.047	 13	 -2.235531	 0.829621	 2.441421	 2.038475	 -1.071084	 -0.520241	 -0.070026	 0.776599	 -0.535917	 0.323703	 2
1463629481.057	 13	 -1.701113	 0.782290	 2.437393	 2.055658	 -1.041041	 -0.509758	 -0.061382	 0.783578	 -0.525066	 0.326411	 2
1463629481.067	 13	 -1.165184	 0.860190	 2.396150	 2.064106	 -1.013646	 -0.509479	 -0.051894	 0.788990	 -0.516236	 0.329094	 2
1463629481.077	 13	 -0.642537	 1.105813	 2.304361	 2.067856	 -0.989497	 -0.517429	 -0.041275	 0.793231	 -0.509590	 0.330754	 2
1463629481.087	 13	 -0.229993	 1.315569	 2.208934	 2.068851	 -0.968356	 -0.531481	 -0.029724	 0.796534	 -0.504848	 0.331327	 2
1463629481.097	 13	 -0.091121	 1.406104	 2.136095	 2.069525	 -0.948968	 -0.547741	 -0.017808	 0.799372	 -0.501031	 0.331142	 2
1463629481.107	 13	 -0.181491	 1.272181	 2.112189	 2.070595	 -0.929667	 -0.562684	 -0.006304	 0.802047	 -0.497007	 0.331157	 2
1463629481.117	 13	 -0.285056	 1.108065	 2.026303	 2.072174	 -0.910360	 -0.575105	 0.004344	 0.804616	 -0.492537	 0.331636	 2
1463629481.127	 13	 -0.266246	 0.959828	 1.832922	 2.073733	 -0.892486	 -0.585840	 0.013935	 0.806863	 -0.488245	 0.332256	 2
1463629481.137	 13	 -0.139056	 0.795655	 1.539334	 2.074434	 -0.877434	 -0.595677	 0.022196	 0.808538	 -0.484750	 0.332853	 2
1463629481.147	 13	 0.077459	 0.631699	 1.165038	 2.073793	 -0.866512	 -0.605465	 0.028994	 0.809458	 -0.482664	 0.333127	 2
1463629481.157	 13	 0.275385	 0.366810	 0.798490	 2.070773	 -0.859837	 -0.615075	 0.033989	 0.809485	 -0.482039	 0.333493	 2
1463629481.167	 13	 0.462694	 0.261107	 0.525172	 2.066016	 -0.856660	 -0.624983	 0.037727	 0.808829	 -0.482698	 0.333729	 2
1463629481.177	 13	 0.608726	 0.425927	 0.285638	 2.061897	 -0.856312	 -0.635222	 0.040966	 0.807975	 -0.484368	 0.332996	 2
1463629481.187	 13	 0.728871	 0.758871	 0.045762	 2.061029	 -0.858694	 -0.645306	 0.044165	 0.807389	 -0.486861	 0.330363	 2
1463629481.197	 13	 0.917287	 1.040948	 -0.140828	 2.062446	 -0.863617	 -0.656324	 0.047587	 0.806901	 -0.490285	 0.325986	 2
1463629481.207	 13	 1.155035	 1.164265	 -0.346377	 2.064125	 -0.871351	 -0.669122	 0.051004	 0.806124	 -0.494887	 0.320389	 2
1463629481.217	 13	 1.360756	 1.135978	 -0.643647	 2.064969	 -0.882531	 -0.683003	 0.053680	 0.804833	 -0.500762	 0.314004	 2
1463629481.227	 13	 1.555007	 1.013479	 -1.030153	 2.064524	 -0.897840	 -0.697053	 0.054924	 0.802918	 -0.507966	 0.307044	 2
1463629481.237	 13	 1.769924	 0.806384	 -1.486900	 2.062116	 -0.918030	 -0.711093	 0.054252	 0.800210	 -0.516685	 0.299594	 2
1463629481.257	 13	 1.888632	 0.011381	 -2.092159	 2.047046	 -0.970021	 -0.737998	 0.046210	 0.792112	 -0.537366	 0.285764	 2
1463629481.267	 14	 1.335575	 -0.333182	 -2.015946	 2.038282	 -0.995107	 -0.745275	 0.039499	 0.788104	 -0.546255	 0.280957	 2
1463629481.277	 14	 0.316573	 0.276764	 -1.626249	 2.042069	 -1.013524	 -0.740757	 0.033452	 0.786728	 -0.551124	 0.276048	 2
1463629481.287	 14	 -0.723643	 1.619024	 -0.729711	 2.070945	 -1.019592	 -0.723296	 0.032787	 0.790253	 -0.550118	 0.267946	 2
1463629481.297	 14	 -0.779275	 0.926130	 0.060450	 2.095084	 -1.016676	 -0.708760	 0.034467	 0.794051	 -0.546879	 0.263093	 2
1463629481.307	 14	 -0.354998	 -0.249078	 0.536071	 2.098551	 -1.010488	 -0.705091	 0.035671	 0.795327	 -0.544394	 0.264231	 2
1463629481.317	 14	 0.155690	 -0.949187	 0.707355	 2.084559	 -1.004767	 -0.712022	 0.036212	 0.794021	 -0.543777	 0.269306	 2
1463629481.327	 14	 0.366697	 -1.223278	 0.690178	 2.062925	 -1.000257	 -0.723851	 0.036285	 0.791378	 -0.544381	 0.275777	 2
1463629481.337	 14	 0.206327	 -1.394000	 0.550371	 2.041513	 -0.996198	 -0.733194	 0.035304	 0.788669	 -0.544824	 0.282704	 2
1463629481.347	 14	 -0.050531	 -1.429385	 0.407334	 2.023958	 -0.992366	 -0.736985	 0.033122	 0.786499	 -0.544503	 0.289548	 2
1463629481.357	 14	 -0.269528	 -1.206830	 0.354826	 2.011864	 -0.988123	 -0.736254	 0.030781	 0.785179	 -0.543309	 0.295569	 2
1463629481.367	 14	 -0.308456	 -1.029604	 0.284343	 2.003718	 -0.983988	 -0.733363	 0.028646	 0.784427	 -0.541754	 0.300592	 2
1463629481.377	 14	 -0.069943	 -1.047086	 0.170198	 1.993997	 -0.981734	 -0.732576	 0.026368	 0.783191	 -0.541092	 0.305183	 2
1463629481.387	 14	 0.116272	 -1.027693	 0.279597	 1.981005	 -0.979844	 -0.735645	 0.024612	 0.781339	 -0.541164	 0.309911	 2
1463629481.397	 14	 0.163528	 -0.719715	 0.527176	 1.968086	 -0.976268	 -0.741366	 0.024413	 0.779593	 -0.541154	 0.314312	 2
1463629481.407	 14	 0.200960	 -0.351120	 0.916086	 1.956332	 -0.969438	 -0.750213	 0.026726	 0.778245	 -0.540690	 0.318238	 2
1463629481.417	 14	 0.006695	 0.028650	 0.992718	 1.949315	 -0.960382	 -0.757917	 0.030557	 0.777804	 -0.539365	 0.321204	 2
1463629481.427	 14	 -0.114999	 0.043875	 0.696571	 1.947470	 -0.952686	 -0.761279	 0.033694	 0.778102	 -0.537681	 0.322989	 2
1463629481.437	 14	 0.024146	 -0.680417	 0.316669	 1.941006	 -0.948971	 -0.763451	 0.033927	 0.777322	 -0.537054	 0.325871	 2
1463629481.447	 14	 -0.236781	 -0.386597	 0.101062	 1.935559	 -0.947070	 -0.762695	 0.032749	 0.776597	 -0.536465	 0.328678	 2
1463629481.467	 15	 -1.357498	 1.738007	 -0.858437	 1.992767	 -0.947571	 -0.722893	 0.032287	 0.786434	 -0.529261	 0.316800	 2
1463629481.477	 15	 -1.543870	 1.183161	 -1.177443	 2.032109	 -0.951167	 -0.691373	 0.029167	 0.792716	 -0.524842	 0.308694	 2
1463629481.487	 15	 -1.431946	 -0.075267	 -1.596183	 2.063009	 -0.957536	 -0.656828	 0.021714	 0.797196	 -0.521186	 0.303928	 2
1463629481.497	 15	 -1.194337	 -1.472639	 -1.910734	 2.080175	 -0.967699	 -0.622075	 0.009495	 0.798876	 -0.519074	 0.303759	 2
1463629481.507	 15	 -0.957138	 -2.492704	 -1.970251	 2.084747	 -0.979901	 -0.589112	 -0.005814	 0.798065	 -0.518043	 0.307717	 2
1463629481.517	 15	 -0.600964	 -2.987551	 -1.716845	 2.078383	 -0.992143	 -0.562018	 -0.021579	 0.795267	 -0.517830	 0.314544	 2
1463629481.527	 15	 0.179704	 -3.034320	 -1.250879	 2.058803	 -1.003912	 -0.549099	 -0.034981	 0.790360	 -0.519369	 0.323053	 2
1463629481.537	 15	 1.433281	 -2.756528	 -0.864877	 2.021417	 -1.017383	 -0.559578	 -0.044345	 0.782616	 -0.524708	 0.332005	 2
1463629481.547	 15	 2.544064	 -2.222753	 -0.731032	 1.968349	 -1.033592	 -0.594017	 -0.049630	 0.772399	 -0.534321	 0.339762	 2
1463629481.557	 15	 3.148468	 -1.618883	 -0.815936	 1.907024	 -1.051804	 -0.644514	 -0.052245	 0.760982	 -0.546826	 0.345192	 2
1463629481.567	 15	 3.308585	 -1.024885	 -0.974865	 1.844125	 -1.070568	 -0.703186	 -0.053286	 0.749597	 -0.560566	 0.347895	 2
1463629481.577	 15	 3.204328	 -0.572837	 -1.161588	 1.783541	 -1.089182	 -0.764238	 -0.053700	 0.738931	 -0.574385	 0.348109	 2
1463629481.587	 15	 2.931624	 -0.351811	 -1.299969	 1.726273	 -1.107198	 -0.824139	 -0.054279	 0.729161	 -0.587535	 0.346670	 2
1463629481.597	 15	 2.430904	 -0.359177	 -1.344703	 1.674271	 -1.123773	 -0.878192	 -0.055702	 0.720571	 -0.599067	 0.344664	 2
1463629481.607	 15	 1.763919	 -0.552143	 -1.383321	 1.630734	 -1.139046	 -0.920856	 -0.058790	 0.713496	 -0.608219	 0.342836	 2
1463629481.617	 15	 1.185250	 -0.814381	 -1.405236	 1.595394	 -1.153598	 -0.951380	 -0.063814	 0.707751	 -0.615066	 0.341630	 2
1463629481.627	 15	 0.786286	 -0.988856	 -1.425767	 1.566084	 -1.167889	 -0.972994	 -0.070258	 0.702951	 -0.620260	 0.340882	 2
1463629481.637	 15	 0.553829	 -1.163768	 -1.439225	 1.539919	 -1.182134	 -0.989236	 -0.077743	 0.698646	 -0.624397	 0.340555	 2
1463629481.647	 15	 0.487703	 -1.357361	 -1.468161	 1.512986	 -1.196513	 -1.004178	 -0.086084	 0.694282	 -0.628064	 0.340731	 2
1463629481.657	 15	 0.565940	 -1.489678	 -1.495651	 1.481513	 -1.210972	 -1.022213	 -0.094927	 0.689413	 -0.631807	 0.341347	 2
1463629481.667	 15	 0.681845	 -1.574079	 -1.500643	 1.443887	 -1.225194	 -1.045723	 -0.103897	 0.683935	 -0.635845	 0.342257	 2
1463629481.677	 15	 0.790633	 -1.607201	 -1.477386	 1.400183	 -1.238734	 -1.075095	 -0.112741	 0.677949	 -0.640125	 0.343387	 2
1463629481.687	 15	 0.864337	 -1.635762	 -1.426071	 1.350996	 -1.251221	 -1.109832	 -0.121369	 0.671580	 -0.644514	 0.344748	 2
1463629481.697	 15	 0.925462	 -1.639620	 -1.346707	 1.297172	 -1.262260	 -1.149162	 -0.129675	 0.664948	 -0.648881	 0.346384	 2
1463629481.707	 15	 0.993278	 -1.578651	 -1.272127	 1.239234	 -1.271667	 -1.193148	 -0.137445	 0.658138	 -0.653282	 0.348117	 2
1463629481.717	 15	 1.058244	 -1.412641	 -1.233846	 1.178106	 -1.279593	 -1.241790	 -0.144475	 0.651301	 -0.657834	 0.349555	 2
1463629481.727	 15	 1.141153	 -1.285008	 -1.200342	 1.113783	 -1.285996	 -1.295208	 -0.150757	 0.644423	 -0.662605	 0.350636	 2
1463629481.747	 16	 1.357981	 -1.512890	 -1.149996	 0.968328	 -1.293116	 -1.417822	 -0.162875	 0.629127	 -0.672745	 0.353672	 2
1463629481.757	 16	 1.286056	 -1.616792	 -1.133285	 0.890980	 -1.294324	 -1.481457	 -0.169532	 0.620854	 -0.677556	 0.355974	 2
1463629481.767	 16	 0.975361	 -1.412807	 -1.143602	 0.821472	 -1.295954	 -1.538338	 -0.176167	 0.613625	 -0.681587	 0.357587	 2
1463629481.777	 16	 0.625490	 -1.111132	 -1.192102	 0.762052	 -1.299359	 -1.587741	 -0.182545	 0.608027	 -0.684798	 0.357815	 2
1463629481.787	 16	 0.371524	 -0.844791	 -1.234306	 0.709586	 -1.304414	 -1.632724	 -0.188614	 0.603798	 -0.687438	 0.356766	 2
1463629481.797	 16	 0.252150	 -0.575446	 -1.247813	 0.660959	 -1.310193	 -1.676446	 -0.194092	 0.600523	 -0.689865	 0.354663	 2
1463629481.807	 16	 0.271625	 -0.320004	 -1.215764	 0.613963	 -1.315425	 -1.721092	 -0.198634	 0.597753	 -0.692427	 0.351824	 2
1463629481.817	 16	 0.387192	 -0.076357	 -1.158018	 0.567558	 -1.319025	 -1.767739	 -0.201945	 0.595136	 -0.695407	 0.348482	 2
1463629481.827	 16	 0.523326	 -0.003955	 -1.092452	 0.520494	 -1.320555	 -1.816206	 -0.204424	 0.592274	 -0.698780	 0.345151	 2
1463629481.837	 16	 0.588249	 -0.090931	 -1.033078	 0.473117	 -1.320487	 -1.864490	 -0.206739	 0.589077	 -0.702220	 0.342249	 2
1463629481.847	 16	 0.625977	 -0.297920	 -0.960729	 0.425855	 -1.319193	 -1.910763	 -0.209420	 0.585476	 -0.705444	 0.340161	 2
1463629481.857	 16	 0.656284	 -0.513234	 -0.866013	 0.379597	 -1.316703	 -1.953787	 -0.212545	 0.581453	 -0.708373	 0.339035	 2
1463629481.867	 16	 0.586478	 -0.715237	 -0.736196	 0.337036	 -1.313638	 -1.990850	 -0.216111	 0.577308	 -0.710743	 0.338904	 2
1463629481.877	 16	 0.263071	 -0.865184	 -0.570648	 0.302512	 -1.312173	 -2.018081	 -0.220184	 0.573978	 -0.711918	 0.339471	 2
1463629481.887	 16	 -0.234381	 -1.288792	 -0.372027	 0.276357	 -1.314321	 -2.032947	 -0.225756	 0.571848	 -0.711047	 0.341228	 2
1463629481.897	 16	 -0.891324	 -1.612806	 -0.144446	 0.260756	 -1.321828	 -2.033117	 -0.233049	 0.571534	 -0.707559	 0.344090	 2
1463629481.907	 16	 -1.473395	 -1.729170	 0.146234	 0.260246	 -1.334604	 -2.016012	 -0.241202	 0.573376	 -0.701576	 0.347639	 2
1463629481.917	 16	 -1.824449	 -1.759867	 0.464471	 0.278864	 -1.350450	 -1.978934	 -0.249255	 0.576897	 -0.693720	 0.351874	 2
1463629481.927	 16	 -2.046520	 -1.779605	 0.732661	 0.317988	 -1.367541	 -1.920715	 -0.256985	 0.581455	 -0.684514	 0.356805	 2
1463629481.937	 16	 -2.329076	 -1.501347	 1.002020	 0.385939	 -1.385478	 -1.835165	 -0.263738	 0.587443	 -0.674178	 0.361715	 2
1463629481.947	 16	 -2.643993	 -0.829584	 1.254007	 0.498197	 -1.403624	 -1.710852	 -0.268265	 0.595777	 -0.663060	 0.365289	 2
1463629481.957	 16	 -2.832754	 -0.016471	 1.395371	 0.662890	 -1.419571	 -1.541827	 -0.270002	 0.606405	 -0.651857	 0.366681	 2
1463629481.967	 16	 -2.891927	 0.749820	 1.439253	 0.875314	 -1.430371	 -1.332845	 -0.269069	 0.618676	 -0.641176	 0.365698	 2
1463629481.977	 16	 -2.910777	 1.489213	 1.456955	 1.120620	 -1.434013	 -1.098329	 -0.265701	 0.632248	 -0.631171	 0.362339	 2
1463629481.987	 16	 -2.679895	 2.377469	 1.569786	 1.363531	 -1.428379	 -0.874634	 -0.259062	 0.646748	 -0.622396	 0.356689	 2
1463629481.997	 16	 -2.101750	 3.481495	 1.803099	 1.557516	 -1.413563	 -0.710743	 -0.247497	 0.661593	 -0.615962	 0.348756	 2
1463629482.007	 16	 -1.282584	 4.504384	 2.092175	 1.682538	 -1.392672	 -0.627209	 -0.230224	 0.675926	 -0.612590	 0.338902	 2
1463629482.017	 16	 -0.432570	 5.061257	 2.372383	 1.747755	 -1.368998	 -0.611273	 -0.208268	 0.688670	 -0.612010	 0.328333	 2
1463629482.027	 16	 0.172856	 5.078916	 2.705122	 1.774094	 -1.343428	 -0.636521	 -0.183508	 0.699343	 -0.612935	 0.318677	 2
1463629482.037	 16	 0.405985	 4.653271	 3.064688	 1.782214	 -1.315051	 -0.677476	 -0.157751	 0.708277	 -0.613648	 0.311278	 2
1463629482.047	 16	 0.187862	 3.904798	 3.312208	 1.788673	 -1.283799	 -0.713328	 -0.133157	 0.716145	 -0.612569	 0.306863	 2
1463629482.057	 16	 -0.409227	 3.275316	 3.388284	 1.806080	 -1.250286	 -0.730800	 -0.110943	 0.724164	 -0.608598	 0.304772	 2
1463629482.067	 16	 -1.123854	 2.959976	 3.322298	 1.838694	 -1.215539	 -0.728270	 -0.091051	 0.733312	 -0.601591	 0.303401	 2
1463629482.077	 16	 -1.771318	 2.691767	 3.182627	 1.882352	 -1.180047	 -0.711064	 -0.073353	 0.743638	 -0.591886	 0.302149	 2
1463629482.087	 16	 -2.275527	 2.284580	 3.003114	 1.930259	 -1.144148	 -0.685012	 -0.058163	 0.754588	 -0.579985	 0.301383	 2
1463629482.107	 17	 -2.645028	 0.987252	 2.598861	 2.011902	 -1.072833	 -0.627118	 -0.036282	 0.775013	 -0.552546	 0.304519	 2
1463629482.117	 17	 -2.422928	 0.424421	 2.224002	 2.039040	 -1.041006	 -0.602282	 -0.029552	 0.783048	 -0.539361	 0.308305	 2
1463629482.137	 18	 -1.438312	 0.280061	 1.489368	 2.070111	 -0.993004	 -0.571280	 -0.020278	 0.793946	 -0.519485	 0.315237	 2
1463629482.147	 18	 -0.979046	 0.393470	 1.180551	 2.078954	 -0.976692	 -0.565114	 -0.016009	 0.797450	 -0.513200	 0.316928	 2
1463629482.157	 18	 -0.631418	 0.286687	 0.969772	 2.084097	 -0.964440	 -0.562851	 -0.012281	 0.799856	 -0.508789	 0.318140	 2
1463629482.167	 18	 -0.393244	 0.084052	 0.990326	 2.084190	 -0.953775	 -0.564391	 -0.008758	 0.801256	 -0.505456	 0.320041	 2
1463629482.177	 18	 -0.249100	 -0.050152	 1.169001	 2.079740	 -0.942667	 -0.569570	 -0.004794	 0.801960	 -0.502538	 0.322943	 2
1463629482.187	 18	 -0.215417	 -0.103994	 1.384557	 2.072562	 -0.929963	 -0.577293	 -0.000035	 0.802358	 -0.499512	 0.326664	 2
1463629482.197	 18	 -0.300088	 -0.033928	 1.478667	 2.065866	 -0.915774	 -0.584915	 0.005244	 0.802920	 -0.496003	 0.330565	 2
1463629482.207	 18	 -0.390261	 0.399481	 1.367317	 2.064342	 -0.901626	 -0.590369	 0.010950	 0.804253	 -0.492151	 0.332934	 2
1463629482.217	 18	 -0.309145	 1.040054	 1.145565	 2.069605	 -0.889370	 -0.594735	 0.017369	 0.806452	 -0.488698	 0.332428	 2
1463629482.227	 18	 -0.084738	 1.599710	 0.823761	 2.080612	 -0.880709	 -0.599645	 0.024406	 0.809161	 -0.486451	 0.328678	 2
1463629482.237	 18	 0.179655	 1.835717	 0.475151	 2.094029	 -0.876389	 -0.605518	 0.031221	 0.811730	 -0.485744	 0.322756	 2
1463629482.247	 18	 0.431485	 1.859365	 0.171567	 2.107336	 -0.876159	 -0.612438	 0.037330	 0.813761	 -0.486542	 0.315716	 2
1463629482.257	 18	 0.643929	 1.861166	 -0.080720	 2.119914	 -0.879382	 -0.620216	 0.042700	 0.815216	 -0.488611	 0.307992	 2
1463629482.267	 18	 0.823099	 1.814206	 -0.323579	 2.131869	 -0.885725	 -0.628479	 0.047309	 0.816148	 -0.491780	 0.299695	 2
1463629482.277	 18	 0.974194	 1.709791	 -0.580583	 2.142875	 -0.895107	 -0.636669	 0.050883	 0.816523	 -0.495944	 0.291101	 2
1463629482.287	 18	 1.089651	 1.553046	 -0.881461	 2.153125	 -0.907644	 -0.643931	 0.053094	 0.816372	 -0.501018	 0.282311	 2
1463629482.297	 18	 1.181179	 1.293264	 -1.173496	 2.162189	 -0.923244	 -0.649742	 0.053649	 0.815646	 -0.506914	 0.273644	 2
1463629482.307	 18	 1.318992	 0.920354	 -1.500027	 2.168736	 -0.942136	 -0.654256	 0.052210	 0.814123	 -0.513771	 0.265552	 2
1463629482.317	 18	 1.486430	 0.536347	 -1.878075	 2.172446	 -0.965020	 -0.657448	 0.048481	 0.811659	 -0.521818	 0.258002	 2
1463629482.327	 18	 1.600205	 0.197117	 -2.116690	 2.173293	 -0.991034	 -0.659758	 0.042831	 0.808327	 -0.530788	 0.251073	 2
1463629482.337	 18	 1.394004	 -0.119943	 -2.067754	 2.172517	 -1.016697	 -0.660212	 0.036081	 0.804750	 -0.539346	 0.245319	 2
1463629482.347	 18	 0.763362	 -0.375295	 -1.748108	 2.173645	 -1.037184	 -0.655098	 0.028964	 0.802098	 -0.545422	 0.241485	 2
1463629482.357	 18	 -0.261177	 0.277365	 -1.190641	 2.186697	 -1.048420	 -0.640147	 0.023607	 0.802222	 -0.547143	 0.237733	 2
1463629482.367	 18	 -1.090294	 0.918974	 -0.318447	 2.213710	 -1.047180	 -0.618519	 0.022597	 0.805839	 -0.543874	 0.233054	 2
1463629482.377	 18	 -0.900605	 0.859594	 0.222888	 2.235642	 -1.040171	 -0.603965	 0.024413	 0.809637	 -0.539567	 0.229696	 2
1463629482.387	 18	 -0.112049	 0.155187	 0.500420	 2.238668	 -1.034775	 -0.604430	 0.026752	 0.810822	 -0.537743	 0.229529	 2
1463629482.397	 18	 0.434704	 -0.350515	 0.654015	 2.225373	 -1.031811	 -0.616983	 0.028998	 0.809570	 -0.538370	 0.232193	 2
1463629482.407	 18	 0.581150	 -0.699196	 0.591945	 2.205556	 -1.030271	 -0.633035	 0.030533	 0.807241	 -0.540027	 0.236221	 2
1463629482.417	 18	 0.470961	 -1.064931	 0.421110	 2.184370	 -1.029473	 -0.646281	 0.030347	 0.804626	 -0.541665	 0.241359	 2
1463629482.427	 18	 0.322972	 -1.156491	 0.349075	 2.164580	 -1.028580	 -0.655913	 0.029084	 0.802194	 -0.542842	 0.246904	 2
1463629482.437	 18	 0.200017	 -1.023855	 0.402536	 2.147285	 -1.026644	 -0.663721	 0.028028	 0.800192	 -0.543433	 0.252165	 2
1463629482.447	 18	 0.153965	 -0.928229	 0.516798	 2.131325	 -1.023407	 -0.671315	 0.027594	 0.798490	 -0.543578	 0.257246	 2
1463629482.457	 18	 0.261987	 -0.812290	 0.707708	 2.114155	 -1.018989	 -0.681512	 0.028193	 0.796694	 -0.543730	 0.262377	 2
1463629482.467	 18	 0.462287	 -0.575500	 0.880821	 2.095028	 -1.013902	 -0.696526	 0.030363	 0.794582	 -0.544388	 0.267131	 2
1463629482.477	 18	 0.437505	 -0.391664	 1.140661	 2.076041	 -1.006884	 -0.713814	 0.034011	 0.792589	 -0.544828	 0.271676	 2
1463629482.487	 18	 0.156506	 -0.537139	 1.499851	 2.057363	 -0.995630	 -0.730408	 0.038680	 0.791002	 -0.543967	 0.277345	 2
1463629482.497	 18	 -0.415024	 -0.826361	 1.426466	 2.042778	 -0.981218	 -0.738590	 0.042081	 0.790332	 -0.540987	 0.284495	 2
1463629482.507	 18	 -0.709995	 -0.874446	 0.837089	 2.036531	 -0.969224	 -0.735931	 0.042796	 0.790724	 -0.537056	 0.290680	 2
1463629482.517	 18	 -0.323710	 -1.446309	 0.163369	 2.027726	 -0.964381	 -0.731085	 0.039919	 0.790019	 -0.535038	 0.296665	 2
1463629482.527	 18	 0.311466	 -0.993470	 -0.055363	 2.013030	 -0.965384	 -0.733803	 0.036764	 0.787670	 -0.536033	 0.301483	 2
1463629482.537	 18	 -0.201446	 0.903531	 -0.328461	 2.018761	 -0.967492	 -0.731984	 0.036971	 0.788356	 -0.536298	 0.299186	 2
1463629482.547	 18	 -0.768335	 1.509895	 -0.835844	 2.046987	 -0.970892	 -0.715839	 0.037166	 0.792474	 -0.534439	 0.291510	 2
1463629482.557	 18	 -1.107823	 0.421338	 -1.186193	 2.075471	 -0.975877	 -0.690598	 0.033324	 0.796481	 -0.531862	 0.285710	 2
1463629482.567	 18	 -1.325376	 -1.311026	 -1.238786	 2.092574	 -0.980296	 -0.659450	 0.024210	 0.798855	 -0.528579	 0.286094	 2
1463629482.577	 18	 -0.959658	 -2.779507	 -1.187426	 2.091287	 -0.985287	 -0.631655	 0.011404	 0.798299	 -0.526186	 0.292774	 2
1463629482.587	 18	 -0.185969	 -3.744909	 -1.118951	 2.069543	 -0.993257	 -0.615311	 -0.003015	 0.794081	 -0.526380	 0.303892	 2
1463629482.597	 18	 0.682050	 -3.901541	 -1.100256	 2.031702	 -1.005158	 -0.613602	 -0.017002	 0.786700	 -0.529734	 0.316538	 2
1463629482.607	 18	 1.464185	 -3.081162	 -1.030176	 1.983784	 -1.022791	 -0.629702	 -0.028536	 0.777003	 -0.537266	 0.326798	 2
1463629482.617	 18	 2.208208	 -1.831255	 -0.853436	 1.936809	 -1.038787	 -0.659477	 -0.034474	 0.767845	 -0.546225	 0.332962	 2
1463629482.627	 18	 2.827757	 -0.744612	 -0.653684	 1.887011	 -1.054402	 -0.705405	 -0.035430	 0.758627	 -0.557483	 0.335324	 2
1463629482.637	 18	 3.041020	 0.146753	 -0.412778	 1.837118	 -1.067652	 -0.761921	 -0.032324	 0.749938	 -0.569669	 0.334702	 2
1463629482.647	 18	 2.701865	 0.590662	 -0.350275	 1.793579	 -1.077811	 -0.817393	 -0.027416	 0.742651	 -0.580831	 0.332195	 2
1463629482.657	 18	 2.000122	 0.188074	 -0.562130	 1.758568	 -1.087140	 -0.860923	 -0.024625	 0.736747	 -0.589795	 0.329756	 2
1463629482.667	 18	 1.223002	 -0.880390	 -0.958572	 1.728631	 -1.097961	 -0.888009	 -0.027167	 0.731473	 -0.596313	 0.329576	 2
1463629482.687	 18	 0.420965	 -2.628921	 -1.716025	 1.669996	 -1.128840	 -0.906448	 -0.048539	 0.720294	 -0.604808	 0.336196	 2
1463629482.697	 19	 0.538017	 -2.802640	 -1.863604	 1.634680	 -1.147557	 -0.914683	 -0.062732	 0.713565	 -0.608923	 0.340738	 2
1463629482.707	 19	 0.836509	 -2.610230	 -1.903846	 1.592532	 -1.166831	 -0.931426	 -0.076369	 0.706002	 -0.613920	 0.344718	 2
1463629482.717	 19	 1.168520	 -2.177927	 -1.850491	 1.543354	 -1.185490	 -0.959837	 -0.088127	 0.697909	 -0.620026	 0.347454	 2
1463629482.727	 19	 1.434899	 -1.697012	 -1.720444	 1.488048	 -1.202250	 -0.999794	 -0.097475	 0.689645	 -0.627011	 0.348921	 2
1463629482.737	 19	 1.551372	 -1.313585	 -1.600657	 1.428910	 -1.216700	 -1.048052	 -0.104787	 0.681545	 -0.634399	 0.349363	 2
1463629482.747	 19	 1.472418	 -1.144776	 -1.528058	 1.369037	 -1.229342	 -1.099282	 -0.111126	 0.673869	 -0.641560	 0.349218	 2
1463629482.757	 19	 1.261826	 -1.253426	 -1.488868	 1.310374	 -1.240868	 -1.148605	 -0.117729	 0.666656	 -0.647892	 0.349208	 2
1463629482.767	 19	 1.014139	 -1.491034	 -1.500646	 1.252674	 -1.252160	 -1.194383	 -0.125470	 0.659745	 -0.653207	 0.349733	 2
1463629482.777	 19	 0.813514	 -1.703278	 -1.515795	 1.195363	 -1.263469	 -1.237258	 -0.134345	 0.653062	 -0.657596	 0.350757	 2
1463629482.787	 19	 0.728378	 -1.870091	 -1.526197	 1.135862	 -1.274548	 -1.280414	 -0.144022	 0.646339	 -0.661411	 0.352191	 2
1463629482.797	 19	 0.716915	 -2.017015	 -1.550912	 1.071434	 -1.285101	 -1.326973	 -0.154290	 0.639309	 -0.664963	 0.353980	 2
1463629482.807	 19	 0.714257	 -2.090718	 -1.595271	 1.001304	 -1.295086	 -1.378331	 -0.164980	 0.631971	 -0.668390	 0.355877	 2
1463629482.817	 19	 0.676855	 -2.081211	 -1.619369	 0.926912	 -1.304433	 -1.433883	 -0.175817	 0.624565	 -0.671659	 0.357606	 2
1463629482.827	 19	 0.574746	 -2.019134	 -1.607245	 0.851145	 -1.313142	 -1.491221	 -0.186599	 0.617418	 -0.674576	 0.359059	 2
1463629482.837	 19	 0.424089	 -1.863138	 -1.570377	 0.777190	 -1.321465	 -1.547895	 -0.197072	 0.610908	 -0.677006	 0.360024	 2
1463629482.847	 19	 0.319706	 -1.627489	 -1.531039	 0.705831	 -1.329364	 -1.604067	 -0.206860	 0.605165	 -0.679106	 0.360275	 2
1463629482.857	 19	 0.323774	 -1.455100	 -1.517747	 0.633744	 -1.336306	 -1.662890	 -0.215936	 0.599797	 -0.681216	 0.359944	 2
1463629482.867	 19	 0.390358	 -1.342758	 -1.546057	 0.557282	 -1.341862	 -1.727400	 -0.224525	 0.594379	 -0.683583	 0.359188	 2
1463629482.877	 19	 0.456624	 -1.312187	 -1.557007	 0.476163	 -1.345723	 -1.797161	 -0.232839	 0.588736	 -0.686171	 0.358253	 2
1463629482.887	 19	 0.492938	 -1.342818	 -1.512846	 0.392982	 -1.347750	 -1.868805	 -0.241027	 0.582869	 -0.688753	 0.357477	 2
1463629482.907	 19	 0.531339	 -1.365278	 -1.221371	 0.238932	 -1.346267	 -1.998728	 -0.256395	 0.571052	 -0.693152	 0.357354	 2
1463629482.917	 19	 0.531481	 -1.307194	 -0.985298	 0.176307	 -1.343226	 -2.049380	 -0.263024	 0.565475	 -0.694815	 0.358175	 2
1463629482.897	 19	 0.513553	 -1.371788	 -1.392864	 0.312534	 -1.347918	 -1.937287	 -0.248969	 0.576931	 -0.691099	 0.357138	 2
1463629482.927	 19	 0.550503	 -1.145542	 -0.687672	 0.128501	 -1.339012	 -2.086225	 -0.268350	 0.560427	 -0.696134	 0.359594	 2
1463629482.937	 19	 0.493135	 -0.937511	 -0.331403	 0.098353	 -1.334365	 -2.107005	 -0.272069	 0.556262	 -0.697002	 0.361580	 2
1463629482.947	 19	 0.300855	 -0.648875	 0.085407	 0.088929	 -1.330872	 -2.109234	 -0.274014	 0.553689	 -0.697025	 0.364007	 2
1463629482.957	 19	 0.093375	 -0.412337	 0.498667	 0.099742	 -1.329064	 -2.093346	 -0.274267	 0.552883	 -0.696071	 0.366855	 2
1463629482.967	 19	 -0.096968	 -0.362211	 0.880202	 0.127968	 -1.328684	 -2.060513	 -0.273458	 0.553465	 -0.693980	 0.370525	 2
1463629482.977	 19	 -0.223920	 -0.398843	 1.203893	 0.170437	 -1.328940	 -2.012776	 -0.272041	 0.554956	 -0.690808	 0.375236	 2
1463629482.987	 19	 -0.297559	 -0.420952	 1.498479	 0.225167	 -1.328912	 -1.952087	 -0.270056	 0.557070	 -0.686758	 0.380928	 2
1463629482.997	 19	 -0.335664	 -0.330812	 1.739446	 0.290762	 -1.327779	 -1.880783	 -0.267224	 0.559755	 -0.682124	 0.387263	 2
1463629483.007	 19	 -0.409916	 -0.145412	 1.901682	 0.364801	 -1.325427	 -1.802460	 -0.263402	 0.563165	 -0.677131	 0.393649	 2
1463629483.017	 19	 -0.566165	 0.070070	 2.072372	 0.446569	 -1.322231	 -1.718314	 -0.258674	 0.567577	 -0.671690	 0.399720	 2
1463629483.027	 19	 -0.790600	 0.435523	 2.362285	 0.542441	 -1.317819	 -1.622729	 -0.252513	 0.573635	 -0.665382	 0.405520	 2
1463629483.037	 19	 -1.000272	 0.921878	 2.463489	 0.648365	 -1.311935	 -1.521608	 -0.244700	 0.581468	 -0.658657	 0.410108	 2
1463629483.047	 19	 -1.135219	 1.253219	 2.485865	 0.757255	 -1.304353	 -1.421015	 -0.235868	 0.590502	 -0.651706	 0.413465	 2
1463629483.057	 19	 -1.104911	 1.570082	 2.485353	 0.862893	 -1.294067	 -1.326806	 -0.225971	 0.600092	 -0.644931	 0.415801	 2
1463629483.067	 19	 -0.994133	 1.962365	 2.504025	 0.961583	 -1.280568	 -1.243377	 -0.214584	 0.609981	 -0.638700	 0.417061	 2
1463629483.077	 19	 -0.954271	 2.386496	 2.632319	 1.055712	 -1.263750	 -1.168841	 -0.201341	 0.620498	 -0.632724	 0.417258	 2
1463629483.087	 19	 -0.793646	 2.523937	 2.876259	 1.142766	 -1.242624	 -1.103649	 -0.186436	 0.631149	 -0.626631	 0.417405	 2
1463629483.097	 19	 -0.362439	 2.444599	 3.256506	 1.213928	 -1.215327	 -1.054340	 -0.169718	 0.640629	 -0.620699	 0.418956	 2
1463629483.107	 19	 0.209150	 2.383836	 3.761464	 1.266450	 -1.180818	 -1.023707	 -0.150485	 0.648376	 -0.615200	 0.422482	 2
1463629483.117	 19	 0.702516	 2.239415	 4.285509	 1.303057	 -1.139244	 -1.008615	 -0.128704	 0.654299	 -0.609882	 0.428220	 2
1463629483.127	 19	 0.803690	 2.305887	 4.692367	 1.333237	 -1.092678	 -1.000308	 -0.104953	 0.659428	 -0.603941	 0.435194	 2
1463629483.137	 19	 0.602309	 2.211088	 4.885076	 1.363611	 -1.043913	 -0.991480	 -0.080654	 0.664662	 -0.596535	 0.442566	 2
1463629483.147	 19	 0.334966	 1.687130	 4.832437	 1.390727	 -0.995414	 -0.981215	 -0.058093	 0.669251	 -0.587662	 0.450979	 2
1463629483.157	 19	 -0.040049	 0.981605	 4.485961	 1.412731	 -0.950081	 -0.968681	 -0.039157	 0.672823	 -0.577717	 0.460455	 2
1463629483.167	 19	 -0.431644	 0.279308	 3.991520	 1.429848	 -0.909788	 -0.952657	 -0.024833	 0.675471	 -0.567006	 0.470772	 2
1463629483.177	 19	 -0.571388	 -0.031626	 3.299229	 1.442665	 -0.876068	 -0.936607	 -0.014283	 0.677418	 -0.556898	 0.480381	 2
1463629483.187	 19	 -0.604434	 0.011059	 2.719074	 1.453453	 -0.848560	 -0.922052	 -0.006164	 0.679165	 -0.547959	 0.488301	 2
1463629483.197	 19	 -0.524379	 0.385030	 2.547071	 1.465500	 -0.823801	 -0.909620	 0.001928	 0.681389	 -0.539809	 0.494279	 2
1463629483.207	 19	 -0.387753	 1.039009	 2.582875	 1.481503	 -0.798549	 -0.899800	 0.012054	 0.684649	 -0.531918	 0.498170	 2
1463629483.217	 19	 -0.146037	 1.716972	 2.448529	 1.501092	 -0.773872	 -0.893987	 0.024169	 0.688847	 -0.524828	 0.499461	 2
1463629483.227	 19	 0.216320	 2.158638	 2.338645	 1.521925	 -0.750271	 -0.893679	 0.037989	 0.693318	 -0.519033	 0.498470	 2
1463629483.237	 19	 0.590667	 2.384727	 2.279938	 1.541630	 -0.727171	 -0.899262	 0.053271	 0.697330	 -0.514545	 0.496121	 2
1463629483.247	 19	 0.865987	 2.457718	 2.189762	 1.559482	 -0.704837	 -0.909311	 0.069276	 0.700637	 -0.511120	 0.493017	 2
1463629483.257	 19	 1.011116	 2.396293	 1.991827	 1.575571	 -0.684329	 -0.922001	 0.085047	 0.703290	 -0.508602	 0.489361	 2
1463629483.267	 19	 1.081684	 2.107743	 1.830794	 1.588826	 -0.665907	 -0.935971	 0.099765	 0.705078	 -0.506831	 0.485833	 2
1463629483.277	 19	 1.057275	 1.631944	 1.624084	 1.597823	 -0.649241	 -0.949966	 0.112764	 0.705724	 -0.505574	 0.483355	 2
1463629483.287	 19	 0.965653	 1.128076	 1.186428	 1.602663	 -0.636443	 -0.962798	 0.122937	 0.705477	 -0.505166	 0.481659	 2
1463629483.297	 19	 0.810919	 0.548198	 0.801902	 1.603036	 -0.627787	 -0.973766	 0.129880	 0.704397	 -0.505602	 0.480960	 2
1463629483.307	 19	 0.607182	 -0.088322	 0.506800	 1.598798	 -0.622219	 -0.982043	 0.133636	 0.702508	 -0.506475	 0.481776	 2
1463629483.317	 19	 0.594356	 -0.388508	 0.320808	 1.591359	 -0.618775	 -0.989288	 0.135477	 0.700015	 -0.507863	 0.483426	 2
1463629483.327	 19	 0.701123	 -0.584693	 0.297803	 1.581136	 -0.615992	 -0.997640	 0.136753	 0.696791	 -0.509893	 0.485582	 2
1463629483.337	 19	 0.802881	 -0.789762	 0.367480	 1.568240	 -0.612566	 -1.007161	 0.137953	 0.692765	 -0.512259	 0.488505	 2
1463629483.347	 19	 0.948093	 -0.855426	 0.464721	 1.553406	 -0.608005	 -1.018204	 0.139541	 0.688035	 -0.514892	 0.491958	 2
1463629483.357	 19	 1.065793	 -0.791934	 0.467484	 1.538182	 -0.603039	 -1.030743	 0.141641	 0.683015	 -0.517874	 0.495212	 2
1463629483.367	 19	 0.988270	 -0.999464	 0.272259	 1.522132	 -0.599248	 -1.042920	 0.142941	 0.677852	 -0.521153	 0.498482	 2
1463629483.377	 19	 0.830856	 -1.412831	 -0.178902	 1.502888	 -0.599358	 -1.053434	 0.141418	 0.672300	 -0.525176	 0.502199	 2
1463629483.387	 19	 0.706151	 -1.835408	 -0.713564	 1.480206	 -0.604662	 -1.062990	 0.136755	 0.666397	 -0.530354	 0.505903	 2
1463629483.397	 19	 0.438320	 -2.106290	 -0.921577	 1.455420	 -0.613039	 -1.070421	 0.129631	 0.660392	 -0.535723	 0.509980	 2
1463629483.407	 19	 0.109469	 -2.250971	 -1.058609	 1.431254	 -0.622736	 -1.074139	 0.120874	 0.654904	 -0.540247	 0.514416	 2
1463629483.417	 19	 0.015634	 -2.399954	 -1.400222	 1.405849	 -0.635722	 -1.076970	 0.110209	 0.649455	 -0.545118	 0.518563	 2
1463629483.427	 19	 0.020753	 -2.394036	 -1.462026	 1.379734	 -0.650140	 -1.080398	 0.098914	 0.643922	 -0.550243	 0.522315	 2
1463629483.437	 19	 0.107049	 -2.368360	 -1.260043	 1.353386	 -0.663081	 -1.084891	 0.088324	 0.638124	 -0.555134	 0.526140	 2
1463629483.447	 19	 0.190863	 -2.499545	 -0.689679	 1.325968	 -0.670890	 -1.089364	 0.079221	 0.631503	 -0.558908	 0.531554	 2
1463629483.457	 19	 0.373882	 -2.614224	 -0.149867	 1.297062	 -0.672773	 -1.094292	 0.071969	 0.623786	 -0.561655	 0.538753	 2
1463629483.477	 20	 0.865753	 -3.055902	 0.889385	 1.231536	 -0.659088	 -1.107086	 0.062577	 0.603772	 -0.565057	 0.558797	 2
1463629483.487	 20	 0.800329	 -3.144170	 1.450790	 1.197801	 -0.643941	 -1.111159	 0.060003	 0.592187	 -0.564809	 0.571581	 2
1463629483.497	 20	 0.527773	 -3.196163	 1.943995	 1.166834	 -0.624749	 -1.109562	 0.058121	 0.580700	 -0.562253	 0.585902	 2
1463629483.507	 20	 -0.022846	 -3.064064	 2.336890	 1.141310	 -0.603655	 -1.099910	 0.056288	 0.570461	 -0.556851	 0.601101	 2
1463629483.517	 20	 -0.760878	 -2.844035	 2.459400	 1.122855	 -0.583931	 -1.081100	 0.053467	 0.562555	 -0.548572	 0.616232	 2
1463629483.527	 20	 -1.279600	 -2.954435	 2.572663	 1.108027	 -0.566609	 -1.055290	 0.048947	 0.556123	 -0.538178	 0.631423	 2
1463629483.537	 20	 -1.560363	 -3.097203	 2.718723	 1.093214	 -0.549220	 -1.025117	 0.043469	 0.549629	 -0.526094	 0.647490	 2
1463629483.547	 20	 -1.741729	 -2.839280	 2.425354	 1.079986	 -0.534866	 -0.993823	 0.037136	 0.543935	 -0.513778	 0.662411	 2
1463629483.557	 20	 -1.691259	 -2.249568	 2.071240	 1.070845	 -0.524162	 -0.964443	 0.031105	 0.539927	 -0.502344	 0.674657	 2
1463629483.567	 20	 -1.379916	 -1.778898	 1.980188	 1.064813	 -0.513858	 -0.938575	 0.026761	 0.536886	 -0.491908	 0.684883	 2
1463629483.577	 20	 -0.923677	 -1.297659	 2.085138	 1.061172	 -0.501007	 -0.916759	 0.025193	 0.534246	 -0.482238	 0.693825	 2
1463629483.587	 20	 -0.490955	 -0.731181	 2.347754	 1.061168	 -0.484094	 -0.898293	 0.027083	 0.532323	 -0.472845	 0.701652	 2
1463629483.597	 20	 -0.155047	 -0.212383	 2.742923	 1.065459	 -0.462157	 -0.881593	 0.032504	 0.531305	 -0.462967	 0.708745	 2
1463629483.607	 20	 0.060149	 0.016732	 3.183341	 1.072348	 -0.435174	 -0.865343	 0.040669	 0.530653	 -0.452075	 0.715808	 2
1463629483.617	 20	 0.166677	 -0.201321	 3.664241	 1.078119	 -0.403297	 -0.848309	 0.050328	 0.529100	 -0.439734	 0.723985	 2
1463629483.627	 20	 0.212727	 -0.922094	 4.024821	 1.077828	 -0.367576	 -0.830108	 0.059924	 0.524970	 -0.426086	 0.734348	 2
1463629483.637	 20	 0.279362	 -1.995107	 4.075004	 1.066965	 -0.330413	 -0.811791	 0.067959	 0.516766	 -0.412183	 0.747289	 2
1463629483.647	 20	 0.327259	 -3.118537	 3.765720	 1.043797	 -0.295240	 -0.794728	 0.073257	 0.504027	 -0.399435	 0.762261	 2
1463629483.657	 20	 0.359928	 -3.977939	 3.338594	 1.010165	 -0.264003	 -0.779365	 0.075676	 0.487467	 -0.388480	 0.778288	 2
1463629483.667	 20	 0.412316	 -4.433998	 3.098360	 0.970259	 -0.235493	 -0.764997	 0.076435	 0.468416	 -0.378709	 0.794559	 2
1463629483.687	 21	 0.568906	 -3.941468	 2.439742	 0.890161	 -0.185769	 -0.739712	 0.076904	 0.429949	 -0.362090	 0.823481	 2
1463629483.697	 21	 0.674373	 -3.229612	 2.084154	 0.857598	 -0.165020	 -0.730688	 0.078032	 0.413796	 -0.355825	 0.834310	 2
1463629483.707	 21	 0.742488	 -2.494623	 1.969969	 0.832090	 -0.145381	 -0.722873	 0.080397	 0.400527	 -0.350054	 0.842957	 2
1463629483.717	 21	 0.795953	 -1.910910	 2.109221	 0.812710	 -0.124924	 -0.714468	 0.084230	 0.389638	 -0.343697	 0.850270	 2
1463629483.727	 21	 0.866773	 -1.482633	 2.235153	 0.798017	 -0.103118	 -0.705177	 0.089417	 0.380519	 -0.336569	 0.856698	 2
1463629483.737	 21	 0.984143	 -1.250139	 2.222439	 0.785848	 -0.080547	 -0.696224	 0.095544	 0.372321	 -0.329364	 0.862420	 2
1463629483.747	 21	 1.141510	 -1.102074	 2.170224	 0.775003	 -0.057377	 -0.688437	 0.102466	 0.364526	 -0.322515	 0.867528	 2
1463629483.757	 21	 1.326692	 -0.941312	 2.120017	 0.765484	 -0.033346	 -0.682015	 0.110308	 0.357084	 -0.316063	 0.872025	 2
1463629483.767	 21	 1.523076	 -0.842719	 2.008386	 0.756987	 -0.008591	 -0.677404	 0.119013	 0.349850	 -0.310241	 0.875895	 2
1463629483.777	 21	 1.660354	 -0.863859	 1.935587	 0.748484	 0.016614	 -0.674369	 0.128233	 0.342412	 -0.305056	 0.879347	 2
1463629483.787	 21	 1.713481	 -0.959339	 1.990722	 0.739059	 0.042489	 -0.671421	 0.137662	 0.334412	 -0.299889	 0.882771	 2
1463629483.797	 21	 1.714390	 -1.117803	 2.139512	 0.728105	 0.069286	 -0.667314	 0.147122	 0.325626	 -0.294200	 0.886436	 2
1463629483.807	 21	 1.697997	 -1.324081	 2.288007	 0.714906	 0.096952	 -0.661632	 0.156449	 0.315784	 -0.287891	 0.890462	 2
1463629483.817	 21	 1.635444	 -1.553916	 2.396187	 0.699127	 0.124928	 -0.654300	 0.165380	 0.304844	 -0.281077	 0.894827	 2
1463629483.827	 21	 1.558764	 -1.771517	 2.425737	 0.680763	 0.152524	 -0.645573	 0.173700	 0.292904	 -0.274020	 0.899416	 2
1463629483.837	 21	 1.497335	 -2.060133	 2.348983	 0.659437	 0.179113	 -0.636227	 0.181237	 0.279833	 -0.267237	 0.904119	 2
1463629483.847	 21	 1.412997	 -2.508816	 2.337016	 0.633691	 0.204570	 -0.626201	 0.187773	 0.264989	 -0.260881	 0.909100	 2
1463629483.857	 21	 1.316092	 -2.967572	 2.397536	 0.602395	 0.229323	 -0.614196	 0.193239	 0.247899	 -0.254436	 0.914586	 2
1463629483.867	 21	 1.274262	 -3.131265	 2.254032	 0.560274	 0.163933	 -0.600035	 0.156606	 0.239996	 -0.261436	 0.921698	 2
1463629483.887	 21	 1.373193	 -2.834589	 1.551463	 0.497258	 0.205044	 -0.581372	 0.165191	 0.206083	 -0.252210	 0.930930	 2
1463629483.897	 22	 1.550237	 -2.583275	 1.225071	 0.469806	 0.224387	 -0.576717	 0.170161	 0.190772	 -0.249848	 0.933931	 2
1463629483.907	 22	 1.752482	 -2.324516	 1.055196	 0.445386	 0.244446	 -0.574455	 0.176138	 0.176543	 -0.248414	 0.936001	 2
1463629483.917	 22	 1.925552	 -2.085482	 1.086820	 0.423486	 0.266046	 -0.572618	 0.183219	 0.163208	 -0.246927	 0.937455	 2
1463629483.927	 22	 2.063579	 -1.872371	 1.194257	 0.403538	 0.289322	 -0.569992	 0.191291	 0.150602	 -0.244849	 0.938496	 2
1463629483.947	 23	 2.271091	 -1.421125	 1.316014	 0.369248	 0.339768	 -0.562392	 0.209877	 0.127708	 -0.239044	 0.939415	 2
1463629483.957	 23	 2.335308	 -1.172284	 1.335889	 0.355340	 0.366176	 -0.557880	 0.220123	 0.117725	 -0.235539	 0.939259	 2
1463629483.967	 23	 2.381136	 -0.957581	 1.334290	 0.343506	 0.393031	 -0.553099	 0.230837	 0.108724	 -0.231740	 0.938717	 2
1463629483.977	 23	 2.383758	 -0.814348	 1.286575	 0.333186	 0.419857	 -0.548354	 0.241741	 0.100484	 -0.227879	 0.937836	 2
1463629483.987	 23	 2.314165	 -0.779758	 1.188387	 0.323524	 0.445892	 -0.543978	 0.252392	 0.092674	 -0.224277	 0.936702	 2
1463629483.997	 23	 2.170549	 -0.800489	 1.058356	 0.313906	 0.470314	 -0.540143	 0.262345	 0.085098	 -0.221169	 0.935424	 2
1463629484.007	 23	 1.968020	 -0.872062	 0.933693	 0.303798	 0.492488	 -0.536717	 0.271243	 0.077609	 -0.218625	 0.934135	 2
1463629484.027	 24	 1.473501	 -1.027271	 0.744718	 0.280992	 0.529083	 -0.530013	 0.285254	 0.062637	 -0.214977	 0.931929	 2
1463629484.037	 24	 1.195901	 -1.000343	 0.679176	 0.268931	 0.543155	 -0.526234	 0.290271	 0.055562	 -0.213573	 0.931151	 2
1463629484.047	 24	 0.931548	 -0.896730	 0.633417	 0.257470	 0.554431	 -0.521996	 0.294085	 0.049260	 -0.212194	 0.930624	 2
1463629484.057	 24	 0.733674	 -0.755832	 0.622596	 0.246977	 0.563511	 -0.517164	 0.297007	 0.043827	 -0.210647	 0.930319	 2
1463629484.067	 24	 0.628656	 -0.618349	 0.618395	 0.237637	 0.571301	 -0.511874	 0.299473	 0.039200	 -0.208867	 0.930136	 2
1463629484.077	 24	 0.608601	 -0.557783	 0.602081	 0.229059	 0.578634	 -0.506520	 0.301831	 0.035019	 -0.207011	 0.929956	 2
1463629484.087	 24	 0.602937	 -0.614250	 0.586684	 0.220213	 0.585857	 -0.501225	 0.304133	 0.030740	 -0.205257	 0.929746	 2
1463629484.097	 24	 0.556274	 -0.724133	 0.522123	 0.210537	 0.592599	 -0.496342	 0.306156	 0.026093	 -0.203887	 0.929526	 2
1463629484.107	 24	 0.438231	 -0.772427	 0.415059	 0.200581	 0.598124	 -0.492262	 0.307621	 0.021369	 -0.203059	 0.929344	 2
1463629484.117	 24	 0.283211	 -0.723977	 0.286837	 0.191458	 0.601927	 -0.489234	 0.308407	 0.017104	 -0.202749	 0.929239	 2
1463629484.127	 24	 0.097669	 -0.585031	 0.158656	 0.184109	 0.603722	 -0.487310	 0.308469	 0.013756	 -0.202846	 0.929253	 2
1463629484.137	 24	 -0.120320	 -0.367859	 0.097564	 0.179030	 0.603281	 -0.485883	 0.307743	 0.011672	 -0.202999	 0.929489	 2
1463629484.147	 24	 -0.340016	 -0.119325	 0.107118	 0.176188	 0.600652	 -0.484063	 0.306238	 0.010964	 -0.202791	 0.930040	 2
1463629484.157	 24	 -0.514854	 0.116489	 0.140676	 0.175336	 0.596205	 -0.481488	 0.304096	 0.011522	 -0.202060	 0.930895	 2
1463629484.167	 24	 -0.607776	 0.289386	 0.184658	 0.176003	 0.590696	 -0.478184	 0.301611	 0.013025	 -0.200835	 0.931948	 2
1463629484.177	 24	 -0.574314	 0.337430	 0.223182	 0.177240	 0.585258	 -0.474390	 0.299206	 0.014851	 -0.199289	 0.933027	 2
1463629484.187	 24	 -0.417925	 0.227479	 0.231454	 0.177836	 0.581106	 -0.470671	 0.297323	 0.016199	 -0.197775	 0.933928	 2
1463629484.197	 24	 -0.185324	 0.020212	 0.197659	 0.176960	 0.579049	 -0.467701	 0.296263	 0.016484	 -0.196670	 0.934493	 2
1463629484.207	 24	 0.061051	 -0.192547	 0.145575	 0.174516	 0.579332	 -0.465833	 0.296139	 0.015584	 -0.196139	 0.934660	 2
1463629484.217	 25	 0.241499	 -0.326210	 0.102115	 0.218261	 0.568388	 -0.490617	 0.295761	 0.033728	 -0.202104	 0.933028	 2
1463629484.237	 25	 0.218136	 -0.287972	 0.085623	 0.211305	 0.573885	 -0.490050	 0.297572	 0.029851	 -0.202410	 0.932518	 2
1463629484.247	 25	 0.055818	 -0.124417	 0.133320	 0.208964	 0.575123	 -0.488927	 0.297887	 0.028766	 -0.202132	 0.932512	 2
1463629484.257	 25	 -0.155164	 0.098048	 0.218225	 0.208009	 0.574547	 -0.486410	 0.297490	 0.028769	 -0.201148	 0.932851	 2
1463629484.267	 25	 -0.390593	 0.314437	 0.335259	 0.208272	 0.571935	 -0.482057	 0.296252	 0.029874	 -0.199292	 0.933608	 2
1463629484.277	 25	 -0.612306	 0.475666	 0.478305	 0.209162	 0.567375	 -0.475548	 0.294142	 0.031831	 -0.196493	 0.934804	 2
1463629484.287	 25	 -0.735184	 0.563098	 0.604882	 0.210099	 0.561606	 -0.467130	 0.291434	 0.034227	 -0.192886	 0.936317	 2
1463629484.297	 25	 -0.740012	 0.604104	 0.684172	 0.211034	 0.555706	 -0.457599	 0.288629	 0.036777	 -0.188761	 0.937929	 2
1463629484.307	 25	 -0.659007	 0.549908	 0.723462	 0.211531	 0.550542	 -0.447695	 0.286097	 0.039060	 -0.184453	 0.939468	 2
1463629484.317	 25	 -0.546511	 0.411362	 0.730785	 0.210921	 0.546457	 -0.437910	 0.283952	 0.040654	 -0.180264	 0.940863	 2
1463629484.327	 25	 -0.450351	 0.231141	 0.704824	 0.208872	 0.543329	 -0.428603	 0.282125	 0.041371	 -0.176416	 0.942110	 2
1463629484.337	 25	 -0.408497	 0.071332	 0.684854	 0.205381	 0.540686	 -0.419750	 0.280407	 0.041273	 -0.172937	 0.943272	 2
1463629484.347	 25	 -0.408066	 -0.020509	 0.633905	 0.201057	 0.538005	 -0.411366	 0.278614	 0.040705	 -0.169787	 0.944399	 2
1463629484.357	 25	 -0.409692	 -0.051046	 0.529190	 0.196853	 0.535097	 -0.404075	 0.276754	 0.040051	 -0.167139	 0.945446	 2
1463629484.367	 25	 -0.399022	 -0.007846	 0.477277	 0.193377	 0.532082	 -0.397665	 0.274928	 0.039617	 -0.164805	 0.946406	 2
1463629484.377	 25	 -0.341872	 0.083746	 0.517065	 0.190642	 0.529497	 -0.391135	 0.273364	 0.039492	 -0.162271	 0.947302	 2
1463629484.387	 25	 -0.209738	 0.230463	 0.562042	 0.189096	 0.528111	 -0.384281	 0.272454	 0.039840	 -0.159332	 0.948048	 2
1463629484.397	 25	 -0.007579	 0.336164	 0.552739	 0.188995	 0.528557	 -0.377819	 0.272525	 0.040627	 -0.156251	 0.948507	 2
1463629484.417	 26	 0.394844	 0.329895	 0.584347	 0.189969	 0.535636	 -0.365861	 0.275677	 0.042013	 -0.149957	 0.948551	 2
1463629484.427	 26	 0.581125	 0.252567	 0.556427	 0.189946	 0.541950	 -0.360568	 0.278529	 0.042110	 -0.147016	 0.948174	 2
1463629484.437	 26	 0.613412	 0.365796	 0.490057	 0.190880	 0.548996	 -0.356064	 0.281809	 0.042493	 -0.144264	 0.947611	 2
1463629484.447	 26	 0.555494	 0.378092	 0.402217	 0.192908	 0.555391	 -0.352469	 0.284877	 0.043341	 -0.141831	 0.947022	 2
1463629484.457	 26	 0.465136	 0.266336	 0.355070	 0.194210	 0.560912	 -0.349378	 0.287489	 0.043866	 -0.139797	 0.946511	 2
1463629484.467	 26	 0.311978	 0.158221	 0.344740	 0.194374	 0.565049	 -0.346175	 0.289369	 0.044008	 -0.137969	 0.946200	 2
