% Gyrometer data recorded with 'snsrlog'
% 
% 
% Label description:
% 	 0: Default Label
% 	 1: still_drop
% 	 2: walk_drop
% 	 3: other
% 	 4: dtw_same
% 	 5: dtw_diff
% 	 6: delete
% 
% Column description:
% 	 1: Seconds.milliseconds since 1970
% 	 2: Number of skipped measurements
% 	 3: Gyro X
% 	 4: Gyro Y
% 	 5: Gyro Z
% 	 6: Roll of the device
% 	 7: Pitch of the device
% 	 8: Yaw of the device
% 	 9: Quaternion X
% 	 10: Quaternion Y
% 	 11: Quaternion Z
% 	 12: Quaternion W
% 	 13: Label used for the current sample
% 
% 
1462091952.046	 0	 -0.306168	 -0.564123	 1.561219	 0.115116	 0.390456	 0.021982	 0.193037	 0.058559	 0.021923	 0.979197	 2
1462091952.056	 0	 -0.474186	 -0.566768	 1.715061	 0.102349	 0.388057	 0.040579	 0.191503	 0.054089	 0.029742	 0.979549	 2
1462091952.066	 0	 -0.696739	 -0.498804	 1.757064	 0.089823	 0.383361	 0.060084	 0.188907	 0.049771	 0.038007	 0.979996	 2
1462091952.076	 0	 -0.898615	 -0.455308	 1.660111	 0.078206	 0.376297	 0.079005	 0.185235	 0.045754	 0.046072	 0.980547	 2
1462091952.086	 0	 -1.024844	 -0.539676	 1.415299	 0.067041	 0.367418	 0.095707	 0.180790	 0.041646	 0.053119	 0.981203	 2
1462091952.096	 0	 -1.076407	 -0.689536	 0.969931	 0.056105	 0.357434	 0.108096	 0.175947	 0.037161	 0.058119	 0.981980	 2
1462091952.106	 0	 -1.085434	 -0.587941	 0.456192	 0.047341	 0.346919	 0.114813	 0.170921	 0.033174	 0.060576	 0.982861	 2
1462091952.116	 0	 -1.122117	 -0.234418	 0.204018	 0.043103	 0.335916	 0.117966	 0.165588	 0.031062	 0.061702	 0.983773	 2
1462091952.126	 0	 -1.131248	 0.131152	 0.157408	 0.042607	 0.324707	 0.120193	 0.160050	 0.030690	 0.062694	 0.984638	 2
1462091952.136	 0	 -1.173360	 0.470639	 0.167329	 0.045861	 0.313243	 0.122463	 0.154263	 0.032148	 0.063998	 0.985431	 2
1462091952.146	 0	 -1.299522	 0.652837	 0.160531	 0.051283	 0.300690	 0.124831	 0.147857	 0.034640	 0.065484	 0.986230	 2
1462091952.156	 0	 -1.469382	 0.872170	 0.123551	 0.058763	 0.286529	 0.127039	 0.140580	 0.038076	 0.066985	 0.987067	 2
1462091952.166	 0	 -1.625926	 1.180967	 0.108604	 0.069178	 0.270745	 0.129237	 0.132385	 0.042904	 0.068602	 0.987890	 2
1462091952.176	 0	 -1.697741	 1.322791	 0.129733	 0.081528	 0.254016	 0.131810	 0.123625	 0.048672	 0.070424	 0.988630	 2
1462091952.186	 0	 -1.643101	 1.321966	 0.184669	 0.094005	 0.237577	 0.135049	 0.114961	 0.054535	 0.072479	 0.989220	 2
1462091952.196	 0	 -1.431828	 1.258031	 0.253641	 0.105885	 0.222933	 0.139000	 0.107160	 0.060176	 0.074788	 0.989597	 2
1462091952.206	 0	 -1.089695	 1.136040	 0.290026	 0.116689	 0.211517	 0.143238	 0.100962	 0.065378	 0.077177	 0.989735	 2
1462091952.216	 0	 -0.700113	 0.937999	 0.272002	 0.125788	 0.203930	 0.147061	 0.096719	 0.069820	 0.079318	 0.989686	 2
1462091952.226	 0	 -0.324471	 0.769405	 0.202151	 0.133309	 0.200107	 0.149846	 0.094425	 0.073546	 0.080948	 0.989506	 2
1462091952.236	 0	 -0.041456	 0.658417	 0.118722	 0.139778	 0.199270	 0.151401	 0.093688	 0.076791	 0.081996	 0.989243	 2
1462091952.246	 0	 0.100641	 0.745821	 0.055418	 0.146753	 0.200109	 0.151990	 0.093793	 0.080297	 0.082641	 0.988901	 2
1462091952.256	 0	 0.090248	 1.027735	 0.059197	 0.156163	 0.201181	 0.152354	 0.093918	 0.085002	 0.083298	 0.988441	 2
1462091952.266	 0	 -0.014421	 1.362873	 0.177264	 0.168670	 0.201552	 0.153757	 0.093515	 0.091259	 0.084591	 0.987811	 2
1462091952.276	 0	 -0.106970	 1.738734	 0.342497	 0.184467	 0.201207	 0.156940	 0.092516	 0.099195	 0.086884	 0.986941	 2
1462091952.286	 0	 -0.058091	 2.028907	 0.482255	 0.203190	 0.201276	 0.161637	 0.091477	 0.108647	 0.090064	 0.985757	 2
1462091952.296	 0	 0.204029	 2.186463	 0.461189	 0.223795	 0.203502	 0.166132	 0.091375	 0.119079	 0.093329	 0.984256	 2
1462091952.306	 0	 0.623684	 2.372349	 0.303664	 0.246533	 0.209287	 0.168364	 0.093011	 0.130565	 0.095786	 0.982409	 2
1462091952.316	 0	 1.091911	 2.679302	 0.140448	 0.272648	 0.219165	 0.167563	 0.096664	 0.143680	 0.097220	 0.980082	 2
1462091952.326	 0	 1.534107	 3.088740	 0.018911	 0.303298	 0.232983	 0.163857	 0.102230	 0.158944	 0.097849	 0.977093	 2
1462091952.336	 0	 1.842677	 3.244189	 -0.127273	 0.337134	 0.249615	 0.157316	 0.109259	 0.175593	 0.097681	 0.973493	 2
1462091952.346	 0	 1.957475	 3.646725	 -0.452782	 0.374984	 0.266507	 0.146793	 0.116632	 0.193818	 0.096105	 0.969327	 2
1462091952.356	 0	 1.897202	 4.159341	 -0.922817	 0.419472	 0.281149	 0.131461	 0.123205	 0.214704	 0.092719	 0.964430	 2
1462091952.366	 0	 1.699209	 4.716549	 -1.459447	 0.470928	 0.291291	 0.111134	 0.128089	 0.238306	 0.087240	 0.958745	 2
1462091952.386	 1	 1.202201	 5.965659	 -2.333408	 0.595761	 0.294164	 0.060013	 0.131325	 0.294398	 0.071364	 0.943923	 2
1462091952.396	 1	 1.172958	 6.541430	 -2.588907	 0.667927	 0.288643	 0.031487	 0.130752	 0.326481	 0.061856	 0.934071	 2
1462091952.406	 1	 1.328701	 7.109944	 -2.743772	 0.746043	 0.280777	 0.001353	 0.130061	 0.360933	 0.051618	 0.922034	 2
1462091952.416	 1	 1.623448	 7.689089	 -2.843262	 0.830238	 0.271640	 -0.030691	 0.130020	 0.397637	 0.040689	 0.907372	 2
1462091952.426	 1	 2.033102	 8.145999	 -2.885208	 0.919728	 0.261906	 -0.065104	 0.131273	 0.435985	 0.029008	 0.889856	 2
1462091952.436	 1	 2.513249	 8.400521	 -2.940308	 1.012728	 0.251453	 -0.102619	 0.134194	 0.474915	 0.016240	 0.869588	 2
1462091952.446	 1	 2.993102	 8.481747	 -3.132370	 1.107445	 0.238666	 -0.143928	 0.138540	 0.513485	 0.001719	 0.846839	 2
1462091952.456	 1	 3.421762	 8.433644	 -3.431766	 1.202284	 0.221371	 -0.189006	 0.143732	 0.551019	 -0.015148	 0.821882	 2
1462091952.466	 1	 3.798054	 8.187485	 -3.783706	 1.294845	 0.198072	 -0.236843	 0.149221	 0.586656	 -0.034559	 0.795219	 2
1462091952.476	 1	 4.072108	 7.703861	 -4.068756	 1.382181	 0.168317	 -0.285899	 0.154593	 0.619416	 -0.056356	 0.767625	 2
1462091952.486	 1	 4.198423	 7.075349	 -4.299514	 1.461790	 0.132531	 -0.333979	 0.159328	 0.648611	 -0.079901	 0.739956	 2
1462091952.496	 1	 4.238966	 6.362008	 -4.529250	 1.532368	 0.091022	 -0.379700	 0.162909	 0.674041	 -0.104858	 0.712836	 2
1462091952.506	 1	 4.244168	 5.576836	 -4.704992	 1.593013	 0.044697	 -0.422586	 0.165176	 0.695567	 -0.130984	 0.686839	 2
1462091952.516	 1	 4.180564	 4.877244	 -4.840971	 1.644229	 -0.005326	 -0.462203	 0.166034	 0.713523	 -0.157807	 0.662129	 2
1462091952.526	 1	 4.119989	 4.369075	 -4.979458	 1.687908	 -0.058504	 -0.498624	 0.165468	 0.728658	 -0.185070	 0.638300	 2
1462091952.536	 1	 4.111507	 4.028942	 -5.098717	 1.726029	 -0.114296	 -0.532556	 0.163785	 0.741603	 -0.212671	 0.614793	 2
1462091952.546	 1	 4.191136	 3.790876	 -5.187953	 1.759840	 -0.172353	 -0.565039	 0.161382	 0.752678	 -0.240684	 0.591188	 2
1462091952.556	 1	 4.364967	 3.561502	 -5.213982	 1.789581	 -0.232139	 -0.597398	 0.158763	 0.761843	 -0.269225	 0.567368	 2
1462091952.566	 1	 4.610043	 3.232329	 -5.186140	 1.814090	 -0.293131	 -0.630871	 0.156211	 0.768707	 -0.298436	 0.543713	 2
1462091952.576	 1	 4.864288	 2.773694	 -5.113755	 1.831756	 -0.354829	 -0.666386	 0.153736	 0.772873	 -0.328357	 0.520782	 2
1462091952.586	 1	 5.059143	 2.151576	 -5.022125	 1.840629	 -0.416701	 -0.704308	 0.150976	 0.774006	 -0.358861	 0.499339	 2
1462091952.596	 1	 5.124445	 1.410961	 -4.896365	 1.839299	 -0.477869	 -0.744421	 0.147424	 0.772043	 -0.389514	 0.480098	 2
1462091952.606	 1	 5.054972	 0.578434	 -4.739379	 1.826844	 -0.537175	 -0.786329	 0.142619	 0.767108	 -0.419744	 0.463703	 2
1462091952.616	 1	 4.868695	 -0.306297	 -4.641545	 1.802816	 -0.594340	 -0.829514	 0.135868	 0.759471	 -0.449242	 0.450473	 2
1462091952.626	 1	 4.589908	 -1.065724	 -4.608883	 1.768359	 -0.649376	 -0.873412	 0.126770	 0.749729	 -0.477682	 0.440063	 2
1462091952.636	 1	 4.284069	 -1.643490	 -4.616925	 1.725313	 -0.702452	 -0.918062	 0.115393	 0.738524	 -0.504874	 0.431705	 2
1462091952.646	 1	 3.979077	 -2.029911	 -4.639181	 1.675323	 -0.753598	 -0.963903	 0.102080	 0.726376	 -0.530691	 0.424646	 2
1462091952.656	 1	 3.671611	 -1.991270	 -4.715011	 1.621905	 -0.803522	 -1.011177	 0.087497	 0.714196	 -0.555057	 0.417349	 2
1462091952.666	 1	 3.394854	 -1.870191	 -4.410929	 1.566324	 -0.849446	 -1.060747	 0.073276	 0.702249	 -0.577426	 0.409947	 2
1462091952.676	 1	 3.113170	 -1.737981	 -3.747540	 1.509550	 -0.887727	 -1.111970	 0.060862	 0.690637	 -0.597095	 0.403477	 2
1462091952.686	 1	 2.915683	 -1.763336	 -2.924353	 1.451257	 -0.916074	 -1.163954	 0.050831	 0.679048	 -0.613950	 0.399219	 2
1462091952.696	 1	 2.820458	 -1.530981	 -2.456689	 1.392765	 -0.937253	 -1.217106	 0.042874	 0.667639	 -0.628998	 0.395957	 2
1462091952.706	 1	 2.675689	 -1.416350	 -1.961980	 1.335728	 -0.952083	 -1.269790	 0.036779	 0.656586	 -0.642393	 0.393539	 2
1462091952.716	 1	 2.427557	 -1.402201	 -1.578145	 1.281393	 -0.961684	 -1.319094	 0.031715	 0.646030	 -0.654024	 0.392290	 2
1462091952.726	 1	 2.108203	 -1.450437	 -1.318965	 1.230833	 -0.968011	 -1.363189	 0.026878	 0.636203	 -0.663965	 0.392013	 2
1462091952.736	 1	 1.700524	 -1.625381	 -1.114548	 1.184375	 -0.972482	 -1.400407	 0.021482	 0.627217	 -0.672149	 0.392878	 2
1462091952.746	 1	 1.200826	 -1.856386	 -0.904523	 1.142821	 -0.976034	 -1.428925	 0.015046	 0.619274	 -0.678351	 0.395111	 2
1462091952.756	 1	 0.640471	 -2.126972	 -0.603749	 1.107409	 -0.978857	 -1.446842	 0.007492	 0.612571	 -0.682240	 0.399062	 2
1462091952.766	 1	 0.010639	 -2.501950	 -0.206356	 1.078975	 -0.980825	 -1.452290	 -0.001270	 0.607156	 -0.683455	 0.405277	 2
1462091952.776	 1	 -0.625392	 -2.850179	 0.210523	 1.058281	 -0.982160	 -1.443870	 -0.011366	 0.603106	 -0.681710	 0.414011	 2
1462091952.786	 1	 -1.099861	 -3.103214	 0.619420	 1.044616	 -0.982604	 -1.423704	 -0.022238	 0.600143	 -0.677381	 0.424841	 2
1462091952.796	 1	 -1.399182	 -3.313286	 1.010141	 1.036154	 -0.981465	 -1.394663	 -0.033369	 0.597734	 -0.670963	 0.437503	 2
1462091952.806	 1	 -1.612218	 -3.494367	 1.326842	 1.031199	 -0.978684	 -1.359109	 -0.044598	 0.595511	 -0.662856	 0.451663	 2
1462091952.816	 1	 -1.724246	 -3.698568	 1.576371	 1.027910	 -0.974470	 -1.319119	 -0.055992	 0.593127	 -0.653404	 0.467043	 2
1462091952.826	 1	 -2.015494	 -4.082273	 1.787423	 1.025436	 -0.969536	 -1.274025	 -0.068281	 0.590441	 -0.642359	 0.483830	 2
1462091952.836	 1	 -2.698317	 -4.606878	 1.917444	 1.026053	 -0.966328	 -1.218999	 -0.083080	 0.588086	 -0.628633	 0.502069	 2
1462091952.846	 1	 -3.640475	 -5.039010	 1.934415	 1.033349	 -0.967308	 -1.150049	 -0.101449	 0.586889	 -0.611399	 0.521018	 2
1462091952.856	 1	 -4.108363	 -4.983999	 2.290703	 1.049642	 -0.968981	 -1.069071	 -0.120964	 0.586884	 -0.590956	 0.540099	 2
1462091952.866	 1	 -3.828781	 -4.345625	 2.871852	 1.073335	 -0.964447	 -0.985261	 -0.136933	 0.587605	 -0.569018	 0.558739	 2
1462091952.876	 1	 -3.150540	 -3.369000	 3.470795	 1.101090	 -0.950480	 -0.906991	 -0.146730	 0.588996	 -0.547173	 0.576330	 2
1462091952.886	 1	 -2.367585	 -2.179434	 3.849130	 1.130362	 -0.927896	 -0.839958	 -0.149765	 0.591416	 -0.526766	 0.591874	 2
1462091952.896	 1	 -1.752562	 -0.811868	 3.918315	 1.162076	 -0.899955	 -0.785260	 -0.146792	 0.595752	 -0.508564	 0.604066	 2
1462091952.906	 1	 -1.430754	 0.607809	 3.721966	 1.199223	 -0.870710	 -0.740612	 -0.139386	 0.602999	 -0.492761	 0.611679	 2
1462091952.926	 1	 -0.159030	 2.574001	 3.444631	 1.279120	 -0.809007	 -0.685309	 -0.113072	 0.622877	 -0.469067	 0.615804	 2
1462091952.916	 1	 -0.950164	 1.735741	 3.546032	 1.240173	 -0.840883	 -0.706073	 -0.128271	 0.612628	 -0.479432	 0.615124	 2
1462091952.936	 1	 0.573681	 3.475140	 3.336863	 1.316903	 -0.775518	 -0.677822	 -0.093727	 0.633671	 -0.461639	 0.613650	 2
1462091952.946	 1	 1.248161	 4.357426	 3.099404	 1.355301	 -0.742178	 -0.682197	 -0.070773	 0.645131	 -0.457128	 0.608137	 2
1462091952.956	 1	 1.349539	 5.255210	 2.567600	 1.398300	 -0.712797	 -0.693349	 -0.046233	 0.657978	 -0.454899	 0.598326	 2
1462091952.976	 2	 0.064692	 5.081662	 1.437872	 1.501285	 -0.675587	 -0.700775	 -0.006706	 0.687645	 -0.449145	 0.570410	 2
1462091952.986	 2	 -0.209354	 4.482481	 1.129874	 1.549209	 -0.663690	 -0.698059	 0.007345	 0.701031	 -0.445210	 0.557037	 2
1462091952.996	 2	 -0.274051	 3.988299	 1.011803	 1.592355	 -0.653414	 -0.694678	 0.019345	 0.712870	 -0.441159	 0.544812	 2
1462091953.006	 2	 -0.221486	 3.500755	 1.122976	 1.630022	 -0.642488	 -0.692259	 0.030545	 0.723022	 -0.436933	 0.534224	 2
1462091953.016	 2	 -0.151302	 3.058436	 1.317547	 1.662215	 -0.629721	 -0.691371	 0.041594	 0.731547	 -0.432395	 0.525494	 2
1462091953.026	 2	 -0.178014	 2.693770	 1.474250	 1.690091	 -0.615249	 -0.691234	 0.052429	 0.738814	 -0.427388	 0.518406	 2
1462091953.036	 2	 -0.318239	 2.272836	 1.599446	 1.714460	 -0.599308	 -0.690404	 0.062617	 0.745110	 -0.421623	 0.512956	 2
1462091953.046	 2	 -0.546960	 1.733318	 1.616666	 1.734683	 -0.582551	 -0.687675	 0.071362	 0.750353	 -0.415056	 0.509516	 2
1462091953.056	 2	 -0.882011	 1.104297	 1.568968	 1.750633	 -0.565599	 -0.681582	 0.077897	 0.754612	 -0.407569	 0.508311	 2
1462091953.066	 2	 -1.288327	 0.497002	 1.555131	 1.762511	 -0.548176	 -0.671334	 0.082072	 0.758008	 -0.398912	 0.509467	 2
1462091953.076	 2	 -1.786924	 -0.079474	 1.646830	 1.770990	 -0.529048	 -0.656016	 0.084097	 0.760765	 -0.388433	 0.513111	 2
1462091953.086	 2	 -2.115117	 -0.540195	 1.782883	 1.776023	 -0.507780	 -0.636923	 0.084617	 0.762809	 -0.376288	 0.519008	 2
1462091953.096	 2	 -2.068652	 -0.708887	 1.859776	 1.778262	 -0.485389	 -0.617844	 0.084915	 0.764123	 -0.363732	 0.525932	 2
1462091953.106	 2	 -1.694477	 -0.737072	 1.791244	 1.778109	 -0.463845	 -0.602156	 0.085776	 0.764646	 -0.352311	 0.532763	 2
1462091953.116	 2	 -1.029192	 -0.626275	 1.498726	 1.775618	 -0.445840	 -0.592594	 0.087437	 0.764271	 -0.343729	 0.538605	 2
1462091953.126	 2	 -0.232969	 -0.177071	 0.990803	 1.773474	 -0.433919	 -0.590384	 0.090035	 0.763684	 -0.339152	 0.541901	 2
1462091953.136	 2	 0.625806	 0.459785	 0.424397	 1.774097	 -0.429200	 -0.596046	 0.093809	 0.763541	 -0.339041	 0.541531	 2
1462091953.146	 2	 1.430095	 1.060839	 -0.114157	 1.777653	 -0.431538	 -0.609434	 0.098783	 0.763885	 -0.343281	 0.537476	 2
1462091953.156	 2	 2.047293	 1.600668	 -0.664440	 1.784168	 -0.440659	 -0.628785	 0.104407	 0.764763	 -0.351222	 0.529981	 2
1462091953.166	 2	 2.504808	 1.967857	 -1.178705	 1.793011	 -0.456191	 -0.652309	 0.110064	 0.766037	 -0.362184	 0.519516	 2
1462091953.176	 2	 2.619062	 1.995233	 -1.464003	 1.801826	 -0.475827	 -0.677283	 0.115060	 0.767159	 -0.374707	 0.507763	 2
1462091953.186	 2	 2.360546	 2.110455	 -1.666372	 1.811769	 -0.497068	 -0.699942	 0.118969	 0.768590	 -0.386895	 0.495407	 2
1462091953.196	 2	 1.788009	 2.742461	 -2.013602	 1.830008	 -0.520577	 -0.715911	 0.121342	 0.772307	 -0.397494	 0.480433	 2
1462091953.206	 2	 1.194295	 3.355848	 -2.296876	 1.857721	 -0.545662	 -0.724047	 0.122293	 0.778459	 -0.406044	 0.462790	 2
1462091953.216	 2	 0.395383	 4.732057	 -2.487069	 1.901812	 -0.570763	 -0.722190	 0.122931	 0.788436	 -0.411313	 0.440543	 2
1462091953.226	 2	 -0.598879	 6.615601	 -2.757167	 1.971737	 -0.594555	 -0.706925	 0.124210	 0.803883	 -0.411862	 0.410748	 2
1462091953.236	 2	 -1.738004	 7.888971	 -3.039142	 2.066533	 -0.615071	 -0.675318	 0.124969	 0.823792	 -0.407001	 0.374298	 2
1462091953.246	 2	 -1.133497	 2.279670	 -1.891224	 2.124699	 -0.627877	 -0.645805	 0.121068	 0.835575	 -0.402731	 0.353503	 2
1462091953.256	 2	 -0.783062	 -0.206093	 -0.445589	 2.133333	 -0.629959	 -0.632280	 0.116600	 0.837786	 -0.400604	 0.352187	 2
1462091953.266	 2	 -0.736446	 -0.267466	 0.349559	 2.134406	 -0.624391	 -0.625699	 0.115505	 0.838677	 -0.397303	 0.354161	 2
1462091953.276	 2	 -0.710669	 -0.185164	 0.562187	 2.134725	 -0.615962	 -0.621799	 0.116120	 0.839437	 -0.393436	 0.356468	 2
1462091953.286	 2	 -0.498028	 -0.416933	 0.368473	 2.133087	 -0.609266	 -0.618769	 0.116265	 0.839692	 -0.390476	 0.359066	 2
1462091953.296	 2	 -0.205060	 -0.667223	 0.000168	 2.128116	 -0.607002	 -0.616610	 0.114977	 0.839044	 -0.389524	 0.362017	 2
1462091953.306	 2	 -0.112537	 -0.657358	 -0.361839	 2.123136	 -0.608699	 -0.613562	 0.112287	 0.838221	 -0.389890	 0.364368	 2
1462091953.316	 2	 -0.099766	 -0.534083	 -0.517470	 2.119959	 -0.612382	 -0.609319	 0.108926	 0.837673	 -0.390672	 0.365808	 2
1462091953.326	 2	 0.057312	 -0.578462	 -0.413740	 2.116121	 -0.616242	 -0.606412	 0.105946	 0.836910	 -0.391790	 0.367230	 2
1462091953.336	 2	 0.649588	 -0.783716	 -0.171419	 2.106878	 -0.620677	 -0.609873	 0.104407	 0.834776	 -0.394568	 0.369545	 2
1462091953.346	 2	 1.631196	 -0.974630	 0.005832	 2.088996	 -0.627849	 -0.624348	 0.104966	 0.830307	 -0.400842	 0.372689	 2
1462091953.356	 2	 2.401479	 -1.022613	 0.007205	 2.064397	 -0.638512	 -0.648740	 0.107173	 0.823857	 -0.410594	 0.375748	 2
1462091953.366	 2	 1.495448	 0.120135	 -0.006245	 2.047734	 -0.647853	 -0.670360	 0.110023	 0.819096	 -0.418906	 0.376158	 2
1462091953.376	 2	 -1.556788	 3.194121	 -0.191928	 2.078011	 -0.644926	 -0.660800	 0.113203	 0.825394	 -0.414394	 0.366317	 2
1462091953.386	 2	 -2.913815	 4.100261	 -0.894267	 2.138827	 -0.636975	 -0.627140	 0.113724	 0.838633	 -0.402001	 0.349510	 2
1462091953.396	 2	 -1.948051	 1.500465	 -1.575917	 2.183006	 -0.635787	 -0.593078	 0.108445	 0.848194	 -0.393244	 0.337883	 2
1462091953.406	 2	 0.318789	 -2.935177	 -2.179402	 2.173618	 -0.650791	 -0.576526	 0.095816	 0.846381	 -0.396632	 0.342259	 2
1462091953.416	 2	 1.742373	 -4.192682	 -3.113660	 2.136506	 -0.682917	 -0.571647	 0.078078	 0.837739	 -0.409515	 0.352696	 2
1462091953.426	 2	 2.500322	 -4.563871	 -3.685370	 2.090266	 -0.725481	 -0.573588	 0.057985	 0.826041	 -0.427103	 0.363149	 2
1462091953.436	 2	 2.974936	 -4.641514	 -3.933218	 2.037209	 -0.773313	 -0.583244	 0.037251	 0.812102	 -0.447173	 0.373013	 2
1462091953.446	 2	 2.474236	 -3.794334	 -3.913515	 1.988689	 -0.820500	 -0.593850	 0.017071	 0.798792	 -0.465994	 0.380117	 2
1462091953.456	 2	 1.222230	 -2.043373	 -3.357703	 1.963648	 -0.859001	 -0.594089	 0.000083	 0.790588	 -0.478918	 0.381586	 2
1462091953.466	 2	 0.584652	 -0.688182	 -2.128835	 1.957575	 -0.884235	 -0.589430	 -0.010602	 0.787045	 -0.486239	 0.379499	 2
1462091953.476	 2	 0.719028	 -0.185715	 -1.134171	 1.953527	 -0.899172	 -0.591149	 -0.015295	 0.784830	 -0.491361	 0.377322	 2
1462091953.486	 2	 0.972743	 -0.124023	 -0.738276	 1.945232	 -0.910048	 -0.600068	 -0.017052	 0.782266	 -0.496451	 0.375906	 2
1462091953.496	 2	 1.106384	 -0.142951	 -0.654355	 1.933854	 -0.920128	 -0.612678	 -0.017957	 0.779252	 -0.501902	 0.374885	 2
1462091953.506	 2	 1.115264	 -0.233924	 -0.728817	 1.921180	 -0.930617	 -0.626032	 -0.019099	 0.775987	 -0.507549	 0.373997	 2
1462091953.516	 2	 1.064210	 -0.519944	 -0.883438	 1.906875	 -0.942161	 -0.638353	 -0.021462	 0.772337	 -0.513242	 0.373655	 2
1462091953.526	 2	 1.084064	 -0.933787	 -1.035602	 1.888927	 -0.955073	 -0.650251	 -0.025446	 0.767905	 -0.519141	 0.374388	 2
1462091953.536	 2	 1.239712	 -1.331734	 -1.140842	 1.865088	 -0.969316	 -0.664228	 -0.030715	 0.762315	 -0.525621	 0.376370	 2
1462091953.546	 2	 1.482795	 -1.567845	 -1.187786	 1.834413	 -0.984575	 -0.682839	 -0.036544	 0.755474	 -0.532988	 0.379272	 2
1462091953.556	 2	 1.686839	 -1.550126	 -1.155294	 1.798711	 -0.999894	 -0.706732	 -0.042025	 0.747853	 -0.541067	 0.382357	 2
1462091953.566	 2	 1.795085	 -1.301970	 -1.065469	 1.761081	 -1.014250	 -0.734982	 -0.046428	 0.740136	 -0.549457	 0.384890	 2
1462091953.576	 2	 1.831261	 -0.966230	 -0.953952	 1.723980	 -1.027036	 -0.766194	 -0.049422	 0.732822	 -0.557822	 0.386477	 2
1462091953.586	 2	 1.830505	 -0.737010	 -0.879340	 1.687771	 -1.038358	 -0.799227	 -0.051346	 0.725938	 -0.566027	 0.387287	 2
1462091953.596	 2	 1.851122	 -0.667910	 -0.875680	 1.650980	 -1.048843	 -0.833984	 -0.052846	 0.719149	 -0.574198	 0.387723	 2
1462091953.606	 2	 1.900525	 -0.744291	 -0.974871	 1.611695	 -1.059389	 -0.870972	 -0.054615	 0.712055	 -0.582588	 0.388055	 2
1462091953.616	 2	 1.970849	 -1.001649	 -1.234726	 1.567496	 -1.071334	 -0.910852	 -0.057654	 0.704192	 -0.591489	 0.388499	 2
1462091953.626	 2	 2.048783	 -1.290237	 -1.691039	 1.516580	 -1.086381	 -0.954757	 -0.062823	 0.695295	 -0.601260	 0.388722	 2
1462091953.636	 2	 2.074015	 -1.456042	 -2.397271	 1.458501	 -1.106730	 -1.004025	 -0.070765	 0.685503	 -0.612238	 0.387612	 2
1462091953.646	 2	 2.049346	 -1.522114	 -3.157559	 1.392519	 -1.133114	 -1.060637	 -0.081526	 0.675109	 -0.624395	 0.384333	 2
1462091953.656	 2	 1.989435	 -1.617655	 -3.889040	 1.315136	 -1.165029	 -1.127974	 -0.095144	 0.664107	 -0.637479	 0.378854	 2
1462091953.666	 2	 1.883781	 -1.730723	 -4.562734	 1.221195	 -1.201336	 -1.211046	 -0.111510	 0.652473	 -0.651155	 0.371271	 2
1462091953.676	 2	 1.674205	 -1.818043	 -5.100997	 1.105567	 -1.240213	 -1.314966	 -0.130336	 0.640470	 -0.664788	 0.361757	 2
1462091953.686	 2	 1.426395	 -1.796468	 -5.452472	 0.962095	 -1.278876	 -1.446596	 -0.150825	 0.628468	 -0.677810	 0.350506	 2
1462091953.696	 2	 1.198177	 -1.622578	 -5.619389	 0.783450	 -1.313749	 -1.614755	 -0.171786	 0.616792	 -0.689982	 0.337612	 2
1462091953.706	 2	 1.026442	 -1.414368	 -5.577589	 0.565788	 -1.340564	 -1.823911	 -0.192226	 0.605581	 -0.701158	 0.323571	 2
1462091953.716	 2	 0.929754	 -1.275347	 -5.366563	 0.317602	 -1.355281	 -2.064941	 -0.211624	 0.594674	 -0.711286	 0.309274	 2
1462091953.726	 2	 0.861358	 -1.162837	 -4.986576	 0.068503	 -1.356428	 -2.307593	 -0.229580	 0.584104	 -0.720251	 0.295557	 2
1462091953.736	 2	 0.811613	 -0.849273	 -4.448212	 -0.146054	 -1.346394	 -2.517777	 -0.245115	 0.574318	 -0.728165	 0.282581	 2
1462091953.746	 2	 0.782284	 -0.316350	 -3.866420	 -0.307848	 -1.329601	 -2.679299	 -0.257115	 0.565752	 -0.735382	 0.270241	 2
1462091953.756	 2	 0.715236	 0.378233	 -3.300914	 -0.421514	 -1.310372	 -2.798625	 -0.265123	 0.558778	 -0.742265	 0.257914	 2
1462091953.766	 2	 0.563805	 1.045337	 -2.452501	 -0.490149	 -1.293115	 -2.879099	 -0.268477	 0.554071	 -0.748524	 0.246247	 2
1462091953.776	 2	 0.429298	 1.328451	 -1.454339	 -0.520964	 -1.280831	 -2.924611	 -0.267815	 0.551616	 -0.753580	 0.236880	 2
1462091953.786	 2	 0.474656	 1.009439	 -0.400466	 -0.521380	 -1.273620	 -2.936850	 -0.264857	 0.550357	 -0.757102	 0.231849	 2
1462091953.796	 2	 0.695620	 0.193776	 0.585442	 -0.497057	 -1.269823	 -2.915743	 -0.261562	 0.548905	 -0.758977	 0.232900	 2
1462091953.806	 2	 0.886832	 -0.664286	 0.846496	 -0.465436	 -1.266175	 -2.877769	 -0.260034	 0.546231	 -0.759710	 0.238441	 2
1462091953.816	 2	 0.823680	 -1.350234	 0.539052	 -0.447391	 -1.261231	 -2.846413	 -0.261769	 0.542353	 -0.759744	 0.245192	 2
1462091953.826	 2	 0.430053	 -1.885901	 0.141031	 -0.451126	 -1.257319	 -2.831778	 -0.267162	 0.538391	 -0.758596	 0.251578	 2
1462091953.836	 2	 -0.219510	 -2.112915	 -0.038737	 -0.472900	 -1.257648	 -2.832843	 -0.275118	 0.535898	 -0.755681	 0.257038	 2
1462091953.846	 2	 -0.982803	 -2.063884	 0.106914	 -0.504038	 -1.264877	 -2.843610	 -0.283876	 0.536243	 -0.750575	 0.261715	 2
1462091953.856	 2	 -1.623157	 -1.952783	 0.501461	 -0.536576	 -1.279653	 -2.856993	 -0.292144	 0.539721	 -0.743238	 0.266367	 2
1462091953.866	 2	 -1.998434	 -1.975443	 0.891389	 -0.567445	 -1.300209	 -2.868690	 -0.299802	 0.545359	 -0.734045	 0.271811	 2
1462091953.876	 2	 -2.234954	 -1.825529	 1.081352	 -0.598508	 -1.324134	 -2.881271	 -0.306799	 0.552278	 -0.723772	 0.277521	 2
1462091953.886	 2	 -2.638459	 -1.183938	 1.097230	 -0.635937	 -1.351059	 -2.905635	 -0.312192	 0.561119	 -0.713094	 0.281386	 2
1462091953.896	 2	 -3.217364	 -0.334969	 1.038765	 -0.692686	 -1.381739	 -2.957989	 -0.315464	 0.572863	 -0.702047	 0.281852	 2
1462091953.906	 2	 -3.699052	 0.325322	 0.961710	 -0.788445	 -1.414869	 -3.057072	 -0.317011	 0.587168	 -0.690562	 0.279039	 2
1462091953.916	 2	 -3.961859	 0.735433	 0.941171	 -0.952353	 -1.447396	 3.054345	 -0.317505	 0.602918	 -0.678602	 0.274191	 2
1462091953.926	 2	 -3.837643	 1.612494	 1.080405	 -1.207673	 -1.475091	 2.783883	 -0.315062	 0.619488	 -0.667451	 0.267357	 2
1462091953.936	 2	 -3.416526	 2.914773	 1.308404	 -1.559015	 -1.494294	 2.405419	 -0.307229	 0.636522	 -0.658733	 0.257918	 2
1462091953.946	 2	 -3.001489	 4.222044	 1.342533	 -1.976698	 -1.501658	 1.947519	 -0.293967	 0.653622	 -0.652909	 0.245094	 2
1462091953.956	 2	 -2.709401	 5.241735	 1.124602	 -2.341153	 -1.496004	 1.531913	 -0.277013	 0.670285	 -0.649470	 0.228409	 2
1462091953.966	 2	 -2.525049	 5.843536	 0.878143	 -2.571041	 -1.481905	 1.243880	 -0.258106	 0.686103	 -0.647401	 0.208605	 2
1462091953.976	 2	 -2.369508	 5.905870	 0.736688	 -2.699464	 -1.464476	 1.055237	 -0.238660	 0.700713	 -0.645664	 0.187512	 2
1462091953.986	 2	 -2.225346	 5.012093	 0.747365	 -2.781053	 -1.446527	 0.919680	 -0.220970	 0.713556	 -0.643126	 0.168519	 2
1462091953.996	 2	 -2.104527	 3.109110	 0.917246	 -2.856895	 -1.429037	 0.806542	 -0.207943	 0.724264	 -0.638651	 0.155968	 2
1462091954.006	 2	 -1.980948	 0.831142	 1.152887	 -2.945036	 -1.412086	 0.703194	 -0.201031	 0.732862	 -0.631909	 0.152281	 2
1462091954.016	 2	 -1.822556	 -1.270676	 1.346168	 -3.045427	 -1.395579	 0.609207	 -0.200088	 0.739408	 -0.623285	 0.157346	 2
1462091954.026	 2	 -1.650202	 -2.599944	 1.449532	 3.133280	 -1.379246	 0.526667	 -0.203370	 0.744196	 -0.613474	 0.168710	 2
1462091954.036	 2	 -1.439278	 -3.112330	 1.425875	 3.036248	 -1.363558	 0.458428	 -0.208485	 0.747558	 -0.603554	 0.182794	 2
1462091954.046	 2	 -1.291267	 -3.331463	 1.335155	 2.950646	 -1.348436	 0.404528	 -0.214517	 0.749830	 -0.593815	 0.197792	 2
1462091954.056	 2	 -1.208677	 -3.190697	 1.272866	 2.876430	 -1.333608	 0.361721	 -0.220532	 0.751495	 -0.584365	 0.212457	 2
1462091954.066	 2	 -1.221942	 -2.552982	 1.205378	 2.816147	 -1.318423	 0.327874	 -0.225202	 0.753380	 -0.575399	 0.224985	 2
1462091954.076	 2	 -1.270737	 -1.501659	 1.104746	 2.774518	 -1.302770	 0.303211	 -0.227469	 0.756208	 -0.567348	 0.233501	 2
1462091954.086	 2	 -1.356372	 -0.338578	 1.000147	 2.751979	 -1.286573	 0.286333	 -0.226926	 0.760396	 -0.560363	 0.237265	 2
1462091954.096	 2	 -1.400613	 0.780737	 0.890516	 2.746652	 -1.270171	 0.275460	 -0.223664	 0.765921	 -0.554525	 0.236308	 2
1462091954.106	 2	 -1.347752	 1.661605	 0.792742	 2.753950	 -1.254446	 0.267785	 -0.218091	 0.772299	 -0.549936	 0.231433	 2
1462091954.116	 2	 -1.268863	 2.145951	 0.733682	 2.768128	 -1.239715	 0.261078	 -0.211040	 0.778968	 -0.546294	 0.224128	 2
1462091954.126	 2	 -1.196209	 2.185967	 0.707844	 2.783540	 -1.225844	 0.254083	 -0.203593	 0.785432	 -0.543049	 0.216204	 2
1462091954.136	 2	 -1.145096	 1.929544	 0.715670	 2.796228	 -1.212532	 0.246239	 -0.196586	 0.791407	 -0.539739	 0.209070	 2
1462091954.146	 2	 -1.106181	 1.550003	 0.754430	 2.804150	 -1.199536	 0.237055	 -0.190344	 0.796828	 -0.536141	 0.203440	 2
1462091954.156	 2	 -1.044058	 1.107689	 0.799864	 2.806412	 -1.186906	 0.226379	 -0.185010	 0.801633	 -0.532245	 0.199679	 2
1462091954.166	 2	 -0.907050	 0.725595	 0.819628	 2.803336	 -1.175267	 0.214289	 -0.180513	 0.805697	 -0.528368	 0.197725	 2
1462091954.176	 2	 -0.687464	 0.552787	 0.692480	 2.798728	 -1.165794	 0.202945	 -0.176751	 0.808890	 -0.525159	 0.196633	 2
1462091954.186	 2	 -0.458006	 0.496428	 0.493858	 2.795939	 -1.159123	 0.194376	 -0.173715	 0.811210	 -0.522990	 0.195557	 2
1462091954.196	 2	 -0.276529	 0.460323	 0.281986	 2.795928	 -1.155000	 0.189239	 -0.171443	 0.812786	 -0.521779	 0.194250	 2
1462091954.206	 2	 -0.138628	 0.441537	 0.094102	 2.798695	 -1.152909	 0.187427	 -0.169888	 0.813782	 -0.521322	 0.192668	 2
1462091954.216	 2	 -0.002643	 0.466392	 -0.090161	 2.804473	 -1.152709	 0.188741	 -0.168907	 0.814279	 -0.521602	 0.190661	 2
1462091954.226	 2	 0.158822	 0.496201	 -0.314034	 2.813950	 -1.154638	 0.193745	 -0.168554	 0.814225	 -0.522730	 0.188098	 2
1462091954.236	 2	 0.379599	 0.463862	 -0.577369	 2.827455	 -1.159280	 0.203289	 -0.169085	 0.813402	 -0.524909	 0.185091	 2
1462091954.246	 2	 0.673765	 0.351774	 -0.807981	 2.843787	 -1.167236	 0.216905	 -0.170593	 0.811544	 -0.528347	 0.182055	 2
1462091954.256	 2	 1.009027	 0.279569	 -0.949055	 2.861379	 -1.178710	 0.232870	 -0.172722	 0.808563	 -0.533166	 0.179243	 2
1462091954.266	 2	 1.350620	 0.560127	 -0.989918	 2.881032	 -1.193548	 0.249178	 -0.174358	 0.804714	 -0.539542	 0.175867	 2
1462091954.276	 2	 1.616173	 1.420930	 -0.982088	 2.907544	 -1.211097	 0.265006	 -0.173758	 0.800628	 -0.547682	 0.169843	 2
1462091954.286	 2	 1.501707	 2.513411	 -1.007162	 2.947527	 -1.228523	 0.283675	 -0.170255	 0.797294	 -0.556692	 0.159468	 2
1462091954.296	 2	 0.742529	 3.037383	 -0.927467	 2.999633	 -1.239724	 0.307466	 -0.165039	 0.796025	 -0.563786	 0.145777	 2
1462091954.306	 2	 -0.652688	 2.955987	 -0.395985	 3.046639	 -1.237651	 0.325624	 -0.159052	 0.798420	 -0.565496	 0.132068	 2
1462091954.316	 2	 -1.339933	 2.980704	 0.387170	 3.073793	 -1.224972	 0.322867	 -0.150672	 0.803987	 -0.562645	 0.119725	 2
1462091954.326	 2	 -0.964064	 2.492837	 1.024144	 3.078430	 -1.213451	 0.299429	 -0.140276	 0.809239	 -0.559652	 0.110654	 2
1462091954.336	 2	 -0.251172	 1.106044	 1.333287	 3.060413	 -1.208186	 0.264059	 -0.131107	 0.812148	 -0.558212	 0.107822	 2
1462091954.346	 2	 0.475049	 -0.691459	 1.186609	 3.024169	 -1.209924	 0.227986	 -0.126553	 0.811981	 -0.558576	 0.112531	 2
1462091954.356	 2	 1.010677	 -1.879351	 0.692364	 2.982567	 -1.217704	 0.201090	 -0.127277	 0.809024	 -0.560700	 0.122053	 2
1462091954.366	 2	 1.089996	 -2.114643	 0.252522	 2.946497	 -1.227934	 0.185190	 -0.131086	 0.804810	 -0.563559	 0.132281	 2
1462091954.376	 2	 0.734782	 -1.626320	 -0.020137	 2.922806	 -1.236073	 0.178892	 -0.135375	 0.801257	 -0.565721	 0.140074	 2
1462091954.386	 2	 0.342825	 -0.961912	 -0.079816	 2.911083	 -1.240441	 0.178467	 -0.138610	 0.799179	 -0.566722	 0.144660	 2
1462091954.396	 2	 0.315275	 -0.034376	 0.211482	 2.902771	 -1.243010	 0.172768	 -0.138748	 0.798220	 -0.567601	 0.146367	 2
1462091954.406	 2	 0.512401	 0.769277	 0.524183	 2.892462	 -1.246433	 0.155280	 -0.134789	 0.797662	 -0.569558	 0.145501	 2
1462091954.416	 2	 0.367247	 0.261744	 0.585736	 2.877038	 -1.249235	 0.133983	 -0.130783	 0.797134	 -0.571216	 0.145553	 2
1462091954.426	 2	 -0.252547	 -1.151008	 0.443700	 2.855749	 -1.247106	 0.119783	 -0.131118	 0.797113	 -0.570012	 0.150018	 2
1462091954.436	 2	 -0.980386	 -2.057050	 0.170903	 2.836810	 -1.238703	 0.119752	 -0.136125	 0.798103	 -0.565355	 0.157719	 2
1462091954.446	 2	 -1.266771	 -2.058846	 -0.192177	 2.829097	 -1.227169	 0.134011	 -0.143476	 0.799818	 -0.558993	 0.165025	 2
1462091954.456	 2	 -0.571689	 -0.438395	 -0.418684	 2.836018	 -1.220606	 0.151909	 -0.148432	 0.800974	 -0.555342	 0.167342	 2
1462091954.466	 2	 0.526199	 2.599901	 -0.328565	 2.862011	 -1.224284	 0.159775	 -0.144485	 0.801461	 -0.558101	 0.159080	 2
1462091954.476	 2	 0.936433	 3.876692	 -0.392727	 2.902253	 -1.233722	 0.163041	 -0.134779	 0.801551	 -0.564503	 0.143827	 2
1462091954.486	 2	 0.646030	 2.929284	 -0.912712	 2.951825	 -1.242685	 0.180860	 -0.128024	 0.801152	 -0.570184	 0.129053	 2
1462091954.496	 2	 0.149210	 1.114494	 -1.590309	 3.007954	 -1.247570	 0.223522	 -0.129080	 0.800460	 -0.573128	 0.118857	 2
1462091954.506	 2	 -0.072699	 -0.328029	 -2.009987	 3.065431	 -1.249198	 0.284174	 -0.136829	 0.799288	 -0.574086	 0.113322	 2
1462091954.516	 2	 -0.011747	 -1.158239	 -2.067268	 3.117810	 -1.249806	 0.349794	 -0.147963	 0.797380	 -0.574375	 0.111287	 2
1462091954.526	 2	 0.396149	 -1.258124	 -1.889504	 -3.119548	 -1.252453	 0.411614	 -0.159246	 0.794418	 -0.575513	 0.111022	 2
1462091954.536	 2	 1.331450	 -0.670021	 -1.668365	 -3.073581	 -1.262372	 0.468822	 -0.167895	 0.789455	 -0.580008	 0.110286	 2
1462091954.546	 2	 2.382109	 -0.281195	 -1.453282	 -3.021531	 -1.282177	 0.526817	 -0.173656	 0.781750	 -0.588919	 0.109016	 2
1462091954.556	 2	 3.055574	 -0.576169	 -1.083545	 -2.969350	 -1.309341	 0.585827	 -0.178053	 0.771770	 -0.600504	 0.109838	 2
1462091954.566	 2	 3.222652	 -1.330243	 -0.572990	 -2.928796	 -1.339465	 0.639283	 -0.182371	 0.760784	 -0.612162	 0.114921	 2
1462091954.576	 2	 3.106665	 -2.073467	 -0.145144	 -2.899946	 -1.372254	 0.688056	 -0.187168	 0.748815	 -0.623527	 0.124335	 2
1462091954.586	 2	 2.925071	 -2.532844	 0.088762	 -2.887344	 -1.401138	 0.725692	 -0.192742	 0.737943	 -0.632217	 0.136353	 2
1462091954.596	 2	 2.778637	 -2.642503	 0.161488	 -2.877025	 -1.428719	 0.762787	 -0.198553	 0.727264	 -0.639839	 0.149229	 2
1462091954.606	 2	 2.617931	 -2.528409	 0.136239	 -2.858023	 -1.454738	 0.807817	 -0.204210	 0.716858	 -0.646750	 0.161641	 2
1462091954.616	 2	 2.376664	 -2.284443	 0.093717	 -2.821681	 -1.478366	 0.867972	 -0.209430	 0.707069	 -0.652924	 0.172866	 2
1462091954.626	 2	 2.104278	 -2.072334	 0.045840	 -2.758738	 -1.498973	 0.952404	 -0.214246	 0.698127	 -0.658254	 0.182809	 2
1462091954.636	 2	 1.862426	 -1.909571	 -0.047524	 -2.646410	 -1.516289	 1.084479	 -0.218955	 0.689947	 -0.662818	 0.191585	 2
1462091954.646	 2	 1.698308	 -1.701998	 -0.237067	 -2.426102	 -1.529604	 1.322669	 -0.223745	 0.682260	 -0.666994	 0.198941	 2
1462091954.656	 2	 1.606344	 -1.285715	 -0.510556	 -2.027535	 -1.536179	 1.735582	 -0.228298	 0.674916	 -0.671356	 0.204081	 2
1462091954.666	 2	 1.580409	 -0.637000	 -0.826154	 -1.562879	 -1.532333	 2.208619	 -0.231896	 0.667886	 -0.676515	 0.206106	 2
1462091954.676	 2	 1.500030	 -0.037719	 -1.086315	 -1.263613	 -1.519628	 2.509941	 -0.234349	 0.661323	 -0.682436	 0.204972	 2
1462091954.686	 2	 1.353320	 0.412770	 -1.211934	 -1.116740	 -1.503389	 2.653984	 -0.235786	 0.655464	 -0.688591	 0.201528	 2
1462091954.696	 2	 1.181826	 0.724757	 -1.233116	 -1.044397	 -1.486740	 2.719943	 -0.236322	 0.650431	 -0.694589	 0.196563	 2
1462091954.706	 2	 1.049434	 0.898850	 -1.186647	 -1.003546	 -1.470871	 2.752311	 -0.236163	 0.646085	 -0.700267	 0.190857	 2
1462091954.716	 2	 1.010594	 0.984494	 -1.125829	 -0.973470	 -1.455771	 2.772818	 -0.235477	 0.642086	 -0.705747	 0.184926	 2
1462091954.726	 2	 1.021579	 0.989250	 -1.052343	 -0.945725	 -1.441147	 2.790781	 -0.234468	 0.638121	 -0.711147	 0.179153	 2
1462091954.736	 2	 1.018686	 0.969783	 -0.951252	 -0.918763	 -1.427209	 2.808142	 -0.233195	 0.634196	 -0.716398	 0.173749	 2
1462091954.746	 2	 1.036942	 0.906666	 -0.847553	 -0.891638	 -1.413996	 2.826221	 -0.231747	 0.630277	 -0.721472	 0.168886	 2
1462091954.756	 2	 1.128462	 0.775176	 -0.755786	 -0.862333	 -1.400979	 2.847680	 -0.230327	 0.626073	 -0.726517	 0.164789	 2
1462091954.766	 2	 1.268778	 0.582902	 -0.666076	 -0.829857	 -1.387648	 2.874247	 -0.229165	 0.621303	 -0.731650	 0.161723	 2
1462091954.776	 2	 1.399956	 0.479027	 -0.563740	 -0.794397	 -1.373929	 2.905336	 -0.228084	 0.615994	 -0.736926	 0.159592	 2
1462091954.786	 2	 1.484120	 0.569037	 -0.437875	 -0.755641	 -1.360159	 2.939446	 -0.226384	 0.610460	 -0.742404	 0.157878	 2
1462091954.796	 2	 1.553927	 0.799341	 -0.331895	 -0.713629	 -1.346385	 2.974925	 -0.223512	 0.604918	 -0.748176	 0.156043	 2
1462091954.806	 2	 1.664010	 1.010046	 -0.272276	 -0.669139	 -1.331989	 3.010708	 -0.219476	 0.599219	 -0.754381	 0.153872	 2
1462091954.816	 2	 1.819770	 0.960998	 -0.226130	 -0.624082	 -1.316357	 3.046882	 -0.215042	 0.592983	 -0.760950	 0.151935	 2
1462091954.826	 2	 1.920344	 0.530231	 -0.186252	 -0.583339	 -1.299568	 3.082241	 -0.211658	 0.586000	 -0.767413	 0.151269	 2
1462091954.836	 2	 1.790201	 -0.145765	 -0.175422	 -0.553601	 -1.283113	 3.112864	 -0.210651	 0.578749	 -0.772938	 0.152455	 2
1462091954.846	 2	 1.388889	 -0.786366	 -0.233309	 -0.540338	 -1.269144	 3.133379	 -0.212589	 0.572206	 -0.776756	 0.155035	 2
1462091954.856	 2	 0.872468	 -1.174514	 -0.285712	 -0.542458	 -1.259132	 -3.140530	 -0.216853	 0.567154	 -0.778650	 0.158161	 2
1462091954.866	 2	 0.430281	 -1.258269	 -0.280510	 -0.554019	 -1.253103	 -3.139478	 -0.222130	 0.563767	 -0.779003	 0.161180	 2
1462091954.876	 2	 0.187719	 -1.141253	 -0.229350	 -0.568261	 -1.249817	 3.141086	 -0.227204	 0.561625	 -0.778541	 0.163798	 2
1462091954.886	 2	 0.182991	 -1.080029	 -0.148807	 -0.580619	 -1.247471	 3.139487	 -0.231760	 0.559875	 -0.777912	 0.166371	 2
1462091954.896	 2	 0.388611	 -1.225719	 -0.062429	 -0.589051	 -1.244274	 -3.140191	 -0.236287	 0.557514	 -0.777524	 0.169716	 2
1462091954.906	 2	 0.601882	 -1.541761	 0.003113	 -0.594781	 -1.239597	 -3.130868	 -0.241497	 0.554086	 -0.777341	 0.174381	 2
1462091954.916	 2	 0.517885	 -1.933938	 0.009787	 -0.603671	 -1.234999	 -3.120848	 -0.248096	 0.550279	 -0.776643	 0.180186	 2
1462091954.926	 2	 -0.011469	 -2.170602	 0.014326	 -0.622341	 -1.233841	 -3.118059	 -0.256197	 0.547766	 -0.774354	 0.186254	 2
1462091954.936	 2	 -0.822497	 -2.036552	 0.131342	 -0.651672	 -1.239316	 -3.126936	 -0.264612	 0.548275	 -0.769860	 0.191548	 2
1462091954.946	 2	 -1.560352	 -1.628673	 0.344057	 -0.687959	 -1.251990	 3.136293	 -0.271827	 0.552304	 -0.763429	 0.195566	 2
1462091954.956	 2	 -2.061369	 -1.244820	 0.566209	 -0.728765	 -1.270120	 3.107473	 -0.277396	 0.559091	 -0.755677	 0.198547	 2
1462091954.966	 2	 -2.499564	 -0.842426	 0.730436	 -0.776008	 -1.292285	 3.068063	 -0.281382	 0.568080	 -0.746937	 0.200484	 2
1462091954.976	 2	 -3.017591	 -0.529939	 0.784748	 -0.838653	 -1.317853	 3.009271	 -0.284234	 0.579282	 -0.737051	 0.200994	 2
1462091954.986	 2	 -3.533013	 -0.448252	 0.694077	 -0.932688	 -1.345059	 2.917246	 -0.287220	 0.592319	 -0.725681	 0.200127	 2
1462091954.996	 2	 -3.900908	 -0.254752	 0.534953	 -1.070586	 -1.370540	 2.779538	 -0.290479	 0.606564	 -0.713186	 0.197656	 2
1462091955.006	 2	 -3.990840	 0.674363	 0.432477	 -1.247669	 -1.390656	 2.595347	 -0.291655	 0.621684	 -0.701060	 0.192252	 2
1462091955.016	 2	 -3.780787	 2.360296	 0.532663	 -1.436646	 -1.404238	 2.384121	 -0.287061	 0.637581	 -0.691249	 0.182378	 2
1462091955.026	 2	 -3.464481	 4.118721	 0.698676	 -1.614144	 -1.412464	 2.166815	 -0.275322	 0.653922	 -0.684436	 0.167725	 2
1462091955.036	 2	 -3.252342	 5.395760	 0.735356	 -1.775996	 -1.415659	 1.951183	 -0.258061	 0.670184	 -0.679771	 0.148893	 2
1462091955.046	 2	 -3.281130	 5.892215	 0.689070	 -1.928965	 -1.413332	 1.737373	 -0.238195	 0.686112	 -0.675473	 0.127476	 2
1462091955.056	 2	 -3.497727	 5.439827	 0.699535	 -2.082419	 -1.405069	 1.525040	 -0.218931	 0.701750	 -0.669549	 0.106395	 2
1462091955.066	 2	 -3.605344	 3.992599	 0.850067	 -2.236057	 -1.391814	 1.324307	 -0.203132	 0.716717	 -0.661073	 0.089649	 2
1462091955.076	 2	 -3.480510	 1.906887	 0.904175	 -2.381402	 -1.374759	 1.151551	 -0.193348	 0.730203	 -0.650362	 0.080303	 2
1462091955.086	 2	 -3.229773	 -0.050586	 0.799582	 -2.509133	 -1.354807	 1.016836	 -0.190241	 0.741781	 -0.638308	 0.078310	 2
1462091955.096	 2	 -2.970828	 -1.596717	 0.660377	 -2.618605	 -1.333177	 0.917168	 -0.192758	 0.751537	 -0.625522	 0.082217	 2
1462091955.106	 2	 -2.688580	 -2.789265	 0.594600	 -2.714690	 -1.311369	 0.843917	 -0.199426	 0.759593	 -0.612367	 0.090856	 2
1462091955.116	 2	 -2.341914	 -3.755809	 0.626284	 -2.803477	 -1.291090	 0.788407	 -0.208950	 0.765873	 -0.599189	 0.103689	 2
1462091955.126	 2	 -1.814292	 -4.466768	 0.774939	 -2.889511	 -1.274469	 0.743655	 -0.220017	 0.770054	 -0.586628	 0.120318	 2
1462091955.136	 2	 -1.182455	 -4.616114	 0.969477	 -2.973705	 -1.263311	 0.703873	 -0.230750	 0.771983	 -0.575664	 0.139312	 2
1462091955.146	 2	 -0.757870	 -4.086674	 1.108190	 -3.052941	 -1.256335	 0.665347	 -0.239359	 0.772497	 -0.566606	 0.157839	 2
1462091955.156	 2	 -0.707499	 -3.142291	 1.114408	 -3.122122	 -1.249967	 0.628237	 -0.245144	 0.773015	 -0.558868	 0.173261	 2
1462091955.166	 2	 -0.891905	 -2.097045	 1.001046	 3.107151	 -1.241521	 0.596228	 -0.248460	 0.774500	 -0.551802	 0.184206	 2
1462091955.176	 2	 -1.201823	 -0.993736	 0.923421	 3.069196	 -1.229848	 0.569530	 -0.249357	 0.777543	 -0.544996	 0.190333	 2
1462091955.186	 2	 -1.549674	 0.164343	 0.903121	 3.046557	 -1.214460	 0.546679	 -0.247537	 0.782534	 -0.538261	 0.191418	 2
1462091955.196	 2	 -1.766478	 1.045543	 0.888696	 3.036325	 -1.196411	 0.526681	 -0.243413	 0.789043	 -0.531677	 0.188367	 2
1462091955.206	 2	 -1.807460	 1.625396	 0.897646	 3.034070	 -1.177490	 0.508095	 -0.237591	 0.796283	 -0.525486	 0.182617	 2
1462091955.216	 2	 -1.699265	 1.942002	 0.893256	 3.036209	 -1.159278	 0.490027	 -0.230652	 0.803549	 -0.519938	 0.175425	 2
1462091955.226	 2	 -1.436429	 2.074667	 0.813335	 3.041482	 -1.143382	 0.473362	 -0.223262	 0.810170	 -0.515446	 0.167612	 2
1462091955.236	 2	 -1.054867	 2.092705	 0.668435	 3.049640	 -1.131219	 0.459254	 -0.215948	 0.815626	 -0.512479	 0.159641	 2
1462091955.246	 2	 -0.662177	 1.996772	 0.505324	 3.059821	 -1.123189	 0.448105	 -0.209123	 0.819725	 -0.511105	 0.151953	 2
1462091955.256	 2	 -0.332730	 1.869934	 0.308373	 3.072033	 -1.118824	 0.440573	 -0.203097	 0.822553	 -0.511111	 0.144650	 2
1462091955.266	 2	 -0.103564	 1.771923	 0.085918	 3.087281	 -1.117198	 0.437557	 -0.198027	 0.824356	 -0.512177	 0.137464	 2
1462091955.276	 2	 0.037941	 1.641200	 -0.136077	 3.105699	 -1.117301	 0.439402	 -0.194059	 0.825382	 -0.513902	 0.130350	 2
1462091955.286	 2	 0.145133	 1.449119	 -0.326372	 3.126449	 -1.118559	 0.445788	 -0.191285	 0.825757	 -0.516017	 0.123541	 2
1462091955.296	 2	 0.244127	 1.217609	 -0.383742	 -3.136176	 -1.120770	 0.454426	 -0.189406	 0.825601	 -0.518366	 0.117495	 2
1462091955.306	 2	 0.378087	 0.969721	 -0.485265	 -3.116392	 -1.124099	 0.464946	 -0.188393	 0.824884	 -0.521001	 0.112392	 2
1462091955.316	 2	 0.594143	 0.756257	 -0.646866	 -3.095147	 -1.129223	 0.479547	 -0.188501	 0.823358	 -0.524298	 0.107984	 2
1462091955.326	 2	 0.891599	 0.569450	 -0.766296	 -3.072266	 -1.136931	 0.498044	 -0.189489	 0.820841	 -0.528618	 0.104292	 2
1462091955.336	 2	 1.114413	 0.598972	 -0.858551	 -3.046328	 -1.146873	 0.520246	 -0.190851	 0.817504	 -0.533963	 0.100726	 2
1462091955.346	 2	 1.274487	 0.861953	 -0.903326	 -3.015445	 -1.158152	 0.545459	 -0.191779	 0.813722	 -0.540186	 0.096309	 2
1462091955.356	 2	 1.492820	 1.227143	 -0.910355	 -2.978290	 -1.170997	 0.573533	 -0.191723	 0.809487	 -0.547509	 0.090588	 2
1462091955.366	 2	 1.865471	 1.429778	 -0.830716	 -2.936076	 -1.186743	 0.604054	 -0.190547	 0.804419	 -0.556330	 0.084254	 2
1462091955.376	 2	 2.127692	 0.998399	 -0.663294	 -2.894956	 -1.205560	 0.635675	 -0.189238	 0.798354	 -0.566116	 0.079577	 2
1462091955.386	 2	 1.311537	 -0.311840	 -0.389150	 -2.871299	 -1.219998	 0.660594	 -0.190394	 0.793307	 -0.572777	 0.079634	 2
1462091955.396	 2	 -0.373095	 0.500752	 0.102015	 -2.870568	 -1.219701	 0.660754	 -0.190291	 0.793395	 -0.572730	 0.079340	 2
1462091955.406	 2	 -0.705418	 2.172876	 0.425276	 -2.866653	 -1.213994	 0.645651	 -0.183989	 0.796385	 -0.571543	 0.072508	 2
1462091955.416	 2	 -0.470039	 2.476632	 0.753242	 -2.862946	 -1.210773	 0.622908	 -0.174313	 0.799355	 -0.571446	 0.064002	 2
1462091955.426	 2	 -0.557043	 1.451580	 0.755119	 -2.868818	 -1.207926	 0.597932	 -0.166385	 0.802018	 -0.570639	 0.058767	 2
1462091955.436	 2	 -0.464472	 0.695257	 0.779248	 -2.883289	 -1.204954	 0.573496	 -0.161091	 0.804353	 -0.569033	 0.057159	 2
1462091955.446	 2	 -0.172145	 0.416045	 0.822064	 -2.900789	 -1.204629	 0.549670	 -0.156517	 0.805827	 -0.568201	 0.057382	 2
1462091955.456	 2	 0.013918	 0.130758	 0.717607	 -2.917989	 -1.206125	 0.529002	 -0.152890	 0.806540	 -0.568047	 0.058654	 2
1462091955.466	 2	 0.087711	 -0.142996	 0.544961	 -2.933587	 -1.208094	 0.513291	 -0.150757	 0.806752	 -0.568096	 0.060749	 2
1462091955.476	 2	 0.283138	 0.212926	 0.424009	 -2.943283	 -1.211104	 0.502187	 -0.148699	 0.806494	 -0.568881	 0.061896	 2
1462091955.486	 2	 0.632140	 1.084580	 0.202074	 -2.938918	 -1.216999	 0.497583	 -0.144951	 0.805403	 -0.571633	 0.059584	 2
1462091955.496	 2	 0.772548	 1.284746	 -0.152185	 -2.919576	 -1.224318	 0.504220	 -0.141248	 0.803539	 -0.575661	 0.054662	 2
1462091955.506	 2	 0.433072	 0.462655	 -0.278376	 -2.901780	 -1.229061	 0.515626	 -0.140133	 0.801953	 -0.578435	 0.051447	 2
1462091955.516	 2	 -0.169416	 -0.417723	 -0.188601	 -2.898230	 -1.228320	 0.521722	 -0.141640	 0.801811	 -0.578244	 0.051685	 2
1462091955.526	 2	 -0.627956	 -0.677103	 -0.061262	 -2.905781	 -1.223043	 0.520778	 -0.144077	 0.803069	 -0.575706	 0.053715	 2
1462091955.536	 2	 -0.982827	 -0.236837	 0.079145	 -2.916125	 -1.214332	 0.513685	 -0.145223	 0.805590	 -0.571793	 0.054655	 2
1462091955.546	 2	 -0.996320	 0.458291	 0.155005	 -2.923377	 -1.204638	 0.503159	 -0.144157	 0.808696	 -0.567794	 0.053291	 2
1462091955.556	 2	 -0.438687	 1.772847	 0.078187	 -2.915349	 -1.198926	 0.496705	 -0.139918	 0.810847	 -0.566302	 0.047459	 2
1462091955.566	 2	 0.244847	 2.908952	 -0.062136	 -2.887298	 -1.199732	 0.497940	 -0.132366	 0.811143	 -0.568499	 0.036542	 2
1462091955.576	 2	 0.559993	 2.666440	 -0.229133	 -2.850920	 -1.204082	 0.506735	 -0.125016	 0.810016	 -0.572385	 0.024910	 2
1462091955.586	 2	 0.762521	 1.585423	 -0.347532	 -2.818526	 -1.209794	 0.521396	 -0.120888	 0.807995	 -0.576408	 0.016847	 2
1462091955.596	 2	 1.108748	 0.563251	 -0.360058	 -2.792236	 -1.218196	 0.540796	 -0.119926	 0.804896	 -0.581023	 0.013140	 2
1462091955.606	 2	 1.407618	 -0.341580	 -0.344436	 -2.771423	 -1.229510	 0.564308	 -0.121621	 0.800764	 -0.586349	 0.013449	 2
1462091955.616	 2	 1.573291	 -0.951628	 -0.360081	 -2.753927	 -1.242507	 0.591535	 -0.125326	 0.795954	 -0.592008	 0.016648	 2
1462091955.626	 2	 1.660543	 -1.177838	 -0.424760	 -2.734944	 -1.256046	 0.623588	 -0.130199	 0.790705	 -0.597823	 0.021008	 2
1462091955.636	 2	 1.781583	 -1.095125	 -0.410123	 -2.711847	 -1.270299	 0.659702	 -0.135055	 0.785048	 -0.604000	 0.025363	 2
1462091955.646	 2	 2.056713	 -0.958324	 -0.354760	 -2.682566	 -1.286522	 0.700524	 -0.139191	 0.778678	 -0.611080	 0.029440	 2
1462091955.656	 2	 2.671942	 -1.277260	 -0.379071	 -2.641469	 -1.307027	 0.755211	 -0.143769	 0.770536	 -0.620009	 0.034554	 2
1462091955.666	 2	 3.300648	 -2.115421	 -0.423252	 -2.584115	 -1.332193	 0.833909	 -0.150669	 0.759986	 -0.630784	 0.042791	 2
1462091955.676	 2	 3.550339	 -3.058227	 -0.385172	 -2.512133	 -1.359124	 0.936773	 -0.160318	 0.747805	 -0.641926	 0.054920	 2
1462091955.686	 2	 3.460391	 -3.582261	 -0.376476	 -2.424436	 -1.384167	 1.061858	 -0.171919	 0.735096	 -0.652104	 0.069561	 2
1462091955.696	 2	 3.199643	 -3.406220	 -0.406672	 -2.314950	 -1.404892	 1.208505	 -0.183578	 0.722654	 -0.661086	 0.083879	 2
1462091955.706	 2	 2.830347	 -2.719279	 -0.430103	 -2.184546	 -1.420031	 1.370042	 -0.193466	 0.711212	 -0.669026	 0.095671	 2
1462091955.716	 2	 2.425412	 -1.878160	 -0.474170	 -2.042200	 -1.429151	 1.535001	 -0.200850	 0.701224	 -0.676116	 0.103976	 2
1462091955.726	 2	 2.107265	 -1.208376	 -0.496074	 -1.899231	 -1.433097	 1.693091	 -0.206025	 0.692598	 -0.682588	 0.109250	 2
1462091955.736	 2	 1.884102	 -0.773842	 -0.506074	 -1.763397	 -1.433248	 1.838989	 -0.209654	 0.684958	 -0.688631	 0.112538	 2
1462091955.746	 2	 1.680472	 -0.470415	 -0.547306	 -1.641063	 -1.430210	 1.967980	 -0.212366	 0.678100	 -0.694264	 0.114362	 2
1462091955.756	 2	 1.498765	 -0.264952	 -0.594968	 -1.536535	 -1.424653	 2.076722	 -0.214528	 0.671925	 -0.699474	 0.115024	 2
1462091955.766	 2	 1.349829	 -0.126583	 -0.641409	 -1.449855	 -1.417296	 2.165973	 -0.216390	 0.666297	 -0.704299	 0.114833	 2
1462091955.776	 2	 1.238179	 -0.014802	 -0.672435	 -1.378316	 -1.408730	 2.238856	 -0.218036	 0.661080	 -0.708829	 0.113996	 2
1462091955.786	 2	 1.151330	 0.098425	 -0.640784	 -1.318356	 -1.399719	 2.298967	 -0.219300	 0.656237	 -0.713132	 0.112711	 2
1462091955.796	 2	 1.082910	 0.264843	 -0.600272	 -1.265937	 -1.390883	 2.349974	 -0.219876	 0.651766	 -0.717305	 0.111039	 2
1462091955.806	 2	 1.018889	 0.497919	 -0.606072	 -1.219523	 -1.381827	 2.392758	 -0.219704	 0.647620	 -0.721476	 0.108587	 2
1462091955.816	 2	 0.963495	 0.737459	 -0.596966	 -1.177478	 -1.372684	 2.428641	 -0.218650	 0.643798	 -0.725694	 0.105278	 2
1462091955.826	 2	 0.955347	 0.801459	 -0.574985	 -1.138309	 -1.363532	 2.460443	 -0.217105	 0.640110	 -0.729929	 0.101628	 2
1462091955.836	 2	 0.992875	 0.588835	 -0.546383	 -1.101833	 -1.354263	 2.491003	 -0.215967	 0.636245	 -0.734055	 0.098558	 2
1462091955.846	 2	 1.030554	 0.205827	 -0.546012	 -1.069936	 -1.344680	 2.520579	 -0.216078	 0.632047	 -0.737888	 0.096690	 2
1462091955.856	 2	 1.054421	 -0.170702	 -0.538000	 -1.043226	 -1.334816	 2.548843	 -0.217571	 0.627544	 -0.741363	 0.096081	 2
1462091955.866	 2	 1.094876	 -0.430230	 -0.522649	 -1.020217	 -1.324742	 2.576396	 -0.220090	 0.622770	 -0.744587	 0.096479	 2
1462091955.876	 2	 1.170189	 -0.551491	 -0.493526	 -0.998021	 -1.314375	 2.604774	 -0.223062	 0.617670	 -0.747808	 0.097521	 2
1462091955.886	 2	 1.255577	 -0.584404	 -0.450880	 -0.974888	 -1.303720	 2.634716	 -0.226044	 0.612244	 -0.751178	 0.098959	 2
1462091955.896	 2	 1.349393	 -0.621759	 -0.430729	 -0.950970	 -1.292596	 2.665929	 -0.229014	 0.606456	 -0.754733	 0.100708	 2
1462091955.906	 2	 1.454786	 -0.662603	 -0.446947	 -0.926935	 -1.280597	 2.697746	 -0.232080	 0.600212	 -0.758517	 0.102648	 2
1462091955.916	 2	 1.556812	 -0.726939	 -0.477210	 -0.903672	 -1.267532	 2.729464	 -0.235378	 0.593472	 -0.762505	 0.104759	 2
1462091955.926	 2	 1.628794	 -0.844206	 -0.485322	 -0.882082	 -1.253625	 2.760653	 -0.239057	 0.586297	 -0.766560	 0.107208	 2
1462091955.936	 2	 1.619457	 -1.047039	 -0.445564	 -0.863620	 -1.239649	 2.790580	 -0.243312	 0.578950	 -0.770358	 0.110297	 2
1462091955.946	 2	 1.492999	 -1.233227	 -0.357737	 -0.849746	 -1.226738	 2.817926	 -0.248158	 0.571905	 -0.773509	 0.114133	 2
1462091955.956	 2	 1.283009	 -1.276460	 -0.244406	 -0.839996	 -1.215800	 2.841885	 -0.253100	 0.565632	 -0.775878	 0.118382	 2
1462091955.966	 2	 1.037231	 -1.206914	 -0.140371	 -0.833501	 -1.207210	 2.861927	 -0.257668	 0.560415	 -0.777504	 0.122595	 2
1462091955.976	 2	 0.829413	 -1.218452	 -0.055540	 -0.830019	 -1.200749	 2.878541	 -0.262013	 0.556160	 -0.778433	 0.126793	 2
1462091955.986	 2	 0.716325	 -1.500496	 0.019555	 -0.830135	 -1.195773	 2.893566	 -0.267023	 0.552372	 -0.778615	 0.131689	 2
1462091955.996	 2	 0.664797	 -2.048892	 0.057531	 -0.835605	 -1.191591	 2.908093	 -0.273811	 0.548526	 -0.777879	 0.138024	 2
1462091956.006	 2	 0.592619	 -2.663283	 0.080152	 -0.848062	 -1.188047	 2.921795	 -0.282950	 0.544449	 -0.776005	 0.146052	 2
1462091956.016	 2	 0.370204	 -3.000705	 0.101330	 -0.867714	 -1.185877	 2.932305	 -0.293749	 0.540668	 -0.772889	 0.155023	 2
1462091956.026	 2	 -0.086747	 -2.926093	 0.231763	 -0.893619	 -1.187070	 2.936357	 -0.304637	 0.538428	 -0.768412	 0.163814	 2
1462091956.036	 2	 -0.676640	 -2.640595	 0.495339	 -0.924678	 -1.193665	 2.932136	 -0.314325	 0.538830	 -0.762432	 0.171927	 2
1462091956.046	 2	 -1.164664	 -2.485093	 0.767475	 -0.961105	 -1.205526	 2.919958	 -0.322873	 0.541741	 -0.754973	 0.179679	 2
1462091956.056	 2	 -1.519834	 -2.433251	 1.025767	 -1.003306	 -1.221456	 2.901087	 -0.330785	 0.546435	 -0.746187	 0.187605	 2
1462091956.066	 2	 -1.984063	 -2.018011	 1.337416	 -1.051462	 -1.241800	 2.872890	 -0.337097	 0.553344	 -0.736285	 0.195092	 2
1462091956.076	 2	 -2.642517	 -1.313441	 1.574581	 -1.110997	 -1.266865	 2.825883	 -0.340715	 0.563480	 -0.725365	 0.200623	 2
1462091956.086	 2	 -3.379808	 -0.896989	 1.649887	 -1.196423	 -1.294806	 2.746957	 -0.342791	 0.576775	 -0.712932	 0.203847	 2
1462091956.096	 2	 -4.051229	 -0.722569	 1.670145	 -1.323396	 -1.322586	 2.623444	 -0.344618	 0.592586	 -0.698534	 0.205257	 2
1462091956.106	 2	 -4.429954	 -0.140730	 1.816340	 -1.494079	 -1.347133	 2.451375	 -0.344933	 0.610345	 -0.683036	 0.204846	 2
1462091956.116	 2	 -4.449692	 1.291106	 2.131446	 -1.693224	 -1.366608	 2.238578	 -0.340155	 0.629822	 -0.668639	 0.201348	 2
1462091956.126	 2	 -4.349441	 3.265107	 2.456947	 -1.906092	 -1.379937	 1.993433	 -0.327723	 0.651005	 -0.656888	 0.193099	 2
1462091956.136	 2	 -4.306629	 5.203936	 2.602508	 -2.121778	 -1.384709	 1.725678	 -0.307767	 0.673579	 -0.647727	 0.178942	 2
1462091956.146	 2	 -4.228339	 6.583714	 2.672216	 -2.321362	 -1.379975	 1.458546	 -0.282049	 0.696512	 -0.640176	 0.159666	 2
1462091956.156	 2	 -4.034405	 7.161022	 2.718530	 -2.489530	 -1.367762	 1.215009	 -0.252998	 0.718421	 -0.633145	 0.137807	 2
1462091956.166	 2	 -3.665277	 6.757264	 2.631627	 -2.621011	 -1.351003	 1.009712	 -0.223898	 0.737863	 -0.625989	 0.116466	 2
1462091956.176	 2	 -3.160940	 5.275689	 2.400297	 -2.722568	 -1.332826	 0.846900	 -0.198715	 0.753777	 -0.618424	 0.099412	 2
1462091956.186	 2	 -2.790235	 3.223058	 1.982571	 -2.804214	 -1.313930	 0.724034	 -0.180574	 0.766327	 -0.610109	 0.088895	 2
1462091956.196	 2	 -2.706322	 1.245581	 1.545661	 -2.873956	 -1.292959	 0.633894	 -0.170186	 0.776719	 -0.600451	 0.084872	 2
1462091956.206	 2	 -2.803355	 -0.347013	 1.308942	 -2.939718	 -1.269159	 0.565057	 -0.165999	 0.786111	 -0.589060	 0.086501	 2
1462091956.216	 2	 -2.881554	 -1.444193	 1.194968	 -3.003726	 -1.242937	 0.510446	 -0.165965	 0.794944	 -0.576169	 0.092455	 2
1462091956.226	 2	 -2.780101	 -1.982693	 1.046262	 -3.061657	 -1.216121	 0.468898	 -0.168313	 0.802969	 -0.562823	 0.100708	 2
1462091956.236	 2	 -2.446418	 -2.083237	 0.810085	 -3.108717	 -1.191186	 0.440791	 -0.171951	 0.809699	 -0.550331	 0.109349	 2
1462091956.246	 2	 -1.941993	 -1.736476	 0.577649	 3.139617	 -1.170583	 0.423145	 -0.175577	 0.814849	 -0.539951	 0.116817	 2
1462091956.256	 2	 -1.508415	 -0.969858	 0.279397	 3.119933	 -1.154446	 0.414633	 -0.178259	 0.818773	 -0.532114	 0.121198	 2
1462091956.266	 2	 -1.174030	 0.064819	 -0.054931	 3.118056	 -1.141912	 0.414657	 -0.179407	 0.822000	 -0.526788	 0.120928	 2
1462091956.276	 2	 -0.918113	 0.822422	 -0.201447	 3.128968	 -1.132217	 0.419487	 -0.179035	 0.824777	 -0.523477	 0.116882	 2
1462091956.286	 2	 -0.835360	 1.260508	 -0.038227	 -3.140423	 -1.123807	 0.421833	 -0.176861	 0.827554	 -0.521095	 0.111060	 2
1462091956.296	 2	 -0.972886	 1.456954	 0.301579	 -3.130638	 -1.114566	 0.416885	 -0.172789	 0.830912	 -0.518388	 0.104896	 2
1462091956.306	 2	 -1.211441	 1.435173	 0.721232	 -3.128694	 -1.103142	 0.402853	 -0.167083	 0.835142	 -0.514519	 0.099456	 2
1462091956.316	 2	 -1.395248	 1.270578	 1.123094	 -3.135797	 -1.089680	 0.380039	 -0.160055	 0.840097	 -0.509419	 0.095458	 2
1462091956.326	 2	 -1.420342	 0.971232	 1.341139	 3.133529	 -1.075428	 0.352372	 -0.152573	 0.845217	 -0.503634	 0.093180	 2
1462091956.336	 2	 -1.304959	 0.502221	 1.393322	 3.114868	 -1.061792	 0.323993	 -0.145752	 0.849896	 -0.497774	 0.093026	 2
1462091956.346	 2	 -1.175650	 0.222020	 1.233987	 3.095644	 -1.049273	 0.298741	 -0.140145	 0.853930	 -0.492231	 0.094183	 2
1462091956.356	 2	 -1.105871	 0.167021	 0.865180	 3.081736	 -1.037585	 0.280721	 -0.136128	 0.857417	 -0.487100	 0.095067	 2
1462091956.366	 2	 -1.028486	 0.194495	 0.432062	 3.075786	 -1.026717	 0.271541	 -0.133850	 0.860430	 -0.482444	 0.094830	 2
1462091956.376	 2	 -0.795290	 0.140327	 0.097010	 3.075443	 -1.017996	 0.269313	 -0.133136	 0.862692	 -0.478750	 0.094000	 2
1462091956.386	 2	 -0.451901	 0.038883	 -0.112616	 3.077808	 -1.012641	 0.271283	 -0.133522	 0.863970	 -0.476493	 0.093176	 2
1462091956.396	 2	 -0.130689	 -0.058909	 -0.267661	 3.081325	 -1.010710	 0.275852	 -0.134696	 0.864294	 -0.475678	 0.092643	 2
1462091956.406	 2	 0.147327	 -0.069094	 -0.386345	 3.086160	 -1.011711	 0.282500	 -0.136397	 0.863825	 -0.476133	 0.092191	 2
1462091956.416	 2	 0.418909	 0.131410	 -0.494485	 3.094057	 -1.015441	 0.290992	 -0.138091	 0.862703	 -0.477903	 0.091017	 2
1462091956.426	 2	 0.681689	 0.554843	 -0.665487	 3.108022	 -1.021880	 0.302252	 -0.139419	 0.860986	 -0.481152	 0.088083	 2
1462091956.436	 2	 0.864724	 1.040200	 -0.836283	 3.130154	 -1.030291	 0.317339	 -0.140279	 0.858831	 -0.485678	 0.082756	 2
1462091956.446	 2	 1.045379	 1.388036	 -0.904960	 -3.124892	 -1.040237	 0.334897	 -0.140530	 0.856285	 -0.491222	 0.075683	 2
1462091956.456	 2	 1.475237	 1.732979	 -0.831955	 -3.092794	 -1.053356	 0.352973	 -0.139660	 0.852953	 -0.498412	 0.067464	 2
1462091956.466	 2	 2.449988	 2.075377	 -0.596394	 -3.058276	 -1.074541	 0.369606	 -0.136775	 0.847664	 -0.509216	 0.058792	 2
1462091956.476	 2	 3.781280	 1.924819	 -0.286460	 -3.024545	 -1.108562	 0.384909	 -0.132136	 0.839041	 -0.525243	 0.051683	 2
1462091956.486	 2	 4.419410	 -0.091938	 -0.049671	 -3.005083	 -1.151370	 0.400411	 -0.130040	 0.827535	 -0.543670	 0.051949	 2
1462091956.496	 2	 2.569265	 -4.126121	 0.534252	 -3.033158	 -1.184947	 0.402852	 -0.136075	 0.817650	 -0.555315	 0.067510	 2
1462091956.506	 2	 -0.196423	 -3.657148	 1.164852	 -3.099841	 -1.188949	 0.374238	 -0.142594	 0.815979	 -0.553394	 0.087176	 2
1462091956.516	 2	 -0.985701	 -2.022563	 0.674302	 3.138907	 -1.180535	 0.352443	 -0.146383	 0.817794	 -0.547767	 0.098673	 2
1462091956.526	 2	 -0.678216	 -0.525801	 0.541675	 3.117081	 -1.172430	 0.338754	 -0.147096	 0.819915	 -0.543534	 0.103310	 2
1462091956.536	 2	 -0.155518	 0.529964	 0.844296	 3.102977	 -1.169402	 0.319571	 -0.143171	 0.821406	 -0.542256	 0.103697	 2
1462091956.546	 2	 0.181964	 0.204829	 1.025906	 3.082714	 -1.170059	 0.293793	 -0.138054	 0.821981	 -0.542448	 0.105069	 2
1462091956.556	 2	 0.321768	 -0.362374	 0.894717	 3.057657	 -1.172306	 0.269210	 -0.134698	 0.821698	 -0.542983	 0.108804	 2
1462091956.566	 2	 0.467634	 -0.528795	 0.738428	 3.033115	 -1.175825	 0.248167	 -0.132670	 0.820767	 -0.543968	 0.113306	 2
1462091956.576	 2	 0.580251	 -0.318257	 0.629634	 3.012046	 -1.180609	 0.229576	 -0.130745	 0.819447	 -0.545632	 0.117039	 2
1462091956.586	 2	 0.555933	 0.141644	 0.677821	 2.994342	 -1.185346	 0.210251	 -0.127662	 0.818325	 -0.547589	 0.119131	 2
1462091956.596	 2	 0.271440	 0.378258	 0.777353	 2.978058	 -1.187800	 0.188941	 -0.123418	 0.818001	 -0.548855	 0.119999	 2
1462091956.606	 2	 -0.257266	 0.417820	 0.885703	 2.961668	 -1.185167	 0.166897	 -0.118863	 0.819089	 -0.548100	 0.120628	 2
1462091956.616	 2	 -0.754311	 0.411302	 0.959245	 2.946152	 -1.177153	 0.145583	 -0.114223	 0.821632	 -0.545164	 0.121117	 2
1462091956.626	 2	 -1.156473	 0.520329	 0.871039	 2.934950	 -1.164840	 0.128234	 -0.109838	 0.825339	 -0.540470	 0.121012	 2
1462091956.636	 2	 -1.248894	 1.011535	 0.662197	 2.933342	 -1.151258	 0.117189	 -0.105340	 0.829562	 -0.535379	 0.118744	 2
1462091956.646	 2	 -0.968717	 1.534453	 0.723240	 2.937084	 -1.139399	 0.105723	 -0.099240	 0.833586	 -0.531271	 0.114185	 2
1462091956.656	 2	 -0.217300	 1.774853	 0.737053	 2.940761	 -1.133592	 0.090772	 -0.091853	 0.836069	 -0.529840	 0.108722	 2
1462091956.666	 2	 0.532691	 1.804932	 0.641278	 2.943133	 -1.136064	 0.073295	 -0.083993	 0.836299	 -0.531908	 0.103068	 2
1462091956.676	 2	 0.601635	 1.386728	 0.493976	 2.944494	 -1.141055	 0.058082	 -0.077435	 0.835637	 -0.534824	 0.098378	 2
1462091956.686	 2	 0.462578	 0.706910	 0.414257	 2.941868	 -1.145077	 0.045512	 -0.073028	 0.834895	 -0.537022	 0.096042	 2
1462091956.696	 2	 0.326034	 0.151149	 0.282383	 2.935995	 -1.147958	 0.036076	 -0.070777	 0.834173	 -0.538469	 0.095901	 2
1462091956.706	 2	 0.390397	 -0.308736	 0.105956	 2.929168	 -1.151109	 0.030709	 -0.070503	 0.833179	 -0.539804	 0.097232	 2
1462091956.716	 2	 0.714391	 -0.734019	 -0.034043	 2.919834	 -1.157191	 0.027416	 -0.071910	 0.831183	 -0.542169	 0.100083	 2
1462091956.726	 2	 1.093699	 -1.023931	 -0.111449	 2.907150	 -1.167164	 0.024073	 -0.074414	 0.827932	 -0.546021	 0.104176	 2
1462091956.736	 2	 1.421526	 -1.179356	 -0.144526	 2.891258	 -1.180542	 0.019238	 -0.077410	 0.823584	 -0.551209	 0.109023	 2
1462091956.746	 2	 1.692863	 -1.284927	 -0.219276	 2.873001	 -1.196772	 0.013122	 -0.080794	 0.818294	 -0.557500	 0.114288	 2
1462091956.756	 2	 1.901134	 -1.600173	 -0.339126	 2.852291	 -1.215460	 0.007010	 -0.085156	 0.812079	 -0.564624	 0.120317	 2
1462091956.766	 2	 1.989475	 -2.166606	 -0.531674	 2.828686	 -1.235749	 0.003329	 -0.091605	 0.805005	 -0.572016	 0.127960	 2
1462091956.776	 2	 1.968605	 -2.801914	 -0.732439	 2.802628	 -1.256686	 0.003737	 -0.100636	 0.797225	 -0.579127	 0.137539	 2
1462091956.786	 2	 1.862767	 -3.356096	 -0.927445	 2.775876	 -1.277480	 0.009513	 -0.112165	 0.788938	 -0.585544	 0.148777	 2
1462091956.796	 2	 1.761687	 -3.605878	 -1.091951	 2.751260	 -1.297940	 0.021048	 -0.125423	 0.780305	 -0.591234	 0.160736	 2
1462091956.806	 2	 1.748255	 -3.439482	 -1.178744	 2.730675	 -1.318544	 0.036011	 -0.138880	 0.771438	 -0.596658	 0.172033	 2
1462091956.816	 2	 1.814206	 -2.990137	 -1.229491	 2.714992	 -1.339888	 0.051923	 -0.151287	 0.762422	 -0.602358	 0.181629	 2
1462091956.826	 2	 1.877389	 -2.463019	 -1.263504	 2.705236	 -1.362066	 0.068487	 -0.162166	 0.753394	 -0.608553	 0.189112	 2
1462091956.836	 2	 1.882741	 -1.999370	 -1.273091	 2.701888	 -1.384568	 0.086592	 -0.171589	 0.744532	 -0.615083	 0.194685	 2
1462091956.846	 2	 1.834207	 -1.690479	 -1.231426	 2.703454	 -1.406567	 0.106007	 -0.179792	 0.736002	 -0.621601	 0.198967	 2
1462091956.856	 2	 1.729059	 -1.599627	 -1.212613	 2.710771	 -1.427631	 0.129685	 -0.187498	 0.727780	 -0.627778	 0.202670	 2
1462091956.866	 2	 1.602747	 -1.676936	 -1.217562	 2.726842	 -1.447506	 0.162584	 -0.195435	 0.719778	 -0.633346	 0.206391	 2
1462091956.876	 2	 1.488811	 -1.654003	 -1.181186	 2.754737	 -1.466151	 0.207483	 -0.203456	 0.712021	 -0.638356	 0.210080	 2
1462091956.886	 2	 1.388562	 -1.517733	 -1.057548	 2.792235	 -1.483250	 0.260753	 -0.210803	 0.704726	 -0.642902	 0.213544	 2
1462091956.896	 2	 1.316245	 -1.383319	 -0.885146	 2.834721	 -1.498869	 0.317600	 -0.217210	 0.697907	 -0.647058	 0.216937	 2
1462091956.906	 2	 1.291358	 -1.209164	 -0.640315	 2.868719	 -1.513268	 0.364269	 -0.222310	 0.691565	 -0.650935	 0.220452	 2
1462091956.916	 2	 1.291912	 -1.005867	 -0.473235	 2.889772	 -1.527091	 0.395869	 -0.226069	 0.685601	 -0.654780	 0.223846	 2
1462091956.926	 2	 1.270460	 -0.949231	 -0.298802	 2.882772	 -1.540312	 0.398425	 -0.228937	 0.679941	 -0.658439	 0.227433	 2
1462091956.936	 2	 1.232636	 -0.958586	 -0.137629	 2.788700	 -1.552691	 0.313854	 -0.231254	 0.674549	 -0.661749	 0.231504	 2
1462091956.946	 2	 1.227541	 -1.050929	 0.033143	 2.217381	 -1.563007	 -0.247331	 -0.233247	 0.669285	 -0.664695	 0.236292	 2
1462091956.956	 2	 1.295841	 -1.176614	 0.182718	 0.754801	 -1.559585	 -1.698474	 -0.235047	 0.663830	 -0.667433	 0.242108	 2
1462091956.966	 2	 1.345962	 -1.271729	 0.286906	 0.437801	 -1.546923	 -2.003000	 -0.236726	 0.658142	 -0.670045	 0.248696	 2
1462091956.976	 2	 1.373674	 -1.349906	 0.371199	 0.357103	 -1.532946	 -2.070420	 -0.238323	 0.652284	 -0.672508	 0.255852	 2
1462091956.986	 2	 1.407937	 -1.383543	 0.439862	 0.328120	 -1.518382	 -2.085653	 -0.239771	 0.646307	 -0.674840	 0.263418	 2
1462091956.996	 2	 1.497357	 -1.424278	 0.432310	 0.306405	 -1.503000	 -2.093293	 -0.241158	 0.639959	 -0.677308	 0.271198	 2
1462091957.006	 2	 1.489662	 -1.436265	 0.389635	 0.284786	 -1.487463	 -2.100567	 -0.242692	 0.633371	 -0.679803	 0.278945	 2
1462091957.016	 2	 1.303003	 -1.396527	 0.367117	 0.268942	 -1.473362	 -2.102347	 -0.244393	 0.627200	 -0.681855	 0.286296	 2
1462091957.026	 2	 0.994970	 -1.326396	 0.380044	 0.263055	 -1.462020	 -2.094700	 -0.246274	 0.622041	 -0.683011	 0.293104	 2
1462091957.036	 2	 0.697230	 -1.161195	 0.453448	 0.269596	 -1.453493	 -2.075973	 -0.247932	 0.618163	 -0.683264	 0.299255	 2
1462091957.046	 2	 0.522804	 -0.932016	 0.598845	 0.291355	 -1.446613	 -2.044079	 -0.248751	 0.615468	 -0.682900	 0.304909	 2
1462091957.056	 2	 0.492439	 -0.709596	 0.750386	 0.325115	 -1.439691	 -2.002303	 -0.248403	 0.613478	 -0.682374	 0.310333	 2
1462091957.066	 2	 0.426634	 -0.542312	 0.911314	 0.368137	 -1.432576	 -1.953149	 -0.247005	 0.612139	 -0.681683	 0.315567	 2
1462091957.076	 2	 0.363036	 -0.491780	 0.960298	 0.415431	 -1.425390	 -1.900333	 -0.245153	 0.611240	 -0.680694	 0.320844	 2
1462091957.086	 2	 0.385491	 -0.710927	 0.963392	 0.456542	 -1.417935	 -1.852289	 -0.243787	 0.610108	 -0.679498	 0.326526	 2
1462091957.096	 2	 0.437667	 -1.167542	 0.939505	 0.487261	 -1.409810	 -1.810674	 -0.243717	 0.608098	 -0.677970	 0.333429	 2
1462091957.106	 2	 0.377198	 -1.692391	 0.847755	 0.506192	 -1.402126	 -1.775657	 -0.245680	 0.605170	 -0.675808	 0.341605	 2
1462091957.116	 2	 0.277044	 -2.084790	 0.817266	 0.518811	 -1.395530	 -1.742523	 -0.249452	 0.601715	 -0.672809	 0.350771	 2
1462091957.126	 2	 0.264398	 -2.139298	 0.922379	 0.532263	 -1.388784	 -1.706976	 -0.253548	 0.598105	 -0.669328	 0.360533	 2
1462091957.136	 2	 0.133044	 -1.568230	 1.296525	 0.563245	 -1.381094	 -1.657554	 -0.255566	 0.595791	 -0.665474	 0.369950	 2
1462091957.146	 2	 -0.351513	 -0.630681	 2.050173	 0.637409	 -1.372376	 -1.573277	 -0.253300	 0.597186	 -0.660366	 0.378317	 2
1462091957.156	 2	 -1.087645	 0.336751	 2.569690	 0.759605	 -1.363428	 -1.449358	 -0.247331	 0.603476	 -0.652960	 0.385081	 2
1462091957.166	 2	 -1.360359	 1.392059	 2.781182	 0.901064	 -1.352270	 -1.316128	 -0.237979	 0.613251	 -0.645026	 0.388884	 2
1462091957.176	 2	 -1.262276	 2.471425	 3.086653	 1.043316	 -1.334705	 -1.192955	 -0.224064	 0.625241	 -0.637691	 0.390152	 2
1462091957.186	 2	 -1.077194	 2.828852	 3.315375	 1.168543	 -1.310572	 -1.092543	 -0.207122	 0.637758	 -0.630787	 0.390477	 2
1462091957.196	 2	 -0.838760	 2.779421	 3.488690	 1.268570	 -1.281259	 -1.017523	 -0.189050	 0.649438	 -0.623896	 0.391464	 2
1462091957.206	 2	 -0.490290	 2.486635	 3.442433	 1.341325	 -1.249465	 -0.968359	 -0.170878	 0.659455	 -0.617509	 0.393194	 2
1462091957.216	 2	 -0.106096	 1.983937	 3.504750	 1.388030	 -1.215773	 -0.941339	 -0.153186	 0.667042	 -0.611730	 0.396706	 2
1462091957.226	 2	 0.179127	 1.566390	 3.535683	 1.416963	 -1.180769	 -0.927908	 -0.136146	 0.672558	 -0.606212	 0.402040	 2
1462091957.236	 2	 0.531668	 1.483961	 3.458309	 1.433329	 -1.145636	 -0.926327	 -0.118982	 0.676448	 -0.601617	 0.407821	 2
1462091957.246	 2	 0.782341	 1.556840	 3.342768	 1.442804	 -1.111308	 -0.932764	 -0.101493	 0.679261	 -0.598017	 0.413134	 2
1462091957.256	 2	 0.987111	 1.573938	 3.289988	 1.448549	 -1.077358	 -0.944027	 -0.083611	 0.681271	 -0.595065	 0.418064	 2
1462091957.266	 2	 1.024869	 1.564194	 3.135032	 1.452805	 -1.044531	 -0.957134	 -0.065937	 0.682706	 -0.592471	 0.422544	 2
1462091957.276	 2	 0.723271	 1.951766	 2.777840	 1.462596	 -1.014929	 -0.966648	 -0.049026	 0.684912	 -0.589677	 0.425174	 2
1462091957.286	 2	 0.497158	 2.238427	 2.469142	 1.480407	 -0.989308	 -0.971764	 -0.032737	 0.688577	 -0.586581	 0.425103	 2
1462091957.296	 2	 0.404836	 2.221889	 2.351492	 1.499018	 -0.965190	 -0.976055	 -0.017099	 0.692311	 -0.583293	 0.424478	 2
1462091957.306	 2	 0.198624	 2.339090	 2.149752	 1.520526	 -0.943099	 -0.978070	 -0.002204	 0.696592	 -0.579621	 0.422842	 2
1462091957.316	 2	 0.076588	 2.378831	 2.007307	 1.544088	 -0.922708	 -0.978460	 0.012023	 0.701281	 -0.575624	 0.420378	 2
1462091957.326	 2	 -0.131834	 2.199589	 2.139608	 1.567604	 -0.901695	 -0.976906	 0.025674	 0.705940	 -0.570780	 0.418570	 2
1462091957.336	 2	 -0.428536	 2.158224	 2.182305	 1.593533	 -0.879939	 -0.971570	 0.038806	 0.711152	 -0.564627	 0.417077	 2
1462091957.346	 2	 -0.638519	 1.906385	 2.276643	 1.619399	 -0.857278	 -0.963639	 0.051146	 0.716438	 -0.557384	 0.416442	 2
1462091957.356	 2	 -0.826115	 1.651272	 2.368624	 1.643683	 -0.833371	 -0.954095	 0.062709	 0.721491	 -0.549210	 0.416997	 2
1462091957.366	 2	 -0.976863	 1.312889	 2.432865	 1.665666	 -0.808491	 -0.943254	 0.073310	 0.726178	 -0.540262	 0.418818	 2
1462091957.376	 2	 -1.011577	 0.926192	 2.481791	 1.683516	 -0.782854	 -0.932562	 0.082922	 0.730064	 -0.530989	 0.422116	 2
1462091957.386	 2	 -0.949448	 0.536613	 2.465902	 1.696349	 -0.757126	 -0.923266	 0.091595	 0.732883	 -0.521917	 0.426727	 2
1462091957.396	 2	 -0.800065	 0.131556	 2.404346	 1.703548	 -0.732093	 -0.916090	 0.099240	 0.734422	 -0.513516	 0.432524	 2
1462091957.406	 2	 -0.582513	 -0.543717	 2.362064	 1.702713	 -0.707652	 -0.911951	 0.105698	 0.734033	 -0.506186	 0.440227	 2
1462091957.416	 2	 -0.513871	 -1.474609	 2.211058	 1.692293	 -0.684673	 -0.908912	 0.109668	 0.731378	 -0.499929	 0.450699	 2
1462091957.426	 2	 -0.472560	 -2.313982	 2.055812	 1.673133	 -0.663324	 -0.905792	 0.110955	 0.726593	 -0.494552	 0.463865	 2
1462091957.436	 2	 -0.493001	 -3.118114	 1.895038	 1.646318	 -0.643620	 -0.901937	 0.109646	 0.719830	 -0.489860	 0.479437	 2
1462091957.446	 2	 -0.606114	 -3.868940	 1.714251	 1.612882	 -0.625715	 -0.896128	 0.105553	 0.711273	 -0.485499	 0.497231	 2
1462091957.456	 2	 -0.768941	 -4.526020	 1.533704	 1.574131	 -0.609780	 -0.887675	 0.098737	 0.701155	 -0.481169	 0.516827	 2
1462091957.466	 2	 -0.967818	 -5.131953	 1.351824	 1.530961	 -0.594826	 -0.876151	 0.089667	 0.689542	 -0.476313	 0.538162	 2
1462091957.476	 2	 -1.200361	 -5.669418	 1.211386	 1.484279	 -0.580443	 -0.861230	 0.078672	 0.676522	 -0.470543	 0.560998	 2
1462091957.486	 2	 -1.461679	 -6.059278	 1.172732	 1.434425	 -0.570295	 -0.843149	 0.064662	 0.662270	 -0.464641	 0.584231	 2
1462091957.496	 2	 -1.701154	 -6.377642	 1.175052	 1.382906	 -0.561389	 -0.821708	 0.049071	 0.646941	 -0.457565	 0.608024	 2
1462091957.506	 2	 -1.899996	 -6.705469	 1.208903	 1.329671	 -0.553635	 -0.797363	 0.032157	 0.630400	 -0.449273	 0.632231	 2
1462091957.516	 2	 -2.071080	 -7.044956	 1.259456	 1.273920	 -0.546932	 -0.770532	 0.014010	 0.612269	 -0.439738	 0.656933	 2
1462091957.526	 2	 -2.197879	 -6.996779	 1.251416	 1.218515	 -0.541998	 -0.741819	 -0.004748	 0.593450	 -0.429171	 0.680887	 2
1462091957.536	 2	 -2.204177	 -6.770026	 1.277028	 1.165379	 -0.538411	 -0.712386	 -0.023165	 0.574597	 -0.417847	 0.703354	 2
1462091957.546	 2	 -2.010185	 -6.681556	 1.381672	 1.113084	 -0.534819	 -0.683905	 -0.040525	 0.555214	 -0.406103	 0.724690	 2
1462091957.556	 2	 -1.732562	 -6.537785	 1.519142	 1.060452	 -0.530022	 -0.657481	 -0.056281	 0.534887	 -0.394165	 0.745226	 2
1462091957.566	 2	 -1.754711	 -5.714371	 1.681533	 1.014355	 -0.524753	 -0.630632	 -0.070076	 0.516274	 -0.381573	 0.763513	 2
1462091957.576	 2	 -1.911049	 -4.537154	 2.030629	 0.981117	 -0.518742	 -0.600390	 -0.081457	 0.501893	 -0.367535	 0.778708	 2
1462091957.586	 2	 -1.885677	 -3.584376	 2.450658	 0.959588	 -0.510153	 -0.567020	 -0.089952	 0.491442	 -0.351935	 0.791540	 2
1462091957.596	 2	 -1.558043	 -3.093375	 2.676185	 0.943611	 -0.498318	 -0.534142	 -0.095621	 0.482812	 -0.335916	 0.803062	 2
1462091957.606	 2	 -1.091642	 -2.891307	 2.715569	 0.928085	 -0.483644	 -0.504859	 -0.098831	 0.474257	 -0.320630	 0.813946	 2
1462091957.616	 2	 -0.703307	 -2.665051	 2.685517	 0.912476	 -0.466999	 -0.479423	 -0.100014	 0.465679	 -0.306381	 0.824179	 2
1462091957.626	 2	 -0.440671	 -2.409545	 2.678148	 0.897852	 -0.449047	 -0.456607	 -0.099617	 0.457523	 -0.292901	 0.833642	 2
1462091957.636	 2	 -0.232542	 -2.224678	 2.734541	 0.884289	 -0.429697	 -0.435296	 -0.097882	 0.449789	 -0.279753	 0.842524	 2
1462091957.646	 2	 -0.031517	 -2.202401	 2.807602	 0.870587	 -0.408765	 -0.415068	 -0.095010	 0.441960	 -0.266692	 0.851187	 2
1462091957.656	 2	 0.183224	 -2.396448	 2.829505	 0.854515	 -0.386432	 -0.396178	 -0.091307	 0.433104	 -0.253783	 0.860045	 2
1462091957.666	 2	 0.418802	 -2.612567	 2.749773	 0.835098	 -0.363285	 -0.379253	 -0.086985	 0.422825	 -0.241406	 0.869124	 2
1462091957.676	 2	 0.678743	 -2.798507	 2.588047	 0.812552	 -0.339824	 -0.365028	 -0.082056	 0.411224	 -0.230042	 0.878204	 2
1462091957.686	 2	 0.921363	 -3.051276	 2.443968	 0.786399	 -0.316023	 -0.353300	 -0.076593	 0.398026	 -0.219652	 0.887390	 2
1462091957.696	 2	 1.168614	 -3.194786	 2.260361	 0.757517	 -0.291994	 -0.344051	 -0.070550	 0.383571	 -0.210353	 0.896464	 2
1462091957.706	 2	 1.446344	 -3.183345	 2.043832	 0.727336	 -0.267688	 -0.337626	 -0.063716	 0.368466	 -0.202412	 0.905098	 2
1462091957.716	 2	 1.763485	 -2.970916	 1.838421	 0.697857	 -0.242621	 -0.334231	 -0.055685	 0.353567	 -0.195963	 0.912956	 2
1462091957.726	 2	 2.124934	 -2.711215	 1.716193	 0.670231	 -0.215879	 -0.333577	 -0.046044	 0.339317	 -0.190807	 0.919965	 2
1462091957.736	 2	 2.507288	 -2.451487	 1.752583	 0.644906	 -0.186200	 -0.334612	 -0.034400	 0.325799	 -0.186309	 0.926262	 2
1462091957.746	 2	 2.830278	 -2.236206	 1.942545	 0.621682	 -0.152777	 -0.335662	 -0.020693	 0.312819	 -0.181588	 0.932063	 2
1462091957.756	 2	 3.110039	 -2.105090	 2.095865	 0.600485	 -0.116059	 -0.336249	 -0.005215	 0.300362	 -0.176490	 0.937340	 2
1462091957.766	 2	 3.284617	 -1.822023	 2.186503	 0.581438	 -0.076998	 -0.336294	 0.011581	 0.288560	 -0.171091	 0.941980	 2
1462091957.776	 2	 3.411575	 -1.515773	 2.081671	 0.565539	 -0.037126	 -0.336792	 0.029183	 0.278010	 -0.166023	 0.945672	 2
1462091957.786	 2	 3.609854	 -1.333259	 1.809874	 0.551845	 0.003037	 -0.339660	 0.047485	 0.268268	 -0.162214	 0.948401	 2
1462091957.796	 2	 4.013885	 -1.818715	 1.471452	 0.535864	 0.044307	 -0.346447	 0.066660	 0.257030	 -0.160392	 0.950666	 2
1462091957.806	 2	 4.459118	 -2.586425	 1.094875	 0.512438	 0.088051	 -0.358026	 0.086975	 0.241552	 -0.161103	 0.952960	 2
1462091957.816	 2	 4.564954	 -2.966554	 0.786674	 0.485062	 0.132215	 -0.372448	 0.107386	 0.223620	 -0.163748	 0.954803	 2
1462091957.826	 2	 4.303351	 -2.857442	 0.620511	 0.458071	 0.174272	 -0.386692	 0.126632	 0.205678	 -0.167026	 0.955910	 2
1462091957.836	 2	 3.915592	 -2.352231	 0.463395	 0.435648	 0.212618	 -0.399689	 0.144198	 0.190042	 -0.170257	 0.956087	 2
1462091957.846	 2	 3.636801	 -1.783858	 0.260091	 0.419343	 0.247560	 -0.412505	 0.160500	 0.177437	 -0.173623	 0.955307	 2
1462091957.866	 2	 3.374034	 -1.226046	 0.073600	 0.399655	 0.311832	 -0.439144	 0.191252	 0.158235	 -0.180804	 0.951680	 2
1462091957.876	 3	 3.300622	 -1.249680	 0.158215	 0.391255	 0.342932	 -0.451381	 0.205989	 0.149220	 -0.183966	 0.949452	 2
1462091957.886	 3	 3.256092	 -1.328108	 0.325197	 0.381716	 0.374244	 -0.461739	 0.220458	 0.139649	 -0.186393	 0.947182	 2
1462091957.906	 4	 3.074736	 -0.942033	 0.689531	 0.363903	 0.437334	 -0.475668	 0.248958	 0.121404	 -0.188043	 0.942295	 2
1462091957.916	 4	 2.762252	 -0.364469	 0.859622	 0.359924	 0.466892	 -0.478343	 0.262370	 0.115263	 -0.186522	 0.939727	 2
1462091957.926	 4	 2.396442	 0.059527	 0.952013	 0.359733	 0.493386	 -0.478326	 0.274516	 0.111630	 -0.183569	 0.937274	 2
1462091957.936	 4	 2.214532	 -0.052609	 0.962146	 0.359176	 0.517840	 -0.477045	 0.285583	 0.108261	 -0.180279	 0.934998	 2
1462091957.946	 4	 2.089836	 -0.408024	 0.888518	 0.355340	 0.540915	 -0.475768	 0.295694	 0.103549	 -0.177617	 0.932896	 2
1462091957.966	 5	 1.614053	 -0.814945	 0.610710	 0.340777	 0.579695	 -0.474452	 0.311966	 0.091747	 -0.174838	 0.929350	 2
1462091957.976	 5	 1.402803	 -0.960640	 0.528064	 0.331324	 0.595206	 -0.474037	 0.318148	 0.085340	 -0.174407	 0.927945	 2
1462091957.986	 5	 1.227802	 -1.172937	 0.515889	 0.319617	 0.608895	 -0.473053	 0.323280	 0.078236	 -0.174329	 0.926811	 2
1462091957.996	 5	 1.062549	 -1.403985	 0.562072	 0.304875	 0.621092	 -0.470823	 0.327428	 0.070149	 -0.174389	 0.925991	 2
1462091958.006	 5	 0.884310	 -1.709134	 0.651374	 0.286179	 0.631819	 -0.466782	 0.330517	 0.060751	 -0.174484	 0.925539	 2
1462091958.026	 6	 0.502520	 -2.051146	 0.855076	 0.238089	 0.648316	 -0.452053	 0.333442	 0.038839	 -0.174067	 0.925748	 2
1462091958.036	 6	 0.384298	 -2.033502	 0.893571	 0.211749	 0.654261	 -0.442328	 0.333697	 0.027542	 -0.173439	 0.926178	 2
1462091958.046	 6	 0.362337	 -1.924009	 0.876663	 0.186049	 0.659565	 -0.432308	 0.333783	 0.016685	 -0.172659	 0.926553	 2
1462091958.056	 6	 0.402683	 -1.707448	 0.835697	 0.162400	 0.664868	 -0.422595	 0.334115	 0.006747	 -0.171712	 0.926734	 2
1462091958.066	 6	 0.486172	 -1.397389	 0.798422	 0.141858	 0.670649	 -0.413320	 0.334995	 -0.001855	 -0.170451	 0.926672	 2
1462091958.076	 6	 0.610238	 -1.069478	 0.746039	 0.124944	 0.677383	 -0.404634	 0.336674	 -0.008949	 -0.168835	 0.926318	 2
1462091958.086	 6	 0.719838	 -0.821686	 0.639748	 0.111453	 0.685065	 -0.397111	 0.339112	 -0.014718	 -0.167166	 0.925658	 2
1462091958.096	 6	 0.748399	 -0.744196	 0.483554	 0.100343	 0.693065	 -0.391401	 0.341909	 -0.019692	 -0.165956	 0.924754	 2
1462091958.106	 6	 0.640374	 -0.947663	 0.396274	 0.088575	 0.700148	 -0.386848	 0.344236	 -0.025049	 -0.165484	 0.923845	 2
1462091958.116	 6	 0.468409	 -1.170815	 0.355196	 0.074643	 0.705563	 -0.382641	 0.345627	 -0.031279	 -0.165664	 0.923103	 2
1462091958.126	 6	 0.295795	 -1.297247	 0.304366	 0.059410	 0.709128	 -0.378757	 0.346067	 -0.037973	 -0.166334	 0.922566	 2
1462091958.136	 6	 0.170575	 -1.308082	 0.226489	 0.044218	 0.711248	 -0.375629	 0.345839	 -0.044633	 -0.167425	 0.922156	 2
1462091958.146	 6	 0.074888	 -1.164794	 0.146592	 0.030746	 0.712276	 -0.373491	 0.345230	 -0.050568	 -0.168725	 0.921841	 2
1462091958.156	 6	 0.025744	 -0.874935	 0.056996	 0.020409	 0.712653	 -0.372425	 0.344556	 -0.055181	 -0.170001	 0.921594	 2
1462091958.166	 6	 0.015072	 -0.360653	 -0.016992	 0.015469	 0.712808	 -0.372472	 0.344205	 -0.057479	 -0.170868	 0.921424	 2
1462091958.176	 6	 0.056649	 0.044786	 0.027983	 0.015124	 0.713259	 -0.372415	 0.344385	 -0.057668	 -0.170885	 0.921342	 2
1462091958.186	 6	 0.087410	 0.078983	 0.209213	 0.014581	 0.714112	 -0.370312	 0.344792	 -0.057631	 -0.169980	 0.921360	 2
1462091958.196	 6	 0.088932	 0.028135	 0.384577	 0.012049	 0.715046	 -0.365765	 0.345139	 -0.058094	 -0.168289	 0.921511	 2
1462091958.206	 6	 0.098430	 -0.078591	 0.484749	 0.007503	 0.716050	 -0.359621	 0.345401	 -0.059214	 -0.166208	 0.921719	 2
1462091958.216	 6	 0.087522	 -0.161239	 0.523508	 0.001561	 0.716992	 -0.352762	 0.345551	 -0.060846	 -0.164043	 0.921945	 2
1462091958.226	 6	 0.051114	 -0.185610	 0.521467	 -0.004813	 0.717612	 -0.345857	 0.345530	 -0.062642	 -0.161942	 0.922204	 2
1462091958.236	 6	 0.005386	 -0.165085	 0.542217	 0.000678	 0.708793	 -0.346496	 0.341884	 -0.059508	 -0.161554	 0.923837	 2
1462091958.246	 6	 0.007835	 0.003143	 0.421198	 -0.003754	 0.708841	 -0.340435	 0.341733	 -0.060524	 -0.159510	 0.924182	 2
1462091958.256	 6	 0.014713	 0.277100	 0.214798	 -0.003981	 0.708965	 -0.336912	 0.341878	 -0.060036	 -0.157917	 0.924433	 2
1462091958.266	 6	 -0.028316	 0.530567	 0.096034	 -0.000250	 0.708837	 -0.335383	 0.342158	 -0.058040	 -0.156576	 0.924686	 2
1462091958.276	 6	 -0.159090	 0.656369	 0.077991	 0.021826	 0.698657	 -0.344960	 0.338928	 -0.048637	 -0.157571	 0.926247	 2
1462091958.286	 6	 -0.329777	 0.649597	 0.101795	 0.027597	 0.695811	 -0.343654	 0.338095	 -0.045507	 -0.156089	 0.926961	 2
1462091958.296	 6	 -0.464474	 0.525136	 0.191333	 0.031738	 0.691507	 -0.341350	 0.336475	 -0.042843	 -0.154476	 0.927947	 2
1462091958.306	 6	 -0.481143	 0.297267	 0.295934	 0.032950	 0.686741	 -0.337631	 0.334438	 -0.041264	 -0.152718	 0.929045	 2
1462091958.326	 7	 -0.161797	 -0.249075	 0.473513	 0.024666	 0.680645	 -0.326528	 0.331217	 -0.042780	 -0.149144	 0.930710	 2
1462091958.336	 7	 0.090629	 -0.394121	 0.521122	 0.016536	 0.681022	 -0.319920	 0.330935	 -0.045499	 -0.147403	 0.930959	 2
1462091958.346	 7	 0.401851	 -0.200832	 0.460528	 0.010078	 0.684285	 -0.313742	 0.332124	 -0.047727	 -0.145502	 0.930723	 2
1462091958.356	 7	 0.736411	 -0.011029	 0.368791	 0.006249	 0.690897	 -0.308866	 0.335039	 -0.049181	 -0.143686	 0.929884	 2
1462091958.366	 8	 0.840598	 0.654929	 0.283491	 0.008373	 0.699160	 -0.304833	 0.339127	 -0.048113	 -0.141225	 0.928835	 2
1462091958.386	 8	 0.687225	 1.669832	 -0.041445	 0.037075	 0.715151	 -0.304144	 0.348536	 -0.035848	 -0.135467	 0.926761	 2
1462091958.396	 8	 0.398002	 1.445151	 -0.047412	 0.052841	 0.719896	 -0.305076	 0.351771	 -0.029064	 -0.132963	 0.926139	 2
1462091958.406	 8	 0.037600	 1.018970	 -0.001346	 0.064419	 0.721168	 -0.305392	 0.353118	 -0.023855	 -0.131018	 0.926052	 2
1462091958.416	 8	 -0.266592	 0.486540	 0.082675	 0.069985	 0.719242	 -0.304405	 0.352603	 -0.020955	 -0.129660	 0.926510	 2
1462091958.426	 8	 -0.456538	 -0.018701	 0.148902	 0.069574	 0.715176	 -0.302248	 0.350722	 -0.020454	 -0.128906	 0.927340	 2
1462091958.436	 8	 -0.525306	 -0.363999	 0.172932	 0.064901	 0.710160	 -0.299545	 0.348132	 -0.021769	 -0.128678	 0.928317	 2
1462091958.446	 8	 -0.506810	 -0.490833	 0.143881	 0.058595	 0.705108	 -0.297114	 0.345415	 -0.023897	 -0.128844	 0.929256	 2
