% Gyrometer data recorded with 'snsrlog'
% 
% 
% Label description:
% 	 0: Default Label
% 	 1: still_drop
% 	 2: walk_drop
% 	 3: other
% 	 4: dtw_same
% 	 5: dtw_diff
% 	 6: delete
% 
% Column description:
% 	 1: Seconds.milliseconds since 1970
% 	 2: Number of skipped measurements
% 	 3: Gyro X
% 	 4: Gyro Y
% 	 5: Gyro Z
% 	 6: Roll of the device
% 	 7: Pitch of the device
% 	 8: Yaw of the device
% 	 9: Quaternion X
% 	 10: Quaternion Y
% 	 11: Quaternion Z
% 	 12: Quaternion W
% 	 13: Label used for the current sample
% 
% 
1462090939.297	 0	 -0.278873	 3.925478	 -2.084927	 0.698907	 -0.057888	 -0.249368	 0.015582	 0.342966	 -0.126628	 0.930643	 1
1462090939.307	 0	 -0.139240	 4.065898	 -2.025154	 0.738152	 -0.072597	 -0.263587	 0.013823	 0.361838	 -0.135461	 0.922243	 1
1462090939.317	 0	 -0.023502	 4.411086	 -2.045331	 0.780131	 -0.086957	 -0.278046	 0.012831	 0.381795	 -0.144413	 0.912805	 1
1462090939.327	 0	 0.041288	 4.888737	 -2.153355	 0.826335	 -0.102005	 -0.293063	 0.012358	 0.403510	 -0.153797	 0.901872	 1
1462090939.337	 0	 -0.006686	 5.282122	 -2.340048	 0.876678	 -0.119105	 -0.308314	 0.011804	 0.426934	 -0.163746	 0.889256	 1
1462090939.347	 0	 -0.210847	 5.256980	 -2.662496	 0.927686	 -0.140222	 -0.323192	 0.009970	 0.450555	 -0.174473	 0.875477	 1
1462090939.357	 0	 -0.582718	 4.806357	 -3.057784	 0.975058	 -0.167086	 -0.336599	 0.005511	 0.472564	 -0.186012	 0.861425	 1
1462090939.367	 0	 -1.118971	 4.052626	 -3.370265	 1.015784	 -0.200079	 -0.346494	 -0.002543	 0.491704	 -0.197714	 0.848015	 1
1462090939.377	 0	 -1.697371	 3.077670	 -3.552284	 1.048138	 -0.238210	 -0.351254	 -0.014479	 0.507194	 -0.208749	 0.836043	 1
1462090939.387	 0	 -2.196175	 1.904487	 -3.610014	 1.070313	 -0.279786	 -0.350729	 -0.029998	 0.518174	 -0.218627	 0.826316	 1
1462090939.397	 0	 -2.579936	 0.822155	 -3.560259	 1.082646	 -0.323090	 -0.345493	 -0.048379	 0.524687	 -0.227039	 0.819034	 1
1462090939.417	 1	 -2.772799	 -0.376957	 -3.403479	 1.088349	 -0.410139	 -0.327537	 -0.089252	 0.528487	 -0.240578	 0.809233	 1
1462090939.427	 1	 -2.559272	 -0.452283	 -3.290936	 1.087373	 -0.451718	 -0.318950	 -0.109161	 0.528193	 -0.246825	 0.805092	 1
1462090939.447	 2	 -1.882851	 0.453557	 -3.066718	 1.092350	 -0.527411	 -0.308910	 -0.142941	 0.529763	 -0.260697	 0.794328	 1
1462090939.457	 2	 -1.430010	 1.324269	 -2.936799	 1.103436	 -0.560919	 -0.308601	 -0.155518	 0.533916	 -0.269131	 0.786330	 1
1462090939.467	 2	 -0.867786	 2.290532	 -2.786693	 1.121681	 -0.590736	 -0.312716	 -0.164251	 0.541042	 -0.279099	 0.776144	 1
1462090939.477	 2	 -0.311125	 3.224762	 -2.656021	 1.146573	 -0.616930	 -0.321595	 -0.169026	 0.550965	 -0.290705	 0.763779	 1
1462090939.487	 2	 0.188929	 4.046414	 -2.671913	 1.176933	 -0.641041	 -0.335445	 -0.170442	 0.563172	 -0.304217	 0.749158	 1
1462090939.497	 2	 0.617229	 4.687669	 -2.806093	 1.210848	 -0.664892	 -0.354307	 -0.169348	 0.576822	 -0.319797	 0.732344	 1
1462090939.507	 2	 0.995415	 5.125802	 -2.956647	 1.246452	 -0.689372	 -0.377766	 -0.166353	 0.591075	 -0.337206	 0.713617	 1
1462090939.527	 3	 1.756225	 5.227822	 -3.100871	 1.311780	 -0.739891	 -0.438585	 -0.155986	 0.617322	 -0.375962	 0.673226	 1
1462090939.537	 3	 2.091546	 4.985950	 -3.025043	 1.337128	 -0.764571	 -0.475488	 -0.149051	 0.627879	 -0.396197	 0.653130	 1
1462090939.547	 3	 2.344515	 4.632216	 -2.861081	 1.356104	 -0.787848	 -0.515804	 -0.141293	 0.636316	 -0.416216	 0.633958	 1
1462090939.557	 3	 2.463241	 4.248696	 -2.605638	 1.369346	 -0.808971	 -0.557983	 -0.132958	 0.642858	 -0.435370	 0.616043	 1
1462090939.567	 3	 2.416862	 3.712429	 -2.359770	 1.377359	 -0.827848	 -0.599894	 -0.124753	 0.647624	 -0.453058	 0.599798	 1
1462090939.577	 3	 2.212484	 3.153321	 -2.101015	 1.381034	 -0.844930	 -0.639413	 -0.117485	 0.650841	 -0.468905	 0.585433	 1
1462090939.587	 3	 1.835135	 2.450088	 -1.692889	 1.381747	 -0.858960	 -0.673430	 -0.111485	 0.652834	 -0.481936	 0.573687	 1
1462090939.597	 3	 1.422050	 1.661660	 -1.314021	 1.379704	 -0.869852	 -0.700550	 -0.107204	 0.653651	 -0.491918	 0.565035	 1
1462090939.607	 3	 1.071887	 0.949949	 -1.037299	 1.374801	 -0.878444	 -0.721528	 -0.104784	 0.653348	 -0.499384	 0.559261	 1
1462090939.617	 3	 0.789755	 0.427191	 -0.783924	 1.368022	 -0.885060	 -0.737364	 -0.103799	 0.652275	 -0.504825	 0.555801	 1
1462090939.627	 3	 0.611964	 0.078566	 -0.529837	 1.360334	 -0.889527	 -0.749334	 -0.103526	 0.650767	 -0.508663	 0.554118	 1
1462090939.637	 3	 0.562398	 -0.221631	 -0.292403	 1.351060	 -0.891738	 -0.759349	 -0.103470	 0.648725	 -0.511403	 0.554001	 1
1462090939.647	 3	 0.569762	 -0.445398	 -0.052621	 1.339930	 -0.891589	 -0.768545	 -0.103288	 0.646113	 -0.513348	 0.555287	 1
1462090939.657	 3	 0.588610	 -0.529586	 0.225661	 1.328214	 -0.888716	 -0.776972	 -0.102495	 0.643257	 -0.514530	 0.557651	 1
1462090939.667	 3	 0.600400	 -0.529698	 0.507985	 1.317093	 -0.883002	 -0.784457	 -0.100785	 0.640448	 -0.514960	 0.560790	 1
1462090939.677	 3	 0.552387	 -0.520221	 0.768537	 1.307396	 -0.874721	 -0.790266	 -0.098270	 0.637863	 -0.514536	 0.564560	 1
1462090939.687	 3	 0.346994	 -0.557601	 0.957552	 1.300145	 -0.864840	 -0.792549	 -0.095632	 0.635711	 -0.512961	 0.568857	 1
1462090939.697	 3	 0.101873	 -0.585814	 1.074526	 1.295828	 -0.854284	 -0.790629	 -0.093307	 0.634140	 -0.510208	 0.573453	 1
1462090939.707	 3	 -0.149245	 -0.666881	 1.087681	 1.293735	 -0.844037	 -0.784864	 -0.091738	 0.633017	 -0.506497	 0.578216	 1
1462090939.717	 3	 -0.368739	 -0.796202	 1.059613	 1.292763	 -0.834644	 -0.775912	 -0.091210	 0.632090	 -0.502045	 0.583176	 1
1462090939.737	 4	 -0.602963	 -0.868156	 1.016221	 1.292480	 -0.817750	 -0.752390	 -0.092213	 0.630520	 -0.491799	 0.593359	 1
1462090939.757	 4	 -0.870532	 -0.548559	 0.978894	 1.299653	 -0.802677	 -0.723707	 -0.093718	 0.631010	 -0.480517	 0.601786	 1
1462090939.767	 4	 -1.073417	 -0.344843	 0.975096	 1.308433	 -0.795986	 -0.705899	 -0.094677	 0.632703	 -0.474168	 0.604886	 1
1462090939.747	 4	 -0.698400	 -0.726524	 1.001318	 1.294556	 -0.809919	 -0.739013	 -0.092909	 0.630343	 -0.486344	 0.597917	 1
1462090939.777	 4	 -1.215028	 -0.112026	 1.048836	 1.321075	 -0.789092	 -0.685771	 -0.095440	 0.635484	 -0.467202	 0.607268	 1
1462090939.787	 4	 -1.135557	 0.107814	 1.182344	 1.335639	 -0.780711	 -0.665945	 -0.095176	 0.638890	 -0.460033	 0.609205	 1
1462090939.797	 4	 -1.051125	 0.344886	 1.200867	 1.351361	 -0.771374	 -0.647522	 -0.093934	 0.642763	 -0.453059	 0.610549	 1
1462090939.807	 4	 -0.925411	 0.614967	 1.094643	 1.368179	 -0.762382	 -0.631171	 -0.092013	 0.647123	 -0.446770	 0.610870	 1
1462090939.817	 4	 -0.774495	 0.833614	 0.946157	 1.385369	 -0.754288	 -0.617574	 -0.089555	 0.651767	 -0.441482	 0.610142	 1
1462090939.827	 4	 -0.619879	 0.975294	 0.745766	 1.402156	 -0.747579	 -0.606747	 -0.086888	 0.656436	 -0.437298	 0.608533	 1
1462090939.837	 4	 -0.396010	 1.101804	 0.535039	 1.417874	 -0.742563	 -0.599373	 -0.084017	 0.660930	 -0.434491	 0.606077	 1
1462090939.857	 5	 0.046073	 1.343371	 0.584594	 1.446380	 -0.732763	 -0.594472	 -0.075838	 0.669423	 -0.431677	 0.599814	 1
1462090939.867	 5	 0.185200	 1.316266	 0.716351	 1.459161	 -0.725721	 -0.595408	 -0.070173	 0.673357	 -0.430610	 0.596859	 1
1462090939.877	 5	 0.057395	 1.209716	 0.638672	 1.470946	 -0.718880	 -0.596133	 -0.064882	 0.676965	 -0.429442	 0.594212	 1
1462090939.887	 5	 -0.217477	 1.184105	 0.516132	 1.484719	 -0.713698	 -0.593201	 -0.061032	 0.681014	 -0.427641	 0.591285	 1
1462090939.897	 5	 -0.165814	 1.193187	 0.615949	 1.498738	 -0.708054	 -0.590071	 -0.057058	 0.685127	 -0.425624	 0.588378	 1
1462090939.907	 5	 0.029310	 1.020429	 0.778901	 1.510053	 -0.700708	 -0.589173	 -0.052303	 0.688522	 -0.423685	 0.586253	 1
1462090939.917	 5	 0.082850	 0.807765	 0.808429	 1.518312	 -0.692522	 -0.589676	 -0.047430	 0.691059	 -0.421805	 0.585037	 1
1462090939.927	 5	 -0.044822	 0.564545	 0.658071	 1.524979	 -0.685499	 -0.589132	 -0.043687	 0.693083	 -0.419866	 0.584329	 1
1462090939.937	 5	 -0.241399	 0.258209	 0.429924	 1.530019	 -0.680704	 -0.586377	 -0.041865	 0.694555	 -0.417842	 0.584165	 1
1462090939.947	 5	 -0.393770	 0.056960	 0.190648	 1.533994	 -0.678331	 -0.581631	 -0.041834	 0.695647	 -0.415878	 0.584269	 1
1462090939.957	 5	 -0.437734	 -0.007445	 -0.054694	 1.537493	 -0.678412	 -0.576035	 -0.043085	 0.696550	 -0.414340	 0.584195	 1
1462090939.967	 5	 -0.365787	 0.053434	 -0.283893	 1.540891	 -0.680808	 -0.571114	 -0.044953	 0.697396	 -0.413651	 0.583533	 1
1462090939.977	 5	 -0.218622	 0.208878	 -0.495815	 1.544549	 -0.685336	 -0.567950	 -0.046917	 0.698312	 -0.414088	 0.581971	 1
1462090939.987	 5	 -0.067999	 0.355289	 -0.632181	 1.548478	 -0.691403	 -0.566818	 -0.048659	 0.699311	 -0.415563	 0.579572	 1
1462090939.997	 5	 -0.012151	 0.467547	 -0.676385	 1.552938	 -0.698111	 -0.566772	 -0.050132	 0.700462	 -0.417551	 0.576621	 1
1462090940.007	 5	 -0.065214	 0.512527	 -0.655255	 1.558299	 -0.704740	 -0.566280	 -0.051536	 0.701843	 -0.419416	 0.573455	 1
1462090940.017	 5	 -0.138431	 0.537076	 -0.606695	 1.568633	 -0.709815	 -0.562154	 -0.052613	 0.704565	 -0.419944	 0.569621	 1
1462090940.027	 5	 -0.194771	 0.527095	 -0.539155	 1.575523	 -0.715374	 -0.559747	 -0.053972	 0.706308	 -0.421025	 0.566528	 1
1462090940.037	 5	 -0.205421	 0.487094	 -0.486146	 1.582341	 -0.720339	 -0.556939	 -0.055273	 0.708014	 -0.421835	 0.563664	 1
1462090940.047	 5	 -0.154167	 0.456419	 -0.442116	 1.588532	 -0.724839	 -0.554589	 -0.056374	 0.709549	 -0.422635	 0.561018	 1
1462090940.057	 5	 -0.089270	 0.386269	 -0.409229	 1.593592	 -0.728985	 -0.553083	 -0.057287	 0.710787	 -0.423548	 0.558666	 1
1462090940.067	 5	 -0.060719	 0.305568	 -0.379322	 1.597484	 -0.732823	 -0.552083	 -0.058155	 0.711713	 -0.424485	 0.556683	 1
1462090940.077	 5	 -0.065394	 0.234416	 -0.390483	 1.623986	 -0.727811	 -0.535508	 -0.056758	 0.718767	 -0.419194	 0.551751	 1
1462090940.087	 5	 -0.080817	 0.136573	 -0.395522	 1.626473	 -0.731717	 -0.534217	 -0.058044	 0.719258	 -0.420060	 0.550316	 1
1462090940.097	 5	 -0.142641	 0.132666	 -0.372639	 1.629003	 -0.735438	 -0.532260	 -0.059494	 0.719743	 -0.420694	 0.549043	 1
1462090940.107	 5	 -0.218933	 0.246708	 -0.370914	 1.633181	 -0.738980	 -0.529246	 -0.060915	 0.720646	 -0.421039	 0.547435	 1
1462090940.117	 5	 -0.219846	 0.395052	 -0.477265	 1.661711	 -0.752882	 -0.510392	 -0.066462	 0.727123	 -0.420978	 0.538193	 1
1462090940.127	 5	 -0.151738	 0.505228	 -0.656946	 1.668678	 -0.758805	 -0.507270	 -0.068126	 0.728572	 -0.422160	 0.535092	 1
1462090940.137	 5	 -0.104249	 0.511502	 -0.799048	 1.675657	 -0.766341	 -0.504644	 -0.070138	 0.729921	 -0.423978	 0.531543	 1
1462090940.147	 5	 -0.130311	 0.455928	 -0.846232	 1.682410	 -0.774569	 -0.501722	 -0.072522	 0.731125	 -0.425937	 0.527991	 1
1462090940.157	 5	 -0.209798	 0.348719	 -0.848669	 1.688993	 -0.782771	 -0.497729	 -0.075311	 0.732208	 -0.427617	 0.524731	 1
1462090940.167	 5	 -0.297038	 0.233639	 -0.912926	 1.695435	 -0.791257	 -0.492323	 -0.078729	 0.733141	 -0.429032	 0.521764	 1
1462090940.177	 5	 -0.331134	 0.146484	 -1.064778	 1.701766	 -0.801004	 -0.485794	 -0.082986	 0.733866	 -0.430560	 0.518818	 1
1462090940.187	 5	 -0.254192	 0.054881	 -1.198455	 1.707066	 -0.812217	 -0.479531	 -0.087833	 0.734173	 -0.432589	 0.515890	 1
1462090940.197	 5	 -0.111716	 -0.030849	 -1.229269	 1.710335	 -0.824179	 -0.474885	 -0.092754	 0.733912	 -0.435193	 0.513202	 1
1462090940.217	 6	 0.238264	 -0.026865	 -0.978628	 1.710393	 -0.846223	 -0.473571	 -0.100441	 0.732137	 -0.441561	 0.508832	 1
1462090940.227	 6	 0.380103	 0.033537	 -0.805581	 1.707988	 -0.855082	 -0.477000	 -0.102618	 0.730984	 -0.444986	 0.507069	 1
1462090940.237	 6	 0.493194	 0.140541	 -0.671284	 1.704857	 -0.862685	 -0.482623	 -0.103755	 0.729864	 -0.448530	 0.505327	 1
1462090940.247	 6	 0.575233	 0.236917	 -0.549605	 1.702391	 -0.869172	 -0.489216	 -0.104034	 0.729057	 -0.451999	 0.503339	 1
1462090940.257	 6	 0.629313	 0.299230	 -0.441854	 1.698685	 -0.874622	 -0.497796	 -0.103541	 0.728131	 -0.455576	 0.501553	 1
1462090940.267	 6	 0.639364	 0.305284	 -0.336374	 1.694661	 -0.879005	 -0.507018	 -0.102550	 0.727248	 -0.458967	 0.499942	 1
1462090940.277	 6	 0.597827	 0.299227	 -0.308359	 1.690759	 -0.882819	 -0.515948	 -0.101463	 0.726430	 -0.462111	 0.498456	 1
1462090940.287	 6	 0.524861	 0.445188	 -0.308505	 1.692580	 -0.887213	 -0.520914	 -0.100690	 0.726790	 -0.464713	 0.495660	 1
1462090940.297	 6	 0.368154	 0.305874	 -0.369186	 1.691697	 -0.891188	 -0.526777	 -0.100080	 0.726556	 -0.467270	 0.493720	 1
1462090940.307	 6	 0.104338	 -0.092020	 -0.489956	 1.690292	 -0.895913	 -0.528657	 -0.101290	 0.725935	 -0.469025	 0.492720	 1
1462090940.317	 6	 -0.121481	 -0.296932	 -0.677471	 1.689509	 -0.902079	 -0.526323	 -0.104361	 0.725136	 -0.470184	 0.492152	 1
1462090940.327	 6	 -0.205666	 -0.324765	 -0.882689	 1.689937	 -0.910090	 -0.521618	 -0.108615	 0.724343	 -0.471350	 0.491283	 1
1462090940.337	 6	 -0.156316	 -0.286303	 -1.132150	 1.690894	 -0.920455	 -0.516644	 -0.113610	 0.723438	 -0.473155	 0.489750	 1
1462090940.347	 6	 -0.025840	 -0.188990	 -1.446780	 1.691791	 -0.933990	 -0.512901	 -0.119209	 0.722271	 -0.476163	 0.487219	 1
1462090940.357	 6	 0.045261	 -0.088691	 -1.667078	 1.692780	 -0.950128	 -0.510192	 -0.125255	 0.720899	 -0.480160	 0.483800	 1
1462090940.367	 6	 -0.127357	 0.193671	 -1.667211	 1.697860	 -0.966734	 -0.505408	 -0.131194	 0.720261	 -0.484044	 0.479283	 1
1462090940.377	 6	 -0.441072	 0.328398	 -1.549189	 1.709269	 -0.981921	 -0.495341	 -0.136996	 0.720809	 -0.486722	 0.474098	 1
1462090940.387	 6	 -0.708239	 0.353636	 -1.403816	 1.725699	 -0.995252	 -0.479819	 -0.142890	 0.722198	 -0.488024	 0.468876	 1
1462090940.397	 6	 -0.808930	 0.243407	 -1.098091	 1.743770	 -1.005651	 -0.461716	 -0.148339	 0.723935	 -0.488123	 0.464380	 1
1462090940.407	 6	 -0.761269	 0.081101	 -0.727000	 1.759540	 -1.012289	 -0.444512	 -0.152817	 0.725507	 -0.487273	 0.461358	 1
1462090940.417	 6	 -0.554774	 -0.061950	 -0.423189	 1.770466	 -1.015934	 -0.431280	 -0.156098	 0.726554	 -0.486149	 0.459796	 1
1462090940.437	 7	 -0.009208	 -0.070658	 -0.083779	 1.775950	 -1.018734	 -0.422336	 -0.158883	 0.726757	 -0.485360	 0.459354	 1
1462090940.447	 7	 0.121023	 0.089138	 0.003966	 1.774934	 -1.019106	 -0.424062	 -0.158617	 0.726613	 -0.485787	 0.459222	 1
1462090940.457	 7	 0.155303	 0.251497	 0.112820	 1.774387	 -1.018587	 -0.427212	 -0.157445	 0.726802	 -0.486312	 0.458770	 1
1462090940.467	 7	 0.136013	 0.360901	 0.231240	 1.774842	 -1.016884	 -0.430646	 -0.155559	 0.727390	 -0.486627	 0.458148	 1
1462090940.477	 7	 0.095768	 0.383722	 0.281894	 1.776084	 -1.014395	 -0.433698	 -0.153375	 0.728221	 -0.486680	 0.457508	 1
1462090940.487	 7	 0.036564	 0.303883	 0.248628	 1.777694	 -1.011965	 -0.435677	 -0.151510	 0.729042	 -0.486530	 0.456981	 1
1462090940.497	 7	 -0.042174	 0.163404	 0.205376	 1.779337	 -1.009820	 -0.436111	 -0.150288	 0.729716	 -0.486112	 0.456753	 1
1462090940.507	 7	 -0.130476	 0.004046	 0.195070	 1.780806	 -1.007675	 -0.434887	 -0.149714	 0.730225	 -0.485301	 0.456990	 1
1462090940.517	 7	 -0.202671	 -0.145686	 0.198568	 1.781964	 -1.005356	 -0.432239	 -0.149683	 0.730579	 -0.484086	 0.457722	 1
1462090940.527	 7	 -0.251420	 -0.293438	 0.191223	 1.782461	 -1.002953	 -0.428607	 -0.150146	 0.730719	 -0.482568	 0.458948	 1
1462090940.537	 7	 -0.278682	 -0.400920	 0.172342	 1.782271	 -1.000635	 -0.424346	 -0.151033	 0.730642	 -0.480876	 0.460553	 1
1462090940.547	 7	 -0.284300	 -0.441485	 0.149633	 1.781741	 -0.998514	 -0.419812	 -0.152161	 0.730440	 -0.479149	 0.462299	 1
1462090940.557	 7	 -0.267152	 -0.411878	 0.132707	 1.781191	 -0.996617	 -0.415432	 -0.153306	 0.730215	 -0.477518	 0.463961	 1
1462090940.567	 7	 -0.230427	 -0.321551	 0.136425	 1.780930	 -0.994795	 -0.411603	 -0.154205	 0.730087	 -0.476056	 0.465364	 1
1462090940.577	 7	 -0.177455	 -0.189713	 0.151045	 1.781095	 -0.992963	 -0.408730	 -0.154649	 0.730134	 -0.474842	 0.466384	 1
1462090940.587	 7	 -0.083376	 0.047407	 0.180142	 1.781964	 -0.991057	 -0.407350	 -0.154359	 0.730468	 -0.474007	 0.466805	 1
1462090940.597	 7	 0.050226	 0.272879	 0.232234	 1.783337	 -0.988961	 -0.408647	 -0.152914	 0.731150	 -0.473776	 0.466448	 1
1462090940.607	 7	 0.049204	 0.265583	 0.252424	 1.784433	 -0.986648	 -0.410540	 -0.151249	 0.731837	 -0.473595	 0.466097	 1
1462090940.617	 7	 0.034546	 0.300937	 0.281656	 1.785933	 -0.984060	 -0.412247	 -0.149472	 0.732635	 -0.473314	 0.465701	 1
1462090940.627	 7	 0.005725	 0.284136	 0.299869	 1.787694	 -0.981188	 -0.413647	 -0.147657	 0.733503	 -0.472892	 0.465342	 1
1462090940.637	 7	 -0.037256	 0.231003	 0.289091	 1.789571	 -0.978257	 -0.414334	 -0.146059	 0.734350	 -0.472292	 0.465120	 1
1462090940.647	 7	 -0.081441	 0.159699	 0.265366	 1.791489	 -0.975458	 -0.414177	 -0.144802	 0.735127	 -0.471536	 0.465053	 1
1462090940.657	 7	 -0.123622	 0.062844	 0.239253	 1.793197	 -0.972813	 -0.413181	 -0.143953	 0.735776	 -0.470613	 0.465225	 1
1462090940.677	 8	 -0.235860	 -0.152109	 0.179613	 1.795978	 -0.967999	 -0.408070	 -0.143702	 0.736644	 -0.468136	 0.466426	 1
1462090940.687	 8	 -0.287650	 -0.244726	 0.147230	 1.797135	 -0.965875	 -0.403957	 -0.144295	 0.736879	 -0.466601	 0.467410	 1
1462090940.697	 8	 -0.331800	 -0.303313	 0.117228	 1.798341	 -0.963943	 -0.398956	 -0.145265	 0.737036	 -0.464917	 0.468538	 1
1462090940.707	 8	 -0.353278	 -0.319312	 0.102345	 1.799725	 -0.962122	 -0.393395	 -0.146437	 0.737180	 -0.463146	 0.469699	 1
1462090940.717	 8	 -0.351329	 -0.320232	 0.093879	 1.824849	 -0.953910	 -0.368388	 -0.147420	 0.742269	 -0.456535	 0.467845	 1
1462090940.727	 8	 -0.343914	 -0.330899	 0.092650	 1.825943	 -0.952137	 -0.363013	 -0.148634	 0.742357	 -0.454789	 0.469022	 1
1462090940.737	 8	 -0.314105	 -0.327952	 0.071102	 1.826763	 -0.950570	 -0.357967	 -0.149851	 0.742376	 -0.453163	 0.470177	 1
1462090940.747	 8	 -0.260625	 -0.294144	 0.061359	 1.827212	 -0.949274	 -0.353663	 -0.150959	 0.742326	 -0.451767	 0.471243	 1
1462090940.757	 8	 -0.200711	 -0.233396	 0.070012	 1.852484	 -0.941081	 -0.330042	 -0.151658	 0.747564	 -0.445460	 0.468735	 1
1462090940.767	 8	 -0.156729	 -0.188822	 0.074307	 1.852415	 -0.939910	 -0.327679	 -0.152213	 0.747526	 -0.444515	 0.469512	 1
1462090940.777	 8	 -0.129886	 -0.156969	 0.077567	 1.852260	 -0.938788	 -0.325834	 -0.152607	 0.747501	 -0.443700	 0.470196	 1
1462090940.787	 8	 -0.109488	 -0.129390	 0.075514	 1.852101	 -0.937742	 -0.324343	 -0.152893	 0.747490	 -0.442992	 0.470786	 1
1462090940.797	 8	 -0.090335	 -0.112311	 0.070241	 1.867875	 -0.931572	 -0.310311	 -0.152870	 0.750964	 -0.438852	 0.469140	 1
1462090940.807	 8	 -0.080747	 -0.112371	 0.065894	 1.867546	 -0.930691	 -0.309320	 -0.153058	 0.750933	 -0.438300	 0.469646	 1
1462090940.817	 8	 -0.073292	 -0.109256	 0.058398	 1.867184	 -0.929892	 -0.308409	 -0.153247	 0.750887	 -0.437791	 0.470131	 1
1462090940.827	 8	 -0.062632	 -0.107200	 0.052995	 1.866723	 -0.929174	 -0.307635	 -0.153430	 0.750818	 -0.437333	 0.470607	 1
1462090940.837	 8	 -0.048898	 -0.109293	 0.045500	 1.878602	 -0.921697	 -0.297059	 -0.152660	 0.753832	 -0.433241	 0.469824	 1
1462090940.847	 8	 -0.039315	 -0.109361	 0.040087	 1.877870	 -0.921179	 -0.296612	 -0.152838	 0.753697	 -0.432905	 0.470292	 1
1462090940.857	 8	 -0.039388	 -0.115820	 0.029370	 1.877094	 -0.920746	 -0.296165	 -0.153049	 0.753540	 -0.432594	 0.470760	 1
1462090940.867	 8	 -0.049091	 -0.128625	 0.019743	 1.876335	 -0.920398	 -0.295543	 -0.153347	 0.753362	 -0.432272	 0.471244	 1
1462090940.877	 8	 -0.065274	 -0.142302	 0.016602	 1.887604	 -0.916257	 -0.285167	 -0.153646	 0.755793	 -0.429289	 0.469979	 1
1462090940.887	 8	 -0.082513	 -0.159147	 0.017691	 1.897724	 -0.912755	 -0.275500	 -0.154142	 0.757917	 -0.426600	 0.468844	 1
1462090940.897	 8	 -0.099770	 -0.170777	 0.006024	 1.906828	 -0.910085	 -0.266438	 -0.154889	 0.759728	 -0.424260	 0.467787	 1
1462090940.907	 8	 -0.114815	 -0.168576	 -0.003400	 1.915579	 -0.907453	 -0.257543	 -0.155683	 0.761461	 -0.421948	 0.466798	 1
1462090940.917	 8	 -0.129808	 -0.157842	 -0.009545	 1.924450	 -0.904670	 -0.248546	 -0.156471	 0.763232	 -0.419570	 0.465785	 1
1462090940.927	 8	 -0.141589	 -0.142891	 -0.018877	 1.933147	 -0.901941	 -0.239723	 -0.157268	 0.764964	 -0.417239	 0.464768	 1
1462090940.937	 8	 -0.155486	 -0.126862	 -0.026049	 1.941395	 -0.899362	 -0.231291	 -0.158073	 0.766595	 -0.415019	 0.463792	 1
1462090940.947	 8	 -0.167244	 -0.111903	 -0.032183	 1.949135	 -0.896831	 -0.223311	 -0.158844	 0.768135	 -0.412883	 0.462888	 1
1462090940.967	 9	 -0.175818	 -0.095853	 -0.037251	 1.960663	 -0.892678	 -0.210539	 -0.160265	 0.770408	 -0.409361	 0.461747	 1
1462090940.977	 9	 -0.171545	 -0.083113	 -0.043553	 1.964914	 -0.891279	 -0.205453	 -0.160982	 0.771193	 -0.408025	 0.461369	 1
1462090940.987	 9	 -0.159747	 -0.063979	 -0.044534	 1.968816	 -0.890106	 -0.200823	 -0.161660	 0.771899	 -0.406848	 0.460991	 1
1462090940.997	 9	 -0.146878	 -0.044852	 -0.045524	 1.972435	 -0.889052	 -0.196647	 -0.162257	 0.772557	 -0.405797	 0.460606	 1
1462090941.007	 9	 -0.138304	 -0.033146	 -0.044411	 1.975792	 -0.887906	 -0.192845	 -0.162742	 0.773197	 -0.404778	 0.460256	 1
1462090941.017	 9	 -0.130824	 -0.028869	 -0.041220	 1.978869	 -0.886604	 -0.189357	 -0.163125	 0.773823	 -0.403752	 0.459971	 1
1462090941.027	 9	 -0.128735	 -0.037335	 -0.037028	 1.981545	 -0.885032	 -0.186174	 -0.163403	 0.774422	 -0.402664	 0.459817	 1
1462090941.037	 9	 -0.140062	 -0.059423	 -0.031088	 1.983884	 -0.883373	 -0.183070	 -0.163699	 0.774964	 -0.401535	 0.459786	 1
1462090941.047	 9	 -0.155169	 -0.090231	 -0.033361	 1.986053	 -0.881778	 -0.179794	 -0.164116	 0.775442	 -0.400375	 0.459842	 1
1462090941.057	 9	 -0.176672	 -0.119957	 -0.035570	 1.988130	 -0.880199	 -0.176233	 -0.164668	 0.775873	 -0.399147	 0.459985	 1
1462090941.067	 9	 -0.190721	 -0.150783	 -0.039984	 1.990193	 -0.878509	 -0.172343	 -0.165325	 0.776292	 -0.397801	 0.460210	 1
1462090941.077	 9	 -0.194059	 -0.172072	 -0.045470	 1.992481	 -0.876889	 -0.168055	 -0.166114	 0.776717	 -0.396407	 0.460412	 1
1462090941.087	 9	 -0.181306	 -0.177439	 -0.048816	 1.994626	 -0.875273	 -0.163835	 -0.166909	 0.777113	 -0.395017	 0.460650	 1
1462090941.097	 9	 -0.153604	 -0.173338	 -0.060729	 1.996769	 -0.873784	 -0.159763	 -0.167683	 0.777501	 -0.393707	 0.460836	 1
1462090941.107	 9	 -0.118401	 -0.156548	 -0.080050	 1.998737	 -0.872553	 -0.156080	 -0.168410	 0.777839	 -0.392567	 0.460973	 1
1462090941.117	 9	 -0.083137	 -0.134369	 -0.089732	 2.000903	 -0.871671	 -0.152581	 -0.169120	 0.778182	 -0.391616	 0.460942	 1
1462090941.127	 9	 -0.053096	 -0.104589	 -0.080113	 2.002912	 -0.870908	 -0.149601	 -0.169690	 0.778514	 -0.390815	 0.460852	 1
1462090941.137	 9	 -0.023033	 -0.061058	 -0.081024	 2.005034	 -0.870140	 -0.147036	 -0.170077	 0.778907	 -0.390118	 0.460635	 1
1462090941.147	 9	 0.005945	 -0.022883	 -0.085184	 2.005148	 -0.870894	 -0.146476	 -0.170466	 0.778766	 -0.390280	 0.460594	 1
1462090941.157	 9	 0.026333	 0.007841	 -0.093601	 2.005376	 -0.871809	 -0.146184	 -0.170770	 0.778647	 -0.390574	 0.460433	 1
1462090941.167	 9	 0.042382	 0.036342	 -0.116923	 2.005823	 -0.873006	 -0.145991	 -0.171064	 0.778543	 -0.391013	 0.460127	 1
1462090941.177	 9	 0.046811	 0.063026	 -0.103907	 2.007850	 -0.872714	 -0.144838	 -0.171042	 0.778957	 -0.390813	 0.459605	 1
1462090941.187	 9	 0.056610	 0.101312	 -0.100439	 2.008688	 -0.873852	 -0.144935	 -0.171132	 0.778975	 -0.391331	 0.459099	 1
1462090941.197	 9	 0.065313	 0.135332	 -0.099132	 2.009781	 -0.875018	 -0.145170	 -0.171124	 0.779059	 -0.391914	 0.458463	 1
1462090941.207	 9	 0.075048	 0.161902	 -0.097904	 2.011048	 -0.876219	 -0.145545	 -0.171035	 0.779188	 -0.392556	 0.457726	 1
1462090941.217	 9	 0.085764	 0.188358	 -0.113717	 2.013774	 -0.875999	 -0.145030	 -0.170645	 0.779802	 -0.392589	 0.456796	 1
1462090941.227	 9	 0.083659	 0.188418	 -0.106238	 2.015311	 -0.877355	 -0.145488	 -0.170509	 0.779973	 -0.393331	 0.455916	 1
1462090941.237	 9	 0.069811	 0.184320	 -0.091214	 2.017630	 -0.877055	 -0.145303	 -0.170049	 0.780534	 -0.393374	 0.455090	 1
1462090941.247	 9	 0.061252	 0.176950	 -0.084791	 2.019480	 -0.876723	 -0.145382	 -0.169570	 0.781015	 -0.393425	 0.454398	 1
1462090941.257	 9	 0.063274	 0.163047	 -0.094510	 2.021004	 -0.876611	 -0.145605	 -0.169155	 0.781398	 -0.393563	 0.453775	 1
1462090941.267	 9	 0.060029	 0.144011	 -0.080787	 2.022269	 -0.876651	 -0.145894	 -0.168803	 0.781703	 -0.393750	 0.453218	 1
1462090941.277	 9	 0.051448	 0.124993	 -0.067017	 2.023510	 -0.876529	 -0.146056	 -0.168465	 0.782017	 -0.393846	 0.452718	 1
1462090941.287	 9	 0.040732	 0.104908	 -0.054322	 2.024445	 -0.877236	 -0.146272	 -0.168374	 0.782133	 -0.394238	 0.452211	 1
1462090941.297	 9	 0.035345	 0.082687	 -0.040627	 2.025173	 -0.877786	 -0.146477	 -0.168290	 0.782225	 -0.394552	 0.451809	 1
1462090941.307	 9	 0.034264	 0.070011	 -0.029012	 2.025690	 -0.878221	 -0.146741	 -0.168194	 0.782294	 -0.394818	 0.451493	 1
1462090941.317	 9	 0.040674	 0.072140	 -0.026902	 2.026647	 -0.877705	 -0.146699	 -0.167891	 0.782590	 -0.394696	 0.451200	 1
1462090941.327	 9	 0.056632	 0.079383	 -0.048289	 2.027060	 -0.878290	 -0.147153	 -0.167779	 0.782626	 -0.395052	 0.450866	 1
1462090941.337	 9	 0.064114	 0.074112	 -0.038811	 2.027371	 -0.878968	 -0.147731	 -0.167663	 0.782635	 -0.395463	 0.450535	 1
1462090941.347	 9	 0.068529	 0.081746	 -0.011069	 2.027538	 -0.879425	 -0.148548	 -0.167425	 0.782666	 -0.395831	 0.450244	 1
1462090941.357	 9	 0.079303	 0.094586	 0.002825	 2.028441	 -0.878834	 -0.148995	 -0.166923	 0.783003	 -0.395786	 0.449885	 1
1462090941.367	 9	 0.088930	 0.100965	 0.004945	 2.029480	 -0.878254	 -0.149478	 -0.166382	 0.783371	 -0.395764	 0.449464	 1
1462090941.377	 9	 0.088866	 0.091394	 0.003804	 2.030382	 -0.877746	 -0.150030	 -0.165859	 0.783702	 -0.395772	 0.449073	 1
1462090941.387	 9	 0.080307	 0.085086	 0.009155	 2.031262	 -0.877479	 -0.150506	 -0.165431	 0.783982	 -0.395852	 0.448671	 1
1462090941.397	 9	 0.069651	 0.086233	 0.014586	 2.032464	 -0.877463	 -0.150689	 -0.165118	 0.784269	 -0.395986	 0.448166	 1
1462090941.407	 9	 0.064316	 0.090503	 0.012532	 2.033986	 -0.877722	 -0.150622	 -0.164907	 0.784563	 -0.396194	 0.447546	 1
1462090941.417	 9	 0.060055	 0.093691	 0.010467	 2.034200	 -0.877897	 -0.151555	 -0.164543	 0.784659	 -0.396486	 0.447253	 1
1462090941.427	 9	 0.056873	 0.097955	 0.010534	 2.034502	 -0.878064	 -0.152428	 -0.164182	 0.784771	 -0.396769	 0.446938	 1
1462090941.437	 9	 0.054745	 0.100081	 0.009507	 2.034859	 -0.878219	 -0.153265	 -0.163822	 0.784894	 -0.397043	 0.446610	 1
1462090941.447	 9	 0.053659	 0.096911	 0.010547	 2.036127	 -0.878405	 -0.153378	 -0.163572	 0.785156	 -0.397242	 0.446063	 1
1462090941.457	 9	 0.048306	 0.090568	 0.013732	 2.036436	 -0.878506	 -0.154174	 -0.163224	 0.785274	 -0.397483	 0.445770	 1
1462090941.467	 9	 0.040788	 0.077850	 0.016876	 2.036701	 -0.878553	 -0.154890	 -0.162902	 0.785384	 -0.397681	 0.445517	 1
1462090941.477	 9	 0.028954	 0.058747	 0.016793	 2.037665	 -0.878762	 -0.154872	 -0.162770	 0.785563	 -0.397834	 0.445112	 1
1462090941.487	 9	 0.013888	 0.037487	 0.011389	 2.038481	 -0.878982	 -0.154711	 -0.162726	 0.785696	 -0.397947	 0.444793	 1
1462090941.497	 9	 -0.001153	 0.018376	 0.009201	 2.039156	 -0.879245	 -0.154405	 -0.162778	 0.785778	 -0.398033	 0.444551	 1
1462090941.507	 9	 -0.016174	 0.003520	 0.007052	 2.039920	 -0.879471	 -0.153818	 -0.162913	 0.785863	 -0.398050	 0.444336	 1
1462090941.517	 9	 -0.023718	 -0.011342	 0.006971	 2.040625	 -0.879524	 -0.153115	 -0.163062	 0.785954	 -0.397971	 0.444191	 1
1462090941.527	 9	 -0.026997	 -0.026227	 0.005790	 2.041076	 -0.879489	 -0.152458	 -0.163221	 0.786006	 -0.397849	 0.444150	 1
1462090941.537	 9	 -0.028122	 -0.037920	 0.005688	 2.041323	 -0.879378	 -0.151860	 -0.163380	 0.786031	 -0.397694	 0.444187	 1
1462090941.547	 9	 -0.027098	 -0.046431	 0.005599	 2.041338	 -0.879202	 -0.151358	 -0.163530	 0.786022	 -0.397518	 0.444306	 1
1462090941.557	 9	 -0.027160	 -0.057081	 0.003371	 2.041263	 -0.878922	 -0.150850	 -0.163675	 0.786009	 -0.397294	 0.444476	 1
1462090941.567	 9	 -0.023993	 -0.059255	 -0.002003	 2.041085	 -0.878644	 -0.150385	 -0.163824	 0.785976	 -0.397071	 0.444677	 1
1462090941.577	 9	 -0.017538	 -0.046514	 -0.003006	 2.041114	 -0.878468	 -0.149859	 -0.163980	 0.785969	 -0.396890	 0.444794	 1
1462090941.587	 9	 -0.002525	 -0.029533	 -0.002980	 2.041500	 -0.878357	 -0.149258	 -0.164112	 0.786023	 -0.396747	 0.444777	 1
1462090941.597	 9	 0.013566	 -0.008315	 -0.005056	 2.042018	 -0.878359	 -0.148793	 -0.164193	 0.786100	 -0.396686	 0.444666	 1
1462090941.607	 9	 0.027539	 0.017158	 -0.008141	 2.042687	 -0.878474	 -0.148485	 -0.164210	 0.786205	 -0.396716	 0.444448	 1
1462090941.617	 9	 0.036145	 0.033094	 -0.008071	 2.043311	 -0.878681	 -0.148397	 -0.164173	 0.786302	 -0.396826	 0.444191	 1
1462090941.627	 9	 0.045815	 0.046906	 -0.006963	 2.043757	 -0.878935	 -0.148608	 -0.164064	 0.786377	 -0.397005	 0.443938	 1
1462090941.637	 9	 0.052268	 0.057536	 -0.005858	 2.044188	 -0.879255	 -0.148966	 -0.163918	 0.786449	 -0.397240	 0.443653	 1
1462090941.647	 9	 0.059772	 0.066018	 -0.006911	 2.044472	 -0.879584	 -0.149548	 -0.163714	 0.786507	 -0.397517	 0.443380	 1
1462090941.657	 9	 0.065151	 0.073464	 -0.004758	 2.044567	 -0.879940	 -0.150365	 -0.163463	 0.786536	 -0.397840	 0.443131	 1
1462090941.667	 9	 0.068382	 0.076668	 -0.001560	 2.044559	 -0.880324	 -0.151332	 -0.163179	 0.786551	 -0.398197	 0.442888	 1
1462090941.677	 9	 0.068400	 0.077755	 0.001645	 2.044628	 -0.880702	 -0.152268	 -0.162892	 0.786580	 -0.398553	 0.442621	 1
1462090941.687	 9	 0.069464	 0.073529	 0.005856	 2.044712	 -0.881082	 -0.153185	 -0.162609	 0.786611	 -0.398906	 0.442352	 1
1462090941.697	 9	 0.070550	 0.074615	 0.009048	 2.044833	 -0.881562	 -0.154088	 -0.162349	 0.786633	 -0.399296	 0.442057	 1
1462090941.707	 9	 0.071618	 0.075672	 0.007973	 2.045098	 -0.882118	 -0.154889	 -0.162120	 0.786666	 -0.399703	 0.441714	 1
1462090941.717	 9	 0.072657	 0.073517	 0.003667	 2.045558	 -0.882810	 -0.155526	 -0.161949	 0.786706	 -0.400141	 0.441308	 1
1462090941.727	 9	 0.071519	 0.064964	 -0.003878	 2.046050	 -0.883632	 -0.156072	 -0.161841	 0.786724	 -0.400611	 0.440890	 1
1462090941.737	 9	 0.069330	 0.058565	 -0.009277	 2.047193	 -0.884921	 -0.156037	 -0.161946	 0.786762	 -0.401180	 0.440265	 1
1462090941.747	 9	 0.067113	 0.046831	 -0.015775	 2.047540	 -0.885756	 -0.156500	 -0.161902	 0.786739	 -0.401624	 0.439918	 1
1462090941.757	 9	 0.064866	 0.028716	 -0.022331	 2.047791	 -0.886598	 -0.156869	 -0.161915	 0.786686	 -0.402042	 0.439626	 1
1462090941.767	 9	 0.057294	 0.013798	 -0.029876	 2.047930	 -0.887468	 -0.157155	 -0.161991	 0.786597	 -0.402443	 0.439391	 1
1462090941.777	 9	 0.047583	 -0.002176	 -0.037411	 2.048097	 -0.888314	 -0.157214	 -0.162144	 0.786499	 -0.402787	 0.439194	 1
1462090941.787	 9	 0.043216	 -0.016040	 -0.044971	 2.048135	 -0.889126	 -0.157203	 -0.162343	 0.786373	 -0.403093	 0.439065	 1
1462090941.797	 9	 0.038884	 -0.023514	 -0.051404	 2.048159	 -0.889906	 -0.157089	 -0.162576	 0.786240	 -0.403363	 0.438969	 1
1462090941.807	 9	 0.037777	 -0.026736	 -0.056755	 2.048135	 -0.890592	 -0.156956	 -0.162804	 0.786111	 -0.403590	 0.438908	 1
1462090941.817	 9	 0.036716	 -0.022490	 -0.058838	 2.048140	 -0.891177	 -0.156809	 -0.163006	 0.786004	 -0.403777	 0.438853	 1
1462090941.827	 9	 0.035673	 -0.018215	 -0.056655	 2.048056	 -0.891719	 -0.156765	 -0.163175	 0.785892	 -0.403964	 0.438817	 1
1462090941.837	 9	 0.033546	 -0.017137	 -0.055556	 2.047867	 -0.892206	 -0.156808	 -0.163317	 0.785774	 -0.404141	 0.438814	 1
1462090941.847	 9	 0.029295	 -0.017086	 -0.050183	 2.047625	 -0.892539	 -0.156884	 -0.163419	 0.785671	 -0.404263	 0.438846	 1
1462090941.857	 9	 0.028243	 -0.015998	 -0.046956	 2.047290	 -0.892770	 -0.157039	 -0.163483	 0.785573	 -0.404356	 0.438914	 1
1462090941.867	 9	 0.025066	 -0.013833	 -0.042634	 2.046926	 -0.892903	 -0.157226	 -0.163516	 0.785486	 -0.404417	 0.439000	 1
1462090941.877	 9	 0.025073	 -0.010651	 -0.043661	 2.046660	 -0.893078	 -0.157358	 -0.163561	 0.785409	 -0.404490	 0.439053	 1
1462090941.887	 9	 0.027224	 -0.007461	 -0.042575	 2.046405	 -0.893254	 -0.157521	 -0.163593	 0.785338	 -0.404571	 0.439095	 1
1462090941.897	 9	 0.028316	 -0.003195	 -0.040403	 2.046204	 -0.893405	 -0.157682	 -0.163608	 0.785282	 -0.404647	 0.439120	 1
1462090941.907	 9	 0.030473	 0.000012	 -0.037185	 2.046086	 -0.893524	 -0.157827	 -0.163605	 0.785248	 -0.404714	 0.439120	 1
1462090941.917	 9	 0.035822	 -0.002076	 -0.029782	 2.045955	 -0.893601	 -0.158021	 -0.163574	 0.785223	 -0.404774	 0.439121	 1
1462090941.927	 9	 0.036886	 -0.004183	 -0.026604	 2.045739	 -0.893656	 -0.158293	 -0.163524	 0.785188	 -0.404837	 0.439143	 1
1462090941.937	 9	 0.035819	 -0.007331	 -0.021287	 2.045501	 -0.893710	 -0.158576	 -0.163475	 0.785150	 -0.404900	 0.439171	 1
1462090941.947	 9	 0.032615	 -0.009424	 -0.018076	 2.045311	 -0.893788	 -0.158793	 -0.163448	 0.785113	 -0.404961	 0.439191	 1
1462090941.957	 9	 0.029389	 -0.014724	 -0.017026	 2.044998	 -0.893861	 -0.159058	 -0.163426	 0.785054	 -0.405021	 0.439250	 1
1462090941.967	 9	 0.022972	 -0.017888	 -0.015929	 2.044700	 -0.893951	 -0.159258	 -0.163429	 0.784990	 -0.405075	 0.439313	 1
1462090941.977	 9	 0.020829	 -0.017887	 -0.016973	 2.044521	 -0.894029	 -0.159328	 -0.163458	 0.784944	 -0.405105	 0.439358	 1
1462090941.987	 9	 0.022989	 -0.010454	 -0.017983	 2.044384	 -0.894053	 -0.159406	 -0.163461	 0.784916	 -0.405120	 0.439392	 1
1462090941.997	 9	 0.030499	 0.001212	 -0.020065	 2.044429	 -0.894101	 -0.159455	 -0.163444	 0.784922	 -0.405152	 0.439358	 1
1462090942.007	 9	 0.040155	 0.011838	 -0.017913	 2.044442	 -0.894155	 -0.159670	 -0.163371	 0.784933	 -0.405220	 0.439302	 1
1462090942.017	 9	 0.049816	 0.024585	 -0.016807	 2.044502	 -0.894270	 -0.160006	 -0.163256	 0.784955	 -0.405342	 0.439194	 1
1462090942.027	 9	 0.056527	 0.030524	 -0.014914	 2.044574	 -0.894445	 -0.160442	 -0.163113	 0.784978	 -0.405509	 0.439052	 1
1462090942.037	 9	 0.060803	 0.030537	 -0.011752	 2.044624	 -0.894698	 -0.160938	 -0.162972	 0.784987	 -0.405717	 0.438896	 1
1462090942.047	 9	 0.059755	 0.032694	 -0.008526	 2.044645	 -0.894968	 -0.161479	 -0.162822	 0.784991	 -0.405938	 0.438739	 1
1462090942.057	 9	 0.056556	 0.032714	 -0.007434	 2.044670	 -0.895327	 -0.162017	 -0.162696	 0.784981	 -0.406193	 0.438568	 1
1462090942.067	 9	 0.055472	 0.030585	 -0.008513	 2.044730	 -0.895730	 -0.162501	 -0.162594	 0.784967	 -0.406455	 0.438388	 1
1462090942.077	 9	 0.052233	 0.028423	 -0.014903	 2.044734	 -0.896175	 -0.162990	 -0.162512	 0.784934	 -0.406729	 0.438223	 1
1462090942.087	 9	 0.047945	 0.025238	 -0.015963	 2.044645	 -0.896629	 -0.163486	 -0.162448	 0.784880	 -0.407000	 0.438092	 1
1462090942.097	 9	 0.041515	 0.020987	 -0.018081	 2.044477	 -0.897089	 -0.163974	 -0.162406	 0.784807	 -0.407265	 0.437992	 1
1462090942.107	 9	 0.035098	 0.017815	 -0.018055	 2.044358	 -0.897472	 -0.164351	 -0.162377	 0.784748	 -0.407481	 0.437907	 1
1462090942.117	 9	 0.032969	 0.018885	 -0.018028	 2.044281	 -0.897835	 -0.164690	 -0.162351	 0.784699	 -0.407685	 0.437816	 1
1462090942.127	 9	 0.029825	 0.026379	 -0.012602	 2.044201	 -0.898117	 -0.165073	 -0.162287	 0.784666	 -0.407868	 0.437728	 1
1462090942.137	 9	 0.030944	 0.033853	 -0.008280	 2.044312	 -0.898350	 -0.165383	 -0.162201	 0.784677	 -0.408031	 0.437588	 1
1462090942.147	 9	 0.032052	 0.039200	 -0.003978	 2.044517	 -0.898566	 -0.165680	 -0.162097	 0.784710	 -0.408194	 0.437416	 1
1462090942.157	 9	 0.033175	 0.046683	 0.001408	 2.044743	 -0.898815	 -0.166035	 -0.161973	 0.784747	 -0.408383	 0.437218	 1
1462090942.167	 9	 0.034242	 0.044568	 0.003507	 2.044874	 -0.899095	 -0.166484	 -0.161840	 0.784766	 -0.408596	 0.437035	 1
1462090942.177	 9	 0.034219	 0.040307	 0.002396	 2.044942	 -0.899467	 -0.166952	 -0.161735	 0.784757	 -0.408842	 0.436859	 1
1462090942.187	 9	 0.029884	 0.027540	 0.000178	 2.044891	 -0.899863	 -0.167412	 -0.161664	 0.784718	 -0.409087	 0.436727	 1
1462090942.197	 9	 0.023410	 0.013716	 -0.002031	 2.044794	 -0.900232	 -0.167760	 -0.161640	 0.784664	 -0.409293	 0.436641	 1
1462090942.207	 9	 0.019074	 0.000949	 -0.004247	 2.044552	 -0.900535	 -0.168076	 -0.161641	 0.784586	 -0.409455	 0.436627	 1
1462090942.217	 9	 0.016902	 -0.006498	 -0.005366	 2.044321	 -0.900793	 -0.168295	 -0.161666	 0.784511	 -0.409581	 0.436635	 1
1462090942.227	 9	 0.019042	 -0.005441	 -0.005376	 2.044059	 -0.901006	 -0.168543	 -0.161676	 0.784439	 -0.409693	 0.436656	 1
1462090942.237	 9	 0.020134	 -0.001182	 -0.004281	 2.043844	 -0.901180	 -0.168791	 -0.161666	 0.784383	 -0.409795	 0.436664	 1
1462090942.247	 9	 0.021222	 0.003069	 -0.004251	 2.043626	 -0.901322	 -0.169083	 -0.161632	 0.784336	 -0.409894	 0.436669	 1
1462090942.257	 9	 0.020180	 0.006278	 -0.002082	 2.043417	 -0.901496	 -0.169400	 -0.161594	 0.784287	 -0.410011	 0.436661	 1
1462090942.267	 9	 0.018038	 0.005212	 -0.003139	 2.043177	 -0.901637	 -0.169726	 -0.161550	 0.784237	 -0.410116	 0.436667	 1
1462090942.277	 9	 0.012684	 0.003084	 -0.005243	 2.042972	 -0.901760	 -0.169986	 -0.161521	 0.784193	 -0.410202	 0.436677	 1
1462090942.287	 9	 0.009451	 -0.002242	 -0.007395	 2.042693	 -0.901873	 -0.170239	 -0.161507	 0.784134	 -0.410277	 0.436717	 1
1462090942.297	 9	 0.008379	 -0.005417	 -0.005282	 2.042351	 -0.901925	 -0.170507	 -0.161486	 0.784072	 -0.410327	 0.436789	 1
1462090942.307	 9	 0.009437	 -0.008605	 -0.004253	 2.041978	 -0.901967	 -0.170780	 -0.161465	 0.784006	 -0.410372	 0.436873	 1
1462090942.317	 9	 0.010514	 -0.009651	 -0.001073	 2.041581	 -0.901987	 -0.171069	 -0.161439	 0.783939	 -0.410411	 0.436966	 1
1462090942.327	 9	 0.014786	 -0.011769	 0.002069	 2.041214	 -0.902022	 -0.171347	 -0.161414	 0.783876	 -0.410455	 0.437048	 1
1462090942.337	 9	 0.014789	 -0.012818	 0.004191	 2.040877	 -0.902019	 -0.171608	 -0.161380	 0.783824	 -0.410483	 0.437127	 1
1462090942.347	 9	 0.015880	 -0.010671	 0.007399	 2.040484	 -0.902047	 -0.171943	 -0.161336	 0.783760	 -0.410535	 0.437209	 1
1462090942.357	 9	 0.015899	 -0.009585	 0.010605	 2.040122	 -0.902108	 -0.172271	 -0.161297	 0.783698	 -0.410601	 0.437274	 1
1462090942.367	 9	 0.014865	 -0.004247	 0.012794	 2.039895	 -0.902082	 -0.172523	 -0.161239	 0.783673	 -0.410628	 0.437315	 1
1462090942.377	 9	 0.013831	 0.002147	 0.013928	 2.039751	 -0.902019	 -0.172758	 -0.161161	 0.783670	 -0.410644	 0.437333	 1
1462090942.387	 9	 0.010653	 0.007477	 0.014004	 2.039776	 -0.901954	 -0.172887	 -0.161088	 0.783697	 -0.410650	 0.437305	 1
1462090942.397	 9	 0.009575	 0.006410	 0.012936	 2.039820	 -0.901926	 -0.172996	 -0.161030	 0.783720	 -0.410667	 0.437270	 1
1462090942.407	 9	 0.006361	 0.002182	 0.015054	 2.039833	 -0.901877	 -0.173094	 -0.160976	 0.783739	 -0.410671	 0.437252	 1
1462090942.417	 9	 0.000985	 -0.005255	 0.013965	 2.039772	 -0.901778	 -0.173170	 -0.160934	 0.783748	 -0.410646	 0.437275	 1
1462090942.427	 9	 -0.003339	 -0.016943	 0.013893	 2.039606	 -0.901682	 -0.173215	 -0.160926	 0.783731	 -0.410607	 0.437345	 1
1462090942.437	 9	 -0.007659	 -0.027565	 0.013831	 2.039491	 -0.901543	 -0.173111	 -0.160956	 0.783720	 -0.410523	 0.437432	 1
1462090942.447	 9	 -0.010877	 -0.030745	 0.013826	 2.039386	 -0.901438	 -0.172942	 -0.161017	 0.783701	 -0.410439	 0.437523	 1
1462090942.457	 9	 -0.013018	 -0.032856	 0.014888	 2.039353	 -0.901349	 -0.172682	 -0.161104	 0.783687	 -0.410346	 0.437602	 1
1462090942.467	 9	 -0.014101	 -0.034986	 0.013809	 2.039254	 -0.901219	 -0.172451	 -0.161182	 0.783669	 -0.410239	 0.437707	 1
1462090942.477	 9	 -0.020519	 -0.038157	 0.013833	 2.039142	 -0.901111	 -0.172181	 -0.161284	 0.783640	 -0.410131	 0.437823	 1
1462090942.487	 9	 -0.024796	 -0.038159	 0.011736	 2.039044	 -0.900964	 -0.171871	 -0.161388	 0.783618	 -0.410000	 0.437946	 1
1462090942.497	 9	 -0.030123	 -0.038127	 0.013913	 2.038927	 -0.900759	 -0.171546	 -0.161489	 0.783599	 -0.409843	 0.438089	 1
1462090942.507	 9	 -0.032248	 -0.034936	 0.012895	 2.038965	 -0.900516	 -0.171095	 -0.161596	 0.783612	 -0.409657	 0.438201	 1
1462090942.517	 9	 -0.032231	 -0.029632	 0.010810	 2.039052	 -0.900331	 -0.170637	 -0.161712	 0.783624	 -0.409495	 0.438288	 1
1462090942.527	 9	 -0.032215	 -0.024329	 0.008727	 2.039186	 -0.900128	 -0.170177	 -0.161813	 0.783650	 -0.409329	 0.438360	 1
1462090942.537	 9	 -0.034339	 -0.022195	 0.008765	 2.039272	 -0.899923	 -0.169776	 -0.161901	 0.783670	 -0.409172	 0.438438	 1
1462090942.547	 9	 -0.036507	 -0.027523	 0.006602	 2.039377	 -0.899722	 -0.169319	 -0.162009	 0.783689	 -0.409006	 0.438520	 1
1462090942.557	 9	 -0.038671	 -0.032842	 0.005505	 2.039495	 -0.899478	 -0.168788	 -0.162131	 0.783712	 -0.408808	 0.438617	 1
1462090942.567	 9	 -0.042952	 -0.036011	 0.006578	 2.039695	 -0.899249	 -0.168142	 -0.162287	 0.783741	 -0.408597	 0.438705	 1
1462090942.577	 9	 -0.041882	 -0.037062	 0.008690	 2.039847	 -0.898960	 -0.167529	 -0.162423	 0.783772	 -0.408367	 0.438812	 1
1462090942.587	 9	 -0.039731	 -0.034924	 0.010823	 2.040011	 -0.898664	 -0.166933	 -0.162549	 0.783808	 -0.408139	 0.438913	 1
1462090942.597	 9	 -0.036513	 -0.032790	 0.012946	 2.040128	 -0.898355	 -0.166407	 -0.162654	 0.783842	 -0.407918	 0.439019	 1
1462090942.607	 9	 -0.030087	 -0.029603	 0.015052	 2.040123	 -0.898070	 -0.166036	 -0.162729	 0.783858	 -0.407730	 0.439138	 1
1462090942.617	 9	 -0.026857	 -0.024286	 0.016139	 2.040105	 -0.897753	 -0.165739	 -0.162770	 0.783882	 -0.407545	 0.439251	 1
1462090942.627	 9	 -0.022569	 -0.020044	 0.016142	 2.040107	 -0.897481	 -0.165482	 -0.162802	 0.783907	 -0.407387	 0.439342	 1
1462090942.637	 9	 -0.017213	 -0.015805	 0.016134	 2.040053	 -0.897262	 -0.165337	 -0.162815	 0.783919	 -0.407269	 0.439425	 1
1462090942.647	 9	 -0.015081	 -0.013707	 0.012937	 2.040059	 -0.897109	 -0.165176	 -0.162839	 0.783932	 -0.407177	 0.439477	 1
1462090942.657	 9	 -0.012945	 -0.011601	 0.010804	 2.040050	 -0.897045	 -0.165045	 -0.162876	 0.783930	 -0.407123	 0.439517	 1
1462090942.667	 9	 -0.012949	 -0.011609	 0.009738	 2.040042	 -0.896903	 -0.164920	 -0.162891	 0.783942	 -0.407042	 0.439566	 1
1462090942.677	 9	 -0.011876	 -0.009493	 0.008683	 2.040004	 -0.896779	 -0.164833	 -0.162902	 0.783947	 -0.406974	 0.439617	 1
1462090942.687	 9	 -0.008679	 -0.010567	 0.008646	 2.039892	 -0.896625	 -0.164813	 -0.162894	 0.783946	 -0.406903	 0.439687	 1
1462090942.697	 9	 -0.006568	 -0.012723	 0.005410	 2.039872	 -0.896548	 -0.164710	 -0.162919	 0.783946	 -0.406850	 0.439727	 1
1462090942.707	 9	 -0.004463	 -0.015943	 0.002163	 2.039822	 -0.896519	 -0.164610	 -0.162961	 0.783931	 -0.406813	 0.439771	 1
1462090942.717	 9	 -0.004499	 -0.022332	 0.001038	 2.039763	 -0.896449	 -0.164464	 -0.163013	 0.783918	 -0.406750	 0.439834	 1
1462090942.727	 9	 -0.008813	 -0.030836	 -0.000069	 2.039621	 -0.896382	 -0.164314	 -0.163084	 0.783885	 -0.406680	 0.439930	 1
1462090942.737	 9	 -0.013152	 -0.044659	 -0.001224	 2.039316	 -0.896304	 -0.164163	 -0.163186	 0.783819	 -0.406593	 0.440091	 1
1462090942.747	 9	 -0.019619	 -0.056355	 -0.003408	 2.039020	 -0.896231	 -0.163870	 -0.163342	 0.783742	 -0.406477	 0.440277	 1
1462090942.757	 9	 -0.026078	 -0.068037	 -0.003460	 2.038656	 -0.896124	 -0.163501	 -0.163534	 0.783649	 -0.406326	 0.440511	 1
1462090942.767	 9	 -0.029320	 -0.074424	 -0.005621	 2.038331	 -0.895948	 -0.163014	 -0.163747	 0.783567	 -0.406127	 0.440762	 1
1462090942.777	 9	 -0.029298	 -0.070161	 -0.004513	 2.038053	 -0.895744	 -0.162496	 -0.163955	 0.783497	 -0.405914	 0.441006	 1
1462090942.787	 9	 -0.026055	 -0.061652	 -0.003394	 2.037829	 -0.895510	 -0.162009	 -0.164133	 0.783446	 -0.405701	 0.441226	 1
1462090942.797	 9	 -0.024927	 -0.049939	 -0.001159	 2.037680	 -0.895203	 -0.161562	 -0.164261	 0.783427	 -0.405475	 0.441419	 1
1462090942.807	 9	 -0.020603	 -0.038243	 -0.000016	 2.037620	 -0.894863	 -0.161166	 -0.164343	 0.783437	 -0.405256	 0.441572	 1
1462090942.817	 9	 -0.016276	 -0.026539	 0.002192	 2.037646	 -0.894486	 -0.160820	 -0.164379	 0.783476	 -0.405041	 0.441686	 1
1462090942.827	 9	 -0.010881	 -0.015893	 0.005447	 2.037691	 -0.894124	 -0.160580	 -0.164374	 0.783526	 -0.404856	 0.441769	 1
1462090942.837	 9	 -0.005494	 -0.009480	 0.011860	 2.037696	 -0.893755	 -0.160479	 -0.164320	 0.783579	 -0.404696	 0.441841	 1
1462090942.847	 9	 -0.005463	 -0.004145	 0.014043	 2.037739	 -0.893484	 -0.160411	 -0.164270	 0.783628	 -0.404583	 0.441877	 1
1462090942.857	 9	 -0.005471	 -0.006264	 0.015090	 2.037718	 -0.893258	 -0.160398	 -0.164223	 0.783659	 -0.404495	 0.441920	 1
1462090942.867	 9	 -0.008703	 -0.012636	 0.015058	 2.037662	 -0.893133	 -0.160353	 -0.164220	 0.783664	 -0.404433	 0.441969	 1
1462090942.877	 9	 -0.013001	 -0.019005	 0.015034	 2.037583	 -0.893016	 -0.160257	 -0.164244	 0.783658	 -0.404362	 0.442036	 1
1462090942.887	 9	 -0.019459	 -0.028573	 0.012868	 2.037567	 -0.892875	 -0.160009	 -0.164309	 0.783657	 -0.404253	 0.442113	 1
1462090942.897	 9	 -0.025913	 -0.039190	 0.012825	 2.037448	 -0.892656	 -0.159711	 -0.164395	 0.783642	 -0.404095	 0.442251	 1
1462090942.907	 9	 -0.031275	 -0.043435	 0.011766	 2.037417	 -0.892379	 -0.159263	 -0.164508	 0.783644	 -0.403890	 0.442393	 1
1462090942.917	 9	 -0.031286	 -0.042382	 0.009645	 2.037780	 -0.892010	 -0.158510	 -0.164638	 0.783723	 -0.403616	 0.442456	 1
1462090942.927	 9	 -0.027010	 -0.038153	 0.007516	 2.037921	 -0.891713	 -0.157952	 -0.164753	 0.783757	 -0.403393	 0.442556	 1
1462090942.937	 9	 -0.021634	 -0.029648	 0.008614	 2.038115	 -0.891435	 -0.157452	 -0.164841	 0.783805	 -0.403194	 0.442620	 1
1462090942.947	 9	 -0.018392	 -0.021138	 0.009731	 2.038297	 -0.891194	 -0.157055	 -0.164899	 0.783852	 -0.403031	 0.442663	 1
1462090942.957	 9	 -0.011971	 -0.015844	 0.008657	 2.038463	 -0.891060	 -0.156740	 -0.164956	 0.783884	 -0.402925	 0.442681	 1
1462090942.967	 9	 -0.008673	 -0.011855	 0.006424	 2.038609	 -0.891007	 -0.156496	 -0.165009	 0.783905	 -0.402863	 0.442680	 1
1462090942.977	 9	 -0.005461	 -0.008680	 0.005357	 2.038725	 -0.890984	 -0.156306	 -0.165054	 0.783919	 -0.402822	 0.442677	 1
1462090942.987	 9	 -0.004393	 -0.005514	 0.002179	 2.038851	 -0.890942	 -0.156133	 -0.165086	 0.783940	 -0.402778	 0.442668	 1
1462090942.997	 9	 -0.002240	 -0.000209	 0.001145	 2.038989	 -0.890845	 -0.156002	 -0.165085	 0.783975	 -0.402725	 0.442654	 1
1462090943.007	 9	 -0.000081	 0.006159	 0.000120	 2.039113	 -0.890800	 -0.155938	 -0.165074	 0.784005	 -0.402703	 0.442625	 1
1462090943.017	 9	 -0.000080	 0.008271	 -0.001992	 2.039266	 -0.890794	 -0.155875	 -0.165066	 0.784035	 -0.402700	 0.442578	 1
1462090943.027	 9	 -0.001148	 0.007219	 -0.000925	 2.039362	 -0.890736	 -0.155852	 -0.165042	 0.784063	 -0.402681	 0.442554	 1
1462090943.037	 9	 -0.002232	 0.002975	 0.000111	 2.039429	 -0.890691	 -0.155830	 -0.165026	 0.784084	 -0.402665	 0.442538	 1
1462090943.047	 9	 -0.004384	 -0.002321	 0.002212	 2.039539	 -0.890631	 -0.155722	 -0.165031	 0.784109	 -0.402628	 0.442525	 1
1462090943.057	 9	 -0.003334	 -0.006570	 0.003227	 2.039645	 -0.890642	 -0.155583	 -0.165067	 0.784119	 -0.402610	 0.442510	 1
1462090943.067	 9	 -0.007628	 -0.010818	 0.002158	 2.039777	 -0.890647	 -0.155371	 -0.165124	 0.784130	 -0.402576	 0.442500	 1
1462090943.077	 9	 -0.009782	 -0.014010	 0.001079	 2.039863	 -0.890652	 -0.155151	 -0.165195	 0.784130	 -0.402536	 0.442510	 1
1462090943.087	 9	 -0.015156	 -0.019334	 -0.002122	 2.039949	 -0.890644	 -0.154862	 -0.165288	 0.784127	 -0.402476	 0.442536	 1
1462090943.097	 9	 -0.019480	 -0.029966	 -0.003250	 2.039941	 -0.890593	 -0.154541	 -0.165403	 0.784107	 -0.402386	 0.442611	 1
1462090943.107	 9	 -0.021641	 -0.035277	 -0.003281	 2.039945	 -0.890521	 -0.154146	 -0.165539	 0.784087	 -0.402271	 0.442699	 1
1462090943.117	 9	 -0.020584	 -0.035294	 -0.005422	 2.040055	 -0.890424	 -0.153648	 -0.165688	 0.784086	 -0.402134	 0.442770	 1
1462090943.127	 9	 -0.019498	 -0.028929	 -0.007503	 2.040177	 -0.890299	 -0.153187	 -0.165813	 0.784095	 -0.401995	 0.442832	 1
1462090943.137	 9	 -0.017363	 -0.021673	 -0.009543	 2.040333	 -0.890158	 -0.152748	 -0.165919	 0.784117	 -0.401858	 0.442879	 1
1462090943.147	 9	 -0.019465	 -0.015276	 -0.008397	 2.040469	 -0.889969	 -0.152376	 -0.165990	 0.784147	 -0.401716	 0.442927	 1
1462090943.157	 9	 -0.022662	 -0.014203	 -0.008358	 2.040604	 -0.889871	 -0.152018	 -0.166079	 0.784164	 -0.401611	 0.442960	 1
1462090943.167	 9	 -0.023759	 -0.020582	 -0.008407	 2.040649	 -0.889787	 -0.151681	 -0.166181	 0.784159	 -0.401509	 0.443022	 1
1462090943.177	 9	 -0.022709	 -0.025889	 -0.006333	 2.040643	 -0.889720	 -0.151346	 -0.166297	 0.784141	 -0.401409	 0.443101	 1
1462090943.187	 9	 -0.020584	 -0.026967	 -0.007427	 2.040618	 -0.889684	 -0.151016	 -0.166423	 0.784114	 -0.401320	 0.443182	 1
1462090943.197	 9	 -0.014183	 -0.028042	 -0.006427	 2.040611	 -0.889625	 -0.150695	 -0.166535	 0.784096	 -0.401226	 0.443258	 1
1462090943.207	 9	 -0.009896	 -0.025912	 -0.004312	 2.040553	 -0.889573	 -0.150455	 -0.166628	 0.784071	 -0.401149	 0.443336	 1
1462090943.217	 9	 -0.001360	 -0.024881	 -0.005442	 2.040426	 -0.889540	 -0.150331	 -0.166694	 0.784038	 -0.401098	 0.443415	 1
1462090943.227	 9	 0.005051	 -0.022772	 -0.005478	 2.040316	 -0.889547	 -0.150241	 -0.166753	 0.784005	 -0.401072	 0.443476	 1
1462090943.237	 9	 0.009318	 -0.022783	 -0.005515	 2.040172	 -0.889588	 -0.150204	 -0.166806	 0.783963	 -0.401067	 0.443534	 1
1462090943.247	 9	 0.010408	 -0.017467	 -0.005474	 2.040088	 -0.889617	 -0.150170	 -0.166844	 0.783937	 -0.401063	 0.443569	 1
1462090943.257	 9	 0.008313	 -0.008950	 -0.005376	 2.040047	 -0.889623	 -0.150150	 -0.166862	 0.783925	 -0.401058	 0.443588	 1
1462090943.267	 9	 0.006231	 0.000645	 -0.003137	 2.040103	 -0.889624	 -0.150125	 -0.166860	 0.783936	 -0.401057	 0.443571	 1
1462090943.277	 9	 0.004133	 0.007050	 -0.000926	 2.040203	 -0.889521	 -0.150112	 -0.166820	 0.783974	 -0.401024	 0.443549	 1
1462090943.287	 9	 0.000906	 0.004833	 0.002345	 2.040208	 -0.889445	 -0.150168	 -0.166777	 0.783992	 -0.401008	 0.443547	 1
1462090943.297	 9	 -0.001245	 -0.000464	 0.004447	 2.040160	 -0.889336	 -0.150217	 -0.166741	 0.784004	 -0.400974	 0.443571	 1
1462090943.307	 9	 -0.005537	 -0.008930	 0.008670	 2.040059	 -0.889208	 -0.150244	 -0.166719	 0.784005	 -0.400924	 0.443623	 1
1462090943.317	 9	 -0.007705	 -0.018473	 0.011797	 2.039934	 -0.889060	 -0.150197	 -0.166725	 0.783997	 -0.400848	 0.443703	 1
1462090943.327	 9	 -0.008782	 -0.019541	 0.010730	 2.039904	 -0.888914	 -0.150046	 -0.166754	 0.784002	 -0.400757	 0.443765	 1
1462090943.337	 9	 -0.008755	 -0.015269	 0.012901	 2.039939	 -0.888741	 -0.149874	 -0.166771	 0.784024	 -0.400657	 0.443810	 1
1462090943.347	 9	 -0.004442	 -0.004652	 0.011896	 2.039992	 -0.888582	 -0.149779	 -0.166758	 0.784054	 -0.400580	 0.443831	 1
1462090943.357	 9	 -0.003339	 0.003847	 0.010900	 2.040115	 -0.888449	 -0.149715	 -0.166726	 0.784098	 -0.400527	 0.443814	 1
1462090943.367	 9	 -0.003310	 0.011286	 0.009904	 2.040342	 -0.888255	 -0.149629	 -0.166666	 0.784173	 -0.400454	 0.443770	 1
1462090943.377	 9	 -0.002248	 0.011275	 0.008829	 2.040476	 -0.888105	 -0.149627	 -0.166602	 0.784227	 -0.400408	 0.443739	 1
1462090943.387	 9	 -0.003329	 0.009142	 0.007754	 2.040455	 -0.887976	 -0.149719	 -0.166538	 0.784252	 -0.400378	 0.443747	 1
1462090943.397	 9	 -0.004396	 0.009145	 0.007765	 2.040405	 -0.887839	 -0.149825	 -0.166473	 0.784272	 -0.400346	 0.443765	 1
1462090943.407	 9	 0.000951	 0.011255	 0.007739	 2.040304	 -0.887753	 -0.150003	 -0.166401	 0.784279	 -0.400345	 0.443781	 1
1462090943.417	 9	 0.008428	 0.015463	 0.004516	 2.040285	 -0.887699	 -0.150185	 -0.166320	 0.784299	 -0.400364	 0.443759	 1
1462090943.427	 9	 0.019101	 0.018599	 0.001256	 2.040290	 -0.887690	 -0.150416	 -0.166226	 0.784320	 -0.400412	 0.443712	 1
1462090943.437	 9	 0.027670	 0.022852	 0.004419	 2.040264	 -0.887689	 -0.150756	 -0.166098	 0.784343	 -0.400485	 0.443655	 1
1462090943.447	 9	 0.033012	 0.022830	 0.007642	 2.040228	 -0.887716	 -0.151157	 -0.165955	 0.784364	 -0.400581	 0.443585	 1
1462090943.457	 9	 0.034062	 0.018581	 0.008658	 2.040101	 -0.887817	 -0.151633	 -0.165819	 0.784358	 -0.400714	 0.443525	 1
1462090943.467	 9	 0.030830	 0.011152	 0.009683	 2.039822	 -0.887876	 -0.152158	 -0.165684	 0.784330	 -0.400829	 0.443521	 1
1462090943.477	 9	 0.026529	 0.002672	 0.011773	 2.039572	 -0.887922	 -0.152578	 -0.165580	 0.784302	 -0.400919	 0.443528	 1
1462090943.487	 9	 0.023292	 -0.004764	 0.011730	 2.039297	 -0.888027	 -0.152942	 -0.165519	 0.784254	 -0.401016	 0.443548	 1
1462090943.497	 9	 0.020081	 -0.006881	 0.011736	 2.039062	 -0.888139	 -0.153227	 -0.165482	 0.784207	 -0.401102	 0.443567	 1
1462090943.507	 9	 0.017929	 -0.006905	 0.007490	 2.038877	 -0.888258	 -0.153439	 -0.165466	 0.784164	 -0.401178	 0.443581	 1
1462090943.517	 9	 0.014734	 -0.004775	 0.006470	 2.038721	 -0.888374	 -0.153624	 -0.165454	 0.784126	 -0.401250	 0.443588	 1
1462090943.527	 9	 0.008332	 -0.002643	 0.004413	 2.038759	 -0.888425	 -0.153638	 -0.165453	 0.784127	 -0.401275	 0.443563	 1
1462090943.537	 9	 0.005130	 -0.000520	 0.002328	 2.038919	 -0.888419	 -0.153544	 -0.165456	 0.784156	 -0.401265	 0.443520	 1
1462090943.547	 9	 -0.000189	 0.001641	 0.004525	 2.039197	 -0.888390	 -0.153354	 -0.165468	 0.784206	 -0.401235	 0.443454	 1
1462090943.557	 9	 -0.007671	 -0.000463	 0.004569	 2.039484	 -0.888331	 -0.153107	 -0.165493	 0.784259	 -0.401182	 0.443399	 1
1462090943.567	 9	 -0.013018	 -0.002572	 0.004595	 2.039832	 -0.888282	 -0.152771	 -0.165542	 0.784317	 -0.401118	 0.443336	 1
1462090943.577	 9	 -0.018389	 -0.010001	 0.004570	 2.040120	 -0.888304	 -0.152404	 -0.165634	 0.784346	 -0.401069	 0.443294	 1
1462090943.587	 9	 -0.021626	 -0.016380	 0.003471	 2.040306	 -0.888281	 -0.152045	 -0.165732	 0.784362	 -0.400996	 0.443296	 1
1462090943.597	 9	 -0.022733	 -0.023830	 0.002344	 2.040431	 -0.888245	 -0.151664	 -0.165847	 0.784364	 -0.400909	 0.443329	 1
1462090943.607	 9	 -0.024878	 -0.031268	 0.002354	 2.040481	 -0.888210	 -0.151270	 -0.165983	 0.784348	 -0.400812	 0.443393	 1
1462090943.617	 9	 -0.025958	 -0.035504	 0.004456	 2.040448	 -0.888076	 -0.150896	 -0.166103	 0.784332	 -0.400676	 0.443500	 1
1462090943.627	 9	 -0.027037	 -0.038684	 0.005501	 2.040436	 -0.887870	 -0.150472	 -0.166220	 0.784328	 -0.400504	 0.443619	 1
1462090943.637	 9	 -0.024884	 -0.035491	 0.006578	 2.040396	 -0.887687	 -0.150097	 -0.166330	 0.784318	 -0.400349	 0.443735	 1
1462090943.647	 9	 -0.020591	 -0.030185	 0.006591	 2.040356	 -0.887462	 -0.149778	 -0.166407	 0.784320	 -0.400190	 0.443846	 1
1462090943.657	 9	 -0.019500	 -0.024869	 0.006631	 2.040445	 -0.887249	 -0.149417	 -0.166477	 0.784344	 -0.400037	 0.443914	 1
1462090943.667	 9	 -0.020552	 -0.020618	 0.005614	 2.040555	 -0.887033	 -0.149065	 -0.166540	 0.784375	 -0.399888	 0.443971	 1
1462090943.677	 9	 -0.022686	 -0.019556	 0.004577	 2.040639	 -0.886840	 -0.148737	 -0.166603	 0.784398	 -0.399749	 0.444031	 1
1462090943.687	 9	 -0.022697	 -0.020627	 0.003502	 2.040727	 -0.886665	 -0.148388	 -0.166679	 0.784417	 -0.399613	 0.444091	 1
1462090943.697	 9	 -0.021636	 -0.022749	 0.004538	 2.040789	 -0.886515	 -0.148065	 -0.166756	 0.784429	 -0.399490	 0.444152	 1
1462090943.707	 9	 -0.018439	 -0.022766	 0.003444	 2.040800	 -0.886404	 -0.147780	 -0.166838	 0.784426	 -0.399386	 0.444220	 1
1462090943.717	 9	 -0.016300	 -0.020652	 0.002380	 2.040879	 -0.886278	 -0.147465	 -0.166914	 0.784438	 -0.399276	 0.444270	 1
1462090943.727	 9	 -0.010968	 -0.018564	 -0.000845	 2.040935	 -0.886217	 -0.147207	 -0.166989	 0.784439	 -0.399200	 0.444308	 1
1462090943.737	 9	 -0.008820	 -0.016434	 0.000222	 2.040979	 -0.886185	 -0.146993	 -0.167056	 0.784436	 -0.399144	 0.444338	 1
1462090943.747	 9	 -0.005609	 -0.014316	 0.000213	 2.041040	 -0.886170	 -0.146797	 -0.167117	 0.784436	 -0.399100	 0.444355	 1
1462090943.757	 9	 -0.002428	 -0.017524	 -0.000911	 2.041014	 -0.886138	 -0.146669	 -0.167165	 0.784425	 -0.399057	 0.444395	 1
1462090943.767	 9	 -0.001300	 -0.015351	 -0.000845	 2.040958	 -0.886148	 -0.146578	 -0.167214	 0.784403	 -0.399036	 0.444434	 1
1462090943.777	 9	 -0.001306	 -0.016414	 -0.000856	 2.040874	 -0.886175	 -0.146509	 -0.167264	 0.784374	 -0.399024	 0.444477	 1
1462090943.787	 9	 0.000843	 -0.014285	 0.000211	 2.040768	 -0.886161	 -0.146481	 -0.167293	 0.784350	 -0.399004	 0.444526	 1
1462090943.797	 9	 0.001903	 -0.017464	 0.002304	 2.040594	 -0.886155	 -0.146504	 -0.167317	 0.784315	 -0.398992	 0.444591	 1
1462090943.807	 9	 0.001907	 -0.016400	 0.002314	 2.040494	 -0.886138	 -0.146470	 -0.167346	 0.784292	 -0.398970	 0.444639	 1
1462090943.817	 9	 0.000836	 -0.016405	 0.001257	 2.040308	 -0.886129	 -0.146498	 -0.167370	 0.784255	 -0.398957	 0.444707	 1
1462090943.827	 9	 -0.002380	 -0.018530	 0.000199	 2.040118	 -0.886139	 -0.146501	 -0.167410	 0.784211	 -0.398945	 0.444780	 1
1462090943.837	 9	 -0.004538	 -0.021731	 -0.001942	 2.039892	 -0.886077	 -0.146494	 -0.167442	 0.784170	 -0.398902	 0.444879	 1
1462090943.847	 9	 -0.006682	 -0.024908	 -0.000887	 2.039609	 -0.886039	 -0.146496	 -0.167488	 0.784114	 -0.398864	 0.444995	 1
1462090943.857	 9	 -0.010981	 -0.031278	 -0.000908	 2.039368	 -0.885957	 -0.146397	 -0.167555	 0.784066	 -0.398791	 0.445121	 1
1462090943.867	 9	 -0.012083	 -0.037665	 -0.002023	 2.039073	 -0.885890	 -0.146278	 -0.167643	 0.784001	 -0.398715	 0.445269	 1
1462090943.877	 9	 -0.014233	 -0.041906	 -0.000977	 2.038766	 -0.885764	 -0.146119	 -0.167735	 0.783940	 -0.398606	 0.445439	 1
1462090943.887	 9	 -0.016370	 -0.042955	 0.000099	 2.038565	 -0.885569	 -0.145854	 -0.167831	 0.783905	 -0.398457	 0.445598	 1
1462090943.897	 9	 -0.015299	 -0.042951	 0.001157	 2.038324	 -0.885352	 -0.145616	 -0.167918	 0.783867	 -0.398303	 0.445770	 1
1462090943.907	 9	 -0.012079	 -0.038705	 0.001169	 2.038138	 -0.885140	 -0.145377	 -0.167996	 0.783841	 -0.398154	 0.445920	 1
1462090943.917	 9	 -0.006628	 -0.029061	 0.002328	 2.037931	 -0.884916	 -0.145248	 -0.168031	 0.783821	 -0.398024	 0.446058	 1
1462090943.927	 9	 0.000885	 -0.021622	 0.004465	 2.037764	 -0.884663	 -0.145206	 -0.168018	 0.783821	 -0.397905	 0.446168	 1
1462090943.937	 9	 0.007330	 -0.014180	 0.006611	 2.037598	 -0.884470	 -0.145253	 -0.167985	 0.783820	 -0.397829	 0.446250	 1
1462090943.947	 9	 0.013762	 -0.007816	 0.006615	 2.037428	 -0.884322	 -0.145405	 -0.167922	 0.783819	 -0.397793	 0.446307	 1
1462090943.957	 9	 0.017005	 -0.000364	 0.008790	 2.037319	 -0.884147	 -0.145592	 -0.167826	 0.783839	 -0.397760	 0.446337	 1
1462090943.967	 9	 0.018111	 0.007086	 0.009916	 2.037223	 -0.884005	 -0.145843	 -0.167712	 0.783862	 -0.397755	 0.446345	 1
1462090943.977	 9	 0.017076	 0.012424	 0.012107	 2.037198	 -0.883868	 -0.146083	 -0.167589	 0.783899	 -0.397755	 0.446326	 1
1462090943.987	 9	 0.013874	 0.012433	 0.012135	 2.037127	 -0.883793	 -0.146355	 -0.167477	 0.783919	 -0.397781	 0.446311	 1
1462090943.997	 9	 0.005341	 0.012467	 0.013276	 2.037154	 -0.883681	 -0.146518	 -0.167380	 0.783957	 -0.397778	 0.446283	 1
1462090944.007	 9	 0.002124	 0.008229	 0.014331	 2.037081	 -0.883528	 -0.146708	 -0.167282	 0.783982	 -0.397757	 0.446295	 1
1462090944.017	 9	 -0.000033	 0.000813	 0.017479	 2.036931	 -0.883346	 -0.146900	 -0.167191	 0.783994	 -0.397719	 0.446341	 1
1462090944.027	 9	 -0.001121	 -0.004495	 0.018504	 2.036862	 -0.883198	 -0.146973	 -0.167139	 0.784009	 -0.397673	 0.446375	 1
1462090944.037	 9	 -0.000040	 -0.001306	 0.018524	 2.036858	 -0.883054	 -0.147014	 -0.167088	 0.784035	 -0.397628	 0.446388	 1
1462090944.047	 9	 0.002109	 0.002936	 0.017477	 2.037070	 -0.882959	 -0.146912	 -0.167062	 0.784090	 -0.397587	 0.446339	 1
1462090944.057	 9	 0.003207	 0.011428	 0.015413	 2.037316	 -0.882942	 -0.146854	 -0.167031	 0.784142	 -0.397589	 0.446256	 1
1462090944.067	 9	 0.006429	 0.016730	 0.014368	 2.037592	 -0.882905	 -0.146826	 -0.166978	 0.784208	 -0.397592	 0.446159	 1
1462090944.077	 9	 0.010761	 0.017862	 0.011179	 2.037838	 -0.882998	 -0.146857	 -0.166940	 0.784250	 -0.397654	 0.446043	 1
1462090944.087	 9	 0.012882	 0.016778	 0.009017	 2.037984	 -0.883098	 -0.146982	 -0.166887	 0.784276	 -0.397732	 0.445947	 1
1462090944.097	 9	 0.012901	 0.018921	 0.011166	 2.038224	 -0.883289	 -0.147046	 -0.166862	 0.784304	 -0.397838	 0.445813	 1
1462090944.107	 9	 0.016136	 0.025302	 0.012262	 2.038402	 -0.883334	 -0.147215	 -0.166772	 0.784350	 -0.397907	 0.445704	 1
1462090944.117	 9	 0.023645	 0.032734	 0.013330	 2.038646	 -0.883410	 -0.147433	 -0.166657	 0.784410	 -0.398005	 0.445554	 1
1462090944.127	 9	 0.036483	 0.038031	 0.015398	 2.038806	 -0.883491	 -0.147821	 -0.166493	 0.784465	 -0.398135	 0.445403	 1
1462090944.137	 9	 0.050424	 0.045498	 0.023870	 2.038952	 -0.883589	 -0.148369	 -0.166273	 0.784527	 -0.398306	 0.445223	 1
1462090944.147	 9	 0.059059	 0.057252	 0.034560	 2.039011	 -0.883689	 -0.149160	 -0.165976	 0.784589	 -0.398524	 0.445028	 1
1462090944.157	 9	 0.068749	 0.064763	 0.047332	 2.039029	 -0.883784	 -0.150146	 -0.165610	 0.784659	 -0.398781	 0.444811	 1
1462090944.167	 9	 0.079359	 0.038255	 0.062976	 2.038438	 -0.883945	 -0.151571	 -0.165208	 0.784620	 -0.399109	 0.444736	 1
1462090944.177	 9	 0.083505	 0.002163	 0.074321	 2.037283	 -0.884294	 -0.153217	 -0.164881	 0.784441	 -0.399511	 0.444811	 1
1462090944.187	 9	 0.093014	 -0.033891	 0.093087	 2.035583	 -0.883915	 -0.155094	 -0.164389	 0.784280	 -0.399647	 0.445156	 1
1462090944.197	 9	 0.120833	 -0.053875	 0.135289	 2.033179	 -0.883320	 -0.157541	 -0.163761	 0.784042	 -0.399771	 0.445695	 1
1462090944.207	 9	 0.157310	 -0.061013	 0.192456	 2.030024	 -0.882376	 -0.160875	 -0.162847	 0.783763	 -0.399904	 0.446399	 1
1462090944.217	 9	 0.202454	 -0.032088	 0.239226	 2.026301	 -0.881177	 -0.165144	 -0.161616	 0.783471	 -0.400108	 0.447176	 1
1462090944.227	 9	 0.269040	 0.011718	 0.293407	 2.022113	 -0.879755	 -0.170603	 -0.159955	 0.783200	 -0.400463	 0.447930	 1
1462090944.237	 9	 0.375127	 0.042781	 0.366310	 2.016885	 -0.878135	 -0.177857	 -0.157748	 0.782861	 -0.401072	 0.448760	 1
1462090944.247	 9	 0.501534	 0.054884	 0.472964	 2.010053	 -0.876120	 -0.187455	 -0.154846	 0.782392	 -0.401947	 0.449804	 1
1462090944.257	 9	 0.688137	 -0.122011	 0.633850	 1.999530	 -0.873447	 -0.200337	 -0.151232	 0.781418	 -0.403059	 0.451728	 1
1462090944.267	 9	 0.806349	 -0.174470	 0.634464	 1.986104	 -0.870713	 -0.215603	 -0.147264	 0.779928	 -0.404513	 0.454306	 1
1462090944.277	 9	 0.805335	 -0.025687	 0.470664	 1.974165	 -0.869216	 -0.230337	 -0.143545	 0.778502	 -0.406454	 0.456206	 1
1462090944.287	 9	 0.784778	 0.041351	 0.320129	 1.964338	 -0.869003	 -0.243693	 -0.140295	 0.777236	 -0.408731	 0.457340	 1
1462090944.297	 9	 0.828523	 -0.130504	 0.253137	 1.953483	 -0.869627	 -0.256921	 -0.137555	 0.775581	 -0.411230	 0.458741	 1
1462090944.307	 9	 0.921203	 -0.340745	 0.192823	 1.939741	 -0.870960	 -0.271034	 -0.135293	 0.773198	 -0.414012	 0.460927	 1
1462090944.317	 9	 1.076054	 -0.466309	 0.100782	 1.923300	 -0.873423	 -0.286754	 -0.133334	 0.770119	 -0.417409	 0.463583	 1
1462090944.327	 9	 1.284161	 -0.543707	 -0.074403	 1.904335	 -0.877816	 -0.304685	 -0.131671	 0.766313	 -0.421851	 0.466335	 1
1462090944.337	 9	 1.580204	 -0.764880	 -0.239969	 1.880865	 -0.884457	 -0.326009	 -0.130426	 0.761360	 -0.427579	 0.469570	 1
1462090944.347	 9	 1.926232	 -1.031857	 -0.394673	 1.850762	 -0.893200	 -0.352311	 -0.129517	 0.754879	 -0.434762	 0.473673	 1
1462090944.357	 9	 2.238480	 -1.182067	 -0.594890	 1.814746	 -0.904044	 -0.383638	 -0.128926	 0.747038	 -0.443438	 0.478200	 1
1462090944.367	 9	 2.450471	 -1.307628	 -0.809991	 1.773994	 -0.916768	 -0.419122	 -0.128817	 0.738101	 -0.453367	 0.482775	 1
1462090944.377	 9	 2.516379	 -1.421999	 -1.007729	 1.729616	 -0.930693	 -0.457249	 -0.129430	 0.728340	 -0.463991	 0.487321	 1
1462090944.387	 9	 2.300585	 -1.315275	 -1.191365	 1.686082	 -0.945380	 -0.494357	 -0.130992	 0.718688	 -0.474520	 0.491080	 1
1462090944.397	 9	 1.904611	 -1.150952	 -1.146942	 1.647761	 -0.958979	 -0.526865	 -0.133075	 0.710191	 -0.483795	 0.493823	 1
1462090944.407	 9	 1.605804	 -1.242872	 -1.036488	 1.612685	 -0.970543	 -0.554980	 -0.135605	 0.702452	 -0.491502	 0.496587	 1
1462090944.417	 9	 1.446415	 -1.600399	 -0.975548	 1.576108	 -0.980782	 -0.581001	 -0.139082	 0.694359	 -0.498113	 0.500406	 1
1462090944.427	 9	 1.309386	 -1.928558	 -0.962487	 1.537034	 -0.990213	 -0.605593	 -0.143673	 0.685638	 -0.503860	 0.505355	 1
1462090944.437	 9	 1.161404	 -2.089701	 -0.949909	 1.497242	 -0.999132	 -0.628514	 -0.149096	 0.676676	 -0.508870	 0.510814	 1
1462090944.447	 9	 0.982376	 -2.129837	 -0.836819	 1.458632	 -1.006849	 -0.649073	 -0.154815	 0.667920	 -0.512951	 0.516523	 1
1462090944.457	 9	 0.787098	 -2.032399	 -0.679676	 1.423311	 -1.012905	 -0.666400	 -0.160346	 0.659842	 -0.515967	 0.522184	 1
1462090944.467	 9	 0.593534	 -1.810415	 -0.507535	 1.392958	 -1.017304	 -0.680109	 -0.165305	 0.652824	 -0.517999	 0.527421	 1
1462090944.477	 9	 0.403127	 -1.585358	 -0.350313	 1.368232	 -1.020259	 -0.689923	 -0.169618	 0.646998	 -0.519115	 0.532112	 1
1462090944.487	 9	 0.219707	 -1.446611	 -0.212073	 1.348384	 -1.022104	 -0.695878	 -0.173536	 0.642153	 -0.519359	 0.536462	 1
1462090944.497	 9	 0.023193	 -1.369511	 -0.073227	 1.332974	 -1.022994	 -0.697717	 -0.177279	 0.638141	 -0.518672	 0.540674	 1
1462090944.507	 9	 -0.169118	 -1.311523	 0.071799	 1.321800	 -1.022948	 -0.695261	 -0.180936	 0.634890	 -0.516996	 0.544879	 1
1462090944.517	 9	 -0.321785	 -1.238600	 0.239000	 1.314597	 -1.021772	 -0.688974	 -0.184344	 0.632374	 -0.514400	 0.549102	 1
1462090944.527	 9	 -0.402852	 -1.159378	 0.423754	 1.310472	 -1.019112	 -0.679973	 -0.187244	 0.630465	 -0.511041	 0.553435	 1
1462090944.537	 9	 -0.417593	 -1.044205	 0.606134	 1.308567	 -1.014780	 -0.669565	 -0.189378	 0.629065	 -0.507160	 0.557854	 1
1462090944.547	 9	 -0.387172	 -0.897965	 0.837434	 1.308541	 -1.008337	 -0.658561	 -0.190420	 0.628182	 -0.502858	 0.562371	 1
1462090944.557	 9	 -0.355379	 -0.775427	 1.174013	 1.310374	 -0.998809	 -0.646856	 -0.190051	 0.627846	 -0.497900	 0.567261	 1
1462090944.567	 9	 -0.380886	 -0.662674	 1.604786	 1.314764	 -0.985335	 -0.633364	 -0.188130	 0.628202	 -0.491838	 0.572769	 1
1462090944.577	 9	 -0.466288	 -0.622749	 2.088692	 1.322149	 -0.967390	 -0.616956	 -0.184733	 0.629326	 -0.484205	 0.579110	 1
1462090944.587	 9	 -0.558378	 -0.605466	 2.527683	 1.331681	 -0.945177	 -0.597742	 -0.180147	 0.631030	 -0.474886	 0.586371	 1
1462090944.597	 9	 -0.588786	 -0.557115	 2.875836	 1.342453	 -0.919366	 -0.577326	 -0.174370	 0.633222	 -0.464293	 0.594186	 1
1462090944.607	 9	 -0.547769	 -0.673442	 3.131245	 1.351781	 -0.890645	 -0.557429	 -0.167753	 0.635246	 -0.452776	 0.602756	 1
1462090944.617	 9	 -0.398161	 -0.996011	 3.297463	 1.356374	 -0.859773	 -0.539720	 -0.160757	 0.636180	 -0.440722	 0.612533	 1
1462090944.627	 9	 -0.104066	 -1.398213	 3.394538	 1.353502	 -0.827182	 -0.526155	 -0.153416	 0.635210	 -0.428682	 0.623861	 1
1462090944.637	 9	 0.180868	 -1.625592	 3.395270	 1.344350	 -0.793780	 -0.516953	 -0.145625	 0.632521	 -0.417164	 0.636148	 1
1462090944.647	 9	 0.311500	 -1.587219	 3.459502	 1.333190	 -0.759695	 -0.509840	 -0.137185	 0.629167	 -0.405909	 0.648512	 1
1462090944.657	 9	 0.293313	 -1.329239	 3.679476	 1.324413	 -0.723875	 -0.502088	 -0.127648	 0.626367	 -0.394106	 0.660341	 1
1462090944.667	 9	 0.250122	 -1.056374	 4.035159	 1.319343	 -0.685074	 -0.492618	 -0.116649	 0.624545	 -0.381109	 0.671634	 1
1462090944.677	 9	 0.300479	 -0.944726	 4.490839	 1.316227	 -0.642074	 -0.482167	 -0.103860	 0.623196	 -0.366657	 0.682936	 1
1462090944.687	 9	 0.488040	 -1.264377	 5.074533	 1.310680	 -0.593394	 -0.471957	 -0.089118	 0.620842	 -0.350499	 0.695531	 1
1462090944.697	 9	 0.857680	 -1.708676	 5.703440	 1.299230	 -0.537854	 -0.463303	 -0.072048	 0.616137	 -0.332673	 0.710290	 1
1462090944.707	 9	 1.354945	 -1.716694	 5.971871	 1.284333	 -0.477345	 -0.458071	 -0.052250	 0.609739	 -0.314556	 0.725633	 1
1462090944.717	 9	 1.783816	 -1.465109	 5.637960	 1.269306	 -0.417413	 -0.457516	 -0.030970	 0.602758	 -0.298294	 0.739422	 1
1462090944.727	 9	 1.721578	 -1.176614	 5.208487	 1.256376	 -0.361530	 -0.458495	 -0.010284	 0.596035	 -0.283757	 0.751078	 1
1462090944.737	 9	 1.219040	 -1.003083	 5.027969	 1.247281	 -0.309205	 -0.455247	 0.008438	 0.590353	 -0.268607	 0.761093	 1
1462090944.747	 9	 0.868582	 -1.423232	 4.883233	 1.236441	 -0.259618	 -0.447983	 0.024805	 0.583784	 -0.252638	 0.771204	 1
1462090944.757	 9	 0.714643	 -1.992177	 4.686376	 1.219977	 -0.212477	 -0.438843	 0.039157	 0.574889	 -0.236693	 0.782270	 1
1462090944.767	 9	 0.679450	 -2.275348	 4.491144	 1.199575	 -0.167663	 -0.429038	 0.052206	 0.564306	 -0.221285	 0.793641	 1
1462090944.777	 9	 0.778848	 -2.211040	 4.452510	 1.178498	 -0.123588	 -0.419246	 0.065207	 0.553217	 -0.206236	 0.804466	 1
1462090944.787	 9	 1.029684	 -1.808153	 4.523349	 1.160129	 -0.078413	 -0.410425	 0.079502	 0.542846	 -0.191344	 0.813870	 1
1462090944.797	 9	 1.375459	 -1.256047	 4.675749	 1.146559	 -0.030865	 -0.403361	 0.095935	 0.533930	 -0.176472	 0.821324	 1
1462090944.807	 9	 1.741605	 -0.735464	 4.889492	 1.137989	 0.019959	 -0.398281	 0.114822	 0.526448	 -0.161379	 0.826816	 1
1462090944.817	 9	 2.024186	 -0.290097	 5.110723	 1.133867	 0.074067	 -0.394746	 0.135866	 0.520135	 -0.145804	 0.830506	 1
1462090944.827	 9	 2.148872	 -0.002186	 5.262589	 1.132953	 0.130475	 -0.391853	 0.158208	 0.514566	 -0.129601	 0.832704	 1
1462090944.837	 9	 2.096275	 0.152252	 5.270878	 1.133645	 0.187263	 -0.388637	 0.180619	 0.509310	 -0.112928	 0.833803	 1
1462090944.847	 9	 1.933451	 0.165322	 5.100830	 1.134546	 0.242332	 -0.384662	 0.202015	 0.504074	 -0.096276	 0.834164	 1
1462090944.857	 9	 1.740063	 -0.072503	 4.788032	 1.133387	 0.294028	 -0.380129	 0.221689	 0.498143	 -0.080447	 0.834407	 1
1462090944.867	 9	 1.536155	 -0.485951	 4.453442	 1.127963	 0.341824	 -0.374913	 0.239392	 0.490751	 -0.065880	 0.835174	 1
1462090944.877	 9	 1.361393	 -0.864083	 4.160492	 1.118034	 0.386009	 -0.368856	 0.255306	 0.481858	 -0.052581	 0.836580	 1
1462090944.887	 9	 1.251589	 -1.103636	 3.936475	 1.104807	 0.427395	 -0.362033	 0.269901	 0.471919	 -0.040302	 0.838344	 1
1462090944.897	 9	 1.245541	 -1.402106	 3.843160	 1.088767	 0.467287	 -0.354805	 0.283858	 0.460960	 -0.028840	 0.840303	 1
1462090944.907	 9	 1.221010	 -1.816083	 3.801154	 1.067562	 0.506855	 -0.346699	 0.297565	 0.447929	 -0.018091	 0.842904	 1
1462090944.927	 10	 0.983766	 -1.730406	 3.346805	 1.021619	 0.578263	 -0.326499	 0.321575	 0.421937	 0.001643	 0.847677	 1
1462090944.937	 10	 1.010761	 -1.783520	 3.220316	 0.998040	 0.611045	 -0.315926	 0.332618	 0.409174	 0.010429	 0.849608	 1
1462090944.947	 10	 1.038107	 -1.844433	 3.191801	 0.973168	 0.643385	 -0.304754	 0.343574	 0.396060	 0.018844	 0.851315	 1
1462090944.957	 10	 1.078259	 -1.870585	 3.121934	 0.947322	 0.675263	 -0.293002	 0.354454	 0.382752	 0.026910	 0.852725	 1
1462090944.967	 11	 1.167160	 -1.906989	 2.978009	 0.921124	 0.706315	 -0.281635	 0.365288	 0.369410	 0.034228	 0.853774	 1
1462090944.987	 11	 1.486079	 -2.061834	 2.581591	 0.869439	 0.766048	 -0.264123	 0.387453	 0.342603	 0.045250	 0.854667	 1
1462090944.997	 11	 1.655668	 -2.144574	 2.387507	 0.844487	 0.795013	 -0.258852	 0.398935	 0.329119	 0.048768	 0.854490	 1
1462090945.007	 11	 1.817843	 -2.226135	 2.206288	 0.820325	 0.823626	 -0.255954	 0.410707	 0.315584	 0.051049	 0.853885	 1
1462090945.017	 11	 1.958953	 -2.261787	 2.040600	 0.797281	 0.851970	 -0.255315	 0.422720	 0.302118	 0.052248	 0.852821	 1
1462090945.027	 11	 2.059003	 -2.221419	 1.904765	 0.775783	 0.880058	 -0.256447	 0.434842	 0.288974	 0.052697	 0.851252	 1
1462090945.047	 12	 2.262460	 -1.900185	 1.697094	 0.740343	 0.936050	 -0.263359	 0.459320	 0.264855	 0.052551	 0.846236	 1
1462090945.057	 12	 2.363621	 -1.654302	 1.617503	 0.728111	 0.964388	 -0.269420	 0.471774	 0.254412	 0.052429	 0.842588	 1
1462090945.067	 12	 2.427429	 -1.405147	 1.534005	 0.719904	 0.992774	 -0.277200	 0.484246	 0.245167	 0.052444	 0.838241	 1
1462090945.077	 12	 2.440794	 -1.211199	 1.444038	 0.715254	 1.020797	 -0.286540	 0.496538	 0.236970	 0.052557	 0.833386	 1
1462090945.087	 12	 2.406824	 -1.105325	 1.363255	 0.713086	 1.048133	 -0.297119	 0.508498	 0.229456	 0.052646	 0.828256	 1
1462090945.107	 13	 2.188841	 -1.109414	 1.297972	 0.709558	 1.099841	 -0.317921	 0.530775	 0.214859	 0.052711	 0.818129	 1
1462090945.117	 13	 2.065876	 -1.140071	 1.274245	 0.706084	 1.124084	 -0.326689	 0.540968	 0.207354	 0.052688	 0.813377	 1
1462090945.127	 13	 1.994181	 -1.153924	 1.241701	 0.702052	 1.147478	 -0.334941	 0.550687	 0.199803	 0.052567	 0.808739	 1
1462090945.137	 13	 2.004949	 -1.109490	 1.213245	 0.698921	 1.170602	 -0.343801	 0.560228	 0.192404	 0.052402	 0.803977	 1
1462090945.147	 13	 2.077078	 -0.973586	 1.209619	 0.698492	 1.194118	 -0.354291	 0.569874	 0.185467	 0.052437	 0.798809	 1
1462090945.157	 13	 2.147549	 -0.762995	 1.237609	 0.701666	 1.218326	 -0.366445	 0.579689	 0.179243	 0.053032	 0.793108	 1
1462090945.167	 13	 2.162579	 -0.544768	 1.269350	 0.708119	 1.242977	 -0.379637	 0.589507	 0.173771	 0.054359	 0.786976	 1
1462090945.177	 13	 2.100609	 -0.342429	 1.279233	 0.717030	 1.267383	 -0.393134	 0.599022	 0.169023	 0.056388	 0.780657	 1
1462090945.187	 13	 1.946520	 -0.181568	 1.252230	 0.727091	 1.290663	 -0.405896	 0.607874	 0.164945	 0.058985	 0.774469	 1
1462090945.197	 13	 1.703004	 -0.155914	 1.171460	 0.736106	 1.311802	 -0.416850	 0.615716	 0.161226	 0.061682	 0.768827	 1
1462090945.207	 13	 1.437584	 -0.196591	 1.028448	 0.743124	 1.330096	 -0.425989	 0.622386	 0.157695	 0.064000	 0.763984	 1
1462090945.217	 13	 1.173992	 -0.288447	 0.868959	 0.747834	 1.345370	 -0.433520	 0.627905	 0.154261	 0.065675	 0.760017	 1
1462090945.227	 13	 0.904820	 -0.437670	 0.716444	 0.748820	 1.357617	 -0.438610	 0.632300	 0.150702	 0.066531	 0.757007	 1
1462090945.237	 13	 0.646404	 -0.605755	 0.607356	 0.744112	 1.367096	 -0.439554	 0.635635	 0.146815	 0.066597	 0.754969	 1
1462090945.247	 13	 0.427856	 -0.754279	 0.571641	 0.731778	 1.374517	 -0.434330	 0.638099	 0.142419	 0.066127	 0.753773	 1
1462090945.257	 13	 0.271924	 -0.793068	 0.586493	 0.711983	 1.380655	 -0.422219	 0.639922	 0.137686	 0.065570	 0.753155	 1
1462090945.267	 13	 0.161295	 -0.759406	 0.636794	 0.685488	 1.386081	 -0.403090	 0.641296	 0.132856	 0.065319	 0.752876	 1
1462090945.277	 13	 0.097910	 -0.669473	 0.692537	 0.653327	 1.391163	 -0.377472	 0.642383	 0.128090	 0.065568	 0.752754	 1
1462090945.287	 13	 0.077354	 -0.518245	 0.711175	 0.618538	 1.396028	 -0.347809	 0.643318	 0.123732	 0.066390	 0.752612	 1
1462090945.297	 13	 0.093108	 -0.341767	 0.706286	 0.583967	 1.400745	 -0.316628	 0.644204	 0.120032	 0.067761	 0.752331	 1
1462090945.307	 13	 0.138595	 -0.184626	 0.687102	 0.551242	 1.405533	 -0.285693	 0.645165	 0.117007	 0.069574	 0.751819	 1
1462090945.317	 13	 0.181611	 -0.085032	 0.651419	 0.520951	 1.410386	 -0.256066	 0.646230	 0.114538	 0.071617	 0.751092	 1
1462090945.327	 13	 0.195485	 -0.054489	 0.615346	 0.492026	 1.415103	 -0.227370	 0.647331	 0.112371	 0.073658	 0.750273	 1
1462090945.337	 13	 0.185653	 -0.074910	 0.582203	 0.463114	 1.419491	 -0.198802	 0.648393	 0.110277	 0.075544	 0.749479	 1
1462090945.347	 13	 0.173583	 -0.118709	 0.550994	 0.433611	 1.423505	 -0.170043	 0.649399	 0.108130	 0.077198	 0.748752	 1
1462090945.357	 13	 0.181665	 -0.169121	 0.496100	 0.405086	 1.427231	 -0.142813	 0.650407	 0.105944	 0.078504	 0.748053	 1
1462090945.367	 13	 0.190807	 -0.205840	 0.423207	 0.379598	 1.430658	 -0.119058	 0.651420	 0.103845	 0.079413	 0.747370	 1
1462090945.387	 14	 0.211085	 -0.268994	 0.229540	 0.343723	 1.436705	 -0.087853	 0.653478	 0.100158	 0.079871	 0.746026	 1
1462090945.397	 14	 0.206327	 -0.297285	 0.139794	 0.334702	 1.439194	 -0.081669	 0.654446	 0.098639	 0.079420	 0.745428	 1
1462090945.407	 14	 0.194276	 -0.328398	 0.098045	 0.328759	 1.441412	 -0.078921	 0.655363	 0.097171	 0.078664	 0.744895	 1
1462090945.417	 14	 0.188922	 -0.334741	 0.101230	 0.322958	 1.443523	 -0.076457	 0.656249	 0.095675	 0.077834	 0.744396	 1
1462090945.427	 14	 0.186081	 -0.291899	 0.141086	 0.314809	 1.445706	 -0.071326	 0.657125	 0.094184	 0.077224	 0.743877	 1
1462090945.447	 15	 0.163349	 -0.173430	 0.188214	 0.291258	 1.450097	 -0.051890	 0.658749	 0.091555	 0.076992	 0.742792	 1
1462090945.457	 15	 0.148440	 -0.138531	 0.154564	 0.280163	 1.452012	 -0.042194	 0.659441	 0.090524	 0.077052	 0.742297	 1
1462090945.467	 15	 0.145155	 -0.101764	 0.089924	 0.273727	 1.453705	 -0.036844	 0.660073	 0.089811	 0.077013	 0.741826	 1
1462090945.477	 15	 0.145056	 -0.053438	 0.007245	 0.274076	 1.455178	 -0.037866	 0.660649	 0.089526	 0.076833	 0.741366	 1
1462090945.487	 15	 0.152417	 -0.011478	 -0.070230	 0.281716	 1.456472	 -0.045761	 0.661187	 0.089678	 0.076508	 0.740902	 1
1462090945.507	 16	 0.170466	 0.024154	 -0.136132	 0.311124	 1.459010	 -0.075062	 0.662323	 0.090717	 0.075556	 0.739858	 1
1462090945.517	 16	 0.134170	 0.007367	 -0.118920	 0.325995	 1.459998	 -0.089877	 0.662798	 0.091241	 0.075076	 0.739417	 1
1462090945.527	 16	 0.079718	 -0.035756	 -0.074086	 0.335955	 1.460604	 -0.100148	 0.663115	 0.091475	 0.074628	 0.739149	 1
1462090945.537	 16	 0.022142	 -0.071323	 -0.017428	 0.363032	 1.462873	 -0.127741	 0.664201	 0.092140	 0.073610	 0.738193	 1
1462090945.547	 16	 -0.008701	 -0.109005	 0.053896	 0.358786	 1.462969	 -0.124472	 0.664242	 0.091651	 0.073415	 0.738236	 1
1462090945.557	 16	 -0.000023	 -0.124592	 0.108029	 0.349033	 1.463269	 -0.115894	 0.664317	 0.090875	 0.073368	 0.738269	 1
1462090945.567	 16	 0.039694	 -0.091598	 0.127174	 0.337938	 1.463953	 -0.105768	 0.664514	 0.090091	 0.073475	 0.738177	 1
1462090945.577	 16	 0.106068	 -0.033415	 0.110099	 0.330757	 1.467334	 -0.099023	 0.665704	 0.089435	 0.073841	 0.737148	 1
1462090945.587	 16	 0.162775	 0.028902	 0.072884	 0.328032	 1.469019	 -0.096141	 0.666288	 0.089268	 0.074125	 0.736612	 1
1462090945.597	 16	 0.194877	 0.077472	 0.036820	 0.330481	 1.470949	 -0.097936	 0.666977	 0.089431	 0.074429	 0.735938	 1
1462090945.607	 16	 0.179925	 0.095421	 0.012605	 0.335903	 1.472766	 -0.102447	 0.667635	 0.089786	 0.074720	 0.735268	 1
1462090945.617	 16	 0.110416	 0.065845	 0.011877	 0.350362	 1.476006	 -0.116106	 0.668879	 0.090283	 0.074797	 0.734067	 1
1462090945.627	 16	 0.003459	 -0.003875	 0.034541	 0.348872	 1.476401	 -0.114468	 0.669004	 0.090253	 0.074933	 0.733944	 1
1462090945.637	 16	 -0.108752	 -0.071321	 0.075389	 0.339073	 1.475850	 -0.105177	 0.668754	 0.089806	 0.075021	 0.734217	 1
1462090945.647	 16	 -0.198562	 -0.133577	 0.107565	 0.321938	 1.474490	 -0.089156	 0.668189	 0.088967	 0.075073	 0.734828	 1
1462090945.657	 16	 -0.254196	 -0.184290	 0.132094	 0.298312	 1.473146	 -0.067172	 0.667617	 0.087713	 0.075170	 0.735489	 1
1462090945.667	 16	 -0.255347	 -0.210801	 0.142515	 0.275185	 1.471072	 -0.045991	 0.666806	 0.086390	 0.075119	 0.736385	 1
1462090945.677	 16	 -0.212616	 -0.189756	 0.128484	 0.254523	 1.469254	 -0.027226	 0.666110	 0.085124	 0.075047	 0.737170	 1
1462090945.687	 16	 -0.131318	 -0.115828	 0.089031	 0.239999	 1.468003	 -0.013997	 0.665635	 0.084230	 0.075027	 0.737704	 1
1462090945.697	 16	 -0.028557	 -0.008019	 0.037999	 0.215407	 1.468565	 0.010150	 0.665759	 0.083175	 0.075772	 0.737635	 1
1462090945.707	 16	 0.064709	 0.110579	 0.003120	 0.216123	 1.469005	 0.010259	 0.665889	 0.083460	 0.076068	 0.737455	 1
1462090945.717	 16	 0.136484	 0.183626	 -0.014943	 0.221471	 1.470156	 0.006591	 0.666264	 0.084169	 0.076542	 0.736987	 1
1462090945.727	 16	 0.181433	 0.209036	 -0.012967	 0.228812	 1.471797	 0.001270	 0.666811	 0.085040	 0.077096	 0.736334	 1
1462090945.737	 16	 0.190021	 0.211203	 -0.003420	 0.225247	 1.474208	 0.006873	 0.667598	 0.085507	 0.078068	 0.735463	 1
1462090945.747	 16	 0.168566	 0.192082	 -0.008740	 0.232025	 1.475897	 0.002052	 0.668161	 0.086325	 0.078629	 0.734797	 1
1462090945.757	 16	 0.130978	 0.163289	 -0.034259	 0.239898	 1.477203	 -0.004157	 0.668599	 0.087090	 0.079037	 0.734264	 1
1462090945.767	 16	 0.090204	 0.155625	 -0.080869	 0.251109	 1.478001	 -0.013854	 0.668873	 0.087928	 0.079264	 0.733891	 1
1462090945.777	 16	 0.053978	 0.191668	 -0.111101	 0.243191	 1.480621	 -0.004333	 0.669729	 0.088097	 0.080228	 0.732984	 1
1462090945.787	 16	 -0.017445	 0.240525	 -0.149458	 0.260402	 1.480249	 -0.019232	 0.669563	 0.089433	 0.080513	 0.732943	 1
1462090945.797	 16	 -0.041301	 0.182965	 -0.176430	 0.279400	 1.479447	 -0.036322	 0.669275	 0.090716	 0.080565	 0.733043	 1
1462090945.807	 16	 -0.054261	 0.147925	 -0.173446	 0.297610	 1.478449	 -0.053049	 0.668941	 0.091851	 0.080465	 0.733217	 1
1462090945.817	 16	 -0.038321	 0.120333	 -0.157851	 0.304295	 1.477347	 -0.058558	 0.668525	 0.092527	 0.080609	 0.733495	 1
1462090945.827	 16	 0.001048	 0.092590	 -0.154189	 0.320588	 1.476771	 -0.073918	 0.668374	 0.093406	 0.080381	 0.733547	 1
1462090945.837	 16	 0.046779	 0.055263	 -0.149606	 0.337706	 1.476616	 -0.090456	 0.668407	 0.094168	 0.080025	 0.733458	 1
1462090945.847	 16	 0.095699	 0.002087	 -0.129211	 0.354347	 1.476954	 -0.107022	 0.668647	 0.094707	 0.079541	 0.733222	 1
1462090945.857	 16	 0.136160	 -0.028776	 -0.114937	 0.365097	 1.476130	 -0.118092	 0.668450	 0.095015	 0.079006	 0.733420	 1
